Millis,AccelX_chest,AccelY_chest,AccelZ_chest,GyroX_chest,GyroY_chest,GyroZ_chest,AccelX_right_leg,AccelY_right_leg,AccelZ_right_leg,GyroX_right_leg,GyroY_right_leg,GyroZ_right_leg,AccelX_left_leg,AccelY_left_leg,AccelZ_left_leg,GyroX_left_leg,GyroY_left_leg,GyroZ_left_leg,AccelX_right_arm,AccelY_right_arm,AccelZ_right_arm,GyroX_right_arm,GyroY_right_arm,GyroZ_right_arm,AccelX_left_arm,AccelY_left_arm,AccelZ_left_arm,GyroX_left_arm,GyroY_left_arm,GyroZ_left_arm
0.0,-0.992,-0.057,0.228,-1.19,-2.03,-0.42,-1.009,-0.142,0.09,-2.1,-0.63,0.84,-1.007,0.031,0.021,-0.63,-2.38,-0.98,-0.996,0.007,0.081,-1.82,-5.18,0.42,-0.984,-0.165,-0.176,-3.71,-3.71,0.91
20.0,-0.991,-0.052,0.231,-0.98,-1.89,-0.42,-1.005,-0.138,0.088,-1.085,0.115,1.008,-1.003,0.023,0.019,-1.05,-2.03,-0.84,-0.987,-0.001,0.078,-0.577,-4.214,1.125,-0.987,-0.171,-0.177,-3.918,-3.265,1.527
40.0,-0.991,-0.052,0.233,-1.12,-1.82,-0.42,-1.012,-0.133,0.086,-1.364,-0.066,1.263,-1.009,0.023,0.018,-0.402,-2.03,-1.008,-0.992,0.0,0.077,0.517,-2.768,1.836,-0.996,-0.173,-0.17,-3.591,-3.037,2.081
60.0,-0.997,-0.053,0.236,-1.068,-1.938,-0.29,-1.011,-0.139,0.077,-0.589,-0.504,1.739,-1.004,0.024,0.017,-0.538,-1.716,-1.217,-1.002,0.004,0.082,0.838,-2.37,2.04,-0.994,-0.169,-0.168,-3.57,-2.882,1.909
80.0,-0.995,-0.059,0.235,-0.874,-2.013,-0.28,-1.014,-0.13,0.08,-1.275,-1.27,1.46,-1.013,0.02,0.012,0.393,-2.257,-1.46,-1.0,0.004,0.083,0.376,-2.244,2.232,-0.983,-0.163,-0.172,-4.9,-2.24,0.84
100.0,-0.996,-0.058,0.232,-0.776,-2.169,-0.28,-1.01,-0.129,0.082,-1.953,-1.833,1.042,-1.016,0.026,0.015,0.626,-3.026,-1.47,-0.995,0.002,0.084,-0.257,-2.184,2.376,-0.988,-0.175,-0.17,-5.81,-2.17,0.07
120.0,-0.993,-0.057,0.226,-0.38,-1.429,-0.344,-1.009,-0.131,0.081,-2.422,-1.645,0.554,-1.002,0.032,0.02,-0.29,-3.216,-1.523,-0.992,-0.003,0.086,-0.222,-1.862,2.244,-0.991,-0.187,-0.161,-4.111,-2.624,0.333
140.0,-0.992,-0.062,0.227,-0.789,-1.197,-0.241,-1.014,-0.135,0.081,-2.354,-2.049,0.37,-1.005,0.014,0.017,-0.057,-2.881,-1.812,-0.991,-0.007,0.084,0.052,-1.411,2.379,-0.989,-0.191,-0.157,-1.254,-2.221,1.115
160.0,-0.989,-0.061,0.223,-0.495,-1.68,-0.114,-1.011,-0.128,0.084,-1.718,-2.1,0.283,-1.01,0.019,0.019,1.512,-3.21,-1.738,-0.991,-0.011,0.092,0.504,-1.294,2.318,-0.995,-0.181,-0.164,0.674,-2.432,1.654
180.0,-0.989,-0.049,0.215,1.182,-1.25,0.027,-1.011,-0.134,0.078,-1.736,-2.318,0.28,-1.008,0.032,0.022,1.233,-3.29,-1.415,-1.0,-0.014,0.09,1.038,-1.052,2.379,-0.994,-0.168,-0.165,0.479,-2.901,1.135
200.0,-0.991,-0.048,0.22,1.465,-0.723,0.173,-1.014,-0.139,0.079,-1.28,-2.772,0.559,-1.002,0.029,0.022,-0.211,-2.936,-1.566,-1.008,-0.01,0.09,1.164,-1.349,2.245,-0.992,-0.17,-0.162,-0.791,-3.219,0.189
220.0,-0.993,-0.053,0.224,0.571,-0.289,0.154,-1.013,-0.139,0.084,-0.546,-2.836,0.932,-1.005,0.024,0.019,-0.229,-2.785,-1.667,-1.006,-0.014,0.091,1.242,-1.336,1.812,-0.989,-0.171,-0.158,-1.553,-3.22,-0.819
240.0,-1.003,-0.05,0.23,-0.91,-0.171,-0.023,-1.011,-0.132,0.086,-0.564,-2.576,0.884,-1.006,0.024,0.02,0.561,-2.834,-1.61,-1.005,-0.013,0.097,1.826,-1.386,1.554,-0.986,-0.172,-0.161,-1.864,-3.165,-1.855
260.0,-1.003,-0.052,0.232,-0.949,-1.105,-0.168,-1.013,-0.133,0.084,-0.605,-2.299,0.873,-1.006,0.029,0.021,0.505,-2.707,-1.689,-0.997,-0.01,0.099,1.96,-1.4,1.239,-0.984,-0.174,-0.165,-1.816,-3.37,-2.525
280.0,-0.997,-0.055,0.226,-0.494,-1.311,-0.25,-1.013,-0.137,0.084,-0.22,-1.817,0.951,-1.006,0.029,0.021,-0.163,-2.399,-1.75,-0.993,-0.013,0.097,2.08,-1.28,0.967,-0.986,-0.177,-0.166,-1.11,-3.265,-2.278
300.0,-0.991,-0.056,0.22,-0.086,-1.19,-0.314,-1.011,-0.135,0.082,0.066,-1.678,0.891,-1.007,0.02,0.018,-0.249,-2.429,-1.721,-0.995,-0.008,0.1,1.989,-1.26,0.561,-0.989,-0.174,-0.164,0.06,-3.33,-1.745
320.0,-0.99,-0.055,0.222,0.089,-1.159,-0.426,-1.01,-0.132,0.081,-0.517,-1.894,0.77,-1.009,0.023,0.018,0.176,-2.59,-1.632,-1.0,-0.006,0.1,1.218,-1.426,-0.303,-0.983,-0.169,-0.167,0.21,-3.046,-1.341
340.0,-0.992,-0.055,0.225,0.355,-1.14,-0.49,-1.008,-0.134,0.082,-0.793,-2.17,0.839,-1.007,0.028,0.018,0.0,-2.59,-1.61,-1.01,-0.008,0.097,0.608,-1.929,-1.078,-0.981,-0.17,-0.169,0.21,-2.536,-1.153
360.0,-0.995,-0.056,0.224,0.669,-1.089,-0.555,-1.004,-0.138,0.077,0.687,-2.783,1.12,-1.005,0.027,0.017,-0.439,-2.527,-1.635,-1.012,-0.008,0.093,0.621,-2.449,-1.645,-0.988,-0.173,-0.17,0.322,-2.093,-0.945
380.0,-0.996,-0.055,0.224,0.646,-0.397,-0.867,-1.011,-0.133,0.084,0.67,-2.63,0.947,-1.006,0.02,0.019,0.012,-2.45,-1.724,-1.007,-0.007,0.091,1.103,-2.594,-1.989,-0.989,-0.172,-0.17,0.922,-2.351,-0.444
400.0,-0.997,-0.052,0.227,1.036,0.214,-1.063,-1.011,-0.132,0.086,-0.553,-2.17,0.39,-1.007,0.018,0.019,1.34,-2.509,-1.691,-1.007,-0.008,0.094,2.335,-2.369,-1.463,-0.988,-0.173,-0.172,1.725,-2.121,-0.475
420.0,-0.998,-0.053,0.228,1.668,-0.004,-1.076,-1.011,-0.133,0.086,-1.605,-2.092,0.156,-1.01,0.025,0.016,1.761,-2.64,-1.565,-1.001,-0.005,0.097,2.968,-2.405,-0.704,-0.987,-0.171,-0.17,2.142,-2.204,-0.793
440.0,-1.001,-0.057,0.23,1.556,-0.77,-1.01,-1.01,-0.14,0.082,-1.434,-1.57,0.316,-1.006,0.031,0.016,1.01,-2.59,-1.785,-0.999,-0.002,0.092,3.033,-1.967,-0.21,-0.983,-0.164,-0.169,1.706,-1.957,-1.513
460.0,-0.99,-0.052,0.215,1.354,-0.708,-1.19,-1.014,-0.141,0.081,-0.776,-1.461,0.42,-1.002,0.027,0.019,0.581,-2.581,-2.021,-1.003,-0.003,0.091,3.208,-2.227,-0.235,-0.981,-0.162,-0.17,0.496,-1.459,-2.749
480.0,-0.988,-0.052,0.223,1.54,0.077,-1.216,-1.011,-0.135,0.081,-1.454,-1.161,0.41,-1.012,0.023,0.018,1.063,-2.483,-1.77,-1.005,-0.001,0.095,2.896,-2.693,-0.959,-0.985,-0.168,-0.172,0.013,-0.958,-3.098
500.0,-0.992,-0.056,0.226,1.567,0.306,-1.457,-1.011,-0.132,0.083,-1.677,-0.911,0.352,-1.014,0.024,0.017,1.265,-2.8,-1.495,-1.001,-0.004,0.091,2.783,-2.845,-1.5,-0.991,-0.176,-0.171,0.409,-0.84,-2.428
520.0,-0.994,-0.057,0.224,1.855,0.078,-1.626,-1.017,-0.135,0.081,-0.853,-1.287,0.795,-1.001,0.029,0.018,-0.231,-2.794,-1.26,-0.997,-0.003,0.092,3.261,-2.935,-1.54,-0.991,-0.178,-0.169,2.187,-0.824,-0.959
540.0,-0.995,-0.053,0.221,2.24,0.506,-1.75,-1.006,-0.139,0.079,0.983,-2.206,1.381,-1.008,0.029,0.018,-0.766,-2.608,-1.263,-0.997,-0.002,0.089,3.685,-2.628,-1.535,-0.989,-0.176,-0.171,4.134,-0.717,0.077
560.0,-0.998,-0.054,0.218,2.24,0.782,-1.675,-1.005,-0.131,0.076,-0.39,-1.911,0.953,-1.009,0.024,0.02,-0.574,-3.008,-1.391,-0.996,-0.005,0.087,4.192,-2.277,-1.229,-0.99,-0.167,-0.171,4.401,-0.554,0.16
580.0,-0.996,-0.053,0.22,2.239,0.994,-1.535,-1.005,-0.137,0.079,-0.922,-1.956,0.851,-1.001,0.018,0.019,0.157,-2.74,-1.748,-1.0,-0.002,0.086,4.76,-2.03,-0.989,-0.992,-0.161,-0.169,3.708,-0.613,-0.602
600.0,-0.994,-0.053,0.219,2.093,1.33,-1.467,-1.011,-0.135,0.081,-1.399,-1.811,0.723,-1.009,0.02,0.018,1.95,-2.591,-1.55,-1.0,0.0,0.087,4.689,-2.054,-1.342,-0.992,-0.157,-0.171,2.277,-0.811,-1.752
620.0,-0.994,-0.054,0.221,1.964,1.263,-1.409,-1.011,-0.136,0.077,-1.401,-1.702,0.7,-1.006,0.027,0.02,1.393,-2.606,-1.4,-0.995,-0.0,0.086,4.346,-2.165,-1.577,-0.991,-0.158,-0.172,1.101,-0.77,-2.433
640.0,-0.996,-0.054,0.22,1.96,1.26,-1.332,-1.01,-0.137,0.081,-1.092,-1.622,0.773,-1.006,0.031,0.016,0.56,-2.8,-1.4,-0.993,-0.005,0.085,4.621,-1.993,-1.741,-0.992,-0.163,-0.167,0.7,-0.77,-2.503
660.0,-0.999,-0.058,0.223,2.298,1.132,-1.33,-1.02,-0.136,0.081,0.388,-2.388,1.429,-1.002,0.026,0.019,0.072,-2.8,-1.47,-0.994,-0.008,0.081,5.68,-1.564,-1.479,-0.994,-0.163,-0.165,0.725,-0.824,-2.064
680.0,-0.994,-0.053,0.221,2.678,1.16,-1.276,-1.012,-0.137,0.079,0.229,-2.258,1.339,-1.007,0.025,0.016,0.542,-2.869,-1.47,-0.996,-0.009,0.081,7.202,-0.983,-1.339,-0.993,-0.159,-0.17,0.553,-1.084,-1.706
700.0,-0.995,-0.048,0.217,2.529,1.289,-1.26,-1.011,-0.136,0.076,-0.246,-2.201,1.073,-1.009,0.022,0.019,0.784,-2.59,-1.609,-1.007,0.005,0.09,7.082,-1.316,-1.067,-0.995,-0.154,-0.167,-0.162,-1.003,-1.654
720.0,-0.994,-0.049,0.214,1.921,1.376,-1.318,-1.012,-0.138,0.079,-0.846,-2.12,1.094,-1.004,0.026,0.02,1.109,-2.59,-1.342,-1.0,0.003,0.088,6.166,-1.539,-0.656,-1.012,-0.144,-0.16,-1.276,-1.187,-2.194
740.0,-0.994,-0.05,0.212,1.264,1.657,-1.266,-1.007,-0.14,0.08,0.801,-2.619,1.547,-1.008,0.03,0.02,0.672,-2.524,-1.388,-0.997,-0.001,0.087,6.737,-0.749,0.091,-1.014,-0.132,-0.164,-5.153,-2.625,-4.085
760.0,-0.994,-0.051,0.215,1.799,2.423,-1.117,-1.008,-0.135,0.079,1.05,-2.586,1.476,-1.006,0.033,0.02,-0.28,-2.8,-1.47,-1.001,0.004,0.091,7.138,-0.491,0.419,-1.0,-0.131,-0.166,-9.716,-3.415,-6.001
780.0,-1.001,-0.058,0.226,1.89,2.247,-0.736,-1.008,-0.132,0.08,-0.476,-2.094,0.865,-1.004,0.021,0.021,0.105,-2.52,-1.817,-1.005,0.005,0.093,6.449,-0.49,0.126,-1.001,-0.148,-0.16,-11.755,-4.173,-6.224
800.0,-1.002,-0.065,0.218,1.286,0.665,-0.507,-1.007,-0.138,0.078,-0.516,-2.161,0.77,-1.01,0.018,0.017,1.499,-2.523,-1.4,-1.005,0.003,0.089,5.468,-0.929,-0.322,-1.007,-0.161,-0.143,-10.498,-4.879,-4.965
820.0,-0.998,-0.053,0.212,1.995,0.64,-0.534,-1.005,-0.142,0.076,0.226,-2.938,0.958,-1.011,0.031,0.018,1.793,-2.939,-1.476,-0.995,0.0,0.09,5.005,-0.885,-0.515,-1.015,-0.142,-0.128,-8.728,-4.564,-3.871
840.0,-0.997,-0.037,0.212,2.691,1.318,-0.42,-1.01,-0.138,0.077,0.323,-3.075,1.261,-1.005,0.033,0.019,0.408,-2.823,-1.527,-0.999,-0.01,0.106,4.474,-0.84,-0.765,-1.043,-0.121,-0.142,-10.723,-5.357,-4.596
860.0,-0.997,-0.04,0.212,1.929,2.115,-0.312,-1.01,-0.135,0.081,0.391,-3.084,1.47,-1.006,0.024,0.019,0.35,-2.591,-1.739,-1.018,-0.022,0.103,5.219,-0.705,-1.019,-1.038,-0.122,-0.135,-16.677,-13.096,-5.661
880.0,-0.996,-0.05,0.213,0.131,2.452,-0.489,-1.009,-0.133,0.082,0.035,-3.043,1.379,-1.006,0.028,0.018,-0.147,-2.636,-1.945,-1.026,-0.016,0.103,5.942,-2.313,-1.481,-1.005,-0.133,-0.118,-21.032,-14.729,-5.16
900.0,-0.996,-0.051,0.216,-0.14,1.987,-0.788,-1.013,-0.136,0.081,-0.655,-3.063,1.153,-1.01,0.024,0.019,0.256,-2.876,-1.91,-1.012,-0.018,0.109,6.849,-3.057,-2.478,-1.008,-0.135,-0.119,-23.45,-15.09,-4.779
920.0,-1.005,-0.047,0.212,-0.204,1.792,-0.91,-1.014,-0.143,0.079,-0.153,-3.196,1.402,-1.01,0.023,0.015,1.196,-3.2,-1.761,-1.004,-0.015,0.109,7.459,-3.542,-2.706,-0.987,-0.148,-0.128,-23.45,-15.555,-3.987
940.0,-1.011,-0.043,0.213,-0.593,1.711,-0.889,-1.011,-0.142,0.079,0.823,-2.959,1.637,-1.003,0.03,0.019,0.319,-3.032,-1.875,-0.989,-0.007,0.109,7.087,-3.447,-2.816,-1.0,-0.194,-0.145,-19.894,-19.084,0.555
960.0,-1.004,-0.041,0.21,-1.106,1.347,-0.691,-1.012,-0.139,0.082,0.896,-2.949,1.581,-1.012,0.024,0.016,0.316,-3.381,-1.827,-0.989,0.001,0.108,6.295,-2.737,-3.472,-0.984,-0.172,-0.129,-11.41,-20.79,6.86
980.0,-1.001,-0.043,0.208,-1.636,0.477,-0.624,-1.01,-0.131,0.083,-0.286,-3.052,1.238,-1.013,0.022,0.017,0.519,-4.066,-1.82,-1.0,0.004,0.105,4.356,-2.72,-5.013,-0.972,-0.158,-0.118,-9.121,-16.982,9.462
1000.0,-1.003,-0.051,0.209,-1.809,-0.318,-0.569,-1.009,-0.139,0.08,-0.904,-3.277,1.195,-1.004,0.026,0.02,0.288,-3.792,-1.82,-1.003,0.011,0.103,1.887,-3.499,-6.443,-0.995,-0.166,-0.144,-6.577,-16.177,11.072
1020.0,-1.005,-0.05,0.206,-1.884,-0.489,-0.356,-1.008,-0.139,0.082,-0.185,-2.996,1.277,-1.005,0.024,0.019,0.575,-3.746,-1.911,-0.998,0.019,0.101,-0.87,-4.005,-7.432,-0.975,-0.169,-0.173,-5.533,-13.87,11.221
1040.0,-1.002,-0.053,0.205,-2.377,-0.421,-0.28,-1.008,-0.127,0.082,-0.271,-2.667,1.25,-1.01,0.027,0.019,0.898,-4.18,-1.869,-0.997,0.018,0.097,-3.117,-4.06,-7.652,-0.986,-0.216,-0.184,-3.768,-15.803,13.08
1060.0,-1.003,-0.052,0.198,-2.181,-0.55,-0.419,-1.007,-0.132,0.074,-1.4,-2.8,0.56,-1.005,0.036,0.02,0.095,-4.23,-1.855,-0.999,0.014,0.09,-4.26,-4.049,-7.244,-0.972,-0.21,-0.188,-0.637,-15.89,11.98
1080.0,-1.002,-0.052,0.213,-1.961,-0.894,-0.281,-1.006,-0.145,0.074,-0.35,-3.5,1.4,-1.001,0.034,0.023,-1.504,-3.91,-1.874,-0.997,0.013,0.085,-4.596,-3.775,-6.153,-0.98,-0.197,-0.186,1.072,-16.206,10.877
1100.0,-0.998,-0.051,0.203,-2.112,-1.234,-0.38,-1.007,-0.14,0.082,0.55,-3.492,1.605,-1.006,0.021,0.024,-1.703,-3.398,-1.767,-1.004,0.013,0.079,-4.318,-3.033,-5.372,-0.978,-0.168,-0.187,0.463,-18.744,6.969
1120.0,-1.003,-0.053,0.206,-2.425,-0.826,-0.577,-1.006,-0.132,0.086,-0.243,-2.874,1.235,-1.005,0.02,0.023,-0.632,-3.233,-1.639,-1.006,0.013,0.077,-4.221,-3.028,-4.48,-0.972,-0.219,-0.209,4.044,-19.412,3.873
1140.0,-1.001,-0.055,0.206,-2.354,-0.975,-0.952,-1.008,-0.128,0.091,-1.75,-2.03,0.682,-1.003,0.026,0.024,-0.391,-2.873,-1.709,-1.008,0.016,0.077,-4.789,-3.657,-3.003,-0.971,-0.207,-0.187,5.161,-19.309,1.07
1160.0,-1.002,-0.054,0.21,-1.769,-1.447,-0.98,-1.006,-0.14,0.083,-1.686,-2.03,0.421,-1.006,0.027,0.022,-0.534,-2.664,-1.965,-0.996,0.01,0.071,-4.884,-3.247,-1.092,-1.01,-0.196,-0.168,4.057,-20.279,-0.225
1180.0,-1.0,-0.053,0.211,-1.097,-2.143,-0.935,-1.009,-0.149,0.082,-0.311,-2.03,0.767,-1.007,0.021,0.022,0.126,-2.726,-1.951,-0.992,0.011,0.066,-4.761,-2.621,1.075,-1.006,-0.186,-0.161,3.71,-21.951,-2.798
1200.0,-0.998,-0.051,0.209,-1.071,-2.265,-0.977,-1.006,-0.137,0.083,-0.001,-1.965,0.77,-1.009,0.02,0.021,0.606,-2.733,-1.681,-0.999,0.012,0.067,-4.989,-1.744,2.709,-0.971,-0.164,-0.148,0.673,-19.439,-8.323
1220.0,-0.998,-0.055,0.205,-1.12,-2.272,-1.171,-1.011,-0.133,0.084,-0.658,-1.754,0.573,-1.011,0.027,0.019,0.436,-3.175,-1.532,-1.005,0.006,0.067,-5.677,-1.683,3.366,-0.971,-0.163,-0.126,-6.653,-14.053,-14.18
1240.0,-0.998,-0.059,0.205,-0.936,-2.415,-1.411,-1.017,-0.137,0.082,-0.901,-2.325,0.493,-1.007,0.029,0.021,-0.422,-3.215,-1.564,-1.006,-0.005,0.076,-5.681,-2.028,3.481,-0.98,-0.175,-0.096,-11.723,-10.695,-18.118
1260.0,-0.999,-0.057,0.206,-0.439,-2.45,-1.52,-1.01,-0.136,0.084,-0.828,-2.148,0.662,-1.003,0.021,0.022,-0.42,-2.914,-1.728,-0.995,-0.018,0.074,-3.966,-1.886,4.365,-0.959,-0.164,-0.062,-19.067,-0.655,-22.346
1280.0,-0.999,-0.053,0.206,-0.024,-2.354,-1.54,-1.011,-0.138,0.085,-0.354,-1.75,0.597,-1.006,0.02,0.021,0.988,-2.78,-1.68,-0.991,-0.022,0.07,-1.721,-0.943,5.152,-0.953,-0.152,-0.055,-27.158,12.27,-27.518
1300.0,-0.995,-0.053,0.206,-0.051,-1.86,-1.54,-1.008,-0.136,0.083,-0.401,-1.556,0.508,-1.008,0.029,0.023,1.195,-2.697,-1.68,-0.996,-0.02,0.076,0.619,-0.428,5.598,-0.962,-0.164,-0.063,-29.965,22.315,-29.993
1320.0,-0.995,-0.054,0.211,-0.21,-1.779,-1.513,-1.008,-0.136,0.08,-0.973,-1.592,0.443,-1.003,0.03,0.023,-0.068,-2.387,-1.729,-0.997,-0.013,0.083,0.373,-0.353,5.472,-0.969,-0.198,-0.072,-27.441,34.094,-29.627
1340.0,-1.0,-0.056,0.212,-0.21,-2.226,-1.492,-1.007,-0.14,0.08,-1.415,-1.515,0.366,-1.005,0.024,0.02,-0.079,-2.126,-1.89,-1.006,-0.014,0.088,-1.05,-0.28,4.83,-0.978,-0.233,-0.09,-17.565,40.566,-25.21
1360.0,-1.001,-0.054,0.207,-0.246,-2.414,-1.54,-1.008,-0.141,0.079,-0.389,-2.253,0.686,-1.008,0.023,0.02,0.381,-2.17,-1.933,-1.002,-0.017,0.089,-3.707,-0.346,4.033,-0.977,-0.249,-0.131,-2.982,45.164,-19.014
1380.0,-0.999,-0.052,0.206,-0.541,-2.143,-1.559,-1.007,-0.138,0.081,0.367,-2.747,0.851,-1.007,0.022,0.02,0.966,-2.17,-2.003,-1.001,-0.026,0.092,-4.62,-0.42,3.08,-0.973,-0.25,-0.183,12.735,47.17,-13.054
1400.0,-1.0,-0.054,0.209,-0.308,-1.906,-1.686,-1.01,-0.138,0.085,0.319,-2.595,0.885,-1.007,0.028,0.02,0.885,-2.212,-1.96,-0.999,-0.032,0.093,-4.97,-0.42,1.89,-0.978,-0.257,-0.24,24.801,46.478,-9.55
1420.0,-1.0,-0.054,0.212,-0.004,-2.043,-1.701,-1.016,-0.149,0.083,0.901,-2.903,1.446,-1.01,0.029,0.019,0.494,-2.422,-1.968,-1.01,-0.035,0.096,-5.527,-0.941,0.647,-0.995,-0.249,-0.274,32.643,40.566,-6.605
1440.0,-1.0,-0.06,0.21,-0.075,-2.836,-1.61,-1.013,-0.154,0.081,1.608,-2.998,1.841,-1.011,0.021,0.02,0.685,-2.636,-2.012,-1.007,-0.046,0.096,-4.733,-1.691,-0.277,-0.995,-0.25,-0.281,38.847,31.057,-1.825
1460.0,-0.997,-0.056,0.205,0.948,-2.592,-1.61,-1.011,-0.143,0.084,1.872,-2.369,1.96,-1.004,0.018,0.021,1.399,-2.714,-1.869,-0.996,-0.045,0.094,-2.942,-2.168,-0.884,-0.989,-0.253,-0.271,44.393,21.738,6.008
1480.0,-0.996,-0.048,0.208,2.45,-1.533,-1.457,-1.008,-0.13,0.085,0.778,-2.022,1.96,-1.002,0.029,0.02,1.536,-2.592,-1.82,-0.994,-0.04,0.092,-1.852,-2.046,-1.327,-0.987,-0.191,-0.203,47.161,15.372,12.182
1500.0,-0.992,-0.052,0.205,2.706,-0.924,-1.223,-1.016,-0.138,0.079,0.544,-3.217,1.944,-1.011,0.027,0.021,0.744,-2.864,-1.82,-1.002,-0.04,0.089,-0.931,-2.076,-2.269,-1.02,-0.086,-0.147,42.983,8.418,13.733
1520.0,-0.994,-0.06,0.21,1.385,-0.556,-1.464,-1.011,-0.136,0.077,0.501,-3.577,1.682,-1.009,0.024,0.019,0.496,-2.804,-1.934,-1.014,-0.047,0.091,0.887,-2.6,-2.906,-1.035,-0.025,-0.065,21.326,4.181,5.86
1540.0,-0.994,-0.057,0.216,1.175,-0.906,-1.747,-1.013,-0.137,0.082,1.162,-4.606,1.745,-1.004,0.027,0.022,1.213,-3.129,-2.142,-1.014,-0.036,0.086,2.401,-3.193,-3.468,-1.071,-0.025,-0.046,0.99,1.377,-2.087
1560.0,-0.996,-0.057,0.208,1.77,-0.835,-1.965,-1.007,-0.139,0.086,1.652,-4.083,1.565,-1.005,0.029,0.022,0.011,-2.69,-2.295,-1.005,-0.033,0.082,3.859,-3.13,-3.817,-1.071,-0.057,-0.072,-12.317,-5.427,-5.843
1580.0,-1.0,-0.06,0.207,2.026,-0.706,-2.048,-1.005,-0.13,0.096,0.28,-3.104,1.26,-1.007,0.017,0.019,0.367,-2.713,-2.378,-0.998,-0.02,0.084,4.69,-2.658,-3.52,-1.04,-0.123,-0.11,-15.468,-8.314,-5.122
1600.0,-0.997,-0.06,0.205,1.834,-0.839,-2.232,-1.01,-0.142,0.085,0.28,-2.73,1.26,-1.011,0.016,0.022,1.75,-3.08,-2.17,-1.001,-0.018,0.095,4.061,-2.912,-3.173,-1.002,-0.193,-0.137,-14.484,-10.076,-2.004
1620.0,-0.995,-0.055,0.202,1.169,-0.764,-2.38,-1.008,-0.147,0.082,1.846,-2.669,1.785,-1.002,0.025,0.022,1.617,-3.024,-1.899,-1.0,-0.029,0.104,3.92,-3.447,-2.499,-1.001,-0.222,-0.154,-5.274,-10.029,2.854
1640.0,-0.997,-0.053,0.206,0.913,-0.635,-2.375,-1.004,-0.137,0.08,3.845,-3.92,2.589,-1.007,0.02,0.022,1.772,-2.817,-2.143,-0.992,-0.033,0.101,6.049,-3.43,-2.161,-0.997,-0.225,-0.174,2.564,-12.139,8.965
1660.0,-0.992,-0.052,0.206,1.044,-0.899,-2.072,-1.006,-0.125,0.089,2.568,-3.801,2.238,-1.006,0.024,0.02,2.025,-2.8,-1.967,-0.994,-0.026,0.1,8.228,-3.399,-2.734,-0.985,-0.179,-0.182,9.31,-11.9,12.88
1680.0,-0.994,-0.057,0.209,0.59,-0.713,-1.852,-1.001,-0.13,0.089,1.568,-3.671,1.684,-1.005,0.027,0.02,1.653,-2.868,-2.157,-1.002,-0.016,0.106,8.413,-4.074,-4.168,-0.995,-0.183,-0.19,11.998,-12.961,16.439
1700.0,-1.001,-0.06,0.212,0.56,-1.034,-1.626,-1.013,-0.145,0.092,0.299,-3.148,1.335,-1.006,0.024,0.022,1.234,-2.752,-2.222,-1.003,-0.006,0.105,6.342,-5.238,-5.59,-0.99,-0.178,-0.182,14.964,-14.412,19.64
1720.0,-1.003,-0.06,0.215,1.314,-1.088,-1.354,-1.01,-0.146,0.089,1.564,-2.269,1.689,-1.011,0.025,0.022,1.456,-2.93,-2.309,-0.995,-0.01,0.098,4.966,-5.58,-6.165,-0.996,-0.144,-0.147,13.988,-13.192,21.121
1740.0,-1.002,-0.058,0.207,1.33,-0.785,-1.109,-1.005,-0.143,0.083,2.71,-2.647,2.161,-1.01,0.022,0.022,1.663,-3.069,-2.31,-0.996,-0.014,0.096,4.791,-5.573,-6.113,-1.015,-0.117,-0.155,5.74,-14.0,18.69
1760.0,-0.995,-0.056,0.202,1.122,0.075,-0.991,-1.004,-0.125,0.084,1.945,-2.483,1.647,-1.005,0.024,0.021,1.26,-2.908,-2.21,-1.001,-0.023,0.091,5.701,-5.736,-5.155,-0.993,-0.096,-0.17,-7.14,-15.4,13.58
1780.0,-0.99,-0.057,0.207,1.339,0.455,-0.819,-1.006,-0.121,0.091,-1.336,-2.542,0.716,-1.006,0.023,0.022,0.714,-2.81,-1.946,-1.003,-0.026,0.082,7.433,-5.559,-3.824,-0.985,-0.1,-0.174,-17.148,-14.836,7.293
1800.0,-0.99,-0.061,0.211,1.788,0.828,-0.725,-1.008,-0.139,0.084,-1.36,-2.782,0.362,-1.01,0.024,0.021,-0.069,-2.981,-1.935,-0.998,-0.024,0.079,9.235,-5.118,-2.885,-0.989,-0.124,-0.175,-31.551,-15.08,3.458
1820.0,-0.995,-0.062,0.21,2.13,0.862,-0.646,-1.007,-0.137,0.086,-0.455,-2.691,0.711,-1.009,0.019,0.02,0.03,-3.08,-1.863,-0.999,-0.012,0.079,9.798,-4.761,-2.188,-0.991,-0.185,-0.171,-32.01,-15.018,2.684
1840.0,-0.999,-0.058,0.208,2.007,0.84,-0.714,-1.002,-0.133,0.089,1.027,-2.765,0.9,-1.005,0.017,0.021,0.29,-2.985,-1.992,-1.0,-0.002,0.085,7.91,-5.04,-1.96,-0.99,-0.213,-0.178,-26.445,-14.774,3.857
1860.0,-0.997,-0.053,0.206,1.549,0.904,-0.926,-1.005,-0.128,0.091,0.877,-3.325,0.722,-1.004,0.02,0.022,0.766,-2.969,-2.146,-0.995,-0.001,0.075,5.55,-4.309,-1.555,-0.983,-0.227,-0.185,-18.7,-14.186,6.162
1880.0,-0.996,-0.051,0.207,1.122,1.16,-0.911,-1.005,-0.132,0.09,-0.539,-2.918,0.341,-1.008,0.023,0.023,1.262,-3.213,-2.208,-0.994,-0.004,0.07,4.141,-3.54,-1.331,-0.975,-0.225,-0.185,-9.817,-12.64,8.843
1900.0,-0.998,-0.052,0.207,0.842,1.08,-0.796,-1.006,-0.14,0.087,-0.583,-2.857,0.398,-1.006,0.021,0.023,1.389,-2.988,-2.436,-0.992,0.005,0.078,2.155,-2.671,-1.655,-0.975,-0.215,-0.186,-3.378,-10.995,9.685
1920.0,-1.002,-0.054,0.204,0.627,0.491,-0.79,-1.007,-0.137,0.088,-0.304,-2.95,0.428,-1.004,0.021,0.022,1.177,-2.87,-2.571,-0.996,0.005,0.08,-1.055,-2.593,-2.45,-0.972,-0.2,-0.187,0.606,-9.654,9.302
1940.0,-1.001,-0.054,0.199,0.376,0.21,-0.826,-1.007,-0.132,0.09,-0.538,-2.907,0.12,-1.006,0.02,0.024,1.031,-2.895,-2.532,-0.994,-0.007,0.083,-2.076,-3.193,-2.45,-0.972,-0.189,-0.184,2.501,-8.064,7.702
1960.0,-0.998,-0.05,0.205,0.221,0.114,-0.749,-1.013,-0.143,0.089,0.688,-3.467,0.52,-1.008,0.017,0.024,1.323,-2.841,-2.323,-0.98,-0.031,0.087,0.231,-2.55,-1.58,-0.977,-0.188,-0.172,3.314,-6.773,6.172
1980.0,-1.001,-0.049,0.214,0.356,-0.508,-0.623,-1.018,-0.146,0.092,2.38,-3.757,1.12,-1.005,0.024,0.022,1.093,-2.864,-2.131,-0.993,-0.028,0.085,3.553,-1.529,-0.649,-1.001,-0.19,-0.165,4.962,-6.0,5.059
2000.0,-1.003,-0.055,0.217,0.555,-0.996,-0.32,-1.012,-0.135,0.098,1.805,-2.992,0.867,-1.005,0.027,0.024,0.13,-3.016,-2.127,-1.011,-0.026,0.094,5.736,-1.471,-0.289,-0.93,-0.185,-0.165,6.175,-6.432,3.554
2020.0,-0.999,-0.055,0.208,0.34,-1.077,-0.236,-1.008,-0.129,0.099,0.453,-2.228,0.281,-1.006,0.019,0.025,-0.04,-2.671,-2.482,-1.014,-0.013,0.1,5.878,-2.171,-0.4,-0.945,-0.173,-0.164,5.811,-6.79,1.351
2040.0,-1.003,-0.056,0.206,0.01,-1.531,-0.579,-1.008,-0.134,0.098,-1.497,-1.517,-0.021,-1.008,0.014,0.021,0.624,-2.632,-2.636,-1.008,-0.005,0.093,4.103,-2.959,-0.489,-0.983,-0.165,-0.164,3.939,-6.295,-1.443
2060.0,-1.002,-0.052,0.206,0.172,-2.588,-0.77,-1.006,-0.138,0.089,-1.96,-1.141,-0.34,-1.011,0.019,0.025,1.596,-2.837,-2.456,-0.998,-0.007,0.092,2.226,-3.214,-0.148,-0.984,-0.162,-0.16,1.924,-5.748,-4.037
2080.0,-1.001,-0.05,0.204,0.936,-2.52,-0.768,-1.017,-0.135,0.086,-0.927,-1.456,0.751,-1.008,0.021,0.025,0.917,-2.765,-2.443,-0.998,-0.02,0.091,2.286,-3.103,0.73,-0.975,-0.165,-0.159,0.777,-4.789,-6.039
2100.0,-0.999,-0.054,0.209,1.405,-2.559,-0.572,-1.022,-0.137,0.092,0.097,-2.622,1.62,-0.999,0.02,0.024,0.48,-2.533,-2.55,-0.995,-0.024,0.086,2.931,-2.621,1.989,-0.971,-0.163,-0.162,-0.005,-2.882,-7.404
2120.0,-0.991,-0.057,0.201,1.889,-2.862,-0.704,-1.01,-0.138,0.09,0.866,-3.247,1.065,-1.003,0.023,0.021,0.416,-2.637,-2.688,-1.0,-0.021,0.082,3.007,-1.836,2.62,-0.977,-0.162,-0.166,-1.641,-1.308,-8.669
2140.0,-0.988,-0.055,0.197,1.516,-1.414,-0.767,-1.008,-0.127,0.088,0.724,-3.345,0.215,-1.008,0.017,0.019,0.212,-2.783,-3.1,-1.003,-0.014,0.09,2.087,-1.356,2.447,-0.982,-0.169,-0.173,-2.544,-1.074,-8.953
2160.0,-0.998,-0.057,0.211,0.893,-0.564,-0.424,-1.011,-0.136,0.089,-0.316,-3.769,-0.319,-1.009,0.011,0.018,1.775,-3.101,-2.966,-1.001,-0.01,0.094,-0.457,-1.285,1.641,-0.974,-0.178,-0.175,-1.81,-0.79,-8.51
2180.0,-1.002,-0.061,0.207,0.636,-1.405,-1.143,-1.017,-0.145,0.089,1.19,-4.55,0.07,-1.004,0.015,0.024,2.828,-3.23,-3.149,-0.992,-0.013,0.092,-2.102,-1.0,0.84,-0.97,-0.183,-0.18,-0.221,-0.197,-7.741
2200.0,-0.991,-0.063,0.207,1.137,-1.576,-1.257,-1.003,-0.138,0.096,1.564,-2.978,-0.032,-1.002,0.022,0.024,3.036,-2.735,-3.409,-0.994,-0.015,0.095,-3.479,-0.91,0.636,-0.971,-0.191,-0.181,1.455,0.82,-7.407
2220.0,-0.997,-0.063,0.207,1.19,-1.96,-0.98,-1.002,-0.133,0.099,1.743,-2.371,-0.252,-1.01,0.02,0.015,1.673,-3.02,-3.623,-0.999,-0.02,0.094,-4.495,-1.037,0.934,-0.978,-0.199,-0.184,3.695,1.827,-7.084
2240.0,-0.993,-0.069,0.193,-0.061,-1.955,-0.91,-0.96,-0.138,0.099,-1.174,0.335,-0.908,-1.014,0.006,0.021,2.164,-3.848,-3.34,-0.998,-0.03,0.093,-4.395,-1.25,2.095,-0.975,-0.198,-0.189,6.101,3.114,-7.227
2260.0,-0.988,-0.062,0.197,2.193,-0.815,-0.91,-0.998,-0.15,0.092,1.19,-1.96,-0.63,-1.003,0.018,0.031,0.803,-3.369,-2.704,-0.999,-0.031,0.095,-3.819,-1.544,3.184,-0.973,-0.196,-0.193,8.22,6.59,-8.496
2280.0,-0.997,-0.063,0.201,4.354,-0.17,-0.799,-1.002,-0.134,0.098,0.647,-1.345,-0.829,-1.001,0.028,0.028,-1.238,-2.646,-2.629,-1.001,-0.041,0.102,-2.524,-1.67,3.998,-1.004,-0.208,-0.199,11.419,7.695,-9.234
2300.0,-0.994,-0.072,0.203,3.105,-0.28,-0.701,-1.012,-0.153,0.09,1.453,-2.085,-0.133,-1.011,0.009,0.023,-2.233,-2.241,-2.935,-1.015,-0.054,0.097,0.725,-1.627,4.854,-1.016,-0.214,-0.198,16.498,6.694,-9.626
2320.0,-0.999,-0.067,0.217,2.465,-0.213,-0.901,-1.009,-0.147,0.091,1.456,-2.034,0.347,-1.007,0.001,0.025,-0.843,-2.256,-2.395,-1.016,-0.051,0.097,4.666,-2.202,4.915,-0.981,-0.199,-0.185,21.147,7.809,-10.387
2340.0,-1.002,-0.068,0.214,2.982,-0.407,-0.647,-1.009,-0.141,0.09,0.513,-2.236,0.213,-0.997,0.007,0.028,0.202,-1.682,-2.31,-1.007,-0.041,0.102,6.954,-2.805,4.616,-0.976,-0.185,-0.179,24.13,9.731,-11.218
2360.0,-1.004,-0.067,0.211,3.505,-0.42,-1.057,-1.009,-0.139,0.094,-0.385,-2.24,0.21,-1.003,0.016,0.024,0.148,-1.264,-2.312,-0.999,-0.035,0.103,7.121,-2.971,4.41,-0.984,-0.166,-0.157,25.199,9.752,-11.636
2380.0,-1.0,-0.066,0.205,3.913,-0.827,-1.304,-1.004,-0.143,0.09,-0.558,-2.298,-0.062,-1.012,0.003,0.021,1.596,-1.75,-2.586,-0.997,-0.027,0.102,6.347,-2.964,4.045,-0.983,-0.148,-0.139,24.07,9.364,-11.771
2400.0,-0.991,-0.06,0.198,3.712,-0.334,-1.71,-1.015,-0.141,0.095,-0.56,-2.782,0.324,-1.008,0.009,0.023,2.442,-1.75,-1.943,-1.002,-0.026,0.099,4.329,-2.661,2.932,-0.987,-0.13,-0.118,19.186,8.551,-11.47
2420.0,-0.992,-0.051,0.201,3.599,0.463,-1.903,-1.018,-0.152,0.093,0.07,-3.01,0.91,-1.004,0.016,0.02,0.909,-1.75,-1.686,-1.008,-0.027,0.099,2.872,-2.479,1.428,-0.995,-0.111,-0.112,9.965,6.016,-11.397
2440.0,-1.001,-0.041,0.206,3.46,0.393,-2.161,-1.01,-0.149,0.098,-0.069,-2.879,1.462,-1.009,0.009,0.02,0.84,-1.866,-1.68,-1.01,-0.024,0.098,1.619,-2.375,-0.831,-0.978,-0.119,-0.107,1.209,3.131,-11.071
2460.0,-1.01,-0.042,0.205,3.018,-0.641,-2.613,-1.009,-0.143,0.091,0.555,-2.596,1.54,-1.008,0.004,0.021,1.972,-2.024,-1.483,-1.018,-0.021,0.098,-0.185,-2.642,-3.573,-0.986,-0.142,-0.102,-7.07,1.96,-9.66
2480.0,-1.018,-0.043,0.203,2.366,-1.927,-3.025,-1.013,-0.14,0.094,0.057,-2.524,1.354,-1.005,0.012,0.024,2.376,-2.03,-1.538,-1.027,-0.018,0.103,-1.888,-4.213,-6.193,-0.994,-0.161,-0.106,-9.464,-2.136,-7.517
2500.0,-1.025,-0.037,0.199,2.33,-3.227,-3.792,-1.012,-0.155,0.091,-0.275,-2.579,1.57,-1.007,0.011,0.024,1.963,-1.965,-1.401,-1.024,-0.017,0.109,-3.008,-5.573,-8.122,-1.007,-0.182,-0.113,-7.932,-3.547,-5.633
2520.0,-1.026,-0.032,0.196,2.481,-5.052,-4.502,-1.002,-0.146,0.096,-0.64,-2.291,2.065,-1.004,0.013,0.021,2.022,-1.864,-1.651,-1.021,-0.026,0.111,-3.789,-7.455,-8.537,-1.029,-0.175,-0.111,-4.753,-4.89,-4.144
2540.0,-1.01,-0.035,0.189,2.553,-7.046,-4.865,-1.002,-0.13,0.099,-3.028,-1.364,1.999,-1.008,0.017,0.023,1.918,-1.246,-2.146,-1.016,-0.035,0.109,-2.514,-9.4,-7.333,-1.036,-0.163,-0.125,-4.294,-6.613,-4.623
2560.0,-0.983,-0.033,0.185,2.647,-7.142,-4.949,-1.007,-0.145,0.085,-4.681,-1.811,1.877,-1.01,0.011,0.02,2.542,-1.303,-2.635,-1.014,-0.046,0.096,1.755,-10.355,-4.793,-1.032,-0.145,-0.139,-5.745,-7.115,-6.265
2580.0,-0.976,-0.034,0.193,2.928,-5.938,-4.771,-1.019,-0.135,0.082,-5.02,-2.37,1.559,-1.002,0.012,0.021,3.101,-0.967,-3.118,-1.014,-0.049,0.083,6.136,-10.748,-2.584,-1.032,-0.148,-0.149,-7.349,-6.55,-7.759
2600.0,-0.984,-0.046,0.213,4.039,-4.413,-4.251,-1.015,-0.14,0.081,-4.168,-2.892,0.398,-0.993,0.02,0.019,4.986,-1.112,-3.933,-1.002,-0.039,0.08,9.076,-10.952,-1.034,-1.034,-0.158,-0.146,-6.832,-4.968,-7.441
2620.0,-0.987,-0.049,0.213,5.808,-3.906,-3.769,-1.01,-0.143,0.083,-1.878,-3.746,-0.845,-1.012,0.015,0.005,5.131,0.014,-4.878,-0.978,-0.036,0.068,11.677,-10.226,-0.248,-1.041,-0.151,-0.128,-3.951,-4.871,-6.01
2640.0,-0.97,-0.051,0.209,7.736,-2.743,-3.289,-1.015,-0.146,0.096,-0.603,-4.791,-1.12,-1.021,0.007,0.006,6.506,-2.158,-5.359,-0.966,-0.035,0.05,14.265,-8.257,-0.085,-1.03,-0.147,-0.126,-1.459,-6.071,-3.989
2660.0,-0.96,-0.052,0.213,9.246,1.26,-2.474,-1.014,-0.146,0.099,0.645,-4.92,-1.15,-1.012,0.009,0.011,6.316,-3.031,-5.151,-0.967,-0.032,0.045,15.917,-6.466,-0.429,-1.001,-0.143,-0.12,-1.195,-6.188,-0.562
2680.0,-0.972,-0.053,0.226,9.721,4.492,-1.678,-1.021,-0.127,0.095,-0.517,-4.935,-2.158,-1.004,0.013,0.015,3.815,-3.297,-5.315,-0.97,-0.029,0.045,16.45,-4.859,-1.879,-0.983,-0.143,-0.109,-1.474,-5.751,3.546
2700.0,-0.984,-0.049,0.224,10.087,6.28,-1.538,-1.019,-0.144,0.092,-0.485,-5.383,-2.739,-1.004,0.011,0.012,2.7,-3.694,-6.015,-0.973,-0.025,0.036,16.291,-1.549,-4.346,-0.97,-0.141,-0.108,-2.37,-4.908,8.146
2720.0,-0.978,-0.032,0.204,10.243,7.949,-1.839,-1.056,-0.106,0.104,-0.94,-8.147,-1.429,-1.011,0.005,0.013,3.779,-4.044,-6.973,-0.992,-0.018,0.031,14.622,0.371,-7.775,-0.967,-0.143,-0.115,-2.394,-3.518,12.644
2740.0,-0.974,-0.017,0.197,10.08,9.742,-2.392,-1.061,-0.136,0.105,-0.131,-8.643,-0.66,-1.012,-0.004,0.012,6.404,-4.164,-7.938,-0.994,-0.012,0.042,11.406,1.122,-11.061,-0.97,-0.158,-0.125,-0.429,-2.544,16.781
2760.0,-0.978,-0.012,0.196,9.094,11.039,-3.084,-1.03,-0.185,0.046,1.174,-7.327,-1.783,-1.012,-0.01,0.013,9.689,-4.554,-8.167,-0.988,-0.016,0.045,7.959,2.258,-13.671,-0.973,-0.161,-0.132,2.165,-2.01,20.358
2780.0,-0.99,-0.013,0.197,7.512,12.378,-3.674,-1.016,-0.182,0.027,2.38,-6.484,-1.909,-1.007,-0.002,0.022,9.595,-4.524,-7.948,-0.991,-0.021,0.04,5.883,3.412,-15.199,-0.968,-0.156,-0.142,2.713,-1.628,21.709
2800.0,-0.999,-0.018,0.201,6.721,13.038,-4.502,-1.008,-0.166,0.092,6.72,-5.135,0.179,-1.003,0.013,0.032,6.035,-4.358,-8.029,-1.005,-0.029,0.039,4.359,4.722,-16.482,-0.956,-0.152,-0.158,2.346,-1.055,21.7
2820.0,-0.994,-0.026,0.199,7.355,12.697,-5.814,-1.016,-0.159,0.092,9.602,-4.806,1.235,-1.012,0.012,0.023,4.271,-4.292,-9.165,-1.023,-0.04,0.055,3.419,5.435,-17.37,-0.944,-0.154,-0.175,0.992,0.314,20.691
2840.0,-0.994,-0.036,0.192,8.129,12.207,-7.448,-1.01,-0.145,0.107,9.904,-4.642,1.214,-1.017,0.009,0.001,3.257,-4.25,-9.806,-1.036,-0.053,0.079,3.314,4.632,-17.638,-0.941,-0.166,-0.178,0.976,2.338,19.929
2860.0,-1.007,-0.059,0.189,8.444,11.693,-9.362,-0.979,-0.123,0.134,4.782,-1.948,-0.645,-1.024,0.006,0.003,2.308,-7.504,-9.896,-1.026,-0.061,0.089,6.58,3.36,-17.57,-0.955,-0.177,-0.18,3.259,4.698,19.772
2880.0,-1.003,-0.083,0.182,6.818,14.038,-11.651,-1.009,-0.151,0.137,0.642,-0.662,-2.509,-1.024,-0.015,0.025,1.275,-8.803,-9.247,-1.009,-0.071,0.099,10.29,2.45,-16.38,-0.962,-0.182,-0.194,6.246,6.455,20.012
2900.0,-0.997,-0.091,0.185,5.812,14.167,-13.912,-0.999,-0.123,0.146,-1.666,5.703,-3.253,-0.995,-0.05,0.039,-2.083,-7.963,-7.614,-0.988,-0.065,0.106,12.989,2.823,-13.929,-0.968,-0.19,-0.201,9.581,8.064,20.905
2920.0,-0.971,-0.1,0.162,6.978,12.776,-14.435,-1.01,-0.149,0.128,-5.471,9.865,-5.597,-0.976,-0.069,0.038,0.018,-6.693,-6.947,-0.987,-0.072,0.124,14.84,3.43,-10.64,-0.984,-0.205,-0.204,14.741,9.527,23.634
2940.0,-0.972,-0.144,0.152,9.738,13.404,-13.407,-1.025,-0.187,0.145,-7.342,15.798,-5.433,-0.985,-0.07,0.04,7.27,-4.999,-7.335,-0.992,-0.081,0.131,16.87,3.99,-6.58,-1.02,-0.211,-0.22,21.269,10.131,28.241
2960.0,-1.01,-0.178,0.161,10.254,14.163,-12.524,-1.015,-0.21,0.141,-9.519,20.232,-4.809,-0.983,-0.044,0.033,17.845,-3.809,-9.186,-0.993,-0.087,0.128,18.504,5.698,-4.081,-1.056,-0.213,-0.233,25.892,5.756,32.442
2980.0,-1.047,-0.187,0.174,7.982,11.699,-11.946,-0.934,-0.273,0.12,-4.13,22.05,-7.42,-1.028,-0.057,0.018,27.774,-5.666,-10.04,-1.006,-0.084,0.138,20.365,5.81,-2.568,-1.043,-0.202,-0.237,28.265,2.117,34.779
3000.0,-1.044,-0.183,0.159,8.671,10.782,-11.515,-0.963,-0.258,0.046,6.781,21.816,-7.731,-1.022,0.035,0.033,26.464,-7.597,-8.33,-1.006,-0.064,0.163,18.269,5.61,-1.455,-1.032,-0.183,-0.233,27.456,1.122,35.162
3020.0,-1.049,-0.182,0.159,10.848,8.56,-10.139,-1.002,-0.224,0.086,4.195,19.562,-10.206,-1.006,0.003,0.061,8.425,-4.963,-8.33,-0.997,-0.085,0.183,14.635,4.973,0.403,-1.053,-0.157,-0.217,21.094,-3.164,31.953
3040.0,-1.04,-0.172,0.164,10.08,6.09,-8.12,-1.12,-0.226,0.171,-0.558,8.178,-18.395,-0.991,-0.079,0.044,11.35,-4.236,-5.697,-0.985,-0.126,0.189,16.636,5.816,3.628,-1.034,-0.155,-0.21,13.557,-5.62,26.868
3060.0,-1.029,-0.164,0.173,6.244,5.436,-5.316,-1.052,-0.142,0.072,0.407,-2.576,-14.973,-1.015,-0.098,0.053,16.493,-3.434,-1.851,-0.937,-0.151,0.208,27.408,8.526,7.659,-1.024,-0.148,-0.221,5.52,-5.917,21.202
3080.0,-1.026,-0.148,0.188,4.184,0.566,-2.434,-0.904,-0.15,0.183,-12.737,-1.77,-6.957,-1.004,0.038,0.028,11.51,-5.33,0.979,-0.929,-0.101,0.209,31.069,9.587,8.747,-1.032,-0.152,-0.242,-6.79,-8.61,15.26
3100.0,-0.994,-0.143,0.16,3.806,-0.833,0.998,-1.057,-0.344,0.218,-2.38,-15.26,-4.62,-1.048,0.045,0.023,-6.424,-6.612,0.81,-0.938,-0.036,0.201,22.579,7.082,6.862,-1.003,-0.182,-0.239,-13.02,-11.34,8.33
3120.0,-0.959,-0.16,0.148,5.344,-0.269,3.632,-0.859,-0.233,0.31,26.97,-22.128,4.726,-1.014,0.036,0.047,-16.264,-7.467,0.065,-0.93,-0.013,0.18,10.902,3.854,2.115,-0.982,-0.218,-0.233,-11.271,-10.564,4.266
3140.0,-0.936,-0.179,0.136,7.0,1.12,6.3,-0.979,-0.208,0.301,26.917,-43.209,7.735,-0.986,-0.055,0.034,-15.253,-5.048,-1.066,-0.919,-0.027,0.127,-3.926,-0.656,-1.653,-0.985,-0.234,-0.226,-4.702,-8.657,3.185
3160.0,-0.941,-0.197,0.124,7.277,2.886,8.036,-0.942,-0.172,0.256,29.692,-46.92,13.52,-1.017,-0.092,0.052,-5.183,-5.873,-1.329,-0.925,-0.067,0.111,-14.093,-2.005,-3.729,-0.995,-0.237,-0.226,2.38,-7.7,3.78
3180.0,-0.953,-0.185,0.128,7.28,3.899,9.431,-0.96,-0.172,0.156,23.151,-50.504,11.748,-0.978,-0.065,0.046,2.007,-3.726,0.021,-0.912,-0.124,0.084,-13.158,-0.516,-4.731,-1.046,-0.221,-0.236,12.25,-6.44,5.25
3200.0,-0.988,-0.161,0.131,7.059,3.606,11.097,-0.954,-0.206,0.046,23.055,-42.838,6.172,-1.012,-0.028,0.045,1.093,-3.658,0.555,-0.886,-0.211,0.067,-2.615,5.728,-4.41,-1.067,-0.205,-0.242,15.75,-8.47,5.67
3220.0,-1.02,-0.157,0.127,5.122,3.555,12.723,-1.175,-0.272,-0.188,35.471,-72.389,-2.799,-1.01,-0.016,0.035,-0.987,-4.505,1.605,-0.918,-0.215,0.073,11.797,12.808,-3.154,-1.105,-0.176,-0.248,17.286,-10.002,4.902
3240.0,-1.034,-0.165,0.135,3.257,5.233,14.263,-1.044,-0.074,-0.184,8.592,-26.581,-0.378,-0.99,-0.016,0.048,-5.187,-3.374,1.391,-0.974,-0.186,0.081,23.785,14.062,-2.87,-1.095,-0.166,-0.246,16.339,-15.638,1.405
3260.0,-1.039,-0.165,0.146,3.08,4.936,16.104,-1.026,-0.018,-0.193,-26.373,-10.846,1.36,-1.012,-0.057,0.035,-2.854,-2.001,1.573,-0.974,-0.143,0.082,26.81,12.013,-2.616,-1.061,-0.15,-0.234,15.218,-16.027,-3.479
3280.0,-1.024,-0.15,0.14,5.244,3.986,19.051,-0.991,0.083,-0.171,-23.721,-8.225,7.766,-1.007,-0.038,0.04,0.746,-3.005,3.558,-0.945,-0.103,0.08,23.933,11.286,-1.024,-1.035,-0.14,-0.226,12.086,-14.925,-7.904
3300.0,-1.001,-0.142,0.133,7.87,4.855,22.664,-1.069,0.101,0.117,-32.811,-13.494,18.746,-1.017,0.013,0.055,-3.771,-2.671,5.04,-0.943,-0.105,0.073,17.196,11.569,0.864,-1.031,-0.139,-0.209,11.76,-13.564,-11.236
3320.0,-1.002,-0.138,0.138,9.081,5.158,25.87,-1.041,-0.229,0.203,-31.246,-17.356,15.122,-1.007,-0.002,0.056,-12.681,-2.245,6.81,-0.945,-0.152,0.061,16.609,12.561,2.643,-1.028,-0.138,-0.196,12.422,-12.744,-12.878
3340.0,-0.995,-0.13,0.142,10.091,5.406,27.709,-0.993,-0.474,0.189,-6.201,-12.956,4.626,-0.982,0.019,0.058,-15.638,-1.459,6.812,-0.933,-0.174,0.056,22.068,14.055,4.283,-1.012,-0.152,-0.19,15.029,-10.996,-12.008
3360.0,-0.986,-0.121,0.14,11.377,4.587,29.822,-1.011,-0.412,0.225,21.244,-11.41,4.105,-1.008,-0.043,0.049,-12.931,0.732,4.578,-0.912,-0.16,0.057,33.152,16.964,5.355,-1.021,-0.155,-0.198,20.064,-7.408,-8.792
3380.0,-0.977,-0.107,0.124,13.157,4.246,32.604,-0.989,-0.23,0.308,16.116,-11.054,9.785,-1.007,-0.102,0.046,0.118,1.225,4.552,-0.921,-0.104,0.054,35.615,19.846,5.159,-1.059,-0.141,-0.198,24.26,-7.902,-4.678
3400.0,-0.977,-0.085,0.109,15.473,5.75,35.53,-0.947,-0.234,0.288,3.647,-6.79,12.366,-1.003,-0.046,0.041,12.246,-0.181,6.583,-0.954,-0.095,0.045,32.986,20.696,2.723,-1.082,-0.138,-0.18,29.499,-9.781,-0.439
3420.0,-1.013,-0.064,0.117,17.226,7.7,38.179,-0.967,-0.27,0.159,4.674,-3.212,12.696,-1.016,0.06,0.052,6.284,-1.288,6.423,-0.999,-0.096,0.041,28.524,19.135,-1.396,-1.071,-0.132,-0.152,34.633,-12.972,2.499
3440.0,-1.025,-0.047,0.124,19.215,9.219,39.268,-1.045,-0.203,0.072,25.211,5.254,12.46,-1.009,0.071,0.043,-10.168,-3.936,6.217,-1.018,-0.106,0.037,26.227,16.007,-5.275,-1.029,-0.122,-0.13,40.091,-12.877,4.656
3460.0,-1.014,-0.021,0.119,21.489,11.425,39.627,-1.085,-0.033,0.131,31.336,5.05,12.614,-1.0,-0.008,0.026,-16.809,-4.3,7.202,-0.975,-0.119,0.022,29.438,14.669,-6.706,-1.023,-0.107,-0.112,44.239,-11.462,5.678
3480.0,-0.981,-0.001,0.11,22.159,14.465,39.95,-1.038,0.014,0.155,19.237,4.573,13.036,-1.008,-0.055,0.027,-14.363,-2.234,9.601,-0.91,-0.112,0.004,34.914,15.596,-6.968,-1.033,-0.099,-0.095,48.556,-8.584,6.382
3500.0,-0.958,0.014,0.112,22.067,16.093,40.959,-0.972,-0.036,0.141,3.127,6.599,13.766,-1.008,-0.055,0.029,-5.46,-1.773,11.61,-0.874,-0.109,-0.001,38.274,18.046,-5.931,-1.074,-0.09,-0.095,53.475,-7.572,7.291
3520.0,-0.931,0.039,0.114,22.346,16.285,42.903,-1.019,-0.147,0.152,3.64,1.739,10.956,-1.002,-0.007,0.03,-2.271,-1.691,12.41,-0.85,-0.087,0.001,41.287,22.545,-4.875,-1.135,-0.073,-0.102,59.483,-8.384,8.676
3540.0,-0.911,0.076,0.093,24.376,16.911,45.167,-0.999,-0.133,0.165,3.101,2.286,9.69,-1.018,0.023,0.046,-3.908,-2.682,11.736,-0.884,-0.071,0.003,40.75,24.354,-4.09,-1.148,-0.054,-0.101,65.687,-13.487,11.229
3560.0,-0.904,0.103,0.067,26.628,19.302,47.921,-0.957,-0.102,0.162,0.923,2.858,10.652,-0.999,0.025,0.054,-4.106,-3.449,10.161,-0.918,-0.069,-0.02,40.673,22.652,-3.647,-1.113,-0.01,-0.094,66.958,-15.647,15.936
3580.0,-0.9,0.129,0.034,29.133,24.765,51.25,-1.011,-0.141,0.147,2.099,-0.926,11.831,-0.976,0.023,0.053,-2.817,-3.5,8.415,-0.881,-0.083,-0.049,41.786,20.951,-4.474,-1.058,0.06,-0.074,64.121,-14.589,21.835
3600.0,-0.894,0.155,0.002,31.099,34.53,55.516,-1.028,-0.117,0.164,1.126,-0.549,12.136,-0.988,0.021,0.06,1.051,-3.091,6.614,-0.817,-0.094,-0.062,47.058,22.815,-3.877,-1.054,0.111,-0.045,59.107,-9.077,29.71
3620.0,-0.863,0.162,-0.009,31.772,40.05,59.666,-1.019,-0.107,0.169,1.365,2.163,10.063,-0.976,0.009,0.054,6.421,1.637,5.264,-0.761,-0.068,-0.071,54.381,29.032,-1.208,-1.078,0.173,-0.032,53.975,-6.6,40.332
3640.0,-0.883,0.197,-0.004,29.886,43.842,63.558,-1.019,-0.105,0.173,0.823,2.875,8.593,-0.986,0.04,0.057,6.575,6.268,4.555,-0.781,-0.033,-0.061,55.705,30.531,-1.203,-1.076,0.223,-0.048,46.259,-6.604,49.912
3660.0,-0.895,0.254,0.026,29.143,45.986,67.826,-1.006,-0.109,0.152,2.669,0.618,7.829,-1.01,0.024,0.076,6.327,8.074,2.194,-0.808,-0.008,-0.032,52.244,27.083,-1.876,-1.04,0.25,-0.059,31.29,-8.05,57.89
3680.0,-0.9,0.297,0.057,29.82,45.85,73.43,-0.997,-0.118,0.141,8.227,-1.901,6.934,-0.97,0.087,0.056,7.275,15.048,0.891,-0.783,-0.039,-0.049,51.527,23.366,-2.373,-1.021,0.244,-0.062,17.967,-10.214,65.981
3700.0,-0.871,0.306,-0.001,33.398,41.245,79.29,-1.009,-0.094,0.159,9.214,-4.2,4.402,-0.981,0.025,0.051,4.042,18.42,-1.665,-0.723,-0.08,-0.083,58.132,24.678,-1.659,-0.987,0.223,-0.024,14.099,-9.349,77.703
3720.0,-0.782,0.333,-0.084,38.602,44.867,84.014,-1.019,-0.074,0.159,4.806,-7.158,-0.234,-1.0,0.025,0.002,11.905,20.472,-2.604,-0.717,-0.056,-0.113,72.566,29.773,0.276,-0.996,0.228,-0.018,14.852,-4.42,92.37
3740.0,-0.722,0.32,-0.142,42.685,51.955,88.64,-1.02,-0.067,0.152,3.799,-7.327,-2.428,-1.016,0.114,-0.001,8.986,16.806,-3.572,-0.761,-0.019,-0.096,76.628,29.463,1.185,-1.018,0.237,-0.052,15.537,-3.089,104.148
3760.0,-0.687,0.321,-0.16,41.056,66.411,91.801,-0.997,-0.051,0.197,1.318,-5.393,-4.026,-1.037,0.002,-0.016,-9.447,14.262,-5.841,-0.775,0.003,-0.098,72.103,22.707,0.491,-1.026,0.273,-0.092,12.88,-1.26,112.84
3780.0,-0.673,0.348,-0.129,38.931,70.781,93.431,-1.003,-0.116,0.168,1.802,-6.005,-8.874,-1.022,0.057,-0.024,-8.534,6.477,-7.753,-0.738,0.002,-0.119,68.093,21.242,0.691,-1.032,0.128,-0.071,10.997,2.854,121.89
3800.0,-0.714,0.423,-0.142,38.431,66.201,96.221,-0.999,-0.072,0.164,2.134,-5.683,-10.208,-0.985,-0.015,-0.038,-3.92,10.518,-10.648,-0.838,-0.024,-0.189,65.616,26.413,-1.104,-1.061,0.218,-0.075,15.296,7.755,131.675
3820.0,-0.838,0.526,-0.2,39.97,60.335,97.9,-1.006,-0.028,0.202,1.724,-4.661,-15.203,-1.049,0.007,-0.031,9.454,9.948,-12.083,-1.033,0.028,-0.183,59.963,19.908,-6.395,-1.074,0.247,-0.08,20.761,12.357,141.584
3840.0,-0.9,0.625,-0.191,44.459,58.961,100.373,-1.049,0.021,0.24,-9.143,-2.903,-21.634,-1.064,0.092,-0.062,15.298,10.565,-13.389,-1.087,0.066,-0.169,38.785,2.034,-16.123,-1.109,0.317,-0.11,19.061,10.194,148.154
3860.0,-0.847,0.617,-0.167,47.519,59.428,98.521,-0.983,-0.118,0.148,-1.647,-5.677,-12.294,-1.005,0.121,-0.087,6.413,8.862,-16.003,-0.93,-0.007,-0.219,18.871,-7.848,-18.182,-1.058,0.385,-0.106,4.923,1.169,146.606
3880.0,-0.774,0.567,-0.186,46.562,57.554,98.234,-1.275,-0.263,0.135,-32.55,-13.93,-22.96,-0.969,0.028,-0.059,-7.965,4.349,-19.36,-0.878,-0.103,-0.276,22.078,-3.046,-14.61,-0.936,0.408,-0.085,-18.773,-4.971,140.508
3900.0,-0.682,0.51,-0.277,43.045,58.924,96.109,-1.102,-0.232,0.156,-12.544,5.83,-22.863,-0.999,-0.066,-0.036,-4.004,0.202,-20.754,-0.917,-0.125,-0.272,34.166,4.491,-8.725,-0.85,0.386,-0.05,-35.409,-4.73,132.012
3920.0,-0.62,0.494,-0.352,37.775,64.904,92.293,-1.106,-0.226,0.153,-16.025,12.208,-25.273,-1.023,-0.081,-0.04,10.249,0.378,-20.307,-1.028,-0.126,-0.295,44.224,3.289,-4.971,-0.925,0.408,-0.06,-48.895,-0.388,126.188
3940.0,-0.616,0.58,-0.349,31.975,71.96,88.335,-1.025,-0.022,0.228,-46.892,20.763,-27.95,-1.011,-0.074,-0.021,17.682,0.867,-19.262,-1.029,-0.124,-0.356,50.18,0.665,-0.618,-1.034,0.462,-0.131,-63.249,-13.149,118.427
3960.0,-0.64,0.666,-0.291,30.245,71.607,83.877,-1.178,-0.392,0.103,-30.813,3.104,-31.555,-1.01,-0.01,-0.006,20.034,-1.109,-18.521,-0.965,-0.104,-0.359,60.478,3.188,4.951,-0.963,0.437,-0.133,-75.31,-35.44,111.07
3980.0,-0.655,0.693,-0.339,30.986,64.671,78.854,-1.031,-0.321,0.088,-15.112,8.106,-25.047,-1.005,0.005,-0.034,16.638,0.155,-18.909,-0.967,-0.045,-0.318,58.576,7.822,11.592,-0.867,0.403,-0.102,-77.946,-40.064,107.41
4000.0,-0.635,0.685,-0.456,26.795,58.55,77.491,-1.007,-0.256,0.144,4.557,6.167,-17.722,-0.993,-0.011,-0.042,9.953,4.815,-20.07,-1.036,-0.014,-0.271,39.784,7.673,10.81,-0.855,0.416,-0.063,-71.329,-40.796,107.077
4020.0,-0.612,0.659,-0.54,24.123,60.938,73.048,-1.051,-0.149,0.121,3.439,-3.109,-7.827,-0.986,-0.005,-0.011,4.291,10.179,-20.144,-1.042,-0.051,-0.281,18.951,1.198,7.946,-0.827,0.439,0.003,-59.237,-40.509,106.135
4040.0,-0.572,0.687,-0.501,28.445,64.519,71.057,-1.088,-0.165,0.112,-19.855,-5.1,-12.916,-0.992,-0.006,-0.006,-2.395,13.563,-19.866,-0.969,-0.153,-0.308,16.18,0.377,4.983,-0.817,0.453,0.025,-50.833,-35.859,103.043
4060.0,-0.585,0.742,-0.444,27.528,63.497,73.413,-1.002,-0.21,0.093,-44.129,2.514,-12.888,-0.996,-0.117,-0.017,-2.44,15.268,-20.776,-0.918,-0.181,-0.332,22.816,5.776,7.84,-0.824,0.488,0.015,-44.652,-32.822,102.542
4080.0,-0.571,0.718,-0.396,20.819,61.194,71.526,-1.004,-0.351,0.106,-25.439,11.917,-13.239,-0.969,-0.155,-0.014,12.295,21.917,-18.942,-0.923,-0.151,-0.31,25.16,15.071,12.578,-0.789,0.53,0.017,-36.47,-38.642,109.034
4100.0,-0.521,0.68,-0.466,14.475,56.512,67.055,-0.988,-0.337,0.089,-9.117,13.899,-19.173,-0.982,-0.149,0.016,21.578,23.569,-16.741,-0.959,-0.123,-0.266,15.52,17.459,12.448,-0.698,0.515,0.084,-16.614,-42.506,114.917
4120.0,-0.453,0.712,-0.556,16.185,55.367,66.582,-1.002,-0.317,0.093,1.47,14.234,-18.755,-0.949,-0.061,-0.078,25.429,24.706,-16.065,-1.029,-0.09,-0.226,-8.094,15.22,4.964,-0.688,0.56,0.092,1.12,-38.271,116.547
4140.0,-0.5,0.783,-0.565,20.349,50.576,69.072,-0.995,-0.275,0.123,1.707,14.743,-15.036,-0.968,-0.02,-0.046,8.75,28.63,-15.54,-1.143,-0.038,-0.189,-46.245,5.681,-11.91,-0.727,0.736,0.033,5.115,-33.74,113.012
4160.0,-0.454,0.804,-0.584,18.815,51.04,68.97,-0.975,-0.259,0.146,-7.153,15.954,-11.689,-0.924,-0.053,-0.097,-4.9,31.08,-17.08,-1.167,-0.147,-0.211,-63.54,1.053,-24.513,-0.736,0.911,-0.005,-17.286,-51.334,99.816
4180.0,-0.404,0.854,-0.652,7.988,54.911,66.813,-0.941,-0.243,0.144,-11.157,19.498,-7.589,-0.996,-0.035,-0.089,-1.792,27.928,-16.38,-1.136,-0.328,-0.287,-59.177,2.947,-25.998,-0.554,0.928,0.112,-53.268,-60.104,80.839
4200.0,-0.366,0.849,-0.726,0.1,62.326,61.616,-1.101,-0.423,0.063,0.229,16.695,-4.129,-1.001,-0.021,-0.174,-8.726,25.25,-16.381,-1.088,-0.455,-0.337,-4.693,15.915,-7.983,-0.526,0.859,0.154,-61.522,-40.972,64.471
4220.0,-0.389,0.857,-0.667,-2.784,61.491,60.061,-1.098,-0.4,0.029,20.073,6.793,9.185,-1.041,-0.115,-0.212,-1.53,21.347,-16.599,-1.087,-0.373,-0.32,50.333,26.098,7.144,-0.56,0.867,0.149,-65.107,-39.662,55.134
4240.0,-0.382,0.833,-0.619,-0.149,53.884,59.373,-1.057,-0.309,0.033,29.714,4.278,17.777,-1.15,-0.166,-0.097,13.488,-4.817,-18.378,-1.177,-0.134,-0.307,61.519,27.595,12.413,-0.483,0.845,0.146,-64.834,-51.695,50.941
4260.0,-0.326,0.82,-0.683,4.555,51.894,57.353,-1.011,-0.254,0.028,25.782,2.96,16.535,-1.368,-0.128,-0.221,25.779,-62.495,-15.566,-1.29,0.001,-0.267,42.452,25.433,10.811,-0.322,0.687,0.19,-50.918,-64.432,51.408
4280.0,-0.319,0.801,-0.71,1.747,50.576,52.978,-0.982,-0.229,0.024,18.97,0.524,13.353,-0.952,-0.131,-0.15,9.854,-13.445,-8.894,-1.403,0.03,-0.241,9.095,15.534,1.47,-0.125,0.584,0.343,-9.246,-63.389,56.973
4300.0,-0.328,0.825,-0.705,-4.57,45.539,46.244,-1.01,-0.214,0.077,16.389,-0.154,11.858,-0.948,-0.09,-0.153,7.284,-10.234,-9.09,-1.298,-0.111,-0.304,-18.277,9.939,1.719,-0.08,0.774,0.368,13.16,-24.349,54.904
4320.0,-0.341,0.916,-0.663,-5.928,36.701,39.937,-0.992,-0.215,0.086,10.615,1.602,7.453,-0.984,-0.09,-0.071,-1.686,-0.95,-7.919,-1.271,-0.267,-0.271,-4.996,14.949,13.214,-0.185,0.867,0.289,3.52,-22.212,42.948
4340.0,-0.318,0.931,-0.706,-5.16,27.243,34.288,-0.974,-0.245,0.079,8.146,7.773,5.467,-0.972,-0.137,-0.143,1.387,1.286,-11.123,-1.242,-0.268,-0.292,11.872,24.778,16.874,-0.096,0.855,0.287,-14.39,-26.863,28.081
4360.0,-0.228,0.924,-0.797,-7.468,27.212,25.959,-0.98,-0.238,0.107,8.971,12.264,7.389,-1.027,-0.073,-0.131,-0.295,0.881,-12.736,-1.235,-0.268,-0.23,21.487,31.821,16.593,-0.007,0.831,0.315,-20.484,-18.639,12.626
4380.0,-0.236,0.921,-0.756,-10.036,25.95,16.7,-0.983,-0.232,0.105,10.648,15.27,9.755,-1.008,-0.082,-0.117,-3.975,1.862,-12.606,-1.535,-0.555,0.166,46.2,26.74,23.73,-0.04,0.862,0.33,-19.39,-2.59,-0.07
4400.0,-0.309,0.926,-0.724,-10.679,17.443,8.883,-0.994,-0.257,0.066,-0.76,13.972,6.024,-0.961,-0.145,-0.07,-3.755,7.904,-10.681,-1.876,-0.866,0.422,154.49,-6.51,43.68,-0.119,0.845,0.305,-24.039,-1.205,-16.204
4420.0,-0.335,0.933,-0.745,-9.722,6.142,2.901,-1.071,-0.149,0.095,5.77,-19.346,3.592,-0.958,-0.242,-0.051,5.162,11.236,-6.15,-1.261,0.271,-0.069,108.95,-7.618,9.659,-0.121,0.753,0.371,-15.277,7.468,-24.712
4440.0,-0.319,0.93,-0.782,-5.746,0.477,-3.332,-1.083,0.162,0.183,60.759,-69.353,13.455,-0.958,-0.131,-0.145,4.781,9.485,-3.314,-1.201,0.185,-0.176,41.58,4.76,3.15,-0.213,0.753,0.507,2.88,8.647,-30.011
4460.0,-0.262,0.915,-0.807,-0.991,-0.565,-11.36,-0.431,-0.309,-0.078,30.288,39.664,-11.152,-0.954,-0.07,-0.159,-7.508,6.208,-2.175,-1.491,0.175,-0.188,-4.69,-5.6,2.17,-0.216,0.729,0.54,19.29,13.059,-34.097
4480.0,-0.269,0.909,-0.754,1.138,-3.313,-19.363,-0.737,-0.251,0.012,-5.208,-11.042,-6.244,-1.081,-0.036,-0.144,-10.716,-8.967,-4.062,-1.448,-0.028,-0.295,-36.12,-18.27,-5.46,-0.194,0.809,0.435,35.491,24.515,-35.04
4500.0,-0.26,0.909,-0.701,2.295,-6.93,-26.071,-0.84,-0.284,-0.02,3.798,1.705,-3.743,-1.137,-0.104,-0.148,-7.782,-21.215,-3.46,-1.201,-0.232,-0.343,-39.346,-15.789,-7.976,-0.27,0.95,0.409,28.763,29.891,-46.157
4520.0,-0.269,0.901,-0.683,3.703,-11.979,-33.353,-1.002,-0.178,0.058,-6.153,-17.611,-1.663,-1.055,-0.234,-0.163,1.003,-18.676,0.832,-1.246,-0.349,-0.266,-21.313,-1.211,-4.344,-0.38,0.868,0.382,17.462,29.87,-59.73
4540.0,-0.292,0.892,-0.7,6.601,-17.364,-41.951,-0.978,-0.241,0.046,5.384,-19.658,2.232,-0.954,-0.192,-0.158,13.535,-13.685,4.262,-1.267,-0.209,-0.168,-5.534,-0.282,-5.303,-0.484,0.696,0.377,21.479,21.733,-62.635
4560.0,-0.297,0.894,-0.693,11.83,-21.35,-48.51,-0.985,-0.188,0.069,-1.998,-20.503,2.006,-0.953,-0.109,-0.136,13.395,-13.898,6.268,-1.289,-0.142,-0.185,-6.155,-2.314,-8.799,-0.521,0.558,0.413,37.433,18.579,-61.588
4580.0,-0.279,0.889,-0.671,15.19,-23.31,-51.73,-0.989,-0.262,0.072,3.519,-20.994,5.624,-0.969,-0.11,-0.131,1.396,-13.106,8.211,-1.193,-0.199,-0.264,2.351,-3.147,-7.469,-0.574,0.558,0.38,56.694,23.41,-58.353
4600.0,-0.262,0.863,-0.632,15.888,-25.127,-53.055,-0.996,-0.222,0.109,4.76,-18.48,11.97,-0.992,-0.204,-0.124,1.121,-11.408,9.689,-1.027,-0.271,-0.308,25.57,2.063,-0.834,-0.616,0.686,0.292,63.109,18.772,-61.312
4620.0,-0.324,0.828,-0.576,15.267,-31.551,-52.785,-0.967,-0.202,0.097,5.52,-12.133,11.224,-0.987,-0.154,-0.096,10.812,-11.704,9.62,-1.01,-0.164,-0.254,43.539,6.578,5.906,-0.644,0.723,0.232,54.826,19.19,-74.288
4640.0,-0.373,0.783,-0.598,11.69,-35.7,-54.25,-0.958,-0.169,0.117,2.375,-16.609,10.082,-0.976,-0.059,-0.084,6.839,-14.143,8.883,-1.034,-0.023,-0.172,32.554,2.536,5.063,-0.701,0.686,0.142,40.214,20.368,-84.595
4660.0,-0.385,0.767,-0.604,7.98,-36.61,-58.66,-0.988,-0.128,0.118,-5.703,-13.879,6.659,-0.982,-0.059,-0.097,0.6,-16.002,7.546,-1.094,-0.016,-0.13,3.719,-5.4,-2.6,-0.733,0.644,0.085,30.844,16.194,-92.512
4680.0,-0.405,0.79,-0.559,7.507,-37.574,-62.787,-0.982,-0.155,0.14,-13.3,-11.06,1.82,-0.998,-0.088,-0.108,-1.79,-16.155,6.676,-1.079,-0.106,-0.186,-17.928,-13.079,-3.957,-0.789,0.629,0.032,26.358,18.809,-98.437
4700.0,-0.427,0.811,-0.548,4.321,-40.464,-63.279,-0.982,-0.225,0.084,-16.983,-15.172,-1.986,-1.0,-0.107,-0.091,-1.391,-15.276,7.069,-0.965,-0.162,-0.229,-23.396,-16.116,-2.603,-0.838,0.685,-0.038,21.369,5.753,-103.105
4720.0,-0.431,0.825,-0.529,1.606,-43.046,-62.956,-0.999,-0.3,0.112,-0.145,-20.448,4.243,-0.998,-0.119,-0.085,2.404,-14.088,7.782,-0.887,-0.138,-0.236,-19.37,-11.112,-0.382,-0.794,0.742,-0.037,10.675,-3.351,-112.053
4740.0,-0.429,0.804,-0.536,-1.436,-46.646,-61.563,-0.988,-0.232,0.146,-6.406,-14.562,2.678,-0.983,-0.069,-0.064,-0.9,-14.035,7.373,-0.907,-0.131,-0.252,-10.352,-3.665,1.338,-0.737,0.693,0.058,4.999,4.46,-116.419
4760.0,-0.416,0.746,-0.564,-1.54,-47.089,-59.901,-0.962,-0.21,0.149,-5.897,-10.657,4.173,-0.987,-0.048,-0.06,-8.557,-14.49,7.167,-1.006,-0.11,-0.257,-3.193,-6.056,0.471,-0.84,0.631,0.066,10.082,12.762,-109.096
4780.0,-0.429,0.696,-0.513,-0.71,-43.358,-58.85,-0.981,-0.21,0.159,-6.082,-9.945,5.016,-1.008,-0.061,-0.051,-11.776,-14.417,6.989,-0.996,-0.096,-0.237,-7.095,-17.163,-4.272,-0.91,0.676,-0.009,15.148,11.429,-98.636
4800.0,-0.479,0.656,-0.489,-0.29,-43.808,-58.564,-0.983,-0.197,0.182,-6.117,-6.502,6.515,-0.988,-0.052,-0.053,-14.939,-12.407,6.565,-0.864,-0.113,-0.194,-9.224,-18.608,-7.644,-0.873,0.738,-0.019,9.123,4.764,-93.4
4820.0,-0.508,0.638,-0.485,-0.991,-45.27,-58.119,-0.993,-0.241,0.151,-2.592,-3.88,9.013,-0.997,-0.129,-0.052,-14.783,-9.358,7.501,-0.836,-0.106,-0.187,-7.33,-13.423,-7.315,-0.818,0.646,0.008,0.932,5.176,-90.79
4840.0,-0.535,0.623,-0.478,-3.378,-46.883,-58.872,-0.979,-0.269,0.149,12.476,-3.032,9.29,-0.993,-0.128,-0.055,-9.752,-9.17,7.875,-0.899,-0.088,-0.192,-6.505,-10.24,-8.404,-0.811,0.518,0.0,3.71,9.301,-82.54
4860.0,-0.538,0.605,-0.468,-5.637,-46.959,-60.072,-0.97,-0.178,0.143,10.646,-2.1,6.9,-0.976,-0.079,-0.055,-9.837,-8.105,7.993,-0.949,-0.084,-0.206,-10.493,-13.944,-11.666,-0.802,0.51,0.018,19.492,9.299,-70.158
4880.0,-0.562,0.585,-0.434,-5.95,-49.612,-58.491,-0.983,-0.155,0.147,-1.764,1.762,3.427,-0.977,-0.069,-0.059,-12.343,-3.806,9.1,-0.889,-0.064,-0.22,-14.062,-16.768,-11.392,-0.793,0.479,0.074,28.541,19.201,-63.415
4900.0,-0.583,0.591,-0.437,-7.157,-53.093,-55.442,-0.938,-0.172,0.149,-3.578,-0.7,3.605,-1.022,-0.08,-0.054,-10.012,-2.869,10.208,-0.864,-0.046,-0.221,-17.29,-15.424,-9.79,-0.926,0.414,0.023,35.118,30.052,-55.108
4920.0,-0.61,0.599,-0.45,-8.06,-53.271,-52.639,-0.938,-0.191,0.125,-1.759,-4.376,3.178,-1.04,-0.1,-0.065,-8.699,-6.563,10.254,-0.907,-0.061,-0.255,-19.118,-12.359,-8.036,-1.0,0.423,-0.058,37.018,24.943,-49.357
4940.0,-0.648,0.589,-0.436,-7.639,-52.698,-50.41,-1.016,-0.189,0.121,-1.685,-2.79,1.365,-1.004,-0.056,-0.048,-4.879,-7.578,10.473,-0.942,-0.081,-0.268,-17.76,-12.64,-4.124,-0.944,0.4,-0.043,33.899,15.624,-51.929
4960.0,-0.666,0.539,-0.428,-6.489,-53.27,-49.618,-1.024,-0.185,0.133,-0.874,-4.744,2.925,-0.963,0.053,-0.058,-16.471,-4.462,11.656,-0.935,-0.112,-0.231,-15.236,-12.746,0.418,-0.894,0.417,-0.026,28.623,13.476,-70.793
4980.0,-0.663,0.487,-0.428,-4.634,-51.86,-50.465,-1.04,-0.204,0.121,7.377,-13.998,5.917,-1.019,-0.064,-0.045,-24.55,-5.179,10.224,-0.947,-0.143,-0.205,-10.826,-11.779,4.478,-0.809,0.413,-0.034,21.133,16.381,-60.856
5000.0,-0.676,0.474,-0.409,-2.612,-49.704,-52.598,-0.986,-0.163,0.177,3.32,-7.888,6.906,-0.999,-0.066,-0.05,-12.167,-5.041,11.185,-0.953,-0.144,-0.206,-2.429,-12.018,8.916,-0.783,0.367,-0.039,14.562,24.846,-68.11
5020.0,-0.699,0.48,-0.403,-0.808,-49.289,-55.184,-1.0,-0.21,0.147,1.561,-7.732,6.82,-1.006,-0.05,-0.039,-11.945,-5.501,12.151,-0.923,-0.089,-0.193,1.428,-11.236,12.079,-0.845,0.265,-0.059,10.422,30.829,-67.965
5040.0,-0.707,0.5,-0.409,-0.2,-48.083,-57.018,-0.991,-0.211,0.144,6.551,-6.629,7.391,-1.023,-0.07,-0.031,-8.573,-10.808,9.741,-0.917,-0.056,-0.208,-3.243,-9.343,11.959,-0.908,0.157,-0.0,20.61,32.729,-59.083
5060.0,-0.72,0.517,-0.404,-1.107,-44.139,-57.4,-0.99,-0.193,0.168,7.07,-4.765,7.223,-0.993,-0.067,0.006,-5.655,-9.447,10.961,-0.924,-0.098,-0.242,-9.967,-8.717,10.173,-0.965,0.097,0.007,34.682,37.381,-47.907
5080.0,-0.751,0.517,-0.373,-1.651,-40.45,-57.306,-0.987,-0.152,0.181,7.07,-0.56,8.26,-0.984,-0.064,-0.056,-2.948,-8.295,12.951,-0.94,-0.118,-0.202,-15.185,-10.31,8.86,-1.091,0.066,-0.07,60.13,42.198,-37.741
5100.0,-0.776,0.51,-0.337,-0.709,-37.846,-56.874,-0.956,-0.216,0.142,3.432,0.016,6.021,-1.018,-0.009,-0.038,-3.749,-9.178,13.291,-0.922,-0.093,-0.156,-23.509,-15.167,5.715,-1.174,0.111,-0.118,73.563,27.126,-25.447
5120.0,-0.791,0.504,-0.307,-1.365,-37.452,-56.245,-0.984,-0.212,0.161,2.707,0.188,6.413,-0.981,0.019,-0.024,-8.101,-4.714,13.091,-0.861,-0.118,-0.139,-26.381,-14.739,3.96,-1.107,0.18,-0.1,78.477,15.367,-25.061
5140.0,-0.794,0.467,-0.304,-6.894,-37.163,-55.029,-0.991,-0.203,0.119,11.637,-4.011,9.401,-0.999,-0.032,-0.07,-13.344,-7.233,13.09,-0.826,-0.121,-0.142,-27.506,-12.811,0.774,-1.057,0.195,-0.099,73.12,16.118,-32.035
5160.0,-0.797,0.445,-0.307,-9.669,-36.948,-53.79,-0.981,-0.176,0.165,11.658,-2.363,9.906,-1.025,-0.075,-0.052,-4.467,-7.599,12.955,-0.845,-0.147,-0.155,-24.928,-8.464,-1.663,-1.107,0.195,-0.103,68.735,26.154,-44.113
5180.0,-0.807,0.449,-0.307,-8.77,-36.851,-50.938,-0.984,-0.11,0.174,9.891,0.412,9.109,-1.025,0.0,-0.04,-1.4,-11.83,12.88,-0.886,-0.141,-0.164,-18.631,-8.4,-2.334,-1.266,0.21,-0.162,71.697,33.144,-56.2
5200.0,-0.797,0.432,-0.306,-7.233,-33.907,-47.598,-1.006,-0.095,0.139,-1.85,3.103,8.699,-1.026,0.07,-0.022,-7.63,-13.09,11.62,-0.871,-0.111,-0.148,-17.884,-8.586,-3.866,-1.411,0.256,-0.228,72.989,10.935,-69.019
5220.0,-0.794,0.401,-0.271,-6.731,-27.729,-45.048,-1.003,-0.152,0.142,-6.187,2.987,6.978,-0.993,0.073,-0.044,-18.55,-10.08,10.92,-0.83,-0.095,-0.123,-21.563,-8.554,-5.476,-1.266,0.335,-0.354,67.922,-2.347,-83.143
5240.0,-0.805,0.346,-0.243,-8.027,-25.175,-43.515,-0.989,-0.17,0.158,-4.687,4.029,5.432,-1.007,-0.024,-0.001,-15.47,-12.53,9.45,-0.831,-0.079,-0.088,-26.913,-8.904,-5.93,-1.168,0.4,-0.257,51.62,-5.64,-99.75
5260.0,-0.804,0.307,-0.261,-8.103,-25.044,-42.551,-0.992,-0.196,0.143,2.363,2.148,6.929,-0.995,-0.05,-0.018,-9.73,-10.08,10.71,-0.81,-0.091,-0.078,-31.002,-10.53,-6.019,-1.131,0.423,-0.195,30.097,-10.48,-113.896
5280.0,-0.798,0.333,-0.282,-5.794,-22.612,-40.174,-1.011,-0.18,0.158,4.323,2.16,8.212,-0.976,-0.011,-0.016,-3.22,-9.59,10.92,-0.804,-0.094,-0.071,-32.329,-9.887,-5.252,-1.081,0.388,-0.178,14.156,-12.168,-117.493
5300.0,-0.802,0.359,-0.275,-4.315,-18.984,-36.179,-0.988,-0.124,0.162,1.809,4.326,8.081,-1.016,0.079,-0.019,-7.048,-8.061,10.914,-0.834,-0.105,-0.104,-33.426,-7.975,-5.162,-1.044,0.36,-0.16,-5.346,-9.112,-112.647
5320.0,-0.848,0.362,-0.242,-3.229,-14.287,-30.447,-0.977,-0.123,0.128,-6.629,6.493,6.719,-1.023,0.086,-0.027,-14.676,-10.202,9.348,-0.883,-0.16,-0.137,-32.306,-9.521,-3.993,-1.07,0.312,-0.132,-18.063,0.289,-98.959
5340.0,-0.88,0.353,-0.215,-5.581,-13.572,-25.314,-1.018,-0.165,0.104,-6.942,2.699,7.89,-0.998,0.029,-0.014,-14.247,-9.707,7.89,-0.86,-0.186,-0.127,-26.609,-9.927,-0.048,-1.188,0.241,-0.168,-18.857,0.645,-79.308
5360.0,-0.886,0.351,-0.209,-10.539,-12.751,-22.393,-1.016,-0.156,0.122,-1.164,2.334,7.736,-1.003,0.001,-0.002,-8.531,-8.708,8.209,-0.802,-0.186,-0.095,-17.964,-7.228,1.474,-1.182,0.234,-0.198,-15.538,-7.781,-59.952
5380.0,-0.855,0.348,-0.232,-11.26,-12.121,-17.885,-1.015,-0.124,0.126,0.175,2.843,6.88,-1.004,0.026,-0.009,-4.522,-8.503,8.626,-0.801,-0.185,-0.076,-8.85,-2.794,1.387,-1.071,0.258,-0.193,-8.501,-9.852,-44.14
5400.0,-0.832,0.326,-0.237,-10.239,-8.097,-13.152,-1.012,-0.138,0.216,0.683,4.209,5.193,-1.014,0.06,0.007,-7.488,-7.155,9.023,-0.838,-0.161,-0.085,-3.958,-2.196,-0.074,-1.051,0.286,-0.15,-4.846,-6.958,-31.494
5420.0,-0.841,0.292,-0.23,-8.33,-3.99,-8.19,-0.99,-0.133,0.171,2.762,6.596,5.145,-0.997,0.061,0.019,-14.767,-5.68,8.44,-0.854,-0.129,-0.111,-4.168,-4.032,-3.727,-1.081,0.306,-0.082,-1.888,-3.86,-18.843
5440.0,-0.846,0.281,-0.233,-6.868,-1.066,-4.242,-1.008,-0.106,0.144,-2.765,5.18,3.71,-0.996,0.056,-0.001,-14.465,-5.851,7.446,-0.83,-0.127,-0.117,-5.634,-4.258,-6.164,-1.123,0.323,-0.079,-1.034,-4.181,-4.138
5460.0,-0.853,0.264,-0.217,-5.909,2.68,-0.995,-1.022,-0.098,0.15,-7.664,3.838,2.751,-1.005,0.067,-0.002,-11.896,-5.481,6.135,-0.819,-0.133,-0.111,-5.63,-0.743,-6.976,-1.123,0.342,-0.112,-4.756,-8.098,11.505
5480.0,-0.855,0.259,-0.211,-5.014,5.372,2.447,-0.986,-0.113,0.144,-5.158,6.859,4.251,-1.006,0.055,0.008,-6.18,-4.296,3.76,-0.839,-0.136,-0.109,-6.86,0.518,-7.343,-1.079,0.35,-0.141,-19.066,-12.515,27.187
5500.0,-0.856,0.258,-0.225,-4.375,7.688,6.219,-0.931,-0.15,0.092,-5.728,12.035,3.448,-1.01,0.08,-0.002,-2.058,-0.759,3.019,-0.831,-0.154,-0.115,-6.615,1.064,-7.249,-1.045,0.303,-0.158,-35.782,-13.473,41.53
5520.0,-0.867,0.284,-0.24,-4.889,9.689,10.144,-0.832,-0.194,0.033,-0.164,19.39,4.238,-1.005,0.056,0.029,-2.512,-0.588,1.827,-0.8,-0.152,-0.117,-1.002,4.971,-6.699,-1.081,0.229,-0.162,-43.444,-11.77,56.697
5540.0,-0.879,0.318,-0.25,-5.519,11.689,14.774,-0.96,-0.143,0.084,-6.546,8.491,2.688,-0.983,0.042,0.032,-0.875,1.47,1.68,-0.84,-0.125,-0.096,1.355,8.147,-6.316,-1.167,0.16,-0.143,-41.798,-13.987,69.914
5560.0,-0.878,0.329,-0.237,-4.923,14.187,19.683,-1.018,-0.142,0.077,-6.728,2.576,0.679,-0.998,0.07,0.013,-0.554,3.139,1.51,-0.892,-0.135,-0.116,-0.306,6.95,-8.031,-1.172,0.16,-0.144,-35.729,-15.812,79.915
5580.0,-0.891,0.325,-0.224,-4.505,14.216,24.912,-1.028,-0.132,0.088,-1.281,-3.005,2.507,-1.026,0.123,-0.003,-9.373,2.198,-0.068,-0.877,-0.184,-0.147,3.775,6.062,-8.088,-1.149,0.165,-0.161,-33.489,-15.78,86.244
5600.0,-0.884,0.316,-0.241,-3.708,13.604,28.635,-1.017,-0.137,0.093,-1.12,-3.22,1.995,-0.999,0.116,-0.028,-13.134,2.856,-1.202,-0.861,-0.137,-0.14,7.725,5.999,-6.639,-1.098,0.17,-0.183,-34.891,-13.112,89.362
5620.0,-0.86,0.323,-0.256,-3.202,15.194,31.218,-1.01,-0.123,0.114,-2.871,-2.447,0.704,-1.004,0.059,-0.03,-11.629,2.52,-1.536,-0.851,-0.11,-0.128,5.651,5.952,-7.325,-1.086,0.141,-0.194,-36.721,-9.758,91.904
5640.0,-0.854,0.329,-0.263,-2.714,16.501,34.341,-1.009,-0.106,0.14,-7.729,0.55,-0.875,-0.999,-0.003,-0.016,-4.142,2.1,-1.169,-0.812,-0.131,-0.142,5.496,6.604,-8.444,-1.114,0.119,-0.205,-35.117,-5.227,96.005
5660.0,-0.842,0.337,-0.273,-2.448,17.324,38.328,-1.088,-0.172,0.103,-8.956,-2.436,-1.329,-1.009,0.007,-0.015,5.539,3.014,-0.557,-0.788,-0.134,-0.144,6.848,8.309,-6.686,-1.164,0.109,-0.22,-30.684,-5.401,98.738
5680.0,-0.83,0.363,-0.275,-2.1,18.628,42.858,-1.132,-0.196,0.132,-3.547,-13.284,1.696,-1.012,0.103,-0.026,1.511,0.456,0.059,-0.802,-0.12,-0.169,5.171,11.031,-4.506,-1.16,0.115,-0.221,-24.686,-7.513,100.721
5700.0,-0.841,0.398,-0.275,-1.698,18.297,47.943,-0.983,-0.179,0.082,3.082,1.641,0.811,-1.001,0.08,-0.016,-7.002,-0.29,-0.16,-0.866,-0.122,-0.182,4.481,11.666,-3.596,-1.1,0.156,-0.212,-20.294,-6.923,100.022
5720.0,-0.846,0.426,-0.282,-1.067,17.808,52.847,-0.944,-0.13,0.076,3.562,3.058,-1.789,-1.001,0.059,-0.018,-9.004,0.958,-0.258,-0.896,-0.15,-0.176,4.832,7.271,-2.763,-1.06,0.191,-0.206,-21.057,-4.434,96.189
5740.0,-0.821,0.432,-0.289,0.552,19.159,57.412,-1.038,-0.079,0.085,-3.116,1.88,-8.19,-1.016,0.1,-0.037,-9.286,0.161,0.582,-0.838,-0.169,-0.17,9.851,4.994,-1.909,-1.03,0.213,-0.199,-24.634,-1.177,90.856
5760.0,-0.781,0.421,-0.305,2.944,21.209,61.694,-1.01,-0.087,0.078,-10.231,7.873,-13.948,-1.003,0.077,-0.03,-10.252,-0.349,-0.355,-0.762,-0.163,-0.173,12.681,8.254,-3.263,-1.001,0.218,-0.176,-27.945,0.993,87.073
5780.0,-0.742,0.412,-0.311,5.753,26.818,64.848,-0.897,-0.111,0.076,-11.35,11.334,-13.806,-1.009,0.03,-0.004,-4.299,-0.322,-2.101,-0.787,-0.171,-0.205,14.642,14.183,-2.663,-0.968,0.199,-0.15,-26.182,4.168,86.669
5800.0,-0.724,0.415,-0.292,8.067,31.497,66.108,-0.908,-0.153,0.084,-7.374,9.889,-11.987,-1.003,0.023,0.011,-1.144,0.621,-2.198,-0.836,-0.16,-0.239,15.427,14.21,-3.285,-0.935,0.187,-0.139,-14.799,5.311,89.116
5820.0,-0.7,0.431,-0.289,10.881,32.701,66.937,-0.977,-0.184,0.057,-8.757,9.526,-11.418,-1.027,0.09,0.042,-7.117,2.063,-2.444,-0.861,-0.165,-0.224,16.45,12.32,-2.73,-0.901,0.21,-0.132,0.636,3.143,92.871
5840.0,-0.669,0.473,-0.301,14.779,32.59,68.93,-1.031,-0.173,0.041,-10.688,7.599,-11.314,-1.031,0.224,-0.006,-21.045,3.482,-3.572,-0.84,-0.158,-0.198,18.943,11.07,-4.492,-0.844,0.275,-0.109,8.137,3.029,93.277
5860.0,-0.643,0.484,-0.348,17.912,33.204,71.365,-1.036,-0.143,0.055,-11.993,5.928,-14.183,-0.995,0.154,-0.024,-25.831,4.943,-5.311,-0.837,-0.243,-0.213,19.46,12.95,-10.01,-0.809,0.318,-0.078,9.387,6.853,91.679
5880.0,-0.631,0.499,-0.385,18.186,39.219,72.404,-0.983,-0.08,0.086,-15.518,6.411,-16.5,-0.979,0.139,-0.012,-24.512,8.12,-8.332,-0.848,-0.221,-0.239,20.581,13.756,-10.485,-0.807,0.364,-0.066,6.467,8.941,89.168
5900.0,-0.619,0.52,-0.391,18.122,45.564,71.131,-1.008,-0.113,0.086,-12.52,6.591,-16.508,-0.989,0.059,-0.009,-9.758,10.601,-11.171,-0.863,-0.15,-0.285,17.23,13.79,-10.186,-0.775,0.411,-0.046,-1.745,11.452,84.245
5920.0,-0.617,0.559,-0.38,20.31,47.511,69.939,-1.037,-0.188,0.078,-9.619,7.28,-14.334,-1.011,-0.006,-0.023,15.382,12.029,-13.26,-0.921,-0.135,-0.271,8.874,10.798,-10.952,-0.794,0.418,-0.049,-5.762,11.419,78.451
5940.0,-0.601,0.583,-0.384,22.421,45.861,69.447,-1.047,-0.214,0.043,-7.758,2.285,-11.689,-0.994,0.072,-0.033,22.892,13.43,-12.496,-0.915,-0.157,-0.241,3.243,5.702,-11.056,-0.776,0.482,-0.052,-9.498,5.001,75.402
5960.0,-0.574,0.604,-0.398,23.66,46.9,68.74,-1.048,-0.233,0.042,-4.108,-3.918,-8.647,-0.976,0.058,-0.082,18.55,13.79,-14.07,-0.887,-0.224,-0.223,4.813,5.98,-8.74,-0.731,0.561,-0.012,-19.397,3.557,70.721
5980.0,-0.528,0.615,-0.382,23.87,49.902,68.42,-1.059,-0.262,0.039,-4.823,-3.167,-9.734,-0.97,-0.004,-0.044,14.442,12.74,-14.15,-0.888,-0.216,-0.229,12.764,6.16,-4.401,-0.747,0.556,0.006,-25.061,7.603,66.34
6000.0,-0.507,0.604,-0.367,23.87,50.318,67.671,-1.008,-0.151,0.087,-14.0,3.327,-10.961,-0.965,-0.019,-0.044,19.261,12.915,-14.868,-0.924,-0.154,-0.234,11.463,4.928,-1.059,-0.795,0.459,-0.012,-15.909,-1.75,68.167
6020.0,-0.468,0.596,-0.43,25.31,50.416,66.007,-1.003,-0.092,0.055,-15.927,3.199,-8.963,-0.95,-0.023,-0.056,22.197,17.569,-15.088,-0.992,-0.14,-0.262,0.305,-0.081,-3.156,-0.727,0.471,0.015,8.529,-12.195,78.009
6040.0,-0.44,0.626,-0.496,25.889,48.759,65.46,-0.974,-0.225,0.043,-11.918,-3.446,-8.547,-0.956,-0.061,-0.026,33.08,21.181,-16.735,-1.007,-0.188,-0.287,-11.884,-4.866,-4.192,-0.619,0.756,0.043,13.966,-14.882,79.002
6060.0,-0.423,0.654,-0.553,24.506,49.981,63.928,-0.969,-0.282,0.033,-2.189,-7.81,-6.754,-0.981,0.037,-0.041,33.872,29.818,-15.741,-1.003,-0.23,-0.307,-11.12,-7.014,-2.608,-0.603,0.87,0.011,1.288,-8.286,66.589
6080.0,-0.438,0.686,-0.552,24.695,51.281,61.196,-1.023,-0.2,0.073,-9.45,-3.71,-8.05,-1.02,0.104,-0.058,22.964,28.796,-15.141,-0.954,-0.218,-0.307,-3.662,-6.877,0.484,-0.678,0.886,-0.106,-33.971,-8.442,54.334
6100.0,-0.47,0.712,-0.577,23.203,49.332,57.034,-0.949,-0.11,0.133,-17.36,5.81,-7.28,-0.964,-0.029,-0.174,27.104,27.091,-15.289,-0.921,-0.159,-0.281,-3.829,-1.347,1.455,-0.723,0.802,-0.145,-53.579,-19.988,49.381
6120.0,-0.46,0.751,-0.629,16.362,47.423,54.154,-0.981,-0.261,0.067,-20.02,7.77,-6.09,-0.992,0.006,-0.276,39.568,23.925,-16.78,-0.968,-0.2,-0.283,-9.315,2.271,0.498,-0.717,0.712,-0.118,-58.816,-31.415,48.307
6140.0,-0.413,0.794,-0.64,9.425,47.798,54.283,-1.024,-0.347,0.049,-16.8,8.68,-5.46,-1.06,0.092,-0.24,34.929,18.032,-16.545,-1.001,-0.354,-0.328,-3.816,2.525,0.151,-0.746,0.742,-0.085,-47.497,-29.451,49.206
6160.0,-0.424,0.868,-0.591,5.089,44.67,56.139,-0.995,-0.322,0.049,4.123,12.673,-3.423,-1.016,0.08,-0.141,8.925,7.466,-16.68,-1.009,-0.348,-0.32,16.926,2.849,3.564,-0.796,0.815,-0.08,-37.494,-38.657,47.935
6180.0,-0.395,0.885,-0.611,3.388,42.415,57.11,-1.015,-0.241,0.006,10.993,10.811,-0.987,-0.978,-0.013,-0.131,-4.237,5.853,-14.242,-1.056,-0.209,-0.308,22.847,1.265,3.286,-0.648,0.786,0.007,-28.704,-44.581,43.893
6200.0,-0.343,0.862,-0.622,0.866,43.109,56.746,-1.0,-0.279,0.006,14.119,5.621,3.876,-0.979,-0.113,-0.136,0.86,5.915,-12.356,-1.112,-0.075,-0.329,11.589,-2.911,1.165,-0.57,0.788,0.044,-20.612,-35.755,44.275
6220.0,-0.333,0.79,-0.644,0.052,40.411,56.081,-1.002,-0.238,0.009,13.777,-1.373,7.518,-0.976,-0.085,-0.141,16.222,6.182,-10.94,-1.112,-0.08,-0.362,-10.256,-5.745,3.207,-0.535,0.761,0.076,-9.776,-29.853,45.521
6240.0,-0.3,0.756,-0.677,0.605,38.32,54.051,-1.035,-0.228,0.019,13.322,-11.611,12.981,-0.983,-0.016,-0.155,20.228,7.713,-7.775,-1.079,-0.173,-0.378,-20.681,-5.696,5.468,-0.518,0.81,0.064,5.241,-27.277,53.089
6260.0,-0.24,0.769,-0.709,2.678,38.918,51.538,-1.01,-0.278,0.036,13.739,-7.413,15.723,-0.997,-0.036,-0.155,21.801,7.934,-5.973,-1.078,-0.255,-0.377,-20.54,0.667,9.421,-0.428,0.976,0.082,3.585,-44.83,56.586
6280.0,-0.21,0.823,-0.664,6.668,37.665,49.186,-0.97,-0.24,0.093,11.532,0.803,16.952,-0.973,-0.086,-0.17,26.658,6.523,-4.669,-1.131,-0.267,-0.368,2.854,6.059,15.736,-0.232,0.972,0.118,-14.684,-47.217,47.849
6300.0,-0.211,0.844,-0.651,2.508,34.458,45.005,-0.971,-0.23,0.013,13.528,11.469,16.965,-0.935,-0.065,-0.193,29.429,3.281,-4.848,-1.128,-0.179,-0.381,16.818,10.271,21.752,-0.142,0.902,0.096,-27.633,-30.023,39.943
6320.0,-0.221,0.857,-0.654,-4.518,32.003,37.925,-1.021,-0.196,0.058,10.613,4.136,13.613,-0.919,-0.034,-0.161,27.073,0.959,-5.698,-1.075,-0.089,-0.348,20.282,15.421,27.358,-0.201,0.888,0.031,-32.116,-12.324,34.247
6340.0,-0.242,0.842,-0.666,-8.548,29.096,30.64,-1.079,-0.228,0.0,17.328,3.912,13.146,-0.905,-0.088,-0.139,20.191,0.407,-5.537,-1.208,0.02,-0.305,1.874,14.841,23.656,-0.305,0.836,0.028,-31.876,-17.253,27.973
6360.0,-0.261,0.828,-0.711,-9.326,23.856,23.598,-1.011,-0.18,-0.012,18.189,3.068,10.048,-1.002,-0.08,-0.12,20.508,-9.269,-9.942,-1.348,0.028,-0.283,-26.884,9.32,16.365,-0.309,0.721,0.052,-21.013,-11.745,23.485
6380.0,-0.256,0.876,-0.776,-9.08,21.463,15.757,-1.007,-0.179,0.068,16.705,-16.697,7.285,-1.098,0.074,-0.124,0.558,-32.564,-13.394,-1.325,-0.169,-0.27,-36.801,11.843,14.496,-0.374,0.717,0.099,6.723,-6.283,22.2
6400.0,-0.25,0.969,-0.76,-7.979,21.749,9.429,-0.917,-0.138,0.064,13.925,-14.396,1.925,-0.906,-0.04,-0.127,-10.261,-16.806,-9.449,-1.4,-0.355,-0.217,-12.783,15.254,16.551,-0.389,0.846,0.164,29.921,-1.478,13.902
6420.0,-0.302,1.03,-0.672,-4.775,17.233,5.151,-1.56,-0.077,0.008,7.491,-25.359,1.407,-1.013,-0.131,-0.141,-0.888,-17.974,-10.26,-1.496,-0.502,-0.081,43.847,16.091,25.343,-0.362,0.945,0.176,29.42,9.045,-2.026
6440.0,-0.323,1.036,-0.694,-3.076,7.008,1.628,-1.664,-0.17,-0.01,-10.418,-17.181,1.592,-1.064,-0.028,-0.112,5.67,-10.78,-7.49,-1.519,-0.465,-0.15,95.62,9.1,31.71,-0.377,0.975,0.152,23.775,16.704,-16.331
6460.0,-0.3,1.023,-0.778,-5.575,4.261,-4.757,-1.146,-0.208,-0.032,-17.381,-13.5,6.223,-1.099,0.058,-0.149,-2.52,-25.34,-6.16,-1.404,0.125,-0.205,65.898,1.155,10.693,-0.377,0.963,0.143,12.586,21.335,-29.517
6480.0,-0.286,1.009,-0.785,-0.193,0.958,-12.321,-1.117,-0.565,-0.225,14.341,-11.211,9.588,-1.195,0.0,-0.187,1.741,-25.037,-5.085,-1.452,-0.02,-0.177,31.266,1.182,2.381,-0.366,0.974,0.129,5.17,26.034,-41.083
6500.0,-0.267,0.975,-0.724,5.036,-5.215,-19.254,-1.021,-0.348,-0.11,15.78,-5.071,7.927,-0.967,-0.093,-0.208,0.35,-13.3,-0.84,-1.442,0.001,-0.183,5.497,-4.126,5.269,-0.378,0.931,0.124,3.75,29.405,-53.094
6520.0,-0.257,0.954,-0.688,6.462,-12.038,-28.013,-0.965,-0.162,0.05,14.315,-3.568,8.157,-1.004,-0.147,-0.161,11.583,-12.199,2.151,-1.326,-0.089,-0.231,0.991,-3.746,11.163,-0.424,0.841,0.113,8.155,28.054,-53.063
6540.0,-0.248,0.938,-0.686,7.56,-17.01,-36.19,-0.967,-0.187,0.046,19.581,-4.897,10.899,-0.979,-0.147,-0.118,16.016,-11.622,6.175,-1.248,-0.169,-0.262,-1.563,-3.622,5.028,-0.416,0.786,0.143,26.2,20.201,-51.878
6560.0,-0.268,0.903,-0.705,11.317,-23.136,-43.502,-0.998,-0.163,0.035,11.052,-1.865,11.42,-0.984,-0.092,-0.086,15.48,-13.238,8.015,-1.243,-0.213,-0.307,-5.198,-3.595,-3.752,-0.379,0.741,0.186,39.114,25.779,-51.913
6580.0,-0.271,0.893,-0.729,13.02,-27.3,-50.75,-1.06,-0.168,0.047,1.909,6.367,9.361,-0.975,-0.021,-0.085,8.338,-10.8,10.397,-1.22,-0.16,-0.326,-4.487,-4.614,-5.619,-0.484,0.826,0.138,46.551,35.206,-52.058
6600.0,-0.261,0.886,-0.702,11.712,-29.519,-56.683,-1.031,-0.207,0.0,8.29,-0.875,7.157,-0.973,-0.046,-0.076,-2.562,-5.674,12.116,-1.138,-0.111,-0.318,-3.273,-4.567,-6.442,-0.631,0.848,0.065,45.598,34.666,-53.959
6620.0,-0.3,0.867,-0.649,11.588,-35.56,-60.431,-1.012,-0.183,0.057,5.614,-0.869,13.735,-0.981,-0.091,-0.102,3.353,-2.323,12.175,-1.101,-0.167,-0.261,-0.857,-0.565,-8.176,-0.684,0.797,0.001,32.693,22.629,-61.638
6640.0,-0.346,0.835,-0.637,12.538,-42.037,-65.746,-0.992,-0.178,0.032,-2.114,-1.334,8.065,-1.091,-0.005,-0.097,6.637,-9.954,12.376,-1.112,-0.167,-0.212,-0.893,-0.998,-10.537,-0.682,0.759,-0.061,10.697,8.95,-74.19
6660.0,-0.345,0.821,-0.611,10.01,-44.66,-71.19,-1.052,-0.192,0.002,-2.635,-4.499,7.792,-0.993,0.039,-0.099,-4.129,-8.064,12.802,-1.114,-0.105,-0.218,-10.828,-7.364,-13.741,-0.628,0.674,-0.072,-2.408,5.491,-86.01
6680.0,-0.345,0.799,-0.594,7.442,-47.834,-73.423,-0.944,-0.141,0.056,-7.354,4.106,15.745,-0.971,-0.042,-0.1,-11.461,-9.398,12.896,-1.01,-0.12,-0.269,-14.727,-10.304,-13.761,-0.644,0.631,-0.032,-3.284,7.9,-94.428
6700.0,-0.346,0.771,-0.58,3.781,-50.378,-75.305,-0.965,-0.195,0.026,-0.586,-7.608,18.889,-0.997,-0.097,-0.069,-6.102,-9.554,14.304,-0.963,-0.129,-0.277,-11.639,-8.981,-10.99,-0.735,0.625,0.004,-1.549,8.442,-100.548
6720.0,-0.353,0.754,-0.603,2.31,-51.136,-77.177,-1.035,-0.154,0.011,7.614,-10.945,19.512,-0.954,-0.054,-0.103,4.8,-5.102,14.543,-0.971,-0.122,-0.288,-10.349,-8.396,-10.229,-0.769,0.623,-0.06,-2.855,1.855,-105.459
6740.0,-0.395,0.746,-0.577,0.922,-51.702,-77.522,-1.006,-0.104,0.029,5.904,-12.718,17.723,-0.982,0.057,-0.082,-2.836,-8.128,13.737,-1.0,-0.129,-0.298,-16.229,-15.423,-13.438,-0.726,0.572,-0.088,-8.338,0.587,-107.045
6760.0,-0.443,0.719,-0.547,0.428,-56.164,-78.032,-1.023,-0.048,0.025,-7.42,-10.99,9.73,-0.961,0.078,-0.046,-15.268,-1.59,15.217,-0.963,-0.151,-0.284,-18.577,-17.875,-13.744,-0.739,0.556,-0.08,-11.001,3.897,-105.182
6780.0,-0.462,0.68,-0.57,-2.629,-58.796,-80.411,-0.991,-0.145,0.04,-11.269,-6.837,5.501,-1.03,0.036,-0.068,-22.155,-3.353,15.057,-0.955,-0.152,-0.293,-13.55,-15.405,-8.886,-0.819,0.561,-0.057,-11.88,5.07,-101.261
6800.0,-0.493,0.672,-0.561,-4.221,-58.174,-82.661,-1.086,-0.166,0.054,-2.128,-14.796,7.075,-1.1,-0.027,-0.1,-15.719,-9.526,14.357,-0.995,-0.096,-0.32,-9.368,-13.976,-7.884,-0.866,0.482,-0.067,-10.398,4.487,-98.275
6820.0,-0.519,0.677,-0.544,-4.857,-60.189,-81.593,-1.002,-0.142,0.056,2.271,-9.651,7.928,-0.989,0.003,-0.092,-7.766,-12.996,12.681,-1.024,-0.082,-0.335,-12.82,-18.763,-8.062,-0.869,0.414,-0.091,-4.847,2.631,-93.911
6840.0,-0.562,0.695,-0.527,-6.581,-62.623,-79.929,-1.029,-0.136,0.055,3.858,-13.513,12.36,-0.981,0.081,-0.072,-12.539,-12.702,12.812,-0.927,-0.081,-0.29,-21.956,-26.769,-4.249,-0.862,0.369,-0.096,3.881,4.143,-90.514
6860.0,-0.569,0.667,-0.495,-9.078,-63.167,-79.424,-1.002,-0.121,0.056,7.19,-13.859,14.273,-1.003,0.074,-0.092,-23.887,-11.778,11.827,-0.865,-0.025,-0.27,-32.043,-25.145,1.397,-0.906,0.379,-0.083,15.744,6.595,-87.512
6880.0,-0.569,0.606,-0.474,-10.876,-63.342,-79.277,-1.003,-0.103,0.076,6.151,-13.737,11.829,-0.999,0.027,-0.047,-24.927,-8.938,11.922,-0.917,-0.007,-0.347,-41.16,-21.56,5.04,-0.958,0.449,-0.092,23.52,5.11,-87.92
6900.0,-0.588,0.557,-0.451,-13.525,-62.216,-78.575,-1.018,-0.102,0.056,1.387,-11.544,7.839,-0.994,0.022,-0.04,-19.909,-9.606,11.916,-0.935,-0.026,-0.336,-52.35,-28.413,6.868,-0.924,0.526,-0.097,13.955,-0.2,-95.077
6920.0,-0.611,0.536,-0.432,-16.822,-61.851,-78.366,-1.017,-0.106,0.061,5.4,-14.169,9.077,-0.995,0.014,-0.056,-17.194,-8.886,12.254,-0.83,-0.035,-0.273,-66.57,-35.07,9.52,-0.919,0.467,-0.09,-1.457,2.088,-99.593
6940.0,-0.638,0.536,-0.431,-17.288,-62.931,-78.987,-1.017,-0.122,0.065,7.716,-14.119,7.825,-1.003,0.012,-0.061,-13.148,-8.475,12.489,-0.846,-0.005,-0.269,-74.97,-31.922,6.881,-0.93,0.379,-0.062,-13.16,5.25,-95.13
6960.0,-0.667,0.524,-0.411,-15.93,-62.736,-78.617,-1.051,-0.132,0.104,2.172,-13.444,1.552,-0.987,0.027,-0.066,-8.01,-8.324,12.178,-0.902,-0.081,-0.288,-74.97,-32.376,11.224,-0.999,0.36,-0.021,-9.204,12.501,-87.313
6980.0,-0.693,0.501,-0.375,-14.719,-60.129,-78.21,-0.965,-0.134,0.07,13.359,-8.994,2.919,-0.993,0.045,-0.06,-7.749,-8.472,12.178,-0.899,-0.096,-0.268,-63.395,-30.549,12.119,-1.077,0.336,-0.074,-3.208,6.605,-81.715
7000.0,-0.738,0.492,-0.348,-12.07,-59.312,-77.789,-0.942,-0.065,0.094,9.43,1.956,-13.422,-1.025,0.073,-0.036,-7.757,-9.062,12.719,-0.884,-0.053,-0.251,-57.503,-28.289,13.507,-1.031,0.307,-0.097,0.428,1.887,-77.047
7020.0,-0.768,0.482,-0.348,-11.415,-59.199,-77.08,-1.414,0.122,0.275,24.36,46.475,-2.137,-1.004,0.11,-0.06,-8.337,-8.452,12.827,-0.9,-0.099,-0.26,-54.818,-29.155,10.243,-1.018,0.285,-0.101,2.146,-1.349,-72.257
7040.0,-0.793,0.463,-0.341,-14.308,-58.847,-76.197,-0.886,-0.092,0.07,1.43,31.695,8.02,-1.003,0.074,-0.048,-10.677,-8.623,10.975,-0.878,-0.206,-0.252,-41.857,-29.183,10.737,-0.987,0.284,-0.071,-0.988,0.202,-73.148
7060.0,-0.807,0.457,-0.33,-17.499,-57.921,-75.225,-0.828,-0.169,0.025,-1.778,5.762,7.592,-1.014,0.043,-0.035,-4.502,-8.724,10.302,-0.791,-0.178,-0.19,-15.706,-25.797,11.075,-1.024,0.212,-0.042,-1.669,5.813,-73.288
7080.0,-0.808,0.452,-0.318,-17.241,-56.3,-72.871,-0.991,-0.122,0.072,0.428,-0.349,6.632,-1.02,0.056,-0.077,0.46,-11.359,11.279,-0.79,-0.042,-0.189,-2.514,-16.886,8.61,-1.093,0.207,-0.059,7.291,1.88,-67.897
7100.0,-0.802,0.435,-0.294,-16.94,-53.615,-70.167,-1.029,-0.142,0.059,6.258,-4.844,7.02,-1.017,0.107,-0.056,-2.97,-10.264,11.937,-0.881,-0.021,-0.228,-4.698,-14.065,3.324,-1.052,0.252,-0.059,13.01,-0.364,-65.983
7120.0,-0.797,0.404,-0.263,-17.145,-51.723,-68.67,-1.016,-0.13,0.054,11.897,-6.005,8.804,-1.007,0.125,-0.045,-9.297,-12.91,11.262,-0.898,-0.009,-0.22,-16.375,-21.053,-1.028,-1.036,0.258,-0.082,7.961,1.423,-66.071
7140.0,-0.812,0.38,-0.239,-18.908,-50.92,-67.975,-0.992,-0.085,0.06,10.301,-5.098,8.662,-1.002,0.077,-0.05,-11.389,-12.823,10.788,-0.852,-0.007,-0.146,-30.644,-28.265,-1.82,-1.041,0.241,-0.08,2.879,6.024,-62.764
7160.0,-0.834,0.379,-0.23,-21.612,-50.382,-66.418,-0.998,-0.099,0.052,4.655,-5.072,6.082,-1.012,0.059,-0.033,-5.703,-12.542,10.171,-0.797,-0.018,-0.114,-38.822,-27.189,-1.785,-1.055,0.247,-0.09,-1.952,5.259,-58.713
7180.0,-0.844,0.377,-0.222,-22.692,-50.03,-62.344,-1.025,-0.088,0.058,4.716,-5.678,6.701,-0.998,0.106,-0.004,0.065,-13.815,9.882,-0.821,-0.067,-0.166,-37.325,-22.68,-1.33,-1.031,0.235,-0.073,-3.975,5.25,-54.792
7200.0,-0.841,0.345,-0.193,-21.028,-48.746,-57.809,-1.016,-0.117,0.06,5.482,-4.387,4.095,-0.973,0.117,-0.051,1.15,-14.394,8.566,-0.853,-0.113,-0.185,-20.977,-21.038,1.009,-0.995,0.216,-0.101,-5.255,6.783,-52.5
7220.0,-0.845,0.323,-0.187,-19.282,-47.453,-53.333,-1.038,-0.08,0.08,5.974,-5.079,3.114,-1.026,0.158,-0.019,-6.223,-12.838,8.672,-0.843,-0.093,-0.151,-6.405,-19.476,3.059,-0.993,0.184,-0.127,-6.468,12.107,-50.565
7240.0,-0.876,0.291,-0.189,-17.728,-44.743,-50.638,-0.97,-0.051,0.079,5.441,-2.287,4.009,-1.012,0.118,-0.006,-11.058,-16.918,6.294,-0.827,-0.034,-0.116,-3.19,-17.772,3.188,-1.066,0.181,-0.16,-5.38,16.306,-43.703
7260.0,-0.887,0.268,-0.174,-17.152,-42.938,-48.661,-1.001,-0.048,0.099,-2.774,-2.946,2.562,-0.969,0.122,-0.019,-10.357,-13.939,5.031,-0.834,-0.009,-0.111,-7.758,-16.953,0.633,-1.086,0.174,-0.153,-4.235,9.0,-37.281
7280.0,-0.885,0.232,-0.171,-16.307,-40.344,-45.927,-1.019,-0.102,0.06,-5.244,-3.088,0.016,-1.008,0.136,-0.02,-7.282,-14.942,3.009,-0.855,0.007,-0.117,-14.684,-14.894,-1.47,-1.057,0.147,-0.133,-2.066,9.46,-31.48
7300.0,-0.903,0.205,-0.147,-14.363,-31.65,-43.347,-1.01,-0.106,0.07,0.73,-0.34,-0.384,-0.977,0.162,0.028,-7.526,-10.844,0.728,-0.909,0.007,-0.118,-20.149,-14.484,-5.558,-1.067,0.108,-0.105,2.099,9.801,-24.537
7320.0,-0.93,0.19,-0.133,-11.859,-21.581,-41.593,-1.01,-0.087,0.075,0.0,1.33,-4.9,-0.995,0.14,0.049,-11.608,-10.44,-2.023,-0.922,-0.07,-0.116,-21.441,-15.522,-6.803,-1.048,0.087,-0.061,7.281,7.018,-17.975
7340.0,-0.932,0.184,-0.109,-11.41,-30.165,-40.087,-1.006,-0.05,0.082,-1.888,0.816,-3.197,-0.979,0.058,0.03,3.027,-3.919,-3.891,-0.885,-0.119,-0.109,-11.576,-14.546,-3.293,-1.049,0.073,-0.057,13.819,10.378,-13.633
7360.0,-0.925,0.172,-0.095,-11.312,-29.272,-36.826,-1.034,-0.112,0.063,1.655,-2.862,0.765,-0.964,0.15,0.039,8.592,-1.129,-3.434,-0.856,-0.089,-0.075,-3.366,-12.027,0.996,-1.084,0.062,-0.082,15.408,10.14,-9.902
7380.0,-0.914,0.159,-0.098,-11.018,-28.52,-33.188,-0.993,-0.117,0.093,3.3,-2.59,0.351,-0.987,0.141,0.018,5.211,2.849,-4.959,-0.854,-0.054,-0.058,-1.195,-7.089,2.342,-1.107,0.052,-0.1,15.379,7.259,-6.086
7400.0,-0.911,0.16,-0.077,-13.998,-25.734,-30.443,-0.992,-0.099,0.068,0.77,-2.59,-0.7,-0.989,0.151,0.008,-2.097,2.597,-4.492,-0.91,-0.071,-0.074,-3.328,-6.361,2.134,-1.118,0.066,-0.112,14.413,2.308,-1.373
7420.0,-0.957,0.159,-0.068,-16.083,-23.94,-27.396,-1.019,-0.107,0.049,5.151,-5.302,-0.491,-0.976,0.11,-0.009,-1.938,4.017,-4.935,-0.951,-0.079,-0.08,-6.058,-7.49,0.739,-1.114,0.132,-0.121,7.898,-5.084,-1.173
7440.0,-1.003,0.171,-0.037,-15.548,-21.631,-24.425,-0.998,-0.086,0.091,5.037,-2.624,-1.625,-0.972,0.116,-0.016,-1.321,4.769,-5.111,-0.973,-0.049,-0.047,-12.358,-7.922,-1.662,-1.077,0.142,-0.121,-6.716,-10.047,-6.926
7460.0,-1.035,0.152,0.012,-10.85,-22.05,-21.63,-1.005,-0.031,0.085,-2.396,-1.643,-5.712,-1.024,0.094,-0.001,2.453,3.933,-5.967,-0.975,-0.049,-0.019,-19.883,-10.185,-5.034,-1.036,0.088,-0.12,-19.978,-10.259,-13.64
7480.0,-1.02,0.115,-0.005,-9.526,-26.174,-19.652,-1.017,-0.053,0.069,-9.465,-2.18,-7.327,-1.041,0.12,-0.04,4.978,1.02,-5.805,-0.977,-0.109,-0.005,-20.243,-10.88,-6.342,-1.031,0.021,-0.123,-24.944,-8.395,-16.599
7500.0,-0.959,0.082,-0.063,-10.29,-24.53,-19.439,-1.016,-0.1,0.072,-8.795,-1.203,-6.356,-1.031,0.162,-0.032,0.258,-2.836,-5.414,-0.943,-0.138,-0.014,-11.681,-10.99,-5.311,-1.059,-0.011,-0.108,-24.026,-8.115,-16.695
7520.0,-0.941,0.087,-0.061,-10.22,-21.21,-18.27,-1.008,-0.119,0.089,-6.62,0.06,-6.33,-0.994,0.135,-0.035,-7.887,-3.226,-5.259,-0.904,-0.127,-0.026,-2.573,-7.592,-3.614,-1.052,-0.01,-0.118,-18.539,-12.644,-14.589
7540.0,-0.946,0.098,-0.036,-9.569,-17.938,-16.521,-1.008,-0.123,0.09,-6.075,0.749,-6.569,-0.99,0.066,-0.023,-3.329,-3.346,-5.41,-0.921,-0.072,-0.017,-0.346,-5.418,-2.182,-1.016,0.008,-0.144,-17.22,-12.353,-16.802
7560.0,-0.956,0.106,-0.011,-9.57,-13.658,-14.846,-1.007,-0.113,0.078,-6.701,0.874,-5.414,-0.986,0.057,-0.002,4.876,-2.434,-5.392,-0.989,-0.072,-0.017,-4.999,-6.377,-2.307,-1.013,-0.005,-0.168,-21.66,-11.8,-19.035
7580.0,-0.97,0.1,0.017,-11.262,-12.349,-13.598,-1.025,-0.118,0.063,-9.107,-0.302,-3.701,-0.989,0.058,-0.001,10.376,-1.202,-4.87,-1.036,-0.12,-0.031,-6.157,-9.322,-1.506,-1.01,-0.036,-0.163,-25.075,-11.485,-19.387
7600.0,-0.976,0.081,0.005,-13.872,-12.451,-12.673,-1.005,-0.104,0.065,-8.171,-1.415,-1.627,-0.993,0.11,-0.01,9.025,-1.407,-3.365,-1.004,-0.132,-0.034,-1.963,-12.097,1.967,-1.021,-0.062,-0.116,-24.57,-12.32,-18.83
7620.0,-0.969,0.079,0.009,-14.13,-11.827,-11.605,-0.995,-0.126,0.061,-4.709,-2.315,-1.522,-0.983,0.162,-0.009,-5.495,-0.935,-2.793,-0.954,-0.068,-0.021,-1.884,-11.623,2.533,-0.986,-0.054,-0.108,-24.581,-13.914,-19.364
7640.0,-0.976,0.068,0.019,-13.787,-10.435,-10.431,-1.006,-0.128,0.06,3.589,-4.862,-0.84,-0.995,0.11,-0.018,-11.974,-0.328,-3.017,-0.958,-0.018,-0.015,-10.277,-11.13,-0.621,-0.96,-0.029,-0.144,-28.061,-10.435,-21.287
7660.0,-0.998,0.054,0.035,-12.345,-8.695,-9.81,-1.033,-0.128,0.067,5.75,-6.832,0.215,-1.013,0.071,-0.027,-9.71,-0.933,-2.816,-0.994,-0.038,-0.015,-23.298,-11.778,-4.521,-0.974,-0.035,-0.183,-36.447,-9.391,-24.198
7680.0,-1.0,0.053,0.041,-13.025,-6.45,-10.158,-1.001,-0.126,0.071,3.508,-4.258,0.086,-1.005,0.08,-0.023,-1.295,-2.06,-1.88,-1.003,-0.092,-0.024,-26.69,-12.784,-6.168,-0.979,-0.065,-0.186,-42.369,-10.148,-26.142
7700.0,-0.978,0.061,0.025,-15.113,-4.671,-11.714,-0.995,-0.116,0.074,0.825,-3.526,-0.1,-0.992,0.109,-0.016,0.934,-1.73,-1.798,-0.981,-0.112,-0.027,-25.639,-12.305,-7.348,-0.966,-0.117,-0.174,-42.876,-8.02,-25.488
7720.0,-0.972,0.064,0.02,-15.907,-2.812,-11.782,-1.002,-0.117,0.072,0.261,-2.685,-0.19,-1.011,0.113,-0.02,0.278,-1.162,-2.06,-0.961,-0.114,-0.015,-19.228,-9.72,-8.466,-0.969,-0.165,-0.148,-35.048,-2.565,-22.205
7740.0,-0.982,0.059,0.026,-15.672,-1.164,-10.763,-1.008,-0.116,0.071,-0.012,-2.07,-0.089,-1.018,0.122,-0.023,-1.244,-1.907,-1.532,-0.965,-0.094,-0.007,-15.431,-9.26,-10.356,-1.003,-0.196,-0.106,-18.782,-0.22,-15.368
7760.0,-0.989,0.044,0.033,-15.258,0.749,-9.264,-1.013,-0.108,0.076,-1.338,-1.862,-0.151,-1.004,0.13,-0.008,-8.443,-2.385,-0.475,-0.967,-0.089,-0.012,-14.715,-11.339,-12.321,-1.037,-0.168,-0.112,-3.105,4.913,-10.177
7780.0,-0.987,0.044,0.028,-16.281,2.666,-7.92,-1.011,-0.103,0.08,-4.219,-0.553,-1.223,-0.987,0.122,-0.007,-15.599,-1.265,-0.324,-0.933,-0.094,-0.02,-14.35,-12.298,-13.081,-1.089,-0.137,-0.126,8.153,6.368,-8.545
7800.0,-0.982,0.065,0.012,-15.622,4.324,-6.524,-1.009,-0.09,0.085,-8.185,1.019,-3.2,-0.998,0.092,-0.015,-15.279,-1.174,-0.884,-0.888,-0.099,-0.007,-14.676,-12.049,-13.494,-1.096,-0.102,-0.136,11.297,5.712,-8.839
7820.0,-0.975,0.07,0.002,-14.923,5.03,-4.238,-1.027,-0.1,0.079,-15.389,0.757,-3.499,-1.042,0.028,-0.016,-4.153,-2.587,-1.773,-0.876,-0.114,0.009,-15.783,-11.79,-14.033,-1.111,-0.078,-0.146,11.817,8.449,-8.32
7840.0,-0.971,0.051,0.004,-15.303,5.679,-0.389,-1.042,-0.144,0.059,-18.221,0.092,-0.914,-1.075,0.097,-0.019,0.954,-1.703,-0.894,-0.891,-0.128,0.005,-14.814,-11.456,-12.394,-1.224,-0.08,-0.115,13.614,11.123,-6.193
7860.0,-0.974,0.034,0.029,-16.898,8.644,3.346,-1.012,-0.149,0.055,-9.082,0.929,0.639,-0.996,0.123,-0.01,-3.356,-2.609,-0.888,-0.843,-0.147,-0.015,-11.204,-13.341,-10.906,-1.317,-0.074,-0.106,21.736,4.701,0.856
7880.0,-0.974,0.034,0.044,-17.057,8.954,8.662,-1.051,-0.166,0.069,-7.576,0.539,-0.3,-0.988,0.104,-0.015,-8.704,-1.496,-0.61,-0.767,-0.165,-0.032,-4.02,-11.232,-8.706,-1.286,-0.022,-0.12,29.696,-5.27,6.388
7900.0,-0.936,0.034,0.026,-12.993,9.386,16.486,-1.024,-0.13,0.066,-6.639,1.518,1.083,-0.981,0.083,-0.028,-6.11,-0.821,-0.542,-0.718,-0.177,-0.045,2.988,-4.365,-5.712,-1.167,0.095,-0.122,27.317,-7.525,7.906
7920.0,-0.904,0.015,-0.003,-6.373,13.117,25.743,-1.016,-0.11,0.064,-8.776,2.422,1.104,-0.998,0.098,-0.022,-2.045,-0.631,-0.49,-0.696,-0.193,-0.051,15.49,2.267,-2.394,-1.128,0.137,-0.096,15.351,-5.025,9.719
7940.0,-0.897,-0.006,-0.012,-1.654,17.895,35.873,-1.014,-0.137,0.04,-10.29,0.7,0.91,-0.879,0.121,-0.007,-3.89,-0.675,-0.671,-0.716,-0.172,-0.05,23.338,6.556,-1.363,-1.148,0.125,-0.081,4.758,-2.891,14.975
7960.0,-0.891,-0.007,-0.013,1.808,23.027,44.592,-1.004,-0.139,0.049,-3.15,-0.49,1.33,-1.015,0.083,-0.02,-1.748,0.271,-1.883,-0.724,-0.125,-0.055,24.542,8.239,-1.777,-1.184,0.106,-0.087,2.675,-3.826,25.002
7980.0,-0.885,0.029,-0.013,4.883,30.158,51.923,-1.006,-0.109,0.037,-1.363,-2.872,0.261,-1.042,0.134,-0.044,1.802,-1.883,-3.304,-0.728,-0.099,-0.067,19.016,11.536,-2.798,-1.17,0.139,-0.1,3.966,-6.531,36.975
8000.0,-0.886,0.055,-0.005,7.81,36.125,60.024,-1.005,-0.132,0.028,0.533,-4.847,-0.347,-1.001,0.142,-0.038,-0.684,-4.83,-5.277,-0.727,-0.125,-0.07,14.62,16.408,-4.766,-1.108,0.204,-0.086,3.051,-8.582,50.568
8020.0,-0.918,0.063,0.005,11.166,37.979,67.59,-1.009,-0.123,0.052,3.659,-7.244,-0.213,-0.998,0.096,-0.032,2.001,-4.738,-6.84,-0.76,-0.156,-0.074,16.31,23.59,-5.67,-1.071,0.228,-0.039,0.335,-6.577,67.722
8040.0,-0.935,0.072,-0.01,14.883,37.919,73.068,-1.017,-0.102,0.064,-0.349,-5.636,-1.544,-0.997,0.112,-0.036,3.145,-4.388,-6.163,-0.817,-0.132,-0.089,15.542,24.838,-6.691,-1.092,0.208,-0.024,-0.272,-2.887,83.659
8060.0,-0.936,0.117,-0.026,17.483,37.408,77.603,-0.997,-0.111,0.059,-3.797,-2.239,-2.526,-1.017,0.093,-0.022,2.611,-6.742,-6.404,-0.862,-0.094,-0.095,10.073,23.053,-7.61,-1.149,0.175,-0.07,0.669,-3.363,98.378
8080.0,-0.937,0.203,-0.049,19.979,34.123,80.803,-0.995,-0.122,0.064,-3.264,-4.175,-5.177,-1.027,0.122,-0.008,-0.586,-6.79,-7.096,-0.863,-0.102,-0.09,4.855,21.427,-9.022,-1.134,0.172,-0.125,2.392,-9.495,113.138
8100.0,-0.921,0.237,-0.106,20.847,33.178,84.332,-1.005,-0.12,0.062,0.194,-5.236,-7.755,-1.005,0.216,-0.034,-4.62,-8.75,-9.45,-0.823,-0.177,-0.098,9.953,22.319,-8.139,-1.086,0.233,-0.134,-2.823,-11.281,123.209
8120.0,-0.869,0.237,-0.163,20.511,36.53,88.252,-0.996,-0.11,0.089,0.166,-2.874,-11.437,-1.018,0.09,-0.035,-6.968,-4.99,-12.411,-0.81,-0.198,-0.113,25.71,26.337,-4.187,-1.117,0.228,-0.109,-7.32,-11.356,128.224
8140.0,-0.854,0.247,-0.171,20.809,39.802,92.231,-1.039,-0.162,0.062,-7.707,-1.438,-14.198,-0.975,0.014,-0.016,5.646,-6.805,-12.403,-0.866,-0.143,-0.119,39.559,27.082,1.352,-1.199,0.229,-0.106,-9.599,-14.028,131.606
8160.0,-0.856,0.309,-0.181,26.83,44.751,93.954,-0.995,-0.171,0.04,-4.851,-0.912,-11.291,-0.981,0.046,0.031,7.625,-1.368,-8.987,-0.906,-0.115,-0.121,43.718,26.098,5.753,-1.192,0.283,-0.117,-12.849,-21.632,131.378
8180.0,-0.841,0.371,-0.184,32.636,45.928,94.359,-1.02,-0.127,0.072,-8.373,-2.526,-13.04,-1.017,0.101,0.037,1.137,2.326,-7.788,-0.907,-0.101,-0.134,45.82,22.4,9.239,-1.099,0.305,-0.1,-22.5,-24.053,129.963
8200.0,-0.806,0.374,-0.203,35.408,44.738,94.015,-0.993,-0.081,0.115,-8.561,2.362,-17.871,-0.986,0.15,0.107,-11.005,5.404,-10.814,-0.847,-0.075,-0.16,43.042,18.009,12.347,-1.053,0.293,-0.062,-29.546,-22.126,130.68
8220.0,-0.732,0.383,-0.258,34.908,49.115,94.277,-0.917,-0.162,0.068,-19.19,13.082,-16.24,-0.958,0.119,0.002,-10.901,10.396,-14.946,-0.821,-0.06,-0.166,37.365,18.166,13.96,-1.083,0.244,-0.045,-29.89,-17.08,135.52
8240.0,-0.716,0.431,-0.262,33.531,53.33,95.84,-0.963,-0.195,0.053,-13.9,11.512,-14.468,-1.003,0.041,-0.022,-0.074,10.537,-17.408,-0.883,-0.08,-0.16,27.961,17.103,13.124,-1.148,0.246,-0.097,-23.38,-22.4,141.19
8260.0,-0.778,0.518,-0.263,33.606,53.616,97.083,-0.965,-0.207,0.067,-5.448,9.632,-13.968,-1.007,-0.013,-0.034,23.288,12.895,-18.307,-0.945,-0.161,-0.169,27.722,13.607,12.516,-1.057,0.302,-0.115,-22.82,-36.82,141.05
8280.0,-0.78,0.574,-0.247,33.868,52.354,96.326,-0.974,-0.17,0.08,-9.46,10.931,-16.122,-1.037,0.072,-0.042,29.594,12.906,-17.887,-0.922,-0.198,-0.212,43.814,12.451,13.933,-0.93,0.369,-0.078,-31.077,-39.598,136.711
8300.0,-0.732,0.598,-0.25,34.209,49.019,96.622,-0.992,-0.179,0.058,-1.348,7.698,-14.442,-1.042,0.142,-0.048,20.283,8.59,-17.738,-0.814,-0.143,-0.23,57.849,14.497,14.936,-0.883,0.357,-0.031,-41.51,-37.24,128.87
8320.0,-0.657,0.56,-0.354,33.298,48.42,97.504,-1.017,-0.196,0.014,0.972,7.05,-13.418,-0.967,0.141,-0.069,4.642,8.69,-18.262,-0.821,-0.004,-0.205,49.508,15.125,9.077,-0.891,0.308,-0.009,-41.646,-33.541,124.417
8340.0,-0.606,0.552,-0.389,30.73,51.915,97.012,-1.012,-0.188,0.025,-0.995,7.459,-13.438,-0.95,0.116,-0.071,-1.581,10.318,-18.693,-0.936,0.04,-0.192,11.903,6.732,-1.188,-0.897,0.299,-0.005,-34.167,-38.572,122.762
8360.0,-0.577,0.584,-0.388,30.314,58.21,95.479,-0.926,-0.154,0.03,-1.755,4.748,-12.385,-0.94,-0.02,-0.052,1.289,9.648,-20.078,-0.946,-0.121,-0.219,-0.141,-0.064,-6.253,-0.808,0.397,0.005,-33.465,-49.49,120.079
8380.0,-0.574,0.645,-0.272,31.263,58.795,94.172,-0.952,-0.179,0.024,-2.38,-4.606,-10.034,-0.921,-0.088,-0.04,15.623,17.014,-20.357,-0.877,-0.209,-0.268,7.28,-0.825,-5.791,-0.698,0.421,0.058,-41.388,-54.902,113.727
8400.0,-0.567,0.651,-0.276,31.29,53.2,96.11,-1.018,-0.244,0.036,-6.755,-5.915,-10.395,-1.003,-0.068,0.011,23.757,19.479,-19.631,-0.82,-0.215,-0.27,26.69,6.225,0.059,-0.616,0.396,0.08,-50.962,-52.087,107.809
8420.0,-0.53,0.601,-0.327,26.422,49.119,95.351,-1.004,-0.249,0.038,-11.436,-3.889,-10.753,-1.01,-0.005,0.015,26.354,21.203,-19.952,-0.863,-0.181,-0.247,42.552,15.59,2.997,-0.577,0.384,0.055,-55.62,-50.442,102.136
8440.0,-0.517,0.586,-0.37,17.822,50.498,90.996,-1.033,-0.243,0.034,-12.237,-4.22,-11.021,-0.962,0.044,-0.045,25.317,25.201,-22.587,-1.016,-0.153,-0.244,49.869,14.607,2.349,-0.546,0.407,0.038,-58.483,-55.669,95.772
8460.0,-0.533,0.6,-0.35,13.816,48.635,85.3,-1.017,-0.235,0.031,-14.575,4.256,-19.532,-1.082,-0.039,-0.043,33.653,20.289,-31.029,-0.947,-0.156,-0.318,58.87,15.96,3.29,-0.514,0.4,0.089,-57.144,-55.092,87.96
8480.0,-0.492,0.636,-0.474,14.268,47.503,80.618,-0.968,-0.311,0.008,-0.824,-2.02,-7.895,-1.109,0.012,-0.119,39.608,10.841,-32.91,-0.887,-0.07,-0.332,60.83,23.03,5.39,-0.573,0.352,0.156,-46.243,-50.621,83.012
8500.0,-0.429,0.687,-0.552,15.556,49.981,78.363,-1.073,-0.25,0.024,1.284,-0.757,-5.731,-1.001,0.109,-0.219,30.969,11.972,-28.305,-0.953,0.07,-0.263,30.1,21.07,-2.8,-0.605,0.36,0.184,-26.25,-51.01,79.452
8520.0,-0.419,0.787,-0.566,17.743,53.138,78.64,-1.024,-0.211,0.063,1.441,-2.628,-4.203,-0.972,-0.023,-0.168,20.15,15.852,-26.47,-1.114,-0.065,-0.244,-4.784,16.964,-12.109,-0.571,0.484,0.177,-5.78,-52.499,72.756
8540.0,-0.439,0.892,-0.543,19.913,51.601,80.237,-0.985,-0.227,-0.002,-5.226,0.086,-9.099,-0.923,-0.135,-0.174,20.715,13.453,-23.928,-1.169,-0.219,-0.271,-8.333,5.004,-11.84,-0.45,0.592,0.212,9.211,-58.187,63.551
8560.0,-0.432,0.963,-0.525,19.256,46.734,80.971,-1.037,-0.216,0.026,4.617,-7.218,-4.985,-0.996,-0.142,-0.192,31.841,2.189,-20.845,-1.119,-0.197,-0.282,2.96,5.782,-7.514,-0.341,0.628,0.357,32.203,-50.605,58.562
8580.0,-0.342,0.95,-0.555,9.599,45.291,80.724,-1.014,-0.279,-0.005,2.522,-4.656,-5.248,-1.116,-0.092,-0.079,34.391,-7.542,-16.977,-1.219,-0.191,-0.307,18.434,13.118,5.814,-0.354,0.685,0.421,60.094,-23.856,56.631
8600.0,-0.324,0.938,-0.6,4.176,46.264,79.751,-0.987,-0.335,0.022,9.425,-6.774,1.345,-1.01,-0.045,-0.018,28.612,3.276,-13.25,-1.412,-0.157,-0.383,39.51,14.091,12.92,-0.472,0.799,0.395,71.557,-16.629,55.51
8620.0,-0.39,0.98,-0.626,6.366,44.831,78.209,-0.935,-0.34,0.052,17.024,-9.815,11.314,-0.843,0.035,-0.031,8.181,-6.694,-11.126,-1.39,-0.073,-0.373,46.394,20.231,20.313,-0.48,0.936,0.363,71.717,-27.756,52.465
8640.0,-0.43,1.025,-0.651,15.181,35.435,75.305,-0.985,-0.368,0.04,28.0,-17.57,25.69,-0.777,-0.095,-0.262,16.262,-11.401,-8.483,-1.389,0.027,-0.373,34.561,27.865,25.823,-0.297,1.086,0.382,52.433,-38.31,41.508
8660.0,-0.367,1.024,-0.645,15.703,29.36,69.619,-0.69,-0.396,0.0,37.8,8.19,30.03,-0.984,-0.035,-0.162,22.025,-13.642,-4.64,-1.456,0.045,-0.397,8.639,34.156,24.175,-0.121,1.082,0.385,34.201,-36.076,26.253
8680.0,-0.359,1.01,-0.648,14.557,24.641,59.629,-1.218,-0.157,0.061,21.14,-0.91,30.24,-1.004,-0.084,-0.086,13.3,-3.85,-5.88,-1.507,-0.058,-0.483,6.06,30.144,23.9,-0.068,1.055,0.34,30.572,-15.085,16.531
8700.0,-0.36,0.997,-0.676,13.829,21.931,45.998,-0.992,-0.212,-0.012,16.184,-2.379,20.992,-0.966,-0.13,-0.043,9.73,4.48,-3.71,-1.479,-0.137,-0.43,27.064,29.365,34.067,-0.186,1.162,0.295,20.73,-16.577,5.434
8720.0,-0.331,0.968,-0.698,16.366,18.166,32.879,-0.936,-0.207,0.033,20.073,-1.901,15.031,-0.937,-0.144,-0.131,21.0,-1.61,0.49,-1.514,-0.254,-0.138,50.33,27.806,40.807,-0.197,1.153,0.264,-0.312,-22.467,-9.158
8740.0,-0.313,0.988,-0.725,17.861,11.557,22.057,-1.018,-0.169,0.049,27.244,0.679,9.734,-0.989,-0.06,-0.165,24.01,-8.89,-0.98,-1.597,-0.569,0.133,88.222,14.394,44.571,-0.177,1.056,0.224,-10.728,-23.923,-19.386
8760.0,-0.303,1.053,-0.728,16.006,4.743,11.701,-0.962,-0.195,0.061,17.696,-1.563,10.259,-1.025,-0.036,-0.097,9.88,-5.765,-0.472,-1.556,-0.462,0.182,125.215,3.759,44.861,-0.148,0.982,0.194,-8.201,-24.17,-27.721
8780.0,-0.302,1.159,-0.671,12.357,0.294,1.231,-0.967,-0.191,-0.014,36.387,-19.955,26.542,-1.01,-0.114,-0.121,6.798,-1.216,2.276,-1.423,0.254,-0.041,59.754,-0.795,2.291,-0.119,0.939,0.234,-5.83,-15.259,-44.419
8800.0,-0.319,1.141,-0.737,10.393,-7.641,-7.129,-1.114,0.053,0.15,0.917,0.103,14.897,-1.0,-0.154,-0.074,7.691,-2.291,5.288,-1.452,0.151,-0.124,7.661,-2.414,-10.406,-0.18,0.815,0.273,0.498,5.757,-52.313
8820.0,-0.278,1.096,-0.759,11.044,-8.026,-14.075,-0.979,-0.13,0.018,-6.231,-4.707,9.173,-0.992,-0.044,-0.064,12.895,-5.951,4.559,-1.593,0.111,-0.195,-17.313,-10.74,-12.356,-0.355,0.78,0.242,11.224,12.693,-54.611
8840.0,-0.265,1.001,-0.691,11.374,-12.426,-20.961,-1.034,-0.332,-0.027,21.512,-6.281,6.704,-1.036,-0.042,-0.126,2.733,-6.001,3.04,-1.408,-0.026,-0.341,-28.28,-20.44,-14.28,-0.388,0.792,0.202,16.198,6.897,-59.266
8860.0,-0.278,0.936,-0.655,9.705,-19.392,-30.793,-0.962,-0.211,0.037,39.094,-3.919,3.253,-0.999,-0.086,-0.135,-2.457,-4.04,4.421,-1.189,-0.167,-0.312,-19.152,-15.817,-12.06,-0.277,0.784,0.218,16.898,7.919,-70.459
8880.0,-0.306,0.887,-0.657,9.004,-23.755,-43.22,-0.981,-0.109,0.157,30.198,-6.905,1.546,-0.993,-0.107,-0.107,1.441,-5.111,4.596,-1.111,-0.199,-0.306,2.256,-3.031,-3.878,-0.252,0.706,0.134,16.161,26.716,-77.61
8900.0,-0.312,0.866,-0.648,11.15,-25.728,-54.412,-0.925,0.024,0.129,8.526,-6.026,14.841,-0.997,-0.088,-0.093,3.818,-6.707,4.67,-1.206,-0.017,-0.288,14.402,5.65,-1.954,-0.403,0.632,0.1,18.286,32.846,-81.724
8920.0,-0.351,0.875,-0.619,13.421,-31.778,-62.409,-0.972,-0.016,0.05,-4.87,1.585,11.438,-1.017,-0.046,-0.103,2.605,-7.636,4.751,-1.293,0.076,-0.249,-3.474,-1.334,-6.679,-0.529,0.582,0.108,25.169,31.127,-83.527
8940.0,-0.361,0.897,-0.627,13.595,-36.218,-68.417,-0.94,-0.132,0.033,-2.114,3.471,11.162,-0.999,-0.004,-0.085,-7.562,-6.989,3.432,-1.178,0.086,-0.197,-36.182,-11.439,-10.374,-0.588,0.603,0.121,38.421,23.804,-83.821
8960.0,-0.333,0.905,-0.629,11.428,-36.721,-71.741,-0.978,-0.011,0.085,-10.015,8.973,10.081,-0.986,-0.068,-0.09,-9.771,-5.726,1.498,-1.025,0.01,-0.2,-59.889,-11.579,-11.895,-0.585,0.691,0.04,40.542,28.898,-90.609
8980.0,-0.301,0.889,-0.582,7.792,-35.767,-71.294,-1.105,-0.263,0.045,-26.136,4.189,1.209,-0.982,-0.081,-0.084,-8.972,-2.397,1.443,-1.019,-0.144,-0.253,-58.19,-8.817,-13.847,-0.663,0.739,-0.011,31.273,29.412,-99.998
9000.0,-0.324,0.825,-0.566,4.516,-39.259,-71.126,-1.13,-0.246,0.003,-8.013,-6.849,2.919,-1.023,-0.041,-0.133,-7.285,-6.198,3.376,-1.04,-0.17,-0.309,-44.49,-10.65,-14.105,-0.713,0.689,-0.005,27.455,27.495,-105.928
9020.0,-0.358,0.781,-0.584,0.598,-41.432,-73.254,-1.012,-0.141,0.054,0.98,-8.54,7.0,-1.028,-0.059,-0.14,-11.719,-7.265,4.806,-1.011,-0.136,-0.342,-28.821,-11.098,-13.077,-0.761,0.682,-0.009,31.113,27.704,-105.26
9040.0,-0.389,0.755,-0.602,-1.586,-41.949,-76.063,-0.99,-0.104,0.037,-14.382,-4.2,-0.721,-0.995,-0.09,-0.101,-10.898,-6.074,5.392,-1.033,-0.083,-0.338,-22.548,-10.13,-14.172,-0.797,0.656,-0.018,31.531,25.092,-103.214
9060.0,-0.446,0.756,-0.588,-2.199,-42.354,-78.115,-0.989,-0.098,0.047,-25.057,-2.988,-4.031,-0.994,-0.061,-0.093,-6.831,-4.69,7.159,-1.045,-0.098,-0.294,-18.368,-9.998,-12.12,-0.864,0.596,-0.004,43.206,38.272,-94.387
9080.0,-0.487,0.75,-0.581,-2.798,-44.772,-80.601,-0.999,-0.182,0.054,-28.36,2.378,-5.265,-0.996,-0.047,-0.103,-3.003,-0.253,8.229,-1.045,-0.109,-0.258,-16.941,-12.331,-10.154,-1.062,0.687,-0.093,51.65,30.16,-85.922
9100.0,-0.521,0.747,-0.573,-2.17,-46.41,-82.53,-1.058,-0.26,0.038,-15.083,-3.484,-1.361,-0.998,-0.049,-0.12,0.842,1.238,8.568,-1.047,-0.053,-0.264,-19.269,-16.151,-12.874,-1.043,0.779,-0.06,47.543,6.562,-84.774
9120.0,-0.537,0.82,-0.512,1.74,-50.503,-81.633,-1.048,-0.244,0.045,4.096,-12.623,7.84,-1.001,-0.027,-0.12,-0.154,0.843,9.135,-1.03,-0.055,-0.302,-23.431,-15.447,-12.258,-0.871,0.803,-0.052,26.353,2.057,-93.066
9140.0,-0.58,0.699,-0.503,-0.651,-56.192,-80.227,-1.013,-0.155,0.069,2.813,-13.434,10.812,-1.025,-0.026,-0.099,-1.245,-2.188,10.22,-1.031,-0.061,-0.303,-21.838,-15.732,-9.784,-0.822,0.725,-0.036,7.64,8.918,-101.31
9160.0,-0.588,0.66,-0.512,-2.87,-58.52,-81.253,-1.025,-0.169,0.038,2.621,-14.551,12.11,-1.032,-0.046,-0.072,-6.233,-12.819,9.704,-1.021,-0.035,-0.278,-25.781,-23.597,-7.669,-0.88,0.622,-0.02,-0.21,16.45,-99.4
9180.0,-0.566,0.649,-0.535,-5.87,-56.986,-82.966,-0.994,-0.146,0.051,3.734,-14.452,11.723,-0.973,-0.032,-0.071,-11.172,-17.322,9.127,-0.889,-0.055,-0.243,-34.345,-26.002,-2.978,-0.973,0.64,-0.054,-4.864,12.672,-95.348
9200.0,-0.599,0.655,-0.482,-8.895,-57.027,-81.873,-0.994,-0.101,0.082,0.669,-12.876,10.495,-0.985,-0.035,-0.051,-11.277,-13.03,12.157,-0.877,-0.06,-0.286,-41.034,-21.179,-4.871,-0.948,0.6,-0.063,-11.887,4.387,-93.922
9220.0,-0.637,0.633,-0.436,-12.138,-59.167,-80.268,-1.018,-0.119,0.08,-1.237,-13.298,6.941,-0.995,-0.043,-0.077,-13.322,-10.679,13.447,-0.903,-0.156,-0.302,-32.747,-21.228,-0.805,-0.895,0.569,-0.082,-21.807,4.042,-92.221
9240.0,-0.651,0.589,-0.43,-14.965,-61.464,-79.23,-1.011,-0.14,0.079,-1.07,-14.299,6.225,-0.981,-0.007,-0.091,-14.28,-6.572,14.674,-0.862,-0.125,-0.262,-19.877,-21.09,1.89,-0.87,0.536,-0.076,-27.21,5.267,-89.854
9260.0,-0.658,0.544,-0.435,-16.753,-61.729,-78.778,-1.003,-0.136,0.099,0.156,-14.247,7.927,-0.995,0.003,-0.047,-15.156,-4.989,14.626,-0.859,-0.06,-0.232,-18.517,-17.016,1.381,-0.867,0.48,-0.064,-33.668,6.613,-87.07
9280.0,-0.67,0.51,-0.416,-19.178,-60.682,-79.336,-1.024,-0.137,0.099,0.537,-11.618,9.603,-1.028,0.012,-0.048,-16.37,-5.728,14.328,-0.897,-0.067,-0.226,-25.016,-20.324,-2.24,-0.874,0.385,-0.044,-32.806,12.191,-82.057
9300.0,-0.708,0.507,-0.377,-20.663,-60.085,-79.285,-1.069,-0.169,0.076,0.374,-10.946,10.586,-1.026,0.016,-0.099,-15.718,-7.506,14.841,-0.845,-0.063,-0.189,-31.56,-21.645,-3.23,-0.919,0.331,-0.054,-27.978,17.569,-75.945
9320.0,-0.744,0.506,-0.364,-19.707,-60.584,-78.298,-1.082,-0.171,0.09,6.32,-12.411,10.955,-1.011,-0.019,-0.078,-10.796,-10.778,13.933,-0.862,-0.06,-0.201,-36.27,-21.797,-6.328,-0.969,0.291,-0.057,-21.936,17.753,-69.988
9340.0,-0.744,0.497,-0.359,-18.655,-60.121,-77.729,-0.999,-0.115,0.128,12.715,-5.387,7.91,-1.011,-0.029,-0.082,-5.287,-16.022,12.592,-0.884,-0.086,-0.215,-38.844,-24.491,-9.409,-0.957,0.311,-0.053,-16.921,15.411,-61.244
9360.0,-0.742,0.461,-0.35,-18.847,-57.236,-77.441,-0.563,-0.188,0.287,25.305,68.95,19.279,-1.025,0.043,-0.079,-6.954,-15.982,13.371,-0.868,-0.085,-0.215,-36.152,-26.531,-9.469,-0.929,0.317,-0.054,-17.887,15.976,-60.881
9380.0,-0.762,0.441,-0.32,-20.663,-55.28,-76.379,-0.14,-0.313,0.389,30.819,142.828,37.54,-0.995,0.042,-0.059,-12.642,-16.507,13.64,-0.855,-0.106,-0.204,-29.031,-27.702,-8.137,-0.911,0.279,-0.06,-23.95,19.026,-63.565
9400.0,-0.77,0.423,-0.295,-22.452,-54.717,-75.586,-1.165,0.012,0.068,-7.398,-39.476,7.981,-0.968,0.051,-0.032,-14.292,-16.84,13.622,-0.772,-0.081,-0.153,-21.768,-26.247,-4.402,-0.929,0.197,-0.067,-25.215,23.374,-63.917
9420.0,-0.767,0.397,-0.28,-23.526,-54.216,-74.861,-1.162,-0.112,0.127,4.151,-11.634,9.807,-0.986,0.023,-0.023,-15.252,-10.752,14.044,-0.765,-0.046,-0.126,-18.841,-20.876,-2.116,-0.992,0.135,-0.066,-19.727,22.771,-61.481
9440.0,-0.764,0.371,-0.259,-24.554,-51.903,-72.914,-1.022,-0.16,0.094,8.477,-8.186,6.588,-1.033,0.054,-0.046,-13.72,-12.88,14.14,-0.862,-0.062,-0.15,-21.17,-18.279,-1.47,-1.017,0.163,-0.045,-6.118,17.186,-53.69
9460.0,-0.802,0.354,-0.216,-26.278,-49.822,-71.242,-1.013,-0.118,0.094,5.942,-7.328,8.7,-1.035,0.025,-0.027,-7.683,-19.867,9.748,-0.913,-0.072,-0.152,-22.981,-20.68,-1.524,-1.016,0.225,-0.032,-3.611,16.635,-52.097
9480.0,-0.873,0.364,-0.196,-27.284,-51.1,-69.375,-0.999,-0.113,0.096,9.36,-5.427,9.909,-0.977,0.08,-0.041,-7.001,-14.578,10.347,-0.884,-0.056,-0.131,-25.747,-24.681,-2.938,-1.029,0.21,-0.046,-9.324,18.34,-54.128
9500.0,-0.894,0.367,-0.195,-26.285,-50.397,-68.164,-0.975,-0.092,0.098,7.195,-3.669,7.335,-1.003,0.064,-0.037,-9.715,-15.998,9.388,-0.852,-0.022,-0.081,-31.776,-22.715,-4.617,-1.062,0.15,-0.067,-13.498,18.349,-53.638
9520.0,-0.892,0.358,-0.187,-27.001,-48.908,-67.416,-0.999,-0.06,0.107,0.374,-5.019,6.601,-1.036,0.079,-0.03,-7.42,-19.53,7.7,-0.926,-0.069,-0.107,-33.901,-21.319,-7.173,-1.08,0.14,-0.075,-14.803,16.613,-52.724
9540.0,-0.888,0.318,-0.177,-30.318,-48.375,-65.848,-1.014,-0.104,0.088,-0.713,-5.134,5.68,-0.993,0.081,-0.012,-10.747,-17.929,7.334,-0.973,-0.134,-0.163,-27.499,-24.93,-6.069,-1.073,0.157,-0.076,-19.217,9.873,-54.405
9560.0,-0.895,0.282,-0.147,-31.986,-47.063,-63.147,-1.018,-0.094,0.11,-1.606,-5.177,3.82,-0.971,0.073,0.006,-12.107,-14.225,7.035,-0.928,-0.107,-0.142,-17.542,-28.38,-2.925,-1.017,0.142,-0.063,-24.972,9.465,-60.074
9580.0,-0.895,0.268,-0.108,-29.059,-46.651,-59.816,-1.001,-0.092,0.096,-5.772,-4.28,2.547,-1.021,0.072,-0.029,-11.863,-14.965,6.656,-0.857,-0.056,-0.074,-16.591,-27.387,-0.737,-1.0,0.082,-0.075,-26.92,14.242,-65.366
9600.0,-0.922,0.247,-0.092,-25.705,-46.307,-57.106,-1.017,-0.126,0.106,-4.541,-4.008,3.147,-1.018,0.095,-0.014,-11.295,-13.658,7.972,-0.878,-0.038,-0.041,-20.72,-24.528,-1.303,-1.009,0.037,-0.099,-22.99,15.781,-65.444
9620.0,-0.913,0.205,-0.084,-26.859,-45.923,-56.228,-1.032,-0.123,0.101,-3.29,-3.5,2.38,-0.995,0.111,0.016,-15.535,-13.891,7.236,-0.951,-0.065,-0.052,-29.906,-26.328,-2.582,-1.014,0.049,-0.09,-15.222,17.155,-61.005
9640.0,-0.905,0.187,-0.09,-28.473,-44.07,-56.576,-1.052,-0.135,0.081,2.318,-7.418,3.605,-1.113,0.059,0.056,-16.24,-25.69,0.28,-0.921,-0.109,-0.05,-30.3,-29.681,-2.245,-1.04,0.054,-0.067,-11.991,18.035,-58.869
9660.0,-0.895,0.183,-0.081,-27.341,-39.738,-55.802,-1.001,-0.094,0.102,8.937,-6.805,6.328,-0.92,0.062,-0.005,-9.649,-18.865,1.275,-0.854,-0.098,-0.02,-27.13,-28.309,-2.302,-1.047,0.017,-0.062,-9.918,16.825,-55.168
9680.0,-0.907,0.171,-0.062,-24.405,-36.436,-52.976,-1.011,-0.08,0.129,1.769,-4.093,3.195,-0.969,0.067,0.028,-7.181,-13.514,2.381,-0.873,-0.092,-0.024,-25.494,-22.851,-3.34,-1.048,0.002,-0.08,-6.166,21.095,-47.179
9700.0,-0.927,0.133,-0.044,-22.374,-34.361,-49.925,-1.006,-0.063,0.12,-3.272,-1.829,2.522,-0.968,0.09,0.049,-5.326,-9.134,3.627,-0.926,-0.142,-0.038,-19.717,-21.675,-2.891,-1.097,0.03,-0.121,-10.603,21.603,-45.153
9720.0,-0.938,0.098,-0.014,-21.301,-31.211,-47.646,-1.005,-0.107,0.084,-0.808,-4.391,2.841,-0.978,0.06,0.052,-5.082,-3.196,2.644,-0.911,-0.151,-0.036,-7.174,-22.605,-1.477,-1.109,0.007,-0.134,-18.809,16.699,-46.088
9740.0,-0.943,0.088,-0.005,-24.024,-26.408,-46.187,-1.004,-0.095,0.112,4.27,-3.92,4.62,-0.977,0.096,0.039,-0.7,0.63,2.94,-0.866,-0.08,-0.021,-3.53,-23.658,-1.211,-1.087,0.005,-0.137,-28.594,13.459,-50.238
9760.0,-0.933,0.079,0.002,-25.13,-23.24,-45.08,-1.002,-0.067,0.103,4.745,-4.971,2.971,-1.028,0.123,0.019,-2.26,-0.517,1.554,-0.852,-0.044,0.009,-7.014,-23.813,-1.922,-1.046,0.026,-0.136,-39.83,17.08,-55.58
9780.0,-0.927,0.065,0.002,-21.623,-20.958,-42.116,-1.014,-0.072,0.097,2.933,-5.834,0.467,-1.009,0.131,0.013,-7.645,-1.215,-0.154,-0.853,-0.044,0.053,-15.706,-24.587,-3.899,-1.095,-0.011,-0.12,-47.984,17.352,-56.596
9800.0,-0.917,0.038,0.014,-16.69,-18.542,-38.358,-0.999,-0.047,0.129,-3.516,-3.914,-3.052,-0.971,0.117,0.026,-10.03,1.333,-1.095,-0.866,-0.139,0.067,-22.667,-27.808,-4.371,-1.112,-0.055,-0.063,-41.798,15.075,-52.123
9820.0,-0.935,0.019,0.019,-14.797,-14.791,-33.605,-0.973,-0.035,0.173,-15.206,0.899,-9.009,-1.029,0.043,0.052,-5.753,1.049,-3.489,-0.866,-0.212,0.026,-20.116,-27.159,-2.294,-1.144,-0.128,-0.043,-24.694,14.551,-41.072
9840.0,-0.95,-0.0,0.035,-15.183,-12.797,-28.434,-0.998,-0.121,0.123,-17.005,2.933,-12.656,-0.988,0.049,0.012,5.138,-2.109,-4.628,-0.857,-0.143,0.0,-10.509,-23.69,0.376,-1.205,-0.135,-0.065,-2.121,13.911,-26.051
9860.0,-0.958,-0.003,0.057,-14.015,-12.542,-21.944,-1.016,-0.182,0.093,-8.038,2.369,-9.092,-0.997,0.085,0.016,8.294,-2.21,-4.627,-0.855,-0.125,0.002,-7.057,-21.886,1.096,-1.244,-0.099,-0.088,9.801,7.168,-11.763
9880.0,-0.973,-0.013,0.045,-11.907,-12.215,-16.013,-1.029,-0.165,0.107,5.226,1.169,-3.266,-0.998,0.101,0.021,2.671,0.319,-3.848,-0.873,-0.119,0.042,-7.794,-21.791,0.409,-1.27,-0.011,-0.048,12.593,-2.701,-0.392
9900.0,-0.976,-0.025,0.022,-13.368,-9.563,-10.04,-1.017,-0.094,0.121,6.676,2.174,-3.1,-1.0,0.099,0.007,-3.606,1.11,-3.14,-0.865,-0.131,0.059,-5.011,-21.263,0.299,-1.263,0.043,-0.051,8.481,-12.562,5.537
9920.0,-0.976,-0.04,0.041,-13.917,-6.318,-5.351,-0.998,-0.071,0.109,0.398,4.034,-7.363,-1.016,0.083,0.012,-4.295,0.865,-3.973,-0.851,-0.118,0.061,-3.175,-19.48,0.544,-1.229,0.092,-0.088,-1.869,-20.511,6.413
9940.0,-0.969,-0.051,0.056,-11.951,-2.877,0.112,-1.003,-0.074,0.076,-9.968,3.311,-12.126,-1.006,0.107,0.01,-4.638,2.078,-4.706,-0.835,-0.115,0.045,-0.617,-13.623,1.289,-1.184,0.092,-0.108,-17.561,-27.065,7.035
9960.0,-0.984,-0.082,0.072,-11.031,0.78,6.16,-1.016,-0.113,0.063,-13.1,0.993,-13.225,-0.999,0.105,0.005,-1.912,2.87,-5.834,-0.891,-0.134,0.006,2.164,-9.533,2.917,-1.186,0.061,-0.102,-28.852,-33.124,9.043
9980.0,-0.998,-0.092,0.083,-10.192,1.369,11.138,-1.014,-0.124,0.092,-13.37,0.77,-7.289,-0.993,0.085,0.013,1.606,3.787,-6.974,-0.935,-0.136,0.012,3.007,-8.473,5.834,-1.19,0.015,-0.098,-34.416,-39.267,12.511
10000.0,-0.99,-0.077,0.073,-9.156,2.346,15.896,-1.03,-0.146,0.092,-7.602,-0.284,-3.5,-0.991,0.078,0.022,3.11,6.186,-7.08,-0.891,-0.122,0.036,-0.485,-9.106,7.73,-1.171,-0.014,-0.107,-36.113,-44.233,17.477
10020.0,-0.964,-0.03,0.058,-8.179,3.215,20.993,-1.035,-0.185,0.082,0.816,-3.196,-3.587,-1.01,0.08,0.018,3.658,7.253,-6.782,-0.829,-0.131,0.051,-4.62,-5.32,9.1,-1.113,-0.048,-0.108,-32.247,-47.042,23.79
10040.0,-0.959,-0.013,0.049,-6.944,3.785,26.039,-1.007,-0.167,0.093,0.336,-3.908,-3.694,-1.011,0.097,-0.003,-0.67,7.204,-6.56,-0.838,-0.146,0.051,-5.364,-2.606,8.896,-1.073,-0.066,-0.103,-21.102,-46.543,31.14
10060.0,-0.968,-0.02,0.048,-4.462,4.964,30.477,-1.005,-0.123,0.107,-3.956,-2.288,-5.336,-1.016,0.1,-0.016,-4.162,6.24,-6.628,-0.865,-0.166,0.04,-2.973,1.848,7.948,-1.065,-0.063,-0.108,-10.844,-42.889,39.65
10080.0,-0.988,-0.037,0.05,-2.003,7.699,33.62,-1.003,-0.097,0.089,-4.372,-1.976,-3.326,-1.021,0.111,-0.02,-9.157,4.417,-6.968,-0.916,-0.176,0.012,3.967,3.838,4.923,-1.077,-0.06,-0.127,-4.213,-38.715,48.007
10100.0,-0.985,-0.032,0.05,-0.515,9.887,35.587,-1.003,-0.115,0.077,-3.941,-2.568,-3.284,-1.022,0.072,-0.021,-11.311,1.769,-7.536,-0.927,-0.141,0.013,4.25,3.167,3.225,-1.101,-0.059,-0.139,-0.668,-37.945,55.67
10120.0,-0.978,-0.004,0.042,0.921,10.488,37.591,-1.017,-0.126,0.1,-3.627,-2.146,-4.665,-1.022,0.001,-0.026,-3.702,0.641,-8.477,-0.909,-0.132,0.035,0.556,3.892,2.382,-1.084,-0.049,-0.135,1.014,-37.934,62.666
10140.0,-0.983,0.026,0.025,2.849,10.655,40.482,-1.006,-0.177,0.079,-4.537,-0.567,-4.893,-1.004,0.008,-0.046,6.36,-1.28,-7.703,-0.912,-0.143,0.038,-3.569,4.825,0.943,-1.039,-0.033,-0.134,0.677,-34.744,67.753
10160.0,-0.993,0.049,0.006,5.369,11.402,43.251,-1.003,-0.195,0.079,-5.22,0.462,-5.259,-1.022,0.08,-0.023,6.701,-4.918,-6.066,-0.911,-0.165,0.021,-1.146,6.099,0.14,-1.023,-0.03,-0.153,-1.252,-30.042,69.418
10180.0,-0.979,0.065,-0.007,7.853,12.868,45.592,-1.004,-0.172,0.102,-5.048,0.199,-3.321,-1.001,0.098,-0.013,-1.19,-4.97,-4.62,-0.9,-0.156,0.021,5.193,6.073,-0.403,-1.026,-0.053,-0.165,-0.855,-27.827,69.313
10200.0,-0.947,0.076,-0.006,9.033,16.217,47.794,-1.014,-0.178,0.091,-6.735,-0.136,-2.777,-1.011,0.047,-0.003,-4.13,-5.74,-3.57,-0.853,-0.155,0.018,8.539,6.614,-1.574,-1.036,-0.065,-0.158,3.904,-25.91,70.025
10220.0,-0.918,0.09,-0.025,10.364,22.098,49.725,-1.007,-0.17,0.082,-8.309,-2.148,-1.839,-1.016,0.045,-0.02,-4.69,-5.6,-2.59,-0.823,-0.146,0.016,11.807,12.467,-0.59,-1.052,-0.042,-0.125,9.997,-24.301,71.804
10240.0,-0.915,0.113,0.006,10.679,24.98,53.026,-1.02,-0.184,0.076,-3.234,-2.859,2.006,-0.984,0.028,-0.012,-3.449,-6.267,-1.64,-0.857,-0.103,0.028,9.686,13.908,-0.734,-1.073,0.051,-0.102,10.988,-24.188,71.52
10260.0,-0.939,0.136,-0.014,14.145,24.785,56.817,-1.005,-0.174,0.09,1.334,-2.164,3.965,-0.947,0.058,0.037,-0.003,-5.009,-1.788,-0.903,-0.083,0.035,-0.241,13.393,-2.525,-1.068,0.067,-0.111,6.694,-25.175,67.734
10280.0,-0.938,0.167,-0.025,16.073,29.607,59.203,-0.989,-0.142,0.09,0.49,-1.61,3.5,-0.975,0.023,0.015,4.765,1.761,-2.488,-0.898,-0.106,0.008,-6.135,10.205,-5.253,-1.036,0.063,-0.118,1.471,-25.012,65.828
10300.0,-0.924,0.184,-0.035,14.09,33.424,61.509,-1.018,-0.134,0.078,-1.359,-3.814,2.705,-1.027,0.052,0.003,8.593,2.168,-2.59,-0.847,-0.169,-0.036,-3.013,8.469,-6.162,-1.028,0.085,-0.116,-0.484,-25.398,65.269
10320.0,-0.901,0.192,-0.057,11.8,35.449,64.175,-1.013,-0.149,0.085,0.261,-3.927,3.823,-0.995,0.078,-0.003,9.295,1.048,-3.499,-0.782,-0.183,-0.056,9.95,11.399,-5.052,-1.028,0.134,-0.066,-0.115,-22.969,65.51
10340.0,-0.852,0.2,-0.075,11.875,35.548,67.418,-0.997,-0.175,0.081,4.531,-4.205,5.695,-0.989,0.083,-0.016,5.687,3.54,-3.616,-0.771,-0.163,-0.068,26.041,22.327,-0.293,-1.084,0.175,-0.051,3.43,-22.4,65.31
10360.0,-0.849,0.22,-0.136,13.995,39.728,71.146,-0.996,-0.179,0.058,8.243,-6.776,7.689,-1.011,0.062,-0.012,0.843,2.614,-3.449,-0.833,-0.133,-0.067,33.865,26.856,1.189,-1.05,0.231,-0.033,6.16,-26.25,65.03
10380.0,-0.879,0.27,-0.112,17.098,49.804,73.029,-0.997,-0.128,0.088,18.2,-11.173,7.974,-1.064,0.037,0.01,1.203,-2.997,-4.484,-0.848,-0.102,-0.055,34.866,27.269,-0.658,-0.988,0.288,0.007,4.149,-24.462,67.276
10400.0,-0.884,0.292,-0.071,18.076,54.719,74.337,-1.124,-0.042,0.152,4.62,-6.86,1.89,-1.01,0.048,-0.006,-0.467,-8.974,-6.255,-0.76,-0.03,-0.061,23.074,24.216,-6.394,-0.977,0.297,0.051,4.501,-21.812,74.466
10420.0,-0.831,0.295,-0.091,19.081,54.759,76.032,-1.001,-0.075,0.143,-13.612,3.183,-8.077,-0.935,0.052,-0.015,-1.87,-4.638,-5.776,-0.699,-0.018,-0.053,8.351,22.216,-11.432,-1.002,0.258,0.087,13.343,-25.317,84.992
10440.0,-0.727,0.31,-0.163,20.521,55.933,78.912,-1.018,-0.134,0.097,-14.289,3.735,-11.356,-0.954,0.026,-0.002,1.11,3.489,-4.927,-0.686,-0.082,-0.079,0.947,22.931,-14.076,-0.941,0.282,0.099,28.607,-26.926,101.236
10460.0,-0.664,0.347,-0.217,22.381,60.858,83.686,-1.029,-0.206,0.062,-3.848,0.278,-5.734,-1.005,0.018,-0.005,11.986,4.444,-7.431,-0.747,-0.129,-0.104,-0.457,24.964,-15.038,-0.918,0.446,0.11,38.709,-26.247,113.197
10480.0,-0.684,0.407,-0.208,22.213,62.008,86.977,-0.999,-0.16,0.088,4.648,-0.545,-5.587,-0.987,0.06,-0.0,17.402,10.323,-9.291,-0.828,-0.13,-0.123,2.353,24.254,-13.538,-0.92,0.525,0.128,32.709,-28.423,115.062
10500.0,-0.707,0.485,-0.187,24.163,62.147,88.828,-0.789,-0.025,0.116,-2.874,14.51,-5.717,-1.028,0.128,0.016,16.609,11.44,-11.635,-0.836,-0.133,-0.245,12.11,22.19,-11.48,-0.883,0.585,0.122,16.01,-30.484,113.412
10520.0,-0.694,0.544,-0.194,28.848,61.036,91.753,-0.92,-0.092,0.115,-6.255,-9.295,-3.542,-1.053,0.124,-0.031,9.883,5.64,-16.09,-0.802,-0.107,-0.173,23.45,21.35,-8.47,-0.812,0.563,0.132,1.471,-23.894,112.354
10540.0,-0.633,0.518,-0.273,31.312,61.034,95.955,-1.022,-0.181,0.114,-11.444,-6.088,-11.98,-0.972,0.078,-0.062,9.5,11.349,-17.102,-0.792,-0.006,-0.205,20.971,20.961,-6.943,-0.876,0.518,0.158,-0.61,-20.829,119.876
10560.0,-0.617,0.478,-0.332,28.668,68.865,99.37,-0.916,-0.17,0.105,-14.761,18.434,-12.215,-0.967,0.012,-0.08,17.776,12.326,-19.11,-0.898,-0.001,-0.203,7.898,19.11,-7.459,-0.951,0.417,0.188,12.448,-26.791,131.829
10580.0,-0.672,0.503,-0.296,22.209,71.838,99.198,-0.924,-0.179,0.123,-9.177,18.538,-15.021,-0.973,-0.002,-0.079,25.284,11.185,-20.302,-1.056,-0.058,-0.227,-8.104,14.039,-9.032,-0.916,0.463,0.166,24.33,-31.858,140.332
10600.0,-0.724,0.64,-0.252,21.293,65.111,95.603,-1.002,-0.171,0.002,-1.939,7.851,-9.737,-1.114,-0.013,-0.027,30.011,10.896,-21.297,-1.06,-0.133,-0.287,-8.029,12.973,-10.014,-0.84,0.577,0.123,20.849,-34.867,139.081
10620.0,-0.7,0.751,-0.289,21.752,55.436,94.754,-1.065,-0.163,0.054,0.288,2.142,-14.199,-1.052,0.094,-0.039,23.541,7.369,-19.584,-1.034,-0.155,-0.328,9.567,14.915,-5.614,-0.786,0.645,0.132,4.527,-36.648,130.136
10640.0,-0.65,0.776,-0.398,19.547,53.566,94.864,-1.082,-0.16,0.051,-2.792,2.824,-25.851,-1.016,0.074,-0.111,8.257,5.993,-18.684,-0.901,-0.107,-0.336,20.909,20.02,-0.869,-0.771,0.616,0.187,-15.433,-37.012,118.334
10660.0,-0.599,0.751,-0.459,14.786,60.757,93.649,-0.977,-0.097,0.081,-13.203,9.725,-21.931,-0.987,-0.008,-0.144,5.874,4.803,-20.183,-0.9,-0.079,-0.283,20.987,25.432,2.686,-0.757,0.618,0.158,-26.943,-35.515,107.294
10680.0,-0.568,0.748,-0.424,7.745,64.924,91.001,-0.978,-0.173,0.075,-23.029,14.187,-22.69,-0.992,0.054,-0.065,0.163,2.895,-19.447,-0.971,-0.111,-0.295,20.999,26.899,3.188,-0.718,0.649,0.122,-36.243,-40.169,95.655
10700.0,-0.538,0.755,-0.399,5.46,64.447,87.522,-1.038,-0.154,0.042,-24.189,3.49,-19.083,-0.976,0.022,-0.02,-3.266,8.32,-20.44,-1.062,-0.103,-0.351,28.178,26.896,2.136,-0.596,0.64,0.139,-45.921,-50.209,81.775
10720.0,-0.492,0.731,-0.403,6.948,60.307,84.402,-1.034,-0.199,-0.007,-21.225,-5.129,-12.479,-1.047,-0.021,0.058,-0.0,11.729,-18.527,-1.12,-0.043,-0.357,30.312,24.568,-2.328,-0.461,0.551,0.233,-46.758,-48.439,70.628
10740.0,-0.419,0.703,-0.469,15.866,58.56,82.704,-0.994,-0.359,-0.023,-6.662,-4.796,-8.404,-0.975,-0.191,-0.085,21.42,13.72,-19.11,-1.111,-0.052,-0.334,18.582,21.976,-2.796,-0.429,0.432,0.273,-32.352,-34.714,65.067
10760.0,-0.399,0.716,-0.502,22.414,59.518,82.172,-1.054,-0.308,0.05,1.082,-3.163,-6.896,-1.023,-0.041,-0.094,34.659,14.466,-16.593,-1.083,-0.107,-0.342,5.83,21.49,-1.568,-0.394,0.435,0.225,-6.734,-31.74,64.069
10780.0,-0.423,0.761,-0.456,24.22,58.503,78.184,-1.021,-0.311,0.059,-1.845,-0.121,-6.985,-0.978,-0.005,-0.098,17.591,13.316,-15.296,-1.077,-0.132,-0.377,-0.748,22.449,0.466,-0.324,0.533,0.206,9.538,-39.736,63.608
10800.0,-0.423,0.82,-0.495,24.183,53.848,72.706,-0.994,-0.273,0.079,1.106,3.064,-3.454,-0.972,-0.073,-0.088,11.569,12.586,-16.096,-1.162,-0.133,-0.386,-3.13,27.263,0.996,-0.245,0.506,0.296,21.968,-45.057,58.435
10820.0,-0.378,0.876,-0.598,18.153,50.238,66.153,-0.98,-0.24,0.102,0.527,8.476,-1.883,-0.938,-0.103,-0.119,12.074,10.396,-15.11,-1.304,-0.144,-0.38,0.043,25.959,1.293,-0.222,0.47,0.326,44.327,-38.073,53.193
10840.0,-0.34,0.957,-0.699,15.72,44.414,61.509,-1.025,-0.252,0.06,4.891,7.43,5.241,-1.009,-0.075,-0.144,18.109,5.409,-13.624,-1.387,-0.129,-0.329,1.901,19.199,3.576,-0.251,0.628,0.199,65.006,-20.295,48.944
10860.0,-0.341,1.065,-0.721,10.792,43.945,59.037,-0.994,-0.273,0.018,17.293,-3.188,12.11,-1.054,-0.007,-0.124,13.687,1.946,-12.744,-1.411,-0.101,-0.232,-1.783,16.593,9.359,-0.318,0.834,0.177,62.262,-21.212,29.451
10880.0,-0.383,1.093,-0.657,4.934,33.588,56.93,-1.003,-0.204,0.071,19.554,-1.465,12.15,-1.039,-0.116,-0.106,15.4,0.233,-13.043,-1.449,-0.196,-0.195,4.995,19.959,22.2,-0.333,0.931,0.222,48.452,-25.936,3.904
10900.0,-0.378,1.077,-0.725,0.648,27.047,50.469,-1.014,-0.194,0.095,11.373,0.416,9.959,-1.092,-0.06,-0.114,23.362,-14.572,-13.549,-1.482,-0.346,-0.182,23.799,23.096,32.942,-0.318,0.984,0.216,34.398,-21.843,-21.801
10920.0,-0.35,1.039,-0.713,1.34,28.05,39.156,-1.003,-0.234,0.091,9.513,1.196,9.727,-1.023,0.111,-0.084,19.147,-31.547,-16.221,-1.379,-1.046,-0.074,116.124,36.948,52.293,-0.329,1.021,0.132,15.282,-16.069,-43.591
10940.0,-0.382,0.966,-0.634,4.416,23.722,30.179,-0.984,-0.24,0.044,13.725,2.44,10.318,-0.994,-0.053,-0.016,-0.699,-9.48,-15.499,-1.223,-1.105,-0.324,265.355,46.379,88.517,-0.308,1.042,0.063,-2.633,-24.536,-57.012
10960.0,-0.421,0.922,-0.656,7.578,13.155,21.672,-1.001,-0.215,0.026,15.118,-9.393,18.96,-0.956,-0.142,-0.056,-0.798,1.994,-12.746,-1.478,0.461,-0.059,251.696,31.155,61.517,-0.195,1.017,0.129,-4.504,-27.213,-63.933
10980.0,-0.387,0.913,-0.694,6.333,8.288,8.246,-0.948,-0.131,0.056,3.233,-32.908,65.551,-0.959,-0.181,-0.071,8.138,2.326,-11.23,-1.634,0.514,0.031,76.945,-4.934,-5.279,-0.208,0.841,0.2,12.309,-2.918,-64.49
11000.0,-0.374,0.95,-0.722,4.088,7.543,-4.262,-0.082,0.331,0.237,-112.122,70.918,74.667,-0.965,-0.148,-0.074,9.394,0.441,-8.671,-1.406,0.076,-0.101,6.38,-6.008,-18.125,-0.421,0.792,0.159,36.462,5.21,-55.321
11020.0,-0.396,1.024,-0.68,4.665,3.212,-14.68,-1.177,-0.402,-0.024,18.88,-32.378,-5.697,-0.992,-0.02,-0.107,-3.808,-4.154,-7.363,-1.373,0.046,-0.235,6.51,1.4,-9.31,-0.473,0.9,0.162,53.284,-2.081,-48.729
11040.0,-0.394,1.03,-0.699,5.461,-4.515,-20.654,-0.961,0.129,0.011,-5.609,4.835,4.41,-1.013,-0.044,-0.118,-20.226,-4.426,-6.224,-1.379,0.061,-0.233,-11.104,1.729,-6.106,-0.387,1.058,0.233,54.067,3.632,-51.285
11060.0,-0.382,0.994,-0.714,7.131,-11.641,-25.154,-1.092,-0.333,0.001,8.834,9.989,-24.34,-1.028,-0.177,-0.113,-12.595,-4.223,-5.373,-1.491,-0.027,-0.212,-21.724,-3.881,-8.259,-0.5,0.967,0.175,44.995,24.586,-57.721
11080.0,-0.388,0.968,-0.711,10.041,-17.402,-30.465,-1.004,-0.189,0.043,28.07,17.43,-21.21,-1.05,-0.203,-0.111,9.077,-4.97,-3.439,-1.454,-0.081,-0.298,-27.74,-15.691,-7.771,-0.689,0.914,0.089,42.437,20.239,-59.846
11100.0,-0.384,0.981,-0.686,10.78,-21.455,-37.468,-1.021,-0.133,0.037,19.139,14.362,-21.045,-1.034,-0.109,-0.107,14.264,-4.762,-0.781,-1.26,-0.077,-0.276,-28.849,-18.491,-1.891,-0.615,1.004,0.152,27.65,9.87,-68.6
11120.0,-0.368,0.967,-0.627,10.297,-25.059,-42.054,-0.867,-0.327,-0.012,-18.278,-6.812,13.731,-1.002,-0.064,-0.104,7.335,-4.384,0.309,-1.187,-0.104,-0.274,-29.083,-16.244,-1.653,-0.641,1.006,0.133,7.98,16.66,-81.69
11140.0,-0.38,0.901,-0.593,10.068,-30.106,-45.531,-0.96,-0.233,0.077,4.063,-7.401,8.924,-1.017,-0.082,-0.102,0.324,-6.501,1.654,-1.18,-0.112,-0.292,-37.504,-21.457,-8.247,-0.686,0.834,0.099,-8.12,9.8,-90.51
11160.0,-0.417,0.851,-0.599,10.432,-36.124,-50.62,-0.98,-0.259,0.045,8.53,-9.416,9.456,-1.014,-0.133,-0.098,-0.996,-8.896,2.625,-1.139,-0.16,-0.311,-41.233,-22.792,-11.927,-0.611,0.69,0.105,-5.32,6.86,-88.48
11180.0,-0.428,0.817,-0.632,10.882,-40.165,-56.432,-0.99,-0.153,0.052,7.757,-10.421,9.854,-0.99,-0.099,-0.084,0.178,-9.725,3.891,-1.106,-0.26,-0.321,-26.119,-13.462,-7.911,-0.637,0.639,0.095,1.289,16.582,-85.152
11200.0,-0.431,0.802,-0.643,12.285,-42.0,-61.168,-1.003,-0.133,0.056,3.509,-11.428,6.657,-0.993,-0.057,-0.073,0.023,-9.35,4.363,-1.19,-0.22,-0.27,1.018,-7.003,3.852,-0.733,0.568,0.071,13.126,15.828,-81.406
11220.0,-0.474,0.801,-0.613,13.948,-43.912,-64.656,-1.01,-0.157,0.056,-1.363,-12.458,3.228,-1.004,-0.074,-0.086,-4.168,-5.739,4.278,-1.16,-0.092,-0.238,2.022,-8.73,5.17,-0.739,0.572,0.07,25.164,11.658,-78.931
11240.0,-0.505,0.813,-0.586,13.715,-46.618,-66.955,-0.995,-0.154,0.061,-3.433,-11.059,1.469,-0.995,-0.115,-0.093,-2.419,-3.314,5.969,-1.094,-0.061,-0.249,-7.694,-9.77,1.499,-0.779,0.613,0.033,21.881,18.315,-80.507
11260.0,-0.52,0.82,-0.56,11.502,-50.137,-68.203,-0.986,-0.15,0.08,-8.093,-8.35,-0.579,-0.988,-0.126,-0.1,2.881,-2.551,9.045,-1.06,-0.084,-0.288,-19.906,-10.646,-4.835,-0.874,0.593,0.011,13.88,23.225,-84.484
11280.0,-0.527,0.787,-0.54,8.666,-53.799,-69.595,-0.999,-0.181,0.091,-8.512,-8.017,1.152,-0.995,-0.083,-0.084,1.597,-1.772,11.916,-1.043,-0.14,-0.32,-23.474,-10.556,-5.986,-0.93,0.517,0.001,8.052,19.381,-84.343
11300.0,-0.532,0.73,-0.507,6.936,-54.767,-72.189,-1.016,-0.227,0.072,-7.178,-8.46,3.769,-1.002,-0.051,-0.07,-6.007,0.089,13.932,-1.04,-0.159,-0.311,-20.345,-12.309,-5.044,-0.931,0.5,-0.013,10.118,16.613,-83.443
11320.0,-0.557,0.695,-0.496,7.018,-56.997,-73.973,-1.0,-0.235,0.064,-3.283,-14.699,6.801,-0.989,-0.046,-0.111,-9.693,1.398,15.15,-1.016,-0.108,-0.248,-17.671,-15.98,-5.345,-0.905,0.547,-0.032,10.525,12.917,-85.205
11340.0,-0.588,0.679,-0.493,7.318,-61.633,-73.305,-0.992,-0.206,0.058,5.28,-20.923,11.467,-1.021,-0.086,-0.101,-9.418,-1.235,15.775,-0.966,-0.103,-0.253,-21.196,-15.928,-5.982,-0.803,0.61,-0.023,0.339,12.765,-93.339
11360.0,-0.606,0.632,-0.485,8.462,-62.031,-74.789,-0.992,-0.164,0.084,5.991,-16.1,14.347,-0.994,-0.109,-0.043,-1.918,-1.172,16.063,-0.93,-0.154,-0.277,-19.527,-14.445,-3.835,-0.785,0.563,-0.025,-14.359,22.741,-100.937
11380.0,-0.609,0.607,-0.465,7.994,-63.142,-76.397,-0.969,-0.149,0.118,2.579,-12.438,14.319,-1.026,-0.1,-0.092,6.588,-4.592,16.603,-0.91,-0.164,-0.264,-12.749,-11.9,-0.319,-0.853,0.461,-0.047,-19.809,25.476,-100.081
11400.0,-0.632,0.595,-0.446,7.986,-64.446,-77.761,-0.982,-0.154,0.12,-2.942,-13.376,11.546,-0.998,0.049,-0.104,2.805,-4.285,18.112,-0.905,-0.107,-0.198,-11.252,-11.847,1.289,-0.914,0.386,-0.046,-18.509,24.291,-92.997
11420.0,-0.646,0.575,-0.433,5.921,-66.388,-78.916,-0.99,-0.167,0.12,-4.781,-8.862,9.902,-1.009,0.053,-0.031,-16.1,-7.07,14.91,-0.915,-0.063,-0.185,-18.839,-11.831,0.647,-0.939,0.379,-0.05,-9.082,21.015,-82.056
11440.0,-0.647,0.544,-0.443,2.331,-66.37,-79.45,-0.969,-0.185,0.116,-1.682,-3.744,9.091,-1.01,0.0,-0.086,-24.22,-8.33,13.86,-0.97,-0.073,-0.208,-28.719,-15.866,-1.913,-0.914,0.416,-0.052,-6.731,16.129,-77.481
11460.0,-0.662,0.532,-0.432,-1.145,-65.161,-79.425,-0.937,-0.169,0.035,-1.855,-7.502,-5.353,-1.023,-0.063,-0.065,-21.965,-3.987,14.743,-0.957,-0.125,-0.218,-31.963,-23.073,-1.652,-0.904,0.393,-0.034,-7.315,18.036,-76.195
