Millis,AccelX,AccelY,AccelZ,GyroX,GyroY,GyroZ
10352313,-1.005,-0.081,0.061,0.560,-2.940,-1.820
10352333,-1.002,-0.078,0.060,0.280,-2.800,-1.750
10352353,-1.001,-0.080,0.062,0.280,-2.660,-1.890
10352373,-1.003,-0.080,0.062,0.210,-2.380,-1.820
10352393,-1.002,-0.078,0.057,0.630,-2.590,-1.820
10352413,-1.002,-0.083,0.060,0.630,-2.730,-1.960
10352430,-1.004,-0.080,0.061,0.630,-2.660,-1.890
10352450,-1.005,-0.080,0.061,0.770,-2.730,-1.890
10352472,-1.002,-0.083,0.060,1.050,-2.730,-2.030
10352496,-1.006,-0.078,0.059,0.840,-2.940,-1.960
10352515,-1.003,-0.083,0.061,0.630,-2.870,-1.890
10352539,-1.003,-0.080,0.059,0.490,-2.870,-1.820
10352559,-1.002,-0.081,0.059,0.700,-2.940,-1.750
10352578,-0.998,-0.082,0.059,0.630,-3.080,-1.820
10352602,-1.002,-0.082,0.057,0.560,-3.080,-1.680
10352621,-1.000,-0.081,0.063,0.350,-3.430,-1.750
10352642,-1.003,-0.080,0.062,0.700,-3.430,-1.610
10352662,-1.001,-0.078,0.060,0.700,-3.500,-1.680
10352682,-1.004,-0.080,0.061,0.490,-3.430,-1.750
10352701,-1.001,-0.081,0.065,0.770,-3.290,-1.890
10352726,-1.002,-0.081,0.063,0.910,-3.010,-2.030
10352744,-1.003,-0.081,0.059,0.770,-3.150,-1.890
10352766,-1.003,-0.082,0.062,0.490,-3.430,-1.820
10352785,-1.004,-0.085,0.064,0.280,-3.360,-1.820
10352810,-1.000,-0.082,0.064,0.770,-3.220,-2.030
10352829,-0.999,-0.080,0.063,0.350,-3.150,-1.960
10352849,-1.001,-0.082,0.061,0.420,-2.940,-1.680
10352869,-0.997,-0.080,0.062,-0.070,-2.940,-1.750
10352888,-0.996,-0.081,0.063,0.140,-2.660,-1.820
10352913,-1.001,-0.083,0.063,0.560,-2.870,-1.750
10352931,-1.003,-0.085,0.061,0.420,-2.870,-1.750
10352955,-1.001,-0.083,0.063,0.420,-2.730,-1.750
10352975,-1.003,-0.082,0.069,0.560,-2.800,-1.680
10352994,-1.003,-0.081,0.063,0.490,-2.800,-1.680
10353012,-1.001,-0.081,0.065,0.420,-2.590,-1.540
10353036,-1.006,-0.084,0.062,0.140,-2.660,-1.540
10353056,-1.001,-0.081,0.066,0.490,-2.660,-1.400
10353075,-1.006,-0.081,0.061,0.490,-2.660,-1.400
10353099,-1.000,-0.083,0.061,0.770,-2.800,-1.470
10353115,-1.003,-0.081,0.063,0.630,-2.800,-1.680
10353138,-1.002,-0.083,0.064,0.770,-2.660,-1.400
10353156,-1.003,-0.081,0.065,0.700,-2.730,-1.400
10353180,-1.002,-0.081,0.063,0.560,-2.520,-1.400
10353199,-1.003,-0.082,0.062,0.280,-2.660,-1.470
10353217,-1.003,-0.081,0.065,0.000,-2.380,-1.400
10353237,-1.003,-0.082,0.061,0.070,-2.520,-1.400
10353262,-1.004,-0.082,0.060,0.210,-2.450,-1.470
10353281,-0.998,-0.083,0.063,0.280,-2.520,-1.470
10353300,-0.999,-0.082,0.065,0.630,-2.310,-1.400
10353317,-0.999,-0.083,0.064,0.490,-2.100,-1.540
10353341,-1.000,-0.083,0.065,0.700,-2.170,-1.610
10353360,-1.001,-0.079,0.060,0.560,-1.890,-1.540
10353380,-1.013,-0.082,0.063,1.120,-2.100,-1.470
10353401,-1.005,-0.082,0.065,0.840,-1.960,-1.540
10353424,-1.001,-0.084,0.062,0.770,-1.610,-1.540
10353448,-1.003,-0.077,0.055,0.350,-2.030,-1.540
10353468,-1.004,-0.079,0.053,0.210,-2.240,-1.470
10353488,-1.008,-0.081,0.053,0.560,-3.150,-1.400
10353512,-1.005,-0.083,0.061,0.210,-3.500,-1.190
10353532,-1.008,-0.083,0.064,0.700,-3.920,-1.260
10353552,-1.005,-0.080,0.062,0.630,-3.640,-1.330
10353572,-1.004,-0.082,0.064,0.840,-3.570,-1.470
10353591,-0.998,-0.078,0.064,0.560,-3.080,-1.610
10353612,-0.998,-0.080,0.066,0.490,-2.590,-1.750
10353630,-0.996,-0.080,0.066,0.210,-2.100,-1.890
10353654,-1.000,-0.079,0.063,0.280,-1.470,-1.960
10353674,-1.002,-0.083,0.060,0.420,-1.750,-2.030
10353694,-1.005,-0.084,0.058,0.140,-1.960,-1.750
10353713,-1.004,-0.084,0.061,0.420,-2.170,-1.750
10353732,-1.006,-0.080,0.057,0.630,-2.380,-1.890
10353757,-0.875,-0.082,0.059,0.350,-2.310,-1.540
10353776,-1.003,-0.082,0.061,-0.280,-2.310,-1.540
10353796,-0.999,-0.081,0.059,-0.140,-2.170,-1.680
10353815,-0.999,-0.079,0.061,0.210,-2.100,-1.680
10353836,-1.002,-0.084,0.059,0.350,-2.170,-1.610
10353853,-1.002,-0.080,0.056,0.210,-2.660,-1.610
10353873,-1.003,-0.081,0.059,0.140,-2.520,-1.540
10353894,-1.001,-0.074,0.061,0.490,-2.520,-1.820
10353916,-1.004,-0.084,0.061,-0.350,-2.380,-2.030
10353937,-1.003,-0.086,0.061,0.420,-2.240,-1.890
10353953,-1.000,-0.079,0.058,0.280,-2.170,-1.890
10353977,-1.004,-0.081,0.061,-0.070,-2.100,-1.890
10353997,-1.002,-0.086,0.059,0.630,-2.030,-1.820
10354013,-1.002,-0.079,0.062,0.140,-2.100,-1.750
10354036,-1.001,-0.088,0.061,-0.490,-1.890,-1.610
10354055,-1.000,-0.085,0.058,0.910,-1.610,-1.610
10354076,-1.005,-0.084,0.060,0.910,-1.750,-1.470
10354096,-1.002,-0.082,0.057,0.980,-1.680,-1.470
10354120,-0.995,-0.078,0.062,0.140,-1.190,-1.890
10354138,-0.995,-0.078,0.065,0.350,-0.210,-1.680
10354162,-0.989,-0.081,0.072,3.430,1.190,-1.540
10354177,-0.989,-0.027,0.076,-1.890,3.360,-1.610
10354201,-1.005,-0.064,0.061,-6.860,3.920,-1.960
10354222,-0.992,-0.102,0.050,0.280,5.600,-1.120
10354242,-1.014,-0.033,0.056,-3.570,5.460,-0.980
10354266,-0.992,-0.060,0.050,-12.670,6.650,0.210
10354282,-1.010,-0.113,0.060,-10.150,6.160,1.050
10354306,-1.004,-0.111,0.041,-7.560,6.720,2.590
10354324,-0.990,-0.094,0.033,-7.560,7.350,3.500
10354344,-0.996,-0.080,0.037,-10.780,8.050,3.850
10354364,-1.012,-0.128,0.017,-6.300,8.680,4.550
10354388,-1.022,-0.081,0.019,-3.920,8.120,5.670
10354408,-0.997,-0.062,0.030,-7.840,9.520,5.320
10354428,-0.991,-0.011,0.042,-12.110,12.600,5.460
10354447,-1.013,-0.050,0.041,-11.830,15.050,5.110
10354464,-1.017,-0.051,0.049,-11.690,20.370,5.950
10354484,-1.042,-0.096,0.053,-11.270,22.750,7.700
10354504,-1.074,0.015,0.018,-10.500,21.490,7.280
10354524,-1.038,-0.003,0.024,-20.090,27.790,8.610
10354548,-1.087,-0.096,0.070,-14.770,30.590,9.870
10354567,-1.131,-0.061,0.030,-10.430,32.970,11.340
10354588,-1.112,-0.029,0.007,-15.890,37.450,13.510
10354605,-1.101,-0.058,0.000,-13.790,36.820,13.860
10354625,-1.111,-0.125,0.013,-1.470,42.000,13.370
10354649,-1.089,-0.090,0.017,17.360,40.600,11.830
10354673,-1.206,-0.033,-0.047,37.310,13.580,3.220
10354694,-0.962,-0.062,-0.255,21.420,37.730,0.490
10354713,-0.892,-0.089,-0.246,29.820,33.810,0.210
10354733,-0.778,-0.033,-0.303,33.250,30.730,-1.960
10354753,-0.822,0.192,0.085,19.810,9.940,-4.760
10354773,-0.917,0.262,0.445,-4.480,-30.100,-2.100
10354791,-0.819,0.205,0.406,-33.110,-76.930,3.150
10354810,-0.911,0.039,0.296,-33.880,-106.400,5.600
10354832,-1.034,-0.073,0.180,-17.290,-130.760,4.900
10354856,-1.069,0.011,0.049,-6.090,-141.260,3.360
10354875,-1.144,0.047,-0.031,-0.910,-135.310,6.300
10354891,-1.190,0.062,-0.073,-3.220,-125.160,13.370
10354916,-1.131,-0.132,-0.162,-1.330,-108.710,12.460
10354936,-1.046,-0.241,-0.260,15.540,-93.240,1.890
10354955,-0.934,-0.133,-0.263,27.650,-72.660,-4.200
10354979,-0.913,-0.073,-0.206,25.550,-40.950,-6.230
10354999,-0.943,0.009,-0.175,20.160,-29.470,-9.030
10355015,-0.866,0.076,-0.136,1.540,-12.740,-10.430
10355039,-0.910,0.126,-0.072,-57.400,14.000,-21.770
10355059,-0.939,0.203,0.141,-39.620,17.150,-19.880
10355079,-1.132,-0.162,0.490,0.770,-5.180,-19.110
10355099,-0.963,-0.081,0.286,27.020,-3.010,-17.780
10355119,-0.983,0.068,0.101,39.550,10.220,-19.950
10355137,-1.070,0.144,0.176,42.280,16.660,-22.890
10355161,-1.032,0.071,0.136,29.260,20.580,-27.580
10355181,-1.095,0.016,0.184,18.340,20.230,-29.120
10355197,-1.002,-0.050,0.203,13.230,18.900,-27.860
10355218,-0.970,-0.059,0.161,-0.910,20.580,-23.800
10355239,-0.999,-0.012,0.145,-9.380,20.790,-22.330
10355263,-1.004,-0.048,0.169,-14.420,20.300,-22.400
10355280,-0.997,-0.175,0.123,-7.700,19.740,-24.570
10355299,-1.012,-0.112,0.130,10.500,18.270,-24.990
10355324,-1.012,-0.126,0.156,3.640,21.490,-21.770
10355342,-1.015,-0.188,0.148,6.930,20.230,-16.660
10355364,-0.996,-0.217,0.144,17.570,18.970,-9.380
10355388,-1.002,0.012,0.099,-4.410,17.360,-5.950
10355408,-1.024,-0.067,0.079,-15.260,17.430,-7.210
10355432,-0.982,-0.215,0.083,6.720,18.200,-6.650
10355449,-0.984,-0.118,0.077,9.730,18.060,-4.480
10355469,-0.985,-0.097,0.082,-3.570,17.010,-1.750
10355488,-1.011,-0.134,0.061,-7.070,15.890,0.490
10355510,-1.010,-0.110,0.031,-5.110,13.930,1.540
10355530,-1.022,-0.127,0.018,-7.630,12.180,3.220
10355554,-1.032,-0.128,0.020,-4.900,8.820,5.250
10355574,-1.021,-0.178,0.012,-6.510,6.860,9.240
10355594,-1.038,-0.113,0.037,-3.150,3.150,11.900
10355614,-1.012,-0.097,0.065,-5.320,6.160,11.830
10355638,-0.982,-0.116,0.067,0.280,9.170,11.480
10355658,-0.972,-0.086,0.073,2.450,12.390,10.010
10355678,-1.003,-0.058,0.015,3.640,13.160,7.980
10355698,-0.984,-0.022,-0.024,0.980,11.270,6.790
10355718,-0.979,-0.049,0.028,-7.980,10.080,6.370
10355737,-0.992,0.009,0.032,-20.300,8.890,5.110
10355760,-0.974,-0.035,0.003,-27.860,9.240,3.570
10355781,-0.967,-0.110,0.074,-25.760,15.890,-0.070
10355802,-1.010,-0.033,-0.032,-14.770,18.060,-2.660
10355822,-1.018,-0.131,0.070,-10.990,24.220,-5.530
10355842,-1.023,-0.112,-0.022,11.620,26.670,-3.500
10355862,-0.948,-0.091,-0.091,11.620,31.010,-7.000
10355886,-0.988,-0.052,-0.143,9.870,22.120,-10.710
10355904,-0.973,0.075,-0.040,-7.420,15.540,-11.480
10355922,-0.959,-0.069,-0.143,-17.570,12.320,-13.440
10355942,-1.003,-0.104,-0.006,-9.590,13.300,-16.520
10355966,-1.034,-0.023,0.082,-10.010,24.220,-17.500
10355986,-0.963,-0.222,-0.146,-9.940,28.700,-16.590
10356004,-0.998,-0.026,-0.084,-9.100,20.930,-18.270
10356028,-0.974,-0.077,-0.078,-19.740,26.600,-19.670
10356046,-0.988,-0.229,-0.157,-12.320,25.410,-19.530
10356068,-0.983,-0.062,-0.128,-17.080,22.890,-17.710
10356092,-1.045,-0.076,-0.136,-2.940,15.260,-17.290
10356112,-0.941,-0.210,-0.072,3.990,26.110,-18.270
10356129,-0.919,-0.200,-0.176,-1.330,20.580,-16.170
10356149,-1.130,-0.249,-0.160,20.020,2.590,-12.600
10356173,-1.011,-0.116,-0.221,13.930,10.570,-12.950
10356193,-1.008,-0.159,-0.069,5.040,5.810,-14.420
10356213,-0.919,-0.131,-0.236,-1.190,10.570,-12.530
10356236,-1.002,-0.219,-0.195,8.330,5.460,-14.070
10356260,-0.957,-0.083,-0.093,2.660,10.990,-12.810
10356277,-1.013,-0.142,-0.259,3.290,7.560,-12.250
10356298,-0.841,-0.230,-0.168,4.270,12.460,-10.990
10356318,-1.045,-0.176,-0.111,14.070,12.810,-6.720
10356338,-0.967,-0.178,-0.293,1.400,9.100,-6.790
10356357,-0.974,-0.236,-0.131,-0.630,18.970,-6.370
10356383,-0.924,-0.145,-0.156,4.410,15.330,-3.290
10356402,-0.908,-0.212,-0.286,-5.600,17.290,-8.890
10356420,-1.001,-0.233,-0.241,12.250,10.360,-8.120
10356442,-0.931,-0.061,-0.164,0.140,8.680,-7.980
10356462,-0.883,-0.330,-0.149,1.120,13.930,-9.310
10356483,-0.968,-0.201,-0.269,17.570,14.420,-5.810
10356505,-0.937,-0.033,-0.261,8.470,9.870,-7.560
10356523,-0.969,-0.315,-0.178,5.950,6.160,-10.640
10356542,-0.956,-0.203,-0.213,17.150,9.730,-7.280
10356562,-0.968,-0.176,-0.242,7.770,11.480,-10.150
10356583,-0.901,-0.345,-0.334,5.670,12.740,-11.970
10356603,-0.918,-0.195,-0.339,20.440,13.860,-8.400
10356627,-0.908,-0.111,-0.167,2.730,13.440,-13.370
10356646,-0.903,-0.199,-0.224,-2.100,12.390,-18.620
10356665,-0.965,-0.318,-0.247,1.050,11.200,-21.420
10356685,-0.813,-0.182,-0.359,14.490,6.370,-20.720
10356704,-0.944,-0.164,-0.193,0.770,11.340,-20.650
10356729,-0.894,-0.150,-0.178,-8.330,14.700,-20.720
10356745,-0.931,-0.333,-0.399,-9.170,0.000,-21.980
10356769,-0.917,-0.386,-0.330,2.100,9.170,-22.050
10356789,-0.927,-0.245,-0.265,2.380,6.300,-22.820
10356807,-1.014,-0.203,-0.313,0.910,6.300,-21.630
10356831,-0.909,-0.370,-0.349,1.750,2.660,-20.720
10356851,-0.863,-0.280,-0.349,3.710,5.670,-21.280
10356866,-0.898,-0.326,-0.237,1.610,9.310,-20.300
10356888,-0.929,-0.243,-0.325,-4.410,8.260,-16.660
10356912,-0.909,-0.425,-0.274,-3.990,6.440,-4.900
10356928,-0.919,-0.337,-0.347,1.190,3.290,1.050
10356947,-0.961,-0.298,-0.337,-4.270,6.510,3.150
10356972,-0.960,-0.393,-0.433,0.490,-3.290,9.660
10356987,-0.874,-0.362,-0.361,3.850,-1.330,14.700
10357012,-0.945,-0.309,-0.289,4.970,-1.750,14.980
10357030,-0.934,-0.293,-0.356,-3.080,-2.590,15.750
10357051,-0.881,-0.279,-0.373,-5.390,-6.440,16.450
10357075,-0.945,-0.254,-0.305,-2.520,-6.510,15.400
10357090,-0.960,-0.251,-0.290,-6.090,-9.380,14.350
10357115,-0.890,-0.270,-0.302,-5.950,-5.600,15.050
10357135,-0.944,-0.247,-0.299,-9.520,-6.510,16.310
10357159,-0.930,-0.249,-0.354,-7.630,-11.130,16.450
10357178,-0.935,-0.238,-0.304,-10.360,-10.990,17.080
10357197,-0.948,-0.241,-0.336,-7.910,-11.830,16.730
10357217,-0.931,-0.183,-0.385,-10.990,-13.440,15.260
10357239,-0.901,-0.246,-0.208,-7.630,-12.530,14.070
10357263,-0.953,-0.180,-0.303,-6.090,-13.930,10.920
10357283,-0.982,-0.268,-0.327,-9.030,-12.390,10.780
10357303,-0.931,-0.251,-0.329,-8.120,-12.110,12.950
10357322,-0.882,-0.134,-0.280,-15.120,-12.320,11.270
10357346,-0.997,-0.291,-0.206,-6.790,-21.140,8.470
10357363,-0.943,-0.242,-0.318,2.100,-17.990,11.550
10357387,-1.021,-0.111,-0.401,3.430,-23.660,16.310
10357407,-0.946,-0.175,-0.173,-4.060,-19.180,15.190
10357423,-0.945,-0.196,-0.318,-1.190,-23.940,15.610
10357446,-0.991,-0.119,-0.280,-8.260,-28.910,14.560
10357467,-0.946,-0.152,-0.310,-7.560,-25.830,14.140
10357487,-0.987,-0.143,-0.311,-11.900,-29.050,12.950
10357504,-0.971,-0.168,-0.237,-14.840,-29.610,13.860
10357528,-0.959,-0.215,-0.239,-6.510,-25.060,16.520
10357546,-0.986,-0.192,-0.287,-1.540,-32.690,17.850
10357565,-0.997,-0.089,-0.179,-1.820,-40.530,17.430
10357589,-0.969,-0.094,-0.242,-15.050,-37.380,16.590
10357609,-0.983,-0.121,-0.182,-15.470,-41.020,17.780
10357629,-1.017,-0.154,-0.183,-4.340,-42.000,17.920
10357653,-0.976,-0.121,-0.188,4.060,-40.180,17.640
10357671,-0.982,-0.088,-0.183,7.140,-42.490,17.500
10357692,-1.015,-0.052,-0.074,12.670,-45.290,15.330
10357713,-0.968,-0.094,-0.189,13.160,-39.480,15.610
10357734,-1.043,-0.079,-0.208,10.220,-52.290,16.380
10357753,-1.073,-0.066,-0.072,14.350,-55.790,16.310
10357771,-1.026,-0.035,0.003,5.530,-55.930,17.710
10357790,-0.946,-0.151,-0.149,7.840,-52.150,21.770
10357814,-0.946,-0.063,-0.037,16.170,-56.980,16.870
10357835,-0.910,-0.063,0.088,25.410,-45.570,13.720
10357850,-1.029,-0.000,-0.021,17.360,-48.720,13.860
10357870,-0.919,0.053,0.061,19.880,-40.460,6.650
10357893,-0.894,0.098,0.154,10.570,-32.550,1.890
10357912,-0.969,-0.019,0.068,7.910,-26.390,0.420
10357936,-0.986,-0.015,0.143,4.760,-21.350,-0.350
10357956,-0.987,-0.034,0.121,-2.030,-13.580,0.840
10357976,-1.025,0.028,0.069,-8.750,-11.060,1.400
10357994,-1.026,-0.041,0.068,-10.500,-9.450,2.030
10358016,-0.984,-0.021,0.111,-9.170,-6.580,0.910
10358039,-1.037,-0.023,0.018,2.380,-9.450,-0.630
10358060,-1.020,0.018,0.058,0.700,-11.270,-3.780
10358078,-0.930,-0.026,0.116,5.110,-8.190,-5.110
10358102,-0.966,-0.073,0.093,14.630,-5.810,-4.620
10358122,-0.946,-0.053,0.124,8.610,-2.240,-1.960
10358142,-0.875,-0.017,0.220,-2.310,9.030,1.190
10358157,-0.912,0.092,0.296,-15.890,19.250,1.540
10358182,-0.927,0.098,0.247,-46.200,38.500,-5.390
10358199,-0.923,-0.019,0.197,-42.350,54.390,-13.230
10358222,-1.053,0.029,0.046,-32.410,58.520,-22.260
10358240,-0.957,-0.006,-0.088,-31.360,66.290,-27.370
10358260,-0.938,-0.028,-0.161,-17.010,61.670,-30.940
10358284,-0.850,0.061,-0.303,-17.010,51.940,-31.010
10358302,-1.171,-0.156,0.020,-21.840,26.460,-35.980
10358323,-1.105,-0.409,0.034,2.870,32.970,-33.530
10358343,-1.050,0.094,-0.042,14.980,31.080,-30.450
10358363,-0.886,-0.001,0.080,-19.110,43.820,-33.110
10358387,-0.935,-0.197,-0.378,-25.760,29.190,-28.770
10358407,-0.891,-0.269,-0.287,13.930,28.420,-26.670
10358427,-1.312,-0.188,-0.295,38.710,24.080,-23.170
10358447,-0.867,-0.019,-0.065,18.270,35.630,-23.870
10358467,-1.060,-0.138,-0.217,4.130,25.620,-22.260
10358487,-0.804,-0.311,-0.037,-11.690,36.190,-19.180
10358506,-1.014,-0.236,-0.306,-2.800,25.550,-11.480
10358524,-1.035,-0.142,-0.369,13.230,13.580,-12.740
10358548,-0.851,0.004,-0.122,-10.080,21.630,-16.030
10358565,-1.094,-0.313,-0.269,8.120,19.040,-13.510
10358588,-0.953,-0.149,-0.378,15.750,17.430,-15.400
10358606,-0.981,-0.024,-0.022,9.870,19.250,-19.460
10358625,-1.081,-0.304,-0.125,-6.650,29.610,-16.870
10358645,-0.723,-0.342,-0.212,5.250,36.330,-13.090
10358669,-0.930,-0.195,-0.301,26.110,27.230,-6.860
10358689,-0.933,-0.014,-0.363,3.710,13.720,-9.520
10358708,-0.861,-0.330,-0.124,0.280,25.130,-14.980
10358732,-1.083,-0.123,-0.314,9.730,19.180,-11.620
10358752,-0.955,-0.194,-0.172,-0.840,31.150,-11.130
10358769,-0.891,-0.417,-0.339,9.170,29.470,-11.270
10358788,-1.029,-0.109,-0.427,10.920,20.510,-6.580
10358813,-0.907,-0.294,-0.328,2.030,19.950,-8.750
10358832,-0.955,-0.276,-0.254,7.210,17.850,-10.780
10358853,-0.948,-0.138,-0.436,6.580,-0.350,-12.250
10358870,-0.914,-0.353,-0.363,1.400,-0.560,-11.900
10358893,-0.895,-0.229,-0.240,17.500,0.070,-10.640
10358914,-0.996,-0.164,-0.372,10.570,-14.630,-15.260
10358933,-0.909,-0.283,-0.395,4.060,-15.190,-18.200
10358956,-0.951,-0.391,-0.257,20.930,-19.110,-17.990
10358980,-0.950,-0.221,-0.233,14.140,-11.830,-18.060
10359000,-1.009,-0.168,-0.360,6.020,-9.310,-17.430
10359020,-0.801,-0.472,-0.361,6.510,-9.940,-14.070
10359040,-0.844,-0.206,-0.288,16.450,-10.570,-14.490
10359055,-0.991,-0.236,-0.208,10.710,-5.880,-14.980
10359078,-0.891,-0.348,-0.129,0.770,-5.600,-9.450
10359100,-0.788,-0.340,-0.305,3.780,-3.920,-3.010
10359120,-0.992,-0.274,-0.214,-0.350,-2.380,-3.640
10359139,-0.933,-0.362,-0.349,-5.530,-5.460,-1.680
10359164,-0.888,-0.290,-0.286,-4.200,-1.120,2.380
10359184,-1.122,-0.296,-0.371,0.700,-7.980,4.270
10359201,-0.861,-0.295,-0.291,0.140,-1.960,5.390
10359225,-0.918,-0.264,-0.317,0.770,-7.560,8.190
10359244,-0.856,-0.329,-0.307,-3.430,-5.390,8.540
10359265,-1.015,-0.283,-0.224,1.400,-5.670,10.500
10359285,-0.887,-0.268,-0.326,-5.740,-6.860,12.950
10359309,-0.902,-0.325,-0.272,-6.300,-4.340,13.790
10359329,-0.944,-0.267,-0.285,-2.030,-5.530,14.490
10359349,-0.984,-0.169,-0.314,-9.800,-7.910,12.460
10359369,-0.963,-0.252,-0.299,-9.940,-4.760,12.320
10359385,-0.931,-0.339,-0.226,-1.610,-5.810,13.860
10359409,-0.946,-0.202,-0.277,-2.730,-6.790,11.130
10359429,-0.915,-0.216,-0.368,-14.140,-9.240,8.750
10359449,-0.958,-0.292,-0.257,-3.500,-13.020,7.000
10359469,-0.897,-0.185,-0.266,-10.080,-13.440,6.720
10359487,-0.980,-0.323,-0.269,-2.660,-13.300,6.510
10359511,-0.958,-0.213,-0.313,-2.380,-14.140,7.770
10359532,-0.949,-0.220,-0.175,-4.340,-17.150,8.540
10359551,-0.981,-0.258,-0.317,-4.760,-16.240,11.200
10359571,-0.962,-0.252,-0.334,-3.990,-16.170,14.070
10359592,-0.983,-0.208,-0.069,-3.710,-18.550,16.310
10359611,-0.993,-0.189,-0.356,-10.500,-27.580,17.430
10359628,-0.971,-0.220,-0.344,-12.460,-35.700,15.330
10359648,-0.960,-0.222,-0.262,-10.780,-32.550,16.100
10359667,-0.945,-0.234,-0.130,-13.720,-35.420,18.060
10359690,-0.970,-0.228,-0.207,-0.770,-37.800,21.910
10359709,-1.025,-0.061,-0.306,-3.430,-40.810,22.050
10359733,-0.913,-0.228,-0.157,1.750,-41.230,20.860
10359751,-0.923,-0.249,-0.000,9.100,-37.380,20.300
10359771,-0.983,-0.023,-0.187,7.980,-39.340,26.950
10359790,-0.981,-0.169,-0.043,5.250,-37.590,21.420
10359810,-0.993,-0.179,-0.320,7.070,-34.860,25.690
10359833,-0.984,-0.077,-0.097,3.570,-41.090,22.400
10359854,-0.982,-0.086,0.063,19.880,-41.230,17.640
10359874,-1.035,-0.132,-0.380,14.140,-36.190,24.710
10359898,-1.143,-0.006,-0.072,1.890,-56.910,20.020
10359918,-0.982,-0.175,-0.275,9.730,-46.060,26.600
10359935,-1.098,0.085,-0.116,11.620,-59.290,27.440
10359959,-0.915,-0.147,0.037,13.790,-58.100,21.420
10359979,-0.973,-0.027,0.081,31.430,-53.760,19.810
10359998,-0.923,-0.021,0.060,12.880,-49.840,16.870
10360022,-0.849,-0.044,0.132,24.640,-43.190,9.450
10360042,-0.882,-0.033,0.183,31.080,-37.590,6.370
10360058,-0.960,0.106,0.089,24.220,-29.190,3.990
10360082,-0.982,0.105,0.127,0.840,-16.800,-1.890
10360102,-1.008,0.003,0.088,-6.090,-16.100,-1.260
10360120,-0.889,-0.099,0.087,-6.440,-20.090,-2.730
10360139,-1.017,-0.114,0.103,3.010,-10.990,-1.470
10360164,-0.985,-0.067,0.114,4.270,-5.320,1.470
10360182,-1.021,-0.030,0.071,0.840,-6.370,3.220
10360201,-1.058,0.011,0.027,-5.040,-10.710,4.200
10360226,-1.033,-0.007,0.100,-8.680,-6.930,0.910
10360244,-0.992,-0.052,0.102,-3.710,-6.580,1.540
10360265,-1.009,0.009,0.072,-1.960,-8.050,0.980
10360285,-1.014,0.006,0.092,-6.440,-7.070,-0.070
10360304,-0.984,-0.053,0.093,-5.460,-7.000,-0.700
10360329,-0.996,-0.009,0.124,-4.830,-5.320,0.000
10360347,-0.945,-0.039,0.163,-8.120,1.260,-0.280
10360364,-0.921,-0.041,0.211,-7.140,9.590,0.280
10360389,-0.938,0.076,0.171,-24.080,21.070,4.970
10360406,-0.936,0.162,0.202,-47.320,27.580,2.450
10360429,-0.845,0.230,0.231,-81.130,47.180,-7.420
10360447,-0.929,-0.103,0.356,-94.080,60.200,-17.080
10360471,-0.842,-0.408,0.141,-16.520,77.350,-33.880
10360490,-1.089,-0.160,-0.134,29.470,77.560,-36.890
10360506,-1.031,0.115,-0.289,28.000,64.050,-37.590
10360526,-0.977,0.063,-0.131,-4.340,64.260,-37.100
10360550,-1.056,-0.062,0.034,-14.630,37.730,-38.290
10360569,-0.702,-0.161,-0.209,-25.900,59.920,-31.290
10360593,-1.036,-0.124,-0.200,-19.390,44.240,-28.980
10360613,-1.003,-0.198,-0.325,-23.310,69.160,-19.040
10360633,-1.291,-0.314,0.244,6.860,11.130,-24.780
10360651,-0.770,-0.224,-0.237,21.280,47.040,-16.170
10360670,-0.974,-0.173,-0.220,34.930,56.700,-13.580
10360690,-0.883,-0.079,-0.273,28.210,59.990,-16.870
10360715,-1.158,0.015,-0.242,-0.560,36.750,-15.260
10360735,-1.155,-0.277,-0.432,13.020,3.500,-16.380
10360755,-0.511,-0.226,-0.302,-28.210,66.920,-12.180
10360775,-1.015,-0.201,-0.374,20.160,24.710,-9.660
10360797,-1.083,-0.077,-0.515,41.160,21.770,-4.550
10360816,-1.002,0.078,-0.114,14.140,17.010,-8.820
10360839,-0.963,-0.208,-0.234,-7.210,17.990,-10.710
10360861,-1.102,-0.287,-0.433,13.090,30.450,-7.840
10360885,-0.982,-0.007,-0.331,6.090,19.810,-11.550
10360905,-1.063,-0.207,-0.400,-11.060,8.540,-16.730
10360924,-0.903,-0.305,-0.340,2.730,15.470,-7.980
10360948,-0.842,-0.303,-0.271,15.260,16.590,-4.340
10360967,-1.045,-0.048,-0.492,10.920,9.100,-7.000
10360988,-0.977,-0.179,-0.325,9.660,0.840,-7.770
10361007,-0.880,-0.242,-0.275,4.760,2.100,-8.470
10361031,-0.923,-0.319,-0.314,16.940,9.030,-7.350
10361047,-0.913,-0.163,-0.265,16.730,13.300,-7.700
10361066,-1.053,-0.010,-0.461,0.070,2.870,-10.920
10361092,-0.962,-0.241,-0.279,-3.990,-2.170,-14.420
10361111,-0.912,-0.241,-0.390,8.680,4.410,-12.040
10361127,-0.923,-0.208,-0.424,9.310,1.190,-11.690
10361150,-0.879,-0.206,-0.326,8.960,1.260,-14.420
10361166,-1.024,-0.185,-0.408,12.950,-3.430,-15.540
10361191,-0.916,-0.199,-0.341,9.380,-2.800,-15.610
10361211,-0.987,-0.391,-0.314,6.370,-3.710,-12.670
10361229,-0.951,-0.196,-0.353,11.830,-4.130,-13.370
10361253,-0.829,-0.206,-0.423,1.400,-5.600,-15.890
10361271,-0.890,-0.325,-0.355,15.400,-6.930,-15.610
10361290,-0.987,-0.133,-0.279,18.410,-14.350,-14.770
10361314,-0.912,-0.202,-0.355,-11.340,-9.660,-14.000
10361334,-0.757,-0.569,-0.374,32.200,-8.260,-6.090
10361353,-0.913,-0.133,-0.199,16.590,-9.310,-0.840
10361378,-0.899,-0.202,-0.328,-4.270,-7.630,-6.860
10361398,-0.830,-0.278,-0.366,-5.880,-5.530,-3.640
10361415,-1.013,-0.461,-0.357,-7.910,-1.540,1.260
10361438,-0.893,-0.207,-0.311,3.500,-4.270,9.240
10361454,-0.957,-0.240,-0.374,-6.580,-7.280,9.940
10361474,-0.879,-0.330,-0.336,-2.450,-5.810,10.570
10361494,-0.949,-0.323,-0.352,2.590,-6.790,12.320
10361519,-0.977,-0.215,-0.322,-3.850,-11.550,14.910
10361538,-0.930,-0.288,-0.363,-7.350,-8.820,19.040
10361559,-0.961,-0.265,-0.321,0.210,-5.670,22.400
10361577,-0.949,-0.177,-0.354,-6.440,-8.960,20.720
10361597,-0.842,-0.139,-0.379,-9.520,-8.400,16.520
10361619,-0.938,-0.194,-0.224,-2.940,-13.230,10.850
10361637,-0.925,-0.197,-0.294,-1.890,-10.500,4.830
10361661,-1.007,-0.209,-0.399,-4.060,-18.270,4.130
10361681,-0.947,-0.185,-0.250,-4.760,-19.110,3.080
10361705,-0.909,-0.246,-0.140,-4.200,-9.590,-1.050
10361724,-0.927,-0.262,-0.449,-6.650,-12.530,5.530
10361742,-0.931,-0.231,-0.421,2.240,-24.500,10.150
10361766,-0.955,-0.136,-0.243,-13.090,-27.440,13.370
10361786,-0.961,-0.245,-0.155,-14.840,-23.380,18.270
10361806,-0.909,-0.289,-0.332,-9.170,-20.440,20.160
10361825,-1.032,-0.121,-0.274,0.210,-31.010,21.210
10361843,-1.027,-0.116,-0.488,-8.540,-47.110,20.510
10361863,-0.944,-0.151,-0.244,-12.040,-45.640,15.330
10361887,-0.948,-0.130,-0.132,-10.850,-47.110,17.010
10361904,-1.036,-0.217,-0.358,-12.670,-41.580,18.270
10361925,-0.949,-0.182,-0.365,-4.970,-47.040,18.970
10361945,-1.053,-0.133,-0.214,0.910,-59.710,21.560
10361969,-0.998,-0.101,-0.131,-4.690,-62.720,24.220
10361988,-0.922,-0.055,-0.061,-22.190,-58.450,24.010
10362009,-1.006,-0.189,-0.185,-6.650,-55.020,26.670
10362029,-0.998,-0.165,-0.105,1.400,-65.240,26.530
10362048,-0.991,-0.176,-0.066,16.730,-56.910,26.740
10362068,-1.027,-0.069,-0.140,26.390,-60.900,24.850
10362087,-0.903,-0.086,0.075,24.360,-59.500,23.310
10362112,-0.983,-0.214,-0.109,38.500,-66.430,18.130
10362130,-1.005,0.106,-0.047,40.950,-57.680,17.220
10362149,-0.944,0.114,0.208,11.690,-53.270,11.060
10362173,-0.879,0.019,0.153,8.050,-44.660,3.360
10362193,-0.926,-0.004,0.096,10.640,-29.470,-1.820
10362213,-1.006,0.046,0.134,7.910,-22.260,-3.500
10362233,-1.026,-0.027,0.077,-3.360,-22.750,-2.100
10362254,-0.994,-0.043,0.090,-7.280,-18.970,0.980
10362276,-0.965,-0.019,0.146,-13.160,-15.260,1.400
10362296,-0.998,-0.068,0.070,-9.100,-13.930,2.730
10362315,-0.981,-0.055,0.156,-3.500,-14.420,2.660
10362340,-0.977,0.001,0.109,0.910,-10.710,-0.070
10362360,-0.973,0.003,0.108,0.840,-7.140,-4.270
10362380,-0.933,-0.043,0.097,8.330,-0.840,-6.580
10362396,-0.906,-0.106,0.165,14.630,3.990,-7.140
10362420,-0.939,-0.042,0.157,14.350,10.640,-5.950
10362444,-0.942,0.025,0.149,0.630,18.550,-2.660
10362464,-0.995,-0.004,0.180,-11.760,21.350,-2.800
10362484,-0.948,0.024,0.114,-18.620,29.820,-4.620
10362504,-0.927,0.033,0.185,-25.970,42.000,-8.470
10362524,-0.955,-0.076,0.214,-24.850,49.770,-12.950
10362543,-1.029,-0.045,0.026,-21.140,55.790,-18.410
10362563,-0.958,0.002,-0.079,-17.220,63.420,-25.900
10362583,-0.956,0.128,-0.006,-23.100,70.490,-32.760
10362603,-0.967,-0.129,-0.197,-34.020,65.800,-33.320
10362627,-1.036,-0.393,-0.308,12.740,51.380,-36.960
10362642,-1.053,0.073,0.060,5.600,43.610,-33.180
10362667,-0.927,-0.165,-0.181,-14.770,62.790,-28.140
10362686,-1.037,-0.060,-0.193,-8.890,45.430,-24.920
10362707,-0.885,-0.181,-0.000,-10.710,54.530,-25.200
10362730,-1.071,-0.396,-0.188,9.590,51.170,-23.310
10362751,-1.032,-0.074,-0.317,18.830,56.350,-20.090
10362770,-0.890,-0.079,-0.100,21.000,50.400,-18.060
10362791,-0.883,-0.281,-0.416,17.290,55.790,-12.810
10362811,-1.117,-0.026,-0.272,0.350,21.280,-11.900
10362831,-1.109,-0.175,-0.252,-4.690,26.390,-14.490
10362850,-0.715,-0.011,-0.261,-21.420,33.670,-17.220
10362869,-1.229,-0.224,-0.137,17.220,12.320,-18.200
10362888,-1.203,-0.446,-0.101,30.800,7.070,-18.480
10362913,-0.890,0.072,-0.582,31.010,-9.730,-17.430
10362929,-1.042,-0.291,-0.376,18.410,-30.170,-16.380
10362948,-0.604,-0.309,-0.093,11.060,9.380,-13.160
10362973,-1.036,-0.180,-0.366,23.730,4.130,-10.010
10362993,-1.020,-0.153,-0.306,-1.610,6.160,-13.580
10363013,-0.918,-0.209,-0.197,-2.730,3.990,-13.160
10363033,-0.845,-0.270,-0.297,4.340,3.920,-11.690
10363052,-0.869,-0.118,-0.340,7.280,4.200,-13.860
10363068,-1.031,-0.153,-0.388,3.430,-10.360,-15.820
10363088,-0.903,-0.214,-0.361,4.200,-9.800,-17.920
10363113,-0.902,-0.295,-0.167,12.110,-4.900,-18.340
10363130,-0.955,-0.252,-0.236,19.880,-7.350,-17.430
10363154,-1.023,-0.183,-0.304,8.750,-10.640,-17.710
10363173,-0.880,-0.277,-0.348,-5.880,-13.160,-17.710
10363193,-0.749,-0.322,-0.341,4.690,-2.380,-14.560
10363213,-0.844,-0.202,-0.067,14.700,0.980,-14.070
10363237,-0.877,-0.312,-0.275,0.070,4.340,-9.590
10363257,-0.876,-0.271,-0.223,-1.960,-4.200,-6.370
10363277,-0.909,-0.317,-0.345,4.690,-1.190,-2.240
10363297,-0.830,-0.338,-0.189,0.840,4.410,-0.490
10363315,-0.833,-0.366,-0.227,7.560,15.470,1.540
10363339,-0.966,-0.162,-0.365,11.060,4.060,1.680
10363359,-0.962,-0.229,-0.220,-5.390,0.560,-1.610
10363378,-0.968,-0.385,-0.323,1.120,-1.890,-1.750
10363402,-0.949,-0.318,-0.224,11.340,-3.500,-2.100
10363423,-0.956,-0.113,-0.297,-8.610,-2.730,-1.400
10363443,-0.948,-0.377,-0.250,1.120,-5.180,3.220
10363467,-0.955,-0.163,-0.258,-3.430,-3.780,4.200
10363491,-0.918,-0.307,-0.233,-4.340,-1.750,6.930
10363507,-0.948,-0.256,-0.350,3.990,-7.350,10.640
10363527,-0.942,-0.264,-0.298,-8.680,-6.580,11.900
10363546,-0.951,-0.353,-0.160,-6.020,-7.280,13.300
10363571,-0.971,-0.178,-0.290,-6.090,-8.750,14.630
10363591,-0.956,-0.232,-0.306,-8.190,-9.170,15.470
10363611,-0.966,-0.265,-0.295,-8.050,-8.540,18.760
10363627,-0.880,-0.287,-0.286,-2.590,-6.580,19.600
10363647,-0.956,-0.191,-0.133,-4.410,-6.370,17.220
10363670,-0.901,-0.204,-0.261,1.190,-7.210,12.110
10363691,-1.020,-0.072,-0.245,-7.910,-11.410,7.490
10363711,-0.959,-0.263,-0.338,-9.100,-13.580,5.040
10363729,-0.940,-0.249,-0.145,-0.980,-13.440,6.160
10363750,-0.939,-0.260,-0.210,3.570,-10.780,7.770
10363771,-1.065,-0.223,-0.372,-3.080,-6.020,10.430
10363791,-0.956,-0.136,-0.299,-8.330,-16.660,11.480
10363811,-0.980,-0.136,-0.144,-15.260,-22.190,12.040
10363829,-0.973,-0.243,-0.254,-16.730,-22.260,11.900
10363853,-0.980,-0.256,-0.212,0.770,-21.140,12.320
10363869,-1.034,-0.179,-0.324,3.850,-25.410,15.470
10363893,-1.035,-0.243,-0.429,-1.260,-52.920,14.770
10363913,-0.970,-0.184,-0.185,4.060,-42.840,14.630
10363933,-0.984,-0.092,-0.055,-10.220,-37.240,15.050
10363952,-1.026,-0.127,-0.319,-18.550,-37.730,21.420
10363976,-1.055,-0.257,-0.305,-15.120,-51.380,19.320
10363996,-0.972,-0.210,-0.142,-3.150,-46.270,20.510
10364015,-1.006,-0.122,-0.124,6.090,-48.440,21.700
10364036,-0.986,-0.028,-0.004,-2.450,-44.030,21.770
10364053,-0.956,-0.191,-0.165,-7.980,-38.360,23.800
10364076,-1.077,-0.153,-0.242,-2.800,-48.370,26.180
10364095,-1.052,-0.075,-0.229,9.590,-58.240,25.060
10364113,-1.059,-0.095,0.038,7.560,-63.700,21.210
10364137,-1.030,-0.024,-0.126,10.710,-63.490,28.280
10364155,-0.928,-0.096,0.114,6.230,-68.880,20.930
10364173,-0.807,-0.123,0.182,8.960,-55.580,19.670
10364192,-0.887,0.061,0.052,21.490,-44.940,11.130
10364212,-0.940,0.050,0.150,8.190,-38.220,3.010
10364233,-0.925,-0.092,0.114,13.650,-29.820,0.910
10364257,-0.915,-0.017,0.170,12.390,-22.750,-0.490
10364275,-0.962,-0.008,0.159,0.840,-13.930,-0.350
10364299,-1.005,-0.044,0.089,-0.770,-9.940,-2.730
10364319,-1.036,0.004,0.167,2.800,-2.590,-2.870
10364339,-1.001,-0.059,0.142,-2.100,2.030,-4.130
10364357,-0.982,-0.092,0.061,-1.680,4.340,-3.080
10364381,-0.987,-0.114,0.080,13.580,3.570,-4.410
10364401,-1.024,0.014,0.092,7.420,5.880,-3.290
10364421,-0.998,0.010,0.064,-1.400,4.830,-2.940
10364440,-0.957,-0.073,0.062,-1.680,4.200,-2.590
10364465,-0.990,-0.075,0.054,4.410,2.870,-2.520
10364484,-0.986,-0.036,0.085,-1.540,5.880,-2.380
10364503,-0.984,-0.034,0.070,-1.680,7.560,-1.890
10364528,-0.984,-0.103,0.093,0.910,13.090,-2.590
10364548,-1.005,-0.047,0.074,2.870,14.000,-2.380
10364568,-0.978,-0.037,0.117,0.420,18.480,-1.890
10364587,-0.982,-0.035,0.100,-7.210,22.610,-1.330
10364608,-0.968,0.020,0.070,-16.100,22.120,-2.870
10364632,-0.919,-0.052,0.009,-19.600,27.510,-5.810
10364652,-0.983,-0.065,0.002,-5.880,28.350,-8.190
10364671,-1.006,0.124,-0.015,-5.250,30.660,-12.110
10364690,-0.943,0.025,-0.026,-11.620,36.050,-16.660
10364711,-0.935,0.035,0.016,-15.960,43.400,-20.720
10364735,-0.952,-0.071,0.007,-22.890,53.970,-22.470
10364752,-1.034,-0.276,-0.100,2.940,52.990,-22.610
10364773,-1.060,-0.015,-0.172,7.070,44.800,-19.810
10364795,-0.946,-0.002,-0.202,-6.790,45.640,-20.860
10364818,-1.026,-0.043,-0.238,-14.630,38.430,-21.350
10364835,-0.925,-0.009,-0.179,-30.100,16.380,-22.680
10364859,-1.022,-0.263,-0.217,-25.970,34.930,-20.300
10364876,-1.374,-0.338,-0.088,9.520,19.740,-18.550
10364895,-0.761,-0.021,-0.105,10.920,35.210,-15.050
10364915,-0.952,-0.180,-0.335,-3.010,48.720,-13.090
10364937,-0.880,0.045,-0.094,3.010,25.970,-14.280
10364961,-1.166,-0.282,-0.166,-10.430,23.870,-11.830
10364981,-0.936,-0.256,-0.392,24.080,8.820,-11.830
10365001,-0.938,-0.080,-0.232,30.030,19.670,-14.630
10365019,-0.919,-0.180,-0.239,5.390,42.700,-12.180
10365041,-0.775,-0.138,-0.298,14.070,26.180,-15.050
10365060,-1.003,-0.138,-0.335,14.490,28.490,-12.600
10365085,-0.941,-0.098,-0.219,11.620,23.030,-13.440
10365105,-0.930,-0.148,-0.384,8.820,15.890,-14.700
10365125,-0.959,-0.255,-0.220,7.210,15.680,-12.530
10365148,-0.904,-0.217,-0.322,11.900,20.860,-9.380
10365167,-0.998,-0.120,-0.425,13.230,13.300,-13.370
10365187,-0.927,-0.089,-0.319,1.400,5.950,-15.540
10365207,-0.831,-0.197,-0.109,0.560,2.940,-13.090
10365229,-1.001,-0.254,-0.435,19.460,0.910,-11.550
10365248,-1.073,-0.055,-0.393,14.700,0.980,-12.810
10365268,-0.996,-0.315,-0.326,2.590,2.030,-13.860
10365292,-0.806,-0.203,-0.322,7.910,5.040,-9.450
10365312,-0.900,-0.292,-0.303,8.050,4.830,-8.190
10365336,-1.058,-0.228,-0.433,9.590,-6.440,-5.110
10365356,-0.878,-0.258,-0.256,9.520,-7.490,-2.030
10365375,-0.962,-0.348,-0.382,0.770,-18.480,-1.470
10365394,-0.878,-0.415,-0.268,28.140,-7.770,1.470
10365418,-1.006,0.026,-0.263,0.000,-11.270,-5.740
10365438,-0.999,-0.238,-0.346,-2.030,-7.350,-8.120
10365462,-0.855,-0.391,-0.344,17.150,-4.550,-3.080
10365486,-0.878,-0.176,-0.274,10.920,-7.140,-6.370
10365504,-0.990,-0.069,-0.048,15.120,-11.830,-7.280
10365526,-1.038,-0.300,-0.382,-9.590,-11.550,-9.590
10365546,-0.989,-0.205,-0.398,7.910,-9.450,-8.190
10365566,-0.992,-0.223,-0.418,0.490,-13.300,-6.300
10365585,-0.835,-0.238,-0.189,3.430,-5.810,-6.230
10365602,-0.856,-0.328,-0.260,0.700,-8.540,-5.950
10365625,-0.992,-0.302,-0.283,9.310,-8.330,0.350
10365646,-0.925,-0.142,-0.210,0.560,-5.460,1.610
10365666,-0.982,-0.176,-0.309,-4.340,-9.870,-3.010
10365685,-0.936,-0.297,-0.275,-5.110,-7.840,-4.200
10365709,-0.944,-0.212,-0.321,-0.840,-9.870,-0.420
10365724,-0.895,-0.286,-0.204,-7.070,-11.830,1.470
10365750,-0.940,-0.324,-0.265,6.370,-7.490,6.930
10365769,-0.974,-0.231,-0.295,-7.000,-11.550,9.450
10365788,-0.941,-0.350,-0.249,-9.310,-11.410,10.990
10365812,-0.935,-0.200,-0.254,-4.200,-9.730,13.860
10365829,-0.922,-0.188,-0.270,-8.540,-9.450,12.670
10365849,-0.900,-0.281,-0.234,-3.010,-7.350,10.360
10365869,-0.913,-0.216,-0.297,-3.640,-6.930,11.340
10365889,-0.924,-0.160,-0.312,-3.430,-10.500,10.500
10365908,-0.999,-0.278,-0.221,-4.830,-11.200,10.290
10365929,-0.962,-0.201,-0.231,-0.910,-4.900,10.500
10365949,-0.917,-0.113,-0.298,-9.870,-11.410,9.310
10365973,-0.989,-0.159,-0.245,-12.110,-12.810,8.260
10365993,-0.979,-0.260,-0.226,-8.260,-14.140,9.030
10366013,-0.990,-0.203,-0.244,-1.960,-11.550,9.940
10366031,-0.990,-0.149,-0.355,-5.320,-15.330,10.430
10366051,-0.953,-0.179,-0.325,-10.710,-19.320,13.230
10366075,-0.985,-0.229,-0.130,-9.380,-23.940,15.330
10366094,-0.986,-0.169,-0.250,-4.830,-22.680,14.000
10366118,-1.054,-0.110,-0.323,-12.180,-29.820,10.570
10366135,-1.047,0.024,-0.336,-19.110,-35.770,16.030
10366159,-0.981,-0.228,-0.223,-12.110,-41.020,12.530
10366179,-0.984,-0.181,-0.099,-6.860,-40.250,15.890
10366199,-0.956,-0.150,-0.082,-7.980,-35.070,13.720
10366219,-1.052,-0.145,-0.201,-14.420,-32.620,17.150
10366239,-1.071,0.033,-0.375,-24.080,-53.900,20.580
10366259,-0.829,-0.125,0.145,-17.780,-40.530,16.450
10366279,-1.019,-0.211,-0.072,0.770,-42.490,20.020
10366296,-1.000,-0.032,-0.151,0.420,-38.220,22.890
10366315,-1.021,-0.174,-0.302,-15.400,-40.530,22.750
10366340,-1.125,-0.083,-0.170,8.750,-53.060,21.350
10366360,-0.927,-0.142,-0.024,-5.880,-51.940,23.240
10366380,-1.109,0.018,-0.158,11.550,-65.520,28.140
10366400,-0.939,-0.082,0.062,-1.680,-71.050,18.270
10366424,-0.929,-0.165,0.100,11.200,-59.990,23.100
10366440,-0.909,-0.149,0.016,24.570,-57.540,19.320
10366464,-0.950,0.015,0.107,35.910,-50.890,10.990
10366484,-0.888,0.091,0.142,23.450,-40.950,7.630
10366500,-0.931,0.122,0.096,15.750,-34.930,5.180
10366520,-0.961,0.058,0.180,0.490,-28.700,0.700
10366540,-0.954,0.009,0.174,-4.130,-20.160,-1.190
10366564,-0.978,-0.065,0.174,-1.890,-13.580,-2.450
10366583,-1.005,0.000,0.126,6.300,-8.750,-1.400
10366602,-0.984,0.012,0.150,-2.730,-3.920,-0.350
10366622,-0.978,-0.048,0.133,-4.410,-2.310,0.910
10366644,-1.001,-0.025,0.129,-0.840,17.850,1.050
10366667,-1.012,-0.025,0.121,-2.730,1.190,1.190
10366687,-1.013,-0.008,0.081,-3.780,0.980,1.680
10366707,-0.989,-0.003,0.098,-3.780,0.210,0.560
10366729,-0.986,-0.039,0.131,0.630,0.420,-1.400
10366748,-1.018,-0.013,0.104,7.070,1.960,-2.030
10366773,-0.998,0.026,0.106,-1.330,3.080,-2.170
10366791,-0.975,-0.054,0.100,-0.700,4.130,-1.750
10366815,-0.956,-0.014,0.115,5.600,6.790,-2.800
10366830,-0.970,0.006,0.118,5.390,9.870,-3.220
10366855,-0.981,-0.047,0.122,3.920,13.860,-3.570
10366875,-0.991,-0.013,0.088,6.230,15.120,-2.590
10366895,-0.980,0.051,0.090,-2.870,17.780,-1.890
10366915,-0.963,-0.007,0.096,-8.820,21.770,-3.010
10366939,-0.951,-0.071,0.131,-6.650,29.610,-4.760
10366959,-0.976,0.018,0.116,-1.680,33.600,-7.210
10366977,-1.004,0.051,0.106,-9.030,43.190,-10.220
10366999,-1.027,0.042,0.043,-13.510,48.370,-14.840
10367022,-0.878,0.055,0.003,-27.230,52.850,-17.220
10367042,-0.997,-0.171,-0.041,-16.800,48.860,-20.930
10367062,-1.026,-0.024,-0.179,5.530,48.650,-24.360
10367082,-0.961,0.070,-0.154,-7.490,41.580,-24.920
10367104,-0.983,-0.008,-0.128,-5.040,43.820,-28.910
10367128,-1.021,0.030,0.039,-14.770,41.370,-27.580
10367148,-0.982,-0.187,-0.182,-9.730,51.030,-24.850
10367167,-1.039,-0.021,-0.224,-6.580,36.610,-27.020
10367183,-1.025,0.034,-0.101,-22.120,40.810,-27.930
10367203,-0.883,-0.082,-0.046,-39.690,47.180,-28.490
10367227,-0.934,-0.360,-0.328,-14.420,46.690,-26.740
10367247,-1.175,-0.279,-0.241,26.180,26.180,-24.010
10367268,-0.936,-0.069,-0.261,15.470,46.830,-20.230
10367285,-0.997,-0.072,-0.170,4.130,41.580,-19.600
10367309,-0.788,-0.244,-0.381,-18.480,54.810,-13.650
10367325,-1.209,-0.168,-0.407,5.110,23.030,-10.570
10367349,-1.106,-0.101,-0.353,12.040,12.110,-12.530
10367369,-0.920,-0.070,-0.206,4.970,16.380,-14.070
10367389,-1.007,-0.246,-0.272,4.970,29.610,-11.970
10367406,-1.131,-0.280,-0.337,28.630,14.420,-12.180
10367427,-0.976,-0.017,-0.403,25.830,4.480,-16.170
10367451,-1.002,-0.149,-0.341,5.810,-7.560,-20.440
10367468,-0.660,-0.136,-0.154,-2.310,9.100,-17.010
10367488,-1.167,-0.388,-0.466,35.490,1.260,-15.610
10367512,-1.192,-0.104,-0.431,35.910,-13.860,-18.900
10367532,-0.831,-0.102,-0.364,19.460,-21.910,-19.460
10367552,-0.945,-0.477,-0.241,31.990,16.940,-17.150
10367575,-1.129,0.209,-0.236,49.210,-7.000,-18.340
10367596,-1.136,-0.145,-0.405,-5.390,0.910,-23.660
10367614,-0.829,-0.353,-0.266,8.400,7.490,-14.280
10367635,-1.000,-0.250,-0.259,6.300,-0.350,-5.390
10367655,-0.929,-0.299,-0.288,-4.410,0.770,-7.770
10367679,-0.889,-0.265,-0.320,5.600,7.350,-5.670
10367699,-0.974,-0.135,-0.403,3.990,2.520,-7.840
10367718,-0.945,-0.231,-0.215,1.750,0.910,-13.020
10367738,-0.868,-0.199,-0.295,-2.800,-2.940,-15.400
10367757,-0.891,-0.349,-0.379,4.130,-5.180,-15.260
10367782,-0.915,-0.278,-0.224,11.620,-2.800,-14.840
10367802,-0.872,-0.358,-0.340,3.150,3.150,-8.820
10367822,-0.798,-0.303,-0.230,0.350,4.690,-4.060
10367842,-0.911,-0.306,-0.271,1.540,3.290,4.060
10367866,-0.860,-0.320,-0.296,-7.910,11.200,9.730
10367886,-0.809,-0.363,-0.347,2.870,14.420,20.160
10367906,-0.952,-0.229,-0.377,14.140,8.260,26.110
10367930,-0.846,-0.066,-0.292,7.770,25.970,19.110
10367947,-1.118,-0.066,-0.376,-7.980,10.080,14.000
10367971,-0.922,-0.315,-0.453,1.120,4.760,7.840
10367991,-0.964,-0.182,-0.339,1.190,-3.500,6.090
10368011,-0.898,-0.251,-0.431,0.280,-7.980,7.840
10368027,-0.969,-0.234,-0.288,-2.800,-17.290,7.560
10368051,-0.975,-0.273,-0.448,-6.230,-23.450,9.450
10368067,-0.918,-0.211,-0.357,-2.030,-22.610,12.110
10368091,-1.047,-0.198,-0.275,0.560,-26.880,12.180
10368111,-0.873,-0.196,-0.355,-4.480,-24.920,11.970
10368130,-0.940,-0.106,-0.289,-7.210,-24.080,10.010
10368154,-0.899,-0.294,-0.208,-3.500,-14.840,7.070
10368174,-0.884,-0.147,-0.356,2.940,-17.640,7.350
10368193,-0.924,-0.135,-0.222,-8.330,-21.980,2.800
10368217,-0.943,-0.203,-0.193,-7.840,-16.660,-1.540
10368237,-0.989,-0.198,-0.363,-1.890,-23.590,2.240
10368256,-0.948,-0.160,-0.282,-8.750,-20.580,5.040
10368276,-0.983,-0.300,-0.176,-1.680,-20.720,6.860
10368296,-0.909,-0.173,-0.296,1.820,-17.430,9.520
10368319,-0.927,-0.116,-0.300,-14.420,-21.490,10.850
10368339,-0.955,-0.240,-0.230,-5.250,-24.150,12.320
10368358,-1.042,-0.144,-0.363,-2.590,-30.170,17.150
10368383,-0.959,-0.205,-0.233,-9.450,-28.000,15.540
10368402,-0.948,-0.136,-0.048,2.100,-25.690,15.120
10368419,-1.072,-0.124,-0.530,-9.170,-27.300,19.320
10368442,-0.948,-0.189,-0.340,-16.030,-37.590,16.310
10368462,-0.955,-0.196,-0.069,-4.970,-40.040,16.310
10368487,-0.952,-0.068,-0.249,-10.570,-38.290,22.400
10368506,-0.995,-0.129,-0.101,-5.320,-40.180,18.130
10368523,-0.934,-0.120,-0.059,-3.920,-35.490,17.570
10368542,-1.001,-0.057,-0.162,-14.630,-34.720,20.440
10368567,-1.041,-0.177,-0.327,-5.740,-46.270,18.970
10368587,-0.996,-0.032,-0.092,-2.660,-52.430,17.290
10368605,-0.902,-0.138,-0.030,-9.870,-38.360,16.240
10368628,-1.091,-0.084,-0.175,6.860,-52.360,18.830
10368649,-0.978,-0.110,-0.112,7.560,-50.820,18.130
10368667,-1.119,-0.096,-0.233,28.140,-65.940,18.690
10368691,-0.927,0.047,0.056,17.080,-61.530,19.180
10368706,-0.950,-0.122,0.031,8.960,-62.230,13.860
10368731,-1.027,-0.011,0.017,7.700,-62.930,23.100
10368751,-0.943,0.012,0.057,3.990,-55.720,19.320
10368769,-0.926,0.047,0.208,1.960,-50.470,13.580
10368791,-0.928,0.070,0.118,0.840,-46.970,5.180
10368815,-0.907,0.093,0.133,1.890,-33.880,0.000
10368835,-0.939,-0.041,0.204,-7.000,-27.510,-2.870
10368855,-0.939,-0.093,0.151,1.050,-20.090,-3.780
10368879,-0.973,-0.049,0.187,11.620,-10.990,-2.170
10368899,-1.000,0.034,0.169,11.620,-6.020,-2.730
10368922,-0.976,0.060,0.158,-4.760,-0.210,-0.840
10368941,-0.959,-0.049,0.166,-8.470,4.200,0.350
10368962,-0.982,-0.040,0.112,-3.710,5.180,0.980
10368985,-1.012,0.034,0.101,-3.290,5.110,0.000
10369005,-1.014,0.024,0.096,-8.330,3.360,-1.330
10369029,-1.026,-0.013,0.056,-6.160,0.000,-1.820
10369049,-1.007,-0.056,0.064,-0.770,-2.100,-1.120
10369069,-1.013,-0.009,0.081,1.120,-3.850,0.770
10369089,-1.010,-0.010,0.101,-3.010,-3.080,3.080
10369109,-0.960,-0.039,0.160,-6.510,0.630,3.500
10369128,-0.951,-0.040,0.168,1.680,4.060,2.240
10369153,-0.979,0.015,0.130,8.330,10.360,-1.960
10369171,-0.962,0.028,0.130,9.030,12.950,-3.850
10369193,-0.972,0.057,0.148,1.960,20.160,-4.690
10369211,-0.950,0.033,0.137,-7.910,25.760,-5.600
10369230,-0.912,-0.022,0.162,-9.100,37.030,-8.400
10369255,-0.931,0.029,0.176,-11.200,49.630,-11.970
10369275,-0.938,0.005,0.088,-16.450,65.940,-15.540
10369299,-0.992,-0.035,-0.007,-10.990,62.020,-17.500
10369314,-0.954,0.039,-0.078,-14.700,66.360,-19.810
10369334,-1.005,0.015,-0.200,-14.910,57.540,-23.380
10369354,-1.042,0.040,-0.172,-20.300,43.680,-26.390
10369378,-0.992,-0.174,-0.100,-3.360,42.630,-29.680
10369399,-1.037,-0.074,0.045,11.200,43.540,-27.020
10369419,-0.968,-0.122,-0.072,0.420,53.830,-22.540
10369436,-1.003,-0.061,-0.148,-4.270,51.660,-20.020
10369455,-1.037,0.086,-0.218,-26.460,45.780,-19.460
10369474,-0.949,-0.101,-0.160,-28.980,44.310,-19.460
10369498,-0.960,-0.270,-0.230,-7.770,46.130,-18.690
10369519,-0.963,-0.122,-0.244,9.380,42.630,-16.660
10369538,-1.021,-0.086,-0.250,10.290,47.390,-19.810
10369560,-0.854,-0.053,-0.185,-10.150,38.920,-19.880
10369584,-1.104,-0.129,-0.238,0.980,30.520,-18.760
10369603,-0.947,-0.177,-0.305,6.090,37.590,-17.850
10369627,-0.942,-0.068,-0.255,10.080,24.990,-17.430
10369643,-1.262,-0.179,-0.231,29.330,-1.820,-23.100
10369667,-0.977,-0.245,-0.285,50.050,13.300,-27.580
10369682,-0.694,-0.057,-0.365,18.340,17.010,-25.130
10369707,-1.100,-0.234,-0.366,29.470,8.680,-28.490
10369725,-0.936,0.001,-0.263,17.780,10.150,-28.840
10369745,-1.053,-0.241,-0.356,-1.890,11.200,-27.300
10369769,-0.908,-0.182,-0.407,13.160,13.020,-22.260
10369789,-0.989,-0.140,-0.323,10.430,-2.310,-24.850
10369810,-0.833,-0.275,-0.308,-0.770,-5.320,-20.510
10369825,-0.895,-0.447,-0.363,17.570,3.080,-14.280
10369844,-0.837,-0.100,-0.146,32.620,-12.040,-13.650
10369864,-1.017,-0.383,-0.306,3.150,5.040,-10.920
10369889,-1.048,-0.156,-0.393,15.540,-8.680,-5.040
10369909,-0.912,-0.252,-0.268,4.410,-9.240,-6.020
10369927,-0.833,-0.386,-0.249,-0.770,9.660,-6.580
10369951,-0.923,-0.114,-0.372,9.730,2.310,-10.850
10369970,-0.998,-0.188,-0.348,8.960,-5.110,-15.400
10369990,-0.959,-0.305,-0.226,7.070,-3.920,-15.820
10370013,-0.883,-0.261,-0.381,6.020,-10.080,-14.420
10370030,-1.005,-0.224,-0.151,-1.260,-8.050,-14.350
10370050,-0.770,-0.257,-0.389,3.360,-5.530,-15.820
10370069,-0.844,-0.372,-0.270,6.300,-2.730,-13.860
10370089,-0.848,-0.271,-0.284,9.450,-4.410,-8.470
10370113,-0.915,-0.150,-0.125,9.240,-5.880,-7.560
10370134,-0.979,-0.236,-0.167,-9.030,8.260,-6.930
10370152,-0.815,-0.542,-0.510,-9.310,3.710,-3.080
10370176,-0.907,-0.201,-0.285,11.900,-0.420,-1.610
10370195,-1.034,-0.123,-0.232,-11.130,5.250,-5.810
10370216,-0.892,-0.338,-0.388,-15.050,-3.220,-1.820
10370233,-0.879,-0.384,-0.385,-1.680,-5.110,3.710
10370257,-0.935,-0.351,-0.272,2.450,-7.840,9.730
10370277,-0.940,-0.209,-0.257,0.420,-4.130,9.450
10370292,-0.867,-0.246,-0.364,-7.350,-5.460,10.500
10370317,-0.893,-0.392,-0.271,3.220,-9.240,16.240
10370335,-0.909,-0.153,-0.317,1.610,-9.870,16.030
10370359,-0.909,-0.196,-0.291,-8.960,-9.520,14.560
10370379,-0.891,-0.311,-0.317,0.630,-11.760,16.030
10370394,-0.947,-0.199,-0.280,-1.750,-12.600,15.960
10370419,-0.982,-0.219,-0.335,-6.860,-7.980,17.710
10370442,-0.886,-0.203,-0.233,-6.160,-7.980,18.480
10370459,-0.931,-0.250,-0.252,-6.440,-11.130,18.480
10370482,-0.929,-0.247,-0.294,-2.100,-7.210,17.710
10370503,-0.999,-0.180,-0.317,1.820,-4.690,15.960
10370522,-0.891,0.026,-0.192,-6.510,-13.790,11.830
10370546,-0.936,-0.283,-0.290,-6.020,-13.720,9.100
10370565,-0.927,-0.205,-0.290,3.220,-13.790,7.840
10370590,-0.935,-0.136,-0.197,0.280,-12.880,5.670
10370610,-0.990,-0.183,-0.304,-9.310,-15.260,14.490
10370630,-0.906,-0.282,-0.235,5.670,-16.030,17.920
10370646,-0.963,-0.102,-0.281,-1.750,-19.530,21.000
10370670,-1.016,-0.165,-0.302,-13.930,-30.660,19.390
10370690,-1.009,-0.175,-0.215,-16.520,-30.030,21.350
10370709,-0.977,-0.081,-0.205,-14.770,-33.390,24.150
10370729,-1.004,-0.145,-0.121,-5.040,-34.510,20.860
10370749,-0.752,-0.134,-0.016,-3.430,-23.730,14.000
10370770,-1.140,-0.106,-0.410,1.190,-19.180,19.110
10370794,-0.982,-0.060,-0.452,-12.600,-38.220,14.070
10370810,-0.950,-0.088,-0.219,-14.840,-42.770,10.920
10370834,-1.026,-0.102,-0.170,-13.580,-51.240,10.780
10370854,-0.976,-0.102,-0.205,-10.570,-51.730,10.640
10370878,-0.995,-0.113,-0.083,-7.560,-48.300,12.600
10370898,-0.903,-0.279,-0.089,7.980,-41.510,17.640
10370916,-1.013,-0.093,-0.106,19.810,-51.170,23.380
10370936,-1.035,-0.020,-0.062,4.830,-49.840,27.230
10370959,-1.000,-0.031,-0.189,-9.170,-50.750,28.140
10370978,-0.962,-0.026,-0.017,-9.940,-52.570,26.110
10371003,-0.946,-0.239,0.121,0.700,-45.220,23.310
10371023,-1.075,-0.140,-0.218,34.790,-50.960,21.070
10371042,-1.057,0.121,-0.018,33.530,-54.390,17.080
10371063,-0.884,0.029,0.173,-3.850,-44.100,15.960
10371079,-0.914,-0.025,-0.034,9.870,-40.740,13.020
10371103,-0.965,0.081,0.110,7.910,-36.750,6.300
10371121,-0.913,0.003,0.115,7.630,-27.720,3.150
10371141,-0.973,0.002,0.079,10.290,-25.130,1.260
10371160,-0.952,-0.042,0.120,14.770,-20.230,-0.210
10371185,-0.935,0.019,0.144,15.050,-12.180,-0.350
10371205,-1.101,0.079,0.081,4.480,-15.960,-0.700
10371223,-1.015,0.100,0.127,-10.920,-14.000,-1.190
10371245,-0.993,-0.066,0.100,-6.160,-10.990,-2.730
10371264,-0.976,-0.027,0.113,5.950,-9.870,-1.610
10371287,-0.975,0.031,0.158,-1.190,-4.900,-1.820
10371307,-0.983,-0.028,0.136,-1.610,-1.890,-1.470
10371331,-1.021,0.000,0.083,-3.010,-1.820,0.140
10371352,-1.004,0.019,0.085,-7.210,-2.520,0.350
10371371,-0.996,0.007,0.085,-7.210,-3.360,-0.490
10371390,-1.000,0.020,0.107,-8.960,-2.380,-3.010
10371412,-0.983,0.107,0.195,-3.150,6.230,-8.400
10371428,-0.972,-0.010,0.173,-6.720,10.430,-8.330
10371451,-0.946,-0.046,0.145,3.640,21.140,-9.800
10371470,-0.847,0.042,0.195,3.500,32.620,-11.480
10371490,-0.996,-0.129,0.157,11.550,39.060,-12.110
10371514,-1.025,0.023,0.106,1.750,47.110,-8.750
10371532,-1.004,0.091,0.065,-12.250,49.840,-7.980
10371556,-0.994,0.091,-0.031,-28.630,47.810,-10.290
10371573,-0.995,-0.085,-0.079,-29.050,40.810,-14.910
10371592,-0.965,-0.117,-0.062,-11.410,39.690,-19.880
10371616,-0.940,-0.075,-0.142,8.750,35.840,-26.880
10371637,-0.916,0.064,-0.116,5.740,33.040,-31.780
10371652,-0.940,0.068,-0.061,-6.720,34.790,-33.950
10371675,-1.122,-0.028,0.025,-13.510,39.480,-39.270
10371694,-1.079,-0.154,0.034,-8.400,47.880,-41.300
10371718,-0.945,-0.220,-0.144,-2.240,53.060,-36.890
10371739,-0.974,0.110,-0.325,1.190,19.040,-40.600
10371759,-0.952,0.038,-0.088,-20.370,36.890,-38.010
10371778,-0.937,-0.241,-0.202,-36.470,42.280,-35.630
10371801,-0.953,-0.309,-0.217,-9.240,39.270,-30.100
10371818,-0.883,-0.160,-0.184,-3.640,46.130,-22.540
10371837,-1.152,-0.260,-0.228,12.390,41.790,-19.390
10371862,-0.864,-0.110,-0.192,-2.520,42.770,-18.060
10371886,-0.973,-0.080,-0.192,-8.190,31.780,-18.550
10371906,-0.847,-0.328,-0.327,0.840,46.130,-12.880
10371924,-1.065,-0.262,-0.337,28.700,31.640,-12.740
10371944,-1.047,-0.060,-0.325,18.900,35.140,-11.900
10371963,-0.935,-0.037,-0.218,-5.320,8.190,-18.620
10371986,-0.943,-0.366,-0.326,3.500,24.080,-13.720
10372006,-1.066,-0.302,-0.415,19.180,17.920,-5.810
10372030,-0.833,-0.093,-0.370,13.580,29.330,-4.760
10372050,-0.917,-0.243,-0.287,-1.120,21.350,-5.390
10372074,-1.010,-0.359,-0.265,25.760,12.950,-2.170
10372093,-0.916,-0.110,-0.298,9.870,17.150,-4.200
10372114,-0.991,-0.195,-0.355,10.640,9.870,-12.110
10372130,-0.988,-0.192,-0.481,17.640,-0.280,-13.510
10372150,-0.876,-0.194,-0.397,5.670,0.910,-11.550
10372174,-0.810,-0.334,-0.227,16.520,18.480,-7.420
10372192,-0.997,-0.090,-0.494,34.860,-10.920,-14.420
10372213,-0.952,-0.194,-0.405,3.850,2.240,-18.690
10372233,-1.052,-0.337,-0.404,2.380,-12.880,-2.100
10372257,-0.845,-0.156,-0.434,3.150,-2.800,-9.940
10372273,-0.875,-0.291,-0.351,-2.170,-5.880,-7.490
10372296,-0.748,-0.313,-0.385,-9.030,-2.940,5.180
10372315,-0.853,-0.453,-0.326,-6.860,-7.700,15.120
10372337,-0.939,-0.271,-0.438,0.980,-12.180,23.100
10372361,-0.937,-0.053,-0.229,-10.290,-11.480,14.000
10372381,-0.787,-0.210,-0.352,-0.630,-5.320,4.410
10372396,-0.963,-0.185,-0.339,10.150,-11.690,-2.800
10372421,-0.969,-0.098,-0.318,11.970,-11.130,-13.300
10372440,-0.915,-0.112,-0.324,-0.070,-7.070,-15.400
10372462,-0.868,-0.409,-0.381,9.800,-9.240,-11.760
10372480,-0.906,-0.229,-0.209,15.820,-3.010,-9.660
10372504,-1.000,-0.247,-0.356,-6.790,-5.320,-8.260
10372521,-0.882,-0.383,-0.323,-3.640,-1.540,-3.850
10372545,-0.905,-0.307,-0.345,0.700,0.140,4.270
10372565,-0.932,-0.296,-0.339,-0.210,-4.130,8.680
10372585,-0.851,-0.200,-0.305,-3.430,-2.590,8.820
10372605,-0.937,-0.230,-0.404,-12.530,-10.500,6.580
10372629,-0.927,-0.228,-0.313,-5.810,-14.280,7.490
10372646,-0.899,-0.273,-0.267,-1.120,-10.850,5.460
10372665,-0.932,-0.253,-0.315,-1.960,-11.760,6.650
10372690,-0.912,-0.308,-0.273,-3.010,-11.200,13.790
10372710,-0.931,-0.231,-0.298,-1.890,-10.290,16.520
10372730,-0.926,-0.245,-0.294,-4.060,-6.300,16.310
10372750,-0.948,-0.148,-0.327,-2.730,-6.020,16.380
10372769,-0.927,-0.202,-0.279,-5.110,-3.080,16.870
10372792,-0.907,-0.242,-0.271,-3.780,-6.720,14.210
10372811,-0.938,-0.115,-0.313,-3.990,-6.230,13.650
10372835,-0.968,-0.197,-0.239,-6.300,-6.020,12.110
10372855,-0.936,-0.148,-0.308,-3.920,-5.390,9.520
10372872,-1.016,-0.160,-0.349,-6.860,-7.840,7.420
10372894,-0.987,-0.161,-0.335,-2.870,-12.250,4.760
10372912,-0.916,-0.140,-0.285,-5.670,-14.700,5.250
10372932,-0.908,-0.202,-0.286,-9.030,-10.990,6.650
10372957,-0.978,-0.248,-0.225,0.560,-15.540,8.330
10372976,-1.020,-0.137,-0.386,-1.260,-20.510,11.270
10372996,-0.907,-0.142,-0.347,-7.000,-20.370,10.430
10373016,-0.955,-0.099,-0.259,-8.540,-26.390,12.110
10373036,-0.925,-0.168,-0.092,-13.090,-23.590,8.820
10373060,-1.052,-0.172,-0.341,-5.530,-12.880,12.880
10373080,-0.956,-0.150,-0.401,-1.890,-34.160,12.880
10373097,-0.931,-0.080,-0.207,1.260,-38.990,15.050
10373121,-0.987,-0.059,-0.214,-5.180,-41.860,17.780
10373136,-0.964,-0.060,-0.212,-16.800,-34.370,17.360
10373156,-0.917,-0.132,-0.187,-25.270,-29.750,17.430
10373181,-1.103,-0.185,-0.260,-6.510,-40.320,19.810
10373200,-0.971,-0.106,-0.236,3.850,-39.130,20.720
10373218,-0.948,-0.075,-0.208,-2.800,-37.100,21.140
10373238,-1.037,-0.062,-0.101,6.370,-47.810,18.200
10373262,-1.053,-0.034,-0.178,4.480,-48.020,18.970
10373287,-1.027,-0.035,-0.103,3.220,-50.960,16.870
10373306,-0.957,-0.186,-0.178,14.840,-49.630,17.920
10373325,-1.086,-0.069,-0.133,30.240,-59.360,16.380
10373345,-0.978,0.003,-0.041,23.240,-53.200,20.230
10373365,-0.953,-0.009,0.045,13.510,-51.310,17.500
10373389,-0.978,-0.070,-0.066,20.300,-56.770,15.680
10373408,-0.917,-0.046,0.097,20.370,-49.630,8.750
10373427,-0.981,-0.088,-0.043,26.600,-45.150,12.110
10373451,-0.976,0.147,-0.016,26.670,-48.230,9.030
10373470,-0.922,0.150,0.078,1.960,-45.920,6.650
10373490,-0.922,0.038,0.074,-10.220,-42.700,3.920
10373509,-0.949,-0.031,0.114,-4.900,-38.640,0.280
10373534,-0.990,-0.085,0.158,18.480,-28.210,-1.330
10373553,-1.007,0.077,0.162,19.740,-23.940,-2.450
10373577,-0.967,0.062,0.225,4.060,-17.990,-1.890
10373597,-0.904,-0.055,0.247,-6.300,-3.500,0.070
10373617,-0.952,-0.051,0.198,1.470,4.270,0.910
10373638,-0.969,0.037,0.166,-3.290,9.100,0.490
10373657,-1.025,0.035,0.089,-8.890,10.220,0.630
10373676,-0.997,-0.021,0.076,-7.210,9.240,-0.070
10373699,-0.993,-0.024,0.094,-6.090,9.170,0.210
10373715,-1.030,-0.001,0.057,-1.960,5.950,-0.210
10373740,-1.028,0.008,0.047,-1.750,2.800,-0.910
10373755,-1.017,0.020,0.044,0.560,1.400,-2.100
10373779,-1.016,0.004,0.055,3.850,-0.070,-2.590
10373798,-0.956,-0.025,0.118,5.600,2.940,-3.430
10373817,-0.994,0.002,0.089,10.080,5.390,-6.790
10373842,-0.984,0.056,0.092,14.910,10.430,-11.410
10373862,-0.964,-0.080,0.114,31.220,13.790,-12.530
10373881,-0.978,-0.013,0.082,28.070,17.780,-9.660
10373905,-0.938,0.020,0.110,11.550,22.260,-7.070
10373924,-0.924,-0.065,0.161,4.060,31.290,-4.200
10373944,-1.026,0.086,0.037,-3.010,33.740,-3.080
10373963,-0.980,0.077,0.058,-22.120,38.640,-5.320
10373982,-0.915,0.080,0.062,-32.410,48.370,-7.910
10374007,-0.963,-0.011,0.062,-50.680,57.820,-12.390
10374027,-1.001,-0.109,0.003,-22.540,57.400,-18.480
10374045,-0.993,0.166,-0.261,-24.150,55.510,-22.750
10374067,-1.019,0.009,-0.109,-31.920,53.970,-33.740
10374086,-1.075,0.039,-0.075,-20.160,50.540,-37.730
10374110,-1.153,0.032,-0.221,-37.520,39.690,-45.500
10374129,-1.056,0.116,-0.104,-45.990,31.570,-48.930
10374148,-0.818,-0.066,-0.356,-85.190,25.550,-44.170
10374173,-1.045,-0.408,-0.195,-30.870,26.880,-34.930
10374193,-0.943,-0.281,-0.082,9.660,23.800,-28.350
10374209,-0.890,-0.190,-0.397,9.030,36.680,-20.300
10374229,-1.097,-0.175,-0.039,23.380,19.740,-24.010
10374253,-0.879,-0.234,-0.280,10.430,41.930,-14.210
10374273,-0.983,-0.151,-0.201,11.900,29.750,-11.410
10374291,-0.813,-0.145,-0.133,-2.030,22.540,-8.890
10374312,-1.150,-0.376,-0.298,27.230,17.990,-9.240
10374336,-0.996,0.028,-0.301,20.160,4.620,-14.280
10374356,-0.892,-0.081,-0.264,0.700,19.460,-18.340
10374372,-0.951,-0.120,-0.227,-2.100,21.280,-20.650
10374396,-0.955,-0.270,-0.096,8.680,21.910,-23.310
10374416,-1.070,-0.280,-0.370,30.800,22.330,-18.130
10374436,-1.025,-0.123,-0.263,9.870,21.910,-20.090
10374456,-0.824,-0.274,-0.326,-4.060,21.070,-20.230
10374472,-1.010,-0.359,-0.370,17.780,4.830,-17.360
10374496,-0.800,-0.113,-0.152,9.870,16.170,-13.230
10374516,-0.935,-0.308,-0.420,16.590,14.420,-12.880
10374539,-1.028,-0.059,-0.441,12.040,5.950,-13.650
10374560,-1.032,-0.156,-0.106,-0.350,2.170,-10.010
10374580,-0.718,-0.443,-0.386,21.560,10.220,-10.640
10374600,-0.967,-0.055,-0.367,33.460,-0.560,-12.320
10374617,-0.857,-0.180,-0.385,13.160,12.390,-10.290
10374637,-0.833,-0.340,-0.361,35.070,18.060,-15.120
10374657,-1.021,-0.008,-0.240,13.790,3.010,-20.440
10374681,-1.040,-0.349,-0.337,-0.070,3.080,-23.590
10374701,-0.918,-0.359,-0.341,17.920,8.260,-19.390
10374721,-0.915,-0.154,-0.336,4.060,7.700,-17.640
10374740,-0.933,-0.340,-0.272,0.000,2.030,-15.750
10374761,-0.909,-0.260,-0.367,1.820,-5.110,-11.410
10374780,-0.992,-0.257,-0.312,-3.010,-2.730,-9.240
10374804,-0.852,-0.575,-0.362,6.930,1.610,-2.380
10374824,-0.900,-0.236,-0.393,11.830,-6.300,-0.700
10374842,-1.088,-0.152,-0.330,4.760,-11.480,-6.370
10374863,-0.893,-0.150,-0.231,-17.710,-5.670,-15.820
10374881,-0.822,-0.207,-0.368,-1.680,-5.040,-16.940
10374905,-0.994,-0.263,-0.337,1.890,-14.210,-14.350
10374925,-0.861,-0.400,-0.268,-0.140,-7.630,-10.290
10374945,-0.860,-0.438,-0.411,9.310,-12.670,-3.290
10374964,-0.918,-0.250,-0.260,7.140,-7.000,-2.730
10374984,-0.965,-0.264,-0.303,1.400,-3.640,-2.870
10375005,-0.860,-0.370,-0.295,1.400,-5.180,-1.820
10375024,-0.916,-0.304,-0.320,7.000,-8.470,1.120
10375049,-0.947,-0.245,-0.350,1.890,-9.800,2.660
10375067,-0.869,-0.361,-0.313,3.010,-9.590,5.880
10375089,-0.879,-0.318,-0.281,4.410,-13.160,10.150
10375112,-0.930,-0.288,-0.250,6.650,-9.450,11.620
10375133,-0.880,-0.266,-0.319,-1.540,-7.210,11.130
10375153,-0.909,-0.386,-0.270,-4.340,-8.820,10.920
10375171,-0.946,-0.304,-0.235,4.830,-9.170,12.110
10375192,-0.953,-0.259,-0.297,0.840,-6.930,10.430
10375216,-0.933,-0.244,-0.333,-3.290,-5.250,8.540
10375236,-0.933,-0.329,-0.281,-1.960,-8.330,7.980
10375256,-0.933,-0.191,-0.304,-1.330,-6.370,8.890
10375276,-0.913,-0.228,-0.286,-2.240,-5.880,11.620
10375300,-0.912,-0.463,-0.307,3.500,-6.160,19.180
10375320,-0.969,-0.175,-0.050,1.400,-12.460,18.410
10375340,-0.892,-0.356,-0.318,-10.640,-3.500,19.530
10375356,-0.902,-0.205,-0.386,-11.410,-13.370,20.650
10375380,-0.938,-0.226,-0.265,-15.470,-17.850,15.120
10375399,-0.932,-0.229,-0.364,-12.180,-15.120,10.780
10375420,-0.944,-0.234,-0.205,-2.380,-18.130,15.330
10375438,-0.976,-0.223,-0.238,1.820,-20.020,16.100
10375462,-1.053,-0.084,-0.331,-4.480,-28.840,19.250
10375479,-0.998,-0.150,-0.344,-12.530,-28.280,16.940
10375500,-0.918,-0.225,-0.216,-15.610,-33.530,18.410
10375524,-0.993,-0.239,-0.291,-9.240,-36.750,24.500
10375542,-0.964,-0.236,-0.108,-2.100,-37.660,22.960
10375564,-0.961,-0.195,-0.078,-3.920,-33.670,20.510
10375584,-1.002,-0.005,-0.295,-24.850,-42.140,23.310
10375606,-0.949,-0.140,-0.109,-13.790,-43.050,20.090
10375624,-1.020,-0.175,-0.156,-16.870,-41.370,22.190
10375648,-0.964,-0.166,-0.193,-7.000,-38.710,18.480
10375665,-0.987,-0.198,-0.182,12.040,-38.990,19.740
10375686,-0.953,-0.149,-0.030,4.760,-40.740,19.670
10375710,-1.025,-0.123,-0.182,5.950,-41.300,24.290
10375729,-1.051,-0.061,-0.196,-3.010,-44.870,23.730
10375748,-1.055,-0.027,-0.075,-4.900,-51.800,23.800
10375772,-0.981,-0.120,-0.050,-1.540,-50.610,28.490
10375791,-1.011,-0.149,-0.128,6.510,-53.130,30.380
10375810,-0.966,-0.089,0.054,5.180,-53.830,26.880
10375835,-0.953,-0.185,-0.041,27.090,-51.450,24.640
10375851,-0.997,0.015,0.087,23.520,-50.400,20.790
10375875,-0.954,-0.029,0.059,30.450,-46.200,15.540
10375895,-0.967,0.194,0.078,31.080,-43.610,7.490
10375915,-0.978,0.187,0.122,3.010,-34.230,2.170
10375934,-1.007,0.076,0.077,-11.900,-37.100,0.350
10375954,-0.995,-0.107,0.079,-10.850,-32.550,-1.470
10375975,-0.992,-0.136,0.129,5.740,-32.830,-0.560
10375995,-0.968,-0.026,0.102,13.930,-28.910,1.260
10376014,-0.912,0.054,0.243,3.710,-20.440,-0.630
10376039,-0.883,-0.044,0.243,3.220,-8.890,-1.120
10376059,-0.955,-0.043,0.209,6.930,0.280,-1.960
10376083,-0.995,0.014,0.154,0.980,4.410,-0.560
10376100,-1.014,0.016,0.110,-10.780,6.020,0.210
10376121,-0.988,-0.037,0.088,-9.660,5.880,0.000
10376140,-1.011,-0.046,0.053,-1.680,3.010,-0.420
10376160,-1.007,0.012,0.068,1.540,0.210,-0.840
10376184,-0.982,-0.020,0.135,0.140,2.100,-1.750
10376204,-1.037,-0.019,0.101,4.410,1.820,-1.680
10376221,-0.997,-0.033,0.089,3.570,2.450,-1.890
10376243,-0.967,-0.010,0.091,12.040,1.960,-2.380
10376267,-0.972,0.016,0.128,6.440,5.320,-2.800
10376287,-1.017,-0.028,0.096,7.070,6.790,-0.700
10376307,-0.941,-0.040,0.154,2.590,13.020,1.400
10376322,-0.922,-0.028,0.207,1.330,19.670,1.400
10376346,-0.967,0.039,0.109,0.140,26.110,0.910
10376363,-1.005,0.048,0.111,-8.890,29.120,-0.350
10376387,-0.937,0.043,0.127,-16.380,40.530,-2.520
10376407,-0.887,0.017,0.125,-21.420,53.550,-6.300
10376427,-0.893,0.155,0.200,-38.710,72.310,-14.700
10376444,-0.962,0.025,0.181,-51.170,83.720,-22.400
10376467,-0.996,0.085,-0.305,-39.760,74.340,-29.750
10376486,-1.156,0.516,-0.314,-50.890,59.080,-34.160
10376505,-0.925,-0.289,-0.196,-83.580,57.610,-42.770
10376529,-1.067,-0.410,-0.108,-25.480,48.860,-39.270
10376550,-0.931,-0.233,-0.175,9.730,49.420,-32.340
10376567,-1.064,-0.059,-0.100,1.610,46.900,-32.970
10376591,-0.914,-0.127,-0.309,-25.900,46.130,-22.960
10376611,-0.997,-0.286,-0.209,-3.570,45.360,-21.700
10376631,-0.958,-0.163,-0.222,13.650,51.240,-15.750
10376651,-1.114,-0.117,-0.181,17.220,31.920,-19.880
10376671,-0.750,-0.125,-0.439,-19.390,56.770,-14.700
10376691,-1.038,-0.209,-0.243,26.740,21.840,-16.240
10376714,-1.040,0.010,-0.281,22.050,41.930,-11.970
10376734,-1.095,-0.202,-0.225,7.630,37.170,-14.350
10376758,-0.700,-0.102,-0.334,0.490,51.240,-15.260
10376778,-0.997,-0.203,-0.399,21.280,32.830,-15.260
10376797,-1.057,-0.223,-0.335,18.410,20.160,-12.040
10376817,-0.812,-0.035,-0.264,25.340,-2.310,-16.100
10376839,-1.044,-0.247,-0.356,4.550,19.180,-12.880
10376857,-0.894,-0.252,-0.410,26.670,16.660,-12.810
10376881,-1.023,-0.114,-0.366,24.850,3.500,-17.080
10376900,-0.928,-0.025,-0.287,10.080,-10.010,-16.030
10376921,-0.803,-0.303,-0.342,15.330,3.710,-15.330
10376941,-0.996,-0.166,-0.343,25.900,-3.290,-17.850
10376965,-0.982,-0.101,-0.336,15.960,-1.260,-15.890
10376985,-0.953,-0.408,-0.317,15.470,-1.750,-12.880
10377004,-0.933,-0.224,-0.379,20.650,-6.440,-7.840
10377024,-0.852,-0.186,-0.249,5.880,2.940,-8.820
10377049,-0.978,-0.206,-0.379,6.860,4.060,-11.200
10377069,-0.934,-0.106,-0.332,5.950,-3.640,-12.530
10377086,-0.917,-0.232,-0.263,-5.040,-3.920,-14.840
10377105,-0.900,-0.379,-0.386,13.020,-4.480,-14.280
10377130,-0.879,-0.243,-0.273,14.560,-4.480,-14.630
10377150,-0.889,-0.196,-0.300,8.400,-0.350,-17.850
10377169,-0.904,-0.276,-0.374,10.780,-3.780,-23.030
10377190,-0.953,-0.163,-0.223,18.970,-5.880,-27.580
10377210,-0.956,-0.193,-0.307,8.470,3.080,-32.620
10377229,-0.916,-0.327,-0.304,5.460,-1.190,-34.510
10377249,-0.929,-0.343,-0.351,1.680,-2.730,-29.680
10377273,-0.990,-0.254,-0.331,4.620,-6.300,-25.130
10377293,-0.847,-0.363,-0.300,-7.910,0.210,-15.330
10377313,-0.725,-0.350,-0.405,-14.070,-1.120,-7.420
10377331,-0.871,-0.449,-0.302,5.740,-2.030,2.170
10377353,-0.985,-0.264,-0.357,0.840,-7.770,7.210
10377371,-0.844,-0.318,-0.280,-1.820,-6.930,6.440
10377389,-0.935,-0.317,-0.389,3.430,-3.640,4.200
10377409,-0.984,-0.264,-0.356,-2.240,-11.620,-0.490
10377433,-0.895,-0.358,-0.327,7.980,-12.040,1.400
10377449,-0.995,-0.264,-0.351,5.600,-15.610,1.190
10377468,-0.948,-0.362,-0.364,-0.350,-17.710,3.430
10377488,-0.853,-0.379,-0.328,8.400,-13.580,9.240
10377513,-0.915,-0.243,-0.293,-1.050,-10.080,11.410
10377528,-0.939,-0.337,-0.224,-3.640,-10.850,11.410
10377553,-0.884,-0.366,-0.268,-0.420,-8.330,15.680
10377569,-0.987,-0.344,-0.353,4.480,-7.700,19.180
10377589,-0.888,-0.232,-0.270,-6.020,-4.620,21.630
10377613,-0.878,-0.294,-0.304,-6.370,-3.360,17.430
10377633,-0.942,-0.244,-0.331,-8.890,-6.510,15.820
10377653,-0.912,-0.308,-0.320,-5.390,-5.390,14.700
10377671,-0.985,-0.120,-0.343,-3.290,-10.920,11.270
10377695,-0.959,-0.231,-0.296,-6.020,-10.850,7.490
10377715,-0.905,-0.287,-0.323,-10.710,-9.310,9.520
10377735,-1.003,-0.232,-0.348,-6.300,-17.360,9.310
10377755,-0.984,-0.239,-0.296,-6.580,-14.140,8.750
10377775,-0.864,-0.234,-0.364,-4.760,-14.280,9.380
10377795,-1.025,-0.270,-0.311,-4.690,-27.580,13.930
10377818,-0.975,-0.225,-0.183,-3.150,-26.320,14.070
10377838,-0.900,-0.278,-0.218,-6.160,-14.140,12.040
10377856,-0.967,-0.133,-0.349,-10.710,-16.170,15.190
10377880,-1.131,-0.204,-0.439,-12.600,-39.690,18.270
10377900,-0.919,-0.290,-0.295,-6.790,-37.660,21.560
10377919,-0.930,-0.164,-0.164,-1.470,-37.310,24.220
10377940,-0.901,-0.170,-0.221,-7.770,-24.010,23.520
10377960,-1.001,-0.196,-0.298,-15.820,-41.650,24.220
10377979,-1.041,-0.229,-0.320,-3.710,-36.960,27.510
10377999,-0.949,-0.121,-0.237,4.830,-43.610,27.930
10378023,-0.906,-0.046,-0.122,-14.350,-30.730,26.320
10378043,-1.034,-0.110,-0.209,-16.940,-37.450,28.280
10378061,-0.984,-0.130,-0.173,-7.280,-37.940,25.060
10378085,-0.953,-0.234,-0.215,-6.090,-38.500,24.500
10378105,-1.120,-0.093,-0.211,15.190,-53.060,24.570
10378125,-1.003,-0.038,-0.130,1.610,-56.210,23.800
10378143,-0.990,-0.139,-0.023,10.080,-51.030,23.730
10378167,-1.025,-0.066,-0.221,9.240,-58.030,25.410
10378185,-1.021,-0.023,-0.032,10.150,-59.640,24.010
10378204,-0.996,-0.110,0.011,-2.520,-61.320,24.500
10378228,-0.943,-0.083,-0.033,12.460,-58.730,23.100
10378249,-0.928,-0.054,0.033,8.680,-55.440,24.430
10378269,-0.938,-0.028,-0.001,22.330,-54.390,20.020
10378289,-0.911,0.165,0.108,15.890,-46.270,12.950
10378309,-0.896,0.025,0.146,9.240,-39.900,8.330
10378333,-0.954,-0.051,0.112,10.360,-33.670,4.340
10378353,-0.946,-0.011,0.166,17.990,-26.670,1.330
10378373,-0.976,0.041,0.148,14.490,-20.720,1.120
10378391,-1.030,0.081,0.150,7.630,-15.610,-0.560
10378415,-0.978,0.018,0.179,-1.680,-11.200,-2.100
10378435,-0.961,-0.048,0.177,0.770,-2.450,-1.890
10378455,-0.965,-0.027,0.191,4.130,3.920,-1.050
10378475,-0.978,-0.011,0.108,2.520,6.160,1.120
10378493,-1.029,0.034,0.077,-4.760,4.410,2.240
10378515,-1.004,-0.020,0.091,-9.660,2.590,2.380
10378534,-1.006,0.003,0.061,-4.270,2.240,1.960
10378559,-1.013,0.003,0.089,-1.540,0.210,0.210
10378578,-0.990,-0.030,0.089,3.780,-0.700,-0.700
10378597,-1.002,0.004,0.092,5.390,-0.420,-1.400
10378621,-0.991,-0.004,0.107,5.320,1.400,-2.380
10378641,-1.008,-0.016,0.107,7.000,3.220,-2.100
10378661,-1.019,0.012,0.098,5.460,3.360,-1.820
10378681,-0.992,0.010,0.080,3.430,4.060,-1.050
10378701,-1.040,0.020,0.061,-0.350,1.330,-0.560
10378719,-1.029,0.010,0.062,-3.220,-1.820,-0.840
10378738,-1.016,0.010,0.048,-2.660,-3.150,-1.050
10378759,-1.035,0.010,0.050,-1.050,-5.110,-1.330
10378778,-1.000,0.006,0.084,-0.560,-5.530,-2.030
10378803,-0.996,-0.014,0.089,2.590,-5.250,-3.290
10378821,-1.011,-0.005,0.091,2.590,-4.690,-3.290
10378842,-0.997,0.006,0.106,1.470,-3.570,-3.430
10378866,-0.984,0.005,0.096,1.610,-1.820,-3.710
10378886,-0.995,0.018,0.089,1.680,0.000,-4.410
10378906,-0.989,0.000,0.114,-0.140,2.170,-5.320
10378930,-1.000,-0.022,0.085,0.700,2.800,-5.670
10378948,-1.003,-0.004,0.072,2.590,3.220,-5.600
10378968,-1.004,0.005,0.075,1.750,3.220,-5.950
10378992,-0.997,-0.012,0.073,2.030,3.640,-6.650
10379012,-1.019,-0.016,0.082,5.320,2.450,-7.280
10379028,-1.011,0.009,0.072,4.130,2.450,-7.490
10379052,-1.005,-0.013,0.066,4.900,1.750,-8.260
10379068,-1.017,-0.012,0.066,6.020,0.770,-8.610
10379088,-0.990,-0.012,0.063,4.900,1.050,-9.240
10379112,-1.020,0.001,0.068,1.890,1.190,-10.220
10379131,-1.025,-0.032,0.067,2.030,1.750,-10.570
10379155,-1.015,-0.005,0.048,1.190,1.820,-11.410
10379172,-0.994,0.019,0.076,-4.060,0.980,-11.900
10379194,-1.007,-0.069,0.048,-4.970,-0.700,-13.230
10379213,-1.035,-0.054,0.008,2.870,-2.940,-14.630
10379238,-0.985,-0.010,0.023,2.660,-4.620,-16.380
10379258,-0.999,-0.054,0.040,5.110,-8.050,-18.270
10379273,-1.004,-0.057,0.039,7.770,-9.310,-19.250
10379298,-1.013,-0.034,0.054,9.940,-11.060,-21.490
10379317,-1.009,-0.016,0.055,9.450,-11.340,-24.010
10379337,-1.007,-0.060,0.048,12.460,-10.570,-26.600
10379361,-0.973,-0.062,0.065,18.270,-7.700,-27.510
10379381,-1.002,-0.131,0.096,12.530,-12.110,-26.740
10379401,-0.970,-0.189,0.094,14.560,-9.100,-24.640
10379417,-1.001,-0.128,0.107,20.160,-9.450,-23.870
10379440,-0.962,-0.075,0.113,13.020,-7.280,-23.310
10379461,-0.980,-0.194,0.118,6.090,-5.110,-21.770
10379479,-1.023,-0.195,0.080,14.350,-7.070,-18.550
10379503,-0.998,-0.137,0.121,14.770,-6.650,-15.960
10379520,-1.001,-0.135,0.119,8.050,-5.740,-13.090
10379544,-0.986,-0.152,0.131,0.630,-4.550,-9.170
10379563,-0.958,-0.186,0.139,0.910,-0.770,-7.280
10379582,-1.002,-0.115,0.106,-2.030,2.240,-5.390
10379607,-0.975,-0.141,0.090,-6.230,2.870,-4.690
10379626,-0.976,-0.158,0.081,-4.480,1.540,-3.850
10379647,-0.990,-0.105,0.080,-9.870,1.050,-3.290
10379665,-0.984,-0.152,0.079,-9.310,1.470,-4.690
10379685,-0.986,-0.208,0.096,-4.270,3.290,-5.530
10379709,-0.983,-0.151,0.086,-1.190,3.500,-4.760
10379729,-0.956,-0.117,0.139,-6.160,5.460,-5.180
10379749,-0.996,-0.166,0.077,-4.620,7.840,-5.530
10379769,-0.983,-0.189,0.080,-0.210,9.030,-6.090
10379793,-0.923,-0.214,0.075,1.750,13.860,-5.460
10379813,-0.969,-0.144,0.089,2.030,18.130,-3.850
10379833,-0.899,-0.294,0.239,2.170,31.150,-3.010
10379852,-0.900,-0.171,0.096,13.370,37.870,-1.330
10379873,-0.947,-0.076,0.121,0.980,49.700,-2.450
10379896,-0.913,0.038,0.244,-18.270,63.420,-0.770
10379917,-0.805,-0.164,0.071,-52.570,69.020,-0.560
10379937,-1.028,-0.439,-0.096,-6.720,73.080,-1.190
10379957,-0.943,0.070,-0.209,-2.450,73.430,-3.780
10379977,-1.041,-0.100,-0.233,-14.560,64.330,-11.270
10379996,-0.972,-0.174,-0.074,-19.880,62.440,-12.530
10380016,-1.041,-0.232,-0.143,-0.490,63.070,-11.550
10380035,-0.993,-0.057,-0.192,-17.990,65.520,-9.800
10380060,-1.017,-0.179,-0.054,-39.340,67.410,-11.620
10380080,-1.012,-0.175,-0.429,-30.520,60.900,-11.340
10380098,-0.933,-0.280,-0.420,-15.260,56.980,-10.010
10380119,-0.877,-0.357,-0.369,-0.910,48.930,-9.450
10380143,-1.049,-0.022,-0.386,-3.430,20.370,-6.160
10380163,-1.116,-0.171,-0.594,10.430,18.340,2.590
10380187,-0.989,-0.199,-0.267,-9.100,-14.280,2.310
10380207,-1.322,-0.230,-0.675,6.090,-35.630,8.960
10380227,-1.507,-0.114,-0.491,-5.320,-74.270,11.690
10380247,-1.388,0.021,-0.538,-20.300,-71.400,16.380
10380262,-1.950,0.095,-0.286,-6.160,-73.640,27.160
10380287,-2.328,0.210,0.111,35.140,-97.440,19.600
10380303,-2.044,0.833,0.276,13.790,-128.590,37.170
10380322,-1.861,1.157,-0.591,34.860,-331.100,24.430
10380347,0.753,0.752,-0.482,-109.130,81.410,84.490
10380366,-0.613,-0.653,-0.702,166.040,-0.630,92.820
10380387,-0.063,0.301,-1.103,133.770,43.890,91.210
10380405,-0.550,2.012,-0.075,100.800,49.070,142.170
10380427,-0.148,0.081,0.421,-214.620,-24.850,131.040
10380451,0.063,-0.816,0.224,-57.960,-26.810,125.230
10380471,-0.290,-1.009,-0.413,100.520,-0.700,122.150
10380490,-0.390,-2.650,-0.541,251.300,79.170,80.150
10380509,-0.250,-1.680,-2.147,439.250,148.540,118.230
10380534,-0.532,0.837,-0.806,365.330,14.420,6.720
10380554,-1.694,0.791,1.293,93.310,318.010,-36.680
10380574,-1.298,0.042,-0.565,-269.220,66.080,-20.650
10380594,-1.972,0.063,-0.090,-152.880,89.320,-6.160
10380614,-0.801,-0.194,-0.717,27.860,84.210,22.820
10380633,-1.128,1.097,-0.323,44.730,7.420,17.080
10380658,-1.078,0.927,-0.987,-107.800,26.320,21.140
10380677,-1.908,-0.666,-0.337,-65.030,-9.870,6.930
10380696,-2.395,0.103,-0.174,36.400,-62.790,7.700
10380715,-2.083,0.237,-0.583,-16.310,29.890,1.680
10380740,-2.080,-0.218,-0.484,21.070,-43.680,6.440
10380760,-1.892,-0.124,-0.002,16.870,-32.830,-7.140
10380784,-1.823,-0.309,-0.121,29.610,-135.240,-30.590
10380803,-1.169,-0.020,-0.245,-50.190,-218.120,-72.170
10380822,-0.514,-0.143,-0.417,-173.110,-103.390,-84.420
10380842,-0.550,-0.396,-0.680,-204.540,-105.420,-114.310
10380867,-0.001,-1.045,-0.312,-113.400,0.980,-161.210
10380886,-0.300,-0.934,-0.056,45.360,-27.860,-138.600
10380904,-0.260,0.191,0.145,119.770,-75.600,-117.040
10380928,0.228,0.762,0.323,41.020,-8.050,-88.970
10380946,-0.351,-0.142,-0.003,9.380,-10.430,-108.430
10380965,-0.169,-0.094,0.033,118.510,-49.350,-106.330
10380988,-0.151,0.555,-0.270,123.480,-25.970,-87.570
10381010,-0.213,1.851,-1.429,149.730,-23.240,-35.770
10381030,-0.745,1.960,-1.403,-221.690,128.100,-38.990
10381054,-1.411,0.243,0.214,-271.530,151.410,-24.080
10381072,-1.755,-1.674,-0.231,8.470,147.630,-9.800
10381093,-1.907,-0.901,-0.071,303.590,151.130,24.220
10381111,-2.607,0.267,-0.108,399.700,89.950,39.690
10381135,-0.566,1.233,-0.967,-243.670,135.100,-57.470
10381150,-1.166,0.522,-0.981,-141.120,63.210,-35.770
10381175,-0.163,-0.160,-1.329,-179.620,31.010,-37.310
10381195,-0.086,-1.380,-0.980,54.040,-34.650,-21.630
10381215,-1.194,-0.619,-0.394,64.680,-39.830,11.130
10381234,-3.686,1.422,0.203,66.640,-125.230,43.820
10381254,-1.048,0.061,-0.770,-103.530,1.120,-39.270
10381278,-2.241,-0.223,-0.763,-4.480,-116.340,3.850
10381296,-1.522,0.117,-0.319,26.530,-149.730,8.400
10381318,-2.306,1.369,0.786,-36.960,-52.220,29.610
10381342,-0.543,0.250,-0.545,-93.730,-177.940,59.640
10381362,0.344,-0.391,-0.804,-42.490,-4.130,64.050
10381381,-0.312,0.577,-1.107,70.840,-34.860,69.160
10381405,-0.900,2.742,0.455,-10.570,22.050,137.130
10381424,-0.368,1.446,0.438,-285.180,0.980,113.750
10381446,-0.302,0.438,0.136,-268.730,-76.860,126.490
10381466,0.295,-0.687,-0.152,-123.480,-4.480,135.450
10381488,-0.793,-1.200,-0.110,114.520,-54.110,124.530
10381512,-0.026,-1.232,-0.212,271.880,29.400,111.090
10381531,0.082,-1.796,-0.863,381.990,103.880,103.320
10381555,-0.414,-0.658,0.213,462.910,82.740,71.120
10381575,-0.186,-1.763,0.177,270.270,256.410,43.540
10381593,-3.174,1.464,0.960,-129.570,-15.260,-104.370
10381610,-1.343,-0.104,0.043,-157.430,147.070,-18.690
10381630,-2.899,0.774,-0.644,-223.160,56.700,-10.570
10381655,-1.157,-0.455,-0.581,-13.440,55.160,10.290
10381673,-1.389,0.621,-0.149,51.730,16.240,28.070
10381692,-0.928,0.191,-1.444,2.170,59.220,22.050
10381715,-1.761,0.492,-0.278,-44.870,-44.310,-2.100
10381738,-1.705,-0.552,-0.595,37.170,-17.710,-11.270
10381759,-2.112,0.389,-0.496,16.730,-50.540,-5.320
10381779,-2.084,0.240,-0.248,-24.990,-44.450,-4.970
10381798,-2.544,-0.193,-0.056,-15.610,-29.680,19.810
10381817,-1.955,-0.625,-0.002,35.070,-183.820,-27.160
10381841,-0.874,0.032,0.295,36.540,-157.430,-43.960
10381861,-0.502,-0.419,-0.826,-108.430,-111.370,-86.170
10381877,-0.294,-0.311,-0.724,-242.760,-114.450,-100.800
10381900,0.363,-1.218,-1.100,-114.730,-3.290,-127.680
10381919,-0.641,-0.992,0.177,38.360,-25.620,-152.670
10381943,0.023,-0.561,-0.112,218.120,-61.600,-105.840
10381963,-0.171,0.310,0.060,166.320,-18.690,-109.480
10381983,0.090,0.576,-0.194,115.010,-5.600,-104.650
10382003,-0.159,0.006,-0.303,90.370,14.140,-119.210
10382021,0.041,0.770,-0.418,109.200,46.060,-96.530
10382041,-0.259,0.197,-1.560,15.330,47.250,-111.930
10382064,-1.098,3.103,-0.361,-199.920,-22.400,-104.860
10382085,-0.426,0.280,-0.034,-269.220,243.810,-19.950
10382104,-2.623,-0.127,0.366,-10.500,63.210,-14.840
10382122,-1.440,-1.116,-0.024,186.970,166.950,32.270
10382141,-2.026,-0.752,-0.972,302.050,109.550,25.830
10382161,-1.688,1.468,0.167,154.280,74.900,2.870
10382186,-1.350,0.659,-1.293,-215.530,85.960,-42.070
10382206,-0.385,-0.219,-1.422,-110.110,-20.510,-55.790
10382225,-0.518,-0.812,-0.577,-41.440,-43.890,-15.960
10382244,-1.543,-0.796,-0.373,58.380,-42.210,29.260
10382263,-2.461,0.661,-0.527,23.450,-170.100,7.420
10382286,-2.223,0.219,-0.886,-106.260,18.620,9.100
10382310,-1.822,-0.128,-0.189,-31.640,-136.500,10.290
10382330,-2.027,1.051,0.020,28.560,-109.270,24.220
10382345,-1.599,1.754,-1.185,-76.860,-287.070,13.370
10382365,0.021,0.280,-0.851,-204.680,-35.070,44.170
10382390,-0.341,-0.133,-0.796,30.380,-72.660,73.220
10382410,0.072,1.269,-0.801,123.620,-30.800,125.650
10382434,-0.881,2.188,0.216,-146.650,-20.790,132.300
10382454,-0.226,0.958,0.243,-263.690,-11.410,145.600
10382474,-0.192,-0.351,-0.042,-239.330,-40.600,135.380
10382494,-0.072,-1.051,-0.138,-17.500,-19.250,138.670
10382511,-0.619,-1.082,-0.249,142.730,0.280,130.130
10382531,-0.212,-1.199,0.025,235.060,28.630,119.910
10382555,0.333,-2.228,-3.030,352.730,192.150,138.670
10382575,-0.440,-0.328,-0.198,409.430,93.730,83.650
10382593,-0.889,-0.894,0.794,167.580,313.460,32.270
10382610,-1.790,0.078,0.563,-7.840,-16.450,-76.930
10382634,-3.136,0.701,-0.283,-237.160,185.850,-5.460
10382658,-1.617,0.473,-0.519,-115.220,5.390,5.880
10382676,-1.855,0.716,-1.011,-100.240,118.860,16.100
10382700,-1.321,-0.143,-0.559,35.210,-2.730,-3.920
10382719,-1.610,0.141,-0.996,48.510,-25.340,-4.620
10382740,-1.996,0.482,-0.432,-21.490,-63.210,-13.160
10382755,-2.416,0.225,-0.484,-31.080,-22.680,-1.960
10382780,-2.704,-0.169,0.034,-5.250,-107.800,-3.290
10382800,-1.689,-0.743,0.363,22.050,-127.680,-24.850
10382820,-1.444,-0.326,0.374,-10.430,-146.230,-33.740
10382840,-0.461,-0.262,-1.454,-154.560,-214.830,-118.720
10382859,0.051,-0.922,-0.958,-312.970,-33.110,-133.770
10382881,-0.738,-1.206,-0.027,-4.130,0.000,-164.990
10382904,-0.132,-0.755,-0.311,60.480,-5.880,-139.440
10382925,-0.379,-0.084,-0.271,149.310,-73.220,-137.900
10382944,-0.316,1.002,0.325,38.710,-20.020,-122.640
10382965,-0.275,0.944,0.059,-35.420,-62.440,-100.940
10382985,-0.084,0.355,0.027,-61.250,-24.220,-106.540
10383005,-0.190,0.304,-0.163,19.250,-35.420,-90.650
10383025,-0.088,0.620,-0.099,89.600,-2.310,-83.720
10383043,-0.042,0.421,-0.777,-20.580,18.550,-70.070
10383067,-0.300,1.082,-1.544,-228.480,217.280,-45.990
10383091,-3.265,0.551,-0.192,-145.810,30.590,-47.180
10383108,0.075,-0.433,-0.131,147.070,190.680,40.320
10383131,-2.610,-0.174,-0.711,242.830,63.350,-9.730
10383149,-2.033,0.611,-0.100,68.110,33.810,-22.610
10383171,-0.692,-0.112,-0.421,-118.720,149.660,-11.550
10383191,-2.022,-0.686,-0.949,-109.760,-28.560,-25.410
10383210,-1.475,-0.012,-0.837,32.270,-28.840,-7.840
10383229,-1.058,-0.531,-0.822,6.650,-9.940,6.930
10383254,-1.724,-0.016,-0.274,11.130,-86.800,6.370
10383278,-2.150,0.456,-0.507,-58.800,-40.950,-0.070
10383296,-2.230,0.429,-0.364,-55.510,-108.290,9.870
10383318,-1.758,0.848,0.114,-34.090,-146.090,22.960
10383338,-0.526,1.146,-0.609,-22.820,-212.520,27.300
10383358,-0.134,-0.604,-0.938,-206.710,28.350,38.920
10383381,-0.289,-0.090,-0.583,219.870,-37.940,86.730
10383401,-0.106,1.705,-0.385,259.140,0.840,153.300
10383420,-0.846,2.655,0.292,-167.370,-4.060,142.590
10383445,-0.429,0.764,0.003,-378.700,-24.640,143.990
10383463,-0.048,-0.755,-0.133,-250.040,-34.090,133.280
10383483,-0.383,-1.538,-0.286,74.900,-26.740,137.760
10383507,-0.290,-1.004,-0.089,235.900,-5.110,130.200
10383527,-0.011,-1.328,-0.302,386.750,56.560,128.310
10383545,-0.086,-0.992,-2.022,350.630,160.160,157.220
10383567,-0.533,0.125,0.702,448.350,188.230,94.640
10383587,-1.702,-3.564,-0.499,-25.270,151.550,-6.930
10383611,-0.879,-0.093,1.121,-59.500,284.410,31.010
10383630,-2.485,1.562,-0.054,-263.900,-24.220,-8.190
10383654,-1.590,1.642,-1.440,-154.350,42.980,9.240
10383674,-1.811,-0.955,-0.887,-10.990,-18.550,-12.880
10383694,-1.594,-0.370,-0.762,128.520,-4.480,19.110
10383714,-2.191,1.058,-0.520,10.570,-61.180,-8.050
10383733,-2.214,0.109,-0.531,-49.770,-10.710,-7.770
10383756,-2.255,-0.474,-0.313,12.250,-43.330,3.150
10383776,-2.063,-0.631,-0.062,60.130,-109.830,-10.990
10383800,-1.459,-0.640,0.454,29.190,-171.570,-24.220
10383820,-0.501,-0.777,-0.696,-107.660,-154.350,-83.090
10383839,-0.187,-0.518,-0.612,-233.870,-90.300,-117.110
10383863,-0.460,-1.473,-0.407,-169.610,-30.940,-175.560
10383881,-0.793,-1.960,0.417,-104.510,-33.460,-222.320
10383901,-0.766,0.081,0.321,104.510,-139.440,-144.900
10383920,-0.071,0.910,0.560,129.010,-140.280,-127.750
10383944,-0.298,0.615,0.050,22.400,-84.560,-108.430
10383965,-0.368,0.334,-0.177,83.650,-110.460,-116.620
10383988,-0.206,1.197,-1.209,-10.850,-54.530,-99.680
10384006,0.223,0.582,-1.420,-9.660,21.350,-74.200
10384026,0.086,1.382,-1.225,-263.410,104.510,-55.930
10384046,-1.669,0.178,-0.684,-183.750,142.730,-49.420
10384070,-1.833,-0.320,-0.546,146.230,101.430,12.040
10384090,-1.338,0.279,0.165,237.930,110.670,40.600
10384110,-1.750,0.157,0.358,98.630,148.820,4.410
10384126,-2.738,0.607,0.041,-26.040,57.330,-31.990
10384148,-1.272,0.451,-0.692,-135.380,77.700,-38.290
10384170,-1.124,-0.683,-0.697,-50.610,18.200,-26.250
10384189,-1.144,-0.483,-1.013,2.730,-25.270,-15.820
10384212,-1.545,0.166,-0.459,11.130,-79.590,-0.070
10384233,-2.200,0.503,-0.155,-78.540,-47.250,6.090
10384253,-2.687,0.438,-0.118,-90.020,-133.560,5.180
10384272,-1.673,0.512,-0.086,8.890,-155.120,26.600
10384292,-1.224,1.225,0.144,-41.300,-150.710,50.470
10384312,0.456,-0.207,-0.725,-208.110,-39.340,49.070
10384332,-0.339,-1.154,-1.142,50.680,9.240,55.580
10384353,-0.161,1.694,-1.327,212.450,-49.560,100.660
10384375,-0.916,3.484,0.829,-142.730,94.360,174.860
10384394,-0.583,1.048,-0.343,-364.280,-33.600,172.900
10384418,0.137,-0.441,-0.094,-312.060,78.540,129.920
10384438,-0.649,-2.001,-0.426,171.710,-13.510,144.410
10384457,-0.209,-1.003,-0.327,336.700,27.720,146.510
10384481,-0.114,-0.803,-0.050,422.240,98.770,157.920
10384501,-0.200,-0.843,-0.753,440.930,169.960,202.510
10384520,-1.128,0.121,0.837,331.520,125.440,83.650
10384540,-0.208,-2.390,0.212,159.250,249.130,38.430
10384561,-1.379,-1.320,0.009,34.300,99.960,-61.810
10384580,-3.522,2.540,0.183,-98.000,77.980,-12.670
10384601,-1.787,1.287,-0.997,-121.100,-24.640,-2.520
10384624,-1.878,0.459,-0.987,-196.980,142.310,10.220
10384644,-1.174,-0.323,-0.802,102.200,0.770,12.600
10384668,-1.661,0.166,-0.896,41.790,-41.230,-5.390
10384688,-1.986,0.418,-0.583,-49.280,-68.250,-7.140
10384708,-2.246,0.074,-0.377,-58.240,-28.980,4.130
10384728,-2.347,-0.699,0.154,-21.630,-137.760,-16.730
10384746,-1.467,-0.769,0.094,20.720,-159.460,-26.390
10384765,-1.654,0.217,-0.318,-110.810,-212.380,-72.380
10384788,-0.357,-0.334,-0.867,-220.360,-86.450,-130.830
10384811,-0.272,-1.462,-0.544,-190.960,-91.560,-155.960
10384832,-0.778,-1.561,0.251,-73.780,-88.480,-238.980
10384856,-0.729,-0.166,0.035,100.870,-139.370,-157.570
10384876,0.118,0.785,0.422,112.840,-123.340,-119.000
10384896,-0.445,0.741,-0.149,-1.190,-89.880,-82.110
10384915,-0.403,-0.036,-0.699,-81.900,-51.590,-132.160
10384933,-0.012,-0.169,-0.488,20.300,-53.200,-124.180
10384953,-0.080,0.838,-0.658,-17.080,-7.280,-114.590
10384973,-0.867,1.969,0.032,245.910,-2.170,-25.690
10384997,0.209,2.027,-1.274,-451.780,141.330,-39.690
10385016,-0.884,0.021,-0.438,-295.190,352.310,-3.850
10385037,-1.526,-0.937,-0.314,405.930,-3.010,21.210
10385056,-2.282,0.683,0.296,254.100,154.140,8.960
10385080,-2.966,1.650,0.159,119.420,122.290,-46.060
10385100,-1.129,0.213,-0.762,-139.300,57.120,-55.370
10385120,-1.052,-0.206,-1.207,-126.980,19.250,-44.240
10385140,-0.867,-0.994,-0.784,-32.060,-23.870,-21.070
10385163,-1.413,-0.218,-0.724,63.980,-88.760,2.450
10385186,-2.174,0.532,-0.159,5.250,-66.850,21.070
10385210,-2.441,0.489,-0.215,-90.090,-94.010,23.660
10385226,-2.213,0.667,-0.269,-89.180,-178.850,13.370
10385249,-0.750,1.302,-0.865,2.590,-242.620,47.740
10385273,-0.088,0.328,-1.302,-109.200,1.610,75.320
10385292,-0.355,-0.626,-1.097,130.060,-82.950,72.520
10385313,-0.297,2.877,-0.490,289.800,19.810,183.400
10385332,-1.055,2.519,-0.027,-224.350,73.570,178.640
10385356,-0.686,-0.183,-0.378,-258.930,38.920,165.060
10385376,-0.068,-0.812,0.018,-135.730,18.410,143.990
10385395,-0.142,-1.252,-0.117,181.160,48.300,149.730
10385416,-0.372,-0.952,0.106,270.480,47.740,141.680
10385436,-0.269,-0.904,0.069,351.470,78.470,131.460
10385460,-0.173,-0.845,-0.218,316.400,198.030,169.260
10385479,-1.120,-0.751,0.726,315.350,118.650,85.260
10385504,-1.153,0.353,0.574,125.020,270.480,44.940
10385523,-1.369,-0.887,-0.870,-147.280,0.630,-81.200
10385543,-2.887,0.633,-0.291,-195.650,154.000,1.470
10385561,-1.470,0.015,-0.803,-32.200,-28.700,-23.800
10385585,-1.380,1.329,-0.803,-116.060,54.880,-1.400
10385605,-1.625,-0.065,-0.848,-103.040,13.020,-6.230
10385624,-2.162,-0.068,-0.536,77.560,-54.740,-3.780
10385643,-2.258,0.410,-0.517,58.380,-25.060,6.370
10385668,-2.512,0.250,-0.281,-2.940,-46.060,0.910
10385688,-2.200,-0.261,0.076,-0.770,-109.270,-18.550
10385707,-1.322,-0.385,-0.230,8.400,-177.450,-33.950
10385728,-1.243,-0.067,-0.286,-124.530,-174.090,-54.950
10385751,-0.370,-0.247,-0.954,-268.310,-94.150,-118.090
10385771,-0.186,-1.542,-0.522,-205.240,-86.590,-163.030
10385791,-0.604,-1.033,0.425,-156.940,-53.270,-220.220
10385815,-0.783,-0.677,-0.038,144.270,-101.220,-161.980
10385835,-0.123,0.706,0.403,135.590,-83.160,-147.980
10385859,-0.402,0.914,0.209,34.860,-81.480,-118.580
10385878,-0.236,0.533,0.043,-41.020,-43.120,-114.100
10385899,-0.199,0.480,-0.703,-14.560,-9.940,-119.350
10385919,-0.151,-0.004,-1.346,-54.600,12.670,-144.760
10385938,-1.140,4.703,-0.281,-110.180,-57.960,-33.880
10385957,-0.068,1.790,-1.620,-361.200,270.340,-7.980
10385982,-3.126,-0.722,-0.421,-24.850,-9.730,-69.020
10385997,-0.182,-1.668,-0.015,413.070,168.490,75.180
10386022,-2.009,-1.112,-0.113,427.630,88.340,43.610
10386040,-2.318,1.978,0.098,75.670,-6.790,-42.350
10386061,-1.344,0.206,-1.022,-295.890,123.410,-47.320
10386084,-1.332,-0.576,-1.164,-43.540,-14.000,-17.780
10386103,-1.445,-0.545,-0.569,34.930,-59.080,-6.860
10386125,-1.936,0.162,-0.343,65.590,-66.290,11.340
10386144,-2.355,0.837,-0.254,-65.100,-48.230,-6.510
10386164,-2.164,0.449,-0.056,-78.750,-93.100,10.010
10386186,-1.845,0.688,-0.319,-12.530,-173.530,26.600
10386210,-0.072,0.699,-0.300,-101.360,-28.770,35.280
10386229,-0.153,-0.279,-1.116,9.730,-32.130,68.950
10386249,-0.658,0.684,-0.559,50.260,-90.650,57.610
10386269,-0.079,2.403,0.167,53.060,-17.710,153.090
10386286,-0.591,2.380,0.297,-252.980,-16.870,170.730
10386310,-0.496,0.352,-0.164,-320.810,-53.900,166.180
10386330,-0.280,-0.344,-0.294,-157.920,-31.010,136.080
10386348,-0.424,-1.339,-0.423,103.670,-29.260,133.910
10386369,-0.164,-1.050,-0.410,258.860,17.570,130.130
10386390,-0.115,-1.041,-0.627,384.860,63.350,141.470
10386410,-0.323,-0.915,-0.188,452.200,130.200,116.340
10386430,-0.917,-0.099,-0.564,454.720,74.550,85.260
10386448,-0.595,-0.604,0.678,151.270,151.480,24.290
10386472,-1.070,-1.967,-1.679,87.150,153.860,-42.980
10386492,-3.910,0.609,0.329,-160.510,123.200,-38.990
10386510,-1.488,1.420,-1.119,-281.050,21.490,-14.420
10386534,-2.103,1.193,-0.607,-100.380,77.280,-23.660
10386554,-1.811,-1.004,-0.513,98.490,6.580,5.740
10386572,-2.371,0.332,-0.665,51.590,-36.680,-12.880
10386594,-2.164,0.508,-0.633,-13.930,-26.040,-15.540
10386618,-2.150,-0.225,-0.458,-34.160,-48.300,-3.780
10386634,-2.266,-0.444,-0.130,-48.440,-122.850,-14.560
10386655,-1.413,-0.678,-0.116,-14.840,-214.970,-44.030
10386679,-1.097,-0.321,0.201,-157.990,-165.620,-94.850
10386699,-0.140,-0.938,-1.510,-223.510,-137.200,-147.980
10386717,-0.371,-1.426,-0.782,-233.520,-97.370,-160.720
10386735,-0.513,-0.830,0.191,-115.850,-36.890,-191.520
10386755,-0.354,-0.414,-0.376,21.700,-29.400,-147.910
10386778,-0.126,-0.093,-0.262,51.940,-21.350,-147.770
10386798,-0.386,0.281,0.111,78.190,7.000,-144.620
10386817,-0.311,0.486,-0.073,66.220,-14.840,-134.540
10386837,-0.196,0.890,-0.208,24.290,27.300,-111.510
10386861,-0.253,1.417,0.165,14.420,20.930,-72.170
10386877,0.131,0.371,0.195,-8.050,27.510,-71.260
10386901,-0.258,1.745,-0.439,-359.520,-49.910,-78.820
10386920,-0.222,0.096,-1.477,-25.760,423.220,47.670
10386941,-4.264,0.951,0.382,55.160,-283.780,-139.440
10386959,-0.369,-0.862,1.043,112.210,334.530,20.790
10386983,-3.057,-1.587,-0.857,398.440,34.510,24.360
10387002,-1.570,2.205,-0.195,195.160,-24.080,0.980
10387021,-1.393,0.066,-1.230,-212.170,85.120,-16.310
10387041,-1.503,-0.647,-0.654,-17.290,-57.960,0.980
10387064,-1.759,0.077,-0.550,41.440,-80.850,18.480
10387087,-2.350,0.354,-0.279,-39.970,-51.100,12.670
10387108,-2.269,0.039,-0.019,-91.490,-125.090,11.830
10387128,-2.366,1.197,-0.030,-25.270,-248.780,15.750
10387149,0.451,0.974,-0.487,-167.230,-35.700,57.330
10387172,-0.733,-0.524,-1.240,-4.550,-35.280,85.330
10387191,0.200,0.382,-1.080,80.920,-57.540,87.500
10387213,-0.485,2.425,0.029,-2.520,41.230,158.900
10387238,-0.476,1.213,0.106,-239.470,0.700,159.670
10387257,-0.280,0.002,-0.214,-224.210,29.470,134.400
10387277,-0.278,-1.035,-0.298,25.620,-5.670,142.170
10387296,-0.150,-0.710,-0.234,136.220,33.040,142.520
10387317,-0.298,-0.511,-0.138,189.420,61.740,142.030
10387337,-0.258,-0.611,0.026,240.170,101.500,135.660
10387360,-0.195,-1.000,-2.003,382.130,172.760,156.310
10387380,-0.753,-0.647,0.005,321.860,90.300,80.710
10387399,-0.417,-2.314,-1.201,47.180,278.810,31.500
10387424,-3.042,-0.011,1.490,-111.160,102.760,-49.700
10387442,-2.121,1.205,-0.426,-189.420,-55.160,-19.250
10387463,-1.136,1.920,-0.871,-158.970,48.230,17.640
10387487,-1.741,-0.285,-0.824,-58.240,-8.960,2.800
10387507,-2.271,-0.683,-0.835,104.440,-49.000,5.390
10387525,-2.355,0.679,-0.518,100.660,-93.870,-12.180
10387549,-2.746,0.917,-0.415,-76.650,-32.130,-14.910
10387569,-2.408,-0.531,-0.122,-59.920,-90.300,-20.720
10387589,-1.908,-1.274,0.181,34.510,-189.560,-40.320
10387605,-0.779,-0.329,0.372,64.260,-178.640,-47.670
10387625,-0.639,-0.117,-1.092,-228.200,-173.250,-128.730
10387645,0.032,-0.565,-0.888,-422.730,-74.480,-165.480
10387664,-0.553,-1.893,-0.397,-90.930,-32.130,-154.000
10387686,-0.609,-1.177,-0.041,49.140,-50.190,-180.180
10387710,-0.249,-0.302,0.053,143.710,-72.940,-130.620
10387728,-0.139,0.576,0.272,196.350,-64.750,-124.600
10387748,-0.553,0.509,-0.008,152.460,-81.620,-112.630
10387772,-0.284,0.990,-0.469,67.830,-60.480,-99.120
10387792,-0.117,0.976,-1.092,27.230,-19.740,-101.920
10387812,0.003,1.156,-1.085,-11.830,4.690,-82.320
10387832,-0.078,2.113,-0.630,-409.500,-11.200,-67.830
10387853,-1.620,-0.055,-1.523,-231.280,275.940,-10.150
10387877,-3.038,-0.103,0.435,111.090,-24.570,-64.120
10387897,-0.798,-0.304,0.564,46.970,246.750,4.760
10387915,-2.479,-0.760,-0.327,183.680,56.980,-26.390
10387937,-1.212,1.109,-0.193,23.030,84.350,-24.780
10387961,-0.504,-0.286,-1.646,-119.560,31.780,-9.240
10387980,-1.403,-1.241,-0.352,6.580,-52.080,-1.260
10388000,-2.010,-0.077,-0.701,60.550,-84.420,37.590
10388019,-1.892,0.536,-0.356,-25.830,-39.480,-3.150
10388042,-2.250,0.135,-0.284,-17.990,-69.370,3.850
10388063,-1.798,0.326,-0.036,-32.200,-78.610,16.870
10388083,-2.361,0.627,-0.195,-11.480,-88.480,41.790
10388107,-1.256,0.728,-0.979,27.160,-326.690,7.770
10388131,0.212,0.217,-0.739,-176.610,98.350,81.900
10388154,-0.722,-0.355,-0.569,68.320,-70.490,83.230
10388172,0.029,0.902,-0.867,184.030,13.160,130.620
10388192,-0.826,2.575,0.513,-60.690,8.960,140.560
10388212,-0.406,1.139,-0.019,-204.400,-8.750,155.190
10388235,-0.175,-0.212,-0.036,-183.050,2.590,148.050
10388254,-0.413,-0.921,-0.114,-11.130,13.020,151.270
10388279,-0.365,-0.776,-0.286,161.700,49.840,154.910
10388299,-0.374,-0.728,-0.158,274.540,87.360,153.230
10388317,-0.047,-1.298,-0.726,266.490,192.990,130.620
10388338,-0.772,-0.123,0.662,424.550,141.330,101.990
10388360,-0.734,-2.613,0.070,385.910,284.970,74.200
10388382,-2.539,-0.092,0.735,-220.150,40.390,-96.110
10388402,-1.410,-0.200,0.251,-84.700,125.160,5.110
10388421,-2.026,1.431,-1.262,-155.610,54.320,11.060
10388441,-1.136,1.142,-1.015,-166.600,43.750,-12.110
10388460,-1.670,-1.184,-1.050,15.190,30.240,0.980
10388485,-1.669,0.081,-0.820,109.060,-40.530,-7.000
10388505,-1.913,0.751,-0.732,-15.610,-43.120,-21.700
10388521,-2.265,0.254,-0.610,-59.500,-54.320,-24.360
10388545,-2.290,-0.295,-0.285,-17.570,-74.900,-6.930
10388565,-2.143,-0.619,0.087,-8.050,-160.860,-33.530
10388585,-1.248,-0.368,0.206,-1.680,-192.220,-35.350
10388601,-0.585,-0.002,-0.935,-196.420,-215.390,-105.000
10388625,-0.120,-0.791,-1.131,-256.970,-80.080,-122.710
10388643,0.073,-1.228,-0.941,-154.560,-33.040,-131.740
10388662,-0.456,-1.468,-0.298,-121.310,8.260,-176.610
10388687,-0.549,-0.486,-0.029,110.110,-15.960,-165.480
10388707,-0.216,0.279,0.449,204.260,-17.220,-150.430
10388730,-0.282,0.451,0.058,105.630,-12.810,-127.540
10388750,-0.293,0.550,0.134,71.120,-20.230,-122.430
10388769,-0.108,1.460,-0.133,50.260,-10.220,-66.150
10388794,-0.379,0.832,-0.054,-102.340,3.990,-56.840
10388813,0.268,1.465,-3.168,-394.730,93.660,-59.990
10388833,-3.168,0.143,0.328,-70.350,176.330,3.430
10388856,-0.579,-0.354,-0.208,247.240,110.740,21.700
10388875,-1.990,-0.224,-0.088,150.430,94.640,-25.060
10388898,-1.898,0.092,0.103,160.020,5.670,-5.110
10388917,-1.195,1.284,-0.963,-79.660,20.160,-15.190
10388941,-1.620,-0.195,-0.468,-169.190,-23.730,-11.830
10388962,-2.183,-0.479,-0.850,31.500,-93.870,1.680
10388987,-2.016,-0.016,-0.600,28.280,-50.400,0.910
10389005,-2.097,0.373,-0.190,-46.340,-85.890,-11.130
10389029,-2.171,0.448,0.030,-91.490,-52.990,10.010
10389048,-2.588,0.850,0.406,-64.960,-185.570,15.330
10389064,-0.347,0.754,-0.795,-1.190,-264.180,13.860
10389089,-0.169,0.296,-0.797,-146.720,-20.230,71.050
10389104,-0.391,-0.093,-0.606,-32.690,-53.970,76.020
10389125,-0.057,0.405,-1.216,152.670,-58.310,94.220
10389144,-0.481,2.995,0.440,-19.180,9.240,155.750
10389168,-0.414,0.996,-0.212,-237.020,1.330,159.530
10389187,-0.256,0.018,-0.414,-227.150,17.010,137.480
10389208,-0.270,-1.154,-0.409,-22.470,25.130,136.780
10389233,-0.268,-1.023,-0.540,218.050,66.500,137.550
10389252,-0.169,-0.884,0.048,313.320,105.630,124.040
10389270,-0.141,-1.138,-0.167,382.060,117.110,116.340
10389291,0.036,-0.729,-0.944,437.990,176.190,126.490
10389308,-0.948,0.063,1.078,469.770,93.310,94.640
10389328,0.494,-1.188,-1.595,-196.000,256.760,-29.960
10389350,-6.318,-0.565,2.324,-120.680,329.980,46.900
10389371,-1.426,-0.055,0.194,-19.740,-232.540,-111.510
10389390,-1.265,1.831,-1.358,-135.240,249.900,27.160
10389410,-1.617,-0.009,-1.197,-4.340,3.710,2.730
10389435,-0.925,0.496,-0.740,-35.000,-5.530,-6.020
10389453,-1.825,-0.348,-0.843,-58.380,-7.280,-19.250
10389477,-1.894,0.509,-0.617,-9.380,-58.030,-23.660
10389493,-2.119,0.088,-0.629,-31.290,-10.570,-2.520
10389513,-2.120,-0.474,-0.456,20.370,-35.420,1.050
10389537,-2.237,-0.113,-0.205,-1.050,-86.520,-16.100
10389557,-1.546,-0.477,-0.259,-13.720,-202.790,-48.790
10389576,-0.610,-0.132,0.229,-93.380,-128.940,-54.600
10389597,-0.931,-0.525,-1.369,-186.480,-125.580,-124.950
10389614,-0.532,-0.682,-1.020,-185.570,-143.150,-148.750
10389633,0.216,-1.275,-0.421,-37.520,-65.310,-131.320
10389658,-0.399,-0.673,0.212,53.620,-99.820,-184.030
10389678,-0.585,-0.088,-0.073,107.870,-174.860,-152.320
10389698,-0.282,1.258,0.133,67.480,-153.580,-117.250
10389720,-0.738,0.719,0.242,-47.390,-145.600,-94.500
10389740,-0.284,-0.008,-0.564,-53.760,-124.110,-92.400
10389760,-0.241,0.411,-0.788,81.130,-46.060,-99.890
10389784,0.144,1.952,-0.232,45.150,-14.420,-80.080
10389808,-0.234,0.254,-1.809,-74.690,17.220,-36.050
10389828,0.115,-0.407,-1.527,-351.890,290.290,-123.690
10389851,-4.578,0.397,0.245,61.670,-78.890,-76.300
10389872,0.033,0.323,0.813,126.210,151.830,18.970
10389890,-2.857,-2.077,-0.488,15.120,96.250,-5.180
10389909,-2.004,0.791,-0.145,243.040,17.290,16.100
10389934,-1.524,0.715,-0.599,-56.980,40.880,-19.040
10389954,-0.697,-0.612,-1.107,-76.510,-8.680,5.880
10389972,-1.071,-0.550,-0.375,14.490,-129.850,12.250
10389996,-1.099,-0.189,-0.128,13.580,-113.960,41.580
10390015,-1.487,-0.082,-0.261,-1.400,-80.360,43.470
10390036,-0.933,-0.135,-0.037,-6.160,-118.930,23.030
10390056,-0.698,0.054,0.031,-4.900,-82.950,19.390
10390073,-0.908,-0.014,0.036,-14.490,-82.040,12.530
10390094,-0.888,-0.157,0.097,-33.810,-63.980,6.650
10390116,-0.691,-0.419,0.057,3.710,-53.550,-1.330
10390140,-0.739,-0.412,0.085,58.800,-38.010,-4.550
10390160,-1.090,-0.169,0.170,80.570,-31.850,-4.690
10390180,-1.178,0.060,0.115,54.670,-25.970,-3.710
10390198,-0.996,0.021,0.192,22.190,-29.610,-2.940
10390219,-0.957,-0.134,0.180,8.610,-20.160,1.890
10390237,-0.976,-0.176,0.156,2.030,-15.820,4.130
10390262,-0.938,-0.179,0.172,6.790,-8.750,4.970
10390282,-0.926,-0.155,0.131,2.870,-6.090,5.110
10390300,-0.990,-0.102,0.110,1.540,-6.090,4.760
10390322,-0.992,-0.115,0.106,-5.250,-2.100,1.750
10390339,-0.970,-0.186,0.099,0.280,-2.100,-0.700
10390358,-1.006,-0.135,0.112,5.810,-0.980,-1.680
10390383,-1.002,-0.161,0.097,4.620,-0.700,0.000
10390402,-1.000,-0.136,0.082,3.640,-2.800,1.120
10390421,-1.029,-0.157,0.099,4.550,-5.530,-0.210
10390441,-0.979,-0.115,0.065,7.210,-8.190,-0.700
10390460,-1.018,-0.091,0.089,0.770,-11.200,-0.490
10390485,-0.997,-0.149,0.107,-3.500,-12.670,-0.280
10390505,-1.023,-0.152,0.153,1.890,-14.140,1.120
10390522,-0.910,-0.121,0.105,0.140,-12.880,-0.560
10390542,-0.981,-0.118,0.149,0.350,-12.040,-2.450
10390566,-0.973,-0.117,0.153,-3.920,-8.750,-3.150
10390585,-0.957,-0.154,0.145,-7.630,-5.810,-3.150
10390606,-1.008,-0.168,0.124,-6.720,-6.440,-1.820
10390625,-0.988,-0.080,0.114,-10.640,-6.510,-0.350
10390644,-0.974,-0.119,0.114,-21.630,-5.250,-0.280
10390666,-1.018,-0.208,0.105,-12.250,-7.000,-0.700
10390688,-0.998,-0.122,0.127,-5.880,-8.890,-1.120
10390709,-0.961,-0.149,0.144,-9.590,-7.560,-1.610
10390733,-0.998,-0.201,0.156,-0.700,-7.210,-1.960
10390753,-0.959,-0.154,0.175,4.060,-5.390,-1.400
10390773,-0.963,-0.126,0.166,0.840,-2.800,-0.980
10390792,-0.996,-0.160,0.158,1.960,-1.050,-1.260
10390812,-0.991,-0.146,0.145,6.370,-1.120,-2.380
10390836,-0.987,-0.098,0.131,0.210,1.330,-1.960
10390851,-0.996,-0.160,0.152,0.210,1.260,-2.240
10390876,-0.987,-0.169,0.123,3.500,0.700,-0.910
10390893,-1.000,-0.120,0.115,0.210,0.840,-0.070
10390912,-0.877,-0.155,0.144,-1.190,1.540,0.420
10390931,-0.995,-0.172,0.121,3.920,1.400,-0.280
10390956,-0.974,-0.105,0.105,2.170,1.260,-0.490
10390976,-1.010,-0.135,0.142,1.610,0.000,-1.470
10390994,-0.981,-0.174,0.134,4.900,-1.120,-1.750
10391014,-0.984,-0.109,0.115,3.640,-0.560,-1.470
10391034,-0.992,-0.120,0.142,-0.420,0.210,-1.540
10391058,-0.997,-0.168,0.144,2.310,1.260,-2.660
10391077,-0.974,-0.115,0.113,3.500,2.800,-2.660
10391101,-0.978,-0.122,0.121,-0.350,2.940,-2.660
10391121,-0.990,-0.141,0.112,-1.540,2.940,-3.080
10391141,-1.014,-0.137,0.106,1.190,1.820,-2.730
10391161,-0.982,-0.124,0.100,-0.770,1.750,-2.940
10391185,-0.984,-0.165,0.118,-0.420,2.520,-3.080
10391200,-0.996,-0.149,0.101,2.590,2.310,-2.590
10391225,-0.996,-0.125,0.113,1.260,2.520,-2.590
10391245,-0.983,-0.177,0.115,2.380,3.010,-2.870
10391265,-0.988,-0.131,0.086,3.780,2.940,-2.590
10391288,-0.992,-0.135,0.093,2.660,2.240,-2.310
10391309,-1.018,-0.114,0.094,-0.490,0.140,-2.100
10391328,-0.988,-0.152,0.092,-1.400,0.700,-1.890
10391348,-0.986,-0.152,0.094,-0.560,-0.420,-1.330
10391368,-0.996,-0.141,0.090,-1.750,-1.190,-0.560
10391391,-1.009,-0.170,0.117,-1.050,-1.260,-0.630
10391412,-0.969,-0.135,0.076,0.910,-1.960,-0.630
10391428,-1.001,-0.144,0.090,0.000,-1.260,-0.490
10391449,-1.014,-0.138,0.108,0.490,-2.240,-0.700
10391468,-0.965,-0.126,0.104,-0.630,-1.120,-1.120
10391488,-0.995,-0.123,0.091,-1.890,-0.770,-0.770
10391512,-1.010,-0.128,0.106,-3.710,-1.330,-1.050
10391532,-0.964,-0.159,0.088,-2.870,-1.540,-0.910
10391551,-0.995,-0.159,0.079,-0.840,-1.610,-0.700
10391572,-1.029,-0.137,0.087,0.770,-3.500,-1.190
10391592,-0.972,-0.136,0.090,-0.140,-2.660,-1.680
10391612,-0.991,-0.147,0.088,2.660,-2.450,-1.820
10391632,-1.008,-0.131,0.096,2.800,-2.870,-2.100
10391652,-0.982,-0.140,0.092,2.310,-2.590,-2.450
10391671,-0.984,-0.143,0.093,2.800,-1.890,-2.660
10391695,-0.992,-0.127,0.096,2.100,-1.750,-2.730
10391713,-0.989,-0.143,0.100,1.890,-1.820,-3.080
10391735,-1.013,-0.137,0.073,3.080,-3.150,-3.500
10391755,-0.999,-0.125,0.097,-0.280,-3.500,-3.710
10391775,-0.984,-0.155,0.087,0.560,-3.920,-3.360
10391799,-0.994,-0.136,0.083,0.490,-4.550,-3.500
10391819,-0.981,-0.143,0.102,-0.560,-4.830,-3.640
10391839,-0.982,-0.179,0.096,1.400,-3.920,-3.850
10391859,-1.009,-0.121,0.084,2.730,-4.970,-3.430
10391877,-1.001,-0.117,0.103,-2.450,-5.460,-3.080
10391899,-0.985,-0.177,0.104,-1.960,-3.920,-3.570
10391923,-0.982,-0.147,0.102,1.260,-3.150,-3.290
10391938,-0.989,-0.147,0.119,-0.700,-1.890,-3.640
10391962,-0.982,-0.167,0.097,1.890,-0.910,-3.710
10391983,-0.986,-0.146,0.082,1.400,-0.980,-3.500
10392007,-0.998,-0.148,0.078,0.140,-1.960,-3.290
10392027,-1.017,-0.141,0.089,-1.050,-3.640,-2.940
10392047,-0.995,-0.137,0.082,-2.310,-4.340,-2.940
10392070,-0.987,-0.145,0.081,-2.240,-4.970,-2.660
10392091,-1.003,-0.153,0.081,-3.220,-7.210,-2.380
10392111,-1.011,-0.154,0.086,-1.820,-8.680,-2.590
10392131,-0.994,-0.143,0.088,-3.010,-8.680,-2.940
10392151,-0.982,-0.195,0.119,-2.030,-7.210,-3.010
10392175,-0.974,-0.169,0.119,0.840,-6.020,-2.380
10392190,-0.978,-0.166,0.141,0.000,-4.760,-2.310
10392215,-0.977,-0.163,0.121,1.610,-3.430,-2.660
10392235,-0.981,-0.140,0.108,1.260,-2.100,-2.800
10392255,-1.007,-0.140,0.096,-1.750,-2.520,-2.730
10392275,-0.982,-0.150,0.104,-3.010,-2.380,-2.520
10392294,-0.969,-0.167,0.104,-3.080,-1.610,-2.730
10392315,-0.980,-0.177,0.106,-1.470,-0.700,-2.660
10392339,-0.999,-0.157,0.101,0.350,-1.400,-2.730
10392359,-0.985,-0.155,0.115,0.840,-0.420,-3.010
10392379,-0.980,-0.153,0.099,1.120,-0.140,-3.290
10392403,-0.992,-0.139,0.095,-1.540,-0.210,-3.290
10392421,-0.987,-0.155,0.102,-2.450,-0.280,-3.150
10392443,-0.980,-0.182,0.101,0.000,0.070,-3.150
10392463,-0.989,-0.152,0.093,2.100,-0.070,-3.290
10392483,-0.991,-0.160,0.101,1.120,0.350,-3.010
10392503,-0.987,-0.171,0.103,1.960,0.770,-2.590
10392523,-0.968,-0.164,0.093,1.190,1.400,-1.960
10392543,-0.982,-0.165,0.087,0.350,1.400,-1.960
10392561,-1.001,-0.160,0.101,1.050,1.470,-2.450
10392581,-1.014,-0.127,0.078,1.050,-0.280,-3.290
10392605,-0.993,-0.147,0.063,0.000,-0.840,-4.270
10392624,-1.018,-0.191,0.070,3.080,-3.920,-3.710
10392644,-1.017,-0.180,0.062,0.630,-5.810,-2.240
10392665,-0.972,-0.171,0.082,4.550,-7.280,-1.470
10392689,-0.989,-0.175,0.083,5.110,-7.350,-2.450
10392706,-1.012,-0.130,0.077,2.730,-9.240,-2.870
10392728,-0.973,-0.143,0.113,-0.700,-8.330,-3.710
10392752,-0.984,-0.198,0.113,1.540,-5.600,-3.640
10392771,-0.975,-0.164,0.124,3.430,-4.480,-2.520
10392790,-0.965,-0.148,0.116,-2.660,-2.730,-2.170
10392809,-0.987,-0.193,0.097,-0.980,-2.170,-2.240
10392829,-0.998,-0.175,0.092,1.890,-2.380,-1.820
10392852,-0.999,-0.188,0.131,0.770,-3.010,-0.910
10392872,-0.989,-0.164,0.084,0.700,-3.640,-0.140
10392893,-0.996,-0.163,0.095,1.400,-4.620,-0.490
10392911,-0.982,-0.149,0.097,1.610,-4.970,-1.400
10392935,-0.995,-0.163,0.101,17.780,-4.550,-2.590
10392953,-0.985,-0.179,0.110,1.680,-4.200,-2.450
10392977,-0.978,-0.164,0.107,1.190,-4.340,-1.890
10392997,-0.992,-0.159,0.092,-1.400,-4.620,-1.610
10393015,-0.998,-0.172,0.102,-0.630,-5.040,-1.680
10393036,-0.988,-0.159,0.107,-0.350,-5.460,-1.470
10393060,-0.996,-0.158,0.100,-2.310,-5.600,-1.400
10393078,-0.987,-0.175,0.108,-0.910,-5.670,-1.400
10393102,-0.977,-0.165,0.118,0.910,-5.600,-2.030
10393122,-0.996,-0.161,0.108,-1.050,-4.970,-1.750
10393141,-0.974,-0.187,0.121,-0.070,-4.480,-1.610
10393164,-0.976,-0.175,0.121,0.910,-4.550,-0.980
10393185,-0.977,-0.166,0.117,-0.980,-3.220,-1.050
10393205,-0.985,-0.175,0.116,1.330,-2.870,-1.120
10393223,-0.989,-0.154,0.111,0.910,-3.010,-1.190
10393243,-0.990,-0.176,0.104,0.000,-2.730,-1.260
10393262,-0.989,-0.164,0.108,1.400,-3.220,-1.400
10393288,-0.996,-0.158,0.109,0.980,-3.290,-1.680
10393303,-0.991,-0.163,0.112,0.490,-3.640,-1.610
10393327,-0.986,-0.168,0.117,1.260,-3.850,-1.610
10393347,-0.983,-0.165,0.112,0.490,-3.430,-1.120
10393364,-0.991,-0.160,0.116,-0.210,-3.150,-0.980
10393384,-0.976,-0.174,0.121,-0.140,-2.380,-0.980
10393408,-0.984,-0.167,0.119,-0.210,-1.820,-0.840
10393425,-0.981,-0.161,0.123,-0.560,-1.960,-0.910
10393444,-0.985,-0.175,0.112,-0.840,-1.400,-0.840
10393463,-0.987,-0.164,0.110,0.560,-1.400,-0.910
10393485,-0.988,-0.166,0.112,-0.840,-0.770,-0.560
10393509,-0.989,-0.172,0.115,-0.140,-0.770,-0.770
10393529,-0.992,-0.162,0.105,0.210,-0.140,-1.120
10393546,-0.990,-0.170,0.119,1.680,0.700,-1.120
10393570,-0.991,-0.167,0.102,2.310,0.280,-0.910
10393589,-0.982,-0.163,0.106,1.120,0.770,-0.840
10393609,-0.989,-0.179,0.109,2.100,1.260,-0.840
10393629,-0.983,-0.161,0.107,3.150,1.260,-0.980
10393653,-0.976,-0.155,0.098,2.240,2.100,-1.540
10393673,-0.989,-0.172,0.100,4.480,1.470,-1.890
10393693,-0.987,-0.153,0.089,4.830,1.260,-1.890
10393717,-1.008,-0.151,0.094,1.400,0.840,-2.030
10393737,-0.996,-0.169,0.092,2.660,-0.070,-2.030
10393757,-0.977,-0.161,0.092,2.310,0.350,-1.820
10393781,-1.003,-0.160,0.098,1.540,-0.070,-1.540
10393797,-1.003,-0.164,0.080,2.450,-0.980,-1.470
10393821,-0.986,-0.163,0.083,1.960,-1.540,-1.330
10393841,-0.995,-0.167,0.090,2.310,-2.100,-1.120
10393861,-0.996,-0.160,0.085,2.940,-2.730,-1.190
10393879,-0.983,-0.161,0.094,3.010,-2.380,-1.400
10393903,-0.983,-0.166,0.098,3.220,-2.030,-1.260
10393919,-1.004,-0.151,0.098,2.590,-2.380,-1.190
10393941,-0.998,-0.158,0.104,0.210,-2.240,-1.050
10393965,-0.989,-0.156,0.088,0.000,-2.100,-0.910
10393985,-0.985,-0.156,0.095,-2.380,-1.610,-1.330
10394005,-0.989,-0.171,0.089,-0.350,-1.820,-1.540
10394022,-0.991,-0.164,0.087,1.330,-1.750,-1.610
10394046,-0.989,-0.169,0.087,2.870,-2.170,-1.610
10394066,-0.978,-0.153,0.086,2.940,-1.540,-1.820
10394090,-0.994,-0.158,0.092,2.590,-2.170,-1.470
10394110,-0.987,-0.163,0.093,1.820,-1.750,-1.050
10394130,-0.984,-0.164,0.095,0.840,-1.330,-0.700
10394154,-0.998,-0.155,0.089,0.910,-0.910,-1.120
10394174,-0.994,-0.164,0.091,1.960,-0.630,-1.540
10394190,-0.994,-0.156,0.090,1.330,-0.770,-1.400
10394214,-0.990,-0.152,0.080,0.070,-1.470,-1.260
10394233,-0.990,-0.159,0.078,-0.420,-2.170,-1.330
10394258,-0.996,-0.156,0.082,0.700,-2.870,-1.820
10394278,-0.990,-0.162,0.082,1.750,-3.220,-2.170
10394297,-0.988,-0.163,0.097,1.260,-3.080,-2.030
10394317,-0.988,-0.166,0.092,1.820,-2.800,-1.610
10394341,-0.996,-0.147,0.084,0.630,-2.870,-1.330
10394361,-0.989,-0.154,0.095,-1.330,-2.940,-1.260
10394381,-0.986,-0.166,0.090,-0.700,-2.870,-0.980
10394400,-0.999,-0.149,0.085,-0.490,-3.080,-0.840
10394422,-0.983,-0.168,0.094,-0.910,-2.590,-0.910
10394442,-0.986,-0.169,0.078,-1.330,-3.010,-0.490
10394461,-0.991,-0.149,0.069,-1.470,-4.340,-0.840
10394486,-1.000,-0.151,0.084,-2.100,-5.110,-1.330
10394506,-0.997,-0.144,0.090,-0.700,-5.180,-1.960
10394526,-0.981,-0.145,0.086,-0.840,-4.480,-2.870
10394547,-0.985,-0.137,0.094,-0.420,-4.270,-3.710
10394567,-1.004,-0.140,0.112,-2.660,-3.360,-4.270
10394590,-0.996,-0.171,0.094,-2.450,-2.660,-4.620
10394611,-0.983,-0.172,0.087,-1.120,-2.940,-4.410
10394630,-0.996,-0.155,0.085,-3.220,-2.590,-4.060
10394650,-0.996,-0.175,0.078,-3.640,-3.570,-4.200
10394674,-0.991,-0.170,0.084,-0.140,-4.130,-4.830
10394694,-0.980,-0.151,0.085,-1.400,-3.570,-5.040
10394709,-0.995,-0.183,0.084,-1.050,-3.500,-5.180
10394729,-0.996,-0.181,0.090,0.630,-4.130,-4.410
10394753,-0.993,-0.157,0.102,-2.380,-4.200,-4.130
10394774,-0.974,-0.199,0.097,-2.380,-3.010,-4.060
10394791,-0.971,-0.171,0.091,0.420,-2.870,-3.710
10394815,-0.996,-0.149,0.096,-3.710,-2.730,-3.430
10394835,-0.985,-0.178,0.105,-2.870,-2.240,-3.920
10394859,-0.976,-0.156,0.090,-2.380,-1.190,-4.130
10394879,-0.987,-0.188,0.086,-2.940,-1.050,-3.710
10394899,-0.992,-0.196,0.091,-2.240,-1.750,-3.010
10394914,-0.985,-0.176,0.088,-3.290,-1.890,-2.590
10394936,-0.974,-0.208,0.098,-0.840,-1.610,-2.030
10394960,-0.989,-0.166,0.083,0.840,-1.680,-1.400
10394980,-0.992,-0.169,0.080,-0.980,-2.450,-1.120
10395000,-0.978,-0.201,0.092,-0.910,-2.170,-0.770
10395024,-0.976,-0.181,0.092,1.540,-1.890,-0.630
10395042,-0.994,-0.173,0.084,1.470,-2.310,-0.770
10395061,-0.982,-0.183,0.090,0.980,-2.310,-0.560
10395086,-0.981,-0.166,0.088,0.070,-2.520,-0.420
10395106,-0.990,-0.179,0.080,-0.210,-2.590,-0.630
10395125,-0.993,-0.178,0.082,0.840,-3.150,-0.700
10395145,-0.992,-0.156,0.074,-0.070,-4.270,-0.840
10395165,-0.988,-0.171,0.071,-0.350,-4.760,-1.330
10395189,-1.001,-0.163,0.067,0.210,-5.460,-1.680
10395209,-1.002,-0.160,0.094,-1.050,-7.210,-1.820
10395229,-1.004,-0.172,0.085,2.100,-7.840,-2.520
10395247,-0.983,-0.167,0.101,3.780,-6.930,-3.360
10395271,-0.991,-0.185,0.100,3.990,-7.210,-2.590
10395288,-0.973,-0.197,0.107,4.200,-6.720,-1.680
10395311,-0.961,-0.163,0.128,1.120,-4.480,-0.840
10395335,-0.975,-0.190,0.113,2.100,-2.800,-0.840
10395353,-0.981,-0.160,0.099,1.190,-2.380,-0.700
10395377,-0.981,-0.174,0.099,-2.310,-1.820,-0.210
10395397,-0.994,-0.181,0.101,-2.030,-2.450,-0.070
10395417,-0.987,-0.161,0.096,-2.520,-1.750,-0.630
10395437,-0.988,-0.181,0.094,0.490,-1.470,-1.540
10395461,-0.992,-0.170,0.093,3.080,-2.170,-1.610
10395481,-1.000,-0.174,0.092,2.240,-2.380,-1.680
10395501,-0.995,-0.193,0.097,4.200,-3.360,-1.820
10395519,-0.993,-0.142,0.081,1.750,-4.970,-1.610
10395541,-0.997,-0.163,0.095,-0.770,-5.670,-1.470
10395557,-0.976,-0.187,0.102,0.630,-5.040,-1.470
10395577,-0.981,-0.161,0.105,2.030,-4.270,-1.540
10395601,-0.990,-0.167,0.096,-1.120,-4.060,-0.980
10395619,-0.989,-0.188,0.101,-0.700,-4.130,-0.560
10395637,-0.988,-0.171,0.101,-0.770,-4.270,-0.140
10395661,-0.989,-0.163,0.096,-2.590,-4.550,-0.210
10395681,-0.987,-0.186,0.115,-1.190,-4.410,-0.140
10395700,-0.974,-0.189,0.109,0.770,-3.990,0.210
10395717,-0.989,-0.171,0.102,0.490,-3.990,0.490
10395736,-0.986,-0.163,0.108,0.070,-3.780,0.420
10395759,-0.982,-0.183,0.110,1.610,-3.010,-0.070
10395781,-0.987,-0.167,0.103,2.590,-2.940,0.070
10395798,-0.980,-0.168,0.112,1.890,-2.800,0.070
10395822,-0.985,-0.182,0.112,4.060,-1.750,0.070
10395842,-0.987,-0.159,0.097,5.180,-1.890,-0.140
10395865,-0.995,-0.145,0.105,2.170,-1.260,-0.770
10395884,-0.997,-0.172,0.102,3.430,-1.750,-1.330
10395904,-0.982,-0.164,0.102,4.270,-1.540,-1.470
10395929,-0.982,-0.158,0.101,2.800,-1.260,-1.400
10395944,-0.987,-0.164,0.116,3.430,-1.190,-1.680
10395965,-0.992,-0.145,0.102,3.360,-0.490,-1.820
10395989,-0.990,-0.157,0.102,2.730,-0.140,-2.030
10396009,-0.996,-0.155,0.100,0.420,-0.770,-1.750
10396024,-0.983,-0.167,0.092,-0.280,-0.280,-1.400
10396049,-0.994,-0.168,0.092,-0.210,-0.980,-1.260
10396068,-0.988,-0.155,0.094,-0.560,-1.750,-1.610
10396088,-0.992,-0.169,0.092,0.000,-1.890,-1.540
10396109,-0.995,-0.154,0.096,0.140,-2.170,-1.330
10396130,-0.988,-0.162,0.099,-1.820,-2.100,-1.190
10396151,-0.987,-0.175,0.094,-0.490,-1.820,-0.910
10396170,-0.990,-0.172,0.101,0.210,-1.820,-0.700
10396194,-0.988,-0.164,0.097,0.140,-1.960,-0.840
10396215,-0.985,-0.158,0.091,0.350,-1.890,-0.980
10396239,-0.984,-0.166,0.102,0.700,-1.680,-0.980
10396259,-0.988,-0.162,0.088,1.820,-1.330,-1.120
10396276,-0.998,-0.150,0.086,0.980,-1.820,-1.120
10396299,-0.989,-0.163,0.092,1.540,-1.680,-1.400
10396319,-0.988,-0.160,0.093,1.050,-1.750,-0.840
10396338,-0.989,-0.166,0.093,1.260,-2.310,-0.630
10396362,-0.979,-0.156,0.094,0.770,-2.310,-0.700
10396382,-0.983,-0.169,0.091,1.330,-2.520,-0.560
10396398,-0.995,-0.167,0.091,2.240,-3.010,-0.350
10396417,-0.988,-0.158,0.097,1.750,-3.010,-0.070
10396441,-0.986,-0.166,0.101,1.540,-2.870,-0.070
10396462,-0.991,-0.166,0.096,3.290,-2.030,-0.210
10396486,-1.003,-0.150,0.092,2.520,-2.450,-0.350
10396504,-0.996,-0.151,0.099,1.610,-2.170,-0.140
10396526,-0.988,-0.161,0.091,1.960,-1.890,-0.210
10396548,-0.982,-0.148,0.097,1.750,-1.890,-0.280
10396568,-0.980,-0.165,0.098,2.030,-1.400,-0.630
10396588,-0.987,-0.169,0.095,4.620,-1.750,-0.980
10396612,-0.985,-0.152,0.100,5.180,-0.980,-1.190
10396632,-0.982,-0.153,0.106,3.780,0.210,-1.120
10396649,-0.984,-0.155,0.098,3.990,0.840,-1.050
10396668,-0.985,-0.142,0.086,2.450,1.120,-0.630
10396691,-0.995,-0.154,0.090,0.420,1.190,-0.420
10396708,-0.996,-0.149,0.080,0.700,0.770,-0.280
10396728,-1.000,-0.159,0.077,1.260,0.140,-0.420
10396752,-0.999,-0.146,0.076,1.400,-0.630,-0.630
10396773,-1.001,-0.156,0.072,1.890,-1.890,-0.910
10396793,-1.008,-0.143,0.066,2.660,-3.430,-1.190
10396813,-0.996,-0.145,0.083,0.700,-4.060,-1.400
10396833,-0.996,-0.150,0.085,0.980,-4.690,-1.330
10396853,-0.999,-0.139,0.080,1.680,-5.250,-1.400
10396877,-0.987,-0.147,0.085,0.700,-5.250,-1.540
10396897,-0.990,-0.157,0.094,0.000,-5.600,-1.330
10396915,-0.986,-0.157,0.096,0.280,-4.900,-1.120
10396937,-0.986,-0.142,0.091,-0.070,-4.760,-0.980
10396961,-0.981,-0.152,0.094,-0.630,-4.480,-1.050
10396981,-0.996,-0.155,0.095,-0.210,-4.620,-0.770
10396999,-0.992,-0.135,0.090,-1.260,-4.760,-0.490
10397018,-1.002,-0.148,0.095,-3.150,-4.900,-0.420
10397043,-0.987,-0.162,0.098,-2.100,-4.620,-0.350
10397063,-0.985,-0.139,0.096,-1.890,-4.200,-1.050
10397083,-0.995,-0.136,0.096,-2.170,-4.200,-1.680
10397102,-0.995,-0.150,0.096,-0.910,-3.850,-2.030
10397123,-0.981,-0.147,0.095,-0.840,-3.500,-2.170
10397138,-0.983,-0.156,0.094,-0.910,-3.150,-2.310
10397161,-1.000,-0.160,0.100,0.420,-3.290,-2.520
10397181,-0.993,-0.150,0.093,0.700,-2.940,-2.310
10397205,-0.981,-0.150,0.090,-0.070,-3.080,-2.170
10397225,-0.988,-0.149,0.090,-0.420,-3.570,-2.310
10397245,-0.999,-0.147,0.098,0.280,-3.850,-2.870
10397265,-0.992,-0.152,0.101,0.700,-3.570,-3.010
10397285,-0.973,-0.159,0.100,1.470,-2.870,-3.150
10397305,-1.004,-0.153,0.094,2.520,-3.430,-3.150
10397324,-0.998,-0.149,0.103,2.100,-3.290,-3.220
10397343,-0.979,-0.163,0.103,2.450,-2.590,-3.430
10397363,-0.998,-0.157,0.094,3.920,-2.590,-3.010
10397387,-0.997,-0.141,0.104,2.380,-2.800,-3.010
10397407,-0.988,-0.158,0.106,1.330,-2.730,-2.800
10397427,-0.995,-0.165,0.093,3.010,-2.940,-2.240
10397444,-0.997,-0.144,0.096,1.330,-2.730,-1.960
10397463,-0.982,-0.156,0.102,-1.260,-2.170,-1.750
10397488,-0.986,-0.154,0.102,-0.630,-2.380,-1.960
10397504,-0.987,-0.136,0.090,-1.050,-2.170,-2.380
10397523,-0.996,-0.133,0.091,-4.130,-2.800,-2.170
10397548,-0.990,-0.161,0.093,-5.810,-3.430,-1.820
10397567,-0.987,-0.156,0.093,-4.550,-3.710,-2.100
10397590,-0.991,-0.156,0.092,-3.850,-3.290,-3.010
10397611,-0.995,-0.160,0.088,-2.380,-3.150,-3.780
10397630,-0.993,-0.142,0.100,-1.330,-3.290,-4.200
10397653,-0.987,-0.145,0.111,-3.780,-1.610,-5.180
10397672,-0.990,-0.201,0.097,0.770,-2.170,-4.830
10397692,-0.994,-0.170,0.093,0.420,-3.710,-2.660
10397715,-1.009,-0.168,0.084,-3.780,-6.300,-0.490
10397736,-1.009,-0.170,0.078,-3.360,-7.490,-1.120
10397751,-1.021,-0.166,0.094,0.280,-8.750,-1.890
10397776,-0.982,-0.163,0.096,3.990,-8.750,-2.800
10397795,-0.974,-0.178,0.116,4.900,-7.770,-2.520
10397816,-0.978,-0.172,0.119,5.600,-6.790,-2.030
10397836,-0.959,-0.170,0.134,5.110,-4.130,-1.400
10397860,-0.967,-0.144,0.130,1.610,-1.260,-1.330
10397875,-0.979,-0.159,0.118,0.560,-0.420,-1.260
10397898,-0.987,-0.155,0.114,-0.560,0.140,-1.260
10397920,-1.005,-0.165,0.095,-2.170,-1.050,-0.910
10397943,-1.001,-0.153,0.086,-1.330,-2.170,-1.470
10397964,-0.997,-0.163,0.096,-0.490,-2.590,-2.170
10397983,-0.985,-0.153,0.102,1.190,-2.590,-2.870
10398005,-0.990,-0.169,0.116,1.960,-2.800,-3.010
10398026,-0.987,-0.168,0.107,0.770,-1.960,-2.520
10398050,-0.977,-0.162,0.106,0.910,-1.680,-2.380
10398070,-0.983,-0.153,0.109,-0.210,-0.840,-2.520
10398090,-0.982,-0.161,0.107,0.140,-0.350,-2.520
10398106,-0.980,-0.168,0.104,0.490,-0.280,-2.520
10398126,-0.994,-0.158,0.097,0.280,-0.490,-2.520
10398146,-0.997,-0.162,0.094,0.210,-1.120,-2.800
10398166,-0.991,-0.162,0.087,0.280,-1.610,-2.590
10398185,-0.993,-0.160,0.090,-1.190,-2.590,-2.030
10398209,-0.989,-0.182,0.106,-0.420,-3.220,-1.820
10398229,-0.999,-0.159,0.099,0.490,-3.710,-1.750
10398253,-0.987,-0.166,0.103,-1.050,-3.430,-1.750
10398273,-0.978,-0.171,0.111,-0.490,-2.730,-1.750
10398290,-0.988,-0.161,0.104,0.350,-2.100,-2.100
10398309,-0.981,-0.156,0.101,-0.280,-1.960,-2.170
10398334,-0.984,-0.173,0.101,-0.630,-1.890,-2.030
10398354,-0.990,-0.169,0.105,-0.490,-1.680,-1.400
10398374,-0.991,-0.166,0.093,-0.140,-2.170,-1.330
10398393,-0.991,-0.164,0.096,-0.210,-2.520,-1.120
10398411,-0.990,-0.168,0.102,-0.140,-3.080,-1.260
10398431,-0.987,-0.171,0.097,0.910,-3.080,-1.120
10398452,-0.988,-0.163,0.099,1.190,-2.730,-1.190
10398472,-0.990,-0.171,0.111,0.420,-2.310,-1.400
10398496,-0.982,-0.165,0.107,1.610,-1.540,-1.680
10398516,-0.993,-0.160,0.098,1.540,-0.980,-1.330
10398536,-0.991,-0.160,0.106,-0.980,-0.770,-1.050
10398556,-0.978,-0.175,0.106,-0.280,-0.210,-0.910
10398580,-0.996,-0.172,0.088,1.400,-0.140,-0.980
10398600,-0.994,-0.158,0.092,0.000,-0.490,-1.120
10398616,-0.995,-0.172,0.099,-0.700,-0.770,-0.910
10398639,-0.991,-0.173,0.091,0.490,-0.420,-0.840
10398657,-0.996,-0.156,0.086,1.330,-0.350,-0.910
10398681,-0.988,-0.160,0.099,0.070,-0.140,-1.120
10398701,-0.981,-0.187,0.097,3.080,0.140,-1.400
10398721,-0.993,-0.157,0.083,3.430,-0.070,-1.540
10398739,-0.996,-0.155,0.083,2.380,-0.280,-1.680
10398756,-0.986,-0.146,0.087,1.050,-0.420,-1.820
10398776,-0.992,-0.167,0.093,1.750,-0.420,-1.680
10398796,-0.981,-0.162,0.084,2.240,-0.280,-1.540
10398819,-0.987,-0.170,0.089,1.820,-0.350,-1.400
10398839,-0.982,-0.172,0.087,2.590,0.140,-1.260
10398863,-0.990,-0.162,0.079,2.660,-0.140,-1.330
10398882,-0.987,-0.156,0.081,2.450,-0.700,-1.260
10398903,-1.001,-0.150,0.073,1.610,-1.540,-1.190
10398927,-0.996,-0.150,0.072,-0.210,-2.030,-0.910
10398947,-1.001,-0.160,0.073,-0.630,-2.940,-0.630
10398967,-0.980,-0.165,0.078,-1.120,-3.360,-0.420
10398984,-0.998,-0.171,0.086,-0.490,-3.710,-0.070
10399008,-1.003,-0.156,0.084,0.350,-3.920,-0.280
10399028,-0.981,-0.161,0.083,0.910,-3.150,-0.630
10399046,-0.988,-0.162,0.082,2.170,-3.290,-0.700
10399064,-1.000,-0.152,0.080,1.610,-3.850,-0.770
10399083,-0.992,-0.159,0.089,0.910,-3.570,-0.770
10399108,-0.996,-0.165,0.092,1.750,-3.220,-0.980
10399132,-0.998,-0.160,0.085,2.240,-3.360,-0.840
10399152,-0.993,-0.156,0.083,1.470,-3.570,-0.490
10399167,-0.979,-0.161,0.082,0.840,-3.570,-0.490
10399188,-0.987,-0.160,0.084,1.540,-3.220,-0.490
10399208,-1.003,-0.151,0.089,1.680,-3.640,-0.350
10399231,-0.969,-0.160,0.085,0.700,-2.660,-0.560
10399254,-0.985,-0.172,0.085,2.030,-2.100,0.210
10399272,-1.000,-0.141,0.084,0.560,-2.730,0.280
10399294,-0.992,-0.155,0.096,-0.210,-2.520,-0.280
10399315,-0.996,-0.154,0.088,1.890,-3.220,-0.630
10399334,-1.002,-0.155,0.081,1.470,-3.640,-0.700
10399354,-0.993,-0.157,0.082,1.680,-3.850,-0.560
10399379,-0.978,-0.154,0.088,1.680,-3.640,-0.700
10399399,-1.000,-0.150,0.090,2.730,-3.220,-0.910
10399417,-1.006,-0.137,0.098,2.380,-2.940,-1.050
10399438,-0.983,-0.135,0.098,0.770,-2.590,-1.330
10399457,-0.971,-0.163,0.084,1.260,-2.100,-1.190
10399478,-1.004,-0.148,0.081,1.190,-3.500,-0.910
10399500,-0.996,-0.139,0.080,-17.920,-4.550,-1.050
10399520,-0.985,-0.148,0.085,-0.210,-4.410,-1.400
10399540,-0.995,-0.159,0.093,1.540,-4.690,-1.960
10399560,-0.992,-0.152,0.095,1.400,-4.200,-2.100
10399583,-0.993,-0.149,0.097,0.700,-3.780,-2.030
10399606,-0.986,-0.159,0.089,1.610,-3.220,-2.030
10399629,-0.993,-0.146,0.095,1.610,-2.940,-2.100
10399647,-0.988,-0.141,0.090,0.840,-2.870,-2.380
10399667,-0.996,-0.148,0.087,0.420,-3.080,-2.590
10399686,-0.994,-0.139,0.090,-17.920,-3.710,-2.100
10399711,-0.990,-0.152,0.092,-2.170,-4.130,-2.100
10399728,-0.989,-0.161,0.084,-1.260,-4.130,-2.030
10399750,-0.994,-0.144,0.083,-0.560,-4.830,-2.450
10399773,-0.993,-0.155,0.090,-0.630,-5.390,-2.660
10399794,-0.993,-0.174,0.092,2.030,-6.230,-2.590
10399814,-0.997,-0.135,0.092,0.280,-7.140,-2.450
10399832,-0.984,-0.158,0.100,-1.960,-6.300,-2.520
10399856,-0.977,-0.172,0.111,0.350,-6.160,-2.380
10399871,-0.988,-0.144,0.102,-0.420,-5.740,-2.100
10399894,-0.985,-0.152,0.106,-2.240,-5.320,-2.240
10399915,-0.985,-0.164,0.115,-1.120,-4.130,-2.590
10399935,-0.991,-0.160,0.103,1.890,-3.850,-2.520
10399959,-0.983,-0.161,0.102,1.120,-3.570,-2.730
10399979,-0.984,-0.161,0.108,1.540,-3.430,-3.150
10399998,-0.978,-0.152,0.105,1.680,-2.590,-3.290
10400019,-0.988,-0.165,0.109,4.060,-2.310,-3.570
10400037,-0.990,-0.146,0.107,4.200,-2.730,-3.850
10400061,-0.988,-0.154,0.089,2.940,-2.660,-3.990
10400081,-0.993,-0.172,0.095,3.010,-3.640,-3.430
10400101,-0.996,-0.141,0.095,0.630,-4.200,-3.010
10400121,-0.999,-0.161,0.093,-0.910,-4.620,-2.660
10400141,-0.988,-0.166,0.109,-0.210,-4.620,-2.450
10400161,-0.994,-0.161,0.118,-0.280,-5.040,-1.890
10400181,-0.980,-0.140,0.116,-2.310,-4.200,-2.030
10400205,-0.992,-0.170,0.109,-1.470,-3.850,-2.240
10400223,-0.979,-0.172,0.119,-0.910,-3.360,-1.960
10400245,-0.976,-0.163,0.110,-1.260,-3.360,-1.540
10400265,-0.985,-0.170,0.113,-0.490,-3.220,-1.750
10400284,-0.993,-0.165,0.105,-0.210,-3.080,-1.540
10400308,-0.982,-0.156,0.112,-1.330,-2.590,-1.680
10400328,-0.989,-0.163,0.113,-1.680,-2.030,-1.960
10400347,-0.999,-0.163,0.104,-0.280,-1.750,-2.310
10400370,-0.993,-0.152,0.105,-1.820,-2.310,-1.610
10400388,-0.983,-0.152,0.100,-5.880,-2.800,-0.980
10400411,-0.985,-0.189,0.110,-1.190,-3.710,-0.280
10400428,-0.983,-0.126,0.110,-1.190,-3.850,-0.210
10400448,-0.981,-0.155,0.097,-3.640,-4.480,-1.050
10400469,-0.980,-0.164,0.102,-1.610,-4.900,-1.750
10400488,-1.005,-0.132,0.106,-3.220,-5.740,-2.590
10400513,-0.980,-0.181,0.110,-1.890,-5.110,-3.290
10400533,-0.998,-0.151,0.107,-0.420,-4.690,-3.640
10400552,-0.987,-0.172,0.113,-1.890,-3.920,-3.430
10400572,-0.968,-0.175,0.133,-0.210,-3.570,-3.430
10400596,-0.965,-0.147,0.127,0.350,-0.840,-3.500
10400616,-0.986,-0.169,0.116,-1.260,-1.330,-3.360
10400636,-0.980,-0.183,0.101,-0.630,-2.030,-2.380
10400656,-0.991,-0.144,0.102,-3.780,-2.730,-1.610
10400679,-0.987,-0.165,0.107,-5.250,-2.800,-2.100
10400700,-0.988,-0.190,0.114,-1.470,-2.730,-2.030
10400719,-0.973,-0.176,0.120,-1.820,-1.540,-1.820
10400739,-0.983,-0.180,0.113,-1.750,-1.120,-1.120
10400763,-0.992,-0.158,0.111,-1.540,-1.470,-1.190
10400783,-0.992,-0.178,0.109,-0.700,-1.750,-1.260
10400803,-0.979,-0.167,0.113,-0.350,-1.120,-1.680
10400823,-0.984,-0.163,0.112,-0.070,-0.840,-1.960
10400846,-0.988,-0.171,0.110,0.770,-0.980,-2.240
10400867,-0.984,-0.162,0.102,1.680,-1.260,-2.380
10400886,-0.990,-0.170,0.094,1.050,-1.050,-2.310
10400905,-0.985,-0.170,0.102,1.050,-1.120,-2.380
10400927,-0.983,-0.161,0.112,0.700,-1.120,-2.240
10400945,-0.980,-0.167,0.102,-0.980,-1.120,-2.100
10400969,-0.986,-0.181,0.103,0.070,-1.330,-1.540
