Millis,AccelX,AccelY,AccelZ,GyroX,GyroY,GyroZ
158862570,-0.863,-0.030,0.531,2.240,-1.400,-2.590
158862591,-0.856,-0.031,0.536,2.310,-0.980,-2.590
158862611,-0.860,-0.022,0.538,1.190,-0.700,-2.660
158862630,-0.872,-0.009,0.553,-1.260,-0.980,-2.730
158862650,-0.869,-0.020,0.552,-2.450,-1.260,-2.310
158862673,-0.865,-0.032,0.561,-1.190,-2.730,-2.030
158862694,-0.859,-0.014,0.562,-3.500,-3.780,-2.100
158862709,-0.857,-0.008,0.563,-6.300,-4.550,-1.680
158862729,-0.851,-0.007,0.562,-9.170,-5.810,-0.630
158862754,-0.851,-0.037,0.546,-6.370,-6.300,0.420
158862774,-0.843,-0.055,0.547,-1.050,-5.740,0.770
158862794,-0.851,-0.037,0.549,1.610,-5.530,0.420
158862813,-0.854,-0.018,0.545,0.140,-5.740,0.420
158862834,-0.855,-0.022,0.541,-1.190,-5.950,0.840
158862854,-0.862,-0.034,0.541,-0.840,-5.040,1.050
158862874,-0.857,-0.041,0.539,0.770,-4.760,1.190
158862895,-0.866,-0.025,0.546,1.330,-5.180,0.560
158862915,-0.857,-0.026,0.544,0.840,-5.600,0.420
158862938,-0.845,-0.027,0.536,0.560,-5.180,1.120
158862961,-0.836,-0.035,0.540,-0.910,-4.620,1.750
158862980,-0.836,-0.027,0.540,-1.190,-4.130,1.960
158863004,-0.844,-0.032,0.539,-0.560,-3.010,2.170
158863019,-0.847,-0.040,0.534,-0.700,-2.730,2.100
158863044,-0.855,-0.034,0.535,1.470,-2.240,2.240
158863059,-0.848,-0.027,0.539,0.210,-1.680,2.240
158863084,-0.858,-0.031,0.544,-1.330,-1.540,2.800
158863104,-0.848,-0.033,0.543,-0.840,-1.050,3.010
158863128,-0.840,-0.039,0.537,-0.490,-0.630,2.870
158863148,-0.848,-0.035,0.549,-2.170,-0.420,2.240
158863168,-0.854,-0.043,0.545,-0.560,-0.560,1.680
158863188,-0.855,-0.035,0.539,0.910,-0.280,1.540
158863207,-0.861,-0.029,0.549,-0.350,-0.070,1.540
158863227,-0.863,-0.035,0.547,-0.840,-0.420,1.120
158863245,-0.855,-0.045,0.546,1.050,-0.560,0.980
158863265,-0.853,-0.024,0.553,2.240,-0.700,1.540
158863285,-0.859,-0.023,0.548,1.190,-0.700,1.680
158863309,-0.854,-0.032,0.549,0.980,-1.190,0.840
158863328,-0.849,-0.037,0.553,3.010,-1.330,0.280
158863346,-0.858,-0.025,0.557,3.850,-1.680,0.420
158863370,-0.855,-0.015,0.551,3.150,-2.030,1.120
158863390,-0.852,-0.031,0.540,2.380,-2.380,0.560
158863410,-0.851,-0.021,0.552,1.470,-1.820,-0.560
158863434,-0.856,-0.015,0.544,1.120,-1.820,-1.540
158863454,-0.864,-0.004,0.529,1.470,-1.680,0.000
158863472,-0.868,-0.003,0.521,1.190,-1.120,1.960
158863495,-0.873,-0.001,0.537,-0.210,-0.140,4.340
158863515,-0.866,-0.005,0.545,0.910,1.610,6.090
158863534,-0.877,0.018,0.536,-1.330,0.980,8.680
158863559,-0.871,-0.037,0.520,-2.170,0.560,8.400
158863583,-0.855,-0.039,0.533,1.190,-0.420,4.620
158863603,-0.849,-0.027,0.523,6.090,-0.490,1.750
158863623,-0.848,-0.012,0.526,5.880,-0.140,1.330
158863647,-0.854,-0.001,0.533,4.900,0.140,3.710
158863667,-0.859,0.002,0.524,5.040,0.560,3.920
158863682,-0.862,-0.006,0.530,4.060,1.190,2.800
158863707,-0.862,-0.011,0.558,0.350,1.400,0.350
158863727,-0.852,-0.034,0.573,-0.210,2.170,-1.820
158863747,-0.881,-0.048,0.587,-1.260,1.190,-2.030
158863763,-0.880,-0.046,0.586,-3.360,-0.490,-2.940
158863787,-0.860,-0.046,0.565,-6.440,-3.990,-5.530
158863803,-0.849,-0.055,0.540,-4.900,-6.020,-7.280
158863827,-0.851,-0.046,0.522,2.940,-5.670,-8.120
158863847,-0.866,-0.025,0.514,7.700,-3.780,-8.330
158863865,-0.876,0.005,0.506,8.540,-3.570,-8.540
158863884,-0.874,0.021,0.488,6.160,-3.220,-8.330
158863909,-0.855,0.033,0.502,0.420,-1.400,-6.160
158863929,-0.860,0.030,0.508,-2.590,0.140,-3.710
158863949,-0.859,0.008,0.494,-0.560,1.190,-1.820
158863967,-0.863,0.008,0.495,0.840,1.680,0.000
158863988,-0.860,0.005,0.495,2.590,2.450,0.980
158864012,-0.865,0.025,0.517,2.380,3.010,1.120
158864032,-0.866,0.011,0.528,1.610,3.290,1.330
158864052,-0.870,0.006,0.516,2.870,3.220,3.640
158864072,-0.875,-0.005,0.509,5.110,3.290,4.550
158864092,-0.882,0.002,0.539,4.410,3.080,4.550
158864112,-0.872,0.000,0.541,2.100,2.450,3.780
158864131,-0.878,-0.014,0.532,0.490,1.610,3.500
158864150,-0.871,-0.026,0.525,0.140,2.170,3.570
158864173,-0.877,-0.040,0.517,2.870,1.680,3.010
158864193,-0.876,-0.022,0.525,2.520,0.840,1.890
158864212,-0.877,-0.020,0.519,0.980,0.910,0.840
158864237,-0.878,-0.030,0.520,-0.210,0.910,-0.770
158864256,-0.879,-0.031,0.521,0.140,0.770,-1.890
158864276,-0.877,-0.017,0.511,1.750,-0.070,-1.960
158864299,-0.876,-0.014,0.512,0.420,-0.280,-1.470
158864316,-0.876,-0.016,0.510,0.420,-0.350,-1.610
158864340,-0.878,-0.019,0.509,2.170,-0.840,-2.310
158864360,-0.874,-0.013,0.494,3.920,-1.120,-1.890
158864380,-0.867,0.002,0.491,3.220,-0.560,-0.980
158864399,-0.872,0.007,0.483,1.750,0.000,0.560
158864416,-0.876,0.043,0.498,-2.170,0.910,1.890
158864435,-0.878,0.044,0.526,-12.180,2.240,3.080
158864460,-0.883,-0.004,0.518,-12.600,1.260,4.060
158864480,-0.881,-0.036,0.506,-1.960,-0.420,3.290
158864500,-0.879,-0.017,0.512,9.310,-0.560,3.360
158864520,-0.874,0.005,0.512,11.620,-0.490,3.640
158864544,-0.895,-0.016,0.522,11.900,-1.960,4.270
158864564,-0.896,-0.058,0.517,23.310,0.770,5.670
158864584,-0.889,-0.034,0.472,35.280,-0.350,6.370
158864604,-0.885,0.002,0.439,36.960,1.470,9.170
158864623,-0.891,0.020,0.422,31.500,2.660,12.810
158864643,-0.905,0.007,0.415,31.780,3.360,14.280
158864666,-0.893,0.000,0.403,31.430,5.390,14.420
158864687,-0.880,0.008,0.404,33.320,6.440,14.280
158864707,-0.882,0.025,0.414,33.950,9.310,17.150
158864731,-0.899,0.032,0.423,38.360,10.220,24.080
158864751,-0.907,0.061,0.431,45.010,12.810,28.910
158864770,-0.922,0.082,0.447,53.830,12.810,32.130
158864790,-0.914,0.129,0.447,58.100,11.410,32.480
158864811,-0.885,0.136,0.452,59.710,11.970,31.220
158864831,-0.887,0.159,0.464,60.340,10.920,30.520
158864849,-0.882,0.181,0.460,59.780,11.340,30.170
158864868,-0.887,0.200,0.445,58.450,10.080,29.120
158864893,-0.875,0.231,0.450,51.590,9.450,26.530
158864913,-0.893,0.268,0.473,37.940,9.100,25.060
158864933,-0.896,0.248,0.473,25.690,8.470,23.940
158864957,-0.895,0.241,0.466,22.120,8.540,23.170
158864977,-0.875,0.270,0.464,15.190,7.980,20.580
158864997,-0.857,0.271,0.464,8.330,8.820,17.780
158865015,-0.860,0.282,0.463,2.590,8.330,14.210
158865036,-0.849,0.286,0.466,-3.920,7.280,8.470
158865060,-0.848,0.293,0.467,-9.660,6.930,-0.140
158865084,-0.861,0.318,0.468,-14.490,5.110,-6.720
158865104,-0.874,0.319,0.459,-22.400,2.450,-10.920
158865121,-0.893,0.305,0.443,-22.540,1.330,-14.630
158865144,-0.901,0.285,0.431,-20.160,0.350,-18.060
158865164,-0.914,0.263,0.425,-11.410,-1.470,-19.460
158865185,-0.907,0.258,0.410,7.210,-4.550,-20.300
158865205,-0.898,0.270,0.404,18.410,-6.720,-21.140
158865225,-0.887,0.279,0.400,23.590,-8.260,-21.210
158865245,-0.859,0.302,0.394,24.360,-8.680,-20.650
158865264,-0.843,0.303,0.372,20.440,-7.630,-21.910
158865289,-0.869,0.295,0.375,16.100,-5.670,-24.220
158865309,-0.899,0.324,0.410,12.460,-6.510,-27.790
158865333,-0.915,0.328,0.421,8.400,-10.010,-33.600
158865353,-0.903,0.311,0.403,4.620,-12.040,-35.980
158865377,-0.913,0.314,0.404,5.320,-13.440,-35.210
158865397,-0.903,0.307,0.422,6.720,-13.510,-33.110
158865412,-0.916,0.288,0.427,11.130,-13.440,-30.590
158865437,-0.932,0.226,0.376,18.830,-13.230,-31.150
158865457,-0.952,0.262,0.416,19.040,-11.830,-33.460
158865477,-0.945,0.262,0.446,9.310,-14.070,-35.210
158865501,-0.964,0.230,0.421,3.430,-17.780,-35.770
158865520,-0.954,0.203,0.400,-0.070,-18.550,-35.770
158865536,-0.981,0.196,0.415,-1.260,-17.710,-34.370
158865561,-0.989,0.171,0.421,-0.210,-19.950,-29.190
158865585,-0.971,0.134,0.435,7.070,-21.210,-23.240
158865605,-0.941,0.098,0.484,17.290,-23.590,-16.730
158865625,-0.877,0.132,0.481,16.870,-27.160,-12.530
158865643,-0.830,0.217,0.485,-3.360,-34.370,-7.350
158865660,-0.728,0.104,0.558,-11.340,-30.730,2.450
158865685,-0.786,0.113,0.626,-11.270,-23.450,16.380
158865703,-0.879,0.088,0.673,-12.110,-16.590,22.610
158865727,-0.976,0.139,0.724,-3.920,-19.880,31.710
158865746,-0.890,0.176,0.723,0.280,-29.470,36.890
158865765,-0.818,0.259,0.714,-8.820,-33.880,41.020
158865789,-0.789,0.203,0.731,-35.420,-38.010,46.340
158865804,-0.808,0.191,0.710,-44.380,-40.950,52.220
158865829,-0.835,0.217,0.732,-54.180,-47.880,58.450
158865848,-0.860,0.166,0.746,-53.970,-53.550,57.960
158865867,-0.874,0.154,0.743,-48.230,-62.020,57.330
158865889,-0.878,0.130,0.713,-40.040,-65.800,56.910
158865911,-0.940,0.166,0.704,-37.590,-71.610,53.900
158865935,-0.956,0.168,0.704,-36.750,-76.020,49.420
158865953,-0.949,0.200,0.757,-42.630,-79.170,46.060
158865973,-0.963,0.164,0.723,-47.600,-80.710,43.120
158865993,-0.922,0.119,0.671,-41.510,-81.340,41.650
158866017,-0.889,0.183,0.744,-34.370,-82.110,37.170
158866037,-0.809,0.153,0.733,-31.640,-84.000,37.450
158866057,-0.685,0.125,0.672,-25.410,-86.800,40.180
158866076,-0.657,0.167,0.673,-18.270,-82.320,42.770
158866094,-0.674,0.188,0.689,-21.700,-81.340,41.720
158866114,-0.632,0.122,0.701,-14.630,-80.920,38.500
158866137,-0.613,0.128,0.699,-2.800,-79.310,31.150
158866158,-0.594,0.153,0.663,6.650,-77.420,27.860
158866178,-0.556,0.178,0.681,5.950,-77.140,26.040
158866196,-0.509,0.190,0.694,7.980,-70.350,24.220
158866218,-0.379,0.199,0.661,2.660,-70.070,22.330
158866238,-0.443,0.158,0.638,0.700,-67.060,22.680
158866257,-0.413,0.187,0.691,2.030,-61.250,22.190
158866274,-0.417,0.215,0.688,-3.290,-58.870,21.980
158866298,-0.386,0.192,0.702,-8.680,-56.980,20.020
158866316,-0.348,0.170,0.767,-7.840,-56.490,19.880
158866338,-0.321,0.172,0.782,-8.400,-54.320,21.070
158866358,-0.319,0.207,0.772,-8.260,-52.850,19.320
158866378,-0.299,0.203,0.754,-8.470,-55.720,16.520
158866393,-0.251,0.214,0.716,-13.860,-58.870,14.560
158866417,-0.188,0.165,0.763,-17.290,-54.460,10.850
158866437,-0.230,0.145,0.752,-8.680,-52.290,11.200
158866461,-0.191,0.180,0.756,-2.310,-52.360,10.710
158866477,-0.140,0.213,0.788,-2.380,-50.610,10.850
158866501,-0.160,0.215,0.790,-6.930,-44.450,10.920
158866520,-0.153,0.195,0.800,-16.450,-44.730,10.150
158866543,-0.107,0.179,0.838,-13.440,-42.910,10.570
158866563,-0.094,0.178,0.872,-8.470,-37.870,10.220
158866579,-0.117,0.198,0.855,-6.510,-35.280,11.410
158866599,-0.137,0.238,0.899,-7.980,-38.010,12.530
158866623,-0.143,0.270,0.942,-16.310,-36.190,9.520
158866640,-0.177,0.217,0.914,-20.580,-38.080,9.660
158866659,-0.084,0.195,0.933,-15.260,-36.680,10.850
158866684,-0.104,0.189,0.914,-5.810,-30.310,11.270
158866704,-0.056,0.249,0.957,-14.280,-36.610,12.880
158866724,0.015,0.201,1.021,-25.760,-32.760,10.780
158866744,-0.021,0.149,1.001,-25.480,-31.500,8.190
158866768,-0.058,0.100,0.982,-17.850,-30.450,3.640
158866788,0.010,0.087,1.039,-8.120,-27.370,0.350
158866808,0.002,0.122,1.021,-11.620,-26.670,-2.660
158866832,0.007,0.154,1.014,-21.910,-26.810,-7.630
158866852,-0.045,0.144,1.037,-33.390,-33.320,-14.420
158866872,0.015,0.030,1.031,-31.710,-37.310,-16.030
158866889,0.045,-0.006,1.034,-18.760,-38.150,-18.340
158866913,0.056,0.055,1.036,-10.010,-30.450,-17.080
158866932,-0.001,0.233,1.046,-21.560,-32.130,-16.520
158866953,0.037,0.108,1.055,-42.700,-33.180,-19.180
158866976,0.073,0.000,1.056,-36.190,-31.010,-19.530
158866996,0.080,-0.011,1.057,-11.760,-26.390,-18.900
158867017,0.089,0.027,1.027,1.540,-20.440,-19.250
158867037,0.035,0.169,1.009,-3.430,-25.690,-21.700
158867057,0.113,0.154,1.078,-29.330,-28.490,-24.500
158867077,0.140,-0.012,1.081,-38.640,-24.500,-30.380
158867097,0.112,-0.102,1.017,-4.760,-20.650,-30.030
158867120,0.055,0.031,1.039,16.030,-14.630,-28.420
158867139,0.041,0.042,1.086,28.070,-15.050,-23.310
158867163,0.139,0.167,1.177,11.620,-13.790,-18.060
158867183,0.160,0.069,1.231,6.510,-4.620,-12.250
158867203,0.112,0.127,1.304,9.030,-7.840,-8.050
158867221,0.121,0.082,1.449,-6.720,-11.480,-6.930
158867243,0.177,0.044,1.500,1.890,-10.850,-3.430
158867263,0.220,0.073,1.542,4.970,-7.490,-4.270
158867283,0.193,0.081,1.597,2.800,-2.030,-3.500
158867303,0.228,0.015,1.457,18.270,-2.100,0.560
158867322,0.242,0.218,1.419,15.470,0.770,6.790
158867343,0.151,0.112,1.295,2.520,1.960,7.070
158867363,0.138,0.068,1.167,10.290,3.500,9.240
158867387,0.203,0.126,1.176,18.900,10.220,10.780
158867407,0.100,0.123,1.118,15.260,20.580,9.590
158867426,0.087,0.063,1.055,9.940,21.840,7.350
158867450,0.063,0.112,1.007,6.160,27.020,5.530
158867469,0.117,0.078,1.012,-6.510,31.290,4.130
158867490,0.077,0.073,1.031,-12.320,34.440,3.080
158867510,0.034,0.075,1.057,-26.740,36.610,2.030
158867530,-0.003,0.002,0.988,-25.690,42.910,1.960
158867549,-0.087,0.032,0.890,-14.280,45.780,3.850
158867569,-0.039,0.071,0.990,-18.620,52.570,7.210
158867588,-0.160,-0.007,0.934,-15.680,57.540,7.700
158867612,-0.199,-0.041,0.711,-0.350,62.930,12.320
158867631,-0.029,0.109,0.827,3.780,68.250,15.960
158867655,-0.223,0.139,0.875,-15.750,83.020,13.580
158867675,-0.495,0.023,0.792,-7.910,90.090,12.810
158867694,-0.396,-0.002,0.825,2.310,92.050,10.990
158867715,-0.365,0.067,0.850,9.240,104.720,6.160
158867735,-0.392,0.066,0.925,10.920,108.430,3.360
158867751,-0.360,0.077,0.990,12.180,113.190,-0.070
158867774,-0.452,0.027,0.837,12.460,116.830,-14.000
158867797,-0.494,0.053,0.675,34.160,114.870,-18.830
158867817,-0.345,0.194,1.037,29.190,121.660,-19.390
158867836,-0.514,0.035,1.006,36.610,121.870,-24.710
158867860,-0.536,0.035,0.820,59.080,115.500,-25.620
158867875,-0.474,0.109,0.725,66.500,105.560,-25.830
158867900,-0.374,0.241,0.867,56.560,121.030,-27.370
158867919,-0.603,0.282,0.917,25.200,128.170,-26.250
158867940,-0.796,0.138,0.674,13.790,121.100,-23.590
158867959,-0.615,0.093,0.666,13.790,104.230,-29.260
158867978,-0.595,0.152,0.723,15.470,107.590,-33.530
158867999,-0.711,0.067,0.775,23.380,109.270,-28.840
158868018,-0.822,0.008,0.654,43.400,102.200,-24.290
158868043,-0.671,0.140,0.549,56.910,96.740,-23.380
158868063,-0.571,0.220,0.688,44.590,113.680,-24.640
158868083,-0.862,0.214,0.781,20.300,104.230,-20.230
158868103,-0.915,0.078,0.663,19.670,90.370,-22.330
158868126,-0.890,0.016,0.533,50.400,67.270,-39.900
158868146,-0.748,0.081,0.511,88.130,53.480,-51.030
158868166,-0.668,0.117,0.509,108.430,50.400,-52.080
158868186,-0.634,0.148,0.484,124.180,44.800,-42.700
158868207,-0.549,0.280,0.504,124.040,44.870,-32.130
158868231,-0.489,0.288,0.559,118.580,58.030,-20.860
158868251,-0.600,0.350,0.676,112.980,66.780,-10.010
158868270,-0.765,0.488,0.752,78.400,60.480,-6.510
158868291,-0.968,0.531,0.690,36.890,57.610,-9.380
158868311,-1.102,0.563,0.672,4.970,44.520,-18.060
158868335,-1.221,0.560,0.681,-25.900,20.580,-33.110
158868355,-1.146,0.328,0.631,-25.830,2.660,-30.030
158868378,-0.880,0.196,0.495,-2.310,-5.950,-14.980
158868397,-0.851,0.200,0.371,14.070,-4.690,-3.150
158868416,-0.833,0.204,0.335,11.270,-2.520,7.420
158868441,-0.819,0.094,0.320,12.040,-1.470,3.150
158868461,-0.821,0.081,0.388,28.490,-0.560,-3.360
158868481,-0.908,0.201,0.499,38.080,-5.250,-13.090
158868496,-0.916,0.245,0.658,46.620,-7.840,-18.970
158868516,-0.935,0.470,0.750,49.490,-28.000,-21.490
158868541,-0.790,0.578,0.888,32.900,-47.390,-12.600
158868561,-0.659,0.534,0.912,14.070,-65.660,6.720
158868581,-0.601,0.513,0.885,-0.910,-76.370,25.270
158868600,-0.621,0.460,0.806,-0.210,-90.300,37.870
158868621,-0.579,0.424,0.695,-0.840,-100.310,52.850
158868641,-0.604,0.495,0.650,-6.580,-105.210,65.310
158868661,-0.704,0.484,0.653,-42.490,-115.640,75.810
158868678,-0.704,0.370,0.609,-51.170,-118.370,81.830
158868701,-0.793,0.376,0.631,-63.140,-116.830,82.040
158868719,-0.833,0.330,0.653,-64.750,-122.010,81.900
158868743,-0.773,0.381,0.574,-66.990,-121.660,82.250
158868762,-0.822,0.382,0.506,-76.300,-122.220,77.630
158868783,-0.827,0.310,0.551,-80.150,-122.430,71.050
158868803,-0.693,0.171,0.582,-56.210,-124.460,65.240
158868822,-0.587,0.224,0.592,-29.050,-116.550,64.330
158868842,-0.572,0.344,0.619,-24.850,-105.700,67.550
158868866,-0.726,0.350,0.711,-49.350,-105.840,63.630
158868890,-0.665,0.258,0.709,-57.750,-110.180,55.370
158868910,-0.551,0.252,0.869,-47.670,-103.880,45.640
158868927,-0.637,0.287,0.825,-56.490,-102.340,40.250
158868950,-0.669,0.244,0.841,-61.810,-104.580,40.390
158868969,-0.611,0.174,0.795,-37.870,-108.780,32.480
158868990,-0.533,0.197,0.885,-40.320,-105.350,22.330
158869010,-0.524,0.122,0.977,-37.310,-101.290,22.540
158869029,-0.398,0.120,0.934,-36.260,-98.700,24.710
158869047,-0.389,0.209,0.929,-41.650,-90.650,25.620
158869067,-0.459,0.184,0.887,-62.090,-91.000,21.140
158869091,-0.304,0.068,0.896,-74.200,-90.440,14.980
158869106,-0.191,-0.026,0.915,-61.880,-81.900,8.890
158869131,-0.303,0.061,0.842,-50.120,-80.850,-0.070
158869149,-0.110,0.023,0.913,-43.610,-80.710,-1.820
158869173,-0.039,0.058,0.963,-28.350,-75.810,-5.320
158869193,-0.002,0.016,0.974,-27.370,-69.510,-6.720
158869212,-0.100,-0.023,0.952,-7.070,-61.460,-4.270
158869230,-0.081,0.075,0.946,0.630,-60.340,-4.830
158869249,-0.080,0.176,1.015,-13.790,-59.150,-4.200
158869274,-0.056,0.031,1.108,-17.850,-60.410,2.590
158869294,0.011,0.042,1.131,-7.770,-55.370,7.630
158869312,-0.116,0.105,1.091,-11.970,-57.190,8.120
158869332,0.087,-0.037,0.976,-7.560,-59.360,9.800
158869354,0.193,-0.037,0.986,15.820,-39.410,10.430
158869378,0.092,0.083,1.136,14.630,-33.390,10.010
158869397,0.122,0.120,1.175,0.910,-29.610,5.320
158869417,0.232,-0.001,1.111,8.120,-22.050,4.270
158869437,0.247,0.008,1.229,9.940,-8.890,6.090
158869461,0.183,0.049,1.327,16.100,-7.420,8.330
158869481,0.287,0.058,1.399,11.760,-8.120,10.920
158869505,0.317,0.090,1.466,-9.520,-2.870,10.010
158869524,0.320,-0.092,1.322,-3.500,-3.500,10.850
158869545,0.394,-0.088,1.229,11.830,5.250,6.650
158869565,0.283,0.062,1.205,3.220,11.830,1.330
158869583,0.187,0.046,1.179,-13.930,13.020,-3.010
158869607,0.183,-0.026,1.130,-18.970,14.630,-8.400
158869627,0.140,-0.061,1.031,2.800,19.880,-11.340
158869645,0.198,-0.075,1.033,12.040,29.820,-11.830
158869667,0.182,0.023,1.139,3.990,34.860,-13.510
158869686,0.061,0.010,1.002,-1.680,36.750,-16.590
158869708,0.008,0.015,0.901,-0.840,43.820,-16.100
158869732,0.020,0.045,1.012,-15.610,52.430,-12.040
158869751,-0.010,-0.003,1.007,-23.310,56.280,-10.430
158869771,-0.037,-0.101,0.916,-10.150,58.310,-9.380
158869790,-0.073,-0.047,0.869,15.260,71.750,-12.670
158869815,-0.151,0.021,0.907,21.420,74.060,-11.340
158869835,-0.145,-0.013,0.920,19.670,80.290,-10.640
158869859,-0.259,0.008,0.851,30.170,90.020,-14.910
158869880,-0.347,-0.002,0.729,45.850,101.500,-21.280
158869902,-0.294,0.129,0.844,50.960,108.080,-26.320
158869926,-0.445,0.244,0.873,27.090,122.920,-33.180
158869946,-0.527,0.086,0.782,15.260,119.630,-33.670
158869966,-0.476,0.099,0.862,36.540,119.700,-33.320
158869986,-0.427,0.215,0.888,30.170,128.730,-34.720
158870005,-0.594,0.081,0.819,27.650,124.040,-37.660
158870025,-0.667,-0.053,0.654,63.700,114.870,-43.400
158870049,-0.574,0.018,0.566,105.210,109.340,-57.330
158870067,-0.479,0.289,0.676,96.530,123.340,-64.750
158870088,-0.605,0.315,0.703,73.640,135.730,-62.510
158870112,-0.594,0.340,0.702,38.920,139.860,-47.880
158870130,-0.584,0.380,0.796,0.280,144.620,-40.110
158870150,-0.735,0.241,0.787,-23.380,146.650,-36.750
158870173,-0.835,0.051,0.693,7.070,134.120,-29.330
158870191,-0.781,0.011,0.630,40.320,130.620,-30.590
158870214,-0.872,0.055,0.630,77.140,135.310,-39.550
158870230,-0.937,0.190,0.726,92.750,131.040,-43.400
158870255,-1.018,0.271,0.762,88.340,125.370,-54.810
158870275,-1.022,0.267,0.683,83.790,104.930,-62.440
158870294,-0.849,0.259,0.584,87.990,91.490,-68.460
158870314,-0.773,0.264,0.561,99.470,85.610,-72.450
158870338,-0.661,0.337,0.607,101.780,78.190,-67.690
158870358,-0.661,0.360,0.627,98.770,70.910,-65.800
158870377,-0.649,0.310,0.585,113.260,60.130,-63.350
158870397,-0.531,0.402,0.471,122.150,51.590,-59.850
158870417,-0.496,0.581,0.582,104.370,56.280,-57.610
158870441,-0.744,0.662,0.662,63.140,57.260,-55.230
158870461,-0.919,0.643,0.654,24.080,44.100,-51.730
158870481,-1.054,0.630,0.625,3.990,40.110,-51.240
158870501,-1.275,0.703,0.651,-27.090,28.280,-44.730
158870520,-1.388,0.531,0.553,-65.380,-1.680,-33.600
158870541,-1.179,0.188,0.374,-57.260,-26.810,-16.940
158870561,-0.889,0.041,0.309,-29.470,-24.710,-0.140
158870585,-0.826,-0.002,0.297,-10.360,-13.370,18.620
158870602,-0.801,-0.078,0.257,-2.030,-8.260,23.030
158870623,-0.810,-0.063,0.226,4.760,-5.040,21.980
158870647,-0.869,-0.005,0.175,1.610,-3.920,14.770
158870667,-0.888,0.006,0.138,5.110,0.140,8.820
158870687,-0.962,0.058,0.238,12.180,3.920,7.000
158870704,-1.003,0.162,0.376,10.150,-0.490,9.940
158870727,-0.949,0.246,0.602,16.660,-10.640,16.660
158870747,-0.931,0.434,0.707,12.110,-20.790,19.110
158870765,-0.912,0.538,0.839,-8.820,-39.620,24.920
158870785,-0.862,0.564,0.930,-27.160,-63.490,38.290
158870809,-0.769,0.551,0.927,-38.570,-83.370,52.780
158870828,-0.745,0.440,0.834,-28.910,-101.710,65.030
158870845,-0.714,0.475,0.828,-28.000,-110.040,79.030
158870869,-0.707,0.475,0.794,-43.050,-121.450,89.810
158870888,-0.743,0.440,0.746,-48.300,-126.910,91.280
158870909,-0.818,0.430,0.704,-49.070,-134.890,88.900
158870929,-0.866,0.441,0.666,-64.400,-146.790,83.300
158870947,-0.891,0.464,0.611,-83.300,-152.740,74.760
158870964,-0.911,0.346,0.619,-87.990,-154.070,68.950
158870988,-0.890,0.301,0.632,-73.430,-154.000,63.490
158871009,-0.883,0.333,0.596,-61.600,-154.910,59.640
158871032,-0.814,0.268,0.530,-54.880,-153.650,57.120
158871052,-0.737,0.187,0.489,-52.570,-146.860,58.170
158871072,-0.770,0.170,0.515,-38.500,-140.770,60.900
158871095,-0.719,0.207,0.602,-30.590,-136.220,64.120
158871112,-0.604,0.174,0.604,-33.810,-131.320,62.160
158871136,-0.582,0.161,0.555,-39.060,-124.460,56.560
158871156,-0.552,0.075,0.573,-32.340,-115.290,54.250
158871180,-0.492,0.095,0.726,-18.550,-105.840,54.600
158871200,-0.487,0.221,0.745,-37.660,-104.720,53.970
158871220,-0.438,0.160,0.726,-51.240,-100.030,52.430
158871240,-0.370,0.098,0.694,-66.430,-98.910,47.530
158871259,-0.304,0.061,0.851,-62.230,-89.390,42.000
158871279,-0.378,0.027,0.900,-47.320,-81.270,36.260
158871304,-0.354,0.048,0.875,-29.610,-85.540,34.580
158871323,-0.181,0.090,0.878,-32.270,-81.200,30.590
158871339,-0.099,0.124,0.878,-38.150,-71.330,27.020
158871363,-0.119,0.099,0.926,-44.100,-60.760,18.900
158871383,-0.087,0.030,0.956,-40.180,-57.750,8.680
158871407,-0.071,0.031,1.011,-28.420,-55.440,0.420
158871427,-0.012,0.091,1.065,-21.560,-46.410,-2.870
158871446,-0.041,0.122,1.079,-17.780,-43.470,-2.870
158871466,-0.002,0.137,1.058,-29.400,-47.460,-1.050
158871487,0.025,0.001,1.149,-24.920,-42.140,0.910
158871505,0.008,-0.013,1.148,-5.810,-43.190,5.950
158871529,0.064,0.059,1.114,10.080,-41.230,13.510
158871548,0.001,0.224,1.096,-4.340,-41.720,18.410
158871568,-0.013,0.089,1.107,-30.380,-44.030,23.170
158871592,0.154,-0.081,1.059,-9.100,-44.940,28.630
158871612,0.179,-0.004,1.104,3.220,-38.990,28.560
158871631,0.155,0.061,1.143,-4.410,-35.560,26.390
158871656,0.237,-0.000,1.184,-19.670,-32.270,19.530
158871675,0.233,-0.120,1.198,-1.890,-29.960,15.120
158871696,0.298,-0.102,1.307,22.190,-22.190,16.030
158871715,0.358,0.040,1.350,24.430,-17.500,15.540
158871736,0.350,0.066,1.278,-1.750,-10.010,10.080
158871756,0.285,0.010,1.410,-5.530,4.060,5.880
158871780,0.330,-0.037,1.464,-0.770,10.920,2.030
158871800,0.270,-0.118,1.260,21.840,14.210,-0.420
158871820,0.418,-0.018,1.418,29.540,24.220,-1.190
158871838,0.325,0.090,1.458,3.710,26.670,-6.790
158871858,0.183,-0.031,1.251,-8.610,22.260,-12.600
158871878,0.264,-0.054,1.158,-4.200,27.720,-13.230
158871900,0.196,-0.076,1.224,-8.540,38.850,-12.950
158871924,0.110,-0.049,1.150,-7.770,42.910,-13.160
158871944,0.041,-0.043,1.090,-7.560,46.760,-18.480
158871961,-0.075,-0.104,0.859,-0.280,50.120,-24.500
158871985,-0.051,-0.123,0.759,21.210,56.630,-25.620
158872005,-0.016,0.029,0.919,13.370,69.370,-23.100
158872025,-0.198,-0.021,1.014,-3.710,82.810,-21.910
158872044,-0.254,-0.146,0.746,21.560,86.170,-19.950
158872065,-0.262,-0.056,0.649,43.750,95.830,-31.780
158872085,-0.308,0.035,0.810,39.620,104.160,-36.890
158872105,-0.340,0.013,0.835,28.210,105.560,-37.800
158872121,-0.320,0.048,0.756,31.220,120.190,-38.150
158872141,-0.396,0.010,0.741,43.750,134.330,-35.840
158872160,-0.545,0.084,0.712,49.280,131.670,-36.400
158872185,-0.585,0.145,0.570,52.640,134.750,-42.210
158872205,-0.403,0.330,0.683,13.860,139.370,-38.780
158872224,-0.508,0.306,0.863,-19.460,151.270,-42.770
158872244,-0.686,-0.055,0.581,2.870,149.800,-44.170
158872264,-0.613,-0.017,0.453,56.910,144.410,-43.680
158872283,-0.525,0.181,0.576,82.040,156.590,-42.210
158872308,-0.668,0.350,0.785,39.830,167.930,-38.150
158872328,-0.818,0.186,0.561,19.180,165.200,-37.450
158872352,-0.674,0.109,0.515,34.650,160.440,-41.230
158872372,-0.695,0.300,0.681,19.810,159.180,-41.510
158872390,-0.785,0.170,0.670,14.700,153.930,-35.140
158872414,-0.810,0.070,0.515,42.210,132.510,-36.400
158872429,-0.742,0.085,0.477,63.630,122.080,-41.720
158872451,-0.627,0.122,0.475,95.620,116.550,-46.830
158872471,-0.615,0.208,0.501,116.480,118.580,-43.680
158872490,-0.642,0.360,0.572,102.760,121.380,-43.820
158872514,-0.766,0.380,0.613,81.830,114.170,-45.920
158872535,-0.866,0.247,0.611,88.760,108.290,-53.830
158872559,-0.955,0.225,0.661,144.200,105.980,-59.430
158872575,-1.130,0.504,0.719,176.750,97.090,-61.950
158872596,-1.245,0.465,0.820,210.210,76.860,-63.910
158872619,-1.275,0.842,0.826,155.750,31.500,-57.540
158872638,-1.131,0.535,0.869,164.570,16.030,-36.960
158872663,-1.049,0.667,0.816,129.710,-6.580,-19.040
158872683,-0.893,0.855,0.800,31.780,-20.580,-7.070
158872703,-0.806,0.684,0.756,-74.970,-29.960,1.400
158872727,-0.757,0.375,0.630,-125.510,-34.230,11.690
158872747,-0.788,0.258,0.544,-108.850,-35.840,21.700
158872766,-0.843,0.341,0.591,-99.890,-42.210,25.060
158872787,-0.925,0.488,0.714,-102.130,-54.810,31.500
158872803,-0.956,0.569,0.758,-127.260,-72.310,31.850
158872826,-0.919,0.412,0.708,-132.860,-91.070,33.110
158872845,-0.875,0.377,0.702,-115.850,-98.770,34.580
158872864,-0.897,0.333,0.744,-90.790,-103.250,41.300
158872889,-0.931,0.354,0.711,-71.960,-113.540,50.120
158872909,-0.882,0.308,0.662,-62.230,-125.720,54.670
158872929,-0.816,0.275,0.636,-58.030,-135.240,63.630
158872945,-0.746,0.204,0.629,-54.950,-140.910,68.950
158872964,-0.755,0.165,0.646,-35.770,-140.280,75.670
158872984,-0.816,0.221,0.651,-27.580,-141.400,76.440
158873004,-0.791,0.192,0.676,-22.400,-144.060,75.040
158873029,-0.845,0.285,0.671,-32.270,-148.330,70.420
158873049,-0.833,0.256,0.642,-49.700,-152.110,66.990
158873067,-0.786,0.177,0.666,-45.850,-149.450,63.070
158873088,-0.834,0.152,0.676,-28.350,-150.640,57.330
158873112,-0.782,0.114,0.675,-9.940,-154.700,54.250
158873132,-0.667,0.165,0.645,-1.190,-147.980,54.880
158873152,-0.695,0.203,0.632,-8.400,-143.500,55.650
158873171,-0.621,0.185,0.714,-18.970,-140.000,55.440
158873195,-0.532,0.160,0.753,-22.960,-133.630,50.750
158873215,-0.519,0.183,0.731,-28.420,-130.130,48.160
158873231,-0.499,0.161,0.780,-40.390,-123.550,47.740
158873250,-0.471,0.036,0.711,-39.480,-122.570,43.610
158873274,-0.338,0.083,0.749,-31.850,-117.110,36.890
158873294,-0.252,0.142,0.807,-36.680,-101.010,34.580
158873315,-0.288,0.152,0.778,-49.140,-95.270,31.640
158873335,-0.248,0.038,0.743,-55.440,-86.660,21.280
158873354,-0.218,0.049,0.755,-49.350,-86.590,15.190
158873378,-0.125,0.034,0.871,-41.440,-81.410,11.270
158873398,-0.103,0.083,0.886,-39.130,-74.060,10.570
158873418,-0.076,-0.000,0.841,-22.050,-68.460,10.010
158873433,-0.063,-0.055,0.846,4.410,-64.470,8.260
158873453,-0.009,0.137,0.966,19.250,-61.320,8.680
158873473,0.004,0.152,0.998,2.520,-58.240,10.290
158873498,0.059,0.190,0.958,0.350,-58.520,15.050
158873518,0.161,0.113,1.074,-13.510,-54.110,16.240
158873538,0.113,0.105,1.064,-14.490,-47.110,20.090
158873558,0.147,0.082,1.041,-16.380,-44.030,18.760
158873577,0.187,-0.123,1.005,-2.240,-37.380,12.670
158873602,0.209,0.011,0.976,11.340,-33.670,7.770
158873622,0.283,0.084,1.031,4.830,-23.660,4.200
158873641,0.251,0.036,1.019,0.280,-19.320,4.410
158873664,0.222,0.003,1.015,13.300,-12.530,4.480
158873685,0.260,0.085,1.133,-0.140,-16.870,2.940
158873704,0.459,0.012,1.227,-10.990,-13.650,2.030
158873724,0.366,-0.072,1.221,-2.800,-5.740,-1.820
158873748,0.344,0.053,1.392,1.400,-2.520,-6.230
158873766,0.279,0.017,1.452,-7.630,-3.290,-7.560
158873786,0.401,-0.118,1.314,11.690,-7.070,-3.290
158873810,0.392,0.066,1.407,8.260,10.500,-3.990
158873830,0.219,-0.044,1.188,14.980,12.530,-5.040
158873848,0.382,0.102,1.269,14.350,17.150,-2.730
158873867,0.294,0.084,1.212,-4.060,24.290,-4.130
158873886,0.159,0.005,1.120,-1.470,37.590,-5.880
158873910,0.095,-0.067,1.052,9.730,42.070,-11.200
158873931,0.177,0.031,1.005,26.740,50.890,-13.860
158873949,0.067,0.115,0.945,20.580,59.430,-15.400
158873969,0.091,0.043,0.990,11.130,68.250,-14.140
158873988,0.175,0.147,1.060,-2.170,81.340,-12.320
158874013,-0.042,0.115,0.969,-13.160,90.930,-16.380
158874033,-0.162,0.027,0.892,-4.270,90.370,-19.880
158874053,-0.138,-0.016,0.969,19.530,91.000,-17.780
158874073,-0.212,0.108,1.019,25.970,100.730,-23.800
158874093,-0.347,0.075,0.863,24.220,104.720,-25.760
158874113,-0.353,0.041,0.763,30.660,112.490,-22.820
158874138,-0.297,0.211,0.912,16.380,131.670,-28.210
158874156,-0.513,0.149,0.848,-5.180,134.400,-34.510
158874178,-0.563,-0.029,0.746,15.330,122.990,-35.070
158874201,-0.350,0.093,0.867,38.850,129.500,-33.460
158874222,-0.432,0.329,0.951,1.820,151.970,-33.810
158874243,-0.618,0.164,0.806,-11.340,148.470,-38.990
158874261,-0.580,-0.087,0.686,19.810,128.380,-38.220
158874281,-0.425,0.097,0.734,37.660,140.630,-42.700
158874305,-0.655,0.088,0.793,28.630,150.500,-46.130
158874323,-0.812,0.053,0.642,41.160,148.540,-46.620
158874343,-0.765,0.092,0.492,57.680,140.490,-59.360
158874363,-0.654,0.224,0.490,54.110,144.270,-64.890
158874383,-0.753,0.311,0.583,32.900,152.530,-63.770
158874406,-0.893,0.170,0.590,16.380,154.420,-61.740
158874425,-1.002,0.096,0.494,40.110,141.260,-63.140
158874450,-0.906,0.133,0.459,79.800,130.830,-71.050
158874467,-0.814,0.225,0.561,92.470,128.800,-70.770
158874491,-0.810,0.212,0.628,95.130,124.950,-65.240
158874507,-0.744,0.210,0.625,100.170,112.350,-59.080
158874528,-0.680,0.224,0.594,99.820,105.070,-54.530
158874549,-0.624,0.286,0.609,89.110,95.900,-49.980
158874569,-0.629,0.345,0.656,65.870,91.770,-42.560
158874589,-0.740,0.339,0.655,63.490,91.630,-34.300
158874608,-0.861,0.500,0.664,55.160,84.210,-29.400
158874633,-0.974,0.442,0.709,43.750,75.600,-26.250
158874649,-1.080,0.521,0.804,28.000,67.480,-26.810
158874673,-1.163,0.289,0.890,41.650,53.690,-31.290
158874691,-1.219,0.280,0.928,95.410,29.680,-31.640
158874715,-1.155,0.569,0.757,55.230,-4.270,-26.740
158874735,-1.009,0.719,0.642,-60.550,-23.800,-20.090
158874755,-0.855,0.271,0.538,-100.800,-30.870,-8.330
158874775,-0.762,-0.024,0.472,-84.560,-27.160,5.670
158874794,-0.771,-0.047,0.385,-53.620,-21.630,12.390
158874815,-0.826,0.061,0.371,-37.590,-21.140,14.350
158874839,-0.908,0.196,0.402,-38.920,-26.320,12.460
158874859,-0.981,0.210,0.449,-50.960,-33.670,12.390
158874877,-1.003,0.269,0.539,-61.250,-44.380,15.890
158874896,-1.006,0.235,0.620,-54.810,-51.170,20.370
158874915,-1.046,0.277,0.633,-39.760,-63.490,28.000
158874940,-1.022,0.285,0.640,-28.280,-76.090,37.590
158874960,-0.979,0.307,0.674,-19.180,-84.070,44.800
158874979,-0.978,0.299,0.776,-23.590,-95.760,50.680
158874996,-0.920,0.307,0.760,-17.150,-102.760,58.660
158875020,-0.871,0.321,0.759,-15.260,-111.300,66.710
158875039,-0.914,0.352,0.826,-24.080,-116.130,71.610
158875060,-0.893,0.305,0.764,-35.070,-129.080,74.900
158875080,-0.886,0.279,0.698,-36.470,-133.140,73.640
158875100,-0.956,0.224,0.679,-40.670,-142.030,72.380
158875118,-0.967,0.226,0.668,-34.650,-144.410,74.060
158875137,-1.015,0.297,0.632,-36.820,-148.680,69.230
158875162,-0.943,0.257,0.678,-50.190,-155.680,61.810
158875180,-0.881,0.150,0.624,-49.280,-156.310,59.640
158875200,-0.946,0.162,0.603,-39.690,-153.930,57.610
158875224,-0.944,0.086,0.638,-32.550,-155.890,55.300
158875243,-0.862,0.104,0.589,-11.200,-159.040,55.230
158875263,-0.638,0.116,0.546,-2.100,-152.110,55.720
158875286,-0.555,0.168,0.598,-14.770,-139.300,56.070
158875306,-0.540,0.049,0.673,-22.680,-132.230,54.250
158875329,-0.500,0.023,0.652,-9.030,-129.150,47.530
158875349,-0.338,0.017,0.622,0.280,-126.490,42.280
158875369,-0.241,0.103,0.681,-3.570,-116.480,39.480
158875388,-0.229,0.154,0.772,-21.210,-109.550,34.930
158875413,-0.342,0.066,0.709,-26.670,-104.580,22.820
158875433,-0.298,0.068,0.640,-18.200,-106.120,16.310
158875449,-0.191,0.163,0.774,-20.160,-95.270,14.560
158875468,-0.212,0.112,0.735,-27.650,-89.810,12.810
158875493,-0.198,0.081,0.671,-23.520,-86.100,12.180
158875513,-0.066,0.057,0.726,-6.860,-76.580,13.580
158875531,-0.022,0.175,0.774,-10.220,-68.670,13.930
158875556,-0.070,0.204,0.856,-40.320,-62.090,10.080
158875575,-0.018,0.102,0.919,-45.220,-61.670,7.140
158875593,0.042,0.032,0.894,-21.840,-57.120,6.790
158875614,0.068,0.128,0.970,-18.690,-52.990,4.130
158875638,0.020,0.129,0.985,-20.720,-53.410,1.820
158875657,0.022,0.088,0.930,-22.540,-56.350,0.140
158875677,0.142,-0.006,0.826,1.540,-54.460,1.750
158875702,0.246,0.123,0.913,15.190,-43.750,7.490
158875721,0.248,0.220,0.941,6.090,-32.900,10.710
158875743,0.261,0.207,0.934,-14.350,-28.140,11.900
158875761,0.302,0.111,1.001,-14.560,-21.070,12.320
158875782,0.223,0.142,1.105,-17.220,-16.100,12.250
158875802,0.236,0.102,1.148,-19.110,-15.050,14.000
158875822,0.254,0.035,1.107,-20.160,-14.560,15.960
158875842,0.240,0.086,1.206,-22.680,-16.240,16.170
158875863,0.342,0.020,1.200,-29.120,-17.290,14.280
158875882,0.401,-0.078,1.126,-14.000,-13.720,9.170
158875902,0.368,-0.055,1.151,9.310,-13.790,4.410
158875920,0.410,0.021,1.220,12.950,-10.360,1.680
158875942,0.383,0.035,1.163,1.120,-9.870,2.940
158875962,0.399,0.059,1.212,3.780,-1.260,2.240
158875983,0.313,0.136,1.342,-4.620,1.820,-0.630
158875998,0.323,0.068,1.380,-10.710,0.140,-3.920
158876022,0.457,-0.005,1.349,6.860,3.500,-2.730
158876042,0.411,0.054,1.327,9.380,8.470,-4.830
158876062,0.270,-0.013,1.252,19.040,8.890,-4.410
158876086,0.401,0.142,1.367,20.790,12.880,-6.580
158876106,0.364,0.098,1.184,10.220,17.500,-9.660
158876126,0.251,0.000,1.066,27.580,21.350,-11.480
158876141,0.285,0.068,1.118,33.040,23.030,-13.230
158876161,0.255,0.208,1.130,18.130,29.610,-15.120
158876186,0.189,0.175,1.069,-1.890,36.050,-15.960
158876206,0.127,0.071,0.995,-7.910,39.690,-17.360
158876226,0.112,0.039,0.946,10.850,45.920,-16.940
158876245,0.100,0.088,0.935,18.690,53.900,-13.020
158876266,0.085,0.185,0.963,9.660,58.380,-10.640
158876286,-0.037,0.105,0.885,0.910,63.840,-9.940
158876305,-0.056,0.044,0.837,9.450,64.610,-10.220
158876330,-0.029,0.085,0.799,27.580,78.190,-12.600
158876348,-0.061,0.163,0.923,27.860,89.320,-13.720
158876367,-0.145,0.120,0.884,23.870,97.510,-17.850
158876391,-0.243,0.098,0.820,34.860,102.690,-25.060
158876414,-0.217,0.154,0.895,42.070,113.400,-28.070
158876433,-0.259,0.303,1.020,22.610,115.850,-27.790
158876457,-0.336,0.148,0.895,4.620,113.750,-25.620
158876478,-0.418,0.131,0.762,7.980,120.330,-29.820
158876497,-0.447,0.106,0.763,13.860,112.140,-32.270
158876512,-0.212,0.182,0.940,7.700,117.740,-29.540
158876537,-0.365,0.187,0.868,-15.540,123.900,-28.350
158876557,-0.494,-0.034,0.727,1.890,126.700,-23.520
158876577,-0.527,0.073,0.692,35.630,123.760,-26.670
158876597,-0.490,0.227,0.840,4.130,129.990,-31.990
158876615,-0.603,0.162,0.856,-21.560,125.230,-36.540
158876637,-0.608,0.006,0.748,-10.290,111.230,-32.130
158876661,-0.669,0.024,0.714,9.800,115.570,-36.820
158876680,-0.725,-0.016,0.625,30.520,117.880,-39.970
158876704,-0.776,0.016,0.466,61.740,114.590,-43.540
158876721,-0.608,0.289,0.625,46.760,119.280,-47.320
158876740,-0.710,0.325,0.737,8.610,123.900,-47.460
158876765,-0.790,0.174,0.678,-8.400,115.640,-39.340
158876784,-0.733,0.023,0.550,17.920,104.090,-35.910
158876805,-0.648,0.059,0.502,59.570,92.400,-33.810
158876825,-0.544,0.158,0.461,96.250,89.530,-24.850
158876845,-0.448,0.390,0.580,70.350,98.630,-19.600
158876865,-0.692,0.373,0.687,33.670,93.030,-13.440
158876889,-0.820,0.240,0.668,33.880,79.240,-16.170
158876913,-0.887,0.207,0.611,78.050,70.280,-30.520
158876931,-0.977,0.282,0.707,101.360,65.100,-38.430
158876953,-1.081,0.370,0.770,111.020,50.470,-45.780
158876977,-1.131,0.379,0.741,115.360,34.370,-44.240
158876996,-1.049,0.422,0.695,116.130,27.930,-36.400
158877017,-0.947,0.464,0.709,100.660,23.310,-23.450
158877037,-0.831,0.444,0.687,75.180,22.750,-10.640
158877057,-0.796,0.482,0.682,19.460,20.370,-1.190
158877076,-0.805,0.395,0.663,-25.550,14.840,0.980
158877094,-0.809,0.285,0.642,-46.410,8.680,2.170
158877114,-0.814,0.240,0.601,-55.860,0.700,-0.840
158877139,-0.866,0.218,0.638,-41.160,-9.520,-6.020
158877157,-0.918,0.230,0.643,-29.750,-16.590,-7.840
158877178,-0.979,0.322,0.656,-22.400,-25.060,-3.500
158877196,-0.974,0.396,0.730,-29.680,-37.870,1.960
158877215,-0.986,0.427,0.730,-35.770,-46.830,9.590
158877234,-0.998,0.373,0.723,-33.670,-59.570,17.710
158877255,-0.942,0.353,0.753,-21.840,-68.320,27.790
158877279,-0.941,0.437,0.819,-14.910,-79.660,40.950
158877299,-0.920,0.440,0.787,-18.060,-89.670,53.130
158877317,-0.907,0.426,0.763,-23.520,-96.740,60.690
158877335,-0.938,0.429,0.756,-29.470,-104.160,64.400
158877359,-0.933,0.387,0.727,-39.410,-113.540,69.090
158877375,-0.855,0.307,0.692,-38.710,-122.290,71.610
158877394,-0.799,0.246,0.617,-27.790,-125.650,75.040
158877419,-0.805,0.254,0.585,-12.880,-125.790,77.840
158877439,-0.803,0.276,0.607,-15.050,-127.330,77.700
158877457,-0.772,0.259,0.556,-17.920,-128.730,76.020
158877478,-0.696,0.246,0.532,-20.090,-124.740,71.540
158877502,-0.725,0.227,0.542,-26.110,-121.590,65.100
158877522,-0.709,0.201,0.557,-26.950,-121.800,59.010
158877541,-0.581,0.153,0.581,-21.420,-122.080,53.760
158877558,-0.540,0.171,0.599,-8.750,-115.640,51.450
158877582,-0.554,0.254,0.647,-9.450,-108.220,48.300
158877601,-0.537,0.248,0.696,-21.420,-107.450,45.080
158877625,-0.425,0.167,0.689,-26.880,-108.920,41.160
158877645,-0.363,0.220,0.716,-20.720,-102.690,39.620
158877665,-0.365,0.184,0.711,-22.120,-94.710,38.290
158877689,-0.403,0.173,0.717,-24.570,-93.450,32.760
158877709,-0.288,0.157,0.715,-20.230,-96.320,27.300
158877729,-0.165,0.180,0.738,-12.950,-88.270,26.880
158877751,-0.197,0.240,0.726,-21.700,-77.630,27.790
158877771,-0.262,0.263,0.733,-34.020,-75.040,24.150
158877790,-0.203,0.227,0.768,-47.180,-74.620,16.520
158877813,-0.126,0.223,0.817,-56.560,-70.350,10.990
158877837,-0.190,0.149,0.827,-58.450,-61.460,8.400
158877858,-0.144,0.120,0.801,-42.840,-61.880,5.460
158877877,-0.120,0.121,0.847,-31.710,-55.650,-0.700
158877896,-0.138,0.124,0.887,-27.160,-53.690,-1.330
158877915,-0.052,0.102,0.893,-15.540,-48.230,1.680
158877937,-0.054,0.182,0.929,-11.550,-42.490,4.830
158877953,-0.023,0.182,0.968,-16.450,-44.100,7.560
158877977,0.045,0.203,1.117,-26.880,-42.070,10.920
158877997,0.049,0.188,1.137,-44.660,-45.430,12.040
158878017,0.111,0.039,1.056,-38.500,-48.160,9.940
158878037,0.155,0.040,1.033,-13.090,-44.380,6.790
158878057,0.102,0.095,1.119,-7.140,-43.610,1.960
158878077,0.152,0.209,1.176,-13.860,-52.220,-1.330
158878095,0.179,0.121,1.079,-16.310,-51.450,-5.040
158878117,0.119,0.059,0.983,6.930,-50.960,-6.440
158878137,0.142,0.026,0.870,37.030,-45.150,-7.210
158878156,0.054,0.091,0.758,54.320,-35.980,-7.700
158878175,0.043,0.123,0.716,64.400,-22.960,-3.010
158878194,0.138,0.351,0.791,56.910,-11.480,8.400
158878219,0.277,0.301,1.105,1.610,9.030,15.610
158878238,0.270,0.145,1.214,-10.780,15.890,21.490
158878263,0.455,0.250,1.459,-16.240,19.810,20.230
158878283,0.445,0.309,1.776,-36.470,30.870,10.570
158878308,0.312,0.194,1.847,-58.310,22.890,-0.770
158878327,0.350,0.015,1.674,-26.740,18.270,-1.960
158878347,0.350,0.150,1.604,-7.840,18.340,1.120
158878366,0.333,0.087,1.563,0.210,14.490,6.930
158878386,0.308,0.159,1.444,-2.800,3.430,8.540
158878406,0.261,0.127,1.291,-8.680,-1.400,5.250
158878426,0.232,0.051,1.182,-6.090,1.680,2.380
158878445,0.166,0.057,1.183,-1.400,6.020,-1.750
158878469,0.142,0.061,1.102,11.200,14.630,-1.540
158878490,0.071,0.127,1.013,15.750,21.350,-3.080
158878510,-0.010,0.060,0.941,12.670,21.420,-4.760
158878527,0.028,0.050,0.914,23.240,27.580,-1.960
158878551,0.048,0.124,0.915,21.980,35.420,-3.080
158878570,-0.003,0.126,0.854,18.410,45.360,-2.730
158878591,-0.021,0.120,0.809,16.170,50.680,-0.490
158878611,-0.019,0.184,0.864,5.950,61.110,-0.630
158878631,-0.122,0.152,0.835,-7.490,68.180,-1.050
158878650,-0.265,0.056,0.703,-6.510,68.320,0.490
158878674,-0.088,-0.001,0.784,24.710,81.270,4.130
158878692,-0.172,0.158,0.757,26.740,91.420,-0.070
158878714,-0.292,0.122,0.676,30.940,100.380,-4.550
158878736,-0.160,0.196,0.850,30.240,108.010,-9.590
158878755,-0.386,0.272,0.846,11.340,109.130,-22.960
158878778,-0.420,0.100,0.771,19.390,109.270,-32.270
158878798,-0.272,0.080,0.692,48.020,109.130,-34.160
158878817,-0.306,0.288,0.773,46.620,123.760,-39.690
158878837,-0.477,0.279,0.794,22.750,123.410,-41.930
158878861,-0.494,0.130,0.731,21.560,114.100,-39.970
158878881,-0.313,0.188,0.777,26.950,115.710,-42.630
158878900,-0.451,0.242,0.765,21.840,122.010,-46.970
158878920,-0.560,0.217,0.722,15.330,120.120,-47.390
158878943,-0.618,0.144,0.592,23.520,114.940,-47.740
158878964,-0.377,0.243,0.693,20.020,120.120,-44.660
158878984,-0.597,0.251,0.739,1.470,130.270,-43.750
158879003,-0.735,0.149,0.670,4.200,132.650,-46.270
158879028,-0.868,0.121,0.562,30.520,118.020,-58.380
158879048,-0.677,0.230,0.675,33.110,114.870,-66.360
158879068,-0.655,0.274,0.768,19.880,119.840,-64.400
158879088,-0.769,0.168,0.748,15.120,110.880,-56.910
158879108,-0.768,0.108,0.693,30.730,99.750,-52.710
158879132,-0.698,0.171,0.748,50.750,84.770,-49.000
158879151,-0.641,0.275,0.682,50.960,84.350,-39.900
158879171,-0.678,0.329,0.761,34.930,81.270,-29.820
158879191,-0.804,0.318,0.791,19.740,80.290,-24.920
158879215,-0.942,0.292,0.801,12.530,72.240,-30.030
158879230,-1.045,0.254,0.796,25.200,68.320,-37.240
158879255,-1.093,0.266,0.771,44.660,50.960,-45.570
158879275,-0.992,0.341,0.713,54.740,39.760,-43.680
158879293,-0.947,0.323,0.645,53.830,41.650,-36.680
158879313,-0.915,0.305,0.627,50.330,43.680,-22.680
158879337,-0.884,0.303,0.561,26.740,36.680,-6.090
158879357,-0.819,0.248,0.510,8.400,29.470,1.680
158879375,-0.778,0.211,0.503,-9.100,23.310,6.860
158879398,-0.757,0.157,0.503,-16.940,19.460,10.430
158879417,-0.773,0.179,0.575,-10.850,12.950,9.100
158879438,-0.871,0.213,0.642,-7.490,2.240,4.410
158879462,-0.925,0.242,0.707,0.000,-11.340,5.110
158879482,-0.974,0.320,0.753,-2.940,-22.190,10.080
158879502,-1.015,0.407,0.867,-23.870,-39.480,15.820
158879522,-1.044,0.352,0.847,-32.410,-55.090,23.030
158879541,-0.978,0.336,0.872,-31.920,-67.830,33.740
158879565,-0.984,0.317,0.850,-29.890,-82.180,44.310
158879588,-0.976,0.308,0.826,-26.880,-95.270,53.970
158879612,-0.963,0.299,0.806,-27.860,-110.880,58.870
158879632,-0.925,0.261,0.746,-25.830,-121.310,59.990
158879652,-0.874,0.262,0.697,-20.160,-130.410,59.710
158879670,-0.819,0.247,0.633,-17.570,-135.450,58.870
158879694,-0.778,0.253,0.610,-17.290,-138.390,58.870
158879714,-0.763,0.292,0.627,-25.480,-137.200,56.700
158879734,-0.811,0.272,0.634,-39.130,-136.920,51.870
158879753,-0.861,0.215,0.617,-37.100,-137.900,46.200
158879774,-0.790,0.228,0.600,-31.220,-137.760,40.250
158879791,-0.764,0.210,0.610,-27.510,-131.670,37.870
158879811,-0.791,0.189,0.598,-23.660,-129.360,37.030
158879835,-0.684,0.146,0.557,-14.490,-127.750,37.730
158879853,-0.616,0.195,0.516,-7.630,-117.180,36.820
158879877,-0.557,0.226,0.488,-15.960,-106.260,40.180
158879895,-0.384,0.183,0.504,-25.900,-94.150,46.410
158879916,-0.338,0.175,0.605,-42.910,-85.960,51.170
158879940,-0.340,0.191,0.576,-49.630,-83.720,49.630
158879960,-0.300,0.142,0.728,-50.470,-81.410,42.560
158879980,-0.314,0.132,0.761,-50.470,-83.300,36.960
158879996,-0.274,0.070,0.799,-47.600,-81.830,32.760
158880019,-0.269,0.106,0.819,-46.900,-79.520,23.450
158880040,-0.316,0.024,0.778,-33.180,-77.000,19.040
158880058,-0.242,0.094,0.867,-27.510,-77.070,16.940
158880082,-0.184,0.143,1.015,-32.480,-73.430,18.900
158880102,-0.284,0.199,1.017,-52.570,-76.860,17.570
158880121,-0.307,0.042,0.843,-49.420,-81.480,15.470
158880140,-0.140,-0.009,0.819,-23.170,-78.610,15.120
158880159,-0.151,0.111,0.920,-18.970,-72.030,12.250
158880184,-0.126,0.055,0.949,-25.900,-69.580,10.640
158880203,-0.084,0.025,0.905,-14.770,-66.080,7.910
158880227,-0.126,0.072,1.013,-17.920,-57.400,-2.450
158880247,-0.115,0.020,1.051,-18.410,-56.700,-4.410
158880266,0.016,-0.002,1.034,-11.270,-54.250,-2.170
158880290,-0.023,0.066,1.048,-5.250,-47.390,-1.400
158880314,-0.072,0.089,1.036,-11.480,-56.840,-0.350
158880334,0.045,0.090,1.068,-24.640,-57.330,-2.730
158880350,0.054,0.059,1.165,-26.320,-52.710,-3.080
158880374,0.021,0.149,1.112,-29.260,-56.840,-2.940
158880393,0.191,0.040,1.064,-38.430,-57.190,-6.160
158880411,0.236,-0.078,1.016,-26.460,-53.060,-8.190
158880435,0.211,0.005,1.123,-20.090,-45.150,-9.870
158880455,0.097,0.024,1.105,-19.320,-41.090,-14.140
158880474,0.293,-0.060,1.034,-10.290,-34.860,-13.300
158880498,0.426,-0.060,1.074,4.130,-22.750,-13.300
158880518,0.373,0.009,1.188,-1.050,-9.310,-12.460
158880538,0.255,-0.015,1.300,0.560,-5.110,-15.330
158880558,0.351,-0.009,1.323,-1.400,-1.750,-14.000
158880578,0.387,-0.023,1.353,0.560,2.380,-7.420
158880602,0.336,-0.033,1.366,-1.750,5.600,-1.120
158880620,0.403,-0.040,1.365,-2.380,3.150,4.760
158880643,0.429,-0.049,1.264,-7.770,6.860,8.330
158880664,0.401,-0.154,1.181,-0.700,11.760,9.310
158880684,0.196,-0.172,1.125,6.090,14.280,7.210
158880708,0.233,-0.204,1.041,31.220,17.220,6.650
158880723,0.287,-0.047,1.062,31.640,22.050,5.810
158880743,0.180,-0.025,1.071,17.500,31.780,1.540
158880768,0.137,-0.006,1.026,20.090,37.870,-1.050
158880788,0.125,-0.035,1.029,17.710,42.280,-3.150
158880807,0.094,-0.041,1.023,19.530,46.340,-3.850
158880828,-0.018,-0.021,0.982,24.220,51.590,-2.310
158880852,0.008,0.089,0.991,19.320,57.960,3.780
158880871,0.015,0.101,0.922,10.990,66.010,7.280
158880890,-0.108,0.062,0.823,13.790,73.220,8.960
158880910,-0.150,-0.037,0.798,28.560,75.530,11.270
158880934,-0.013,0.076,0.884,43.050,93.170,9.870
158880953,-0.172,0.194,0.938,24.430,99.050,2.520
158880977,-0.281,0.043,0.859,30.730,102.550,-2.100
158880995,-0.333,0.128,0.907,38.640,114.310,-11.620
158881019,-0.399,0.165,0.875,27.580,116.550,-21.280
158881039,-0.366,0.088,0.841,34.720,109.690,-19.810
158881058,-0.290,0.119,0.841,43.470,117.950,-22.750
158881077,-0.434,0.158,0.729,50.120,123.060,-29.400
158881098,-0.555,0.109,0.661,57.260,120.610,-41.860
158881122,-0.431,0.049,0.543,92.050,126.420,-63.630
158881140,-0.369,0.227,0.582,98.420,139.160,-75.530
158881160,-0.518,0.458,0.677,60.760,149.520,-83.160
158881184,-0.565,0.376,0.820,24.220,158.340,-77.280
158881204,-0.610,0.247,0.864,0.350,148.680,-65.380
158881224,-0.637,0.238,0.816,-5.810,138.740,-54.950
158881243,-0.682,0.153,0.705,-0.420,132.930,-49.770
158881264,-0.758,0.141,0.624,16.030,128.590,-41.930
158881284,-0.799,0.185,0.677,11.760,127.120,-33.250
158881304,-0.813,0.137,0.747,5.950,127.750,-28.420
158881322,-0.890,0.145,0.688,7.700,125.370,-27.090
158881343,-0.941,0.153,0.629,14.910,120.260,-31.710
158881363,-0.968,0.147,0.624,23.870,110.740,-38.920
158881384,-0.899,0.209,0.653,27.790,97.230,-40.110
158881403,-0.770,0.243,0.694,23.030,91.560,-39.060
158881428,-0.753,0.196,0.664,28.560,82.880,-33.810
158881448,-0.767,0.157,0.614,50.470,75.320,-30.800
158881465,-0.752,0.203,0.588,64.470,70.630,-28.350
158881489,-0.783,0.309,0.632,62.300,64.750,-26.740
158881506,-0.850,0.326,0.668,48.020,56.210,-26.600
158881526,-0.905,0.242,0.630,43.050,46.970,-26.950
158881546,-0.897,0.205,0.530,53.690,44.380,-29.750
158881566,-0.964,0.282,0.509,59.500,47.180,-32.060
158881585,-1.030,0.356,0.569,42.630,47.320,-32.200
158881610,-1.072,0.289,0.509,20.300,37.100,-31.010
158881630,-0.984,0.248,0.394,11.970,28.280,-27.650
158881650,-0.875,0.238,0.420,6.230,27.020,-18.690
158881668,-0.848,0.218,0.477,0.560,26.880,-8.190
158881687,-0.876,0.195,0.499,-3.780,22.820,0.000
158881713,-0.840,0.059,0.555,15.400,12.670,-0.840
158881730,-0.843,0.126,0.611,30.870,5.040,-0.770
158881753,-0.843,0.353,0.647,6.510,-7.560,-1.400
158881773,-0.868,0.297,0.624,-34.790,-16.240,-4.620
158881792,-0.936,0.227,0.651,-38.500,-24.640,-5.740
158881816,-1.022,0.221,0.695,-26.040,-32.620,-4.830
158881836,-1.045,0.253,0.656,-11.830,-47.810,1.470
158881857,-1.041,0.302,0.572,-0.070,-61.320,10.570
158881881,-1.005,0.365,0.564,3.780,-70.350,26.460
158881899,-0.953,0.441,0.596,-10.990,-78.050,39.200
158881917,-0.857,0.402,0.638,-32.620,-87.920,50.820
158881937,-0.768,0.285,0.617,-46.270,-96.950,59.850
158881961,-0.784,0.213,0.572,-32.550,-106.260,70.280
158881981,-0.786,0.285,0.755,-23.730,-111.790,75.320
158882000,-0.855,0.336,0.793,-34.370,-125.650,78.890
158882021,-0.815,0.264,0.632,-40.670,-138.040,81.130
158882045,-0.868,0.205,0.515,-28.910,-143.010,81.060
158882065,-0.912,0.189,0.448,-16.240,-143.360,80.640
158882080,-0.904,0.214,0.444,-12.320,-147.910,80.010
158882105,-0.861,0.248,0.481,-9.310,-147.980,75.600
158882124,-0.761,0.243,0.493,-12.180,-142.940,71.190
158882145,-0.717,0.274,0.554,-25.690,-136.990,64.190
158882163,-0.717,0.251,0.627,-29.540,-129.360,59.570
158882183,-0.699,0.244,0.632,-23.870,-121.170,55.300
158882207,-0.697,0.308,0.713,-21.420,-116.480,49.070
158882226,-0.650,0.331,0.811,-35.980,-119.210,48.160
158882247,-0.549,0.259,0.781,-48.650,-116.760,48.300
158882265,-0.547,0.250,0.760,-52.150,-114.520,44.520
158882286,-0.519,0.079,0.736,-35.910,-113.540,43.190
158882306,-0.407,0.172,0.802,-14.350,-108.430,43.820
158882330,-0.492,0.287,0.812,-27.720,-98.910,43.190
158882350,-0.394,0.190,0.768,-39.480,-97.020,45.360
158882369,-0.290,0.162,0.775,-49.630,-103.040,45.150
158882390,-0.156,0.061,0.817,-44.590,-89.810,40.950
158882410,-0.238,0.072,0.741,-28.280,-82.390,38.780
158882434,-0.240,0.153,0.813,-24.220,-74.900,30.660
158882454,-0.244,0.158,0.875,-38.640,-71.820,19.670
158882474,-0.192,0.122,0.879,-45.780,-66.360,10.150
158882494,-0.224,0.064,0.919,-37.380,-61.390,1.610
158882513,-0.163,0.039,1.003,-26.460,-57.400,-1.960
158882538,-0.068,0.137,1.013,-27.720,-55.860,-2.940
158882558,-0.053,0.113,1.108,-56.280,-52.360,-0.980
158882573,-0.074,0.044,1.088,-66.640,-58.380,2.100
158882593,0.029,-0.074,1.139,-63.350,-57.190,0.560
158882613,0.044,-0.017,1.162,-55.370,-64.470,-3.010
158882634,0.031,-0.016,1.104,-54.320,-68.670,-12.600
158882655,0.128,-0.055,0.947,-41.510,-72.660,-20.300
158882679,0.194,-0.020,0.970,-15.820,-56.420,-24.080
158882697,0.081,0.089,1.040,-10.920,-49.350,-28.420
158882717,0.208,0.070,1.054,-11.970,-50.960,-27.790
158882740,0.248,0.077,1.028,-9.520,-47.670,-26.320
158882761,0.311,0.041,1.120,0.630,-40.320,-22.820
158882781,0.277,0.041,1.157,4.410,-39.270,-17.360
158882801,0.329,0.103,1.178,6.720,-28.630,-9.940
158882820,0.325,0.097,1.222,-2.660,-22.680,-3.150
158882841,0.344,0.073,1.417,-21.210,-15.680,4.830
158882861,0.280,-0.159,1.426,-15.190,-18.340,9.590
158882880,0.313,-0.307,1.167,4.340,-22.330,10.780
158882901,0.424,-0.107,1.317,8.400,-11.480,10.430
158882925,0.302,-0.061,1.322,-21.770,-9.100,3.220
158882942,0.377,-0.203,1.107,-9.310,-9.310,-0.840
158882962,0.460,-0.091,1.012,18.550,2.590,-7.070
158882986,0.332,-0.075,0.874,41.300,11.550,-14.490
158883005,0.339,0.057,0.911,51.170,21.560,-18.620
158883025,0.290,0.183,0.902,19.110,28.420,-22.680
158883044,0.218,0.224,0.871,13.440,34.090,-20.720
158883064,0.143,0.061,0.876,-5.880,39.900,-16.730
158883084,0.004,0.063,0.919,-1.050,45.990,-11.760
158883109,0.023,0.070,0.881,17.850,51.730,-12.320
158883128,-0.027,0.094,0.847,34.090,59.570,-13.790
158883153,0.088,0.155,0.932,34.090,69.860,-9.380
158883173,0.039,0.142,0.932,25.480,80.010,-9.100
158883194,-0.030,0.110,0.843,31.220,83.790,-11.060
158883213,-0.004,0.128,0.916,34.860,91.700,-14.210
158883233,-0.107,0.260,1.038,14.070,99.540,-20.440
158883253,-0.143,0.153,1.021,12.670,103.180,-23.240
158883272,-0.179,0.076,0.900,30.450,110.180,-28.070
158883292,-0.171,0.183,1.045,37.030,116.550,-29.890
158883316,-0.390,0.378,1.175,-0.210,125.020,-32.060
158883334,-0.440,0.172,0.999,-16.870,127.330,-32.550
158883354,-0.507,0.020,0.809,12.390,121.240,-32.340
158883374,-0.396,0.224,1.000,26.110,130.690,-28.000
158883398,-0.536,0.207,1.102,8.330,135.450,-24.570
158883417,-0.597,-0.037,0.987,16.520,125.020,-24.150
158883438,-0.490,-0.172,0.882,86.520,117.250,-26.180
158883462,-0.465,-0.076,0.810,151.060,125.090,-32.060
158883482,-0.481,0.118,0.857,151.480,134.470,-40.180
158883502,-0.658,0.357,0.809,112.840,128.100,-48.790
158883520,-0.591,0.400,0.769,71.890,132.930,-58.520
158883540,-0.680,0.376,0.712,41.580,129.710,-67.060
158883564,-0.795,0.371,0.692,29.610,127.330,-72.310
158883588,-0.882,0.341,0.706,23.170,103.180,-79.310
158883606,-0.800,0.325,0.653,27.160,87.850,-78.330
158883628,-0.744,0.317,0.560,34.370,79.660,-73.780
158883647,-0.691,0.317,0.588,33.320,74.620,-67.480
158883667,-0.655,0.288,0.568,32.690,69.720,-63.910
158883691,-0.681,0.325,0.574,24.360,66.430,-60.760
158883711,-0.688,0.306,0.549,15.960,61.670,-60.130
158883731,-0.690,0.247,0.517,22.260,58.170,-62.370
158883746,-0.688,0.240,0.488,33.600,53.760,-65.240
158883766,-0.677,0.259,0.486,50.750,49.980,-64.680
158883791,-0.640,0.260,0.434,65.520,53.620,-60.060
158883806,-0.629,0.308,0.414,71.960,64.050,-54.040
158883831,-0.717,0.334,0.440,57.470,70.630,-42.840
158883851,-0.794,0.357,0.459,44.310,70.000,-33.810
158883869,-0.839,0.345,0.434,31.500,66.220,-31.150
158883889,-0.874,0.265,0.466,28.980,67.270,-31.080
158883913,-0.966,0.290,0.554,36.960,65.240,-35.070
158883933,-1.063,0.227,0.583,59.780,55.790,-38.850
158883951,-1.064,0.238,0.474,80.010,44.870,-39.410
158883975,-1.078,0.380,0.532,84.070,33.740,-32.270
158883995,-1.070,0.468,0.593,60.690,19.810,-22.470
158884015,-1.036,0.413,0.544,28.840,8.050,-7.560
158884031,-1.022,0.341,0.492,15.470,3.710,2.240
158884056,-0.918,0.277,0.458,1.190,-1.610,19.180
158884072,-0.834,0.241,0.432,-8.610,-3.080,27.230
158884090,-0.778,0.198,0.377,-15.540,-7.140,32.270
158884114,-0.739,0.208,0.340,-18.200,-10.710,30.170
158884137,-0.799,0.273,0.356,-18.620,-12.600,24.430
158884161,-0.916,0.319,0.422,-23.730,-35.700,19.320
158884177,-0.946,0.376,0.457,-26.390,-24.780,18.410
158884199,-0.974,0.395,0.471,-13.720,-25.970,22.610
158884218,-0.986,0.445,0.551,-8.260,-30.170,29.330
158884238,-1.008,0.524,0.588,-15.120,-39.200,40.320
158884263,-1.006,0.499,0.601,-19.460,-52.290,59.290
158884282,-0.997,0.502,0.587,-9.030,-60.830,74.340
158884303,-0.979,0.575,0.641,-9.170,-64.400,89.040
158884322,-1.011,0.614,0.725,-29.750,-77.700,98.840
158884340,-0.999,0.528,0.675,-38.850,-90.090,104.580
158884360,-0.982,0.521,0.611,-44.660,-101.290,108.500
158884380,-0.921,0.526,0.619,-63.000,-111.370,111.720
158884400,-0.937,0.480,0.606,-78.750,-116.130,112.630
158884419,-0.955,0.394,0.536,-83.930,-124.180,106.470
158884442,-0.966,0.341,0.528,-76.580,-125.930,94.920
158884463,-0.941,0.327,0.529,-69.020,-130.900,84.210
158884486,-0.876,0.321,0.480,-63.980,-132.720,75.600
158884507,-0.745,0.319,0.454,-65.660,-127.540,70.210
158884525,-0.705,0.304,0.466,-68.670,-124.740,66.780
158884546,-0.663,0.225,0.544,-69.580,-126.000,66.150
158884566,-0.595,0.176,0.654,-65.520,-130.200,65.730
158884590,-0.590,0.040,0.586,-47.110,-131.320,51.030
158884610,-0.438,-0.033,0.547,25.270,-114.590,43.190
158884630,-0.429,0.222,0.646,47.950,-104.300,39.830
158884649,-0.450,0.460,0.733,7.560,-101.080,36.120
158884669,-0.407,0.470,0.641,-35.490,-94.290,31.990
158884690,-0.377,0.275,0.601,-46.200,-88.550,29.260
158884714,-0.290,0.264,0.722,-42.770,-82.110,28.350
158884734,-0.318,0.285,0.734,-45.640,-75.530,27.020
158884754,-0.303,0.296,0.656,-41.650,-72.940,23.660
158884773,-0.228,0.365,0.726,-47.670,-71.050,22.820
158884794,-0.237,0.312,0.774,-56.350,-62.440,23.450
158884814,-0.240,0.267,0.841,-60.060,-64.470,24.150
158884834,-0.170,0.202,0.855,-51.730,-64.610,24.290
158884854,-0.172,0.175,0.878,-36.400,-61.040,21.770
158884874,-0.100,0.265,0.937,-33.950,-65.100,15.820
158884898,-0.089,0.253,0.975,-43.960,-65.590,9.940
158884918,-0.105,0.152,1.160,-45.010,-80.640,6.650
158884938,0.052,0.120,1.179,-20.790,-87.010,4.970
158884957,0.181,0.311,0.951,-35.280,-84.700,1.470
158884978,0.036,0.329,0.949,-78.050,-73.360,-3.780
158884998,-0.031,0.170,0.932,-81.690,-66.850,-3.640
158885016,-0.028,0.064,0.966,-37.870,-55.650,-3.850
158885040,-0.007,0.206,0.968,0.770,-52.080,0.420
158885060,0.178,0.305,1.039,-13.440,-50.960,8.400
158885080,0.087,0.364,1.168,-44.800,-48.790,9.590
158885095,-0.020,0.213,1.135,-58.380,-54.670,9.590
158885115,0.169,0.032,1.094,-38.430,-57.190,11.620
158885139,0.189,-0.007,1.013,-2.870,-54.320,17.150
158885160,0.158,0.116,0.939,14.070,-46.970,22.960
158885180,0.192,0.184,0.986,-4.130,-37.590,22.610
158885200,0.199,0.142,0.859,-22.260,-35.070,21.560
158885218,0.388,0.014,0.856,-16.730,-28.350,23.800
158885240,0.374,-0.021,0.888,-17.360,-10.150,20.370
158885259,0.305,-0.025,0.905,-25.550,2.940,15.330
158885280,0.390,-0.015,1.036,-42.910,8.610,9.380
158885304,0.428,-0.158,1.203,-49.490,13.300,2.100
158885324,0.590,-0.241,1.382,-26.320,22.540,-2.450
158885342,0.556,-0.174,1.551,-14.140,22.750,-9.380
158885364,0.404,-0.104,1.561,-14.910,11.270,-15.750
158885384,0.398,-0.139,1.426,1.680,3.150,-12.180
158885406,0.440,-0.088,1.299,25.340,5.040,-1.960
158885427,0.336,-0.013,1.183,33.460,9.240,3.500
158885447,0.265,0.020,1.077,25.130,13.160,0.980
158885466,0.248,0.042,0.979,25.830,19.810,-1.330
158885491,0.225,0.070,0.949,21.140,32.480,2.590
158885511,0.183,0.101,0.975,4.760,42.350,7.560
158885528,0.078,0.083,0.960,-4.550,48.650,8.820
158885548,0.017,0.034,0.926,-4.830,49.490,4.900
158885571,0.170,0.047,1.037,3.360,58.100,-11.550
158885592,0.182,0.189,1.220,-17.570,61.460,-25.410
158885612,0.052,0.178,1.173,-50.050,57.190,-36.540
158885631,-0.058,-0.073,0.926,-37.310,53.620,-38.220
158885647,0.140,-0.029,0.819,8.540,64.540,-30.450
158885671,0.176,-0.032,1.028,29.750,83.510,-28.070
158885692,-0.145,0.087,1.067,25.410,79.450,-29.120
158885712,-0.277,0.023,0.826,30.380,81.970,-33.250
158885732,-0.207,0.050,0.803,41.300,79.870,-28.630
158885751,-0.071,0.124,1.027,37.310,97.720,-21.980
158885768,-0.218,0.090,0.971,25.270,102.200,-15.260
158885787,-0.337,0.022,0.759,24.780,106.260,-10.570
158885812,-0.382,0.115,0.688,29.540,106.400,-4.970
158885828,-0.266,0.102,0.979,-1.400,116.410,-12.110
158885848,-0.350,-0.057,0.795,2.380,106.680,-12.180
158885872,-0.337,-0.084,0.628,37.100,125.020,-19.950
158885892,-0.315,0.185,0.732,21.420,125.790,-20.580
158885911,-0.477,0.239,0.905,-4.410,137.060,-19.390
158885936,-0.644,0.087,0.728,-28.280,122.360,-14.490
158885956,-0.455,0.071,0.711,-24.360,122.220,-8.470
158885980,-0.546,0.043,0.796,-27.440,121.450,-10.500
158885999,-0.586,-0.115,0.746,-0.280,117.880,-11.900
158886019,-0.622,-0.060,0.680,35.210,111.580,-19.180
158886036,-0.575,0.015,0.676,59.500,113.400,-17.290
158886056,-0.613,0.059,0.642,61.670,121.100,-13.790
158886076,-0.668,0.133,0.590,58.170,131.600,-11.690
158886100,-0.731,0.195,0.584,41.510,139.370,-13.440
158886119,-0.830,0.229,0.678,9.170,133.490,-16.520
158886140,-0.864,0.067,0.726,0.700,124.320,-22.190
158886163,-0.803,0.054,0.719,22.050,118.720,-32.200
158886183,-0.863,0.142,0.802,28.980,112.700,-44.800
158886203,-0.810,0.145,0.797,23.100,97.510,-50.820
158886227,-0.627,0.139,0.737,20.020,90.650,-49.980
158886246,-0.728,0.121,0.704,22.680,86.590,-48.230
158886265,-0.769,0.159,0.682,25.480,82.180,-45.080
158886289,-0.856,0.151,0.634,32.130,80.080,-44.240
158886309,-0.926,0.205,0.585,37.450,73.220,-46.200
158886327,-0.991,0.273,0.594,31.500,64.470,-47.320
158886346,-1.028,0.265,0.574,19.110,55.790,-47.250
158886370,-0.982,0.252,0.497,18.200,50.330,-43.890
158886391,-0.972,0.224,0.517,15.610,48.020,-38.850
158886407,-0.988,0.236,0.545,6.720,43.960,-32.900
158886431,-0.999,0.162,0.522,-0.420,30.380,-24.710
158886455,-0.924,0.113,0.491,5.110,22.610,-15.120
158886475,-0.910,0.109,0.483,8.190,16.730,-6.020
158886493,-0.931,0.072,0.487,12.460,8.470,4.480
158886513,-0.926,0.112,0.507,12.320,2.940,11.550
158886537,-0.963,0.102,0.524,3.710,-3.290,15.330
158886557,-0.994,0.073,0.541,0.420,-10.150,16.030
158886577,-0.990,0.133,0.649,0.980,-15.750,15.050
158886595,-0.949,0.230,0.737,-10.500,-27.510,13.440
158886613,-0.882,0.203,0.735,-21.000,-38.010,13.510
158886635,-0.826,0.213,0.691,-20.790,-48.790,18.690
158886655,-0.862,0.250,0.675,-25.760,-58.100,26.670
158886675,-0.945,0.286,0.691,-30.380,-69.930,35.000
158886699,-0.998,0.236,0.683,-31.710,-84.840,44.520
158886718,-1.030,0.304,0.651,-32.620,-99.400,51.660
158886739,-1.038,0.233,0.812,-37.730,-110.600,55.510
158886763,-1.062,0.174,0.779,-21.840,-122.570,59.570
158886781,-1.012,0.185,0.755,-7.420,-133.980,61.950
158886805,-0.865,0.184,0.735,-5.670,-143.500,71.610
158886825,-0.732,0.146,0.720,-6.160,-141.120,82.390
158886844,-0.809,0.186,0.688,-11.900,-141.120,87.920
158886863,-0.899,0.189,0.679,-18.760,-147.070,85.190
158886886,-0.887,0.166,0.596,-27.790,-150.500,72.520
158886907,-0.842,0.166,0.587,-31.220,-149.100,62.020
158886927,-0.762,0.184,0.615,-36.540,-145.670,54.670
158886946,-0.659,0.107,0.634,-35.910,-139.230,48.790
158886967,-0.660,0.187,0.641,-29.330,-132.650,40.320
158886986,-0.637,0.111,0.619,-23.590,-130.130,34.930
158887006,-0.532,0.122,0.649,-19.250,-128.870,32.550
158887028,-0.472,0.141,0.636,-18.550,-123.200,33.880
158887048,-0.407,0.110,0.662,-9.940,-115.710,35.420
158887068,-0.393,0.205,0.770,-14.490,-110.460,36.540
158887087,-0.393,0.165,0.768,-35.350,-111.230,34.300
158887112,-0.266,0.083,0.755,-18.970,-105.350,33.460
158887129,-0.314,0.091,0.724,-26.810,-98.350,27.090
158887149,-0.374,0.091,0.733,-15.050,-100.870,18.200
158887172,-0.223,0.070,0.763,-9.660,-98.560,14.210
158887192,-0.285,0.125,0.734,-5.250,-88.760,8.610
158887213,-0.317,0.135,0.706,-2.730,-88.900,5.670
158887236,-0.200,0.150,0.753,-6.300,-80.570,4.060
158887257,-0.193,0.209,0.743,-9.030,-67.340,8.820
158887277,-0.241,0.268,0.782,-18.270,-58.800,11.200
158887292,-0.193,0.181,0.887,-19.950,-58.800,13.440
158887317,-0.081,0.201,1.006,-23.100,-57.260,14.070
158887336,-0.096,0.237,1.074,-43.750,-58.870,6.650
158887357,-0.031,0.045,1.029,-37.100,-65.170,7.840
158887372,0.014,-0.002,1.027,-15.470,-62.860,9.450
158887397,0.056,0.119,1.034,1.330,-56.140,9.380
158887417,0.051,0.208,1.054,-11.830,-53.480,8.610
158887433,0.106,0.139,0.991,-17.780,-51.240,8.120
158887457,0.195,0.203,1.129,-31.430,-49.000,2.030
158887476,0.145,0.125,1.155,-60.340,-46.410,-3.290
158887495,0.103,-0.011,1.000,-50.260,-50.960,-5.810
158887514,0.235,0.021,1.040,-28.350,-36.540,-5.740
158887539,0.119,-0.016,1.007,3.010,-21.420,-1.260
158887559,-0.017,0.155,1.085,35.070,-19.950,5.950
158887578,0.011,0.127,0.926,35.840,-23.310,13.300
158887598,0.181,-0.064,0.975,36.680,-18.060,20.790
158887621,0.246,-0.098,1.270,-13.230,-20.790,21.770
158887641,0.360,-0.300,1.096,-3.850,-20.860,19.600
158887664,0.493,-0.179,1.078,19.810,-18.200,9.660
158887685,0.427,-0.023,1.301,1.540,-10.430,-6.160
158887704,0.468,-0.061,1.250,-2.730,-6.090,-11.060
158887727,0.390,0.003,1.192,15.330,1.190,-9.240
158887744,0.292,0.193,1.240,22.400,3.360,-6.860
158887766,0.362,0.267,1.384,6.930,9.730,-2.100
158887790,0.310,0.188,1.355,-7.980,13.860,4.410
158887810,0.297,0.042,1.210,10.640,17.220,9.520
158887830,0.134,0.069,1.227,19.390,25.830,10.220
158887847,0.181,0.062,1.206,8.750,25.760,6.230
158887871,0.208,0.027,1.167,-0.840,28.280,1.260
158887889,0.244,-0.041,1.113,-0.210,35.210,0.210
158887910,0.167,-0.003,1.051,3.150,45.150,-4.130
158887934,0.081,-0.032,1.042,14.070,51.520,-10.990
158887954,-0.009,-0.038,0.941,5.320,51.030,-14.700
158887973,-0.016,-0.081,0.782,12.810,54.740,-14.350
158887995,-0.011,0.014,0.699,28.560,69.930,-13.230
158888019,-0.051,0.178,0.851,5.250,88.900,-14.630
158888039,-0.201,0.185,0.806,-23.800,85.890,-17.780
158888059,-0.155,-0.040,0.691,-9.520,91.350,-16.170
158888079,-0.198,0.003,0.725,16.240,102.620,-15.610
158888099,-0.248,0.129,0.856,23.240,113.050,-14.280
158888114,-0.348,0.157,0.895,14.630,116.620,-13.720
158888135,-0.365,0.036,0.819,21.000,115.780,-17.150
158888159,-0.386,0.121,0.771,35.000,126.350,-27.440
158888179,-0.446,0.208,0.965,20.860,131.530,-33.740
158888198,-0.530,0.228,1.027,0.980,133.700,-38.990
158888218,-0.635,0.125,0.954,4.060,125.160,-43.820
158888242,-0.570,0.042,0.779,34.930,131.180,-40.320
158888257,-0.408,0.259,1.043,31.710,125.790,-39.130
158888282,-0.570,0.334,1.005,-3.780,131.950,-40.320
158888302,-0.690,0.114,0.799,5.740,131.530,-37.240
158888320,-0.793,0.135,0.670,34.230,118.860,-31.640
158888339,-0.470,0.428,0.998,16.940,126.280,-30.800
158888358,-0.667,0.430,1.075,-40.040,131.600,-30.030
158888383,-0.751,0.077,0.877,-20.370,116.830,-20.790
158888403,-0.803,-0.097,0.612,19.530,113.540,-25.550
158888421,-0.848,-0.084,0.557,78.050,105.910,-29.890
158888443,-0.682,0.268,0.606,87.710,109.760,-26.670
158888463,-0.743,0.367,0.692,50.330,114.520,-25.970
158888487,-0.803,0.239,0.649,24.150,114.380,-18.970
158888507,-0.844,0.182,0.545,23.240,112.770,-22.120
158888527,-0.836,0.138,0.531,35.630,108.990,-26.460
158888547,-0.826,0.160,0.558,48.300,98.280,-28.560
158888567,-0.738,0.212,0.590,55.790,90.510,-28.000
158888587,-0.721,0.175,0.588,62.230,85.680,-27.160
158888603,-0.691,0.207,0.553,72.730,76.930,-24.500
158888627,-0.639,0.195,0.529,76.300,66.780,-21.630
158888647,-0.631,0.153,0.533,86.450,55.370,-18.690
158888666,-0.660,0.165,0.548,99.190,44.450,-20.160
158888687,-0.716,0.130,0.525,120.260,37.660,-24.150
158888704,-0.776,0.173,0.489,137.200,32.340,-28.000
158888727,-0.906,0.346,0.477,143.010,31.640,-37.590
158888745,-1.086,0.361,0.433,132.790,31.640,-45.780
158888764,-1.179,0.377,0.393,127.470,20.580,-45.710
158888789,-1.145,0.541,0.346,97.580,7.280,-41.160
158888807,-1.018,0.514,0.453,46.060,9.730,-33.040
158888827,-1.049,0.524,0.528,-10.850,9.240,-16.030
158888850,-0.961,0.375,0.512,-58.240,5.250,2.870
158888870,-0.896,0.245,0.458,-74.830,2.520,12.880
158888890,-0.888,0.118,0.411,-71.120,-1.120,20.090
158888910,-0.873,0.039,0.356,-43.680,-4.410,21.070
158888934,-0.885,0.068,0.327,-21.210,-9.520,14.910
158888953,-0.942,0.112,0.296,-7.980,-14.210,14.000
158888973,-0.991,0.138,0.256,3.150,-18.830,11.830
158888997,-0.996,0.161,0.250,11.900,-24.010,6.020
158889015,-1.008,0.204,0.263,17.080,-23.100,4.970
158889036,-1.016,0.223,0.260,15.890,-24.290,6.790
158889056,-0.969,0.213,0.257,10.080,-23.170,9.170
158889080,-0.933,0.185,0.240,5.110,-19.180,12.320
158889098,-0.913,0.162,0.243,8.400,-17.640,13.860
158889122,-0.903,0.180,0.226,12.390,-16.170,14.350
158889140,-0.900,0.175,0.231,13.020,-14.420,13.020
158889160,-0.925,0.204,0.225,9.170,-11.690,10.780
158889184,-0.961,0.224,0.227,3.010,-11.130,7.280
158889204,-0.985,0.226,0.242,-6.580,-12.390,4.900
158889223,-0.981,0.206,0.257,-9.660,-13.230,4.340
158889247,-0.984,0.177,0.263,-6.580,-11.340,4.690
158889266,-0.978,0.160,0.268,1.190,-10.990,6.720
158889287,-0.966,0.167,0.257,10.850,-7.490,7.840
158889311,-0.964,0.186,0.279,13.650,-6.090,7.560
158889331,-0.935,0.218,0.297,8.470,-5.040,7.280
158889348,-0.921,0.212,0.299,4.200,-3.640,6.440
158889372,-0.956,0.211,0.285,0.630,-2.450,4.550
158889390,-0.955,0.204,0.288,-0.840,-3.710,3.360
158889411,-0.934,0.203,0.279,-0.840,-2.030,1.820
158889431,-0.943,0.210,0.263,2.590,0.350,0.700
158889455,-0.954,0.212,0.264,7.840,0.350,-1.750
158889470,-0.952,0.192,0.292,15.330,0.770,-2.520
158889495,-0.936,0.196,0.282,23.170,-0.350,-3.850
158889515,-0.943,0.241,0.260,23.590,-0.350,-5.880
158889535,-0.953,0.246,0.246,13.930,-3.850,-8.190
158889555,-0.962,0.247,0.244,4.200,-5.040,-10.570
158889574,-0.977,0.218,0.241,-1.680,-7.980,-13.580
158889595,-0.987,0.188,0.244,-3.780,-9.660,-17.080
158889614,-0.979,0.176,0.255,-1.540,-11.480,-20.370
158889635,-0.959,0.145,0.262,2.940,-12.740,-23.030
158889655,-0.964,0.153,0.267,9.170,-13.790,-23.520
158889679,-0.953,0.146,0.287,14.070,-15.120,-22.960
158889699,-0.947,0.176,0.292,16.590,-13.860,-22.610
158889723,-0.966,0.194,0.296,15.540,-15.050,-23.380
158889739,-0.965,0.196,0.301,14.560,-15.820,-23.940
158889759,-0.954,0.183,0.314,13.790,-16.030,-24.150
158889783,-0.956,0.192,0.348,15.890,-17.430,-21.140
158889801,-0.910,0.161,0.352,18.830,-17.290,-17.640
158889825,-0.872,0.153,0.360,24.010,-12.810,-12.040
158889845,-0.903,0.204,0.381,22.330,-7.210,-7.070
158889860,-0.929,0.239,0.396,11.270,-3.710,-3.990
158889885,-1.004,0.208,0.415,-4.830,0.420,-0.140
158889905,-1.019,0.212,0.444,-16.870,0.910,2.870
158889929,-0.983,0.158,0.427,-25.550,2.590,5.320
158889949,-0.932,0.109,0.407,-22.540,3.920,8.190
158889966,-0.880,0.109,0.404,-20.230,5.250,10.990
158889990,-0.838,0.104,0.402,-20.160,7.770,15.540
158890010,-0.829,0.115,0.388,-22.400,10.010,15.890
158890026,-0.867,0.101,0.360,-22.680,11.200,15.120
158890048,-0.898,0.122,0.340,-23.450,9.030,13.650
158890068,-0.871,0.115,0.324,-21.560,7.630,12.880
158890091,-0.858,0.134,0.302,-14.980,10.430,13.650
158890112,-0.878,0.137,0.265,-5.880,12.180,15.610
158890132,-0.882,0.124,0.253,7.700,16.520,16.450
158890152,-0.899,0.109,0.220,29.400,20.930,18.830
158890170,-0.909,0.148,0.193,44.100,22.610,18.830
158890189,-0.916,0.158,0.213,49.770,26.880,17.360
158890214,-0.938,0.066,0.205,62.790,29.680,17.080
158890233,-0.899,-0.026,0.252,78.120,27.510,13.650
158890258,-0.872,-0.215,0.432,106.190,20.790,-5.180
158890278,-0.875,-0.504,0.496,154.210,-6.300,-21.210
158890295,-0.834,-0.538,0.646,200.130,-34.860,-41.860
158890319,-0.829,-0.405,0.835,235.620,-73.430,-70.420
158890334,-0.980,-0.315,1.137,249.970,-108.360,-76.580
158890359,-1.099,-0.292,1.280,281.260,-153.440,-64.820
158890376,-1.319,0.049,1.442,320.040,-175.490,-45.710
158890395,-1.638,0.430,1.393,335.510,-207.550,-12.670
158890415,-1.536,0.770,1.420,341.530,-252.280,26.180
158890439,-1.420,1.533,1.520,309.190,-270.200,104.930
158890455,-1.640,1.938,1.651,214.620,-263.480,145.250
158890474,-1.976,2.102,1.830,160.580,-276.360,207.760
158890499,-2.044,2.622,1.853,11.200,-277.620,254.030
158890518,-2.643,2.710,1.761,-103.110,-284.900,273.210
158890542,-2.943,2.348,1.294,-186.760,-329.980,270.690
158890561,-2.487,1.730,0.806,-185.360,-366.380,267.050
158890582,-2.027,1.232,0.530,-54.530,-349.300,278.250
158890602,-1.592,1.153,0.374,12.740,-324.450,291.060
158890621,-1.306,1.317,0.322,-26.600,-305.340,296.730
158890641,-1.072,0.719,0.061,-74.690,-294.070,294.840
158890661,-0.877,0.387,-0.062,-23.380,-272.440,300.790
158890681,-0.767,0.557,-0.003,12.180,-258.020,307.510
158890705,-0.751,0.663,0.161,-13.300,-248.010,304.360
158890725,-0.809,0.662,0.153,-42.140,-236.320,298.900
158890745,-0.872,0.425,0.051,-29.470,-232.330,293.790
158890769,-0.915,0.583,0.122,6.580,-225.890,302.820
158890789,-1.147,0.960,0.347,-65.100,-223.090,300.440
158890808,-1.278,0.760,0.280,-135.380,-230.930,300.300
158890832,-1.177,0.283,0.182,-104.720,-228.060,309.540
158890855,-1.142,0.319,0.253,-97.650,-226.590,313.950
158890871,-1.065,-0.059,0.071,-114.520,-224.840,307.860
158890896,-1.075,-0.465,-0.195,-155.610,-222.460,271.040
158890916,-1.091,-1.541,-0.811,-164.920,-246.820,215.880
158890936,-0.787,-2.612,-1.682,-44.660,-182.700,151.550
158890956,-0.325,-3.151,-2.187,19.390,-134.050,43.050
158890976,0.032,-3.288,-1.725,-31.150,-13.650,-52.290
158890994,-0.235,-3.163,-1.392,-41.440,71.610,-147.700
158891014,-0.221,-3.172,-1.460,62.230,155.470,-197.610
158891038,-0.231,-2.674,-1.112,198.240,194.600,-246.400
158891058,-0.100,-1.720,-0.411,141.260,187.950,-285.950
158891077,-0.026,-1.208,-0.185,43.960,186.480,-317.030
158891098,-0.217,-0.811,-0.307,-22.960,215.390,-335.930
158891122,-0.413,-0.367,-0.101,35.980,294.910,-349.580
158891142,-1.314,0.095,-0.013,94.150,275.380,-385.490
158891162,-1.564,1.139,0.307,52.150,297.780,-439.880
158891181,-1.648,1.237,0.146,-4.480,334.670,-448.280
158891200,-1.818,1.529,0.010,-33.600,350.980,-429.660
158891225,-1.873,1.557,-0.071,-32.410,373.170,-399.490
158891245,-1.766,1.542,-0.039,-74.410,382.970,-372.680
158891265,-1.725,1.336,-0.045,-95.060,412.160,-340.410
158891281,-1.708,1.077,-0.119,-80.290,422.100,-304.010
158891305,-1.754,0.906,-0.198,-66.640,435.680,-256.200
158891321,-1.919,1.027,-0.079,-57.890,443.240,-226.450
158891340,-1.951,0.905,0.064,-35.700,429.170,-178.500
158891363,-1.769,0.887,-0.018,22.680,424.690,-132.090
158891387,-1.868,0.973,0.671,68.810,422.940,-102.550
158891406,-1.787,0.938,0.553,77.560,398.160,-87.570
158891430,-1.807,0.814,0.381,120.750,408.870,-84.630
158891450,-2.653,0.781,1.056,199.570,363.860,-96.740
158891470,-2.971,1.445,1.737,137.060,271.390,-115.360
158891490,-2.709,1.603,2.649,51.940,164.150,-111.580
158891510,-2.684,1.740,3.976,-30.870,61.320,-83.930
158891530,-2.548,1.473,4.755,-7.420,-38.360,-12.880
158891554,-3.184,1.713,3.506,31.990,-164.220,50.610
158891570,-3.455,1.629,2.766,88.130,-279.720,61.950
158891594,-3.218,2.078,1.875,224.140,-335.930,138.810
158891613,-3.401,2.257,0.963,276.430,-359.380,228.620
158891632,-2.910,2.599,0.572,159.670,-313.110,285.600
158891650,-2.672,2.194,0.338,49.910,-275.660,323.750
158891670,-2.278,1.743,0.113,-45.570,-246.190,357.980
158891693,-2.001,1.073,0.029,-30.590,-238.420,396.410
158891714,-1.767,1.084,0.031,-5.880,-223.930,430.220
158891734,-1.820,1.051,-0.047,-55.580,-231.490,441.910
158891753,-1.880,1.048,-0.175,-115.220,-230.580,444.990
158891778,-1.897,0.828,-0.253,-144.620,-244.720,439.180
158891798,-1.822,0.915,-0.183,-128.800,-237.860,434.630
158891815,-1.936,1.253,-0.163,-164.850,-236.180,421.750
158891839,-1.997,1.540,-0.073,-259.420,-251.650,402.640
158891863,-2.125,1.527,0.109,-321.370,-273.910,382.550
158891883,-2.355,1.442,0.217,-325.500,-304.360,372.610
158891903,-2.416,1.247,0.227,-311.430,-341.320,346.990
158891920,-2.333,0.548,0.142,-234.640,-384.930,325.430
158891944,-1.905,0.116,-0.118,-100.940,-407.330,311.500
158891963,-1.779,-0.401,-0.649,-77.630,-413.000,289.590
158891982,-1.151,-1.377,-1.365,-125.720,-441.350,256.270
158892006,-0.299,-2.860,-2.279,-25.620,-329.000,223.160
158892026,0.050,-3.229,-2.243,16.660,-192.570,113.330
158892046,-0.556,-3.823,-2.604,90.020,-38.920,19.390
158892065,-0.788,-3.793,-2.573,87.850,53.620,-9.450
158892090,-0.682,-3.522,-1.850,8.960,147.070,-100.590
158892110,-0.692,-3.434,-1.446,34.370,242.200,-172.970
158892130,-1.089,-2.851,-1.137,75.250,310.940,-267.540
158892149,-1.230,-1.816,-0.671,79.170,352.660,-356.720
158892173,-1.453,-0.793,-0.110,48.930,403.480,-445.690
158892188,-2.445,0.154,-0.223,69.580,417.410,-486.080
158892212,-3.269,0.977,-0.144,124.390,413.980,-516.670
158892230,-3.152,1.853,-0.246,137.830,417.200,-510.790
158892250,-3.181,1.930,-0.375,100.100,388.920,-498.190
158892274,-2.970,2.056,-0.179,78.820,386.750,-451.710
158892293,-2.596,1.662,-0.245,67.760,406.700,-411.110
158892314,-2.421,1.554,-0.454,37.870,416.780,-378.630
158892334,-2.356,1.511,-0.412,-0.630,447.020,-351.400
158892354,-2.381,1.243,-0.211,-6.230,455.980,-321.300
158892378,-2.335,1.168,-0.098,-4.480,455.490,-266.140
158892397,-2.253,1.089,-0.141,35.210,453.950,-221.620
158892418,-2.178,1.277,0.167,75.180,450.380,-183.190
158892435,-2.415,1.308,0.707,87.290,438.550,-169.540
158892456,-2.694,1.201,1.002,131.600,393.260,-147.840
158892478,-2.431,1.709,1.060,152.950,314.090,-138.390
158892502,-2.899,2.466,2.436,81.480,230.090,-141.960
158892520,-3.232,3.029,4.195,-45.010,129.710,-92.540
158892540,-2.665,2.122,4.077,-27.440,18.270,-10.990
158892564,-3.122,2.358,4.025,-12.810,-63.630,62.510
158892584,-3.380,2.113,3.309,-41.160,-224.350,90.580
158892603,-3.148,1.990,2.108,45.010,-314.860,128.730
158892623,-3.584,2.041,1.024,172.900,-373.450,207.550
158892643,-3.132,2.395,0.631,213.570,-357.490,291.480
158892664,-2.892,2.412,0.246,133.070,-319.550,348.950
158892682,-2.454,2.035,0.061,-10.080,-276.780,376.600
158892706,-2.169,1.342,-0.094,-48.230,-265.090,406.490
158892726,-1.886,1.156,-0.116,-68.110,-242.410,425.880
158892744,-1.867,1.129,-0.156,-97.720,-237.510,437.360
158892766,-2.004,0.988,-0.314,-155.750,-252.840,434.490
158892789,-1.862,0.908,-0.274,-161.840,-248.500,429.380
158892810,-1.968,0.874,-0.207,-160.860,-248.850,419.580
158892830,-2.109,1.295,-0.266,-168.630,-253.960,412.860
158892850,-2.120,1.259,-0.215,-210.840,-267.190,401.660
158892873,-2.277,1.426,-0.099,-232.400,-282.100,391.650
158892891,-2.376,1.435,0.048,-220.010,-293.510,394.310
158892915,-2.290,1.387,0.031,-256.690,-316.050,390.390
158892935,-2.030,0.983,-0.003,-268.590,-339.710,378.700
158892954,-1.726,0.001,-0.011,-216.510,-340.410,361.340
158892974,-1.536,-0.450,-0.473,-180.320,-349.020,329.280
158892994,-1.408,-1.962,-2.097,-201.390,-406.420,233.240
158893013,0.160,-3.375,-2.416,-100.240,-351.820,185.010
158893038,-0.072,-3.533,-2.455,-52.710,-176.190,46.760
158893057,-0.292,-4.099,-3.041,84.770,-68.390,-35.350
158893081,-0.439,-3.704,-2.838,72.800,29.120,-107.590
158893101,-0.477,-3.043,-2.144,-17.710,123.970,-149.450
158893119,-0.532,-2.477,-1.590,-8.750,211.610,-177.940
158893141,-0.691,-1.719,-1.023,12.180,302.820,-222.880
158893160,-1.028,-0.984,-0.630,54.180,379.890,-277.480
158893182,-1.687,-0.138,-0.350,105.000,464.240,-339.640
158893206,-2.432,0.533,-0.076,139.860,460.810,-394.100
158893226,-2.669,1.072,-0.213,150.640,450.170,-421.260
158893246,-2.695,1.267,-0.319,160.300,436.170,-428.190
158893262,-2.697,1.444,-0.313,178.080,427.350,-424.130
158893286,-2.600,1.854,-0.186,133.420,413.140,-420.070
158893303,-2.397,1.495,-0.416,68.600,393.120,-405.370
158893322,-2.269,1.402,-0.510,69.300,400.120,-377.650
158893347,-2.325,1.424,-0.332,69.720,397.600,-356.230
158893367,-2.268,1.248,-0.216,100.660,403.200,-330.680
158893387,-2.227,1.265,-0.375,121.940,404.740,-300.370
158893406,-2.301,1.832,-0.176,88.200,405.440,-259.560
158893428,-2.096,1.407,0.369,50.680,398.580,-220.920
158893448,-2.484,1.262,0.305,125.300,429.030,-193.690
158893472,-2.975,1.597,0.817,182.140,386.400,-210.420
158893492,-3.183,2.114,1.960,160.510,292.670,-198.870
158893512,-3.019,2.438,2.309,146.510,192.010,-159.250
158893532,-3.136,3.425,4.096,46.060,93.310,-134.680
158893552,-3.156,3.279,4.521,-0.560,-18.410,-28.910
158893572,-3.710,3.372,3.985,-7.210,-162.470,53.200
158893589,-3.176,2.633,2.848,44.870,-280.980,121.590
158893609,-2.990,2.622,1.679,143.500,-337.330,200.410
158893628,-2.922,2.664,0.862,134.260,-347.690,269.290
158893653,-2.758,2.649,0.191,14.210,-301.210,326.970
158893669,-2.501,1.949,-0.000,-15.610,-264.670,358.960
158893693,-2.312,1.502,-0.225,-57.890,-240.030,394.310
158893713,-2.048,1.388,-0.224,-115.850,-237.020,411.110
158893733,-2.008,0.835,-0.307,-111.790,-245.280,422.730
158893757,-1.909,0.765,-0.374,-29.820,-236.810,438.830
158893776,-2.048,1.323,-0.215,-79.170,-227.920,445.620
158893793,-2.212,1.469,-0.329,-190.470,-248.220,435.400
158893812,-2.150,0.772,-0.457,-181.090,-261.520,428.470
158893837,-2.024,1.040,-0.282,-115.290,-245.070,421.400
158893857,-2.182,1.469,-0.199,-185.570,-247.520,403.130
158893874,-2.202,1.289,-0.247,-241.780,-257.740,387.590
158893894,-2.080,0.898,-0.126,-198.030,-264.460,380.730
158893916,-1.902,0.899,0.134,-107.310,-253.050,375.550
158893933,-1.790,0.831,0.022,-114.940,-262.850,369.320
158893953,-1.442,0.410,-0.042,-183.260,-299.530,357.210
158893977,-1.385,-1.178,-0.505,-141.680,-319.830,314.650
158893998,-0.673,-2.737,-1.336,-33.600,-324.590,271.390
158894016,-0.074,-3.500,-1.997,-10.640,-287.630,200.550
158894039,0.198,-3.989,-2.098,-9.660,-176.750,91.630
158894060,0.102,-4.799,-2.305,48.090,-46.060,8.750
158894079,-0.254,-4.311,-2.085,24.990,43.960,-62.370
158894099,-0.310,-3.624,-1.566,-26.390,137.760,-149.100
158894118,-0.630,-2.887,-1.021,-28.210,215.530,-231.420
158894143,-1.119,-1.774,-0.577,22.540,302.330,-310.730
158894163,-1.597,-0.583,-0.121,49.560,376.460,-369.110
158894183,-2.198,0.630,0.023,46.340,342.020,-411.320
158894203,-2.427,1.073,-0.183,10.430,352.590,-439.040
158894223,-2.508,1.122,-0.277,23.590,370.790,-439.320
158894244,-2.620,1.384,-0.400,77.210,401.940,-426.510
158894264,-2.603,1.710,-0.554,32.410,394.660,-416.360
158894288,-2.422,1.470,-0.552,-6.510,412.930,-388.500
158894312,-2.416,1.133,-0.448,76.930,446.110,-361.620
158894332,-2.558,1.514,-0.401,108.570,464.030,-341.530
158894356,-2.623,1.638,-0.457,44.170,445.130,-306.320
158894376,-2.481,1.543,-0.314,61.530,458.010,-255.990
158894395,-2.561,1.306,-0.147,143.150,484.050,-233.030
158894411,-2.837,1.318,-0.083,217.910,496.300,-231.490
158894431,-3.416,1.702,0.339,340.690,470.330,-242.760
158894456,-3.663,2.089,0.999,334.670,353.290,-264.180
158894476,-3.646,2.704,2.141,272.020,268.240,-251.020
158894494,-3.664,3.942,3.302,144.550,171.360,-220.640
158894516,-3.524,4.806,5.002,-44.240,57.610,-139.790
158894537,-3.477,4.197,5.165,-41.230,-73.360,13.790
158894561,-2.849,2.943,2.789,-28.350,-298.760,110.390
158894580,-2.505,2.821,1.834,50.820,-351.120,181.720
158894604,-2.834,2.659,0.935,103.530,-351.190,288.680
158894623,-2.665,2.724,0.039,68.670,-310.240,369.320
158894644,-2.611,2.419,-0.101,-15.050,-266.770,422.380
158894662,-2.267,1.694,-0.264,-59.290,-234.710,453.390
158894686,-2.159,1.494,-0.271,-80.500,-211.750,485.590
158894706,-2.281,1.498,-0.394,-141.120,-208.040,503.440
158894726,-2.513,1.318,-0.511,-184.030,-231.490,506.520
158894744,-2.583,1.210,-0.537,-157.640,-230.860,511.350
158894765,-2.654,1.390,-0.445,-149.660,-235.970,504.910
158894789,-2.725,1.651,-0.422,-213.290,-240.450,492.520
158894807,-2.861,1.725,-0.407,-289.380,-260.610,470.680
158894831,-2.921,1.389,-0.231,-282.240,-285.950,451.710
158894850,-2.754,1.521,-0.037,-281.750,-296.100,434.560
158894869,-2.487,1.013,-0.090,-278.110,-312.970,414.680
158894894,-2.306,0.428,-0.041,-253.260,-332.990,381.920
158894914,-2.569,-0.293,-0.547,-287.140,-377.930,328.650
158894934,-2.097,-2.052,-2.446,-273.840,-434.980,244.230
158894950,-0.155,-3.875,-2.508,-135.170,-342.790,195.650
158894974,-0.586,-4.225,-3.009,-54.040,-190.050,36.960
158894993,-0.437,-4.270,-3.419,71.400,-69.860,-52.360
158895010,-0.163,-3.441,-2.826,90.160,42.700,-122.640
158895032,-0.193,-2.783,-2.176,67.900,160.020,-190.890
158895056,-0.549,-2.126,-1.573,105.770,255.850,-241.990
158895076,-0.840,-1.259,-1.117,94.150,318.220,-302.750
158895100,-1.045,-0.624,-0.539,48.440,387.170,-378.070
158895119,-1.513,0.044,-0.192,36.190,442.190,-413.700
158895139,-1.295,0.469,-0.768,169.680,567.280,-419.580
158895162,-3.352,1.689,-0.432,197.260,428.120,-478.310
158895182,-3.065,1.943,-0.372,175.210,423.500,-481.040
158895200,-2.833,2.058,-0.201,53.760,411.460,-469.210
158895224,-2.562,1.573,-0.323,3.290,425.740,-404.530
158895243,-2.531,1.341,-0.534,43.750,447.160,-362.530
158895262,-2.550,1.396,-0.504,88.760,446.810,-337.820
158895286,-2.272,1.349,-0.336,72.590,439.880,-315.910
158895301,-2.358,1.444,-0.162,60.970,446.740,-295.680
158895326,-2.370,1.151,-0.235,95.200,440.160,-234.640
158895346,-2.288,1.350,-0.003,134.610,440.370,-188.650
158895365,-2.585,1.403,0.806,145.320,424.340,-176.400
158895385,-2.908,1.388,1.103,184.520,352.870,-166.600
158895406,-2.714,1.350,1.357,295.190,251.370,-145.320
158895430,-2.990,3.628,3.369,201.250,136.010,-137.550
158895450,-3.523,4.494,5.517,12.880,61.320,-87.780
158895469,-3.572,3.610,4.772,-104.790,-27.440,6.580
158895488,-3.112,2.422,2.560,-90.300,-243.740,63.490
158895512,-2.845,2.562,2.008,78.050,-326.620,125.300
158895529,-3.185,2.641,1.268,93.590,-348.460,179.270
158895552,-3.016,2.197,0.116,153.930,-350.140,278.880
158895572,-2.621,2.307,-0.090,172.690,-279.510,365.960
158895591,-2.388,2.185,-0.120,68.250,-229.600,406.490
158895616,-2.213,1.755,-0.130,-91.070,-207.970,424.690
158895636,-1.982,0.880,-0.318,-63.980,-203.560,457.100
158895651,-1.896,0.996,-0.204,-47.670,-193.130,483.700
158895676,-2.033,1.106,-0.304,-54.320,-182.350,479.780
158895695,-2.120,1.307,-0.298,-134.680,-181.790,481.460
158895716,-2.200,1.233,-0.287,-214.970,-196.560,478.310
158895738,-2.255,1.203,-0.325,-228.970,-210.000,475.440
158895755,-2.373,1.324,-0.279,-234.290,-220.990,465.640
158895778,-2.547,1.561,-0.259,-284.130,-245.700,443.800
158895802,-2.555,1.551,-0.190,-341.250,-276.570,422.240
158895822,-2.455,1.165,-0.063,-325.500,-300.370,411.110
158895842,-2.190,0.670,-0.082,-285.040,-321.790,393.540
158895859,-1.945,0.161,-0.299,-231.840,-340.550,381.780
158895879,-1.844,-0.587,-0.775,-262.220,-364.630,322.980
158895903,-1.314,-2.516,-2.324,-238.980,-423.710,222.740
158895921,-0.097,-4.047,-3.154,-3.640,-287.070,187.740
158895942,0.216,-4.114,-2.868,56.350,-120.540,41.650
158895959,-0.325,-4.535,-2.952,64.400,-5.110,-69.650
158895978,-0.572,-4.277,-2.778,147.280,98.560,-154.910
158895998,-0.773,-3.054,-1.722,149.170,173.250,-224.910
158896022,-0.915,-2.225,-1.139,90.930,248.430,-315.420
158896043,-1.215,-1.335,-0.787,79.030,313.810,-383.670
158896063,-1.503,-0.371,-0.389,71.890,374.570,-435.330
158896083,-2.254,0.430,-0.230,50.890,393.540,-482.790
158896103,-2.601,0.966,0.239,117.250,416.080,-488.180
158896127,-3.219,0.922,-0.330,134.190,392.560,-504.070
158896147,-3.352,1.831,-0.390,156.310,397.180,-484.120
158896167,-2.945,1.919,-0.261,43.260,351.330,-450.240
158896187,-2.402,1.452,-0.485,-23.870,362.810,-407.050
158896210,-2.377,0.940,-0.490,78.120,381.150,-379.610
158896228,-2.452,1.042,-0.356,158.060,379.400,-377.650
158896252,-2.444,1.223,-0.325,172.480,357.910,-381.360
158896272,-2.286,1.378,-0.374,132.160,338.310,-363.930
158896292,-2.364,1.363,-0.187,111.790,335.790,-331.030
158896312,-2.420,1.385,0.036,128.380,340.620,-283.570
158896336,-2.495,1.807,0.169,148.400,333.620,-247.940
158896356,-2.708,1.802,0.559,179.690,306.740,-239.610
158896379,-3.089,3.033,1.623,217.350,253.260,-218.890
158896401,-3.051,4.655,3.569,16.660,130.830,-196.140
158896418,-3.052,4.717,4.334,-109.900,33.180,-89.250
158896438,-3.487,4.276,4.070,-108.150,-82.320,31.150
158896458,-3.369,2.967,3.032,-50.260,-248.780,127.890
158896482,-3.024,2.776,1.756,75.670,-331.240,219.240
158896502,-2.901,2.406,0.526,124.180,-343.700,303.800
158896518,-2.509,2.456,0.128,106.470,-302.750,353.290
158896543,-2.525,2.335,-0.027,-14.070,-240.520,402.640
158896563,-2.348,1.893,-0.222,-130.760,-196.140,431.340
158896583,-2.257,1.369,-0.415,-158.690,-189.770,457.310
158896607,-2.175,1.008,-0.524,-75.740,-195.650,495.320
158896627,-2.185,1.287,-0.363,-74.200,-190.890,504.070
158896642,-2.289,1.462,-0.415,-144.690,-193.830,503.650
158896665,-2.295,1.032,-0.543,-158.620,-212.800,500.080
158896682,-2.257,1.017,-0.410,-70.700,-209.160,503.510
158896705,-2.395,1.602,-0.140,-129.780,-199.920,495.670
158896729,-2.486,1.590,-0.234,-259.490,-216.230,465.780
158896749,-2.512,1.089,-0.295,-266.630,-238.000,447.440
158896768,-2.471,1.106,-0.026,-190.190,-244.090,437.780
158896789,-2.420,1.143,0.039,-242.270,-263.130,420.350
158896808,-2.251,0.534,0.101,-315.910,-303.730,383.110
158896827,-2.603,-1.038,-0.660,-347.060,-317.380,320.600
158896851,-1.549,-3.521,-2.638,-176.820,-417.760,237.930
158896872,-0.199,-3.808,-2.364,-189.910,-240.590,106.470
158896890,-0.250,-4.973,-3.087,-173.180,-125.650,-46.410
158896911,-0.610,-5.089,-3.522,94.780,25.550,-141.960
158896932,-0.281,-3.431,-2.523,113.820,105.420,-213.500
158896956,-0.264,-2.495,-1.858,50.890,202.020,-287.700
158896976,-0.821,-1.745,-1.091,82.670,313.950,-326.690
158896994,-1.377,-0.804,-0.678,91.070,396.270,-362.810
158897011,-1.972,0.343,-0.157,51.590,423.220,-419.440
158897031,-2.911,0.485,0.190,94.850,507.640,-443.800
158897056,-3.248,1.158,0.062,86.730,468.510,-496.930
158897076,-3.427,1.790,-0.178,127.820,450.520,-497.000
158897096,-3.316,2.073,-0.217,120.680,425.250,-471.380
158897114,-2.944,1.901,-0.285,125.230,399.070,-433.300
158897136,-2.705,1.834,-0.315,110.600,379.610,-401.380
158897156,-2.375,1.396,-0.383,140.980,376.460,-385.700
158897176,-2.228,1.392,-0.450,168.910,375.760,-375.130
158897196,-2.281,1.380,-0.419,191.730,364.630,-352.870
158897216,-2.163,1.580,-0.328,188.160,348.040,-323.400
158897236,-1.995,1.570,0.020,187.320,359.240,-282.310
158897256,-2.152,1.853,0.239,173.670,327.950,-254.730
158897276,-1.945,1.345,-0.032,220.920,308.070,-232.120
158897295,-2.360,2.397,1.036,282.660,249.900,-221.830
158897316,-2.338,3.468,2.196,96.460,161.630,-215.810
158897336,-2.660,4.397,2.694,-31.920,80.850,-163.870
158897356,-3.340,4.620,4.018,-92.330,-18.480,-34.370
158897376,-3.728,4.139,3.630,-77.490,-121.100,98.350
158897395,-3.312,3.235,2.237,-41.230,-261.520,178.500
158897415,-3.391,3.041,1.382,42.070,-345.310,212.310
158897436,-3.096,2.644,0.546,153.720,-349.930,297.220
158897460,-2.766,2.853,0.133,128.660,-273.490,392.420
158897475,-2.604,2.564,-0.198,-72.450,-227.500,410.200
158897499,-2.399,1.692,-0.563,-234.640,-219.030,410.830
158897523,-2.174,0.881,-0.595,-153.580,-214.760,436.800
158897543,-2.145,0.901,-0.456,-37.870,-203.000,457.520
158897562,-2.206,1.168,-0.408,-36.890,-199.500,466.760
158897582,-2.279,1.300,-0.551,-103.670,-209.510,470.680
158897606,-2.233,0.953,-0.504,-101.290,-219.380,474.180
158897621,-2.227,1.065,-0.333,-54.670,-206.150,477.890
158897646,-2.318,1.637,-0.277,-110.040,-189.420,471.730
158897665,-2.598,1.596,-0.282,-278.320,-212.030,459.620
158897686,-2.685,1.154,-0.180,-304.780,-235.970,451.500
158897703,-2.548,1.106,-0.025,-239.540,-238.910,445.480
158897726,-2.358,0.789,0.006,-185.220,-250.880,432.670
158897747,-2.233,0.688,0.297,-248.430,-261.100,400.680
158897766,-2.566,-0.515,-0.282,-321.650,-311.220,339.150
158897787,-1.601,-3.069,-2.386,-185.430,-383.390,283.360
158897807,-0.226,-3.749,-2.149,-93.100,-236.880,237.930
158897825,-0.424,-4.346,-2.644,-155.400,-187.460,82.740
158897844,-0.178,-5.151,-3.311,49.000,-54.320,-29.400
158897869,-0.217,-4.226,-2.728,179.130,53.340,-145.460
158897893,-0.162,-3.246,-1.912,113.120,146.230,-266.210
158897913,-0.456,-2.491,-1.229,94.290,231.000,-330.260
158897933,-0.918,-1.588,-0.820,124.810,300.440,-405.370
158897952,-1.473,-0.355,-0.372,129.640,339.290,-465.220
158897976,-2.126,0.262,-0.497,148.540,359.380,-525.910
158897996,-3.816,1.428,-0.407,151.900,341.530,-560.980
158898016,-3.075,1.575,-0.204,99.680,331.100,-540.960
158898036,-3.045,1.882,-0.284,5.810,317.660,-510.650
158898056,-2.696,1.524,-0.517,-14.910,339.150,-470.050
158898075,-2.702,1.206,-0.596,27.580,348.600,-435.680
158898092,-2.494,0.987,-0.580,96.390,358.190,-408.450
158898115,-2.379,1.062,-0.657,143.710,353.500,-383.040
158898139,-2.289,1.017,-0.617,155.050,340.620,-379.470
158898159,-2.298,1.050,-0.334,143.640,327.460,-379.890
158898177,-2.246,1.142,-0.248,136.710,320.110,-369.880
158898201,-2.116,1.267,-0.224,116.900,314.370,-338.030
158898221,-2.358,1.502,0.240,131.110,297.780,-311.920
158898240,-2.859,1.862,0.331,154.000,256.340,-288.960
158898260,-3.049,2.870,1.053,170.660,188.440,-270.970
158898280,-2.835,3.968,2.384,81.550,141.400,-236.670
158898299,-2.546,5.334,3.400,-65.800,59.850,-147.560
158898321,-2.898,4.744,4.394,-103.740,-16.380,0.280
158898340,-3.621,4.114,2.896,-69.790,-129.640,152.670
158898365,-2.920,3.216,1.890,114.870,-275.030,255.920
158898383,-3.027,2.806,0.895,164.220,-312.760,333.760
158898407,-2.884,2.741,0.074,232.400,-292.740,430.500
158898427,-2.880,2.827,-0.256,122.850,-199.500,464.660
158898446,-2.658,2.134,-0.600,-105.490,-152.250,470.190
158898467,-2.063,1.246,-0.466,-93.310,-118.650,485.030
158898487,-1.979,1.094,-0.373,-69.720,-99.260,496.790
158898503,-1.918,1.032,-0.427,-66.710,-97.300,501.900
158898523,-2.037,1.146,-0.480,-101.780,-106.890,501.900
158898547,-2.081,1.070,-0.474,-133.560,-114.730,497.910
158898566,-1.990,0.907,-0.475,-115.780,-111.860,497.490
158898588,-2.110,1.362,-0.421,-135.240,-91.280,488.950
158898607,-2.167,1.349,-0.372,-211.540,-103.950,474.880
158898624,-2.217,1.456,-0.370,-277.690,-114.730,464.170
158898648,-2.403,1.319,-0.342,-299.740,-140.980,441.280
158898668,-2.370,1.403,-0.085,-284.550,-174.300,420.070
158898688,-2.266,0.967,-0.017,-285.110,-212.240,408.800
158898705,-2.202,0.488,-0.002,-277.270,-238.630,399.070
158898728,-2.416,-0.593,-0.354,-262.500,-281.470,367.640
158898747,-1.936,-1.974,-1.479,-248.430,-315.280,329.000
158898771,-0.487,-4.378,-2.683,-186.830,-327.740,231.490
158898790,-0.214,-4.796,-3.071,-237.090,-142.030,55.090
158898810,-0.518,-5.609,-3.184,19.740,27.020,-88.690
158898834,-0.788,-4.133,-2.638,153.300,148.610,-240.030
158898853,-0.973,-2.983,-1.769,200.410,216.930,-310.380
158898877,-1.242,-1.942,-0.962,157.710,251.790,-402.710
158898897,-1.394,-1.062,-0.534,97.790,307.300,-475.440
158898915,-1.640,-0.196,-0.283,74.270,390.110,-532.700
158898937,-2.769,0.718,-0.459,93.310,424.900,-585.830
158898961,-3.776,1.813,-0.417,88.760,452.270,-629.580
158898981,-3.476,1.982,-0.097,36.400,416.640,-616.980
158899001,-3.667,2.425,-0.032,-69.090,410.620,-577.360
158899020,-3.213,2.252,-0.179,-106.050,426.860,-494.970
158899041,-2.858,1.577,-0.417,-53.620,434.910,-387.450
158899060,-2.608,1.545,-0.295,-9.520,427.280,-311.920
158899084,-2.358,1.328,-0.150,25.620,424.130,-250.670
158899101,-2.169,1.305,0.081,28.630,419.790,-229.950
158899122,-1.892,1.001,0.113,57.610,400.960,-198.240
158899146,-1.691,1.174,0.163,133.350,400.120,-173.110
158899165,-1.980,1.455,0.948,125.020,385.280,-164.080
158899189,-1.965,1.174,1.032,160.650,315.840,-138.880
158899209,-2.131,2.034,1.234,246.120,273.140,-129.220
158899227,-2.635,3.006,2.304,179.760,211.960,-131.950
158899251,-2.838,3.544,3.405,31.920,123.270,-85.750
158899269,-3.266,3.803,3.935,-42.700,57.400,-8.750
158899291,-3.708,2.836,2.766,-169.540,-151.340,68.110
158899310,-2.837,1.704,2.155,-15.960,-273.840,99.960
158899333,-3.127,2.333,1.463,142.100,-332.780,158.690
158899357,-3.281,2.540,0.562,149.660,-360.780,255.360
158899375,-2.890,2.603,0.087,50.330,-332.710,306.110
158899399,-2.399,1.530,-0.290,0.700,-294.280,351.680
158899417,-1.765,1.411,-0.107,9.730,-236.320,376.110
158899441,-1.657,1.193,-0.133,-10.780,-185.430,412.860
158899461,-1.684,1.220,-0.314,-80.290,-173.180,427.980
158899479,-1.742,1.022,-0.452,-130.340,-180.460,434.280
158899503,-1.813,0.888,-0.447,-142.730,-189.280,434.140
158899519,-1.827,0.932,-0.401,-125.090,-187.810,434.560
158899538,-1.914,1.154,-0.406,-125.370,-189.070,438.480
158899561,-2.058,1.177,-0.392,-163.730,-196.700,438.200
158899585,-2.111,1.256,-0.319,-200.270,-209.440,437.360
158899605,-2.263,1.381,-0.116,-243.180,-223.510,426.370
158899629,-2.305,1.373,-0.098,-277.340,-248.080,414.960
158899649,-2.284,1.061,-0.163,-288.610,-278.110,398.230
158899673,-2.006,0.617,0.044,-238.000,-299.040,386.260
158899691,-1.867,0.287,0.145,-214.410,-307.090,366.870
158899713,-1.721,-0.657,-0.308,-178.990,-337.680,327.670
158899733,-1.789,-2.054,-1.871,-195.650,-402.990,252.280
158899755,0.048,-4.446,-3.062,26.740,-347.060,223.020
158899779,0.499,-4.006,-2.745,-11.270,-200.200,35.490
158899799,0.225,-4.924,-2.524,59.010,-47.320,-86.520
158899816,-0.136,-4.869,-2.611,167.650,62.510,-165.410
158899840,-0.372,-3.785,-1.936,239.610,173.950,-247.310
158899860,-0.615,-2.259,-0.767,152.460,198.800,-318.780
158899879,-0.692,-1.491,-0.352,53.760,219.240,-370.510
158899904,-0.850,-0.837,-0.025,32.060,266.420,-418.530
158899924,-1.729,-0.010,-0.046,59.990,250.600,-461.370
158899943,-2.080,0.684,-0.108,51.940,221.620,-520.100
158899963,-1.600,1.121,0.464,45.360,302.190,-498.470
158899987,-2.378,1.380,-0.066,73.080,211.190,-525.000
158900004,-2.237,1.492,-0.191,17.150,213.920,-514.290
158900025,-1.982,1.422,-0.277,-65.870,218.960,-484.190
158900049,-1.875,1.347,-0.272,-119.070,255.570,-430.080
158900067,-1.802,1.099,-0.275,-112.350,276.710,-391.650
158900089,-1.704,0.953,-0.280,-100.450,292.530,-329.140
158900105,-1.564,0.976,-0.263,-93.030,311.360,-292.810
158900124,-1.479,0.927,-0.289,-100.590,331.450,-250.390
158900149,-1.403,0.682,-0.197,-75.460,366.730,-212.940
158900165,-1.481,0.794,-0.149,-65.310,390.180,-186.130
158900184,-1.784,0.592,0.191,-34.230,440.860,-168.840
158900205,-2.585,1.251,1.083,19.740,425.180,-158.480
158900226,-2.505,1.176,0.587,-26.670,361.970,-162.470
158900246,-2.896,1.168,1.058,39.340,361.690,-150.570
158900265,-3.418,2.339,1.976,-43.680,335.440,-150.850
158900285,-3.294,1.950,1.663,-153.370,241.150,-112.000
158900305,-2.775,1.366,1.759,-133.980,191.170,-64.050
158900330,-2.354,1.030,1.965,-99.890,121.870,-14.350
158900348,-1.690,0.863,1.973,-84.280,86.170,17.010
158900372,-1.176,0.338,1.541,-86.310,36.050,36.400
158900390,-0.662,0.124,0.970,-47.880,16.030,38.990
158900413,-0.724,0.211,0.581,-72.100,0.700,19.320
158900436,-0.897,-0.005,0.293,-94.220,-11.900,13.930
158900457,-0.743,-0.306,-0.148,-65.800,-7.910,20.370
158900478,-0.728,-0.132,-0.257,-44.940,10.150,11.830
158900496,-0.823,-0.102,-0.383,-54.600,15.050,-7.980
158900517,-0.772,-0.195,-0.441,-33.810,21.000,-23.660
158900537,-0.964,0.056,-0.337,-21.980,22.820,-38.150
158900557,-1.020,0.194,-0.292,-20.090,21.280,-51.590
158900576,-1.137,0.326,-0.234,-13.230,17.220,-58.030
158900597,-1.144,0.402,-0.209,-7.350,17.430,-52.710
158900614,-1.090,0.465,-0.111,3.920,18.620,-41.370
158900633,-1.024,0.475,0.058,25.270,23.590,-18.480
158900658,-0.912,0.470,0.125,51.870,30.520,9.030
158900678,-0.869,0.530,0.100,53.760,37.450,18.200
158900695,-0.872,0.529,0.172,41.860,36.750,19.810
158900718,-0.985,0.571,0.269,-5.250,21.490,6.510
158900736,-1.024,0.482,0.377,-30.590,5.950,-5.390
158900760,-1.007,0.360,0.244,-36.610,-3.220,-11.060
158900780,-0.944,0.383,0.153,-26.110,-6.090,-9.520
158900800,-0.988,0.504,0.087,-46.200,-8.260,-10.150
158900824,-0.970,0.574,0.028,-81.550,-10.710,-4.970
158900840,-1.118,0.519,0.088,-94.710,-23.520,5.600
158900864,-1.126,0.350,0.292,-76.650,-50.260,24.430
158900885,-0.951,0.224,0.339,-2.730,-83.370,41.020
158900903,-1.107,0.727,0.564,-4.830,-94.920,56.770
158900927,-1.320,0.789,0.699,-70.910,-140.840,61.180
158900947,-1.173,0.362,0.731,-23.030,-178.500,81.340
158900962,-1.060,0.616,0.856,57.470,-175.770,105.210
158900987,-1.181,1.272,1.215,23.310,-171.850,131.250
158901007,-1.400,1.313,1.190,-99.050,-211.890,139.020
158901027,-1.095,0.766,1.014,-33.530,-230.370,163.730
158901046,-1.148,1.239,1.173,10.570,-236.740,173.670
158901069,-1.163,1.479,1.396,-63.630,-256.620,178.080
158901093,-1.166,1.261,1.279,-85.680,-263.620,193.060
158901117,-1.226,1.190,1.175,-47.250,-271.320,205.170
158901137,-1.194,1.388,1.261,-43.540,-275.520,207.970
158901157,-1.256,1.208,1.395,-85.260,-287.630,202.440
158901176,-1.070,1.194,0.943,-65.310,-281.400,209.440
158901201,-0.947,1.188,0.918,-56.770,-264.110,203.770
158901216,-0.948,1.067,0.899,-57.750,-252.840,199.360
158901241,-0.864,1.009,0.609,-60.830,-243.110,190.610
158901261,-0.732,0.876,0.544,-73.220,-240.030,176.540
158901279,-0.543,0.786,0.626,-79.030,-226.870,166.250
158901303,-0.440,0.522,0.465,-77.210,-220.850,143.080
158901322,-0.306,0.346,0.418,-35.910,-205.450,129.850
158901342,-0.259,0.408,0.494,-8.610,-192.990,113.890
158901364,-0.195,0.211,0.288,0.980,-185.920,100.800
158901383,0.095,0.355,0.270,4.550,-181.720,100.450
158901401,0.102,0.352,0.261,-46.270,-163.310,87.290
158901422,0.114,0.088,0.163,-86.800,-166.180,67.970
158901442,0.365,0.036,0.201,-92.120,-156.870,51.590
158901466,0.478,0.011,0.173,-79.030,-140.350,32.620
158901483,0.381,-0.098,0.128,-52.010,-132.510,23.030
158901505,0.473,-0.108,0.168,-25.200,-135.170,12.040
158901524,0.560,-0.013,0.167,-31.500,-139.650,-2.170
158901549,0.568,-0.059,0.037,-20.160,-141.750,-19.670
158901569,0.522,-0.091,-0.077,5.180,-139.160,-29.820
158901584,0.608,-0.112,-0.147,61.320,-133.000,-18.550
158901604,0.752,0.089,-0.223,88.270,-113.260,-1.540
158901624,0.794,0.244,-0.269,30.380,-91.770,7.840
158901649,0.814,0.006,-0.326,-3.220,-65.660,32.970
158901669,0.813,0.055,-0.244,-31.640,-51.450,36.680
158901693,0.829,-0.107,-0.281,-61.180,-41.020,30.590
158901709,0.874,-0.215,-0.269,-48.370,-34.090,27.860
158901729,0.768,-0.288,-0.211,-31.990,-35.700,17.150
158901753,0.930,-0.255,-0.196,-5.670,-37.310,7.490
158901770,1.027,-0.174,-0.164,18.410,-32.340,8.750
158901788,0.925,-0.015,-0.192,1.330,-34.370,0.630
158901813,0.994,0.018,-0.159,1.190,-34.790,2.940
158901829,1.006,0.021,-0.193,7.350,-22.820,11.200
158901850,0.868,0.160,-0.378,4.830,-21.000,7.140
158901870,0.971,0.131,-0.238,6.370,-13.090,9.450
158901894,0.999,0.144,-0.202,-2.100,-3.360,18.900
158901913,0.899,0.120,-0.405,-1.400,0.770,17.150
158901934,1.018,0.180,-0.203,-20.860,10.780,17.220
158901954,0.997,0.005,-0.181,-34.160,16.660,17.780
158901972,0.910,-0.127,-0.273,-22.050,15.120,10.710
158901994,0.972,-0.107,-0.126,-4.970,17.220,5.390
158902013,0.926,-0.131,-0.150,-26.460,19.740,2.240
158902038,0.890,-0.180,-0.154,-35.140,18.900,0.980
158902056,0.867,-0.265,-0.191,-20.580,18.130,1.330
158902079,0.793,-0.257,-0.203,5.740,18.900,6.860
158902098,0.693,-0.215,-0.203,31.570,15.960,15.680
158902121,0.622,-0.164,-0.161,74.690,14.280,37.800
158902137,0.538,-0.295,-0.279,112.280,18.760,52.430
158902157,0.947,-0.386,-0.428,130.620,30.100,54.530
158902182,0.765,0.034,-0.289,78.750,55.720,29.050
158902197,0.797,-0.084,-0.260,23.170,70.630,9.730
158902217,0.718,-0.216,-0.307,-1.330,82.740,-3.640
158902237,0.617,-0.237,-0.347,12.810,102.270,-5.600
158902260,0.618,-0.067,-0.195,19.530,125.230,-12.040
158902281,0.417,0.045,-0.124,3.640,151.060,-15.120
158902302,0.349,0.012,-0.086,-8.330,164.360,-12.390
158902326,0.319,0.068,-0.018,-10.360,188.020,-8.260
158902346,0.164,0.064,0.034,-1.750,208.670,-10.920
158902365,0.026,-0.013,0.113,15.820,221.410,-16.940
158902389,0.096,-0.076,0.215,52.010,230.790,-32.690
158902408,0.169,0.106,0.365,63.210,247.240,-54.600
158902427,0.051,0.105,0.346,68.670,256.480,-83.510
158902449,-0.011,0.035,0.369,104.510,267.540,-115.850
158902467,-0.096,0.139,0.417,139.160,280.000,-139.790
158902491,-0.351,0.433,0.515,154.980,290.080,-184.730
158902509,-0.467,0.520,0.612,147.910,288.050,-213.010
158902528,-0.582,0.858,0.722,134.400,293.510,-234.780
158902553,-0.774,0.799,0.739,143.710,307.160,-249.060
158902572,-1.125,1.088,0.790,166.530,307.930,-247.660
158902591,-1.222,1.311,0.806,162.330,295.820,-249.340
158902613,-1.295,1.331,0.925,131.250,291.410,-255.780
158902635,-1.400,1.123,0.858,158.200,291.410,-251.020
158902656,-1.645,1.380,0.896,161.980,279.580,-253.400
158902676,-1.791,1.530,1.062,105.350,248.500,-252.070
158902699,-1.748,1.349,0.856,50.190,208.460,-227.570
158902719,-1.615,1.144,0.902,43.890,186.340,-196.000
158902739,-1.538,1.098,0.803,42.770,173.670,-156.520
158902759,-1.478,0.954,0.769,45.430,156.240,-121.660
158902779,-1.380,0.787,0.859,62.440,141.890,-98.630
158902803,-1.409,0.818,0.699,58.870,123.760,-88.340
158902819,-1.318,0.769,0.673,67.410,99.750,-81.550
158902841,-1.145,0.739,0.789,72.170,79.450,-71.190
158902863,-1.123,0.805,0.515,49.980,64.470,-56.490
158902887,-1.142,0.671,0.410,28.350,56.490,-40.110
158902906,-1.193,0.702,0.626,-1.190,50.120,-28.770
158902930,-1.134,0.587,0.589,-39.970,51.730,0.350
158902946,-1.076,0.392,0.699,-32.830,41.860,-3.430
158902969,-1.037,0.187,0.628,-28.630,10.920,-0.840
158902990,-0.855,0.003,0.500,-16.660,-6.860,-6.090
158903010,-0.925,0.268,0.124,6.860,-11.410,-0.700
158903033,-0.912,0.284,-0.150,14.490,-20.650,-5.810
158903052,-0.931,0.429,-0.199,-15.470,-23.800,-9.030
158903076,-0.942,0.404,-0.203,-22.610,-18.060,-6.090
158903095,-0.982,0.370,-0.121,-37.310,-11.970,-1.680
158903115,-0.979,0.274,-0.057,-36.960,-3.220,2.520
158903135,-0.988,0.203,-0.012,-18.760,6.300,9.520
158903159,-1.006,0.271,-0.010,-10.010,10.010,14.910
158903179,-0.982,0.291,0.010,-18.690,11.410,16.590
158903197,-0.976,0.267,0.043,-36.050,7.490,12.810
158903221,-0.948,0.112,0.075,-34.790,2.030,9.030
158903241,-0.955,0.151,0.139,-29.050,-1.050,10.080
158903259,-0.949,0.238,0.141,-31.570,-3.430,13.510
158903283,-0.975,0.323,0.101,-37.310,-5.460,20.650
158903303,-0.894,0.310,0.153,-16.730,-6.860,26.950
158903321,-0.944,0.360,0.207,11.200,-5.250,34.860
158903343,-1.038,0.665,0.278,6.650,-16.870,45.850
158903363,-1.116,0.549,0.320,1.190,-38.710,51.520
158903381,-1.071,0.613,0.409,18.340,-55.440,58.940
158903405,-1.079,0.669,0.558,29.330,-72.450,78.890
158903425,-1.140,0.782,0.616,29.190,-104.020,96.530
158903442,-1.188,0.771,0.590,38.080,-120.120,112.700
158903466,-1.193,0.805,0.682,63.000,-155.540,141.050
158903486,-1.115,0.935,0.816,78.120,-168.560,165.410
158903504,-1.126,1.001,0.823,67.830,-177.800,180.530
158903528,-1.080,1.299,0.833,36.260,-185.780,200.200
158903546,-1.116,1.438,0.907,-41.860,-197.540,216.020
158903568,-1.139,1.301,0.861,-106.540,-199.920,227.570
158903588,-1.065,1.377,0.841,-115.640,-231.980,237.160
158903607,-0.962,1.228,0.948,-117.460,-238.700,230.580
158903632,-0.783,1.042,0.896,-46.900,-234.150,235.760
158903651,-0.754,1.316,0.911,-48.720,-233.800,235.270
158903670,-0.684,1.364,0.915,-75.180,-233.520,235.760
158903694,-0.558,1.200,0.715,-93.590,-230.790,229.250
158903714,-0.436,1.110,0.805,-93.380,-222.670,220.780
158903738,-0.365,1.136,0.801,-86.170,-215.390,212.870
158903754,-0.280,1.150,0.706,-103.950,-207.200,206.010
158903775,-0.177,1.025,0.614,-121.240,-199.430,197.540
158903795,-0.085,0.975,0.626,-135.870,-192.360,183.960
158903819,0.057,0.753,0.632,-139.860,-188.020,166.390
158903839,0.190,0.635,0.617,-114.800,-175.350,149.870
158903858,0.099,0.529,0.541,-100.800,-167.790,127.050
158903882,0.156,0.376,0.405,-83.790,-164.500,102.620
158903902,0.300,0.354,0.413,-88.200,-150.430,86.730
158903920,0.193,0.397,0.325,-104.650,-141.820,74.060
158903937,0.203,0.286,0.206,-113.960,-137.060,61.390
158903962,0.241,0.085,0.202,-85.820,-128.310,46.830
158903980,0.236,0.065,0.217,-62.020,-124.460,37.800
158904004,0.312,-0.064,0.119,-20.650,-125.090,29.890
158904024,0.488,-0.074,0.126,-3.710,-120.680,25.970
158904044,0.631,0.070,0.177,-29.260,-116.900,18.900
158904062,0.562,-0.019,0.070,-47.460,-107.030,8.400
158904084,0.582,-0.131,0.026,-35.000,-99.750,-1.890
158904104,0.647,-0.105,0.018,-14.910,-102.130,-6.230
158904128,0.570,-0.080,-0.065,-28.210,-98.140,-16.520
158904148,0.613,-0.236,-0.207,2.380,-96.250,-15.470
158904163,0.713,-0.081,-0.232,28.070,-86.030,-11.200
158904186,0.752,-0.055,-0.271,35.210,-73.150,-4.760
158904204,0.752,-0.015,-0.237,14.280,-54.600,2.380
158904227,0.880,-0.060,-0.241,-17.010,-48.440,5.320
158904245,0.909,-0.117,-0.257,-34.510,-40.180,2.940
158904269,0.880,-0.266,-0.220,-19.180,-33.110,-0.630
158904289,0.831,-0.233,-0.235,4.620,-24.500,4.410
158904309,0.745,-0.139,-0.270,6.370,-26.530,6.580
158904333,0.838,-0.163,-0.272,-15.190,-24.220,13.160
158904353,0.779,-0.268,-0.236,-4.690,-14.210,21.140
158904373,0.801,-0.264,-0.296,18.410,-14.840,24.850
158904391,0.903,-0.301,-0.325,30.310,-13.090,14.000
158904415,0.902,-0.183,-0.230,19.600,-6.370,-3.010
158904431,0.947,-0.221,-0.249,19.180,-5.460,-10.430
158904455,1.083,-0.124,-0.274,48.020,-2.520,-18.760
158904475,1.075,0.115,-0.223,45.990,2.310,-28.490
158904493,1.149,0.220,-0.109,36.330,11.550,-30.800
158904515,1.102,0.219,-0.054,20.720,17.150,-23.800
158904539,1.081,0.251,-0.038,-2.870,15.470,-19.460
158904559,1.048,0.141,-0.079,-2.800,11.340,-19.810
158904579,1.022,0.130,-0.017,13.300,11.830,-15.190
158904599,0.991,0.159,-0.026,11.550,7.630,-9.240
158904618,0.935,0.095,-0.061,5.250,5.530,-7.070
158904638,0.905,0.029,-0.049,3.220,6.440,-4.900
158904663,0.908,-0.019,-0.056,-1.050,8.680,2.590
158904687,0.810,-0.094,-0.100,-5.460,12.530,9.730
158904707,0.719,-0.092,-0.118,3.780,19.950,23.730
158904726,0.564,-0.012,-0.154,20.860,26.180,40.880
158904745,0.509,0.084,-0.191,15.540,32.620,55.090
158904770,0.440,-0.067,-0.208,-3.920,41.230,66.430
158904790,0.469,-0.092,-0.161,-14.000,55.090,75.460
158904807,0.405,-0.160,-0.163,-18.060,62.020,76.230
158904831,0.425,-0.210,-0.116,-17.990,73.850,66.920
158904851,0.374,-0.307,-0.114,-12.530,82.810,51.590
158904871,0.574,-0.367,-0.105,0.700,94.990,35.280
158904890,0.555,-0.358,-0.143,21.420,108.220,12.180
158904909,0.401,-0.367,-0.088,52.570,121.660,-13.020
158904929,0.348,-0.295,-0.054,80.150,129.920,-41.720
158904954,0.520,-0.159,0.076,90.440,149.660,-82.390
158904972,0.416,-0.081,0.172,85.260,167.790,-113.540
158904992,0.332,-0.018,0.163,81.760,184.170,-150.990
158905016,0.285,0.020,0.177,74.900,197.470,-193.620
158905036,0.222,0.102,0.335,105.980,221.970,-229.880
158905053,0.091,0.325,0.400,98.210,232.120,-257.880
158905077,-0.033,0.559,0.568,92.260,247.030,-287.000
158905096,-0.149,0.867,0.621,91.840,255.150,-299.880
158905117,-0.184,1.029,0.669,92.540,273.490,-306.670
158905133,-0.361,1.122,0.880,98.910,285.530,-307.370
158905157,-0.557,1.244,0.847,90.020,296.450,-310.030
158905174,-0.630,1.347,0.725,81.830,304.570,-308.630
158905196,-1.069,1.552,0.971,79.520,316.050,-295.120
158905216,-1.081,1.479,0.879,73.710,310.730,-271.250
158905234,-1.202,1.510,0.911,60.060,306.950,-256.620
158905253,-1.252,1.495,1.048,33.740,294.910,-233.240
158905278,-1.177,1.413,0.772,-13.440,274.680,-202.300
158905296,-1.339,1.298,0.737,-67.480,264.740,-185.920
158905319,-1.380,1.120,0.627,-98.490,237.720,-154.350
158905338,-1.211,0.927,0.870,-122.500,229.880,-124.110
158905358,-1.383,0.563,1.200,-93.940,212.240,-93.310
158905382,-1.349,0.399,0.717,-18.480,149.730,-63.770
158905402,-1.101,0.268,0.409,64.050,130.620,-52.500
158905417,-1.139,0.524,0.535,85.400,120.750,-58.730
158905442,-1.175,0.639,0.630,70.280,97.790,-53.690
158905462,-1.233,0.598,0.603,40.950,82.460,-41.650
158905482,-1.200,0.579,0.540,20.930,65.800,-25.270
158905499,-1.189,0.472,0.684,12.740,61.530,-11.340
158905521,-1.438,0.381,1.639,9.660,-7.630,-0.350
158905543,-1.295,-0.154,0.672,2.380,-25.200,-4.410
158905563,-0.895,0.359,0.397,10.220,-10.710,-4.830
158905580,-1.038,0.420,0.116,-29.680,-14.000,-3.710
158905601,-0.935,0.321,-0.029,-21.980,-17.780,3.780
158905620,-0.829,0.296,-0.157,-20.930,-16.590,-0.210
158905644,-0.796,0.310,-0.189,1.120,-13.650,-0.420
158905660,-0.802,0.297,-0.125,6.440,-8.400,-1.960
158905685,-0.812,0.306,-0.078,16.310,2.730,-0.910
158905703,-0.903,0.432,-0.054,2.520,5.530,-2.170
158905722,-0.971,0.348,-0.027,-1.960,4.340,-1.540
158905747,-1.004,0.354,0.018,-5.040,5.950,0.630
158905767,-1.020,0.310,0.057,-8.050,6.370,3.080
158905787,-1.049,0.219,0.147,4.060,2.240,4.900
158905806,-1.008,0.138,0.237,23.450,-3.710,4.900
158905827,-0.976,0.212,0.284,38.710,-4.410,2.730
158905847,-0.939,0.364,0.276,34.020,-11.200,2.870
158905871,-0.961,0.500,0.305,21.980,-16.940,11.690
158905890,-1.017,0.539,0.361,7.210,-42.980,22.680
158905906,-1.030,0.499,0.423,17.220,-54.740,32.130
158905931,-1.054,0.656,0.526,21.140,-74.130,54.950
158905949,-1.128,0.680,0.538,29.330,-90.090,71.190
158905967,-1.121,0.763,0.616,34.790,-119.000,88.970
158905986,-1.115,0.745,0.731,58.240,-127.260,106.400
158906011,-1.049,0.935,0.780,71.610,-143.780,132.300
158906029,-1.057,1.202,0.898,42.910,-150.500,146.930
158906051,-1.084,1.204,0.891,-40.810,-176.190,158.340
158906071,-1.074,1.043,0.870,-59.360,-176.890,169.260
158906089,-1.157,1.115,0.835,-32.340,-195.230,186.130
158906113,-1.173,1.237,0.847,-36.330,-211.120,206.500
158906133,-1.194,1.287,0.826,-57.680,-224.980,221.200
158906149,-1.131,1.233,0.796,-65.520,-235.270,229.250
158906173,-1.035,1.190,0.806,-80.150,-241.080,231.280
158906192,-0.955,0.996,0.730,-53.130,-240.940,233.380
158906211,-0.758,1.017,0.692,-25.270,-240.310,235.270
158906236,-0.603,0.994,0.712,-44.940,-230.930,225.050
158906254,-0.464,0.958,0.672,-55.510,-223.090,216.790
158906277,-0.329,0.898,0.614,-69.580,-212.240,201.670
158906294,-0.262,0.850,0.615,-73.850,-204.680,190.820
158906318,-0.168,0.746,0.611,-65.870,-195.440,176.120
158906338,-0.086,0.655,0.602,-60.690,-189.280,164.010
158906358,-0.017,0.658,0.527,-71.190,-182.840,149.450
158906378,0.069,0.588,0.532,-83.440,-178.640,135.170
158906398,0.178,0.509,0.507,-88.690,-172.690,120.820
158906417,0.299,0.365,0.451,-63.070,-163.660,112.070
158906441,0.317,0.361,0.432,-46.340,-153.510,98.000
158906461,0.299,0.283,0.319,-25.970,-146.930,90.580
158906481,0.390,0.362,0.309,-40.600,-137.060,80.570
158906501,0.444,0.277,0.252,-55.650,-130.830,71.610
158906517,0.539,0.133,0.170,-47.600,-120.680,65.520
158906537,0.578,0.127,0.143,-28.770,-108.710,60.900
158906556,0.551,0.109,0.165,-25.480,-98.840,52.430
158906581,0.657,0.106,0.069,-17.780,-95.550,49.420
158906600,0.721,0.134,0.114,-31.430,-84.490,44.030
158906619,0.598,0.124,0.125,-47.670,-80.920,40.390
158906641,0.615,0.054,0.081,-60.900,-82.880,39.480
158906661,0.626,0.014,0.050,-49.000,-83.720,39.550
158906681,0.629,-0.004,0.070,-29.470,-81.620,39.480
158906701,0.638,0.111,0.118,-26.110,-87.640,43.190
158906725,0.750,0.137,0.102,-59.010,-101.570,47.250
158906743,0.885,0.002,0.089,-69.720,-95.340,49.140
158906765,1.004,-0.049,-0.076,-65.730,-98.140,39.620
158906785,1.124,-0.144,-0.076,-52.010,-90.720,28.630
158906809,1.117,-0.153,-0.142,-27.300,-76.580,18.760
158906829,0.943,-0.114,-0.237,-8.330,-64.750,13.650
158906852,0.839,-0.068,-0.345,0.700,-56.280,11.620
158906872,0.810,-0.077,-0.393,2.660,-45.150,10.920
158906893,0.758,-0.044,-0.382,-2.800,-33.670,8.400
158906913,0.717,-0.098,-0.411,-9.310,-26.180,8.890
158906930,0.709,-0.151,-0.449,-4.480,-19.600,10.780
158906950,0.769,-0.158,-0.406,6.020,-7.490,12.390
158906970,0.785,-0.198,-0.442,10.920,2.660,13.720
158906989,0.879,-0.159,-0.394,4.060,13.230,11.340
158907009,0.893,-0.175,-0.370,-10.850,24.990,4.760
158907034,0.969,-0.238,-0.332,-8.120,36.120,-2.660
158907053,0.950,-0.208,-0.275,-0.840,45.150,-8.750
158907072,0.880,-0.164,-0.204,7.700,51.800,-12.180
158907092,0.843,-0.098,-0.185,9.240,55.790,-11.270
158907117,0.854,-0.027,-0.136,13.930,62.580,-3.640
158907135,0.817,-0.024,-0.078,25.970,68.530,5.460
158907155,0.799,0.028,0.044,10.150,75.320,10.570
158907174,0.724,-0.005,0.036,-14.140,82.250,15.680
158907194,0.659,-0.068,-0.038,-52.360,84.700,18.690
158907217,0.560,-0.268,-0.244,-61.180,92.540,19.670
158907238,0.621,-0.319,-0.231,-43.400,106.540,15.050
158907262,0.427,-0.297,-0.155,-5.880,131.670,4.410
158907280,0.300,-0.325,-0.153,21.420,138.110,-10.640
158907299,0.502,-0.289,-0.116,52.010,145.180,-23.940
158907324,0.509,-0.212,-0.085,70.980,165.550,-49.420
158907342,0.389,-0.127,-0.013,91.700,185.290,-65.380
158907359,0.371,0.066,0.003,94.220,185.570,-78.820
158907384,0.491,0.257,0.413,73.150,195.090,-100.030
158907404,0.299,0.181,0.412,65.800,207.340,-117.530
158907425,0.199,0.396,0.354,71.050,214.550,-121.800
158907445,0.161,0.496,0.366,66.010,224.560,-128.660
158907469,0.072,0.464,0.614,85.750,237.090,-132.160
158907489,-0.046,0.646,0.696,90.580,246.050,-136.150
158907513,-0.126,0.742,0.712,77.140,255.360,-146.440
158907533,-0.185,0.646,0.761,86.030,260.470,-151.550
158907553,-0.275,0.697,0.923,100.520,267.190,-156.310
158907576,-0.379,0.833,0.891,104.860,276.150,-165.900
158907597,-0.554,0.813,0.887,112.490,275.520,-173.880
158907617,-0.654,0.879,1.067,112.560,271.040,-178.990
158907634,-0.796,0.999,0.983,100.310,270.480,-182.980
158907657,-0.906,1.123,0.936,59.920,259.350,-190.820
158907677,-1.045,0.923,1.151,57.610,236.390,-180.110
158907697,-1.012,1.181,1.040,42.910,233.590,-157.430
158907716,-1.140,1.020,0.904,28.700,227.640,-138.810
158907736,-1.223,1.007,0.940,25.200,210.560,-116.060
158907760,-1.329,0.894,0.944,-1.960,194.040,-104.650
158907782,-1.240,0.590,0.860,-5.040,170.730,-101.990
158907806,-1.161,0.571,0.861,3.780,155.330,-97.510
158907824,-1.156,0.550,0.836,-2.660,141.050,-91.420
158907842,-1.181,0.438,0.766,6.510,126.630,-83.510
158907861,-1.189,0.367,0.689,21.770,99.540,-76.370
158907884,-1.137,0.459,0.634,33.040,82.110,-69.090
158907908,-1.102,0.498,0.561,21.770,65.590,-61.810
158907928,-1.079,0.498,0.382,-5.460,57.540,-51.520
158907946,-1.096,0.381,0.307,-6.580,58.030,-42.350
158907968,-1.091,0.401,0.396,4.900,52.290,-26.110
158907988,-1.050,0.308,0.419,15.610,54.390,-15.750
158908011,-0.981,0.311,0.407,34.370,46.970,-8.050
158908035,-0.967,0.357,0.336,42.910,40.320,-4.900
158908050,-0.954,0.404,0.284,38.290,34.510,-5.950
158908075,-0.936,0.288,0.341,68.460,21.770,-7.560
158908094,-0.992,0.466,0.447,82.670,6.720,-1.120
158908114,-1.009,0.620,0.498,31.290,-15.120,-4.130
158908138,-0.964,0.485,0.290,-27.020,-17.220,-8.540
158908158,-0.957,0.406,0.151,-51.590,-12.320,-8.750
158908177,-0.941,0.349,0.061,-59.430,-5.670,-7.630
158908198,-0.968,0.357,0.016,-68.740,-1.680,-8.330
158908218,-0.962,0.324,0.008,-73.710,-3.430,-9.590
158908238,-0.965,0.226,-0.026,-75.110,-5.880,-10.570
158908263,-0.922,0.190,-0.039,-54.320,-7.140,-5.250
158908281,-0.917,0.164,-0.031,-39.270,-5.530,-0.140
158908304,-0.922,0.218,0.023,-23.660,-5.040,6.510
158908324,-0.918,0.237,0.085,-19.670,-5.810,9.590
158908344,-0.909,0.263,0.117,-13.300,-4.900,11.270
158908364,-0.922,0.280,0.146,-8.400,-5.530,13.230
158908388,-0.937,0.322,0.244,-12.040,-9.450,15.890
158908407,-0.995,0.362,0.315,-15.820,-15.890,17.570
158908427,-0.984,0.346,0.338,-6.930,-29.470,19.530
158908447,-0.989,0.418,0.407,2.730,-35.280,24.220
158908467,-1.106,0.549,0.530,-7.980,-47.950,31.780
158908491,-1.100,0.497,0.497,-18.200,-73.360,40.810
158908506,-1.041,0.430,0.542,0.350,-81.410,49.140
158908531,-1.061,0.654,0.772,15.330,-102.340,68.810
158908547,-1.090,0.864,0.906,-3.640,-112.910,83.510
158908571,-1.203,0.951,0.975,-63.420,-141.610,108.220
158908591,-1.236,0.843,0.900,-83.580,-166.740,129.990
158908611,-1.228,0.849,0.828,-79.520,-193.060,149.450
158908626,-1.168,0.784,0.892,-70.980,-207.480,156.240
158908646,-1.073,0.820,1.019,-56.350,-213.150,165.270
158908666,-1.101,0.892,1.053,-52.850,-225.050,168.280
158908690,-1.070,0.834,1.124,-49.980,-243.530,177.030
158908710,-0.865,0.795,1.083,-25.760,-251.580,185.220
158908729,-0.795,1.028,1.133,-21.770,-250.740,189.000
158908750,-0.728,0.932,1.057,-55.790,-254.940,183.680
158908770,-0.550,0.693,1.058,-43.260,-254.030,181.370
158908794,-0.513,0.870,1.042,-43.260,-241.780,176.750
158908814,-0.437,0.832,1.002,-47.250,-233.240,173.880
158908834,-0.296,0.839,0.941,-65.380,-221.480,166.740
158908854,-0.280,0.746,0.824,-78.400,-210.490,155.470
158908874,-0.199,0.599,0.770,-72.240,-201.600,145.600
158908894,-0.072,0.620,0.848,-59.990,-189.700,135.030
158908918,-0.002,0.659,0.798,-78.470,-179.410,117.740
158908938,0.059,0.527,0.688,-86.800,-172.690,105.560
158908958,0.152,0.416,0.674,-83.440,-164.290,94.220
158908976,0.183,0.373,0.598,-74.550,-154.840,86.240
158908997,0.297,0.321,0.578,-59.780,-145.950,76.650
158909019,0.323,0.314,0.603,-45.640,-134.260,68.600
158909042,0.329,0.342,0.517,-51.170,-132.790,59.360
158909063,0.465,0.206,0.487,-52.570,-124.530,52.220
158909086,0.432,0.142,0.439,-35.070,-115.360,45.780
158909107,0.525,0.081,0.454,-19.670,-107.030,40.600
158909125,0.483,0.070,0.375,-16.940,-102.830,36.610
158909144,0.620,0.062,0.307,-19.810,-100.100,31.150
158909166,0.660,-0.000,0.325,-21.700,-91.560,23.030
158909186,0.629,0.022,0.313,-28.280,-89.180,14.770
158909210,0.656,-0.061,0.244,-33.320,-88.200,0.980
158909230,0.712,-0.076,0.160,-17.290,-86.380,-7.630
158909249,0.707,0.009,0.152,-19.600,-81.410,-15.750
158909271,0.710,0.061,0.173,-23.450,-81.690,-18.760
158909293,0.758,0.063,0.102,-22.540,-81.130,-21.770
158909311,0.818,0.109,0.060,-17.850,-85.190,-23.660
158909335,0.852,0.122,0.088,-19.670,-77.700,-25.410
158909355,0.855,0.147,0.068,-19.390,-68.320,-20.230
158909375,0.888,0.191,0.035,-27.930,-58.870,-14.700
158909392,0.846,0.100,-0.020,-28.070,-54.390,-8.960
158909411,0.874,0.134,-0.000,-34.580,-46.550,-2.800
158909436,0.839,0.025,-0.027,-41.930,-42.140,5.180
158909455,0.888,0.005,-0.035,-42.910,-40.950,9.940
158909480,0.849,0.007,-0.061,-50.960,-37.100,12.950
158909496,0.852,-0.065,-0.096,-58.240,-38.920,14.280
158909519,0.860,-0.121,-0.083,-49.070,-30.870,17.080
158909540,0.834,-0.176,-0.152,-31.710,-27.370,16.170
158909559,0.907,-0.169,-0.116,-2.310,-21.280,13.440
158909584,0.951,-0.081,-0.037,-0.070,-16.310,12.110
158909601,0.993,-0.051,-0.070,-4.340,-14.280,9.660
158909624,1.008,-0.069,0.000,-12.460,-11.760,6.160
158909643,1.018,-0.021,0.085,-28.210,-14.000,6.580
158909667,0.984,-0.085,-0.005,-17.010,-15.610,8.330
158909687,0.954,-0.095,-0.127,2.380,-16.170,5.810
158909707,1.021,-0.088,-0.125,11.480,-12.670,3.850
158909727,1.031,-0.004,-0.021,7.490,-6.020,1.120
158909744,0.939,0.044,-0.031,-6.160,-5.670,-0.910
158909764,0.879,0.006,-0.091,-14.070,-9.170,-2.240
158909788,0.937,-0.042,-0.067,-7.420,-7.770,10.150
158909808,0.987,-0.065,-0.111,6.230,-1.190,20.720
158909827,0.902,-0.132,-0.186,5.180,-0.140,20.230
158909851,0.906,-0.179,-0.219,6.650,8.260,16.590
158909868,0.869,-0.126,-0.187,-9.310,14.350,16.520
158909891,0.881,-0.243,-0.160,-15.050,19.390,18.130
158909912,0.833,-0.232,-0.141,-5.390,22.820,21.140
158909927,0.865,-0.317,-0.125,6.860,22.540,23.030
158909947,0.817,-0.233,-0.012,5.250,17.500,22.120
158909971,0.670,-0.207,0.301,-8.610,1.190,28.210
158909992,0.354,-0.273,0.332,14.910,-31.640,39.830
158910012,0.413,-0.430,0.066,76.720,-40.110,64.750
158910031,0.469,-0.147,-0.035,108.920,-31.150,84.560
