Millis,AccelX,AccelY,AccelZ,GyroX,GyroY,GyroZ
8622547,-0.978,0.001,0.294,0.070,-0.420,-0.420
8622571,-0.984,-0.002,0.302,0.560,-0.700,-0.280
8622594,-0.981,-0.002,0.297,0.700,-0.980,-0.420
8622615,-0.986,0.001,0.300,0.210,-1.470,-0.700
8622635,-0.990,0.003,0.292,0.560,-2.240,-0.910
8622654,-0.981,-0.004,0.296,0.910,-2.170,-0.840
8622674,-0.980,-0.008,0.299,0.910,-1.960,-0.700
8622698,-0.978,-0.007,0.292,0.490,-1.190,-0.560
8622717,-0.984,-0.006,0.290,0.770,-0.700,-0.700
8622735,-0.981,-0.005,0.294,1.050,-0.350,-0.560
8622754,-0.977,-0.002,0.296,0.840,0.070,-0.490
8622778,-0.980,0.000,0.299,0.490,0.210,-0.420
8622795,-0.977,0.000,0.302,0.630,0.420,-0.630
8622819,-0.985,-0.002,0.298,0.980,0.700,-0.770
8622838,-0.986,-0.001,0.303,0.980,0.350,-0.840
8622857,-0.980,0.007,0.303,0.770,-0.910,-0.980
8622877,-0.966,0.009,0.297,0.280,-1.610,-1.120
8622902,-0.975,0.001,0.291,0.280,-0.840,-1.190
8622922,-0.978,0.000,0.293,0.210,0.140,-1.190
8622941,-0.980,-0.004,0.297,-0.070,1.190,-1.120
8622960,-0.977,-0.006,0.303,0.560,1.540,-1.050
8622979,-0.975,-0.006,0.298,0.840,2.030,-0.840
8623002,-0.974,-0.003,0.293,0.700,3.150,-0.700
8623022,-0.976,-0.004,0.297,1.540,4.690,-0.770
8623046,-0.987,-0.004,0.294,2.030,3.710,-0.420
8623066,-0.981,-0.008,0.289,0.560,2.520,-0.140
8623084,-0.977,0.002,0.289,0.490,3.570,-0.210
8623103,-0.986,0.007,0.309,1.400,3.500,-0.140
8623128,-0.988,-0.001,0.289,1.120,0.840,0.630
8623148,-0.976,-0.002,0.269,0.490,1.820,0.420
8623168,-0.981,0.006,0.281,0.910,3.500,0.210
8623188,-0.991,0.003,0.288,0.840,2.870,0.210
8623208,-0.985,0.002,0.294,0.630,2.100,0.070
8623223,-0.987,0.002,0.288,0.280,1.260,0.140
8623248,-0.984,0.003,0.279,0.350,0.350,-0.070
8623268,-0.983,0.005,0.277,0.420,0.210,-0.210
8623284,-0.984,0.004,0.277,0.350,0.350,-0.350
8623303,-0.983,0.003,0.274,0.140,0.840,-0.490
8623326,-0.985,0.007,0.279,-0.070,1.120,-0.560
8623347,-0.990,0.005,0.287,-0.490,0.350,-0.700
8623367,-0.979,0.003,0.276,-0.490,-0.560,-0.840
8623387,-0.981,0.003,0.276,-0.350,-0.700,-0.910
8623410,-0.987,0.008,0.274,0.280,-0.770,-1.190
8623429,-0.986,0.004,0.271,0.490,-0.350,-1.260
8623453,-0.989,0.000,0.275,0.700,-0.210,-0.980
8623473,-0.991,0.001,0.274,0.350,-0.490,-1.120
8623491,-0.992,0.009,0.278,0.630,-0.700,-1.190
8623514,-0.992,0.006,0.276,0.980,-0.420,-0.980
8623534,-0.983,0.000,0.275,0.420,0.140,-0.700
8623554,-0.987,-0.000,0.275,0.630,-0.070,-0.490
8623575,-0.987,0.001,0.270,0.980,0.000,-0.700
8623595,-0.981,0.008,0.279,0.770,0.420,-0.700
8623619,-0.982,0.010,0.266,0.070,0.000,-1.050
8623639,-0.983,0.007,0.265,0.000,0.630,-1.190
8623654,-0.977,0.000,0.271,-0.140,1.260,-1.330
8623679,-0.985,-0.003,0.245,-0.560,2.870,-1.330
8623700,-0.984,0.005,0.196,-5.810,13.230,-1.680
8623719,-1.029,0.002,0.241,-6.300,19.810,-3.500
8623737,-1.025,0.012,0.326,-4.130,14.840,-3.010
8623757,-0.973,0.005,0.324,-0.840,4.410,-1.750
8623781,-0.952,-0.008,0.245,2.450,-0.070,-1.820
8623800,-0.973,-0.002,0.227,2.730,0.630,-1.260
8623819,-1.000,0.003,0.231,1.050,2.800,-1.540
8623844,-1.014,0.010,0.258,0.560,3.920,-1.680
8623864,-1.014,-0.000,0.272,1.960,0.910,-1.680
8623883,-0.991,-0.005,0.238,0.980,0.000,-1.260
8623902,-0.986,-0.009,0.223,-0.210,2.730,-1.400
8623924,-0.993,-0.001,0.245,0.070,3.570,-1.470
8623944,-0.990,-0.002,0.256,0.420,2.310,-1.190
8623968,-0.989,-0.006,0.253,0.420,0.000,-0.630
8623988,-0.998,-0.006,0.238,1.120,-0.630,-0.770
8624007,-0.998,0.007,0.235,0.980,0.140,-1.050
8624024,-1.001,0.003,0.239,0.420,0.280,-0.910
8624048,-1.002,0.000,0.248,0.420,-0.490,-0.630
8624068,-0.999,-0.002,0.242,0.560,-2.170,-0.910
8624087,-0.992,0.005,0.234,0.210,-2.590,-1.260
8624106,-0.993,0.005,0.231,-0.560,-2.520,-1.330
8624127,-0.993,0.004,0.232,-0.630,-2.380,-1.540
8624151,-0.993,0.001,0.237,-0.350,-2.730,-1.750
8624171,-0.995,0.003,0.249,0.070,-3.710,-1.820
8624191,-1.004,0.001,0.243,0.140,-3.850,-1.820
8624214,-1.003,-0.004,0.243,0.280,-3.850,-1.960
8624235,-0.993,-0.007,0.241,1.050,-3.360,-1.960
8624254,-0.987,-0.012,0.241,0.770,-3.150,-1.960
8624270,-0.988,-0.014,0.240,0.770,-3.010,-1.820
8624295,-0.983,-0.013,0.242,0.770,-2.660,-1.750
8624314,-0.988,-0.014,0.245,1.050,-2.660,-1.540
8624334,-0.990,-0.014,0.249,1.330,-2.520,-1.400
8624353,-0.983,-0.012,0.252,1.330,-1.960,-1.330
8624376,-0.987,-0.013,0.261,1.470,-1.820,-1.260
8624399,-0.991,-0.022,0.258,2.520,-2.520,-0.980
8624417,-0.989,-0.024,0.249,3.640,-3.640,-1.260
8624442,-0.985,-0.020,0.228,3.640,-1.260,-1.470
8624459,-0.984,-0.020,0.230,2.660,1.890,-1.680
8624481,-0.995,-0.019,0.243,2.730,3.220,-2.100
8624501,-0.993,-0.020,0.252,2.660,3.290,-1.890
8624525,-0.998,-0.033,0.244,2.590,4.550,-1.470
8624549,-1.005,-0.037,0.243,4.620,5.740,-1.470
8624568,-0.985,-0.041,0.230,5.740,4.340,-1.330
8624593,-0.970,-0.051,0.212,5.110,5.880,-1.330
8624610,-0.980,-0.055,0.220,4.410,7.980,-1.610
8624634,-0.976,-0.057,0.226,4.060,8.540,-2.380
8624654,-0.967,-0.057,0.217,2.240,9.310,-2.380
8624673,-0.962,-0.053,0.206,0.070,10.010,-2.240
8624697,-0.974,-0.048,0.203,-0.490,10.360,-2.170
8624717,-0.984,-0.039,0.204,-1.400,11.060,-1.960
8624736,-0.990,-0.033,0.193,-2.520,11.690,-1.680
8624756,-0.995,-0.026,0.191,-4.410,13.020,-1.050
8624778,-1.012,-0.019,0.203,-7.140,13.580,-0.350
8624802,-1.012,-0.023,0.209,-8.470,11.900,0.490
8624822,-0.993,-0.025,0.203,-8.400,9.660,1.120
8624841,-1.004,-0.024,0.192,-8.820,8.750,1.750
8624861,-1.003,-0.039,0.167,-8.960,9.100,1.750
8624885,-0.999,-0.032,0.148,-10.640,11.200,1.190
8624904,-0.999,-0.012,0.157,-10.920,12.110,1.050
8624925,-1.002,0.013,0.163,-13.300,13.160,1.820
8624945,-1.018,0.033,0.167,-16.030,13.930,2.310
8624965,-1.036,0.053,0.196,-17.150,12.390,2.380
8624989,-1.050,0.063,0.217,-13.930,6.720,2.800
8625008,-1.039,0.046,0.221,-11.270,3.780,3.150
8625024,-1.036,0.032,0.221,-9.940,1.890,2.940
8625049,-1.049,0.041,0.225,-7.700,0.210,2.800
8625069,-1.043,0.041,0.257,-5.110,-1.540,2.520
8625089,-1.037,0.043,0.279,-3.010,-4.480,1.400
8625108,-1.013,0.049,0.254,-0.910,-5.950,0.420
8625128,-0.994,0.061,0.237,4.130,-5.880,0.420
8625152,-0.985,0.078,0.191,6.300,-3.780,1.050
8625176,-0.973,0.077,0.167,4.760,-2.520,0.700
8625196,-0.955,0.095,0.143,3.990,1.960,-0.070
8625216,-0.962,0.096,0.163,2.870,3.710,-0.630
8625240,-0.974,0.100,0.178,2.870,0.910,-1.960
8625260,-1.000,0.104,0.197,6.020,-1.470,-2.870
8625279,-1.036,0.099,0.203,8.470,-3.990,-4.060
8625300,-1.047,0.101,0.188,8.610,-4.970,-4.830
8625320,-1.050,0.109,0.200,6.020,-5.600,-4.970
8625339,-1.037,0.114,0.212,5.040,-9.170,-5.390
8625364,-1.017,0.117,0.195,4.550,-11.410,-5.320
8625382,-1.005,0.123,0.184,4.550,-11.900,-5.320
8625398,-1.020,0.115,0.199,5.670,-13.090,-5.320
8625418,-1.039,0.089,0.215,8.120,-16.240,-5.600
8625443,-1.036,0.065,0.194,11.270,-17.780,-6.650
8625460,-1.043,0.042,0.190,12.670,-18.620,-7.280
8625480,-1.037,0.027,0.178,14.560,-19.670,-9.100
8625504,-1.031,0.022,0.163,15.190,-19.250,-10.850
8625525,-1.013,0.000,0.157,15.540,-16.170,-11.550
8625543,-1.005,-0.009,0.147,15.260,-11.830,-11.830
8625567,-1.011,-0.027,0.125,13.580,-3.990,-11.620
8625587,-0.976,-0.066,0.128,13.790,1.260,-12.110
8625606,-0.900,-0.139,0.152,16.170,8.260,-13.230
8625625,-0.852,-0.202,0.197,17.920,11.970,-13.580
8625650,-0.850,-0.253,0.242,20.930,8.470,-14.070
8625670,-0.991,-0.259,0.251,21.980,-2.310,-14.840
8625687,-1.096,-0.210,0.245,21.840,-11.830,-16.870
8625706,-1.129,-0.125,0.188,15.190,-13.160,-17.290
8625730,-1.079,-0.105,0.126,8.890,-3.080,-13.370
8625752,-1.071,-0.145,0.147,2.730,4.270,-8.260
8625769,-1.007,-0.176,0.169,3.080,-0.910,-5.180
8625793,-0.937,-0.185,0.178,6.860,-7.560,-0.840
8625813,-0.899,-0.194,0.161,9.240,-11.620,1.680
8625832,-0.935,-0.179,0.184,5.110,-10.920,2.450
8625852,-1.004,-0.164,0.237,0.280,-13.860,2.450
8625877,-1.038,-0.141,0.260,-4.130,-20.930,3.430
8625896,-1.019,-0.159,0.262,-7.070,-23.450,4.340
8625920,-1.047,-0.144,0.255,-9.940,-24.990,5.670
8625939,-1.055,-0.139,0.254,-11.970,-25.900,6.230
8625958,-1.071,-0.096,0.234,-11.690,-26.880,6.580
8625982,-1.056,-0.021,0.181,-13.720,-23.450,7.490
8626002,-0.983,-0.001,0.172,-12.740,-11.970,7.350
8626027,-0.955,0.012,0.187,-5.880,-2.030,8.120
8626044,-0.892,0.032,0.183,-0.070,0.350,9.240
8626068,-0.837,0.008,0.196,5.600,5.110,9.730
8626087,-0.831,-0.011,0.221,8.820,9.100,9.870
8626107,-0.856,-0.027,0.217,10.080,9.660,7.980
8626127,-0.882,-0.019,0.180,6.720,14.420,4.270
8626151,-0.888,-0.005,0.163,3.780,23.870,-0.560
8626171,-0.873,0.013,0.146,2.030,30.310,-2.800
8626189,-0.871,0.005,0.139,1.820,35.560,-3.850
8626213,-0.854,0.008,0.138,2.240,41.020,-4.830
8626232,-0.832,0.002,0.139,3.640,42.700,-6.860
8626253,-0.832,-0.042,0.129,5.250,43.820,-8.960
8626277,-0.822,-0.040,0.105,6.790,41.650,-11.620
8626295,-0.800,-0.005,0.072,1.120,42.910,-12.600
8626314,-0.813,0.013,0.072,-5.810,43.750,-12.950
8626334,-0.840,0.030,0.081,-8.190,41.930,-13.300
8626358,-0.821,0.018,0.081,-6.300,43.960,-13.650
8626377,-0.840,0.022,0.095,-4.270,42.070,-12.460
8626402,-0.861,-0.014,0.075,-4.690,44.240,-10.780
8626419,-0.870,-0.033,0.073,-3.780,45.710,-10.360
8626443,-0.889,-0.042,0.064,-1.960,44.170,-11.060
8626462,-0.876,-0.070,0.045,-2.660,41.580,-12.880
8626482,-0.880,-0.086,-0.003,-2.240,42.840,-14.770
8626502,-0.876,-0.084,0.001,-1.400,45.010,-15.120
8626524,-0.917,-0.038,-0.010,-6.790,43.750,-11.900
8626543,-0.929,-0.017,-0.042,-11.060,42.840,-8.680
8626567,-0.920,-0.016,-0.041,-6.790,41.440,-6.720
8626586,-0.920,-0.020,-0.037,-2.100,39.550,-5.530
8626607,-0.969,-0.073,-0.047,-7.840,37.240,-1.750
8626627,-1.017,-0.135,-0.048,-9.800,34.790,-1.610
8626651,-1.038,-0.118,-0.072,-0.560,27.510,-7.490
8626670,-1.015,-0.118,-0.042,2.660,28.420,-9.870
8626689,-0.994,-0.127,-0.035,-0.280,22.400,-9.380
8626709,-0.958,-0.117,-0.112,-2.170,15.050,-9.310
8626733,-0.942,-0.064,-0.212,5.110,21.980,-8.610
8626753,-1.049,-0.042,-0.132,-1.610,28.630,-3.430
8626777,-1.098,-0.073,-0.047,-4.410,17.080,-3.990
8626795,-1.041,-0.122,-0.107,-4.550,12.110,-7.140
8626816,-1.023,-0.156,-0.179,0.910,10.150,-8.680
8626837,-0.977,-0.123,-0.162,-1.400,16.800,-5.670
8626857,-1.002,-0.108,-0.117,-4.760,11.690,-1.820
8626877,-1.015,-0.026,-0.096,-5.460,7.630,0.210
8626901,-1.023,-0.016,-0.130,-2.240,-0.630,1.680
8626921,-1.020,-0.061,-0.216,-6.440,6.160,3.710
8626940,-1.098,-0.127,-0.090,-6.300,3.290,3.640
8626959,-1.085,-0.216,-0.177,-6.090,-5.950,0.770
8626979,-1.036,-0.035,-0.146,-7.910,-2.730,1.680
8627002,-1.075,-0.099,-0.134,-11.270,-17.290,3.780
8627023,-1.094,-0.111,-0.284,-11.200,-0.700,3.080
8627043,-1.103,-0.085,-0.264,-9.800,0.420,2.520
8627061,-1.109,-0.062,-0.099,-10.150,-9.730,3.080
8627081,-1.082,-0.093,-0.201,-4.760,-16.240,2.030
8627105,-1.139,-0.018,-0.181,-5.250,-8.820,2.450
8627125,-1.208,-0.102,-0.076,-0.910,-24.010,2.170
8627143,-1.231,-0.153,-0.250,-3.710,-30.800,-0.350
8627167,-1.239,-0.045,-0.294,-8.470,-19.530,11.270
8627187,-1.347,-0.232,-0.169,-1.470,-14.700,2.660
8627206,-1.426,-0.079,-0.207,5.040,-31.500,3.640
8627230,-1.418,-0.170,-0.386,6.230,-21.000,5.250
8627250,-1.433,-0.208,-0.223,4.830,-10.920,1.680
8627270,-1.451,-0.146,-0.304,9.240,-11.550,2.380
8627291,-1.416,-0.166,-0.259,17.360,-4.900,0.770
8627310,-1.344,-0.141,-0.295,12.460,9.520,-0.490
8627329,-1.338,-0.138,-0.235,7.910,19.460,-2.170
8627350,-1.380,-0.141,-0.150,8.750,19.460,-4.900
8627374,-1.349,-0.161,-0.228,11.130,10.080,-7.140
8627389,-1.316,-0.133,-0.238,10.780,13.020,-9.590
8627414,-1.266,-0.065,-0.165,8.890,9.730,-4.340
8627434,-1.249,-0.093,-0.161,8.540,10.010,-3.640
8627454,-1.175,-0.116,-0.157,9.030,3.780,-3.220
8627473,-1.127,-0.121,-0.197,8.120,5.180,-2.310
8627497,-1.122,-0.040,-0.148,5.040,1.750,1.680
8627512,-1.105,0.000,-0.174,3.430,-1.540,2.100
8627537,-1.115,-0.067,-0.160,-3.850,-1.260,3.360
8627556,-1.066,-0.130,-0.201,-2.870,2.590,0.980
8627575,-1.095,-0.176,-0.197,2.100,2.870,0.490
8627599,-1.108,-0.090,-0.159,0.280,3.360,4.690
8627619,-1.158,-0.102,-0.178,2.800,0.350,3.920
8627638,-1.153,-0.117,-0.152,11.830,-1.750,5.670
8627657,-1.210,-0.139,-0.146,15.470,-5.810,3.920
8627681,-1.176,-0.060,-0.094,6.230,-19.950,2.730
8627702,-1.159,-0.050,-0.097,-2.310,-23.870,5.600
8627726,-1.129,-0.075,-0.077,-1.260,-28.000,3.990
8627743,-1.051,-0.020,-0.063,-2.380,-32.690,3.990
8627767,-0.968,-0.080,-0.036,-2.660,-35.910,5.810
8627784,-0.935,-0.126,0.010,-2.730,-39.200,6.020
8627803,-0.911,-0.135,0.031,0.140,-45.990,5.460
8627826,-0.881,-0.081,-0.002,7.490,-54.040,3.220
8627850,-0.789,-0.063,-0.076,6.860,-50.470,3.360
8627870,-0.801,0.012,-0.064,-3.290,-48.020,3.430
8627887,-0.801,0.021,-0.041,-8.680,-43.540,3.220
8627912,-0.804,-0.008,0.059,-5.810,-38.990,5.600
8627930,-0.800,-0.040,0.122,-3.640,-46.620,8.820
8627951,-0.830,-0.006,0.019,-9.030,-54.880,9.240
8627970,-0.795,-0.012,-0.015,-11.970,-51.730,9.240
8627994,-0.759,-0.024,0.027,-13.720,-41.580,10.990
8628014,-0.739,-0.043,0.069,-14.770,-37.170,10.920
8628033,-0.777,-0.008,0.056,-18.340,-39.760,10.920
8628052,-0.800,-0.015,0.080,-16.450,-40.740,10.920
8628073,-0.907,-0.020,0.152,-9.170,-39.200,11.830
8628097,-0.932,-0.039,0.142,-10.500,-42.700,13.020
8628117,-0.790,-0.023,0.104,-13.300,-41.090,13.020
8628136,-0.776,-0.027,0.043,-24.640,-53.970,15.960
8628156,-0.693,-0.020,-0.109,-21.980,-49.070,16.660
8628176,-0.508,-0.081,-0.102,-7.280,-26.460,8.330
8628200,-0.370,-0.045,0.088,-5.040,-5.600,-11.690
8628220,-0.529,-0.010,0.209,0.980,-6.510,-11.060
8628244,-0.823,-0.006,0.243,13.510,-19.460,4.480
8628260,-1.069,0.007,0.199,17.990,-19.600,5.320
8628284,-1.238,0.045,0.201,9.800,-9.730,-0.280
8628302,-1.208,-0.005,0.143,6.720,1.330,-0.140
8628324,-1.134,-0.024,0.206,2.100,6.930,1.260
8628341,-1.081,0.032,0.255,-0.140,7.630,0.210
8628360,-0.997,0.021,0.259,-0.840,5.320,-1.120
8628385,-0.949,-0.005,0.184,-4.900,-0.350,-0.980
8628404,-0.918,-0.026,0.178,-2.940,-0.700,-2.450
8628424,-0.948,-0.010,0.170,-1.540,-6.370,-3.150
8628444,-0.964,0.035,0.144,-2.380,-7.210,-2.870
8628468,-1.016,0.059,0.186,-5.530,-6.720,-3.850
8628487,-1.035,0.013,0.152,-6.510,-8.960,-4.270
8628507,-0.951,-0.042,0.019,-11.060,-9.170,-5.110
8628527,-0.878,-0.001,-0.033,-10.640,10.500,-7.350
8628548,-0.801,0.013,0.102,-5.670,28.840,-8.610
8628565,-0.719,0.017,0.122,-3.220,31.640,-8.120
8628587,-0.604,-0.022,0.067,-0.420,34.650,-9.520
8628609,-0.515,-0.018,0.064,1.750,39.340,-9.310
8628627,-0.481,-0.004,0.058,3.220,41.090,-8.120
8628649,-0.454,-0.029,0.034,7.140,46.620,-5.600
8628668,-0.460,-0.062,0.000,14.840,50.400,-4.060
8628692,-0.553,-0.106,0.036,15.750,64.330,-4.340
8628712,-0.652,-0.094,0.100,7.840,65.940,-6.510
8628732,-0.825,-0.088,0.072,9.030,64.610,-12.040
8628751,-0.997,-0.010,0.056,9.450,66.500,-15.680
8628771,-1.080,-0.070,0.081,9.940,66.220,-17.850
8628794,-0.985,-0.061,0.051,3.220,62.790,-14.210
8628813,-0.916,-0.032,0.047,-2.660,54.740,-13.160
8628837,-0.889,-0.017,-0.016,3.920,44.030,-13.300
8628857,-0.866,0.012,-0.066,7.140,53.900,-9.800
8628877,-0.949,-0.030,0.048,3.080,44.240,-6.510
8628898,-1.012,-0.047,-0.066,6.930,27.300,-8.470
8628915,-1.061,-0.040,-0.128,6.090,28.210,-10.290
8628938,-1.112,-0.066,-0.084,1.610,26.250,-11.620
8628957,-1.121,-0.094,-0.065,-4.550,23.100,-8.400
8628979,-1.072,-0.115,-0.016,1.820,13.930,-6.090
8628994,-1.061,-0.157,-0.025,5.530,8.470,-5.600
8629019,-1.044,-0.082,-0.079,8.890,9.030,-4.620
8629037,-1.098,-0.054,-0.060,8.050,-2.240,-1.680
8629058,-1.099,-0.014,-0.153,13.300,-10.780,-1.190
8629077,-1.095,-0.002,-0.162,9.870,-4.830,-0.560
8629101,-1.100,-0.043,-0.151,2.310,-3.780,-2.590
8629116,-1.069,-0.077,-0.100,4.550,-7.910,-3.360
8629141,-1.004,-0.062,-0.170,1.190,-2.170,-0.280
8629161,-0.988,-0.117,-0.195,-2.380,2.450,-3.220
8629180,-1.028,-0.080,-0.191,1.190,2.800,-4.690
8629199,-1.078,-0.119,-0.123,5.250,9.870,-1.680
8629223,-1.098,-0.137,-0.127,5.530,3.080,1.610
8629242,-1.062,-0.152,-0.323,7.770,1.610,0.910
8629266,-1.095,-0.093,-0.268,-0.420,16.800,-1.050
8629286,-1.166,-0.045,-0.281,-7.980,25.970,-2.660
8629306,-1.210,-0.016,-0.301,-5.530,32.620,-0.840
8629326,-1.248,-0.171,-0.368,-4.410,44.030,-2.870
8629346,-1.279,-0.268,-0.343,-7.700,53.340,-3.920
8629365,-1.456,-0.195,-0.132,-4.480,47.600,-3.640
8629386,-1.426,-0.189,-0.186,1.050,20.930,1.050
8629410,-1.400,-0.216,-0.401,2.800,2.940,-4.340
8629429,-1.438,-0.072,-0.331,7.980,-1.120,-0.420
8629449,-1.452,-0.120,-0.361,6.510,-10.290,0.560
8629470,-1.246,-0.146,-0.380,1.960,0.420,-2.450
8629493,-1.377,-0.153,-0.248,7.350,-2.310,-0.840
8629517,-1.358,-0.105,-0.325,0.700,-7.770,0.140
8629536,-1.351,-0.141,-0.381,-5.460,-10.640,-0.280
8629555,-1.302,-0.083,-0.363,-3.220,-2.590,-2.590
8629579,-1.313,-0.088,-0.235,-1.960,-7.140,-2.870
8629599,-1.323,-0.123,-0.330,1.260,-15.540,-3.500
8629619,-1.281,-0.129,-0.308,-0.980,-10.990,-3.010
8629638,-1.272,-0.120,-0.264,-6.720,-12.950,-2.240
8629658,-1.217,-0.059,-0.303,-6.720,-14.070,1.400
8629682,-1.182,-0.061,-0.234,-5.950,-11.760,6.090
8629706,-1.213,-0.121,-0.196,-7.210,-19.180,7.350
8629725,-1.183,-0.134,-0.241,-8.540,-17.500,6.720
8629747,-1.112,-0.130,-0.246,-5.950,-13.300,5.950
8629771,-1.106,-0.105,-0.206,0.490,-11.270,5.530
8629791,-1.130,-0.103,-0.198,0.140,-6.650,7.280
8629810,-1.142,-0.073,-0.099,2.240,-10.780,7.280
8629830,-1.130,-0.087,-0.123,7.980,-24.500,5.600
8629854,-1.100,-0.072,-0.183,5.950,-19.670,3.150
8629869,-1.173,-0.060,-0.112,-4.760,-23.030,6.160
8629895,-1.200,-0.067,-0.091,-2.940,-37.590,4.690
8629914,-1.130,-0.058,-0.082,-1.820,-37.380,3.780
8629933,-1.099,-0.061,-0.043,-1.820,-38.220,4.200
8629956,-0.998,-0.081,-0.001,-0.140,-40.110,3.990
8629977,-0.887,-0.094,0.007,8.470,-46.480,2.520
8630002,-0.831,-0.035,-0.033,12.040,-51.520,2.870
8630018,-0.774,-0.017,-0.052,7.490,-48.370,3.360
8630042,-0.778,-0.040,0.017,6.440,-40.250,5.460
8630062,-0.818,-0.061,0.107,11.620,-47.180,4.480
8630082,-0.806,-0.020,0.051,10.570,-49.630,4.480
8630102,-0.717,-0.026,-0.083,11.900,-46.480,5.950
8630127,-0.604,-0.038,-0.074,5.880,-27.440,11.620
8630143,-0.656,-0.048,0.072,4.340,-24.150,13.090
8630166,-0.761,-0.020,0.002,4.340,-37.870,12.180
8630186,-0.786,0.019,0.153,-4.340,-44.170,9.170
8630205,-0.853,-0.007,0.140,-2.660,-47.950,8.470
8630225,-0.937,-0.016,0.153,-4.620,-50.960,7.770
8630247,-0.912,-0.014,0.100,-4.200,-51.730,7.280
8630269,-0.831,-0.052,-0.006,-3.710,-46.690,5.600
8630289,-0.746,-0.047,0.056,-6.160,-45.220,3.430
8630311,-0.704,-0.008,0.033,1.330,-55.300,17.850
8630329,-0.617,0.003,-0.078,2.170,-54.250,0.070
8630353,-0.501,-0.105,-0.033,-0.210,-32.410,1.890
8630371,-0.400,-0.035,0.133,4.900,-26.670,4.830
8630395,-0.440,-0.061,0.119,4.480,-9.520,4.130
8630414,-0.744,-0.028,0.058,1.330,11.970,0.280
8630434,-1.012,0.014,0.108,-2.730,25.480,-1.890
8630454,-1.401,0.008,0.206,-0.490,26.180,-1.190
8630478,-1.383,0.033,0.203,2.590,17.430,-3.430
8630493,-1.222,0.032,0.260,3.570,13.440,-3.990
8630519,-1.138,0.011,0.199,0.560,3.360,-3.150
8630538,-0.988,0.007,0.135,-0.280,2.450,-4.200
8630557,-0.898,-0.007,0.195,-2.310,3.220,-4.830
8630575,-0.871,-0.012,0.195,-4.760,2.310,-4.830
8630599,-0.882,-0.028,0.116,-5.250,-0.700,-5.040
8630616,-0.911,-0.001,0.148,-0.560,0.770,-4.550
8630636,-0.996,0.020,0.136,2.170,2.240,-2.310
8630657,-1.096,0.007,0.174,3.010,8.610,-0.070
8630678,-1.130,-0.020,0.234,1.680,2.940,-0.140
8630702,-1.041,-0.011,0.213,1.330,-5.320,-1.190
8630722,-0.972,-0.025,0.139,2.380,-8.470,-1.330
8630741,-0.938,-0.035,0.071,-0.910,-1.540,-0.980
8630765,-0.907,-0.048,0.011,0.070,6.230,-2.870
8630785,-0.821,-0.055,0.017,4.900,14.000,-4.340
8630804,-0.724,-0.039,0.018,8.750,21.070,-5.950
8630827,-0.650,-0.008,0.013,10.500,24.920,-7.210
8630849,-0.559,0.004,-0.043,11.270,31.150,-7.490
8630868,-0.569,0.010,-0.013,14.070,37.940,-7.000
8630888,-0.596,-0.010,0.074,16.310,38.920,-5.530
8630907,-0.642,-0.038,0.107,12.740,35.490,-5.390
8630925,-0.698,-0.006,0.087,10.780,30.940,-6.300
8630949,-0.800,0.023,0.082,14.700,26.950,-7.070
8630969,-0.838,-0.037,0.096,17.150,27.370,-6.720
8630986,-0.814,-0.077,0.070,12.460,27.370,-6.790
8631009,-0.793,-0.071,0.077,5.110,27.230,-8.050
8631027,-0.786,-0.027,0.096,3.220,23.380,-9.100
8631047,-0.790,0.018,0.033,5.950,24.990,-10.570
8631071,-0.801,0.034,0.048,2.660,40.880,-12.740
8631091,-0.817,-0.002,0.115,-3.220,43.820,-11.480
8631106,-0.874,-0.035,0.043,-2.660,37.870,-11.270
8631131,-0.970,-0.027,0.061,4.130,31.780,-10.220
8631151,-0.956,-0.062,-0.001,2.030,35.000,-7.630
8631175,-1.000,-0.061,0.024,-10.010,44.940,-5.600
8631195,-1.082,-0.111,0.013,-7.280,35.560,-7.630
8631215,-1.007,-0.051,-0.040,0.980,34.440,-9.380
8631233,-0.988,-0.085,0.018,-4.620,31.430,-7.070
8631253,-1.030,-0.139,-0.085,-6.020,22.190,-5.180
8631273,-1.047,-0.126,-0.111,4.760,22.190,-7.070
8631297,-1.077,-0.021,-0.083,11.970,19.810,-9.240
8631317,-1.118,0.018,-0.109,7.630,17.080,-7.980
8631335,-1.130,-0.044,-0.060,-2.870,8.680,-3.920
8631359,-1.158,-0.159,-0.136,-2.030,2.870,-7.280
8631379,-1.208,-0.129,-0.124,-1.050,3.430,-5.320
8631399,-1.155,-0.135,-0.106,0.420,-4.900,-2.170
8631423,-1.099,-0.094,-0.181,12.810,-12.180,-0.210
8631443,-1.063,-0.015,-0.227,11.830,-11.970,1.330
8631460,-1.122,0.008,-0.203,-0.350,-1.610,4.060
8631484,-1.241,-0.092,-0.153,-12.180,0.280,6.370
8631504,-1.168,-0.126,-0.280,-9.100,0.140,-2.450
8631524,-1.082,-0.090,-0.321,0.070,16.660,-5.740
8631549,-1.131,-0.063,-0.109,-1.960,20.440,-1.330
8631565,-1.166,-0.141,-0.101,-8.890,5.530,-3.360
8631589,-1.141,-0.185,-0.312,-3.850,15.470,-8.610
8631605,-1.211,-0.052,-0.226,10.990,22.610,-9.310
8631629,-1.293,0.000,-0.124,8.260,15.540,-2.520
8631649,-1.295,-0.136,-0.243,0.840,3.010,-0.630
8631669,-1.480,-0.071,-0.178,-14.210,0.910,-2.660
8631687,-1.562,-0.054,-0.225,-14.700,-13.510,3.710
8631711,-1.507,-0.129,-0.392,5.670,-14.140,-3.010
8631730,-1.625,-0.226,-0.300,11.970,-13.300,-4.200
8631751,-1.655,-0.022,-0.359,-1.750,-15.540,1.890
8631767,-1.592,-0.066,-0.349,-6.580,-11.550,5.320
8631791,-1.513,-0.134,-0.289,2.170,-4.410,0.490
8631810,-1.484,-0.187,-0.342,8.400,8.260,-3.640
8631830,-1.388,-0.155,-0.156,-6.300,11.340,-4.200
8631851,-1.419,-0.029,-0.154,-8.190,7.560,-1.540
8631872,-1.396,-0.046,-0.213,-5.600,2.450,-1.890
8631891,-1.335,-0.093,-0.225,-6.020,0.630,0.490
8631908,-1.281,-0.135,-0.171,-12.600,-1.820,-0.140
8631928,-1.256,-0.092,-0.215,-14.140,-3.710,1.190
8631951,-1.232,-0.066,-0.152,-9.940,2.590,4.060
8631971,-1.277,-0.161,-0.117,-5.460,-3.640,7.560
8631995,-1.247,-0.169,-0.184,-2.450,-14.910,5.320
8632015,-1.152,-0.163,-0.177,-2.870,-12.180,3.710
8632034,-1.139,-0.122,-0.147,5.950,-13.440,-0.140
8632052,-1.134,-0.081,-0.118,10.920,-15.680,-4.270
8632071,-1.171,-0.057,-0.010,4.760,-25.830,4.340
8632096,-1.117,-0.085,-0.055,9.100,-39.060,2.100
8632119,-1.099,0.000,-0.069,14.000,-44.240,4.480
8632139,-0.963,0.037,-0.093,12.670,-44.940,8.400
8632159,-0.851,-0.001,0.048,1.260,-35.770,11.410
8632180,-0.859,-0.075,0.130,-1.610,-50.400,8.680
8632203,-0.760,-0.036,-0.023,7.560,-65.240,4.900
8632227,-0.686,-0.059,0.002,15.890,-52.290,4.550
8632246,-0.807,-0.016,0.073,8.890,-47.460,5.740
8632267,-0.902,0.008,0.048,0.140,-48.930,6.160
8632289,-0.749,0.011,0.033,2.030,-46.900,7.420
8632310,-0.606,-0.006,0.062,2.520,-44.660,10.780
8632330,-0.561,-0.028,0.071,-2.870,-49.210,14.840
8632353,-0.508,-0.059,0.018,-3.710,-54.460,16.450
8632377,-0.437,-0.063,0.038,-4.480,-45.290,14.490
8632397,-0.414,-0.083,0.140,-4.200,-39.270,12.530
8632421,-0.493,-0.051,0.166,-0.560,-44.100,7.210
8632440,-0.548,-0.023,0.127,3.570,-49.070,3.500
8632460,-0.591,0.000,0.044,10.080,-49.840,-1.050
8632484,-0.578,-0.019,0.014,17.500,-41.230,-1.610
8632503,-0.597,-0.001,0.041,18.270,-26.670,-0.350
8632523,-0.717,0.012,0.086,14.980,-9.100,1.960
8632546,-0.954,-0.079,0.150,12.670,0.980,6.300
8632567,-1.191,-0.068,0.244,9.590,0.490,3.430
8632586,-1.281,-0.017,0.195,8.820,-1.330,-0.700
8632605,-1.212,0.011,0.216,9.520,-1.750,-0.140
8632630,-1.144,-0.013,0.288,3.430,-3.570,2.660
8632649,-1.067,-0.059,0.227,0.000,-5.810,-0.490
8632673,-0.994,-0.017,0.149,3.710,-6.650,-6.580
8632694,-0.937,0.014,0.105,2.520,-6.860,-8.400
8632713,-0.910,0.041,0.098,1.050,-6.370,-7.770
8632733,-0.880,0.009,0.103,1.820,-2.660,-5.320
8632752,-0.895,0.012,0.120,5.180,-0.490,-3.780
8632771,-0.900,0.015,0.097,4.130,0.560,-3.220
8632793,-0.947,0.023,0.085,-3.780,10.990,-2.310
8632815,-0.994,-0.005,0.090,-3.500,16.520,-2.660
8632838,-0.945,0.000,0.086,-6.580,24.710,-3.570
8632858,-0.900,-0.022,0.133,-6.580,31.360,-4.060
8632879,-0.826,-0.012,0.062,-2.240,35.140,-5.530
8632895,-0.690,-0.023,0.049,-1.050,39.550,-6.580
8632919,-0.588,-0.009,0.066,-0.280,42.560,-8.050
8632937,-0.539,-0.005,0.101,-1.330,41.230,-8.260
8632959,-0.514,0.003,0.061,0.630,40.390,-7.980
8632976,-0.540,-0.013,0.058,-0.840,46.830,-9.380
8633000,-0.649,-0.020,0.117,-2.310,43.960,-9.940
8633020,-0.731,-0.052,0.066,-2.240,42.140,-9.310
8633039,-0.818,-0.076,0.092,-0.070,40.180,-8.260
8633062,-0.892,-0.084,0.065,3.500,36.120,-9.240
8633082,-0.867,-0.095,0.052,-2.170,40.530,-9.170
8633104,-0.786,-0.027,0.068,-3.430,41.370,-12.250
8633123,-0.785,-0.002,0.060,5.040,38.430,-13.720
8633143,-0.873,-0.020,-0.003,10.220,43.750,-13.580
8633163,-0.865,-0.010,-0.023,4.620,48.020,-11.830
8633182,-0.891,-0.106,0.020,0.350,49.840,-11.760
8633201,-0.958,-0.122,0.017,2.730,40.740,-12.040
8633223,-1.003,-0.089,-0.049,7.770,30.730,-12.810
8633241,-0.994,-0.064,-0.091,6.370,36.820,-10.150
8633266,-1.102,-0.060,-0.037,3.850,33.880,-12.250
8633286,-1.080,-0.020,-0.112,-0.070,31.570,-14.070
8633305,-1.069,0.004,-0.073,-1.610,32.900,-13.580
8633324,-1.058,0.005,-0.043,-4.270,31.080,-12.460
8633347,-1.053,-0.095,-0.126,-8.890,20.720,-10.500
8633367,-1.051,-0.146,-0.158,-13.440,17.920,-9.800
8633390,-1.017,-0.191,-0.137,-4.200,19.740,-12.670
8633411,-1.085,-0.127,-0.141,2.730,20.020,-13.300
8633430,-1.082,-0.152,-0.181,-5.040,16.380,-10.570
8633454,-1.067,-0.062,-0.173,-6.020,13.090,-7.070
8633474,-1.077,-0.007,-0.211,-0.770,13.650,0.000
8633494,-1.136,-0.048,-0.244,-7.910,18.340,0.840
8633513,-1.173,-0.169,-0.290,-13.860,12.040,0.210
8633536,-1.225,-0.168,-0.329,-16.590,23.030,-0.070
8633557,-1.181,-0.122,-0.264,-5.880,17.990,-3.780
8633577,-1.233,-0.208,-0.350,-7.210,15.540,-9.240
8633601,-1.207,-0.197,-0.403,-14.350,24.150,-4.550
8633621,-1.139,-0.136,-0.307,-14.700,34.930,-3.360
8633639,-1.225,-0.151,-0.064,0.420,13.160,-8.330
8633660,-1.213,-0.113,-0.312,-8.120,-1.680,-1.330
8633679,-1.198,-0.147,-0.372,-5.950,4.060,-0.140
8633702,-1.312,-0.171,-0.380,-0.910,1.890,-0.490
8633723,-1.380,-0.176,-0.323,3.920,-1.960,-1.610
8633743,-1.471,0.013,-0.344,-0.630,-13.790,5.880
8633766,-1.466,-0.100,-0.513,-1.470,-12.880,3.290
8633787,-1.502,-0.170,-0.452,-7.910,-10.220,0.210
8633804,-1.537,-0.138,-0.479,-6.230,-8.470,3.850
8633828,-1.524,-0.070,-0.401,-5.740,-7.070,3.010
8633848,-1.437,-0.241,-0.380,-7.630,-7.770,0.700
8633868,-1.361,-0.191,-0.368,-0.980,-5.600,-3.780
8633888,-1.446,-0.086,-0.280,-0.420,-8.680,0.280
8633907,-1.428,-0.037,-0.280,6.790,-20.930,3.570
8633931,-1.278,-0.105,-0.379,7.210,-11.480,0.840
8633952,-1.236,-0.146,-0.231,-2.380,-4.060,0.910
8633976,-1.281,-0.150,-0.257,-0.490,-20.370,-0.910
8633996,-1.190,-0.061,-0.340,-2.450,-13.860,0.000
8634011,-1.121,-0.098,-0.240,-4.130,-4.760,1.260
8634036,-1.185,-0.186,-0.138,3.220,-3.010,2.310
8634056,-1.218,-0.165,-0.147,2.730,-19.250,4.340
8634075,-1.086,-0.125,-0.249,3.920,-22.470,2.730
8634099,-1.039,-0.076,-0.167,8.960,-13.860,0.070
8634119,-1.150,0.013,-0.069,16.100,-29.680,3.850
8634138,-1.085,-0.059,-0.085,15.750,-37.800,5.180
8634156,-1.049,-0.079,-0.082,9.730,-41.160,7.630
8634178,-1.002,-0.038,-0.023,5.740,-44.520,7.350
8634200,-0.831,-0.109,-0.066,19.040,-50.050,5.180
8634217,-0.754,-0.146,-0.041,20.300,-43.890,5.600
8634241,-0.794,-0.083,-0.008,13.230,-49.210,6.720
8634261,-0.827,-0.020,-0.013,0.770,-54.670,6.020
8634280,-0.802,-0.012,-0.012,7.210,-53.410,3.780
8634299,-0.740,-0.061,0.024,9.660,-48.230,6.020
8634323,-0.737,-0.075,0.074,1.960,-50.400,10.150
8634344,-0.781,-0.024,0.083,0.770,-58.590,10.150
8634362,-0.766,-0.019,0.070,4.340,-59.290,10.710
8634382,-0.702,-0.048,0.038,3.780,-57.330,11.760
8634402,-0.659,-0.079,0.036,-1.470,-50.820,13.370
8634426,-0.688,-0.095,0.102,-1.120,-52.640,13.580
8634446,-0.640,-0.086,0.102,0.000,-55.020,11.130
8634466,-0.601,-0.074,0.064,2.170,-56.700,8.400
8634485,-0.514,-0.054,0.004,3.710,-58.940,5.670
8634506,-0.466,-0.026,-0.050,3.850,-52.220,5.460
8634527,-0.498,0.021,-0.058,4.480,-46.550,3.990
8634544,-0.510,-0.009,-0.030,6.440,-37.450,2.240
8634568,-0.608,0.004,0.076,7.770,-18.620,0.560
8634584,-0.778,-0.008,0.123,5.670,-7.210,0.560
8634607,-1.059,-0.023,0.168,0.980,-2.030,0.840
8634627,-1.262,-0.039,0.178,0.350,-8.120,1.610
8634647,-1.219,-0.060,0.153,3.010,-6.160,1.890
8634671,-1.178,-0.048,0.167,7.630,-4.130,0.140
8634691,-1.088,-0.036,0.149,1.680,0.980,0.350
8634710,-1.019,0.008,0.147,-3.010,6.300,-2.870
8634730,-0.979,0.032,0.190,-4.270,5.390,-4.270
8634753,-0.923,0.014,0.177,-1.960,1.610,-3.500
8634774,-0.888,-0.022,0.145,-1.470,2.100,-2.660
8634795,-0.917,-0.040,0.127,1.260,3.710,-3.080
8634813,-0.954,-0.038,0.125,1.190,6.300,-3.990
8634831,-1.006,-0.029,0.150,1.120,8.470,-4.130
8634855,-1.037,-0.040,0.159,0.350,6.510,-4.690
8634875,-1.044,-0.053,0.119,-3.360,7.420,-4.200
8634893,-1.009,-0.071,0.100,-4.760,11.550,-3.570
8634917,-0.986,-0.083,0.118,-3.150,16.030,-3.920
8634936,-0.963,-0.072,0.131,-1.820,11.830,-4.130
8634957,-0.904,-0.039,-0.001,-2.730,17.150,-5.600
8634977,-0.878,0.006,-0.060,-3.430,35.280,-6.860
8634994,-0.862,0.013,0.051,-4.270,42.910,-8.820
8635012,-0.837,0.011,0.174,1.400,37.100,-7.280
8635037,-0.779,-0.056,0.108,5.740,31.990,-6.020
8635056,-0.731,-0.109,0.063,1.540,29.890,-5.040
8635073,-0.702,-0.106,-0.010,-4.550,31.500,-5.110
8635097,-0.725,-0.034,0.052,0.350,32.970,-7.070
8635117,-0.782,-0.011,0.072,6.020,30.310,-8.610
8635140,-0.787,-0.007,0.054,3.780,32.410,-9.030
8635160,-0.819,-0.034,0.078,1.050,31.990,-6.720
8635179,-0.905,-0.057,0.065,3.570,22.820,-3.920
8635203,-0.892,-0.050,0.034,3.010,27.300,-2.590
8635221,-0.921,-0.069,0.128,4.060,30.590,-4.620
8635241,-0.883,-0.083,0.109,8.470,20.510,-5.810
8635265,-0.848,-0.065,0.051,9.590,19.320,-5.180
8635285,-0.831,-0.084,0.047,6.860,19.390,-6.090
8635302,-0.813,-0.080,0.033,10.010,19.600,-8.820
8635326,-0.810,-0.041,0.055,7.910,23.380,-8.820
8635347,-0.838,-0.011,0.072,0.140,17.850,-7.910
8635366,-0.795,0.013,-0.022,-6.090,18.690,-6.510
8635385,-0.827,0.004,-0.022,1.050,22.540,-6.020
8635403,-0.862,-0.006,0.003,7.350,20.090,-2.240
8635422,-0.932,-0.041,-0.009,-0.980,21.700,1.330
8635445,-1.019,-0.128,-0.036,-11.480,23.170,2.730
8635464,-1.097,-0.113,-0.009,-8.330,15.960,1.050
8635488,-1.066,-0.071,-0.036,-2.240,13.300,-1.330
8635508,-1.013,-0.067,-0.082,-4.060,16.310,-3.290
8635528,-1.032,-0.105,-0.028,-7.910,17.150,-2.730
8635547,-1.020,-0.083,-0.085,-7.490,12.810,-3.220
8635571,-1.005,-0.050,-0.091,-2.170,16.380,-5.180
8635590,-1.041,-0.058,-0.001,-1.680,12.320,-4.340
8635610,-1.061,-0.086,-0.065,0.070,6.300,-3.360
8635632,-1.058,-0.108,-0.119,5.740,2.590,-4.550
8635652,-1.040,-0.091,-0.116,0.770,4.970,-2.870
8635676,-1.043,-0.089,-0.129,-2.800,5.320,-1.330
8635696,-1.078,-0.109,-0.119,1.050,4.130,-0.910
8635720,-1.201,-0.126,-0.109,-0.910,-0.350,0.280
8635738,-1.250,-0.131,-0.220,-2.520,-5.320,-2.170
8635760,-1.234,-0.099,-0.348,0.980,3.080,-1.050
8635780,-1.208,-0.064,-0.328,-1.120,21.700,-3.080
8635797,-1.196,-0.077,-0.170,-8.610,28.490,-6.580
8635821,-1.249,-0.066,-0.000,-2.590,5.460,-6.790
8635841,-1.198,-0.075,-0.224,0.770,10.220,-5.530
8635861,-1.184,-0.165,-0.131,5.810,13.020,-8.540
8635881,-1.259,-0.019,-0.111,-3.640,5.530,-3.430
8635902,-1.327,-0.122,-0.256,-3.570,8.330,-1.750
8635919,-1.348,-0.091,-0.273,1.120,10.990,-1.330
8635942,-1.370,-0.145,-0.210,5.320,4.060,-3.640
8635960,-1.472,-0.061,-0.226,-4.060,6.160,0.070
8635980,-1.452,-0.116,-0.241,-6.160,5.950,2.450
8636004,-1.423,-0.122,-0.386,0.140,2.310,2.870
8636019,-1.440,-0.047,-0.311,3.780,2.660,-0.140
8636045,-1.441,-0.067,-0.257,-3.850,4.760,0.840
8636064,-1.399,-0.086,-0.266,-6.720,6.090,1.120
8636083,-1.342,-0.123,-0.298,-3.010,1.400,1.050
8636102,-1.325,-0.127,-0.241,-1.610,3.990,-1.050
8636127,-1.376,-0.116,-0.171,-5.950,0.980,-4.130
8636147,-1.293,-0.071,-0.218,-2.380,-2.170,-3.220
8636165,-1.216,-0.076,-0.271,1.190,-1.120,-2.170
8636189,-1.211,-0.043,-0.245,-5.040,3.080,-2.380
8636205,-1.190,-0.061,-0.220,-11.130,2.660,-3.500
8636225,-1.161,-0.079,-0.205,-10.290,2.590,-3.290
8636247,-1.217,-0.075,-0.166,-4.760,-5.250,1.190
8636270,-1.209,-0.138,-0.211,-2.590,-7.840,2.870
8636291,-1.165,-0.124,-0.156,-7.980,-8.680,4.760
8636309,-1.184,-0.126,-0.175,-1.050,-13.510,3.570
8636329,-1.163,-0.135,-0.187,5.880,-12.180,-0.490
8636353,-1.067,-0.113,-0.137,7.630,-11.900,-0.770
8636373,-1.083,-0.059,-0.093,-2.520,-20.440,3.010
8636393,-1.173,0.032,-0.093,-4.620,-25.970,3.990
8636410,-1.105,-0.061,-0.128,-2.030,-24.920,2.450
8636433,-0.988,-0.047,-0.041,2.940,-25.970,2.380
8636452,-0.973,-0.030,0.043,1.470,-32.550,3.640
8636477,-0.922,-0.086,-0.003,-3.710,-44.380,3.850
8636493,-0.852,-0.111,-0.097,-4.900,-47.670,2.030
8636512,-0.810,-0.117,-0.122,4.410,-41.650,-1.540
8636537,-0.845,-0.081,-0.006,9.240,-33.950,-1.330
8636554,-0.788,-0.046,0.060,2.940,-36.050,1.470
8636579,-0.740,-0.017,0.046,-4.690,-47.180,4.550
8636598,-0.683,-0.028,0.016,-1.820,-47.600,5.740
8636615,-0.691,-0.019,0.027,0.700,-46.340,6.930
8636640,-0.715,-0.058,0.060,3.220,-45.080,7.700
8636659,-0.747,-0.047,0.051,3.500,-47.460,7.630
8636675,-0.809,-0.008,0.056,0.910,-49.420,6.720
8636694,-0.899,-0.019,0.075,-3.850,-52.640,7.000
8636718,-0.870,-0.078,0.061,-3.360,-55.440,8.960
8636739,-0.706,-0.093,0.074,1.540,-57.610,10.220
8636758,-0.593,-0.074,0.020,-0.210,-57.960,10.220
8636777,-0.513,-0.041,-0.010,-2.310,-57.820,9.730
8636801,-0.447,-0.016,-0.053,-2.100,-51.450,9.800
8636821,-0.468,-0.026,-0.029,3.360,-38.430,8.750
8636839,-0.554,-0.044,0.053,10.430,-30.310,6.440
8636859,-0.727,-0.049,0.133,14.630,-18.130,5.600
8636883,-1.000,-0.023,0.214,13.370,-11.900,4.830
8636901,-1.165,-0.007,0.203,8.190,-13.580,2.030
8636924,-1.166,0.004,0.184,7.350,-10.850,0.560
8636940,-1.138,0.006,0.190,7.700,-8.120,0.700
8636963,-1.071,0.014,0.174,7.490,-6.020,2.590
8636983,-1.022,-0.005,0.164,0.980,-3.850,2.940
8637002,-1.006,-0.005,0.186,-1.820,-5.670,2.590
8637022,-0.951,-0.012,0.176,-2.380,-11.130,2.170
8637044,-0.946,-0.025,0.120,-3.640,-10.290,0.840
8637068,-0.974,-0.012,0.160,-4.970,-5.180,-0.770
8637088,-0.987,-0.009,0.191,-2.450,-4.760,-0.840
8637108,-1.048,-0.006,0.186,-0.910,-5.390,-0.840
8637124,-1.050,-0.004,0.170,0.210,-4.480,-1.260
8637143,-1.017,-0.004,0.183,-0.140,-2.520,-1.470
8637166,-0.990,-0.012,0.193,-1.400,-3.080,-1.540
8637186,-0.985,-0.024,0.178,-2.170,-3.710,-2.590
8637206,-0.994,-0.024,0.166,-2.520,-4.340,-3.360
8637229,-0.985,-0.032,0.140,-0.910,-1.820,-3.990
8637250,-0.951,-0.037,0.146,1.680,1.820,-5.460
8637268,-0.937,-0.023,0.115,2.660,5.460,-6.860
8637292,-0.924,-0.018,0.115,2.450,16.450,-7.700
8637308,-0.900,-0.010,0.149,3.500,21.560,-7.980
8637332,-0.850,-0.013,0.147,4.340,23.240,-7.630
8637351,-0.804,0.120,0.107,3.920,24.920,-7.770
8637375,-0.726,0.003,0.106,3.920,25.060,-7.140
8637395,-0.706,-0.014,0.093,5.530,21.910,-5.950
8637411,-0.681,-0.024,0.115,7.350,23.310,-5.950
8637432,-0.679,-0.016,0.139,9.660,23.450,-7.140
8637453,-0.748,-0.025,0.144,12.740,21.980,-8.610
8637477,-0.785,-0.007,0.098,9.940,23.240,-9.100
8637497,-0.829,0.002,0.087,2.800,29.960,-8.400
8637517,-0.887,-0.005,0.125,3.010,33.390,-8.680
8637540,-0.868,-0.007,0.146,3.290,29.610,-7.420
8637558,-0.854,-0.035,0.122,5.180,27.370,-6.090
8637577,-0.846,-0.015,0.105,5.740,29.680,-6.580
8637602,-0.840,-0.032,0.094,5.320,34.090,-5.110
8637620,-0.802,-0.078,0.081,3.360,34.580,-3.850
8637643,-0.773,-0.066,0.075,1.190,32.830,-5.460
8637663,-0.823,-0.055,0.076,5.180,31.780,-9.170
8637683,-0.867,-0.042,0.045,4.200,38.920,-11.270
8637702,-0.856,-0.058,0.014,2.030,45.150,-11.270
8637726,-0.917,-0.057,0.027,-0.560,43.330,-7.280
8637747,-0.952,-0.074,-0.004,2.170,39.830,-8.260
8637766,-0.950,-0.043,0.004,1.400,44.170,-7.000
8637786,-0.974,-0.067,0.046,1.050,40.740,-4.760
8637806,-1.004,-0.080,0.006,-6.160,26.530,-4.340
8637826,-1.002,-0.109,-0.056,-1.330,22.890,-6.510
8637845,-1.044,-0.104,-0.035,6.580,22.050,-9.520
8637868,-1.043,-0.119,0.011,3.080,20.020,-9.310
8637889,-1.119,-0.139,-0.055,1.680,11.760,-7.910
8637904,-1.139,-0.122,-0.205,6.370,15.680,-11.410
8637926,-1.142,-0.131,-0.176,3.290,27.720,-8.470
8637947,-1.116,-0.175,-0.033,-0.910,24.290,-9.030
8637964,-1.097,-0.081,-0.002,-0.210,18.690,-12.110
8637989,-1.089,0.072,-0.026,3.570,9.800,-7.490
8638008,-1.002,0.068,-0.135,7.630,5.740,-3.430
8638029,-0.999,-0.120,-0.123,7.630,7.700,2.310
8638049,-1.031,-0.098,-0.103,-0.490,3.500,6.650
8638070,-1.107,-0.211,-0.221,0.280,6.160,4.900
8638089,-1.140,-0.138,-0.194,7.280,11.970,2.800
8638107,-1.205,-0.063,-0.150,7.840,11.130,2.100
8638130,-1.161,-0.242,-0.162,0.420,1.750,-2.380
8638150,-1.144,-0.242,-0.247,7.910,6.510,-10.010
8638171,-1.190,-0.142,-0.188,4.830,14.350,-9.590
8638187,-1.375,-0.243,-0.139,5.250,4.970,-10.010
8638211,-1.571,-0.208,-0.311,14.560,-17.360,-9.380
8638229,-1.588,-0.034,-0.508,9.590,-4.760,-3.640
8638251,-1.716,-0.225,-0.266,4.900,1.610,-1.890
8638275,-1.677,-0.267,-0.279,7.840,-13.580,0.840
8638295,-1.570,-0.077,-0.383,10.150,-8.190,2.660
8638315,-1.434,-0.007,-0.266,-1.540,2.170,4.480
8638336,-1.385,-0.119,-0.199,-5.810,6.580,1.050
8638357,-1.326,-0.180,-0.222,-7.070,10.080,-0.840
8638377,-1.263,-0.159,-0.268,-7.770,18.130,-2.800
8638401,-1.267,-0.110,-0.229,-12.040,25.620,-2.310
8638420,-1.292,-0.080,-0.207,-18.690,19.390,-0.490
8638439,-1.280,-0.056,-0.226,-17.920,13.720,0.140
8638463,-1.253,-0.065,-0.220,-18.270,9.170,3.360
8638483,-1.226,-0.072,-0.239,-17.290,11.340,3.710
8638503,-1.254,-0.078,-0.186,-18.060,6.510,5.250
8638524,-1.228,-0.163,-0.233,-12.670,-4.550,5.250
8638544,-1.098,-0.144,-0.237,-5.950,-1.190,4.760
8638567,-1.092,-0.147,-0.153,-4.340,-3.290,6.650
8638587,-1.152,-0.117,-0.142,-5.180,-13.440,5.670
8638606,-1.093,-0.063,-0.132,-3.150,-16.100,3.990
8638625,-1.036,-0.091,-0.121,-0.630,-16.380,1.470
8638647,-1.137,0.001,-0.059,-0.700,-25.480,8.470
8638671,-1.120,-0.015,-0.116,1.960,-32.480,8.330
8638691,-0.999,-0.047,-0.101,2.660,-34.580,6.440
8638710,-1.035,-0.098,-0.103,0.910,-37.660,9.030
8638734,-1.058,-0.109,-0.079,5.600,-40.320,9.590
8638753,-1.016,-0.088,-0.051,6.580,-41.020,6.440
8638769,-0.948,-0.061,-0.059,6.580,-43.470,6.440
8638794,-0.930,-0.070,-0.025,9.100,-47.950,5.110
8638814,-0.902,-0.055,-0.033,14.070,-51.380,5.810
8638834,-0.873,-0.005,0.037,9.170,-51.800,5.250
8638855,-0.757,0.019,0.049,3.990,-55.790,4.480
8638872,-0.698,0.064,0.040,4.340,-59.570,4.620
8638896,-0.644,-0.009,0.030,6.370,-58.800,7.700
8638914,-0.670,-0.033,0.065,1.960,-56.840,9.940
8638934,-0.691,-0.031,0.032,-5.880,-56.140,11.620
8638958,-0.729,-0.003,0.013,-6.720,-54.250,9.310
8638978,-0.781,-0.028,0.076,-2.380,-54.250,7.630
8638998,-0.830,-0.050,0.094,-3.850,-54.880,6.300
8639018,-0.819,-0.069,0.114,-7.980,-52.010,4.340
8639038,-0.660,-0.032,0.117,-8.120,-51.660,3.500
8639057,-0.622,-0.011,0.087,-0.700,-49.700,2.660
8639075,-0.583,-0.015,0.065,3.780,-47.320,3.850
8639095,-0.543,-0.002,0.039,1.750,-42.420,4.270
8639119,-0.565,0.018,0.045,-2.800,-32.340,4.270
8639137,-0.667,0.002,0.099,-3.290,-26.460,3.150
8639161,-0.809,0.000,0.138,-1.050,-17.010,2.940
8639181,-0.940,-0.002,0.211,1.190,-8.820,2.730
8639200,-1.085,-0.032,0.253,0.840,-6.930,2.170
8639220,-1.143,-0.050,0.243,0.350,-10.990,2.730
8639241,-1.086,-0.081,0.186,-1.120,-9.030,2.170
8639261,-1.079,-0.020,0.191,-3.500,-8.400,1.050
8639280,-1.015,0.020,0.172,-7.070,-5.110,0.000
8639304,-0.963,0.007,0.184,-11.200,-1.050,-0.490
8639325,-0.924,-0.028,0.176,-12.390,-0.070,-0.280
8639343,-0.922,-0.031,0.183,-8.190,3.640,-0.210
8639359,-0.950,0.003,0.211,-4.410,3.710,0.000
8639384,-0.966,0.006,0.219,-0.210,3.010,0.350
8639404,-1.014,-0.010,0.225,0.420,-1.540,0.840
8639424,-1.012,-0.037,0.194,0.840,1.190,0.070
8639441,-1.008,-0.037,0.220,1.260,-0.140,-1.190
8639464,-1.029,-0.051,0.205,1.400,-3.010,-2.520
8639485,-1.024,-0.051,0.155,2.170,1.120,-3.710
8639502,-0.878,-0.050,0.157,4.060,5.110,-5.320
8639521,-0.986,-0.035,0.175,5.600,5.810,-6.160
8639546,-0.991,-0.035,0.165,8.680,5.670,-6.720
8639565,-0.934,-0.020,0.139,10.710,7.910,-7.280
8639588,-0.892,0.005,0.127,10.430,12.460,-7.420
8639607,-0.843,0.032,0.121,7.350,17.010,-7.630
8639626,-0.797,0.057,0.117,4.130,20.510,-7.000
8639651,-0.761,0.068,0.110,1.400,21.560,-6.650
8639671,-0.717,0.054,0.127,2.800,21.140,-5.320
8639691,-0.701,0.014,0.166,9.590,17.150,-4.200
8639710,-0.747,-0.052,0.175,18.970,8.680,-4.130
8639730,-0.751,-0.098,0.179,25.340,9.380,-3.500
8639753,-0.799,-0.102,0.186,24.290,9.240,-3.850
8639774,-0.877,-0.044,0.138,15.960,11.480,-5.530
8639797,-0.932,-0.023,0.164,7.210,19.530,-10.010
8639817,-0.944,0.027,0.208,-2.870,19.180,-13.090
8639841,-0.902,0.032,0.174,-5.180,21.770,-12.110
8639861,-0.823,0.038,0.139,-7.630,29.890,-9.170
8639877,-0.799,0.029,0.126,-11.550,34.440,-7.000
8639897,-0.766,-0.022,0.098,-13.650,36.820,-6.090
8639921,-0.753,-0.061,0.095,-6.090,37.450,-7.350
8639941,-0.734,-0.034,0.096,3.290,37.170,-10.500
8639957,-0.722,-0.066,0.091,1.820,41.440,-13.020
8639977,-0.745,-0.102,0.094,-1.820,44.730,-13.440
8639996,-0.806,-0.047,0.075,-4.970,42.210,-14.000
8640021,-0.868,-0.035,0.037,-0.210,41.790,-12.530
8640040,-0.931,0.010,0.035,2.730,43.190,-10.920
8640059,-0.935,-0.039,0.018,0.140,44.380,-10.010
8640083,-0.974,-0.069,0.018,-2.100,41.930,-7.910
8640103,-1.004,-0.099,-0.039,-0.980,39.340,-8.680
8640118,-1.051,-0.089,-0.027,1.540,43.050,-9.380
8640143,-1.108,-0.141,0.028,-1.120,35.280,-7.000
8640163,-1.107,-0.170,-0.059,-8.050,24.080,-7.980
8640183,-1.126,-0.077,-0.116,-7.840,26.810,-9.030
8640201,-1.138,-0.042,-0.089,-3.010,28.910,-8.400
8640225,-1.111,-0.102,-0.082,5.250,34.510,-6.860
8640245,-1.088,-0.099,-0.032,4.130,33.810,-1.260
8640264,-1.059,-0.134,0.057,0.000,25.900,1.470
8640284,-1.012,-0.094,-0.083,10.500,19.320,0.770
8640301,-0.964,0.002,-0.134,12.460,17.010,3.640
8640325,-0.974,-0.074,-0.059,3.080,11.970,-2.240
8640345,-1.054,-0.092,-0.114,-4.830,4.900,-3.640
8640364,-1.076,-0.041,-0.229,-8.400,1.610,-1.190
8640389,-1.102,-0.135,-0.307,0.770,-4.060,-7.280
8640407,-1.232,-0.193,-0.318,-0.210,6.090,-12.600
8640429,-1.372,-0.166,-0.224,3.360,9.310,-12.740
8640449,-1.514,-0.210,-0.259,7.980,-3.710,-4.620
8640473,-1.472,-0.368,-0.471,10.780,5.880,0.560
8640494,-1.436,-0.232,-0.293,7.140,16.450,1.050
8640512,-1.539,-0.073,-0.133,-13.370,4.200,8.470
8640532,-1.464,-0.159,-0.304,-10.990,-9.030,6.160
8640556,-1.390,-0.128,-0.305,-1.610,1.330,-0.560
8640576,-1.407,-0.100,-0.293,-1.260,10.710,-2.660
8640596,-1.417,-0.103,-0.164,-11.690,1.890,-2.100
8640612,-1.389,-0.193,-0.209,-7.630,-4.480,-1.400
8640636,-1.389,-0.146,-0.333,3.080,-0.770,-3.220
8640656,-1.374,-0.094,-0.326,-4.620,2.520,-1.680
8640674,-1.339,-0.183,-0.286,-6.230,6.930,0.910
8640693,-1.348,-0.146,-0.210,-4.060,4.830,3.150
8640718,-1.349,-0.108,-0.222,-5.530,-0.910,4.480
8640737,-1.300,-0.132,-0.229,-4.620,3.150,5.180
8640758,-1.230,-0.109,-0.196,-6.370,3.220,7.280
8640782,-1.187,-0.047,-0.231,-6.160,3.010,6.860
8640801,-1.187,-0.060,-0.204,-5.530,5.950,5.670
8640822,-1.225,-0.104,-0.194,-8.260,-0.560,8.190
8640841,-1.202,-0.137,-0.224,-7.140,-4.410,7.070
8640862,-1.167,-0.115,-0.243,-1.610,-4.130,6.580
8640880,-1.162,-0.107,-0.202,-2.310,0.630,6.090
8640902,-1.159,-0.112,-0.132,-4.340,-8.540,6.930
8640922,-1.116,-0.128,-0.227,-0.630,-14.910,3.850
8640941,-1.084,-0.041,-0.190,7.980,-14.070,4.900
8640960,-1.140,0.019,-0.074,10.150,-16.800,7.910
8640983,-1.094,-0.022,-0.004,0.490,-19.810,6.930
8641003,-1.030,-0.026,0.009,1.890,-27.020,6.020
8641023,-1.007,-0.042,-0.014,5.810,-37.380,5.950
8641042,-0.935,-0.011,-0.153,3.150,-40.950,5.460
8641067,-0.833,0.001,-0.113,-4.550,-30.730,5.320
8641086,-0.831,-0.009,-0.007,-3.640,-27.860,5.390
8641103,-0.872,-0.059,0.038,2.240,-32.690,4.130
8641122,-0.860,-0.103,0.006,7.630,-38.360,3.920
8641142,-0.814,-0.126,-0.030,11.200,-42.770,6.160
8641167,-0.765,-0.111,-0.083,16.100,-42.140,3.990
8641187,-0.733,-0.036,-0.042,13.510,-36.540,2.590
8641207,-0.693,0.014,-0.010,8.330,-33.390,4.270
8641224,-0.696,0.056,0.002,5.250,-41.160,6.650
8641248,-0.691,0.099,-0.034,3.640,-43.960,10.430
8641268,-0.744,0.092,0.058,-0.980,-42.000,11.970
8641285,-0.799,0.085,0.070,-0.770,-46.480,10.640
8641309,-0.828,0.011,0.035,3.360,-55.580,9.450
8641329,-0.808,-0.007,-0.006,-2.730,-53.830,8.610
8641353,-0.783,-0.010,0.018,-10.360,-44.030,7.070
8641373,-0.629,-0.029,0.047,-8.540,-44.800,4.270
8641393,-0.701,-0.038,0.009,-3.220,-45.290,1.120
8641413,-0.673,-0.072,0.019,-1.890,-42.490,-0.140
8641432,-0.668,-0.046,0.038,-0.280,-40.110,-0.140
8641455,-0.754,-0.029,0.073,2.310,-35.350,-0.070
8641477,-0.849,-0.005,0.079,3.850,-32.060,-0.140
8641497,-0.889,0.021,0.129,3.010,-25.690,0.000
8641516,-0.944,0.038,0.161,2.870,-23.870,0.210
8641536,-0.996,0.015,0.118,-0.210,-20.580,1.470
8641555,-1.042,0.003,0.130,-5.040,-10.080,1.960
8641578,-1.078,-0.025,0.197,-7.910,-9.940,1.750
8641595,-1.064,-0.020,0.232,-11.480,-11.760,0.980
8641620,-1.030,-0.022,0.250,-10.710,-18.900,0.420
8641640,-0.998,-0.019,0.224,-8.120,-19.460,0.770
8641659,-0.982,-0.004,0.220,-8.610,-18.620,1.050
8641678,-0.923,0.005,0.156,-7.490,-16.240,1.330
8641701,-0.915,-0.013,0.122,-6.020,-10.710,1.400
8641722,-0.944,-0.020,0.125,-3.290,-0.140,0.560
8641741,-0.971,-0.031,0.194,-0.910,4.060,-0.210
8641765,-1.055,-0.045,0.238,0.700,1.540,-1.330
8641786,-1.032,-0.051,0.177,-1.190,2.240,-3.150
8641804,-0.949,-0.020,0.115,-1.190,8.610,-4.480
8641823,-0.925,-0.014,0.128,-3.500,13.300,-4.900
8641845,-0.896,-0.016,0.072,-1.890,21.770,-5.040
8641869,-0.842,0.001,0.063,-1.190,34.510,-4.760
8641890,-0.802,0.002,0.047,-0.700,43.190,-4.620
8641908,-0.787,0.019,0.093,-0.070,44.800,-3.010
8641928,-0.745,-0.000,0.086,5.530,38.150,-1.680
8641947,-0.716,0.032,0.051,6.580,33.670,-0.420
8641972,-0.677,0.060,0.040,5.740,39.340,1.960
8641993,-0.678,0.003,0.119,10.010,36.470,2.240
8642010,-0.694,-0.001,0.145,12.810,26.040,2.590
8642034,-0.730,-0.001,0.100,6.580,28.770,1.120
8642053,-0.850,0.031,0.164,-1.960,37.800,-1.610
8642075,-0.968,0.015,0.134,-1.400,30.450,-5.390
8642094,-0.916,-0.015,0.046,3.150,34.720,-7.630
8642113,-0.907,-0.038,0.029,0.490,37.520,-7.490
8642131,-0.900,-0.053,0.005,2.030,40.460,-7.350
8642155,-0.887,-0.007,0.067,10.430,38.150,-7.840
8642174,-0.885,-0.030,0.052,20.860,36.050,-8.960
8642198,-0.867,-0.042,0.060,14.280,37.100,-8.050
8642218,-0.870,-0.069,0.057,5.460,33.110,-10.080
8642236,-0.891,-0.016,0.024,4.060,23.730,-13.510
8642257,-0.873,0.063,-0.047,14.910,24.920,-15.260
8642277,-0.916,0.030,-0.001,19.250,33.740,-15.050
8642301,-0.968,-0.057,0.030,10.150,35.910,-12.810
8642321,-1.007,-0.072,0.041,2.870,28.070,-10.640
8642340,-1.003,-0.076,0.057,9.450,24.920,-11.410
8642363,-0.965,-0.065,0.045,13.580,18.550,-12.950
8642382,-0.921,-0.107,-0.090,5.880,13.090,-11.130
8642400,-0.899,-0.098,-0.249,3.920,15.260,-9.590
8642424,-0.906,-0.021,-0.181,-1.890,23.100,-7.000
8642442,-0.966,0.004,-0.128,-4.340,23.380,-3.920
8642465,-1.087,-0.088,-0.056,2.450,17.850,-1.890
8642489,-1.201,-0.122,-0.055,9.520,10.010,-3.430
8642509,-1.288,-0.117,-0.105,-5.950,8.890,-5.040
8642528,-1.267,-0.083,-0.110,-6.860,4.130,-11.200
8642549,-1.122,-0.059,-0.122,5.810,5.460,-14.070
8642569,-1.053,-0.079,-0.171,6.650,2.030,-15.820
8642590,-1.025,-0.083,-0.264,1.050,12.810,-16.380
8642615,-1.058,-0.078,-0.179,-3.780,7.910,-11.130
8642634,-1.076,-0.039,-0.260,2.100,6.020,-10.710
8642653,-1.062,-0.053,-0.141,0.350,17.150,-11.340
8642676,-1.078,-0.061,-0.034,-6.510,10.920,-7.140
8642695,-1.040,-0.122,-0.149,-0.490,-2.800,-4.480
8642717,-1.073,-0.217,-0.158,3.360,-0.560,-11.410
8642738,-1.206,-0.291,-0.173,1.120,2.660,-10.990
8642759,-1.426,-0.208,-0.292,-4.200,1.400,1.190
8642779,-1.499,-0.136,-0.359,-3.710,0.420,5.320
8642798,-1.560,-0.080,-0.323,-12.670,10.850,1.750
8642822,-1.575,-0.088,-0.243,-23.170,-0.420,11.550
8642842,-1.539,-0.174,-0.388,-7.420,-7.280,11.270
8642861,-1.396,-0.210,-0.264,-8.960,-10.570,5.880
8642881,-1.332,-0.065,-0.246,-10.500,-4.130,0.630
8642900,-1.346,-0.061,-0.244,-2.100,3.640,-3.990
8642925,-1.287,-0.119,-0.276,2.520,4.690,-2.100
8642949,-1.200,-0.192,-0.259,2.730,15.540,-2.590
8642969,-1.196,-0.175,-0.134,-4.270,13.580,-3.360
8642987,-1.205,-0.180,-0.196,-5.670,9.800,-2.310
8643004,-1.187,-0.141,-0.268,-2.380,10.500,-0.490
8643026,-1.153,-0.098,-0.186,-3.080,9.030,2.730
8643045,-1.167,-0.063,-0.222,-7.840,1.960,5.390
8643070,-1.180,-0.063,-0.273,17.360,6.930,5.880
8643085,-1.206,-0.059,-0.237,2.170,7.700,8.750
8643109,-1.235,-0.054,-0.216,2.870,4.760,11.480
8643129,-1.209,-0.112,-0.227,-3.850,-2.240,10.850
8643147,-1.198,-0.071,-0.227,-2.800,-2.310,10.360
8643171,-1.210,-0.063,-0.254,3.150,-3.920,11.480
8643190,-1.170,-0.096,-0.260,-10.640,-6.790,11.970
8643210,-1.147,-0.157,-0.280,-14.140,-6.020,8.330
8643231,-1.162,-0.130,-0.140,-2.520,-2.240,5.600
8643252,-1.158,-0.041,-0.136,0.140,-15.610,5.880
8643271,-1.111,-0.089,-0.231,1.470,-18.900,4.900
8643295,-1.090,0.081,-0.157,1.050,-14.350,6.300
8643312,-1.119,0.013,-0.082,3.710,-17.290,7.770
8643334,-1.129,-0.023,-0.043,-3.150,-27.860,6.930
8643353,-1.087,-0.039,-0.151,-5.320,-39.410,5.600
8643377,-1.032,0.002,-0.143,-1.330,-39.060,3.080
8643398,-0.991,-0.016,-0.038,1.820,-40.880,2.730
8643418,-0.916,-0.031,-0.039,-0.560,-45.990,0.910
8643437,-0.834,0.028,-0.095,-3.990,-47.950,-1.120
8643459,-0.785,0.070,-0.098,-2.100,-43.400,-1.470
8643481,-0.753,0.016,-0.021,-3.570,-40.880,1.540
8643500,-0.740,-0.042,0.032,-3.570,-42.560,3.640
8643524,-0.763,-0.026,0.059,-0.980,-49.560,3.080
8643545,-0.767,-0.055,-0.014,-1.190,-49.210,4.970
8643564,-0.793,-0.075,0.036,1.680,-47.320,7.000
8643589,-0.813,-0.068,0.045,3.570,-46.620,4.620
8643609,-0.788,-0.037,0.039,0.000,-44.660,1.750
8643628,-0.742,-0.013,0.040,1.750,-43.750,-0.840
8643648,-0.753,-0.010,0.053,8.400,-43.540,-2.170
8643672,-0.740,0.008,0.075,8.330,-44.100,-0.280
8643692,-0.677,-0.018,0.090,4.550,-46.550,0.490
8643710,-0.678,-0.040,0.049,4.830,-47.740,-0.630
8643730,-0.667,-0.024,0.001,3.290,-43.400,-1.470
8643752,-0.671,-0.020,0.005,3.920,-39.410,-2.240
8643771,-0.635,0.009,0.004,5.390,-31.150,-3.220
8643794,-0.678,0.043,0.076,4.060,-25.200,-2.170
8643814,-0.754,0.018,0.067,3.990,-24.080,-1.400
8643834,-0.834,0.000,0.073,3.920,-23.170,-0.910
8643855,-0.932,0.010,0.120,-0.350,-13.370,-0.490
8643875,-1.060,-0.003,0.182,-1.050,-9.940,0.560
8643892,-1.113,-0.009,0.189,-0.560,-10.220,1.190
8643915,-1.115,-0.038,0.179,-2.800,-9.030,1.820
8643935,-1.102,-0.052,0.189,-6.090,-7.000,2.590
8643956,-1.081,-0.066,0.182,-6.930,-8.540,1.610
8643976,-1.040,-0.070,0.115,-8.680,-5.250,0.350
8644000,-0.994,-0.081,0.087,-10.430,3.850,-1.750
8644019,-0.992,-0.044,0.128,-7.630,6.580,-2.100
8644040,-0.995,-0.024,0.166,0.560,2.660,-0.910
8644059,-0.982,-0.044,0.166,0.210,0.910,0.630
8644082,-0.980,-0.028,0.203,0.560,2.310,0.420
8644102,-1.005,-0.026,0.223,-1.470,-2.800,0.630
8644122,-1.014,-0.041,0.189,-1.820,-5.950,0.210
8644142,-1.008,-0.038,0.177,-0.070,-9.800,-0.070
8644165,-0.993,-0.035,0.128,2.800,-9.450,-1.260
8644185,-1.015,-0.021,0.102,4.060,-3.290,-2.310
8644207,-1.025,-0.009,0.050,1.820,4.060,-2.170
8644226,-0.951,-0.007,0.042,0.280,16.800,-2.170
8644250,-0.915,0.011,0.064,0.420,20.580,-0.420
8644270,-0.912,0.020,0.121,-3.220,18.830,0.700
8644289,-0.906,0.016,0.128,-4.620,17.990,0.980
8644312,-0.903,-0.013,0.122,-6.230,14.840,2.170
8644333,-0.887,-0.002,0.132,-9.310,13.300,1.960
8644351,-0.849,0.011,0.104,-13.230,12.460,1.120
8644372,-0.788,-0.016,0.108,-8.960,11.060,-2.030
8644392,-0.721,-0.089,0.122,0.700,12.670,-5.810
8644411,-0.717,-0.129,0.133,7.140,14.980,-9.100
8644435,-0.750,-0.121,0.128,13.020,19.390,-12.320
8644451,-0.774,-0.108,0.113,23.100,21.280,-15.610
8644471,-0.788,-0.079,0.116,29.680,26.810,-17.150
8644496,-0.825,-0.065,0.122,25.200,30.590,-15.610
8644516,-0.834,0.041,0.117,19.810,32.060,-15.680
8644535,-0.805,0.084,0.053,17.920,35.980,-14.630
8644553,-0.826,0.085,0.029,12.740,39.200,-13.580
8644575,-0.820,0.037,0.075,5.040,42.350,-10.990
8644599,-0.876,0.045,0.087,3.220,41.860,-6.300
8644619,-0.923,0.032,0.126,-5.460,37.940,-3.780
8644639,-0.908,-0.037,0.039,-8.260,32.200,-2.520
8644658,-0.921,-0.089,-0.036,-5.530,33.530,-1.400
8644677,-0.954,-0.115,0.026,-5.950,40.040,0.210
8644697,-0.936,-0.136,-0.001,-6.510,40.040,-0.980
8644721,-0.901,-0.060,0.007,-1.610,40.110,-5.110
8644741,-0.902,-0.017,0.024,2.450,36.120,-5.460
8644760,-0.925,-0.026,-0.023,8.050,31.220,-5.530
8644779,-0.941,-0.043,-0.022,3.290,27.440,-3.640
8644803,-0.961,-0.019,-0.036,-2.590,21.840,-1.120
8644823,-0.982,0.002,-0.057,-3.290,20.510,-1.890
8644842,-0.997,0.025,-0.052,-2.170,21.350,-0.420
8644861,-1.034,-0.063,-0.113,0.420,23.100,-3.500
8644885,-1.060,-0.072,-0.119,-1.820,26.180,-2.660
8644906,-1.090,-0.131,-0.190,-8.190,32.690,-3.920
8644923,-1.100,-0.154,-0.250,-10.710,44.450,-6.860
8644942,-1.080,-0.053,-0.201,-6.580,54.530,-10.780
8644966,-1.014,-0.085,-0.031,-12.320,44.660,-10.570
8644985,-1.091,-0.160,-0.127,-7.560,41.090,-9.870
8645009,-1.171,-0.084,-0.043,-3.990,19.740,-2.170
8645029,-1.073,-0.013,-0.205,1.400,6.930,1.540
8645048,-1.045,0.056,-0.193,9.800,2.940,3.710
8645070,-1.052,0.022,-0.144,11.270,-5.460,4.270
8645094,-1.056,-0.116,-0.179,9.310,-7.490,2.310
8645114,-1.022,-0.155,-0.219,17.570,-6.650,0.910
8645133,-0.999,-0.182,-0.240,24.360,-14.420,-4.200
8645154,-1.224,-0.160,-0.144,13.790,-22.680,-7.770
8645177,-1.381,-0.064,-0.239,16.240,-38.150,-7.000
8645198,-1.230,-0.007,-0.407,20.090,-29.260,-4.900
8645217,-1.152,-0.108,-0.275,15.820,-21.770,-7.700
8645237,-1.240,-0.224,-0.190,-2.520,-17.220,-5.880
8645256,-1.414,-0.253,-0.250,-1.540,-20.510,-7.490
8645279,-1.477,-0.063,-0.448,7.560,-16.170,-9.240
8645298,-1.511,-0.017,-0.428,0.700,-6.930,-4.480
8645321,-1.549,-0.265,-0.305,0.770,4.970,-5.670
8645346,-1.454,-0.183,-0.247,-2.870,9.100,-4.900
8645365,-1.400,-0.067,-0.217,1.890,14.770,-0.490
8645384,-1.338,-0.130,-0.215,0.770,13.720,0.070
8645400,-1.321,-0.166,-0.258,-0.910,14.560,-1.680
8645424,-1.317,-0.110,-0.254,-2.240,18.410,0.840
8645445,-1.301,-0.100,-0.235,-1.400,20.090,4.340
8645462,-1.277,-0.140,-0.222,-1.890,17.220,6.300
8645482,-1.256,-0.183,-0.232,-4.480,13.510,5.040
8645502,-1.262,-0.132,-0.190,-6.650,10.500,6.580
8645522,-1.251,-0.099,-0.231,-7.840,6.090,7.700
8645546,-1.207,-0.034,-0.122,-13.860,0.700,9.310
8645563,-1.224,-0.064,-0.167,-9.660,-0.700,10.150
8645583,-1.253,-0.064,-0.302,-3.080,-2.660,14.350
8645607,-1.090,-0.101,-0.341,-16.870,6.230,15.680
8645627,-1.116,-0.074,-0.307,-20.650,-3.850,13.160
8645652,-1.138,-0.013,-0.210,-15.540,-11.900,8.680
8645671,-1.091,0.088,-0.091,-7.490,-14.770,9.450
8645692,-1.123,0.037,0.004,-3.780,-19.740,11.900
8645711,-1.166,-0.065,-0.133,-10.150,-35.770,10.850
8645731,-0.987,-0.217,-0.208,-14.910,-35.980,5.740
8645751,-0.957,-0.214,-0.153,-4.900,-36.190,0.770
8645772,-0.987,-0.129,-0.059,1.260,-36.400,-0.840
8645790,-1.025,-0.107,0.004,1.960,-38.710,-1.540
8645811,-1.001,-0.101,-0.064,15.120,-45.920,-3.290
8645834,-0.916,-0.051,-0.094,18.970,-46.830,0.700
8645854,-0.876,0.028,-0.088,10.780,-42.910,3.150
8645878,-0.852,0.045,-0.061,3.360,-38.150,1.750
8645899,-0.826,0.028,0.011,1.050,-36.890,1.680
8645918,-0.751,-0.052,0.047,-0.280,-38.430,3.990
8645934,-0.732,-0.047,0.079,0.140,-42.280,4.340
8645956,-0.723,-0.007,0.038,-1.610,-49.280,3.850
8645976,-0.731,-0.013,0.012,-3.710,-46.410,2.380
8645995,-0.774,-0.022,0.048,-5.320,-47.530,2.310
8646019,-0.794,-0.027,0.046,-6.720,-47.040,2.100
8646039,-0.820,-0.023,0.079,-5.810,-47.950,1.820
8646061,-0.834,-0.032,0.086,-5.180,-46.410,0.280
8646083,-0.847,-0.025,0.090,-9.240,-44.520,1.820
8646103,-0.771,-0.032,0.097,-7.770,-41.510,1.050
8646123,-0.737,0.002,0.127,-6.300,-40.530,0.840
8646142,-0.712,0.007,0.123,-8.330,-41.370,2.520
8646162,-0.647,-0.045,0.099,-7.560,-37.940,4.130
8646186,-0.639,-0.049,0.112,-1.890,-33.040,3.010
8646203,-0.723,-0.020,0.121,-1.050,-28.840,2.800
8646227,-0.779,0.018,0.097,-2.170,-28.070,3.290
8646247,-0.824,0.027,0.059,-4.130,-25.200,3.010
8646266,-0.873,0.014,0.039,-2.520,-20.230,3.010
8646286,-0.913,-0.016,0.076,1.120,-8.470,3.360
8646310,-0.987,-0.054,0.116,3.430,1.190,2.870
8646330,-1.019,-0.052,0.192,3.220,0.840,1.470
8646349,-1.028,-0.047,0.192,3.640,-4.760,-0.280
8646374,-1.030,-0.032,0.137,5.880,-9.940,-2.030
8646393,-1.059,-0.021,0.096,7.280,-5.670,-3.500
8646417,-1.033,-0.032,0.121,6.650,-1.610,-2.030
8646434,-1.028,0.002,0.118,5.670,0.980,0.140
8646454,-1.003,-0.018,0.125,7.140,4.480,2.170
8646478,-1.027,-0.034,0.204,8.610,3.220,3.780
8646498,-1.019,-0.023,0.253,10.010,-0.560,1.680
8646518,-0.968,0.020,0.308,7.980,1.540,-1.330
8646537,-1.111,0.042,0.378,2.730,-4.620,-4.340
8646560,-1.105,0.008,0.167,-3.430,-16.310,-8.610
8646578,-0.994,0.035,0.080,-3.710,-12.320,-10.430
8646602,-0.942,0.025,0.064,-3.850,-7.700,-7.210
8646623,-0.972,-0.048,0.080,-1.470,-7.280,-3.570
8646639,-0.992,-0.081,0.080,1.120,-3.220,-2.100
8646657,-0.997,-0.065,0.111,1.960,1.470,-0.700
8646681,-1.002,-0.046,0.155,5.880,0.840,-0.560
8646701,-0.975,-0.048,0.155,10.430,-1.190,-1.470
8646726,-0.941,-0.023,0.126,10.920,-1.400,-3.290
8646743,-0.882,-0.020,0.090,10.360,3.710,-4.760
8646763,-0.797,-0.018,0.089,10.150,9.660,-7.350
8646782,-0.687,0.022,0.075,5.950,13.370,-8.820
8646803,-0.577,0.004,0.096,3.780,13.160,-9.380
8646827,-0.529,-0.024,0.130,12.600,13.860,-9.800
8646847,-0.575,-0.025,0.190,14.770,17.850,-8.820
8646870,-0.654,-0.005,0.196,14.840,19.320,-5.740
8646891,-0.780,0.030,0.155,14.420,21.280,-6.580
8646911,-0.904,0.037,0.160,13.440,22.890,-8.470
8646931,-0.944,0.038,0.181,10.500,20.930,-10.290
8646951,-0.910,0.051,0.149,6.650,30.170,-10.220
8646974,-0.887,0.003,0.170,4.410,38.220,-9.100
8646992,-0.847,0.012,0.185,1.820,33.460,-8.330
8647012,-0.731,0.020,0.104,0.490,32.410,-7.070
8647033,-0.672,0.003,0.075,4.270,42.140,-6.510
8647056,-0.741,-0.035,0.082,1.610,47.320,-5.950
8647077,-0.735,-0.032,0.050,-7.070,49.630,-8.260
8647101,-0.787,0.015,0.068,-2.870,48.720,-10.150
8647121,-0.894,-0.008,0.054,5.110,50.330,-10.500
8647145,-0.941,-0.020,0.043,-3.710,55.020,-7.770
8647164,-1.060,-0.046,0.045,-12.810,49.700,-5.740
8647184,-1.049,-0.054,0.001,-4.900,45.290,-4.340
8647202,-1.006,-0.029,-0.004,-1.540,48.790,-6.720
8647223,-0.994,-0.084,0.027,-8.190,45.570,-8.050
8647248,-0.998,-0.135,-0.021,-14.420,30.520,-7.350
8647267,-0.959,-0.060,-0.095,-10.010,25.200,-7.980
8647287,-1.105,-0.041,0.001,-0.980,20.230,-8.400
8647303,-1.194,-0.092,0.102,1.050,12.040,-6.090
8647327,-1.226,-0.125,0.175,-1.890,-6.020,-2.450
8647347,-1.222,-0.118,-0.125,-0.980,-16.450,-1.960
8647368,-1.178,-0.112,-0.210,2.030,-13.790,-8.050
8647387,-1.045,-0.041,-0.175,6.930,-8.890,-7.140
8647407,-0.996,-0.067,-0.154,5.320,-2.800,-3.780
8647423,-1.062,-0.062,-0.107,1.470,-6.930,1.050
8647447,-1.181,-0.116,-0.237,-6.230,-5.180,-1.120
8647468,-1.209,-0.055,-0.235,0.560,3.920,-0.700
8647485,-1.227,-0.026,-0.197,3.430,3.150,-2.240
8647507,-1.242,-0.205,-0.182,-13.790,19.110,-3.010
8647527,-1.276,-0.337,-0.098,-25.900,15.400,-2.520
8647551,-1.276,-0.167,-0.166,-13.650,8.610,2.940
8647571,-1.200,-0.030,-0.156,-0.840,4.620,3.500
8647591,-1.182,-0.008,-0.086,4.130,4.620,1.400
8647611,-1.240,0.016,-0.076,9.100,-3.500,1.610
8647634,-1.254,-0.030,-0.180,8.820,-3.430,-0.770
8647655,-1.330,-0.116,-0.134,-3.150,-6.790,-4.270
8647672,-1.474,-0.152,-0.224,-11.970,-12.600,-3.010
8647696,-1.444,-0.131,-0.325,-8.120,0.070,-1.610
8647714,-1.614,-0.071,-0.200,0.350,1.960,-2.590
8647734,-1.494,-0.144,-0.242,-0.700,-2.240,0.070
8647753,-1.407,-0.114,-0.307,-6.790,4.480,1.120
8647773,-1.347,-0.076,-0.178,-5.040,10.080,2.590
8647798,-1.387,-0.130,-0.139,0.910,7.350,-1.540
8647816,-1.405,-0.094,-0.163,-3.080,1.890,-1.050
8647835,-1.327,-0.098,-0.190,-2.870,-0.700,2.380
8647855,-1.297,-0.087,-0.201,3.570,1.400,0.350
8647878,-1.332,-0.092,-0.173,2.590,1.260,1.050
8647897,-1.279,-0.112,-0.164,-0.840,4.270,0.350
8647920,-1.207,-0.099,-0.109,-2.660,4.620,2.730
8647939,-1.215,-0.045,-0.146,4.690,5.250,7.840
8647959,-1.180,0.003,-0.111,9.170,3.080,8.260
8647982,-1.132,-0.112,-0.074,-0.210,-1.680,7.910
8648001,-1.118,-0.201,-0.122,-1.610,-4.340,5.320
8648026,-1.130,-0.120,-0.169,5.390,-3.220,3.150
8648045,-1.105,-0.024,-0.182,9.380,-0.490,5.530
8648066,-1.036,-0.062,-0.133,5.180,9.730,7.140
8648085,-1.023,-0.102,-0.040,5.250,8.890,9.030
8648106,-1.038,-0.048,-0.045,11.340,-1.470,7.910
8648126,-1.103,0.062,-0.078,12.180,-10.710,9.380
8648149,-1.048,-0.016,-0.055,5.040,-9.660,7.770
8648171,-1.074,-0.125,0.018,6.930,-14.140,6.230
8648190,-1.069,-0.148,-0.022,15.260,-24.710,3.570
8648210,-0.911,-0.059,-0.120,16.520,-26.600,0.490
8648227,-0.863,-0.050,-0.111,14.490,-23.240,0.420
8648247,-0.920,-0.020,-0.063,10.290,-27.580,3.850
8648266,-0.918,0.004,-0.049,9.380,-28.630,5.180
8648291,-0.935,0.055,0.019,0.210,-32.410,6.160
8648310,-0.860,0.030,0.031,-3.080,-33.600,4.760
8648331,-0.833,0.003,0.051,6.370,-38.990,3.080
8648355,-0.780,-0.050,0.014,9.730,-39.270,5.950
8648374,-0.790,-0.108,0.005,1.750,-35.210,5.180
8648399,-0.788,-0.053,0.029,-3.150,-33.810,2.520
8648415,-0.810,-0.001,0.042,-4.760,-37.380,0.980
8648434,-0.826,0.004,0.023,-0.770,-38.150,-1.820
8648454,-0.797,0.003,0.051,1.050,-37.660,-0.700
8648478,-0.820,0.009,0.075,0.420,-38.850,-0.280
8648502,-0.856,0.003,0.077,0.560,-41.720,1.120
8648523,-0.779,0.020,0.037,-5.460,-44.660,2.170
8648541,-0.727,-0.003,0.014,-8.750,-46.690,2.450
8648561,-0.671,-0.015,-0.025,-8.260,-47.250,2.030
8648580,-0.598,-0.033,-0.031,-6.860,-42.000,1.610
8648601,-0.589,-0.025,-0.005,-5.950,-36.190,1.190
8648625,-0.606,-0.032,0.042,-3.990,-27.650,-0.280
8648645,-0.694,-0.022,0.101,-2.870,-23.730,-0.350
8648666,-0.826,-0.004,0.104,-1.120,-18.760,0.490
8648683,-0.913,0.026,0.112,2.380,-11.970,1.750
8648704,-0.993,0.015,0.130,2.380,-9.310,3.150
8648721,-1.040,-0.027,0.119,2.030,-7.420,3.080
8648744,-1.108,-0.038,0.169,4.760,-3.570,4.200
8648765,-1.184,-0.043,0.183,3.080,-6.300,3.640
8648782,-1.133,-0.031,0.175,0.630,-1.960,0.630
8648804,-1.041,-0.019,0.166,-0.980,-3.850,-0.910
8648824,-0.961,-0.029,0.061,-2.380,-2.030,-1.330
8648844,-0.931,0.010,0.108,0.210,4.970,-1.890
8648863,-0.954,0.023,0.174,1.750,5.530,-1.050
8648883,-0.957,0.012,0.183,2.310,-0.280,-0.840
8648907,-0.958,0.016,0.173,2.450,-4.410,-1.190
8648928,-0.967,0.019,0.155,2.450,0.000,-1.890
8648946,-1.014,0.010,0.204,3.570,2.870,-2.450
8648970,-1.060,-0.006,0.226,1.820,1.120,-2.380
8648989,-1.042,0.010,0.221,-0.070,-1.050,-2.170
8649010,-1.021,0.020,0.218,-1.190,-2.100,-1.610
8649025,-1.002,0.031,0.177,-1.400,-2.450,-1.400
8649047,-0.993,0.030,0.157,-1.820,-2.100,-1.050
8649071,-0.982,0.017,0.139,-1.330,-0.630,-0.980
8649089,-0.988,0.017,0.155,0.280,-0.210,-0.630
8649107,-0.983,0.020,0.159,1.890,0.980,-0.280
8649127,-0.981,0.020,0.172,1.890,4.060,0.070
8649151,-1.020,0.020,0.201,1.400,2.730,0.140
8649166,-1.026,0.016,0.186,0.910,1.610,0.280
8649191,-1.029,0.013,0.183,0.070,0.630,0.140
8649209,-1.019,0.020,0.184,-0.210,-0.490,-0.210
8649231,-1.011,0.015,0.185,-0.980,-0.700,-0.560
8649254,-0.998,0.012,0.183,0.350,-0.770,-1.470
8649275,-0.999,0.009,0.169,-2.380,-1.750,-1.540
8649293,-0.995,-0.004,0.176,-1.820,1.330,-2.450
8649312,-0.998,0.009,0.205,-0.700,0.980,-3.150
8649335,-0.996,0.005,0.154,-2.170,-2.100,-3.150
8649355,-1.002,0.013,0.166,-2.100,1.120,-3.290
8649379,-0.994,0.021,0.155,-2.030,3.080,-3.430
8649395,-0.995,0.020,0.156,-3.220,5.810,-3.500
8649418,-0.999,0.024,0.166,-1.890,6.790,-3.780
8649442,-0.991,0.033,0.153,-0.980,6.580,-3.570
8649462,-0.996,0.050,0.136,0.000,5.880,-2.870
8649482,-1.007,0.072,0.124,0.000,7.630,-2.170
8649499,-1.018,0.077,0.129,-0.700,7.560,-1.960
8649524,-1.018,0.082,0.127,0.560,6.370,-2.380
8649541,-1.017,0.081,0.120,1.190,7.140,-2.520
8649561,-1.021,0.069,0.111,0.630,7.700,-2.170
8649580,-1.022,0.048,0.107,-0.070,9.030,-2.310
8649606,-1.011,0.049,0.103,2.520,8.400,-2.940
8649625,-0.998,0.059,0.106,5.110,7.140,-3.290
8649643,-1.008,0.041,0.105,4.970,6.440,-3.290
8649666,-1.029,0.036,0.118,4.410,4.760,-3.640
8649687,-1.029,0.022,0.120,5.740,3.010,-4.130
8649707,-1.022,-0.007,0.121,8.890,0.910,-4.130
8649726,-1.007,-0.056,0.115,11.550,1.260,-4.200
8649746,-0.997,-0.082,0.113,11.620,3.570,-4.830
8649771,-0.971,-0.079,0.107,13.930,6.790,-6.020
8649786,-0.971,-0.077,0.142,11.970,6.930,-5.390
8649809,-1.001,-0.124,0.155,5.530,5.040,-5.390
8649828,-1.070,-0.140,0.209,3.150,2.800,-6.720
8649848,-1.099,-0.131,0.194,2.100,-4.690,-7.490
8649873,-1.097,-0.114,0.182,-0.280,-2.240,-9.450
8649889,-1.069,-0.106,0.188,-0.350,-0.630,-9.310
8649910,-1.044,-0.106,0.173,-1.470,-2.240,-7.630
8649930,-1.004,-0.090,0.167,-3.780,-5.180,-5.880
8649954,-0.958,-0.082,0.150,-6.230,-4.550,-4.480
8649978,-0.964,-0.079,0.170,-7.910,-3.990,-3.430
8649998,-0.968,-0.086,0.173,-8.610,-5.740,-1.960
8650018,-0.983,-0.091,0.175,-7.700,-7.980,-0.420
8650041,-0.974,-0.093,0.169,-5.950,-11.200,1.540
8650062,-0.966,-0.097,0.170,-7.560,-10.920,3.360
8650081,-0.986,-0.098,0.170,-7.280,-11.060,3.990
8650100,-0.978,-0.094,0.169,-4.760,-10.920,4.550
8650124,-0.967,-0.090,0.162,-2.520,-10.780,6.160
8650142,-0.990,-0.088,0.165,-1.470,-11.830,7.630
8650165,-0.987,-0.073,0.162,0.980,-10.360,7.770
8650185,-0.971,-0.056,0.147,1.540,-8.050,7.840
8650205,-0.935,-0.031,0.131,0.700,-7.490,7.980
8650225,-0.884,-0.028,0.081,-0.700,-5.040,7.630
8650249,-0.837,-0.045,0.084,-0.700,-0.700,5.880
8650269,-0.759,-0.006,0.137,1.960,2.870,4.270
8650293,-0.777,0.023,0.249,7.420,0.140,0.840
8650313,-0.797,-0.015,0.278,8.330,-6.510,0.070
8650332,-0.880,-0.042,0.290,10.920,-13.090,-0.490
8650357,-0.967,-0.096,0.114,6.370,-29.330,-0.210
8650373,-0.954,-0.072,-0.061,-2.240,-19.880,-1.890
8650397,-0.884,-0.093,-0.084,-8.470,3.850,-4.130
8650420,-0.995,-0.078,0.238,-3.500,13.790,-6.580
8650440,-1.150,0.007,0.478,5.740,-5.250,-5.460
8650460,-1.346,0.035,0.292,-2.100,-23.240,-3.290
8650484,-1.567,0.051,0.111,-10.990,-15.050,-11.830
8650504,-1.856,0.075,0.337,-9.590,-7.420,-10.920
8650522,-1.975,-0.023,0.411,-9.170,0.350,-5.670
8650543,-2.246,-0.104,0.435,-12.110,-2.100,2.800
8650567,-2.271,-0.233,0.529,-2.520,-7.910,10.360
8650587,-2.048,-0.291,0.490,0.140,-20.440,10.150
8650605,-1.676,-0.142,0.299,-3.850,-29.050,11.130
8650627,-1.202,-0.071,0.083,-21.910,-33.950,16.870
8650642,-0.854,-0.132,-0.012,-27.860,-33.600,15.680
8650667,-0.527,-0.123,-0.072,-28.700,-24.220,10.430
8650685,-0.196,-0.020,-0.114,-38.500,-23.730,10.850
8650704,0.168,0.100,-0.226,-21.560,-29.750,4.620
8650728,0.342,0.186,0.081,-11.410,-17.150,0.420
8650749,0.305,-0.026,0.255,-10.710,-34.720,2.870
8650769,0.321,-0.149,0.233,-6.090,-37.170,1.260
8650784,0.327,-0.149,0.217,-3.920,-40.460,0.070
8650809,0.251,-0.133,-0.010,-0.630,-23.800,-8.330
8650829,0.023,-0.025,-0.090,10.430,0.840,-15.540
8650849,-0.092,0.055,-0.163,13.230,23.590,-20.230
8650868,-0.363,0.009,-0.113,12.390,44.450,-16.800
8650892,-0.911,-0.092,0.340,16.730,73.220,-5.180
8650909,-1.499,-0.102,0.391,19.110,59.920,-1.190
8650933,-1.995,-0.022,0.226,0.280,32.410,14.420
8650953,-1.900,0.060,0.371,-3.080,20.300,9.310
8650973,-2.289,0.194,0.652,10.150,35.000,-5.180
8650997,-2.234,0.136,0.478,8.820,-13.020,0.840
8651014,-2.153,0.041,0.623,0.070,-9.030,0.280
8651035,-2.428,-0.120,0.504,-4.970,-19.460,1.820
8651059,-2.557,0.073,0.456,-15.400,-19.250,3.640
8651078,-2.422,0.173,0.435,-8.820,-9.730,3.710
8651096,-2.210,0.121,0.594,-4.060,-23.590,8.610
8651116,-1.660,0.055,0.386,-7.070,-42.770,14.280
8651140,-1.040,0.048,0.141,-4.200,-38.430,8.190
8651158,-0.645,0.059,0.082,2.310,-34.790,4.130
8651178,-0.296,0.067,-0.051,5.040,-32.060,-0.630
8651197,-0.013,0.081,-0.056,4.270,-14.070,-6.300
8651217,0.204,0.048,-0.023,7.910,-8.680,-9.170
8651242,0.366,-0.032,0.015,6.370,-3.430,-14.070
8651261,0.418,0.019,-0.058,9.240,3.640,-16.030
8651285,0.338,0.085,-0.018,19.390,14.140,-12.180
8651305,0.249,-0.039,-0.019,19.460,9.240,-12.810
8651325,0.200,-0.031,-0.124,13.020,20.650,-9.030
8651345,0.047,0.003,-0.129,17.780,37.520,-10.570
8651365,-0.043,-0.067,-0.015,25.060,50.260,-12.600
8651389,-0.219,-0.102,0.092,15.470,59.920,-6.440
8651409,-0.635,-0.032,0.138,1.960,88.550,0.770
8651429,-1.365,-0.008,-0.032,-21.840,130.690,3.010
8651448,-2.548,-0.189,-0.009,-11.620,63.280,14.700
8651468,-2.093,0.027,0.037,6.020,38.220,-7.420
8651488,-1.752,0.108,0.474,-1.750,30.240,-3.080
8651512,-2.480,0.398,0.657,-10.290,4.620,6.650
8651530,-2.487,0.380,0.315,-22.120,-15.750,23.030
8651553,-2.621,-0.339,0.181,-28.420,-16.940,15.260
8651572,-2.413,-0.298,0.182,-44.170,-21.980,8.330
8651590,-2.414,-0.155,0.456,-30.380,-22.190,-0.840
8651614,-2.218,0.039,0.328,-17.150,-36.120,1.120
8651632,-1.690,0.019,0.127,-14.700,-37.870,2.100
8651656,-1.198,-0.081,0.118,-20.090,-49.140,-0.630
8651674,-0.603,-0.076,0.002,-20.930,-64.190,-0.560
8651693,-0.109,0.024,-0.054,-0.840,-65.380,8.120
8651718,0.297,0.141,-0.137,9.730,-62.860,5.320
8651738,0.427,-0.109,-0.145,13.370,-33.530,0.840
8651753,0.442,-0.125,-0.000,6.300,-17.290,-6.160
8651778,0.485,-0.055,0.099,-8.680,-21.840,5.390
8651799,0.362,0.021,0.004,-14.280,-23.590,14.630
8651818,0.177,0.032,0.089,-10.150,-24.640,14.910
8651836,0.053,-0.034,0.007,-6.090,-21.560,8.470
8651856,-0.041,0.008,-0.028,-15.470,-0.350,-0.140
8651879,-0.194,0.197,0.029,-3.990,18.270,-7.490
8651899,-0.444,0.177,-0.020,-0.980,34.510,-4.480
8651920,-0.744,-0.052,0.257,-10.500,70.490,-5.670
8651939,-1.421,-0.252,0.234,-8.260,62.300,1.680
8651959,-1.850,-0.358,0.330,-12.040,79.800,3.500
8651981,-2.255,-0.340,0.208,17.080,52.640,-9.030
8652001,-2.410,0.034,0.264,26.810,62.160,-11.970
8652018,-2.473,0.286,0.527,26.320,28.700,0.560
8652039,-2.452,0.189,0.624,13.930,7.490,0.070
8652062,-2.608,-0.161,0.585,-3.290,-20.300,4.480
8652081,-2.649,-0.158,0.407,-7.910,-23.940,-6.930
8652105,-2.509,0.082,0.362,-4.550,-30.100,-9.940
8652126,-2.106,0.216,0.225,3.360,-45.430,-4.900
8652145,-1.491,0.186,0.048,5.600,-39.130,-5.320
8652170,-1.077,0.092,0.017,7.280,-30.380,-1.890
8652187,-0.699,0.036,0.101,13.720,-25.550,-7.070
8652209,-0.319,-0.078,-0.048,15.050,-36.610,-7.000
8652229,-0.051,-0.087,-0.127,22.610,-31.430,-8.330
8652249,0.208,-0.054,-0.098,30.240,-17.850,-14.770
8652269,0.313,0.001,-0.104,29.680,-14.840,-15.750
8652288,0.376,0.067,-0.036,23.310,-4.830,-15.890
8652305,0.368,0.060,-0.009,24.220,4.900,-17.430
8652325,0.371,0.014,0.026,25.340,12.180,-19.810
8652344,0.301,-0.004,0.011,22.190,13.020,-16.940
8652369,0.194,0.044,-0.096,22.890,25.690,-12.880
8652388,0.039,0.101,-0.016,25.620,35.910,-9.170
8652407,-0.102,-0.005,0.042,17.430,42.770,-5.390
8652426,-0.481,-0.122,0.181,4.200,54.600,-4.900
8652451,-1.472,-0.081,0.042,15.680,70.280,18.060
8652471,-2.162,0.039,0.002,-4.760,67.620,21.490
8652491,-2.725,-0.502,0.132,27.020,18.690,-8.190
8652511,-1.623,0.147,0.263,25.830,16.450,-6.930
8652531,-2.547,0.646,0.463,17.150,16.730,3.710
8652550,-2.888,0.445,0.376,-10.920,16.310,20.720
8652570,-2.806,0.035,0.435,-20.720,-17.640,21.910
8652594,-2.446,-0.050,0.488,-50.260,-36.960,16.800
8652610,-2.194,-0.290,0.399,-24.080,-41.650,10.360
8652634,-1.896,-0.165,0.165,-21.000,-53.690,-1.680
8652654,-1.451,0.025,0.166,-21.910,-59.430,-8.680
8652671,-1.026,0.122,0.089,-22.400,-60.340,-8.470
8652689,-0.623,0.125,-0.007,-25.620,-68.040,0.490
8652709,-0.196,0.083,-0.122,-6.930,-57.120,2.450
8652734,0.214,0.005,-0.052,4.620,-39.410,7.700
8652752,0.338,-0.162,-0.111,2.660,-35.420,7.070
8652772,0.470,-0.175,-0.023,3.990,-15.050,-3.220
8652796,0.423,-0.198,0.140,-2.240,-11.690,-4.410
8652816,0.362,-0.022,0.111,-9.520,-20.440,-0.560
8652835,0.196,0.079,0.123,-4.900,-31.780,2.380
8652856,0.022,0.091,0.093,-4.270,-24.640,0.980
8652876,-0.217,0.250,0.002,-5.600,-9.100,-2.100
8652899,-0.258,0.206,-0.022,-14.000,3.570,6.510
8652918,-0.390,0.078,0.119,-24.010,30.030,14.560
8652938,-0.736,-0.064,0.224,-18.970,57.680,13.720
8652960,-1.301,-0.174,0.220,-10.780,51.660,15.190
8652983,-1.889,-0.371,0.364,-11.900,108.780,1.610
8653002,-3.009,-0.166,0.477,21.350,74.620,-11.340
8653026,-3.357,-0.012,0.719,-8.680,3.710,-9.800
8653046,-2.804,0.266,0.656,-2.380,-2.660,2.170
8653067,-2.802,0.172,0.610,-17.010,-3.710,-1.680
8653086,-2.833,-0.093,0.659,11.270,-24.920,-14.210
8653105,-2.425,0.023,0.309,1.750,-34.090,-13.440
8653126,-1.828,0.303,0.332,-2.310,-37.450,-8.330
8653146,-1.179,0.346,0.129,-11.340,-36.610,5.250
8653170,-0.718,0.250,0.111,-4.970,-38.080,13.160
8653190,-0.339,0.113,-0.010,3.080,-16.100,8.610
8653208,-0.222,-0.068,0.042,-1.680,-33.040,12.110
8653229,0.115,-0.100,-0.081,13.790,-23.030,5.740
8653250,0.226,-0.032,-0.089,9.520,-8.890,-5.950
8653274,0.224,0.056,-0.034,10.920,-7.140,-8.820
8653293,0.254,0.070,-0.001,14.910,-2.800,-14.770
8653311,0.241,0.028,-0.027,18.340,7.700,-17.710
8653335,0.221,-0.044,0.036,15.190,13.580,-21.910
8653352,0.161,-0.012,-0.079,14.070,20.510,-21.280
8653375,0.089,0.049,-0.087,10.150,44.520,-20.510
8653395,0.038,-0.033,0.162,16.380,48.020,-16.170
8653419,-0.081,-0.203,-0.137,11.900,67.410,-4.970
8653436,-0.554,-0.147,0.242,2.170,114.590,5.950
8653456,-1.759,-0.375,0.091,28.770,107.380,13.860
8653479,-3.799,0.198,0.237,-13.440,52.710,10.990
8653497,-2.189,0.016,0.133,-2.520,-7.280,-5.530
8653521,-2.310,0.390,0.302,-6.790,9.450,-9.310
8653541,-2.754,0.372,0.220,-13.860,-9.170,13.020
8653559,-2.780,0.155,-0.131,-1.680,-7.210,18.690
8653579,-2.578,-0.213,0.131,-11.270,5.740,23.100
8653600,-2.359,-0.321,0.429,-11.760,-11.410,11.620
8653624,-1.990,-0.162,0.306,-1.680,-51.310,1.400
8653644,-1.506,0.069,0.191,-1.820,-83.160,0.350
8653660,-1.027,0.100,0.078,-3.920,-93.450,-1.960
8653679,-0.522,0.039,-0.034,-9.310,-101.570,-3.150
8653704,-0.032,0.097,-0.158,2.800,-83.020,-1.540
8653724,0.283,0.105,-0.217,10.150,-59.080,0.070
8653744,0.433,-0.018,-0.104,12.600,-35.700,2.100
8653765,0.484,-0.169,-0.088,9.450,-17.290,-3.920
8653784,0.444,-0.247,0.047,-5.530,-14.630,-0.350
8653802,0.252,-0.023,0.079,-10.920,-19.180,6.720
8653824,0.106,0.099,0.057,-3.920,-25.550,8.470
8653848,-0.021,0.096,0.041,-0.490,-21.420,3.570
8653868,-0.243,0.148,0.061,-0.420,-12.390,3.150
8653892,-0.273,0.095,-0.028,-9.030,0.910,9.170
8653910,-0.371,0.024,0.056,-15.190,21.070,13.370
8653928,-0.646,-0.093,0.391,-6.370,41.090,12.320
8653952,-1.361,-0.095,0.465,-3.710,40.950,8.750
8653972,-2.068,-0.117,0.262,4.690,68.950,12.180
8653992,-2.654,-0.307,0.391,23.590,99.470,-14.770
8654009,-3.683,-0.019,1.193,0.630,2.450,-3.220
8654029,-3.142,0.092,0.724,14.350,-7.140,-13.160
8654049,-2.735,0.414,0.623,2.660,-21.070,-14.490
8654069,-2.840,0.410,0.902,-24.780,-21.560,-17.430
8654093,-2.409,0.173,0.355,-14.770,-45.010,-1.330
8654112,-1.762,-0.029,0.201,-11.340,-38.220,0.910
8654133,-1.170,0.144,0.312,5.810,-42.490,2.940
8654157,-0.563,0.202,-0.037,10.360,-29.680,2.450
8654176,-0.292,0.246,0.008,10.360,-22.610,3.010
8654197,0.007,0.128,-0.090,8.470,-11.200,-3.150
8654222,0.236,-0.023,0.012,8.050,7.560,-10.920
8654241,0.260,-0.078,0.008,-6.020,8.680,-6.580
8654261,0.214,0.055,-0.007,3.850,11.900,-4.620
8654281,0.254,0.089,-0.100,14.840,15.820,-8.750
8654301,0.278,-0.048,-0.039,14.000,30.590,-11.760
8654320,0.166,-0.090,-0.049,7.770,29.050,-13.090
8654345,0.021,-0.005,-0.142,7.840,28.210,-17.500
8654364,-0.090,0.041,-0.041,20.090,50.330,-17.990
8654383,-0.217,-0.057,0.025,16.310,70.490,-10.010
8654404,-0.793,-0.054,0.317,-2.380,95.690,2.450
8654424,-1.823,-0.170,0.160,-6.650,86.240,15.750
8654443,-2.694,-0.164,0.093,5.670,86.940,7.630
8654466,-2.423,-0.083,-0.008,12.740,-11.970,-12.670
8654487,-2.206,-0.038,0.407,7.910,9.520,-5.180
8654507,-2.614,0.421,0.345,-8.330,-24.150,0.910
8654526,-2.953,0.415,-0.136,-14.350,-36.050,25.200
8654546,-2.298,-0.103,0.150,-31.220,-12.180,21.560
8654570,-1.965,-0.281,0.303,-35.210,-13.930,10.010
8654592,-1.564,-0.096,0.142,-43.820,-39.270,0.980
8654610,-1.111,0.006,0.059,-20.020,-38.290,-3.920
8654631,-0.768,0.078,0.047,-8.330,-52.010,-4.900
8654652,-0.442,0.151,0.040,-3.500,-46.690,-3.430
8654671,-0.033,0.137,-0.063,-0.980,-49.840,8.190
8654690,0.218,-0.034,-0.072,3.500,-33.810,1.960
8654715,0.366,-0.138,0.060,11.130,-36.050,3.780
8654739,0.437,-0.287,0.111,0.700,-33.600,-4.480
8654763,0.396,-0.116,0.052,-1.890,-33.180,1.050
8654781,0.177,0.033,0.153,9.170,-40.950,3.150
8654800,0.048,0.020,0.084,16.730,-41.440,-0.910
8654822,-0.084,0.140,-0.049,18.480,-15.400,-7.210
8654843,-0.210,0.299,-0.089,2.520,7.770,0.210
8654862,-0.416,0.221,0.090,-0.490,37.730,7.630
8654879,-0.901,0.247,0.315,-0.560,49.840,17.780
8654899,-1.377,0.205,0.378,-4.200,64.260,15.330
8654920,-2.163,0.010,0.343,-20.160,72.870,12.950
8654940,-2.693,-0.457,0.489,1.050,52.430,0.700
8654962,-3.447,-0.116,0.654,-1.750,-4.480,-19.950
8654984,-2.692,-0.049,0.549,-0.560,0.980,-27.370
8655003,-2.887,0.100,0.654,5.880,-25.760,-21.000
8655024,-2.778,0.063,0.562,3.990,-32.340,-22.190
8655042,-2.523,0.133,0.548,-3.290,-41.230,-22.400
8655066,-1.986,0.229,0.301,-15.960,-57.890,-15.050
8655082,-1.384,0.298,0.270,-14.420,-42.210,-5.390
8655105,-0.824,0.330,0.155,-18.480,-42.840,10.640
8655124,-0.522,0.152,0.047,-13.720,-24.570,13.440
8655144,-0.252,-0.035,0.090,-2.030,-20.090,15.820
8655170,0.129,-0.213,0.087,34.790,-0.770,7.280
8655187,0.207,-0.249,0.000,19.530,-9.730,0.070
8655209,0.406,-0.119,-0.077,20.790,-6.090,-11.550
8655226,0.493,0.166,-0.077,16.170,0.910,-15.680
8655246,0.428,0.240,-0.068,17.640,15.750,-17.570
8655265,0.324,0.079,-0.052,12.460,26.670,-15.120
8655285,0.185,-0.002,-0.100,2.590,34.020,-10.710
8655305,0.017,-0.015,-0.142,4.410,42.980,-5.250
8655325,-0.081,-0.082,-0.022,11.200,54.180,-2.170
8655350,-0.247,-0.146,0.140,13.650,69.090,0.700
8655370,-0.672,-0.129,0.316,2.870,100.590,11.830
8655390,-2.052,-0.129,0.051,6.370,68.950,25.130
8655407,-3.106,-0.188,-0.203,0.910,55.440,0.070
8655431,-2.371,-0.021,0.198,12.040,14.840,-17.080
8655451,-2.438,0.452,0.148,-16.380,1.540,-2.870
8655467,-2.776,0.372,0.059,-16.170,11.480,3.920
8655486,-3.179,0.246,0.443,-31.360,0.770,22.680
8655506,-2.463,-0.133,0.452,-30.450,-22.470,17.290
8655531,-1.945,-0.309,0.219,-19.250,-40.740,3.290
8655551,-1.623,-0.093,0.120,-17.290,-42.210,-3.990
8655570,-1.211,0.010,0.145,-8.540,-51.730,-5.040
8655593,-0.633,0.040,-0.062,4.970,-64.470,-3.920
8655612,-0.236,-0.008,-0.141,13.580,-49.070,-5.670
8655632,0.072,-0.049,-0.189,20.160,-51.660,-5.880
8655652,0.336,-0.126,-0.066,28.840,-29.470,-7.770
8655677,0.457,-0.218,-0.047,26.740,-20.370,-18.200
8655697,0.533,-0.139,0.073,15.190,-19.950,-0.280
8655717,0.565,0.011,0.005,6.720,-19.950,-7.840
8655737,0.212,0.146,0.088,4.270,-18.480,1.260
8655756,-0.004,0.145,0.140,6.300,-18.410,6.650
8655776,-0.188,0.233,0.106,4.620,-12.040,5.180
8655799,-0.326,0.300,-0.084,-4.200,16.170,13.930
8655823,-0.380,0.229,0.204,-20.440,39.620,22.260
8655842,-0.914,0.050,0.277,-24.290,52.010,23.730
8655863,-1.446,0.059,0.296,-23.520,60.550,22.330
8655881,-2.008,-0.241,0.284,-29.960,84.560,11.550
8655903,-2.929,-0.277,0.706,10.430,81.200,-10.990
8655924,-3.351,0.052,0.615,-4.130,-14.280,-6.860
8655944,-2.847,0.285,0.506,-0.490,0.070,-0.420
8655961,-2.824,0.014,0.537,3.220,-24.290,1.330
8655981,-2.801,-0.174,0.372,1.540,-19.460,-19.250
8656001,-2.427,0.052,0.324,-0.210,-24.640,-25.620
8656024,-1.990,0.206,0.298,1.820,-34.300,-18.410
8656045,-1.237,0.190,0.147,-2.520,-44.730,-6.790
8656064,-0.867,0.149,0.082,3.150,-37.240,1.470
8656084,-0.509,0.053,0.122,6.930,-23.940,1.400
8656105,-0.246,-0.040,0.114,16.310,-42.910,4.480
8656125,0.182,-0.227,-0.009,29.260,-21.700,-5.530
8656145,0.260,-0.086,-0.043,26.250,-23.170,-9.590
8656164,0.378,0.020,-0.062,20.580,-21.490,-10.500
8656183,0.396,0.142,-0.061,19.670,-13.790,-10.780
8656202,0.400,0.169,-0.043,17.290,4.130,-10.500
8656225,0.231,0.113,-0.017,9.520,14.910,-8.400
8656249,0.150,0.046,-0.057,8.400,18.970,-8.890
8656269,0.082,0.075,-0.037,7.000,28.140,-10.570
8656288,-0.095,-0.033,0.067,11.900,42.000,-12.250
8656310,-0.354,-0.099,0.237,1.750,63.980,-3.640
8656329,-0.951,-0.209,0.508,-3.640,80.990,10.220
8656355,-2.162,-0.164,0.094,44.940,82.460,-0.490
8656374,-3.873,-0.241,0.251,18.620,-15.400,-3.850
8656393,-2.150,0.158,0.061,-1.400,11.900,-15.820
8656412,-2.822,0.220,0.502,-20.510,-8.470,-5.110
8656434,-2.991,0.245,-0.081,-0.070,-6.860,12.110
8656455,-2.503,0.019,0.243,-9.240,5.180,13.860
8656479,-2.067,-0.150,0.460,-28.560,-14.630,6.720
8656498,-1.611,-0.067,0.194,-24.010,-28.210,2.240
8656517,-1.105,0.022,0.152,-14.210,-50.960,-1.540
8656537,-0.745,0.124,0.118,-9.800,-65.240,-0.770
8656560,-0.375,0.127,-0.074,-20.370,-49.910,-0.840
8656584,-0.002,0.183,-0.142,-6.790,-42.840,7.630
8656604,0.170,-0.227,-0.097,-1.960,-20.930,0.070
8656623,0.213,-0.278,0.002,0.350,-11.620,2.660
8656643,0.280,-0.384,0.174,0.210,-12.530,-5.880
8656663,0.279,-0.218,0.101,-0.700,-35.210,-5.040
8656687,0.284,0.089,0.075,2.170,-35.840,3.430
8656706,0.174,0.155,0.058,12.390,-36.750,5.600
8656726,-0.021,0.172,0.075,14.840,-25.130,4.060
8656746,-0.060,0.191,0.021,13.090,-10.150,3.850
8656766,-0.100,0.175,-0.110,4.690,14.140,8.890
8656786,-0.413,0.070,0.216,-13.580,44.940,16.730
8656807,-0.838,0.086,0.404,-4.340,55.860,23.450
8656826,-1.586,0.053,-0.013,-12.390,63.140,24.780
8656850,-2.466,-0.178,0.475,-10.290,97.300,20.440
8656868,-3.386,-0.501,0.579,10.500,42.210,7.700
8656887,-4.358,0.100,0.996,-19.530,-60.620,1.750
8656907,-3.090,0.142,0.516,-6.370,-39.060,-9.800
8656931,-3.123,0.267,0.487,-3.010,-27.650,-14.420
8656950,-2.711,0.219,0.519,-4.690,-30.100,-8.820
8656970,-2.072,0.159,0.366,-16.800,-51.170,0.560
8656990,-1.256,0.129,0.277,-4.340,-35.350,-0.140
8657015,-0.784,0.201,0.304,7.700,-55.160,2.170
8657032,-0.378,0.189,0.002,7.630,-43.680,-3.710
8657054,-0.084,0.052,-0.056,1.820,-33.250,-3.990
8657072,0.234,-0.110,-0.035,0.000,-18.620,-5.810
8657097,0.310,-0.115,-0.112,8.470,-18.550,-15.540
8657114,0.555,-0.014,-0.129,4.830,-2.870,-17.430
8657136,0.531,0.110,-0.102,15.260,4.900,-13.160
8657152,0.452,0.036,-0.106,14.770,19.110,-10.500
8657171,0.293,-0.052,-0.033,5.950,26.530,-5.460
8657196,0.108,0.032,-0.053,2.730,37.800,-2.590
8657216,0.006,0.076,0.033,10.080,44.380,-5.460
8657234,-0.062,-0.026,0.169,19.180,48.790,-4.340
8657256,-0.164,-0.278,0.069,9.940,74.900,2.660
8657276,-0.691,-0.171,0.171,34.720,123.340,2.660
8657296,-2.424,0.563,0.174,23.240,113.960,-2.870
8657315,-3.364,-0.547,0.194,22.960,80.710,-16.800
8657335,-2.655,0.203,0.309,-15.680,56.350,-21.770
8657354,-2.840,0.641,0.438,1.330,4.970,-3.850
8657379,-3.174,0.067,-0.124,-18.200,22.400,6.790
8657399,-3.410,-0.125,0.447,-20.300,4.410,11.200
8657415,-2.316,0.037,0.313,-11.410,-24.710,10.010
8657438,-1.606,0.015,0.139,-21.980,-54.390,8.540
8657456,-1.219,0.005,-0.041,-31.220,-76.090,5.250
8657476,-0.728,0.010,0.016,-26.950,-81.130,-2.380
8657500,-0.305,0.078,-0.019,-19.600,-85.610,-6.230
8657520,-0.057,0.003,-0.190,-12.600,-68.390,-7.840
8657535,0.210,-0.022,-0.118,-7.070,-54.110,-7.980
8657556,0.290,-0.192,-0.101,-4.690,-43.330,-3.640
8657578,0.340,-0.170,-0.034,-3.150,-21.980,-8.610
8657600,0.390,-0.144,0.048,-9.100,-31.360,-5.320
8657620,0.321,0.032,-0.043,-3.430,-31.920,-1.680
8657644,0.122,0.077,0.060,6.440,-25.060,-3.710
8657660,-0.062,0.056,0.040,13.300,-14.070,-4.760
8657683,-0.131,0.117,0.103,5.180,0.700,-1.750
8657704,-0.163,0.062,0.074,3.500,7.840,6.510
8657724,-0.267,0.003,0.298,0.070,54.040,8.540
8657741,-0.717,-0.004,0.214,4.270,59.780,12.040
8657761,-1.281,-0.092,0.181,7.630,92.120,14.140
8657785,-2.514,-0.133,0.571,17.360,117.040,20.650
8657804,-3.667,-0.184,0.629,-7.210,62.160,20.720
8657824,-4.147,0.342,1.095,-11.130,-37.730,-4.970
8657848,-3.181,0.101,0.385,9.660,-37.310,-4.550
8657868,-3.041,0.149,0.374,13.230,-26.950,-14.560
8657888,-2.545,0.242,0.270,8.610,-47.600,-10.010
8657912,-1.810,0.224,0.223,-4.550,-49.000,-6.790
8657931,-1.222,0.251,0.197,-13.650,-44.940,0.210
8657949,-0.736,0.324,0.229,-17.150,-49.350,11.270
8657973,-0.260,0.265,0.080,-14.070,-32.900,6.370
8657994,-0.126,-0.004,-0.045,-11.900,-37.870,2.940
8658011,0.198,-0.149,-0.099,-3.290,-21.280,-0.420
8658030,0.444,-0.140,0.029,-1.260,2.100,-10.290
8658050,0.425,0.095,-0.097,-1.960,1.680,-13.930
8658073,0.374,0.053,-0.026,2.240,13.930,-15.960
8658096,0.251,-0.007,-0.002,9.590,11.480,-14.630
8658115,0.143,-0.016,-0.057,6.370,15.120,-10.920
8658139,-0.016,-0.006,-0.060,9.240,17.570,-10.220
8658159,-0.078,0.017,0.020,8.470,29.260,-10.780
8658178,-0.172,-0.079,-0.032,15.470,44.450,-12.810
8658200,-0.384,-0.151,0.193,2.940,64.120,-9.170
8658222,-0.998,-0.169,0.288,5.880,73.780,6.370
8658242,-1.634,-0.117,0.030,39.830,98.630,-15.680
8658265,-2.969,-0.252,0.163,-3.990,30.030,-5.250
8658289,-2.119,-0.141,0.448,-13.230,2.030,-15.820
8658308,-2.567,0.020,0.465,-9.520,-30.170,-4.410
8658331,-3.106,0.226,-0.156,-3.570,-7.700,7.630
8658352,-3.247,0.281,0.503,-22.400,-10.920,22.680
8658371,-2.396,-0.038,0.515,-43.260,-33.810,28.140
8658395,-1.886,-0.220,0.274,-30.450,-46.900,13.580
8658411,-1.366,-0.241,0.092,-17.780,-56.630,4.130
8658433,-0.898,-0.044,0.140,1.260,-58.870,-1.470
8658451,-0.489,0.067,0.059,-0.420,-75.670,2.030
8658476,-0.162,0.102,-0.043,1.610,-67.550,1.050
8658491,0.123,0.061,-0.248,1.120,-61.180,0.980
8658511,0.318,-0.102,-0.203,-1.260,-23.730,-5.320
8658535,0.358,-0.130,-0.001,0.140,-12.250,-10.780
8658554,0.450,-0.059,0.102,-2.590,-35.070,-4.270
8658574,0.461,0.043,0.054,-6.370,-24.080,2.100
8658594,0.241,0.009,0.025,-4.760,-24.640,5.040
8658615,0.027,0.064,0.030,4.060,-19.460,1.960
8658639,-0.111,0.070,0.057,10.220,-5.810,-5.180
8658654,-0.127,0.133,0.051,6.230,6.090,-3.920
8658678,-0.262,0.016,-0.127,7.980,34.160,-4.340
8658700,-0.766,-0.060,0.364,2.100,83.930,4.760
8658719,-1.453,-0.068,0.595,-0.770,61.740,19.320
8658736,-2.115,-0.159,0.247,2.170,50.190,31.360
8658760,-2.390,-0.286,0.279,12.880,73.220,20.440
8658775,-2.728,-0.106,0.544,34.790,85.960,-17.010
8658800,-3.198,0.268,0.691,-16.310,2.660,-4.970
8658820,-3.100,0.163,0.603,-12.390,-32.900,-5.320
8658840,-3.089,0.293,0.445,-10.150,-27.510,-7.910
8658858,-2.923,0.227,0.650,-8.260,-38.710,-0.630
8658881,-2.244,0.109,0.328,-5.530,-56.980,10.430
8658903,-1.343,0.144,0.098,-0.210,-40.180,8.120
8658922,-0.902,0.130,0.164,0.350,-49.910,15.330
8658941,-0.482,-0.049,0.113,18.480,-40.460,4.970
8658961,-0.111,-0.040,-0.083,18.200,-61.670,11.060
8658981,0.264,-0.189,-0.000,30.940,-9.870,-10.500
8659001,0.361,-0.144,-0.102,28.000,-13.580,-23.870
8659025,0.708,0.017,-0.105,19.670,3.080,-33.040
8659043,0.549,0.140,-0.044,21.770,5.530,-24.150
8659063,0.474,0.140,-0.041,20.090,12.390,-10.920
8659087,0.293,0.018,-0.045,17.570,15.190,-0.630
8659107,0.141,-0.033,-0.055,17.920,26.390,1.540
8659126,-0.037,0.002,0.024,31.500,32.060,-0.420
8659143,-0.052,-0.028,0.014,33.320,38.220,-3.500
8659167,-0.184,-0.043,0.064,25.480,55.090,-3.010
8659186,-0.677,0.001,0.446,25.130,76.160,0.000
8659206,-2.007,0.278,0.180,-2.100,56.350,-0.280
8659228,-3.375,-0.234,0.324,6.580,33.950,-9.660
8659250,-2.459,0.235,0.386,-1.050,14.770,-11.690
8659271,-2.641,0.429,0.350,-6.440,16.450,-4.340
8659291,-2.885,0.362,0.182,-28.980,27.930,2.590
8659310,-3.135,0.122,0.638,-30.100,5.460,11.760
8659330,-2.609,-0.052,0.569,-30.870,-26.880,17.780
8659349,-2.045,-0.104,0.335,-27.440,-31.080,6.720
8659370,-1.402,-0.093,0.080,-26.110,-43.820,-0.910
8659388,-0.976,-0.061,0.057,-32.620,-49.910,-7.000
8659408,-0.504,0.051,0.093,-22.680,-59.290,-7.420
8659430,-0.253,0.016,-0.019,-12.810,-60.760,-6.930
8659450,0.114,0.085,-0.141,-12.460,-53.760,1.400
8659470,0.277,0.035,-0.101,-1.330,-37.310,-1.890
8659491,0.360,-0.043,-0.091,-2.030,-28.490,-3.780
8659510,0.473,-0.167,0.019,-7.210,-31.920,-1.120
8659529,0.549,-0.224,-0.061,-7.840,-26.740,-5.810
8659550,0.272,-0.141,0.034,-3.220,-22.820,-2.800
8659575,0.011,-0.038,0.031,2.730,-25.550,2.310
8659595,-0.106,0.149,0.022,8.400,-11.970,1.330
8659614,-0.135,0.174,0.080,12.110,1.330,3.640
8659630,-0.205,0.174,0.172,10.430,6.230,5.250
8659653,-0.224,0.062,0.140,4.830,23.450,10.990
8659674,-0.605,-0.044,0.272,14.630,38.990,11.620
8659690,-0.821,-0.123,0.274,12.810,52.010,10.920
8659710,-1.623,-0.183,0.274,16.030,96.320,6.720
8659730,-2.748,-0.150,0.535,10.150,92.330,17.850
8659752,-3.673,-0.077,0.769,22.120,68.810,-15.750
8659776,-3.161,-0.046,0.798,13.370,-22.960,-7.560
8659800,-2.510,0.117,0.567,10.640,-23.380,-7.420
8659820,-2.667,0.299,0.457,-8.750,-31.780,-20.090
8659839,-2.686,0.313,0.496,-5.390,-22.470,-18.340
8659864,-2.444,0.239,0.481,-12.460,-36.050,-7.910
8659879,-1.888,0.231,0.273,-14.280,-47.740,1.120
8659901,-1.295,0.222,0.217,-16.380,-44.660,8.610
8659923,-0.665,0.239,0.214,-7.630,-50.610,21.000
8659943,-0.328,0.090,0.115,0.070,-34.090,14.070
8659963,-0.051,0.041,0.028,-5.250,-35.140,12.110
8659983,0.268,-0.053,0.059,4.830,-29.610,5.530
8660000,0.425,-0.144,-0.042,2.030,-30.520,-0.700
8660024,0.489,-0.003,0.003,-3.640,-11.970,-8.680
8660044,0.340,0.103,-0.032,1.470,-9.310,-8.750
8660064,0.274,0.057,-0.101,2.660,-3.220,-10.570
8660083,0.171,-0.004,-0.117,-7.560,6.230,-10.570
8660109,0.067,-0.026,-0.074,-11.130,17.010,-11.550
8660127,0.015,-0.008,-0.020,-10.290,26.180,-14.980
8660151,-0.119,-0.029,0.117,-2.800,19.670,-12.250
8660171,-0.237,-0.098,0.136,6.230,44.800,-9.940
8660190,-0.822,-0.061,0.690,10.640,62.440,-7.350
8660210,-1.684,0.019,0.247,-6.300,89.530,7.420
8660230,-4.869,-0.340,0.637,17.850,10.640,16.590
8660253,-3.137,0.167,0.249,34.720,-65.310,-12.110
8660274,-1.376,0.012,0.043,-12.880,13.300,-15.890
8660289,-1.546,-0.040,0.536,-14.280,12.460,-9.590
8660312,-1.713,-0.009,0.561,-3.150,-2.170,5.740
8660334,-1.211,-0.045,0.284,19.040,-13.300,7.770
8660355,-0.920,-0.025,0.105,6.790,-23.590,12.180
8660375,-0.758,-0.071,0.110,3.150,-6.230,3.500
8660394,-0.636,-0.081,0.081,5.180,-2.100,-4.690
8660414,-0.475,0.002,0.105,6.090,5.530,-8.470
8660436,-0.381,0.050,0.218,7.140,4.550,-10.990
8660456,-0.340,0.103,0.169,12.180,7.140,-10.780
8660481,-0.482,0.135,0.127,16.590,10.430,-7.980
8660498,-0.818,0.093,0.218,11.830,16.660,-4.690
8660517,-1.370,0.022,0.339,7.840,16.240,0.770
8660542,-1.818,-0.111,0.253,4.620,5.110,2.450
8660562,-1.321,-0.095,0.283,9.310,-1.190,-1.820
8660582,-1.155,-0.060,0.263,9.450,-6.650,-1.890
8660597,-0.985,-0.003,0.201,9.660,-7.840,-1.190
8660623,-0.865,0.044,0.166,9.310,-7.630,1.400
8660641,-0.785,0.012,0.140,9.450,-0.700,1.890
8660662,-0.813,0.017,0.114,10.220,5.110,1.820
8660681,-0.893,0.015,0.125,8.680,11.200,1.470
8660702,-0.970,0.027,0.177,7.700,12.810,0.280
8660722,-1.062,0.070,0.227,8.610,8.400,-2.240
8660737,-1.158,0.100,0.240,4.480,7.700,-2.800
8660761,-1.156,0.070,0.264,-0.070,5.390,-3.710
8660782,-1.081,0.038,0.256,-1.470,0.700,-4.480
8660802,-1.016,0.014,0.210,-0.350,-1.890,-5.180
8660822,-0.917,0.015,0.203,-0.280,0.490,-5.040
8660841,-0.922,0.026,0.230,0.000,1.330,-4.130
8660860,-1.010,0.014,0.243,0.840,-6.370,-1.470
8660884,-1.015,-0.000,0.162,-0.140,-2.030,0.210
8660904,-1.048,0.023,0.223,-1.680,-3.220,1.750
8660921,-1.002,0.063,0.185,-8.750,-2.100,3.640
8660941,-1.101,0.018,0.197,-8.190,-6.090,5.320
8660963,-1.067,-0.024,0.161,-4.690,-7.910,5.320
8660987,-0.997,-0.037,0.198,-1.610,-5.810,3.500
8661003,-1.032,-0.023,0.200,0.280,-11.340,2.450
8661023,-1.017,-0.024,0.218,1.680,-17.710,0.630
8661048,-0.993,-0.010,0.199,3.220,-17.570,-0.980
8661065,-1.063,-0.006,0.197,2.800,-16.170,0.070
8661084,-1.090,0.013,0.238,0.910,-15.890,1.050
8661110,-1.050,-0.001,0.270,-0.350,-20.860,4.200
8661125,-0.877,-0.015,0.263,0.210,-23.380,4.550
8661145,-0.983,0.010,0.271,2.590,-23.590,4.270
8661169,-0.958,-0.023,0.262,-1.330,-21.000,6.020
8661186,-0.939,-0.008,0.329,-1.820,-17.780,4.200
8661208,-0.935,0.036,0.349,1.470,-17.080,1.890
8661229,-0.962,0.024,0.344,-2.730,-14.420,2.310
8661249,-0.970,0.044,0.384,-2.800,-14.070,2.940
8661268,-0.941,0.015,0.351,3.780,-15.960,2.520
8661290,-0.926,0.052,0.311,2.800,-10.290,-0.140
8661311,-0.955,0.078,0.335,-2.310,-8.610,0.700
8661331,-1.025,0.038,0.329,2.590,-12.600,-1.330
8661350,-0.954,0.049,0.322,0.000,-3.010,0.280
8661375,-1.026,0.083,0.336,0.490,-7.210,-0.140
8661395,-1.006,0.006,0.275,-1.540,-4.480,1.750
8661416,-0.949,-0.010,0.351,2.100,-4.270,1.820
8661435,-0.968,0.005,0.284,-0.630,-5.040,1.540
8661455,-0.950,0.013,0.236,-3.010,-0.980,1.120
8661471,-0.957,0.010,0.280,-0.210,1.610,0.350
8661490,-0.998,0.032,0.340,2.450,0.630,0.490
8661515,-0.993,0.051,0.334,2.870,-5.040,0.700
8661535,-0.977,0.000,0.229,3.710,-7.280,-1.120
8661554,-0.963,-0.007,0.237,3.220,-1.470,-1.960
8661574,-0.969,0.020,0.287,-2.870,1.680,-3.010
8661591,-0.923,0.035,0.276,-6.510,2.100,-4.410
8661615,-0.970,0.058,0.281,-3.080,2.940,-2.240
8661632,-0.955,0.039,0.271,-4.970,3.780,-2.170
8661652,-1.017,0.036,0.311,-4.270,0.980,-4.830
8661676,-0.980,0.028,0.277,-4.200,-6.020,-2.520
8661695,-0.925,-0.019,0.264,-3.920,-2.870,-3.430
8661718,-0.951,0.012,0.267,-6.720,-0.910,-7.280
8661736,-0.979,0.072,0.200,-2.940,-8.050,-7.420
8661761,-0.962,0.022,0.244,-3.010,0.140,-6.230
8661780,-1.019,0.018,0.321,-2.660,-2.170,-10.220
8661800,-0.952,0.059,0.298,1.190,-5.600,-5.880
8661816,-0.978,-0.022,0.285,-11.060,-3.710,-4.410
8661835,-1.009,-0.011,0.334,-10.010,1.260,-10.080
8661855,-0.920,-0.022,0.214,-2.520,-2.380,-6.370
8661881,-0.986,-0.036,0.372,0.420,1.400,-2.870
8661900,-0.979,-0.018,0.318,1.890,-1.610,-4.900
8661920,-0.921,0.009,0.248,6.650,1.680,-3.360
8661940,-1.001,0.001,0.301,5.320,5.390,-2.030
8661959,-0.985,0.021,0.301,4.340,4.410,-3.850
8661980,-0.936,0.031,0.230,7.490,4.970,-3.920
8662002,-0.992,0.009,0.290,7.420,7.140,-2.170
8662026,-0.982,0.005,0.291,5.390,4.130,-2.030
8662046,-0.949,0.001,0.268,7.350,5.460,-1.820
8662067,-0.965,-0.009,0.271,5.530,4.620,-0.490
8662086,-0.987,-0.008,0.289,6.720,0.700,0.000
8662105,-0.972,0.007,0.278,12.810,-1.750,-0.140
8662127,-0.993,0.009,0.312,12.670,-9.100,0.420
8662143,-0.984,0.005,0.304,9.450,-16.800,-1.190
8662166,-0.951,0.016,0.255,11.550,-21.280,-2.660
8662186,-0.956,0.026,0.262,13.650,-21.770,-1.540
8662207,-0.985,0.031,0.264,12.390,-17.290,0.350
8662227,-1.001,0.019,0.339,8.330,-12.390,0.840
8662247,-1.012,-0.006,0.324,7.630,-10.360,-0.350
8662264,-0.998,0.005,0.344,9.380,-7.000,-1.680
8662284,-1.032,0.043,0.353,10.990,-11.060,-2.240
8662304,-0.974,0.030,0.295,0.140,-12.740,-0.630
8662326,-0.951,0.033,0.328,3.920,-0.910,0.490
8662348,-0.956,0.004,0.343,3.010,-0.280,2.380
8662369,-0.939,0.020,0.394,2.100,4.690,-0.980
8662388,-0.924,0.031,0.394,-1.120,1.750,-1.680
8662407,-0.913,0.000,0.298,-1.820,4.480,-1.960
8662428,-0.934,0.015,0.343,0.910,5.600,-2.520
8662448,-0.924,0.025,0.348,3.640,9.240,-2.730
8662468,-0.963,0.012,0.333,-0.630,11.340,-0.490
8662487,-1.020,-0.014,0.348,-5.670,13.650,3.010
8662508,-1.012,-0.010,0.312,1.120,8.680,2.380
8662527,-0.965,0.016,0.285,6.090,15.050,3.640
8662548,-1.002,0.056,0.319,-9.450,17.850,2.100
8662572,-1.053,0.111,0.368,-13.510,12.040,-2.030
8662593,-0.967,0.041,0.297,-8.750,10.430,-0.770
8662611,-0.931,-0.026,0.287,-8.680,15.960,3.150
8662632,-0.980,-0.025,0.335,-11.550,14.280,3.010
8662650,-1.000,0.001,0.355,-8.680,10.920,1.960
8662669,-1.000,-0.005,0.269,-3.430,3.500,3.570
8662691,-0.996,-0.036,0.276,-8.120,10.850,5.180
8662710,-1.067,-0.001,0.305,-7.630,4.410,3.150
8662730,-1.017,0.020,0.244,2.870,-1.050,1.540
8662754,-0.965,0.000,0.238,0.980,-3.850,1.400
8662773,-0.964,0.004,0.244,-0.420,-8.610,2.940
8662793,-0.918,-0.000,0.206,2.030,0.980,-2.380
8662817,-0.989,0.011,0.194,5.530,-3.570,-3.640
8662836,-1.056,0.029,0.248,4.620,-4.060,-5.600
8662856,-1.080,0.034,0.289,5.880,-11.270,-3.990
8662876,-1.076,0.024,0.272,3.430,-3.430,-4.480
8662896,-1.116,0.024,0.285,-2.660,4.620,-4.130
8662920,-1.020,-0.018,0.238,-4.690,2.660,-4.620
8662935,-0.873,-0.013,0.249,-3.010,5.810,-5.110
8662955,-0.897,0.018,0.259,-4.270,6.580,-4.830
8662976,-0.945,-0.007,0.224,-0.490,1.540,-3.640
8663000,-0.971,0.027,0.250,-0.070,1.750,-2.730
8663020,-1.014,0.009,0.256,3.220,0.910,-1.050
8663039,-0.975,0.024,0.268,3.850,-3.920,-1.050
8663060,-0.979,0.021,0.287,1.400,-2.730,-1.820
8663080,-0.998,0.005,0.273,2.170,-5.600,-2.240
8663100,-0.985,0.004,0.219,2.030,-2.730,-3.500
8663125,-0.979,0.011,0.239,2.380,-0.490,-4.970
8663144,-0.975,0.010,0.251,-0.630,0.280,-4.970
8663164,-1.004,-0.008,0.271,-1.680,0.980,-4.270
8663180,-1.001,-0.022,0.274,-1.470,-1.190,-3.640
8663203,-0.993,-0.025,0.285,-1.330,-2.380,-2.730
8663225,-0.984,-0.014,0.307,2.100,-3.710,-2.450
8663244,-0.973,-0.008,0.285,3.080,-9.590,-0.280
8663262,-0.924,-0.004,0.233,0.700,1.330,0.280
8663286,-0.996,-0.001,0.232,0.490,-3.500,2.590
8663301,-0.953,0.002,0.231,0.000,1.890,2.940
8663326,-0.999,-0.003,0.269,1.890,4.970,2.520
8663347,-1.002,0.010,0.255,0.980,6.650,1.400
8663366,-1.016,0.010,0.277,-0.350,7.560,0.210
8663386,-1.037,-0.001,0.278,0.840,5.250,-0.910
8663403,-1.030,0.004,0.261,0.700,4.130,-1.260
8663423,-1.007,0.002,0.260,0.700,4.830,-1.890
8663447,-1.012,0.001,0.274,0.420,2.240,-1.540
8663467,-1.027,-0.006,0.256,0.070,-6.930,-1.330
8663487,-1.003,-0.010,0.219,2.870,-6.090,-1.470
8663507,-1.002,0.009,0.241,0.980,-2.800,-1.050
8663527,-1.011,-0.012,0.259,1.470,-3.990,-0.700
8663546,-0.998,-0.008,0.274,2.730,-6.300,-1.120
8663571,-0.998,0.008,0.283,1.330,-12.180,-0.980
8663585,-1.003,0.008,0.270,2.450,-14.420,-0.490
8663605,-1.016,-0.003,0.273,4.270,-14.210,0.140
8663630,-1.033,0.015,0.294,2.590,-14.280,1.400
8663651,-1.028,0.014,0.286,-1.050,-15.190,2.170
8663666,-1.007,0.005,0.318,-1.400,-16.100,2.380
8663690,-0.967,0.006,0.336,-1.050,-16.800,2.030
8663709,-0.976,0.012,0.353,2.940,-21.770,1.610
8663730,-0.936,0.017,0.302,-0.140,-20.510,2.310
8663750,-0.953,0.031,0.374,2.240,-21.000,2.730
8663770,-0.943,0.010,0.353,4.760,-20.090,3.570
8663785,-0.931,0.005,0.388,5.250,-19.110,3.360
8663805,-0.949,0.018,0.318,0.840,-16.240,2.800
8663831,-0.989,0.037,0.375,-0.490,-8.190,1.890
8663850,-1.020,-0.013,0.386,7.350,-7.000,0.700
8663869,-0.954,-0.011,0.366,-0.210,-3.010,-0.700
8663888,-0.973,0.023,0.351,-1.330,-1.470,-1.960
8663911,-0.978,0.004,0.412,6.930,-1.540,-3.010
8663935,-0.945,0.052,0.376,5.460,-4.970,-2.380
8663955,-0.936,0.019,0.342,1.610,-5.040,-3.570
8663975,-0.946,0.027,0.301,-4.060,-3.500,-2.730
8663995,-0.916,0.019,0.317,-0.560,-1.190,-2.660
8664015,-0.915,0.018,0.349,2.940,0.700,-3.570
8664032,-0.938,0.016,0.315,3.780,0.980,-3.430
8664052,-0.974,-0.010,0.339,-0.350,5.180,-3.850
8664076,-0.989,-0.005,0.387,1.960,2.520,-2.310
8664096,-0.968,0.014,0.364,1.260,3.290,-1.680
8664116,-0.985,0.017,0.320,2.030,2.450,-2.310
8664136,-0.993,0.026,0.346,1.120,-1.120,-2.240
8664152,-0.963,0.034,0.307,1.190,-3.150,-2.940
8664172,-0.954,0.022,0.283,2.940,-2.030,-4.060
8664196,-0.949,0.007,0.282,-3.360,-5.320,-3.500
8664215,-0.932,0.017,0.373,1.400,-0.070,-4.550
8664234,-0.980,0.012,0.232,3.570,-4.410,-4.200
8664253,-0.943,0.010,0.277,3.360,2.520,-2.030
8664276,-0.965,0.005,0.283,1.470,9.240,-1.820
8664300,-1.005,0.003,0.371,2.520,6.720,-2.590
8664320,-0.976,0.026,0.304,3.570,-1.190,-0.630
8664344,-0.923,0.011,0.286,0.350,0.140,-0.700
8664364,-0.947,0.008,0.318,3.290,-2.590,-1.750
8664383,-0.937,0.025,0.313,5.670,-4.620,0.420
8664404,-0.934,0.024,0.302,1.680,-2.800,0.140
8664425,-0.998,0.015,0.334,3.010,-3.290,-2.240
8664443,-1.036,0.035,0.378,7.280,-7.700,-2.380
8664463,-0.989,0.028,0.366,10.220,-7.630,-2.170
8664482,-0.961,0.014,0.332,8.960,-4.620,-1.400
8664506,-0.957,0.017,0.376,5.180,0.070,0.210
8664527,-0.993,0.016,0.354,1.190,-1.960,0.280
8664544,-0.971,0.006,0.339,1.330,-3.570,-0.770
8664564,-0.939,0.018,0.314,1.330,-3.290,-1.470
8664584,-0.956,0.015,0.339,1.680,-5.250,-2.100
8664609,-0.955,0.023,0.325,1.470,-3.220,-2.240
8664627,-0.951,0.025,0.331,0.980,0.630,-2.170
8664648,-0.974,0.029,0.347,2.170,0.140,-2.590
8664672,-0.991,0.031,0.329,0.840,-4.830,-2.800
8664692,-0.953,0.002,0.321,-1.890,5.460,-4.130
8664711,-0.978,0.031,0.329,1.260,0.490,-4.410
8664727,-0.961,0.022,0.354,2.450,-0.840,-4.620
8664751,-0.921,0.027,0.337,3.360,-9.100,-4.690
8664768,-0.912,-0.003,0.283,4.480,-10.220,-3.920
8664789,-0.924,0.003,0.318,7.980,-8.820,-4.060
8664808,-0.943,0.012,0.319,8.820,-7.980,-3.360
8664828,-0.972,0.001,0.365,8.260,-5.670,-2.520
8664852,-1.003,-0.007,0.386,6.160,-7.980,-2.240
8664872,-1.028,0.007,0.365,4.900,-6.160,-1.540
8664888,-1.013,0.007,0.347,3.850,-1.890,-0.280
8664912,-1.013,0.009,0.380,0.070,-1.890,0.770
8664933,-0.987,0.008,0.350,1.260,-3.710,0.700
8664952,-0.934,0.017,0.343,3.640,-1.680,1.820
8664971,-0.927,0.026,0.348,1.890,-1.260,2.100
8664991,-0.927,0.025,0.362,-0.280,0.630,1.470
8665011,-0.924,0.002,0.395,5.110,-1.400,2.030
8665030,-0.923,-0.016,0.361,7.350,-4.410,4.480
8665055,-0.957,0.023,0.345,-0.630,0.350,5.880
8665076,-0.991,0.060,0.380,-2.940,7.980,2.310
8665095,-0.954,0.035,0.359,-2.800,7.280,1.400
8665118,-0.944,0.048,0.357,-2.940,9.870,1.400
8665138,-0.966,0.029,0.331,-4.130,8.680,0.490
8665158,-0.935,-0.025,0.324,-9.870,12.810,3.430
8665182,-0.899,-0.049,0.378,-3.570,21.210,0.420
8665202,-0.998,-0.053,0.366,3.500,19.180,-1.470
8665222,-1.004,0.003,0.356,7.980,18.200,-4.130
8665242,-1.000,0.035,0.310,4.060,16.800,-6.020
8665264,-1.017,0.010,0.313,2.030,14.980,-5.670
8665283,-1.011,-0.003,0.297,1.400,12.670,-6.020
8665303,-0.995,0.004,0.295,0.980,9.730,-6.860
8665328,-0.955,0.002,0.297,0.000,7.420,-8.820
8665348,-0.968,0.014,0.280,3.290,3.990,-10.150
8665372,-0.971,0.028,0.243,-0.210,3.570,-7.910
8665388,-0.969,0.030,0.239,-4.830,6.230,-6.230
8665407,-0.996,0.016,0.248,-7.770,9.520,-5.600
8665433,-0.997,-0.012,0.285,-6.230,12.460,-5.880
8665452,-0.994,-0.010,0.305,-6.440,11.830,-5.460
8665472,-1.015,-0.021,0.330,-4.130,10.080,-4.830
8665492,-1.065,-0.023,0.345,-0.210,4.270,-3.220
8665512,-1.067,-0.019,0.284,1.190,-0.420,-1.470
8665532,-1.070,0.007,0.248,-0.420,2.380,-0.560
8665556,-1.059,0.016,0.239,-4.270,0.000,0.140
8665576,-1.031,-0.015,0.229,-5.600,2.660,-0.490
8665596,-0.977,-0.043,0.268,-3.850,-0.560,-1.050
8665614,-0.928,-0.018,0.242,-1.610,-6.440,-1.890
8665638,-0.843,-0.011,0.196,-4.270,-3.010,-1.610
8665658,-0.959,0.005,0.245,-3.850,-5.740,-0.280
8665678,-0.940,-0.007,0.239,-5.950,0.630,0.770
8665702,-1.018,0.004,0.295,-2.240,1.960,0.490
8665719,-1.023,-0.010,0.285,-1.330,1.470,0.840
8665744,-0.992,-0.023,0.290,-1.680,-2.380,0.350
8665764,-0.947,-0.025,0.259,-3.430,0.700,-0.490
8665783,-0.993,-0.013,0.296,-3.920,3.850,-1.050
8665803,-1.017,-0.017,0.289,-3.640,3.010,-0.840
8665827,-1.021,-0.009,0.281,-1.890,-0.980,-0.210
8665847,-1.007,-0.023,0.259,-1.680,-3.710,0.840
8665866,-0.981,-0.016,0.244,-0.840,-4.550,1.190
8665887,-0.974,-0.014,0.251,-0.140,-3.850,1.540
8665905,-0.983,-0.021,0.272,-0.280,-3.290,1.750
8665924,-1.010,-0.029,0.267,-0.840,-4.830,2.170
8665944,-1.015,-0.027,0.233,-0.560,-6.370,2.030
8665968,-1.021,-0.018,0.230,-0.280,-5.180,1.960
8665987,-1.029,-0.010,0.261,0.280,-6.650,2.800
8666007,-1.014,-0.020,0.238,0.210,-7.840,3.150
8666027,-1.011,-0.028,0.259,3.780,-8.680,2.800
8666051,-1.001,-0.015,0.257,4.340,-10.500,2.100
8666071,-0.997,-0.011,0.268,4.200,-9.660,1.190
8666091,-1.012,0.002,0.303,7.700,-12.460,0.280
8666114,-0.964,-0.022,0.288,4.060,-12.670,0.840
8666136,-1.001,0.002,0.364,5.460,-14.070,1.470
8666156,-0.970,-0.004,0.306,4.970,-16.870,1.820
8666174,-0.963,0.009,0.329,5.110,-14.350,1.610
8666195,-0.984,0.020,0.331,5.810,-13.230,1.470
8666214,-0.984,0.016,0.358,2.520,-13.860,1.960
8666238,-0.972,0.018,0.345,3.430,-17.500,0.770
8666257,-0.954,0.014,0.343,6.230,-16.450,-0.210
8666281,-0.962,0.032,0.332,5.460,-15.400,0.560
8666300,-0.958,0.030,0.361,3.990,-12.180,1.120
8666323,-0.959,0.029,0.397,4.760,-13.370,1.750
8666347,-0.959,0.027,0.364,2.870,-13.020,2.520
8666367,-0.958,0.058,0.393,3.290,-13.160,2.310
8666384,-0.930,0.057,0.376,4.410,-14.140,2.030
8666408,-0.922,0.033,0.352,2.240,-9.240,2.310
8666428,-0.959,0.041,0.353,-0.630,-2.940,3.360
8666448,-0.961,0.020,0.407,-0.980,-1.190,2.310
8666468,-0.964,-0.001,0.382,-0.630,-3.150,-17.500
8666486,-0.957,0.030,0.380,-1.820,-2.730,-1.330
8666511,-0.933,0.042,0.350,-4.130,-1.190,-1.820
8666530,-0.954,0.030,0.366,-2.940,-0.700,-1.820
8666549,-0.949,0.009,0.357,-1.400,0.980,-2.800
8666569,-0.937,0.008,0.341,-1.960,1.330,-2.450
8666590,-0.919,-0.024,0.299,-1.960,4.830,-1.120
8666614,-1.004,0.014,0.402,4.760,3.290,-1.610
8666632,-0.957,-0.006,0.330,-0.980,2.730,-1.470
8666652,-0.944,0.006,0.331,-3.850,9.800,-1.540
8666676,-0.964,0.017,0.371,1.330,6.440,-2.940
8666696,-0.937,0.023,0.335,2.730,3.570,-4.620
8666714,-0.928,0.025,0.332,-1.050,6.510,-4.830
8666736,-0.946,0.009,0.326,-0.070,6.930,-4.550
8666757,-0.965,0.026,0.365,5.250,10.010,-4.830
8666776,-0.978,0.043,0.323,5.390,9.100,-4.550
8666798,-0.994,-0.003,0.315,-3.920,12.600,-3.290
8666822,-0.998,-0.016,0.307,-6.090,14.420,-3.920
8666842,-1.015,0.003,0.361,-4.270,8.260,-5.460
8666862,-1.006,0.018,0.349,1.190,0.770,-5.880
8666877,-0.978,0.010,0.312,1.750,-3.780,-4.760
8666899,-0.954,0.003,0.278,-1.260,-6.650,-3.150
8666923,-0.947,0.002,0.307,2.660,-9.520,-2.310
8666944,-0.958,0.033,0.283,2.170,-10.290,-2.170
8666963,-0.976,0.014,0.298,1.960,-7.140,-2.520
8666982,-0.969,0.008,0.329,6.440,-6.930,-3.360
8667003,-0.977,0.012,0.319,6.930,-6.720,-3.150
8667026,-0.976,0.000,0.341,4.690,-6.720,-2.590
8667047,-0.959,0.006,0.314,8.820,-7.350,-3.290
8667066,-0.939,-0.016,0.278,2.240,-7.770,-1.680
8667084,-0.947,0.006,0.379,3.640,0.070,-0.980
8667108,-0.945,0.003,0.316,4.830,-2.450,-0.210
8667125,-0.939,0.002,0.349,5.670,0.910,0.840
8667144,-0.938,0.018,0.327,7.770,3.220,0.560
8667170,-0.960,0.032,0.307,0.350,6.930,1.120
8667189,-0.978,0.036,0.308,-3.010,7.700,0.700
8667209,-0.956,0.020,0.331,-3.080,8.820,-0.420
8667226,-0.957,0.021,0.315,0.210,7.000,-1.330
8667251,-0.957,0.030,0.299,2.030,6.510,-2.520
8667266,-0.965,0.020,0.320,-1.890,5.250,-2.450
8667286,-0.976,0.020,0.317,-4.270,2.800,-2.310
8667305,-0.983,0.020,0.323,0.630,0.140,-1.050
8667329,-1.007,0.014,0.333,4.270,-2.310,-0.280
8667351,-1.022,0.019,0.326,-1.260,-1.890,-1.120
8667370,-1.008,0.031,0.314,-2.030,-3.150,-0.070
8667390,-1.000,0.004,0.316,1.820,0.700,1.260
8667409,-1.004,-0.027,0.346,1.890,0.840,2.170
8667428,-0.972,-0.010,0.325,-1.050,0.560,1.120
8667447,-0.947,0.005,0.317,-2.660,3.990,-0.980
8667472,-0.952,0.041,0.331,-4.690,4.200,-1.540
8667490,-0.974,0.045,0.362,-7.630,3.430,-1.190
8667515,-0.947,0.031,0.342,-10.570,2.800,-0.280
8667534,-0.955,0.031,0.320,-6.720,5.670,-1.190
8667554,-0.993,-0.018,0.331,-0.910,3.920,1.330
8667575,-0.966,-0.049,0.347,-3.150,7.630,2.870
8667593,-0.962,-0.023,0.332,-6.510,4.060,4.340
8667612,-0.941,-0.018,0.380,-0.700,5.110,0.630
8667632,-0.991,-0.040,0.335,7.560,-1.190,1.120
8667657,-0.992,-0.012,0.241,4.760,2.940,3.220
8667678,-0.989,0.038,0.257,-1.260,7.630,0.210
8667695,-0.955,0.027,0.282,6.090,11.130,-4.130
8667714,-0.952,-0.008,0.304,10.640,13.090,-4.410
8667739,-0.954,-0.006,0.299,7.770,13.090,-2.450
8667760,-0.994,0.026,0.281,2.310,11.410,-3.430
8667779,-0.959,0.068,0.224,3.080,15.540,-5.250
8667799,-0.974,0.076,0.249,-2.660,19.390,-5.600
8667818,-0.992,0.066,0.252,-6.160,20.510,-6.160
8667836,-1.008,0.026,0.263,-7.140,20.090,-6.650
8667860,-0.982,-0.015,0.235,-6.160,18.060,-5.670
8667880,-0.970,-0.035,0.209,-3.360,19.250,-4.760
8667900,-0.952,-0.023,0.163,-2.030,30.100,-4.830
8667920,-0.953,0.008,0.203,-3.150,45.710,-5.390
8667938,-1.118,0.011,0.303,-7.980,39.690,-5.320
8667963,-1.137,-0.021,0.235,-9.170,16.450,-3.850
8667980,-1.088,-0.030,0.211,-2.450,13.370,-3.220
8668004,-1.062,-0.042,0.249,5.460,6.510,0.070
8668024,-1.050,-0.039,0.201,7.560,0.700,3.220
8668044,-1.020,-0.041,0.188,5.390,6.790,3.360
8668064,-1.057,-0.012,0.221,6.650,-0.140,3.080
8668081,-0.975,-0.003,0.157,4.410,-5.950,1.050
8668104,-0.920,0.022,0.147,-0.210,-2.100,-3.010
8668128,-0.915,0.007,0.113,-8.190,-2.310,-4.270
8668148,-0.932,-0.015,0.097,-10.500,0.980,-6.020
8668168,-0.968,-0.018,0.182,-6.230,4.690,-7.210
8668188,-1.009,-0.021,0.186,-3.640,0.280,-7.980
8668205,-1.034,-0.023,0.203,-0.630,-2.310,-8.540
8668224,-1.016,0.007,0.221,3.850,-2.100,-7.350
8668248,-1.062,-0.040,0.202,1.610,-6.090,-2.520
8668269,-1.062,-0.049,0.186,0.000,-7.910,-0.140
8668288,-1.061,-0.036,0.230,2.030,-13.020,0.910
8668312,-1.023,-0.022,0.234,5.250,-17.640,2.240
8668332,-1.003,-0.023,0.217,7.000,-20.510,3.500
8668349,-0.996,-0.007,0.203,5.740,-20.510,3.640
8668373,-1.000,0.009,0.179,4.550,-15.540,3.220
8668390,-1.016,-0.013,0.190,6.160,-13.300,3.360
8668411,-0.982,-0.023,0.177,5.250,-13.160,3.920
8668433,-0.967,-0.010,0.184,4.340,-9.380,3.430
8668454,-0.974,-0.003,0.208,2.870,-5.670,2.660
8668470,-0.989,0.001,0.226,2.240,-5.040,2.240
8668491,-1.009,-0.003,0.238,3.710,-6.860,1.820
8668512,-1.023,0.003,0.221,1.680,-11.970,2.870
8668537,-1.026,-0.006,0.195,4.690,-8.400,2.660
8668556,-1.032,0.012,0.201,4.970,-10.640,2.870
8668575,-0.977,0.017,0.192,3.290,-6.160,2.590
8668599,-0.993,0.008,0.236,0.840,-5.950,2.450
8668614,-1.001,-0.004,0.227,-1.680,-6.930,2.940
8668639,-1.021,-0.009,0.244,0.280,-7.070,2.310
8668659,-1.018,-0.001,0.248,3.150,-9.380,1.680
8668679,-1.005,0.012,0.256,-1.050,-14.630,1.050
8668694,-1.005,0.007,0.260,-0.980,-16.030,0.070
8668719,-1.003,0.010,0.273,3.780,-16.590,-0.070
8668738,-1.016,0.005,0.267,3.780,-16.310,1.330
8668757,-1.038,-0.004,0.304,2.450,-17.850,1.750
8668779,-1.021,0.007,0.313,2.590,-21.210,2.170
8668799,-1.011,0.013,0.331,3.150,-22.540,2.100
8668823,-1.012,0.015,0.350,2.660,-28.140,1.960
8668843,-0.945,0.008,0.319,2.730,-28.420,1.610
8668864,-0.940,0.038,0.338,2.030,-24.430,0.700
8668883,-0.947,0.026,0.386,0.280,-26.390,1.610
8668903,-0.926,0.020,0.363,-0.140,-26.460,1.750
8668923,-0.946,0.019,0.343,-0.490,-23.240,0.140
8668947,-0.964,0.020,0.379,0.840,-17.290,0.840
8668966,-0.962,0.002,0.414,4.620,-17.850,2.100
8668990,-0.941,0.023,0.374,7.210,-19.740,0.280
8669010,-0.946,0.022,0.363,4.410,-19.880,0.140
8669030,-0.921,0.019,0.398,4.620,-15.190,-0.560
8669050,-0.935,0.003,0.349,4.130,-14.490,0.210
8669069,-0.935,0.015,0.353,4.340,-8.330,-1.470
8669091,-0.939,0.054,0.371,1.330,-4.060,-3.360
8669111,-0.980,0.028,0.424,1.890,-4.620,-2.310
8669131,-0.982,0.037,0.380,2.030,-11.620,-2.590
8669155,-0.961,0.041,0.364,1.890,-10.360,-2.730
8669174,-0.956,0.045,0.356,1.050,-6.090,-1.400
8669194,-0.953,0.010,0.386,-1.470,-6.300,-0.910
8669211,-0.925,0.002,0.363,-4.830,-5.040,-2.030
8669231,-0.913,0.017,0.393,-2.800,-4.200,-2.730
8669251,-0.943,0.018,0.390,-4.130,-0.770,-3.640
8669270,-0.967,0.007,0.407,-1.470,-2.100,-5.390
8669295,-0.961,0.012,0.400,2.100,-3.920,-6.090
8669315,-0.958,-0.019,0.347,2.380,1.470,-4.900
8669338,-0.940,-0.018,0.384,8.470,6.230,-4.690
8669356,-0.939,0.002,0.433,9.870,4.970,-4.340
8669376,-0.943,0.013,0.374,7.490,3.710,-3.500
8669400,-0.950,0.008,0.346,5.530,5.880,-5.390
8669420,-0.945,0.021,0.378,2.800,9.170,-7.910
8669440,-0.982,0.022,0.388,-0.350,7.490,-8.960
8669455,-0.970,0.016,0.351,0.490,7.630,-9.520
8669476,-0.932,0.000,0.346,0.840,8.960,-11.270
8669496,-0.954,0.002,0.390,4.060,3.640,-8.540
8669517,-1.012,0.021,0.351,4.550,4.620,-4.690
8669536,-0.887,-0.022,0.359,-0.840,5.600,-6.510
8669561,-0.940,0.041,0.407,5.810,1.400,-6.230
8669581,-0.880,0.009,0.357,0.770,-0.070,-4.550
8669600,-0.933,-0.013,0.350,-3.010,4.200,-6.020
8669621,-1.002,0.025,0.393,4.270,1.400,-3.220
8669640,-1.028,0.013,0.371,2.800,-1.050,-1.400
8669661,-0.903,-0.018,0.336,-6.720,7.420,-4.760
8669681,-0.932,-0.002,0.369,-6.790,5.460,-5.880
8669701,-0.994,0.009,0.381,0.420,-0.490,-3.220
8669721,-0.945,-0.011,0.325,-3.640,-2.100,-3.640
8669740,-0.932,-0.014,0.307,-4.760,1.890,-4.340
8669759,-0.915,-0.010,0.342,2.170,6.510,-2.100
8669779,-0.937,-0.020,0.353,4.200,2.450,-1.190
8669803,-0.954,0.012,0.305,0.210,0.490,-1.540
8669825,-0.936,-0.005,0.349,1.820,0.140,-1.190
8669845,-0.927,0.000,0.355,0.140,-2.380,-0.630
8669869,-0.946,-0.020,0.343,-1.540,-1.470,-0.280
8669890,-0.957,-0.014,0.325,1.890,-0.630,-0.350
8669908,-0.973,0.000,0.344,4.130,-1.260,0.140
8669927,-0.981,-0.003,0.326,2.730,-5.600,0.560
8669948,-0.954,-0.017,0.314,4.690,2.450,-0.280
8669972,-0.946,-0.009,0.492,10.780,1.330,-0.770
8669992,-0.915,-0.014,0.363,5.670,8.400,-2.170
8670012,-0.987,0.015,0.326,5.530,3.220,-4.480
8670037,-0.971,0.012,0.359,2.800,2.380,-2.170
8670056,-1.011,-0.012,0.401,2.800,-3.640,1.120
8670076,-0.902,-0.003,0.340,0.980,-0.910,3.640
8670092,-0.879,0.031,0.341,-3.360,1.120,4.270
8670111,-0.928,0.041,0.358,-6.510,0.280,4.200
8670131,-0.939,0.004,0.404,-0.350,1.400,1.610
8670157,-0.927,0.017,0.328,-0.910,2.030,-0.490
8670176,-1.009,0.041,0.302,-7.140,7.280,-3.080
8670191,-1.042,0.028,0.375,-14.770,10.220,-4.900
8670216,-0.984,-0.042,0.372,-5.250,11.550,-5.810
8670234,-0.959,-0.084,0.373,10.570,9.240,-2.450
8670257,-0.974,-0.079,0.319,-6.090,9.660,1.890
8670277,-1.009,-0.052,0.349,-6.160,4.830,-0.490
8670301,-0.953,-0.020,0.290,11.340,8.890,-3.780
8670317,-0.912,-0.011,0.342,10.640,18.130,-2.100
8670341,-0.928,-0.036,0.367,-1.330,21.630,-0.350
8670359,-0.985,0.003,0.360,-7.560,15.330,-3.430
8670378,-0.988,0.057,0.314,-9.450,16.030,-4.690
8670398,-0.935,0.031,0.248,-5.880,24.500,-4.060
8670418,-0.985,-0.003,0.305,-2.940,30.380,0.980
8670437,-1.048,-0.063,0.342,-2.380,26.530,3.430
8670462,-1.086,-0.065,0.329,2.170,16.170,2.730
8670480,-0.974,-0.050,0.205,-0.490,6.860,0.560
8670500,-0.991,0.009,0.226,4.340,13.580,-1.190
8670524,-0.990,-0.005,0.227,3.080,14.000,-2.590
8670545,-0.973,0.001,0.258,1.050,15.610,-2.590
8670561,-0.963,-0.009,0.229,1.120,14.840,-1.680
8670584,-0.954,-0.026,0.246,0.070,16.660,-0.770
8670604,-0.926,-0.010,0.253,0.630,14.700,-0.910
8670623,-0.945,-0.024,0.236,1.820,15.400,-2.100
8670643,-1.055,-0.044,0.222,2.310,19.040,-1.610
8670668,-1.119,-0.029,0.237,1.400,11.270,-0.840
8670685,-1.097,-0.004,0.224,0.840,5.250,-1.190
8670704,-1.070,0.023,0.202,-1.400,3.570,-0.840
8670727,-1.043,0.014,0.197,-1.750,4.200,-1.400
8670745,-1.040,0.002,0.193,-2.590,4.480,-3.080
8670769,-1.040,-0.044,0.188,-3.290,4.760,-3.990
8670789,-1.024,-0.018,0.188,-4.410,4.410,-3.360
8670804,-1.005,0.020,0.182,-8.260,0.420,-1.960
8670829,-1.011,-0.009,0.162,-11.620,2.520,-0.630
8670849,-1.048,-0.031,0.178,-10.780,3.570,-1.610
8670869,-1.034,-0.034,0.185,-9.660,2.800,-3.150
8670890,-1.027,-0.015,0.218,-8.540,2.730,-2.660
8670908,-1.039,-0.028,0.234,-7.560,2.520,-2.310
8670928,-1.032,-0.026,0.254,-7.000,-0.840,-1.050
8670950,-0.952,-0.023,0.203,-1.050,-8.540,0.210
8670967,-0.914,-0.027,0.156,-3.640,-8.820,2.800
8670987,-0.911,-0.027,0.176,-1.540,2.380,1.050
8671007,-0.971,-0.028,0.180,-2.240,-4.060,2.380
8671027,-0.966,-0.035,0.166,-4.270,-2.240,1.960
8671051,-1.001,-0.050,0.195,-3.430,-1.260,0.980
8671069,-1.016,-0.050,0.203,-2.170,-0.840,-0.140
8671090,-1.071,-0.048,0.219,1.890,-4.130,-0.350
8671109,-1.046,-0.046,0.191,5.250,-4.830,-0.770
8671135,-1.026,-0.048,0.209,4.340,-4.270,0.350
8671153,-0.996,-0.044,0.195,2.100,-2.870,1.120
8671175,-0.989,-0.035,0.201,1.610,-3.220,1.470
8671193,-0.982,-0.023,0.203,3.570,-4.130,1.610
8671218,-0.985,-0.015,0.203,4.410,-5.810,1.960
8671236,-0.995,0.008,0.206,5.040,-6.510,2.170
8671257,-1.010,0.010,0.207,5.530,-7.420,2.800
8671277,-0.877,0.001,0.206,5.740,-6.650,2.940
8671298,-0.978,0.000,0.197,3.290,-4.200,2.870
8671316,-1.028,-0.015,0.224,3.430,-3.640,2.660
8671336,-1.047,-0.024,0.217,2.240,-5.880,2.380
8671357,-1.026,-0.007,0.180,-0.420,-5.390,1.540
8671378,-1.020,-0.002,0.209,-1.190,-5.740,1.120
8671398,-1.014,-0.008,0.224,-1.050,-9.100,0.630
8671417,-1.004,-0.014,0.217,2.240,-11.620,0.280
8671442,-1.004,-0.003,0.229,4.340,-15.540,0.700
8671461,-1.013,-0.008,0.232,6.160,-22.330,0.630
8671481,-0.998,-0.020,0.206,3.570,-27.370,0.630
8671505,-1.032,0.017,0.271,3.710,-23.800,-1.610
8671525,-1.031,0.017,0.248,4.410,-25.060,-0.770
8671543,-1.034,0.010,0.264,3.430,-23.030,0.420
8671567,-1.031,-0.020,0.286,4.690,-25.410,3.220
8671586,-1.009,-0.041,0.302,3.150,-25.410,4.270
8671605,-1.003,-0.022,0.321,3.500,-28.000,3.780
8671626,-0.956,-0.008,0.331,5.810,-28.630,2.310
8671650,-0.950,-0.016,0.335,6.580,-30.100,1.960
8671668,-0.929,0.022,0.340,7.420,-28.000,1.260
8671689,-0.912,0.023,0.301,4.690,-21.910,1.330
8671710,-0.931,-0.009,0.368,-0.210,-15.050,2.520
8671730,-0.956,0.018,0.400,2.170,-15.260,1.960
8671753,-0.937,0.078,0.387,2.100,-11.410,-1.190
8671773,-0.957,0.099,0.409,-0.420,-10.990,-3.500
8671794,-0.959,0.046,0.339,4.900,-14.560,-0.770
8671814,-0.966,-0.045,0.310,12.740,-7.770,0.210
8671836,-0.985,-0.045,0.373,7.000,-2.100,-1.120
8671858,-0.992,-0.024,0.421,7.210,-6.020,-2.100
8671877,-0.953,0.005,0.404,9.590,-12.040,-2.590
8671901,-0.935,0.043,0.306,6.230,-8.190,-2.800
8671919,-0.953,0.047,0.327,1.610,-1.540,-1.610
8671943,-0.983,0.021,0.408,-0.070,-3.920,-4.130
8671963,-0.956,0.013,0.402,3.290,-6.930,-5.180
8671982,-0.961,0.008,0.382,-0.910,-7.980,-4.410
8672002,-0.961,0.031,0.393,3.430,-3.290,-5.530
8672026,-0.947,0.001,0.334,5.670,-8.190,-5.040
8672046,-0.922,0.001,0.338,3.570,2.660,-4.620
8672066,-0.976,0.016,0.414,6.020,0.770,-5.810
8672085,-0.953,0.008,0.410,4.270,-3.290,-5.040
8672105,-0.935,0.122,0.352,5.110,-3.710,-5.180
8672124,-0.925,0.023,0.317,1.890,3.290,-4.550
8672149,-0.912,0.015,0.366,-0.840,12.670,-1.540
8672169,-0.939,-0.013,0.395,1.190,13.160,0.910
8672192,-0.975,-0.045,0.399,6.020,7.140,2.870
8672213,-0.969,-0.064,0.347,7.700,11.970,2.310
8672234,-0.962,-0.020,0.297,13.300,18.550,-0.210
8672252,-0.959,0.049,0.311,12.040,26.320,-2.380
8672272,-0.963,0.113,0.345,6.650,28.490,-5.250
8672296,-0.978,0.101,0.320,-7.980,24.850,-6.650
8672315,-0.979,0.054,0.288,-7.630,18.410,-8.120
8672336,-0.935,0.063,0.269,2.450,14.980,-5.670
8672359,-0.956,0.016,0.270,-1.050,11.760,-2.660
8672380,-1.015,-0.021,0.252,-1.400,9.310,-2.450
8672400,-0.995,-0.008,0.295,6.720,5.880,-0.490
8672420,-0.991,-0.001,0.260,6.790,3.080,0.000
8672436,-1.025,0.013,0.247,-0.910,2.100,0.140
8672459,-1.017,0.009,0.288,-1.890,-0.980,-0.420
8672479,-1.021,-0.015,0.255,-2.450,-5.950,1.960
8672498,-0.976,0.022,0.291,0.560,-1.400,2.380
8672518,-0.973,-0.002,0.224,-10.850,3.010,0.910
8672541,-0.960,0.023,0.331,-5.950,2.450,-1.050
8672561,-0.980,0.006,0.309,-1.540,-2.870,0.280
8672581,-0.979,-0.001,0.280,-4.830,-5.670,0.910
8672601,-0.965,0.003,0.246,-5.460,-6.370,-0.560
8672625,-0.966,0.008,0.270,-1.330,-3.780,-3.220
8672645,-0.966,0.013,0.286,-0.140,-4.410,-2.660
8672662,-0.965,0.000,0.268,-3.780,-4.200,-2.100
8672682,-0.962,-0.002,0.285,-1.750,-4.830,-1.890
8672706,-0.956,-0.005,0.290,1.820,-6.790,-1.330
8672726,-0.967,0.012,0.285,-0.140,-6.510,-1.190
8672746,-0.998,0.020,0.285,-4.480,-8.190,-1.890
8672766,-0.997,0.010,0.291,0.140,-8.190,-1.680
8672782,-0.987,-0.017,0.293,1.540,-8.400,-0.770
8672806,-0.991,-0.009,0.291,-0.280,-7.700,-0.700
8672826,-1.004,0.019,0.319,-3.920,-8.750,0.140
8672846,-0.975,0.004,0.325,-1.120,-8.050,2.240
8672866,-0.965,-0.019,0.314,3.290,-7.560,2.940
8672887,-0.975,0.001,0.329,0.490,-4.550,1.820
8672909,-0.957,0.023,0.339,-5.530,-4.620,0.770
8672929,-0.927,0.000,0.325,-7.560,-2.940,1.470
8672949,-0.942,-0.017,0.360,-5.110,1.260,1.610
8672973,-0.953,0.021,0.381,-3.080,-4.620,-0.420
8672993,-0.884,0.010,0.316,-0.770,6.790,-2.450
8673013,-0.976,-0.014,0.348,-1.330,8.330,-0.140
8673034,-1.008,-0.055,0.343,1.890,8.960,1.540
8673057,-0.960,-0.024,0.306,7.350,12.810,-0.350
8673075,-0.917,-0.018,0.316,6.720,20.090,-0.210
8673095,-1.010,-0.011,0.370,4.410,18.270,0.140
8673115,-1.045,0.004,0.345,4.760,9.730,-0.910
8673140,-0.971,0.018,0.285,0.350,8.680,-3.150
8673158,-0.912,0.015,0.275,-0.140,16.940,-4.690
8673177,-0.990,-0.020,0.334,3.500,19.040,-2.660
8673202,-1.018,-0.031,0.337,-0.560,13.790,-1.050
8673222,-0.981,-0.011,0.325,1.120,11.970,-2.450
8673241,-0.968,-0.041,0.339,2.100,13.720,-3.500
8673264,-0.996,-0.037,0.246,-3.780,21.210,-5.880
8673288,-0.994,0.000,0.058,-6.090,38.500,-11.200
8673304,-0.985,0.041,0.104,-9.170,55.020,-13.090
8673328,-1.038,0.050,0.287,-13.860,36.540,-10.430
8673348,-1.010,0.048,0.296,-8.330,32.760,-6.650
8673367,-0.970,0.038,0.194,-3.990,22.820,-5.320
8673391,-0.977,0.020,0.141,-1.610,18.620,-5.670
8673412,-1.008,0.005,0.136,-1.890,17.570,-5.530
8673430,-1.019,-0.010,0.143,-3.150,15.260,-4.340
8673451,-1.020,-0.029,0.131,-3.990,13.650,-3.570
8673471,-1.038,-0.048,0.122,-3.010,10.570,-3.220
8673491,-1.017,-0.091,0.094,-6.650,9.100,-1.190
8673515,-1.050,-0.039,0.132,-4.690,11.760,-3.220
8673530,-1.080,-0.056,0.153,-4.690,9.380,-3.080
8673554,-1.097,-0.028,0.160,-4.060,7.490,-3.780
8673574,-1.070,-0.014,0.143,-3.780,6.020,-3.570
8673598,-1.033,-0.007,0.172,-4.270,3.780,-1.190
8673618,-1.015,0.007,0.173,-5.460,-1.470,-1.050
8673638,-1.010,-0.001,0.158,-5.670,-6.790,-2.520
