Millis,AccelX,AccelY,AccelZ,GyroX,GyroY,GyroZ
158801951,-0.921,-0.093,0.483,1.540,-2.240,-1.050
158801970,-0.914,-0.090,0.480,0.770,-2.730,-0.840
158801990,-0.916,-0.087,0.475,-0.980,-2.730,0.210
158802010,-0.918,-0.081,0.482,-1.330,-1.260,2.800
158802034,-0.932,-0.075,0.489,-1.330,-2.310,6.510
158802054,-0.908,-0.063,0.484,-4.620,-2.660,7.420
158802069,-0.908,-0.079,0.492,-3.990,-3.430,6.370
158802094,-0.927,-0.063,0.486,-1.540,-3.150,3.850
158802110,-0.927,-0.095,0.491,0.350,-3.640,2.240
158802130,-0.927,-0.080,0.486,3.640,-3.150,1.190
158802149,-0.923,-0.084,0.472,2.520,-3.640,0.140
158802174,-0.913,-0.091,0.467,3.290,-3.360,0.070
158802194,-0.913,-0.094,0.468,3.010,-3.290,0.350
158802213,-0.912,-0.092,0.470,2.520,-2.450,0.630
158802233,-0.915,-0.102,0.465,0.630,-1.960,0.700
158802257,-0.910,-0.103,0.468,2.730,-1.750,0.490
158802277,-0.921,-0.064,0.477,1.120,-2.590,-0.630
158802295,-0.917,-0.087,0.477,-0.840,-2.590,-1.750
158802317,-0.919,-0.084,0.472,0.140,-2.100,-2.730
158802337,-0.923,-0.072,0.462,0.070,-1.470,-3.220
158802355,-0.919,-0.073,0.468,0.280,-1.050,-2.870
158802375,-0.916,-0.085,0.475,2.870,0.000,-2.100
158802395,-0.913,-0.063,0.488,3.570,0.770,-1.470
158802415,-0.918,-0.069,0.479,2.310,0.770,-1.120
158802438,-0.920,-0.070,0.479,0.280,0.280,-0.210
158802458,-0.924,-0.080,0.490,1.260,0.000,0.350
158802478,-0.926,-0.083,0.493,2.310,-0.140,0.350
158802498,-0.923,-0.065,0.489,0.700,-0.490,0.490
158802522,-0.921,-0.085,0.479,1.400,-1.190,1.330
158802542,-0.919,-0.085,0.487,2.590,-0.840,0.700
158802562,-0.923,-0.078,0.484,2.100,-1.190,-0.070
158802582,-0.917,-0.072,0.474,1.400,-1.680,-0.070
158802602,-0.913,-0.082,0.476,2.030,-1.680,0.350
158802621,-0.915,-0.073,0.482,1.540,-1.680,0.350
158802641,-0.912,-0.079,0.475,1.330,-1.750,0.070
158802660,-0.919,-0.078,0.461,0.350,-2.030,-0.490
158802681,-0.919,-0.086,0.464,-0.630,-2.100,-0.910
158802702,-0.921,-0.084,0.468,1.610,-1.540,-0.840
158802723,-0.925,-0.078,0.468,1.190,-1.400,-1.120
158802745,-0.919,-0.080,0.475,17.850,-1.330,-2.030
158802766,-0.920,-0.073,0.471,0.140,-1.330,-3.360
158802789,-0.915,-0.065,0.460,0.000,-1.330,-2.590
158802806,-0.912,-0.076,0.475,1.610,-1.120,-1.680
158802827,-0.911,-0.073,0.480,-0.560,-1.470,-1.470
158802851,-0.922,-0.074,0.477,-2.380,-1.890,-3.220
158802871,-0.934,-0.096,0.474,-4.270,-1.540,-3.220
158802891,-0.935,-0.107,0.497,-2.170,-1.820,-1.540
158802910,-0.937,-0.084,0.507,-2.590,-2.590,-0.630
158802934,-0.924,-0.057,0.493,-12.600,-5.040,-1.680
158802953,-0.916,-0.073,0.477,-14.210,-6.370,-2.310
158802970,-0.917,-0.086,0.471,-15.050,-7.350,-2.240
158802990,-0.905,-0.094,0.437,-0.140,-8.680,-3.500
158803010,-0.876,-0.145,0.452,-7.630,-5.320,-4.830
158803030,-0.892,-0.133,0.452,6.790,-1.890,-6.370
158803054,-0.892,-0.088,0.440,9.520,-0.490,-6.300
158803072,-0.914,-0.077,0.447,5.110,-0.910,-6.020
158803096,-0.925,-0.116,0.450,11.200,1.540,-6.160
158803114,-0.932,-0.108,0.426,17.360,3.360,-7.840
158803134,-0.889,-0.137,0.465,40.390,9.800,-11.270
158803158,-0.941,-0.050,0.458,56.070,12.460,-11.620
158803178,-0.964,0.013,0.452,50.330,11.270,-7.840
158803198,-0.956,0.041,0.480,26.460,6.650,-3.640
158803217,-0.939,-0.014,0.492,9.170,4.130,0.700
158803238,-0.925,-0.036,0.470,-2.310,1.540,4.200
158803256,-0.930,-0.062,0.463,-8.470,0.420,5.460
158803279,-0.932,-0.099,0.452,-10.430,-0.770,6.650
158803300,-0.933,-0.111,0.458,-11.270,-0.770,6.020
158803320,-0.930,-0.105,0.451,-11.690,-0.910,4.200
158803340,-0.928,-0.091,0.437,-14.560,-2.100,2.590
158803360,-0.920,-0.106,0.430,-15.470,-2.170,0.980
158803384,-0.920,-0.117,0.418,-11.340,-1.120,0.350
158803404,-0.915,-0.120,0.430,-3.220,1.750,0.280
158803420,-0.928,-0.104,0.441,1.470,3.500,0.210
158803443,-0.922,-0.090,0.430,0.630,3.990,-0.630
158803464,-0.917,-0.142,0.444,12.040,7.700,-1.470
158803480,-0.923,-0.110,0.448,21.560,9.450,-2.240
158803500,-0.929,-0.084,0.450,29.120,9.450,-3.150
158803519,-0.944,-0.028,0.462,25.130,7.350,-3.430
158803541,-0.953,-0.025,0.464,10.430,3.710,-3.570
158803564,-0.954,-0.040,0.451,1.120,0.490,-3.010
158803584,-0.952,-0.056,0.443,-6.580,-2.030,-2.380
158803604,-0.946,-0.084,0.428,-9.730,-2.590,-1.750
158803624,-0.935,-0.097,0.427,-7.840,-2.380,-1.960
158803641,-0.941,-0.086,0.420,-7.350,-1.470,-2.590
158803661,-0.941,-0.078,0.416,-11.060,-1.470,-3.150
158803681,-0.937,-0.083,0.408,-13.020,-1.260,-3.010
158803702,-0.931,-0.125,0.415,-7.210,-0.420,-3.010
158803723,-0.938,-0.092,0.408,-2.100,2.100,-2.870
158803742,-0.937,-0.082,0.416,-2.730,2.730,-2.240
158803767,-0.940,-0.061,0.412,-9.170,2.100,-0.840
158803782,-0.947,-0.056,0.407,-15.470,1.330,0.210
158803802,-0.941,-0.078,0.402,-21.770,0.980,0.910
158803824,-0.938,-0.115,0.408,-17.850,3.080,0.910
158803845,-0.946,-0.102,0.418,-15.610,4.690,-0.420
158803865,-0.957,-0.064,0.427,-19.180,4.760,-1.050
158803889,-0.967,-0.038,0.434,-34.650,2.940,-0.140
158803909,-0.979,-0.053,0.447,-57.400,-0.070,0.560
158803930,-0.983,-0.078,0.415,-70.840,-3.080,3.500
158803951,-0.983,-0.074,0.395,-90.860,-5.950,6.230
158803975,-0.983,-0.084,0.364,-108.850,-11.900,6.370
158803994,-0.954,-0.140,0.350,-124.390,-16.520,4.690
158804014,-0.947,-0.168,0.352,-131.600,-16.940,1.680
158804035,-0.960,-0.156,0.347,-141.050,-19.320,-1.960
158804055,-0.965,-0.186,0.321,-146.440,-19.740,-5.040
158804074,-0.975,-0.188,0.284,-153.720,-21.700,-8.610
158804090,-0.958,-0.248,0.268,-158.060,-24.290,-11.900
158804110,-0.946,-0.309,0.266,-150.430,-24.290,-14.210
158804135,-0.970,-0.284,0.267,-139.440,-21.840,-11.970
158804155,-0.964,-0.274,0.222,-138.880,-23.310,-6.230
158804179,-0.952,-0.280,0.228,-133.560,-24.850,2.240
158804197,-0.954,-0.357,0.238,-117.600,-26.390,10.150
158804218,-0.904,-0.294,0.296,-94.150,-21.070,21.000
158804238,-0.939,-0.248,0.275,-85.050,-19.460,30.310
158804263,-0.924,-0.309,0.279,-69.020,-16.590,34.720
158804282,-0.923,-0.337,0.285,-53.830,-13.160,38.500
158804306,-0.924,-0.326,0.276,-42.770,-10.780,39.550
158804322,-0.929,-0.356,0.281,-29.820,-8.960,38.570
158804343,-0.878,-0.391,0.350,-14.490,-4.830,36.890
158804362,-0.874,-0.428,0.394,0.140,-0.280,34.720
158804386,-0.949,-0.422,0.394,13.650,2.240,31.500
158804407,-0.963,-0.401,0.425,11.340,-0.840,26.950
158804427,-0.910,-0.440,0.427,14.980,-0.910,22.400
158804447,-0.906,-0.356,0.439,4.270,-2.730,16.730
158804467,-0.929,-0.336,0.466,-6.860,-3.920,10.780
158804486,-0.968,-0.282,0.450,-27.090,-8.680,7.070
158804504,-0.931,-0.296,0.432,-41.650,-11.760,3.920
158804526,-0.882,-0.305,0.442,-50.330,-11.970,3.360
158804550,-0.880,-0.308,0.427,-48.300,-12.180,5.250
158804569,-0.848,-0.317,0.417,-42.280,-10.990,6.860
158804589,-0.822,-0.294,0.436,-33.880,-6.160,7.980
158804612,-0.840,-0.320,0.430,-22.050,-2.170,6.650
158804633,-0.824,-0.326,0.419,-3.990,2.380,5.040
158804653,-0.826,-0.296,0.416,8.050,6.230,3.290
158804670,-0.867,-0.298,0.422,17.220,7.560,1.120
158804689,-0.897,-0.295,0.432,23.800,6.300,-1.330
158804714,-0.908,-0.265,0.430,25.060,4.620,-4.480
158804734,-0.910,-0.260,0.438,19.180,1.470,-8.610
158804754,-0.921,-0.292,0.447,18.900,0.980,-14.420
158804778,-0.924,-0.299,0.447,21.070,-0.910,-19.460
158804796,-0.927,-0.286,0.443,21.420,-0.910,-23.240
158804820,-0.951,-0.292,0.426,22.260,-2.870,-26.600
158804840,-0.937,-0.289,0.411,23.240,-4.060,-28.770
158804860,-0.921,-0.278,0.405,26.040,-4.060,-31.080
158804879,-0.908,-0.313,0.374,28.770,-1.190,-33.600
158804900,-0.904,-0.364,0.358,38.780,2.660,-33.880
158804921,-0.923,-0.408,0.345,54.040,7.700,-32.900
158804943,-0.932,-0.437,0.335,75.670,13.720,-31.150
158804963,-0.969,-0.414,0.332,84.840,15.330,-32.340
158804983,-0.987,-0.451,0.316,86.520,14.630,-35.070
158805007,-0.947,-0.430,0.333,82.040,10.150,-40.810
158805023,-0.877,-0.405,0.336,74.480,6.090,-46.410
158805046,-0.821,-0.478,0.366,66.710,-0.350,-57.400
158805066,-0.820,-0.548,0.389,76.790,-0.630,-64.120
158805090,-0.911,-0.622,0.401,89.670,-1.470,-66.780
158805110,-0.995,-0.649,0.396,106.540,-6.300,-64.330
158805130,-0.949,-0.558,0.431,102.830,-12.950,-60.830
158805153,-0.922,-0.535,0.470,83.300,-22.680,-59.920
158805172,-0.902,-0.604,0.519,83.580,-29.820,-60.620
158805195,-0.952,-0.556,0.502,87.780,-38.570,-58.380
158805216,-0.954,-0.513,0.496,79.100,-49.840,-55.230
158805235,-0.932,-0.554,0.526,74.970,-54.950,-52.780
158805254,-0.915,-0.581,0.533,86.030,-57.540,-50.400
158805274,-0.919,-0.549,0.553,97.650,-58.100,-47.110
158805296,-0.897,-0.493,0.580,104.510,-60.900,-44.310
158805318,-0.918,-0.435,0.578,100.800,-64.330,-37.590
158805337,-0.939,-0.375,0.619,89.810,-70.490,-33.040
158805362,-0.912,-0.421,0.699,71.960,-74.550,-27.930
158805382,-0.898,-0.413,0.713,62.230,-73.640,-26.670
158805401,-0.861,-0.388,0.705,55.650,-74.480,-27.510
158805420,-0.787,-0.346,0.717,50.960,-74.690,-29.050
158805441,-0.732,-0.354,0.709,45.780,-71.540,-29.260
158805460,-0.691,-0.327,0.699,47.810,-68.320,-29.050
158805485,-0.630,-0.280,0.707,53.340,-65.450,-31.640
158805504,-0.585,-0.252,0.763,58.590,-59.500,-33.180
158805527,-0.600,-0.161,0.732,57.890,-57.960,-28.560
158805545,-0.569,-0.151,0.699,47.530,-60.410,-25.550
158805569,-0.555,-0.152,0.709,37.240,-61.110,-22.680
158805589,-0.519,-0.059,0.690,25.690,-62.510,-20.720
158805609,-0.484,-0.075,0.650,9.660,-61.810,-18.970
158805633,-0.473,-0.175,0.644,7.700,-55.440,-13.440
158805650,-0.434,-0.171,0.632,15.750,-53.620,-11.620
158805674,-0.372,-0.188,0.682,32.830,-45.850,-12.670
158805692,-0.387,-0.183,0.738,44.450,-40.740,-13.860
158805710,-0.418,-0.112,0.727,42.630,-41.790,-12.040
158805730,-0.418,-0.151,0.765,35.910,-43.890,-9.450
158805749,-0.412,-0.160,0.758,36.890,-46.340,-4.130
158805774,-0.356,-0.176,0.711,40.460,-48.300,1.400
158805793,-0.332,-0.170,0.739,50.960,-42.560,0.700
158805813,-0.325,-0.059,0.700,41.090,-45.010,0.350
158805833,-0.290,-0.102,0.726,27.230,-43.330,-1.890
158805857,-0.264,-0.052,0.759,12.390,-42.420,-4.550
158805877,-0.225,-0.102,0.787,16.170,-39.760,-5.320
158805895,-0.239,-0.165,0.809,29.750,-32.270,-5.040
158805916,-0.226,-0.104,0.826,39.970,-29.050,-3.920
158805940,-0.223,-0.113,0.854,49.840,-25.620,0.070
158805959,-0.247,-0.039,0.879,51.590,-24.430,2.940
158805979,-0.229,0.000,0.943,34.650,-25.060,5.530
158806000,-0.258,-0.054,0.941,22.330,-26.810,8.960
158806024,-0.240,-0.084,0.951,19.950,-28.140,11.340
158806042,-0.207,-0.057,0.976,17.360,-30.380,11.480
158806066,-0.177,-0.071,0.984,17.010,-28.700,10.430
158806086,-0.166,-0.061,0.986,13.650,-29.750,7.420
158806106,-0.121,-0.054,1.023,12.180,-29.680,4.830
158806125,-0.125,-0.095,1.043,16.800,-30.450,3.220
158806145,-0.147,-0.091,1.071,15.960,-27.160,4.060
158806166,-0.170,-0.045,1.078,10.080,-27.160,6.650
158806182,-0.134,0.015,1.084,-0.770,-30.800,6.370
158806202,-0.080,-0.126,1.106,7.210,-32.130,7.070
158806223,-0.142,-0.165,1.096,42.560,-21.980,10.500
158806245,-0.157,0.043,1.022,48.860,-23.310,13.370
158806265,-0.086,0.079,1.011,29.820,-25.130,14.560
158806289,-0.114,0.042,1.065,5.040,-25.830,11.340
158806309,-0.086,0.067,1.083,-3.640,-24.430,12.670
158806329,-0.091,0.016,1.037,-4.270,-24.850,15.470
158806352,-0.057,-0.049,1.094,6.580,-22.260,16.030
158806372,-0.102,0.031,1.123,18.130,-20.580,17.080
158806391,-0.089,0.044,1.137,8.540,-23.100,15.890
158806415,-0.064,0.073,1.050,-11.480,-27.020,14.560
158806435,-0.016,-0.070,1.137,-11.830,-26.530,10.780
158806455,0.022,-0.076,1.179,7.980,-33.250,10.990
158806479,0.023,-0.065,1.140,17.780,-15.260,11.760
158806499,-0.053,0.015,1.118,15.610,-18.900,11.270
158806519,-0.091,0.072,1.119,-0.210,-23.240,7.630
158806539,-0.058,0.031,1.163,-8.470,-24.220,0.980
158806556,-0.129,-0.001,1.134,-4.410,-20.230,-0.630
158806576,-0.095,0.002,1.181,-17.640,-14.630,-2.240
158806600,-0.062,0.049,1.242,-25.200,-12.320,-3.010
158806619,0.020,0.018,1.318,-29.960,-15.540,-10.220
158806640,0.060,-0.104,1.484,2.870,1.190,-9.170
158806664,0.096,0.170,1.454,25.760,4.550,-9.520
158806684,0.091,0.143,1.527,13.650,6.720,-4.760
158806704,0.110,-0.037,1.557,30.100,4.480,-0.910
158806728,0.104,0.144,1.528,21.420,-0.280,5.040
158806748,0.047,0.045,1.336,-9.590,-5.320,0.910
158806766,-0.012,0.052,1.200,-24.430,-5.740,-3.570
158806789,-0.015,0.018,1.144,-31.920,-3.360,-3.850
158806807,0.020,-0.094,1.199,-20.930,6.580,-4.130
158806831,-0.016,-0.083,1.143,4.340,18.760,-5.600
158806851,-0.083,-0.045,1.061,11.060,21.420,-6.090
158806871,-0.072,-0.011,1.083,13.020,24.850,-6.020
158806886,-0.055,0.060,1.038,6.650,25.830,-6.930
158806911,-0.055,-0.021,1.122,15.260,35.420,-7.140
158806931,-0.121,0.049,1.107,21.070,37.310,-6.720
158806953,-0.167,0.124,0.879,8.190,37.590,-11.340
158806973,-0.210,0.196,0.849,-12.460,32.900,-14.770
158806997,-0.199,0.009,0.940,-24.290,37.730,-12.740
158807012,-0.230,0.005,0.979,-3.780,44.940,-9.730
158807037,-0.262,0.063,0.844,-6.580,46.410,-4.900
158807053,-0.264,0.064,0.772,-26.810,54.670,-7.980
158807072,-0.354,0.024,0.772,-46.060,62.510,-12.950
158807092,-0.382,-0.113,0.930,-38.010,71.750,-13.230
158807117,-0.441,-0.116,0.750,-11.970,76.230,-10.220
158807137,-0.427,-0.002,0.640,-24.640,83.650,-8.960
158807152,-0.387,0.025,0.803,-42.700,86.310,-8.330
158807177,-0.373,-0.226,1.015,-16.450,99.750,-2.170
158807197,-0.477,-0.158,0.947,19.250,102.410,4.270
158807217,-0.493,-0.049,0.618,-7.070,104.370,7.490
158807237,-0.311,0.041,0.773,-44.450,104.230,-0.350
158807254,-0.380,-0.193,1.011,-41.160,118.160,-1.400
158807278,-0.545,-0.279,0.918,4.900,113.400,-2.240
158807298,-0.651,-0.095,0.586,-12.180,107.870,1.890
158807318,-0.588,0.033,0.469,-77.490,99.680,6.440
158807337,-0.537,-0.253,0.812,-106.120,109.830,4.410
158807362,-0.725,-0.316,0.810,-63.630,106.050,12.390
158807380,-0.690,-0.191,0.546,-71.330,99.890,15.330
158807400,-0.546,-0.165,0.400,-84.770,100.590,10.570
158807420,-0.593,-0.326,0.759,-70.420,113.680,7.140
158807443,-0.788,-0.336,0.866,-38.780,107.870,10.290
158807464,-0.828,-0.056,0.654,-62.790,91.770,22.610
158807484,-0.865,-0.055,0.422,-133.210,84.490,38.850
158807507,-0.911,-0.110,0.473,-205.520,66.220,42.980
158807526,-0.827,-0.296,0.524,-224.000,59.290,42.910
158807547,-0.711,-0.302,0.523,-207.550,57.540,40.880
158807567,-0.567,-0.264,0.396,-200.340,54.040,37.100
158807591,-0.529,-0.600,0.571,-161.840,67.900,27.300
158807614,-0.664,-0.659,0.729,-88.480,77.910,19.600
158807632,-0.796,-0.508,0.720,-39.130,77.840,14.700
158807652,-0.879,-0.462,0.597,-33.460,68.810,8.750
158807672,-0.985,-0.402,0.585,-55.440,58.730,11.410
158807692,-1.121,-0.432,0.648,-89.740,42.000,20.300
158807711,-1.230,-0.564,0.545,-116.760,17.080,28.210
158807736,-1.031,-0.613,0.441,-113.610,0.560,34.230
158807753,-0.912,-0.596,0.428,-98.910,2.030,29.890
158807776,-0.893,-0.500,0.412,-75.110,2.100,17.500
158807795,-0.853,-0.410,0.349,-77.210,0.140,8.540
158807819,-0.844,-0.366,0.292,-82.600,-2.660,1.260
158807838,-0.863,-0.327,0.300,-89.460,-4.340,-1.400
158807858,-0.895,-0.457,0.386,-85.190,-5.810,-1.190
158807882,-0.905,-0.658,0.524,-52.780,-15.190,2.730
158807902,-0.889,-0.890,0.804,-15.050,-30.030,5.670
158807922,-0.738,-1.020,0.870,37.800,-38.710,8.120
158807942,-0.671,-0.845,0.826,66.920,-56.000,-0.840
158807959,-0.671,-0.751,0.784,65.660,-70.420,-17.150
158807979,-0.715,-0.619,0.705,56.490,-86.590,-38.780
158808003,-0.670,-0.534,0.644,41.160,-98.490,-58.800
158808020,-0.603,-0.572,0.610,54.040,-100.450,-74.200
158808041,-0.642,-0.609,0.564,93.310,-90.790,-84.910
158808062,-0.653,-0.578,0.545,144.270,-86.800,-85.540
158808086,-0.684,-0.423,0.558,178.080,-86.870,-82.600
158808106,-0.787,-0.250,0.627,140.490,-103.110,-79.030
158808126,-0.779,-0.396,0.682,109.480,-117.740,-75.600
158808146,-0.802,-0.525,0.574,118.790,-120.050,-66.290
158808164,-0.793,-0.500,0.468,128.030,-120.260,-56.350
158808188,-0.794,-0.458,0.560,127.820,-115.920,-51.100
158808208,-0.704,-0.293,0.574,84.700,-119.140,-49.070
158808228,-0.668,-0.375,0.555,67.830,-115.780,-49.000
158808252,-0.720,-0.553,0.582,107.590,-100.730,-40.670
158808272,-0.808,-0.453,0.630,129.430,-100.100,-30.240
158808290,-0.707,-0.390,0.673,118.860,-98.630,-26.530
158808308,-0.732,-0.289,0.746,93.660,-97.580,-22.470
158808332,-0.738,-0.268,0.696,64.330,-102.970,-25.620
158808352,-0.662,-0.310,0.762,65.450,-97.160,-28.000
158808371,-0.653,-0.249,0.855,68.530,-98.980,-25.480
158808391,-0.592,-0.264,0.798,81.060,-93.800,-22.050
158808411,-0.579,-0.202,0.818,101.780,-87.570,-12.740
158808431,-0.481,-0.065,0.827,86.240,-88.060,-6.580
158808455,-0.357,-0.090,0.859,75.950,-79.940,-4.970
158808475,-0.386,-0.167,0.918,85.120,-70.840,0.560
158808493,-0.325,-0.053,0.829,88.830,-69.300,5.040
158808512,-0.254,0.082,0.917,54.670,-73.080,5.530
158808537,-0.276,-0.121,1.020,28.000,-70.140,2.660
158808557,-0.211,-0.008,0.922,15.820,-71.610,-0.210
158808575,-0.110,0.043,0.975,-0.140,-74.690,-6.510
158808594,-0.169,-0.139,1.045,-2.520,-63.280,-11.690
158808618,-0.148,-0.110,1.005,24.570,-59.150,-16.310
158808639,-0.053,0.014,1.005,43.050,-50.750,-18.970
158808659,-0.119,0.018,0.991,46.620,-47.180,-16.870
158808682,-0.112,0.134,1.069,24.360,-49.000,-10.220
158808706,-0.081,0.075,1.061,2.240,-49.280,-5.810
158808726,-0.029,0.037,1.065,2.030,-38.360,-3.920
158808746,0.001,0.131,1.000,-0.280,-37.170,-4.340
158808766,-0.039,0.025,1.117,2.100,-27.510,-5.600
158808786,-0.082,0.045,1.309,5.670,-26.460,-2.730
158808806,0.043,0.115,1.326,-4.620,-30.800,-4.200
158808826,0.119,0.082,1.344,-13.090,-17.360,-5.740
158808844,0.145,0.101,1.319,-10.430,-16.310,-6.930
158808868,0.183,0.077,1.355,9.520,-7.000,-9.730
158808888,0.150,0.118,1.363,22.050,-0.840,-10.500
158808907,0.133,0.165,1.325,23.940,5.950,-8.960
158808928,0.120,0.229,1.212,10.150,8.190,-1.680
158808951,0.140,0.166,1.213,12.530,10.150,5.670
158808972,0.126,0.189,1.249,2.170,13.930,7.070
158808988,0.069,0.153,1.167,-1.890,16.520,7.770
158809012,0.051,0.188,1.105,-15.890,21.210,11.200
158809032,0.049,0.082,1.056,-16.240,28.700,11.480
158809051,0.045,-0.103,1.118,4.410,42.140,11.410
158809071,0.002,0.093,1.086,18.550,48.580,10.430
158809091,-0.096,0.049,1.120,11.060,49.980,10.150
158809113,-0.055,0.132,1.029,-4.760,51.590,9.590
158809135,-0.064,0.045,0.951,-18.270,52.920,6.160
158809154,-0.155,-0.005,1.093,-11.760,62.230,6.650
158809177,-0.064,0.066,0.978,-6.020,64.330,4.130
158809197,-0.171,-0.030,0.875,-7.910,77.000,5.460
158809217,-0.222,0.116,0.825,-26.880,74.760,-1.610
158809237,-0.364,0.041,0.925,-48.440,78.330,-3.640
158809258,-0.315,-0.020,0.859,-53.900,79.940,-6.860
158809282,-0.440,-0.182,0.776,-40.670,95.690,-4.130
158809297,-0.415,-0.058,0.965,-19.600,101.430,-7.420
158809320,-0.567,-0.061,0.950,-15.820,101.850,-5.600
158809339,-0.533,0.064,0.738,-41.930,99.540,-7.630
158809360,-0.540,-0.083,0.808,-76.790,98.630,-9.170
158809383,-0.569,-0.209,0.904,-59.430,104.580,-8.050
158809403,-0.581,-0.087,0.653,-61.670,102.550,-15.890
158809423,-0.582,-0.085,0.593,-91.350,110.250,-19.740
158809441,-0.660,-0.287,0.872,-80.500,115.220,-16.030
158809461,-0.711,-0.194,0.859,-66.500,106.680,-5.740
158809485,-0.623,-0.060,0.624,-93.100,97.370,9.520
158809505,-0.627,-0.054,0.391,-154.140,90.370,15.330
158809525,-0.584,-0.173,0.303,-218.540,86.380,16.450
158809545,-0.477,-0.529,0.487,-181.650,114.730,26.600
158809565,-0.619,-0.658,0.712,-97.720,130.270,39.410
158809580,-0.773,-0.524,0.695,-46.550,130.550,46.620
158809601,-0.841,-0.248,0.532,-53.760,127.750,56.980
158809621,-0.958,-0.205,0.456,-111.370,116.830,66.780
158809641,-1.073,-0.297,0.502,-182.980,96.950,78.610
158809661,-1.081,-0.489,0.505,-218.120,79.170,96.320
158809685,-0.976,-0.553,0.503,-209.090,71.540,113.680
158809704,-0.903,-0.610,0.527,-187.530,64.540,114.940
158809727,-0.832,-0.626,0.610,-169.610,56.420,105.700
158809746,-0.724,-0.578,0.578,-162.260,49.070,93.170
158809766,-0.623,-0.598,0.566,-149.170,41.090,78.120
158809789,-0.557,-0.609,0.589,-127.190,35.490,62.230
158809808,-0.545,-0.692,0.585,-103.460,32.760,52.010
158809827,-0.642,-0.760,0.578,-56.000,32.830,49.000
158809852,-0.798,-0.861,0.539,-34.790,36.050,46.130
158809872,-1.025,-0.915,0.567,4.970,34.370,41.790
158809890,-1.182,-0.884,0.538,29.610,24.990,36.330
158809910,-1.209,-0.611,0.451,44.240,6.930,27.790
158809934,-1.130,-0.342,0.386,19.810,-14.770,14.980
158809954,-0.958,-0.244,0.301,-18.410,-23.450,-5.390
158809974,-0.849,-0.214,0.246,-32.340,-23.730,-19.810
158809993,-0.871,-0.161,0.189,-33.320,-16.100,-28.700
158810014,-0.941,-0.076,0.096,-42.560,-17.500,-36.540
158810034,-0.924,-0.145,0.047,-44.730,-16.870,-32.900
158810054,-0.907,-0.339,0.054,-29.050,-6.930,-26.110
158810078,-0.966,-0.454,0.153,12.390,4.480,-22.120
158810095,-0.953,-0.482,0.269,31.920,5.950,-22.960
158810119,-0.875,-0.586,0.466,52.500,4.060,-28.560
158810139,-0.917,-0.726,0.686,66.150,-8.400,-32.620
158810159,-0.877,-0.729,0.741,82.600,-25.060,-38.430
158810177,-0.782,-0.752,0.752,92.330,-43.330,-44.520
158810197,-0.725,-0.720,0.796,98.000,-71.610,-53.550
158810221,-0.732,-0.705,0.726,98.980,-70.560,-71.470
158810240,-0.754,-0.730,0.664,105.770,-80.850,-81.060
158810260,-0.751,-0.638,0.622,108.010,-93.030,-87.920
158810279,-0.734,-0.647,0.524,101.290,-102.410,-94.640
158810302,-0.745,-0.695,0.640,113.470,-106.820,-98.980
158810321,-0.866,-0.699,0.600,133.350,-111.790,-97.300
158810343,-0.927,-0.614,0.437,136.570,-120.050,-91.420
158810367,-0.960,-0.529,0.403,104.860,-131.320,-89.740
158810386,-0.891,-0.644,0.469,99.260,-128.940,-91.840
158810406,-0.885,-0.522,0.440,113.890,-127.260,-94.080
158810428,-0.776,-0.372,0.419,103.110,-127.890,-92.610
158810452,-0.785,-0.425,0.422,97.650,-118.790,-90.930
158810469,-0.874,-0.373,0.375,109.200,-112.210,-82.670
158810493,-0.747,-0.175,0.389,95.480,-113.680,-72.940
158810512,-0.608,-0.242,0.411,87.150,-102.270,-66.430
158810532,-0.599,-0.203,0.514,86.590,-91.980,-57.890
158810551,-0.637,-0.168,0.506,71.960,-83.300,-47.600
158810576,-0.613,-0.180,0.530,87.080,-81.550,-36.750
158810596,-0.396,-0.176,0.888,95.200,-81.270,-37.240
158810615,-0.482,-0.181,0.949,102.690,-65.450,-30.940
158810636,-0.553,-0.111,0.809,90.370,-72.520,-25.480
158810656,-0.400,-0.029,0.776,62.440,-75.180,-21.840
158810680,-0.289,-0.222,0.928,61.530,-70.980,-18.900
158810699,-0.406,-0.378,1.043,110.390,-59.990,-17.710
158810719,-0.422,-0.033,0.896,116.830,-60.060,-14.210
158810742,-0.294,0.058,0.862,66.500,-63.910,-11.480
158810761,-0.239,-0.051,0.953,40.040,-60.130,-11.340
158810780,-0.232,-0.114,1.018,39.760,-59.640,-10.570
158810802,-0.200,-0.068,0.968,47.670,-51.800,-8.470
158810822,-0.104,0.026,0.932,36.610,-47.040,-5.950
158810846,-0.081,-0.088,1.049,45.570,-43.190,-2.660
158810862,-0.041,-0.048,1.124,64.960,-37.660,0.000
158810886,-0.034,0.146,1.052,21.910,-38.570,-4.900
158810906,0.007,0.130,1.090,-20.020,-39.830,-7.560
158810930,-0.033,-0.101,1.200,-16.870,-41.020,-7.490
158810950,-0.025,-0.063,1.125,10.990,-39.620,-8.890
158810966,0.029,-0.039,1.110,21.560,-35.210,-9.170
158810989,-0.002,0.051,1.113,23.030,-30.590,-10.220
158811010,0.048,0.060,1.211,6.510,-34.020,-11.200
158811030,0.034,-0.030,1.237,9.590,-28.420,-8.610
158811054,0.042,0.043,1.238,18.900,-23.100,-7.700
158811072,-0.020,0.041,1.228,16.100,-22.540,-4.830
158811093,0.032,0.036,1.357,15.260,-14.630,0.560
158811110,0.061,0.022,1.495,25.830,-13.860,3.290
158811130,0.081,0.183,1.554,22.960,1.120,3.360
158811153,0.106,0.208,1.420,-9.240,2.310,-0.700
158811172,0.152,0.042,1.418,-1.680,13.300,-1.750
158811191,0.160,0.182,1.587,2.240,17.570,-3.500
158811216,0.136,0.121,1.416,10.850,20.650,-1.890
158811236,0.097,0.081,1.171,8.050,25.410,2.660
158811252,0.117,0.182,1.168,4.550,27.300,4.480
158811272,-0.037,0.073,1.303,5.390,30.660,6.510
158811292,0.028,0.142,1.166,1.610,33.950,5.250
158811315,0.026,0.151,0.917,-22.330,40.810,7.700
158811336,-0.031,0.029,0.995,-32.620,50.470,10.850
158811356,-0.188,0.005,0.987,-29.540,57.400,15.400
158811371,-0.178,0.003,0.899,-30.170,56.700,14.350
158811391,-0.112,-0.008,0.860,-29.680,67.130,10.010
158811411,-0.197,-0.070,1.022,-28.350,80.360,5.670
158811431,-0.348,-0.029,0.866,-15.260,84.350,2.940
158811453,-0.411,0.110,0.614,-51.450,78.050,-0.140
158811477,-0.323,0.002,0.770,-68.950,86.240,-0.560
158811497,-0.337,-0.139,1.101,-42.700,100.450,7.630
158811517,-0.430,-0.092,0.787,-34.090,100.660,5.880
158811537,-0.520,-0.065,0.610,-59.010,108.850,-1.470
158811561,-0.536,-0.216,1.016,-54.880,113.470,-7.280
158811581,-0.595,-0.195,1.009,-31.920,107.310,-6.090
158811601,-0.503,-0.044,0.652,-68.670,105.140,-4.830
158811619,-0.470,-0.180,0.589,-103.600,112.910,-3.220
158811641,-0.444,-0.404,0.966,-76.020,130.970,2.240
158811660,-0.626,-0.400,0.822,-24.780,129.430,11.760
158811685,-0.624,-0.180,0.531,-37.380,130.060,13.580
158811701,-0.590,-0.099,0.263,-88.900,120.120,7.630
158811725,-0.559,-0.241,0.417,-123.130,124.670,-6.510
158811745,-0.589,-0.258,0.643,-95.340,121.310,-8.400
158811761,-0.605,-0.134,0.519,-102.480,115.430,-7.140
158811780,-0.645,-0.209,0.393,-114.730,114.800,2.450
158811805,-0.727,-0.327,0.380,-122.360,111.160,15.540
158811825,-0.729,-0.329,0.468,-119.630,111.160,25.620
158811845,-0.702,-0.334,0.490,-109.760,105.980,35.840
158811864,-0.701,-0.162,0.593,-110.950,94.780,45.780
158811884,-0.677,-0.285,0.532,-128.660,72.310,59.710
158811903,-0.717,-0.213,0.508,-153.510,59.010,76.440
158811924,-0.806,-0.258,0.582,-203.980,40.600,88.130
158811946,-0.950,-0.455,0.612,-237.580,33.040,101.710
158811964,-1.090,-0.763,0.571,-223.230,30.800,110.810
158811984,-1.146,-0.964,0.575,-168.770,34.440,108.920
158812003,-1.196,-0.974,0.494,-137.480,34.580,89.460
158812026,-1.110,-0.981,0.592,-85.890,28.210,58.240
158812050,-0.985,-0.644,0.465,-106.120,8.260,17.640
158812067,-0.828,-0.654,0.495,-126.140,-1.050,1.820
158812091,-0.741,-0.806,0.651,-117.950,-10.360,-8.050
158812111,-0.663,-0.863,0.716,-48.440,-5.040,-3.710
158812131,-0.670,-0.775,0.690,57.680,-2.310,-0.070
158812150,-0.706,-0.827,0.637,111.230,1.750,0.840
158812169,-0.793,-0.672,0.645,151.830,-7.280,-7.560
158812191,-0.912,-0.726,0.727,161.840,-19.250,-19.250
158812215,-0.933,-0.712,0.779,172.410,-36.960,-34.160
158812235,-0.970,-0.753,0.734,179.900,-55.020,-45.990
158812255,-1.056,-0.722,0.642,177.590,-72.240,-55.370
158812275,-1.022,-0.584,0.666,168.560,-90.300,-60.690
158812299,-0.978,-0.491,0.664,136.500,-111.230,-68.390
158812314,-0.883,-0.431,0.591,107.450,-123.760,-72.590
158812339,-0.775,-0.429,0.535,86.800,-135.240,-84.000
158812358,-0.721,-0.414,0.538,78.960,-139.930,-88.690
158812377,-0.741,-0.512,0.564,87.290,-139.790,-88.830
158812402,-0.764,-0.454,0.540,101.850,-141.470,-86.030
158812421,-0.752,-0.390,0.552,103.460,-142.520,-82.600
158812441,-0.667,-0.442,0.518,105.700,-138.880,-77.980
158812460,-0.798,-0.446,0.560,128.590,-131.250,-69.510
158812480,-0.811,-0.273,0.579,112.980,-134.960,-59.780
158812499,-0.705,-0.314,0.556,82.740,-135.800,-56.770
158812519,-0.672,-0.326,0.575,76.930,-129.570,-56.630
158812543,-0.686,-0.252,0.596,69.720,-123.480,-51.730
158812559,-0.662,-0.343,0.546,82.950,-116.340,-46.340
158812584,-0.613,-0.277,0.618,94.990,-103.880,-39.480
158812600,-0.525,-0.154,0.703,102.620,-97.790,-35.000
158812623,-0.453,-0.107,0.731,109.690,-92.680,-27.090
158812644,-0.502,-0.132,0.722,114.800,-82.460,-16.800
158812664,-0.572,-0.027,0.668,85.400,-85.960,-13.300
158812680,-0.430,-0.062,0.755,65.590,-86.450,-13.580
158812703,-0.330,-0.135,0.882,73.430,-73.990,-8.960
158812724,-0.429,-0.137,0.872,94.920,-70.070,-4.130
158812744,-0.312,0.042,0.871,87.500,-75.250,-2.170
158812764,-0.216,0.015,0.894,60.340,-72.100,-3.080
158812788,-0.225,0.064,0.851,49.210,-69.720,-3.640
158812807,-0.197,0.055,0.869,40.390,-66.570,-1.960
158812831,-0.108,0.048,0.911,33.320,-61.250,-2.520
158812851,-0.074,0.015,0.998,27.440,-58.310,-5.110
158812870,-0.105,0.032,1.033,21.700,-49.560,-1.330
158812890,-0.093,0.091,0.992,9.870,-52.010,-2.660
158812910,-0.033,0.038,1.053,0.280,-51.870,-8.260
158812934,0.048,0.026,1.080,9.660,-38.780,-10.290
158812952,-0.023,-0.005,1.084,32.060,-31.220,-4.060
158812976,-0.009,0.249,1.006,25.970,-30.590,-0.630
158812996,0.087,0.078,1.045,6.230,-21.490,-1.540
158813014,0.085,0.122,1.136,36.050,-8.400,4.340
158813035,0.015,0.135,1.187,65.310,-10.220,13.230
158813055,-0.003,0.369,1.189,65.590,-17.290,15.260
158813074,0.067,0.440,1.253,16.030,-16.520,14.910
158813094,0.143,0.407,1.317,-2.310,-26.950,15.680
158813113,0.188,0.229,1.420,8.470,-20.930,18.270
158813136,0.094,0.314,1.308,13.160,-14.280,22.260
158813160,0.186,0.170,1.358,4.270,-2.870,16.870
158813180,0.136,0.305,1.268,10.430,-0.420,8.260
158813197,0.158,0.389,1.071,-13.440,0.980,-6.300
158813217,0.111,0.206,1.169,-14.700,16.100,-15.120
158813241,0.122,0.190,1.216,16.870,32.550,-9.240
158813260,0.193,0.377,1.301,31.150,38.430,-6.790
158813279,0.064,0.473,1.192,-8.540,35.210,-4.900
158813304,0.096,0.325,1.034,-61.250,36.260,-7.140
158813322,0.019,0.190,1.054,-64.960,40.880,-6.020
158813346,-0.132,0.084,1.104,-51.800,50.260,1.470
158813366,-0.067,0.102,0.950,-42.420,62.020,3.010
158813382,0.037,0.104,1.018,-47.600,73.150,1.820
158813401,-0.141,-0.039,1.178,-29.330,79.730,0.000
158813426,-0.303,0.041,0.939,-20.440,82.110,0.840
158813446,-0.205,0.157,0.753,-68.670,78.540,3.500
158813464,-0.125,-0.014,1.056,-85.750,84.700,3.500
158813488,-0.305,-0.203,1.138,-35.770,93.310,7.560
158813508,-0.322,-0.038,0.870,-23.870,96.180,5.390
158813528,-0.410,0.005,0.722,-69.650,99.750,3.430
158813546,-0.402,-0.110,0.986,-65.590,103.390,1.050
158813570,-0.482,-0.148,0.976,-33.740,109.830,0.700
158813587,-0.512,-0.056,0.716,-46.690,112.070,-1.330
158813611,-0.543,-0.067,0.654,-74.690,113.120,-7.630
158813631,-0.480,-0.179,0.943,-52.570,118.580,-9.170
158813649,-0.506,-0.171,0.920,-28.070,119.000,-8.050
158813668,-0.618,-0.136,0.688,-26.110,118.720,-12.110
158813687,-0.643,0.039,0.436,-71.120,126.700,-18.900
158813712,-0.732,-0.061,0.455,-148.540,119.420,-20.160
158813732,-0.705,-0.375,0.496,-135.520,128.450,-12.880
158813750,-0.732,-0.335,0.468,-113.610,136.360,-3.430
158813772,-0.699,-0.295,0.307,-105.000,142.520,1.820
158813794,-0.607,-0.330,0.447,-87.080,154.280,4.270
158813813,-0.854,-0.358,0.583,-58.170,156.450,11.410
158813833,-0.951,-0.132,0.554,-60.760,149.030,25.970
158813853,-0.974,-0.203,0.437,-99.820,135.800,41.720
158813874,-0.917,-0.247,0.483,-140.700,116.200,58.100
158813896,-0.816,-0.284,0.554,-173.880,104.230,68.110
158813916,-0.747,-0.358,0.569,-174.510,96.040,74.200
158813939,-0.732,-0.392,0.590,-165.200,84.000,76.650
158813960,-0.752,-0.482,0.612,-145.810,72.660,73.850
158813980,-0.793,-0.503,0.609,-130.550,67.480,69.790
158813996,-0.864,-0.610,0.627,-99.050,59.990,65.730
158814017,-0.950,-0.634,0.653,-66.920,55.860,64.470
158814039,-1.050,-0.407,0.690,-94.010,48.650,61.320
158814061,-1.162,-0.853,0.689,-114.590,26.110,57.470
158814078,-1.070,-0.854,0.729,-75.460,21.210,51.380
158814098,-0.994,-0.711,0.640,-52.220,11.270,36.400
158814120,-0.922,-0.694,0.513,-20.230,10.360,15.330
158814140,-0.879,-0.552,0.512,12.600,3.290,2.800
158814162,-0.830,-0.411,0.455,41.790,-0.560,-2.660
158814181,-0.861,-0.297,0.427,57.470,-7.280,-3.080
158814205,-0.847,-0.227,0.417,56.280,-16.240,-0.910
158814224,-0.889,-0.260,0.402,54.670,-20.930,-3.220
158814244,-0.977,-0.272,0.391,53.550,-29.120,-7.210
158814264,-1.032,-0.386,0.412,65.100,-37.870,-11.480
158814288,-1.076,-0.417,0.475,80.360,-45.780,-22.890
158814306,-1.097,-0.430,0.480,80.710,-54.880,-33.880
158814330,-1.130,-0.438,0.488,68.390,-64.330,-47.740
158814350,-1.142,-0.527,0.624,69.510,-75.530,-54.740
158814370,-1.031,-0.535,0.657,78.890,-87.570,-59.150
158814390,-1.029,-0.546,0.671,80.150,-97.090,-62.580
158814410,-0.935,-0.494,0.792,80.920,-111.720,-67.760
158814428,-0.945,-0.431,0.831,73.360,-124.460,-69.860
158814448,-0.857,-0.425,0.781,59.220,-137.550,-74.200
158814467,-0.903,-0.512,0.671,65.660,-143.150,-76.510
158814490,-0.944,-0.500,0.569,83.650,-149.310,-75.180
158814510,-0.949,-0.496,0.600,97.930,-150.150,-68.950
158814533,-0.993,-0.453,0.621,111.090,-150.920,-60.410
158814557,-0.953,-0.301,0.551,95.060,-154.280,-56.140
158814577,-0.849,-0.358,0.554,69.370,-150.290,-55.720
158814597,-0.957,-0.489,0.607,94.990,-139.790,-47.600
158814617,-0.956,-0.263,0.550,103.810,-141.750,-41.790
158814637,-0.814,-0.128,0.508,76.440,-144.690,-40.880
158814656,-0.701,-0.237,0.505,54.740,-139.650,-42.560
158814675,-0.651,-0.201,0.578,64.050,-131.530,-43.820
158814699,-0.604,-0.178,0.629,78.610,-120.050,-40.110
158814719,-0.597,-0.157,0.541,75.040,-116.830,-37.100
158814738,-0.464,-0.005,0.556,59.360,-112.420,-31.080
158814756,-0.365,-0.123,0.642,58.380,-106.050,-26.460
158814778,-0.395,-0.049,0.645,76.580,-96.110,-18.480
158814796,-0.328,0.036,0.651,48.370,-95.620,-15.120
158814816,-0.296,-0.081,0.686,41.090,-90.930,-7.070
158814839,-0.417,-0.079,0.594,39.690,-86.100,3.500
158814860,-0.293,-0.006,0.535,19.740,-82.600,5.810
158814878,-0.166,-0.087,0.619,15.540,-74.480,3.850
158814898,-0.119,-0.131,0.703,32.130,-57.680,0.490
158814917,-0.102,-0.046,0.756,43.540,-47.180,-3.080
158814937,-0.050,-0.082,0.901,43.610,-50.470,-9.100
158814961,-0.034,-0.125,1.025,61.180,-35.560,-4.690
158814981,-0.112,0.041,1.030,62.720,-43.820,-0.560
158815001,-0.051,0.119,1.016,35.770,-48.370,0.420
158815018,0.012,0.044,0.989,21.140,-47.670,0.630
158815042,-0.003,-0.010,1.020,46.410,-41.860,0.140
158815061,-0.023,0.118,0.989,44.310,-40.180,-1.400
158815085,-0.027,0.191,0.855,12.320,-41.370,-5.110
158815104,0.030,0.058,1.026,0.770,-34.930,-5.810
158815128,0.013,0.004,1.058,23.730,-28.490,3.010
158815144,0.113,0.185,0.998,16.100,-27.790,3.570
158815167,0.206,0.090,1.204,8.050,-25.480,2.170
158815191,0.156,0.140,1.200,18.340,-17.710,2.380
158815211,0.158,0.116,1.192,9.310,-21.980,2.730
158815235,0.234,0.023,1.340,16.660,-20.090,6.930
158815253,0.219,0.049,1.316,23.520,-19.880,10.710
158815272,0.204,0.144,1.363,12.880,-23.730,9.100
158815291,0.151,0.234,1.288,-11.200,-35.560,3.990
158815315,0.209,0.205,1.254,-48.650,-38.290,-3.360
158815335,0.257,-0.074,1.202,-24.710,-27.930,-3.150
158815355,0.223,0.043,1.153,11.410,-18.130,-0.630
158815374,0.350,0.137,1.223,20.440,-0.420,-1.050
158815395,0.288,0.061,1.256,33.880,10.570,1.610
158815415,0.291,0.241,1.215,22.680,15.610,2.310
158815435,0.274,0.218,1.230,2.450,19.180,2.800
158815453,0.235,0.152,1.223,-11.970,24.360,2.100
158815473,0.239,0.057,1.199,6.650,28.350,2.100
158815497,0.200,0.160,1.193,11.970,36.400,3.290
158815515,0.219,0.207,1.150,0.350,42.000,-0.700
158815539,0.088,0.064,1.215,-5.600,41.510,1.610
158815557,0.054,0.173,1.113,-19.600,41.300,2.870
158815575,0.026,0.133,1.114,-43.190,38.920,2.940
158815598,0.072,0.014,1.160,-44.870,45.920,-1.190
158815615,-0.004,-0.031,1.063,-31.640,49.210,-0.560
158815639,-0.049,0.040,0.993,-4.760,60.830,-0.980
158815658,-0.056,0.035,1.114,9.800,70.280,0.420
158815682,-0.105,0.022,1.064,26.250,77.910,2.240
158815706,-0.129,0.092,1.067,20.090,80.780,4.760
158815726,-0.263,0.090,0.996,-9.870,74.340,4.480
158815744,-0.244,0.074,1.024,-30.170,77.700,0.490
158815764,-0.294,0.003,0.924,-52.010,78.120,-3.500
158815786,-0.232,-0.016,0.990,-61.250,78.470,-11.690
158815806,-0.341,-0.128,1.046,-37.100,86.450,-10.220
158815826,-0.341,-0.097,0.881,-19.880,93.030,-5.810
158815848,-0.423,0.074,0.608,-53.550,100.310,0.000
158815872,-0.416,0.123,0.635,-111.160,81.130,-5.110
158815888,-0.402,-0.242,0.937,-97.090,98.770,-1.750
158815912,-0.355,-0.119,0.775,-36.610,107.730,-4.760
158815932,-0.491,-0.049,0.501,-40.320,116.480,-4.620
158815950,-0.534,-0.009,0.605,-58.380,113.540,-8.120
158815974,-0.533,-0.216,0.935,-35.770,121.450,-5.530
158815994,-0.671,-0.120,0.780,-3.570,116.480,0.700
158816014,-0.622,0.049,0.526,-30.870,115.570,4.130
158816034,-0.663,-0.010,0.574,-90.160,114.660,8.190
158816054,-0.669,-0.300,0.881,-60.060,120.470,16.030
158816072,-0.691,-0.284,0.868,-21.770,121.310,24.640
158816094,-0.740,-0.080,0.600,-29.610,114.800,29.260
158816118,-0.800,-0.061,0.408,-82.040,109.900,29.960
158816138,-0.791,-0.174,0.450,-146.230,100.520,24.290
158816158,-0.713,-0.442,0.629,-124.810,102.060,19.670
158816177,-0.698,-0.462,0.635,-75.390,109.060,16.730
158816195,-0.697,-0.371,0.529,-45.710,105.840,12.460
158816219,-0.689,-0.266,0.429,-56.420,93.030,8.190
158816239,-0.674,-0.279,0.405,-86.590,83.510,5.110
158816263,-0.713,-0.302,0.471,-121.310,77.630,7.700
158816283,-0.812,-0.426,0.531,-129.010,73.220,17.640
158816302,-0.896,-0.506,0.530,-131.110,69.720,32.480
158816319,-0.980,-0.539,0.570,-131.180,64.190,48.860
158816339,-1.099,-0.563,0.594,-139.790,51.240,67.620
158816358,-1.141,-0.585,0.677,-141.120,37.660,79.030
158816383,-1.124,-0.594,0.715,-140.070,23.380,76.300
158816403,-1.022,-0.506,0.776,-140.420,5.460,64.960
158816421,-0.934,-0.436,0.724,-149.380,-7.840,52.430
158816445,-0.852,-0.514,0.720,-144.900,-17.220,28.070
158816465,-0.817,-0.631,0.800,-106.680,-20.370,9.380
158816485,-0.760,-0.678,0.794,-2.450,-12.390,-0.280
158816500,-0.799,-0.571,0.708,54.320,-7.700,-0.630
158816524,-0.867,-0.498,0.646,111.440,-9.870,1.610
158816541,-0.945,-0.375,0.621,123.130,-16.520,3.360
158816561,-0.999,-0.256,0.654,103.810,-30.380,0.210
158816585,-1.080,-0.291,0.651,73.010,-50.050,-7.280
158816605,-1.071,-0.377,0.708,48.300,-65.170,-12.880
158816623,-1.041,-0.519,0.705,51.800,-76.300,-19.880
158816647,-0.983,-0.479,0.776,63.140,-82.180,-31.850
158816667,-1.042,-0.528,0.807,66.710,-91.140,-41.790
158816687,-1.005,-0.496,0.773,67.410,-103.950,-51.520
158816707,-0.956,-0.492,0.749,62.370,-115.150,-60.200
158816723,-0.984,-0.531,0.773,65.590,-118.930,-65.450
158816747,-1.006,-0.533,0.725,74.900,-127.610,-70.490
158816766,-0.918,-0.447,0.628,81.550,-136.150,-72.940
158816788,-0.838,-0.406,0.635,78.540,-137.760,-80.710
158816811,-0.854,-0.425,0.617,87.290,-135.310,-84.980
158816827,-0.866,-0.419,0.563,95.690,-135.030,-82.390
158816852,-0.780,-0.362,0.524,103.040,-135.730,-76.720
158816872,-0.721,-0.263,0.498,97.370,-134.190,-73.850
158816892,-0.716,-0.280,0.496,85.680,-125.510,-69.090
158816911,-0.725,-0.253,0.489,82.530,-119.770,-60.480
158816931,-0.612,-0.154,0.501,68.460,-118.440,-55.510
158816952,-0.513,-0.165,0.524,54.110,-110.110,-50.330
158816972,-0.521,-0.264,0.525,59.360,-98.210,-44.380
158816995,-0.488,-0.095,0.547,64.540,-93.030,-39.270
158817015,-0.390,-0.110,0.573,55.370,-89.600,-36.890
158817039,-0.346,-0.127,0.585,55.160,-77.070,-33.810
158817059,-0.341,-0.050,0.576,50.890,-70.560,-27.930
158817074,-0.351,-0.056,0.597,48.510,-67.970,-23.240
158817094,-0.296,-0.012,0.638,43.050,-66.500,-18.270
158817118,-0.206,-0.011,0.655,29.890,-60.690,-16.030
158817139,-0.224,-0.093,0.678,35.000,-51.030,-11.550
158817157,-0.294,-0.045,0.662,46.060,-48.090,-4.550
158817176,-0.272,0.007,0.719,35.770,-47.320,-0.140
158817201,-0.216,0.032,0.812,16.940,-47.250,1.540
158817218,-0.217,-0.085,0.846,5.040,-45.920,1.120
158817242,-0.216,-0.159,0.919,38.780,-39.760,-0.350
158817260,-0.197,0.015,0.951,49.560,-42.840,-0.210
158817284,-0.098,0.056,1.064,37.450,-49.560,-3.500
158817304,-0.074,0.068,1.200,23.590,-46.060,-5.530
158817324,-0.065,0.035,1.221,15.890,-51.170,-3.920
158817344,-0.004,-0.054,1.167,19.670,-48.160,1.470
158817364,-0.021,-0.088,1.213,31.990,-41.510,8.610
158817384,0.006,0.006,1.270,31.710,-46.410,13.650
158817403,0.027,-0.003,1.257,14.350,-44.660,14.700
158817423,-0.042,-0.016,1.161,-5.110,-46.060,16.310
158817443,0.037,0.008,1.162,-32.620,-47.250,11.130
158817467,0.029,-0.150,1.124,-28.840,-46.200,3.150
158817487,0.091,-0.041,0.966,-9.870,-41.510,-6.230
158817505,0.052,-0.061,0.911,-1.050,-33.390,-9.590
158817522,0.031,-0.174,1.020,37.170,-22.330,-10.570
158817542,0.048,0.046,1.021,61.530,-14.350,-7.630
158817562,-0.020,0.067,1.014,52.920,-13.300,-3.780
158817586,-0.081,0.102,1.118,44.170,-10.430,-7.840
158817607,0.060,0.121,1.172,34.930,-14.560,-8.750
158817627,0.151,0.217,1.201,17.080,-3.640,-5.600
158817646,0.034,0.144,1.444,13.930,-3.710,-1.400
158817670,0.172,0.112,1.737,31.150,12.320,1.120
158817690,0.179,0.340,1.667,19.320,7.840,3.430
158817710,0.292,0.177,1.668,-3.290,12.670,4.270
158817728,0.277,0.176,1.697,25.480,15.960,4.480
158817747,0.228,0.222,1.546,32.410,11.410,4.690
158817771,0.174,0.179,1.316,28.140,10.780,3.780
158817790,0.108,0.204,1.221,18.060,11.340,2.800
158817815,0.110,0.158,1.181,8.890,12.040,3.220
158817835,0.126,0.149,1.058,0.980,16.030,0.210
158817852,0.116,0.136,1.063,-6.440,22.680,0.420
158817874,0.083,0.089,1.075,-2.100,33.040,1.540
158817895,-0.012,0.082,1.062,4.270,40.460,1.470
158817917,-0.035,0.165,1.049,-6.440,41.090,-2.100
158817937,-0.034,0.137,1.023,-16.240,43.400,-4.480
158817961,-0.061,0.073,0.997,-13.580,48.510,-3.990
158817979,-0.118,0.116,0.970,-12.040,50.960,-5.040
158818003,-0.170,0.109,1.038,-11.340,52.150,-7.840
158818022,-0.239,0.073,0.923,-2.870,55.020,-9.100
158818042,-0.230,0.159,0.762,-33.250,54.460,-10.990
158818066,-0.139,0.137,0.825,-59.290,56.420,-14.140
158818086,-0.242,-0.066,0.895,-39.130,66.920,-13.090
158818103,-0.315,0.110,0.731,-30.870,71.050,-12.460
158818122,-0.247,0.014,0.646,-52.080,77.840,-9.520
158818146,-0.236,-0.008,0.866,-59.360,89.740,-5.880
158818165,-0.376,-0.173,0.871,-32.060,90.580,1.120
158818187,-0.375,0.036,0.684,-41.160,93.520,5.110
158818210,-0.359,0.064,0.603,-86.030,91.770,7.280
158818234,-0.430,-0.171,0.757,-102.550,100.380,11.200
158818258,-0.516,-0.261,0.668,-73.360,105.210,19.110
158818277,-0.543,-0.109,0.476,-78.820,109.550,22.470
158818295,-0.392,-0.090,0.523,-101.640,109.620,19.530
158818319,-0.406,-0.237,0.692,-88.900,124.740,18.130
158818339,-0.542,-0.346,0.671,-46.830,129.710,18.690
158818354,-0.619,-0.264,0.553,-30.870,131.880,21.000
158818375,-0.656,-0.122,0.411,-45.290,133.490,21.140
158818396,-0.605,-0.159,0.584,-73.780,135.380,12.320
158818416,-0.833,-0.280,0.680,-74.340,137.620,11.270
158818436,-0.918,-0.257,0.618,-78.960,132.720,18.130
158818459,-0.927,-0.233,0.429,-106.050,124.740,34.300
158818479,-0.698,-0.291,0.615,-114.520,112.980,35.910
158818502,-0.746,-0.464,0.800,-86.030,120.750,29.680
158818521,-0.826,-0.419,0.776,-39.690,114.450,22.750
158818544,-0.853,-0.240,0.602,-37.450,102.270,23.590
158818565,-0.915,-0.168,0.611,-84.070,81.480,28.280
158818585,-0.955,-0.296,0.688,-111.790,67.550,34.300
158818605,-1.004,-0.369,0.735,-133.770,56.420,40.530
158818625,-1.030,-0.433,0.696,-139.650,49.280,47.250
158818645,-1.074,-0.618,0.712,-113.260,38.780,54.460
158818665,-1.041,-0.609,0.756,-81.620,32.900,54.600
158818685,-1.019,-0.562,0.749,-65.800,28.000,47.600
158818705,-0.967,-0.500,0.685,-60.620,17.640,33.110
158818721,-0.934,-0.439,0.658,-64.610,9.730,18.830
158818740,-0.903,-0.400,0.607,-82.390,-0.840,4.130
158818764,-0.820,-0.428,0.544,-75.320,-13.090,-2.170
158818785,-0.798,-0.453,0.512,6.720,-4.690,0.070
158818805,-0.794,-0.278,0.525,38.640,-3.150,-0.280
158818824,-0.812,-0.325,0.575,55.930,-3.430,-1.260
158818844,-0.846,-0.333,0.653,69.580,-3.850,-2.310
158818864,-0.997,-0.416,0.706,85.750,-12.670,-5.250
158818885,-1.048,-0.404,0.716,90.930,-24.570,-8.470
158818904,-1.019,-0.414,0.829,85.470,-40.670,-15.540
158818929,-1.033,-0.430,0.910,83.720,-56.700,-26.390
158818949,-1.043,-0.376,0.831,71.120,-77.980,-35.070
158818968,-0.994,-0.424,0.795,59.500,-89.950,-43.540
158818989,-0.968,-0.483,0.814,73.010,-101.710,-49.420
158819005,-0.998,-0.423,0.744,78.540,-111.160,-51.590
158819025,-0.956,-0.361,0.702,74.060,-121.940,-52.570
158819044,-0.930,-0.369,0.633,64.820,-129.290,-52.360
158819064,-0.864,-0.359,0.642,64.540,-134.540,-52.640
158819088,-0.834,-0.365,0.619,63.770,-138.950,-53.900
158819108,-0.838,-0.347,0.605,63.700,-141.330,-55.300
158819127,-0.838,-0.330,0.579,60.200,-143.920,-55.160
158819147,-0.820,-0.369,0.601,64.540,-143.920,-53.480
158819167,-0.773,-0.297,0.592,66.990,-142.240,-50.120
158819187,-0.737,-0.267,0.540,59.220,-140.420,-45.290
158819207,-0.685,-0.304,0.513,50.750,-131.530,-41.090
158819232,-0.672,-0.258,0.548,50.960,-121.240,-34.370
158819251,-0.590,-0.184,0.520,36.960,-118.440,-29.960
158819270,-0.490,-0.220,0.472,26.110,-108.290,-27.860
158819287,-0.464,-0.203,0.460,30.660,-100.450,-24.920
158819312,-0.387,-0.155,0.443,19.740,-92.330,-23.310
158819329,-0.282,-0.148,0.503,21.350,-84.770,-22.190
158819348,-0.264,-0.188,0.574,35.980,-67.830,-19.950
158819373,-0.273,-0.130,0.665,46.690,-56.490,-18.900
158819391,-0.233,-0.116,0.753,54.740,-50.820,-16.380
158819412,-0.300,-0.175,0.823,75.950,-46.900,-10.920
158819431,-0.313,-0.012,0.833,77.210,-47.250,-7.630
158819456,-0.294,0.053,0.881,45.850,-56.350,-4.410
158819476,-0.271,-0.098,0.998,46.060,-57.540,-4.270
158819494,-0.274,-0.198,0.994,65.310,-51.240,-3.990
158819515,-0.351,-0.066,0.987,54.040,-52.010,-0.700
158819534,-0.329,0.033,1.008,43.120,-57.400,0.630
158819559,-0.225,0.028,0.973,-7.000,-62.370,-0.560
158819575,-0.170,-0.146,1.024,-3.850,-59.850,-3.080
158819594,-0.177,-0.232,1.087,40.250,-45.990,1.050
158819619,-0.237,-0.066,0.981,50.750,-38.010,6.930
158819639,-0.221,0.001,1.038,39.130,-30.660,12.180
158819654,-0.163,-0.022,1.113,36.680,-26.810,16.310
158819679,-0.089,0.031,1.115,27.300,-27.860,16.870
158819699,-0.021,0.028,1.054,14.840,-35.560,13.300
158819717,0.065,0.013,1.105,17.150,-36.890,3.080
158819735,0.051,0.037,1.117,30.660,-35.070,-1.540
158819755,-0.023,0.010,1.229,51.940,-36.820,-4.970
158819775,-0.076,0.091,1.177,78.190,-40.460,-2.940
158819795,-0.049,0.313,0.968,46.620,-49.700,-1.750
158819819,-0.028,0.146,0.998,26.320,-52.150,-3.500
158819839,-0.025,0.135,1.106,22.680,-44.450,-2.240
158819859,0.030,0.218,1.113,8.960,-41.020,-6.090
158819878,0.016,0.049,1.255,-1.330,-31.080,-6.230
158819903,0.010,0.194,1.278,-9.310,-34.230,-7.490
158819923,0.110,-0.084,1.382,2.590,-33.740,-2.730
158819938,0.157,0.102,1.470,31.500,-20.790,1.330
158819958,0.275,0.226,1.527,26.670,-16.520,4.130
158819979,0.305,0.193,1.573,31.710,-7.630,9.450
158820000,0.251,0.311,1.418,20.510,-4.480,10.500
158820020,0.253,0.297,1.270,-12.180,-7.980,9.450
158820044,0.199,0.094,1.273,-12.110,-3.430,7.490
158820064,0.174,0.175,1.197,4.830,2.030,3.780
158820084,0.204,0.222,1.075,2.380,11.270,1.400
158820100,0.154,0.110,1.060,13.090,23.170,1.470
158820124,0.127,0.222,1.070,16.730,30.450,4.410
158820144,0.125,0.213,1.043,7.490,38.920,4.900
158820164,0.104,0.225,1.061,-11.900,42.560,1.400
158820184,0.045,0.174,1.066,-14.560,45.150,2.800
158820203,-0.024,0.190,1.082,-10.640,47.110,4.550
158820221,-0.042,0.245,1.004,-30.240,45.920,6.230
158820245,-0.022,0.096,0.993,-48.650,51.730,2.450
158820265,-0.129,0.046,0.949,-47.530,55.860,0.000
158820285,-0.139,0.080,0.881,-53.900,54.250,-5.880
158820309,-0.164,-0.021,0.855,-53.830,62.720,-12.180
158820329,-0.135,-0.031,0.936,-45.290,72.520,-15.120
158820353,-0.207,-0.069,0.910,-25.130,78.750,-17.640
158820369,-0.280,-0.036,0.883,-27.020,88.970,-21.000
158820391,-0.378,-0.062,1.006,-18.690,89.810,-19.670
158820411,-0.435,-0.017,0.858,-16.450,87.640,-14.490
158820434,-0.380,0.145,0.636,-65.240,80.710,-11.410
158820458,-0.244,-0.004,0.876,-104.440,86.310,-6.860
158820477,-0.315,-0.267,0.963,-49.420,97.930,0.070
158820498,-0.435,-0.142,0.769,-9.660,99.470,6.720
158820516,-0.493,0.036,0.574,-16.800,104.720,10.080
158820540,-0.409,0.035,0.662,-82.250,99.260,5.600
158820560,-0.476,-0.203,0.779,-84.490,107.800,9.310
158820580,-0.569,-0.218,0.699,-58.940,114.380,15.890
158820600,-0.602,-0.081,0.582,-68.950,113.890,20.860
158820619,-0.470,-0.161,0.691,-84.070,120.680,25.130
158820637,-0.556,-0.279,0.669,-61.250,126.910,27.300
158820656,-0.627,-0.240,0.593,-45.850,135.520,29.400
158820681,-0.729,-0.153,0.514,-58.940,142.660,36.610
158820702,-0.733,-0.202,0.465,-81.410,141.820,36.050
158820724,-0.769,-0.324,0.590,-74.550,148.470,37.380
158820748,-0.940,-0.337,0.627,-56.280,151.340,38.080
158820768,-1.018,-0.317,0.587,-53.200,136.780,41.300
158820788,-1.050,-0.164,0.593,-84.070,115.430,40.460
158820808,-0.941,-0.140,0.580,-146.860,95.900,37.380
158820828,-0.882,-0.229,0.576,-198.870,76.020,32.760
158820847,-0.833,-0.335,0.534,-210.350,62.020,30.730
158820871,-0.833,-0.453,0.536,-195.580,56.910,31.500
158820889,-0.916,-0.591,0.564,-172.410,49.210,34.020
158820911,-0.970,-0.575,0.629,-118.860,44.310,43.260
158820927,-0.980,-0.522,0.644,-103.390,37.870,48.930
158820948,-0.962,-0.497,0.639,-97.160,30.310,55.370
158820967,-0.974,-0.520,0.633,-91.910,25.550,56.490
158820992,-0.996,-0.540,0.574,-86.240,20.440,50.540
158821011,-1.004,-0.580,0.500,-71.190,16.450,40.320
158821031,-0.912,-0.569,0.521,-48.790,11.060,25.340
158821055,-0.866,-0.519,0.547,-26.250,6.300,5.950
158821075,-0.909,-0.379,0.490,-28.210,-12.250,-2.730
158821093,-0.849,-0.566,0.503,0.280,-18.900,-8.680
158821112,-0.803,-0.589,0.549,58.940,-15.750,-9.590
158821131,-0.840,-0.407,0.589,85.890,-14.840,-13.720
158821152,-0.839,-0.287,0.611,80.710,-18.900,-18.200
158821174,-0.874,-0.410,0.598,78.400,-23.940,-19.880
158821198,-0.928,-0.597,0.624,114.520,-19.250,-19.810
158821218,-1.012,-0.562,0.652,164.010,-23.590,-21.140
158821238,-0.964,-0.382,0.699,157.010,-32.830,-27.230
158821258,-0.998,-0.305,0.699,135.800,-46.970,-31.150
158821277,-1.058,-0.319,0.653,109.970,-63.420,-33.180
158821295,-0.989,-0.276,0.663,89.600,-83.020,-35.770
158821319,-0.871,-0.240,0.709,62.510,-101.150,-43.890
158821339,-0.876,-0.231,0.726,44.590,-114.730,-54.110
158821359,-0.862,-0.205,0.691,20.230,-130.270,-62.370
158821375,-0.952,-0.262,0.708,8.540,-145.950,-66.010
158821396,-0.894,-0.266,0.703,8.750,-159.810,-68.670
158821417,-0.826,-0.289,0.582,15.820,-166.460,-71.260
158821440,-0.783,-0.306,0.559,20.300,-160.790,-70.000
158821461,-0.828,-0.326,0.543,38.150,-153.300,-63.210
158821480,-0.768,-0.317,0.526,43.190,-146.720,-56.840
158821501,-0.641,-0.309,0.543,44.450,-139.300,-51.170
158821521,-0.590,-0.360,0.545,51.590,-126.700,-44.660
158821544,-0.576,-0.281,0.590,49.560,-114.730,-40.670
158821565,-0.460,-0.378,0.671,49.420,-105.910,-37.240
158821585,-0.530,-0.431,0.682,56.210,-92.260,-35.910
158821601,-0.380,-0.443,0.714,68.600,-84.980,-36.260
158821620,-0.454,-0.399,0.733,87.430,-80.710,-35.910
158821640,-0.370,-0.313,0.755,83.860,-76.370,-39.830
158821665,-0.407,-0.347,0.811,85.960,-69.300,-42.840
158821685,-0.492,-0.279,0.868,92.190,-68.250,-40.880
158821709,-0.470,-0.196,0.770,83.650,-76.160,-35.910
158821729,-0.402,-0.122,0.784,72.170,-82.110,-32.410
158821746,-0.412,-0.122,0.787,75.600,-87.710,-28.630
158821770,-0.268,0.103,0.781,43.890,-92.680,-22.330
158821787,-0.205,-0.047,0.682,29.400,-93.030,-19.250
158821807,-0.215,-0.128,0.741,42.980,-79.240,-15.610
158821826,-0.251,-0.001,0.738,34.300,-69.580,-16.240
158821851,-0.221,-0.102,0.805,23.730,-50.890,-11.130
158821871,-0.272,-0.052,0.904,16.660,-48.860,-6.230
158821891,-0.094,-0.105,0.948,14.630,-37.310,-1.400
158821915,-0.134,-0.256,1.077,49.000,-19.880,4.830
158821933,-0.119,-0.109,1.193,82.810,-18.830,7.700
158821953,-0.054,-0.048,1.207,84.490,-16.520,7.210
158821973,-0.088,0.017,1.281,77.980,-17.780,5.740
158821993,-0.098,0.099,1.107,58.730,-29.470,2.520
158822015,0.006,0.164,0.984,27.720,-41.790,-5.950
158822034,0.070,-0.004,1.055,29.960,-37.590,-12.810
158822059,0.076,0.073,1.105,64.190,-30.030,-14.070
158822079,0.092,0.154,1.109,73.850,-37.030,-14.070
158822098,0.022,0.159,1.220,74.270,-29.330,-8.330
158822119,-0.156,0.215,1.255,63.350,-36.750,1.260
158822139,-0.122,0.210,1.216,32.760,-46.410,2.730
158822159,0.006,0.303,1.178,14.420,-45.710,-1.610
158822183,0.030,0.291,1.265,-12.460,-43.190,-5.740
158822203,0.061,0.231,1.281,-20.930,-35.420,-4.550
158822223,0.168,0.184,1.257,-9.100,-24.990,-3.710
158822247,0.222,0.216,1.301,28.490,-1.120,-1.190
158822267,0.145,0.253,1.376,55.580,9.870,4.970
158822286,0.216,0.518,1.194,36.960,5.110,4.340
158822307,0.315,0.504,1.103,-23.380,1.190,-0.630
158822327,0.241,0.165,1.209,-6.090,12.040,-0.350
158822348,0.202,0.190,1.206,18.270,18.130,0.560
158822366,0.203,0.284,1.023,12.250,20.650,1.610
158822391,0.170,0.265,1.058,-0.420,29.260,1.400
158822415,0.070,0.153,1.124,13.020,31.360,6.790
158822435,0.032,0.222,1.128,6.230,29.750,6.720
158822455,0.015,0.324,1.092,-33.810,24.500,3.850
158822474,-0.068,0.194,1.044,-59.570,23.660,1.820
158822493,-0.050,0.122,1.030,-60.340,25.130,-0.840
158822518,0.004,0.065,1.061,-43.540,38.220,-0.980
158822533,-0.107,0.026,0.987,-21.210,49.070,2.030
158822558,-0.196,0.156,0.848,-24.920,53.900,2.940
158822576,-0.081,0.183,0.980,-37.520,59.570,-2.310
158822597,-0.095,0.058,1.007,-18.760,69.440,-1.610
158822618,-0.153,0.169,0.916,-8.050,78.680,1.260
158822641,-0.195,0.252,0.999,-36.820,78.470,0.980
158822665,-0.315,0.125,1.041,-55.230,78.050,2.940
158822683,-0.366,-0.123,0.999,-53.060,83.580,2.730
158822702,-0.470,-0.020,0.953,-43.680,88.690,2.100
158822727,-0.426,0.081,1.008,-51.030,86.240,-2.380
158822747,-0.456,-0.074,0.961,-31.360,88.830,0.140
158822767,-0.516,0.041,0.813,-44.520,95.620,6.440
158822782,-0.585,0.086,0.530,-75.740,96.250,13.860
158822807,-0.327,0.023,0.781,-89.810,91.980,20.650
158822825,-0.398,-0.236,0.927,-22.260,122.080,27.580
158822845,-0.443,-0.041,0.741,30.030,141.330,28.210
158822865,-0.542,0.080,0.564,13.370,143.780,19.250
158822889,-0.630,-0.020,0.878,-2.380,144.200,7.140
158822909,-0.679,-0.008,0.854,7.070,136.850,3.010
158822929,-0.722,0.061,0.680,-31.290,128.660,2.380
158822947,-0.795,0.094,0.525,-83.160,124.390,2.240
158822969,-0.655,-0.211,0.524,-106.120,118.720,-4.830
158822989,-0.760,-0.306,0.748,-62.160,130.900,-5.600
158823013,-0.805,-0.239,0.680,-28.700,130.690,-7.280
158823033,-0.853,-0.047,0.488,-45.780,127.190,0.490
158823052,-0.912,-0.054,0.413,-116.130,112.910,5.110
158823071,-0.906,-0.140,0.507,-177.310,98.420,8.470
158823092,-0.782,-0.198,0.658,-185.010,94.080,14.910
158823112,-0.852,-0.307,0.606,-168.490,88.690,20.440
158823136,-0.833,-0.282,0.511,-147.700,84.000,27.930
158823160,-0.823,-0.275,0.562,-140.280,74.690,33.740
158823179,-0.818,-0.344,0.608,-139.090,68.320,34.650
158823203,-0.829,-0.354,0.596,-133.910,62.930,38.080
158823221,-0.838,-0.366,0.501,-132.090,53.830,44.100
158823243,-0.863,-0.445,0.512,-114.310,49.700,53.620
158823267,-0.928,-0.467,0.474,-114.310,42.770,58.870
158823287,-0.930,-0.525,0.491,-101.990,37.590,62.860
158823308,-0.912,-0.533,0.512,-79.870,35.420,58.170
158823324,-0.955,-0.593,0.526,-55.370,34.790,50.890
158823348,-0.962,-0.503,0.585,-37.870,24.010,37.660
158823364,-0.978,-0.411,0.617,-40.740,13.720,29.050
158823384,-1.066,-0.454,0.595,-45.570,1.190,16.590
158823404,-1.053,-0.457,0.541,-44.870,-12.250,3.500
158823423,-1.025,-0.428,0.452,-44.660,-17.640,-11.270
158823443,-0.969,-0.389,0.414,-38.570,-22.050,-23.940
158823467,-0.883,-0.362,0.394,-23.940,-21.000,-36.750
158823488,-0.810,-0.370,0.381,-2.870,-20.160,-46.410
158823507,-0.808,-0.349,0.377,21.070,-18.130,-50.400
158823531,-0.857,-0.364,0.372,34.650,-20.090,-51.380
158823548,-0.901,-0.441,0.418,48.790,-22.260,-47.810
158823568,-0.948,-0.452,0.480,60.550,-27.650,-44.800
158823588,-0.990,-0.513,0.520,62.860,-33.810,-45.990
158823608,-1.019,-0.582,0.594,77.980,-39.130,-50.470
158823627,-1.055,-0.589,0.550,92.260,-41.650,-56.980
158823650,-1.030,-0.562,0.571,99.050,-51.660,-67.130
158823674,-0.986,-0.535,0.622,107.730,-62.370,-77.280
158823692,-1.006,-0.501,0.691,107.660,-71.680,-81.550
158823709,-1.033,-0.416,0.697,95.060,-88.270,-82.180
158823731,-0.963,-0.424,0.647,70.420,-104.720,-84.280
158823754,-0.935,-0.518,0.684,74.340,-113.260,-86.590
158823776,-0.930,-0.477,0.615,107.310,-119.350,-88.690
158823796,-0.914,-0.390,0.555,89.320,-123.550,-86.660
158823816,-0.855,-0.359,0.595,79.730,-128.660,-85.190
158823840,-0.874,-0.340,0.576,70.350,-132.580,-80.010
158823861,-0.797,-0.312,0.546,54.390,-135.730,-70.070
158823878,-0.676,-0.148,0.512,36.120,-139.720,-59.780
158823900,-0.520,-0.323,0.466,7.350,-132.510,-48.930
158823917,-0.550,-0.488,0.495,48.580,-118.300,-38.220
158823937,-0.521,-0.326,0.535,83.300,-107.030,-28.210
158823956,-0.460,-0.260,0.521,95.760,-90.860,-20.650
158823981,-0.542,-0.301,0.490,95.760,-73.920,-13.580
158824001,-0.585,-0.220,0.571,82.110,-70.770,-9.590
158824021,-0.572,-0.279,0.511,62.860,-65.030,-7.070
158824041,-0.520,-0.228,0.512,15.890,-60.200,-19.320
158824065,-0.505,-0.400,0.671,10.500,-57.470,-31.150
158824085,-0.445,-0.424,0.793,62.090,-45.500,-40.250
158824105,-0.392,-0.339,0.791,111.160,-44.730,-41.160
158824128,-0.338,-0.242,0.787,131.110,-39.970,-35.700
158824149,-0.328,-0.052,0.871,115.290,-45.080,-26.390
158824168,-0.262,-0.047,0.932,92.260,-56.140,-16.660
158824189,-0.264,-0.096,0.883,84.980,-53.480,-12.040
158824209,-0.259,0.052,0.869,70.630,-52.430,-6.090
158824228,-0.243,-0.019,0.903,63.210,-54.040,0.560
158824248,-0.247,0.014,0.940,63.770,-52.990,4.970
158824270,-0.239,0.123,0.926,31.430,-59.570,6.720
158824294,-0.240,-0.075,0.998,16.450,-54.810,6.860
158824314,-0.265,-0.060,1.036,27.580,-48.720,7.490
158824330,-0.269,-0.045,1.101,38.850,-44.800,8.750
158824349,-0.184,0.006,1.117,35.280,-48.860,3.710
158824369,-0.076,0.027,1.084,22.050,-47.740,-0.280
158824393,-0.123,-0.058,1.084,23.170,-48.510,2.940
158824414,-0.047,0.046,1.018,24.710,-46.760,5.460
158824432,-0.028,-0.061,1.061,28.490,-42.910,4.130
158824456,-0.119,-0.032,1.137,60.900,-35.560,5.950
158824475,0.016,0.096,1.130,58.870,-40.600,7.980
158824494,0.093,0.055,1.236,60.830,-42.980,9.520
158824514,0.049,0.154,1.226,50.960,-48.650,8.750
158824538,-0.050,0.101,1.141,24.990,-56.140,8.260
158824557,-0.041,0.163,1.002,3.360,-63.490,6.790
158824582,0.036,0.038,0.884,-6.300,-56.070,3.220
158824600,0.116,-0.047,0.944,5.040,-39.900,0.700
158824621,0.188,-0.014,0.912,23.450,-28.700,-0.420
158824645,0.203,0.142,0.825,35.490,-14.630,-3.220
158824661,0.131,0.187,0.913,24.150,-3.290,-4.620
158824680,0.154,0.171,1.121,18.270,-8.680,-8.610
158824705,0.191,0.252,1.499,25.410,7.700,-11.410
158824725,0.147,0.289,1.574,1.330,7.560,-13.160
158824744,0.213,0.325,1.480,-17.850,8.400,-12.950
158824764,0.189,0.225,1.467,-6.300,12.110,-9.800
158824784,0.182,0.233,1.559,25.620,21.140,-7.630
158824808,0.144,0.349,1.340,23.660,19.460,-4.620
158824828,0.128,0.417,1.232,-7.210,14.770,-2.450
158824848,0.090,0.370,1.180,-30.240,10.850,3.290
158824868,0.086,0.251,1.182,-40.950,16.660,5.950
158824891,0.001,0.166,1.064,-39.970,25.760,7.070
158824911,0.001,0.094,0.952,-33.670,32.550,4.200
158824932,-0.009,0.041,1.017,-7.490,48.160,1.120
158824952,-0.074,0.076,0.953,1.680,56.070,-3.920
158824976,-0.102,0.101,0.778,-27.790,57.610,-17.150
158824996,-0.014,-0.154,1.005,-21.490,72.380,-28.770
158825016,-0.165,-0.202,1.147,41.230,87.360,-35.350
158825035,-0.285,-0.040,1.065,54.180,87.220,-39.410
158825055,-0.289,0.151,0.994,34.720,84.070,-39.830
158825078,-0.386,0.159,0.893,-17.570,73.710,-38.570
158825098,-0.318,0.147,0.993,-56.630,64.890,-40.600
158825119,-0.245,0.026,1.059,-47.740,66.220,-39.410
158825135,-0.231,0.090,0.910,-30.100,69.510,-32.760
158825155,-0.253,0.149,0.767,-29.050,75.110,-28.560
158825179,-0.395,0.122,0.834,-46.130,75.110,-18.620
158825197,-0.487,-0.012,0.873,-40.320,79.660,-8.120
158825216,-0.473,0.094,0.678,-53.200,83.230,4.200
158825240,-0.441,0.119,0.558,-99.400,77.490,8.890
158825257,-0.366,0.001,0.712,-123.970,79.100,8.190
158825280,-0.421,-0.103,0.803,-115.360,89.040,11.410
158825301,-0.487,-0.104,0.511,-103.040,95.690,16.730
158825321,-0.544,-0.159,0.580,-108.780,97.720,23.660
158825336,-0.557,-0.268,0.754,-91.000,105.910,28.840
158825361,-0.645,-0.187,0.783,-62.510,102.060,34.580
158825384,-0.587,-0.044,0.575,-90.370,99.890,36.890
158825402,-0.540,-0.201,0.517,-106.190,104.580,32.760
158825426,-0.614,-0.397,0.845,-75.250,117.110,26.320
158825445,-0.751,-0.390,0.930,-19.530,117.180,25.200
158825466,-0.767,-0.201,0.660,-12.390,113.120,28.490
158825485,-0.852,-0.121,0.549,-49.000,110.180,34.930
158825509,-0.962,-0.179,0.539,-117.670,90.090,39.900
158825528,-0.924,-0.282,0.612,-142.940,78.540,40.600
158825546,-0.835,-0.229,0.793,-147.210,65.450,36.330
158825570,-0.802,-0.008,0.652,-211.190,61.180,26.950
158825586,-0.985,-0.116,0.508,-290.220,33.110,22.260
158825610,-0.855,-0.961,0.502,-242.340,11.480,18.550
158825627,-0.680,-0.930,0.725,-72.520,38.850,27.020
158825647,-0.752,-0.370,0.640,-44.240,33.460,40.040
158825666,-0.742,-0.365,0.522,-61.460,30.310,51.800
158825691,-0.717,-0.420,0.425,-69.720,31.150,64.540
158825712,-0.686,-0.471,0.384,-80.010,36.120,69.300
158825729,-0.705,-0.526,0.341,-74.200,45.850,72.240
158825753,-0.823,-0.492,0.301,-65.170,54.740,71.400
158825771,-0.846,-0.577,0.344,-49.630,57.890,68.600
158825791,-0.915,-0.529,0.370,-35.350,61.460,63.770
158825814,-0.962,-0.540,0.347,-41.230,58.100,55.300
158825835,-1.020,-0.630,0.422,-25.550,51.940,45.780
158825855,-1.059,-0.466,0.495,-23.730,42.980,36.330
158825876,-1.056,-0.449,0.483,-29.960,28.980,24.290
158825896,-0.975,-0.419,0.511,-23.450,20.090,11.410
158825915,-0.897,-0.409,0.565,-10.850,10.780,-2.030
158825940,-0.839,-0.311,0.700,12.530,4.340,-14.490
158825957,-0.851,-0.274,0.639,24.920,-3.290,-15.820
158825981,-0.886,-0.492,0.798,67.970,-13.020,-18.550
158825999,-0.964,-0.621,0.888,125.720,-16.520,-22.260
158826023,-1.036,-0.395,0.858,140.000,-32.130,-24.990
158826043,-1.096,-0.345,0.781,118.510,-54.530,-28.980
158826060,-1.113,-0.424,0.692,96.740,-70.770,-37.170
158826084,-1.105,-0.566,0.593,88.620,-85.470,-49.840
158826104,-1.095,-0.585,0.571,109.550,-93.450,-58.660
158826123,-1.068,-0.527,0.595,119.140,-96.880,-65.030
158826144,-1.113,-0.519,0.562,132.160,-104.090,-66.780
158826162,-1.101,-0.429,0.525,126.700,-114.030,-67.200
158826182,-0.996,-0.381,0.588,116.060,-125.790,-66.010
158826202,-0.851,-0.232,0.628,100.240,-139.160,-68.040
158826226,-0.788,-0.211,0.573,74.760,-149.520,-73.780
158826246,-0.822,-0.266,0.560,61.880,-152.670,-73.570
158826266,-0.834,-0.347,0.569,61.110,-153.370,-66.430
158826286,-0.813,-0.338,0.569,75.670,-148.680,-55.090
158826306,-0.744,-0.288,0.523,76.020,-144.060,-48.650
158826325,-0.669,-0.265,0.531,69.090,-135.660,-46.970
158826342,-0.691,-0.251,0.560,65.520,-129.220,-43.960
158826362,-0.695,-0.281,0.536,65.940,-122.850,-37.940
158826386,-0.631,-0.213,0.582,62.440,-118.930,-33.740
158826406,-0.535,-0.220,0.600,47.460,-112.770,-33.250
158826425,-0.470,-0.213,0.608,46.900,-102.830,-34.650
158826449,-0.445,-0.098,0.663,39.830,-99.400,-37.870
158826469,-0.384,-0.003,0.701,8.610,-92.260,-40.950
158826484,-0.433,0.184,0.786,-91.350,-102.620,-44.450
158826509,-0.387,-0.273,0.685,-130.270,-108.920,-47.320
158826528,-0.173,-0.559,0.599,-31.640,-76.300,-38.850
158826552,-0.268,-0.506,0.515,64.820,-56.280,-32.130
158826571,-0.313,-0.222,0.605,102.130,-44.870,-27.440
158826592,-0.307,-0.262,0.699,117.600,-42.490,-17.920
158826609,-0.305,-0.206,0.771,134.400,-36.050,-10.850
158826629,-0.358,-0.027,0.801,118.020,-44.520,-4.060
158826648,-0.176,-0.071,0.897,109.690,-48.650,-3.290
158826671,-0.146,-0.122,1.005,130.270,-33.810,0.840
158826690,-0.294,0.043,0.984,153.090,-37.870,4.760
158826714,-0.245,0.285,1.090,117.250,-47.600,9.170
158826731,-0.062,0.180,1.149,82.670,-52.080,15.260
158826755,-0.180,0.093,1.092,72.310,-51.380,24.080
158826775,-0.228,0.157,0.925,54.600,-55.860,29.470
158826794,-0.128,0.177,0.956,28.770,-51.590,31.080
158826818,-0.051,0.183,1.013,0.910,-49.630,26.040
158826838,0.003,0.004,1.041,2.730,-37.520,25.620
158826855,0.056,0.119,1.101,19.810,-33.250,26.810
158826875,0.009,0.151,1.183,20.930,-33.180,25.550
158826894,-0.001,0.078,1.342,42.560,-27.020,22.050
158826917,-0.072,0.284,1.332,41.090,-34.580,17.080
158826938,0.025,0.329,1.345,28.560,-47.250,5.180
158826958,0.031,0.359,1.403,21.980,-55.650,0.210
158826979,0.093,0.381,1.209,23.380,-58.100,-0.700
158827003,0.172,0.326,1.104,18.550,-51.170,7.770
158827023,0.201,0.177,0.973,17.850,-39.690,16.870
158827043,0.209,0.103,1.020,29.820,-24.360,20.230
158827062,0.155,0.187,1.115,26.250,-17.710,14.980
158827079,0.083,0.225,1.014,-2.520,-17.990,12.250
158827103,0.250,0.257,1.015,-26.600,-10.010,4.970
158827123,0.320,0.184,1.028,-30.450,3.570,3.290
158827143,0.400,0.120,1.172,-6.510,13.230,-4.900
158827166,0.399,0.338,1.239,9.870,35.980,-6.370
158827187,0.333,0.275,1.191,3.710,44.030,-5.390
158827203,0.139,0.258,1.139,0.070,43.960,-2.940
158827227,0.137,0.233,1.294,-10.920,40.040,-1.540
158827251,0.114,0.200,1.183,-10.430,40.250,-2.800
158827270,0.094,0.247,1.067,-28.420,43.470,-5.950
158827291,0.176,0.172,1.178,-22.470,54.810,-12.670
158827311,0.039,0.053,1.251,10.430,60.270,-15.400
158827332,-0.073,0.130,1.059,21.630,70.000,-13.510
158827351,-0.123,0.162,0.948,8.820,67.410,-14.000
158827371,-0.169,0.104,1.142,3.850,70.770,-17.780
158827389,-0.224,0.182,1.160,-1.120,66.290,-20.930
158827411,-0.132,0.166,0.878,-35.630,64.190,-27.230
158827430,-0.214,0.136,0.639,-68.530,66.220,-29.960
158827455,-0.174,0.114,0.894,-77.280,72.940,-31.920
158827472,-0.217,-0.064,0.903,-54.180,78.890,-31.360
158827494,-0.266,-0.025,0.727,-28.700,95.550,-31.150
158827513,-0.324,0.113,0.733,-37.240,101.920,-30.030
158827537,-0.392,-0.042,1.000,-42.210,107.100,-27.440
158827558,-0.514,-0.028,0.862,-30.450,108.290,-21.000
158827578,-0.569,0.082,0.579,-60.410,122.500,-15.750
158827602,-0.585,0.068,0.951,-93.380,97.230,-23.660
158827622,-0.560,-0.236,1.022,-58.380,118.160,-17.080
158827640,-0.629,-0.190,0.858,-33.250,119.560,-10.920
158827660,-0.704,0.006,0.530,-67.270,129.080,-4.900
158827681,-0.747,-0.022,0.552,-105.560,114.730,-6.860
158827702,-0.757,-0.290,0.797,-104.720,130.900,-6.020
158827724,-0.804,-0.250,0.775,-75.600,132.160,-3.780
158827744,-0.743,-0.150,0.501,-84.980,135.380,-6.020
158827764,-0.677,-0.280,0.640,-65.940,144.900,-12.390
158827784,-0.788,-0.367,0.927,-22.260,148.750,-20.580
158827808,-0.884,-0.137,0.892,1.330,139.510,-20.650
158827828,-0.936,0.074,0.703,-32.830,127.540,-7.140
158827843,-1.056,-0.019,0.532,-105.840,112.910,5.460
158827863,-1.082,-0.171,0.584,-150.990,96.950,18.690
158827888,-1.004,-0.301,0.643,-172.060,89.390,30.170
158827912,-0.938,-0.376,0.602,-161.070,85.680,38.850
158827932,-0.848,-0.374,0.566,-142.590,80.080,41.090
158827952,-0.800,-0.403,0.508,-122.220,73.290,39.830
158827967,-0.752,-0.427,0.552,-99.330,64.400,35.840
158827992,-0.711,-0.349,0.592,-90.440,50.680,27.160
158828012,-0.700,-0.308,0.572,-92.750,37.940,24.290
158828031,-0.712,-0.257,0.479,-110.110,22.820,25.060
158828055,-0.700,-0.282,0.429,-135.380,8.610,28.280
158828075,-0.737,-0.343,0.379,-158.060,0.140,33.740
158828094,-0.990,-0.405,0.348,-170.450,-5.670,39.900
158828114,-0.891,-0.432,0.311,-181.720,-11.340,46.900
158828133,-0.924,-0.490,0.285,-183.750,-23.590,53.060
158828158,-0.971,-0.589,0.306,-166.880,-22.680,56.700
158828177,-0.991,-0.620,0.326,-140.140,-20.580,54.320
158828197,-0.993,-0.662,0.394,-100.310,-12.320,49.420
158828219,-1.001,-0.685,0.443,-47.250,-2.940,36.120
158828238,-0.933,-0.623,0.463,4.480,3.780,22.190
158828262,-0.914,-0.427,0.423,36.960,10.150,7.350
158828281,-0.915,-0.296,0.380,38.920,2.800,-3.640
158828306,-0.886,-0.214,0.302,29.470,-5.460,-11.200
158828326,-0.883,-0.186,0.257,14.280,-10.710,-12.320
158828343,-0.921,-0.164,0.229,-4.620,-11.970,-13.370
158828365,-1.037,-0.229,0.143,-20.300,-14.770,-18.830
158828389,-1.035,-0.279,0.175,-29.260,-29.610,-17.010
158828409,-1.018,-0.328,0.203,-29.190,-26.530,-18.830
158828428,-1.045,-0.340,0.193,-23.660,-24.990,-21.210
158828449,-1.005,-0.338,0.182,-17.990,-23.590,-24.920
158828464,-0.957,-0.347,0.178,-8.820,-18.830,-28.630
158828489,-0.909,-0.337,0.200,2.170,-14.420,-34.020
158828506,-0.910,-0.317,0.222,7.700,-9.030,-34.370
158828526,-0.940,-0.297,0.206,9.170,-9.310,-33.180
158828546,-0.960,-0.292,0.191,8.750,-8.610,-30.310
158828566,-0.957,-0.331,0.175,8.820,-8.960,-27.090
158828590,-0.956,-0.353,0.167,13.090,-7.350,-24.780
158828614,-0.961,-0.356,0.183,18.340,-5.320,-25.970
158828634,-0.981,-0.335,0.184,23.240,-4.060,-27.650
158828654,-0.964,-0.307,0.192,20.160,-5.040,-30.380
158828674,-0.950,-0.337,0.211,20.230,-3.010,-32.270
158828692,-0.951,-0.311,0.216,17.150,-4.830,-32.900
158828711,-0.933,-0.329,0.207,11.060,-4.620,-32.830
158828735,-0.932,-0.371,0.208,10.570,-4.410,-32.480
158828755,-0.940,-0.330,0.219,13.020,-3.640,-28.140
158828779,-0.907,-0.315,0.227,3.570,-4.200,-22.960
158828799,-0.898,-0.364,0.230,4.760,-1.890,-17.430
158828817,-0.941,-0.376,0.217,7.560,0.560,-13.230
158828839,-0.974,-0.341,0.213,5.040,-2.240,-9.590
158828858,-0.924,-0.338,0.234,1.820,-0.210,-7.770
158828876,-0.930,-0.345,0.263,3.220,3.640,-5.460
158828896,-0.968,-0.300,0.265,1.260,3.710,-2.800
158828916,-0.951,-0.285,0.275,-1.890,3.990,0.280
158828940,-0.938,-0.282,0.284,-1.750,3.500,5.110
158828959,-0.951,-0.334,0.291,3.780,5.320,7.770
158828984,-0.968,-0.313,0.307,7.700,6.230,8.470
158829003,-0.987,-0.298,0.313,10.010,5.950,7.000
158829024,-0.943,-0.275,0.319,11.270,6.370,6.580
158829041,-0.933,-0.246,0.305,5.600,6.090,7.490
158829061,-0.921,-0.317,0.277,0.700,4.620,9.660
158829085,-0.923,-0.355,0.256,4.830,5.040,14.280
158829105,-0.947,-0.373,0.227,9.170,4.200,15.890
158829122,-0.940,-0.400,0.221,12.600,5.110,15.470
158829141,-0.915,-0.414,0.217,14.070,7.280,14.350
158829165,-0.892,-0.436,0.185,14.490,9.870,11.760
158829184,-0.868,-0.468,0.172,16.590,11.970,8.330
158829209,-0.871,-0.496,0.168,21.140,12.390,4.480
158829227,-0.860,-0.485,0.176,21.560,11.690,2.240
158829248,-0.873,-0.504,0.166,18.620,9.590,2.940
158829272,-0.909,-0.521,0.163,14.910,8.470,6.580
158829292,-0.982,-0.522,0.142,9.590,3.360,10.920
158829312,-0.984,-0.495,0.128,-1.190,-3.360,12.950
158829332,-0.917,-0.474,0.131,-14.000,-5.460,10.640
158829351,-0.896,-0.482,0.139,-19.530,-5.530,4.620
158829376,-0.874,-0.450,0.149,-20.160,-2.450,-1.820
158829396,-0.914,-0.466,0.131,-17.500,-1.330,-7.070
158829415,-0.903,-0.487,0.122,-6.860,1.470,-10.080
158829432,-0.913,-0.477,0.127,5.110,3.710,-10.850
158829452,-0.934,-0.419,0.144,10.990,3.150,-12.390
158829476,-0.948,-0.400,0.140,7.770,-0.280,-14.140
158829495,-0.941,-0.366,0.144,-8.540,-6.440,-14.840
158829515,-0.935,-0.385,0.132,-29.960,-7.490,-15.540
158829539,-0.922,-0.420,0.112,-37.100,-6.370,-15.610
158829559,-0.902,-0.394,0.117,-42.700,-3.990,-13.230
158829575,-0.866,-0.391,0.117,-46.340,-0.490,-10.710
158829598,-0.861,-0.424,0.159,-42.560,3.360,-8.610
158829614,-0.854,-0.396,0.198,-35.140,6.090,-5.530
158829639,-0.836,-0.198,0.379,-31.010,-1.820,8.050
158829659,-0.899,0.004,0.422,-57.260,-23.170,17.360
158829678,-0.867,0.121,0.550,-81.340,-54.740,34.300
158829702,-0.903,0.327,0.743,-91.630,-99.890,66.290
158829726,-0.906,0.193,0.989,-105.000,-143.570,85.120
158829746,-1.028,0.277,1.360,-145.670,-174.860,101.430
158829761,-1.475,0.267,1.395,-222.600,-216.790,100.240
158829786,-1.732,-0.023,1.567,-317.590,-264.390,59.850
158829806,-1.686,-0.519,1.518,-408.170,-349.020,-0.140
158829822,-1.323,-1.513,1.362,-379.820,-393.050,-66.990
158829841,-1.215,-2.228,1.915,-253.190,-357.420,-139.230
158829866,-1.468,-2.834,2.241,-50.190,-299.950,-211.680
158829885,-2.074,-2.467,2.177,53.970,-295.960,-257.110
158829905,-2.523,-2.761,1.476,71.120,-334.810,-287.910
158829929,-2.477,-2.628,1.415,79.730,-343.840,-320.180
158829946,-2.300,-2.472,1.051,63.490,-338.800,-321.160
158829969,-2.128,-2.062,0.580,73.850,-307.790,-339.010
158829989,-1.788,-1.760,0.349,91.630,-283.010,-343.420
158830012,-1.520,-1.165,0.037,119.070,-252.490,-324.030
158830033,-1.207,-0.913,-0.097,94.220,-246.890,-325.710
158830053,-1.002,-0.693,-0.166,81.830,-228.900,-311.640
158830071,-0.828,-0.404,-0.107,52.010,-223.020,-305.410
158830095,-0.752,-0.740,-0.060,41.230,-201.950,-302.050
158830115,-0.665,-0.647,0.008,63.840,-185.990,-297.080
158830134,-0.712,-0.413,0.087,51.660,-191.240,-299.040
158830155,-0.542,-0.593,0.252,-7.420,-189.980,-322.630
158830173,-0.676,-0.976,0.321,20.930,-166.810,-328.370
158830194,-1.180,-1.032,0.238,82.530,-153.370,-334.530
158830214,-1.270,-0.570,-0.182,113.610,-161.280,-332.290
158830233,-1.087,-0.340,0.112,118.580,-181.020,-335.510
158830258,-0.981,-0.208,-0.025,170.940,-156.590,-305.480
158830278,-0.873,0.590,-0.388,169.260,-135.800,-271.810
158830298,-1.032,1.164,-0.611,133.840,-103.180,-212.310
158830316,-0.897,2.008,-1.170,86.170,-128.030,-163.240
158830338,-0.601,2.812,-1.661,83.930,-42.840,-86.730
158830362,-0.218,2.879,-1.669,92.050,65.030,20.720
158830386,-0.342,3.022,-1.216,-12.040,126.840,96.880
158830405,-0.410,2.631,-0.962,-99.750,170.100,141.260
158830429,-0.353,2.252,-0.796,-60.970,218.260,198.940
158830447,-0.456,1.959,-0.471,5.180,248.220,233.940
158830467,-0.517,1.574,-0.350,23.240,268.940,270.620
158830487,-0.631,1.045,-0.225,-6.440,295.260,294.420
158830511,-0.932,0.574,-0.072,-120.680,310.660,313.390
158830531,-1.257,-0.256,-0.066,-189.280,284.690,335.300
158830551,-1.197,-0.895,0.047,-183.680,309.820,379.890
158830572,-1.597,-0.941,-0.209,-213.430,320.880,400.960
158830593,-1.632,-1.513,0.073,-174.860,338.660,412.020
158830613,-1.874,-1.859,0.100,-133.420,346.220,405.230
158830636,-1.828,-1.897,-0.185,-122.080,368.060,355.950
158830657,-1.772,-1.664,-0.098,-124.110,378.490,310.590
158830677,-1.658,-1.810,0.096,-74.130,387.590,283.850
158830701,-1.528,-1.323,0.015,-34.650,424.550,259.280
158830720,-1.540,-1.192,0.014,-48.860,444.360,231.560
158830743,-1.827,-1.039,0.659,-51.240,441.630,195.510
158830764,-1.795,-1.055,1.056,-43.260,397.530,162.680
158830784,-1.570,-1.001,0.834,-59.360,378.000,135.380
158830808,-1.917,-1.327,1.476,40.320,354.270,91.980
158830828,-2.393,-0.688,1.714,32.340,325.290,45.220
158830844,-2.615,-0.609,1.747,-46.200,257.530,24.080
158830868,-2.932,-1.218,2.517,-47.600,133.420,-12.950
158830888,-1.723,-1.018,4.420,49.700,60.410,-36.610
158830908,-1.639,-0.199,3.771,68.880,27.300,-58.030
158830928,-2.475,0.060,3.477,-97.860,-162.820,-24.010
158830945,-2.774,-0.768,3.173,-206.640,-256.480,4.690
158830969,-3.006,-1.638,2.331,-265.440,-353.290,-28.840
158830989,-2.522,-2.020,1.865,-277.690,-382.550,-100.240
158831009,-2.550,-2.442,1.111,-179.830,-365.540,-179.130
158831027,-2.214,-2.332,1.147,-68.110,-322.350,-238.140
158831046,-2.043,-1.897,0.684,17.080,-292.250,-275.660
158831069,-1.748,-1.280,0.275,17.920,-290.430,-310.730
158831091,-1.237,-1.188,0.191,30.940,-288.400,-351.120
158831110,-1.115,-1.115,0.135,76.160,-265.510,-369.250
158831130,-1.143,-0.945,-0.008,101.570,-250.530,-377.440
158831151,-1.062,-1.063,-0.107,123.760,-234.850,-381.080
158831171,-1.107,-1.020,-0.178,152.040,-218.610,-369.530
158831192,-1.120,-1.224,-0.061,163.450,-206.710,-364.280
158831215,-1.203,-1.436,0.118,196.420,-197.820,-359.310
158831234,-1.098,-1.531,0.298,228.830,-197.050,-358.890
158831254,-1.414,-2.106,0.527,274.120,-185.990,-358.190
158831274,-2.091,-1.950,0.540,266.000,-211.680,-363.510
158831295,-2.027,-1.751,0.266,128.730,-322.980,-398.230
158831317,-1.709,-1.390,0.284,90.650,-339.010,-414.960
158831338,-1.718,-0.569,0.067,126.560,-330.470,-402.220
158831357,-1.704,0.349,-0.749,160.860,-307.790,-365.050
158831374,-1.056,1.636,-1.182,154.000,-329.910,-314.090
158831398,-0.603,2.443,-1.379,212.310,-241.640,-200.340
158831417,-0.979,3.970,-2.463,280.490,-103.740,-81.410
158831438,-0.971,4.304,-2.445,52.500,-61.250,8.680
158831459,-0.831,3.981,-2.093,-80.850,88.480,94.570
158831476,-1.086,3.185,-1.803,-100.170,185.640,146.720
158831498,-1.288,2.227,-1.505,-73.990,260.610,192.220
158831519,-1.330,1.440,-1.094,-40.950,316.750,234.990
158831542,-1.441,0.806,-0.756,-76.020,363.860,276.010
158831565,-1.670,0.037,-0.590,-125.510,386.470,326.830
158831586,-1.965,-0.833,-0.440,-172.480,422.450,350.770
158831601,-2.471,-1.288,-0.434,-221.690,420.700,400.750
158831625,-2.694,-1.748,-0.431,-287.210,406.420,435.190
158831645,-2.783,-2.399,-0.312,-290.220,383.950,447.790
158831664,-2.593,-2.564,-0.206,-241.780,370.020,434.070
158831686,-2.415,-2.413,-0.081,-168.140,382.900,405.230
158831704,-2.305,-2.226,0.046,-140.420,401.310,380.800
158831729,-2.259,-1.896,0.078,-135.100,422.450,335.020
158831748,-2.382,-1.683,0.131,-182.350,420.420,295.330
158831771,-2.017,-1.886,0.757,-63.000,436.940,253.960
158831795,-2.047,-1.422,0.953,-53.340,388.150,198.030
158831810,-1.814,-1.250,1.261,-64.680,365.610,169.400
158831835,-2.123,-1.332,1.936,-67.200,317.240,109.900
158831855,-2.194,-1.466,2.236,-73.290,280.560,95.970
158831875,-2.231,-1.939,2.796,20.230,213.080,40.040
158831895,-1.802,-2.121,4.875,275.870,240.380,-15.680
158831919,-2.922,-0.029,3.819,156.660,-35.140,-83.790
158831939,-2.011,-0.694,3.359,-93.450,-159.180,-62.510
158831959,-2.389,-1.636,3.164,-128.100,-238.700,-50.190
158831978,-2.786,-1.686,2.366,-141.470,-306.670,-53.480
158832003,-2.501,-1.986,1.553,-211.820,-362.530,-136.640
158832023,-2.481,-2.456,1.200,-169.750,-372.470,-222.460
158832041,-2.345,-2.365,1.001,-65.030,-320.320,-276.500
158832061,-2.192,-1.987,0.733,6.440,-291.340,-309.890
158832083,-1.787,-1.576,0.307,45.920,-283.430,-336.980
158832103,-1.399,-1.221,0.211,55.860,-275.590,-364.560
158832127,-1.142,-1.127,0.253,97.790,-251.230,-393.470
158832147,-1.189,-1.173,0.144,157.360,-229.110,-397.040
158832166,-1.256,-1.047,-0.050,176.190,-214.410,-395.010
158832190,-1.257,-1.170,-0.180,170.240,-220.360,-391.580
158832205,-1.364,-1.281,-0.078,194.110,-220.220,-381.710
158832230,-1.531,-1.446,0.005,212.730,-227.920,-368.060
158832250,-1.562,-1.477,-0.008,188.580,-238.560,-361.270
158832265,-1.571,-1.593,-0.005,154.910,-250.740,-362.040
158832285,-1.636,-1.629,0.030,152.950,-257.110,-362.740
158832306,-1.525,-1.454,0.190,136.780,-260.960,-379.190
158832330,-1.394,-1.231,0.058,157.780,-259.700,-394.170
158832350,-1.195,-0.631,0.113,187.110,-255.570,-392.070
158832368,-1.292,-0.069,-0.085,231.700,-232.400,-359.870
158832390,-1.054,1.760,-1.046,260.120,-211.540,-261.310
158832413,-0.496,3.397,-1.844,135.170,-289.240,-205.030
158832434,-0.739,3.653,-2.685,174.090,-71.400,-33.740
158832454,-0.717,4.908,-2.641,7.490,-40.390,55.790
158832474,-0.601,4.014,-2.379,-63.840,60.410,143.780
158832494,-0.801,2.999,-1.911,-67.200,164.710,199.570
158832510,-1.092,2.003,-1.519,-65.870,242.760,225.820
158832531,-1.517,1.129,-1.249,-115.010,294.700,254.730
158832551,-1.761,0.115,-1.032,-138.460,326.830,287.910
158832574,-1.836,-0.664,-0.740,-106.960,406.000,341.040
158832593,-2.374,-0.840,-0.755,-145.040,473.620,336.350
158832613,-2.754,-1.509,-0.742,-187.320,474.600,397.670
158832633,-2.707,-1.776,-0.541,-223.370,460.110,404.600
158832652,-2.543,-2.020,-0.211,-220.150,461.300,406.000
158832673,-2.452,-2.301,-0.054,-200.200,449.190,382.410
158832693,-2.240,-1.998,-0.121,-191.170,441.560,352.520
158832716,-2.155,-1.918,-0.037,-196.490,437.500,331.100
158832736,-2.318,-1.950,0.039,-201.460,431.060,315.000
158832752,-2.265,-1.774,0.207,-205.030,421.890,299.250
158832777,-2.494,-1.733,0.545,-179.620,397.950,265.860
158832795,-1.985,-1.714,1.059,-92.190,362.530,247.100
158832818,-2.061,-1.159,1.117,-107.660,326.620,195.090
158832837,-2.527,-1.455,1.497,-202.930,303.310,156.380
158832859,-2.959,-2.211,2.115,-146.230,226.170,130.270
158832879,-2.527,-2.088,2.585,-98.070,123.130,65.730
158832903,-1.755,-2.681,4.340,128.870,77.840,-5.390
158832922,-1.656,-1.580,4.500,162.120,81.340,-49.420
158832941,-2.526,-1.127,3.835,-23.170,-104.650,-47.460
158832961,-2.967,-1.810,3.698,-152.180,-277.760,-34.370
158832983,-2.653,-1.971,2.764,-216.790,-374.920,-84.700
158833007,-2.231,-2.204,1.860,-227.500,-373.590,-180.320
158833027,-2.235,-2.736,1.128,-125.790,-363.650,-246.890
158833043,-2.213,-2.640,0.929,4.760,-301.210,-287.070
158833063,-2.253,-1.787,0.304,61.530,-275.590,-322.700
158833087,-1.897,-1.470,0.004,33.810,-294.840,-373.380
158833107,-1.603,-1.430,-0.160,34.720,-264.600,-405.440
158833127,-1.519,-1.293,-0.211,73.010,-232.820,-421.890
158833145,-1.522,-1.341,-0.193,113.260,-217.280,-428.260
158833163,-1.635,-1.320,-0.144,141.890,-205.730,-430.850
158833187,-1.690,-1.227,-0.151,130.130,-211.540,-433.230
158833207,-1.815,-1.302,-0.146,129.990,-209.230,-428.680
158833231,-1.831,-1.395,-0.185,128.170,-215.880,-425.740
158833251,-1.849,-1.422,-0.197,134.540,-221.410,-416.430
158833269,-1.739,-1.290,-0.121,101.710,-232.400,-412.300
158833290,-1.553,-1.348,0.041,92.960,-212.380,-401.590
158833314,-1.634,-1.142,0.055,70.420,-209.790,-412.720
158833333,-1.291,-0.768,-0.089,44.030,-217.490,-427.840
158833356,-0.891,-0.199,-0.026,100.240,-182.770,-416.500
158833377,-1.071,0.923,-0.436,205.380,-99.330,-327.880
158833397,-1.407,3.049,-1.250,128.870,-182.630,-280.350
158833414,-0.811,4.449,-1.573,117.880,-137.760,-159.810
158833438,-0.794,4.489,-1.797,83.230,-49.000,5.880
158833458,-1.074,4.774,-1.557,-51.590,23.870,77.700
158833474,-0.955,3.823,-1.410,-113.750,87.990,136.920
158833493,-0.815,2.882,-1.190,-104.370,155.470,195.790
158833513,-1.031,2.046,-0.854,-52.710,243.040,261.800
158833535,-1.551,1.182,-0.712,-79.450,287.630,324.100
158833554,-2.023,0.210,-0.603,-151.830,310.240,372.190
158833576,-2.298,-0.793,-0.589,-200.410,295.680,416.990
158833597,-2.336,-1.425,-0.638,-155.190,311.430,484.050
158833621,-2.484,-1.682,-0.543,-163.730,317.240,468.160
158833641,-2.746,-1.878,-0.931,-270.970,316.890,475.440
158833657,-2.356,-2.108,-0.582,-226.380,302.750,470.680
158833676,-2.275,-2.422,-0.613,-135.730,296.940,453.460
158833697,-2.029,-2.013,-0.455,-109.060,327.880,429.520
158833719,-2.001,-1.840,-0.244,-144.620,338.800,416.290
158833739,-2.091,-1.696,-0.164,-178.640,366.660,407.540
158833762,-2.228,-2.078,-0.020,-138.740,383.390,379.050
158833783,-2.192,-2.012,0.203,-64.960,419.930,315.000
158833803,-2.431,-1.833,0.646,-60.060,441.700,271.180
158833823,-3.129,-2.092,1.249,-39.620,415.590,236.180
158833842,-3.552,-2.098,1.633,-34.790,378.280,192.010
158833865,-3.687,-2.084,3.050,-80.500,157.640,82.460
158833889,-2.106,-3.311,6.634,153.510,22.330,32.200
158833907,-2.263,-1.477,6.141,158.760,124.670,6.930
158833927,-3.198,-1.077,4.512,-85.540,-203.490,21.140
158833947,-2.103,-1.728,4.114,-235.760,-352.240,10.990
158833967,-2.658,-2.161,2.206,-263.900,-399.210,-51.940
158833990,-2.105,-2.271,1.336,-240.590,-440.020,-173.320
158834010,-2.096,-2.491,0.619,-174.580,-395.010,-267.890
158834034,-2.003,-2.455,0.589,-27.650,-317.170,-352.310
158834054,-2.047,-1.834,0.094,76.090,-267.260,-392.420
158834074,-1.905,-1.527,-0.031,79.310,-278.180,-438.340
158834092,-1.898,-1.496,-0.201,108.430,-255.990,-452.690
158834112,-1.884,-1.366,-0.307,141.050,-253.820,-455.490
158834135,-1.894,-1.550,-0.304,144.410,-247.660,-456.120
158834159,-2.198,-1.552,-0.264,131.670,-247.310,-458.360
158834178,-2.362,-1.923,-0.289,102.060,-248.430,-470.470
158834196,-2.514,-1.977,-0.245,143.290,-229.110,-478.310
158834220,-2.403,-1.600,-0.212,150.990,-239.190,-486.920
158834240,-2.324,-1.566,-0.044,126.350,-236.110,-498.960
158834260,-2.286,-1.402,-0.155,131.530,-240.310,-502.320
158834284,-2.157,-0.612,-0.081,192.150,-239.540,-472.500
158834304,-2.072,0.247,-0.710,227.710,-214.550,-406.070
158834322,-1.825,1.541,-1.484,210.140,-237.790,-337.750
158834340,-1.045,3.139,-2.146,321.930,-184.170,-217.840
158834360,-0.457,4.242,-2.257,261.870,-88.060,-114.940
158834384,-1.094,4.493,-2.411,0.350,-12.110,8.890
158834402,-0.956,3.641,-2.191,-179.340,38.500,81.760
158834425,-0.924,2.906,-1.757,-238.000,90.230,168.490
158834444,-0.909,1.792,-1.488,-168.630,168.280,234.150
158834466,-0.982,0.878,-0.983,-122.640,247.730,306.880
158834488,-1.361,0.520,-0.621,-183.610,316.400,346.710
158834508,-1.852,-0.355,-0.547,-236.320,344.400,412.650
158834532,-2.221,-1.298,-0.629,-265.720,364.210,492.450
158834550,-2.526,-1.652,-0.512,-274.050,379.400,528.500
158834569,-2.971,-1.896,-0.414,-281.470,376.250,545.230
158834594,-3.320,-3.045,-0.494,-202.090,345.590,535.710
158834614,-2.337,-2.653,-0.208,-62.090,392.000,480.830
158834638,-2.310,-2.068,-0.081,-54.390,416.150,419.860
158834655,-2.224,-1.757,0.067,-113.400,422.870,399.070
158834675,-2.165,-1.469,0.205,-148.610,442.610,383.390
158834699,-2.343,-1.581,0.348,-147.560,428.540,356.020
158834719,-2.239,-1.684,0.614,-82.740,411.950,313.740
158834738,-2.405,-1.193,1.357,-86.660,341.250,268.450
158834759,-2.501,-1.162,1.538,-161.280,277.620,218.750
158834779,-2.633,-1.544,1.881,-211.050,146.160,161.980
158834799,-2.307,-2.929,4.748,21.560,2.730,82.460
158834818,-1.145,-2.642,5.023,225.680,282.380,20.370
158834839,-3.143,-0.637,3.621,41.370,-62.020,-45.710
158834863,-1.869,-1.245,3.282,-252.000,-263.760,-13.860
158834882,-2.297,-2.292,2.458,-312.690,-288.960,-53.340
158834901,-2.624,-2.681,1.789,-214.550,-311.080,-108.500
158834921,-2.589,-2.035,1.150,-234.080,-307.510,-212.660
158834946,-2.008,-2.528,1.078,-210.210,-299.180,-313.670
158834966,-1.905,-2.288,0.819,-89.740,-248.780,-370.790
158834985,-1.670,-2.169,0.424,12.950,-220.990,-405.860
158835005,-1.553,-1.609,0.126,92.260,-183.540,-432.600
158835026,-1.522,-1.262,0.095,91.490,-192.290,-473.550
158835046,-1.595,-1.378,0.026,102.900,-174.160,-494.060
158835070,-1.602,-1.378,-0.179,156.730,-156.800,-491.890
158835090,-1.633,-1.357,-0.331,199.430,-156.100,-480.340
158835107,-1.737,-1.286,-0.275,180.880,-166.040,-473.270
158835132,-1.781,-1.409,-0.213,153.790,-177.870,-462.490
158835149,-1.868,-1.694,-0.193,159.810,-182.910,-453.320
158835168,-1.925,-1.544,-0.180,158.340,-200.130,-441.770
158835193,-1.853,-1.682,0.057,149.660,-211.820,-439.810
158835213,-1.825,-1.268,-0.080,102.900,-219.940,-455.770
158835232,-1.557,-1.118,-0.059,141.120,-204.120,-455.770
158835256,-1.478,-0.198,0.158,228.480,-200.830,-431.480
158835275,-1.401,0.290,-0.319,314.370,-187.390,-375.130
158835294,-1.408,1.991,-1.112,261.380,-159.110,-268.170
158835319,-0.760,4.176,-1.803,99.120,-163.870,-186.690
158835339,-0.712,3.994,-2.110,94.990,-44.730,-56.490
158835359,-0.861,4.744,-2.081,8.260,21.980,59.290
158835376,-0.949,3.914,-1.846,-73.360,90.790,136.010
158835398,-1.022,2.978,-1.498,-155.540,153.440,221.970
158835419,-1.145,1.815,-1.226,-179.900,197.820,282.450
158835438,-1.388,0.868,-0.948,-181.440,245.840,324.730
158835462,-1.777,0.119,-0.881,-195.580,294.070,377.860
158835482,-2.068,-0.679,-0.840,-248.150,320.460,396.830
158835502,-2.267,-1.395,-0.741,-219.170,331.030,495.810
158835526,-2.549,-1.665,-0.518,-199.920,342.300,498.960
158835545,-2.602,-2.059,-0.398,-180.740,358.050,501.480
158835567,-2.450,-1.818,-0.614,-201.040,348.740,473.340
158835586,-2.258,-1.393,-0.462,-296.240,349.510,468.440
158835606,-2.259,-2.163,-0.203,-187.040,319.200,460.040
158835624,-2.510,-2.092,-0.249,-123.760,353.640,451.290
158835648,-2.404,-1.774,-0.311,-115.640,369.950,404.670
158835668,-2.328,-1.832,0.120,-85.890,386.820,360.500
158835688,-2.258,-1.821,0.592,-28.630,394.660,316.960
158835707,-2.299,-1.429,0.690,-30.800,393.540,266.840
158835732,-2.753,-1.268,0.843,-135.450,320.880,196.420
158835752,-3.168,-1.933,1.763,-187.740,229.040,156.730
158835771,-3.212,-2.257,2.737,-209.020,161.140,100.940
158835795,-2.746,-4.168,6.401,113.960,-101.500,36.610
158835815,-1.785,-2.412,5.785,213.150,141.820,-7.070
158835830,-3.246,-1.418,4.580,15.190,-46.620,-16.520
158835855,-2.726,-1.695,3.882,-376.250,-382.760,-70.280
158835873,-2.585,-2.993,2.131,-346.780,-412.510,-163.450
158835894,-2.033,-2.950,1.423,-138.040,-323.540,-239.540
158835912,-2.198,-2.672,0.719,1.190,-287.280,-317.590
158835936,-2.053,-2.132,0.502,106.960,-228.340,-373.100
158835957,-2.177,-1.683,-0.052,105.840,-253.890,-416.010
158835976,-1.971,-1.603,-0.141,111.580,-250.320,-449.820
158835996,-1.972,-1.614,-0.169,161.840,-239.610,-463.190
158836014,-1.897,-1.237,-0.175,174.930,-235.200,-461.160
158836032,-1.850,-1.395,-0.245,151.830,-244.860,-469.420
158836052,-1.924,-1.522,-0.311,153.790,-244.860,-463.470
158836076,-1.965,-1.596,-0.179,165.340,-244.090,-457.730
158836095,-2.222,-1.749,0.017,167.790,-245.070,-456.400
158836113,-2.332,-1.696,-0.044,178.710,-243.320,-446.460
158836137,-2.218,-1.487,-0.020,161.910,-252.280,-442.890
158836156,-2.123,-1.380,0.008,155.610,-253.470,-437.640
158836180,-2.119,-1.311,0.027,174.580,-243.390,-428.120
158836200,-2.141,-0.711,-0.227,216.510,-234.920,-388.570
158836220,-1.999,0.847,-0.676,226.310,-250.810,-358.260
158836235,-1.502,1.668,-1.369,223.090,-240.240,-274.330
158836260,-0.652,4.151,-2.527,320.250,-184.800,-112.420
158836279,-0.548,4.434,-2.784,250.530,-52.920,-19.880
158836303,-0.962,4.691,-2.679,-62.160,18.410,113.540
158836323,-0.977,3.633,-2.360,-274.400,75.670,184.520
158836343,-0.784,2.553,-1.955,-212.940,141.820,257.040
158836363,-0.780,1.351,-1.293,-94.570,239.890,316.610
158836386,-1.279,0.213,-0.540,-110.390,345.100,331.170
158836406,-2.110,-0.258,-0.442,-229.250,361.690,362.320
158836426,-2.248,-1.392,-0.592,-320.810,332.080,402.990
158836446,-2.232,-2.118,-0.475,-241.710,354.200,462.140
158836468,-2.313,-2.022,-0.359,-149.170,383.110,481.600
158836487,-2.542,-1.970,-0.161,-136.640,385.350,465.010
158836512,-1.666,-1.465,-0.209,-286.510,421.540,424.970
158836531,-2.435,-1.918,-0.523,-284.270,332.640,406.280
158836555,-2.124,-1.944,-0.276,-210.980,341.670,425.740
158836575,-1.934,-1.851,-0.127,-94.920,372.050,427.490
158836595,-2.231,-1.357,-0.088,-132.580,371.000,405.720
158836615,-2.263,-1.603,0.215,-141.470,361.620,374.920
158836638,-2.220,-1.721,0.532,-90.090,348.250,332.570
158836659,-2.282,-1.604,0.844,-72.170,312.760,269.360
158836679,-2.402,-1.518,1.314,-159.950,227.920,200.900
158836699,-2.585,-2.479,2.695,-185.010,170.450,117.180
158836718,-2.690,-3.872,4.734,63.140,68.110,52.290
158836743,-2.026,-2.857,5.205,183.330,155.470,-28.700
158836758,-3.191,-1.875,4.595,61.740,-109.060,-56.490
158836782,-3.175,-1.864,3.546,-160.790,-305.340,-51.240
158836802,-2.824,-2.554,2.539,-280.000,-373.590,-143.080
158836825,-2.674,-2.691,1.630,-237.370,-378.700,-214.550
158836844,-2.237,-2.638,1.045,-165.900,-361.410,-309.610
158836868,-1.952,-2.338,0.741,-45.780,-296.380,-377.020
158836889,-1.892,-1.722,0.164,63.140,-252.350,-418.880
158836906,-1.778,-1.464,-0.133,93.030,-237.370,-445.130
158836926,-1.792,-1.280,-0.379,90.930,-238.070,-466.200
158836946,-1.750,-1.531,-0.383,115.990,-217.840,-471.030
158836970,-1.908,-1.471,-0.460,142.170,-201.320,-470.890
158836990,-1.930,-1.514,-0.410,122.780,-198.870,-481.810
158837005,-2.082,-1.700,-0.386,120.960,-193.270,-486.500
158837027,-2.174,-1.703,-0.395,127.050,-184.100,-484.680
158837048,-2.192,-1.571,-0.421,121.450,-188.230,-481.880
158837068,-2.035,-1.556,-0.268,106.050,-182.840,-478.520
158837088,-2.046,-1.754,-0.101,139.230,-168.700,-473.830
158837108,-2.121,-1.193,-0.133,150.220,-197.050,-471.660
158837132,-1.883,-0.874,0.011,197.470,-180.880,-458.710
158837151,-2.069,-0.006,-0.254,194.110,-145.810,-439.950
158837170,-2.106,1.174,-0.900,215.810,-190.610,-370.300
158837194,-1.391,3.174,-1.501,316.190,-173.040,-240.940
158837213,-0.966,3.772,-1.869,294.910,-73.710,-138.180
158837233,-1.179,4.844,-2.451,112.350,-60.200,-7.560
158837250,-0.916,4.724,-2.354,-103.950,-5.180,66.220
158837271,-0.699,4.049,-2.152,-153.020,69.370,184.590
158837290,-0.661,2.906,-1.616,-141.400,149.940,291.410
158837314,-1.056,1.831,-1.143,-183.330,221.620,374.640
158837335,-1.481,0.804,-0.692,-263.900,285.740,425.040
158837355,-2.462,-0.272,-0.700,-297.500,321.930,470.750
158837379,-2.575,-1.623,-0.468,-236.530,281.750,566.720
158837399,-2.675,-1.707,-0.377,-146.440,323.960,583.730
158837418,-3.358,-2.057,-0.699,-256.970,344.050,534.310
158837441,-2.989,-1.978,-0.378,-128.450,316.050,542.360
158837460,-2.505,-1.917,-0.550,-55.790,339.570,524.790
158837484,-2.290,-1.727,-0.436,2.870,373.100,484.750
158837499,-2.502,-1.344,-0.267,-32.690,381.360,460.110
158837521,-2.631,-1.456,-0.104,-125.440,365.610,425.460
158837544,-2.468,-1.516,-0.141,-172.130,343.700,382.480
158837561,-2.391,-1.995,0.232,-110.040,305.970,349.370
158837585,-2.067,-1.666,0.493,-70.210,300.440,290.990
158837605,-1.883,-1.281,0.383,-162.610,280.770,244.440
158837625,-2.438,-2.089,0.805,-192.570,266.980,212.800
158837641,-2.721,-2.644,1.485,-142.520,221.340,180.880
158837664,-2.932,-3.153,2.376,-52.500,159.670,98.630
158837688,-1.687,-4.324,5.709,163.520,105.140,-45.640
158837708,-2.211,-3.000,4.398,188.580,112.350,-151.340
158837728,-2.977,-1.783,3.550,68.320,-231.770,-121.660
158837752,-2.689,-2.448,2.416,-212.310,-310.450,-170.870
158837771,-2.986,-2.582,1.531,-280.140,-370.300,-227.850
158837794,-2.595,-3.014,0.810,-211.750,-362.950,-332.290
158837818,-2.070,-2.731,0.585,-7.630,-265.230,-416.220
158837838,-1.902,-2.170,0.151,118.370,-193.690,-441.280
158837858,-1.849,-1.610,-0.091,139.650,-196.840,-476.070
158837880,-1.769,-1.571,-0.189,149.730,-187.390,-496.510
158837900,-1.753,-1.290,-0.270,158.830,-195.370,-500.360
158837920,-1.611,-1.347,-0.361,184.450,-188.650,-491.050
158837940,-1.584,-1.339,-0.375,202.160,-177.660,-477.960
158837964,-1.724,-1.505,-0.369,191.730,-170.100,-467.740
158837984,-1.859,-1.385,-0.345,160.230,-178.640,-458.360
158838004,-1.740,-1.658,-0.281,158.340,-168.350,-450.100
158838020,-1.893,-1.912,-0.201,212.170,-154.840,-435.680
158838042,-2.057,-1.859,-0.136,236.180,-157.850,-426.650
158838062,-2.018,-1.552,-0.120,197.260,-178.430,-431.060
158838083,-1.878,-1.258,-0.037,178.640,-199.990,-439.250
158838103,-2.164,-0.682,-0.205,224.700,-154.560,-407.260
158838126,-2.441,0.638,-0.841,237.160,-197.820,-387.730
158838146,-1.871,2.345,-2.025,225.120,-183.610,-253.190
158838170,-0.589,4.651,-2.226,216.580,-160.860,-123.830
158838189,-1.063,4.933,-2.966,221.830,20.930,24.710
158838208,-1.142,4.645,-2.560,-117.880,76.790,138.180
158838232,-1.014,3.540,-1.935,-259.630,126.910,260.190
158838247,-0.885,2.530,-1.397,-243.810,172.690,324.730
158838271,-1.148,1.286,-0.924,-194.740,251.370,382.200
158838295,-1.559,0.209,-0.592,-182.910,310.660,422.660
158838315,-2.075,-0.278,-0.275,-235.060,309.120,470.960
158838335,-2.216,-1.512,-0.312,-248.080,297.290,525.490
158838359,-2.382,-2.116,-0.438,-219.100,335.230,559.300
158838383,-2.807,-2.554,-0.469,-169.470,271.320,510.860
158838400,-2.842,-2.307,-0.423,-197.960,303.100,498.680
158838420,-1.950,-2.044,-0.101,-69.860,339.640,481.180
158838439,-2.026,-1.773,-0.326,-42.350,362.740,451.500
158838463,-2.160,-1.403,-0.264,-88.340,386.470,408.730
158838487,-2.210,-1.411,-0.171,-117.530,375.340,367.430
158838502,-2.189,-1.593,0.176,-100.310,362.530,338.800
158838527,-1.949,-1.589,0.497,-31.080,337.190,292.740
158838547,-1.687,-1.330,0.770,-8.820,311.710,238.910
158838567,-1.604,-1.242,0.963,-63.630,297.920,186.200
158838591,-1.785,-1.254,1.297,-98.560,249.410,119.840
158838611,-2.350,-2.641,3.172,20.580,232.820,66.570
158838626,-2.196,-2.788,4.085,207.410,212.730,9.450
158838648,-2.868,-1.528,3.877,213.710,171.570,-73.430
158838667,-3.452,-1.200,3.988,30.730,-59.640,-95.970
158838687,-2.995,-1.023,3.224,-112.630,-238.840,-48.090
158838712,-2.584,-1.937,2.298,-239.120,-305.690,-105.070
158838730,-2.765,-2.022,1.862,-207.340,-351.120,-134.120
158838754,-2.573,-2.256,1.031,-238.840,-365.260,-220.990
158838773,-1.992,-2.299,0.930,-160.230,-345.730,-288.260
158838792,-1.690,-2.053,0.749,-21.350,-278.740,-341.530
158838812,-1.585,-1.570,0.301,69.930,-243.600,-373.450
158838836,-1.458,-1.414,-0.022,124.040,-227.080,-414.190
158838855,-1.568,-1.162,-0.117,151.620,-219.730,-424.830
158838878,-1.574,-1.012,-0.200,131.250,-235.830,-438.480
158838898,-1.481,-1.421,-0.328,172.830,-218.820,-435.960
158838916,-1.568,-1.261,-0.371,189.210,-215.390,-432.250
158838936,-1.613,-1.143,-0.394,170.100,-213.360,-431.480
158838960,-1.628,-1.493,-0.371,140.700,-217.350,-432.040
158838984,-1.612,-1.777,-0.316,180.880,-202.790,-418.040
158839000,-1.793,-1.572,-0.253,195.860,-206.990,-408.450
158839019,-1.728,-1.312,-0.174,144.410,-225.120,-405.300
158839039,-1.599,-1.576,-0.148,107.660,-228.830,-415.520
158839064,-1.525,-1.367,0.022,156.520,-217.910,-426.720
158839088,-1.484,-0.481,0.058,174.370,-229.390,-436.660
158839108,-1.351,0.077,-0.349,226.520,-177.940,-366.940
158839125,-1.323,1.554,-0.967,213.150,-188.230,-328.230
158839148,-1.160,3.298,-1.814,181.020,-190.470,-238.630
158839167,-0.593,4.984,-2.755,103.810,-94.150,-102.130
158839186,-0.776,5.258,-2.355,-11.270,-19.390,65.590
158839211,-1.205,4.281,-1.844,-146.720,62.790,202.160
158839230,-1.201,3.347,-1.502,-226.450,113.050,269.150
158839251,-1.131,2.283,-1.125,-192.570,147.700,339.710
158839273,-1.162,1.397,-0.803,-160.440,192.990,394.870
158839295,-1.423,0.486,-0.500,-150.220,241.080,428.120
158839315,-1.826,-0.326,-0.387,-167.160,254.870,462.210
158839335,-2.202,-0.956,-0.259,-210.280,263.130,491.330
158839354,-2.338,-1.448,-0.382,-187.740,259.910,520.940
158839374,-2.238,-1.781,-0.366,-126.980,252.700,519.260
158839394,-2.538,-1.975,-0.466,-125.790,265.440,523.880
158839419,-2.096,-1.725,-0.225,-48.300,294.070,480.130
158839438,-2.091,-1.681,-0.234,-5.740,307.090,444.150
158839458,-1.809,-1.446,-0.240,26.530,328.580,398.930
158839478,-1.670,-1.249,-0.267,30.170,350.560,363.370
158839502,-1.669,-1.123,-0.186,15.960,381.010,325.290
158839520,-1.719,-1.193,0.019,11.410,395.430,297.920
158839542,-1.780,-1.167,0.197,28.140,406.700,251.090
158839566,-1.837,-1.438,0.640,95.760,384.650,191.800
158839585,-2.345,-0.961,0.772,54.390,400.260,141.960
158839605,-3.170,-1.288,1.126,-81.130,291.480,113.540
158839629,-2.269,-1.449,1.713,-113.540,261.030,76.790
158839649,-3.131,-2.096,1.697,-72.240,266.070,49.070
158839669,-3.146,-2.382,2.349,97.720,194.880,28.140
158839684,-2.552,-1.684,2.653,163.870,160.300,-3.990
158839709,-1.796,-1.029,2.494,180.810,161.420,-51.100
158839727,-1.752,-0.414,1.790,130.760,95.060,-71.960
158839749,-1.394,-0.302,1.432,82.600,23.800,-76.370
158839769,-0.925,-0.523,0.771,121.450,-1.260,-53.130
158839786,-0.762,-0.237,0.347,149.800,4.620,-31.430
158839806,-0.648,-0.143,-0.091,139.790,-20.300,-39.550
158839830,-0.416,0.060,-0.242,129.080,-3.290,-33.740
158839850,-0.460,0.094,-0.242,100.030,3.010,-20.510
158839870,-0.590,-0.065,-0.292,80.220,5.740,-2.240
158839890,-0.743,0.021,-0.369,62.860,8.190,20.230
158839913,-0.830,-0.120,-0.477,41.160,3.570,32.690
158839934,-0.979,-0.277,-0.462,41.370,21.210,47.670
158839954,-1.196,-0.288,-0.332,37.800,35.700,54.600
158839973,-1.449,-0.226,-0.224,16.450,25.970,51.030
158839997,-1.238,-0.181,0.082,-16.590,20.860,43.050
158840015,-1.079,-0.209,0.274,-36.750,20.230,33.250
158840039,-0.929,-0.301,0.319,-63.630,28.490,17.570
158840059,-0.862,-0.519,0.276,-61.740,26.110,3.570
158840077,-0.857,-0.523,0.330,-41.230,31.990,-3.430
158840101,-0.881,-0.476,0.394,-28.910,25.480,-5.250
158840119,-0.880,-0.486,0.343,-17.220,20.160,-1.750
158840137,-0.926,-0.525,0.284,-12.390,10.920,0.490
158840156,-0.891,-0.552,0.259,-2.450,8.890,0.280
158840177,-0.875,-0.479,0.266,19.880,8.330,3.570
158840201,-0.917,-0.460,0.343,44.240,12.600,1.470
158840221,-1.089,-0.344,0.443,49.280,-0.840,-3.500
158840239,-1.186,-0.329,0.398,40.320,-34.230,-8.540
158840259,-1.238,-0.036,0.421,-1.960,-80.080,-6.860
158840283,-1.158,0.092,0.777,-126.210,-146.160,-17.640
158840303,-1.108,-0.292,0.958,-151.340,-170.940,-22.960
158840321,-1.169,-0.732,1.132,-106.820,-173.740,-25.760
158840343,-1.149,-0.710,0.926,-38.360,-189.980,-30.590
158840364,-1.209,-0.656,1.235,-46.900,-208.810,-59.010
158840384,-1.502,-1.061,1.386,-79.240,-232.330,-99.330
158840404,-1.282,-1.284,1.031,-20.440,-249.690,-128.030
158840424,-0.996,-1.116,1.026,7.350,-254.030,-151.200
158840444,-0.959,-1.362,1.376,47.600,-252.350,-163.240
158840467,-1.009,-1.239,1.397,89.250,-243.600,-161.910
158840487,-1.020,-1.125,1.347,91.210,-247.940,-159.810
158840507,-1.136,-1.116,1.189,68.950,-261.380,-159.250
158840526,-1.099,-1.134,1.197,64.750,-262.150,-158.550
158840546,-1.088,-1.171,1.232,69.300,-260.190,-158.270
158840571,-0.998,-1.166,1.058,75.810,-245.910,-163.170
158840591,-1.057,-1.159,0.993,85.610,-238.420,-164.220
158840606,-0.909,-1.084,0.908,94.080,-235.270,-163.800
158840629,-0.768,-1.072,0.768,103.040,-218.820,-163.870
158840653,-0.860,-1.023,0.746,117.810,-208.390,-158.200
158840673,-0.746,-0.741,0.776,126.420,-207.690,-147.770
158840693,-0.570,-0.704,0.592,145.670,-197.400,-131.320
158840713,-0.526,-0.430,0.594,124.600,-191.660,-123.550
158840728,-0.556,-0.366,0.569,106.610,-191.660,-116.270
158840753,-0.419,-0.106,0.372,87.710,-189.840,-94.220
158840773,-0.114,-0.025,0.236,32.480,-192.920,-86.450
158840791,-0.064,0.002,0.227,20.370,-179.900,-74.760
158840815,0.020,0.082,0.235,18.130,-181.510,-59.640
158840835,0.329,0.142,0.197,32.970,-174.370,-49.560
158840853,0.445,0.271,0.200,33.110,-155.820,-36.050
158840873,0.346,0.232,0.111,15.750,-141.540,-26.110
158840894,0.409,0.298,0.142,0.840,-142.240,-18.200
158840916,0.548,0.339,0.059,-39.340,-145.810,-1.750
158840940,0.606,0.353,-0.032,-66.220,-142.170,11.410
158840960,0.651,0.182,-0.064,-82.460,-131.670,9.870
158840975,0.729,0.089,-0.064,-67.270,-119.490,10.500
158841000,0.756,0.200,-0.113,-51.590,-95.130,8.470
158841018,0.811,0.034,-0.170,-35.350,-82.670,3.150
158841040,0.822,0.092,-0.210,-0.560,-53.200,-1.050
158841060,0.847,0.161,-0.178,12.320,-41.370,-8.330
158841084,0.886,0.093,-0.162,7.140,-31.780,-5.110
158841103,0.847,0.141,-0.144,28.000,-17.920,3.010
158841127,0.848,0.086,-0.278,23.450,-14.560,-2.170
158841147,1.058,0.184,-0.103,20.440,-17.850,0.420
158841167,0.955,0.058,-0.124,25.620,3.010,1.470
158841186,0.910,0.156,-0.151,-14.420,-0.210,-6.930
158841210,0.950,0.064,-0.082,-10.990,7.420,-1.680
158841225,0.977,-0.099,-0.038,28.490,20.440,0.140
158841250,0.972,0.004,0.099,24.220,21.280,-8.610
158841269,1.012,0.074,0.210,7.280,18.130,-7.140
158841293,1.025,0.122,0.137,1.190,13.720,1.820
158841313,0.999,-0.043,0.267,-8.540,5.880,-1.610
158841333,1.014,-0.103,0.181,-14.280,0.280,-2.520
158841357,1.012,-0.066,0.134,-8.260,1.050,4.690
158841376,0.994,-0.057,0.107,2.380,5.600,4.830
158841396,1.010,0.060,-0.011,22.680,13.440,4.970
158841416,0.937,0.174,-0.088,38.710,21.350,10.640
158841440,0.885,0.201,0.051,40.250,30.100,17.010
158841459,0.840,0.318,0.040,16.520,27.580,18.760
158841480,0.780,0.290,-0.027,-22.190,20.930,14.770
158841499,0.731,0.144,-0.052,-51.520,21.000,-2.170
158841519,0.596,0.089,-0.053,-71.190,21.280,-25.620
158841544,0.818,0.402,-0.136,-73.220,21.000,-4.830
158841564,0.906,-0.080,-0.111,14.980,67.270,8.960
158841584,0.743,0.116,-0.081,54.180,82.460,18.970
158841601,0.710,0.230,-0.139,17.150,84.840,22.890
158841623,0.706,0.120,-0.068,-29.820,98.280,37.170
158841645,0.672,-0.180,0.070,6.790,123.480,45.500
158841663,0.517,-0.124,0.128,32.830,137.970,38.850
158841687,0.432,-0.105,0.107,0.280,145.040,13.930
158841705,0.391,-0.163,0.184,-22.610,149.520,0.770
158841725,0.285,-0.229,0.308,-38.080,160.790,-16.100
158841744,0.101,-0.370,0.323,-38.150,172.200,-29.820
158841769,0.131,-0.323,0.348,-31.150,180.670,-37.030
158841788,0.099,-0.316,0.469,-9.380,192.080,-31.360
158841809,-0.026,-0.108,0.578,-20.720,192.920,-19.040
158841826,-0.088,-0.022,0.478,-67.970,176.400,-7.140
158841845,0.096,-0.145,0.544,-109.970,188.020,18.340
158841870,-0.089,-0.374,0.698,-122.500,194.040,55.370
158841890,-0.308,-0.485,0.726,-104.860,196.840,83.790
158841910,-0.163,-0.284,0.600,-135.170,199.780,105.630
158841929,-0.138,-0.650,0.852,-154.630,221.410,123.620
158841949,-0.326,-0.886,0.927,-123.200,240.240,140.770
158841973,-0.779,-0.913,0.970,-107.730,256.480,153.510
158841989,-0.594,-0.914,0.966,-93.240,255.850,161.630
158842008,-0.657,-0.842,0.925,-124.460,283.710,156.170
158842031,-1.157,-1.092,1.072,-161.070,288.470,145.810
158842055,-1.440,-1.343,1.312,-125.510,254.030,159.740
158842075,-1.003,-1.180,1.141,-66.850,255.780,156.870
158842093,-1.171,-0.885,0.956,-66.710,256.200,147.560
158842113,-1.254,-0.918,1.098,-89.530,236.810,130.130
158842135,-1.192,-1.060,1.115,-46.270,224.490,112.280
158842155,-1.226,-0.861,0.993,-38.360,232.960,95.060
158842179,-1.437,-0.843,1.080,-34.720,201.390,79.310
158842197,-1.449,-0.856,0.905,-37.800,169.540,69.860
158842219,-1.353,-0.765,0.811,-77.560,129.710,65.030
158842238,-1.191,-0.752,0.734,-107.730,104.790,66.010
158842259,-1.039,-0.849,0.720,-107.170,95.900,49.490
158842279,-1.030,-0.844,0.732,-79.660,92.680,29.820
158842303,-0.986,-0.763,0.672,-16.940,88.830,11.130
158842322,-0.935,-0.539,0.609,7.280,82.740,0.630
158842338,-1.325,0.641,1.383,-139.860,7.350,26.670
158842358,-0.701,-1.261,1.171,-152.600,1.890,12.600
158842383,-1.110,-0.796,0.390,-36.820,-31.290,9.870
158842403,-0.814,-0.692,0.209,30.520,-3.220,13.720
158842427,-0.936,-0.478,-0.081,51.380,-0.840,4.200
158842446,-0.898,-0.430,-0.171,35.770,-6.860,4.410
158842467,-0.782,-0.498,-0.199,36.750,5.180,3.850
158842486,-0.855,-0.476,-0.213,49.000,12.110,1.050
158842507,-0.840,-0.471,-0.142,59.920,24.780,-2.730
158842526,-0.947,-0.318,-0.055,55.790,28.700,-4.970
158842545,-1.019,-0.209,0.071,27.720,20.440,-9.730
158842569,-1.048,-0.175,0.186,-20.790,4.340,-16.240
158842586,-1.024,-0.377,0.238,-24.570,-3.220,-14.770
158842610,-0.980,-0.493,0.227,16.730,1.540,-7.840
158842630,-0.981,-0.469,0.144,27.440,0.910,-9.450
158842648,-0.930,-0.506,0.140,41.160,0.070,-9.240
158842668,-0.890,-0.575,0.130,57.750,2.100,-12.880
158842691,-0.865,-0.579,0.175,71.610,5.040,-19.740
158842712,-0.896,-0.537,0.159,68.180,-0.280,-25.200
158842732,-0.926,-0.530,0.277,63.910,-10.360,-30.100
158842756,-0.987,-0.633,0.443,54.040,-32.620,-38.990
158842776,-1.012,-0.603,0.542,45.500,-55.090,-42.840
158842796,-1.011,-0.586,0.542,28.980,-76.860,-46.200
158842812,-1.038,-0.598,0.750,23.520,-106.680,-52.570
158842834,-1.175,-0.938,0.789,19.530,-132.230,-70.350
158842856,-1.205,-0.912,0.793,52.990,-161.630,-79.800
158842876,-1.118,-0.532,0.805,33.740,-190.960,-95.060
158842895,-1.054,-0.791,1.001,8.820,-224.350,-115.430
158842915,-1.045,-1.134,1.172,40.320,-223.230,-130.480
158842936,-1.124,-1.166,1.001,112.700,-224.770,-140.630
158842955,-1.109,-0.969,1.021,140.350,-238.490,-149.730
158842975,-0.979,-0.975,1.150,127.330,-260.260,-160.440
158842999,-0.792,-0.862,1.280,105.910,-270.620,-157.640
158843019,-0.578,-1.059,1.187,106.120,-267.330,-156.030
158843039,-0.501,-0.971,1.211,132.370,-250.110,-147.770
158843057,-0.528,-0.898,1.129,122.290,-251.440,-144.410
158843081,-0.377,-1.026,1.167,131.320,-250.110,-141.260
158843099,-0.328,-0.938,1.226,135.310,-236.810,-137.760
158843119,-0.332,-0.901,1.155,120.400,-237.440,-135.730
158843139,-0.255,-0.934,1.031,113.820,-232.050,-135.730
158843163,-0.157,-0.934,0.892,125.090,-217.000,-133.420
158843183,-0.027,-0.834,0.879,136.710,-203.980,-131.950
158843203,0.100,-0.722,0.981,147.420,-185.780,-125.230
158843219,-0.000,-0.611,0.819,146.580,-177.450,-114.240
158843243,0.084,-0.484,0.614,115.850,-168.140,-103.670
158843263,0.257,-0.356,0.603,81.550,-158.760,-94.360
158843282,0.129,-0.285,0.626,72.520,-143.080,-79.940
158843306,-0.031,-0.131,0.444,61.530,-148.400,-57.540
158843321,0.160,-0.159,0.261,55.160,-149.660,-45.570
158843345,0.204,-0.201,0.174,69.650,-134.750,-31.290
158843364,0.220,-0.078,0.255,87.080,-124.040,-19.810
158843386,0.195,0.102,0.199,87.010,-122.640,-13.440
158843406,0.346,0.095,0.188,94.850,-114.940,-8.260
158843426,0.491,0.345,0.094,84.140,-118.440,6.370
158843450,0.583,0.239,0.067,53.970,-102.200,8.890
158843468,0.511,0.183,0.037,54.880,-100.030,14.560
158843490,0.661,0.308,0.050,32.550,-98.910,19.880
158843513,0.638,0.222,-0.067,23.450,-90.720,24.990
158843529,0.715,0.335,-0.144,-1.890,-86.170,24.290
158843550,0.790,0.154,-0.130,-13.020,-73.220,22.680
158843574,0.854,0.085,-0.095,4.970,-58.730,23.380
158843593,0.823,0.099,-0.145,23.660,-39.690,20.650
158843616,0.904,0.268,-0.126,28.840,-39.270,27.160
158843636,1.028,0.242,-0.008,31.710,-22.610,29.260
158843657,0.878,0.136,-0.059,41.860,-11.690,31.220
158843677,0.805,0.183,-0.062,21.140,-8.330,23.030
158843701,0.695,0.221,-0.104,-1.330,-17.920,13.790
158843721,0.802,0.202,-0.116,-4.970,-15.260,5.040
158843745,0.745,0.090,-0.069,-9.100,-7.630,-14.700
158843765,0.760,0.162,-0.087,-18.690,-7.420,-25.620
158843785,0.997,0.277,-0.104,-7.420,3.360,-19.670
158843805,0.911,0.175,0.021,19.880,12.530,-8.610
158843822,0.907,0.209,0.092,2.800,3.010,-3.500
158843841,1.130,0.269,0.044,-21.560,-4.480,8.330
158843866,1.134,0.051,0.016,-18.410,5.880,18.340
158843886,1.123,0.041,0.149,3.990,17.080,25.270
158843906,1.068,0.025,0.190,25.760,25.620,25.970
158843926,1.078,0.040,0.157,26.110,24.570,26.040
158843943,1.005,0.018,0.162,9.870,19.600,25.270
158843963,0.919,-0.026,0.219,-18.970,13.860,20.720
158843983,0.916,-0.064,0.224,-36.120,6.720,10.780
158844007,0.959,-0.128,0.183,-14.630,7.210,1.610
158844027,0.932,0.015,0.114,2.940,9.240,-2.870
158844047,0.977,0.067,0.138,11.760,11.620,-3.500
158844065,0.912,0.118,0.116,9.520,11.060,-4.480
158844089,0.847,0.155,0.114,-5.950,10.220,-10.710
158844108,0.793,0.087,0.107,-16.730,7.700,-21.910
158844133,0.799,0.072,0.060,-24.780,4.760,-34.790
158844153,0.698,0.019,0.060,-36.190,-17.850,-48.510
158844173,0.539,-0.072,0.061,-57.820,-4.480,-64.400
158844197,0.511,-0.029,-0.036,-80.570,-5.390,-87.220
158844213,0.505,0.179,-0.095,-84.770,8.890,-88.480
158844237,0.438,0.254,-0.206,-84.630,25.970,-90.720
158844257,0.457,0.166,-0.236,-69.020,47.600,-86.030
158844277,0.498,0.290,-0.168,-62.650,73.640,-68.600
158844295,0.417,0.291,-0.092,-58.520,92.050,-46.830
158844316,0.335,0.378,-0.105,-71.680,107.660,-20.930
158844337,0.383,0.376,-0.060,-107.380,127.260,5.040
158844356,0.325,0.241,0.039,-128.940,142.590,32.830
158844375,0.171,0.068,0.084,-129.150,152.180,71.050
158844399,0.210,0.024,0.159,-122.150,173.950,117.530
158844420,0.176,0.043,0.164,-149.310,188.510,157.010
158844437,0.008,-0.127,0.296,-184.940,197.190,185.500
158844457,-0.071,-0.432,0.329,-202.860,183.050,227.780
158844481,0.135,-0.627,0.502,-182.560,208.180,268.030
158844501,-0.050,-0.981,0.592,-154.280,234.290,282.520
158844519,-0.322,-1.091,0.889,-133.210,234.850,287.840
158844541,-0.270,-1.244,0.932,-102.690,253.470,291.060
158844565,-0.336,-1.224,0.878,-110.600,279.930,286.790
158844584,-0.833,-1.325,1.091,-122.290,291.620,279.160
158844608,-0.947,-1.570,1.285,-107.520,275.450,265.930
158844631,-0.839,-1.481,1.177,-29.820,303.940,261.310
158844655,-1.082,-1.276,1.139,-16.940,309.960,229.600
158844675,-1.228,-1.269,1.339,2.660,294.210,198.520
158844691,-1.368,-1.195,1.386,21.560,272.580,173.530
158844715,-1.291,-0.898,1.135,19.390,245.280,134.400
158844735,-1.191,-0.788,0.955,-32.270,224.840,107.170
158844753,-1.218,-0.752,0.992,-79.590,184.170,91.140
158844772,-1.117,-0.837,0.898,-70.980,164.220,79.170
158844792,-1.084,-0.883,0.764,-47.530,154.700,61.250
158844816,-1.044,-0.899,0.751,-8.610,147.980,41.510
158844836,-1.083,-0.670,0.821,6.510,131.390,23.870
158844856,-1.136,-0.524,0.722,-5.740,109.620,13.930
158844875,-1.120,-0.495,0.524,-23.660,77.700,0.280
158844895,-1.073,-0.518,0.496,-47.250,52.080,-6.510
158844915,-1.127,-0.264,0.779,-83.160,28.840,-9.870
158844938,-1.101,-0.256,0.671,-119.000,-6.090,-12.950
158844958,-0.963,-0.494,0.273,-87.710,-14.350,-9.870
158844978,-0.873,-0.727,0.118,9.310,-11.970,-4.410
158844998,-0.838,-0.450,0.051,31.010,-3.570,-1.610
158845022,-0.912,-0.427,-0.018,28.000,-12.810,-0.770
158845042,-0.849,-0.407,-0.035,16.380,-13.440,-3.780
158845060,-0.846,-0.448,-0.071,0.210,-8.750,-4.270
158845084,-0.855,-0.524,-0.098,1.610,-0.630,-5.880
158845100,-0.850,-0.552,-0.079,8.680,8.190,-7.770
158845119,-0.924,-0.503,-0.011,13.930,13.440,-9.030
158845143,-0.985,-0.436,0.098,8.050,10.290,-11.550
158845164,-0.981,-0.365,0.245,-11.130,0.280,-12.670
158845182,-0.980,-0.378,0.235,-18.830,-7.000,-10.150
158845202,-0.982,-0.272,0.178,-8.820,-12.740,-5.530
158845222,-0.940,-0.490,0.154,0.280,-14.630,-3.010
158845245,-0.932,-0.468,0.179,-9.310,-21.560,-4.480
158845264,-0.925,-0.580,0.191,-6.160,-27.860,-9.800
158845289,-0.971,-0.711,0.305,16.520,-41.090,-23.310
158845306,-1.037,-0.708,0.485,32.900,-54.040,-33.600
158845325,-1.065,-0.690,0.599,27.860,-79.030,-48.720
158845345,-1.073,-0.758,0.723,24.360,-104.860,-61.810
158845364,-0.997,-0.791,0.756,23.870,-128.590,-71.610
158845384,-0.966,-0.824,0.886,4.200,-149.450,-86.310
158845409,-0.953,-1.070,1.004,19.600,-164.990,-100.030
158845429,-0.959,-1.140,0.983,64.330,-170.940,-110.670
158845448,-1.001,-1.003,0.956,79.170,-182.770,-118.020
158845468,-0.994,-1.068,1.038,84.140,-200.900,-125.580
158845488,-1.097,-1.138,1.053,91.980,-216.090,-137.200
158845513,-1.037,-1.043,0.913,89.320,-235.410,-151.970
158845536,-0.994,-1.124,0.959,72.660,-245.420,-170.030
158845560,-0.896,-1.140,0.869,69.790,-250.390,-182.770
158845583,-0.753,-1.198,0.890,94.220,-248.010,-187.600
158845603,-0.693,-1.074,0.812,113.610,-236.530,-187.250
158845624,-0.575,-0.940,0.771,111.580,-231.980,-184.170
158845646,-0.400,-0.891,0.802,99.610,-227.710,-180.180
158845666,-0.252,-0.884,0.790,101.990,-215.530,-171.220
158845690,-0.167,-0.769,0.756,117.880,-196.280,-157.640
158845708,-0.129,-0.671,0.696,112.210,-190.050,-147.910
158845727,0.001,-0.584,0.677,99.610,-180.740,-140.490
158845747,0.035,-0.529,0.705,98.070,-170.730,-130.060
158845770,0.052,-0.468,0.602,104.370,-163.100,-115.360
158845791,0.255,-0.358,0.478,104.020,-154.630,-102.620
158845811,0.287,-0.306,0.526,100.240,-146.650,-94.430
158845832,0.200,-0.277,0.522,93.870,-142.590,-84.140
158845851,0.304,-0.161,0.353,85.540,-139.580,-76.160
158845875,0.389,-0.100,0.332,64.050,-129.780,-67.060
158845894,0.377,-0.078,0.333,47.110,-122.990,-58.940
158845913,0.393,0.054,0.264,38.570,-118.580,-48.370
158845934,0.500,0.109,0.161,16.940,-111.440,-40.740
158845953,0.646,0.050,0.175,24.990,-96.950,-34.440
158845973,0.645,0.052,0.221,50.680,-81.690,-24.850
158845994,0.554,0.145,0.201,62.230,-71.400,-15.820
158846018,0.611,0.215,0.164,40.110,-75.250,-9.730
158846037,0.668,0.115,0.232,37.590,-71.190,-9.030
158846056,0.554,0.050,0.291,43.540,-72.590,-6.090
158846080,0.624,0.073,0.196,35.000,-84.280,-6.650
158846103,0.798,0.148,0.175,19.110,-109.620,-8.540
158846127,0.827,-0.061,0.278,20.720,-81.270,-13.790
158846146,0.892,0.232,0.172,32.200,-92.470,-10.430
158846169,1.076,-0.033,0.006,56.980,-114.590,-6.440
158846187,1.405,0.136,0.156,47.180,-59.920,-12.110
158846207,1.111,0.060,0.124,23.730,-53.130,-13.300
158846228,0.900,0.063,-0.028,20.370,-41.650,-18.620
158846252,0.819,0.104,-0.154,40.600,-32.550,-19.460
158846272,0.859,0.278,-0.253,40.110,-25.830,-9.100
158846290,0.869,0.331,-0.230,24.850,-16.800,0.140
158846312,0.774,0.200,-0.224,9.660,-5.040,3.570
158846328,0.842,0.236,-0.183,10.990,3.850,3.290
158846348,0.778,0.246,-0.184,-11.340,6.300,3.290
158846368,0.810,0.141,-0.173,-21.070,10.990,1.890
158846388,0.844,0.052,-0.104,-15.330,20.020,-3.780
158846410,0.915,0.114,-0.071,-3.150,28.770,-7.980
158846434,0.946,0.132,-0.086,-2.660,38.010,-7.140
158846454,0.920,0.174,-0.052,-6.720,44.170,-7.070
158846473,0.906,0.206,-0.003,-8.190,58.520,-9.940
158846493,0.940,0.229,0.026,-4.550,69.510,-8.890
158846517,0.847,0.224,0.010,-0.210,79.590,-4.620
158846537,0.770,0.198,0.020,0.560,90.510,-3.150
158846552,0.822,0.185,0.101,-9.030,96.110,-4.830
158846572,0.689,0.167,0.108,-19.110,99.470,-5.110
158846592,0.607,0.144,0.107,-35.630,104.230,-4.830
158846617,0.523,0.075,0.117,-33.320,112.070,-2.450
158846637,0.489,0.152,0.074,-36.050,116.690,-2.660
158846654,0.496,0.178,0.109,-40.740,124.040,-1.260
158846673,0.465,0.172,0.133,-47.390,131.530,3.430
158846693,0.445,0.147,0.105,-60.060,137.410,12.670
158846713,0.412,0.097,0.136,-76.300,146.580,22.050
158846733,0.427,0.031,0.242,-86.240,151.900,31.570
158846757,0.435,-0.032,0.349,-90.370,161.350,51.170
158846777,0.338,-0.094,0.354,-93.800,172.480,65.450
158846793,0.228,-0.159,0.360,-94.850,171.780,75.600
158846813,0.249,-0.224,0.510,-100.520,175.280,86.800
158846833,0.240,-0.360,0.722,-102.060,166.740,99.540
158846853,0.209,-0.438,0.760,-110.950,173.950,112.630
158846877,0.038,-0.461,0.593,-131.740,177.660,121.170
158846896,-0.053,-0.591,0.747,-133.490,183.680,123.760
158846917,-0.103,-0.693,0.911,-121.030,183.190,133.490
158846937,-0.136,-0.762,0.875,-105.630,200.970,137.620
158846954,-0.234,-0.769,0.854,-87.990,220.640,140.490
158846975,-0.370,-0.678,1.095,-69.580,227.220,143.010
158846996,-0.578,-0.830,1.136,-54.250,219.660,147.000
158847016,-0.638,-0.964,0.987,10.500,239.190,154.280
158847040,-0.603,-0.611,1.241,-2.520,251.580,132.440
158847060,-0.789,-0.577,1.513,-53.060,250.880,118.510
158847079,-1.026,-0.714,1.416,-61.950,239.050,114.170
158847102,-1.110,-0.846,1.165,-51.170,228.410,97.440
158847123,-1.182,-0.864,1.060,-38.080,208.740,86.450
158847143,-1.003,-0.684,1.206,-35.210,206.290,75.530
158847162,-1.046,-0.647,1.172,-21.210,195.370,63.420
158847182,-1.006,-0.641,0.961,-14.420,185.640,50.960
158847206,-1.019,-0.572,0.753,-14.840,193.620,46.970
158847226,-1.178,-0.505,0.749,-24.360,151.970,39.200
158847245,-1.120,-0.422,0.730,-42.420,132.370,30.520
158847264,-1.049,-0.433,0.667,-69.300,113.820,24.640
158847282,-0.983,-0.424,0.625,-80.080,100.520,24.080
158847301,-0.971,-0.520,0.569,-78.610,92.260,21.980
158847321,-0.988,-0.570,0.507,-54.670,85.050,21.840
158847346,-0.977,-0.499,0.497,-40.670,78.190,23.590
158847366,-1.026,-0.546,0.425,-33.180,68.530,19.950
158847386,-0.984,-0.531,0.407,-27.230,64.260,16.240
158847405,-0.996,-0.537,0.361,-19.530,60.900,11.480
158847430,-1.102,-0.177,0.600,-91.000,25.830,1.750
158847450,-1.112,-0.198,0.535,-196.980,-22.610,-0.980
158847468,-0.924,-0.525,0.416,-186.970,-33.040,1.750
158847490,-0.841,-0.781,0.231,-91.980,-20.020,1.260
158847510,-0.915,-0.718,0.121,-32.060,-9.450,-2.380
158847534,-0.867,-0.584,0.045,13.790,-8.260,-5.110
158847554,-0.813,-0.422,0.078,31.640,-2.170,-4.410
158847573,-0.846,-0.398,0.088,24.220,-0.770,-6.510
158847593,-0.831,-0.505,0.054,31.150,1.260,-6.440
158847613,-0.854,-0.518,0.030,50.330,11.550,-4.550
158847637,-0.948,-0.468,0.020,60.550,18.410,-2.380
158847652,-0.995,-0.407,0.055,57.750,20.230,-5.390
158847677,-1.064,-0.319,0.004,38.080,3.360,-3.150
158847697,-0.998,-0.309,0.091,17.710,-2.520,-4.970
158847716,-0.996,-0.334,0.135,2.660,-5.460,-6.230
158847737,-0.966,-0.409,0.147,5.390,-6.790,-6.440
158847752,-0.934,-0.458,0.160,14.840,-5.950,-6.510
158847772,-0.911,-0.498,0.168,34.860,-3.710,-5.880
158847792,-0.929,-0.529,0.215,54.460,-2.030,-6.790
158847814,-0.927,-0.549,0.238,70.560,-8.540,-8.750
158847833,-0.895,-0.528,0.279,74.830,-9.590,-12.320
158847853,-1.010,-0.532,0.413,74.550,-22.750,-17.920
158847877,-1.024,-0.632,0.499,63.210,-52.080,-29.680
158847901,-1.004,-0.480,0.526,21.630,-79.870,-37.310
158847921,-0.989,-0.616,0.684,-11.550,-104.160,-49.980
158847941,-0.978,-0.854,0.853,-14.000,-115.850,-66.150
158847965,-1.024,-1.158,0.835,63.350,-122.010,-80.920
158847985,-1.061,-0.982,0.695,111.860,-133.490,-96.600
158848004,-1.088,-0.844,0.907,109.270,-156.660,-114.030
158848023,-1.111,-0.707,0.960,75.600,-180.180,-130.410
158848048,-1.078,-0.874,0.902,33.600,-205.730,-156.450
158848068,-1.025,-1.320,0.999,69.300,-214.060,-167.090
158848087,-1.061,-1.007,0.969,77.280,-220.780,-177.940
158848103,-0.887,-0.994,1.022,69.510,-231.770,-184.590
158848126,-0.789,-1.056,1.106,77.560,-233.450,-191.520
158848148,-0.685,-0.978,1.081,88.760,-227.220,-189.210
158848167,-0.529,-0.925,0.986,89.600,-219.730,-186.550
158848189,-0.451,-1.056,1.028,120.050,-205.940,-179.200
158848213,-0.445,-0.823,1.061,141.750,-195.090,-163.660
158848233,-0.261,-0.820,0.872,142.170,-187.320,-150.430
158848253,-0.222,-0.703,0.896,133.910,-176.260,-137.200
158848277,-0.180,-0.606,0.908,112.070,-173.040,-123.620
158848296,-0.053,-0.670,0.880,113.610,-162.400,-113.400
158848320,0.055,-0.631,0.825,127.610,-149.590,-99.120
158848339,0.020,-0.569,0.821,136.430,-134.890,-89.320
158848360,0.024,-0.540,0.693,124.600,-130.410,-82.320
158848380,0.037,-0.443,0.725,110.880,-129.290,-74.060
158848400,0.084,-0.373,0.623,98.280,-131.670,-68.320
158848420,0.221,-0.275,0.524,87.640,-129.430,-63.140
158848437,0.254,-0.208,0.496,65.660,-121.100,-61.390
158848457,0.247,-0.126,0.527,59.290,-116.410,-52.850
158848476,0.350,-0.020,0.510,66.780,-115.220,-44.030
158848501,0.432,-0.035,0.393,78.190,-95.550,-34.440
158848520,0.426,-0.005,0.367,90.790,-84.840,-27.930
158848541,0.402,0.112,0.374,107.100,-79.940,-16.660
158848560,0.391,0.285,0.339,97.510,-88.550,-7.420
158848580,0.518,0.248,0.225,63.840,-99.190,0.840
158848605,0.677,0.137,0.297,42.420,-94.640,5.740
158848624,0.656,0.094,0.335,40.320,-81.270,8.400
158848644,0.758,0.186,0.375,27.790,-81.200,10.990
158848662,0.803,0.121,0.368,26.810,-69.650,12.600
158848681,0.783,0.149,0.298,16.380,-71.960,9.730
158848706,0.918,0.093,0.250,1.120,-63.630,6.090
158848724,0.866,0.041,0.275,14.000,-54.460,4.410
158848744,0.795,0.165,0.257,19.740,-46.900,0.560
158848767,0.865,0.193,0.191,14.770,-45.780,4.130
158848786,0.901,0.049,0.209,47.740,-29.750,6.790
158848810,0.765,0.100,0.293,78.680,-23.030,9.800
158848830,0.764,0.224,0.287,66.780,-29.050,7.560
158848848,0.768,0.228,0.196,48.790,-35.490,5.180
158848870,0.811,0.283,0.154,21.770,-36.190,3.080
158848894,0.748,0.260,0.133,0.070,-40.880,1.400
