Timestamp,AccelX,AccelY,AccelZ,GyroX,GyroY,GyroZ
1743419885.348118,-0.149,0.979,-0.136,-1.470,-0.630,0.560
1743419885.376575,-0.142,0.983,-0.130,-3.010,-1.120,-4.200
1743419885.4080079,-0.150,1.002,-0.139,0.350,-2.520,-2.240
1743419885.437719,-0.150,0.993,-0.136,1.610,-2.310,2.240
1743419885.466828,-0.138,0.974,-0.136,-0.420,-4.340,0.070
1743419885.498595,-0.156,0.990,-0.144,0.000,-4.690,-1.400
1743419885.5290089,-0.156,0.985,-0.148,1.120,-2.520,0.700
1743419885.55776,-0.142,0.972,-0.143,0.280,-1.960,-2.450
1743419885.588039,-0.150,0.991,-0.145,0.490,-1.680,-3.850
1743419885.602713,-0.151,0.998,-0.145,2.100,-0.350,0.070
1743419885.646755,-0.139,0.982,-0.134,2.100,-0.560,0.630
1743419885.661976,-0.144,0.983,-0.134,1.400,-3.220,-0.630
1743419885.6926851,-0.159,0.995,-0.141,1.400,-3.780,1.750
1743419885.7223969,-0.155,0.976,-0.142,0.910,-3.640,1.820
1743419885.7534678,-0.150,0.969,-0.141,-0.770,-3.430,-2.870
1743419885.783108,-0.154,0.987,-0.145,-0.350,-2.450,-4.270
1743419885.812892,-0.147,0.993,-0.141,0.700,-0.700,-1.960
1743419885.842741,-0.135,0.983,-0.136,0.560,-1.890,-1.890
1743419885.873142,-0.149,0.997,-0.144,1.120,-3.920,0.280
1743419885.901207,-0.156,0.990,-0.142,1.890,-3.920,3.500
1743419885.932249,-0.151,0.973,-0.144,0.910,-3.360,0.560
1743419885.9621062,-0.157,0.978,-0.145,0.490,-2.170,-3.150
1743419885.9932318,-0.157,0.993,-0.142,1.120,-0.140,-2.100
1743419886.007694,-0.141,0.980,-0.135,1.050,-0.630,-2.240
1743419886.037825,-0.142,0.992,-0.134,0.910,-2.380,-1.820
1743419886.067969,-0.151,0.996,-0.138,1.680,-3.290,2.100
1743419886.098423,-0.146,0.976,-0.136,1.050,-3.850,1.960
1743419886.127381,-0.152,0.976,-0.141,-0.140,-4.130,-1.610
1743419886.1567519,-0.158,0.987,-0.143,0.210,-2.660,-1.610
1743419886.187233,-0.149,0.979,-0.143,0.280,-1.470,-1.890
1743419886.2186182,-0.144,0.984,-0.138,0.210,-1.890,-3.430
1743419886.24672,-0.149,0.998,-0.139,0.910,-2.100,-1.120
1743419886.278463,-0.146,0.991,-0.138,1.820,-2.100,1.470
1743419886.307532,-0.142,0.976,-0.138,1.260,-3.220,0.490
1743419886.3378549,-0.157,0.986,-0.141,0.910,-3.710,-0.210
1743419886.366961,-0.158,0.982,-0.143,1.120,-2.310,0.350
1743419886.3817668,-0.149,0.976,-0.139,0.560,-1.610,-2.450
1743419886.411874,-0.148,0.989,-0.138,0.350,-1.400,-3.710
1743419886.442116,-0.148,0.996,-0.136,1.190,-1.330,-0.770
1743419886.472648,-0.143,0.987,-0.132,0.980,-2.800,0.420
1743419886.501966,-0.147,0.987,-0.136,0.630,-4.620,0.210
1743419886.5314848,-0.156,0.986,-0.142,0.770,-4.130,1.260
1743419886.562412,-0.153,0.976,-0.142,0.490,-2.730,-0.490
1743419886.592443,-0.147,0.977,-0.138,0.210,-1.960,-3.570
1743419886.622967,-0.151,0.995,-0.139,0.700,-0.980,-2.940
1743419886.652745,-0.143,0.992,-0.134,1.260,-1.120,-0.560
1743419886.682115,-0.142,0.986,-0.132,1.190,-2.800,-0.070
1743419886.71363,-0.151,0.990,-0.136,1.330,-3.570,0.770
1743419886.7418408,-0.152,0.981,-0.139,1.330,-2.940,1.260
1743419886.7575328,-0.151,0.976,-0.138,0.420,-2.520,-1.820
1743419886.787046,-0.154,0.986,-0.138,0.350,-2.030,-2.660
1743419886.818031,-0.148,0.990,-0.138,0.910,-1.540,-1.400
1743419886.8470988,-0.142,0.984,-0.132,0.700,-2.100,-1.400
1743419886.8785112,-0.145,0.989,-0.135,0.840,-3.150,-0.770
1743419886.922399,-0.150,0.988,-0.139,1.190,-3.150,1.190
1743419886.937786,-0.150,0.978,-0.136,0.910,-3.290,0.490
1743419886.967614,-0.151,0.981,-0.139,0.420,-3.220,-1.470
1743419886.99754,-0.154,0.988,-0.141,0.700,-2.030,-1.540
1743419887.0265222,-0.146,0.983,-0.136,0.910,-1.190,-1.820
1743419887.057933,-0.142,0.986,-0.135,0.910,-1.680,-2.170
1743419887.08773,-0.148,0.996,-0.134,1.260,-2.240,-0.210
1743419887.1017869,-0.146,0.984,-0.132,1.330,-2.940,1.330
1743419887.1339378,-0.150,0.978,-0.134,0.770,-3.780,0.280
1743419887.161534,-0.155,0.983,-0.140,0.560,-3.290,-0.840
1743419887.192359,-0.156,0.983,-0.139,0.700,-1.820,-1.260
1743419887.23907,-0.145,0.982,-0.133,0.490,-1.400,-2.660
1743419887.2525692,-0.147,0.990,-0.137,0.630,-1.960,-2.380
1743419887.281177,-0.149,0.995,-0.133,1.260,-2.590,0.210
1743419887.312893,-0.146,0.985,-0.135,1.050,-3.360,0.770
1743419887.342565,-0.153,0.982,-0.137,0.770,-3.710,-0.280
1743419887.403573,-0.156,0.986,-0.140,0.910,-2.660,-0.490
1743419887.40457,-0.151,0.980,-0.139,0.840,-1.680,-1.610
1743419887.4324548,-0.148,0.986,-0.134,0.630,-1.820,-2.520
1743419887.4615722,-0.149,0.992,-0.135,1.120,-1.960,-1.050
1743419887.476515,-0.144,0.985,-0.131,1.330,-2.520,0.210
1743419887.507206,-0.146,0.979,-0.134,0.980,-3.080,-0.350
1743419887.5376918,-0.152,0.986,-0.137,0.840,-3.150,0.070
1743419887.568484,-0.153,0.984,-0.136,0.840,-2.660,-0.140
1743419887.599055,-0.151,0.982,-0.138,0.420,-2.590,-1.890
1743419887.627525,-0.151,0.989,-0.138,0.560,-2.100,-2.100
1743419887.659126,-0.147,0.988,-0.138,0.840,-1.750,-1.050
1743419887.703007,-0.143,0.983,-0.134,0.910,-2.240,-0.910
1743419887.716803,-0.148,0.991,-0.135,0.910,-3.080,-0.140
1743419887.7470531,-0.154,0.985,-0.137,1.190,-3.150,0.700
1743419887.7777011,-0.151,0.978,-0.136,0.840,-2.870,-0.350
1743419887.807113,-0.150,0.981,-0.139,0.560,-2.380,-1.960
1743419887.838784,-0.149,0.988,-0.137,0.840,-1.470,-1.750
1743419887.852832,-0.143,0.984,-0.134,0.980,-1.680,-1.330
1743419887.882122,-0.146,0.990,-0.135,0.840,-2.590,-0.840
1743419887.912344,-0.152,0.989,-0.137,1.050,-3.290,0.560
1743419887.943028,-0.151,0.982,-0.138,0.840,-3.290,0.490
1743419888.003275,-0.152,0.979,-0.139,0.560,-2.870,-1.120
1743419888.0042272,-0.154,0.986,-0.138,0.630,-1.960,-1.750
1743419888.033212,-0.146,0.985,-0.136,0.770,-1.610,-1.470
1743419888.062352,-0.146,0.988,-0.136,0.840,-2.240,-1.470
1743419888.093297,-0.148,0.987,-0.137,0.980,-2.730,-0.560
1743419888.1239371,-0.150,0.986,-0.136,1.190,-2.800,0.490
1743419888.1526568,-0.149,0.980,-0.140,0.840,-2.870,-0.420
1743419888.213364,-0.150,0.983,-0.139,0.840,-2.590,-1.190
1743419888.2141361,-0.150,0.986,-0.138,0.700,-2.170,-1.050
1743419888.241581,-0.149,0.984,-0.137,0.770,-2.100,-1.610
1743419888.257486,-0.149,0.989,-0.136,0.770,-2.380,-1.400
1743419888.303222,-0.147,0.990,-0.134,1.050,-2.310,-0.420
1743419888.316523,-0.147,0.983,-0.138,1.120,-2.870,-0.140
1743419888.3460531,-0.150,0.985,-0.139,0.770,-3.290,-0.490
1743419888.3759491,-0.153,0.983,-0.136,0.770,-2.800,-0.350
1743419888.406553,-0.148,0.981,-0.138,0.700,-2.310,-1.120
1743419888.436191,-0.147,0.984,-0.138,0.700,-1.890,-1.820
1743419888.4671519,-0.148,0.988,-0.137,0.770,-1.890,-1.470
1743419888.497529,-0.148,0.986,-0.135,1.120,-2.240,-0.420
1743419888.527761,-0.147,0.984,-0.140,0.910,-3.080,-0.210
1743419888.557881,-0.151,0.985,-0.139,0.910,-3.220,-0.140
1743419888.602617,-0.152,0.980,-0.140,0.840,-2.730,-0.560
1743419888.603214,-0.150,0.983,-0.139,0.560,-2.170,-1.750
1743419888.633996,-0.150,0.987,-0.139,0.700,-1.960,-1.890
1743419888.662693,-0.147,0.988,-0.137,0.910,-2.100,-0.910
1743419888.692225,-0.144,0.984,-0.138,0.980,-2.660,-0.210
1743419888.723149,-0.148,0.987,-0.139,0.910,-3.150,-0.350
1743419888.752074,-0.153,0.982,-0.139,0.910,-2.800,-0.070
1743419888.782054,-0.152,0.983,-0.136,0.630,-2.450,-0.980
1743419888.812602,-0.150,0.985,-0.140,0.700,-2.310,-1.610
1743419888.842001,-0.149,0.987,-0.137,0.910,-2.100,-1.190
1743419888.902615,-0.148,0.984,-0.137,0.910,-2.240,-0.840
1743419888.903838,-0.148,0.986,-0.139,0.980,-2.520,-0.700
1743419888.933035,-0.149,0.985,-0.138,0.980,-2.730,-0.280
1743419888.963948,-0.151,0.980,-0.137,0.840,-2.800,-0.280
1743419888.99263,-0.151,0.984,-0.138,0.700,-2.800,-0.980
1743419889.023034,-0.150,0.985,-0.136,0.700,-2.380,-1.330
1743419889.053668,-0.150,0.985,-0.140,0.910,-2.030,-1.190
1743419889.081793,-0.147,0.982,-0.137,0.770,-2.170,-1.260
1743419889.097339,-0.150,0.988,-0.138,0.980,-2.520,-0.560
1743419889.134618,-0.148,0.986,-0.135,0.980,-2.870,0.140
1743419889.15729,-0.151,0.983,-0.139,0.840,-3.150,-0.350
1743419889.201571,-0.152,0.982,-0.141,0.770,-2.800,-0.910
1743419889.217257,-0.151,0.985,-0.141,0.770,-2.170,-1.120
1743419889.246956,-0.148,0.984,-0.136,0.700,-1.890,-1.470
1743419889.2765598,-0.149,0.986,-0.140,0.910,-2.240,-1.330
1743419889.306761,-0.149,0.986,-0.136,0.980,-2.520,-0.280
1743419889.337397,-0.149,0.983,-0.138,0.910,-2.870,0.000
1743419889.352552,-0.150,0.984,-0.138,0.770,-2.730,-0.700
1743419889.383253,-0.151,0.985,-0.141,0.840,-2.520,-0.980
1743419889.413277,-0.150,0.984,-0.137,0.910,-2.100,-1.120
1743419889.442254,-0.147,0.986,-0.134,0.770,-2.310,-1.470
1743419889.5185971,-0.148,0.988,-0.137,0.910,-2.450,-0.910
1743419889.519325,-0.150,0.986,-0.136,0.840,-2.590,-0.560
1743419889.5319412,-0.149,0.982,-0.138,0.910,-2.660,-0.420
1743419889.562647,-0.151,0.988,-0.140,0.910,-2.800,-0.630
1743419889.592438,-0.149,0.983,-0.138,0.840,-2.520,-0.700
1743419889.622489,-0.150,0.983,-0.138,0.840,-2.450,-1.050
1743419889.65186,-0.149,0.985,-0.137,0.770,-2.380,-1.330
1743419889.6822772,-0.148,0.988,-0.137,0.980,-2.240,-0.980
1743419889.7127402,-0.148,0.983,-0.138,0.980,-2.520,-0.700
1743419889.727242,-0.148,0.987,-0.138,0.770,-2.870,-0.490
1743419889.758185,-0.150,0.986,-0.137,0.840,-2.870,-0.280
1743419889.8020558,-0.152,0.982,-0.139,0.840,-2.590,-0.700
1743419889.817488,-0.148,0.983,-0.137,0.770,-2.380,-1.400
1743419889.8480508,-0.148,0.985,-0.137,0.770,-2.100,-1.330
1743419889.87748,-0.149,0.988,-0.138,0.840,-2.100,-0.910
1743419889.9079611,-0.147,0.984,-0.136,0.840,-2.660,-0.770
1743419889.93906,-0.150,0.986,-0.138,0.980,-3.010,-0.350
1743419889.967904,-0.152,0.983,-0.139,0.910,-2.730,-0.350
1743419889.998954,-0.151,0.982,-0.139,0.840,-2.590,-1.120
1743419890.0275059,-0.150,0.985,-0.137,0.770,-2.240,-1.330
1743419890.0577128,-0.147,0.985,-0.138,0.840,-2.170,-1.120
1743419890.103539,-0.147,0.986,-0.136,0.980,-2.520,-0.770
1743419890.104081,-0.146,0.986,-0.138,0.910,-2.730,-0.560
1743419890.133219,-0.150,0.985,-0.137,0.910,-2.800,-0.280
1743419890.162685,-0.153,0.983,-0.138,0.840,-2.660,-0.700
1743419890.194112,-0.151,0.983,-0.138,0.770,-2.590,-1.050
1743419890.223239,-0.150,0.987,-0.137,0.700,-2.450,-0.980
1743419890.253796,-0.149,0.984,-0.138,0.980,-2.380,-0.910
1743419890.283176,-0.148,0.986,-0.136,0.840,-2.380,-0.910
1743419890.311032,-0.149,0.987,-0.139,0.910,-2.450,-0.630
1743419890.342231,-0.150,0.984,-0.137,0.910,-2.590,-0.490
1743419890.4032,-0.151,0.984,-0.139,0.770,-2.800,-0.770
1743419890.404048,-0.151,0.985,-0.139,0.770,-2.660,-0.700
1743419890.43237,-0.145,0.982,-0.140,0.840,-2.310,-1.050
1743419890.462614,-0.149,0.984,-0.137,0.770,-2.240,-1.260
1743419890.477432,-0.150,0.986,-0.138,0.910,-2.310,-0.980
1743419890.5081642,-0.148,0.987,-0.137,0.910,-2.590,-0.490
1743419890.537848,-0.149,0.983,-0.137,0.840,-2.800,-0.280
1743419890.5683498,-0.151,0.984,-0.138,0.910,-2.940,-0.700
1743419890.5980952,-0.150,0.985,-0.138,0.700,-2.380,-0.910
1743419890.627761,-0.150,0.983,-0.137,0.700,-2.310,-1.190
1743419890.657994,-0.148,0.987,-0.138,0.770,-2.170,-1.330
1743419890.703135,-0.149,0.985,-0.136,0.980,-2.380,-0.700
1743419890.717634,-0.149,0.985,-0.137,0.980,-2.730,-0.560
1743419890.762033,-0.149,0.984,-0.138,0.770,-2.730,-0.490
1743419890.777408,-0.150,0.984,-0.139,0.910,-2.660,-0.630
1743419890.808177,-0.152,0.983,-0.137,0.770,-2.310,-1.050
1743419890.837779,-0.150,0.985,-0.138,0.700,-2.240,-1.190
1743419890.867999,-0.149,0.985,-0.135,0.840,-2.310,-0.910
1743419890.883759,-0.149,0.984,-0.136,0.840,-2.450,-0.630
1743419890.911747,-0.150,0.985,-0.136,0.840,-2.590,-0.770
1743419890.941958,-0.151,0.986,-0.137,0.910,-2.730,-0.630
1743419891.002866,-0.150,0.984,-0.138,0.840,-2.590,-0.700
1743419891.003555,-0.149,0.984,-0.137,0.630,-2.590,-0.910
1743419891.032786,-0.151,0.988,-0.140,0.840,-2.450,-0.980
1743419891.063287,-0.150,0.988,-0.138,0.980,-2.380,-0.910
1743419891.0922,-0.149,0.987,-0.139,0.840,-2.310,-0.840
1743419891.122529,-0.149,0.986,-0.136,0.770,-2.520,-0.840
1743419891.152174,-0.149,0.985,-0.139,0.840,-2.660,-0.490
1743419891.1818209,-0.149,0.983,-0.140,0.840,-2.730,-0.560
1743419891.213115,-0.150,0.985,-0.137,0.700,-2.520,-0.980
1743419891.2441258,-0.147,0.985,-0.138,0.910,-2.310,-1.120
1743419891.2587378,-0.149,0.986,-0.138,0.840,-2.310,-0.980
1743419891.3052008,-0.148,0.986,-0.137,0.980,-2.450,-0.840
1743419891.317703,-0.149,0.985,-0.139,0.840,-2.730,-0.560
1743419891.3476539,-0.150,0.986,-0.136,0.840,-2.730,-0.490
1743419891.377144,-0.150,0.982,-0.136,0.770,-2.590,-0.840
1743419891.408397,-0.150,0.984,-0.139,0.770,-2.450,-1.050
1743419891.4381351,-0.149,0.985,-0.139,0.840,-2.380,-1.120
1743419891.468459,-0.151,0.984,-0.138,0.840,-2.380,-0.980
1743419891.499769,-0.148,0.988,-0.137,0.840,-2.520,-0.630
1743419891.52621,-0.148,0.984,-0.140,0.840,-2.590,-0.420
1743419891.5570939,-0.146,0.983,-0.140,0.770,-2.590,-0.910
1743419891.603601,-0.151,0.984,-0.138,0.840,-2.520,-0.840
1743419891.61657,-0.150,0.985,-0.137,0.770,-2.380,-0.910
1743419891.647551,-0.149,0.985,-0.136,0.910,-2.450,-0.910
1743419891.677121,-0.150,0.987,-0.136,0.910,-2.450,-0.910
1743419891.707467,-0.149,0.987,-0.138,0.910,-2.380,-0.770
1743419891.72314,-0.149,0.982,-0.137,0.980,-2.660,-0.630
1743419891.752738,-0.150,0.984,-0.137,0.910,-2.730,-0.770
1743419891.782026,-0.151,0.985,-0.139,0.840,-2.590,-0.700
1743419891.811717,-0.150,0.983,-0.138,0.700,-2.520,-1.050
1743419891.888386,-0.150,0.986,-0.139,0.840,-2.380,-1.050
1743419891.88935,-0.150,0.985,-0.138,0.840,-2.240,-0.980
1743419891.902694,-0.149,0.985,-0.140,0.840,-2.520,-0.770
1743419891.932767,-0.150,0.986,-0.137,0.980,-2.730,-0.420
1743419891.96211,-0.151,0.984,-0.138,0.910,-2.660,-0.490
1743419891.992631,-0.149,0.983,-0.140,0.840,-2.590,-0.770
1743419892.053535,-0.149,0.985,-0.138,0.700,-2.310,-1.120
1743419892.05441,-0.151,0.985,-0.137,0.770,-2.310,-1.120
1743419892.082638,-0.150,0.986,-0.138,0.910,-2.310,-0.770
1743419892.0988438,-0.149,0.985,-0.136,0.910,-2.520,-0.700
1743419892.125864,-0.149,0.984,-0.139,0.770,-2.660,-0.490
1743419892.18893,-0.149,0.984,-0.138,0.910,-2.590,-0.560
1743419892.2040288,-0.151,0.982,-0.138,0.840,-2.520,-0.910
1743419892.21737,-0.149,0.985,-0.137,0.770,-2.380,-1.120
1743419892.2471712,-0.149,0.985,-0.139,0.770,-2.310,-0.910
1743419892.2768588,-0.149,0.986,-0.140,0.910,-2.520,-0.770
1743419892.308235,-0.148,0.984,-0.137,0.700,-2.590,-0.770
1743419892.338051,-0.151,0.986,-0.139,0.980,-2.660,-0.630
1743419892.367994,-0.147,0.983,-0.138,0.840,-2.660,-0.630
1743419892.397429,-0.149,0.985,-0.138,0.840,-2.590,-0.840
1743419892.426682,-0.147,0.985,-0.139,0.770,-2.450,-0.910
1743419892.4873521,-0.148,0.983,-0.138,0.770,-2.310,-1.050
1743419892.501902,-0.150,0.984,-0.139,0.840,-2.450,-0.840
1743419892.502338,-0.149,0.986,-0.137,1.050,-2.590,-0.560
1743419892.5326998,-0.149,0.985,-0.136,0.910,-2.590,-0.700
1743419892.562658,-0.148,0.983,-0.138,0.910,-2.730,-0.630
1743419892.59265,-0.149,0.985,-0.140,0.840,-2.660,-0.700
1743419892.6233249,-0.150,0.986,-0.135,0.840,-2.450,-1.050
1743419892.6518662,-0.147,0.985,-0.140,0.840,-2.310,-0.980
1743419892.682484,-0.151,0.986,-0.140,0.840,-2.450,-0.840
1743419892.713343,-0.151,0.985,-0.138,0.910,-2.520,-0.700
1743419892.727249,-0.149,0.984,-0.139,0.910,-2.590,-0.560
1743419892.788788,-0.152,0.983,-0.137,0.770,-2.660,-0.630
1743419892.8039649,-0.149,0.984,-0.138,0.770,-2.450,-0.910
1743419892.817486,-0.152,0.985,-0.139,0.840,-2.380,-1.050
1743419892.847022,-0.149,0.985,-0.139,0.770,-2.310,-0.910
1743419892.8781178,-0.149,0.987,-0.138,0.910,-2.450,-0.630
1743419892.90808,-0.149,0.988,-0.137,0.910,-2.520,-0.630
1743419892.938195,-0.151,0.987,-0.137,0.980,-2.660,-0.700
1743419892.9672809,-0.149,0.984,-0.140,0.910,-2.590,-0.770
1743419892.9977899,-0.149,0.983,-0.138,0.840,-2.450,-0.770
1743419893.0282712,-0.151,0.985,-0.136,0.840,-2.590,-1.050
1743419893.089331,-0.150,0.986,-0.138,0.770,-2.380,-0.910
1743419893.102535,-0.149,0.986,-0.137,0.840,-2.520,-0.840
1743419893.103292,-0.150,0.983,-0.138,0.980,-2.520,-0.840
1743419893.132086,-0.148,0.985,-0.138,0.840,-2.660,-0.630
1743419893.1617222,-0.148,0.983,-0.139,0.910,-2.660,-0.560
1743419893.191713,-0.151,0.985,-0.141,0.770,-2.450,-0.770
1743419893.2222269,-0.149,0.987,-0.139,0.770,-2.450,-0.980
1743419893.25229,-0.153,0.985,-0.138,0.840,-2.310,-0.910
1743419893.283318,-0.148,0.984,-0.139,0.840,-2.380,-0.910
1743419893.3270028,-0.150,0.984,-0.136,0.840,-2.590,-0.770
1743419893.327245,-0.149,0.985,-0.139,0.840,-2.660,-0.490
1743419893.386917,-0.148,0.984,-0.136,0.840,-2.660,-0.630
1743419893.4031591,-0.152,0.985,-0.138,0.840,-2.520,-0.980
1743419893.417661,-0.150,0.985,-0.138,0.770,-2.380,-1.050
1743419893.448489,-0.149,0.983,-0.139,0.770,-2.450,-0.980
1743419893.4783502,-0.147,0.986,-0.134,0.910,-2.450,-0.840
1743419893.507209,-0.148,0.985,-0.137,0.840,-2.660,-0.630
1743419893.537079,-0.148,0.984,-0.137,0.980,-2.730,-0.700
1743419893.567303,-0.149,0.984,-0.138,0.840,-2.660,-0.770
1743419893.596786,-0.149,0.985,-0.138,0.700,-2.380,-0.910
1743419893.627507,-0.150,0.984,-0.138,0.980,-2.450,-0.980
1743419893.644301,-0.150,0.986,-0.134,0.980,-2.450,-0.840
1743419893.6867762,-0.149,0.984,-0.138,0.770,-2.450,-0.770
1743419893.70271,-0.148,0.987,-0.139,0.910,-2.590,-0.770
1743419893.7326798,-0.148,0.984,-0.137,0.840,-2.520,-0.630
1743419893.761896,-0.149,0.984,-0.136,0.840,-2.590,-0.770
1743419893.792365,-0.150,0.983,-0.138,0.840,-2.520,-0.910
1743419893.823881,-0.148,0.986,-0.138,0.910,-2.450,-0.840
1743419893.852302,-0.146,0.985,-0.138,0.700,-2.450,-0.910
1743419893.883429,-0.150,0.986,-0.136,0.840,-2.520,-0.910
1743419893.912982,-0.150,0.986,-0.139,0.910,-2.380,-0.840
1743419893.9428322,-0.151,0.985,-0.139,0.840,-2.590,-0.840
1743419893.987282,-0.149,0.986,-0.138,0.910,-2.590,-0.700
1743419894.00327,-0.150,0.985,-0.137,0.840,-2.520,-0.770
1743419894.016748,-0.150,0.982,-0.138,0.770,-2.310,-0.840
1743419894.047681,-0.147,0.986,-0.139,0.770,-2.380,-0.980
1743419894.078552,-0.151,0.987,-0.137,0.910,-2.520,-0.770
1743419894.10807,-0.150,0.983,-0.136,0.840,-2.590,-0.630
1743419894.137337,-0.148,0.985,-0.136,0.910,-2.660,-0.700
1743419894.167316,-0.153,0.985,-0.139,0.840,-2.520,-0.770
1743419894.197758,-0.151,0.983,-0.138,0.770,-2.450,-0.840
1743419894.2267962,-0.150,0.984,-0.142,0.770,-2.450,-0.980
1743419894.302772,-0.148,0.984,-0.135,0.840,-2.450,-0.700
1743419894.303085,-0.150,0.986,-0.137,0.980,-2.590,-0.700
1743419894.3048909,-0.150,0.985,-0.137,0.910,-2.730,-0.700
1743419894.331728,-0.150,0.987,-0.139,0.910,-2.590,-0.770
1743419894.3615549,-0.149,0.986,-0.140,0.770,-2.450,-0.770
1743419894.391692,-0.149,0.983,-0.139,0.840,-2.450,-0.910
1743419894.422295,-0.148,0.985,-0.136,0.980,-2.520,-1.050
1743419894.4535239,-0.150,0.984,-0.139,0.910,-2.380,-0.770
1743419894.483894,-0.148,0.985,-0.138,0.910,-2.520,-0.840
1743419894.513192,-0.150,0.986,-0.137,0.770,-2.520,-0.910
1743419894.541724,-0.149,0.984,-0.138,0.770,-2.520,-0.700
1743419894.604544,-0.150,0.985,-0.137,0.770,-2.520,-0.770
1743419894.6055849,-0.150,0.987,-0.139,0.770,-2.520,-0.980
1743419894.618388,-0.148,0.985,-0.138,0.980,-2.450,-0.770
1743419894.647994,-0.148,0.986,-0.137,0.910,-2.380,-0.840
1743419894.678455,-0.149,0.986,-0.137,0.910,-2.520,-0.840
1743419894.7083561,-0.152,0.984,-0.138,0.840,-2.590,-0.770
1743419894.7386081,-0.150,0.986,-0.138,0.840,-2.590,-0.770
1743419894.7683148,-0.152,0.984,-0.139,0.840,-2.450,-0.840
1743419894.79761,-0.147,0.985,-0.138,0.840,-2.520,-0.840
1743419894.8270552,-0.148,0.986,-0.138,0.840,-2.450,-0.980
1743419894.889195,-0.148,0.986,-0.137,0.910,-2.450,-0.910
1743419894.902584,-0.150,0.984,-0.140,0.770,-2.520,-0.840
1743419894.903439,-0.149,0.986,-0.138,0.840,-2.590,-0.770
1743419894.932826,-0.148,0.984,-0.137,0.910,-2.590,-0.840
1743419894.96331,-0.151,0.985,-0.138,0.840,-2.520,-0.910
1743419894.992619,-0.150,0.985,-0.137,0.910,-2.450,-0.910
1743419895.0235891,-0.148,0.985,-0.134,0.840,-2.380,-0.840
1743419895.083362,-0.149,0.986,-0.139,0.770,-2.520,-0.770
1743419895.08423,-0.149,0.987,-0.137,0.840,-2.450,-0.770
1743419895.1130219,-0.148,0.985,-0.139,0.840,-2.520,-0.770
1743419895.142812,-0.151,0.983,-0.137,0.770,-2.520,-0.840
1743419895.174809,-0.153,0.985,-0.137,0.840,-2.450,-0.980
1743419895.2031062,-0.150,0.985,-0.136,0.840,-2.520,-0.840
1743419895.233365,-0.151,0.986,-0.135,0.910,-2.450,-0.770
1743419895.248343,-0.150,0.986,-0.137,0.910,-2.450,-0.770
1743419895.2780101,-0.149,0.984,-0.138,0.910,-2.450,-0.700
1743419895.3076758,-0.150,0.984,-0.138,0.770,-2.590,-0.840
1743419895.33961,-0.148,0.985,-0.139,0.840,-2.450,-0.700
1743419895.383425,-0.149,0.983,-0.141,0.840,-2.520,-0.770
1743419895.397459,-0.151,0.985,-0.137,0.770,-2.450,-0.910
1743419895.428531,-0.149,0.986,-0.139,0.840,-2.520,-0.910
1743419895.458096,-0.149,0.986,-0.136,0.840,-2.380,-0.910
1743419895.487623,-0.149,0.984,-0.140,0.910,-2.590,-0.770
1743419895.517737,-0.150,0.985,-0.136,0.840,-2.590,-0.840
1743419895.533122,-0.150,0.985,-0.138,0.980,-2.520,-0.770
1743419895.5625799,-0.149,0.984,-0.137,0.910,-2.450,-0.770
1743419895.593539,-0.150,0.986,-0.140,0.770,-2.380,-0.770
1743419895.6239371,-0.149,0.986,-0.137,0.840,-2.450,-0.980
1743419895.6827111,-0.147,0.985,-0.139,0.910,-2.380,-0.840
1743419895.683637,-0.149,0.985,-0.137,0.770,-2.660,-0.700
1743419895.713772,-0.149,0.985,-0.140,0.910,-2.590,-0.910
1743419895.74156,-0.150,0.984,-0.140,0.910,-2.450,-0.770
1743419895.772036,-0.149,0.984,-0.138,0.840,-2.590,-0.840
1743419895.802776,-0.150,0.984,-0.138,0.770,-2.590,-0.840
1743419895.832004,-0.150,0.984,-0.138,0.840,-2.520,-0.910
1743419895.893196,-0.148,0.986,-0.140,0.840,-2.520,-0.700
1743419895.893951,-0.149,0.985,-0.138,0.840,-2.450,-0.770
1743419895.922127,-0.151,0.987,-0.136,0.840,-2.590,-0.770
1743419895.9835598,-0.148,0.983,-0.139,0.840,-2.590,-0.700
1743419895.984303,-0.151,0.986,-0.138,0.770,-2.590,-0.840
1743419896.014198,-0.150,0.983,-0.138,0.840,-2.520,-0.700
1743419896.028733,-0.150,0.984,-0.139,0.770,-2.450,-0.910
1743419896.058987,-0.148,0.984,-0.137,0.910,-2.450,-0.910
1743419896.087271,-0.149,0.985,-0.137,0.980,-2.450,-0.700
1743419896.117271,-0.151,0.984,-0.138,1.120,-2.310,-0.630
1743419896.147813,-0.155,0.987,-0.138,1.820,-1.540,-0.210
1743419896.176939,-0.144,0.978,-0.133,0.490,-0.910,-1.610
1743419896.20803,-0.138,0.978,-0.131,-0.560,-3.850,-3.080
1743419896.238364,-0.158,1.000,-0.142,-0.070,-6.020,0.980
1743419896.2822511,-0.154,0.979,-0.144,0.980,-4.340,3.500
1743419896.298097,-0.143,0.965,-0.139,0.070,-1.960,-3.500
1743419896.326729,-0.152,0.996,-0.141,0.770,0.560,-5.600
1743419896.357423,-0.145,0.998,-0.136,2.310,1.050,-0.070
1743419896.3891578,-0.137,0.983,-0.130,1.750,-3.010,1.190
1743419896.4182951,-0.157,0.992,-0.134,1.540,-5.250,2.100
1743419896.4484422,-0.161,0.979,-0.142,1.400,-3.220,2.310
1743419896.478731,-0.146,0.965,-0.137,-0.280,-1.540,-3.500
1743419896.508537,-0.151,0.993,-0.138,-0.700,-1.750,-5.810
1743419896.5236192,-0.153,1.000,-0.137,0.350,-2.100,-0.140
1743419896.5835352,-0.141,0.979,-0.134,0.840,-3.710,0.980
1743419896.584151,-0.147,0.981,-0.140,0.630,-4.270,-0.770
1743419896.6129699,-0.157,0.991,-0.141,1.400,-2.380,-0.070
1743419896.642855,-0.147,0.978,-0.138,1.540,-0.770,-0.210
1743419896.673034,-0.146,0.979,-0.135,0.280,-2.800,-1.960
1743419896.703062,-0.161,0.997,-0.141,0.560,-3.850,0.070
1743419896.734001,-0.151,0.979,-0.141,1.120,-2.450,0.700
1743419896.763638,-0.142,0.976,-0.139,0.560,-1.050,-3.430
1743419896.792711,-0.150,0.995,-0.135,1.120,-0.350,-3.500
1743419896.824054,-0.145,0.996,-0.130,1.680,-1.330,0.840
1743419896.883017,-0.144,0.984,-0.132,0.770,-4.830,1.820
1743419896.8837361,-0.161,0.983,-0.141,0.280,-6.020,1.190
1743419896.8982558,-0.158,0.977,-0.145,0.420,-2.940,-0.140
1743419896.926948,-0.147,0.973,-0.141,0.070,-0.280,-4.550
1743419896.957062,-0.145,0.989,-0.136,0.210,-0.070,-5.810
1743419896.987051,-0.146,1.003,-0.133,1.330,-1.260,-0.420
1743419897.0180092,-0.142,0.990,-0.132,1.680,-3.990,2.940
1743419897.047573,-0.153,0.979,-0.139,1.190,-5.320,2.030
1743419897.078636,-0.159,0.978,-0.143,1.120,-3.080,0.070
1743419897.108213,-0.153,0.976,-0.143,0.770,-0.210,-2.450
1743419897.1375291,-0.148,0.983,-0.136,0.280,-0.630,-4.270
1743419897.213994,-0.151,0.998,-0.137,0.770,-2.100,-1.400
1743419897.214942,-0.147,0.989,-0.136,1.190,-3.150,1.540
1743419897.227867,-0.146,0.978,-0.137,0.980,-3.290,0.070
1743419897.258492,-0.154,0.986,-0.139,0.840,-2.660,-1.120
1743419897.28866,-0.151,0.982,-0.138,0.770,-2.310,-0.770
1743419897.301955,-0.149,0.980,-0.139,0.070,-3.430,-1.120
1743419897.3321521,-0.155,0.987,-0.138,0.280,-3.850,-1.120
1743419897.3622131,-0.154,0.987,-0.142,0.910,-2.380,-0.630
1743419897.393099,-0.146,0.980,-0.138,1.120,-0.770,-2.170
1743419897.424,-0.143,0.989,-0.135,1.190,-1.050,-2.660
1743419897.4839401,-0.151,0.996,-0.135,1.610,-2.170,0.630
1743419897.4988742,-0.150,0.984,-0.136,1.400,-3.780,2.590
1743419897.512407,-0.154,0.976,-0.140,0.700,-4.480,0.280
1743419897.527812,-0.158,0.980,-0.142,0.630,-2.310,-1.890
1743419897.557617,-0.150,0.981,-0.140,0.560,-0.070,-3.290
1743419897.587596,-0.141,0.989,-0.136,0.350,-0.770,-3.780
1743419897.617496,-0.146,0.997,-0.134,0.770,-3.290,-0.280
1743419897.647579,-0.149,0.989,-0.138,1.120,-4.690,2.940
1743419897.6772218,-0.149,0.976,-0.142,0.700,-4.410,0.980
1743419897.7090728,-0.158,0.980,-0.144,0.560,-2.240,-2.100
1743419897.738042,-0.152,0.985,-0.140,0.770,-0.350,-2.730
1743419897.783194,-0.143,0.987,-0.135,0.770,-1.050,-2.380
1743419897.798398,-0.145,0.991,-0.135,0.910,-2.730,-0.840
1743419897.813139,-0.147,0.989,-0.137,1.400,-3.360,1.260
1743419897.843431,-0.149,0.978,-0.138,1.120,-3.010,0.630
1743419897.872776,-0.149,0.980,-0.140,0.840,-2.380,-1.400
1743419897.902982,-0.155,0.985,-0.142,0.630,-2.170,-1.330
1743419897.933205,-0.152,0.985,-0.139,0.770,-2.450,-0.770
1743419897.96323,-0.146,0.984,-0.139,0.630,-2.940,-1.120
1743419897.992696,-0.151,0.986,-0.141,0.980,-2.380,-1.260
1743419898.022281,-0.147,0.986,-0.139,1.120,-1.540,-0.910
1743419898.083781,-0.146,0.984,-0.137,0.980,-1.960,-0.980
1743419898.0848398,-0.149,0.989,-0.138,0.910,-3.150,-0.070
1743419898.113564,-0.153,0.985,-0.141,0.770,-3.710,0.980
1743419898.144376,-0.153,0.979,-0.142,0.560,-3.150,-0.700
1743419898.158889,-0.152,0.984,-0.142,0.560,-1.750,-2.310
1743419898.189131,-0.149,0.990,-0.139,0.840,-0.840,-2.520
1743419898.2176158,-0.146,0.991,-0.136,1.190,-1.540,-1.050
1743419898.2476642,-0.148,0.987,-0.137,0.910,-3.360,0.350
1743419898.2770371,-0.155,0.985,-0.141,0.980,-4.060,1.260
1743419898.307512,-0.151,0.979,-0.141,0.770,-3.010,-0.350
1743419898.337193,-0.151,0.978,-0.139,0.420,-1.750,-2.590
1743419898.381077,-0.150,0.991,-0.141,0.700,-1.190,-2.380
1743419898.398454,-0.147,0.990,-0.135,1.050,-2.030,-0.700
1743419898.442674,-0.149,0.987,-0.136,0.910,-3.360,0.070
1743419898.458467,-0.152,0.985,-0.138,0.980,-3.570,0.420
1743419898.488064,-0.147,0.981,-0.140,1.050,-2.590,-0.350
1743419898.503126,-0.149,0.981,-0.138,0.770,-2.030,-1.820
1743419898.532424,-0.151,0.986,-0.137,0.630,-2.100,-1.750
1743419898.563964,-0.151,0.988,-0.138,0.840,-2.520,-0.630
1743419898.591983,-0.149,0.985,-0.139,0.980,-2.800,-0.420
1743419898.6236281,-0.149,0.984,-0.139,0.980,-2.590,-0.910
1743419898.683636,-0.151,0.987,-0.137,0.980,-2.030,-0.980
1743419898.684926,-0.149,0.986,-0.137,0.910,-2.310,-0.700
1743419898.714266,-0.152,0.984,-0.136,0.770,-3.150,-0.350
1743419898.744153,-0.153,0.983,-0.137,0.630,-3.220,-0.140
1743419898.773154,-0.153,0.983,-0.137,0.770,-2.380,-1.120
1743419898.8038988,-0.146,0.986,-0.141,0.840,-1.540,-2.170
1743419898.833514,-0.151,0.988,-0.136,0.910,-1.680,-1.400
1743419898.8638442,-0.150,0.988,-0.132,1.190,-2.660,0.000
1743419898.877692,-0.151,0.987,-0.140,0.840,-3.780,0.700
1743419898.908288,-0.154,0.982,-0.139,0.770,-3.430,-0.070
1743419898.937681,-0.151,0.981,-0.140,0.840,-2.030,-1.330
1743419898.984187,-0.147,0.981,-0.137,0.770,-1.190,-2.520
1743419899.013589,-0.149,0.987,-0.137,0.700,-1.610,-1.890
1743419899.027331,-0.148,0.989,-0.134,1.050,-2.800,0.140
1743419899.057767,-0.149,0.983,-0.138,0.980,-3.710,0.700
1743419899.0884259,-0.151,0.979,-0.139,0.770,-3.360,-0.140
1743419899.1183,-0.154,0.980,-0.138,0.700,-2.170,-1.470
1743419899.148103,-0.149,0.984,-0.139,0.700,-1.610,-1.890
1743419899.177998,-0.152,0.987,-0.136,0.700,-2.240,-1.260
1743419899.207516,-0.149,0.989,-0.139,0.980,-2.730,-0.210
1743419899.241313,-0.147,0.982,-0.137,1.050,-2.940,0.070
1743419899.2821498,-0.150,0.981,-0.138,0.910,-2.380,-0.840
1743419899.282411,-0.150,0.986,-0.140,0.840,-2.170,-1.120
1743419899.312083,-0.152,0.985,-0.137,0.840,-2.450,-0.910
1743419899.343366,-0.149,0.986,-0.138,0.630,-3.010,-0.770
1743419899.3727129,-0.149,0.985,-0.138,0.700,-2.940,-0.630
1743419899.403531,-0.148,0.986,-0.139,0.840,-2.240,-1.120
1743419899.432989,-0.150,0.984,-0.137,0.980,-1.750,-1.190
1743419899.4627688,-0.149,0.986,-0.136,0.980,-2.380,-0.770
1743419899.4931939,-0.151,0.988,-0.137,0.910,-3.080,0.070
1743419899.524141,-0.152,0.983,-0.139,0.840,-3.290,0.280
1743419899.582947,-0.152,0.982,-0.140,0.770,-2.590,-1.120
1743419899.584385,-0.152,0.987,-0.139,0.770,-1.750,-1.960
1743419899.598082,-0.149,0.988,-0.136,0.910,-1.540,-1.680
1743419899.62832,-0.148,0.987,-0.137,0.910,-2.450,-0.700
1743419899.6583838,-0.151,0.988,-0.136,0.980,-3.430,0.280
1743419899.688735,-0.150,0.982,-0.140,0.770,-3.430,0.140
1743419899.732266,-0.151,0.978,-0.140,0.630,-2.660,-1.190
1743419899.7490308,-0.151,0.983,-0.138,0.630,-2.030,-1.890
1743419899.7787552,-0.146,0.986,-0.138,0.700,-1.890,-1.750
1743419899.8073988,-0.148,0.989,-0.137,0.700,-2.520,-0.770
1743419899.839127,-0.149,0.986,-0.136,1.050,-3.010,0.070
1743419899.8829281,-0.150,0.982,-0.137,1.190,-2.590,-0.140
1743419899.883662,-0.151,0.982,-0.141,0.980,-2.240,-0.910
1743419899.913301,-0.150,0.984,-0.139,0.840,-2.170,-1.330
1743419899.943351,-0.150,0.986,-0.137,0.770,-2.520,-0.560
1743419899.9726899,-0.151,0.986,-0.140,0.700,-2.870,-0.350
1743419900.002526,-0.150,0.983,-0.138,0.700,-2.800,-0.840
1743419900.0342982,-0.149,0.982,-0.138,0.910,-2.240,-1.260
1743419900.0619981,-0.150,0.986,-0.138,1.120,-1.750,-1.190
1743419900.093065,-0.149,0.987,-0.136,0.980,-2.310,-0.560
1743419900.123976,-0.148,0.985,-0.137,0.770,-3.360,0.070
1743419900.183667,-0.152,0.983,-0.140,0.630,-3.430,-0.210
1743419900.184567,-0.152,0.982,-0.139,0.630,-2.520,-1.120
1743419900.213543,-0.148,0.985,-0.138,0.700,-1.540,-2.030
1743419900.227693,-0.145,0.988,-0.138,0.840,-1.610,-1.750
1743419900.257938,-0.150,0.991,-0.135,1.050,-2.450,-0.490
1743419900.2880719,-0.149,0.986,-0.137,1.190,-3.150,0.560
1743419900.318327,-0.151,0.981,-0.139,1.050,-3.220,0.140
1743419900.3484669,-0.153,0.982,-0.137,0.840,-2.240,-1.050
1743419900.377989,-0.153,0.982,-0.137,0.770,-1.750,-1.820
1743419900.407139,-0.148,0.985,-0.139,0.700,-2.100,-1.540
1743419900.437024,-0.148,0.987,-0.138,0.700,-2.940,-0.700
1743419900.4832451,-0.149,0.985,-0.136,0.840,-3.010,0.140
1743419900.497371,-0.150,0.981,-0.136,0.910,-2.660,-0.630
1743419900.529223,-0.149,0.983,-0.139,0.840,-2.240,-1.260
1743419900.558336,-0.152,0.987,-0.138,0.910,-2.310,-1.050
1743419900.588526,-0.148,0.986,-0.137,0.840,-2.660,-0.560
1743419900.604156,-0.150,0.987,-0.139,0.770,-2.870,-0.560
1743419900.633652,-0.149,0.982,-0.140,0.840,-2.520,-0.910
1743419900.661406,-0.149,0.983,-0.137,0.840,-1.820,-1.400
1743419900.6923058,-0.149,0.986,-0.137,0.910,-2.100,-1.190
1743419900.722613,-0.150,0.991,-0.139,0.980,-2.870,-0.210
1743419900.783425,-0.152,0.985,-0.139,0.910,-3.430,0.280
1743419900.78443,-0.151,0.981,-0.142,0.770,-3.150,-0.560
1743419900.814209,-0.150,0.980,-0.140,0.700,-2.240,-1.610
1743419900.8430998,-0.148,0.985,-0.138,0.770,-1.610,-2.030
1743419900.872221,-0.147,0.988,-0.137,0.840,-2.030,-1.400
1743419900.905302,-0.149,0.990,-0.136,0.980,-2.940,-0.070
1743419900.932714,-0.150,0.983,-0.140,1.120,-3.290,0.490
1743419900.962912,-0.153,0.981,-0.139,0.770,-2.870,-0.630
1743419900.977794,-0.154,0.984,-0.139,0.840,-2.030,-1.540
1743419901.007278,-0.150,0.986,-0.139,0.980,-1.750,-1.680
1743419901.0390139,-0.149,0.988,-0.138,0.840,-2.310,-0.980
1743419901.0826828,-0.147,0.988,-0.136,0.910,-2.870,-0.350
1743419901.097582,-0.150,0.984,-0.137,0.980,-2.800,0.000
1743419901.1274738,-0.150,0.984,-0.137,0.910,-2.520,-0.770
1743419901.159957,-0.150,0.983,-0.139,0.770,-2.310,-1.190
1743419901.188527,-0.150,0.987,-0.140,0.770,-2.520,-0.910
1743419901.218871,-0.150,0.985,-0.140,0.700,-2.800,-0.700
1743419901.248791,-0.150,0.985,-0.138,0.770,-2.730,-0.770
1743419901.276096,-0.148,0.985,-0.137,0.840,-2.170,-1.120
1743419901.307585,-0.147,0.985,-0.137,0.980,-1.890,-1.120
1743419901.3382452,-0.149,0.987,-0.138,0.980,-2.520,-0.560
1743419901.382578,-0.150,0.984,-0.136,0.910,-3.080,-0.140
1743419901.3858418,-0.152,0.984,-0.138,0.910,-3.010,-0.210
1743419901.413248,-0.150,0.984,-0.140,0.700,-2.450,-1.120
1743419901.4426188,-0.150,0.982,-0.138,0.840,-1.680,-1.820
1743419901.4729621,-0.148,0.988,-0.136,0.770,-1.750,-1.470
1743419901.503061,-0.149,0.988,-0.136,0.980,-2.660,-0.560
1743419901.5324101,-0.150,0.988,-0.140,0.910,-3.430,0.280
1743419901.562717,-0.151,0.981,-0.140,0.840,-3.150,-0.070
1743419901.5942788,-0.152,0.980,-0.138,0.770,-2.240,-1.260
1743419901.6225789,-0.153,0.984,-0.139,0.560,-1.610,-1.890
1743419901.681947,-0.148,0.989,-0.138,0.840,-2.030,-1.190
1743419901.683164,-0.148,0.989,-0.136,0.980,-2.660,-0.490
1743419901.7133539,-0.149,0.984,-0.137,0.980,-3.010,0.070
1743419901.72802,-0.152,0.985,-0.140,0.910,-2.800,-0.350
1743419901.7582989,-0.151,0.983,-0.138,0.910,-2.310,-0.980
1743419901.78817,-0.150,0.985,-0.139,0.630,-2.310,-1.260
1743419901.8181062,-0.149,0.985,-0.136,0.700,-2.590,-0.980
1743419901.8936682,-0.151,0.986,-0.140,0.840,-2.730,-0.560
1743419901.894573,-0.150,0.984,-0.137,0.910,-2.520,-0.840
1743419901.9095209,-0.151,0.986,-0.139,0.910,-2.240,-0.980
1743419901.939593,-0.151,0.986,-0.137,0.980,-2.240,-0.770
1743419901.967566,-0.151,0.984,-0.139,0.840,-2.800,-0.490
1743419901.997874,-0.151,0.984,-0.139,0.840,-3.010,-0.280
1743419902.028626,-0.151,0.980,-0.138,0.770,-2.590,-0.770
1743419902.057956,-0.150,0.983,-0.138,0.840,-1.960,-1.540
1743419902.088078,-0.148,0.987,-0.137,0.840,-1.820,-1.540
1743419902.1181529,-0.147,0.987,-0.136,0.840,-2.520,-0.700
1743419902.132993,-0.149,0.984,-0.136,0.770,-3.220,0.070
1743419902.1939042,-0.150,0.982,-0.139,0.770,-3.220,-0.140
1743419902.194741,-0.152,0.980,-0.136,0.770,-2.520,-0.910
1743419902.2233589,-0.152,0.984,-0.139,0.700,-1.890,-1.680
1743419902.254924,-0.149,0.986,-0.138,0.840,-1.890,-1.610
1743419902.283515,-0.151,0.987,-0.139,0.980,-2.520,-0.490
1743419902.313337,-0.148,0.986,-0.136,0.910,-3.080,-0.070
1743419902.342308,-0.149,0.983,-0.140,0.910,-3.080,-0.210
1743419902.374055,-0.154,0.986,-0.139,0.840,-2.310,-0.770
1743419902.402807,-0.150,0.984,-0.137,0.840,-2.100,-1.400
1743419902.433255,-0.149,0.988,-0.139,0.840,-2.240,-1.190
1743419902.493189,-0.152,0.986,-0.138,0.770,-2.590,-0.630
1743419902.493901,-0.150,0.984,-0.138,0.910,-2.660,-0.420
1743419902.507626,-0.151,0.982,-0.141,0.910,-2.450,-0.770
1743419902.537814,-0.151,0.986,-0.137,0.770,-2.380,-0.980
1743419902.567931,-0.150,0.985,-0.140,0.840,-2.450,-0.630
1743419902.598523,-0.151,0.984,-0.137,0.700,-2.660,-0.560
1743419902.6279738,-0.152,0.982,-0.140,0.770,-2.730,-0.700
1743419902.657635,-0.152,0.982,-0.138,0.910,-2.380,-0.910
1743419902.6871629,-0.151,0.985,-0.137,0.910,-1.960,-1.190
1743419902.717817,-0.150,0.985,-0.136,0.980,-2.170,-1.120
1743419902.7324429,-0.149,0.987,-0.136,0.840,-2.800,-0.350
1743419902.793812,-0.153,0.984,-0.140,0.910,-3.150,0.000
1743419902.794537,-0.151,0.982,-0.139,0.700,-2.940,-0.630
1743419902.822627,-0.151,0.982,-0.139,0.630,-2.310,-1.400
1743419902.8526452,-0.151,0.986,-0.141,0.770,-1.820,-1.680
1743419902.884444,-0.148,0.988,-0.138,0.910,-2.170,-1.190
1743419902.912868,-0.146,0.988,-0.137,0.910,-2.800,-0.350
1743419902.943712,-0.151,0.985,-0.136,0.980,-3.080,0.070
1743419902.973956,-0.152,0.982,-0.142,0.840,-2.800,-0.560
1743419903.002162,-0.151,0.981,-0.138,0.770,-2.240,-1.260
1743419903.032613,-0.149,0.987,-0.138,0.840,-1.960,-1.330
1743419903.0918322,-0.149,0.986,-0.139,0.770,-2.450,-1.050
1743419903.092677,-0.149,0.984,-0.138,0.840,-2.800,-0.560
1743419903.107677,-0.150,0.985,-0.138,0.840,-2.730,-0.420
1743419903.1377668,-0.150,0.984,-0.136,0.770,-2.450,-0.770
1743419903.167688,-0.150,0.985,-0.138,0.840,-2.380,-0.980
1743419903.22445,-0.151,0.986,-0.138,0.840,-2.520,-0.980
1743419903.231661,-0.151,0.985,-0.139,0.980,-2.730,-0.700
1743419903.2571,-0.151,0.986,-0.137,0.840,-2.590,-0.910
1743419903.288353,-0.149,0.985,-0.136,0.840,-2.240,-0.980
1743419903.317483,-0.151,0.985,-0.138,0.910,-2.240,-1.050
1743419903.332779,-0.150,0.985,-0.137,0.910,-2.520,-0.560
1743419903.391366,-0.150,0.986,-0.137,0.630,-2.940,-0.420
1743419903.392138,-0.150,0.984,-0.137,0.910,-2.940,-0.420
1743419903.420944,-0.153,0.983,-0.139,0.840,-2.450,-0.980
1743419903.4521542,-0.150,0.983,-0.138,0.840,-2.030,-1.540
1743419903.482924,-0.149,0.986,-0.136,0.840,-1.890,-1.400
1743419903.512915,-0.148,0.987,-0.140,0.840,-2.450,-0.770
1743419903.573625,-0.150,0.986,-0.138,0.840,-3.010,-0.140
1743419903.574341,-0.153,0.983,-0.137,0.840,-3.080,-0.070
1743419903.587606,-0.153,0.982,-0.141,0.840,-2.520,-0.910
1743419903.618021,-0.151,0.983,-0.141,0.840,-1.960,-1.610
1743419903.6472309,-0.148,0.985,-0.137,0.840,-2.100,-1.470
1743419903.692503,-0.146,0.988,-0.138,0.980,-2.660,-0.490
1743419903.7082229,-0.152,0.984,-0.137,0.980,-2.940,-0.210
1743419903.739359,-0.150,0.984,-0.138,0.910,-2.870,-0.420
1743419903.7674181,-0.154,0.982,-0.138,0.840,-2.450,-0.910
1743419903.797251,-0.150,0.986,-0.138,0.840,-2.240,-1.330
1743419903.82909,-0.151,0.985,-0.138,0.630,-2.450,-0.980
1743419903.8581781,-0.150,0.987,-0.140,0.840,-2.590,-0.770
1743419903.873193,-0.151,0.987,-0.139,0.770,-2.660,-0.770
1743419903.903021,-0.150,0.983,-0.139,0.910,-2.380,-0.840
1743419903.9326038,-0.150,0.983,-0.136,0.980,-2.450,-0.840
1743419903.993898,-0.149,0.986,-0.139,0.980,-2.590,-0.840
1743419903.9945972,-0.151,0.986,-0.139,0.770,-2.730,-0.490
1743419904.022532,-0.150,0.981,-0.137,0.910,-2.660,-0.700
1743419904.052535,-0.150,0.982,-0.139,0.840,-2.240,-1.050
1743419904.0827992,-0.149,0.985,-0.136,0.910,-2.030,-1.330
1743419904.1129751,-0.151,0.988,-0.137,0.910,-2.380,-0.910
1743419904.144036,-0.149,0.986,-0.137,0.840,-2.800,-0.350
1743419904.173368,-0.152,0.982,-0.136,0.840,-3.080,-0.210
1743419904.201579,-0.151,0.984,-0.138,0.910,-2.730,-0.700
1743419904.2324438,-0.152,0.982,-0.136,0.700,-2.170,-1.470
1743419904.293121,-0.152,0.986,-0.138,0.770,-2.030,-1.330
1743419904.2939231,-0.150,0.987,-0.136,0.910,-2.380,-0.840
1743419904.3080351,-0.151,0.988,-0.138,0.840,-2.870,-0.420
1743419904.3381288,-0.151,0.983,-0.138,0.910,-2.940,-0.210
1743419904.367826,-0.150,0.985,-0.139,0.910,-2.590,-0.770
1743419904.398651,-0.152,0.984,-0.140,0.700,-2.310,-0.980
1743419904.42703,-0.151,0.984,-0.137,0.700,-2.310,-1.120
1743419904.4580748,-0.151,0.985,-0.136,0.980,-2.450,-0.980
1743419904.489263,-0.146,0.985,-0.138,0.770,-2.520,-0.630
1743419904.518739,-0.149,0.984,-0.137,0.910,-2.590,-0.560
1743419904.547776,-0.152,0.984,-0.137,0.840,-2.590,-0.630
1743419904.5933921,-0.150,0.986,-0.139,0.840,-2.520,-0.770
1743419904.60845,-0.151,0.983,-0.139,0.910,-2.590,-0.700
1743419904.636889,-0.150,0.985,-0.138,0.910,-2.590,-0.770
1743419904.652879,-0.153,0.984,-0.140,0.910,-2.380,-0.980
1743419904.682595,-0.151,0.982,-0.136,0.840,-2.240,-1.050
1743419904.71252,-0.148,0.986,-0.138,0.910,-2.450,-0.910
1743419904.743177,-0.152,0.985,-0.139,0.910,-2.660,-0.630
1743419904.7727292,-0.148,0.987,-0.137,0.840,-2.870,-0.420
1743419904.80207,-0.152,0.984,-0.139,0.840,-2.730,-0.770
1743419904.847921,-0.149,0.985,-0.138,0.770,-2.310,-0.980
1743419904.893419,-0.149,0.985,-0.138,0.980,-2.170,-1.120
1743419904.894287,-0.151,0.986,-0.141,0.910,-2.240,-0.840
1743419904.922741,-0.151,0.985,-0.138,1.050,-2.660,-0.630
1743419904.953951,-0.152,0.985,-0.142,0.910,-2.870,-0.350
1743419904.9825978,-0.151,0.983,-0.137,0.910,-2.590,-0.700
1743419905.012906,-0.150,0.984,-0.138,0.840,-2.380,-1.120
1743419905.0434828,-0.150,0.986,-0.137,0.840,-2.240,-1.190
1743419905.0573828,-0.149,0.987,-0.139,0.770,-2.450,-0.980
1743419905.08719,-0.151,0.986,-0.135,0.840,-2.660,-0.630
1743419905.118162,-0.150,0.982,-0.140,0.770,-2.590,-0.560
1743419905.1486511,-0.151,0.983,-0.138,0.980,-2.520,-0.700
1743419905.193378,-0.151,0.985,-0.138,0.840,-2.520,-0.840
1743419905.208537,-0.153,0.986,-0.139,0.700,-2.590,-0.980
1743419905.2373,-0.148,0.984,-0.141,0.840,-2.660,-0.910
1743419905.26723,-0.148,0.983,-0.137,0.840,-2.450,-0.840
1743419905.298371,-0.149,0.985,-0.138,0.980,-2.380,-0.980
1743419905.327614,-0.151,0.984,-0.139,0.770,-2.310,-0.980
1743419905.35845,-0.150,0.986,-0.137,0.840,-2.660,-0.630
1743419905.373014,-0.152,0.986,-0.137,0.840,-2.800,-0.420
1743419905.402061,-0.154,0.982,-0.140,0.770,-2.660,-0.630
1743419905.431762,-0.151,0.982,-0.139,0.910,-2.380,-1.120
1743419905.493602,-0.149,0.985,-0.142,0.840,-2.170,-1.260
1743419905.494399,-0.149,0.984,-0.137,0.910,-2.170,-0.980
1743419905.524231,-0.149,0.988,-0.136,0.840,-2.660,-0.630
1743419905.5539498,-0.150,0.983,-0.137,0.910,-2.940,-0.350
1743419905.583551,-0.153,0.983,-0.138,0.770,-2.800,-0.630
1743419905.5975091,-0.151,0.983,-0.139,0.770,-2.520,-0.980
1743419905.626915,-0.149,0.985,-0.139,0.700,-2.170,-1.260
1743419905.657155,-0.149,0.987,-0.140,0.840,-2.240,-1.050
1743419905.687194,-0.149,0.985,-0.136,0.910,-2.520,-0.630
1743419905.7177238,-0.149,0.985,-0.140,0.910,-2.730,-0.420
1743419905.748082,-0.149,0.985,-0.138,0.840,-2.590,-0.420
1743419905.792953,-0.151,0.985,-0.139,0.840,-2.380,-0.840
1743419905.808703,-0.151,0.984,-0.139,0.840,-2.450,-0.910
1743419905.83724,-0.151,0.984,-0.137,0.770,-2.380,-0.980
1743419905.8688982,-0.150,0.987,-0.137,0.770,-2.520,-0.840
1743419905.8982341,-0.151,0.983,-0.136,0.840,-2.450,-0.840
1743419905.9267578,-0.151,0.984,-0.137,0.770,-2.660,-0.840
1743419905.957736,-0.151,0.986,-0.139,0.840,-2.520,-0.700
1743419905.9875221,-0.151,0.987,-0.139,0.840,-2.660,-0.700
1743419906.001865,-0.151,0.985,-0.139,0.770,-2.590,-0.770
1743419906.032282,-0.151,0.985,-0.140,0.770,-2.450,-0.980
1743419906.0934908,-0.149,0.983,-0.138,0.840,-2.310,-0.910
1743419906.0942268,-0.149,0.986,-0.139,0.910,-2.380,-0.770
1743419906.123639,-0.150,0.985,-0.137,0.910,-2.520,-0.840
1743419906.153143,-0.150,0.986,-0.139,0.980,-2.660,-0.560
1743419906.1819851,-0.151,0.984,-0.140,0.840,-2.660,-0.630
1743419906.2121432,-0.149,0.982,-0.137,0.840,-2.520,-0.910
1743419906.226899,-0.152,0.985,-0.137,0.770,-2.380,-1.120
1743419906.258912,-0.151,0.985,-0.140,0.700,-2.380,-0.980
1743419906.2884212,-0.148,0.988,-0.139,0.840,-2.520,-0.770
1743419906.318023,-0.148,0.986,-0.136,0.910,-2.450,-0.630
1743419906.348386,-0.149,0.985,-0.139,0.770,-2.660,-0.490
1743419906.394376,-0.150,0.985,-0.136,0.910,-2.520,-0.770
1743419906.4089322,-0.153,0.984,-0.138,0.770,-2.450,-0.910
1743419906.437831,-0.151,0.984,-0.138,0.840,-2.380,-0.910
1743419906.468811,-0.152,0.985,-0.137,0.980,-2.520,-0.910
1743419906.499389,-0.152,0.985,-0.138,0.840,-2.520,-0.700
1743419906.528565,-0.148,0.985,-0.138,0.770,-2.380,-0.770
1743419906.5584042,-0.150,0.985,-0.139,0.840,-2.520,-0.700
1743419906.589203,-0.150,0.985,-0.138,0.700,-2.590,-0.910
1743419906.617505,-0.151,0.985,-0.139,0.840,-2.660,-0.700
1743419906.634279,-0.150,0.986,-0.139,0.910,-2.590,-0.770
1743419906.693332,-0.148,0.985,-0.137,0.840,-2.310,-1.120
1743419906.6940749,-0.150,0.985,-0.137,0.910,-2.240,-1.050
1743419906.724334,-0.150,0.984,-0.137,0.980,-2.380,-0.840
1743419906.753151,-0.152,0.986,-0.137,0.840,-2.590,-0.630
1743419906.783262,-0.150,0.985,-0.139,0.980,-2.730,-0.490
1743419906.8139598,-0.152,0.984,-0.139,0.770,-2.520,-0.700
1743419906.8433821,-0.152,0.986,-0.137,0.840,-2.380,-0.980
1743419906.87342,-0.150,0.984,-0.138,0.840,-2.240,-0.980
1743419906.902689,-0.150,0.983,-0.139,0.910,-2.310,-0.840
1743419906.9333508,-0.150,0.986,-0.139,0.840,-2.590,-0.840
1743419906.993384,-0.148,0.983,-0.137,0.910,-2.660,-0.770
1743419906.9940631,-0.150,0.984,-0.139,0.770,-2.800,-0.630
1743419907.024461,-0.151,0.984,-0.137,0.700,-2.730,-0.840
1743419907.054098,-0.151,0.985,-0.139,0.630,-2.590,-1.120
1743419907.0838761,-0.150,0.984,-0.140,0.910,-2.310,-0.910
1743419907.097882,-0.148,0.984,-0.137,0.910,-2.100,-1.050
1743419907.127323,-0.148,0.986,-0.137,0.980,-2.310,-0.980
1743419907.1605,-0.151,0.988,-0.137,0.980,-2.590,-0.630
1743419907.189375,-0.152,0.984,-0.139,0.910,-2.730,-0.350
1743419907.218225,-0.148,0.982,-0.137,0.700,-2.730,-0.840
1743419907.247808,-0.152,0.983,-0.137,0.770,-2.380,-0.910
1743419907.293609,-0.148,0.985,-0.140,0.770,-2.030,-1.260
1743419907.307948,-0.149,0.986,-0.140,0.980,-2.240,-1.190
1743419907.338312,-0.149,0.985,-0.135,0.980,-2.310,-0.630
1743419907.3544571,-0.147,0.985,-0.136,0.840,-3.010,-0.630
1743419907.383401,-0.153,0.986,-0.137,0.770,-3.080,-0.350
1743419907.414308,-0.152,0.982,-0.140,0.840,-2.730,-0.350
1743419907.443083,-0.150,0.983,-0.137,0.770,-2.520,-1.400
1743419907.4732742,-0.152,0.985,-0.141,0.770,-2.100,-1.540
1743419907.502867,-0.151,0.986,-0.138,1.120,-1.820,-0.840
1743419907.5332448,-0.144,0.983,-0.136,1.120,-2.240,-0.700
1743419907.5936482,-0.151,0.987,-0.138,0.840,-2.940,-0.490
1743419907.59462,-0.150,0.984,-0.139,0.910,-3.010,0.070
1743419907.623381,-0.151,0.980,-0.138,0.630,-2.800,-0.700
1743419907.6529868,-0.151,0.984,-0.139,0.560,-2.590,-1.680
1743419907.683412,-0.150,0.987,-0.139,0.770,-2.030,-1.330
1743419907.713599,-0.147,0.987,-0.137,0.770,-2.170,-0.980
1743419907.741962,-0.147,0.987,-0.137,0.980,-2.520,-0.840
1743419907.758234,-0.150,0.987,-0.140,1.120,-2.730,-0.070
1743419907.7891672,-0.149,0.982,-0.138,0.980,-2.730,-0.210
1743419907.817518,-0.150,0.981,-0.139,0.630,-2.660,-0.980
1743419907.8468869,-0.152,0.986,-0.138,0.770,-2.450,-1.190
1743419907.8945122,-0.149,0.982,-0.136,0.910,-2.030,-1.120
1743419907.908212,-0.147,0.983,-0.139,0.840,-2.100,-1.540
1743419907.9395552,-0.151,0.987,-0.137,0.910,-2.310,-0.910
1743419907.9688609,-0.148,0.986,-0.137,1.190,-2.590,0.000
1743419907.9984262,-0.149,0.983,-0.139,0.770,-3.010,-0.280
1743419908.0282629,-0.152,0.984,-0.140,0.560,-3.150,-0.840
1743419908.059187,-0.154,0.981,-0.139,0.630,-2.660,-0.840
1743419908.088277,-0.149,0.982,-0.140,0.560,-2.380,-1.400
1743419908.117839,-0.150,0.985,-0.139,0.770,-2.030,-1.680
1743419908.147499,-0.149,0.990,-0.139,1.050,-2.100,-0.840
1743419908.193604,-0.147,0.985,-0.136,1.190,-2.380,-0.350
1743419908.1943748,-0.150,0.984,-0.137,1.050,-3.010,-0.210
1743419908.224465,-0.154,0.985,-0.140,1.120,-2.730,0.000
1743419908.252644,-0.151,0.981,-0.139,0.980,-2.310,-0.910
1743419908.283529,-0.151,0.984,-0.140,0.770,-1.890,-1.890
1743419908.3129852,-0.152,0.989,-0.134,1.050,-1.820,-1.190
1743419908.3416278,-0.149,0.988,-0.136,0.910,-2.310,-0.560
1743419908.371757,-0.146,0.983,-0.134,0.770,-3.150,-0.490
1743419908.4100978,-0.152,0.989,-0.137,0.490,-3.430,-0.420
1743419908.4326432,-0.151,0.984,-0.139,0.560,-3.290,-0.420
1743419908.50794,-0.150,0.981,-0.141,0.420,-2.800,-1.400
1743419908.508288,-0.151,0.985,-0.142,0.770,-2.240,-1.470
1743419908.522403,-0.149,0.984,-0.140,1.050,-1.750,-0.840
1743419908.552743,-0.148,0.986,-0.140,1.330,-1.680,-0.910
1743419908.583552,-0.149,0.988,-0.135,1.330,-2.170,-0.560
1743419908.612921,-0.151,0.984,-0.135,1.260,-2.450,0.140
1743419908.62774,-0.153,0.982,-0.138,0.840,-3.150,-0.210
1743419908.658875,-0.153,0.981,-0.136,0.630,-3.150,-0.770
1743419908.6870122,-0.152,0.984,-0.138,0.420,-2.450,-1.400
1743419908.717563,-0.151,0.983,-0.141,0.560,-1.960,-1.750
1743419908.7494771,-0.149,0.989,-0.135,0.630,-1.960,-1.750
1743419908.792174,-0.148,0.988,-0.135,0.980,-2.450,-0.560
1743419908.8085911,-0.149,0.988,-0.137,1.050,-3.220,0.350
1743419908.839045,-0.153,0.982,-0.139,0.840,-3.500,0.140
1743419908.867699,-0.153,0.981,-0.141,0.840,-2.800,-0.770
1743419908.897853,-0.154,0.982,-0.140,0.700,-1.960,-1.750
1743419908.9280121,-0.147,0.985,-0.138,0.700,-1.540,-2.310
1743419908.957558,-0.149,0.990,-0.136,0.980,-1.680,-1.260
1743419908.988191,-0.148,0.986,-0.138,1.120,-2.520,-0.070
1743419909.003917,-0.149,0.985,-0.139,0.980,-3.430,0.490
1743419909.033571,-0.149,0.982,-0.140,0.700,-3.360,0.070
1743419909.093825,-0.154,0.982,-0.140,0.560,-2.800,-0.770
1743419909.0944781,-0.154,0.982,-0.139,0.560,-2.100,-1.820
1743419909.1226938,-0.151,0.984,-0.140,0.770,-1.610,-2.100
1743419909.1526349,-0.148,0.988,-0.136,0.910,-1.820,-1.190
1743419909.182215,-0.149,0.987,-0.136,1.050,-2.520,-0.350
1743419909.211746,-0.150,0.987,-0.135,1.120,-3.220,0.070
1743419909.2424471,-0.149,0.982,-0.140,0.770,-3.360,0.210
1743419909.2728431,-0.152,0.982,-0.140,0.350,-3.150,-0.630
1743419909.303087,-0.151,0.983,-0.140,0.420,-2.520,-1.680
1743419909.332835,-0.151,0.986,-0.138,0.770,-1.820,-1.890
1743419909.393064,-0.148,0.988,-0.138,1.120,-1.610,-1.400
1743419909.3937569,-0.146,0.989,-0.136,1.260,-2.030,-0.490
1743419909.422966,-0.150,0.986,-0.139,1.330,-2.730,0.350
1743419909.437612,-0.151,0.981,-0.138,0.910,-3.220,0.210
1743419909.467432,-0.152,0.981,-0.140,0.630,-3.220,-0.630
1743419909.497387,-0.153,0.982,-0.141,0.420,-2.590,-1.470
1743419909.527646,-0.149,0.983,-0.139,0.420,-1.890,-2.240
1743419909.558132,-0.148,0.986,-0.138,0.700,-1.890,-1.890
1743419909.588068,-0.148,0.990,-0.136,0.840,-2.240,-0.770
1743419909.6183438,-0.150,0.985,-0.139,1.190,-3.080,0.420
1743419909.6471648,-0.150,0.983,-0.139,0.980,-3.500,0.420
1743419909.6934211,-0.154,0.980,-0.140,0.770,-2.940,-0.490
1743419909.7080371,-0.154,0.981,-0.140,0.700,-2.100,-1.470
1743419909.737178,-0.151,0.984,-0.139,0.700,-1.610,-2.240
1743419909.767534,-0.148,0.988,-0.134,0.980,-1.820,-1.750
1743419909.7972622,-0.148,0.991,-0.138,1.190,-2.310,-0.420
1743419909.8275368,-0.146,0.985,-0.135,1.260,-3.010,0.280
1743419909.843275,-0.152,0.985,-0.137,0.910,-3.290,0.070
1743419909.8729029,-0.154,0.981,-0.140,0.560,-2.940,-0.630
1743419909.9022138,-0.155,0.983,-0.138,0.420,-2.660,-1.400
1743419909.93277,-0.150,0.985,-0.139,0.490,-2.310,-1.820
1743419910.008207,-0.150,0.987,-0.138,0.630,-2.170,-1.610
1743419910.008802,-0.148,0.985,-0.135,0.980,-2.170,-0.700
1743419910.023455,-0.148,0.985,-0.139,1.120,-2.380,-0.420
1743419910.053198,-0.152,0.985,-0.137,1.120,-2.800,0.070
1743419910.0834718,-0.154,0.984,-0.139,1.120,-3.010,0.140
1743419910.113711,-0.153,0.982,-0.138,0.840,-2.520,-0.700
1743419910.143809,-0.153,0.984,-0.138,0.700,-2.170,-1.890
1743419910.16004,-0.149,0.986,-0.138,0.700,-1.680,-1.750
1743419910.1882298,-0.147,0.987,-0.137,0.910,-2.100,-1.190
1743419910.2177532,-0.149,0.986,-0.138,0.910,-2.800,-0.350
1743419910.2486458,-0.151,0.986,-0.138,0.980,-3.220,0.280
1743419910.292823,-0.152,0.984,-0.142,0.840,-3.220,0.000
1743419910.308458,-0.155,0.980,-0.141,0.490,-2.730,-0.980
1743419910.3380191,-0.153,0.983,-0.141,0.700,-2.030,-1.750
1743419910.3690538,-0.150,0.986,-0.137,0.840,-1.750,-1.400
1743419910.398601,-0.147,0.986,-0.138,1.120,-2.100,-1.050
1743419910.428054,-0.149,0.986,-0.138,1.050,-2.730,-0.350
1743419910.457775,-0.150,0.985,-0.136,1.050,-2.870,0.070
1743419910.4741702,-0.154,0.981,-0.139,0.840,-3.010,-0.280
1743419910.502955,-0.152,0.982,-0.139,0.630,-2.730,-1.050
1743419910.534492,-0.150,0.984,-0.140,0.630,-2.380,-1.400
1743419910.593469,-0.152,0.984,-0.139,0.700,-2.030,-1.540
1743419910.594181,-0.147,0.988,-0.136,0.770,-2.100,-1.260
1743419910.624565,-0.148,0.988,-0.137,0.980,-2.450,-0.490
1743419910.65405,-0.149,0.985,-0.137,1.050,-2.800,-0.070
1743419910.682749,-0.152,0.982,-0.139,0.770,-3.080,-0.280
1743419910.712692,-0.152,0.982,-0.137,0.700,-2.800,-0.630
1743419910.743221,-0.152,0.984,-0.140,0.770,-2.450,-1.330
1743419910.77355,-0.149,0.986,-0.139,0.700,-2.030,-1.540
1743419910.8033128,-0.150,0.986,-0.137,0.840,-1.960,-1.260
1743419910.8335202,-0.148,0.987,-0.135,1.050,-2.310,-0.490
1743419910.848487,-0.152,0.986,-0.136,1.120,-2.940,0.000
1743419910.8939068,-0.153,0.983,-0.138,0.980,-2.940,-0.070
1743419910.907983,-0.152,0.983,-0.137,0.770,-2.870,-0.700
1743419910.93746,-0.152,0.984,-0.139,0.560,-2.520,-1.330
1743419910.968905,-0.150,0.985,-0.139,0.560,-2.240,-1.540
1743419910.9979331,-0.150,0.986,-0.137,0.840,-2.310,-1.050
1743419911.0287092,-0.148,0.988,-0.138,0.840,-2.660,-0.630
1743419911.0587,-0.149,0.986,-0.137,0.910,-2.800,-0.140
1743419911.088654,-0.151,0.982,-0.138,1.050,-2.590,-0.210
1743419911.118468,-0.151,0.981,-0.138,0.910,-2.380,-0.770
1743419911.147985,-0.152,0.984,-0.140,0.770,-2.310,-1.330
1743419911.1929789,-0.151,0.987,-0.139,0.910,-2.170,-1.190
1743419911.2088609,-0.151,0.986,-0.135,0.700,-2.310,-0.980
1743419911.252966,-0.148,0.985,-0.134,0.840,-2.660,-0.630
1743419911.269512,-0.150,0.985,-0.138,0.910,-2.800,-0.420
1743419911.2980092,-0.151,0.984,-0.139,0.910,-2.730,-0.560
1743419911.32776,-0.153,0.982,-0.137,0.700,-2.870,-0.770
1743419911.3579352,-0.153,0.984,-0.136,0.840,-2.520,-0.980
1743419911.38726,-0.150,0.984,-0.139,0.980,-2.100,-1.190
1743419911.418224,-0.152,0.986,-0.137,1.050,-1.960,-0.980
1743419911.447674,-0.149,0.985,-0.139,0.980,-2.100,-0.770
1743419911.4926279,-0.150,0.984,-0.133,0.910,-2.590,-0.560
1743419911.4931352,-0.151,0.983,-0.137,0.770,-3.080,-0.350
1743419911.522933,-0.152,0.984,-0.140,0.560,-3.150,-0.560
1743419911.55215,-0.152,0.983,-0.138,0.560,-2.870,-1.050
1743419911.597755,-0.150,0.984,-0.140,0.630,-2.240,-1.330
1743419911.612621,-0.152,0.987,-0.138,0.840,-2.030,-1.260
1743419911.6418161,-0.149,0.986,-0.138,1.050,-2.030,-0.770
1743419911.672148,-0.147,0.986,-0.137,1.190,-2.380,-0.350
1743419911.702158,-0.151,0.987,-0.139,0.910,-2.660,-0.140
1743419911.7323442,-0.153,0.983,-0.138,0.840,-2.730,-0.490
1743419911.7932348,-0.152,0.982,-0.138,0.560,-2.590,-0.980
1743419911.793781,-0.153,0.983,-0.137,0.490,-2.520,-1.470
1743419911.8083332,-0.152,0.986,-0.137,0.560,-2.380,-1.470
1743419911.837149,-0.149,0.985,-0.140,0.700,-2.380,-1.050
1743419911.896628,-0.147,0.984,-0.139,0.980,-2.450,-0.560
1743419911.8972428,-0.149,0.984,-0.138,0.980,-2.800,-0.280
1743419911.926273,-0.152,0.984,-0.138,0.980,-2.660,-0.350
1743419911.958789,-0.152,0.984,-0.138,0.910,-2.660,-0.700
1743419911.98808,-0.152,0.981,-0.139,0.770,-2.380,-1.050
1743419912.01927,-0.150,0.984,-0.138,0.770,-2.170,-1.330
1743419912.047898,-0.150,0.986,-0.137,0.770,-2.030,-1.190
1743419912.077055,-0.147,0.986,-0.137,0.980,-2.310,-0.770
1743419912.1072378,-0.151,0.985,-0.137,0.840,-2.800,-0.210
1743419912.137259,-0.152,0.985,-0.135,0.840,-3.150,-0.140
1743419912.1530812,-0.151,0.984,-0.139,0.700,-3.010,-0.630
1743419912.198504,-0.151,0.984,-0.140,0.700,-2.590,-1.330
1743419912.2136629,-0.149,0.985,-0.140,0.770,-2.030,-1.540
1743419912.242902,-0.147,0.988,-0.137,0.770,-2.100,-1.400
1743419912.273702,-0.145,0.987,-0.137,0.980,-2.590,-0.560
1743419912.304139,-0.150,0.987,-0.137,1.120,-2.870,0.000
1743419912.332959,-0.152,0.984,-0.138,0.910,-3.010,-0.210
1743419912.3635998,-0.154,0.981,-0.139,0.840,-2.520,-0.630
1743419912.3930721,-0.150,0.985,-0.137,0.980,-2.100,-1.260
1743419912.422904,-0.148,0.986,-0.137,0.770,-2.100,-1.330
1743419912.4524171,-0.153,0.984,-0.137,0.840,-2.310,-1.050
1743419912.498278,-0.153,0.987,-0.137,0.980,-2.730,-0.490
1743419912.527754,-0.151,0.984,-0.138,0.840,-2.870,-0.490
1743419912.542828,-0.150,0.985,-0.138,0.840,-2.800,-0.560
1743419912.573594,-0.152,0.984,-0.137,0.770,-2.590,-0.770
1743419912.6038039,-0.151,0.984,-0.138,0.560,-2.450,-1.330
1743419912.633643,-0.151,0.985,-0.137,0.630,-2.170,-1.400
1743419912.6631758,-0.149,0.987,-0.138,0.840,-2.310,-1.050
1743419912.677821,-0.149,0.987,-0.136,0.980,-2.520,-0.560
1743419912.7088141,-0.148,0.986,-0.137,1.050,-2.800,-0.210
1743419912.738338,-0.152,0.984,-0.139,1.050,-2.870,-0.140
1743419912.7974389,-0.152,0.982,-0.138,0.980,-2.380,-0.770
1743419912.814288,-0.152,0.985,-0.139,0.770,-2.100,-1.470
1743419912.828494,-0.148,0.988,-0.137,0.630,-1.960,-1.610
1743419912.857712,-0.148,0.986,-0.136,0.630,-2.450,-0.910
1743419912.887736,-0.150,0.989,-0.136,0.770,-3.150,-0.280
1743419912.918389,-0.152,0.984,-0.138,0.700,-3.220,0.000
1743419912.9495208,-0.153,0.984,-0.140,0.700,-3.010,-0.560
1743419912.977925,-0.150,0.982,-0.140,0.840,-2.100,-1.260
1743419913.009181,-0.151,0.987,-0.138,0.980,-1.750,-1.540
1743419913.0373251,-0.149,0.989,-0.138,1.190,-1.890,-0.840
1743419913.0988102,-0.150,0.987,-0.135,1.050,-2.590,-0.350
1743419913.112663,-0.152,0.984,-0.136,0.910,-2.940,-0.350
1743419913.113607,-0.151,0.983,-0.138,0.840,-3.010,-0.350
1743419913.142837,-0.152,0.983,-0.139,0.700,-2.730,-0.980
1743419913.172846,-0.152,0.986,-0.140,0.770,-2.380,-1.190
1743419913.202394,-0.151,0.985,-0.139,0.700,-2.240,-1.330
1743419913.2325199,-0.150,0.987,-0.139,1.050,-2.240,-0.980
1743419913.2629519,-0.150,0.986,-0.139,1.190,-2.380,-0.420
1743419913.291729,-0.153,0.983,-0.137,1.120,-2.450,-0.210
1743419913.323392,-0.147,0.983,-0.137,0.910,-2.660,-0.700
1743419913.3528771,-0.153,0.984,-0.137,0.630,-2.520,-0.910
1743419913.396788,-0.151,0.984,-0.137,0.840,-2.660,-0.840
1743419913.413098,-0.153,0.984,-0.140,0.770,-2.660,-1.050
1743419913.4437618,-0.150,0.984,-0.139,0.700,-2.590,-0.980
1743419913.472947,-0.151,0.984,-0.139,0.840,-2.240,-1.050
1743419913.50411,-0.151,0.983,-0.139,0.910,-2.380,-0.770
1743419913.525998,-0.153,0.986,-0.136,0.980,-2.660,-0.350
1743419913.5527868,-0.152,0.983,-0.139,0.840,-2.870,-0.280
1743419913.577282,-0.152,0.983,-0.137,0.700,-2.660,-0.770
1743419913.60713,-0.153,0.984,-0.140,0.770,-2.170,-1.260
1743419913.6368341,-0.150,0.987,-0.139,0.910,-1.820,-1.190
1743419913.697954,-0.150,0.987,-0.136,0.910,-2.100,-0.980
1743419913.698435,-0.149,0.989,-0.136,0.910,-2.870,-0.490
1743419913.726759,-0.150,0.985,-0.136,0.910,-3.010,-0.210
1743419913.757403,-0.150,0.983,-0.138,0.770,-2.870,-0.700
1743419913.8029141,-0.152,0.983,-0.137,0.700,-2.310,-1.330
1743419913.818222,-0.151,0.984,-0.137,0.700,-2.240,-1.470
1743419913.8494568,-0.151,0.986,-0.140,0.770,-2.590,-0.910
1743419913.879122,-0.150,0.986,-0.139,0.910,-2.730,-0.420
1743419913.892641,-0.151,0.983,-0.138,0.840,-2.590,-0.560
1743419913.92312,-0.152,0.982,-0.140,0.910,-2.380,-0.700
1743419913.953121,-0.151,0.983,-0.136,0.910,-2.170,-0.840
1743419913.997417,-0.152,0.985,-0.138,1.050,-2.450,-1.120
1743419914.012801,-0.150,0.987,-0.138,0.910,-2.520,-0.700
1743419914.043595,-0.148,0.984,-0.136,0.770,-2.450,-0.840
1743419914.073457,-0.153,0.984,-0.134,0.770,-2.520,-1.050
1743419914.103318,-0.150,0.986,-0.138,0.630,-2.660,-0.980
1743419914.1343858,-0.151,0.986,-0.136,0.840,-2.940,-0.280
1743419914.1479738,-0.150,0.984,-0.138,0.770,-2.870,-0.490
1743419914.178636,-0.153,0.982,-0.138,0.770,-2.590,-0.840
1743419914.2080262,-0.149,0.984,-0.137,0.910,-1.960,-1.120
1743419914.238313,-0.151,0.983,-0.135,0.840,-1.890,-1.330
1743419914.298102,-0.150,0.986,-0.137,0.980,-2.240,-0.910
1743419914.2990289,-0.151,0.985,-0.138,0.980,-2.730,-0.140
1743419914.3278642,-0.152,0.985,-0.137,0.770,-3.150,-0.140
1743419914.372454,-0.153,0.981,-0.140,0.560,-3.010,-0.700
1743419914.3733099,-0.152,0.986,-0.140,0.630,-2.310,-1.260
1743419914.4027112,-0.150,0.985,-0.139,0.490,-2.100,-1.960
1743419914.4332101,-0.150,0.989,-0.137,0.910,-2.170,-1.190
1743419914.46444,-0.150,0.988,-0.139,0.980,-2.520,-0.350
1743419914.4929862,-0.150,0.985,-0.138,1.120,-2.870,-0.210
1743419914.524323,-0.153,0.983,-0.139,0.980,-2.800,-0.490
1743419914.554233,-0.152,0.979,-0.138,1.050,-2.380,-0.700
1743419914.597566,-0.151,0.983,-0.138,0.700,-2.380,-1.330
1743419914.612855,-0.151,0.985,-0.140,0.770,-2.310,-1.260
1743419914.6440089,-0.151,0.984,-0.138,0.910,-2.380,-0.770
1743419914.6586869,-0.149,0.986,-0.134,0.910,-2.520,-0.770
1743419914.689623,-0.150,0.984,-0.138,0.840,-2.800,-0.560
1743419914.71824,-0.152,0.984,-0.137,0.840,-2.730,-0.280
1743419914.748558,-0.152,0.984,-0.139,0.840,-2.800,-0.630
1743419914.779549,-0.152,0.984,-0.138,0.770,-2.730,-1.050
1743419914.808367,-0.151,0.986,-0.139,0.840,-2.240,-1.120
1743419914.837356,-0.149,0.982,-0.137,0.840,-2.030,-1.120
1743419914.899601,-0.149,0.986,-0.134,0.910,-2.380,-1.120
1743419914.912805,-0.153,0.988,-0.136,0.980,-2.730,-0.350
1743419914.927093,-0.151,0.983,-0.140,0.910,-2.800,-0.140
1743419914.957854,-0.151,0.981,-0.137,0.700,-2.800,-0.770
1743419914.9884732,-0.153,0.985,-0.140,0.840,-2.380,-1.050
1743419915.0184891,-0.149,0.983,-0.137,0.840,-2.170,-1.190
1743419915.048094,-0.151,0.986,-0.137,0.840,-2.310,-1.190
1743419915.092049,-0.151,0.985,-0.139,0.910,-2.590,-0.490
1743419915.109096,-0.153,0.984,-0.136,0.980,-2.870,-0.140
1743419915.13857,-0.152,0.983,-0.137,0.770,-2.940,-0.630
1743419915.197729,-0.151,0.985,-0.138,0.700,-2.380,-0.980
1743419915.19874,-0.152,0.984,-0.138,0.770,-2.240,-1.050
1743419915.213262,-0.149,0.982,-0.138,0.770,-2.380,-1.190
1743419915.243943,-0.147,0.984,-0.138,0.840,-2.450,-0.840
1743419915.273341,-0.150,0.983,-0.139,0.910,-2.730,-0.420
1743419915.30255,-0.152,0.983,-0.137,0.840,-2.800,-0.560
1743419915.3342311,-0.153,0.983,-0.138,0.840,-2.660,-0.770
1743419915.363151,-0.153,0.985,-0.139,0.910,-2.520,-0.910
1743419915.3936808,-0.150,0.983,-0.137,0.770,-2.380,-0.980
1743419915.423819,-0.150,0.987,-0.140,0.910,-2.380,-0.980
1743419915.45372,-0.150,0.986,-0.136,0.910,-2.310,-0.770
1743419915.498469,-0.150,0.986,-0.137,0.910,-2.450,-0.700
1743419915.513119,-0.150,0.983,-0.138,0.770,-2.800,-0.700
1743419915.5277,-0.151,0.984,-0.135,0.840,-2.800,-0.560
1743419915.5587862,-0.153,0.984,-0.136,0.840,-2.660,-0.630
1743419915.588767,-0.151,0.983,-0.138,0.630,-2.520,-1.190
1743419915.618556,-0.152,0.986,-0.138,0.840,-2.170,-1.260
1743419915.694201,-0.150,0.985,-0.138,0.770,-2.240,-0.910
1743419915.70919,-0.150,0.986,-0.138,0.910,-2.450,-0.770
1743419915.709834,-0.149,0.983,-0.137,0.910,-2.870,-0.420
1743419915.738198,-0.153,0.983,-0.136,0.980,-2.870,-0.210
1743419915.768252,-0.150,0.980,-0.139,0.770,-2.450,-0.840
1743419915.7826009,-0.150,0.986,-0.140,0.770,-2.240,-1.260
1743419915.812163,-0.153,0.987,-0.138,0.980,-1.960,-1.330
1743419915.84252,-0.146,0.986,-0.136,0.910,-2.310,-0.770
1743419915.872735,-0.148,0.985,-0.138,0.910,-2.940,-0.420
1743419915.903202,-0.154,0.986,-0.138,0.700,-2.870,-0.420
1743419915.933407,-0.151,0.984,-0.138,0.700,-2.590,-0.700
1743419915.993341,-0.150,0.982,-0.135,0.700,-2.380,-1.470
1743419915.9940841,-0.153,0.987,-0.139,0.770,-2.450,-1.050
1743419916.024414,-0.150,0.986,-0.140,0.910,-2.590,-0.700
1743419916.053171,-0.151,0.983,-0.135,0.840,-2.660,-0.630
1743419916.083095,-0.152,0.986,-0.138,0.910,-2.590,-0.840
1743419916.098994,-0.152,0.987,-0.139,0.910,-2.310,-0.700
1743419916.128216,-0.150,0.982,-0.137,0.840,-2.520,-0.840
1743419916.1591198,-0.151,0.986,-0.138,0.910,-2.660,-0.980
1743419916.1896021,-0.149,0.986,-0.139,0.910,-2.380,-0.560
1743419916.2178319,-0.151,0.981,-0.138,0.700,-2.240,-0.980
1743419916.248953,-0.152,0.984,-0.137,0.840,-2.310,-1.260
1743419916.293685,-0.150,0.986,-0.136,0.910,-2.450,-0.770
1743419916.308554,-0.149,0.984,-0.136,0.840,-2.800,-0.420
1743419916.3389828,-0.151,0.981,-0.138,0.700,-3.010,-0.490
1743419916.3692522,-0.154,0.984,-0.139,0.840,-2.660,-0.840
1743419916.397797,-0.152,0.985,-0.137,0.910,-2.240,-0.980
1743419916.427777,-0.152,0.984,-0.138,0.630,-2.240,-1.260
1743419916.459015,-0.150,0.987,-0.138,0.770,-2.590,-0.700
1743419916.487492,-0.151,0.985,-0.139,0.980,-2.800,-0.350
1743419916.503351,-0.150,0.985,-0.141,0.840,-2.660,-0.630
1743419916.5336478,-0.151,0.983,-0.136,0.910,-2.380,-1.050
1743419916.59359,-0.152,0.988,-0.137,0.980,-1.960,-1.050
1743419916.594294,-0.151,0.984,-0.136,0.910,-2.240,-0.910
1743419916.6238499,-0.151,0.987,-0.137,0.980,-2.520,-0.770
1743419916.653453,-0.149,0.985,-0.139,0.980,-2.800,-0.210
1743419916.6825228,-0.153,0.981,-0.141,0.840,-2.660,-0.490
1743419916.7135181,-0.152,0.982,-0.138,0.700,-2.660,-1.190
1743419916.7435598,-0.151,0.985,-0.139,0.630,-2.380,-1.190
1743419916.774427,-0.150,0.985,-0.137,0.630,-2.590,-0.770
1743419916.803106,-0.150,0.989,-0.138,1.260,-2.800,-0.840
1743419916.8313658,-0.157,0.991,-0.138,1.540,-2.520,0.420
1743419916.877832,-0.146,0.978,-0.137,0.770,-1.960,-0.280
1743419916.8782709,-0.152,0.985,-0.137,0.560,-3.220,-2.170
1743419916.906871,-0.159,0.992,-0.141,0.980,-2.380,0.000
1743419916.938698,-0.146,0.975,-0.137,0.700,-2.240,-0.980
1743419916.9682639,-0.146,0.985,-0.137,0.070,-2.590,-3.010
1743419916.99747,-0.153,0.996,-0.136,0.910,-2.100,-0.630
1743419917.028922,-0.145,0.982,-0.136,1.260,-2.030,0.350
1743419917.056336,-0.147,0.981,-0.136,0.630,-3.220,-1.330
1743419917.087328,-0.158,0.992,-0.140,1.120,-3.220,0.280
1743419917.117961,-0.151,0.979,-0.137,1.190,-2.170,0.490
1743419917.147957,-0.147,0.979,-0.140,0.350,-2.450,-2.520
1743419917.176818,-0.155,0.991,-0.140,0.490,-2.100,-1.960
1743419917.207934,-0.150,0.988,-0.138,1.190,-1.750,0.140
1743419917.2398899,-0.144,0.979,-0.134,0.630,-2.660,-0.980
1743419917.253123,-0.153,0.991,-0.139,0.770,-3.220,-0.980
1743419917.284116,-0.157,0.989,-0.139,1.120,-2.660,0.490
1743419917.313128,-0.148,0.976,-0.137,0.840,-2.660,-0.980
1743419917.3431308,-0.152,0.986,-0.139,0.490,-2.730,-1.960
1743419917.373369,-0.157,0.989,-0.141,1.050,-2.380,-0.350
1743419917.403111,-0.146,0.977,-0.137,0.420,-1.820,-0.560
1743419917.4336278,-0.144,0.979,-0.135,0.070,-2.380,-3.360
1743419917.464149,-0.155,0.999,-0.137,1.400,-1.680,-0.910
1743419917.493456,-0.146,0.983,-0.132,1.470,-1.680,1.260
1743419917.522655,-0.147,0.979,-0.135,0.350,-4.130,-0.840
1743419917.553686,-0.164,0.992,-0.140,0.910,-4.270,0.840
1743419917.5841548,-0.155,0.974,-0.140,0.980,-2.240,0.210
1743419917.6133509,-0.144,0.973,-0.139,0.070,-1.470,-4.480
1743419917.643073,-0.152,0.999,-0.138,0.490,-0.980,-3.430
1743419917.6585972,-0.149,0.994,-0.134,1.540,-1.540,1.120
1743419917.6874912,-0.144,0.980,-0.135,1.050,-3.850,0.910
1743419917.7171369,-0.155,0.987,-0.139,0.840,-4.760,0.280
1743419917.749387,-0.161,0.985,-0.140,1.260,-2.730,1.120
1743419917.778104,-0.148,0.972,-0.137,0.700,-1.330,-1.960
1743419917.807982,-0.151,0.985,-0.134,0.000,-1.610,-4.410
1743419917.838465,-0.156,0.998,-0.138,0.910,-1.890,-0.700
1743419917.8682408,-0.143,0.982,-0.134,1.120,-2.800,0.980
1743419917.898527,-0.150,0.980,-0.139,0.770,-3.640,-1.050
1743419917.928002,-0.157,0.991,-0.139,1.260,-2.240,-0.140
1743419917.9574258,-0.150,0.978,-0.137,1.050,-1.820,-0.350
1743419917.9887512,-0.149,0.981,-0.135,0.280,-3.150,-2.100
1743419918.017876,-0.158,0.994,-0.140,0.560,-3.150,-0.560
1743419918.032497,-0.152,0.982,-0.140,0.980,-2.030,0.210
1743419918.063495,-0.145,0.978,-0.136,0.560,-1.890,-2.590
1743419918.093178,-0.152,0.993,-0.139,0.910,-1.960,-2.170
1743419918.123477,-0.152,0.991,-0.137,1.330,-2.100,0.910
1743419918.152782,-0.149,0.981,-0.137,0.980,-3.500,0.840
1743419918.184444,-0.155,0.983,-0.141,0.630,-3.990,-0.700
1743419918.2134888,-0.160,0.984,-0.141,1.050,-2.170,-0.420
1743419918.24295,-0.147,0.977,-0.136,0.770,-0.910,-2.590
1743419918.273139,-0.147,0.991,-0.136,0.420,-1.540,-3.080
1743419918.302189,-0.153,0.997,-0.135,1.400,-2.660,0.770
1743419918.3326058,-0.145,0.979,-0.136,0.910,-3.850,1.470
1743419918.363064,-0.154,0.979,-0.141,0.210,-4.270,-0.910
1743419918.3927119,-0.159,0.989,-0.143,0.910,-2.170,-0.770
1743419918.423945,-0.147,0.976,-0.137,0.700,-0.910,-1.890
1743419918.454209,-0.145,0.986,-0.138,0.280,-2.310,-3.430
1743419918.4825652,-0.154,0.999,-0.138,1.120,-2.730,-0.070
1743419918.497762,-0.149,0.981,-0.134,1.470,-2.730,1.540
1743419918.528306,-0.147,0.976,-0.138,0.770,-3.150,-0.770
1743419918.557573,-0.158,0.987,-0.138,0.770,-2.380,-1.260
1743419918.58739,-0.155,0.985,-0.139,1.050,-1.820,-0.420
1743419918.629111,-0.147,0.981,-0.137,0.490,-2.590,-1.610
1743419918.654351,-0.153,0.987,-0.139,0.560,-2.940,-1.540
1743419918.678355,-0.154,0.989,-0.140,1.120,-2.170,-0.140
1743419918.708482,-0.145,0.980,-0.137,0.840,-2.240,-1.190
1743419918.737834,-0.152,0.988,-0.140,0.560,-2.800,-1.260
1743419918.768825,-0.154,0.989,-0.138,0.910,-2.940,0.700
1743419918.797856,-0.152,0.978,-0.139,0.630,-3.360,-0.140
1743419918.8272178,-0.153,0.983,-0.141,0.350,-2.800,-2.170
1743419918.858538,-0.155,0.988,-0.139,0.910,-1.190,-1.470
1743419918.8884459,-0.148,0.984,-0.134,1.330,-1.050,-1.610
1743419918.933627,-0.147,0.989,-0.135,1.050,-2.380,-1.050
1743419918.93429,-0.156,0.995,-0.137,1.610,-3.220,1.470
1743419918.963682,-0.150,0.979,-0.138,1.050,-3.430,1.190
1743419918.993514,-0.154,0.976,-0.140,0.280,-3.290,-1.470
1743419919.024042,-0.160,0.987,-0.140,0.210,-2.380,-2.450
1743419919.053117,-0.150,0.986,-0.137,0.560,-1.540,-1.890
1743419919.082897,-0.144,0.983,-0.134,0.420,-2.310,-2.240
1743419919.1129742,-0.151,0.995,-0.139,0.980,-3.010,-0.350
1743419919.143178,-0.153,0.987,-0.140,1.400,-2.800,1.400
1743419919.160587,-0.150,0.977,-0.138,0.980,-2.940,-0.070
1743419919.18952,-0.157,0.984,-0.139,0.840,-2.730,-1.190
1743419919.2181702,-0.156,0.983,-0.140,0.980,-2.030,-0.770
1743419919.2474391,-0.148,0.979,-0.138,0.560,-2.100,-2.100
1743419919.278186,-0.150,0.988,-0.137,0.630,-2.100,-2.100
1743419919.3085818,-0.152,0.991,-0.136,1.120,-2.100,-0.490
1743419919.33844,-0.148,0.981,-0.135,1.260,-2.520,-0.070
1743419919.367928,-0.149,0.985,-0.137,0.980,-3.500,-0.210
1743419919.399102,-0.156,0.985,-0.139,0.910,-3.430,0.280
1743419919.4281971,-0.152,0.979,-0.141,0.560,-2.940,-0.700
1743419919.458752,-0.152,0.983,-0.140,0.280,-2.310,-2.310
1743419919.489365,-0.153,0.989,-0.137,0.490,-1.750,-1.960
1743419919.517768,-0.149,0.986,-0.137,0.840,-1.820,-1.050
1743419919.547775,-0.149,0.987,-0.139,1.120,-2.590,-0.490
1743419919.578167,-0.151,0.987,-0.138,1.330,-2.870,0.770
1743419919.607668,-0.155,0.979,-0.137,1.050,-3.150,0.280
1743419919.63821,-0.156,0.982,-0.140,0.630,-2.800,-1.260
1743419919.668468,-0.155,0.985,-0.140,0.700,-2.100,-1.680
1743419919.69764,-0.149,0.984,-0.136,0.770,-1.400,-1.820
1743419919.7135758,-0.146,0.988,-0.136,0.700,-1.960,-1.960
1743419919.744493,-0.150,0.991,-0.137,1.050,-2.660,-0.490
1743419919.772882,-0.151,0.986,-0.136,1.050,-3.080,0.770
1743419919.804749,-0.151,0.979,-0.136,0.700,-3.570,0.070
1743419919.8347452,-0.160,0.983,-0.141,0.560,-3.430,-0.840
1743419919.863775,-0.154,0.980,-0.142,0.560,-2.240,-1.330
1743419919.8929448,-0.150,0.985,-0.137,0.490,-1.820,-2.310
1743419919.9233742,-0.151,0.991,-0.137,0.700,-1.680,-1.820
1743419919.9529479,-0.149,0.990,-0.137,1.330,-2.030,-0.070
1743419919.9837818,-0.149,0.985,-0.135,1.330,-2.520,0.490
1743419920.013543,-0.152,0.984,-0.137,1.050,-2.940,0.070
1743419920.02816,-0.156,0.983,-0.139,0.770,-2.660,-0.420
1743419920.058918,-0.153,0.979,-0.138,0.630,-2.240,-1.260
1743419920.088948,-0.148,0.984,-0.135,0.420,-2.310,-1.960
1743419920.1178281,-0.150,0.989,-0.138,0.630,-2.450,-1.330
1743419920.14942,-0.149,0.987,-0.136,0.770,-2.590,-0.420
1743419920.179082,-0.151,0.986,-0.137,0.910,-3.010,-0.490
1743419920.208534,-0.151,0.988,-0.139,0.840,-2.940,-0.350
1743419920.2384691,-0.154,0.982,-0.139,1.120,-2.590,-0.210
1743419920.268321,-0.152,0.983,-0.137,0.770,-2.380,-1.190
1743419920.29808,-0.154,0.984,-0.136,0.840,-2.170,-1.400
1743419920.328335,-0.150,0.987,-0.137,0.840,-1.820,-0.980
1743419920.359293,-0.149,0.984,-0.135,1.050,-2.170,-0.910
1743419920.389648,-0.153,0.988,-0.137,0.910,-2.800,-0.420
1743419920.404167,-0.152,0.984,-0.138,1.120,-3.150,0.140
1743419920.4332201,-0.154,0.981,-0.139,0.630,-3.080,-0.490
1743419920.4616861,-0.153,0.983,-0.142,0.560,-2.660,-1.610
1743419920.491665,-0.153,0.985,-0.138,0.700,-2.100,-1.680
1743419920.5225248,-0.150,0.986,-0.137,0.700,-1.890,-1.330
1743419920.551988,-0.147,0.986,-0.137,0.840,-2.310,-1.190
1743419920.582467,-0.148,0.989,-0.134,1.120,-2.590,-0.070
1743419920.611656,-0.150,0.986,-0.136,1.330,-2.660,0.210
1743419920.642103,-0.151,0.981,-0.140,0.840,-2.660,-0.630
1743419920.672257,-0.157,0.983,-0.138,0.770,-2.590,-0.980
1743419920.702034,-0.151,0.981,-0.138,0.560,-2.520,-1.120
1743419920.731682,-0.151,0.984,-0.140,0.420,-2.520,-1.680
1743419920.762033,-0.150,0.986,-0.138,0.700,-2.520,-1.260
1743419920.79162,-0.149,0.988,-0.136,0.910,-2.520,-0.490
1743419920.821843,-0.150,0.983,-0.139,0.980,-2.800,-0.280
1743419920.83695,-0.154,0.984,-0.140,1.260,-2.450,-0.490
1743419920.867371,-0.151,0.984,-0.137,1.260,-1.960,-0.560
1743419920.898804,-0.151,0.983,-0.135,1.050,-1.750,-1.050
1743419920.9295812,-0.152,0.987,-0.136,0.770,-2.380,-1.050
1743419920.958449,-0.151,0.985,-0.136,0.700,-2.870,-0.490
1743419920.987343,-0.152,0.983,-0.136,0.490,-3.150,-0.630
1743419921.017946,-0.150,0.982,-0.139,0.210,-3.220,-1.050
1743419921.0339682,-0.153,0.986,-0.141,0.350,-2.940,-1.260
1743419921.063484,-0.152,0.985,-0.140,0.770,-2.450,-1.050
1743419921.0930471,-0.150,0.985,-0.136,0.980,-2.170,-1.120
1743419921.1230028,-0.149,0.985,-0.137,1.470,-1.890,-0.840
1743419921.1532018,-0.150,0.986,-0.135,1.610,-1.610,-0.350
1743419921.183969,-0.150,0.985,-0.139,1.470,-1.820,-0.420
1743419921.2134311,-0.153,0.984,-0.133,1.120,-2.590,-0.210
1743419921.228222,-0.154,0.982,-0.135,0.490,-3.360,-0.420
1743419921.257694,-0.153,0.981,-0.137,0.070,-3.360,-1.120
1743419921.288744,-0.152,0.982,-0.139,0.140,-2.940,-1.960
1743419921.317515,-0.151,0.986,-0.140,0.350,-2.450,-1.820
1743419921.3493052,-0.149,0.985,-0.137,0.770,-2.100,-1.190
1743419921.380113,-0.148,0.989,-0.136,1.050,-2.450,-0.420
1743419921.3931189,-0.152,0.988,-0.139,1.400,-2.590,0.140
1743419921.425165,-0.154,0.980,-0.137,1.540,-2.380,0.210
1743419921.453506,-0.154,0.981,-0.138,1.050,-2.240,-0.910
1743419921.483854,-0.153,0.985,-0.139,0.840,-1.960,-1.470
1743419921.5134919,-0.153,0.985,-0.136,0.910,-2.100,-1.400
1743419921.543689,-0.151,0.987,-0.136,0.700,-2.450,-1.050
1743419921.572949,-0.153,0.985,-0.136,0.770,-2.940,-0.420
1743419921.5896661,-0.152,0.986,-0.138,0.630,-3.220,-0.420
1743419921.618133,-0.153,0.984,-0.137,0.700,-2.940,-0.700
1743419921.6487691,-0.154,0.983,-0.138,0.630,-2.590,-1.190
1743419921.677823,-0.152,0.984,-0.138,0.630,-2.380,-1.190
1743419921.7092822,-0.152,0.986,-0.140,0.700,-2.450,-0.980
1743419921.7385468,-0.148,0.983,-0.137,0.840,-2.450,-0.770
1743419921.7532978,-0.151,0.984,-0.139,0.980,-2.380,-0.490
1743419921.7837539,-0.153,0.984,-0.140,1.120,-2.240,-0.490
1743419921.812643,-0.152,0.983,-0.140,0.910,-2.310,-0.630
1743419921.858034,-0.153,0.984,-0.136,0.840,-2.380,-0.840
1743419921.873528,-0.150,0.984,-0.139,0.840,-2.450,-0.770
1743419921.902595,-0.152,0.982,-0.134,0.910,-2.450,-0.770
1743419921.9345431,-0.151,0.983,-0.136,0.700,-2.520,-1.120
1743419921.9632158,-0.152,0.986,-0.139,0.770,-2.520,-0.980
1743419921.992738,-0.152,0.985,-0.135,0.630,-2.730,-0.770
1743419922.008427,-0.152,0.984,-0.138,0.700,-2.940,-0.770
1743419922.039171,-0.151,0.984,-0.139,0.770,-2.940,-0.840
1743419922.067204,-0.154,0.984,-0.141,0.910,-2.590,-0.700
1743419922.097874,-0.151,0.983,-0.139,0.910,-2.310,-1.120
1743419922.128074,-0.152,0.985,-0.137,0.910,-2.170,-0.980
1743419922.160288,-0.150,0.985,-0.136,1.120,-2.100,-0.910
1743419922.188705,-0.151,0.983,-0.138,1.050,-2.450,-0.630
1743419922.218709,-0.154,0.986,-0.138,0.840,-2.730,-0.560
1743419922.232785,-0.154,0.984,-0.138,0.770,-2.800,-0.630
1743419922.262632,-0.153,0.984,-0.140,0.770,-2.730,-0.840
1743419922.294028,-0.151,0.984,-0.139,0.700,-2.590,-0.980
1743419922.323328,-0.152,0.985,-0.137,0.770,-2.380,-1.190
1743419922.352149,-0.152,0.986,-0.136,0.770,-2.310,-1.120
1743419922.382568,-0.150,0.986,-0.138,0.910,-2.450,-0.840
1743419922.412801,-0.152,0.986,-0.137,0.910,-2.730,-0.420
1743419922.443378,-0.153,0.985,-0.137,0.980,-2.800,-0.420
1743419922.47297,-0.152,0.983,-0.138,0.770,-2.730,-0.630
1743419922.5034041,-0.151,0.985,-0.136,0.910,-2.380,-0.910
1743419922.517986,-0.152,0.985,-0.138,0.840,-2.030,-1.330
1743419922.547394,-0.150,0.985,-0.137,0.910,-2.100,-1.190
1743419922.577365,-0.150,0.988,-0.137,0.980,-2.520,-0.630
1743419922.6095328,-0.153,0.986,-0.138,0.910,-2.870,-0.280
1743419922.6386602,-0.151,0.985,-0.139,0.910,-2.940,-0.350
1743419922.667221,-0.151,0.982,-0.139,0.910,-2.590,-0.630
1743419922.6977909,-0.153,0.983,-0.136,0.840,-2.520,-1.050
1743419922.728331,-0.148,0.987,-0.138,0.560,-2.380,-1.120
1743419922.773759,-0.151,0.984,-0.135,0.700,-2.660,-1.190
1743419922.77441,-0.151,0.986,-0.138,0.770,-2.520,-0.840
1743419922.804224,-0.154,0.986,-0.140,0.840,-2.450,-0.700
1743419922.8334,-0.152,0.985,-0.140,0.980,-2.450,-0.630
1743419922.86328,-0.152,0.985,-0.137,0.980,-2.450,-0.350
1743419922.8927848,-0.152,0.983,-0.135,0.980,-2.520,-0.560
1743419922.923553,-0.152,0.982,-0.136,0.910,-2.590,-0.980
1743419922.953465,-0.152,0.984,-0.139,0.770,-2.310,-1.050
1743419922.983843,-0.149,0.984,-0.135,0.700,-2.240,-0.980
1743419923.0122628,-0.150,0.986,-0.138,0.770,-2.520,-1.050
1743419923.027366,-0.150,0.986,-0.137,0.840,-2.940,-0.490
1743419923.058217,-0.154,0.984,-0.137,0.910,-2.870,-0.350
1743419923.088651,-0.150,0.985,-0.140,0.840,-2.660,-0.630
1743419923.118415,-0.153,0.985,-0.138,0.770,-2.380,-1.050
1743419923.147918,-0.151,0.985,-0.138,0.840,-2.310,-1.120
1743419923.177757,-0.151,0.984,-0.139,0.910,-2.310,-1.120
1743419923.208655,-0.150,0.988,-0.140,0.910,-2.590,-0.910
1743419923.22368,-0.150,0.985,-0.136,1.050,-2.520,-0.350
1743419923.253029,-0.152,0.983,-0.141,0.910,-2.590,-0.420
1743419923.28403,-0.152,0.985,-0.136,0.840,-2.660,-0.770
1743419923.312854,-0.153,0.987,-0.136,0.700,-2.520,-0.700
1743419923.34211,-0.151,0.984,-0.137,0.630,-2.450,-0.910
1743419923.372807,-0.151,0.985,-0.138,0.490,-2.520,-1.190
1743419923.4016068,-0.150,0.985,-0.139,0.840,-2.450,-0.910
1743419923.432975,-0.149,0.985,-0.138,1.120,-2.450,-0.700
1743419923.464154,-0.151,0.983,-0.139,0.840,-2.520,-0.700
1743419923.4783769,-0.152,0.986,-0.139,0.910,-2.730,-0.490
1743419923.507849,-0.152,0.985,-0.136,0.840,-2.800,-0.560
1743419923.539007,-0.152,0.982,-0.138,0.630,-2.660,-1.050
1743419923.5680041,-0.153,0.984,-0.138,0.700,-2.520,-1.260
1743419923.597611,-0.150,0.985,-0.140,0.840,-2.100,-1.260
1743419923.627458,-0.151,0.984,-0.137,0.980,-2.240,-0.840
1743419923.658756,-0.152,0.986,-0.138,1.120,-2.380,-0.700
1743419923.673755,-0.151,0.987,-0.137,1.050,-2.730,-0.140
1743419923.704291,-0.153,0.982,-0.139,0.840,-2.800,-0.350
1743419923.7333708,-0.151,0.981,-0.137,0.840,-2.730,-0.840
1743419923.762979,-0.154,0.983,-0.139,0.700,-2.520,-1.190
1743419923.793806,-0.149,0.984,-0.138,0.700,-2.380,-1.400
1743419923.824654,-0.150,0.987,-0.139,0.700,-2.520,-1.050
1743419923.8560681,-0.151,0.986,-0.139,0.840,-2.660,-0.840
1743419923.882987,-0.151,0.985,-0.138,0.910,-2.590,-0.350
1743419923.9126348,-0.153,0.983,-0.136,1.050,-2.520,-0.700
1743419923.926801,-0.152,0.984,-0.136,0.700,-2.380,-0.910
1743419923.957387,-0.153,0.984,-0.136,0.700,-2.660,-1.190
1743419923.9867442,-0.155,0.988,-0.137,0.840,-2.520,-0.700
1743419924.01761,-0.148,0.982,-0.137,1.050,-2.240,-0.700
1743419924.047323,-0.151,0.987,-0.136,1.050,-2.170,-1.120
1743419924.077597,-0.152,0.986,-0.138,0.910,-2.310,-0.560
1743419924.107722,-0.152,0.985,-0.137,0.980,-2.730,-0.350
1743419924.140277,-0.152,0.985,-0.138,0.700,-3.010,-0.630
1743419924.168077,-0.154,0.985,-0.139,0.770,-2.940,-0.630
1743419924.197898,-0.155,0.982,-0.139,0.700,-2.310,-0.980
1743419924.22909,-0.150,0.982,-0.140,0.700,-2.030,-1.750
1743419924.258722,-0.150,0.989,-0.138,0.700,-2.030,-1.400
1743419924.272371,-0.150,0.988,-0.137,1.190,-2.450,-0.140
1743419924.3034592,-0.151,0.987,-0.136,1.050,-3.080,0.000
1743419924.333571,-0.156,0.986,-0.138,0.840,-3.010,0.070
1743419924.3622332,-0.153,0.980,-0.139,0.630,-2.660,-0.840
1743419924.391947,-0.151,0.983,-0.137,0.490,-2.100,-2.100
1743419924.423847,-0.151,0.983,-0.138,0.560,-1.890,-1.820
1743419924.452884,-0.150,0.988,-0.134,0.840,-2.170,-0.910
1743419924.48434,-0.148,0.987,-0.138,0.980,-2.870,-0.070
1743419924.500182,-0.152,0.983,-0.136,0.630,-2.940,0.070
1743419924.5272,-0.155,0.984,-0.138,0.700,-2.870,-0.420
1743419924.5588238,-0.151,0.978,-0.140,0.210,-2.660,-1.540
1743419924.589077,-0.155,0.987,-0.140,1.050,-2.590,-1.750
1743419924.617465,-0.153,0.986,-0.138,1.190,-2.100,-0.700
1743419924.6479502,-0.148,0.981,-0.137,1.050,-2.380,-0.630
1743419924.678198,-0.152,0.989,-0.138,0.910,-2.520,-0.630
1743419924.7073438,-0.152,0.985,-0.138,1.050,-2.450,-0.280
1743419924.739506,-0.152,0.983,-0.136,0.840,-2.590,-0.420
1743419924.769336,-0.152,0.985,-0.140,0.630,-2.940,-0.910
1743419924.7986372,-0.156,0.986,-0.141,0.840,-2.730,-0.840
1743419924.828701,-0.151,0.981,-0.138,0.490,-2.450,-1.260
1743419924.858451,-0.152,0.986,-0.139,0.840,-2.240,-1.750
1743419924.874159,-0.149,0.987,-0.139,0.980,-1.960,-0.840
1743419924.904115,-0.150,0.986,-0.135,1.050,-2.380,-0.280
1743419924.934253,-0.149,0.983,-0.138,1.050,-3.150,0.000
1743419924.963368,-0.156,0.985,-0.139,0.840,-3.150,0.070
1743419924.9922519,-0.156,0.978,-0.141,0.840,-2.660,-0.910
1743419925.023065,-0.154,0.981,-0.143,0.840,-2.100,-2.030
1743419925.054284,-0.151,0.984,-0.134,0.840,-1.610,-2.100
1743419925.0843892,-0.149,0.989,-0.135,1.050,-2.100,-0.910
1743419925.113004,-0.149,0.986,-0.136,1.190,-2.660,0.000
1743419925.127915,-0.152,0.986,-0.137,0.840,-3.430,0.210
1743419925.159909,-0.157,0.982,-0.138,0.700,-3.290,0.070
1743419925.1887841,-0.155,0.979,-0.138,0.700,-2.590,-0.980
1743419925.2178078,-0.155,0.985,-0.140,0.560,-2.030,-2.100
1743419925.249699,-0.149,0.988,-0.137,0.630,-1.680,-2.030
1743419925.278207,-0.149,0.990,-0.136,0.910,-2.030,-1.050
1743419925.3231208,-0.150,0.987,-0.138,1.120,-2.660,-0.070
1743419925.33871,-0.152,0.984,-0.137,1.190,-3.080,0.210
1743419925.368185,-0.154,0.982,-0.138,1.050,-2.800,-0.070
1743419925.382611,-0.154,0.980,-0.139,0.770,-2.310,-0.980
1743419925.414588,-0.154,0.981,-0.141,0.630,-2.310,-1.610
1743419925.4443488,-0.152,0.987,-0.138,1.190,-2.100,-1.330
1743419925.472882,-0.149,0.985,-0.136,0.700,-2.310,-1.120
1743419925.503596,-0.150,0.987,-0.136,0.770,-2.800,-0.840
1743419925.533602,-0.154,0.989,-0.136,0.910,-2.660,17.850
1743419925.548627,-0.151,0.982,-0.139,0.910,-2.940,-0.350
1743419925.5789812,-0.151,0.984,-0.139,0.630,-2.870,-1.050
1743419925.609185,-0.155,0.983,-0.140,1.050,-2.660,-0.840
1743419925.638433,-0.154,0.986,-0.140,1.120,-2.170,-0.980
1743419925.669307,-0.150,0.983,-0.138,0.910,-2.030,-1.400
1743419925.697956,-0.151,0.986,-0.135,1.050,-2.170,-1.120
1743419925.7122219,-0.151,0.987,-0.137,1.050,-2.310,-0.350
1743419925.743308,-0.149,0.983,-0.136,0.840,-2.870,-0.280
1743419925.7715771,-0.154,0.983,-0.139,0.770,-3.080,-0.350
1743419925.8026052,-0.154,0.983,-0.135,0.770,-2.660,-0.700
1743419925.833513,-0.154,0.981,-0.138,0.700,-2.240,-1.260
1743419925.864097,-0.153,0.983,-0.135,0.560,-2.030,-1.750
1743419925.8922439,-0.151,0.987,-0.140,0.980,-1.960,-1.050
1743419925.908344,-0.148,0.987,-0.138,1.050,-2.380,-0.560
1743419925.938019,-0.153,0.986,-0.136,0.700,-2.940,0.070
1743419925.967693,-0.152,0.985,-0.138,0.840,-3.080,-0.350
1743419925.99816,-0.154,0.983,-0.140,0.980,-2.660,-0.630
1743419926.028239,-0.152,0.982,-0.136,0.770,-2.100,-1.400
1743419926.0585659,-0.154,0.986,-0.138,0.770,-1.960,-1.680
1743419926.089639,-0.152,0.987,-0.136,0.840,-2.100,-1.190
1743419926.103765,-0.151,0.986,-0.137,1.190,-2.730,-0.980
1743419926.132628,-0.151,0.987,-0.137,0.490,-2.940,-0.140
1743419926.1634839,-0.154,0.984,-0.139,0.630,-3.220,-0.070
1743419926.193324,-0.152,0.979,-0.139,0.700,-3.010,-0.980
1743419926.223555,-0.154,0.984,-0.140,0.630,-2.170,-1.820
1743419926.2534819,-0.151,0.986,-0.139,0.700,-1.680,-1.680
1743419926.2845829,-0.148,0.987,-0.138,0.980,-1.960,-1.330
1743419926.3134332,-0.149,0.989,-0.137,1.050,-2.520,-0.490
1743419926.3445399,-0.153,0.987,-0.137,1.260,-3.010,0.350
1743419926.359475,-0.155,0.980,-0.140,1.330,-3.080,-0.560
1743419926.388132,-0.156,0.982,-0.135,1.680,-2.590,-0.560
1743419926.418591,-0.153,0.985,-0.139,0.070,-2.240,-1.050
1743419926.4486551,-0.148,0.982,-0.136,0.210,-2.450,-1.890
1743419926.477231,-0.150,0.988,-0.141,0.350,-2.520,-1.820
1743419926.508895,-0.150,0.988,-0.138,0.840,-2.310,-0.420
1743419926.543638,-0.147,0.984,-0.133,0.980,-2.310,-0.630
1743419926.553052,-0.155,0.990,-0.135,0.000,-2.940,0.280
1743419926.61474,-0.151,0.978,-0.139,1.400,-2.590,0.140
1743419926.615552,-0.153,0.981,-0.139,0.840,-2.450,-1.750
1743419926.644089,-0.155,0.989,-0.139,0.840,-2.100,-1.330
1743419926.674765,-0.151,0.984,-0.137,0.770,-1.960,-0.980
1743419926.703535,-0.147,0.983,-0.133,0.490,-2.660,-1.610
1743419926.732878,-0.151,0.987,-0.137,0.630,-2.940,-0.630
1743419926.7488341,-0.155,0.986,-0.140,0.980,-2.940,0.210
1743419926.778569,-0.153,0.980,-0.137,0.840,-2.800,-0.420
1743419926.824828,-0.153,0.984,-0.138,0.700,-2.520,-1.260
1743419926.8389518,-0.155,0.984,-0.139,0.910,-2.030,-0.980
1743419926.868602,-0.151,0.985,-0.138,0.910,-2.100,-1.190
1743419926.897815,-0.150,0.986,-0.137,0.700,-2.310,-1.400
1743419926.928355,-0.153,0.988,-0.137,1.050,-2.380,-1.260
1743419926.959127,-0.152,0.981,-0.141,1.960,-3.080,-0.140
1743419926.987,-0.152,0.983,-0.138,1.050,-3.080,-0.630
1743419927.003338,-0.155,0.984,-0.140,0.980,-2.240,-0.560
1743419927.0331461,-0.150,0.981,-0.137,0.840,-1.610,-0.980
1743419927.06367,-0.149,0.986,-0.136,0.560,-2.450,-1.750
1743419927.095094,-0.154,0.990,-0.139,0.770,-2.800,-0.280
1743419927.1240299,-0.150,0.981,-0.142,0.770,-2.870,0.210
1743419927.153087,-0.144,0.976,-0.138,-0.350,-3.290,-2.380
1743419927.1845949,-0.160,0.994,-0.143,1.330,-3.080,-0.770
1743419927.2132092,-0.153,0.982,-0.142,1.470,-1.400,0.910
1743419927.227315,-0.145,0.975,-0.139,0.700,-2.520,-2.170
1743419927.257772,-0.158,0.992,-0.143,0.700,-2.590,-1.960
1743419927.288737,-0.154,0.991,-0.142,1.680,-1.680,0.700
1743419927.318552,-0.145,0.974,-0.136,1.120,-1.960,-1.120
1743419927.3498602,-0.150,0.985,-0.138,0.560,-2.590,-2.450
1743419927.3797069,-0.157,0.996,-0.140,1.050,-2.590,0.070
1743419927.40826,-0.147,0.976,-0.136,0.840,-2.940,0.700
1743419927.424221,-0.150,0.977,-0.141,0.000,-3.850,-2.100
1743419927.4525352,-0.160,0.991,-0.143,0.560,-2.940,-1.260
1743419927.482945,-0.151,0.982,-0.142,1.050,-1.540,-0.420
1743419927.513233,-0.143,0.980,-0.138,0.560,-2.170,-2.520
1743419927.543096,-0.156,0.993,-0.141,0.840,-2.800,-1.610
1743419927.5722198,-0.157,0.992,-0.142,1.610,-2.660,1.540
1743419927.603046,-0.148,0.975,-0.142,1.050,-3.080,0.350
1743419927.634238,-0.156,0.983,-0.143,0.700,-3.010,-2.100
1743419927.6518211,-0.160,0.990,-0.142,1.330,-1.330,-0.700
1743419927.677448,-0.148,0.979,-0.137,0.980,-1.190,-1.190
1743419927.70835,-0.149,0.983,-0.138,0.560,-2.520,-2.310
1743419927.737328,-0.154,0.995,-0.142,0.910,-3.080,-0.490
1743419927.7680361,-0.153,0.985,-0.142,1.260,-2.870,1.120
1743419927.7830532,-0.150,0.975,-0.138,0.420,-3.220,-0.840
1743419927.8126059,-0.157,0.988,-0.142,0.210,-3.220,-2.030
1743419927.84319,-0.155,0.989,-0.144,1.050,-2.170,-0.210
1743419927.8880582,-0.145,0.976,-0.141,0.490,-2.100,-1.400
1743419927.902035,-0.152,0.989,-0.141,0.560,-2.800,-2.170
1743419927.933454,-0.157,0.996,-0.142,1.540,-2.240,0.560
1743419927.963113,-0.150,0.979,-0.139,1.470,-2.030,1.190
1743419927.993094,-0.147,0.975,-0.141,0.560,-2.730,-2.310
1743419928.023249,-0.157,0.993,-0.144,0.980,-1.960,-1.400
1743419928.0386949,-0.149,0.986,-0.137,1.400,-1.330,0.420
1743419928.068367,-0.146,0.977,-0.135,0.420,-3.080,-1.400
1743419928.098787,-0.158,0.994,-0.144,0.420,-4.130,-0.770
1743419928.129032,-0.159,0.982,-0.141,1.190,-2.450,0.980
1743419928.174251,-0.144,0.974,-0.138,0.420,-1.890,-2.730
1743419928.188311,-0.149,0.989,-0.140,0.350,-1.820,-3.500
1743419928.218457,-0.154,0.996,-0.138,1.050,-2.240,0.210
1743419928.248229,-0.148,0.981,-0.138,1.050,-3.780,1.750
1743419928.277191,-0.152,0.978,-0.144,0.560,-4.410,-0.490
1743419928.308914,-0.157,0.983,-0.145,0.980,-2.100,-1.470
1743419928.3371909,-0.148,0.982,-0.139,1.260,-0.070,-2.100
1743419928.368047,-0.144,0.985,-0.136,0.770,-1.330,-2.660
1743419928.381751,-0.154,0.996,-0.138,1.050,-3.360,0.350
1743419928.412535,-0.154,0.986,-0.139,1.330,-3.920,2.660
1743419928.441785,-0.151,0.972,-0.141,0.490,-3.850,-0.210
1743419928.472725,-0.158,0.983,-0.142,0.350,-2.170,-3.010
1743419928.5023072,-0.155,0.988,-0.139,0.910,-0.490,-2.170
1743419928.5345962,-0.148,0.984,-0.136,0.700,-1.260,-1.960
1743419928.562877,-0.150,0.991,-0.138,0.560,-3.570,-0.840
1743419928.577004,-0.158,0.991,-0.142,1.050,-3.990,1.610
1743419928.608193,-0.154,0.976,-0.141,0.980,-3.430,0.840
1743419928.638165,-0.152,0.975,-0.142,0.350,-2.450,-2.310
1743419928.668513,-0.157,0.987,-0.145,0.490,-1.750,-2.730
1743419928.698941,-0.155,0.991,-0.138,1.120,-1.540,-0.630
1743419928.7145631,-0.145,0.980,-0.139,0.840,-2.520,-0.560
1743419928.74344,-0.153,0.984,-0.139,1.120,-3.010,-0.840
1743419928.774515,-0.155,0.984,-0.139,1.330,-1.610,0.000
1743419928.803491,-0.152,0.984,-0.138,1.400,-2.310,-0.070
1743419928.8330529,-0.155,0.981,-0.141,0.700,-3.010,-0.490
1743419928.863766,-0.157,0.985,-0.140,0.630,-3.570,-0.840
1743419928.87807,-0.159,0.984,-0.143,0.560,-2.380,-0.140
1743419928.9077802,-0.126,0.956,-0.142,0.980,-0.560,-3.430
1743419928.9385228,-0.169,1.024,-0.133,-0.210,-5.810,-2.100
1743419928.978105,-0.124,0.975,-0.136,-3.990,5.110,0.490
1743419928.999922,-0.159,1.001,-0.144,6.580,-9.310,-0.280
1743419929.028123,-0.188,1.011,-0.147,2.450,1.680,10.150
1743419929.057628,-0.095,0.895,-0.123,-3.080,-7.910,-9.590
1743419929.0881972,-0.209,1.063,-0.163,0.840,-4.270,-4.270
1743419929.1030269,-0.132,0.954,-0.135,0.770,3.990,3.360
1743419929.133152,-0.115,0.955,-0.128,-0.630,-4.900,-8.610
1743419929.163712,-0.178,1.037,-0.151,-0.070,-4.970,0.770
1743419929.192526,-0.158,0.978,-0.148,3.080,-3.640,8.330
1743419929.224662,-0.155,0.958,-0.145,3.220,-2.380,2.170
1743419929.252491,-0.150,0.964,-0.144,0.770,0.840,-6.020
1743419929.269299,-0.163,1.005,-0.138,2.450,2.240,-4.760
1743419929.299158,-0.146,0.993,-0.126,1.470,0.980,0.770
1743419929.329184,-0.133,0.977,-0.128,-0.770,-7.490,-1.330
1743419929.358618,-0.176,1.009,-0.146,-0.420,-9.310,3.500
1743419929.38874,-0.165,0.973,-0.150,0.210,-5.110,4.480
1743419929.418827,-0.144,0.949,-0.148,-0.910,-2.940,-6.020
1743419929.449755,-0.152,0.991,-0.147,-1.190,0.420,-10.080
1743419929.463278,-0.154,1.013,-0.142,1.960,1.190,-1.890
1743419929.493149,-0.140,0.996,-0.133,2.940,-1.050,4.130
1743419929.52404,-0.136,0.970,-0.135,1.400,-5.320,1.890
1743419929.553716,-0.167,0.991,-0.148,1.050,-6.020,1.470
1743419929.5831969,-0.176,0.983,-0.149,2.240,-2.240,3.150
1743419929.6134222,-0.148,0.958,-0.142,0.490,0.000,-3.570
1743419929.628481,-0.153,0.991,-0.140,-0.210,0.070,-7.700
1743419929.657622,-0.161,1.013,-0.137,2.100,0.140,-0.840
1743419929.689326,-0.139,0.981,-0.129,1.610,-1.820,2.730
1743419929.718548,-0.133,0.972,-0.130,-0.700,-6.160,-1.120
1743419929.749162,-0.168,1.001,-0.146,0.210,-7.070,0.910
1743419929.77891,-0.164,0.978,-0.147,1.050,-3.010,3.640
1743419929.8092759,-0.142,0.956,-0.141,-0.910,-2.450,-4.900
1743419929.837972,-0.163,0.999,-0.149,-0.350,-1.680,-5.880
1743419929.869615,-0.156,0.999,-0.139,2.170,0.280,1.540
1743419929.883839,-0.130,0.972,-0.134,1.470,-1.610,-0.280
1743419929.912571,-0.150,0.992,-0.140,1.050,-4.200,-1.680
1743419929.942898,-0.169,0.999,-0.143,2.380,-2.730,3.920
1743419929.9743202,-0.151,0.968,-0.141,1.540,-2.380,1.820
1743419930.002481,-0.150,0.970,-0.142,-0.210,-3.360,-4.130
1743419930.018251,-0.168,1.000,-0.147,0.630,-1.890,-3.150
1743419930.050056,-0.152,0.985,-0.138,1.540,0.140,0.000
1743419930.077461,-0.136,0.974,-0.131,0.280,-1.820,-3.570
1743419930.108157,-0.153,1.001,-0.140,0.350,-4.060,-1.330
1743419930.138029,-0.160,0.996,-0.140,1.540,-4.060,4.340
1743419930.168174,-0.147,0.967,-0.141,0.700,-4.690,2.310
1743419930.198739,-0.156,0.975,-0.146,-0.490,-4.620,-3.360
1743419930.213973,-0.166,0.995,-0.150,0.910,-1.330,-2.100
1743419930.243783,-0.147,0.981,-0.140,1.330,1.120,-1.750
1743419930.2736619,-0.137,0.981,-0.136,0.770,-1.050,-4.340
1743419930.302336,-0.155,1.005,-0.139,1.540,-2.660,-0.210
1743419930.333131,-0.155,0.993,-0.138,2.380,-3.220,4.760
1743419930.363861,-0.147,0.968,-0.138,0.700,-4.480,1.050
1743419930.393975,-0.165,0.981,-0.145,0.000,-3.640,-2.800
1743419930.407826,-0.162,0.988,-0.143,0.840,-0.560,-1.190
1743419930.454852,-0.143,0.975,-0.135,0.350,-0.490,-3.430
1743419930.469431,-0.147,0.993,-0.138,0.000,-2.660,-4.130
1743419930.4981382,-0.157,1.004,-0.141,1.330,-2.870,1.680
1743419930.528975,-0.149,0.976,-0.139,1.610,-3.360,3.010
1743419930.5585651,-0.148,0.972,-0.140,0.350,-4.270,-0.700
1743419930.5875149,-0.165,0.990,-0.146,0.700,-3.430,-1.260
1743419930.618334,-0.157,0.982,-0.145,1.120,-1.120,0.000
1743419930.6334689,-0.145,0.974,-0.140,0.210,-1.470,-3.640
1743419930.663499,-0.155,0.998,-0.141,0.700,-1.680,-2.940
1743419930.694172,-0.153,0.994,-0.137,1.890,-1.120,1.400
1743419930.722944,-0.141,0.977,-0.135,1.120,-2.870,0.140
1743419930.753528,-0.158,0.989,-0.138,0.560,-4.480,-0.490
1743419930.783885,-0.165,0.986,-0.144,0.910,-3.290,1.680
1743419930.81411,-0.149,0.970,-0.142,0.280,-2.450,-1.470
1743419930.8426938,-0.152,0.980,-0.143,-0.140,-2.310,-4.760
1743419930.872471,-0.158,0.998,-0.144,0.770,-0.980,-2.450
1743419930.904324,-0.147,0.986,-0.136,1.400,-1.330,0.140
1743419930.9336,-0.145,0.983,-0.138,0.700,-3.920,-0.490
1743419930.962094,-0.161,0.993,-0.143,1.190,-4.410,1.680
1743419930.9928021,-0.156,0.976,-0.144,1.190,-2.940,1.540
1743419931.0075572,-0.152,0.973,-0.142,0.140,-2.030,-3.500
1743419931.0387409,-0.161,0.993,-0.142,0.560,-0.910,-3.640
1743419931.06923,-0.149,0.994,-0.135,1.330,-0.420,-0.770
1743419931.098869,-0.140,0.982,-0.135,0.980,-2.660,-0.770
1743419931.128611,-0.156,0.994,-0.139,0.910,-4.130,0.280
1743419931.159055,-0.160,0.988,-0.143,1.330,-3.500,2.310
1743419931.188011,-0.151,0.972,-0.142,0.630,-3.010,-0.210
1743419931.2187352,-0.158,0.979,-0.143,-0.140,-2.730,-3.290
1743419931.234134,-0.159,0.994,-0.143,0.490,-1.680,-1.890
1743419931.2624269,-0.149,0.984,-0.138,0.840,-1.260,-1.120
1743419931.292759,-0.147,0.984,-0.136,0.630,-2.450,-1.960
1743419931.324652,-0.154,0.995,-0.141,1.190,-2.800,0.140
1743419931.353604,-0.153,0.981,-0.140,1.470,-2.800,1.610
1743419931.383811,-0.151,0.976,-0.141,0.630,-3.360,-0.630
1743419931.413484,-0.160,0.983,-0.145,0.490,-3.150,-1.610
1743419931.4432268,-0.159,0.985,-0.143,0.910,-1.680,-0.630
1743419931.459092,-0.147,0.978,-0.137,0.840,-1.260,-2.380
1743419931.488377,-0.149,0.991,-0.137,0.630,-1.890,-2.940
1743419931.518395,-0.154,0.997,-0.138,1.400,-2.380,0.560
1743419931.548397,-0.150,0.980,-0.138,1.050,-3.360,1.260
1743419931.5785291,-0.154,0.978,-0.140,0.490,-4.340,-0.490
1743419931.608541,-0.163,0.985,-0.146,0.700,-3.150,-0.560
1743419931.638689,-0.157,0.979,-0.144,0.770,-1.610,-1.190
1743419931.6673431,-0.149,0.979,-0.142,0.490,-1.260,-3.430
1743419931.6984682,-0.153,0.995,-0.138,0.770,-1.750,-1.890
1743419931.728353,-0.150,0.990,-0.139,1.470,-2.520,1.330
1743419931.7584388,-0.150,0.976,-0.140,0.840,-3.920,0.420
1743419931.788922,-0.158,0.985,-0.141,0.770,-3.430,-0.210
1743419931.803118,-0.159,0.981,-0.142,0.910,-1.960,-0.350
1743419931.832474,-0.151,0.977,-0.140,0.490,-1.610,-2.310
1743419931.862359,-0.153,0.990,-0.142,0.490,-2.030,-2.730
1743419931.8947892,-0.153,0.992,-0.138,1.190,-2.170,0.000
1743419931.9237351,-0.144,0.983,-0.139,0.910,-2.730,0.070
1743419931.951914,-0.152,0.984,-0.141,0.700,-3.570,-0.840
1743419931.983813,-0.157,0.987,-0.144,1.050,-3.010,0.210
1743419932.0131562,-0.155,0.980,-0.141,0.980,-2.520,-0.350
1743419932.042567,-0.154,0.979,-0.142,0.420,-2.450,-2.240
1743419932.0735629,-0.157,0.989,-0.142,0.980,-1.890,-1.610
1743419932.103283,-0.149,0.984,-0.137,1.190,-1.540,-0.770
1743419932.133037,-0.148,0.983,-0.138,0.980,-2.520,-1.190
1743419932.163123,-0.156,0.988,-0.137,0.980,-3.150,0.140
1743419932.1777039,-0.154,0.984,-0.141,0.980,-3.080,1.120
1743419932.208416,-0.152,0.976,-0.144,0.560,-3.150,-1.120
1743419932.238341,-0.159,0.984,-0.142,0.700,-2.450,-2.030
1743419932.26879,-0.154,0.987,-0.141,0.840,-1.330,-1.470
1743419932.2980108,-0.148,0.983,-0.139,0.840,-1.540,-1.540
1743419932.3297799,-0.149,0.991,-0.138,0.770,-2.730,-1.190
1743419932.404144,-0.155,0.989,-0.140,1.190,-3.290,0.910
1743419932.405152,-0.154,0.979,-0.140,0.910,-3.290,0.700
1743419932.405649,-0.154,0.978,-0.142,0.630,-2.870,-1.330
1743419932.432792,-0.159,0.986,-0.142,0.840,-1.820,-1.680
1743419932.462799,-0.153,0.984,-0.140,0.980,-1.260,-1.470
1743419932.4934242,-0.146,0.983,-0.139,0.700,-2.310,-1.750
1743419932.5238988,-0.152,0.991,-0.137,0.980,-2.800,-0.490
1743419932.552618,-0.155,0.985,-0.138,1.260,-2.870,0.770
1743419932.5828302,-0.152,0.977,-0.139,0.910,-3.010,-0.280
1743419932.612829,-0.158,0.986,-0.140,0.560,-2.800,-1.400
1743419932.6280751,-0.159,0.985,-0.142,0.910,-2.100,-0.980
1743419932.702521,-0.150,0.982,-0.138,0.560,-1.960,-1.400
1743419932.703562,-0.150,0.985,-0.140,0.560,-2.380,-1.820
1743419932.717898,-0.152,0.991,-0.141,1.120,-2.240,-0.140
1743419932.748291,-0.150,0.982,-0.137,1.190,-2.520,0.140
1743419932.779167,-0.151,0.982,-0.140,0.770,-3.080,-0.630
1743419932.808712,-0.159,0.986,-0.142,0.770,-3.010,-0.560
1743419932.8390222,-0.155,0.983,-0.142,0.840,-2.380,-0.420
1743419932.8545878,-0.151,0.979,-0.141,0.630,-2.170,-2.030
1743419932.883651,-0.153,0.987,-0.140,0.840,-1.960,-1.960
1743419932.9137752,-0.150,0.988,-0.137,1.120,-1.890,-0.490
1743419932.943837,-0.149,0.984,-0.138,0.980,-2.870,-0.210
1743419933.019072,-0.155,0.986,-0.140,0.840,-3.500,0.000
1743419933.020334,-0.156,0.984,-0.143,0.910,-2.940,0.070
1743419933.033809,-0.154,0.977,-0.141,0.700,-2.170,-1.540
1743419933.0629199,-0.152,0.985,-0.142,0.560,-1.890,-2.240
1743419933.0929868,-0.154,0.991,-0.141,0.840,-1.750,-1.470
1743419933.123359,-0.150,0.988,-0.138,0.980,-2.380,-0.350
1743419933.1535249,-0.153,0.984,-0.140,0.910,-3.290,-0.420
1743419933.184706,-0.156,0.984,-0.141,0.980,-3.010,0.070
1743419933.198936,-0.155,0.982,-0.141,0.910,-2.590,-0.280
1743419933.228708,-0.153,0.982,-0.141,0.630,-2.240,-1.890
1743419933.288547,-0.155,0.987,-0.141,0.700,-2.100,-1.610
1743419933.2889001,-0.153,0.986,-0.141,1.120,-2.100,-0.700
1743419933.3171809,-0.149,0.982,-0.141,0.910,-2.590,-0.770
1743419933.347459,-0.153,0.987,-0.141,0.840,-2.870,-0.630
1743419933.3776598,-0.154,0.986,-0.142,0.980,-2.660,0.000
1743419933.406825,-0.153,0.980,-0.140,0.770,-2.660,-0.700
1743419933.4390159,-0.156,0.985,-0.141,0.630,-2.660,-1.330
1743419933.4686542,-0.156,0.986,-0.143,0.980,-2.170,-0.980
1743419933.4981408,-0.151,0.983,-0.139,0.840,-1.960,-1.190
1743419933.528228,-0.152,0.988,-0.139,0.770,-2.380,-1.260
1743419933.604361,-0.153,0.990,-0.142,1.120,-2.520,-0.210
1743419933.605435,-0.153,0.981,-0.140,0.980,-3.080,0.140
1743419933.605937,-0.155,0.982,-0.140,0.630,-3.010,-0.840
1743419933.63346,-0.155,0.983,-0.142,0.840,-2.380,-1.050
1743419933.6641889,-0.153,0.983,-0.141,0.840,-1.820,-1.400
1743419933.694402,-0.150,0.985,-0.138,0.700,-2.100,-1.750
1743419933.723758,-0.152,0.990,-0.141,0.980,-2.520,-0.630
1743419933.75365,-0.151,0.986,-0.138,1.050,-2.940,0.280
1743419933.7833862,-0.152,0.981,-0.139,0.770,-3.150,-0.210
1743419933.813836,-0.158,0.984,-0.143,0.770,-2.870,-0.980
1743419933.82726,-0.157,0.983,-0.141,0.840,-2.100,-1.050
1743419933.904696,-0.153,0.983,-0.140,0.770,-2.100,-1.540
1743419933.9057448,-0.151,0.987,-0.137,0.840,-2.240,-1.400
1743419933.918498,-0.151,0.988,-0.139,0.910,-2.520,-0.560
1743419933.949195,-0.152,0.984,-0.140,0.980,-2.660,-0.070
1743419933.977911,-0.152,0.983,-0.141,0.770,-2.940,-0.630
1743419934.01024,-0.158,0.987,-0.141,0.840,-2.590,-0.700
1743419934.039066,-0.152,0.982,-0.141,0.910,-2.240,-0.840
1743419934.068139,-0.153,0.985,-0.139,0.700,-2.450,-1.470
1743419934.097994,-0.154,0.986,-0.142,0.910,-2.240,-0.980
1743419934.128268,-0.151,0.986,-0.142,0.980,-2.310,-0.420
1743419934.203121,-0.153,0.983,-0.140,0.840,-2.800,-0.700
1743419934.203653,-0.157,0.986,-0.140,0.840,-2.870,-0.350
1743419934.218237,-0.155,0.982,-0.140,0.840,-2.730,-0.420
1743419934.248542,-0.153,0.984,-0.142,0.700,-2.590,-1.330
1743419934.292212,-0.153,0.983,-0.140,0.840,-2.170,-1.470
1743419934.3091772,-0.151,0.984,-0.142,0.980,-1.960,-0.840
1743419934.33809,-0.150,0.984,-0.140,0.910,-2.520,-0.840
1743419934.353569,-0.154,0.987,-0.138,0.840,-2.940,-0.350
1743419934.38418,-0.155,0.984,-0.142,0.980,-2.940,0.000
1743419934.414763,-0.153,0.980,-0.141,0.770,-2.730,-0.840
1743419934.4429498,-0.153,0.984,-0.139,0.700,-2.310,-1.540
1743419934.488461,-0.156,0.984,-0.141,0.770,-2.030,-1.190
1743419934.503645,-0.151,0.986,-0.138,0.910,-2.240,-0.980
1743419934.533778,-0.155,0.985,-0.140,0.770,-2.660,-0.840
1743419934.5635352,-0.153,0.986,-0.142,0.840,-2.800,-0.420
1743419934.5938282,-0.153,0.980,-0.141,0.980,-2.730,-0.350
1743419934.6078541,-0.155,0.983,-0.141,0.770,-2.590,-1.190
1743419934.637491,-0.156,0.985,-0.140,0.770,-2.240,-1.190
1743419934.668896,-0.154,0.984,-0.142,0.840,-2.310,-0.980
1743419934.698765,-0.152,0.984,-0.139,0.910,-2.450,-1.120
1743419934.7288692,-0.153,0.987,-0.138,0.840,-2.590,-0.630
1743419934.803565,-0.154,0.986,-0.142,0.910,-2.520,-0.280
1743419934.8041139,-0.150,0.982,-0.141,0.910,-2.660,-0.560
1743419934.805701,-0.153,0.984,-0.142,0.840,-2.800,-0.770
1743419934.833429,-0.156,0.987,-0.140,0.840,-2.590,-0.910
1743419934.863915,-0.152,0.983,-0.139,0.770,-2.240,-1.050
1743419934.8935921,-0.153,0.983,-0.140,0.630,-2.240,-1.400
1743419934.9238322,-0.154,0.987,-0.141,0.840,-2.240,-0.980
1743419934.9536588,-0.153,0.987,-0.138,0.980,-2.590,-0.490
1743419934.983281,-0.153,0.984,-0.139,0.840,-2.940,-0.490
1743419935.014692,-0.154,0.983,-0.142,0.770,-2.870,-0.700
1743419935.0434089,-0.155,0.982,-0.141,0.700,-2.310,-0.840
1743419935.103764,-0.153,0.983,-0.139,0.770,-2.170,-1.400
1743419935.1043031,-0.152,0.985,-0.139,0.910,-2.100,-1.190
1743419935.133218,-0.152,0.989,-0.140,0.980,-2.450,-0.490
1743419935.148635,-0.152,0.983,-0.140,0.840,-2.940,-0.420
1743419935.178475,-0.155,0.983,-0.140,0.770,-2.870,-0.420
1743419935.208412,-0.156,0.984,-0.142,0.910,-2.590,-0.630
1743419935.238673,-0.153,0.984,-0.141,0.910,-2.240,-1.120
1743419935.268769,-0.154,0.984,-0.142,0.840,-2.380,-1.330
1743419935.297738,-0.151,0.987,-0.139,0.910,-2.310,-0.980
1743419935.328367,-0.153,0.985,-0.141,1.050,-2.590,-0.490
1743419935.404768,-0.151,0.984,-0.139,0.910,-2.800,-0.560
1743419935.4059799,-0.154,0.985,-0.141,0.840,-2.660,-0.630
1743419935.406519,-0.154,0.984,-0.143,0.770,-2.380,-0.770
1743419935.4349189,-0.152,0.983,-0.141,0.840,-2.520,-1.050
1743419935.464739,-0.153,0.984,-0.142,0.770,-2.520,-1.190
1743419935.494911,-0.152,0.985,-0.139,0.840,-2.310,-0.770
1743419935.525003,-0.150,0.985,-0.143,0.980,-2.310,-0.840
1743419935.567968,-0.154,0.983,-0.141,0.910,-2.590,-0.700
1743419935.58369,-0.153,0.988,-0.141,0.910,-2.730,-0.560
1743419935.613131,-0.155,0.984,-0.140,0.770,-2.730,-0.700
1743419935.6282501,-0.153,0.981,-0.140,0.770,-2.590,-0.980
1743419935.704708,-0.156,0.985,-0.140,0.770,-2.240,-0.980
1743419935.705593,-0.153,0.984,-0.138,0.910,-2.100,-0.910
1743419935.7186618,-0.152,0.984,-0.140,0.770,-2.450,-1.120
1743419935.749351,-0.153,0.987,-0.138,0.980,-2.660,-0.490
1743419935.7785332,-0.154,0.983,-0.140,0.840,-2.800,-0.210
1743419935.808974,-0.153,0.980,-0.143,0.840,-2.730,-0.700
1743419935.8399282,-0.154,0.984,-0.142,0.770,-2.450,-1.120
1743419935.868661,-0.151,0.985,-0.140,0.910,-2.100,-1.050
1743419935.899861,-0.153,0.985,-0.135,0.770,-2.240,-1.120
1743419935.92891,-0.154,0.984,-0.141,0.840,-2.520,-0.700
1743419936.004698,-0.154,0.983,-0.140,0.910,-2.800,-0.420
1743419936.005777,-0.153,0.981,-0.139,0.840,-2.660,-0.630
1743419936.0065038,-0.153,0.983,-0.142,0.700,-2.450,-1.050
1743419936.034445,-0.155,0.985,-0.138,0.840,-2.310,-0.980
1743419936.064082,-0.153,0.985,-0.141,0.770,-2.310,-0.910
1743419936.0929558,-0.151,0.985,-0.141,0.700,-2.450,-1.050
1743419936.123125,-0.153,0.985,-0.142,0.980,-2.450,-0.700
1743419936.152802,-0.153,0.987,-0.138,0.700,-2.520,-0.770
1743419936.184114,-0.154,0.983,-0.137,0.910,-2.660,-0.630
1743419936.1987681,-0.156,0.985,-0.141,0.840,-2.730,-0.630
1743419936.22773,-0.153,0.985,-0.140,0.910,-2.590,-0.700
1743419936.303613,-0.154,0.982,-0.138,0.840,-2.450,-0.980
1743419936.304522,-0.153,0.986,-0.141,0.840,-2.380,-1.120
1743419936.317676,-0.152,0.987,-0.138,0.840,-2.240,-0.910
1743419936.349602,-0.153,0.986,-0.136,0.980,-2.520,-0.630
1743419936.3781602,-0.156,0.985,-0.138,0.840,-2.730,-0.630
1743419936.408554,-0.155,0.986,-0.139,0.840,-2.660,-0.560
1743419936.439018,-0.153,0.983,-0.139,0.840,-2.450,-0.910
1743419936.454785,-0.155,0.984,-0.137,0.770,-2.310,-1.190
1743419936.483514,-0.152,0.984,-0.136,0.700,-2.240,-1.050
1743419936.5136309,-0.155,0.987,-0.136,0.910,-2.450,-0.770
1743419936.542858,-0.153,0.986,-0.136,0.840,-2.730,-0.700
1743419936.604038,-0.154,0.986,-0.136,0.910,-2.730,-0.490
1743419936.605052,-0.153,0.982,-0.140,0.840,-2.590,-0.630
1743419936.619049,-0.155,0.982,-0.138,0.840,-2.520,-1.050
1743419936.649184,-0.152,0.984,-0.136,0.700,-2.380,-1.120
1743419936.679061,-0.154,0.986,-0.137,0.910,-2.450,-0.980
1743419936.708555,-0.154,0.985,-0.137,0.980,-2.520,-0.630
1743419936.738805,-0.151,0.986,-0.135,0.980,-2.660,-0.630
1743419936.768924,-0.154,0.986,-0.135,0.840,-2.590,-0.630
1743419936.783942,-0.153,0.985,-0.137,0.840,-2.520,-0.700
1743419936.8138509,-0.155,0.983,-0.134,0.770,-2.590,-1.050
1743419936.844058,-0.154,0.985,-0.136,0.700,-2.450,-0.980
1743419936.903944,-0.150,0.987,-0.132,0.910,-2.380,-0.840
1743419936.9049852,-0.153,0.985,-0.134,0.770,-2.450,-0.840
1743419936.934309,-0.153,0.986,-0.134,0.910,-2.590,-0.840
1743419936.9634938,-0.154,0.985,-0.135,0.980,-2.520,-0.630
1743419936.993991,-0.153,0.984,-0.135,0.840,-2.730,-0.700
1743419937.024898,-0.152,0.986,-0.138,0.840,-2.660,-0.840
1743419937.0548759,-0.154,0.985,-0.135,0.770,-2.380,-0.910
1743419937.084044,-0.152,0.984,-0.135,0.910,-2.310,-1.050
1743419937.1128829,-0.153,0.985,-0.134,0.910,-2.380,-0.980
1743419937.1282392,-0.153,0.985,-0.133,0.840,-2.520,-0.700
1743419937.2045598,-0.153,0.985,-0.135,0.910,-2.660,-0.490
1743419937.205615,-0.155,0.982,-0.137,0.770,-2.660,-0.700
1743419937.217973,-0.153,0.984,-0.136,0.840,-2.450,-0.910
1743419937.248207,-0.153,0.986,-0.134,0.840,-2.380,-0.980
1743419937.277683,-0.154,0.983,-0.135,0.770,-2.310,-1.050
1743419937.308382,-0.154,0.986,-0.136,0.840,-2.450,-0.770
1743419937.3380742,-0.154,0.984,-0.134,0.840,-2.660,-0.630
1743419937.3684962,-0.153,0.983,-0.134,0.910,-2.660,-0.490
1743419937.39981,-0.152,0.986,-0.132,0.840,-2.660,-0.770
1743419937.428145,-0.153,0.985,-0.138,0.910,-2.380,-0.910
1743419937.504645,-0.152,0.985,-0.137,0.770,-2.450,-0.980
1743419937.50563,-0.153,0.984,-0.135,0.910,-2.450,-0.980
1743419937.518796,-0.154,0.985,-0.136,0.840,-2.450,-0.840
1743419937.5490701,-0.153,0.983,-0.135,0.910,-2.660,-0.770
1743419937.578161,-0.155,0.983,-0.136,0.910,-2.590,-0.770
1743419937.608746,-0.153,0.985,-0.137,0.840,-2.520,-0.700
1743419937.623172,-0.153,0.984,-0.136,0.770,-2.520,-0.840
1743419937.653294,-0.152,0.984,-0.133,0.840,-2.380,-0.980
1743419937.683875,-0.153,0.985,-0.138,0.770,-2.450,-0.910
1743419937.713543,-0.152,0.984,-0.136,0.840,-2.450,-0.700
1743419937.744704,-0.152,0.986,-0.134,0.770,-2.730,-0.770
1743419937.8038871,-0.155,0.987,-0.135,0.770,-2.660,-0.700
1743419937.804789,-0.154,0.984,-0.136,0.910,-2.660,-0.700
1743419937.818043,-0.155,0.986,-0.135,0.770,-2.450,-0.980
1743419937.84897,-0.156,0.984,-0.135,0.840,-2.310,-1.190
1743419937.879025,-0.153,0.985,-0.135,0.840,-2.380,-0.910
1743419937.9089081,-0.151,0.983,-0.136,1.120,-2.450,-0.770
1743419937.938776,-0.153,0.985,-0.138,0.770,-2.590,-0.700
1743419937.968193,-0.153,0.983,-0.137,0.980,-2.660,-0.630
1743419937.999926,-0.154,0.984,-0.138,0.910,-2.590,-0.840
1743419938.028886,-0.153,0.984,-0.139,0.840,-2.380,-0.910
1743419938.134762,-0.153,0.984,-0.136,0.840,-2.450,-0.840
1743419938.135892,-0.153,0.985,-0.133,0.770,-2.380,-0.910
1743419938.136364,-0.153,0.985,-0.135,0.910,-2.520,-0.910
1743419938.1367218,-0.152,0.985,-0.136,0.840,-2.660,-0.700
1743419938.163818,-0.155,0.984,-0.137,0.770,-2.520,-0.770
1743419938.194199,-0.153,0.984,-0.136,0.770,-2.520,-0.840
1743419938.224117,-0.152,0.983,-0.136,0.840,-2.450,-0.840
1743419938.253435,-0.154,0.983,-0.140,0.840,-2.450,-0.700
1743419938.282495,-0.151,0.984,-0.137,0.700,-2.380,-0.910
1743419938.31257,-0.154,0.985,-0.137,0.910,-2.520,-0.840
1743419938.3274162,-0.154,0.986,-0.137,0.910,-2.590,-0.700
1743419938.403115,-0.154,0.985,-0.135,0.840,-2.590,-0.700
1743419938.405789,-0.155,0.984,-0.138,0.770,-2.590,-0.840
1743419938.416873,-0.155,0.985,-0.138,0.910,-2.520,-0.700
1743419938.4470458,-0.155,0.983,-0.136,0.840,-2.380,-0.910
1743419938.477804,-0.154,0.984,-0.136,0.840,-2.380,-1.120
1743419938.508534,-0.152,0.983,-0.137,0.910,-2.520,-0.770
1743419938.5380511,-0.152,0.984,-0.140,0.910,-2.660,-0.770
1743419938.568384,-0.155,0.985,-0.134,0.840,-2.730,-0.700
1743419938.598336,-0.154,0.984,-0.139,0.840,-2.590,-0.770
1743419938.627788,-0.151,0.986,-0.137,0.770,-2.380,-0.910
1743419938.704391,-0.154,0.984,-0.137,0.840,-2.450,-0.980
1743419938.705461,-0.154,0.986,-0.137,0.840,-2.520,-0.910
1743419938.705881,-0.155,0.985,-0.135,0.840,-2.520,-0.840
1743419938.733492,-0.155,0.984,-0.138,0.840,-2.520,-0.560
1743419938.764402,-0.153,0.985,-0.138,0.840,-2.660,-0.700
1743419938.7936482,-0.155,0.984,-0.137,0.840,-2.520,-0.770
1743419938.824387,-0.154,0.983,-0.135,0.840,-2.520,-0.980
1743419938.853781,-0.155,0.983,-0.138,0.910,-2.450,-0.910
1743419938.8840032,-0.153,0.984,-0.139,0.840,-2.450,-0.770
1743419938.913468,-0.154,0.984,-0.136,0.840,-2.450,-0.840
1743419938.928492,-0.155,0.985,-0.136,0.770,-2.590,-0.770
1743419939.004247,-0.155,0.985,-0.139,0.840,-2.450,-0.770
1743419939.005183,-0.154,0.983,-0.134,0.770,-2.450,-0.700
1743419939.0189362,-0.155,0.986,-0.139,0.910,-2.590,-0.910
1743419939.049189,-0.153,0.986,-0.135,0.770,-2.520,-0.840
1743419939.079903,-0.154,0.984,-0.136,0.910,-2.240,-0.840
1743419939.10993,-0.154,0.985,-0.136,0.840,-2.380,-0.840
1743419939.1230478,-0.152,0.988,-0.136,0.770,-2.590,-0.770
1743419939.152483,-0.154,0.983,-0.137,0.910,-2.660,-0.630
1743419939.189058,-0.151,0.984,-0.137,0.770,-2.520,-0.980
1743419939.213575,-0.156,0.984,-0.138,0.700,-2.520,-0.980
1743419939.243157,-0.153,0.985,-0.136,0.770,-2.380,-0.910
1743419939.303025,-0.151,0.984,-0.137,0.840,-2.450,-0.910
1743419939.303442,-0.153,0.984,-0.136,0.910,-2.520,-0.910
1743419939.33339,-0.155,0.985,-0.136,0.910,-2.520,-0.700
1743419939.3481832,-0.155,0.985,-0.137,1.050,-2.590,-0.630
1743419939.378038,-0.154,0.983,-0.135,0.770,-2.590,-0.910
1743419939.4088929,-0.154,0.982,-0.136,0.840,-2.450,-0.840
1743419939.439223,-0.153,0.986,-0.137,0.840,-2.520,-0.980
1743419939.468655,-0.153,0.983,-0.135,0.840,-2.450,-0.840
1743419939.4984949,-0.155,0.986,-0.134,0.910,-2.520,-0.910
1743419939.514797,-0.154,0.986,-0.137,0.910,-2.520,-0.700
1743419939.542513,-0.154,0.985,-0.139,1.050,-2.520,-0.700
1743419939.604961,-0.154,0.987,-0.138,0.700,-2.660,-0.840
1743419939.6059148,-0.154,0.986,-0.138,0.770,-2.450,-0.910
1743419939.6333451,-0.153,0.983,-0.138,0.840,-2.450,-0.910
1743419939.6627772,-0.152,0.986,-0.135,0.770,-2.450,-0.840
1743419939.694349,-0.153,0.985,-0.135,0.840,-2.520,-0.840
1743419939.723886,-0.153,0.984,-0.138,0.910,-2.450,-0.770
1743419939.7531068,-0.153,0.984,-0.137,0.910,-2.520,-0.770
1743419939.7838101,-0.155,0.985,-0.137,0.770,-2.520,-0.700
1743419939.814558,-0.155,0.985,-0.137,0.840,-2.450,-0.770
1743419939.843934,-0.152,0.985,-0.136,0.910,-2.450,-0.910
1743419939.904246,-0.155,0.985,-0.137,0.910,-2.380,-0.840
1743419939.905173,-0.152,0.985,-0.137,0.840,-2.450,-0.840
1743419939.9190788,-0.153,0.985,-0.136,0.770,-2.520,-0.840
1743419939.9477031,-0.155,0.984,-0.138,0.840,-2.660,-0.700
1743419939.9776828,-0.154,0.983,-0.137,0.770,-2.520,-0.630
1743419940.008218,-0.155,0.984,-0.137,0.770,-2.450,-0.910
1743419940.039554,-0.152,0.982,-0.137,0.770,-2.450,-0.770
1743419940.068751,-0.156,0.986,-0.138,0.910,-2.450,-0.840
1743419940.0999522,-0.154,0.986,-0.138,0.770,-2.450,-0.910
1743419940.128716,-0.154,0.984,-0.133,0.910,-2.660,-0.840
1743419940.143203,-0.156,0.985,-0.136,0.840,-2.590,-0.700
1743419940.204662,-0.152,0.985,-0.139,0.840,-2.520,-0.840
1743419940.205429,-0.154,0.985,-0.137,0.910,-2.450,-1.050
1743419940.2343302,-0.152,0.985,-0.138,0.910,-2.450,-0.840
1743419940.2637372,-0.152,0.987,-0.139,0.840,-2.450,-0.840
1743419940.293643,-0.154,0.984,-0.136,0.840,-2.590,-0.700
1743419940.323264,-0.154,0.984,-0.137,0.910,-2.590,-0.770
1743419940.353028,-0.156,0.984,-0.137,0.910,-2.590,-0.770
1743419940.383714,-0.155,0.986,-0.136,0.770,-2.590,-0.840
1743419940.3981519,-0.151,0.986,-0.136,0.910,-2.590,-0.840
1743419940.428075,-0.154,0.986,-0.138,0.840,-2.380,-0.840
1743419940.504305,-0.150,0.983,-0.137,0.840,-2.520,-0.980
1743419940.505409,-0.152,0.984,-0.138,0.770,-2.450,-0.840
1743419940.506457,-0.153,0.988,-0.135,0.840,-2.450,-0.700
1743419940.53489,-0.155,0.985,-0.135,0.770,-2.590,-0.840
1743419940.5647511,-0.155,0.985,-0.136,0.910,-2.590,-0.770
1743419940.593342,-0.155,0.982,-0.138,0.840,-2.590,-0.840
1743419940.623901,-0.154,0.985,-0.135,0.910,-2.380,-0.770
1743419940.652732,-0.153,0.986,-0.136,0.910,-2.520,-0.840
1743419940.683819,-0.150,0.984,-0.138,0.910,-2.520,-0.840
1743419940.7139862,-0.152,0.982,-0.137,0.910,-2.660,-0.840
1743419940.72851,-0.155,0.985,-0.138,0.770,-2.590,-0.700
1743419940.805061,-0.155,0.984,-0.137,0.840,-2.590,-0.700
1743419940.806101,-0.156,0.984,-0.136,0.840,-2.450,-0.980
1743419940.818592,-0.154,0.982,-0.137,0.910,-2.520,-0.840
1743419940.8503869,-0.154,0.985,-0.136,0.840,-2.450,-0.840
1743419940.878804,-0.156,0.984,-0.136,0.840,-2.450,-0.840
1743419940.908109,-0.154,0.984,-0.135,0.840,-2.590,-0.700
1743419940.924317,-0.153,0.982,-0.139,0.840,-2.590,-0.910
1743419940.9547489,-0.155,0.985,-0.137,0.980,-2.450,-0.700
1743419940.984884,-0.154,0.984,-0.140,0.840,-2.520,-0.840
1743419941.014378,-0.156,0.982,-0.138,0.840,-2.520,-0.840
1743419941.0442932,-0.155,0.985,-0.137,0.840,-2.590,-0.910
1743419941.1036239,-0.152,0.983,-0.138,0.840,-2.450,-0.770
1743419941.10544,-0.154,0.983,-0.137,0.840,-2.590,-0.840
1743419941.134124,-0.153,0.984,-0.139,0.770,-2.520,-0.770
1743419941.162612,-0.154,0.980,-0.136,0.910,-2.660,-0.910
1743419941.193538,-0.154,0.990,-0.138,0.910,-2.590,-0.700
1743419941.224,-0.156,0.983,-0.136,1.330,-2.520,-0.140
1743419941.252939,-0.155,0.981,-0.134,0.840,-2.310,-1.400
1743419941.283448,-0.151,0.985,-0.136,0.140,-2.030,-1.820
1743419941.313589,-0.154,0.990,-0.137,1.050,-3.010,-0.280
1743419941.3431108,-0.151,0.982,-0.139,0.770,-2.520,0.070
1743419941.404299,-0.152,0.982,-0.138,0.630,-3.150,-2.030
1743419941.405072,-0.157,0.992,-0.139,0.700,-2.030,-0.560
1743419941.434176,-0.154,0.978,-0.135,1.260,-2.310,-0.280
1743419941.464761,-0.154,0.980,-0.136,0.770,-2.590,-1.610
1743419941.493359,-0.156,0.990,-0.140,0.910,-2.590,-1.050
1743419941.5242949,-0.153,0.985,-0.135,1.050,-2.030,-0.070
1743419941.553545,-0.149,0.980,-0.131,0.700,-2.590,-1.820
1743419941.585035,-0.156,0.989,-0.136,0.980,-2.380,-0.910
1743419941.599207,-0.150,0.985,-0.134,1.190,-2.170,0.280
1743419941.6301382,-0.151,0.981,-0.136,1.050,-3.010,-0.560
1743419941.704399,-0.155,0.986,-0.135,0.840,-2.730,-0.980
1743419941.705515,-0.157,0.985,-0.137,0.910,-2.520,-0.980
1743419941.7186801,-0.155,0.983,-0.137,1.050,-2.030,-1.120
1743419941.748951,-0.154,0.984,-0.133,0.700,-2.240,-1.540
1743419941.77843,-0.153,0.988,-0.135,0.840,-2.520,-0.910
1743419941.793063,-0.153,0.985,-0.135,0.910,-2.870,0.000
1743419941.823665,-0.153,0.979,-0.135,0.280,-3.990,-0.350
1743419941.8990972,-0.158,0.983,-0.141,0.420,-3.710,-0.700
1743419941.8999941,-0.155,0.980,-0.139,0.630,-1.820,-1.400
1743419941.914002,-0.148,0.982,-0.139,0.630,-1.120,-3.010
1743419941.9735029,-0.151,0.990,-0.137,1.190,-1.050,-2.240
1743419941.97568,-0.152,0.992,-0.135,1.750,-1.820,0.840
1743419942.0031471,-0.154,0.981,-0.135,1.680,-3.220,1.330
1743419942.034225,-0.160,0.981,-0.139,1.190,-3.360,0.280
1743419942.063686,-0.159,0.979,-0.137,0.770,-2.030,-0.980
1743419942.079196,-0.153,0.978,-0.135,0.140,-1.610,-2.870
1743419942.1091142,-0.152,0.988,-0.135,-0.070,-2.520,-2.660
1743419942.139932,-0.154,0.993,-0.137,0.560,-3.150,-0.070
1743419942.1995552,-0.149,0.983,-0.137,0.910,-3.220,0.560
1743419942.2005079,-0.153,0.981,-0.138,0.980,-2.660,-0.980
1743419942.229255,-0.156,0.988,-0.138,1.190,-1.750,-0.910
1743419942.259239,-0.155,0.983,-0.136,1.190,-1.960,-0.630
1743419942.288227,-0.153,0.983,-0.135,0.700,-2.940,-0.770
1743419942.302946,-0.158,0.986,-0.140,0.630,-3.290,-0.350
1743419942.334392,-0.156,0.981,-0.138,0.840,-2.660,-0.420
1743419942.3634932,-0.153,0.981,-0.136,0.980,-1.890,-1.750
1743419942.3927958,-0.153,0.987,-0.138,0.840,-1.610,-2.030
1743419942.423739,-0.152,0.988,-0.135,1.190,-1.960,-0.700
1743419942.453123,-0.153,0.986,-0.135,0.980,-2.660,0.210
1743419942.498965,-0.155,0.984,-0.139,0.910,-3.360,-0.070
1743419942.5147479,-0.159,0.982,-0.139,0.700,-3.010,-0.490
1743419942.543542,-0.158,0.982,-0.138,0.630,-2.380,-1.260
1743419942.574925,-0.153,0.983,-0.136,0.420,-2.170,-2.030
1743419942.603949,-0.155,0.989,-0.136,0.700,-2.520,-1.260
1743419942.6187918,-0.152,0.987,-0.136,0.840,-2.380,-0.350
1743419942.649297,-0.152,0.985,-0.138,0.980,-2.800,-0.560
1743419942.67871,-0.156,0.985,-0.138,1.050,-2.590,-0.280
1743419942.7083688,-0.155,0.983,-0.137,1.050,-2.590,-0.280
1743419942.739119,-0.156,0.983,-0.138,0.770,-2.520,-0.840
1743419942.7990122,-0.154,0.980,-0.136,0.770,-2.310,-1.120
1743419942.8000178,-0.154,0.985,-0.139,0.770,-2.170,-1.400
1743419942.829925,-0.152,0.985,-0.136,0.910,-2.030,-1.050
1743419942.859649,-0.151,0.987,-0.135,0.980,-2.590,-0.700
1743419942.888739,-0.157,0.987,-0.136,1.120,-2.800,0.140
1743419942.9036548,-0.153,0.980,-0.137,0.770,-2.870,-0.210
1743419942.934548,-0.157,0.984,-0.139,0.630,-2.870,-1.190
1743419942.963966,-0.158,0.984,-0.139,0.910,-2.170,-1.050
1743419942.994953,-0.152,0.983,-0.138,0.630,-2.030,-1.470
1743419943.0250938,-0.153,0.984,-0.138,0.560,-2.660,-1.680
1743419943.053375,-0.156,0.990,-0.137,0.980,-2.660,-0.070
1743419943.099383,-0.152,0.979,-0.137,0.910,-2.590,-0.140
1743419943.1002219,-0.156,0.982,-0.139,0.770,-2.870,-1.400
1743419943.1287491,-0.158,0.989,-0.138,0.910,-2.170,-0.770
1743419943.1587179,-0.151,0.984,-0.138,0.980,-2.100,-0.700
1743419943.189342,-0.154,0.985,-0.135,0.700,-2.660,-1.190
1743419943.218038,-0.157,0.987,-0.139,0.910,-2.520,-0.560
1743419943.248613,-0.154,0.984,-0.136,1.120,-2.450,-0.210
1743419943.277983,-0.152,0.979,-0.135,0.770,-2.380,-1.120
1743419943.292446,-0.155,0.987,-0.138,0.770,-2.380,-1.400
1743419943.322434,-0.155,0.990,-0.136,0.980,-2.240,-0.420
1743419943.353912,-0.152,0.981,-0.135,0.840,-2.730,-0.700
1743419943.397633,-0.155,0.984,-0.134,0.560,-3.080,-0.840
