Millis,AccelX,AccelY,AccelZ,GyroX,GyroY,GyroZ
1197324,0.016,-0.008,1.033,0.350,-2.240,-0.560
1197348,0.014,-0.008,1.032,0.350,-2.450,-0.630
1197368,0.013,-0.005,1.036,0.420,-2.380,-0.630
1197388,0.014,-0.006,1.034,0.490,-2.450,-0.560
1197403,0.017,-0.007,1.036,0.140,-2.310,-0.630
1197428,0.013,-0.005,1.034,0.280,-2.450,-0.560
1197452,0.017,-0.006,1.035,0.350,-2.520,-0.630
1197470,0.014,-0.008,1.034,0.490,-2.450,-0.490
1197492,0.014,-0.007,1.032,0.490,-2.380,-0.630
1197512,0.016,-0.008,1.032,0.350,-2.450,-0.630
1197532,0.017,-0.005,1.033,0.070,-2.380,-0.630
1197552,0.015,-0.008,1.031,0.210,-2.310,-0.560
1197567,0.018,-0.006,1.032,0.560,-2.380,-0.560
1197592,0.016,-0.008,1.033,0.420,-2.310,-0.630
1197612,0.011,-0.008,1.033,0.490,-2.450,-0.630
1197632,0.014,-0.006,1.033,0.210,-2.520,-0.560
1197652,0.014,-0.004,1.032,0.070,-2.450,-0.560
1197670,0.017,-0.004,1.037,0.280,-2.450,-0.630
1197690,0.016,-0.006,1.033,0.420,-2.450,-0.560
1197710,0.015,-0.005,1.033,0.420,-2.380,-0.560
1197730,0.016,-0.007,1.034,0.420,-2.380,-0.630
1197750,0.015,-0.003,1.034,0.490,-2.310,-0.630
1197770,0.014,-0.007,1.034,0.560,-2.590,-0.560
1197790,0.016,-0.008,1.031,0.210,-2.450,-0.560
1197814,0.018,-0.004,1.034,0.210,-2.450,-0.560
1197834,0.015,-0.006,1.037,0.140,-2.380,-0.560
1197853,0.014,-0.005,1.035,0.490,-2.450,-0.490
1197869,0.014,-0.008,1.034,0.420,-2.380,-0.490
1197889,0.014,-0.007,1.035,17.780,-2.590,-0.630
1197913,0.014,-0.007,1.033,0.140,-2.520,-0.560
1197932,0.014,-0.005,1.031,0.210,-2.380,-0.560
1197953,0.016,-0.006,1.032,0.140,-2.380,-0.560
1197977,0.017,-0.004,1.033,0.490,-2.380,-0.560
1197997,0.014,-0.007,1.031,0.630,-2.450,-0.560
1198017,0.014,-0.006,1.032,0.770,-2.450,-0.490
1198037,0.017,-0.006,1.036,0.490,-2.520,-0.700
1198057,0.015,-0.005,1.034,0.350,-2.450,-0.560
1198077,0.016,-0.005,1.036,0.140,-2.450,-0.560
1198097,0.015,-0.003,1.033,0.210,-2.380,-0.630
1198116,0.016,-0.006,1.032,0.140,-2.310,-0.560
1198137,0.014,-0.008,1.035,0.490,-2.520,-0.560
1198157,0.016,-0.009,1.032,0.490,-2.450,-0.560
1198173,0.016,-0.007,1.031,0.070,-2.380,-0.630
1198197,0.016,-0.004,1.035,0.210,-2.450,-0.560
1198217,0.016,-0.005,1.036,0.420,-2.380,-0.560
1198237,0.016,-0.005,1.032,0.350,-2.380,-0.560
1198257,0.018,-0.007,1.032,0.560,-2.380,-0.630
1198272,0.016,-0.006,1.036,0.420,-2.520,-0.490
1198296,0.015,-0.006,1.037,0.490,-2.380,-0.560
1198318,0.014,-0.008,1.033,0.490,-2.380,-0.560
1198342,0.017,-0.010,1.030,0.630,-2.380,-0.560
1198362,0.016,-0.009,1.033,0.420,-2.450,-0.630
1198382,0.015,-0.007,1.035,0.350,-2.520,-0.560
1198397,0.016,-0.005,1.033,0.280,-2.520,-0.560
1198422,0.017,-0.004,1.033,0.490,-2.380,-0.630
1198442,0.017,-0.004,1.033,0.280,-2.450,-0.560
1198462,0.015,-0.009,1.034,0.350,-2.450,-0.560
1198482,0.015,-0.008,1.036,0.420,-2.450,-0.560
1198502,0.016,-0.007,1.034,0.280,-2.380,-0.630
1198522,0.017,-0.005,1.036,0.280,-2.520,-0.630
1198542,0.017,-0.006,1.035,0.280,-2.450,-0.560
1198562,0.016,-0.008,1.032,0.420,-2.450,-0.560
1198582,0.015,-0.009,1.033,0.280,-2.380,-0.560
1198602,0.015,-0.004,1.035,0.210,-2.380,-0.490
1198622,0.018,-0.007,1.035,0.280,-2.380,-0.560
1198637,0.015,-0.006,1.033,0.490,-2.380,-0.560
1198662,0.015,-0.008,1.036,0.420,-2.380,-0.630
1198682,0.015,-0.007,1.031,0.210,-2.520,-0.560
1198702,0.013,-0.008,1.032,0.210,-2.380,-0.560
1198720,0.015,-0.005,1.036,0.280,-2.380,-0.560
1198739,0.016,-0.005,1.036,0.490,-2.310,-0.560
1198759,0.014,-0.008,1.036,0.280,-2.590,-0.560
1198783,0.017,-0.005,1.035,0.280,-2.450,-0.560
1198803,0.017,-0.007,1.035,0.350,-2.520,-0.630
1198823,0.014,-0.007,1.036,0.560,-2.450,-0.560
1198842,0.017,-0.008,1.031,0.560,-2.450,-0.560
1198863,0.013,-0.008,1.034,0.070,-2.310,-0.560
1198883,0.015,-0.004,1.037,0.280,-2.450,-0.560
1198898,0.015,-0.007,1.034,0.350,-2.450,-0.560
1198918,0.015,-0.007,1.032,0.490,-2.450,-0.630
1198943,0.016,-0.005,1.031,0.140,-2.380,-0.700
1198967,0.016,-0.006,1.035,0.070,-2.310,-0.630
1198985,0.016,-0.006,1.036,0.770,-2.310,-0.630
1199007,0.016,-0.010,1.033,0.560,-2.380,-0.560
1199027,0.016,-0.007,1.031,0.350,-2.310,-0.700
1199045,0.016,-0.005,1.037,0.070,-2.450,-0.560
1199066,0.015,-0.005,1.036,0.420,-2.380,-0.700
1199090,0.016,-0.007,1.036,0.420,-2.450,-0.700
1199110,0.014,-0.011,1.031,0.630,-2.450,-0.630
1199126,0.015,-0.007,1.034,0.490,-2.520,-0.630
1199145,0.013,-0.005,1.033,0.210,-2.380,-0.630
1199169,0.015,-0.004,1.035,0.070,-2.520,-0.560
1199189,0.013,-0.005,1.032,-0.070,-2.310,-0.490
1199209,0.016,-0.005,1.034,0.350,-2.590,-0.560
1199232,0.014,-0.006,1.035,0.490,-2.520,-0.630
1199256,0.014,-0.009,1.032,0.420,-2.450,-0.560
1199273,0.014,-0.008,1.031,0.420,-2.450,-0.560
1199293,0.015,-0.008,1.035,0.070,-2.380,-0.630
1199313,0.015,-0.004,1.035,0.280,-2.450,-0.630
1199337,0.013,-0.006,1.035,0.420,-2.450,-0.630
1199357,0.015,-0.005,1.034,0.420,-2.590,-0.560
1199372,0.016,-0.007,1.033,0.280,-2.310,-0.560
1199397,0.014,-0.009,1.032,0.210,-2.380,-0.560
1199417,0.016,-0.007,1.035,0.210,-2.450,-0.630
1199436,0.016,-0.004,1.033,0.280,-2.380,-0.560
1199457,0.012,-0.007,1.034,0.280,-2.520,-0.560
1199477,0.017,-0.007,1.031,0.350,-2.450,-0.560
1199497,0.016,-0.007,1.033,0.280,-2.520,-0.630
1199517,0.015,-0.009,1.033,0.280,-2.380,-0.630
1199537,0.015,-0.006,1.035,0.490,-2.520,-0.560
1199557,0.018,-0.005,1.033,0.280,-2.450,-0.560
1199576,0.015,-0.006,1.031,0.280,-2.450,-0.700
1199597,0.015,-0.005,1.029,0.280,-2.380,-0.630
1199617,0.016,-0.004,1.035,0.280,-2.450,-0.630
1199634,0.014,-0.006,1.033,0.700,-2.310,-0.630
1199652,0.015,-0.008,1.034,0.280,-2.310,-0.630
1199677,0.016,-0.005,1.034,0.210,-2.380,-0.630
1199701,0.017,-0.005,1.037,0.070,-2.380,-0.630
1199721,0.017,-0.007,1.034,0.420,-2.450,-0.560
1199741,0.015,-0.006,1.031,0.420,-2.450,-0.560
1199761,0.016,-0.004,1.034,0.280,-2.450,-0.490
1199781,0.014,-0.004,1.035,0.280,-2.380,-0.560
1199801,0.017,-0.006,1.036,0.560,-2.450,-0.560
1199821,0.015,-0.008,1.033,0.770,-2.450,-0.630
1199841,0.016,-0.010,1.035,0.560,-2.450,-0.560
1199859,0.015,-0.006,1.035,0.280,-2.380,-0.560
1199882,0.016,-0.008,1.033,0.210,-2.450,-0.490
1199902,0.015,-0.008,1.031,0.140,-2.380,-0.560
1199922,0.015,-0.005,1.036,0.140,-2.520,-0.630
1199942,0.016,-0.006,1.035,0.350,-2.520,-0.490
1199966,0.017,-0.008,1.034,0.490,-2.450,-0.490
1199986,0.017,-0.007,1.031,0.490,-2.310,-0.560
1200010,0.016,-0.007,1.030,0.210,-2.310,-0.630
1200030,0.015,-0.005,1.033,0.000,-2.380,-0.560
1200050,0.018,-0.006,1.031,0.140,-2.450,-0.630
1200068,0.016,-0.006,1.034,0.280,-2.380,-0.630
1200090,0.015,-0.004,1.035,0.210,-2.450,-0.630
1200109,0.015,-0.008,1.034,0.560,-2.520,-0.630
1200131,0.017,-0.006,1.034,0.630,-2.380,-0.490
1200151,0.015,-0.007,1.035,0.630,-2.520,-0.630
1200174,0.016,-0.008,1.033,0.420,-2.450,-0.630
1200198,0.014,-0.010,1.033,0.350,-2.380,-0.630
1200217,0.015,-0.006,1.033,0.140,-2.450,-0.630
1200238,0.016,-0.007,1.036,0.210,-2.310,-0.560
1200262,0.016,-0.005,1.036,0.350,-2.520,-0.490
1200282,0.016,-0.006,1.032,0.350,-2.380,-0.630
1200302,0.014,-0.009,1.033,0.280,-2.380,-0.700
1200322,0.015,-0.006,1.036,0.350,-2.310,-0.560
1200342,0.014,-0.007,1.033,0.420,-2.450,-0.560
1200362,0.016,-0.006,1.035,0.490,-2.310,-0.560
1200380,0.016,-0.008,1.032,0.350,-2.310,-0.560
1200399,0.018,-0.005,1.034,0.210,-2.590,-0.700
1200424,0.017,-0.005,1.035,0.210,-2.310,-0.630
1200443,0.016,-0.004,1.034,0.420,-2.310,-0.630
1200464,0.014,-0.008,1.037,0.140,-2.450,-0.560
1200484,0.014,-0.004,1.036,0.350,-2.520,-0.560
1200508,0.017,-0.005,1.034,0.070,-2.520,-0.560
1200528,0.015,-0.007,1.032,0.350,-2.520,-0.560
1200547,0.015,-0.008,1.035,0.630,-2.520,-0.630
1200563,0.012,-0.009,1.032,0.280,-2.450,-0.490
1200588,0.014,-0.007,1.032,0.140,-2.450,-0.560
1200607,0.017,-0.007,1.036,0.350,-2.380,-0.560
1200623,0.017,-0.009,1.034,0.560,-2.450,-0.700
1200648,0.016,-0.009,1.034,0.490,-2.310,-0.630
1200668,0.016,-0.011,1.035,0.700,-2.380,-0.630
1200688,0.016,-0.004,1.035,0.630,-2.520,-0.630
1200708,0.016,-0.006,1.036,0.420,-2.450,-0.630
1200728,0.018,-0.006,1.035,0.140,-2.450,-0.490
1200748,0.016,-0.005,1.033,0.210,-2.380,-0.560
1200768,0.015,-0.007,1.033,0.420,-2.520,-0.700
1200787,0.017,-0.009,1.033,0.420,-2.310,-0.560
1200805,0.015,-0.007,1.033,0.350,-2.380,-0.560
1200825,0.014,-0.007,1.034,0.420,-2.520,-0.560
1200848,0.015,-0.005,1.034,0.280,-2.450,-0.560
1200872,0.016,-0.007,1.031,0.280,-2.450,-0.490
1200891,0.016,-0.006,1.034,0.070,-2.380,-0.560
1200911,0.015,-0.005,1.036,0.210,-2.450,-0.560
1200931,0.016,-0.006,1.032,0.420,-2.380,-0.630
1200951,0.017,-0.009,1.032,0.490,-2.450,-0.420
1200975,0.017,-0.007,1.034,0.420,-2.380,-0.560
1200999,0.016,-0.006,1.034,0.280,-2.520,-0.560
1201019,0.014,-0.006,1.036,0.350,-2.520,-0.560
1201039,0.015,-0.006,1.035,0.420,-2.590,-0.700
1201057,0.015,-0.006,1.033,0.350,-2.450,-0.560
1201078,0.015,-0.005,1.034,0.280,-2.380,-0.490
1201098,0.014,-0.003,1.034,0.140,-2.450,-0.630
1201122,0.014,-0.006,1.033,0.420,-2.240,-0.630
1201142,0.015,-0.007,1.034,0.420,-2.310,-0.560
1201161,0.016,-0.008,1.034,0.420,-2.380,-0.560
1201179,0.015,-0.004,1.034,0.350,-2.450,-0.560
1201198,0.014,-0.007,1.032,0.280,-2.310,-0.630
1201223,0.015,-0.008,1.034,0.350,-2.380,-0.560
1201247,0.017,-0.004,1.032,0.140,-2.380,-0.560
1201266,0.017,-0.006,1.036,0.070,-2.450,-0.560
1201287,0.017,-0.006,1.036,0.280,-2.380,-0.630
1201307,0.014,-0.007,1.032,0.350,-2.380,-0.560
1201327,0.019,-0.008,1.032,0.490,-2.240,-0.490
1201347,0.016,-0.005,1.034,0.420,-2.520,-0.630
1201366,0.015,-0.006,1.032,0.350,-2.520,-0.630
1201386,0.017,-0.008,1.032,0.280,-2.520,-0.560
1201406,0.017,-0.006,1.034,0.490,-2.310,-0.560
1201430,0.017,-0.004,1.036,0.700,-2.590,-0.490
1201450,0.014,-0.006,1.035,0.630,-2.450,-0.560
1201470,0.018,-0.008,1.033,0.350,-2.380,-0.630
1201485,0.014,-0.007,1.036,0.000,-2.380,-0.560
1201507,0.017,-0.007,1.034,0.140,-2.520,-0.560
1201530,0.015,-0.005,1.036,0.420,-2.380,-0.630
1201554,0.014,-0.006,1.034,0.700,-2.450,-0.560
1201574,0.016,-0.009,1.033,0.280,-2.380,-0.630
1201594,0.016,-0.010,1.033,0.630,-2.520,-0.560
1201614,0.016,-0.006,1.034,0.420,-2.450,-0.560
1201634,0.015,-0.005,1.032,0.280,-2.380,-0.490
1201654,0.015,-0.005,1.033,0.280,-2.520,-0.630
1201673,0.014,-0.007,1.035,0.420,-2.380,-0.560
1201694,0.018,-0.009,1.032,0.490,-2.450,-0.560
1201714,0.015,-0.005,1.033,0.210,-2.380,-0.630
1201730,0.016,-0.005,1.034,0.210,-2.450,-0.630
1201750,0.015,-0.005,1.033,0.630,-2.310,-0.630
1201770,0.017,-0.007,1.031,0.630,-2.380,-0.560
1201794,0.016,-0.005,1.030,0.350,-2.380,-0.700
1201814,0.016,-0.004,1.035,0.210,-2.310,-0.560
1201834,0.015,-0.005,1.033,0.210,-2.380,-0.560
1201853,0.015,-0.006,1.032,0.070,-2.380,-0.630
1201873,0.017,-0.004,1.032,0.210,-2.450,-0.560
1201893,0.015,-0.005,1.035,0.490,-2.380,-0.630
1201916,0.014,-0.006,1.033,0.420,-2.450,-0.560
1201936,0.017,-0.008,1.033,0.420,-2.450,-0.630
1201958,0.015,-0.005,1.031,0.350,-2.380,-0.560
1201982,0.018,-0.008,1.031,0.280,-2.380,-0.630
1202002,0.014,-0.008,1.035,0.070,-2.310,-0.630
1202022,0.016,-0.005,1.037,0.280,-2.450,-0.630
1202042,0.017,-0.005,1.035,0.630,-2.520,-0.560
1202062,0.016,-0.009,1.032,0.560,-2.310,-0.630
1202082,0.016,-0.006,1.033,0.280,-2.380,-0.560
1202102,0.016,-0.006,1.035,0.280,-2.450,-0.630
1202122,0.016,-0.006,1.036,0.280,-2.520,-0.560
1202141,0.018,-0.004,1.032,0.490,-2.240,-0.630
1202161,0.017,-0.005,1.034,0.420,-2.450,-0.630
1202181,0.013,-0.007,1.036,0.560,-2.380,-0.700
1202206,0.015,-0.009,1.036,0.630,-2.520,-0.560
1202221,0.014,-0.007,1.031,0.280,-2.310,-0.490
1202246,0.016,-0.006,1.031,0.350,-2.380,-0.630
1202266,0.017,-0.004,1.034,0.210,-2.380,-0.560
1202286,0.014,-0.006,1.037,0.280,-2.380,-0.560
1202306,0.016,-0.006,1.033,0.560,-2.380,-0.630
1202325,0.016,-0.009,1.032,0.560,-2.310,-0.630
1202348,0.016,-0.008,1.032,0.210,-2.380,-0.560
1202370,0.015,-0.007,1.033,0.420,-2.450,-0.560
1202390,0.017,-0.006,1.033,0.420,-2.450,-0.560
1202410,0.016,-0.006,1.033,0.140,-2.380,-0.630
1202430,0.017,-0.005,1.033,0.210,-2.450,-0.560
1202450,0.015,-0.006,1.035,0.210,-2.380,-0.560
1202469,0.015,-0.007,1.035,0.490,-2.310,-0.560
1202490,0.014,-0.008,1.032,0.420,-2.380,-0.560
1202510,0.014,-0.007,1.034,0.210,-2.310,-0.630
1202530,0.016,-0.005,1.036,0.280,-2.380,-0.630
1202550,0.014,-0.006,1.036,0.420,-2.520,-0.560
1202570,0.017,-0.007,1.031,0.280,-2.380,-0.560
1202585,0.018,-0.008,1.032,0.350,-2.310,-0.630
1202610,0.015,-0.008,1.034,0.420,-2.310,-0.490
1202630,0.016,-0.007,1.032,0.280,-2.450,-0.630
1202648,0.014,-0.008,1.032,0.210,-2.380,-0.560
1202666,0.017,-0.005,1.034,0.210,-2.380,-0.560
1202686,0.014,-0.005,1.035,0.490,-2.310,-0.560
1202710,0.016,-0.006,1.035,0.560,-2.380,-0.630
1202730,0.014,-0.008,1.032,0.560,-2.380,-0.560
1202749,0.017,-0.008,1.033,0.490,-2.450,-0.630
1202768,0.016,-0.007,1.036,0.350,-2.380,-0.560
1202788,0.015,-0.006,1.035,0.420,-2.450,-0.630
1202808,0.017,-0.006,1.033,0.280,-2.310,-0.560
1202828,0.016,-0.005,1.035,0.210,-2.380,-0.630
1202848,0.016,-0.005,1.034,0.350,-2.450,-0.630
1202868,0.014,-0.004,1.034,0.420,-2.520,-0.560
1202888,0.014,-0.008,1.035,0.420,-2.380,-0.560
1202908,0.016,-0.007,1.034,0.350,-2.380,-0.630
1202928,0.015,-0.005,1.034,0.280,-2.450,-0.630
1202952,0.015,-0.007,1.033,0.140,-2.450,-0.560
1202972,0.016,-0.005,1.033,0.420,-2.450,-0.700
1202992,0.016,-0.008,1.033,0.280,-2.590,-0.560
1203012,0.015,-0.006,1.034,0.560,-2.450,-0.560
1203032,0.018,-0.008,1.033,0.490,-2.450,-0.560
1203052,0.017,-0.007,1.035,0.350,-2.380,-0.630
1203072,0.014,-0.009,1.034,0.350,-2.380,-0.560
1203092,0.014,-0.007,1.035,0.140,-2.590,-0.630
1203112,0.015,-0.005,1.035,0.210,-2.520,-0.560
1203132,0.014,-0.006,1.032,0.280,-2.380,-0.630
1203152,0.015,-0.006,1.036,0.420,-2.380,-0.490
1203167,0.014,-0.006,1.036,0.490,-2.310,-0.630
1203192,0.019,-0.006,1.033,0.420,-2.310,-0.560
1203212,0.017,-0.006,1.034,0.280,-2.380,-0.630
1203232,0.015,-0.007,1.034,0.280,-2.520,-0.490
1203252,0.014,-0.009,1.033,0.420,-2.380,-0.490
1203270,0.018,-0.008,1.033,0.490,-2.380,-0.630
1203292,0.014,-0.008,1.033,0.420,-2.310,-0.490
1203316,0.016,-0.007,1.037,0.280,-2.450,-0.630
1203335,0.016,-0.007,1.036,0.420,-2.380,-0.630
1203354,0.015,-0.006,1.034,0.490,-2.450,-0.630
1203378,0.016,-0.007,1.033,0.280,-2.450,-0.560
1203396,0.015,-0.008,1.034,0.420,-2.310,-0.560
1203418,0.015,-0.005,1.035,0.560,-2.520,-0.560
1203438,0.014,-0.008,1.032,0.350,-2.310,-0.560
1203457,0.014,-0.005,1.031,0.350,-2.380,-0.630
1203478,0.016,-0.004,1.033,0.350,-2.380,-0.560
1203498,0.018,-0.006,1.034,0.490,-2.380,-0.630
1203517,0.015,-0.006,1.033,0.350,-2.520,-0.630
1203541,0.014,-0.007,1.034,0.490,-2.380,-0.560
1203565,0.015,-0.009,1.033,0.420,-2.520,-0.560
1203585,0.016,-0.006,1.030,0.280,-2.380,-0.560
1203605,0.013,-0.004,1.031,0.070,-2.380,-0.420
1203620,0.015,-0.006,1.036,0.560,-2.380,-0.630
1203640,0.017,-0.007,1.033,0.420,-2.310,-0.560
1203660,0.015,-0.006,1.033,0.280,-2.380,-0.560
1203685,0.015,-0.004,1.034,0.140,-2.450,-0.560
1203705,0.015,-0.003,1.033,0.070,-2.520,-0.630
1203725,0.017,-0.006,1.034,0.210,-2.380,-0.560
1203745,0.017,-0.008,1.034,0.210,-2.520,-0.630
1203765,0.015,-0.006,1.035,0.420,-2.520,-0.630
1203785,0.015,-0.006,1.035,0.630,-2.380,-0.560
1203806,0.012,-0.006,1.034,0.420,-2.450,-0.560
1203825,0.014,-0.007,1.032,0.490,-2.450,-0.560
1203845,0.016,-0.005,1.033,0.350,-2.380,-0.630
1203865,0.014,-0.002,1.033,0.280,-2.450,-0.630
1203885,0.014,-0.005,1.035,0.420,-2.450,-0.630
1203905,0.018,-0.007,1.035,0.420,-2.520,-0.630
1203925,0.017,-0.007,1.034,0.210,-2.450,-0.560
1203941,0.013,-0.008,1.035,0.350,-2.380,-0.560
1203961,0.015,-0.006,1.033,0.210,-2.380,-0.630
1203985,0.015,-0.005,1.035,0.350,-2.520,-0.560
1204004,0.014,-0.008,1.034,0.630,-2.520,-0.560
1204025,0.016,-0.006,1.035,0.490,-2.520,-0.560
1204045,0.014,-0.009,1.032,0.630,-2.310,-0.490
1204065,0.013,-0.008,1.032,0.490,-2.310,-0.490
1204085,0.015,-0.007,1.034,0.350,-2.450,-0.560
1204103,0.015,-0.004,1.034,0.280,-2.590,-0.560
1204124,0.015,-0.005,1.032,0.280,-2.450,-0.490
1204147,0.016,-0.006,1.035,0.350,-2.310,-0.630
1204165,0.017,-0.005,1.034,0.420,-2.170,-0.630
1204188,0.015,-0.007,1.036,0.560,-2.380,-0.630
1204208,0.015,-0.005,1.034,0.560,-2.450,-0.560
1204228,0.017,-0.005,1.032,0.140,-2.450,-0.560
1204248,0.015,-0.005,1.034,0.140,-2.450,-0.560
1204268,0.016,-0.007,1.035,0.280,-2.310,-0.630
1204287,0.016,-0.006,1.033,0.350,-2.310,-0.560
1204312,0.015,-0.006,1.032,0.280,-2.520,-0.560
1204332,0.017,-0.004,1.031,0.280,-2.380,-0.630
1204352,0.016,-0.007,1.035,0.420,-2.520,-0.560
1204372,0.016,-0.008,1.033,0.350,-2.520,-0.630
1204392,0.016,-0.008,1.030,0.350,-2.380,-0.630
1204412,0.016,-0.005,1.035,0.350,-2.380,-0.560
1204432,0.013,-0.006,1.035,0.350,-2.520,-0.560
1204452,0.015,-0.005,1.036,0.700,-2.590,-0.490
1204472,0.015,-0.007,1.034,0.490,-2.590,-0.630
1204492,0.016,-0.006,1.035,0.280,-2.380,-0.700
1204512,0.011,-0.006,1.032,0.210,-2.450,-0.490
1204531,0.014,-0.008,1.034,0.210,-2.450,-0.630
1204551,0.015,-0.007,1.035,0.280,-2.450,-0.560
1204570,0.018,-0.005,1.033,0.350,-2.310,-0.560
1204595,0.016,-0.006,1.032,0.420,-2.310,-0.630
1204615,0.015,-0.008,1.035,0.490,-2.590,-0.630
1204635,0.015,-0.007,1.036,0.350,-2.450,-0.700
1204654,0.012,-0.008,1.033,0.280,-2.450,-0.560
1204677,0.014,-0.005,1.033,0.280,-2.310,-0.630
1204697,0.016,-0.005,1.037,0.350,-2.380,-0.560
1204717,0.015,-0.006,1.035,0.280,-2.380,-0.490
1204736,0.015,-0.007,1.031,0.420,-2.310,-0.630
1204761,0.017,-0.006,1.035,0.210,-2.380,-0.630
1204777,0.016,-0.005,1.037,0.350,-2.450,-0.700
1204796,0.014,-0.005,1.029,0.350,-2.520,-0.560
1204816,0.014,-0.006,1.032,0.210,-2.380,-0.560
1204840,0.016,-0.006,1.033,0.210,-2.380,-0.560
1204859,0.016,-0.006,1.037,0.070,-2.380,-0.490
1204879,0.016,-0.004,1.033,0.420,-2.380,-0.630
1204899,0.014,-0.010,1.034,0.420,-2.450,-0.630
1204918,0.014,-0.005,1.036,0.210,-2.380,-0.560
1204938,0.014,-0.005,1.034,0.350,-2.380,-0.560
1204958,0.015,-0.008,1.035,0.630,-2.380,-0.630
1204983,0.015,-0.005,1.034,0.420,-2.380,-0.630
1205003,0.015,-0.008,1.033,0.420,-2.380,-0.700
1205021,0.014,-0.005,1.033,0.280,-2.380,-0.560
1205040,0.018,-0.006,1.033,0.210,-2.590,-0.560
1205060,0.016,-0.008,1.031,0.280,-2.520,-0.630
1205085,0.014,-0.006,1.033,0.420,-2.590,-0.630
1205105,0.016,-0.007,1.032,0.490,-2.380,-0.630
1205125,0.015,-0.008,1.036,0.490,-2.380,-0.560
1205145,0.016,-0.007,1.033,0.420,-2.380,-0.630
1205165,0.017,-0.010,1.032,0.490,-2.380,-0.630
1205185,0.016,-0.007,1.033,0.490,-2.520,-0.490
1205205,0.016,-0.007,1.035,0.350,-2.310,-0.560
1205224,0.013,-0.004,1.032,0.280,-2.380,-0.630
1205243,0.018,-0.006,1.032,0.210,-2.380,-0.560
1205265,0.014,-0.006,1.034,0.560,-2.450,-0.700
1205284,0.016,-0.010,1.032,0.420,-2.450,-0.490
1205305,0.014,-0.008,1.033,0.140,-2.310,-0.630
1205325,0.017,-0.007,1.032,0.140,-2.450,-0.560
1205345,0.014,-0.006,1.035,0.210,-2.380,-0.630
1205365,0.014,-0.007,1.035,0.350,-2.450,-0.560
1205384,0.016,-0.006,1.033,0.280,-2.450,-0.630
1205404,0.014,-0.007,1.033,0.280,-2.380,-0.560
1205424,0.018,-0.006,1.036,0.350,-2.450,-0.630
1205444,0.016,-0.004,1.034,0.490,-2.450,-0.560
1205464,0.018,-0.006,1.032,0.490,-2.450,-0.560
1205487,0.015,-0.007,1.032,0.420,-2.520,-0.700
1205511,0.016,-0.008,1.031,0.350,-2.450,-0.560
1205529,0.016,-0.005,1.034,0.140,-2.520,-0.560
1205551,0.014,-0.005,1.034,0.070,-2.450,-0.490
1205571,0.019,-0.004,1.034,0.280,-2.450,-0.490
1205591,0.015,-0.006,1.032,0.490,-2.380,-0.560
1205610,0.015,-0.006,1.031,0.350,-2.380,-0.560
1205634,0.014,-0.007,1.033,0.280,-2.380,-0.490
1205654,0.015,-0.005,1.033,0.350,-2.380,-0.630
1205678,0.015,-0.008,1.034,0.280,-2.450,-0.560
1205697,0.015,-0.005,1.034,0.210,-2.450,-0.630
1205718,0.017,-0.003,1.033,0.420,-2.310,-0.490
1205738,0.016,-0.006,1.033,0.350,-2.450,-0.630
1205756,0.017,-0.007,1.033,0.350,-2.520,-0.630
1205780,0.015,-0.008,1.036,0.350,-2.520,-0.560
1205800,0.015,-0.005,1.033,0.350,-2.520,-0.700
1205819,0.014,-0.006,1.032,0.350,-2.520,-0.490
1205840,0.017,-0.007,1.033,0.350,-2.450,-0.560
1205860,0.012,-0.005,1.033,0.420,-2.380,-0.560
1205876,0.014,-0.006,1.032,0.490,-2.520,-0.630
1205900,0.016,-0.006,1.032,0.490,-2.450,-0.630
1205915,0.014,-0.004,1.034,0.350,-2.380,-0.560
1205935,0.015,-0.007,1.033,0.280,-2.450,-0.560
1205960,0.016,-0.007,1.034,0.210,-2.450,-0.560
1205980,0.014,-0.005,1.034,0.210,-2.450,-0.560
1206000,0.016,-0.005,1.036,0.350,-2.450,-0.560
1206019,0.017,-0.007,1.035,0.490,-2.450,-0.560
1206044,0.018,-0.007,1.033,0.420,-2.450,-0.630
1206064,0.014,-0.007,1.035,0.210,-2.520,-0.560
1206084,0.017,-0.005,1.033,0.280,-2.520,-0.630
1206104,0.017,-0.006,1.034,0.280,-2.450,-0.560
1206124,0.014,-0.007,1.031,0.350,-2.380,-0.560
1206144,0.015,-0.006,1.034,0.210,-2.380,-0.630
1206164,0.015,-0.005,1.034,0.210,-2.450,-0.630
1206184,0.017,-0.007,1.035,0.350,-2.310,-0.630
1206204,0.016,-0.010,1.034,0.490,-2.520,-0.630
1206224,0.015,-0.005,1.033,0.350,-2.380,-0.560
1206243,0.016,-0.004,1.033,0.350,-2.450,-0.630
1206263,0.017,-0.008,1.034,0.210,-2.310,-0.560
1206288,0.016,-0.005,1.035,0.350,-2.450,-0.630
1206311,0.016,-0.008,1.034,0.350,-2.450,-0.560
1206331,0.014,-0.008,1.032,0.350,-2.380,-0.630
1206351,0.016,-0.006,1.036,0.210,-2.450,-0.560
1206371,0.018,-0.006,1.035,0.140,-2.380,-0.560
1206395,0.017,-0.008,1.036,0.350,-2.450,-0.560
1206415,0.014,-0.008,1.032,0.560,-2.450,-0.630
1206435,0.017,-0.005,1.034,0.140,-2.450,-0.630
1206455,0.017,-0.005,1.034,0.070,-2.380,-0.630
1206473,0.017,-0.008,1.036,0.420,-2.310,-0.560
1206491,0.017,-0.011,1.032,0.560,-2.310,-0.630
1206515,0.016,-0.008,1.032,0.420,-2.310,-0.630
1206539,0.016,-0.004,1.036,0.280,-2.450,-0.700
1206559,0.018,-0.004,1.033,0.140,-2.380,-0.630
1206579,0.014,-0.008,1.031,0.140,-2.450,-0.560
1206599,0.014,-0.008,1.033,0.490,-2.310,-0.560
1206615,0.017,-0.004,1.035,0.210,-2.380,-0.560
1206635,0.015,-0.008,1.036,0.350,-2.450,-0.560
1206655,0.015,-0.006,1.030,0.350,-2.450,-0.560
1206674,0.016,-0.006,1.036,0.490,-2.450,-0.560
1206699,0.017,-0.006,1.037,0.490,-2.380,-0.560
1206719,0.016,-0.006,1.034,0.420,-2.380,-0.560
1206743,0.015,-0.006,1.032,0.490,-2.450,-0.560
1206763,0.017,-0.008,1.032,0.350,-2.310,-0.630
1206783,0.019,-0.006,1.032,0.280,-2.240,-0.560
1206803,0.018,-0.004,1.034,0.420,-2.520,-0.560
1206823,0.015,-0.007,1.036,0.560,-2.590,-0.490
1206843,0.015,-0.009,1.030,0.420,-2.520,-0.490
1206862,0.016,-0.004,1.032,0.000,-2.310,-0.630
1206882,0.016,-0.005,1.036,0.000,-2.520,-0.560
1206907,0.018,-0.004,1.034,0.000,-2.450,-0.630
1206926,0.016,-0.002,1.031,0.490,-2.380,-0.560
1206946,0.016,-0.005,1.034,0.630,-2.450,-0.560
1206969,0.017,-0.006,1.036,0.630,-2.520,-0.630
1206993,0.013,-0.003,1.038,0.630,-2.450,-0.700
1207013,0.014,-0.008,1.034,0.560,-2.590,-0.560
1207033,0.016,-0.007,1.031,0.490,-2.450,-0.630
1207053,0.014,-0.006,1.030,0.140,-2.310,-0.490
1207073,0.015,-0.004,1.035,0.210,-2.450,-0.490
1207092,0.015,-0.005,1.034,0.560,-2.450,-0.560
1207112,0.014,-0.006,1.034,0.490,-2.450,-0.630
1207132,0.015,-0.007,1.034,0.350,-2.380,-0.700
1207156,0.017,-0.006,1.033,0.420,-2.520,-0.630
1207180,0.016,-0.008,1.034,0.420,-2.450,-0.560
1207200,0.014,-0.005,1.033,0.420,-2.380,-0.630
1207220,0.012,-0.010,1.031,0.070,-2.520,-0.560
1207238,0.017,-0.005,1.031,0.070,-2.240,-0.560
1207255,0.015,-0.006,1.035,0.490,-2.380,-0.560
1207280,0.013,-0.006,1.034,0.350,-2.380,-0.630
1207304,0.017,-0.006,1.032,0.560,-2.450,-0.700
1207324,0.017,-0.007,1.031,0.420,-2.520,-0.560
1207344,0.015,-0.008,1.033,0.420,-2.450,-0.560
1207364,0.014,-0.007,1.031,0.350,-2.520,-0.560
1207384,0.016,-0.007,1.034,0.350,-2.310,-0.560
1207404,0.016,-0.005,1.034,0.490,-2.450,-0.630
1207423,0.017,-0.003,1.033,0.770,-2.310,-0.490
1207441,0.013,-0.003,1.023,0.490,-2.100,-0.630
1207461,0.014,-0.007,1.035,1.260,-2.380,-0.630
1207481,0.013,-0.010,1.041,0.910,-2.800,-0.560
1207505,0.010,-0.012,1.038,1.120,-2.590,-0.630
1207525,0.011,-0.006,1.032,0.770,-2.800,-0.630
1207545,0.016,-0.008,1.030,-0.140,-2.240,-0.700
1207565,0.016,-0.005,1.031,-0.630,-1.960,-0.630
1207585,0.015,-0.002,1.034,0.000,-2.240,-0.630
1207605,0.016,-0.011,1.036,1.050,-2.450,-0.630
1207625,0.016,-0.010,1.031,0.350,-2.450,-0.560
1207643,0.016,-0.005,1.032,-0.070,-2.380,-0.630
1207665,0.015,-0.005,1.034,-0.210,-2.380,-0.700
1207685,0.018,-0.003,1.033,-0.070,-2.310,-0.630
1207705,0.015,-0.008,1.036,0.840,-2.240,-0.560
1207722,0.016,-0.008,1.033,0.770,-2.450,-0.560
1207742,0.015,-0.009,1.030,0.420,-2.520,-0.560
1207766,0.013,-0.008,1.031,0.210,-2.450,-0.630
1207786,0.014,-0.006,1.036,0.070,-2.310,-0.490
1207806,0.014,-0.004,1.034,0.280,-2.450,-0.560
1207825,0.018,-0.007,1.035,0.630,-2.590,-0.630
1207841,0.017,-0.009,1.033,0.350,-2.520,-0.560
1207861,0.015,-0.007,1.035,0.140,-2.380,-0.630
1207886,0.016,-0.006,1.034,0.140,-2.380,-0.630
1207906,0.015,-0.005,1.033,0.210,-2.380,-0.630
1207926,0.013,-0.005,1.033,0.350,-2.450,-0.630
1207946,0.017,-0.004,1.035,0.490,-2.380,-0.630
1207966,0.014,-0.009,1.033,0.420,-2.450,-0.630
1207986,0.015,-0.006,1.032,-0.490,-2.520,-0.560
1208006,0.016,-0.003,1.037,-0.490,-2.450,-0.630
1208026,0.012,0.000,1.037,-0.630,-2.590,-0.490
1208046,0.018,-0.004,1.029,-0.350,-2.100,-0.490
1208066,0.019,-0.007,1.034,0.210,-2.030,-0.630
1208081,0.014,-0.010,1.035,0.980,-2.730,-0.630
1208106,0.017,-0.010,1.030,0.560,-2.310,-0.630
1208126,0.017,-0.008,1.032,-0.350,-2.240,-0.630
1208146,0.017,-0.003,1.034,-0.140,-2.170,-0.490
1208166,0.018,-0.003,1.035,0.210,-2.240,-0.560
1208186,0.016,-0.006,1.034,0.980,-2.450,-0.630
1208202,0.014,-0.008,1.033,0.630,-2.450,-0.560
1208222,0.015,-0.007,1.031,0.280,-2.380,-0.630
1208246,0.015,-0.005,1.034,0.070,-2.450,-0.630
1208266,0.015,-0.005,1.036,0.280,-2.450,-0.560
1208284,0.016,-0.006,1.033,0.700,-2.590,-0.630
1208303,0.015,-0.005,1.031,0.490,-2.380,-0.560
1208327,0.015,-0.008,1.032,0.420,-2.520,-0.490
1208351,0.014,-0.004,1.036,0.280,-2.450,-0.630
1208371,0.017,-0.006,1.037,0.420,-2.450,-0.560
1208391,0.014,-0.008,1.033,0.420,-2.450,-0.560
1208411,0.015,-0.006,1.031,0.140,-2.450,-0.560
1208431,0.015,-0.005,1.035,0.210,-2.380,-0.490
1208446,0.016,-0.006,1.036,0.630,-2.450,-0.560
1208466,0.016,-0.007,1.031,0.350,-2.380,-0.560
1208491,0.016,-0.005,1.034,0.140,-2.310,-0.630
1208511,0.016,-0.005,1.035,0.350,-2.380,-0.420
1208531,0.016,-0.006,1.033,0.420,-2.380,-0.560
1208551,0.016,-0.008,1.031,0.350,-2.310,-0.560
1208567,0.016,-0.008,1.035,0.350,-2.380,-0.630
1208586,0.015,-0.008,1.035,0.210,-2.450,-0.700
1208606,0.014,-0.009,1.032,0.490,-2.380,-0.560
1208626,0.017,-0.006,1.035,0.280,-2.450,-0.630
1208651,0.017,-0.006,1.032,0.280,-2.380,-0.630
1208671,0.016,-0.006,1.035,0.560,-2.310,-0.490
1208688,0.016,-0.008,1.036,0.560,-2.520,-0.490
1208708,0.017,-0.005,1.033,0.630,-2.380,-0.560
1208728,0.016,-0.005,1.032,0.210,-2.380,-0.560
1208748,0.013,-0.005,1.035,0.140,-2.450,-0.560
1208772,0.016,-0.008,1.035,0.210,-2.450,-0.560
1208792,0.017,-0.005,1.033,0.140,-2.310,-0.630
1208816,0.017,-0.006,1.033,0.350,-2.380,-0.630
1208836,0.017,-0.007,1.036,0.350,-2.520,-0.560
1208856,0.017,-0.006,1.033,0.350,-2.520,-0.490
1208876,0.015,-0.008,1.033,0.280,-2.450,-0.560
1208895,0.014,-0.004,1.035,0.280,-2.450,-0.490
1208916,0.016,-0.008,1.036,0.210,-2.450,-0.630
1208933,0.016,-0.007,1.032,0.420,-2.450,-0.630
1208953,0.015,-0.006,1.033,0.280,-2.380,-0.630
1208977,0.016,-0.005,1.035,0.280,-2.450,-0.560
1208997,0.017,-0.004,1.034,0.420,-2.380,-0.490
1209017,0.015,-0.006,1.032,0.490,-2.310,-0.630
1209037,0.015,-0.008,1.034,0.280,-2.380,-0.560
1209053,0.018,-0.007,1.035,0.280,-2.380,-0.560
1209072,0.017,-0.004,1.034,0.280,-2.380,-0.490
1209092,0.016,-0.005,1.032,0.420,-2.380,-0.560
1209117,0.014,-0.008,1.034,0.420,-2.380,-0.630
1209137,0.018,-0.007,1.036,0.420,-2.380,-0.630
1209157,0.017,-0.003,1.036,0.490,-2.380,-0.630
1209181,0.014,-0.008,1.034,0.490,-2.380,-0.560
1209200,0.014,-0.008,1.032,0.560,-2.450,-0.560
1209225,0.016,-0.005,1.032,0.070,-2.310,-0.630
1209245,0.015,-0.007,1.034,0.070,-2.380,-0.560
1209265,0.013,-0.007,1.035,0.210,-2.520,-0.490
1209285,0.015,-0.005,1.031,0.210,-2.520,-0.560
1209301,0.015,-0.006,1.032,0.350,-2.310,-0.560
1209325,0.015,-0.008,1.033,0.140,-2.450,-0.560
1209343,0.014,-0.005,1.035,0.350,-2.450,-0.630
1209365,0.015,-0.008,1.030,0.630,-2.380,-0.700
1209385,0.015,-0.007,1.033,0.420,-2.310,-0.560
1209405,0.016,-0.006,1.034,0.140,-2.380,-0.630
1209422,0.014,-0.008,1.033,0.280,-2.380,-0.630
1209442,0.015,-0.009,1.035,0.420,-2.520,-0.560
1209462,0.016,-0.005,1.036,0.350,-2.520,-0.490
1209481,0.018,-0.007,1.033,0.490,-2.450,-0.630
1209501,0.016,-0.006,1.031,0.350,-2.450,-0.560
1209521,0.015,-0.005,1.033,0.210,-2.450,-0.630
1209546,0.017,-0.006,1.037,0.420,-2.380,-0.560
1209566,0.017,-0.003,1.035,0.420,-2.450,-0.490
1209586,0.013,-0.006,1.032,0.420,-2.450,-0.630
1209606,0.017,-0.005,1.033,0.420,-2.380,-0.560
1209626,0.017,-0.004,1.036,0.420,-2.380,-0.630
1209646,0.015,-0.007,1.033,0.420,-2.450,-0.560
1209670,0.016,-0.008,1.032,0.350,-2.380,-0.630
1209688,0.017,-0.005,1.036,0.070,-2.380,-0.560
1209710,0.014,-0.006,1.036,0.280,-2.450,-0.560
1209726,0.016,-0.005,1.034,0.350,-2.450,-0.560
1209750,0.018,-0.006,1.030,0.350,-2.450,-0.630
1209770,0.017,-0.010,1.033,0.140,-2.380,-0.630
1209790,0.014,-0.006,1.034,0.210,-2.450,-0.630
1209806,0.015,-0.006,1.036,0.350,-2.450,-0.560
1209826,0.016,-0.004,1.035,0.490,-2.450,-0.630
1209845,0.018,-0.005,1.035,0.420,-2.450,-0.630
1209870,0.016,-0.006,1.036,0.560,-2.310,-0.630
1209890,0.018,-0.005,1.032,0.490,-2.450,-0.560
1209909,0.015,-0.006,1.031,0.420,-2.380,-0.560
1209929,0.018,-0.006,1.034,0.420,-2.240,-0.630
1209949,0.016,-0.007,1.035,0.420,-2.380,-0.560
1209968,0.017,-0.007,1.031,0.210,-2.310,-0.630
1209988,0.016,-0.007,1.033,0.140,-2.310,-0.490
1210013,0.015,-0.005,1.035,0.280,-2.450,-0.560
1210031,0.016,-0.006,1.039,0.490,-2.520,-0.630
1210055,0.016,-0.008,1.034,0.560,-2.380,-0.630
1210074,0.017,-0.008,1.032,0.490,-2.450,-0.560
1210095,0.014,-0.008,1.034,0.420,-2.310,-0.490
1210119,0.016,-0.006,1.036,0.210,-2.380,-0.560
1210139,0.018,-0.004,1.035,0.210,-2.310,-0.490
1210156,0.014,-0.008,1.031,0.280,-2.380,-0.560
1210180,0.016,-0.006,1.033,0.560,-2.310,-0.630
1210199,0.018,-0.008,1.036,0.350,-2.380,-0.560
1210223,0.015,-0.007,1.037,0.420,-2.520,-0.560
1210247,0.015,-0.007,1.035,0.490,-2.450,-0.630
1210267,0.014,-0.007,1.033,0.280,-2.380,-0.560
1210284,0.016,-0.007,1.032,0.420,-2.310,-0.630
1210308,0.016,-0.007,1.034,0.210,-2.240,-0.700
1210328,0.016,-0.003,1.034,0.420,-2.520,-0.490
1210347,0.015,-0.006,1.032,0.490,-2.450,-0.560
1210363,0.017,-0.005,1.036,0.350,-2.450,-0.630
1210383,0.015,-0.004,1.035,0.350,-2.380,-0.560
1210404,0.016,-0.003,1.035,0.280,-2.380,-0.630
1210424,0.016,-0.008,1.034,0.630,-2.310,-0.560
1210443,0.014,-0.011,1.034,0.560,-2.520,-0.630
1210463,0.015,-0.009,1.032,0.350,-2.380,-0.490
1210483,0.014,-0.004,1.034,0.210,-2.380,-0.630
1210508,0.015,-0.006,1.034,0.280,-2.240,-0.630
1210524,0.016,-0.006,1.034,0.210,-2.450,-0.560
1210544,0.016,-0.008,1.031,0.280,-2.380,-0.560
1210563,0.016,-0.005,1.035,0.210,-2.380,-0.560
1210583,0.015,-0.006,1.033,0.210,-2.310,-0.630
1210603,0.015,-0.006,1.034,0.350,-2.450,-0.630
1210623,0.016,-0.007,1.032,0.490,-2.450,-0.630
1210646,0.015,-0.006,1.032,0.420,-2.380,-0.630
1210666,0.017,-0.006,1.036,0.420,-2.520,-0.560
1210685,0.015,-0.008,1.034,0.420,-2.520,-0.630
1210705,0.016,-0.007,1.035,0.210,-2.310,-0.560
1210725,0.013,-0.006,1.029,0.140,-2.310,-0.560
1210745,0.016,-0.004,1.035,0.140,-2.310,-0.560
1210770,0.018,-0.005,1.037,0.420,-2.310,-0.560
1210790,0.016,-0.007,1.034,0.630,-2.310,-0.630
1210810,0.015,-0.009,1.032,0.630,-2.520,-0.560
1210830,0.014,-0.009,1.033,0.350,-2.450,-0.700
1210850,0.016,-0.006,1.032,0.070,-2.380,-0.560
1210870,0.016,-0.004,1.031,0.280,-2.380,-0.560
1210888,0.016,-0.004,1.031,0.280,-2.380,-0.560
1210912,0.016,-0.004,1.030,0.210,-2.310,-0.630
1210932,0.017,-0.005,1.037,0.140,-2.310,-0.490
1210952,0.015,-0.005,1.036,0.560,-2.450,-0.560
1210972,0.015,-0.009,1.032,0.490,-2.520,-0.560
1210992,0.016,-0.006,1.034,0.420,-2.450,-0.560
1211009,0.012,-0.008,1.034,0.350,-2.310,-0.630
1211029,0.015,-0.007,1.032,0.420,-2.380,-0.630
1211048,0.015,-0.008,1.034,0.280,-2.450,-0.560
1211073,0.019,-0.005,1.035,0.140,-2.310,-0.630
1211096,0.015,-0.006,1.035,0.350,-2.450,-0.630
1211116,0.017,-0.008,1.035,0.210,-2.450,-0.630
1211140,0.012,-0.006,1.032,0.280,-2.240,-0.560
1211160,0.017,-0.004,1.032,0.420,-2.380,-0.560
1211180,0.016,-0.007,1.034,0.420,-2.450,-0.630
1211200,0.015,-0.006,1.035,0.350,-2.380,-0.560
1211220,0.015,-0.006,1.035,0.700,-2.380,-0.490
1211240,0.016,-0.009,1.036,0.630,-2.450,-0.630
1211260,0.016,-0.005,1.036,0.700,-2.590,-0.560
1211276,0.014,-0.007,1.030,0.070,-2.450,-0.560
1211296,0.017,-0.003,1.033,-0.070,-2.310,-0.560
1211316,0.015,-0.003,1.038,0.000,-2.450,-0.560
1211340,0.015,-0.006,1.033,0.560,-2.450,-0.630
1211360,0.013,-0.008,1.031,0.490,-2.380,-0.560
1211380,0.016,-0.008,1.036,0.210,-2.450,-0.560
1211400,0.017,-0.006,1.038,0.280,-2.380,-0.560
1211420,0.014,-0.007,1.032,0.490,-2.450,-0.560
1211440,0.014,-0.006,1.031,0.350,-2.450,-0.700
1211460,0.015,-0.006,1.035,0.280,-2.450,-0.630
1211480,0.016,-0.006,1.038,0.350,-2.450,-0.490
1211500,0.017,-0.005,1.034,0.210,-2.450,-0.560
1211520,0.016,-0.007,1.033,0.420,-2.450,-0.560
1211538,0.016,-0.006,1.034,0.420,-2.240,-0.630
1211562,0.013,-0.006,1.034,0.210,-2.450,-0.630
1211582,0.015,-0.006,1.034,0.350,-2.380,-0.560
1211605,0.016,-0.006,1.031,0.490,-2.240,-0.630
1211624,0.016,-0.010,1.033,0.490,-2.450,-0.490
1211646,0.014,-0.007,1.035,0.420,-2.520,-0.490
1211665,0.014,-0.009,1.034,0.490,-2.380,-0.700
1211690,0.015,-0.004,1.034,0.490,-2.380,-0.630
1211714,0.015,-0.005,1.030,0.280,-2.450,-0.630
1211734,0.017,-0.006,1.034,0.210,-2.310,-0.560
1211750,0.016,-0.006,1.034,0.210,-2.310,-0.630
1211774,0.016,-0.006,1.033,0.140,-2.450,-0.560
1211794,0.015,-0.005,1.031,0.070,-2.380,-0.630
1211814,0.016,-0.007,1.035,0.280,-2.380,-0.560
1211834,0.015,-0.008,1.035,0.560,-2.450,-0.490
1211854,0.016,-0.009,1.032,0.630,-2.380,-0.560
1211873,0.016,-0.006,1.033,0.560,-2.450,-0.630
1211897,0.017,-0.007,1.032,0.420,-2.380,-0.630
1211917,0.016,-0.004,1.035,0.420,-2.450,-0.630
1211937,0.014,-0.005,1.033,0.350,-2.520,-0.560
1211957,0.015,-0.005,1.034,0.210,-2.380,-0.560
1211977,0.014,-0.005,1.035,0.350,-2.380,-0.490
1211992,0.015,-0.007,1.035,0.350,-2.380,-0.630
1212017,0.017,-0.009,1.034,0.350,-2.450,-0.560
1212037,0.016,-0.008,1.035,0.280,-2.450,-0.630
1212057,0.014,-0.007,1.033,0.350,-2.450,-0.630
1212077,0.016,-0.007,1.032,0.420,-2.380,-0.630
1212097,0.016,-0.007,1.034,0.490,-2.520,-0.630
1212113,0.013,-0.005,1.034,0.350,-2.450,-0.630
1212137,0.014,-0.004,1.034,0.350,-2.520,-0.700
1212157,0.015,-0.006,1.032,0.280,-2.310,-0.630
1212177,0.015,-0.005,1.036,0.420,-2.380,-0.630
1212196,0.016,-0.005,1.035,0.280,-2.380,-0.630
1212217,0.016,-0.007,1.032,0.210,-2.380,-0.560
1212237,0.016,-0.005,1.030,0.280,-2.520,-0.490
1212257,0.017,-0.004,1.033,0.280,-2.380,-0.490
1212277,0.014,-0.006,1.036,0.420,-2.380,-0.490
1212297,0.015,-0.008,1.033,0.490,-2.520,-0.560
1212317,0.017,-0.007,1.032,0.280,-2.450,-0.560
1212337,0.016,-0.007,1.033,0.070,-2.310,-0.630
1212353,0.017,-0.003,1.035,0.420,-2.380,-0.630
1212374,0.014,-0.007,1.032,0.630,-2.450,-0.630
1212394,0.015,-0.005,1.029,0.350,-2.450,-0.560
1212417,0.016,-0.005,1.035,0.140,-2.380,-0.560
1212436,0.015,-0.006,1.035,0.210,-2.450,-0.560
1212460,0.018,-0.005,1.033,0.210,-2.450,-0.560
1212484,0.015,-0.003,1.032,0.350,-2.380,-0.490
1212504,0.015,-0.007,1.035,0.280,-2.380,-0.560
1212524,0.016,-0.005,1.035,0.280,-2.380,-0.560
1212548,0.016,-0.007,1.032,0.280,-2.450,-0.560
1212567,0.015,-0.006,1.029,0.280,-2.450,-0.630
1212592,0.015,-0.008,1.030,0.210,-2.240,-0.560
1212616,0.016,-0.005,1.033,0.280,-2.310,-0.630
1212634,0.014,-0.006,1.036,0.420,-2.380,-0.630
1212653,0.018,-0.006,1.033,0.350,-2.450,-0.490
1212678,0.017,-0.008,1.031,0.210,-2.450,-0.630
1212698,0.015,-0.006,1.037,0.210,-2.380,-0.630
1212718,0.013,-0.006,1.034,0.280,-2.380,-0.560
1212737,0.015,-0.005,1.031,0.210,-2.450,-0.560
1212761,0.013,-0.006,1.030,0.210,-2.520,-0.560
1212781,0.016,-0.007,1.037,0.700,-2.310,-0.700
1212800,0.017,-0.009,1.039,0.700,-2.520,-0.560
1212821,0.012,-0.010,1.035,0.770,-2.520,-0.560
1212841,0.016,-0.008,1.027,0.350,-2.450,-0.630
1212860,0.015,-0.006,1.034,-0.350,-2.310,-0.560
1212879,0.015,-0.003,1.037,-0.070,-2.380,-0.560
1212904,0.018,-0.002,1.035,0.210,-2.380,-0.560
1212928,0.015,-0.005,1.031,0.490,-2.380,-0.560
1212948,0.018,-0.008,1.033,0.700,-2.450,-0.630
1212968,0.012,-0.007,1.037,0.420,-2.520,-0.490
1212983,0.016,-0.008,1.029,0.210,-2.520,-0.630
1213006,0.015,-0.008,1.032,-0.070,-2.310,-0.560
1213026,0.017,-0.004,1.037,-0.070,-2.450,-0.560
1213046,0.017,-0.003,1.033,0.210,-2.450,-0.630
1213066,0.016,-0.005,1.033,0.490,-2.590,-0.560
1213086,0.015,-0.009,1.031,0.630,-2.450,-0.560
1213106,0.015,-0.009,1.037,0.350,-2.520,-0.560
1213126,0.016,-0.009,1.036,0.350,-2.380,-0.630
1213148,0.017,-0.006,1.035,0.420,-2.310,-0.560
1213168,0.016,-0.006,1.035,0.700,-2.380,-0.630
1213188,0.014,-0.007,1.032,0.420,-2.450,-0.630
1213208,0.015,-0.005,1.032,0.350,-2.520,-0.630
1213232,0.014,-0.004,1.030,0.000,-2.450,-0.630
1213252,0.016,-0.006,1.038,0.070,-2.380,-0.560
1213272,0.012,-0.009,1.035,0.560,-2.450,-0.490
1213292,0.014,-0.009,1.033,0.700,-2.450,-0.560
1213312,0.014,-0.009,1.031,0.490,-2.310,-0.560
1213332,0.015,-0.006,1.036,0.210,-2.450,-0.560
1213349,0.017,-0.006,1.029,-0.210,-2.380,-0.490
1213369,0.017,-0.004,1.028,0.280,-2.240,-0.630
1213388,0.015,-0.006,1.037,0.910,-2.380,-0.630
1213408,0.018,-0.008,1.036,0.840,-2.520,-0.700
1213428,0.013,-0.009,1.029,0.770,-2.450,-0.630
1213453,0.015,-0.004,1.031,0.000,-2.520,-0.630
1213473,0.016,-0.004,1.037,0.070,-2.240,-0.560
1213491,0.015,-0.007,1.033,0.560,-2.380,-0.630
1213509,0.015,-0.008,1.033,0.490,-2.380,-0.560
1213529,0.016,-0.007,1.035,0.350,-2.450,-0.700
1213549,0.015,-0.007,1.035,0.350,-2.450,-0.630
1213569,0.015,-0.005,1.034,0.350,-2.450,-0.560
1213589,0.016,-0.005,1.033,0.420,-2.380,-0.560
1213609,0.017,-0.009,1.034,0.630,-2.520,-0.630
1213629,0.013,-0.008,1.034,0.490,-2.520,-0.490
1213648,0.016,-0.006,1.032,0.140,-2.310,-0.490
1213673,0.017,-0.003,1.032,0.070,-2.380,-0.630
1213693,0.016,-0.005,1.037,0.210,-2.310,-0.630
1213712,0.018,-0.006,1.036,0.490,-2.450,-0.630
1213732,0.016,-0.008,1.033,0.700,-2.520,-0.700
1213757,0.015,-0.008,1.029,0.560,-2.450,-0.630
1213777,0.016,-0.004,1.033,0.350,-2.450,-0.560
1213797,0.015,-0.004,1.035,0.140,-2.520,-0.560
1213817,0.017,-0.005,1.033,0.210,-2.450,-0.560
1213836,0.014,-0.006,1.030,0.210,-2.450,-0.560
1213855,0.016,-0.005,1.033,0.350,-2.520,-0.560
1213875,0.015,-0.007,1.035,0.350,-2.520,-0.560
1213895,0.015,-0.006,1.032,0.420,-2.450,-0.560
1213920,0.013,-0.007,1.031,0.210,-2.380,-0.700
1213940,0.015,-0.006,1.036,0.070,-2.380,-0.560
1213959,0.015,-0.005,1.033,0.000,-2.310,-0.490
1213978,0.014,-0.006,1.034,0.140,-2.450,-0.560
1213998,0.016,-0.007,1.036,0.490,-2.380,-0.630
1214018,0.015,-0.009,1.032,0.560,-2.380,-0.560
1214041,0.016,-0.006,1.032,0.560,-2.450,-0.560
1214061,0.013,-0.008,1.033,0.490,-2.380,-0.560
1214085,0.016,-0.006,1.031,0.210,-2.380,-0.630
1214105,0.017,-0.006,1.032,0.280,-2.520,-0.630
1214125,0.014,-0.005,1.036,0.140,-2.520,-0.630
1214145,0.016,-0.004,1.033,0.210,-2.380,-0.630
1214165,0.015,-0.008,1.034,0.420,-2.520,-0.490
1214185,0.016,-0.005,1.036,0.210,-2.450,-0.630
1214204,0.014,-0.008,1.036,0.350,-2.450,-0.630
1214224,0.015,-0.008,1.030,0.350,-2.380,-0.560
1214248,0.018,-0.006,1.032,0.280,-2.380,-0.560
1214268,0.016,-0.007,1.035,0.420,-2.380,-0.630
1214288,0.017,-0.007,1.034,0.350,-2.380,-0.630
1214308,0.015,-0.005,1.033,0.210,-2.380,-0.560
1214326,0.016,-0.005,1.035,0.490,-2.450,-0.630
1214346,0.014,-0.009,1.037,0.490,-2.450,-0.560
1214366,0.012,-0.008,1.032,0.280,-2.590,-0.560
1214386,0.017,-0.006,1.028,0.000,-2.310,-0.560
1214410,0.018,-0.003,1.034,0.000,-2.310,-0.560
1214430,0.017,-0.006,1.037,0.840,-2.450,-0.560
1214446,0.014,-0.007,1.035,1.120,-2.590,-0.700
1214470,0.012,-0.010,1.030,0.770,-2.520,-0.630
1214490,0.012,-0.007,1.033,-0.140,-2.450,-0.630
1214510,0.016,-0.002,1.034,-0.070,-2.380,-0.560
1214530,0.016,-0.003,1.034,0.630,-2.240,-0.560
1214550,0.018,-0.004,1.034,0.490,-2.450,-0.630
1214565,0.016,-0.009,1.035,0.350,-2.520,-0.630
1214590,0.015,-0.008,1.034,-0.070,-2.310,-0.560
1214610,0.018,-0.005,1.033,-0.070,-2.240,-0.700
1214630,0.018,-0.006,1.037,0.140,-2.310,-0.560
1214650,0.017,-0.007,1.034,0.490,-2.450,-0.630
1214670,0.015,-0.008,1.034,0.490,-2.450,-0.560
1214688,0.017,-0.007,1.035,0.490,-2.380,-0.560
1214712,0.017,-0.004,1.033,0.350,-2.380,-0.630
1214732,0.014,-0.006,1.034,0.350,-2.310,-0.560
1214752,0.014,-0.009,1.033,0.420,-2.450,-0.560
1214772,0.015,-0.007,1.034,0.420,-2.450,-0.490
1214792,0.017,-0.007,1.033,0.210,-2.380,-0.560
1214811,0.016,-0.006,1.037,0.140,-2.450,-0.630
1214835,0.017,-0.003,1.032,0.420,-2.380,-0.560
1214855,0.016,-0.005,1.035,0.490,-2.380,-0.630
1214875,0.016,-0.007,1.034,0.420,-2.380,-0.630
1214895,0.016,-0.005,1.034,0.420,-2.590,-0.630
1214915,0.018,-0.006,1.033,0.280,-2.450,-0.560
1214935,0.014,-0.006,1.031,0.280,-2.380,-0.490
1214955,0.015,-0.006,1.033,0.350,-2.380,-0.560
1214975,0.018,-0.005,1.035,0.140,-2.240,-0.630
1214994,0.016,-0.005,1.034,0.560,-2.450,-0.630
1215010,0.015,-0.010,1.034,0.420,-2.450,-0.630
1215030,0.016,-0.007,1.034,-0.140,-2.380,-0.630
1215051,0.015,-0.005,1.033,-0.070,-2.310,-0.630
1215071,0.015,-0.006,1.035,0.280,-2.380,-0.630
1215091,0.016,-0.007,1.036,0.700,-2.520,-0.700
1215110,0.016,-0.007,1.035,0.700,-2.660,-0.630
1215130,0.018,-0.006,1.033,0.490,-2.380,-0.560
1215150,0.017,-0.008,1.029,0.070,-2.380,-0.560
1215175,0.015,-0.006,1.034,0.070,-2.380,-0.630
1215195,0.015,-0.006,1.037,0.210,-2.380,-0.630
1215215,0.014,-0.006,1.034,0.070,-2.450,-0.560
1215235,0.014,-0.005,1.033,0.140,-2.450,-0.630
1215255,0.017,-0.006,1.035,0.490,-2.450,-0.560
1215275,0.015,-0.007,1.033,0.560,-2.450,-0.630
1215299,0.016,-0.010,1.031,0.560,-2.380,-0.630
1215319,0.015,-0.009,1.033,0.280,-2.450,-0.560
1215339,0.015,-0.003,1.036,0.210,-2.380,-0.630
1215358,0.016,-0.005,1.036,0.000,-2.310,-0.560
1215378,0.015,-0.006,1.031,0.420,-2.450,-0.560
1215403,0.013,-0.008,1.030,0.350,-2.380,-0.560
1215420,0.016,-0.009,1.037,0.280,-2.590,-0.560
1215439,0.014,-0.005,1.033,0.210,-2.520,-0.560
1215459,0.017,-0.008,1.033,0.280,-2.380,-0.630
1215479,0.016,-0.007,1.036,0.420,-2.520,-0.630
1215499,0.016,-0.007,1.034,0.560,-2.520,-0.630
1215519,0.014,-0.006,1.031,0.490,-2.520,-0.560
1215541,0.016,-0.005,1.032,0.210,-2.380,-0.630
1215565,0.012,-0.005,1.031,0.140,-2.380,-0.490
1215585,0.014,-0.005,1.036,0.000,-2.520,-0.560
1215603,0.015,-0.007,1.034,0.140,-2.450,-0.630
1215625,0.017,-0.008,1.031,0.350,-2.450,-0.560
1215645,0.017,-0.008,1.034,0.280,-2.380,-0.490
1215669,0.018,-0.007,1.036,0.350,-2.380,-0.490
1215687,0.016,-0.008,1.035,0.630,-2.310,-0.560
1215709,0.014,-0.006,1.031,0.280,-2.450,-0.560
1215729,0.015,-0.006,1.034,0.350,-2.380,-0.560
1215749,0.015,-0.006,1.036,0.350,-2.450,-0.700
1215769,0.017,-0.007,1.035,0.560,-2.450,-0.560
1215784,0.015,-0.005,1.033,0.350,-2.380,-0.630
1215809,0.014,-0.003,1.037,0.280,-2.380,-0.700
1215829,0.014,-0.008,1.036,0.420,-2.520,-0.630
1215849,0.015,-0.006,1.033,0.490,-2.450,-0.630
1215869,0.014,-0.008,1.036,0.140,-2.380,-0.630
1215889,0.017,-0.006,1.034,0.280,-2.450,-0.630
1215913,0.015,-0.005,1.035,0.350,-2.380,-0.560
1215933,0.016,-0.005,1.035,0.560,-2.590,-0.560
1215953,0.016,-0.006,1.033,0.700,-2.380,-0.560
1215973,0.013,-0.006,1.033,0.560,-2.450,-0.560
1215993,0.015,-0.007,1.034,0.420,-2.380,-0.560
1216013,0.013,-0.005,1.032,0.490,-2.450,-0.630
1216030,0.016,-0.004,1.036,0.280,-2.380,-0.630
1216051,0.015,-0.006,1.036,0.280,-2.380,-0.700
1216070,0.016,-0.007,1.034,0.420,-2.310,-0.630
1216090,0.016,-0.007,1.032,0.280,-2.380,-0.490
1216110,0.015,-0.006,1.034,0.280,-2.380,-0.560
1216130,0.014,-0.004,1.036,0.280,-2.520,-0.560
1216155,0.015,-0.008,1.034,0.210,-2.520,-0.560
1216175,0.016,-0.006,1.032,0.210,-2.450,-0.560
1216195,0.012,-0.007,1.035,0.140,-2.450,-0.630
1216215,0.015,-0.006,1.037,0.280,-2.380,-0.560
1216235,0.016,-0.008,1.032,0.280,-2.380,-0.560
1216254,0.014,-0.006,1.032,0.280,-2.310,-0.700
1216278,0.015,-0.008,1.037,0.420,-2.380,-0.490
1216298,0.016,-0.007,1.034,0.560,-2.520,-0.490
1216318,0.014,-0.005,1.030,0.560,-2.450,-0.630
1216338,0.016,-0.004,1.033,0.140,-2.310,-0.560
1216358,0.014,-0.008,1.036,0.280,-2.450,-0.560
1216377,0.014,-0.006,1.034,0.350,-2.590,-0.560
1216397,0.017,-0.007,1.033,0.420,-2.310,-0.560
1216416,0.017,-0.004,1.032,0.350,-2.380,-0.560
1216436,0.015,-0.007,1.037,0.140,-2.450,-0.560
1216461,0.015,-0.006,1.032,0.210,-2.380,-0.630
1216481,0.013,-0.006,1.032,0.280,-2.310,-0.560
1216501,0.016,-0.007,1.035,0.560,-2.380,-0.560
1216521,0.013,-0.006,1.035,0.630,-2.310,-0.630
1216541,0.014,-0.007,1.032,0.630,-2.450,-0.560
1216561,0.016,-0.006,1.033,0.420,-2.380,-0.560
1216581,0.018,-0.009,1.033,0.490,-2.450,-0.630
1216601,0.016,-0.007,1.032,0.350,-2.380,-0.560
1216621,0.014,-0.005,1.032,0.280,-2.310,-0.490
1216638,0.015,-0.006,1.037,0.350,-2.520,-0.630
1216662,0.015,-0.005,1.038,0.350,-2.450,-0.560
1216682,0.014,-0.007,1.032,0.280,-2.590,-0.560
1216702,0.014,-0.006,1.032,0.210,-2.380,-0.560
1216718,0.014,-0.008,1.036,0.140,-2.520,-0.560
1216742,0.017,-0.008,1.037,0.280,-2.450,-0.630
1216758,0.013,-0.006,1.032,0.420,-2.380,-0.560
1216778,0.015,-0.006,1.032,0.350,-2.380,-0.630
1216797,0.016,-0.006,1.034,0.350,-2.450,-0.560
1216822,0.016,-0.007,1.036,0.420,-2.380,-0.630
1216846,0.017,-0.006,1.031,0.490,-2.450,-0.560
1216866,0.017,-0.007,1.032,0.350,-2.380,-0.560
1216885,0.014,-0.008,1.035,0.350,-2.450,-0.560
1216909,0.015,-0.004,1.036,0.140,-2.310,-0.630
1216929,0.014,-0.008,1.034,0.140,-2.380,-0.560
1216949,0.016,-0.005,1.032,0.210,-2.310,-0.560
1216969,0.016,-0.006,1.035,0.210,-2.380,-0.630
1216989,0.016,-0.005,1.033,0.630,-2.520,-0.560
1217006,0.017,-0.007,1.031,0.560,-2.310,-0.630
1217030,0.017,-0.009,1.032,0.840,-2.450,-0.560
1217050,0.017,-0.006,1.036,0.420,-2.450,-0.490
1217070,0.015,-0.006,1.035,0.140,-2.380,-0.560
1217090,0.013,-0.008,1.032,0.140,-2.380,-0.560
1217110,0.014,-0.007,1.035,0.350,-2.450,-0.630
1217130,0.012,-0.009,1.035,0.630,-2.520,-0.560
1217150,0.014,-0.009,1.030,0.490,-2.450,-0.490
1217170,0.014,-0.006,1.032,0.210,-2.450,-0.560
1217190,0.015,-0.005,1.036,0.070,-2.380,-0.630
1217210,0.014,-0.005,1.032,0.210,-2.520,-0.560
1217230,0.015,-0.004,1.033,0.630,-2.450,-0.560
1217246,0.012,-0.006,1.036,0.490,-2.590,-0.560
1217270,0.015,-0.004,1.032,0.280,-2.520,-0.560
1217290,0.016,-0.005,1.033,0.420,-2.520,-0.630
1217310,0.017,-0.007,1.030,0.420,-2.380,-0.630
1217330,0.016,-0.006,1.035,0.210,-2.520,-0.630
1217349,0.015,-0.006,1.034,0.210,-2.450,-0.560
1217370,0.013,-0.008,1.029,0.560,-2.380,-0.630
1217389,0.017,-0.007,1.032,0.210,-2.240,-0.630
1217406,0.015,-0.005,1.034,0.210,-2.450,-0.560
1217428,0.017,-0.006,1.032,0.210,-2.380,-0.560
1217452,0.014,-0.006,1.033,0.070,-2.310,-0.630
1217472,0.014,-0.003,1.030,0.210,-2.380,-0.560
1217491,0.015,-0.005,1.038,0.350,-2.380,-0.630
1217511,0.015,-0.009,1.034,0.630,-2.310,-0.560
1217532,0.016,-0.009,1.032,0.630,-2.310,-0.700
1217551,0.014,-0.009,1.034,0.350,-2.520,-0.560
1217575,0.013,-0.006,1.034,0.350,-2.520,-0.560
1217599,0.014,-0.005,1.034,0.560,-2.380,-0.560
1217618,0.016,-0.007,1.032,0.210,-2.310,-0.630
1217638,0.016,-0.005,1.034,0.210,-2.310,-0.630
1217658,0.014,-0.006,1.037,0.140,-2.310,-0.700
1217678,0.013,-0.008,1.032,0.140,-2.380,-0.560
1217698,0.014,-0.004,1.030,0.630,-2.310,-0.630
1217718,0.016,-0.009,1.038,0.840,-2.520,-0.700
1217737,0.014,-0.007,1.032,0.280,-2.380,-0.630
1217757,0.018,-0.007,1.026,0.070,-2.380,-0.630
1217777,0.015,-0.004,1.037,0.000,-2.310,-0.630
1217797,0.016,-0.003,1.037,0.350,-2.380,-0.700
1217817,0.018,-0.004,1.033,0.420,-2.450,-0.560
1217842,0.017,-0.008,1.031,0.490,-2.310,-0.630
1217861,0.015,-0.006,1.035,0.420,-2.520,-0.630
1217881,0.014,-0.008,1.037,0.350,-2.520,-0.560
1217901,0.014,-0.006,1.032,0.210,-2.450,-0.560
1217921,0.014,-0.005,1.034,0.350,-2.450,-0.630
1217945,0.016,-0.007,1.036,0.280,-2.520,-0.560
1217965,0.016,-0.006,1.034,0.210,-2.240,-0.560
1217980,0.013,-0.006,1.028,0.350,-2.310,-0.490
1218000,0.015,-0.006,1.033,0.280,-2.380,-0.560
1218020,0.019,-0.005,1.036,0.420,-2.450,-0.630
1218045,0.015,-0.007,1.032,0.350,-2.520,-0.630
1218065,0.015,-0.004,1.033,0.210,-2.310,-0.630
1218085,0.014,-0.006,1.035,0.350,-2.450,-0.560
1218105,0.017,-0.006,1.035,0.280,-2.450,-0.560
1218121,0.014,-0.007,1.030,0.420,-2.380,-0.630
1218145,0.014,-0.006,1.030,0.280,-2.240,-0.630
1218165,0.016,-0.006,1.035,0.280,-2.520,-0.630
1218185,0.015,-0.005,1.034,0.420,-2.450,-0.630
1218209,0.016,-0.006,1.033,0.420,-2.310,-0.630
1218228,0.017,-0.009,1.036,0.280,-2.520,-0.630
1218248,0.016,-0.001,1.033,-0.070,-2.310,-0.630
1218273,0.016,-0.004,1.035,0.070,-2.310,-0.560
1218291,0.016,-0.004,1.037,0.910,-2.450,-0.700
1218310,0.013,-0.006,1.038,1.190,-2.520,-0.630
1218334,0.014,-0.012,1.030,0.630,-2.450,-0.560
1218353,0.015,-0.013,1.033,0.420,-2.380,-0.630
1218377,0.017,-0.011,1.030,0.560,-2.450,-0.630
1218397,0.017,-0.008,1.032,-0.210,-2.240,-0.700
1218412,0.015,-0.003,1.034,0.350,-2.310,-0.630
1218433,0.015,-0.005,1.033,0.700,-2.450,-0.560
1218453,0.018,-0.008,1.034,0.840,-2.310,-0.630
1218472,0.014,-0.006,1.036,0.350,-2.310,-0.630
1218492,0.012,-0.006,1.036,0.070,-2.380,-0.560
1218517,0.015,-0.007,1.032,0.210,-2.450,-0.630
1218536,0.014,-0.003,1.034,0.350,-2.310,-0.560
1218556,0.015,-0.005,1.032,0.280,-2.450,-0.630
1218581,0.015,-0.006,1.035,0.420,-2.520,-0.560
1218601,0.015,-0.006,1.032,0.350,-2.380,-0.630
1218620,0.016,-0.005,1.031,0.350,-2.380,-0.560
1218638,0.018,-0.006,1.037,0.280,-2.450,-0.700
1218658,0.014,-0.005,1.034,0.280,-2.380,-0.560
1218678,0.016,-0.008,1.032,0.350,-2.310,-0.630
1218698,0.015,-0.007,1.036,0.490,-2.450,-0.630
1218722,0.014,-0.005,1.039,0.350,-2.520,-0.700
1218738,0.015,-0.007,1.031,0.140,-2.450,-0.560
1218762,0.017,-0.005,1.026,-0.070,-2.310,-0.490
1218782,0.016,-0.004,1.031,0.140,-2.100,-0.560
1218802,0.015,-0.005,1.038,0.560,-2.450,-0.700
1218822,0.017,-0.006,1.035,1.260,-2.520,-0.630
1218843,0.015,-0.010,1.031,1.190,-2.520,-0.560
1218867,0.014,-0.010,1.033,0.980,-2.450,-0.630
1218887,0.012,-0.011,1.035,0.630,-2.450,-0.630
1218902,0.017,-0.005,1.030,0.070,-2.380,-0.630
1218927,0.015,-0.004,1.033,0.140,-2.450,-0.560
1218947,0.017,-0.006,1.035,0.420,-2.380,-0.630
1218967,0.017,-0.005,1.035,0.630,-2.520,-0.560
1218983,0.016,-0.006,1.032,0.490,-2.380,-0.560
1219004,0.014,-0.010,1.034,0.280,-2.450,-0.560
1219024,0.014,-0.005,1.033,0.070,-2.520,-0.630
1219043,0.015,-0.005,1.031,0.210,-2.450,-0.490
1219063,0.015,-0.005,1.034,0.350,-2.450,-0.560
1219084,0.016,-0.003,1.036,0.420,-2.380,-0.630
1219107,0.014,-0.007,1.032,0.420,-2.380,-0.560
1219126,0.016,-0.008,1.033,0.420,-2.310,-0.490
1219151,0.014,-0.006,1.030,0.350,-2.380,-0.630
1219171,0.014,-0.005,1.035,0.140,-2.450,-0.630
1219191,0.015,-0.006,1.032,0.210,-2.380,-0.560
1219206,0.014,-0.007,1.033,0.490,-2.380,-0.560
1219231,0.017,-0.007,1.037,0.490,-2.520,-0.490
1219251,0.014,-0.007,1.033,0.140,-2.380,-0.560
1219271,0.016,-0.004,1.025,0.000,-2.310,-0.560
1219291,0.015,-0.003,1.036,0.560,-2.310,-0.630
1219306,0.015,-0.009,1.034,1.120,-2.730,-0.630
1219331,0.014,-0.011,1.035,0.980,-2.380,-0.700
1219351,0.016,-0.002,1.025,0.140,-2.240,-0.630
1219371,0.016,-0.002,1.034,-0.630,-2.240,-0.560
1219389,0.017,-0.003,1.034,-0.070,-2.450,-0.560
1219411,0.014,-0.005,1.032,0.630,-2.380,-0.560
1219431,0.017,-0.010,1.036,0.980,-2.590,-0.560
1219450,0.015,-0.010,1.036,0.560,-2.660,-0.560
1219470,0.017,-0.008,1.030,0.280,-2.380,-0.560
1219494,0.019,-0.006,1.028,0.140,-2.170,-0.630
1219514,0.014,-0.003,1.038,0.000,-2.240,-0.560
1219533,0.017,-0.004,1.036,0.350,-2.520,-0.560
1219553,0.014,-0.007,1.032,0.350,-2.450,-0.630
1219578,0.014,-0.005,1.030,0.210,-2.380,-0.630
1219598,0.015,-0.008,1.036,0.070,-2.450,-0.630
1219618,0.016,-0.005,1.036,0.280,-2.380,-0.630
1219638,0.016,-0.005,1.032,0.700,-2.450,-0.560
1219657,0.014,-0.008,1.034,0.840,-2.450,-0.560
1219682,0.014,-0.007,1.035,0.420,-2.590,-0.560
1219699,0.016,-0.007,1.032,0.140,-2.450,-0.490
1219722,0.015,-0.008,1.030,0.140,-2.450,-0.630
1219742,0.015,-0.004,1.037,0.140,-2.380,-0.560
1219762,0.016,-0.003,1.034,0.350,-2.310,-0.560
1219781,0.018,-0.008,1.032,0.420,-2.380,-0.560
1219806,0.015,-0.008,1.026,0.070,-2.520,-0.560
1219821,0.016,-0.002,1.035,0.350,-2.450,-0.560
1219841,0.014,-0.005,1.045,0.980,-2.660,-0.700
1219866,0.016,-0.003,1.044,1.190,-2.520,-0.630
1219886,0.014,-0.006,1.038,1.540,-2.660,-0.630
1219906,0.013,-0.015,1.027,1.400,-2.590,-0.560
1219926,0.013,-0.014,1.029,-0.350,-2.450,-0.630
1219945,0.014,-0.004,1.035,-0.630,-2.450,-0.630
1219966,0.017,-0.000,1.037,0.350,-2.520,-0.560
1219986,0.014,-0.004,1.034,0.910,-2.520,-0.700
1220010,0.015,-0.008,1.029,0.910,-2.380,-0.560
1220030,0.017,-0.005,1.033,0.210,-2.380,-0.630
1220050,0.020,-0.004,1.034,0.070,-2.450,-0.700
1220069,0.016,-0.004,1.033,0.210,-2.380,-0.630
1220089,0.016,-0.005,1.034,0.420,-2.450,-0.560
1220109,0.012,-0.006,1.036,0.280,-2.520,-0.630
1220129,0.014,-0.010,1.033,0.280,-2.660,-0.560
1220149,0.015,-0.006,1.031,0.210,-2.520,-0.630
1220168,0.016,-0.006,1.037,0.280,-2.590,-0.560
1220193,0.015,-0.007,1.033,0.630,-2.730,-0.560
1220213,0.015,-0.007,1.030,0.490,-2.520,-0.630
1220233,0.016,-0.008,1.031,0.210,-2.520,-0.490
1220253,0.015,-0.005,1.036,0.210,-2.380,-0.630
1220271,0.016,-0.004,1.036,0.210,-2.450,-0.560
1220288,0.018,-0.007,1.030,0.560,-2.380,-0.560
1220311,0.017,-0.009,1.032,0.280,-2.310,-0.560
1220330,0.013,-0.007,1.031,-0.140,-2.380,-0.560
1220350,0.015,-0.005,1.028,-17.780,-2.240,-0.560
1220370,0.017,-0.003,1.037,0.560,-2.310,-0.630
1220390,0.014,-0.008,1.041,0.840,-2.520,-0.630
1220410,0.018,-0.007,1.031,0.840,-2.380,-0.630
1220435,0.015,-0.009,1.029,0.140,-2.310,-0.630
1220455,0.015,-0.005,1.038,-0.280,-2.310,-0.560
1220475,0.017,-0.005,1.038,0.350,-2.380,-0.490
1220494,0.017,-0.007,1.028,0.770,-2.380,-0.490
1220515,0.019,-0.007,1.037,0.560,-2.380,-0.630
1220535,0.015,-0.008,1.039,0.420,-2.450,-0.630
1220553,0.013,-0.005,1.032,0.420,-2.310,-0.490
1220573,0.014,-0.007,1.028,0.350,-2.170,-0.560
1220593,0.019,-0.007,1.036,0.140,-2.380,-0.490
1220613,0.016,-0.005,1.039,0.280,-2.450,-0.560
1220633,0.015,-0.005,1.031,0.700,-2.380,-0.560
1220653,0.015,-0.008,1.033,0.770,-2.520,-0.630
1220672,0.017,-0.009,1.037,0.560,-2.450,-0.630
1220693,0.016,-0.009,1.029,0.000,-2.590,-0.560
1220713,0.017,-0.005,1.031,0.000,-2.310,-0.560
1220733,0.014,-0.004,1.042,-0.140,-2.450,-0.630
1220757,0.016,-0.005,1.037,0.420,-2.310,-0.560
1220777,0.015,-0.007,1.033,0.560,-2.450,-0.490
1220796,0.018,-0.008,1.034,0.350,-2.450,-0.490
1220817,0.016,-0.006,1.034,0.350,-2.520,-0.630
1220837,0.016,-0.006,1.034,0.280,-2.450,-0.560
1220857,0.018,-0.003,1.030,0.490,-2.450,-0.630
1220877,0.013,-0.008,1.032,0.490,-2.380,-0.560
1220897,0.015,-0.006,1.036,0.280,-2.660,-0.560
1220912,0.016,-0.004,1.029,0.280,-2.240,-0.630
1220937,0.016,-0.007,1.037,0.560,-2.450,-0.560
1220957,0.017,-0.008,1.037,0.350,-2.380,-0.630
1220977,0.016,-0.006,1.034,0.420,-2.380,-0.560
1220997,0.018,-0.007,1.031,0.490,-2.170,-0.630
1221017,0.015,-0.010,1.034,0.280,-2.240,-0.560
1221036,0.014,-0.005,1.031,0.070,-2.240,-0.630
1221056,0.016,-0.003,1.030,0.140,-2.310,-0.630
1221080,0.013,-0.006,1.037,0.210,-2.450,-0.560
1221100,0.016,-0.005,1.033,0.560,-2.380,-0.560
1221120,0.015,-0.005,1.031,0.560,-2.450,-0.560
1221139,0.018,-0.007,1.035,0.210,-2.520,-0.630
1221155,0.014,-0.005,1.034,0.210,-2.660,-0.700
1221175,0.017,-0.006,1.030,0.140,-2.450,-0.630
1221195,0.016,-0.006,1.032,0.350,-2.450,-0.630
1221215,0.015,-0.004,1.037,0.350,-2.380,-0.630
1221240,0.013,-0.008,1.033,0.420,-2.450,-0.560
1221260,0.016,-0.007,1.030,0.490,-2.450,-0.630
1221279,0.015,-0.008,1.034,0.490,-2.520,-0.630
1221303,0.014,-0.004,1.035,0.210,-2.520,-0.630
1221323,0.015,-0.006,1.032,0.210,-2.520,-0.630
1221341,0.016,-0.006,1.033,0.280,-2.310,-0.630
1221363,0.014,-0.008,1.035,0.420,-2.450,-0.630
1221379,0.018,-0.008,1.032,0.490,-2.520,-0.560
1221403,0.015,-0.010,1.031,0.700,-2.450,-0.560
1221423,0.014,-0.007,1.033,0.420,-2.380,-0.560
1221442,0.016,-0.006,1.036,-0.070,-2.520,-0.630
1221463,0.016,-0.005,1.034,0.000,-2.380,-0.560
1221478,0.016,-0.010,1.033,0.560,-2.310,-0.560
1221503,0.015,-0.007,1.036,0.420,-2.380,-0.560
1221527,0.018,-0.007,1.035,0.420,-2.450,-0.630
1221545,0.015,-0.008,1.028,0.280,-2.450,-0.560
1221567,0.018,-0.006,1.032,0.280,-2.380,-0.560
1221587,0.014,-0.009,1.037,0.210,-2.380,-0.560
1221607,0.015,-0.003,1.033,0.070,-2.520,-0.490
1221627,0.016,-0.007,1.032,0.210,-2.310,-0.560
1221644,0.015,-0.008,1.038,0.630,-2.450,-0.560
1221664,0.016,-0.008,1.033,0.840,-2.380,-0.560
1221684,0.014,-0.008,1.028,0.280,-2.380,-0.700
1221704,0.016,-0.008,1.034,-0.070,-2.380,-0.560
1221723,0.018,-0.006,1.033,0.210,-2.450,-0.560
1221743,0.016,-0.004,1.032,0.420,-2.450,-0.560
1221768,0.015,-0.006,1.032,0.140,-2.310,-0.490
1221788,0.017,-0.004,1.036,0.140,-2.450,-0.560
1221807,0.014,-0.008,1.035,0.140,-2.450,-0.630
1221832,0.015,-0.005,1.035,0.280,-2.310,-0.490
1221852,0.016,-0.009,1.032,0.350,-2.310,-0.630
1221872,0.015,-0.009,1.036,0.350,-2.450,-0.560
1221889,0.016,-0.008,1.032,0.350,-2.450,-0.560
1221908,0.015,-0.006,1.033,0.560,-2.310,-0.630
1221933,0.014,-0.007,1.035,0.630,-2.380,-0.560
1221953,0.017,-0.005,1.034,0.350,-2.520,-0.490
1221971,0.014,-0.005,1.032,0.420,-2.310,-0.560
1221988,0.015,-0.003,1.036,0.210,-2.310,-0.630
1222011,0.014,-0.004,1.036,0.140,-2.310,-0.630
1222035,0.013,-0.007,1.033,0.210,-2.450,-0.630
1222055,0.014,-0.007,1.030,0.280,-2.380,-0.630
1222071,0.015,-0.007,1.037,0.210,-2.450,-0.560
1222092,0.013,-0.008,1.035,0.420,-2.590,-0.560
1222113,0.016,-0.006,1.032,0.420,-2.310,-0.560
1222137,0.015,-0.009,1.030,0.490,-2.380,-0.700
1222157,0.014,-0.006,1.035,0.350,-2.310,-0.630
1222177,0.017,-0.003,1.033,0.420,-2.450,-0.630
1222197,0.017,-0.005,1.032,0.490,-2.380,-0.630
1222217,0.015,-0.005,1.034,0.420,-2.450,-0.560
1222237,0.014,-0.006,1.037,0.560,-2.520,-0.630
1222253,0.015,-0.005,1.030,0.350,-2.450,-0.630
1222275,0.016,-0.008,1.033,0.280,-2.240,-0.700
1222295,0.016,-0.005,1.038,0.000,-2.380,-0.630
1222319,0.016,-0.007,1.030,0.210,-2.310,-0.630
1222339,0.015,-0.005,1.029,0.420,-2.520,-0.630
1222358,0.014,-0.006,1.035,0.210,-2.590,-0.630
1222374,0.014,-0.005,1.034,0.560,-2.520,-0.700
1222394,0.015,-0.008,1.029,0.490,-2.380,-0.560
1222419,0.015,-0.008,1.037,0.420,-2.380,-0.560
1222439,0.015,-0.007,1.036,0.070,-2.590,-0.630
1222459,0.012,-0.009,1.034,0.280,-2.520,-0.560
1222476,0.018,-0.007,1.032,0.280,-2.520,-0.560
1222499,0.015,-0.004,1.037,0.210,-2.310,-0.560
1222519,0.014,-0.006,1.034,0.490,-2.450,-0.630
1222539,0.015,-0.007,1.032,0.350,-2.380,-0.630
1222559,0.014,-0.008,1.032,0.350,-2.380,-0.560
1222577,0.016,-0.007,1.036,0.280,-2.450,-0.630
1222598,0.014,-0.007,1.034,0.490,-2.380,-0.630
1222618,0.016,-0.006,1.034,0.490,-2.240,-0.700
1222637,0.015,-0.004,1.037,0.140,-2.450,-0.490
1222662,0.014,-0.007,1.034,0.210,-2.380,-0.700
1222682,0.016,-0.007,1.031,0.350,-2.450,-0.630
1222701,0.016,-0.006,1.031,0.490,-2.450,-0.560
1222722,0.016,-0.008,1.035,0.420,-2.450,-0.560
1222741,0.018,-0.007,1.032,0.210,-2.520,-0.630
1222761,0.016,-0.005,1.032,0.210,-2.310,-0.630
1222785,0.018,-0.006,1.037,0.420,-2.310,-0.560
1222805,0.014,-0.007,1.034,0.490,-2.380,-0.490
1222825,0.015,-0.005,1.031,0.280,-2.380,-0.560
1222845,0.015,-0.006,1.035,0.140,-2.380,-0.490
1222865,0.015,-0.007,1.036,0.210,-2.450,-0.560
1222882,0.014,-0.006,1.032,0.280,-2.380,-0.560
1222903,0.016,-0.008,1.030,0.350,-2.380,-0.560
1222923,0.015,-0.008,1.035,0.210,-2.310,-0.560
1222943,0.014,-0.004,1.035,0.280,-2.450,-0.560
1222967,0.015,-0.008,1.028,0.560,-2.240,-0.560
1222982,0.016,-0.009,1.033,0.770,-2.380,-0.630
1223002,0.013,-0.006,1.039,0.630,-2.520,-0.490
1223022,0.018,-0.008,1.030,0.490,-2.310,-0.560
1223046,0.016,-0.007,1.031,0.140,-2.310,-0.630
1223067,0.018,-0.005,1.036,-0.140,-2.380,-0.630
1223087,0.013,-0.004,1.037,-0.070,-2.310,-0.560
1223103,0.017,-0.007,1.029,0.490,-2.380,-0.630
1223123,0.016,-0.008,1.037,0.700,-2.380,-0.700
1223147,0.016,-0.006,1.038,0.560,-2.450,-0.630
1223162,0.014,-0.005,1.030,0.350,-2.240,-0.560
1223187,0.016,-0.010,1.032,0.350,-2.450,-0.560
1223207,0.015,-0.005,1.037,0.210,-2.450,-0.560
1223226,0.014,-0.005,1.036,0.140,-2.450,-0.630
1223246,0.016,-0.004,1.032,0.350,-2.380,-0.560
1223266,0.016,-0.007,1.034,0.350,-2.240,-0.560
1223290,0.015,-0.006,1.036,0.350,-2.450,-0.700
1223310,0.013,-0.006,1.033,0.280,-2.450,-0.560
1223330,0.015,-0.006,1.031,0.210,-2.310,-0.560
1223345,0.013,-0.002,1.037,0.210,-2.380,-0.630
1223370,0.017,-0.006,1.035,0.280,-2.380,-0.630
1223389,0.018,-0.006,1.031,0.560,-2.310,-0.630
1223410,0.018,-0.007,1.034,0.420,-2.380,-0.560
1223430,0.016,-0.007,1.037,0.280,-2.450,-0.560
1223450,0.015,-0.004,1.033,0.350,-2.450,-0.560
1223465,0.017,-0.005,1.030,0.560,-2.240,-0.560
1223485,0.016,-0.007,1.036,0.420,-2.310,-0.560
1223505,0.016,-0.008,1.035,0.490,-2.380,-0.700
1223530,0.014,-0.007,1.031,0.210,-2.590,-0.560
1223550,0.015,-0.005,1.033,0.070,-2.450,-0.490
1223570,0.015,-0.004,1.034,0.210,-2.380,-0.490
1223585,0.015,-0.005,1.032,0.420,-2.310,-0.560
1223607,0.016,-0.007,1.034,0.280,-2.450,-0.560
1223627,0.014,-0.006,1.038,0.420,-2.520,-0.560
1223647,0.017,-0.008,1.035,0.420,-2.380,-0.560
1223666,0.017,-0.006,1.028,0.420,-2.380,-0.560
1223686,0.016,-0.006,1.034,0.140,-2.310,-0.630
1223711,0.015,-0.006,1.036,0.070,-2.520,-0.560
1223731,0.016,-0.005,1.034,0.210,-2.380,-0.630
1223751,0.015,-0.006,1.033,0.560,-2.520,-0.630
1223775,0.013,-0.005,1.033,0.350,-2.310,-0.630
1223795,0.015,-0.006,1.035,0.280,-2.590,-0.560
1223815,0.017,-0.007,1.033,0.420,-2.310,-0.630
1223832,0.016,-0.007,1.035,0.210,-2.380,-0.700
1223852,0.016,-0.005,1.037,0.280,-2.310,-0.630
1223872,0.019,-0.007,1.031,0.350,-2.380,-0.630
1223891,0.013,-0.006,1.034,0.560,-2.380,-0.560
1223911,0.015,-0.006,1.036,0.420,-2.380,-0.630
1223936,0.015,-0.004,1.034,0.140,-2.520,-0.490
1223953,0.018,-0.006,1.031,0.490,-2.240,-0.700
1223973,0.016,-0.005,1.034,0.560,-2.380,-0.630
1223997,0.014,-0.006,1.034,0.420,-2.520,-0.560
1224017,0.015,-0.008,1.035,0.280,-2.450,-0.490
1224037,0.016,-0.007,1.035,0.350,-2.450,-0.490
1224057,0.015,-0.007,1.036,0.420,-2.590,-0.560
1224075,0.016,-0.008,1.032,0.420,-2.380,-0.560
1224098,0.015,-0.007,1.031,0.280,-2.380,-0.630
1224118,0.014,-0.008,1.034,0.490,-2.450,-0.490
1224138,0.016,-0.008,1.035,0.420,-2.450,-0.630
1224162,0.018,-0.006,1.030,0.140,-2.170,-0.490
1224182,0.018,-0.009,1.031,0.210,-2.310,-0.490
1224199,0.016,-0.007,1.037,0.350,-2.310,-0.560
1224218,0.014,-0.006,1.033,0.490,-2.310,-0.560
1224238,0.013,-0.009,1.031,0.560,-2.240,-0.560
1224258,0.016,-0.007,1.033,0.350,-2.310,-0.560
1224282,0.017,-0.007,1.036,0.350,-2.520,-0.490
1224306,0.016,-0.007,1.032,0.280,-2.380,-0.630
1224325,0.015,-0.006,1.032,0.280,-2.590,-0.490
1224345,0.014,-0.007,1.033,0.350,-2.520,-0.630
1224364,0.016,-0.005,1.036,0.420,-2.590,-0.630
1224384,0.014,-0.008,1.032,0.420,-2.520,-0.630
1224404,0.014,-0.010,1.031,0.350,-2.660,-0.560
1224424,0.015,-0.008,1.040,0.070,-2.590,-0.700
1224449,0.016,-0.006,1.038,0.140,-2.310,-0.560
1224469,0.017,-0.006,1.032,0.280,-2.310,-0.630
1224493,0.015,-0.007,1.034,0.490,-2.450,-0.490
1224513,0.017,-0.008,1.034,0.140,-2.310,-0.560
1224533,0.018,-0.005,1.029,0.000,-2.380,-0.630
1224553,0.017,-0.005,1.033,0.280,-2.240,-0.560
1224568,0.017,-0.007,1.040,0.560,-2.590,-0.630
1224588,0.015,-0.007,1.036,0.980,-2.590,-0.700
1224608,0.016,-0.010,1.031,0.770,-2.380,-0.560
1224633,0.015,-0.010,1.030,0.140,-2.520,-0.630
1224653,0.015,-0.005,1.030,-0.210,-2.380,-0.630
1224673,0.015,-0.002,1.027,-0.140,-2.310,-0.490
1224692,0.020,-0.004,1.032,-0.070,-2.380,-0.490
1224712,0.015,-0.002,1.043,0.840,-2.590,-0.700
1224736,0.014,-0.002,1.045,1.050,-2.730,-0.630
1224756,0.013,-0.009,1.036,1.680,-2.660,-0.630
1224780,0.015,-0.014,1.041,1.750,-2.590,-0.560
1224800,0.013,-0.016,1.032,1.330,-2.380,-0.560
1224819,0.017,-0.015,1.025,-0.420,-2.100,-0.630
1224839,0.015,-0.004,1.024,-0.980,-1.890,-0.490
1224859,0.019,0.001,1.030,0.140,-2.100,-0.490
1224879,0.018,-0.005,1.038,0.910,-2.450,-0.560
1224904,0.015,-0.008,1.040,1.540,-2.450,-0.560
1224923,0.012,-0.011,1.038,0.910,-2.450,-0.560
1224939,0.015,-0.010,1.037,-0.070,-2.380,-0.490
1224964,0.014,-0.004,1.028,-0.630,-2.240,-0.560
1224982,0.015,0.000,1.030,-0.140,-2.170,-0.490
1225004,0.014,-0.003,1.030,-0.560,-2.520,-0.490
1225024,0.011,-0.007,1.037,0.140,-2.520,-0.630
1225044,0.015,-0.009,1.036,1.120,-2.730,-0.490
1225063,0.018,-0.011,1.036,0.770,-2.590,-0.560
1225083,0.015,-0.011,1.035,0.210,-2.520,-0.630
1225103,0.017,-0.008,1.029,-0.210,-2.310,-0.490
1225123,0.016,-0.006,1.028,-0.210,-2.310,-0.490
1225143,0.016,-0.003,1.037,0.140,-2.380,-0.630
1225167,0.015,-0.004,1.037,0.070,-2.450,-0.420
1225191,0.017,-0.005,1.035,0.350,-2.520,-0.630
1225211,0.015,-0.005,1.033,0.770,-2.520,-0.560
1225231,0.014,-0.009,1.037,0.490,-2.450,-0.560
1225251,0.014,-0.007,1.033,0.350,-2.450,-0.560
1225269,0.013,-0.007,1.029,0.350,-2.310,-0.560
1225287,0.015,-0.005,1.036,0.210,-2.310,-0.560
1225306,0.017,-0.004,1.033,0.280,-2.310,-0.560
1225330,0.017,-0.007,1.030,0.420,-2.450,-0.560
1225350,0.015,-0.007,1.032,0.210,-2.380,-0.630
1225370,0.016,-0.006,1.037,0.140,-2.450,-0.560
1225390,0.014,-0.006,1.031,0.350,-2.450,-0.560
1225414,0.016,-0.009,1.033,0.420,-2.310,-0.560
1225433,0.016,-0.006,1.032,0.420,-2.520,-0.630
1225453,0.016,-0.006,1.037,0.350,-2.450,-0.630
1225473,0.012,-0.005,1.033,0.350,-2.520,-0.630
1225497,0.018,-0.009,1.029,0.490,-2.310,-0.560
1225521,0.017,-0.007,1.029,0.420,-2.380,-0.560
1225541,0.017,-0.005,1.037,0.210,-2.380,-0.630
1225559,0.015,-0.005,1.033,0.420,-2.450,-0.560
1225579,0.016,-0.006,1.031,0.350,-2.450,-0.630
1225599,0.014,-0.006,1.034,0.350,-2.450,-0.630
1225619,0.015,-0.008,1.034,0.420,-2.310,-0.560
1225639,0.017,-0.006,1.031,0.280,-2.310,-0.490
1225663,0.014,-0.008,1.033,0.210,-2.310,-0.630
1225687,0.017,-0.008,1.037,0.140,-2.450,-0.630
1225707,0.015,-0.006,1.035,0.420,-2.380,-0.560
1225727,0.015,-0.006,1.034,0.420,-2.520,-0.630
1225747,0.014,-0.008,1.031,0.350,-2.520,-0.630
1225767,0.015,-0.005,1.036,0.210,-2.520,-0.630
1225787,0.017,-0.005,1.033,0.210,-2.450,-0.560
1225802,0.015,-0.008,1.035,0.560,-2.380,-0.630
1225822,0.014,-0.008,1.036,0.560,-2.590,-0.700
1225846,0.014,-0.006,1.031,0.350,-2.380,-0.490
1225870,0.014,-0.005,1.033,0.420,-2.380,-0.490
1225890,0.015,-0.006,1.039,0.280,-2.380,-0.630
1225910,0.015,-0.006,1.035,0.140,-2.450,-0.490
1225929,0.013,-0.008,1.033,0.420,-2.380,-0.700
1225953,0.017,-0.007,1.030,0.490,-2.380,-0.700
1225973,0.015,-0.008,1.033,0.070,-2.310,-0.560
1225993,0.016,-0.006,1.036,0.210,-2.450,-0.560
1226013,0.014,-0.003,1.030,0.210,-2.520,-0.560
1226033,0.015,-0.005,1.031,0.420,-2.450,-0.560
1226049,0.019,-0.009,1.036,0.490,-2.380,-0.630
1226069,0.017,-0.005,1.032,0.210,-2.310,-0.490
1226089,0.018,-0.008,1.031,0.280,-2.310,-0.700
1226109,0.016,-0.007,1.036,0.280,-2.450,-0.630
1226132,0.016,-0.007,1.034,0.280,-2.450,-0.630
1226155,0.017,-0.007,1.029,0.350,-2.450,-0.490
1226179,0.014,-0.005,1.031,0.280,-2.380,-0.560
1226198,0.016,-0.007,1.034,0.140,-2.520,-0.560
1226219,0.014,-0.006,1.036,0.140,-2.590,-0.630
1226239,0.015,-0.006,1.032,0.490,-2.450,-0.630
1226258,0.018,-0.006,1.034,0.420,-2.380,-0.560
1226279,0.013,-0.008,1.035,0.350,-2.590,-0.560
1226303,0.015,-0.006,1.031,0.280,-2.520,-0.630
1226322,0.017,-0.006,1.031,0.210,-2.240,-0.560
1226340,0.015,-0.007,1.035,0.210,-2.240,-0.630
1226359,0.016,-0.006,1.037,0.350,-2.380,-0.560
1226379,0.017,-0.005,1.031,0.420,-2.310,-0.630
1226404,0.017,-0.006,1.032,0.420,-2.240,-0.630
1226423,0.016,-0.008,1.037,0.420,-2.380,-0.490
1226447,0.016,-0.006,1.037,0.350,-2.450,-0.630
1226467,0.018,-0.009,1.035,0.630,-2.520,-0.630
1226491,0.014,-0.007,1.031,0.700,-2.590,-0.560
1226515,0.016,-0.010,1.031,0.210,-2.240,-0.560
1226535,0.015,-0.003,1.033,-0.140,-2.380,-0.560
1226555,0.015,-0.001,1.035,0.140,-2.450,-0.490
1226575,0.016,-0.006,1.034,0.700,-2.310,-0.630
1226593,0.015,-0.009,1.037,0.770,-2.450,-0.630
1226611,0.018,-0.008,1.035,0.560,-2.450,-0.630
1226630,0.016,-0.007,1.033,0.070,-2.450,-0.560
1226655,0.018,-0.007,1.031,0.280,-2.380,-0.560
1226671,0.018,-0.006,1.036,0.420,-2.380,-0.560
1226691,0.014,-0.006,1.035,0.560,-2.380,-0.630
1226715,0.016,-0.006,1.030,0.420,-2.450,-0.560
1226735,0.016,-0.009,1.036,0.280,-2.380,-0.560
1226755,0.014,-0.009,1.034,0.210,-2.380,-0.560
1226774,0.014,-0.007,1.034,0.420,-2.450,-0.630
1226795,0.017,-0.005,1.033,0.490,-2.450,-0.560
1226814,0.012,-0.007,1.037,0.420,-2.520,-0.630
1226835,0.013,-0.009,1.034,0.350,-2.590,-0.630
1226855,0.018,-0.006,1.033,0.280,-2.380,-0.700
1226875,0.018,-0.007,1.034,0.210,-2.450,-0.490
1226895,0.015,-0.005,1.036,0.560,-2.590,-0.630
1226918,0.016,-0.006,1.034,0.490,-2.450,-0.630
1226942,0.017,-0.005,1.033,0.420,-2.380,-0.630
1226960,0.018,-0.006,1.035,0.140,-2.380,-0.560
1226979,0.012,-0.006,1.035,0.070,-2.450,-0.630
1226999,0.013,-0.006,1.033,0.280,-2.310,-0.490
1227019,0.015,-0.006,1.035,0.210,-2.310,-0.560
1227038,0.015,-0.008,1.036,0.140,-2.310,-0.630
1227063,0.016,-0.006,1.037,0.210,-2.380,-0.630
1227081,0.016,-0.006,1.034,0.630,-2.170,-0.630
1227103,0.018,-0.003,1.036,0.840,-2.380,-0.700
1227123,0.019,-0.008,1.039,0.980,-2.590,-0.560
1227143,0.015,-0.010,1.032,0.350,-2.590,-0.490
1227163,0.016,-0.004,1.025,-0.070,-2.310,-0.560
1227183,0.013,-0.001,1.036,-0.210,-2.380,-0.560
1227207,0.014,-0.005,1.035,0.350,-2.450,-0.560
1227227,0.014,-0.005,1.035,0.280,-2.450,-0.560
1227247,0.017,-0.009,1.031,0.210,-2.450,-0.630
1227267,0.017,-0.006,1.034,0.210,-2.380,-0.630
1227287,0.017,-0.007,1.036,0.140,-2.660,-0.560
1227307,0.016,-0.007,1.031,0.490,-2.380,-0.700
1227326,0.015,-0.009,1.033,0.630,-2.380,-0.560
1227343,0.013,-0.005,1.034,0.350,-2.380,-0.630
1227363,0.016,-0.005,1.030,0.420,-2.380,-0.560
1227387,0.016,-0.004,1.035,0.210,-2.450,-0.630
1227407,0.016,-0.005,1.037,0.210,-2.450,-0.700
1227427,0.014,-0.006,1.036,0.140,-2.520,-0.700
1227447,0.019,-0.008,1.032,0.490,-2.310,-0.630
1227467,0.015,-0.007,1.029,0.280,-2.380,-0.700
1227487,0.016,-0.005,1.036,0.350,-2.380,-0.700
1227507,0.016,-0.006,1.033,0.560,-2.520,-0.700
1227526,0.013,-0.006,1.032,0.420,-2.380,-0.630
1227546,0.016,-0.008,1.031,0.070,-2.380,-0.630
1227570,0.016,-0.005,1.036,0.210,-2.310,-0.700
1227590,0.015,-0.005,1.036,0.840,-2.100,-0.700
1227610,0.014,-0.007,1.032,0.700,-2.310,-0.630
1227630,0.016,-0.011,1.034,0.770,-2.590,-0.770
1227648,0.017,-0.006,1.036,0.420,-2.380,-0.770
1227668,0.018,-0.008,1.036,0.420,-2.170,-0.840
1227690,0.012,-0.009,1.038,0.560,-2.240,-0.840
1227709,0.002,-0.012,1.033,0.000,-2.170,-0.700
1227729,0.020,-0.005,1.037,0.770,-3.010,-0.630
1227749,0.020,-0.000,1.036,0.980,-2.800,-0.420
1227774,0.018,-0.008,1.027,0.630,-2.660,-0.560
1227794,0.013,-0.004,1.034,0.910,-2.590,-0.630
1227814,0.020,-0.011,1.029,-0.070,-2.450,-0.700
1227833,0.017,-0.008,1.033,-0.070,-2.380,-0.700
1227849,0.011,-0.009,1.034,0.630,-2.590,-0.700
1227869,0.008,-0.010,1.034,0.350,-2.730,-0.630
1227894,0.014,-0.008,1.031,0.350,-2.590,-0.560
1227914,0.020,-0.001,1.032,0.840,-2.170,-0.700
1227934,0.017,-0.004,1.035,0.560,-2.380,-0.630
1227954,0.016,-0.010,1.032,1.050,-2.520,-0.560
1227972,0.013,-0.007,1.031,0.070,-2.590,-0.490
1227990,0.018,-0.006,1.034,0.700,-2.380,-0.560
1228009,0.015,-0.007,1.034,1.050,-2.380,-0.420
1228033,0.015,-0.004,1.032,0.980,-2.520,-0.560
1228053,0.014,-0.006,1.033,0.700,-2.730,-0.490
1228073,0.016,-0.004,1.032,0.210,-2.520,-0.560
1228093,0.014,-0.002,1.035,0.420,-2.520,-0.630
1228113,0.014,-0.006,1.036,0.280,-2.450,-0.560
1228137,0.015,-0.009,1.032,0.350,-2.380,-0.490
1228157,0.019,-0.005,1.034,0.000,-2.380,-0.560
1228176,0.015,-0.003,1.033,0.210,-2.170,-0.560
1228194,0.017,-0.003,1.031,0.070,-2.170,-0.560
1228214,0.015,-0.003,1.037,0.910,-2.380,-0.630
1228234,0.017,-0.006,1.034,0.770,-2.450,-0.700
1228258,0.016,-0.009,1.039,0.980,-2.590,-0.700
1228278,0.015,-0.009,1.029,0.070,-2.450,-0.560
1228298,0.017,-0.005,1.030,-0.350,-2.310,-0.630
1228318,0.015,-0.001,1.038,0.280,-2.450,-0.560
1228337,0.015,-0.009,1.032,1.050,-2.310,-0.560
1228357,0.019,-0.011,1.029,0.420,-2.170,-0.630
1228381,0.018,-0.007,1.033,0.210,-2.170,-0.700
1228401,0.016,-0.002,1.034,0.630,-2.240,-0.490
1228421,0.016,-0.003,1.032,0.700,-2.310,-0.490
1228441,0.016,-0.003,1.034,0.280,-2.380,-0.490
1228461,0.017,-0.004,1.035,0.140,-2.450,-0.560
1228480,0.015,-0.009,1.034,0.910,-2.380,-0.490
1228499,0.013,-0.006,1.035,-0.210,-2.380,-0.490
1228519,0.015,-0.002,1.034,0.000,-2.450,-0.560
1228539,0.020,-0.004,1.035,0.210,-2.310,-0.490
1228558,0.016,-0.007,1.032,0.280,-2.380,-0.490
1228582,0.015,-0.004,1.034,0.070,-2.520,-0.420
1228606,0.017,-0.003,1.034,-0.770,-2.520,-0.490
1228621,0.017,-0.007,1.032,0.280,-2.380,-0.560
1228646,0.013,-0.008,1.034,0.140,-2.590,-0.560
1228666,0.017,-0.009,1.032,0.630,-2.450,-0.630
1228686,0.015,-0.005,1.035,0.630,-2.380,-0.560
1228707,0.015,-0.004,1.035,0.140,-2.240,-0.630
1228726,0.014,-0.007,1.035,0.350,-2.310,-0.560
1228741,0.015,-0.004,1.031,0.140,-2.310,-0.560
1228766,0.015,-0.006,1.034,0.350,-2.240,-0.700
1228786,0.014,-0.009,1.037,0.280,-2.310,-0.630
1228806,0.015,-0.007,1.033,0.420,-2.450,-0.700
1228826,0.016,-0.009,1.030,0.280,-2.450,-0.560
1228846,0.019,-0.006,1.031,-0.140,-2.450,-0.630
1228865,0.017,-0.005,1.033,0.070,-2.170,-0.560
1228885,0.014,-0.006,1.031,0.490,-2.380,-0.630
1228905,0.013,-0.008,1.035,0.140,-2.380,-0.630
1228924,0.012,-0.003,1.037,0.280,-2.310,-0.490
1228944,0.014,-0.004,1.035,0.770,-2.310,-0.420
1228969,0.015,-0.003,1.034,0.490,-2.660,-0.560
1228989,0.014,-0.003,1.037,0.560,-2.450,-0.560
1229009,0.012,-0.008,1.035,0.700,-2.730,-0.490
1229029,0.015,-0.006,1.029,0.140,-2.520,-0.350
1229048,0.018,-0.006,1.035,0.000,-2.380,-0.560
1229072,0.016,-0.006,1.037,0.700,-2.380,-0.560
1229090,0.016,-0.006,1.034,0.770,-2.450,-0.630
1229112,0.016,-0.007,1.032,0.420,-2.240,-0.490
1229131,0.017,-0.008,1.033,0.350,-2.240,-0.700
1229151,0.012,-0.011,1.036,0.000,-2.450,-0.700
1229170,0.011,-0.003,1.032,0.280,-2.380,-0.630
1229192,0.016,-0.001,1.036,0.350,-2.310,-0.560
1229216,0.016,-0.004,1.037,1.050,-2.660,-0.560
1229236,0.016,-0.012,1.029,0.490,-2.450,-0.700
1229256,0.015,-0.007,1.032,0.280,-2.590,-0.630
1229276,0.015,-0.000,1.034,0.000,-2.310,-0.490
1229296,0.013,-0.001,1.039,0.210,-2.310,-0.630
1229316,0.015,-0.005,1.036,1.050,-2.590,-0.560
1229331,0.018,-0.005,1.030,0.280,-2.240,-0.490
1229356,0.016,-0.004,1.032,-0.140,-2.310,-0.560
1229376,0.013,-0.004,1.036,0.210,-2.310,-0.630
1229395,0.015,-0.011,1.034,0.700,-2.520,-0.630
1229415,0.016,-0.010,1.032,0.210,-2.520,-0.630
1229440,0.015,-0.007,1.034,0.140,-2.380,-0.700
1229460,0.013,-0.003,1.036,-0.070,-2.450,-0.490
1229476,0.016,-0.005,1.032,-0.070,-2.450,-0.560
1229495,0.015,-0.005,1.032,0.490,-2.520,-0.560
1229520,0.015,-0.007,1.036,0.560,-2.310,-0.490
1229540,0.013,-0.003,1.036,0.210,-2.380,-0.560
1229560,0.012,-0.006,1.033,-0.070,-2.590,-0.560
1229580,0.017,-0.007,1.032,0.350,-2.450,-0.560
1229597,0.012,-0.008,1.034,0.490,-2.380,-0.560
1229617,0.011,-0.007,1.036,0.210,-2.590,-0.490
1229641,0.018,-0.009,1.032,0.840,-2.170,-0.560
1229661,0.018,-0.004,1.033,0.210,-2.100,-0.490
1229685,0.012,-0.005,1.032,-0.210,-2.310,-0.560
1229705,0.012,-0.007,1.031,0.420,-2.800,-0.560
1229722,0.016,-0.007,1.034,0.770,-2.450,-0.630
1229746,0.020,-0.005,1.035,0.350,-2.100,-0.630
1229765,0.014,-0.005,1.035,0.070,-2.520,-0.560
1229786,0.016,-0.006,1.031,0.560,-2.100,-0.700
1229806,0.014,-0.007,1.033,0.840,-2.310,-0.490
1229826,0.018,-0.004,1.029,0.280,-2.520,-0.630
1229841,0.013,-0.006,1.033,-0.280,-2.590,-0.700
1229866,0.014,-0.005,1.030,0.070,-2.520,-0.560
1229886,0.019,-0.007,1.034,0.700,-2.170,-0.700
1229906,0.017,-0.005,1.037,0.700,-1.960,-0.490
1229926,0.012,-0.008,1.035,0.770,-2.800,-0.700
1229946,0.017,-0.005,1.034,0.840,-2.380,-0.560
1229970,0.019,-0.006,1.032,0.140,-2.170,-0.630
1229990,0.016,-0.007,1.035,-0.140,-2.660,-0.560
1230010,0.012,-0.006,1.032,0.350,-2.590,-0.630
1230030,0.017,-0.006,1.032,0.700,-2.450,-0.630
1230050,0.018,-0.006,1.037,0.350,-2.520,-0.630
1230070,0.011,-0.011,1.033,-0.630,-2.940,-0.630
1230090,0.012,-0.009,1.028,-0.140,-3.430,-0.630
1230110,0.018,-0.005,1.033,0.000,-1.680,-0.560
1230128,0.017,-0.005,1.034,0.000,-2.170,-0.630
1230145,0.017,-0.006,1.033,0.140,-2.870,-0.560
1230165,0.014,-0.010,1.028,0.210,-2.730,-0.560
1230185,0.013,-0.007,1.034,0.420,-2.730,-0.560
1230205,0.018,-0.005,1.037,0.140,-2.100,-0.630
1230230,0.017,-0.005,1.033,-0.140,-2.520,-0.700
1230250,0.013,-0.006,1.029,0.210,-2.520,-0.630
1230270,0.012,-0.004,1.036,0.490,-2.660,-0.490
1230290,0.014,-0.004,1.037,0.840,-2.660,-0.560
1230310,0.017,-0.007,1.032,0.560,-2.520,-0.630
1230328,0.014,-0.011,1.028,0.350,-2.380,-0.700
1230352,0.016,-0.006,1.033,0.420,-2.310,-0.560
1230372,0.017,-0.004,1.035,0.000,-2.520,-0.560
1230392,0.017,-0.003,1.031,0.000,-2.380,-0.560
1230412,0.017,-0.006,1.033,0.280,-2.310,-0.630
1230432,0.015,-0.010,1.037,0.630,-2.380,-0.560
1230452,0.015,-0.006,1.035,0.770,-2.590,-0.560
1230467,0.017,-0.004,1.033,-0.210,-2.240,-0.630
1230492,0.016,-0.005,1.036,0.070,-2.170,-0.490
1230512,0.016,-0.004,1.037,0.420,-2.380,-0.560
1230531,0.015,-0.004,1.033,0.350,-2.380,-0.560
1230552,0.014,-0.006,1.035,0.560,-2.310,-0.560
1230569,0.013,-0.008,1.036,0.560,-2.380,-0.560
1230593,0.015,-0.010,1.034,0.560,-2.450,-0.420
1230613,0.017,-0.006,1.029,0.350,-2.380,-0.630
1230633,0.018,-0.004,1.035,-0.280,-2.310,-0.560
1230648,0.014,-0.007,1.036,0.910,-2.450,-0.630
1230668,0.016,-0.010,1.031,1.050,-2.450,-0.560
1230691,0.016,-0.012,1.031,0.630,-2.450,-0.490
1230711,0.017,-0.007,1.033,0.070,-2.450,-0.560
1230735,0.015,-0.009,1.031,-0.070,-2.520,-0.560
1230754,0.015,-0.002,1.032,-0.280,-2.450,-0.630
1230774,0.016,-0.005,1.036,0.140,-2.170,-0.630
1230799,0.014,-0.004,1.038,0.630,-2.380,-0.560
1230814,0.014,-0.006,1.037,0.910,-2.590,-0.630
1230839,0.014,-0.009,1.032,0.910,-2.450,-0.560
1230859,0.013,-0.009,1.032,0.070,-2.380,-0.630
1230878,0.011,-0.005,1.034,-0.350,-2.450,-0.630
1230899,0.014,-0.003,1.032,-0.420,-2.380,-0.630
1230919,0.018,-0.004,1.032,-0.280,-2.240,-0.630
1230938,0.018,-0.007,1.037,0.700,-2.310,-0.490
1230959,0.013,-0.006,1.037,1.120,-2.520,-0.700
1230979,0.013,-0.010,1.033,0.980,-2.450,-0.700
1230999,0.017,-0.009,1.028,0.070,-2.450,-0.630
1231019,0.015,-0.005,1.033,-0.280,-2.380,-0.490
1231039,0.014,-0.002,1.037,-0.070,-2.520,-0.630
1231058,0.013,-0.006,1.031,1.050,-2.310,-0.630
1231078,0.015,-0.011,1.031,0.770,-2.310,-0.560
1231098,0.016,-0.011,1.035,0.280,-2.450,-0.630
1231118,0.015,-0.005,1.034,0.140,-2.450,-0.700
1231142,0.014,-0.006,1.034,0.420,-2.310,-0.560
1231161,0.015,-0.008,1.036,0.420,-2.520,-0.560
1231182,0.017,-0.007,1.035,0.420,-2.450,-0.490
1231201,0.018,-0.004,1.032,0.210,-2.450,-0.490
1231222,0.015,-0.007,1.030,0.350,-2.450,-0.630
1231242,0.014,-0.006,1.035,0.420,-2.450,-0.630
1231262,0.016,-0.005,1.033,0.140,-2.520,-0.560
1231282,0.015,-0.006,1.031,0.350,-2.240,-0.560
1231297,0.016,-0.005,1.037,0.630,-2.450,-0.630
1231322,0.017,-0.009,1.034,1.260,-1.960,-0.630
1231339,0.021,-0.005,1.033,-0.770,-1.750,-0.560
1231362,0.020,-0.008,1.033,0.350,-1.680,-0.700
1231382,0.020,-0.009,1.037,0.350,-1.890,-0.630
1231401,0.015,-0.006,1.030,0.560,-2.240,-0.560
1231422,0.018,-0.009,1.031,0.770,-2.170,-0.630
1231442,0.019,-0.003,1.036,0.490,-2.450,-0.630
1231462,0.014,-0.009,1.035,0.560,-2.380,-0.560
1231485,0.011,-0.010,1.033,0.490,-2.800,-0.490
1231505,0.013,-0.005,1.030,0.140,-2.520,-0.560
1231529,0.014,-0.005,1.036,0.000,-2.450,-0.630
1231549,0.016,-0.003,1.036,0.420,-2.380,-0.630
1231567,0.015,-0.007,1.032,0.770,-2.450,-0.560
1231589,0.015,-0.007,1.033,0.490,-2.380,-0.700
1231609,0.015,-0.008,1.036,0.280,-2.520,-0.490
1231628,0.015,-0.005,1.036,0.210,-2.310,-0.560
1231649,0.013,-0.004,1.033,0.140,-2.380,-0.490
1231671,0.016,-0.008,1.033,0.420,-2.380,-0.560
1231692,0.018,-0.004,1.031,0.350,-2.520,-0.490
1231713,0.015,-0.005,1.033,0.280,-2.520,-0.560
1231728,0.013,-0.007,1.034,0.560,-2.310,-0.560
1231753,0.015,-0.006,1.037,0.560,-2.520,-0.490
1231773,0.020,-0.006,1.038,0.210,-2.380,-0.490
1231793,0.018,-0.009,1.032,0.560,-2.310,-0.560
1231817,0.013,-0.008,1.031,0.560,-2.450,-0.560
1231835,0.014,-0.007,1.037,0.280,-2.520,-0.560
1231857,0.015,-0.003,1.034,0.210,-2.380,-0.560
1231877,0.014,-0.002,1.035,0.000,-2.450,-0.560
1231897,0.015,-0.008,1.032,0.420,-2.310,-0.630
1231913,0.015,-0.006,1.037,0.420,-2.450,-0.560
1231935,0.019,-0.012,1.034,0.420,-2.450,-0.700
1231959,0.016,-0.006,1.034,0.490,-2.170,-0.630
1231979,0.016,-0.002,1.037,0.210,-2.240,-0.630
1231999,0.016,-0.002,1.035,0.490,-2.450,-0.630
1232019,0.016,-0.004,1.033,0.560,-2.380,-0.490
1232036,0.015,-0.007,1.034,0.420,-2.240,-0.490
1232057,0.015,-0.009,1.035,0.280,-2.520,-0.560
1232081,0.016,-0.006,1.030,0.420,-2.380,-0.700
1232101,0.022,0.000,1.034,0.420,-2.310,-0.560
1232121,0.015,-0.007,1.034,0.420,-2.590,-0.560
1232140,0.013,-0.010,1.037,0.280,-2.660,-0.630
1232161,0.015,-0.009,1.026,0.210,-2.590,-0.630
1232183,0.017,-0.006,1.032,0.070,-2.380,-0.630
1232204,0.014,-0.005,1.037,0.210,-2.380,-0.700
1232224,0.014,-0.005,1.037,0.700,-2.450,-0.630
1232243,0.017,-0.006,1.032,0.980,-2.310,-0.560
1232263,0.014,-0.010,1.031,0.210,-2.520,-0.560
1232285,0.011,-0.006,1.036,-0.140,-2.450,-0.490
1232305,0.013,-0.004,1.034,0.210,-2.520,-0.560
1232325,0.016,-0.005,1.030,0.490,-2.380,-0.560
1232348,0.017,-0.006,1.032,0.420,-2.240,-0.560
1232368,0.015,-0.005,1.036,0.350,-2.520,-0.560
1232388,0.013,-0.007,1.034,0.350,-2.520,-0.630
1232412,0.015,-0.007,1.031,0.420,-2.450,-0.630
1232432,0.014,-0.006,1.033,0.420,-2.450,-0.490
1232456,0.016,-0.006,1.036,0.070,-2.310,-0.560
1232476,0.013,-0.005,1.033,0.420,-2.450,-0.630
1232496,0.015,-0.006,1.033,0.420,-2.380,-0.560
1232514,0.016,-0.006,1.035,0.280,-2.310,-0.560
1232538,0.014,-0.005,1.037,0.280,-2.450,-0.490
1232556,0.017,-0.007,1.034,0.280,-2.450,-0.630
1232574,0.017,-0.005,1.034,0.560,-2.310,-0.560
1232594,0.015,-0.007,1.037,0.420,-2.520,-0.490
1232614,0.014,-0.007,1.034,0.350,-2.380,-0.490
1232634,0.016,-0.007,1.034,0.350,-2.310,-0.560
1232658,0.015,-0.004,1.033,0.280,-2.450,-0.560
1232675,0.014,-0.006,1.036,0.280,-2.520,-0.560
1232697,0.017,-0.007,1.033,0.420,-2.380,-0.560
1232717,0.015,-0.008,1.032,0.280,-2.380,-0.630
1232741,0.013,-0.006,1.035,0.070,-2.590,-0.560
1232761,0.015,-0.007,1.034,0.140,-2.520,-0.630
1232781,0.017,-0.006,1.032,0.350,-2.380,-0.630
1232799,0.017,-0.008,1.035,0.350,-2.310,-0.490
1232819,0.018,-0.004,1.035,0.210,-2.380,-0.630
1232838,0.018,0.000,1.032,0.350,-1.890,-0.560
1232858,0.016,-0.004,1.032,0.770,-2.030,-0.630
1232883,0.020,-0.007,1.036,0.490,-2.310,-0.560
1232902,0.015,-0.007,1.032,0.490,-2.450,-0.630
1232926,0.015,-0.007,1.031,0.140,-2.520,-0.630
1232945,0.014,-0.006,1.034,0.000,-2.380,-0.560
1232966,0.016,-0.004,1.035,0.140,-2.380,-0.560
1232986,0.015,-0.007,1.032,0.210,-2.660,-0.560
1233001,0.014,-0.005,1.032,0.350,-2.310,-0.560
1233026,0.018,-0.008,1.032,0.210,-2.240,-0.560
1233046,0.015,-0.006,1.037,0.210,-2.520,-0.630
1233066,0.016,-0.005,1.033,0.420,-2.520,-0.560
1233090,0.017,-0.005,1.028,0.490,-2.380,-0.560
1233110,0.017,-0.004,1.033,0.420,-2.380,-0.490
1233130,0.016,-0.004,1.037,0.490,-2.520,-0.630
1233150,0.015,-0.007,1.034,0.770,-2.450,-0.630
1233170,0.015,-0.008,1.031,0.140,-2.310,-0.490
1233189,0.013,-0.000,1.037,-0.280,-2.240,-0.560
1233209,0.014,0.005,1.032,2.310,-1.890,-0.630
1233233,0.019,0.001,1.032,0.350,-2.310,-0.560
1233253,0.020,-0.007,1.028,1.680,-2.520,-0.630
1233272,0.008,-0.012,1.030,1.470,-1.960,-0.560
1233296,0.018,-0.007,1.028,0.980,-1.470,-0.490
1233316,0.018,-0.008,1.032,0.770,-2.590,-0.560
1233336,0.021,-0.004,1.035,-0.280,-2.870,-0.560
1233353,0.017,-0.002,1.039,0.350,-1.820,-0.630
1233374,0.012,-0.003,1.030,1.050,-2.030,-0.560
1233398,0.016,-0.005,1.031,1.680,-1.820,-0.420
1233417,0.011,-0.008,1.037,0.700,-2.170,-0.630
1233438,0.012,-0.005,1.034,0.560,-3.150,-0.490
1233458,0.017,-0.007,1.030,0.490,-2.800,-0.490
1233477,0.014,-0.010,1.034,0.350,-2.730,-0.490
1233494,0.016,-0.002,1.036,-17.920,-2.450,-0.630
1233518,0.015,-0.002,1.036,-0.350,-2.660,-0.560
1233538,0.010,-0.001,1.037,-0.070,-2.590,-0.560
1233557,0.012,-0.000,1.037,0.910,-2.450,-0.630
1233579,0.013,-0.007,1.034,1.330,-2.800,-0.560
1233599,0.015,-0.012,1.028,0.280,-2.590,-0.560
1233619,0.012,-0.004,1.034,-0.910,-2.730,-0.560
1233638,0.013,-0.001,1.036,-0.210,-2.590,-0.560
1233663,0.016,-0.003,1.031,0.420,-2.590,-0.630
1233680,0.014,-0.012,1.030,0.770,-2.730,-0.630
1233699,0.014,-0.009,1.034,0.350,-2.660,-0.560
1233719,0.014,-0.006,1.034,0.560,-2.450,-0.700
1233739,0.018,-0.008,1.030,1.190,-2.170,-0.700
1233763,0.019,-0.006,1.033,0.350,-2.520,-0.700
1233783,0.017,-0.007,1.034,-0.350,-2.450,-0.630
1233803,0.013,-0.007,1.034,-0.070,-2.450,-0.630
1233823,0.016,-0.005,1.029,0.140,-2.310,-0.630
1233843,0.017,-0.008,1.034,0.000,-2.310,-0.630
1233862,0.015,-0.004,1.038,0.210,-2.030,-0.560
1233878,0.012,-0.008,1.029,1.120,-2.240,-0.490
1233903,0.015,-0.012,1.031,1.190,-2.520,-0.560
1233922,0.018,-0.010,1.031,0.280,-2.450,-0.630
1233942,0.015,-0.009,1.033,-0.210,-2.380,-0.560
1233958,0.017,-0.005,1.034,0.770,-2.450,-0.560
1233978,0.015,-0.008,1.033,0.910,-2.590,-0.630
1233998,0.016,-0.008,1.031,0.770,-2.520,-0.630
1234018,0.017,-0.004,1.032,0.350,-2.100,-0.700
1234038,0.014,-0.002,1.035,0.210,-2.170,-0.560
1234058,0.014,-0.006,1.037,0.210,-2.240,-0.630
1234078,0.013,-0.007,1.036,0.280,-2.310,-0.630
1234098,0.016,-0.017,1.032,17.500,-2.240,-0.560
1234123,0.021,-0.007,1.036,-1.120,-2.240,-0.630
1234143,0.016,-0.001,1.035,0.210,-2.450,-0.560
1234163,0.015,-0.008,1.029,0.980,-2.380,-0.560
1234183,0.016,-0.010,1.028,0.630,-2.450,-0.630
1234203,0.015,-0.010,1.031,0.560,-2.310,-0.630
1234223,0.016,-0.009,1.036,0.280,-2.520,-0.630
1234239,0.016,-0.008,1.033,0.420,-2.450,-0.630
1234259,0.016,-0.009,1.035,0.350,-2.380,-0.700
1234279,0.015,-0.006,1.036,0.420,-2.310,-0.560
1234299,0.014,-0.008,1.034,0.420,-2.450,-0.630
1234323,0.015,-0.008,1.035,0.140,-2.450,-0.700
1234341,0.015,-0.007,1.035,0.210,-2.380,-0.630
1234359,0.013,-0.006,1.032,0.210,-2.450,-0.560
1234383,0.017,-0.006,1.035,0.280,-2.450,-0.630
1234402,0.014,-0.005,1.033,0.420,-2.450,-0.630
1234423,0.011,-0.005,1.035,0.490,-2.450,-0.560
1234443,0.014,-0.009,1.033,0.490,-2.450,-0.560
1234463,0.018,-0.007,1.030,0.490,-2.380,-0.560
1234483,0.017,-0.004,1.036,0.210,-2.450,-0.700
1234503,0.017,-0.006,1.034,0.210,-2.450,-0.490
1234522,0.017,-0.009,1.034,0.350,-2.590,-0.560
1234543,0.014,-0.008,1.034,0.280,-2.450,-0.700
1234563,0.014,-0.005,1.036,0.420,-2.520,-0.630
1234578,0.013,-0.010,1.033,0.210,-2.450,-0.630
1234603,0.015,-0.006,1.036,0.280,-2.380,-0.630
1234623,0.014,-0.006,1.035,0.280,-2.520,-0.630
1234643,0.015,-0.006,1.032,0.420,-2.380,-0.560
1234663,0.016,-0.006,1.032,0.420,-2.240,-0.560
1234683,0.016,-0.009,1.032,0.280,-2.450,-0.630
1234703,0.012,-0.005,1.035,0.490,-2.310,-0.560
1234723,0.014,-0.006,1.037,0.560,-2.520,-0.560
1234743,0.015,-0.008,1.033,0.350,-2.310,-0.560
1234762,0.018,-0.005,1.030,0.070,-2.310,-0.630
1234783,0.016,-0.006,1.033,0.140,-2.380,-0.490
1234803,0.016,-0.007,1.036,0.630,-2.450,-0.630
1234823,0.017,-0.009,1.032,0.560,-2.450,-0.630
1234843,0.014,-0.005,1.035,0.210,-2.380,-0.560
1234863,0.013,-0.006,1.034,0.140,-2.520,-0.490
1234884,0.014,-0.003,1.032,0.070,-2.450,-0.490
1234904,0.015,-0.005,1.032,-0.210,-2.660,-0.560
1234924,0.016,-0.008,1.034,0.000,-2.310,-0.630
1234944,0.016,-0.009,1.032,-0.280,-2.380,-0.700
1234963,0.013,-0.011,1.032,0.140,-2.380,-0.700
1234988,0.016,-0.010,1.035,0.350,-2.450,-0.630
1235008,0.016,-0.008,1.033,0.630,-2.310,-0.630
1235028,0.015,-0.009,1.031,0.700,-2.520,-0.630
1235048,0.015,-0.009,1.032,0.700,-2.660,-0.560
1235067,0.016,-0.003,1.035,0.700,-2.380,-0.770
1235085,0.014,-0.003,1.035,0.700,-2.240,-0.560
1235104,0.010,-0.006,1.031,0.490,-2.450,-0.490
1235124,0.013,-0.004,1.034,0.140,-2.310,-0.490
1235144,0.017,-0.003,1.031,0.280,-2.380,-0.630
1235168,0.014,-0.007,1.033,-0.280,-2.170,-0.560
1235189,0.016,-0.006,1.036,-0.140,-2.380,-0.560
1235206,0.016,-0.008,1.033,0.210,-2.310,-0.700
1235230,0.017,-0.010,1.030,0.210,-2.380,-0.560
1235250,0.016,-0.007,1.033,0.210,-2.310,-0.560
1235270,0.013,-0.006,1.032,0.560,-2.310,-0.560
1235290,0.017,-0.008,1.035,0.840,-2.310,-0.560
1235310,0.016,-0.005,1.034,0.840,-2.380,-0.560
1235328,0.014,-0.006,1.034,0.490,-2.450,-0.560
1235347,0.015,-0.006,1.032,0.350,-2.450,-0.630
1235372,0.014,-0.003,1.034,0.350,-2.520,-0.560
1235390,0.017,-0.005,1.034,0.420,-2.380,-0.630
1235412,0.014,-0.007,1.031,0.350,-2.450,-0.630
1235432,0.014,-0.008,1.035,0.210,-2.380,-0.560
1235448,0.017,-0.008,1.036,0.280,-2.450,-0.630
1235468,0.017,-0.007,1.034,0.350,-2.450,-0.560
1235492,0.017,-0.008,1.034,0.490,-2.310,-0.560
1235511,0.014,-0.009,1.035,0.560,-2.520,-0.630
1235528,0.015,-0.009,1.035,0.280,-2.310,-0.630
1235549,0.016,-0.005,1.030,0.140,-2.380,-0.490
1235570,0.016,-0.007,1.034,0.350,-2.380,-0.490
1235594,0.015,-0.007,1.035,0.560,-2.380,-0.560
1235609,0.014,-0.009,1.032,0.560,-2.380,-0.560
1235634,0.016,-0.009,1.032,0.420,-2.380,-0.630
1235654,0.016,-0.002,1.033,0.210,-2.380,-0.630
1235674,0.016,-0.006,1.036,0.280,-2.520,-0.630
1235698,0.017,-0.008,1.033,0.630,-2.520,-0.560
1235718,0.014,-0.008,1.034,0.280,-2.450,-0.560
1235738,0.017,-0.008,1.033,-0.140,-2.310,-0.490
1235758,0.015,-0.001,1.037,0.210,-2.590,-0.420
1235778,0.019,-0.005,1.036,-0.140,-2.170,-0.560
1235797,0.017,-0.007,1.032,0.210,-2.520,-0.490
1235819,0.018,-0.009,1.034,0.420,-2.380,-0.560
1235838,0.016,-0.008,1.032,0.210,-2.520,-0.630
1235858,0.013,-0.012,1.032,0.210,-2.590,-0.560
1235878,0.017,-0.010,1.033,0.210,-2.590,-0.560
1235898,0.015,-0.007,1.035,0.210,-2.450,-0.630
1235918,0.016,-0.005,1.033,0.910,-2.380,-0.560
1235938,0.013,-0.008,1.033,0.910,-2.450,-0.630
1235958,0.015,-0.010,1.033,0.910,-2.310,-0.490
1235978,0.013,-0.005,1.035,0.420,-2.520,-0.490
1235998,0.014,-0.006,1.034,0.420,-2.240,-0.560
1236018,0.015,-0.003,1.032,-0.070,-2.380,-0.490
1236038,0.014,-0.006,1.035,0.210,-2.380,-0.560
1236056,0.017,-0.007,1.035,0.350,-2.450,-0.490
1236076,0.014,-0.009,1.034,0.350,-2.240,-0.560
1236095,0.016,-0.012,1.033,0.140,-2.450,-0.560
1236120,0.017,-0.007,1.034,0.350,-2.380,-0.630
1236140,0.018,-0.008,1.034,0.700,-2.450,-0.630
1236160,0.016,-0.007,1.032,0.630,-2.310,-0.630
1236180,0.016,-0.005,1.033,0.490,-2.380,-0.560
1236200,0.014,-0.005,1.034,0.350,-2.380,-0.560
1236219,0.016,-0.006,1.033,0.490,-2.310,-0.560
1236240,0.016,-0.006,1.032,0.420,-2.380,-0.490
1236260,0.015,-0.005,1.031,0.280,-2.310,-0.560
1236278,0.016,-0.004,1.034,0.210,-2.310,-0.560
1236300,0.019,-0.006,1.033,0.350,-2.380,-0.630
1236320,0.016,-0.007,1.033,0.280,-2.450,-0.630
1236335,0.011,-0.007,1.034,0.350,-2.450,-0.560
1236355,0.017,-0.009,1.031,0.350,-2.450,-0.630
1236375,0.016,-0.005,1.031,0.490,-2.520,-0.560
1236400,0.013,-0.006,1.033,0.420,-2.520,-0.560
1236420,0.016,-0.007,1.034,0.420,-2.450,-0.630
1236440,0.015,-0.004,1.034,0.350,-2.450,-0.630
1236460,0.014,-0.004,1.034,0.280,-2.380,-0.630
1236480,0.016,-0.007,1.033,0.280,-2.380,-0.560
1236500,0.015,-0.007,1.033,0.350,-2.380,-0.490
1236520,0.018,-0.007,1.032,0.420,-2.450,-0.560
1236535,0.018,-0.007,1.034,0.350,-2.240,-0.560
1236555,0.016,-0.007,1.034,0.420,-2.380,-0.490
1236580,0.014,-0.007,1.035,0.490,-2.450,-0.630
1236600,0.014,-0.007,1.029,0.420,-2.450,-0.560
1236620,0.016,-0.009,1.031,0.140,-2.380,-0.490
1236640,0.015,-0.007,1.034,0.070,-2.450,-0.560
1236657,0.014,-0.006,1.036,0.420,-2.520,-0.630
1236681,0.015,-0.007,1.034,0.350,-2.450,-0.560
1236701,0.015,-0.007,1.034,0.700,-2.380,-0.560
1236721,0.016,-0.006,1.035,0.490,-2.450,-0.560
1236741,0.016,-0.006,1.033,0.490,-2.380,-0.560
1236761,0.017,-0.005,1.034,0.070,-2.380,-0.490
1236781,0.015,-0.007,1.035,0.140,-2.380,-0.490
1236800,0.015,-0.006,1.032,0.350,-2.450,-0.560
1236825,0.013,-0.007,1.036,0.420,-2.380,-0.560
1236845,0.014,-0.007,1.034,0.490,-2.380,-0.630
1236865,0.014,-0.008,1.030,0.490,-2.380,-0.560
1236885,0.015,-0.006,1.032,0.420,-2.450,-0.560
1236905,0.014,-0.005,1.035,0.210,-2.380,-0.560
1236925,0.016,-0.006,1.034,0.140,-2.380,-0.630
1236945,0.015,-0.004,1.033,0.070,-2.310,-0.560
1236960,0.015,-0.006,1.035,0.490,-2.520,-0.560
1236980,0.013,-0.006,1.034,0.490,-2.520,-0.490
1237004,0.016,-0.006,1.034,0.490,-2.380,-0.560
1237028,0.013,-0.007,1.031,0.350,-2.450,-0.560
1237048,0.014,-0.004,1.034,0.280,-2.310,-0.560
1237068,0.016,-0.006,1.034,0.350,-2.310,-0.560
1237087,0.016,-0.005,1.037,0.490,-2.240,-0.560
1237108,0.013,-0.009,1.037,0.700,-2.660,-0.560
1237128,0.016,-0.008,1.035,0.490,-2.380,-0.560
1237143,0.016,-0.007,1.029,0.350,-2.380,-0.560
1237168,0.016,-0.006,1.035,0.630,-2.380,-0.560
1237188,0.015,-0.010,1.035,0.350,-2.450,-0.630
1237208,0.016,-0.008,1.033,0.770,-2.520,-0.560
1237232,0.013,-0.008,1.033,0.490,-2.450,-0.560
1237251,0.015,-0.006,1.034,-0.070,-2.450,-0.490
1237267,0.014,-0.003,1.035,0.000,-2.380,-0.560
1237290,0.016,-0.005,1.033,0.350,-2.520,-0.630
1237309,0.014,-0.008,1.036,0.490,-2.590,-0.560
1237334,0.015,-0.007,1.034,0.280,-2.520,-0.560
1237354,0.016,-0.006,1.032,0.350,-2.310,-0.490
1237374,0.020,-0.008,1.034,0.350,-2.310,-0.560
1237394,0.015,-0.006,1.037,0.420,-2.380,-0.700
1237414,0.014,-0.009,1.034,0.420,-2.450,-0.630
1237438,0.014,-0.005,1.033,0.350,-2.520,-0.560
1237458,0.014,-0.008,1.032,0.350,-2.450,-0.700
1237478,0.018,-0.005,1.035,0.560,-2.380,-0.490
1237497,0.015,-0.008,1.035,0.630,-2.520,-0.630
1237522,0.016,-0.007,1.032,0.700,-2.310,-0.630
1237542,0.015,-0.009,1.032,0.070,-2.310,-0.630
1237562,0.015,-0.006,1.036,0.070,-2.380,-0.630
1237586,0.015,-0.008,1.035,0.210,-2.310,-0.560
1237606,0.015,-0.005,1.035,0.490,-2.450,-0.630
1237626,0.017,-0.008,1.033,0.210,-2.240,-0.560
1237646,0.016,-0.008,1.033,0.420,-2.450,-0.630
1237666,0.017,-0.006,1.033,0.350,-2.380,-0.560
1237683,0.014,-0.006,1.035,0.420,-2.380,-0.490
1237703,0.015,-0.006,1.034,0.350,-2.450,-0.630
1237722,0.015,-0.005,1.032,0.420,-2.450,-0.560
1237746,0.016,-0.008,1.034,0.420,-2.450,-0.630
1237762,0.015,-0.005,1.033,0.420,-2.520,-0.560
1237785,0.015,-0.007,1.033,0.490,-2.450,-0.420
1237804,0.014,-0.008,1.031,0.210,-2.380,-0.630
1237824,0.016,-0.004,1.035,0.070,-2.450,-0.560
1237849,0.014,-0.005,1.035,0.140,-2.380,-0.560
1237869,0.017,-0.007,1.033,0.420,-2.310,-0.560
1237884,0.012,-0.009,1.035,0.560,-2.380,-0.490
1237909,0.016,-0.010,1.035,0.560,-2.380,-0.630
1237929,0.017,-0.007,1.032,0.210,-2.380,-0.630
1237949,0.015,-0.005,1.033,0.210,-2.450,-0.420
1237969,0.012,-0.004,1.036,0.210,-2.450,-0.490
1237988,0.013,-0.006,1.034,0.350,-2.380,-0.560
1238009,0.014,-0.006,1.036,0.630,-2.380,-0.560
1238029,0.017,-0.006,1.030,0.210,-2.450,-0.630
1238048,0.016,-0.006,1.036,0.000,-2.450,-0.560
1238069,0.017,-0.006,1.036,0.140,-2.240,-0.630
1238089,0.015,-0.008,1.035,0.420,-2.380,-0.630
1238109,0.017,-0.006,1.034,0.350,-2.520,-0.490
1238129,0.014,-0.007,1.034,0.350,-2.520,-0.560
1238149,0.013,-0.008,1.035,0.420,-2.520,-0.700
1238169,0.016,-0.006,1.034,0.560,-2.520,-0.560
1238189,0.016,-0.003,1.032,0.280,-2.380,-0.560
1238204,0.016,-0.004,1.036,0.420,-2.380,-0.630
1238229,0.014,-0.006,1.036,0.420,-2.520,-0.630
1238253,0.016,-0.006,1.035,0.560,-2.380,-0.630
1238273,0.015,-0.006,1.035,0.280,-2.380,-0.560
1238292,0.016,-0.007,1.031,0.350,-2.380,-0.560
1238312,0.018,-0.005,1.036,0.210,-2.450,-0.700
1238337,0.017,-0.006,1.036,0.070,-2.450,-0.560
1238357,0.016,-0.008,1.033,0.350,-2.380,-0.630
1238374,0.015,-0.006,1.033,0.350,-2.450,-0.630
1238394,0.018,-0.007,1.036,0.280,-2.380,-0.630
1238414,0.016,-0.006,1.033,0.350,-2.310,-0.630
1238434,0.015,-0.007,1.029,0.280,-2.240,-0.560
1238458,0.015,-0.006,1.031,0.070,-2.310,-0.630
1238478,0.016,-0.005,1.035,0.070,-2.240,-0.630
1238497,0.016,-0.007,1.038,0.420,-2.590,-0.560
1238518,0.015,-0.006,1.033,0.560,-2.380,-0.630
1238542,0.016,-0.007,1.033,0.630,-2.590,-0.630
1238562,0.015,-0.007,1.033,0.350,-2.310,-0.630
1238582,0.017,-0.006,1.032,0.000,-2.310,-0.630
1238602,0.014,-0.008,1.035,0.350,-2.590,-0.560
1238618,0.014,-0.004,1.035,0.560,-2.450,-0.630
1238639,0.015,-0.006,1.031,0.280,-2.450,-0.560
1238659,0.015,-0.008,1.033,0.350,-2.380,-0.630
1238679,0.014,-0.006,1.034,0.210,-2.450,-0.700
1238698,0.019,-0.005,1.033,0.210,-2.520,-0.560
1238718,0.016,-0.004,1.033,0.420,-2.380,-0.490
1238738,0.016,-0.006,1.035,0.490,-2.380,-0.560
1238758,0.016,-0.008,1.032,0.420,-2.380,-0.630
1238778,0.018,-0.006,1.034,0.420,-2.380,-0.630
1238798,0.019,-0.005,1.034,0.140,-2.310,-0.700
1238818,0.014,-0.006,1.034,0.420,-2.450,-0.560
1238838,0.015,-0.007,1.032,0.490,-2.380,-0.560
1238858,0.014,-0.007,1.035,0.350,-2.310,-0.630
1238878,0.014,-0.006,1.033,0.140,-2.450,-0.560
1238903,0.017,-0.006,1.034,0.280,-2.520,-0.490
1238923,0.015,-0.005,1.032,0.490,-2.450,-0.560
1238943,0.015,-0.006,1.032,0.420,-2.450,-0.560
1238963,0.013,-0.005,1.033,0.560,-2.450,-0.490
1238980,0.015,-0.007,1.033,0.280,-2.380,-0.700
1239000,0.016,-0.005,1.032,0.350,-2.450,-0.560
1239020,0.015,-0.006,1.033,0.140,-2.240,-0.700
1239040,0.018,-0.007,1.034,0.420,-2.380,-0.560
1239060,0.016,-0.007,1.035,0.420,-2.380,-0.700
1239080,0.016,-0.008,1.033,0.420,-2.310,-0.630
1239104,0.014,-0.009,1.032,0.280,-2.310,-0.700
1239124,0.017,-0.006,1.034,0.350,-2.450,-0.560
1239144,0.014,-0.006,1.033,0.420,-2.520,-0.630
1239164,0.012,-0.006,1.035,0.420,-2.520,-0.560
1239184,0.014,-0.008,1.034,0.210,-2.520,-0.560
1239204,0.015,-0.007,1.033,0.140,-2.450,-0.560
1239228,0.015,-0.005,1.033,0.210,-2.450,-0.490
1239248,0.016,-0.009,1.035,0.280,-2.520,-0.630
1239268,0.015,-0.006,1.032,0.280,-2.380,-0.560
1239288,0.017,-0.005,1.029,0.280,-2.310,-0.560
1239308,0.015,-0.008,1.035,0.350,-2.450,-0.630
1239328,0.015,-0.006,1.035,0.350,-2.450,-0.560
1239348,0.015,-0.006,1.033,0.350,-2.450,-0.560
1239368,0.015,-0.007,1.036,0.420,-2.520,-0.700
1239388,0.016,-0.005,1.031,0.280,-2.520,-0.630
1239408,0.017,-0.006,1.030,-0.070,-2.590,-0.630
1239428,0.016,-0.004,1.034,-0.210,-2.380,-0.560
1239447,0.017,-0.003,1.035,0.420,-2.310,-0.630
1239468,0.013,-0.008,1.035,0.840,-2.450,-0.630
1239488,0.016,-0.010,1.033,0.980,-2.520,-0.490
1239508,0.014,-0.011,1.034,0.700,-2.380,-0.630
1239528,0.014,-0.009,1.035,0.770,-2.380,-0.560
1239547,0.015,-0.007,1.032,0.350,-2.520,-0.630
1239567,0.018,-0.008,1.033,0.280,-2.520,-0.560
1239588,0.018,-0.006,1.030,0.140,-2.450,-0.630
1239608,0.017,-0.006,1.031,0.000,-2.380,-0.560
1239628,0.017,-0.006,1.033,0.000,-2.310,-0.630
1239647,0.016,-0.005,1.034,0.700,-2.240,-0.560
1239672,0.016,-0.006,1.037,0.770,-2.310,-0.560
1239692,0.014,-0.008,1.035,0.700,-2.380,-0.560
1239712,0.017,-0.009,1.034,0.700,-2.380,-0.630
1239732,0.017,-0.010,1.034,0.420,-2.520,-0.630
1239752,0.015,-0.006,1.033,0.210,-2.450,-0.630
1239771,0.015,-0.005,1.031,-0.070,-2.590,-0.560
1239790,0.013,-0.004,1.031,0.070,-2.520,-0.630
1239812,0.017,-0.005,1.034,0.070,-2.380,-0.630
1239837,0.016,-0.003,1.034,0.210,-2.450,-0.630
1239856,0.014,-0.005,1.034,0.070,-2.380,-0.630
1239876,0.013,-0.007,1.033,0.280,-2.380,-0.490
1239896,0.017,-0.007,1.032,0.350,-2.310,-0.560
1239916,0.017,-0.005,1.034,0.490,-2.240,-0.560
1239940,0.016,-0.007,1.034,0.560,-2.310,-0.560
1239959,0.014,-0.007,1.036,0.490,-2.380,-0.560
1239979,0.019,-0.007,1.035,0.700,-2.240,-0.630
1239999,0.017,-0.009,1.033,0.560,-2.450,-0.630
1240019,0.018,-0.007,1.033,0.350,-2.380,-0.560
1240039,0.015,-0.006,1.033,0.000,-2.380,-0.630
1240059,0.016,-0.005,1.033,0.070,-2.380,-0.630
1240083,0.014,-0.005,1.036,0.420,-2.450,-0.560
1240101,0.014,-0.009,1.032,0.560,-2.450,-0.560
1240123,0.013,-0.008,1.034,0.490,-2.520,-0.630
1240143,0.014,-0.006,1.033,0.280,-2.520,-0.630
1240163,0.017,-0.007,1.037,0.350,-2.520,-0.560
1240183,0.014,-0.004,1.034,0.490,-2.450,-0.560
1240201,0.017,-0.008,1.035,0.420,-2.450,-0.560
1240220,0.016,-0.006,1.033,0.280,-2.590,-0.630
1240245,0.014,-0.005,1.034,0.210,-2.450,-0.630
1240265,0.017,-0.008,1.032,0.140,-2.520,-0.560
1240285,0.018,-0.006,1.034,0.210,-2.310,-0.560
1240305,0.014,-0.005,1.034,0.490,-2.380,-0.630
1240322,0.016,-0.006,1.034,0.420,-2.310,-0.630
1240342,0.014,-0.009,1.036,0.350,-2.380,-0.560
1240362,0.016,-0.007,1.030,0.140,-2.310,-0.630
1240382,0.013,-0.007,1.036,0.210,-2.520,-0.630
1240406,0.014,-0.010,1.036,0.420,-2.450,-0.630
1240426,0.015,-0.006,1.031,0.420,-2.450,-0.630
1240444,0.014,-0.007,1.034,0.490,-2.380,-0.490
1240468,0.017,-0.004,1.032,0.420,-2.380,-0.560
1240488,0.016,-0.005,1.034,0.420,-2.450,-0.560
1240503,0.016,-0.007,1.031,0.350,-2.380,-0.630
1240523,0.014,-0.005,1.035,0.280,-2.310,-0.560
1240543,0.013,-0.006,1.035,0.420,-2.450,-0.560
1240568,0.015,-0.005,1.033,0.350,-2.380,-0.560
1240588,0.014,-0.005,1.032,0.350,-2.240,-0.560
1240608,0.014,-0.007,1.035,0.350,-2.450,-0.490
1240628,0.014,-0.007,1.035,0.490,-2.310,-0.560
1240648,0.015,-0.010,1.034,0.350,-2.520,-0.700
1240668,0.013,-0.009,1.030,0.140,-2.520,-0.630
1240683,0.016,-0.005,1.033,0.070,-2.310,-0.700
1240703,0.014,-0.007,1.035,0.350,-2.450,-0.630
1240728,0.017,-0.006,1.035,0.490,-2.380,-0.630
1240746,0.015,-0.008,1.032,0.420,-2.380,-0.560
1240768,0.014,-0.006,1.032,0.350,-2.310,-0.560
1240788,0.014,-0.007,1.035,0.420,-2.310,-0.560
1240807,0.014,-0.007,1.033,0.350,-2.310,-0.560
1240827,0.016,-0.008,1.034,0.420,-2.380,-0.560
1240846,0.015,-0.006,1.033,0.350,-2.520,-0.560
1240871,0.016,-0.006,1.032,0.280,-2.380,-0.630
1240891,0.015,-0.008,1.034,0.210,-2.380,-0.490
1240911,0.016,-0.006,1.032,0.280,-2.380,-0.560
1240926,0.013,-0.006,1.032,0.350,-2.450,-0.560
1240946,0.016,-0.008,1.034,0.350,-2.450,-0.490
1240966,0.015,-0.006,1.033,0.280,-2.310,-0.560
1240991,0.015,-0.006,1.036,0.280,-2.450,-0.560
1241011,0.014,-0.003,1.034,0.210,-2.450,-0.560
1241031,0.015,-0.004,1.036,0.280,-2.310,-0.560
1241055,0.013,-0.006,1.033,0.210,-2.520,-0.630
1241070,0.017,-0.008,1.037,0.490,-2.380,-0.560
1241095,0.014,-0.008,1.031,0.350,-2.380,-0.560
1241115,0.016,-0.007,1.032,0.210,-2.450,-0.630
1241135,0.017,-0.007,1.036,0.210,-2.450,-0.630
1241155,0.015,-0.007,1.033,0.350,-2.380,-0.560
1241170,0.015,-0.007,1.034,0.420,-2.520,-0.560
1241190,0.016,-0.009,1.036,0.350,-2.520,-0.560
1241214,0.017,-0.006,1.032,0.420,-2.450,-0.630
1241234,0.015,-0.008,1.036,0.490,-2.520,-0.630
1241254,0.016,-0.007,1.032,0.280,-2.310,-0.560
1241274,0.015,-0.004,1.035,0.280,-2.380,-0.560
1241298,0.017,-0.005,1.035,0.420,-2.520,-0.490
1241316,0.016,-0.008,1.033,0.560,-2.240,-0.630
1241338,0.013,-0.008,1.033,0.630,-2.380,-0.560
1241358,0.012,-0.006,1.034,0.630,-2.450,-0.630
1241378,0.017,-0.008,1.032,0.560,-2.450,-0.630
1241398,0.015,-0.008,1.031,0.280,-2.450,-0.560
1241418,0.015,-0.006,1.032,0.140,-2.450,-0.560
1241438,0.015,-0.007,1.033,0.070,-2.380,-0.630
1241458,0.016,-0.005,1.036,0.490,-2.380,-0.630
1241478,0.014,-0.006,1.035,0.490,-2.380,-0.630
1241498,0.017,-0.009,1.032,0.560,-2.450,-0.560
1241518,0.016,-0.008,1.030,0.490,-2.450,-0.630
1241538,0.015,-0.007,1.033,0.140,-2.450,-0.560
1241558,0.015,-0.007,1.036,0.140,-2.380,-0.560
1241578,0.015,-0.006,1.033,0.140,-2.450,-0.560
1241598,0.018,-0.007,1.034,0.490,-2.450,-0.560
1241618,0.015,-0.006,1.036,0.560,-2.450,-0.630
1241638,0.016,-0.011,1.033,0.420,-2.520,-0.560
1241658,0.015,-0.007,1.032,0.140,-2.450,-0.560
1241677,0.016,-0.007,1.034,0.070,-2.310,-0.560
1241702,0.016,-0.005,1.036,0.210,-2.380,-0.560
1241720,0.014,-0.006,1.035,0.490,-2.450,-0.630
1241742,0.016,-0.008,1.032,0.210,-2.380,-0.560
1241762,0.013,-0.008,1.031,0.490,-2.380,-0.630
1241779,0.018,-0.005,1.034,0.350,-2.450,-0.490
1241799,0.014,-0.008,1.032,0.280,-2.380,-0.560
1241818,0.015,-0.004,1.031,0.210,-2.380,-0.630
1241838,0.014,-0.006,1.034,0.280,-2.450,-0.560
1241858,0.015,-0.006,1.033,0.490,-2.380,-0.560
1241878,0.016,-0.007,1.035,0.490,-2.450,-0.630
1241903,0.017,-0.007,1.032,0.490,-2.380,-0.560
1241923,0.019,-0.008,1.033,0.350,-2.310,-0.560
1241943,0.014,-0.006,1.033,0.280,-2.520,-0.490
1241962,0.015,-0.004,1.033,0.000,-2.380,-0.560
1241979,0.016,-0.006,1.035,0.350,-2.380,-0.560
1241999,0.016,-0.005,1.035,0.630,-2.520,-0.560
1242023,0.014,-0.008,1.034,0.700,-2.590,-0.560
1242043,0.017,-0.009,1.030,0.420,-2.450,-0.630
1242063,0.016,-0.008,1.033,0.420,-2.450,-0.630
1242083,0.017,-0.007,1.033,0.210,-2.520,-0.630
1242103,0.016,-0.005,1.033,0.140,-2.520,-0.490
1242123,0.016,-0.005,1.035,0.350,-2.380,-0.630
1242142,0.015,-0.005,1.031,0.490,-2.380,-0.560
1242166,0.015,-0.003,1.030,0.280,-2.450,-0.420
1242186,0.013,-0.005,1.036,0.630,-2.310,-0.560
1242210,0.015,-0.006,1.032,0.560,-2.450,-0.630
1242230,0.014,-0.009,1.032,0.350,-2.450,-0.560
1242248,0.016,-0.008,1.035,0.000,-2.310,-0.630
1242270,0.017,-0.008,1.036,0.000,-2.520,-0.490
1242290,0.016,-0.006,1.033,0.350,-2.450,-0.700
1242310,0.015,-0.008,1.033,0.350,-2.380,-0.630
1242330,0.017,-0.006,1.033,0.280,-2.450,-0.560
1242350,0.016,-0.008,1.036,0.420,-2.450,-0.630
1242370,0.015,-0.008,1.033,0.280,-2.520,-0.560
1242389,0.015,-0.006,1.034,0.280,-2.520,-0.560
1242411,0.016,-0.005,1.029,0.280,-2.310,-0.560
1242429,0.015,-0.004,1.036,0.280,-2.450,-0.630
1242448,0.015,-0.009,1.034,0.350,-2.380,-0.630
1242468,0.014,-0.008,1.031,0.350,-2.380,-0.490
1242488,0.014,-0.006,1.036,0.280,-2.450,-0.560
1242513,0.014,-0.004,1.035,0.210,-2.310,-0.630
1242532,0.014,-0.009,1.033,0.490,-2.520,-0.490
1242552,0.016,-0.009,1.032,0.420,-2.520,-0.560
1242572,0.016,-0.006,1.031,0.070,-2.310,-0.560
1242597,0.013,-0.005,1.031,-0.070,-2.450,-0.490
1242617,0.013,-0.007,1.036,0.140,-2.450,-0.560
1242634,0.014,-0.009,1.032,0.560,-2.310,-0.630
1242654,0.014,-0.007,1.033,0.630,-2.450,-0.630
1242674,0.015,-0.009,1.034,0.280,-2.380,-0.560
1242694,0.014,-0.008,1.033,0.280,-2.520,-0.560
1242714,0.014,-0.005,1.033,0.140,-2.310,-0.630
1242734,0.017,-0.007,1.035,0.280,-2.520,-0.630
1242758,0.015,-0.008,1.036,0.350,-2.520,-0.560
1242778,0.015,-0.004,1.035,0.490,-2.450,-0.560
1242798,0.016,-0.008,1.034,0.560,-2.380,-0.700
1242816,0.016,-0.007,1.034,0.280,-2.380,-0.560
1242837,0.016,-0.007,1.035,0.210,-2.450,-0.490
1242857,0.015,-0.008,1.036,0.350,-2.310,-0.560
1242876,0.017,-0.006,1.035,0.350,-2.450,-0.630
1242900,0.016,-0.006,1.035,0.350,-2.450,-0.560
1242924,0.015,-0.005,1.032,0.630,-2.520,-0.560
1242944,0.016,-0.006,1.033,0.420,-2.380,-0.630
1242964,0.016,-0.008,1.036,0.490,-2.450,-0.560
1242984,0.014,-0.007,1.032,0.280,-2.520,-0.490
1243002,0.014,-0.005,1.033,0.280,-2.380,-0.560
1243022,0.015,-0.006,1.033,0.420,-2.380,-0.560
1243042,0.015,-0.007,1.035,0.420,-2.450,-0.630
1243066,0.015,-0.007,1.032,0.280,-2.520,-0.560
1243086,0.015,-0.006,1.034,0.210,-2.450,-0.630
1243106,0.015,-0.007,1.035,0.140,-2.380,-0.630
1243123,0.013,-0.005,1.034,0.350,-2.450,-0.560
1243146,0.015,-0.002,1.032,0.280,-2.380,-0.630
1243166,0.015,-0.004,1.033,0.420,-2.310,-0.630
1243182,0.016,-0.007,1.032,0.560,-2.450,-0.630
1243207,0.015,-0.008,1.032,0.280,-2.310,-0.630
1243227,0.016,-0.008,1.033,0.140,-2.310,-0.630
1243244,0.017,-0.005,1.033,-0.140,-2.170,-0.630
1243267,0.015,-0.005,1.033,0.070,-2.520,-0.560
1243287,0.017,-0.005,1.033,0.000,-2.450,-0.490
1243308,0.015,-0.006,1.031,0.700,-2.380,-0.560
1243328,0.016,-0.007,1.031,0.420,-2.380,-0.560
1243348,0.015,-0.008,1.034,0.490,-2.450,-0.630
1243368,0.016,-0.007,1.034,0.490,-2.520,-0.560
1243387,0.016,-0.005,1.033,0.210,-2.520,-0.630
1243408,0.016,-0.006,1.033,0.140,-2.520,-0.560
1243428,0.016,-0.006,1.034,0.280,-2.450,-0.630
1243448,0.017,-0.007,1.032,0.280,-2.450,-0.490
1243468,0.014,-0.007,1.031,0.140,-2.450,-0.560
1243487,0.014,-0.005,1.033,0.280,-2.380,-0.560
1243511,0.016,-0.010,1.035,0.490,-2.450,-0.630
1243531,0.016,-0.005,1.035,0.490,-2.380,-0.630
1243549,0.015,-0.007,1.031,0.420,-2.310,-0.700
1243569,0.014,-0.006,1.033,0.490,-2.380,-0.700
1243589,0.018,-0.006,1.037,0.350,-2.380,-0.630
1243613,0.013,-0.007,1.036,0.420,-2.380,-0.560
1243632,0.013,-0.007,1.032,0.490,-2.520,-0.490
1243651,0.014,-0.008,1.034,0.210,-2.380,-0.700
1243674,0.013,-0.004,1.034,0.070,-2.450,-0.630
1243693,0.015,-0.008,1.033,0.140,-2.450,-0.560
1243718,0.015,-0.006,1.033,0.210,-2.310,-0.630
1243742,0.014,-0.004,1.034,0.420,-2.380,-0.560
1243762,0.014,-0.005,1.034,0.490,-2.450,-0.560
1243782,0.014,-0.007,1.033,0.560,-2.380,-0.630
1243802,0.014,-0.006,1.033,0.490,-2.380,-0.560
1243817,0.018,-0.008,1.033,0.420,-2.450,-0.560
1243837,0.015,-0.008,1.032,0.350,-2.310,-0.560
1243862,0.015,-0.008,1.035,0.140,-2.380,-0.560
1243882,0.013,-0.006,1.035,0.210,-2.380,-0.560
1243902,0.015,-0.006,1.033,0.210,-2.450,-0.560
1243922,0.016,-0.008,1.036,0.490,-2.450,-0.560
1243942,0.016,-0.009,1.031,0.490,-2.520,-0.560
1243962,0.015,-0.008,1.033,0.280,-2.590,-0.560
1243977,0.017,-0.004,1.033,0.210,-2.310,-0.420
1243997,0.016,-0.005,1.036,0.210,-2.380,-0.560
1244022,0.015,-0.005,1.035,0.350,-2.380,-0.560
1244042,0.015,-0.006,1.035,0.560,-2.520,-0.490
1244062,0.016,-0.008,1.032,0.560,-2.380,-0.560
1244082,0.014,-0.007,1.034,0.420,-2.450,-0.630
1244098,0.013,-0.006,1.032,0.140,-2.450,-0.560
1244117,0.016,-0.005,1.028,0.210,-2.520,-0.560
1244137,0.014,-0.003,1.037,0.420,-2.520,-0.560
1244162,0.016,-0.008,1.035,0.490,-2.450,-0.630
1244182,0.013,-0.007,1.035,0.560,-2.520,-0.700
1244206,0.017,-0.008,1.031,0.280,-2.520,-0.630
1244221,0.015,-0.009,1.032,-0.070,-2.380,-0.560
1244241,0.014,-0.006,1.036,0.280,-2.520,-0.560
1244261,0.014,-0.007,1.035,0.490,-2.450,-0.560
1244281,0.016,-0.009,1.033,0.770,-2.380,-0.560
1244301,0.011,-0.007,1.033,0.560,-2.380,-0.560
1244326,0.015,-0.008,1.032,0.280,-2.380,-0.560
1244345,0.015,-0.007,1.033,0.210,-2.450,-0.490
1244369,0.015,-0.005,1.035,0.350,-2.450,-0.560
1244389,0.016,-0.006,1.035,0.210,-2.380,-0.630
1244409,0.012,-0.009,1.035,0.560,-2.520,-0.630
1244427,0.017,-0.010,1.031,0.350,-2.450,-0.560
1244448,0.016,-0.008,1.035,0.140,-2.520,-0.560
1244464,0.014,-0.009,1.037,0.140,-2.450,-0.630
1244489,0.015,-0.004,1.034,0.490,-2.590,-0.700
1244504,0.013,-0.006,1.034,0.280,-2.520,-0.700
1244529,0.015,-0.006,1.031,0.350,-2.380,-0.560
1244549,0.013,-0.004,1.035,0.210,-2.310,-0.560
1244571,0.014,-0.007,1.035,0.140,-2.380,-0.490
1244593,0.018,-0.004,1.035,0.280,-2.380,-0.560
1244613,0.016,-0.006,1.036,0.490,-2.450,-0.630
1244633,0.013,-0.009,1.033,0.350,-2.450,-0.560
1244649,0.017,-0.007,1.032,0.350,-2.380,-0.630
1244673,0.015,-0.005,1.032,0.210,-2.310,-0.630
1244692,0.015,-0.006,1.035,0.350,-2.520,-0.630
1244713,0.014,-0.005,1.036,0.140,-2.380,-0.630
1244733,0.018,-0.009,1.034,0.280,-2.450,-0.560
1244753,0.016,-0.008,1.035,0.350,-2.380,-0.560
1244773,0.015,-0.008,1.035,0.420,-2.310,-0.630
1244793,0.014,-0.008,1.036,0.420,-2.450,-0.490
1244811,0.014,-0.007,1.032,0.280,-2.450,-0.490
1244833,0.015,-0.008,1.032,0.140,-2.450,-0.560
1244853,0.015,-0.007,1.035,0.350,-2.240,-0.630
1244871,0.016,-0.008,1.034,0.490,-2.450,-0.560
1244889,0.016,-0.007,1.034,0.280,-2.380,-0.420
1244909,0.015,-0.005,1.032,0.070,-2.380,-0.560
1244929,0.015,-0.004,1.036,0.280,-2.310,-0.630
1244949,0.015,-0.004,1.034,0.490,-2.310,-0.630
1244969,0.016,-0.009,1.033,0.210,-2.240,-0.560
1244989,0.013,-0.008,1.032,0.280,-2.240,-0.560
1245012,0.014,-0.007,1.034,0.210,-2.450,-0.560
1245032,0.016,-0.006,1.033,0.630,-2.450,-0.630
1245056,0.013,-0.007,1.035,0.490,-2.520,-0.560
1245072,0.015,-0.010,1.033,0.560,-2.450,-0.560
1245096,0.016,-0.008,1.036,0.420,-2.380,-0.630
1245114,0.016,-0.008,1.035,0.350,-2.520,-0.560
1245135,0.014,-0.006,1.036,0.420,-2.380,-0.560
1245154,0.016,-0.006,1.033,0.420,-2.450,-0.560
1245174,0.013,-0.007,1.034,0.140,-2.240,-0.630
1245199,0.015,-0.006,1.035,0.210,-2.380,-0.630
1245219,0.016,-0.004,1.036,0.350,-2.520,-0.630
1245239,0.016,-0.006,1.030,0.280,-2.380,-0.560
1245259,0.017,-0.006,1.035,0.350,-2.450,-0.560
1245278,0.016,-0.006,1.037,0.420,-2.450,-0.630
1245302,0.017,-0.007,1.033,0.420,-2.380,-0.560
1245321,0.016,-0.008,1.033,0.560,-2.380,-0.630
1245345,0.015,-0.006,1.034,0.420,-2.450,-0.630
1245365,0.012,-0.008,1.034,0.210,-2.380,-0.490
1245385,0.016,-0.009,1.037,0.280,-2.520,-0.630
1245405,0.016,-0.007,1.032,0.280,-2.380,-0.560
1245425,0.017,-0.007,1.033,0.210,-2.380,-0.560
1245442,0.015,-0.005,1.035,0.420,-2.520,-0.560
1245466,0.014,-0.005,1.036,0.420,-2.310,-0.630
1245485,0.015,-0.005,1.030,0.350,-2.310,-0.630
1245506,0.018,-0.005,1.033,0.210,-2.380,-0.560
1245526,0.013,-0.008,1.035,0.280,-2.450,-0.560
1245550,0.016,-0.005,1.034,0.350,-2.380,-0.560
1245570,0.013,-0.004,1.034,0.280,-2.520,-0.630
1245590,0.016,-0.007,1.030,0.280,-2.450,-0.630
1245610,0.015,-0.006,1.033,0.280,-2.380,-0.490
1245630,0.017,-0.005,1.036,0.420,-2.380,-0.630
1245650,0.015,-0.006,1.031,0.280,-2.450,-0.630
1245670,0.017,-0.006,1.031,0.140,-2.450,-0.560
1245685,0.015,-0.005,1.037,0.280,-2.380,-0.630
1245705,0.014,-0.006,1.032,0.350,-2.520,-0.490
1245730,0.017,-0.008,1.032,0.560,-2.450,-0.630
1245750,0.016,-0.006,1.033,0.490,-2.380,-0.490
1245769,0.016,-0.008,1.036,0.420,-2.450,-0.630
1245789,0.016,-0.005,1.035,0.140,-2.450,-0.560
1245813,0.013,-0.006,1.029,0.350,-2.380,-0.560
1245832,0.015,-0.006,1.036,0.140,-2.310,-0.630
1245853,0.016,-0.007,1.035,0.490,-2.380,-0.560
1245873,0.017,-0.005,1.033,0.560,-2.450,-0.560
1245893,0.012,-0.009,1.031,0.350,-2.450,-0.560
1245913,0.015,-0.006,1.034,0.280,-2.520,-0.560
1245928,0.013,-0.007,1.034,0.420,-2.450,-0.560
1245949,0.014,-0.007,1.033,0.490,-2.520,-0.560
1245969,0.015,-0.006,1.032,0.630,-2.450,-0.490
1245989,0.015,-0.006,1.034,0.560,-2.590,-0.490
1246009,0.014,-0.008,1.032,0.350,-2.450,-0.560
1246029,0.016,-0.005,1.032,0.210,-2.380,-0.630
1246053,0.014,-0.008,1.031,0.140,-2.380,-0.700
1246073,0.016,-0.005,1.034,0.210,-2.380,-0.630
1246093,0.016,-0.005,1.033,0.350,-2.380,-0.700
1246113,0.015,-0.007,1.032,0.490,-2.450,-0.560
1246133,0.015,-0.007,1.034,0.560,-2.310,-0.630
1246153,0.014,-0.008,1.035,0.490,-2.520,-0.630
1246171,0.015,-0.006,1.032,0.280,-2.450,-0.560
1246192,0.015,-0.009,1.033,0.210,-2.380,-0.560
1246216,0.016,-0.007,1.037,0.280,-2.310,-0.560
1246236,0.016,-0.006,1.035,0.280,-2.520,-0.630
1246256,0.015,-0.006,1.032,0.490,-2.450,-0.630
1246276,0.016,-0.005,1.035,0.280,-2.380,-0.630
1246300,0.015,-0.006,1.034,0.140,-2.520,-0.700
1246320,0.016,-0.007,1.034,0.210,-2.450,-0.630
1246340,0.016,-0.006,1.032,0.350,-2.380,-0.630
1246360,0.016,-0.007,1.036,0.350,-2.520,-0.630
1246378,0.017,-0.006,1.035,0.280,-2.310,-0.630
1246400,0.015,-0.006,1.035,0.350,-2.520,-0.630
1246419,0.015,-0.007,1.033,0.420,-2.380,-0.630
1246443,0.014,-0.008,1.035,0.280,-2.450,-0.560
1246463,0.016,-0.006,1.035,0.140,-2.520,-0.700
1246483,0.014,-0.006,1.035,0.350,-2.590,-0.630
1246503,0.013,-0.005,1.030,0.140,-2.520,-0.560
1246523,0.016,-0.007,1.033,0.210,-2.310,-0.630
1246543,0.015,-0.009,1.034,0.280,-2.450,-0.560
1246563,0.016,-0.008,1.036,0.350,-2.450,-0.630
1246578,0.019,-0.006,1.032,0.210,-2.380,-0.700
1246598,0.016,-0.006,1.036,0.140,-2.450,-0.630
1246618,0.014,-0.007,1.034,0.490,-2.450,-0.630
1246643,0.014,-0.005,1.033,0.560,-2.520,-0.630
1246661,0.015,-0.007,1.033,0.420,-2.380,-0.560
1246682,0.016,-0.006,1.036,0.210,-2.380,-0.630
1246702,0.014,-0.006,1.034,0.070,-2.380,-0.490
1246726,0.013,-0.006,1.030,0.210,-2.590,-0.560
1246746,0.013,-0.005,1.034,0.350,-2.450,-0.560
1246766,0.016,-0.007,1.036,0.490,-2.450,-0.630
1246784,0.014,-0.006,1.032,0.630,-2.310,-0.560
1246804,0.017,-0.007,1.034,0.420,-2.380,-0.630
1246826,0.014,-0.006,1.036,0.420,-2.590,-0.490
1246846,0.017,-0.007,1.032,0.140,-2.450,-0.560
1246866,0.015,-0.005,1.033,0.350,-2.590,-0.560
1246885,0.017,-0.006,1.032,0.280,-2.240,-0.560
1246910,0.017,-0.005,1.035,0.280,-2.310,-0.630
1246930,0.016,-0.007,1.037,0.420,-2.450,-0.630
1246950,0.017,-0.009,1.032,0.000,-2.380,-0.700
1246970,0.015,-0.010,1.031,0.420,-2.450,-0.560
1246990,0.015,-0.007,1.035,0.420,-2.450,-0.560
1247010,0.014,-0.008,1.035,0.490,-2.590,-0.560
1247029,0.015,-0.008,1.029,0.630,-2.310,-0.630
1247049,0.019,-0.004,1.034,0.350,-2.520,-0.630
1247068,0.016,-0.007,1.036,0.140,-2.380,-0.630
1247093,0.018,-0.007,1.035,0.350,-2.240,-0.630
1247116,0.016,-0.006,1.031,0.420,-2.310,-0.560
1247137,0.015,-0.007,1.034,0.210,-2.450,-0.560
1247155,0.014,-0.008,1.036,0.280,-2.380,-0.490
1247177,0.017,-0.007,1.033,0.490,-2.380,-0.630
1247195,0.016,-0.012,1.031,0.280,-2.310,-0.630
1247217,0.017,-0.008,1.032,0.700,-2.380,-0.630
1247237,0.015,-0.004,1.036,0.210,-2.520,-0.560
1247257,0.013,-0.007,1.035,0.420,-2.520,-0.560
1247272,0.014,-0.006,1.032,0.280,-2.380,-0.490
1247292,0.016,-0.007,1.035,0.280,-2.590,-0.560
1247312,0.015,-0.005,1.034,0.210,-2.590,-0.560
1247337,0.017,-0.007,1.032,0.350,-2.450,-0.630
1247357,0.015,-0.009,1.036,0.350,-2.590,-0.630
1247377,0.014,-0.011,1.034,0.490,-2.450,-0.560
1247393,0.016,-0.004,1.032,0.280,-2.380,-0.490
1247413,0.018,-0.006,1.034,0.140,-2.450,-0.490
1247437,0.015,-0.005,1.035,0.210,-2.450,-0.560
1247457,0.017,-0.005,1.036,0.630,-2.310,-0.630
1247477,0.016,-0.007,1.032,0.560,-2.380,-0.630
1247496,0.015,-0.009,1.033,0.350,-2.380,-0.560
1247515,0.017,-0.007,1.033,0.350,-2.590,-0.560
1247535,0.016,-0.005,1.033,0.280,-2.380,-0.560
1247555,0.015,-0.006,1.034,0.140,-2.450,-0.560
1247574,0.015,-0.006,1.033,0.280,-2.450,-0.630
1247594,0.014,-0.008,1.034,0.210,-2.450,-0.700
1247614,0.017,-0.007,1.031,0.210,-2.450,-0.560
1247635,0.015,-0.008,1.035,0.210,-2.310,-0.560
1247655,0.016,-0.006,1.035,0.490,-2.450,-0.490
1247674,0.014,-0.008,1.034,0.630,-2.380,-0.560
1247699,0.013,-0.009,1.033,0.630,-2.450,-0.560
1247719,0.017,-0.005,1.034,0.490,-2.520,-0.560
1247739,0.016,-0.004,1.038,0.140,-2.450,-0.560
1247763,0.014,-0.010,1.036,0.280,-2.450,-0.700
1247783,0.015,-0.005,1.032,0.210,-2.450,-0.630
1247803,0.016,-0.007,1.031,0.350,-2.310,-0.560
1247823,0.017,-0.005,1.036,0.280,-2.450,-0.490
1247843,0.015,-0.005,1.035,0.210,-2.590,-0.560
1247863,0.016,-0.009,1.031,0.490,-2.310,-0.630
1247883,0.018,-0.009,1.033,0.560,-2.380,-0.700
1247903,0.018,-0.005,1.035,0.420,-2.380,-0.630
1247923,0.015,-0.007,1.033,0.420,-2.450,-0.700
1247941,0.018,-0.007,1.032,0.490,-2.380,-0.630
1247963,0.015,-0.008,1.036,0.420,-2.450,-0.560
1247983,0.014,-0.004,1.034,0.560,-2.380,-0.490
1248007,0.014,-0.006,1.031,0.280,-2.450,-0.560
1248027,0.018,-0.009,1.031,0.490,-2.380,-0.630
1248047,0.019,-0.006,1.033,0.350,-2.310,-0.630
1248065,0.017,-0.004,1.034,0.490,-2.310,-0.630
1248084,0.012,-0.004,1.029,0.420,-2.310,-0.490
1248108,0.014,-0.005,1.036,0.070,-2.450,-0.560
1248124,0.017,-0.007,1.035,-0.070,-2.310,-0.560
1248144,0.018,-0.005,1.032,0.210,-2.380,-0.630
1248168,0.015,-0.010,1.031,0.350,-2.310,-0.560
1248188,0.016,-0.010,1.033,0.490,-2.450,-0.630
1248212,0.015,-0.007,1.035,0.700,-2.450,-0.560
1248232,0.017,-0.006,1.030,0.560,-2.450,-0.630
1248247,0.015,-0.005,1.034,0.210,-2.520,-0.560
1248272,0.014,-0.006,1.037,0.350,-2.450,-0.630
1248291,0.014,-0.005,1.033,0.420,-2.590,-0.490
1248311,0.016,-0.007,1.030,0.350,-2.520,-0.490
1248328,0.015,-0.005,1.033,0.210,-2.380,-0.630
1248347,0.014,-0.004,1.034,0.070,-2.380,-0.630
1248367,0.015,-0.005,1.032,0.560,-2.450,-0.490
1248389,0.015,-0.008,1.033,0.490,-2.450,-0.700
1248409,0.016,-0.008,1.034,0.560,-2.590,-0.630
1248433,0.014,-0.008,1.036,0.350,-2.380,-0.630
1248453,0.014,-0.005,1.032,0.280,-2.450,-0.630
1248471,0.015,-0.006,1.035,0.350,-2.310,-0.560
1248493,0.015,-0.004,1.034,0.560,-2.170,-0.560
1248513,0.014,-0.005,1.034,0.490,-2.310,-0.630
1248533,0.017,-0.006,1.033,0.350,-2.310,-0.630
1248553,0.016,-0.009,1.032,0.140,-2.310,-0.630
1248573,0.016,-0.008,1.034,0.420,-2.450,-0.490
1248593,0.016,-0.009,1.033,0.420,-2.240,-0.490
1248611,0.015,-0.007,1.034,0.490,-2.380,-0.490
1248630,0.016,-0.005,1.036,0.350,-2.310,-0.630
1248654,0.016,-0.009,1.036,0.420,-2.450,-0.560
1248674,0.014,-0.007,1.029,0.280,-2.310,-0.630
1248694,0.013,-0.010,1.034,0.350,-2.310,-0.630
1248717,0.014,-0.005,1.034,0.350,-2.380,-0.490
1248741,0.015,-0.006,1.036,0.140,-2.520,-0.630
1248759,0.018,-0.007,1.033,0.420,-2.380,-0.490
1248781,0.015,-0.005,1.033,0.420,-2.450,-0.560
1248801,0.015,-0.004,1.035,0.280,-2.520,-0.560
1248821,0.015,-0.005,1.036,0.420,-2.450,-0.560
1248841,0.016,-0.005,1.032,0.210,-2.450,-0.490
1248857,0.014,-0.008,1.034,0.070,-2.450,-0.560
1248876,0.015,-0.009,1.032,0.420,-2.520,-0.630
1248901,0.017,-0.006,1.034,0.420,-2.310,-0.560
1248920,0.016,-0.008,1.034,0.210,-2.310,-0.700
1248939,0.014,-0.009,1.037,0.420,-2.450,-0.770
1248963,0.017,-0.007,1.034,0.630,-2.450,-0.560
1248983,0.015,-0.003,1.034,0.630,-2.380,-0.560
1249003,0.015,-0.003,1.033,0.560,-2.380,-0.630
1249023,0.016,-0.005,1.036,0.280,-2.450,-0.630
1249043,0.016,-0.005,1.034,0.210,-2.380,-0.560
1249063,0.018,-0.006,1.030,-0.070,-2.380,-0.630
1249083,0.015,-0.010,1.033,0.070,-2.380,-0.630
1249103,0.014,-0.008,1.038,0.350,-2.520,-0.700
1249123,0.017,-0.009,1.035,0.700,-2.380,-0.560
1249143,0.015,-0.011,1.032,0.490,-2.380,-0.630
1249163,0.014,-0.006,1.035,0.280,-2.380,-0.560
1249183,0.013,-0.005,1.034,0.350,-2.450,-0.560
1249203,0.015,-0.007,1.028,0.210,-2.450,-0.490
