Millis,AccelX,AccelY,AccelZ,GyroX,GyroY,GyroZ
1124800,-0.059,-0.424,0.960,0.980,-2.450,-0.840
1124818,-0.058,-0.420,0.964,0.420,-2.450,-0.840
1124840,-0.055,-0.423,0.961,1.120,-2.380,-0.770
1124864,-0.060,-0.425,0.961,1.260,-2.450,-0.840
1124884,-0.057,-0.425,0.960,0.700,-2.380,-0.840
1124904,-0.058,-0.421,0.962,0.770,-2.450,-0.770
1124922,-0.058,-0.424,0.963,0.980,-2.380,-0.700
1124942,-0.058,-0.425,0.961,0.910,-2.660,-0.770
1124962,-0.059,-0.423,0.960,0.630,-2.520,-0.840
1124981,-0.059,-0.421,0.961,1.050,-2.380,-0.910
1125001,-0.057,-0.426,0.960,0.980,-2.450,-0.770
1125024,-0.060,-0.426,0.961,1.050,-2.590,-0.910
1125047,-0.057,-0.423,0.962,0.560,-2.380,-0.840
1125066,-0.056,-0.424,0.962,0.840,-2.310,-0.840
1125086,-0.056,-0.423,0.961,1.120,-2.310,-0.700
1125105,-0.061,-0.425,0.962,0.910,-2.380,-0.770
1125126,-0.060,-0.423,0.961,0.910,-2.520,-0.770
1125144,-0.058,-0.422,0.957,0.560,-2.520,-0.840
1125166,-0.058,-0.424,0.963,1.190,-2.450,-0.700
1125186,-0.058,-0.424,0.959,1.260,-2.450,-0.770
1125206,-0.059,-0.423,0.959,0.630,-2.380,-0.770
1125226,-0.060,-0.422,0.962,0.840,-2.450,-0.700
1125246,-0.059,-0.425,0.961,1.050,-2.380,-0.700
1125266,-0.059,-0.425,0.963,1.050,-2.450,-0.700
1125286,-0.057,-0.421,0.961,0.630,-2.450,-0.980
1125306,-0.058,-0.422,0.962,0.630,-2.380,-0.770
1125326,-0.058,-0.427,0.964,0.980,-2.450,-0.700
1125344,-0.056,-0.423,0.960,0.140,-2.590,-0.840
1125365,-0.055,-0.421,0.961,0.770,-2.380,-0.700
1125388,-0.053,-0.421,0.962,1.190,-2.380,-0.700
1125407,-0.057,-0.428,0.959,1.120,-2.310,-0.700
1125427,-0.056,-0.423,0.960,1.050,-2.310,-0.770
1125447,-0.060,-0.422,0.961,1.330,-2.380,-0.700
1125467,-0.061,-0.423,0.961,1.190,-2.240,-0.700
1125487,-0.061,-0.423,0.962,1.120,-2.380,-0.770
1125511,-0.060,-0.421,0.962,0.770,-2.450,-0.700
1125530,-0.059,-0.425,0.961,0.560,-2.520,-0.840
1125554,-0.060,-0.424,0.961,0.700,-2.520,-0.840
1125574,-0.058,-0.424,0.964,0.630,-2.450,-0.770
1125594,-0.059,-0.427,0.960,0.700,-2.590,-0.770
1125614,-0.057,-0.421,0.962,0.140,-2.520,-0.840
1125633,-0.058,-0.424,0.961,1.540,-2.380,-0.770
1125653,-0.060,-0.426,0.961,1.540,-2.450,-0.840
1125673,-0.060,-0.425,0.959,0.490,-2.450,-0.770
1125697,-0.057,-0.422,0.965,0.560,-2.520,-0.700
1125717,-0.056,-0.423,0.961,1.190,-2.240,-0.700
1125737,-0.059,-0.426,0.965,1.330,-2.450,-0.840
1125757,-0.059,-0.426,0.959,0.980,-2.380,-0.770
1125776,-0.057,-0.421,0.961,0.420,-2.310,-0.770
1125796,-0.055,-0.424,0.960,1.540,-2.240,-0.700
1125816,-0.058,-0.426,0.963,0.770,-2.450,-0.770
1125840,-0.059,-0.421,0.962,0.560,-2.520,-0.840
1125860,-0.059,-0.421,0.963,0.770,-2.310,-0.770
1125880,-0.057,-0.426,0.961,1.260,-2.450,-0.770
1125898,-0.059,-0.425,0.959,0.700,-2.450,-0.630
1125922,-0.060,-0.425,0.964,0.700,-2.450,-0.770
1125942,-0.060,-0.425,0.961,0.840,-2.450,-0.770
1125962,-0.057,-0.423,0.960,0.770,-2.310,-0.630
1125986,-0.056,-0.424,0.963,0.980,-2.450,-0.770
1126006,-0.059,-0.425,0.959,0.840,-2.520,-0.700
1126023,-0.058,-0.423,0.962,0.700,-2.310,-0.770
1126043,-0.057,-0.424,0.964,1.050,-2.310,-0.770
1126062,-0.058,-0.426,0.960,1.120,-2.380,-0.770
1126082,-0.060,-0.425,0.962,0.630,-2.590,-0.840
1126102,-0.058,-0.422,0.962,0.630,-2.520,-0.770
1126122,-0.058,-0.422,0.961,1.120,-2.520,-0.700
1126147,-0.056,-0.426,0.961,0.700,-2.520,-0.700
1126167,-0.059,-0.426,0.962,0.840,-2.520,-0.770
1126187,-0.058,-0.423,0.960,0.420,-2.450,-0.770
1126207,-0.058,-0.425,0.965,0.980,-2.450,-0.770
1126227,-0.057,-0.425,0.960,1.470,-2.450,-0.840
1126245,-0.059,-0.424,0.963,0.420,-2.450,-0.840
1126266,-0.057,-0.423,0.963,1.050,-2.450,-0.840
1126285,-0.061,-0.427,0.961,1.400,-2.450,-0.840
1126307,-0.060,-0.423,0.958,0.980,-2.520,-0.770
1126330,-0.060,-0.423,0.959,0.560,-2.450,-0.700
1126348,-0.058,-0.426,0.963,1.050,-2.100,-0.700
1126370,-0.060,-0.424,0.957,1.400,-2.450,-0.700
1126394,-0.058,-0.424,0.962,0.910,-2.450,-0.770
1126414,-0.060,-0.425,0.962,1.050,-2.450,-0.840
1126434,-0.058,-0.423,0.959,0.630,-2.240,-0.770
1126453,-0.057,-0.422,0.964,0.980,-2.520,-0.770
1126478,-0.059,-0.424,0.960,1.120,-2.660,-0.840
1126498,-0.057,-0.425,0.960,0.560,-2.590,-0.770
1126517,-0.057,-0.423,0.962,0.910,-2.240,-0.770
1126537,-0.055,-0.423,0.962,1.120,-2.240,-0.770
1126558,-0.058,-0.425,0.962,0.840,-2.450,-0.840
1126578,-0.059,-0.421,0.958,0.630,-2.450,-0.840
1126598,-0.059,-0.421,0.963,0.490,-2.380,-0.770
1126618,-0.058,-0.422,0.963,1.120,-2.450,-0.770
1126642,-0.059,-0.425,0.961,0.630,-2.310,-0.770
1126661,-0.058,-0.425,0.957,0.630,-2.590,-0.770
1126681,-0.057,-0.422,0.960,0.350,-2.380,-0.770
1126700,-0.058,-0.423,0.962,1.330,-2.240,-0.770
1126723,-0.056,-0.426,0.961,1.400,-2.380,-0.770
1126743,-0.059,-0.427,0.963,0.910,-2.450,-0.770
1126762,-0.059,-0.422,0.962,0.700,-2.380,-0.770
1126782,-0.059,-0.422,0.961,1.050,-2.380,-0.700
1126802,-0.055,-0.426,0.964,1.190,-2.450,-0.700
1126827,-0.058,-0.422,0.962,0.630,-2.450,-0.770
1126846,-0.058,-0.422,0.964,0.490,-2.590,-0.910
1126867,-0.060,-0.423,0.961,1.120,-2.590,-0.700
1126886,-0.058,-0.424,0.962,1.050,-2.450,-0.700
1126910,-0.059,-0.424,0.962,0.560,-2.450,-0.630
1126930,-0.056,-0.426,0.961,0.910,-2.520,-0.840
1126950,-0.058,-0.421,0.960,1.050,-2.380,-0.770
1126970,-0.057,-0.426,0.962,0.840,-2.380,-0.770
1126990,-0.060,-0.426,0.958,1.260,-2.590,-0.840
1127009,-0.060,-0.423,0.961,0.630,-2.380,-0.630
1127033,-0.058,-0.425,0.966,1.330,-2.520,-0.770
1127053,-0.059,-0.424,0.959,0.770,-2.520,-0.770
1127073,-0.058,-0.424,0.963,0.980,-2.590,-0.910
1127093,-0.057,-0.425,0.961,0.840,-2.450,-0.770
1127108,-0.058,-0.425,0.961,0.700,-2.450,-0.770
1127131,-0.058,-0.426,0.960,1.050,-2.450,-0.770
1127155,-0.061,-0.425,0.959,0.840,-2.450,-0.840
1127174,-0.057,-0.426,0.962,0.770,-2.520,-0.770
1127191,-0.057,-0.423,0.961,1.120,-2.240,-0.700
1127210,-0.057,-0.427,0.961,1.190,-2.380,-0.700
1127234,-0.057,-0.425,0.963,0.910,-2.450,-0.840
1127257,-0.056,-0.424,0.962,0.840,-2.450,-0.770
1127281,-0.059,-0.424,0.963,0.700,-2.450,-0.840
1127301,-0.059,-0.424,0.962,0.980,-2.310,-0.700
1127321,-0.058,-0.424,0.962,1.330,-2.450,-0.840
1127345,-0.057,-0.425,0.962,0.840,-2.380,-0.770
1127364,-0.060,-0.426,0.963,0.630,-2.450,-0.700
1127389,-0.060,-0.424,0.961,0.910,-2.450,-0.770
1127409,-0.057,-0.427,0.960,1.190,-2.310,-0.770
1127429,-0.058,-0.425,0.962,0.770,-2.450,-0.770
1127449,-0.058,-0.424,0.964,0.490,-2.450,-0.840
1127469,-0.058,-0.424,0.961,1.050,-2.310,-0.770
1127489,-0.059,-0.424,0.960,0.980,-2.450,-0.770
1127509,-0.058,-0.423,0.962,0.840,-2.380,-0.700
1127528,-0.057,-0.424,0.963,0.980,-2.450,-0.770
1127548,-0.058,-0.424,0.959,0.700,-2.590,-0.770
1127568,-0.060,-0.423,0.964,0.840,-2.380,-0.840
1127593,-0.058,-0.423,0.959,0.980,-2.380,-0.770
1127613,-0.058,-0.423,0.959,0.770,-2.310,-0.700
1127630,-0.058,-0.423,0.962,0.560,-2.380,-0.700
1127650,-0.058,-0.423,0.964,0.700,-2.380,-0.770
1127674,-0.059,-0.424,0.964,1.050,-2.450,-0.840
1127694,-0.057,-0.425,0.961,0.840,-2.380,-0.840
1127714,-0.059,-0.424,0.962,0.560,-2.520,-0.700
1127734,-0.059,-0.421,0.964,1.260,-2.310,-0.840
1127752,-0.057,-0.426,0.962,1.050,-2.520,-0.700
1127776,-0.057,-0.425,0.960,0.980,-2.380,-0.840
1127796,-0.056,-0.421,0.962,0.700,-2.450,-0.770
1127816,-0.057,-0.424,0.962,0.910,-2.240,-0.630
1127836,-0.058,-0.424,0.963,0.980,-2.310,-0.630
1127856,-0.059,-0.425,0.960,1.050,-2.520,-0.770
1127880,-0.058,-0.424,0.959,0.560,-2.520,-0.770
1127899,-0.060,-0.424,0.964,0.910,-2.520,-0.770
1127920,-0.061,-0.424,0.959,0.980,-2.380,-0.770
1127938,-0.057,-0.424,0.963,0.980,-2.450,-0.770
1127959,-0.060,-0.422,0.961,0.910,-2.520,-0.770
1127979,-0.057,-0.422,0.961,0.770,-2.310,-0.700
1128003,-0.057,-0.423,0.960,0.840,-2.380,-0.770
1128023,-0.058,-0.424,0.962,0.910,-2.450,-0.840
1128041,-0.058,-0.422,0.962,0.910,-2.380,-0.910
1128063,-0.059,-0.425,0.963,1.190,-2.380,-0.770
1128083,-0.058,-0.424,0.960,1.190,-2.240,-0.770
1128103,-0.056,-0.422,0.963,0.910,-2.310,-0.840
1128120,-0.061,-0.424,0.960,0.840,-2.450,-0.770
1128139,-0.058,-0.422,0.964,0.630,-2.380,-0.700
1128163,-0.061,-0.421,0.962,0.770,-2.310,-0.630
1128187,-0.057,-0.425,0.962,1.120,-2.380,-0.910
1128207,-0.057,-0.427,0.964,0.980,-2.520,-0.700
1128227,-0.058,-0.424,0.962,0.770,-2.450,-0.700
1128246,-0.058,-0.422,0.962,0.700,-2.310,-0.840
1128266,-0.057,-0.423,0.964,1.260,-2.450,-0.770
1128286,-0.061,-0.426,0.962,0.980,-2.450,-0.770
1128306,-0.060,-0.423,0.963,0.560,-2.380,-0.840
1128330,-0.056,-0.423,0.961,0.980,-2.380,-0.770
1128350,-0.057,-0.424,0.961,1.120,-2.520,-0.770
1128365,-0.057,-0.422,0.960,0.560,-2.520,-0.770
1128386,-0.056,-0.423,0.961,0.350,-2.450,-0.840
1128410,-0.055,-0.422,0.963,0.980,-2.170,-0.700
1128429,-0.058,-0.425,0.962,1.120,-2.590,-0.840
1128453,-0.059,-0.425,0.963,0.700,-2.520,-0.840
1128473,-0.058,-0.424,0.961,1.190,-2.450,-0.700
1128498,-0.057,-0.426,0.959,0.980,-2.380,-0.840
1128517,-0.057,-0.422,0.964,0.980,-2.240,-0.770
1128537,-0.057,-0.423,0.961,0.910,-2.450,-0.700
1128557,-0.059,-0.422,0.961,0.910,-2.590,-0.770
1128577,-0.057,-0.423,0.963,0.910,-2.590,-0.770
1128597,-0.058,-0.425,0.961,0.840,-2.310,-0.770
1128614,-0.059,-0.423,0.962,1.260,-2.310,-0.700
1128634,-0.060,-0.423,0.960,0.910,-2.380,-0.840
1128653,-0.059,-0.421,0.961,0.980,-2.170,-0.840
1128673,-0.059,-0.424,0.961,1.330,-2.450,-0.770
1128698,-0.061,-0.424,0.963,0.700,-2.590,-0.840
1128718,-0.059,-0.422,0.958,0.350,-2.450,-0.770
1128738,-0.058,-0.422,0.962,0.770,-2.380,-0.840
1128758,-0.056,-0.426,0.961,0.980,-2.450,-0.700
1128778,-0.060,-0.425,0.959,0.630,-2.520,-0.770
1128798,-0.057,-0.422,0.962,0.840,-2.520,-0.840
1128818,-0.061,-0.425,0.961,0.910,-2.380,-0.840
1128833,-0.056,-0.425,0.962,1.260,-2.380,-0.700
1128854,-0.055,-0.426,0.961,0.630,-2.520,-0.770
1128874,-0.057,-0.420,0.961,0.770,-2.310,-0.770
1128894,-0.060,-0.422,0.962,1.330,-2.310,-0.630
1128918,-0.059,-0.426,0.961,1.260,-2.380,-0.840
1128938,-0.058,-0.424,0.962,0.840,-2.520,-0.770
1128958,-0.059,-0.424,0.960,0.420,-2.520,-0.770
1128982,-0.057,-0.425,0.962,0.350,-2.380,-0.840
1129002,-0.059,-0.424,0.964,0.980,-2.380,-0.770
1129022,-0.057,-0.427,0.959,0.910,-2.450,-0.770
1129042,-0.057,-0.422,0.962,0.700,-2.380,-0.910
1129057,-0.056,-0.424,0.961,1.190,-2.170,-0.840
1129077,-0.058,-0.425,0.963,1.120,-2.380,-0.770
1129102,-0.059,-0.424,0.962,1.190,-2.380,-0.770
1129122,-0.061,-0.425,0.960,0.700,-2.590,-0.840
1129140,-0.058,-0.423,0.961,0.910,-2.450,-0.770
1129162,-0.058,-0.424,0.959,1.190,-2.310,-0.630
1129185,-0.057,-0.424,0.960,0.980,-2.450,-0.770
1129204,-0.058,-0.423,0.963,0.700,-2.450,-0.770
1129228,-0.057,-0.422,0.963,0.630,-2.450,-0.910
1129248,-0.058,-0.422,0.961,1.050,-2.450,-0.770
1129268,-0.057,-0.425,0.965,1.190,-2.520,-0.770
1129288,-0.059,-0.423,0.961,0.560,-2.660,-0.840
1129307,-0.061,-0.421,0.963,0.420,-2.520,-0.770
1129327,-0.059,-0.424,0.961,0.980,-2.450,-0.770
1129351,-0.057,-0.425,0.960,1.190,-2.380,-0.840
1129370,-0.058,-0.425,0.960,0.630,-2.450,-0.770
1129386,-0.058,-0.424,0.962,1.120,-2.380,-0.700
1129406,-0.058,-0.425,0.960,1.190,-2.380,-0.700
1129431,-0.059,-0.425,0.961,0.910,-2.520,-0.700
1129451,-0.059,-0.424,0.959,0.910,-2.520,-0.840
1129468,-0.056,-0.422,0.963,0.840,-2.240,-0.700
1129489,-0.058,-0.424,0.962,0.980,-2.240,-0.700
1129508,-0.058,-0.424,0.963,0.980,-2.450,-0.700
1129528,-0.059,-0.426,0.960,0.840,-2.520,-0.770
1129548,-0.058,-0.423,0.962,0.560,-2.450,-0.700
1129568,-0.055,-0.422,0.962,0.770,-2.310,-0.630
1129593,-0.056,-0.426,0.961,1.190,-2.450,-0.770
1129611,-0.060,-0.422,0.962,0.560,-2.590,-0.840
1129632,-0.057,-0.421,0.962,0.140,-2.450,-0.630
1129651,-0.056,-0.425,0.962,0.980,-2.520,-0.840
1129673,-0.058,-0.425,0.962,0.840,-2.520,-0.700
1129693,-0.056,-0.423,0.962,0.700,-2.660,-0.840
1129708,-0.059,-0.419,0.961,0.560,-2.380,-0.700
1129728,-0.058,-0.423,0.961,1.190,-2.380,-0.770
1129748,-0.057,-0.424,0.962,1.260,-2.450,-0.770
1129773,-0.061,-0.422,0.958,0.630,-2.520,-0.770
1129793,-0.056,-0.423,0.960,0.910,-2.520,-0.910
1129812,-0.057,-0.424,0.963,1.050,-2.380,-0.700
1129828,-0.057,-0.424,0.963,0.980,-2.450,-0.840
1129848,-0.060,-0.425,0.963,0.770,-2.520,-0.840
1129873,-0.058,-0.420,0.962,0.560,-2.450,-0.770
1129891,-0.057,-0.424,0.964,1.190,-2.380,-0.770
1129910,-0.059,-0.426,0.964,0.910,-2.380,-0.770
1129934,-0.058,-0.421,0.962,0.700,-2.520,-0.910
1129949,-0.057,-0.420,0.962,0.700,-2.450,-0.840
1129969,-0.059,-0.424,0.959,1.050,-2.310,-0.770
1129989,-0.055,-0.426,0.962,0.840,-2.520,-0.910
1130014,-0.057,-0.424,0.960,0.700,-2.450,-0.770
1130034,-0.060,-0.422,0.960,0.840,-2.450,-0.770
1130053,-0.061,-0.424,0.960,0.770,-2.450,-0.840
1130069,-0.058,-0.424,0.961,1.050,-2.380,-0.770
1130094,-0.058,-0.425,0.961,0.910,-2.310,-0.770
1130114,-0.063,-0.424,0.959,0.560,-2.450,-0.700
1130134,-0.059,-0.422,0.961,0.770,-2.450,-0.770
1130154,-0.062,-0.425,0.964,0.840,-2.380,-0.770
1130173,-0.061,-0.426,0.962,0.840,-2.520,-0.630
1130189,-0.059,-0.423,0.962,0.980,-2.310,-0.700
1130214,-0.058,-0.423,0.961,1.190,-2.380,-0.770
1130234,-0.057,-0.425,0.962,1.120,-2.380,-0.840
1130254,-0.058,-0.424,0.962,0.840,-2.450,-0.770
1130274,-0.056,-0.423,0.963,0.490,-2.450,-0.840
1130293,-0.060,-0.425,0.961,0.910,-2.590,-0.770
1130311,-0.057,-0.426,0.962,0.980,-2.380,-0.700
1130335,-0.061,-0.424,0.961,0.630,-2.450,-0.700
1130354,-0.060,-0.421,0.960,0.980,-2.450,-0.840
1130374,-0.059,-0.424,0.964,1.050,-2.310,-0.770
1130394,-0.060,-0.425,0.961,1.050,-2.450,-0.770
1130417,-0.057,-0.425,0.960,0.910,-2.450,-0.770
1130436,-0.057,-0.424,0.962,0.980,-2.380,-0.700
1130461,-0.060,-0.425,0.965,0.980,-2.310,-0.700
1130480,-0.060,-0.424,0.962,0.770,-2.450,-0.770
1130503,-0.058,-0.425,0.963,0.700,-2.450,-0.770
1130527,-0.060,-0.424,0.961,0.630,-2.380,-0.840
1130546,-0.058,-0.423,0.961,0.980,-2.380,-0.700
1130562,-0.059,-0.423,0.962,0.980,-2.380,-0.770
1130587,-0.058,-0.425,0.960,0.840,-2.240,-0.700
1130607,-0.056,-0.426,0.962,1.050,-2.520,-0.840
1130627,-0.057,-0.425,0.961,0.980,-2.520,-0.840
1130647,-0.058,-0.422,0.960,0.700,-2.380,-0.840
1130667,-0.058,-0.421,0.963,0.840,-2.240,-0.560
1130683,-0.059,-0.426,0.958,0.770,-2.590,-0.910
1130703,-0.059,-0.423,0.962,0.490,-2.520,-0.700
1130727,-0.058,-0.422,0.961,1.120,-2.520,-0.840
1130747,-0.059,-0.425,0.961,0.630,-2.450,-0.840
1130767,-0.059,-0.424,0.959,0.560,-2.660,-0.770
1130787,-0.058,-0.423,0.960,0.700,-2.450,-0.840
1130807,-0.059,-0.421,0.962,0.700,-2.310,-0.770
1130827,-0.059,-0.425,0.963,1.050,-2.450,-0.630
1130847,-0.057,-0.426,0.961,0.770,-2.590,-0.840
1130867,-0.056,-0.425,0.961,0.840,-2.590,-0.770
1130887,-0.060,-0.422,0.961,0.910,-2.450,-0.700
1130907,-0.059,-0.426,0.961,1.260,-2.310,-0.770
1130924,-0.058,-0.421,0.961,0.560,-2.520,-0.770
1130944,-0.057,-0.422,0.962,0.840,-2.380,-0.840
1130963,-0.054,-0.426,0.960,0.980,-2.380,-0.770
1130987,-0.061,-0.423,0.960,0.910,-2.380,-0.700
1131005,-0.058,-0.425,0.960,1.050,-2.380,-0.840
1131029,-0.059,-0.424,0.963,1.120,-2.520,-0.770
1131053,-0.059,-0.424,0.962,0.980,-2.450,-0.840
1131073,-0.059,-0.421,0.960,0.770,-2.450,-0.700
1131092,-0.060,-0.424,0.963,0.700,-2.590,-0.840
1131117,-0.059,-0.422,0.962,0.560,-2.450,-0.700
1131136,-0.058,-0.424,0.961,0.490,-2.590,-0.840
1131156,-0.057,-0.427,0.962,0.700,-2.450,-0.700
1131179,-0.054,-0.424,0.960,0.700,-2.450,-0.770
1131199,-0.056,-0.424,0.961,0.980,-2.450,-0.840
1131219,-0.057,-0.426,0.960,0.980,-2.310,-0.630
1131238,-0.057,-0.424,0.961,1.260,-2.310,-0.840
1131258,-0.058,-0.425,0.962,1.050,-2.310,-0.770
1131278,-0.060,-0.424,0.961,0.980,-2.380,-0.840
1131301,-0.058,-0.422,0.964,0.980,-2.380,-0.840
1131321,-0.059,-0.424,0.962,1.050,-2.520,-0.700
1131345,-0.055,-0.424,0.957,0.840,-2.310,-0.770
1131365,-0.057,-0.424,0.962,0.980,-2.380,-0.770
1131385,-0.055,-0.426,0.960,0.630,-2.450,-0.700
1131405,-0.058,-0.422,0.961,0.420,-2.450,-0.840
1131425,-0.060,-0.422,0.962,0.770,-2.520,-0.770
1131443,-0.057,-0.424,0.962,0.980,-2.380,-0.840
1131463,-0.056,-0.425,0.963,1.050,-2.380,-0.840
1131482,-0.059,-0.424,0.963,0.700,-2.520,-0.770
1131503,-0.059,-0.423,0.959,0.910,-2.520,-0.770
1131523,-0.056,-0.425,0.961,0.980,-2.380,-0.700
1131546,-0.055,-0.425,0.960,0.910,-2.380,-0.700
1131570,-0.058,-0.425,0.960,1.050,-2.310,-0.770
1131590,-0.057,-0.426,0.963,0.840,-2.520,-0.840
1131610,-0.059,-0.422,0.961,0.700,-2.520,-0.840
1131630,-0.059,-0.423,0.959,0.770,-2.380,-0.630
1131650,-0.058,-0.424,0.962,0.910,-2.380,-0.700
1131674,-0.057,-0.423,0.963,0.980,-2.450,-0.840
1131693,-0.056,-0.420,0.961,0.490,-2.520,-0.770
1131714,-0.057,-0.424,0.962,0.560,-2.590,-0.770
1131733,-0.058,-0.423,0.962,0.770,-2.450,-0.700
1131749,-0.058,-0.424,0.961,0.770,-2.310,-0.770
1131769,-0.056,-0.421,0.962,0.630,-2.380,-0.630
1131794,-0.059,-0.423,0.964,0.910,-2.380,-0.770
1131814,-0.059,-0.427,0.961,1.400,-2.380,-0.770
1131834,-0.061,-0.425,0.960,0.700,-2.450,-0.840
1131858,-0.058,-0.424,0.964,0.490,-2.450,-0.840
1131878,-0.056,-0.423,0.961,0.840,-2.240,-0.840
1131898,-0.057,-0.426,0.961,1.120,-2.520,-0.840
1131922,-0.058,-0.423,0.960,0.630,-2.520,-0.840
1131941,-0.058,-0.419,0.963,0.420,-2.520,-0.840
1131958,-0.058,-0.424,0.961,1.120,-2.380,-0.770
1131978,-0.057,-0.426,0.962,0.280,-2.450,-0.700
1131998,-0.058,-0.424,0.961,0.840,-2.520,-0.910
1132018,-0.057,-0.424,0.961,0.840,-2.380,-0.770
1132042,-0.058,-0.424,0.963,1.120,-2.450,-0.840
1132062,-0.057,-0.425,0.962,0.980,-2.450,-0.840
1132082,-0.059,-0.423,0.964,0.840,-2.450,-0.840
1132102,-0.060,-0.425,0.960,1.260,-2.450,-0.840
1132122,-0.059,-0.424,0.960,0.770,-2.450,-0.700
1132141,-0.058,-0.422,0.961,0.560,-2.380,-0.700
1132160,-0.056,-0.423,0.964,1.190,-2.450,-0.700
1132180,-0.059,-0.429,0.960,1.050,-2.590,-0.840
1132204,-0.058,-0.424,0.962,0.490,-2.450,-0.840
1132224,-0.058,-0.423,0.961,0.910,-2.310,-0.770
1132244,-0.055,-0.425,0.962,1.330,-2.380,-0.700
1132264,-0.058,-0.428,0.961,0.490,-2.380,-0.770
1132280,-0.059,-0.425,0.962,0.420,-2.450,-0.770
1132300,-0.055,-0.423,0.961,1.260,-2.310,-0.700
1132324,-0.057,-0.427,0.959,1.050,-2.380,-0.630
1132344,-0.057,-0.426,0.960,0.910,-2.450,-0.770
1132368,-0.056,-0.424,0.961,0.770,-2.450,-0.840
1132388,-0.059,-0.424,0.962,0.630,-2.380,-0.700
1132413,-0.055,-0.424,0.961,1.050,-2.380,-0.770
1132432,-0.058,-0.425,0.962,0.910,-2.450,-0.700
1132451,-0.057,-0.424,0.960,0.840,-2.520,-0.770
1132476,-0.059,-0.422,0.962,0.840,-2.450,-0.840
1132495,-0.057,-0.425,0.961,0.840,-2.450,-0.840
1132516,-0.058,-0.425,0.962,1.050,-2.380,-0.770
1132536,-0.058,-0.423,0.962,1.050,-2.450,-0.910
1132555,-0.056,-0.425,0.961,0.980,-2.310,-0.840
1132580,-0.056,-0.424,0.961,0.630,-2.520,-0.910
1132600,-0.061,-0.422,0.963,0.910,-2.450,-0.770
1132620,-0.058,-0.426,0.962,1.190,-2.310,-0.770
1132638,-0.057,-0.424,0.962,0.630,-2.310,-0.770
1132655,-0.061,-0.424,0.962,0.630,-2.520,-0.840
1132677,-0.057,-0.423,0.959,0.980,-2.380,-0.840
1132700,-0.057,-0.422,0.961,0.910,-2.450,-0.770
1132720,-0.057,-0.425,0.960,0.770,-2.450,-0.630
1132740,-0.057,-0.424,0.960,0.840,-2.450,-0.700
1132760,-0.059,-0.425,0.963,0.700,-2.590,-0.840
1132784,-0.057,-0.426,0.959,0.630,-2.520,-0.770
1132804,-0.058,-0.424,0.961,0.980,-2.380,-0.910
1132824,-0.057,-0.424,0.960,0.840,-2.310,-0.770
1132844,-0.057,-0.424,0.961,0.630,-2.450,-0.700
1132864,-0.054,-0.424,0.961,0.840,-2.520,-0.840
1132884,-0.058,-0.423,0.963,1.190,-2.310,-0.770
1132902,-0.055,-0.427,0.962,1.050,-2.450,-0.840
1132922,-0.058,-0.424,0.960,0.980,-2.380,-0.700
1132942,-0.058,-0.421,0.960,0.700,-2.380,-0.700
1132962,-0.057,-0.425,0.963,0.910,-2.450,-0.840
1132981,-0.060,-0.425,0.962,0.910,-2.450,-0.770
1133006,-0.058,-0.423,0.961,0.630,-2.450,-0.910
1133025,-0.058,-0.420,0.962,0.630,-2.380,-0.770
1133044,-0.056,-0.425,0.961,1.120,-2.240,-0.840
1133069,-0.057,-0.426,0.963,1.050,-2.590,-0.840
1133089,-0.059,-0.422,0.962,0.560,-2.310,-0.700
1133109,-0.059,-0.425,0.963,1.120,-2.520,-0.770
1133128,-0.056,-0.423,0.960,0.840,-2.450,-0.770
1133149,-0.058,-0.425,0.961,0.700,-2.450,-0.770
1133169,-0.056,-0.425,0.961,0.910,-2.380,-0.770
1133188,-0.057,-0.425,0.960,0.770,-2.450,-0.700
1133209,-0.058,-0.424,0.962,0.770,-2.590,-0.770
1133229,-0.059,-0.422,0.962,0.560,-2.450,-0.910
1133249,-0.060,-0.425,0.963,0.980,-2.240,-0.840
1133264,-0.059,-0.426,0.961,0.770,-2.380,-0.840
1133284,-0.056,-0.423,0.962,0.840,-2.310,-0.700
1133308,-0.058,-0.424,0.965,1.050,-2.380,-0.770
1133328,-0.056,-0.426,0.961,1.190,-2.380,-0.630
1133348,-0.060,-0.424,0.962,0.910,-2.380,-0.630
1133368,-0.057,-0.424,0.962,0.840,-2.380,-0.840
1133392,-0.057,-0.422,0.963,0.910,-2.380,-0.700
1133412,-0.058,-0.426,0.961,1.120,-2.380,-0.840
1133432,-0.059,-0.424,0.964,0.700,-2.590,-0.770
1133452,-0.056,-0.422,0.963,0.560,-2.520,-0.700
1133472,-0.055,-0.422,0.961,0.980,-2.380,-0.770
1133492,-0.057,-0.426,0.961,1.050,-2.380,-0.700
1133507,-0.056,-0.421,0.963,0.700,-2.380,-0.770
1133532,-0.056,-0.424,0.962,0.910,-2.450,-0.770
1133552,-0.057,-0.423,0.962,0.910,-2.450,-0.770
1133572,-0.059,-0.425,0.961,0.770,-2.450,-0.700
1133592,-0.059,-0.422,0.959,0.700,-2.520,-0.700
1133612,-0.060,-0.426,0.964,0.840,-2.520,-0.840
1133632,-0.057,-0.427,0.959,0.770,-2.520,-0.770
1133652,-0.058,-0.422,0.962,0.910,-2.450,-0.700
1133672,-0.058,-0.424,0.961,1.330,-2.450,-0.840
1133692,-0.059,-0.421,0.960,0.560,-2.310,-0.770
1133712,-0.058,-0.423,0.960,0.980,-2.520,-0.840
1133732,-0.057,-0.423,0.960,1.050,-2.380,-0.770
1133751,-0.055,-0.426,0.963,1.050,-2.380,-0.770
1133772,-0.058,-0.422,0.960,0.840,-2.380,-0.700
1133790,-0.056,-0.421,0.961,0.560,-2.310,-0.770
1133810,-0.058,-0.423,0.963,0.910,-2.380,-0.770
1133835,-0.057,-0.426,0.961,0.840,-2.520,-0.840
1133855,-0.058,-0.421,0.963,0.490,-2.450,-0.910
1133873,-0.060,-0.424,0.962,0.770,-2.380,-0.770
1133893,-0.058,-0.424,0.962,0.770,-2.450,-0.840
1133913,-0.057,-0.424,0.960,0.980,-2.590,-0.770
1133933,-0.054,-0.425,0.962,0.700,-2.520,-0.770
1133953,-0.058,-0.425,0.961,0.910,-2.240,-0.840
1133972,-0.059,-0.426,0.960,1.050,-2.450,-0.840
1133997,-0.058,-0.424,0.963,1.050,-2.240,-0.840
1134017,-0.057,-0.425,0.961,0.910,-2.450,-0.910
1134037,-0.059,-0.426,0.962,0.630,-2.450,-0.840
1134057,-0.058,-0.425,0.962,1.330,-2.310,-0.630
1134077,-0.056,-0.424,0.963,0.910,-2.240,-0.700
1134097,-0.056,-0.424,0.961,0.910,-2.590,-0.910
1134116,-0.060,-0.421,0.962,0.560,-2.450,-0.770
1134140,-0.057,-0.425,0.963,0.700,-2.520,-0.770
1134158,-0.057,-0.425,0.962,1.050,-2.520,-0.770
1134178,-0.056,-0.423,0.961,0.490,-2.450,-0.770
1134197,-0.057,-0.424,0.959,0.770,-2.380,-0.840
1134222,-0.057,-0.423,0.961,0.840,-2.450,-0.770
1134237,-0.057,-0.424,0.963,1.120,-2.380,-0.700
1134262,-0.058,-0.427,0.961,1.050,-2.450,-0.700
1134282,-0.057,-0.422,0.960,0.420,-2.590,-0.770
1134302,-0.060,-0.422,0.963,0.630,-2.520,-0.770
1134322,-0.058,-0.424,0.965,0.980,-2.310,-0.700
1134342,-0.059,-0.426,0.961,1.330,-2.310,-0.700
1134362,-0.058,-0.424,0.960,0.490,-2.520,-0.770
1134382,-0.057,-0.424,0.961,0.980,-2.380,-0.700
1134401,-0.057,-0.425,0.962,0.840,-2.240,-0.700
1134422,-0.056,-0.425,0.960,0.840,-2.520,-0.770
1134442,-0.055,-0.422,0.961,0.770,-2.520,-0.840
1134462,-0.058,-0.422,0.959,0.840,-2.310,-0.700
1134480,-0.057,-0.425,0.960,1.330,-2.450,-0.840
1134501,-0.059,-0.424,0.960,0.700,-2.380,-0.770
1134520,-0.056,-0.421,0.961,0.770,-2.380,-0.770
1134545,-0.058,-0.425,0.963,0.980,-2.450,-0.770
1134565,-0.060,-0.426,0.962,1.120,-2.380,-0.700
1134585,-0.058,-0.423,0.963,0.700,-2.380,-0.840
1134603,-0.057,-0.424,0.960,0.630,-2.520,-0.840
1134625,-0.057,-0.424,0.961,0.630,-2.450,-0.840
1134643,-0.057,-0.424,0.959,0.910,-2.520,-0.700
1134665,-0.060,-0.423,0.963,0.910,-2.660,-0.700
1134685,-0.061,-0.424,0.959,0.840,-2.590,-0.770
1134704,-0.057,-0.425,0.962,0.630,-2.380,-0.770
1134725,-0.058,-0.424,0.963,0.700,-2.380,-0.770
1134744,-0.058,-0.424,0.961,1.050,-2.520,-0.840
1134769,-0.057,-0.423,0.962,0.770,-2.450,-0.840
1134789,-0.060,-0.422,0.961,0.840,-2.380,-0.840
1134809,-0.058,-0.425,0.961,1.120,-2.380,-0.700
1134829,-0.058,-0.425,0.961,1.050,-2.590,-0.770
1134844,-0.059,-0.423,0.961,0.490,-2.380,-0.840
1134869,-0.057,-0.423,0.961,0.630,-2.310,-0.700
1134889,-0.059,-0.426,0.960,1.050,-2.380,-0.630
1134909,-0.058,-0.419,0.955,0.420,-2.380,-0.770
1134928,-0.052,-0.415,0.961,-0.210,-1.960,-0.560
1134949,-0.053,-0.423,0.961,1.960,-2.310,-0.770
1134969,-0.059,-0.427,0.957,1.540,-2.590,-0.840
1134988,-0.059,-0.421,0.965,0.560,-2.870,-0.770
1135005,-0.061,-0.422,0.957,0.840,-2.310,-0.700
1135025,-0.058,-0.425,0.962,1.050,-2.450,-0.770
1135045,-0.055,-0.424,0.962,1.050,-2.520,-0.770
1135064,-0.059,-0.425,0.959,0.700,-2.450,-0.770
1135089,-0.059,-0.422,0.961,0.700,-2.450,-0.770
1135108,-0.058,-0.420,0.958,0.420,-2.310,-0.840
1135129,-0.053,-0.424,0.964,0.910,-2.450,-0.770
1135149,-0.056,-0.425,0.960,0.980,-2.520,-0.770
1135169,-0.060,-0.422,0.961,0.560,-2.380,-0.840
1135189,-0.056,-0.424,0.965,1.120,-2.520,-0.770
1135213,-0.056,-0.425,0.961,1.050,-2.450,-0.770
1135233,-0.058,-0.422,0.961,0.490,-2.450,-0.770
1135253,-0.059,-0.421,0.960,0.840,-2.520,-0.770
1135273,-0.057,-0.424,0.963,0.910,-2.520,-0.770
1135291,-0.057,-0.425,0.964,1.050,-2.450,-0.770
1135313,-0.058,-0.423,0.962,0.630,-2.380,-0.770
1135331,-0.057,-0.422,0.962,0.700,-2.380,-0.840
1135351,-0.058,-0.426,0.959,0.980,-2.450,-0.770
1135370,-0.060,-0.425,0.963,0.770,-2.450,-0.840
1135395,-0.055,-0.424,0.960,0.980,-2.450,-0.770
1135415,-0.058,-0.424,0.961,0.560,-2.450,-0.770
1135434,-0.058,-0.421,0.965,0.770,-2.520,-0.700
1135459,-0.058,-0.424,0.957,1.190,-2.870,-0.910
1135479,-0.061,-0.423,0.958,0.350,-2.590,-0.770
1135499,-0.059,-0.428,0.967,1.120,-1.820,-0.560
1135519,-0.059,-0.429,0.958,2.170,-2.310,-0.770
1135539,-0.059,-0.418,0.964,-0.490,-2.310,-0.840
1135559,-0.059,-0.423,0.963,1.470,-2.310,-0.840
1135574,-0.053,-0.427,0.957,1.190,-2.170,-0.700
1135594,-0.057,-0.424,0.960,0.280,-2.520,-0.840
1135619,-0.059,-0.421,0.962,0.840,-2.590,-0.770
1135639,-0.057,-0.425,0.961,1.050,-2.380,-0.700
1135659,-0.057,-0.425,0.961,0.840,-2.520,-0.770
1135674,-0.057,-0.422,0.963,1.190,-2.240,-0.630
1135699,-0.057,-0.429,0.963,1.540,-2.520,-0.770
1135719,-0.060,-0.427,0.960,0.630,-2.520,-0.840
1135739,-0.058,-0.423,0.964,0.350,-2.450,-0.700
1135759,-0.057,-0.423,0.963,0.980,-2.310,-0.700
1135779,-0.057,-0.429,0.961,1.540,-2.240,-0.770
1135798,-0.057,-0.426,0.962,0.560,-2.450,-0.770
1135822,-0.058,-0.421,0.962,0.490,-2.450,-0.770
1135841,-0.055,-0.425,0.962,0.630,-2.450,-0.770
1135862,-0.058,-0.425,0.961,1.190,-2.310,-0.700
1135882,-0.059,-0.428,0.960,0.980,-2.520,-0.770
1135897,-0.058,-0.422,0.962,0.490,-2.310,-0.770
1135922,-0.061,-0.422,0.962,1.400,-2.380,-0.840
1135942,-0.058,-0.425,0.960,0.770,-2.450,-0.700
1135962,-0.055,-0.425,0.961,0.630,-2.520,-0.910
1135982,-0.061,-0.423,0.958,0.630,-2.450,-0.770
1136002,-0.056,-0.421,0.963,0.910,-2.170,-0.700
1136022,-0.058,-0.427,0.962,1.400,-2.520,-0.770
1136042,-0.057,-0.424,0.960,0.420,-2.450,-0.840
1136061,-0.059,-0.422,0.962,0.770,-2.380,-0.840
1136085,-0.056,-0.423,0.964,0.980,-2.450,-0.840
1136105,-0.057,-0.423,0.961,0.770,-2.310,-0.770
1136125,-0.060,-0.428,0.959,0.980,-2.380,-0.770
1136145,-0.060,-0.422,0.960,0.350,-2.450,-0.770
1136165,-0.058,-0.421,0.963,1.190,-2.310,-0.770
1136185,-0.059,-0.424,0.963,1.610,-2.380,-0.770
1136205,-0.059,-0.427,0.960,0.910,-2.450,-0.700
1136224,-0.060,-0.422,0.962,0.280,-2.310,-0.700
1136244,-0.057,-0.421,0.962,1.120,-2.450,-0.700
1136269,-0.058,-0.426,0.959,1.120,-2.380,-0.840
1136289,-0.060,-0.423,0.961,0.420,-2.520,-0.840
1136304,-0.059,-0.419,0.961,0.630,-2.380,-0.840
1136326,-0.056,-0.425,0.963,1.330,-2.240,-0.700
1136346,-0.058,-0.425,0.959,1.050,-2.450,-0.910
1136366,-0.059,-0.422,0.963,0.420,-2.380,-0.910
1136390,-0.060,-0.422,0.964,0.490,-2.240,-0.770
1136410,-0.061,-0.424,0.961,1.260,-2.240,-0.700
1136434,-0.058,-0.426,0.960,0.910,-2.450,-0.700
1136454,-0.056,-0.423,0.962,0.770,-2.520,-0.770
1136474,-0.060,-0.422,0.960,0.770,-2.380,-0.910
1136494,-0.058,-0.424,0.961,1.120,-2.380,-0.700
1136514,-0.061,-0.423,0.962,0.840,-2.450,-0.700
1136534,-0.059,-0.422,0.961,0.490,-2.450,-0.840
1136554,-0.057,-0.422,0.961,0.700,-2.380,-0.770
1136574,-0.055,-0.423,0.961,1.050,-2.380,-0.770
1136593,-0.059,-0.426,0.962,1.120,-2.450,-0.700
1136614,-0.056,-0.424,0.960,0.700,-2.520,-0.840
1136634,-0.055,-0.422,0.962,0.560,-2.450,-0.840
1136654,-0.059,-0.425,0.964,1.050,-2.380,-0.840
1136674,-0.063,-0.426,0.963,0.560,-2.520,-0.910
1136694,-0.059,-0.424,0.960,0.910,-2.730,-0.840
1136714,-0.057,-0.421,0.960,0.420,-2.450,-0.770
1136734,-0.056,-0.425,0.963,1.610,-2.240,-0.630
1136754,-0.058,-0.428,0.962,1.750,-2.450,-0.700
1136773,-0.056,-0.420,0.961,0.140,-2.590,-0.770
1136794,-0.058,-0.420,0.963,1.330,-2.170,-0.770
1136814,-0.059,-0.426,0.962,1.540,-2.310,-0.630
1136834,-0.054,-0.426,0.964,0.560,-2.590,-0.840
1136854,-0.060,-0.419,0.962,0.490,-2.450,-0.840
1136874,-0.056,-0.428,0.965,1.470,-2.380,-0.700
1136893,-0.059,-0.427,0.959,0.840,-2.450,-0.770
1136911,-0.059,-0.423,0.963,0.560,-2.380,-0.700
1136935,-0.058,-0.422,0.962,0.840,-2.310,-0.770
1136955,-0.060,-0.428,0.960,1.120,-2.450,-0.770
1136975,-0.056,-0.422,0.961,0.840,-2.520,-0.910
1136995,-0.057,-0.424,0.961,0.630,-2.520,-0.910
1137015,-0.057,-0.423,0.964,1.190,-2.310,-0.770
1137034,-0.057,-0.423,0.959,1.190,-2.520,-0.700
1137054,-0.055,-0.425,0.961,0.910,-2.380,-0.840
1137074,-0.060,-0.423,0.965,0.490,-2.450,-0.910
1137094,-0.056,-0.424,0.963,0.700,-2.380,-0.770
1137118,-0.056,-0.420,0.963,1.190,-2.380,-0.840
1137137,-0.059,-0.425,0.960,1.330,-2.520,-0.770
1137162,-0.056,-0.424,0.962,0.420,-2.450,-0.770
1137182,-0.059,-0.421,0.963,0.630,-2.450,-0.840
1137202,-0.057,-0.423,0.962,1.120,-2.520,-0.770
1137221,-0.058,-0.426,0.964,0.630,-2.520,-0.770
1137242,-0.057,-0.423,0.960,0.490,-2.590,-0.840
1137262,-0.057,-0.425,0.962,0.350,-2.450,-0.700
1137277,-0.059,-0.425,0.963,1.190,-2.450,-0.840
1137297,-0.059,-0.426,0.961,0.980,-2.380,-0.770
1137322,-0.056,-0.423,0.962,0.630,-2.450,-0.840
1137341,-0.059,-0.424,0.962,1.260,-2.310,-0.770
1137362,-0.060,-0.426,0.963,1.190,-2.310,-0.770
1137382,-0.057,-0.424,0.960,1.120,-2.450,-0.770
1137401,-0.060,-0.422,0.958,0.420,-2.520,-0.770
1137420,-0.055,-0.422,0.963,0.980,-2.520,-0.700
1137440,-0.058,-0.426,0.961,1.260,-2.380,-0.770
1137465,-0.057,-0.425,0.959,0.350,-2.450,-0.840
1137485,-0.058,-0.424,0.962,0.700,-2.520,-0.770
1137504,-0.057,-0.425,0.960,0.980,-2.450,-0.770
1137520,-0.058,-0.426,0.962,0.910,-2.450,-0.910
1137544,-0.056,-0.425,0.961,1.260,-2.310,-0.700
1137564,-0.060,-0.424,0.959,0.700,-2.380,-0.770
1137587,-0.061,-0.421,0.963,0.630,-2.380,-0.630
1137611,-0.058,-0.423,0.964,0.980,-2.380,-0.700
1137631,-0.057,-0.426,0.960,0.910,-2.450,-0.700
1137646,-0.057,-0.422,0.961,0.490,-2.380,-0.770
1137671,-0.059,-0.422,0.963,0.490,-2.520,-0.700
1137691,-0.058,-0.421,0.962,1.050,-2.310,-0.700
1137711,-0.059,-0.426,0.962,1.330,-2.450,-0.840
1137730,-0.056,-0.424,0.962,0.490,-2.520,-0.770
1137750,-0.058,-0.424,0.962,0.700,-2.520,-0.770
1137775,-0.060,-0.425,0.962,0.910,-2.310,-0.770
1137795,-0.057,-0.424,0.963,0.910,-2.380,-0.700
1137815,-0.058,-0.425,0.961,0.980,-2.450,-0.700
1137839,-0.059,-0.424,0.964,0.770,-2.380,-0.770
1137859,-0.057,-0.422,0.963,0.840,-2.520,-0.770
1137879,-0.057,-0.426,0.960,0.700,-2.380,-0.770
1137897,-0.057,-0.426,0.961,0.630,-2.520,-0.770
1137917,-0.060,-0.422,0.960,0.980,-2.450,-0.700
1137936,-0.060,-0.424,0.959,1.050,-2.310,-0.770
1137959,-0.057,-0.426,0.963,1.050,-2.450,-0.840
1137983,-0.055,-0.425,0.959,0.630,-2.380,-0.770
1138002,-0.058,-0.426,0.961,0.490,-2.380,-0.840
1138018,-0.058,-0.425,0.962,0.840,-2.310,-0.910
1138038,-0.057,-0.426,0.962,0.770,-2.520,-0.770
1138058,-0.056,-0.426,0.960,0.560,-2.450,-0.840
1138083,-0.057,-0.423,0.961,0.910,-2.520,-0.770
1138103,-0.058,-0.425,0.961,1.120,-2.380,-0.770
1138123,-0.057,-0.425,0.960,1.330,-2.450,-0.770
1138141,-0.056,-0.422,0.961,0.630,-2.450,-0.700
1138161,-0.057,-0.421,0.961,0.910,-2.380,-0.700
1138181,-0.056,-0.424,0.961,0.840,-2.310,-0.770
1138201,-0.057,-0.424,0.963,1.190,-2.450,-0.770
1138221,-0.059,-0.424,0.961,0.770,-2.520,-0.840
1138243,-0.057,-0.422,0.959,0.630,-2.380,-0.700
1138267,-0.058,-0.420,0.962,0.770,-2.240,-0.700
1138287,-0.058,-0.423,0.962,1.120,-2.380,-0.700
1138307,-0.060,-0.424,0.961,0.910,-2.450,-0.700
1138327,-0.056,-0.422,0.957,0.630,-2.380,-0.840
1138347,-0.057,-0.422,0.963,0.700,-2.380,-0.770
1138366,-0.058,-0.427,0.961,1.330,-2.310,-0.700
1138385,-0.059,-0.424,0.963,0.770,-2.520,-0.770
1138405,-0.058,-0.422,0.962,0.700,-2.450,-0.630
1138429,-0.056,-0.424,0.961,0.630,-2.380,-0.770
1138448,-0.059,-0.425,0.960,1.330,-2.310,-0.840
1138468,-0.057,-0.425,0.961,0.840,-2.450,-0.700
1138488,-0.060,-0.423,0.960,0.630,-2.380,-0.700
1138513,-0.058,-0.421,0.961,0.910,-2.380,-0.770
1138533,-0.056,-0.424,0.963,0.910,-2.450,-0.770
1138553,-0.059,-0.425,0.961,0.980,-2.450,-0.700
1138573,-0.058,-0.423,0.960,0.840,-2.520,-0.910
1138593,-0.057,-0.422,0.963,0.770,-2.450,-0.840
1138613,-0.057,-0.423,0.964,1.050,-2.450,-0.700
1138637,-0.060,-0.424,0.961,0.910,-2.450,-0.980
1138657,-0.057,-0.422,0.963,0.490,-2.450,-0.770
1138676,-0.055,-0.424,0.962,1.190,-2.310,-0.840
1138696,-0.060,-0.425,0.963,1.050,-2.380,-0.700
1138716,-0.059,-0.422,0.960,0.910,-2.450,-0.770
1138736,-0.059,-0.424,0.961,0.280,-2.450,-0.840
1138760,-0.056,-0.423,0.963,0.840,-2.380,-0.700
1138780,-0.055,-0.423,0.961,0.980,-2.450,-0.700
1138800,-0.057,-0.426,0.964,1.120,-2.450,-0.700
1138820,-0.061,-0.424,0.960,0.350,-2.450,-0.770
1138835,-0.057,-0.425,0.963,1.050,-2.380,-0.770
1138860,-0.058,-0.424,0.963,1.260,-2.380,-0.770
1138879,-0.059,-0.425,0.957,1.120,-2.450,-0.840
1138899,-0.061,-0.423,0.961,0.420,-2.310,-0.700
1138919,-0.056,-0.424,0.960,1.470,-2.240,-0.840
1138944,-0.058,-0.423,0.962,1.260,-2.450,-0.700
1138964,-0.059,-0.424,0.963,0.420,-2.660,-0.770
1138984,-0.059,-0.420,0.962,0.420,-2.450,-0.770
1139002,-0.056,-0.424,0.962,0.840,-2.380,-0.770
1139025,-0.057,-0.425,0.963,0.980,-2.450,-0.630
1139045,-0.058,-0.426,0.959,0.840,-2.450,-0.910
1139061,-0.056,-0.423,0.961,0.700,-2.310,-0.840
1139084,-0.060,-0.425,0.963,1.470,-2.240,-0.840
1139105,-0.056,-0.426,0.963,1.260,-2.380,-0.630
1139129,-0.059,-0.424,0.959,0.910,-2.450,-0.840
1139149,-0.061,-0.421,0.962,1.050,-2.380,-0.770
1139169,-0.058,-0.423,0.962,0.840,-2.380,-0.700
1139185,-0.057,-0.425,0.964,0.700,-2.590,-0.770
1139204,-0.058,-0.424,0.960,-0.070,-2.660,-0.840
1139224,-0.057,-0.422,0.962,0.210,-2.590,-0.840
1139249,-0.058,-0.427,0.961,0.840,-2.450,-0.700
1139269,-0.058,-0.426,0.960,0.770,-2.450,-0.770
1139289,-0.055,-0.423,0.960,0.910,-2.520,-0.770
1139308,-0.057,-0.426,0.960,0.910,-2.310,-0.700
1139329,-0.059,-0.424,0.963,1.400,-2.310,-0.770
1139349,-0.059,-0.425,0.961,1.330,-2.520,-0.770
1139368,-0.061,-0.425,0.963,0.700,-2.380,-0.770
1139388,-0.058,-0.425,0.963,1.050,-2.310,-0.770
1139408,-0.058,-0.424,0.963,1.050,-2.450,-0.770
1139433,-0.057,-0.424,0.962,0.770,-2.520,-0.770
1139453,-0.058,-0.422,0.962,0.350,-2.520,-0.840
1139473,-0.056,-0.424,0.960,0.770,-2.520,-0.700
1139491,-0.056,-0.425,0.962,0.980,-2.520,-0.840
1139511,-0.058,-0.423,0.961,0.630,-2.450,-0.770
1139531,-0.055,-0.423,0.960,0.840,-2.590,-0.770
1139551,-0.057,-0.426,0.961,1.120,-2.310,-0.770
1139570,-0.057,-0.425,0.964,0.910,-2.380,-0.840
1139594,-0.059,-0.425,0.962,0.980,-2.450,-0.840
1139618,-0.059,-0.425,0.961,0.630,-2.520,-0.700
1139637,-0.058,-0.421,0.962,0.770,-2.450,-0.700
1139658,-0.059,-0.425,0.960,1.190,-2.520,-0.770
1139681,-0.058,-0.426,0.960,0.770,-2.380,-0.840
1139702,-0.058,-0.420,0.962,0.700,-2.450,-0.770
1139722,-0.056,-0.422,0.961,0.700,-2.310,-0.700
1139741,-0.057,-0.423,0.964,1.330,-2.380,-0.840
1139765,-0.058,-0.427,0.961,1.260,-2.520,-0.770
1139784,-0.060,-0.422,0.960,0.490,-2.310,-0.840
1139805,-0.059,-0.423,0.962,0.980,-2.450,-0.770
1139825,-0.056,-0.427,0.959,0.910,-2.240,-0.700
1139845,-0.059,-0.424,0.962,0.700,-2.450,-0.770
1139861,-0.058,-0.422,0.961,0.560,-2.380,-0.840
1139880,-0.056,-0.423,0.964,0.980,-2.310,-0.630
1139900,-0.058,-0.425,0.961,1.050,-2.450,-0.700
1139925,-0.058,-0.424,0.961,0.630,-2.450,-0.840
1139945,-0.059,-0.422,0.962,0.770,-2.450,-0.840
1139965,-0.058,-0.425,0.962,1.120,-2.310,-0.700
1139983,-0.059,-0.427,0.963,0.770,-2.450,-0.840
1140002,-0.058,-0.422,0.960,0.350,-2.590,-0.770
1140022,-0.057,-0.423,0.964,0.910,-2.380,-0.770
1140046,-0.059,-0.425,0.964,1.260,-2.450,-0.770
1140066,-0.057,-0.426,0.963,1.050,-2.520,-0.840
1140088,-0.057,-0.423,0.961,0.350,-2.520,-0.840
1140112,-0.060,-0.420,0.964,0.280,-2.450,-0.770
1140132,-0.057,-0.423,0.961,1.050,-2.310,-0.770
1140151,-0.058,-0.427,0.961,1.330,-2.310,-0.770
1140167,-0.058,-0.423,0.961,0.560,-2.450,-0.700
1140191,-0.058,-0.423,0.960,1.260,-2.310,-0.700
1140210,-0.057,-0.424,0.960,1.260,-2.240,-0.700
1140234,-0.056,-0.426,0.966,1.470,-2.310,-0.700
1140252,-0.059,-0.425,0.961,0.350,-2.590,-0.840
1140269,-0.060,-0.420,0.960,0.210,-2.310,-0.770
1140289,-0.058,-0.425,0.959,1.890,-2.380,-0.770
1140313,-0.061,-0.427,0.962,1.470,-2.520,-0.700
1140333,-0.059,-0.427,0.958,0.280,-2.520,-0.910
1140357,-0.058,-0.421,0.961,0.910,-2.380,-0.840
1140375,-0.056,-0.424,0.960,1.470,-2.310,-0.630
1140397,-0.056,-0.424,0.960,1.120,-2.520,-0.770
1140416,-0.059,-0.419,0.957,0.070,-2.450,-0.980
1140437,-0.055,-0.421,0.966,0.700,-2.310,-0.770
1140457,-0.061,-0.427,0.960,1.470,-2.520,-0.840
1140472,-0.058,-0.421,0.959,0.070,-2.590,-0.630
1140492,-0.056,-0.421,0.964,0.980,-2.310,-0.770
1140515,-0.055,-0.425,0.960,1.050,-2.310,-0.770
1140535,-0.059,-0.427,0.961,0.420,-2.590,-0.840
1140554,-0.057,-0.422,0.959,0.630,-2.450,-0.770
1140574,-0.055,-0.423,0.963,1.330,-2.240,-0.700
1140599,-0.054,-0.425,0.961,1.400,-2.380,-0.700
1140619,-0.056,-0.425,0.960,0.420,-2.450,-0.700
1140639,-0.057,-0.421,0.963,1.610,-2.380,-0.770
1140659,-0.058,-0.425,0.961,1.260,-2.380,-0.770
1140679,-0.056,-0.425,0.964,0.980,-2.450,-0.910
1140699,-0.060,-0.424,0.959,0.420,-2.590,-0.700
1140718,-0.059,-0.419,0.963,0.350,-2.380,-0.630
1140737,-0.055,-0.425,0.960,0.980,-2.520,-0.840
1140762,-0.058,-0.427,0.959,0.560,-2.590,-0.840
1140786,-0.058,-0.426,0.960,0.280,-2.730,-0.770
1140808,-0.057,-0.420,0.958,0.210,-2.520,-0.910
1140832,-0.057,-0.420,0.960,0.490,-2.310,-0.770
1140851,-0.054,-0.427,0.963,2.030,-2.170,-0.840
1140871,-0.058,-0.428,0.958,1.470,-2.380,-0.840
1140891,-0.059,-0.423,0.960,0.350,-2.240,-0.770
1140911,-0.058,-0.421,0.961,1.120,-2.380,-0.700
1140935,-0.056,-0.426,0.961,1.190,-2.450,-0.770
1140954,-0.057,-0.425,0.961,0.910,-2.450,-0.700
1140971,-0.058,-0.423,0.960,0.630,-2.380,-0.840
1140995,-0.058,-0.422,0.962,0.980,-2.380,-0.700
1141015,-0.059,-0.423,0.961,1.120,-2.310,-0.840
1141035,-0.057,-0.424,0.960,0.700,-2.520,-0.770
1141055,-0.058,-0.422,0.961,0.490,-2.590,-0.840
1141075,-0.058,-0.427,0.962,0.840,-2.380,-0.770
1141094,-0.057,-0.426,0.964,1.260,-2.450,-0.770
1141114,-0.057,-0.425,0.961,0.490,-2.380,-0.770
1141134,-0.057,-0.421,0.963,0.420,-2.450,-0.910
1141154,-0.059,-0.426,0.960,1.260,-2.450,-0.770
1141173,-0.058,-0.427,0.957,0.980,-2.450,-0.840
1141193,-0.059,-0.423,0.960,0.770,-2.380,-0.840
1141217,-0.059,-0.422,0.958,0.630,-2.310,-0.700
1141233,-0.058,-0.425,0.961,1.470,-2.310,-0.630
1141253,-0.059,-0.423,0.960,0.630,-2.730,-0.910
1141273,-0.059,-0.422,0.962,0.280,-2.520,-0.910
1141293,-0.058,-0.420,0.961,1.190,-2.310,-0.700
1141313,-0.057,-0.426,0.961,0.980,-2.310,-0.770
1141338,-0.055,-0.427,0.960,0.770,-2.590,-0.770
1141358,-0.060,-0.426,0.960,0.350,-2.450,-0.770
1141378,-0.057,-0.424,0.963,0.910,-2.380,-0.770
1141398,-0.056,-0.426,0.959,1.190,-2.310,-0.840
1141418,-0.061,-0.422,0.963,0.560,-2.450,-0.700
1141438,-0.056,-0.421,0.959,0.840,-2.520,-0.840
1141453,-0.057,-0.423,0.961,1.190,-2.310,-0.700
1141473,-0.059,-0.424,0.962,1.120,-2.450,-0.770
1141493,-0.056,-0.424,0.964,0.630,-2.310,-0.770
1141513,-0.057,-0.422,0.962,1.330,-2.310,-0.630
1141538,-0.056,-0.426,0.961,0.980,-2.590,-0.770
1141558,-0.059,-0.422,0.962,0.630,-2.590,-0.770
1141575,-0.059,-0.423,0.963,0.630,-2.310,-0.840
1141595,-0.057,-0.422,0.960,0.910,-2.450,-0.770
1141615,-0.058,-0.425,0.962,1.050,-2.520,-0.770
1141639,-0.056,-0.423,0.959,0.420,-2.590,-0.770
1141659,-0.056,-0.421,0.964,0.700,-2.380,-0.770
1141675,-0.056,-0.425,0.963,1.330,-2.310,-0.630
1141698,-0.057,-0.426,0.959,1.120,-2.310,-0.700
1141715,-0.058,-0.422,0.964,0.770,-2.310,-0.770
1141739,-0.059,-0.422,0.961,0.840,-2.310,-0.770
1141759,-0.057,-0.426,0.960,1.190,-2.450,-0.840
1141779,-0.058,-0.426,0.962,0.980,-2.520,-0.770
1141799,-0.056,-0.419,0.960,0.000,-2.520,-0.910
1141818,-0.059,-0.422,0.961,0.980,-2.450,-0.700
1141838,-0.058,-0.425,0.961,1.260,-2.380,-0.770
1141858,-0.056,-0.427,0.962,1.050,-2.590,-0.840
1141878,-0.057,-0.422,0.962,0.420,-2.450,-0.770
1141898,-0.057,-0.420,0.962,0.980,-2.240,-0.770
1141918,-0.057,-0.424,0.962,1.400,-2.380,-0.630
1141940,-0.058,-0.424,0.960,1.190,-2.450,-0.770
1141960,-0.058,-0.424,0.963,1.050,-2.380,-0.910
1141979,-0.057,-0.425,0.961,0.840,-2.310,-0.770
1141999,-0.054,-0.425,0.967,0.490,-2.380,-0.770
1142023,-0.060,-0.423,0.960,0.490,-2.590,-0.770
1142042,-0.061,-0.419,0.962,0.000,-2.590,-0.840
1142066,-0.056,-0.421,0.965,0.840,-2.380,-0.700
1142090,-0.054,-0.427,0.961,1.050,-2.240,-0.770
1142109,-0.059,-0.425,0.960,0.700,-2.520,-0.770
1142128,-0.057,-0.425,0.960,0.630,-2.450,-0.910
1142147,-0.057,-0.421,0.963,0.770,-2.380,-0.770
1142172,-0.057,-0.423,0.963,1.190,-2.310,-0.700
1142196,-0.059,-0.423,0.964,1.260,-2.310,-0.770
1142220,-0.058,-0.423,0.960,1.260,-2.380,-0.770
1142239,-0.057,-0.423,0.966,0.700,-2.450,-0.910
1142264,-0.060,-0.425,0.960,0.700,-2.450,-0.770
1142284,-0.057,-0.423,0.961,1.120,-2.310,-0.840
1142304,-0.056,-0.427,0.965,1.190,-2.520,-0.910
1142323,-0.056,-0.427,0.961,0.910,-2.590,-0.630
1142343,-0.059,-0.425,0.961,0.910,-2.380,-0.770
1142363,-0.059,-0.421,0.964,1.050,-2.310,-0.630
1142387,-0.058,-0.423,0.958,0.840,-2.380,-0.840
1142407,-0.060,-0.425,0.960,0.980,-2.380,-0.840
1142426,-0.058,-0.426,0.961,0.840,-2.590,-0.700
1142442,-0.057,-0.422,0.961,0.140,-2.520,-0.770
1142462,-0.056,-0.424,0.963,0.910,-2.520,-0.770
1142482,-0.058,-0.426,0.959,0.910,-2.450,-0.770
1142502,-0.057,-0.424,0.961,0.700,-2.380,-0.770
1142527,-0.054,-0.423,0.961,0.980,-2.380,-0.770
1142546,-0.058,-0.422,0.963,0.770,-2.450,-0.770
1142567,-0.058,-0.421,0.962,0.560,-2.450,-0.770
1142587,-0.054,-0.423,0.962,1.400,-2.240,-0.770
1142607,-0.060,-0.425,0.962,0.980,-2.380,-0.700
1142627,-0.060,-0.425,0.960,0.700,-2.520,-0.840
1142647,-0.060,-0.425,0.962,0.420,-2.450,-0.910
1142667,-0.056,-0.422,0.964,0.700,-2.450,-0.770
1142685,-0.058,-0.427,0.961,1.120,-2.380,-0.770
1142709,-0.056,-0.427,0.960,0.840,-2.590,-0.630
1142728,-0.057,-0.421,0.959,0.350,-2.380,-0.700
1142748,-0.055,-0.424,0.965,0.980,-2.450,-0.770
1142768,-0.058,-0.427,0.960,1.330,-2.450,-0.770
1142788,-0.059,-0.424,0.964,0.490,-2.450,-0.840
1142811,-0.058,-0.420,0.962,0.560,-2.450,-0.840
1142835,-0.057,-0.423,0.963,1.050,-2.380,-0.770
1142855,-0.056,-0.427,0.963,0.560,-2.520,-0.770
1142875,-0.057,-0.425,0.960,0.560,-2.660,-0.910
1142895,-0.058,-0.424,0.959,0.840,-2.450,-0.700
1142915,-0.060,-0.424,0.962,1.400,-2.380,-0.700
1142935,-0.057,-0.427,0.961,1.470,-2.310,-0.700
1142954,-0.058,-0.427,0.959,0.630,-2.450,-0.910
1142975,-0.060,-0.422,0.961,0.840,-2.380,-0.700
1142998,-0.058,-0.422,0.962,0.770,-2.380,-0.770
1143022,-0.060,-0.424,0.962,0.980,-2.450,-0.840
1143041,-0.058,-0.424,0.961,0.280,-2.590,-0.770
1143057,-0.058,-0.422,0.961,0.140,-2.520,-0.700
1143082,-0.059,-0.425,0.962,0.840,-2.520,-0.770
1143101,-0.059,-0.427,0.956,0.910,-2.450,-0.770
1143122,-0.056,-0.426,0.961,0.910,-2.450,-0.840
1143140,-0.056,-0.422,0.960,0.770,-2.380,-0.700
1143161,-0.056,-0.424,0.963,1.190,-2.240,-0.630
1143178,-0.058,-0.427,0.959,1.330,-2.520,-0.910
1143197,-0.059,-0.424,0.963,0.420,-2.450,-0.840
1143220,-0.058,-0.421,0.962,0.980,-2.380,-0.770
1143244,-0.059,-0.426,0.961,1.190,-2.450,-0.840
1143264,-0.058,-0.425,0.961,0.840,-2.520,-0.770
1143284,-0.058,-0.423,0.960,0.210,-2.730,-0.770
1143301,-0.058,-0.424,0.964,0.490,-2.520,-0.700
1143321,-0.057,-0.426,0.962,0.840,-2.660,-0.770
1143340,-0.057,-0.425,0.962,0.770,-2.660,-0.840
1143360,-0.057,-0.424,0.961,0.770,-2.380,-0.770
1143385,-0.055,-0.424,0.963,1.330,-2.100,-0.770
1143405,-0.057,-0.425,0.960,1.470,-2.520,-0.840
1143421,-0.055,-0.425,0.961,0.700,-2.660,-0.910
1143441,-0.060,-0.423,0.962,1.120,-2.310,-0.840
1143465,-0.057,-0.424,0.963,1.120,-2.380,-0.700
1143485,-0.057,-0.425,0.962,0.980,-2.450,-0.840
1143505,-0.059,-0.423,0.959,0.490,-2.520,-0.840
1143525,-0.055,-0.421,0.961,0.490,-2.450,-0.840
1143542,-0.058,-0.426,0.962,1.120,-2.520,-0.770
1143562,-0.057,-0.425,0.961,0.840,-2.380,-0.700
1143581,-0.060,-0.423,0.962,0.700,-2.310,-0.700
1143601,-0.056,-0.424,0.964,0.980,-2.380,-0.700
1143626,-0.057,-0.426,0.962,1.190,-2.380,-0.630
1143645,-0.059,-0.424,0.957,0.700,-2.660,-0.910
1143663,-0.058,-0.422,0.961,0.560,-2.450,-0.910
1143687,-0.058,-0.423,0.962,0.840,-2.380,-0.700
1143707,-0.056,-0.426,0.961,1.120,-2.450,-0.840
1143727,-0.058,-0.428,0.962,0.490,-2.520,-0.910
1143742,-0.057,-0.424,0.962,1.120,-2.380,-0.770
1143762,-0.059,-0.425,0.960,1.260,-2.380,-0.700
1143783,-0.058,-0.427,0.959,0.910,-2.520,-0.700
1143803,-0.059,-0.422,0.962,0.560,-2.380,-0.910
1143823,-0.056,-0.424,0.963,1.260,-2.170,-0.700
1143843,-0.056,-0.426,0.962,1.050,-2.520,-0.770
1143863,-0.059,-0.422,0.959,0.560,-2.450,-0.700
1143886,-0.059,-0.419,0.962,0.350,-2.380,-0.770
1143906,-0.057,-0.424,0.963,0.980,-2.380,-0.910
1143926,-0.057,-0.425,0.962,0.980,-2.450,-0.770
1143949,-0.058,-0.426,0.961,0.840,-2.450,-0.770
1143972,-0.060,-0.424,0.961,0.700,-2.450,-0.770
1143988,-0.056,-0.423,0.962,1.050,-2.380,-0.840
1144008,-0.058,-0.427,0.960,1.260,-2.380,-0.840
1144030,-0.057,-0.423,0.961,0.700,-2.450,-0.770
1144051,-0.058,-0.422,0.963,0.840,-2.380,-0.770
1144071,-0.059,-0.427,0.962,1.190,-2.450,-0.770
1144091,-0.058,-0.426,0.960,0.560,-2.450,-0.700
1144115,-0.057,-0.422,0.962,0.420,-2.380,-0.840
1144135,-0.057,-0.424,0.960,0.980,-2.380,-0.770
1144153,-0.055,-0.424,0.961,0.770,-2.380,-0.700
1144177,-0.056,-0.425,0.962,0.630,-2.590,-0.840
1144196,-0.056,-0.424,0.962,0.630,-2.520,-0.840
1144217,-0.056,-0.423,0.961,0.770,-2.520,-0.770
1144237,-0.056,-0.423,0.961,0.980,-2.310,-0.700
1144257,-0.057,-0.427,0.963,1.330,-2.450,-0.910
1144277,-0.058,-0.422,0.962,0.770,-2.520,-0.840
1144296,-0.058,-0.425,0.961,0.770,-2.240,-0.770
1144321,-0.056,-0.422,0.963,1.050,-2.310,-0.630
1144341,-0.058,-0.426,0.961,1.120,-2.380,-0.770
1144365,-0.060,-0.427,0.959,0.630,-2.450,-0.910
1144385,-0.058,-0.421,0.961,0.420,-2.450,-0.700
1144401,-0.057,-0.423,0.963,1.260,-2.240,-0.770
1144423,-0.054,-0.427,0.963,1.260,-2.450,-0.770
1144443,-0.059,-0.425,0.958,0.910,-2.310,-0.840
1144467,-0.058,-0.423,0.961,0.350,-2.380,-0.910
1144487,-0.057,-0.423,0.965,1.190,-2.240,-0.700
1144507,-0.059,-0.427,0.960,0.980,-2.380,-0.770
1144526,-0.057,-0.422,0.960,0.420,-2.520,-0.840
1144550,-0.059,-0.424,0.960,0.770,-2.450,-0.840
1144570,-0.057,-0.425,0.962,1.330,-2.380,-0.770
1144590,-0.059,-0.427,0.959,1.120,-2.520,-0.770
1144610,-0.054,-0.422,0.959,0.560,-2.380,-0.840
1144630,-0.056,-0.424,0.962,0.770,-2.380,-0.700
1144648,-0.060,-0.428,0.961,1.120,-2.240,-0.770
1144666,-0.057,-0.421,0.960,0.280,-2.590,-0.840
1144685,-0.057,-0.420,0.964,0.980,-2.310,-0.770
1144709,-0.057,-0.422,0.962,1.610,-2.380,-0.840
1144729,-0.057,-0.426,0.961,0.840,-2.520,-0.910
1144749,-0.058,-0.422,0.961,0.350,-2.380,-0.840
1144771,-0.059,-0.423,0.961,1.120,-2.310,-0.840
1144793,-0.056,-0.427,0.960,1.330,-2.170,-0.630
1144813,-0.059,-0.427,0.962,0.980,-2.380,-0.840
1144833,-0.061,-0.425,0.960,0.630,-2.660,-0.770
1144848,-0.059,-0.423,0.963,0.840,-2.240,-0.700
1144873,-0.054,-0.422,0.962,1.260,-2.450,-0.840
1144897,-0.056,-0.427,0.959,1.470,-2.520,-0.770
1144916,-0.054,-0.425,0.964,0.280,-2.450,-0.700
1144936,-0.056,-0.423,0.964,1.120,-2.520,-0.700
1144955,-0.058,-0.425,0.962,0.700,-2.380,-0.770
1144979,-0.057,-0.427,0.961,1.050,-2.520,-0.770
1144999,-0.056,-0.423,0.961,0.560,-2.520,-0.840
1145023,-0.060,-0.423,0.963,0.840,-2.520,-0.840
1145043,-0.060,-0.427,0.963,1.680,-2.380,-0.700
1145063,-0.057,-0.425,0.961,0.910,-2.380,-0.840
1145083,-0.056,-0.423,0.960,0.490,-2.380,-0.840
1145103,-0.058,-0.423,0.961,0.840,-2.450,-0.770
1145123,-0.059,-0.426,0.961,0.980,-2.310,-0.700
1145143,-0.057,-0.426,0.963,0.770,-2.660,-0.840
1145163,-0.059,-0.419,0.956,-0.280,-2.520,-0.770
1145183,-0.055,-0.420,0.968,1.750,-2.030,-0.700
1145203,-0.057,-0.431,0.958,1.750,-2.730,-0.840
1145223,-0.058,-0.424,0.960,-0.280,-2.590,-0.840
1145243,-0.056,-0.418,0.965,1.050,-2.380,-0.630
1145266,-0.058,-0.423,0.960,1.750,-2.310,-0.770
1145282,-0.056,-0.427,0.961,0.350,-2.450,-0.770
1145302,-0.056,-0.422,0.962,0.490,-2.380,-0.840
1145322,-0.056,-0.425,0.964,0.910,-2.240,-0.770
1145347,-0.058,-0.427,0.959,1.260,-2.240,-0.700
1145367,-0.059,-0.429,0.961,0.910,-2.520,-0.840
1145383,-0.056,-0.419,0.965,0.350,-2.310,-0.770
1145407,-0.058,-0.425,0.960,1.750,-2.310,-0.770
1145427,-0.058,-0.428,0.961,0.490,-2.380,-0.770
1145445,-0.057,-0.421,0.963,0.210,-2.450,-0.770
1145463,-0.054,-0.422,0.965,1.120,-2.310,-0.700
1145483,-0.057,-0.427,0.962,1.400,-2.590,-0.700
1145507,-0.057,-0.425,0.961,0.280,-2.380,-0.840
1145527,-0.057,-0.421,0.962,0.700,-2.450,-0.840
1145545,-0.055,-0.425,0.964,1.400,-2.450,-0.700
1145567,-0.058,-0.427,0.958,1.330,-2.590,-0.840
1145587,-0.057,-0.425,0.961,0.350,-2.520,-0.840
1145607,-0.057,-0.421,0.960,0.490,-2.380,-0.700
1145627,-0.055,-0.427,0.961,1.260,-2.380,-0.770
1145647,-0.058,-0.424,0.958,1.050,-2.520,-0.770
1145666,-0.058,-0.422,0.961,0.140,-2.310,-0.840
1145687,-0.057,-0.425,0.964,1.400,-2.590,-0.840
1145707,-0.056,-0.424,0.958,0.350,-2.450,-0.770
1145727,-0.054,-0.422,0.967,0.980,-2.310,-0.770
1145744,-0.060,-0.427,0.956,1.260,-2.450,-0.840
1145764,-0.059,-0.423,0.965,-0.280,-2.450,-0.770
1145784,-0.057,-0.423,0.961,1.400,-2.590,-0.910
1145803,-0.057,-0.425,0.962,0.560,-2.380,-0.770
1145823,-0.059,-0.424,0.961,1.190,-2.450,-0.840
1145843,-0.057,-0.426,0.960,0.770,-2.310,-0.770
1145866,-0.059,-0.426,0.963,0.770,-2.450,-0.840
1145890,-0.056,-0.424,0.962,0.770,-2.310,-0.700
1145909,-0.056,-0.423,0.962,1.050,-2.380,-0.840
1145925,-0.059,-0.424,0.959,0.630,-2.590,-0.840
1145945,-0.057,-0.425,0.963,0.840,-2.450,-0.840
1145965,-0.058,-0.425,0.961,0.910,-2.380,-0.770
1145990,-0.058,-0.425,0.962,0.980,-2.310,-0.630
1146010,-0.058,-0.425,0.961,0.910,-2.380,-0.840
1146029,-0.059,-0.424,0.960,0.770,-2.380,-0.700
1146054,-0.056,-0.423,0.963,0.910,-2.380,-0.770
1146074,-0.056,-0.427,0.960,1.330,-2.520,-0.840
1146094,-0.058,-0.424,0.960,0.280,-2.450,-0.840
1146113,-0.057,-0.422,0.964,0.420,-2.450,-0.770
1146133,-0.061,-0.425,0.962,1.330,-2.380,-0.840
1146157,-0.056,-0.427,0.959,1.400,-2.310,-0.770
1146177,-0.059,-0.427,0.964,0.490,-2.590,-0.770
1146196,-0.058,-0.423,0.958,0.350,-2.660,-0.840
1146216,-0.057,-0.417,0.962,0.910,-2.030,-0.630
1146236,-0.055,-0.428,0.963,2.590,-2.310,-0.700
1146260,-0.057,-0.430,0.957,1.680,-2.730,-0.840
1146284,-0.058,-0.424,0.961,-0.420,-2.590,-0.840
1146304,-0.055,-0.421,0.962,1.540,-2.310,-0.770
1146324,-0.057,-0.427,0.959,1.330,-2.310,-0.840
1146344,-0.056,-0.425,0.962,0.420,-2.450,-0.770
1146361,-0.061,-0.419,0.961,0.490,-2.310,-0.770
1146381,-0.056,-0.424,0.962,1.190,-2.380,-0.770
1146401,-0.058,-0.426,0.962,0.840,-2.660,-0.770
1146421,-0.056,-0.421,0.960,0.280,-2.450,-0.700
1146440,-0.058,-0.424,0.965,1.050,-2.310,-0.700
1146463,-0.056,-0.428,0.961,1.540,-2.310,-0.770
1146487,-0.056,-0.428,0.956,0.980,-2.520,-0.700
1146507,-0.059,-0.423,0.961,0.140,-2.380,-0.770
1146527,-0.056,-0.423,0.963,1.050,-2.240,-0.700
1146547,-0.058,-0.428,0.960,1.190,-2.450,-0.700
1146567,-0.056,-0.426,0.959,0.630,-2.450,-0.770
1146587,-0.056,-0.421,0.964,0.980,-2.310,-0.770
1146604,-0.059,-0.426,0.964,1.260,-2.380,-0.770
1146628,-0.059,-0.425,0.957,0.770,-2.520,-0.770
1146648,-0.059,-0.423,0.960,0.420,-2.520,-0.700
1146668,-0.058,-0.425,0.962,0.980,-2.310,-0.770
1146691,-0.056,-0.426,0.962,1.330,-2.380,-0.700
1146711,-0.059,-0.427,0.957,0.350,-2.660,-0.840
1146731,-0.057,-0.414,0.961,0.420,-2.170,-0.630
1146750,-0.055,-0.424,0.967,2.590,-2.240,-0.700
1146770,-0.059,-0.432,0.958,1.820,-2.450,-0.700
1146790,-0.061,-0.424,0.961,-0.560,-2.590,-0.840
1146814,-0.059,-0.420,0.965,0.490,-2.520,-0.910
1146834,-0.055,-0.425,0.962,1.540,-2.240,-0.700
1146854,-0.058,-0.427,0.956,1.120,-2.520,-0.770
1146877,-0.058,-0.424,0.958,0.490,-2.450,-0.910
1146897,-0.055,-0.421,0.962,0.980,-2.240,-0.630
1146917,-0.055,-0.427,0.962,1.890,-2.380,-0.770
1146941,-0.058,-0.426,0.960,0.070,-2.660,-0.770
1146961,-0.061,-0.419,0.957,-0.280,-2.590,-0.910
1146981,-0.057,-0.425,0.965,1.610,-2.310,-0.700
1147001,-0.057,-0.427,0.961,1.820,-2.380,-0.700
1147021,-0.056,-0.426,0.958,0.350,-2.520,-0.840
1147041,-0.055,-0.420,0.963,-0.140,-2.450,-0.910
1147056,-0.056,-0.427,0.959,1.540,-2.450,-0.770
1147079,-0.058,-0.426,0.960,0.560,-2.590,-0.840
1147103,-0.060,-0.423,0.958,0.280,-2.590,-0.840
1147122,-0.058,-0.423,0.962,1.120,-2.380,-0.770
1147143,-0.057,-0.427,0.963,1.750,-2.240,-0.630
1147162,-0.057,-0.425,0.959,0.420,-2.240,-0.700
1147182,-0.057,-0.421,0.964,0.770,-2.170,-0.770
1147207,-0.057,-0.426,0.961,1.610,-2.240,-0.700
1147224,-0.059,-0.425,0.961,1.050,-2.450,-0.840
1147244,-0.059,-0.424,0.961,0.560,-2.450,-0.910
1147264,-0.056,-0.423,0.957,0.350,-2.310,-0.700
1147284,-0.056,-0.420,0.963,0.560,-2.170,-0.700
1147304,-0.055,-0.424,0.962,1.680,-2.590,-0.700
1147324,-0.058,-0.427,0.959,0.630,-2.660,-0.840
1147343,-0.061,-0.422,0.959,0.350,-2.660,-0.910
1147368,-0.059,-0.425,0.963,1.190,-2.450,-0.840
1147388,-0.056,-0.425,0.960,1.470,-2.170,-0.770
1147407,-0.057,-0.427,0.963,0.910,-2.030,-0.630
1147425,-0.059,-0.427,0.963,1.260,-2.520,-0.840
1147445,-0.060,-0.422,0.957,0.560,-2.450,-0.770
1147469,-0.058,-0.421,0.960,0.980,-2.170,-0.770
1147489,-0.056,-0.425,0.962,1.470,-2.240,-0.770
1147509,-0.060,-0.426,0.962,0.700,-2.520,-0.840
1147527,-0.061,-0.423,0.962,0.350,-2.450,-0.840
1147546,-0.058,-0.422,0.964,1.120,-2.310,-0.700
1147566,-0.058,-0.427,0.962,0.910,-2.450,-0.910
1147590,-0.058,-0.426,0.960,0.560,-2.450,-0.840
1147610,-0.056,-0.419,0.962,0.420,-2.310,-0.700
1147630,-0.058,-0.424,0.964,1.680,-2.450,-0.700
1147650,-0.058,-0.428,0.956,1.260,-2.520,-0.910
1147670,-0.058,-0.421,0.960,0.210,-2.310,-0.770
1147689,-0.057,-0.421,0.966,1.120,-2.170,-0.700
1147714,-0.055,-0.431,0.962,1.470,-2.450,-0.700
1147734,-0.058,-0.425,0.958,0.420,-2.660,-0.840
1147754,-0.058,-0.420,0.961,0.140,-2.660,-0.770
1147772,-0.056,-0.428,0.965,1.540,-2.170,-0.700
1147789,-0.059,-0.427,0.957,0.350,-2.660,-0.770
1147814,-0.057,-0.416,0.965,-0.140,-2.240,-0.910
1147829,-0.057,-0.424,0.963,2.240,-2.380,-0.840
1147849,-0.058,-0.429,0.959,1.050,-2.590,-0.770
1147874,-0.059,-0.419,0.958,-0.420,-2.660,-0.980
1147894,-0.056,-0.417,0.965,1.050,-2.380,-0.840
1147914,-0.058,-0.427,0.963,1.820,-2.450,-0.770
1147934,-0.060,-0.427,0.960,0.280,-2.730,-0.910
1147951,-0.058,-0.420,0.959,0.000,-2.380,-0.630
1147971,-0.056,-0.423,0.966,1.470,-2.240,-0.630
1147991,-0.057,-0.430,0.957,1.400,-2.660,-0.700
1148011,-0.059,-0.421,0.959,-0.350,-2.520,-0.700
1148031,-0.056,-0.421,0.965,1.540,-2.100,-0.770
1148051,-0.057,-0.428,0.960,2.100,-2.450,-0.630
1148070,-0.057,-0.427,0.959,0.140,-2.730,-0.980
1148090,-0.057,-0.419,0.961,0.700,-2.450,-0.700
1148115,-0.059,-0.418,0.964,1.190,-2.170,-0.700
1148135,-0.057,-0.427,0.962,1.820,-2.380,-0.770
1148155,-0.056,-0.424,0.958,-0.070,-2.520,-0.840
1148175,-0.057,-0.419,0.963,0.000,-2.310,-0.770
1148195,-0.057,-0.424,0.964,1.680,-2.520,-0.770
1148215,-0.058,-0.426,0.957,0.420,-2.660,-0.910
1148234,-0.057,-0.420,0.962,0.350,-2.380,-0.770
1148254,-0.056,-0.421,0.961,1.820,-2.170,-0.490
1148277,-0.056,-0.431,0.959,1.470,-2.450,-0.560
1148299,-0.057,-0.424,0.960,0.700,-2.590,-0.910
1148316,-0.059,-0.417,0.965,0.490,-2.240,-0.700
1148336,-0.056,-0.427,0.962,1.960,-2.170,-0.630
1148360,-0.061,-0.427,0.957,0.560,-2.660,-0.770
1148380,-0.057,-0.417,0.966,0.000,-2.450,-0.770
1148400,-0.057,-0.426,0.964,1.820,-2.380,-0.840
1148420,-0.057,-0.428,0.959,1.120,-2.380,-0.700
1148437,-0.060,-0.424,0.962,0.210,-2.520,-0.770
1148456,-0.059,-0.422,0.965,1.050,-2.520,-0.770
1148476,-0.056,-0.427,0.960,1.610,-2.170,-0.770
1148496,-0.056,-0.425,0.959,0.840,-2.310,-0.700
1148521,-0.057,-0.419,0.961,0.280,-2.240,-0.770
1148541,-0.058,-0.425,0.963,1.120,-2.450,-0.770
1148557,-0.060,-0.424,0.958,0.630,-2.590,-0.910
1148577,-0.061,-0.422,0.961,0.490,-2.380,-0.700
1148601,-0.057,-0.425,0.964,1.400,-2.240,-0.700
1148621,-0.058,-0.429,0.961,1.610,-2.380,-0.770
1148640,-0.058,-0.425,0.959,0.490,-2.590,-0.840
1148664,-0.059,-0.423,0.961,0.140,-2.450,-0.770
1148682,-0.054,-0.424,0.962,1.400,-2.310,-0.700
1148701,-0.060,-0.427,0.959,0.980,-2.520,-0.840
1148721,-0.057,-0.421,0.961,0.280,-2.380,-0.770
1148741,-0.056,-0.422,0.964,1.120,-2.380,-0.770
1148764,-0.058,-0.425,0.964,1.470,-2.310,-0.630
1148784,-0.058,-0.427,0.959,0.560,-2.660,-0.770
1148804,-0.059,-0.423,0.960,0.210,-2.450,-0.700
1148828,-0.058,-0.419,0.962,0.770,-2.380,-0.770
1148847,-0.058,-0.425,0.960,1.680,-2.380,-0.840
1148868,-0.058,-0.427,0.963,0.560,-2.660,-0.840
1148888,-0.056,-0.420,0.960,0.490,-2.310,-0.770
1148908,-0.054,-0.426,0.962,1.540,-2.380,-0.630
1148932,-0.059,-0.426,0.966,1.610,-2.450,-0.840
1148952,-0.060,-0.424,0.963,0.210,-2.590,-0.910
1148972,-0.058,-0.420,0.963,0.700,-2.520,-0.700
1148992,-0.059,-0.427,0.963,1.750,-2.450,-0.840
1149012,-0.059,-0.427,0.961,0.840,-2.520,-0.910
1149031,-0.059,-0.421,0.961,0.350,-2.380,-0.770
1149052,-0.056,-0.428,0.963,1.680,-2.450,-0.770
1149072,-0.058,-0.424,0.958,0.070,-2.450,-0.910
1149091,-0.056,-0.418,0.963,0.490,-2.310,-0.770
1149110,-0.058,-0.421,0.963,1.540,-2.310,-0.840
1149130,-0.055,-0.428,0.957,1.120,-2.520,-0.840
1149154,-0.061,-0.422,0.962,0.140,-2.520,-0.840
1149170,-0.059,-0.423,0.959,0.980,-2.380,-0.770
1149189,-0.058,-0.426,0.961,1.120,-2.450,-0.770
1149209,-0.059,-0.422,0.962,0.560,-2.520,-0.700
1149229,-0.057,-0.421,0.959,0.420,-2.450,-0.770
1149249,-0.058,-0.423,0.964,0.980,-2.450,-0.560
1149274,-0.058,-0.426,0.964,1.260,-2.660,-0.980
1149289,-0.056,-0.421,0.963,-0.070,-2.310,-0.700
1149309,-0.056,-0.422,0.962,1.470,-2.310,-0.630
1149329,-0.056,-0.430,0.960,1.120,-2.380,-0.910
1149349,-0.059,-0.424,0.962,0.560,-2.450,-0.700
1149369,-0.054,-0.423,0.962,1.610,-2.240,-0.700
1149394,-0.055,-0.427,0.961,1.890,-2.100,-0.770
1149411,-0.058,-0.423,0.962,0.980,-2.590,-0.770
1149431,-0.060,-0.419,0.961,0.770,-2.380,-0.770
1149450,-0.059,-0.424,0.964,0.910,-2.380,-0.560
1149470,-0.058,-0.427,0.961,0.840,-2.730,-0.840
1149490,-0.058,-0.422,0.961,-0.280,-2.660,-0.910
1149515,-0.056,-0.422,0.964,0.840,-2.310,-0.770
1149531,-0.058,-0.426,0.960,0.910,-2.380,-0.700
1149551,-0.056,-0.428,0.963,0.420,-2.660,-0.700
1149571,-0.056,-0.422,0.959,0.700,-2.450,-0.840
1149591,-0.056,-0.425,0.964,1.470,-2.240,-0.770
1149611,-0.058,-0.426,0.962,1.470,-2.380,-0.910
1149635,-0.059,-0.421,0.959,0.770,-2.240,-0.840
1149652,-0.059,-0.420,0.964,1.260,-2.240,-0.700
1149672,-0.059,-0.426,0.959,1.330,-2.310,-0.700
1149691,-0.057,-0.424,0.960,0.490,-2.520,-0.700
1149711,-0.056,-0.419,0.961,0.350,-2.380,-0.700
1149731,-0.058,-0.425,0.965,1.260,-2.310,-0.770
1149754,-0.060,-0.430,0.956,1.050,-2.660,-0.910
1149774,-0.061,-0.419,0.961,-0.490,-2.590,-0.770
1149798,-0.056,-0.416,0.965,0.770,-2.170,-0.700
1149818,-0.055,-0.427,0.966,1.820,-2.170,-0.700
1149838,-0.057,-0.427,0.961,0.840,-2.520,-0.910
1149857,-0.059,-0.418,0.961,0.070,-2.380,-0.700
1149882,-0.057,-0.421,0.965,1.540,-2.170,-0.840
1149901,-0.054,-0.429,0.959,1.960,-2.380,-0.840
1149921,-0.059,-0.428,0.958,-0.350,-2.730,-0.910
1149941,-0.058,-0.418,0.966,-0.070,-2.450,-0.770
1149963,-0.059,-0.423,0.961,1.400,-2.450,-0.630
1149983,-0.058,-0.428,0.959,0.980,-2.520,-0.770
1150003,-0.057,-0.422,0.961,0.280,-2.590,-0.840
1150022,-0.058,-0.424,0.960,0.700,-2.310,-0.770
1150042,-0.057,-0.427,0.963,1.540,-2.380,-0.770
1150067,-0.057,-0.427,0.959,1.330,-2.520,-0.840
1150087,-0.058,-0.423,0.962,0.560,-2.450,-0.840
1150111,-0.057,-0.422,0.963,0.770,-2.170,-0.700
1150131,-0.056,-0.425,0.964,1.190,-2.170,-0.630
1150147,-0.059,-0.427,0.961,0.840,-2.590,-0.910
1150168,-0.059,-0.423,0.960,0.490,-2.310,-0.770
1150188,-0.057,-0.422,0.963,1.260,-2.380,-0.770
1150208,-0.057,-0.428,0.961,1.050,-2.450,-0.700
1150228,-0.058,-0.425,0.960,0.140,-2.450,-0.770
1150248,-0.056,-0.420,0.966,0.560,-2.450,-0.700
1150269,-0.057,-0.426,0.964,1.820,-2.450,-0.770
1150289,-0.061,-0.427,0.960,0.350,-2.520,-0.910
1150313,-0.056,-0.420,0.963,0.280,-2.450,-0.840
1150333,-0.056,-0.424,0.963,1.120,-2.380,-0.910
1150352,-0.058,-0.429,0.961,1.050,-2.520,-0.700
1150371,-0.058,-0.427,0.960,0.420,-2.660,-0.770
1150395,-0.058,-0.422,0.959,0.210,-2.380,-0.840
1150415,-0.056,-0.427,0.965,1.260,-2.240,-0.700
1150435,-0.059,-0.430,0.957,2.170,-2.590,-0.840
1150450,-0.056,-0.418,0.962,-0.140,-2.170,-0.630
1150470,-0.057,-0.425,0.966,2.310,-2.380,-0.630
1150490,-0.059,-0.428,0.958,1.190,-2.520,-0.980
1150515,-0.058,-0.426,0.961,-0.140,-2.590,-0.770
1150535,-0.058,-0.421,0.959,0.490,-2.380,-0.770
1150559,-0.057,-0.423,0.962,1.540,-2.240,-0.770
1150579,-0.059,-0.429,0.960,0.910,-2.520,-0.840
1150599,-0.057,-0.423,0.961,0.070,-2.520,-0.840
1150619,-0.058,-0.419,0.966,1.400,-2.380,-0.700
1150639,-0.057,-0.427,0.960,1.680,-2.380,-0.840
1150659,-0.059,-0.428,0.959,0.770,-2.660,-0.840
1150679,-0.056,-0.421,0.963,0.000,-2.590,-0.770
1150699,-0.057,-0.423,0.964,1.330,-2.380,-0.770
1150718,-0.056,-0.427,0.961,1.260,-2.450,-0.700
1150739,-0.057,-0.424,0.958,0.350,-2.520,-0.840
1150762,-0.058,-0.421,0.961,0.350,-2.380,-0.770
1150782,-0.055,-0.424,0.962,1.120,-2.310,-0.840
1150806,-0.058,-0.426,0.964,1.470,-2.450,-0.770
1150826,-0.058,-0.427,0.962,0.630,-2.660,-0.910
1150846,-0.059,-0.418,0.962,0.350,-2.380,-0.840
1150866,-0.054,-0.421,0.964,1.400,-2.240,-0.770
1150890,-0.057,-0.426,0.962,1.750,-2.310,-0.910
1150910,-0.058,-0.423,0.960,0.630,-2.450,-0.770
1150930,-0.059,-0.423,0.962,0.700,-2.380,-0.770
1150950,-0.058,-0.426,0.962,1.330,-2.380,-0.770
1150968,-0.056,-0.427,0.962,1.120,-2.520,-0.840
1150990,-0.058,-0.423,0.959,0.280,-2.380,-0.910
1151014,-0.058,-0.420,0.964,0.700,-2.170,-0.770
1151034,-0.058,-0.425,0.960,1.470,-2.450,-0.770
1151054,-0.058,-0.424,0.959,0.350,-2.520,-0.700
1151074,-0.058,-0.423,0.965,0.560,-2.380,-0.770
1151094,-0.056,-0.426,0.961,1.330,-2.520,-0.770
1151114,-0.060,-0.426,0.960,0.630,-2.590,-0.770
1151134,-0.058,-0.420,0.959,0.350,-2.590,-0.980
1151154,-0.057,-0.424,0.965,1.330,-2.380,-0.770
1151172,-0.058,-0.426,0.961,1.050,-2.380,-0.840
1151190,-0.057,-0.424,0.958,0.210,-2.380,-0.840
1151214,-0.058,-0.423,0.962,0.700,-2.310,-0.770
1151234,-0.055,-0.426,0.961,1.400,-2.380,-0.700
1151254,-0.057,-0.424,0.961,0.490,-2.520,-0.840
1151272,-0.057,-0.419,0.962,0.840,-2.310,-0.840
1151294,-0.056,-0.425,0.960,1.120,-2.310,-0.700
1151314,-0.057,-0.427,0.959,1.330,-2.380,-0.770
1151334,-0.058,-0.421,0.958,0.280,-2.590,-0.770
1151354,-0.056,-0.423,0.965,0.770,-2.380,-0.770
1151377,-0.055,-0.427,0.963,1.190,-2.380,-0.630
1151397,-0.058,-0.426,0.960,0.420,-2.520,-0.910
1151417,-0.059,-0.420,0.964,0.280,-2.660,-0.770
1151436,-0.058,-0.425,0.960,0.980,-2.450,-0.770
1151456,-0.057,-0.427,0.960,0.980,-2.590,-0.910
1151476,-0.059,-0.423,0.959,0.210,-2.380,-0.770
1151498,-0.055,-0.421,0.964,1.470,-2.520,-0.840
1151521,-0.059,-0.424,0.963,1.470,-2.660,-0.840
1151541,-0.056,-0.424,0.961,0.490,-2.590,-0.770
1151561,-0.057,-0.423,0.962,0.350,-2.590,-0.840
1151581,-0.055,-0.423,0.964,1.050,-2.380,-0.770
1151601,-0.057,-0.427,0.961,1.470,-2.520,-0.910
1151618,-0.059,-0.419,0.959,-0.070,-2.520,-0.700
1151638,-0.058,-0.425,0.965,0.980,-2.380,-0.700
1151660,-0.058,-0.424,0.963,1.890,-2.520,-0.770
1151679,-0.056,-0.425,0.960,0.840,-2.450,-0.840
1151699,-0.057,-0.422,0.962,0.630,-2.170,-0.840
1151719,-0.056,-0.427,0.962,1.610,-2.240,-0.700
1151741,-0.056,-0.426,0.960,1.260,-2.380,-0.770
1151764,-0.059,-0.426,0.958,0.490,-2.730,-0.910
1151784,-0.056,-0.422,0.961,0.140,-2.520,-0.770
1151802,-0.058,-0.426,0.963,1.610,-2.380,-0.770
1151823,-0.057,-0.424,0.960,1.330,-2.450,-0.770
1151843,-0.056,-0.422,0.960,0.070,-2.310,-0.700
1151862,-0.057,-0.423,0.963,1.470,-2.380,-0.700
1151885,-0.057,-0.429,0.962,1.330,-2.520,-0.840
1151905,-0.060,-0.425,0.958,0.140,-2.590,-0.980
1151924,-0.061,-0.419,0.963,0.980,-2.170,-0.770
1151949,-0.056,-0.427,0.963,1.330,-2.310,-0.770
1151973,-0.059,-0.427,0.960,0.840,-2.380,-0.770
1151996,-0.056,-0.428,0.959,0.280,-2.730,-0.910
1152016,-0.060,-0.419,0.960,0.000,-2.310,-0.630
1152036,-0.057,-0.421,0.962,1.330,-2.100,-0.560
1152060,-0.056,-0.427,0.960,1.470,-2.310,-0.700
1152080,-0.059,-0.419,0.965,0.140,-2.450,-0.770
1152100,-0.058,-0.424,0.965,1.750,-2.240,-0.770
1152115,-0.060,-0.427,0.960,0.980,-2.520,-0.770
1152140,-0.060,-0.419,0.962,0.490,-2.730,-0.840
1152160,-0.055,-0.417,0.959,0.140,-2.450,-0.910
1152180,-0.057,-0.420,0.966,1.120,-1.960,-0.630
1152200,-0.059,-0.428,0.958,1.750,-2.450,-0.770
1152220,-0.057,-0.425,0.962,0.280,-2.590,-0.770
1152237,-0.061,-0.424,0.964,1.050,-2.590,-0.840
1152257,-0.058,-0.424,0.957,0.840,-2.380,-0.840
1152277,-0.058,-0.422,0.961,0.630,-2.170,-0.630
1152297,-0.056,-0.421,0.962,1.330,-1.960,-0.700
1152321,-0.053,-0.424,0.960,1.820,-2.450,-0.630
1152341,-0.057,-0.425,0.961,0.630,-2.240,-0.700
1152356,-0.058,-0.422,0.962,0.700,-2.450,-0.770
1152381,-0.061,-0.426,0.962,1.120,-2.450,-0.910
1152401,-0.060,-0.427,0.962,0.560,-2.520,-0.910
1152421,-0.055,-0.421,0.961,0.420,-2.310,-0.770
1152441,-0.059,-0.425,0.961,1.330,-2.240,-0.700
1152461,-0.058,-0.429,0.961,1.610,-2.240,-0.630
1152481,-0.058,-0.427,0.958,0.770,-2.450,-0.770
1152501,-0.060,-0.419,0.964,0.070,-2.520,-0.770
1152521,-0.057,-0.427,0.962,1.260,-2.380,-0.700
1152540,-0.059,-0.424,0.960,0.770,-2.450,-0.770
1152561,-0.059,-0.421,0.962,-0.210,-2.380,-0.700
1152581,-0.054,-0.420,0.964,1.330,-2.170,-0.700
1152605,-0.055,-0.424,0.961,1.540,-2.240,-0.700
1152625,-0.059,-0.428,0.958,0.770,-2.590,-0.840
1152645,-0.057,-0.421,0.960,0.140,-2.520,-0.840
1152665,-0.060,-0.419,0.964,1.120,-2.380,-0.840
1152685,-0.056,-0.428,0.961,1.400,-2.380,-0.630
1152709,-0.059,-0.422,0.962,0.420,-2.310,-0.840
1152728,-0.059,-0.418,0.963,0.420,-2.240,-0.770
1152752,-0.060,-0.422,0.965,1.470,-2.590,-0.700
1152772,-0.060,-0.426,0.960,0.700,-2.520,-0.770
1152792,-0.057,-0.421,0.962,0.420,-2.450,-0.630
1152812,-0.060,-0.422,0.964,1.260,-2.520,-0.700
1152832,-0.058,-0.428,0.959,1.120,-2.450,-0.770
1152851,-0.061,-0.424,0.960,0.350,-2.730,-0.770
1152875,-0.056,-0.419,0.965,0.630,-2.240,-0.840
1152894,-0.057,-0.425,0.964,1.890,-2.240,-0.700
1152915,-0.058,-0.428,0.957,1.120,-2.380,-0.770
1152935,-0.061,-0.419,0.960,0.070,-2.520,-0.770
1152955,-0.056,-0.422,0.965,1.330,-2.240,-0.770
1152975,-0.055,-0.425,0.959,1.470,-2.310,-0.700
1152995,-0.056,-0.428,0.960,0.700,-2.590,-0.770
1153010,-0.059,-0.420,0.965,0.630,-2.310,-0.700
1153035,-0.057,-0.419,0.964,1.050,-2.380,-0.700
1153055,-0.061,-0.426,0.956,1.050,-2.520,-0.910
1153074,-0.057,-0.422,0.960,0.140,-2.380,-0.700
1153098,-0.055,-0.420,0.961,0.280,-2.380,-0.770
1153118,-0.056,-0.425,0.964,1.400,-2.380,-0.770
1153142,-0.057,-0.427,0.961,1.400,-2.520,-0.700
1153161,-0.059,-0.425,0.961,0.210,-2.520,-0.770
1153186,-0.057,-0.420,0.961,0.490,-2.380,-0.840
1153206,-0.058,-0.425,0.965,0.910,-2.380,-0.770
1153222,-0.059,-0.427,0.959,0.490,-2.450,-0.770
1153242,-0.059,-0.420,0.962,0.490,-2.450,-0.700
1153262,-0.057,-0.424,0.963,1.540,-2.310,-0.700
1153282,-0.058,-0.426,0.961,0.980,-2.520,-0.630
1153302,-0.056,-0.422,0.960,0.420,-2.450,-0.700
1153322,-0.058,-0.422,0.963,1.470,-2.240,-0.700
1153342,-0.059,-0.427,0.960,1.190,-2.590,-0.770
1153362,-0.056,-0.423,0.960,-0.070,-2.730,-0.770
1153386,-0.058,-0.420,0.964,0.700,-2.380,-0.770
1153406,-0.059,-0.427,0.962,1.680,-2.450,-0.770
1153426,-0.057,-0.429,0.961,0.910,-2.450,-0.700
1153446,-0.057,-0.425,0.964,0.490,-2.450,-0.840
1153461,-0.056,-0.423,0.964,1.260,-2.520,-0.630
1153481,-0.059,-0.427,0.958,1.330,-2.520,-0.910
1153506,-0.060,-0.427,0.960,0.140,-2.590,-0.840
1153526,-0.055,-0.421,0.959,0.210,-2.380,-0.770
1153542,-0.057,-0.427,0.959,1.470,-2.380,-0.700
1153566,-0.060,-0.424,0.958,0.420,-2.450,-0.840
1153585,-0.059,-0.424,0.964,0.210,-2.310,-0.700
1153605,-0.058,-0.422,0.964,1.190,-2.310,-0.770
1153625,-0.057,-0.426,0.961,1.330,-2.450,-0.840
1153645,-0.059,-0.425,0.958,0.210,-2.520,-0.770
1153665,-0.057,-0.422,0.964,0.700,-2.380,-0.840
1153685,-0.054,-0.426,0.960,1.610,-2.380,-0.700
1153709,-0.059,-0.426,0.960,0.420,-2.590,-0.840
1153729,-0.059,-0.421,0.964,0.210,-2.450,-0.770
1153749,-0.056,-0.422,0.964,0.980,-2.380,-0.770
1153769,-0.058,-0.428,0.959,1.470,-2.450,-0.700
1153789,-0.057,-0.422,0.962,0.630,-2.590,-0.770
1153809,-0.056,-0.421,0.961,0.490,-2.380,-0.840
1153829,-0.055,-0.427,0.962,1.400,-2.380,-0.770
1153847,-0.058,-0.427,0.960,0.980,-2.520,-0.770
1153869,-0.058,-0.421,0.960,-0.070,-2.520,-0.770
1153888,-0.058,-0.421,0.961,1.120,-2.310,-0.700
1153913,-0.057,-0.429,0.961,1.330,-2.380,-0.770
1153933,-0.057,-0.425,0.960,0.840,-2.590,-0.700
1153949,-0.057,-0.425,0.959,0.560,-2.450,-0.840
1153973,-0.057,-0.422,0.960,0.980,-2.380,-0.700
1153990,-0.058,-0.424,0.960,1.120,-2.450,-0.770
1154011,-0.059,-0.426,0.960,0.700,-2.520,-0.840
1154031,-0.057,-0.424,0.963,0.770,-2.450,-0.630
1154053,-0.060,-0.424,0.961,1.190,-2.240,-0.770
1154077,-0.056,-0.425,0.961,1.050,-2.380,-0.840
1154097,-0.059,-0.423,0.958,0.490,-2.590,-0.980
1154117,-0.057,-0.419,0.966,0.560,-2.450,-0.840
1154137,-0.058,-0.424,0.960,1.400,-2.310,-0.770
1154157,-0.055,-0.427,0.960,0.910,-2.450,-0.840
1154181,-0.059,-0.424,0.959,0.770,-2.730,-0.840
1154201,-0.058,-0.422,0.962,0.210,-2.450,-0.700
1154221,-0.058,-0.426,0.962,1.610,-2.310,-0.840
1154241,-0.057,-0.424,0.960,1.190,-2.450,-0.840
1154261,-0.056,-0.422,0.963,0.350,-2.380,-0.910
1154281,-0.057,-0.426,0.963,1.470,-2.310,-0.840
1154301,-0.061,-0.430,0.958,1.750,-2.380,-0.770
1154320,-0.057,-0.418,0.963,0.490,-2.450,-0.700
1154340,-0.060,-0.421,0.960,1.190,-2.170,-0.700
1154360,-0.060,-0.425,0.962,1.610,-2.310,-0.840
1154380,-0.059,-0.422,0.958,0.910,-2.520,-0.840
1154399,-0.058,-0.422,0.962,0.560,-2.450,-0.630
1154419,-0.057,-0.423,0.962,1.050,-2.380,-0.630
1154444,-0.058,-0.425,0.961,1.050,-2.590,-0.770
1154464,-0.056,-0.425,0.959,-0.070,-2.520,-0.770
1154484,-0.056,-0.423,0.965,0.700,-2.520,-0.700
1154501,-0.056,-0.426,0.959,1.190,-2.450,-0.770
1154522,-0.055,-0.427,0.959,0.280,-2.450,-0.770
1154543,-0.058,-0.421,0.960,0.350,-2.450,-0.770
1154568,-0.058,-0.426,0.964,2.170,-2.170,-0.840
1154587,-0.055,-0.429,0.960,1.400,-2.240,-0.700
1154607,-0.059,-0.418,0.962,-0.070,-2.590,-0.840
1154627,-0.059,-0.415,0.963,0.490,-2.380,-0.840
1154647,-0.059,-0.427,0.962,1.470,-2.170,-0.770
1154666,-0.059,-0.425,0.962,1.120,-2.590,-0.840
1154687,-0.057,-0.418,0.964,-0.560,-2.520,-0.910
1154707,-0.057,-0.422,0.961,0.910,-2.380,-0.770
1154725,-0.055,-0.428,0.960,1.190,-2.100,-0.700
1154747,-0.059,-0.427,0.961,1.330,-2.380,-0.770
1154767,-0.058,-0.424,0.959,0.560,-2.170,-0.770
1154786,-0.058,-0.421,0.963,1.610,-2.100,-0.840
1154810,-0.060,-0.426,0.961,0.980,-2.450,-0.700
1154830,-0.058,-0.421,0.961,0.350,-2.310,-0.910
1154850,-0.058,-0.423,0.963,0.980,-2.170,-0.770
1154870,-0.057,-0.426,0.961,1.260,-2.170,-0.700
1154890,-0.058,-0.424,0.960,0.420,-2.450,-0.630
1154906,-0.059,-0.423,0.959,0.770,-2.450,-0.910
1154930,-0.058,-0.424,0.962,1.260,-2.030,-0.840
1154945,-0.059,-0.421,0.965,1.470,-2.170,-0.700
1154966,-0.060,-0.424,0.960,1.190,-2.240,-0.770
1154986,-0.061,-0.423,0.961,1.120,-2.100,-0.770
1155006,-0.057,-0.424,0.960,1.610,-1.680,-0.700
1155026,-0.060,-0.425,0.962,1.330,-2.170,-0.910
1155045,-0.062,-0.420,0.962,1.330,-1.960,-0.700
1155070,-0.060,-0.425,0.961,1.190,-2.380,-0.980
1155090,-0.055,-0.423,0.961,1.610,-1.680,-0.700
1155110,-0.056,-0.419,0.963,2.100,-1.890,-0.840
1155130,-0.058,-0.417,0.964,1.330,-1.680,-0.840
1155149,-0.061,-0.427,0.960,0.980,-1.890,-0.910
1155170,-0.067,-0.432,0.958,0.140,-2.100,-0.980
1155190,-0.058,-0.417,0.967,4.340,-2.100,-0.700
1155209,-0.060,-0.415,0.967,1.190,-1.960,-0.770
1155229,-0.058,-0.415,0.961,2.590,-1.680,-0.910
1155249,-0.061,-0.420,0.965,2.380,-1.960,-0.700
1155274,-0.059,-0.414,0.967,1.330,-2.170,-0.910
1155291,-0.059,-0.419,0.961,1.470,-2.100,-0.840
1155315,-0.058,-0.423,0.963,0.840,-1.680,-0.770
1155335,-0.061,-0.425,0.955,2.100,-2.100,-0.700
1155355,-0.060,-0.414,0.966,1.680,-1.890,-0.700
1155375,-0.061,-0.413,0.967,1.960,-1.330,-0.700
1155393,-0.061,-0.419,0.961,1.890,-1.960,-0.770
1155415,-0.061,-0.421,0.964,3.010,-1.820,-0.840
1155432,-0.062,-0.415,0.963,1.820,-1.890,-0.840
1155452,-0.061,-0.419,0.966,2.940,-1.540,-0.700
1155473,-0.061,-0.418,0.964,3.150,-1.470,-0.700
1155493,-0.065,-0.416,0.965,2.730,-1.680,-0.840
1155513,-0.063,-0.417,0.965,3.010,-1.680,-0.700
1155532,-0.062,-0.415,0.969,1.960,-1.820,-0.700
1155552,-0.066,-0.413,0.965,0.560,-2.170,-0.700
1155576,-0.063,-0.417,0.966,0.770,-2.310,-0.770
1155600,-0.062,-0.413,0.963,0.840,-2.310,-0.700
1155620,-0.064,-0.414,0.965,0.280,-2.590,-0.700
1155640,-0.064,-0.415,0.967,0.630,-2.870,-0.840
1155655,-0.063,-0.413,0.966,0.000,-2.730,-0.770
1155675,-0.063,-0.415,0.970,1.260,-2.660,-0.700
1155695,-0.064,-0.416,0.966,0.350,-3.220,-0.980
1155720,-0.065,-0.413,0.963,-0.070,-2.940,-0.980
1155740,-0.064,-0.415,0.963,0.350,-2.590,-0.770
1155760,-0.061,-0.417,0.966,0.630,-2.730,-0.630
1155778,-0.065,-0.418,0.967,1.050,-2.870,-0.980
1155802,-0.063,-0.420,0.962,1.190,-2.450,-0.840
1155822,-0.058,-0.411,0.967,0.770,-1.960,-0.770
1155842,-0.060,-0.416,0.966,2.170,-1.890,-0.840
1155862,-0.064,-0.415,0.967,1.120,-2.240,-0.770
1155881,-0.065,-0.413,0.964,1.260,-2.520,-0.840
1155906,-0.062,-0.414,0.964,0.070,-2.590,-0.770
1155921,-0.061,-0.416,0.966,0.560,-3.010,-0.910
1155943,-0.065,-0.419,0.963,0.140,-3.010,-0.630
1155963,-0.061,-0.416,0.967,0.490,-2.590,-0.700
1155983,-0.065,-0.412,0.963,0.350,-2.800,-0.840
1156007,-0.061,-0.416,0.962,0.140,-2.730,-0.700
1156025,-0.063,-0.416,0.963,0.000,-2.520,-0.630
1156045,-0.062,-0.413,0.963,0.280,-2.730,-0.700
1156065,-0.060,-0.416,0.964,-0.630,-2.940,-0.630
1156085,-0.061,-0.416,0.964,-0.420,-2.940,-0.840
1156105,-0.062,-0.421,0.964,-1.400,-3.360,-0.770
1156125,-0.058,-0.417,0.964,0.490,-2.800,-0.840
1156149,-0.060,-0.418,0.965,0.630,-2.450,-0.700
1156167,-0.063,-0.419,0.965,0.980,-2.660,-0.770
1156189,-0.060,-0.418,0.959,0.420,-2.380,-0.770
1156209,-0.062,-0.420,0.965,0.770,-2.590,-0.770
1156229,-0.062,-0.416,0.963,0.210,-2.380,-0.840
1156249,-0.059,-0.419,0.968,0.700,-2.660,-0.700
1156268,-0.062,-0.417,0.962,0.490,-2.870,-0.980
1156292,-0.064,-0.419,0.966,0.420,-2.450,-0.770
1156312,-0.061,-0.422,0.963,1.190,-2.380,-0.630
1156332,-0.061,-0.422,0.964,0.700,-2.520,-0.840
1156352,-0.062,-0.415,0.964,1.540,-2.310,-0.770
1156370,-0.059,-0.423,0.964,1.610,-1.960,-0.700
1156388,-0.061,-0.418,0.963,1.190,-2.450,-0.700
1156408,-0.061,-0.414,0.963,1.750,-1.960,-0.490
1156428,-0.059,-0.419,0.966,1.960,-2.310,-0.700
1156448,-0.061,-0.415,0.965,0.630,-2.240,-0.770
1156467,-0.064,-0.418,0.963,1.540,-2.450,-0.840
1156487,-0.061,-0.414,0.963,0.350,-2.310,-0.700
1156512,-0.058,-0.415,0.967,0.980,-2.310,-0.700
1156532,-0.060,-0.422,0.964,1.540,-2.310,-0.770
1156552,-0.063,-0.419,0.964,0.490,-2.660,-0.910
1156572,-0.059,-0.413,0.964,0.280,-2.660,-0.770
1156592,-0.061,-0.417,0.967,0.770,-2.310,-0.770
1156612,-0.059,-0.426,0.960,1.190,-2.380,-0.840
1156631,-0.063,-0.418,0.966,0.490,-2.450,-0.840
1156651,-0.062,-0.415,0.968,0.980,-2.590,-0.770
1156671,-0.062,-0.419,0.964,1.610,-2.520,-0.770
1156691,-0.059,-0.419,0.963,-0.210,-2.380,-0.700
1156711,-0.062,-0.418,0.966,1.190,-2.380,-0.700
1156731,-0.063,-0.414,0.966,1.540,-2.310,-0.770
1156754,-0.066,-0.416,0.965,2.380,-2.100,-0.630
1156775,-0.061,-0.420,0.966,1.470,-1.960,-0.770
1156795,-0.061,-0.412,0.966,0.350,-2.380,-0.630
1156815,-0.065,-0.411,0.965,0.910,-2.380,-0.700
1156835,-0.064,-0.420,0.963,0.560,-2.660,-0.840
1156855,-0.058,-0.418,0.963,0.210,-2.730,-0.840
1156879,-0.059,-0.418,0.966,0.210,-2.660,-0.840
1156899,-0.061,-0.418,0.966,0.700,-2.590,-0.770
1156919,-0.065,-0.418,0.965,0.560,-2.660,-0.700
1156939,-0.062,-0.417,0.962,0.140,-2.940,-0.980
1156959,-0.060,-0.414,0.965,0.280,-2.590,-0.700
1156979,-0.061,-0.418,0.967,0.490,-2.520,-0.700
1157003,-0.062,-0.416,0.966,0.280,-2.730,-0.840
1157023,-0.059,-0.420,0.963,0.070,-2.870,-0.980
1157043,-0.059,-0.418,0.965,0.280,-2.450,-0.770
1157063,-0.062,-0.419,0.963,1.050,-2.520,-0.770
1157083,-0.062,-0.422,0.966,0.770,-2.450,-0.770
1157103,-0.061,-0.418,0.966,0.630,-2.520,-0.840
1157126,-0.061,-0.419,0.964,0.420,-2.520,-0.840
1157146,-0.062,-0.417,0.965,0.770,-2.310,-0.630
1157167,-0.058,-0.420,0.964,0.910,-1.890,-0.560
1157187,-0.051,-0.421,0.962,0.910,-2.870,-1.050
1157207,-0.060,-0.419,0.961,0.980,-2.870,-0.840
1157227,-0.067,-0.415,0.965,1.260,-2.170,-0.630
1157243,-0.059,-0.415,0.964,0.770,-2.520,-0.840
1157263,-0.056,-0.414,0.963,0.350,-1.960,-0.630
1157283,-0.061,-0.421,0.962,1.120,-2.240,-0.770
1157303,-0.065,-0.421,0.961,1.050,-2.870,-0.770
1157323,-0.063,-0.416,0.964,0.350,-2.800,-0.910
1157347,-0.058,-0.417,0.964,0.630,-2.730,-0.840
1157363,-0.061,-0.425,0.966,0.980,-2.380,-0.840
1157383,-0.064,-0.418,0.960,0.630,-3.010,-1.050
1157406,-0.055,-0.414,0.964,0.350,-1.890,-0.560
1157426,-0.060,-0.419,0.964,1.190,-2.380,-0.700
1157446,-0.063,-0.423,0.964,1.120,-2.870,-0.910
1157465,-0.061,-0.418,0.964,0.630,-2.520,-0.700
1157489,-0.057,-0.414,0.966,0.630,-2.170,-0.770
1157510,-0.058,-0.421,0.965,1.610,-2.870,-0.980
1157530,-0.067,-0.422,0.961,1.470,-2.310,-0.770
1157550,-0.062,-0.416,0.967,0.280,-2.100,-0.560
1157570,-0.058,-0.417,0.962,0.770,-2.170,-0.630
1157590,-0.057,-0.422,0.965,1.190,-2.660,-0.980
1157609,-0.064,-0.421,0.961,1.190,-3.080,-1.050
1157629,-0.060,-0.415,0.965,0.350,-2.380,-0.560
1157648,-0.060,-0.418,0.964,1.190,-2.030,-0.630
1157668,-0.062,-0.423,0.964,0.700,-2.730,-0.770
1157688,-0.063,-0.420,0.962,0.910,-2.730,-0.910
1157708,-0.060,-0.416,0.962,0.630,-2.240,-0.700
1157733,-0.057,-0.416,0.967,0.700,-2.310,-0.770
1157753,-0.061,-0.422,0.964,1.400,-2.660,-0.840
1157777,-0.062,-0.421,0.963,0.630,-2.450,-0.700
1157797,-0.061,-0.417,0.963,0.700,-2.450,-0.770
1157817,-0.059,-0.419,0.963,0.980,-2.240,-0.630
1157837,-0.061,-0.422,0.962,0.980,-2.310,-0.840
1157856,-0.061,-0.419,0.961,0.280,-2.590,-0.910
1157876,-0.061,-0.415,0.964,0.420,-2.520,-0.770
1157896,-0.061,-0.420,0.964,1.400,-2.240,-0.700
1157916,-0.060,-0.422,0.965,1.120,-2.380,-0.840
1157936,-0.062,-0.419,0.963,0.280,-2.590,-0.840
1157956,-0.060,-0.416,0.968,0.700,-2.170,-0.840
1157980,-0.061,-0.421,0.964,1.400,-2.380,-0.840
1157997,-0.062,-0.422,0.962,0.560,-2.520,-0.840
1158019,-0.061,-0.417,0.963,0.000,-2.520,-0.770
1158039,-0.059,-0.418,0.967,1.330,-2.310,-0.770
1158059,-0.060,-0.422,0.963,1.400,-2.450,-0.770
1158079,-0.062,-0.421,0.960,0.490,-2.520,-0.770
1158101,-0.060,-0.417,0.965,0.700,-2.100,-0.770
1158123,-0.059,-0.421,0.967,1.330,-2.240,-0.700
1158143,-0.059,-0.422,0.963,1.190,-2.310,-0.700
1158163,-0.061,-0.419,0.963,0.490,-2.590,-0.840
1158183,-0.060,-0.418,0.961,0.560,-2.590,-0.840
1158202,-0.061,-0.420,0.965,1.120,-2.310,-0.700
1158218,-0.063,-0.419,0.961,0.490,-2.590,-0.840
1158243,-0.060,-0.415,0.962,0.350,-2.520,-0.700
1158263,-0.059,-0.416,0.964,0.840,-2.310,-0.700
1158278,-0.058,-0.422,0.962,1.260,-2.450,-0.840
1158301,-0.063,-0.420,0.962,0.700,-2.520,-0.840
1158323,-0.062,-0.417,0.964,0.910,-2.240,-0.910
1158342,-0.059,-0.419,0.963,1.260,-2.310,-0.700
1158366,-0.060,-0.423,0.961,1.400,-2.310,-0.770
1158386,-0.061,-0.419,0.963,0.490,-2.450,-0.910
1158405,-0.060,-0.418,0.963,0.280,-2.450,-0.770
1158430,-0.061,-0.415,0.967,1.190,-2.240,-0.840
1158450,-0.060,-0.424,0.964,0.980,-2.520,-0.700
1158468,-0.062,-0.420,0.964,0.700,-2.590,-0.910
1158488,-0.061,-0.415,0.964,0.210,-2.310,-0.630
1158508,-0.060,-0.419,0.968,1.260,-2.380,-0.700
1158532,-0.062,-0.424,0.961,0.840,-2.800,-0.770
1158550,-0.061,-0.418,0.962,0.070,-2.660,-0.910
1158572,-0.061,-0.417,0.965,0.490,-2.380,-0.700
1158592,-0.061,-0.423,0.962,1.120,-2.240,-0.630
1158612,-0.063,-0.421,0.961,0.350,-2.450,-0.700
1158632,-0.063,-0.412,0.963,0.420,-2.660,-0.770
1158652,-0.059,-0.417,0.968,1.190,-2.310,-0.700
1158672,-0.057,-0.423,0.961,1.470,-2.380,-0.630
1158692,-0.065,-0.417,0.963,0.840,-2.520,-0.840
1158709,-0.062,-0.420,0.965,1.260,-2.310,-0.700
1158729,-0.060,-0.423,0.962,1.540,-2.310,-0.700
1158749,-0.061,-0.417,0.961,0.210,-2.590,-0.840
1158769,-0.056,-0.412,0.967,0.140,-2.660,-0.770
1158789,-0.065,-0.423,0.961,1.190,-3.010,-0.770
1158808,-0.056,-0.426,0.964,-0.770,-2.450,-0.770
1158833,-0.060,-0.414,0.964,0.280,-3.290,-1.050
1158853,-0.062,-0.422,0.957,1.190,-2.310,-0.770
1158873,-0.059,-0.419,0.970,1.470,-2.100,-0.560
1158893,-0.061,-0.419,0.961,1.190,-2.940,-1.050
1158908,-0.061,-0.414,0.967,0.490,-2.240,-0.770
1158933,-0.060,-0.425,0.959,2.730,-2.170,-0.700
1158951,-0.061,-0.422,0.962,1.610,-2.170,-0.770
1158975,-0.064,-0.414,0.964,0.980,-2.450,-0.840
1158995,-0.060,-0.417,0.964,1.120,-1.890,-0.770
1159015,-0.061,-0.422,0.966,1.820,-2.170,-0.560
1159035,-0.063,-0.419,0.961,0.630,-2.380,-0.770
1159055,-0.060,-0.415,0.966,0.980,-2.170,-0.840
1159072,-0.060,-0.422,0.966,1.540,-2.310,-0.630
1159096,-0.058,-0.420,0.960,0.560,-2.170,-0.770
1159116,-0.061,-0.419,0.966,0.770,-2.590,-0.840
1159136,-0.061,-0.414,0.964,1.190,-2.450,-0.770
1159156,-0.059,-0.416,0.969,1.050,-2.310,-0.700
1159176,-0.061,-0.422,0.961,1.400,-2.450,-0.700
1159192,-0.062,-0.417,0.963,0.280,-2.380,-0.770
1159212,-0.060,-0.415,0.966,1.820,-2.380,-0.770
1159236,-0.061,-0.417,0.967,0.770,-2.730,-0.770
1159255,-0.059,-0.416,0.961,0.560,-2.450,-0.840
1159276,-0.061,-0.418,0.965,1.120,-2.450,-0.770
1159296,-0.060,-0.422,0.966,1.260,-2.240,-0.700
1159311,-0.062,-0.417,0.963,0.350,-2.730,-0.840
1159331,-0.062,-0.412,0.966,0.280,-2.450,-0.770
1159356,-0.059,-0.421,0.966,1.470,-2.030,-0.630
1159376,-0.061,-0.419,0.968,1.540,-2.450,-0.560
1159391,-0.057,-0.420,0.960,0.210,-2.450,-0.840
1159411,-0.061,-0.416,0.964,1.750,-2.170,-0.700
1159434,-0.063,-0.421,0.962,1.400,-2.240,-0.770
1159457,-0.064,-0.416,0.965,1.400,-2.590,-0.840
1159476,-0.063,-0.413,0.962,0.700,-2.520,-0.770
1159496,-0.060,-0.417,0.964,1.330,-2.240,-0.560
1159515,-0.064,-0.423,0.963,0.840,-2.870,-0.840
1159535,-0.061,-0.414,0.964,0.070,-2.520,-0.770
1159560,-0.062,-0.405,0.969,-0.070,-2.590,-0.840
1159578,-0.061,-0.424,0.961,0.560,-2.520,-0.770
1159600,-0.063,-0.420,0.964,-0.350,-3.080,-0.980
1159620,-0.058,-0.415,0.963,0.770,-2.170,-0.840
1159640,-0.059,-0.422,0.967,1.400,-2.100,-0.630
1159660,-0.064,-0.423,0.958,0.490,-2.520,-0.980
1159680,-0.063,-0.416,0.964,0.490,-2.380,-0.910
1159699,-0.057,-0.413,0.964,1.470,-1.890,-0.700
1159715,-0.062,-0.421,0.966,0.910,-2.590,-0.700
1159735,-0.063,-0.417,0.961,0.700,-2.590,-0.630
1159755,-0.063,-0.417,0.965,1.190,-2.100,-0.630
1159780,-0.059,-0.420,0.965,1.470,-2.170,-0.630
1159796,-0.059,-0.416,0.966,0.630,-2.590,-0.840
1159819,-0.061,-0.415,0.964,0.630,-2.450,-0.840
1159839,-0.064,-0.415,0.965,1.400,-2.170,-0.700
1159863,-0.060,-0.418,0.963,1.260,-1.960,-0.700
1159883,-0.060,-0.424,0.963,0.840,-2.520,-0.770
1159903,-0.063,-0.415,0.962,0.140,-2.520,-0.910
1159922,-0.059,-0.414,0.968,0.420,-2.380,-0.630
1159942,-0.059,-0.422,0.962,0.980,-2.450,-0.700
1159966,-0.061,-0.419,0.964,0.280,-2.730,-0.840
1159984,-0.061,-0.414,0.965,0.700,-2.450,-0.700
1160004,-0.059,-0.419,0.965,1.400,-2.380,-0.700
1160024,-0.062,-0.420,0.966,0.700,-2.450,-0.840
1160045,-0.062,-0.415,0.966,0.350,-2.310,-0.770
1160069,-0.061,-0.417,0.967,1.470,-2.170,-0.840
1160089,-0.062,-0.421,0.965,1.260,-2.380,-0.700
1160109,-0.061,-0.417,0.963,0.280,-2.590,-0.840
1160129,-0.062,-0.415,0.965,0.490,-2.240,-0.770
1160148,-0.060,-0.420,0.964,1.680,-2.310,-0.700
1160169,-0.061,-0.419,0.963,0.700,-2.660,-0.700
1160189,-0.060,-0.416,0.964,0.420,-2.450,-0.770
1160209,-0.061,-0.418,0.963,0.630,-2.310,-0.840
1160229,-0.060,-0.418,0.965,1.400,-2.310,-0.700
1160249,-0.060,-0.414,0.964,0.700,-2.590,-0.840
1160269,-0.060,-0.414,0.962,0.910,-2.520,-0.840
1160289,-0.061,-0.415,0.964,2.310,-1.960,-0.700
1160309,-0.064,-0.421,0.963,1.120,-2.030,-0.770
1160329,-0.061,-0.415,0.964,0.420,-2.660,-0.840
1160348,-0.060,-0.413,0.966,0.910,-2.240,-0.630
1160369,-0.060,-0.420,0.966,1.470,-2.170,-0.630
1160389,-0.060,-0.417,0.962,0.210,-2.590,-0.700
1160410,-0.061,-0.414,0.964,0.280,-2.520,-0.840
1160429,-0.062,-0.419,0.966,1.260,-2.380,-0.770
1160449,-0.060,-0.422,0.963,0.700,-2.520,-0.910
1160469,-0.062,-0.416,0.962,0.350,-2.450,-0.840
1160494,-0.059,-0.417,0.966,0.840,-2.170,-0.840
1160514,-0.060,-0.422,0.966,1.540,-2.170,-0.770
1160530,-0.061,-0.419,0.961,0.560,-2.590,-0.840
1160554,-0.061,-0.416,0.963,0.490,-2.590,-0.840
1160574,-0.060,-0.413,0.967,1.260,-2.310,-0.770
1160594,-0.062,-0.421,0.965,0.980,-2.660,-0.840
1160614,-0.064,-0.418,0.962,0.560,-2.730,-0.910
1160634,-0.061,-0.416,0.965,0.700,-2.310,-0.630
1160654,-0.057,-0.421,0.965,0.420,-2.660,-0.770
1160674,-0.059,-0.419,0.966,-1.260,-3.430,-0.980
1160694,-0.063,-0.418,0.962,0.140,-2.520,-0.840
1160714,-0.063,-0.420,0.969,0.910,-2.450,-0.700
1160734,-0.062,-0.422,0.966,0.210,-3.010,-0.910
1160754,-0.063,-0.421,0.964,0.350,-2.590,-0.700
1160773,-0.061,-0.417,0.968,1.120,-2.170,-0.700
1160793,-0.061,-0.422,0.964,0.770,-2.730,-0.700
1160813,-0.063,-0.418,0.963,0.350,-2.590,-0.770
1160833,-0.064,-0.413,0.965,0.770,-2.520,-0.770
1160853,-0.058,-0.419,0.970,1.610,-1.750,-0.630
1160873,-0.059,-0.424,0.961,1.400,-2.590,-0.770
1160898,-0.064,-0.418,0.964,0.000,-2.660,-0.910
1160918,-0.060,-0.415,0.964,-0.140,-2.380,-0.770
1160938,-0.056,-0.423,0.967,1.400,-2.100,-0.560
1160958,-0.061,-0.422,0.962,0.840,-2.590,-0.770
1160978,-0.061,-0.414,0.962,-0.420,-2.800,-0.910
1160998,-0.063,-0.416,0.965,-0.210,-3.010,-0.840
1161019,-0.059,-0.423,0.959,1.260,-2.380,-0.770
1161033,-0.056,-0.419,0.963,0.070,-2.520,-0.770
1161057,-0.057,-0.415,0.966,0.210,-2.520,-0.700
1161076,-0.061,-0.420,0.966,0.910,-2.800,-0.840
1161094,-0.063,-0.421,0.963,0.700,-2.520,-0.840
1161114,-0.058,-0.417,0.961,0.490,-2.170,-0.770
1161137,-0.060,-0.417,0.963,0.840,-2.240,-0.770
1161153,-0.058,-0.420,0.964,0.630,-2.730,-0.840
1161173,-0.060,-0.417,0.964,0.490,-2.590,-0.770
1161193,-0.057,-0.419,0.966,1.120,-1.820,-0.560
1161213,-0.062,-0.418,0.964,1.120,-2.660,-0.840
1161233,-0.062,-0.417,0.965,0.140,-2.730,-0.700
1161258,-0.061,-0.420,0.961,0.000,-2.730,-0.770
1161278,-0.060,-0.419,0.965,0.000,-2.450,-0.770
1161293,-0.061,-0.420,0.961,0.210,-2.870,-0.910
1161313,-0.063,-0.419,0.960,0.490,-1.680,-0.770
1161338,-0.056,-0.419,0.961,1.190,-1.960,-0.630
1161357,-0.056,-0.424,0.963,0.700,-2.100,-0.630
1161378,-0.058,-0.416,0.962,0.420,-2.660,-0.910
1161398,-0.061,-0.418,0.963,0.490,-2.450,-0.840
1161417,-0.057,-0.421,0.963,2.380,-1.820,-0.770
1161438,-0.061,-0.420,0.963,1.750,-2.100,-0.840
1161458,-0.061,-0.416,0.966,1.960,-2.100,-0.770
1161478,-0.060,-0.417,0.966,1.540,-2.030,-0.840
1161495,-0.061,-0.419,0.968,1.050,-2.520,-0.910
1161515,-0.065,-0.420,0.962,-0.350,-2.800,-0.910
1161535,-0.061,-0.418,0.963,0.070,-2.590,-0.630
1161554,-0.052,-0.424,0.960,-0.700,-2.590,-0.420
1161574,-0.060,-0.416,0.966,0.280,-3.360,-0.840
1161594,-0.065,-0.417,0.957,0.000,-2.380,-0.630
1161619,-0.060,-0.421,0.963,0.140,-2.240,-0.770
1161639,-0.056,-0.423,0.962,1.540,-2.310,-0.700
1161659,-0.058,-0.423,0.965,0.490,-2.660,-0.770
1161679,-0.061,-0.419,0.961,0.840,-2.520,-0.910
1161699,-0.059,-0.419,0.964,0.910,-2.310,-0.700
1161719,-0.058,-0.424,0.962,1.330,-2.450,-0.910
1161743,-0.062,-0.422,0.962,0.490,-2.520,-0.840
1161763,-0.060,-0.417,0.962,0.700,-2.450,-0.700
1161783,-0.059,-0.422,0.964,1.050,-2.380,-0.770
1161798,-0.059,-0.422,0.964,0.980,-2.450,-0.840
1161818,-0.059,-0.420,0.965,0.420,-2.520,-0.910
1161841,-0.061,-0.419,0.962,0.770,-2.450,-0.770
1161861,-0.059,-0.421,0.963,1.330,-2.240,-0.700
1161881,-0.060,-0.424,0.960,0.840,-2.450,-0.770
1161905,-0.060,-0.418,0.963,0.420,-2.380,-0.700
1161925,-0.058,-0.419,0.961,1.120,-2.310,-0.630
1161945,-0.059,-0.421,0.959,0.910,-2.520,-0.770
1161965,-0.060,-0.420,0.963,0.280,-2.800,-0.770
1161980,-0.059,-0.418,0.962,0.910,-2.380,-0.770
1162000,-0.059,-0.423,0.963,0.980,-2.520,-0.840
1162020,-0.061,-0.421,0.961,0.630,-2.520,-0.840
1162040,-0.060,-0.422,0.964,0.560,-2.450,-0.770
1162063,-0.059,-0.422,0.962,0.980,-2.380,-0.700
1162081,-0.060,-0.423,0.963,1.330,-2.450,-0.770
1162105,-0.060,-0.421,0.959,0.910,-2.590,-0.630
1162125,-0.059,-0.420,0.962,0.350,-2.240,-0.700
1162145,-0.061,-0.419,0.962,1.470,-2.310,-0.770
1162165,-0.061,-0.423,0.963,0.910,-2.450,-0.700
1162185,-0.058,-0.419,0.965,0.910,-2.800,-0.840
1162205,-0.060,-0.419,0.960,0.490,-2.660,-0.910
1162224,-0.059,-0.418,0.964,0.840,-2.450,-0.700
1162244,-0.058,-0.425,0.959,1.260,-2.730,-0.840
1162264,-0.061,-0.421,0.962,0.280,-2.590,-0.770
1162284,-0.059,-0.419,0.964,0.910,-2.380,-0.770
1162304,-0.060,-0.423,0.964,0.140,-2.730,-0.630
1162323,-0.059,-0.422,0.964,0.210,-2.870,-0.770
1162343,-0.061,-0.418,0.961,-0.140,-2.590,-0.770
1162363,-0.060,-0.421,0.964,-0.280,-2.800,-0.840
1162388,-0.055,-0.423,0.962,-0.350,-2.660,-0.770
1162408,-0.057,-0.421,0.962,0.210,-2.310,-0.840
1162428,-0.056,-0.426,0.963,0.840,-2.100,-0.700
1162448,-0.056,-0.424,0.966,1.260,-2.100,-0.840
1162468,-0.059,-0.424,0.960,1.890,-2.380,-0.910
1162483,-0.059,-0.423,0.965,1.890,-1.750,-0.770
1162504,-0.056,-0.423,0.962,2.450,-1.960,-0.770
1162524,-0.061,-0.420,0.965,2.310,-1.960,-0.910
1162544,-0.064,-0.419,0.961,1.400,-2.310,-0.910
1162564,-0.062,-0.421,0.960,0.910,-2.520,-0.630
1162588,-0.063,-0.421,0.967,0.770,-2.380,-0.630
1162608,-0.061,-0.418,0.965,1.050,-2.660,-0.700
1162628,-0.060,-0.422,0.960,-1.820,-2.800,-0.700
1162648,-0.062,-0.420,0.967,0.490,-3.080,-0.840
1162666,-0.055,-0.424,0.960,-0.280,-2.660,-0.700
1162688,-0.056,-0.424,0.962,0.910,-2.450,-0.840
1162708,-0.057,-0.422,0.959,0.980,-2.380,-0.700
1162732,-0.060,-0.422,0.966,2.100,-2.100,-0.700
1162752,-0.056,-0.425,0.960,1.820,-2.170,-0.770
1162772,-0.062,-0.421,0.965,1.260,-2.380,-0.770
1162792,-0.061,-0.419,0.963,1.330,-2.380,-0.770
1162812,-0.060,-0.417,0.963,0.700,-2.240,-0.700
1162828,-0.059,-0.422,0.964,1.190,-2.450,-0.770
1162849,-0.060,-0.421,0.961,0.280,-2.590,-0.770
1162869,-0.060,-0.418,0.965,0.420,-2.590,-0.770
1162888,-0.058,-0.423,0.963,0.910,-2.520,-0.770
1162908,-0.060,-0.424,0.963,0.490,-2.520,-0.770
1162930,-0.061,-0.420,0.961,0.700,-2.380,-0.630
1162953,-0.058,-0.423,0.963,1.330,-2.240,-0.700
1162972,-0.058,-0.423,0.965,1.540,-2.380,-0.840
1162993,-0.059,-0.419,0.964,0.770,-2.450,-0.770
1163013,-0.059,-0.419,0.963,0.770,-2.380,-0.770
1163033,-0.058,-0.423,0.966,1.610,-2.240,-0.770
1163052,-0.059,-0.423,0.961,1.260,-2.380,-0.700
1163070,-0.061,-0.423,0.962,0.630,-2.450,-0.770
1163090,-0.061,-0.418,0.963,0.980,-2.310,-0.770
1163110,-0.061,-0.421,0.961,1.120,-2.310,-0.560
1163130,-0.059,-0.422,0.961,0.770,-2.520,-0.980
1163150,-0.060,-0.423,0.965,0.630,-2.310,-0.700
1163170,-0.057,-0.420,0.963,0.770,-2.380,-0.700
1163189,-0.058,-0.420,0.964,1.260,-2.380,-0.840
1163214,-0.061,-0.419,0.963,0.630,-2.800,-0.770
1163232,-0.058,-0.417,0.961,-0.070,-2.730,-0.770
1163254,-0.056,-0.418,0.964,0.280,-2.590,-0.630
1163275,-0.059,-0.423,0.964,1.050,-2.660,-0.770
1163294,-0.060,-0.422,0.960,0.490,-2.520,-0.700
1163318,-0.058,-0.420,0.962,0.910,-2.100,-0.770
1163338,-0.059,-0.424,0.963,1.400,-2.240,-0.840
1163358,-0.059,-0.421,0.963,1.680,-2.100,-0.770
1163378,-0.060,-0.419,0.960,1.960,-1.890,-0.700
1163398,-0.061,-0.421,0.959,2.170,-1.960,-0.840
1163418,-0.060,-0.421,0.970,1.470,-2.310,-0.840
1163435,-0.062,-0.420,0.963,0.910,-2.590,-0.770
1163454,-0.063,-0.417,0.968,0.770,-2.310,-0.560
1163474,-0.063,-0.421,0.964,1.120,-2.590,-0.840
1163499,-0.063,-0.419,0.965,0.070,-2.380,-0.630
1163517,-0.059,-0.418,0.965,0.630,-2.590,-0.700
1163539,-0.058,-0.421,0.960,0.490,-2.520,-0.770
1163559,-0.057,-0.421,0.964,0.770,-2.310,-0.700
1163576,-0.058,-0.422,0.964,1.260,-2.450,-0.910
1163599,-0.058,-0.423,0.963,1.260,-2.380,-0.840
1163622,-0.061,-0.422,0.962,1.120,-2.310,-0.840
1163643,-0.059,-0.421,0.963,1.400,-2.310,-0.840
1163663,-0.062,-0.419,0.966,1.190,-2.240,-0.700
1163678,-0.061,-0.419,0.966,0.910,-2.590,-0.770
1163703,-0.061,-0.417,0.961,0.840,-2.450,-0.840
1163723,-0.060,-0.419,0.962,0.630,-2.310,-0.700
1163742,-0.062,-0.419,0.963,0.980,-2.450,-0.840
1163763,-0.063,-0.421,0.962,0.840,-2.520,-0.840
1163782,-0.062,-0.418,0.962,0.350,-2.450,-0.770
1163806,-0.059,-0.420,0.962,1.120,-2.450,-0.910
1163826,-0.058,-0.422,0.962,1.050,-2.310,-0.560
1163846,-0.060,-0.421,0.964,0.910,-2.450,-0.840
1163866,-0.060,-0.418,0.963,0.840,-2.520,-0.840
1163886,-0.063,-0.418,0.965,1.190,-2.310,-0.770
1163906,-0.061,-0.422,0.962,1.050,-2.380,-0.770
1163921,-0.059,-0.419,0.964,0.630,-2.450,-0.770
1163944,-0.061,-0.417,0.964,0.770,-2.380,-0.700
1163963,-0.059,-0.420,0.964,1.190,-2.450,-0.700
1163988,-0.059,-0.421,0.964,1.050,-2.380,-0.770
1164007,-0.061,-0.420,0.964,0.560,-2.590,-0.770
1164031,-0.061,-0.414,0.963,0.420,-2.590,-0.840
1164048,-0.059,-0.417,0.965,0.910,-2.310,-0.700
1164072,-0.058,-0.419,0.966,1.470,-2.380,-0.560
1164092,-0.060,-0.418,0.962,1.050,-2.450,-0.700
1164112,-0.061,-0.417,0.963,0.560,-2.450,-0.770
1164132,-0.060,-0.419,0.963,0.980,-2.380,-0.770
1164152,-0.060,-0.423,0.964,1.120,-2.450,-0.770
1164168,-0.062,-0.418,0.963,0.770,-2.520,-0.700
1164188,-0.061,-0.419,0.964,1.120,-2.310,-0.770
1164208,-0.060,-0.420,0.963,1.050,-2.450,-0.700
1164227,-0.061,-0.422,0.964,0.770,-2.450,-0.700
1164250,-0.058,-0.419,0.965,0.840,-2.310,-0.840
1164272,-0.062,-0.420,0.963,0.910,-2.450,-0.840
1164289,-0.061,-0.420,0.959,0.910,-2.450,-0.700
1164308,-0.061,-0.419,0.961,0.560,-2.520,-0.770
1164329,-0.060,-0.419,0.964,0.840,-2.520,-0.770
1164349,-0.061,-0.419,0.961,0.910,-2.380,-0.700
1164368,-0.061,-0.420,0.963,0.840,-2.310,-0.630
1164388,-0.060,-0.421,0.963,0.980,-2.450,-0.770
1164413,-0.061,-0.422,0.961,0.910,-2.520,-0.910
1164430,-0.060,-0.416,0.961,0.700,-2.450,-0.770
1164450,-0.061,-0.420,0.965,1.120,-2.380,-0.770
1164470,-0.061,-0.421,0.964,0.910,-2.520,-0.770
1164489,-0.060,-0.419,0.965,0.700,-2.450,-0.770
1164514,-0.059,-0.419,0.965,0.840,-2.380,-0.700
1164531,-0.061,-0.420,0.964,0.980,-2.520,-0.700
1164553,-0.059,-0.421,0.964,0.280,-2.240,-0.770
1164574,-0.060,-0.420,0.965,1.260,-2.450,-0.630
1164594,-0.062,-0.424,0.961,1.190,-2.450,-0.700
1164618,-0.059,-0.424,0.962,-0.070,-2.590,-0.700
1164638,-0.062,-0.417,0.966,0.420,-2.800,-0.840
1164659,-0.061,-0.420,0.965,0.840,-2.170,-0.700
1164680,-0.060,-0.422,0.965,0.980,-2.520,-0.630
1164699,-0.061,-0.418,0.961,0.560,-2.660,-0.770
1164719,-0.061,-0.417,0.964,0.560,-2.380,-0.700
1164739,-0.059,-0.422,0.962,0.700,-2.450,-0.840
1164759,-0.061,-0.420,0.962,0.210,-2.520,-0.700
1164784,-0.061,-0.418,0.964,0.700,-2.450,-0.770
1164804,-0.059,-0.421,0.963,1.400,-2.240,-0.700
1164827,-0.059,-0.423,0.965,1.470,-2.380,-0.630
1164847,-0.061,-0.419,0.964,0.700,-2.520,-0.840
1164871,-0.060,-0.420,0.962,1.190,-2.450,-0.840
1164891,-0.059,-0.418,0.965,1.260,-2.380,-0.770
1164910,-0.058,-0.420,0.963,0.980,-2.450,-0.840
1164934,-0.059,-0.421,0.962,0.980,-2.310,-0.700
1164954,-0.062,-0.421,0.960,0.420,-2.380,-0.840
1164972,-0.060,-0.416,0.966,0.490,-2.590,-0.840
1164996,-0.060,-0.416,0.965,0.840,-2.520,-0.700
1165020,-0.062,-0.422,0.962,0.490,-2.590,-0.840
1165035,-0.061,-0.420,0.963,0.210,-2.590,-0.840
1165055,-0.061,-0.421,0.963,0.770,-2.590,-0.700
1165080,-0.059,-0.418,0.966,0.420,-2.520,-0.840
1165100,-0.058,-0.422,0.960,0.630,-2.450,-0.770
1165120,-0.061,-0.420,0.962,0.840,-2.450,-0.840
1165138,-0.062,-0.420,0.963,0.700,-2.380,-0.770
1165160,-0.061,-0.420,0.965,0.840,-2.310,-0.770
1165180,-0.061,-0.420,0.962,1.330,-2.310,-0.770
1165200,-0.063,-0.419,0.965,0.910,-2.450,-0.770
1165220,-0.061,-0.420,0.963,0.980,-2.380,-0.770
1165238,-0.061,-0.420,0.965,0.910,-2.380,-0.770
1165260,-0.060,-0.419,0.964,0.700,-2.520,-0.770
1165280,-0.060,-0.419,0.962,0.770,-2.660,-0.770
1165300,-0.061,-0.420,0.966,0.700,-2.660,-0.770
1165318,-0.058,-0.419,0.961,0.630,-2.380,-0.840
1165339,-0.061,-0.422,0.963,0.560,-2.310,-0.700
1165359,-0.060,-0.421,0.962,0.910,-2.660,-0.770
1165383,-0.058,-0.420,0.961,0.840,-2.450,-0.770
1165407,-0.061,-0.423,0.962,0.840,-2.380,-0.700
1165427,-0.060,-0.419,0.964,0.840,-2.380,-0.770
1165447,-0.059,-0.421,0.964,1.190,-2.450,-0.840
1165467,-0.061,-0.422,0.963,0.770,-2.310,-0.770
1165491,-0.062,-0.417,0.965,0.420,-2.380,-0.770
1165511,-0.060,-0.421,0.964,0.910,-2.450,-0.700
1165530,-0.058,-0.419,0.965,0.630,-2.380,-0.630
1165550,-0.061,-0.423,0.964,0.980,-2.520,-0.770
1165570,-0.061,-0.420,0.965,0.630,-2.520,-0.770
1165591,-0.060,-0.421,0.962,0.910,-2.520,-0.770
1165614,-0.057,-0.421,0.963,1.260,-2.310,-0.840
1165637,-0.060,-0.421,0.965,1.260,-2.240,-0.630
1165661,-0.061,-0.419,0.964,0.980,-2.450,-0.840
1165680,-0.059,-0.420,0.962,0.630,-2.450,-0.700
1165701,-0.060,-0.419,0.963,1.190,-2.240,-0.840
1165725,-0.058,-0.421,0.963,1.120,-2.310,-0.840
1165745,-0.060,-0.421,0.963,0.560,-2.520,-0.770
1165765,-0.060,-0.418,0.963,0.840,-2.520,-0.770
1165784,-0.061,-0.418,0.965,0.490,-2.520,-0.840
1165804,-0.057,-0.421,0.962,0.770,-2.590,-0.840
1165824,-0.060,-0.421,0.964,0.980,-2.450,-0.770
1165844,-0.060,-0.420,0.961,0.490,-2.590,-0.770
1165864,-0.060,-0.416,0.962,1.050,-2.240,-0.630
1165884,-0.060,-0.422,0.963,1.400,-2.240,-0.700
1165903,-0.061,-0.419,0.962,0.700,-2.520,-0.910
1165923,-0.062,-0.419,0.964,0.420,-2.520,-0.700
1165943,-0.057,-0.418,0.962,0.910,-2.240,-0.770
1165968,-0.061,-0.421,0.963,1.190,-2.310,-0.700
1165988,-0.061,-0.421,0.962,0.980,-2.520,-0.770
1166008,-0.060,-0.421,0.963,0.490,-2.590,-0.910
1166028,-0.060,-0.419,0.964,0.910,-2.590,-0.770
1166048,-0.059,-0.423,0.962,0.840,-2.380,-0.770
1166068,-0.059,-0.421,0.962,1.190,-2.520,-0.840
1166088,-0.061,-0.420,0.962,0.980,-2.450,-0.700
1166108,-0.060,-0.421,0.965,0.840,-2.520,-0.770
1166128,-0.061,-0.421,0.965,0.910,-2.380,-0.770
1166144,-0.057,-0.422,0.963,0.980,-2.450,-0.770
1166168,-0.061,-0.421,0.963,0.700,-2.520,-0.840
1166187,-0.060,-0.417,0.962,1.190,-2.240,-0.770
1166208,-0.059,-0.421,0.964,1.190,-2.310,-0.700
1166228,-0.059,-0.426,0.964,1.050,-2.380,-0.770
1166248,-0.060,-0.419,0.966,0.490,-2.450,-0.840
1166264,-0.061,-0.421,0.963,1.190,-2.170,-0.840
1166284,-0.060,-0.421,0.964,0.910,-2.380,-0.630
1166304,-0.061,-0.420,0.963,1.120,-2.520,-0.910
1166324,-0.061,-0.419,0.961,0.560,-2.310,-0.700
1166344,-0.060,-0.419,0.964,0.910,-2.380,-0.630
1166364,-0.058,-0.420,0.964,0.840,-2.590,-0.630
1166383,-0.058,-0.420,0.964,0.700,-2.450,-0.700
1166403,-0.061,-0.418,0.963,0.560,-2.380,-0.700
1166423,-0.061,-0.420,0.963,0.980,-2.310,-0.700
1166447,-0.058,-0.420,0.964,1.260,-2.380,-0.630
1166467,-0.059,-0.423,0.966,0.560,-2.380,-0.700
1166491,-0.061,-0.419,0.965,0.840,-2.380,-0.770
1166511,-0.059,-0.418,0.965,0.910,-2.310,-0.840
1166530,-0.058,-0.420,0.963,1.120,-2.310,-0.630
1166549,-0.060,-0.419,0.960,0.980,-2.450,-0.840
1166574,-0.061,-0.420,0.963,0.770,-2.450,-0.700
1166594,-0.061,-0.417,0.964,0.980,-2.450,-0.770
1166614,-0.061,-0.418,0.963,0.840,-2.380,-0.700
1166630,-0.061,-0.419,0.965,0.840,-2.590,-0.770
1166649,-0.062,-0.421,0.960,0.630,-2.590,-0.700
1166674,-0.060,-0.421,0.964,0.630,-2.590,-0.770
1166694,-0.059,-0.418,0.962,0.980,-2.310,-0.700
1166714,-0.059,-0.422,0.964,0.910,-2.380,-0.770
1166734,-0.061,-0.417,0.963,0.560,-2.380,-0.700
1166754,-0.057,-0.417,0.965,0.700,-2.380,-0.700
1166773,-0.060,-0.420,0.964,1.400,-2.380,-0.770
1166793,-0.061,-0.422,0.960,0.840,-2.660,-0.700
1166817,-0.059,-0.420,0.964,0.770,-2.520,-0.770
1166837,-0.060,-0.420,0.966,0.490,-2.380,-0.840
1166857,-0.059,-0.417,0.965,1.050,-2.450,-0.840
1166872,-0.063,-0.422,0.964,0.840,-2.450,-0.770
1166893,-0.060,-0.421,0.962,0.770,-2.450,-0.770
1166916,-0.059,-0.419,0.962,0.840,-2.380,-0.840
1166935,-0.061,-0.420,0.963,0.770,-2.380,-0.700
1166959,-0.060,-0.418,0.964,1.050,-2.310,-0.770
1166979,-0.060,-0.422,0.962,0.980,-2.520,-0.840
1167003,-0.061,-0.421,0.962,0.350,-2.450,-0.770
1167023,-0.058,-0.415,0.963,0.420,-2.520,-0.840
1167042,-0.060,-0.420,0.960,1.050,-2.450,-0.700
1167063,-0.061,-0.420,0.962,0.630,-2.450,-0.770
1167083,-0.060,-0.420,0.963,0.840,-2.450,-0.770
1167103,-0.059,-0.420,0.961,1.190,-2.380,-0.770
1167123,-0.061,-0.419,0.966,0.980,-2.450,-0.770
1167143,-0.062,-0.421,0.965,1.330,-2.380,-0.770
1167163,-0.060,-0.422,0.963,0.840,-2.310,-0.770
1167187,-0.062,-0.419,0.964,0.770,-2.450,-0.770
1167205,-0.060,-0.419,0.963,0.560,-2.450,-0.840
1167227,-0.060,-0.419,0.964,0.700,-2.380,-0.770
1167247,-0.060,-0.419,0.961,0.840,-2.450,-0.700
1167267,-0.061,-0.421,0.964,0.630,-2.450,-0.770
1167287,-0.061,-0.421,0.965,0.700,-2.450,-0.910
1167305,-0.060,-0.419,0.964,0.840,-2.380,-0.770
1167324,-0.061,-0.421,0.962,1.050,-2.450,-0.770
1167344,-0.061,-0.422,0.964,0.980,-2.310,-0.700
1167369,-0.060,-0.420,0.963,1.190,-2.310,-0.630
1167388,-0.061,-0.418,0.961,1.260,-2.380,-0.560
1167404,-0.061,-0.418,0.962,0.770,-2.590,-0.700
1167424,-0.061,-0.419,0.963,0.700,-2.520,-0.770
1167444,-0.059,-0.417,0.964,0.700,-2.450,-0.770
1167469,-0.057,-0.420,0.963,0.980,-2.450,-0.770
1167489,-0.061,-0.420,0.965,0.700,-2.450,-0.840
1167509,-0.061,-0.420,0.961,0.560,-2.520,-0.770
1167529,-0.062,-0.417,0.964,0.560,-2.520,-0.840
1167544,-0.061,-0.421,0.964,1.120,-2.450,-0.770
1167569,-0.061,-0.422,0.963,1.190,-2.450,-0.700
1167589,-0.061,-0.421,0.963,0.560,-2.450,-0.700
1167609,-0.059,-0.418,0.963,0.770,-2.380,-0.770
1167633,-0.060,-0.418,0.967,0.770,-2.240,-0.700
1167653,-0.061,-0.419,0.965,1.330,-2.520,-0.770
1167673,-0.060,-0.420,0.962,0.490,-2.450,-0.910
1167697,-0.058,-0.420,0.965,0.630,-2.520,-0.840
1167717,-0.062,-0.418,0.962,0.910,-2.380,-0.700
1167741,-0.059,-0.420,0.963,0.980,-2.450,-0.840
1167761,-0.058,-0.419,0.965,0.910,-2.520,-0.840
1167781,-0.061,-0.419,0.964,0.560,-2.520,-0.840
1167797,-0.062,-0.418,0.964,0.420,-2.520,-0.770
1167821,-0.061,-0.420,0.962,0.490,-2.590,-0.700
1167841,-0.062,-0.421,0.961,1.260,-2.590,-0.770
1167857,-0.058,-0.420,0.964,0.350,-2.380,-0.630
1167877,-0.062,-0.419,0.959,1.330,-2.450,-0.840
1167901,-0.061,-0.420,0.961,1.050,-2.170,-0.770
1167920,-0.058,-0.420,0.962,0.980,-2.310,-0.770
1167941,-0.061,-0.419,0.963,0.840,-2.380,-0.700
1167961,-0.060,-0.419,0.963,0.910,-2.310,-0.770
1167981,-0.060,-0.421,0.962,1.190,-2.450,-0.700
1168001,-0.060,-0.419,0.964,0.630,-2.450,-0.770
1168021,-0.060,-0.418,0.965,0.490,-2.520,-0.910
1168041,-0.061,-0.418,0.962,0.910,-2.520,-0.770
1168060,-0.063,-0.421,0.963,0.770,-2.520,-0.770
1168079,-0.058,-0.423,0.963,0.350,-2.450,-0.840
1168103,-0.060,-0.419,0.963,0.700,-2.380,-0.770
1168123,-0.060,-0.419,0.960,0.980,-2.380,-0.700
1168143,-0.059,-0.421,0.961,0.910,-2.450,-0.700
1168163,-0.059,-0.420,0.964,1.400,-2.380,-0.770
1168183,-0.061,-0.419,0.965,0.700,-2.380,-0.840
1168203,-0.061,-0.420,0.964,1.120,-2.380,-0.840
1168223,-0.061,-0.420,0.963,1.190,-2.310,-0.770
1168242,-0.061,-0.420,0.966,1.050,-2.380,-0.770
1168263,-0.061,-0.417,0.963,0.770,-2.450,-0.770
1168283,-0.060,-0.420,0.963,0.560,-2.450,-0.840
1168302,-0.060,-0.420,0.965,1.120,-2.450,-0.630
1168325,-0.058,-0.419,0.964,0.770,-2.380,-0.840
1168347,-0.061,-0.420,0.963,0.840,-2.450,-0.770
1168369,-0.059,-0.421,0.964,0.560,-2.380,-0.770
1168384,-0.060,-0.418,0.961,1.050,-2.450,-0.770
1168409,-0.061,-0.421,0.961,0.700,-2.310,-0.770
1168427,-0.061,-0.418,0.964,0.770,-2.520,-0.770
1168449,-0.061,-0.419,0.963,0.700,-2.450,-0.770
1168464,-0.061,-0.418,0.965,0.910,-2.380,-0.700
1168489,-0.060,-0.420,0.964,1.120,-2.310,-0.700
1168509,-0.061,-0.421,0.962,1.050,-2.380,-0.700
1168528,-0.059,-0.421,0.962,0.910,-2.450,-0.840
1168549,-0.062,-0.418,0.963,0.630,-2.450,-0.700
1168569,-0.060,-0.419,0.968,0.980,-2.380,-0.630
1168588,-0.059,-0.420,0.961,1.190,-2.520,-0.700
1168612,-0.060,-0.421,0.964,0.840,-2.450,-0.770
1168632,-0.061,-0.419,0.963,0.630,-2.450,-0.770
1168651,-0.061,-0.415,0.966,0.700,-2.380,-0.770
1168671,-0.060,-0.421,0.963,0.980,-2.520,-0.840
1168692,-0.061,-0.420,0.964,0.630,-2.450,-0.770
1168716,-0.059,-0.419,0.964,0.630,-2.450,-0.910
1168731,-0.061,-0.421,0.965,1.050,-2.450,-0.700
1168756,-0.061,-0.418,0.966,1.050,-2.450,-0.700
1168776,-0.059,-0.421,0.964,0.910,-2.520,-0.770
1168796,-0.058,-0.416,0.963,0.770,-2.170,-0.770
1168815,-0.059,-0.419,0.967,1.120,-2.240,-0.770
1168840,-0.061,-0.419,0.965,1.190,-2.380,-0.840
1168859,-0.061,-0.419,0.965,1.120,-2.380,-0.840
1168879,-0.060,-0.419,0.961,0.700,-2.450,-0.770
1168899,-0.061,-0.418,0.965,0.490,-2.520,-0.770
1168919,-0.059,-0.417,0.963,1.050,-2.380,-0.840
1168939,-0.062,-0.418,0.961,0.910,-2.450,-0.700
1168964,-0.060,-0.418,0.963,0.630,-2.450,-0.770
1168984,-0.062,-0.417,0.961,0.840,-2.310,-0.770
1169004,-0.061,-0.419,0.966,1.190,-2.310,-0.700
1169024,-0.061,-0.419,0.961,0.770,-2.380,-0.770
1169042,-0.060,-0.419,0.963,0.630,-2.450,-0.770
1169060,-0.060,-0.418,0.962,0.980,-2.380,-0.700
1169079,-0.057,-0.418,0.966,1.050,-2.450,-0.770
1169099,-0.058,-0.419,0.965,0.770,-2.520,-0.770
1169122,-0.060,-0.418,0.964,0.700,-2.520,-0.840
1169143,-0.060,-0.419,0.963,1.050,-2.450,-0.770
1169164,-0.061,-0.420,0.964,0.910,-2.450,-0.770
1169179,-0.060,-0.421,0.963,0.910,-2.380,-0.840
1169204,-0.060,-0.421,0.964,0.630,-2.380,-0.770
1169223,-0.061,-0.420,0.965,0.980,-2.310,-0.770
1169244,-0.060,-0.419,0.964,0.770,-2.310,-0.770
1169264,-0.060,-0.419,0.962,0.910,-2.450,-0.770
1169284,-0.060,-0.419,0.965,0.630,-2.310,-0.840
1169304,-0.059,-0.420,0.963,0.910,-2.380,-0.770
1169323,-0.061,-0.420,0.964,1.050,-2.380,-0.700
1169343,-0.059,-0.418,0.964,0.700,-2.520,-0.840
1169363,-0.061,-0.418,0.964,0.770,-2.590,-0.770
1169382,-0.059,-0.418,0.964,0.980,-2.380,-0.770
1169402,-0.060,-0.419,0.962,0.770,-2.380,-0.770
1169422,-0.061,-0.419,0.962,0.560,-2.520,-0.910
1169447,-0.061,-0.419,0.965,0.420,-2.450,-0.840
1169467,-0.059,-0.415,0.964,0.980,-2.450,-0.700
1169487,-0.059,-0.420,0.963,0.840,-2.450,-0.840
1169507,-0.059,-0.421,0.963,1.190,-2.520,-0.840
1169527,-0.059,-0.418,0.963,0.630,-2.450,-0.770
1169547,-0.061,-0.419,0.963,0.490,-2.450,-0.770
1169570,-0.060,-0.422,0.963,1.470,-2.310,-0.700
1169591,-0.062,-0.422,0.963,0.630,-2.590,-0.770
1169611,-0.062,-0.418,0.963,0.350,-2.380,-0.770
1169631,-0.060,-0.419,0.964,1.190,-2.520,-0.770
1169651,-0.060,-0.419,0.964,1.050,-2.380,-0.630
1169671,-0.059,-0.422,0.964,0.840,-2.450,-0.770
1169690,-0.062,-0.419,0.962,0.700,-2.450,-0.770
1169709,-0.059,-0.419,0.962,0.700,-2.240,-0.700
1169729,-0.061,-0.420,0.963,0.980,-2.520,-0.700
1169749,-0.059,-0.420,0.960,0.770,-2.450,-0.910
1169769,-0.059,-0.418,0.961,0.630,-2.520,-0.770
1169794,-0.060,-0.419,0.965,0.700,-2.450,-0.840
1169809,-0.060,-0.421,0.965,1.050,-2.450,-0.770
1169829,-0.061,-0.422,0.963,0.630,-2.520,-0.840
1169849,-0.060,-0.419,0.965,0.560,-2.310,-0.700
1169869,-0.059,-0.418,0.963,1.190,-2.310,-0.770
1169889,-0.059,-0.422,0.963,0.980,-2.450,-0.840
1169909,-0.061,-0.422,0.964,0.630,-2.520,-0.770
1169933,-0.061,-0.418,0.963,0.420,-2.450,-0.700
1169953,-0.060,-0.420,0.961,0.980,-2.450,-0.700
1169973,-0.059,-0.421,0.962,1.050,-2.590,-0.910
1169993,-0.060,-0.421,0.963,0.700,-2.520,-0.770
1170012,-0.060,-0.421,0.963,0.700,-2.450,-0.700
1170037,-0.058,-0.419,0.965,0.700,-2.380,-0.770
1170053,-0.059,-0.419,0.962,0.910,-2.310,-0.770
1170073,-0.060,-0.422,0.961,0.840,-2.660,-0.840
1170097,-0.060,-0.420,0.961,0.560,-2.520,-0.700
1170117,-0.060,-0.419,0.963,1.050,-2.590,-0.700
1170137,-0.058,-0.421,0.960,0.910,-2.310,-0.700
1170157,-0.061,-0.421,0.965,0.980,-2.520,-0.770
1170172,-0.060,-0.418,0.962,0.560,-2.520,-0.700
1170197,-0.061,-0.421,0.964,1.050,-2.310,-0.770
1170217,-0.058,-0.422,0.961,0.980,-2.380,-0.700
1170237,-0.061,-0.420,0.965,0.700,-2.520,-0.770
1170261,-0.060,-0.421,0.963,1.120,-2.380,-0.700
1170284,-0.060,-0.420,0.961,0.770,-2.380,-0.770
1170308,-0.060,-0.418,0.962,0.770,-2.380,-0.700
1170328,-0.061,-0.419,0.964,0.980,-2.380,-0.770
1170351,-0.059,-0.418,0.964,0.910,-2.380,-0.770
1170371,-0.058,-0.421,0.965,0.560,-2.590,-0.700
1170391,-0.060,-0.420,0.963,0.490,-2.660,-0.910
1170411,-0.061,-0.419,0.962,0.560,-2.520,-0.840
1170435,-0.060,-0.424,0.965,0.700,-2.310,-0.770
1170455,-0.059,-0.422,0.962,0.700,-2.660,-0.770
1170475,-0.060,-0.421,0.962,0.700,-2.520,-0.840
1170495,-0.060,-0.420,0.964,0.700,-2.450,-0.840
1170514,-0.059,-0.421,0.963,1.050,-2.380,-0.700
1170535,-0.060,-0.420,0.963,1.190,-2.450,-0.770
1170550,-0.061,-0.420,0.964,0.910,-2.380,-0.700
1170575,-0.061,-0.420,0.965,0.980,-2.310,-0.770
1170594,-0.061,-0.421,0.964,1.260,-2.310,-0.770
1170619,-0.060,-0.420,0.959,1.190,-2.310,-0.770
1170639,-0.062,-0.421,0.964,0.770,-2.450,-0.770
1170658,-0.059,-0.419,0.960,0.490,-2.310,-0.840
1170679,-0.059,-0.421,0.963,1.190,-2.450,-0.770
1170699,-0.060,-0.419,0.962,0.910,-2.450,-0.700
1170719,-0.060,-0.420,0.964,0.700,-2.170,-0.770
1170739,-0.060,-0.418,0.964,1.260,-2.380,-0.840
1170759,-0.060,-0.422,0.963,0.980,-2.310,-0.700
1170779,-0.060,-0.421,0.962,0.770,-2.450,-0.770
1170796,-0.059,-0.419,0.961,0.770,-2.310,-0.630
1170817,-0.061,-0.420,0.964,0.840,-2.240,-0.770
1170841,-0.059,-0.423,0.963,1.050,-2.520,-0.630
1170861,-0.061,-0.420,0.965,0.560,-2.450,-0.770
1170881,-0.061,-0.417,0.963,0.700,-2.520,-0.840
1170901,-0.059,-0.418,0.962,0.770,-2.450,-0.700
1170919,-0.061,-0.420,0.965,0.840,-2.520,-0.770
1170939,-0.059,-0.422,0.962,0.980,-2.520,-0.770
1170959,-0.060,-0.420,0.961,0.560,-2.380,-0.910
1170983,-0.061,-0.419,0.964,0.770,-2.450,-0.840
1170998,-0.060,-0.422,0.966,1.400,-2.240,-0.770
1171023,-0.061,-0.422,0.959,1.190,-2.450,-0.770
1171043,-0.059,-0.418,0.963,0.490,-2.450,-0.770
1171063,-0.060,-0.419,0.965,0.980,-2.380,-0.770
1171083,-0.059,-0.420,0.963,1.120,-2.380,-0.630
1171103,-0.058,-0.419,0.962,0.700,-2.520,-0.770
1171123,-0.059,-0.418,0.965,0.490,-2.450,-0.700
1171143,-0.061,-0.420,0.962,0.770,-2.310,-0.700
1171162,-0.058,-0.423,0.963,1.190,-2.380,-0.700
1171182,-0.060,-0.421,0.962,0.840,-2.450,-0.840
1171202,-0.059,-0.417,0.963,0.840,-2.310,-0.910
1171222,-0.062,-0.420,0.964,1.190,-2.450,-0.700
1171242,-0.061,-0.418,0.963,0.910,-2.450,-0.840
1171262,-0.061,-0.418,0.966,0.630,-2.590,-0.770
1171284,-0.060,-0.420,0.964,0.560,-2.450,-0.770
1171304,-0.061,-0.418,0.964,0.560,-2.450,-0.910
1171328,-0.060,-0.420,0.961,1.050,-2.380,-0.700
1171347,-0.061,-0.420,0.965,0.560,-2.450,-0.840
1171368,-0.060,-0.417,0.961,0.420,-2.590,-0.840
1171388,-0.059,-0.420,0.960,0.980,-2.450,-0.840
1171404,-0.058,-0.422,0.964,1.120,-2.310,-0.630
1171428,-0.060,-0.421,0.961,1.260,-2.380,-0.700
1171448,-0.062,-0.421,0.963,0.980,-2.380,-0.770
1171468,-0.061,-0.418,0.962,0.840,-2.240,-0.770
1171488,-0.059,-0.419,0.965,1.260,-2.240,-0.630
1171508,-0.060,-0.420,0.963,1.120,-2.450,-0.770
1171528,-0.058,-0.418,0.968,0.770,-2.520,-0.770
1171548,-0.061,-0.419,0.965,1.050,-2.380,-0.630
1171568,-0.059,-0.421,0.962,0.700,-2.450,-0.770
1171588,-0.061,-0.423,0.963,0.560,-2.660,-0.700
1171608,-0.061,-0.417,0.962,0.210,-2.590,-0.700
1171628,-0.059,-0.420,0.965,0.700,-2.380,-0.700
1171647,-0.060,-0.423,0.964,0.700,-2.450,-0.700
1171667,-0.062,-0.419,0.962,0.280,-2.520,-0.840
1171687,-0.059,-0.421,0.959,0.700,-2.310,-0.770
1171711,-0.061,-0.423,0.966,1.050,-2.380,-0.770
1171731,-0.060,-0.421,0.962,1.050,-2.450,-0.770
1171751,-0.061,-0.420,0.963,1.120,-2.380,-0.700
1171770,-0.059,-0.420,0.965,0.840,-2.170,-0.700
1171790,-0.061,-0.423,0.962,0.770,-2.380,-0.700
1171810,-0.060,-0.419,0.965,0.700,-2.450,-0.840
1171830,-0.060,-0.418,0.962,0.910,-2.380,-0.770
1171850,-0.060,-0.421,0.962,0.560,-2.450,-0.630
1171870,-0.060,-0.422,0.963,1.260,-2.520,-0.910
1171894,-0.059,-0.421,0.964,0.700,-2.450,-0.770
1171914,-0.056,-0.419,0.962,1.050,-2.310,-0.840
1171934,-0.059,-0.422,0.965,1.190,-2.380,-0.700
1171954,-0.061,-0.421,0.960,1.260,-2.310,-0.910
1171974,-0.061,-0.420,0.965,0.560,-2.520,-0.770
1171994,-0.059,-0.422,0.961,0.910,-2.380,-0.700
1172012,-0.060,-0.421,0.965,1.050,-2.240,-0.770
1172032,-0.060,-0.422,0.965,0.770,-2.310,-0.770
1172052,-0.061,-0.421,0.966,0.980,-2.520,-0.630
1172072,-0.062,-0.419,0.960,0.840,-2.450,-0.840
1172092,-0.059,-0.421,0.962,0.770,-2.310,-0.770
1172112,-0.061,-0.420,0.963,1.120,-2.450,-0.630
1172136,-0.061,-0.421,0.963,0.700,-2.450,-0.840
1172151,-0.059,-0.421,0.961,0.770,-2.450,-0.840
1172176,-0.060,-0.420,0.963,0.770,-2.380,-0.770
1172195,-0.060,-0.422,0.962,0.770,-2.520,-0.840
1172215,-0.062,-0.422,0.961,0.770,-2.450,-0.770
1172239,-0.062,-0.419,0.964,0.770,-2.520,-0.700
1172263,-0.058,-0.419,0.965,1.120,-2.730,-0.700
1172283,-0.060,-0.420,0.963,0.490,-2.520,-0.700
1172303,-0.059,-0.420,0.966,1.050,-2.450,-0.770
1172323,-0.061,-0.420,0.962,0.560,-2.380,-0.840
1172342,-0.057,-0.417,0.967,1.190,-2.310,-0.700
1172360,-0.058,-0.419,0.961,1.260,-2.310,-0.700
1172379,-0.060,-0.421,0.964,0.630,-2.380,-0.630
1172399,-0.059,-0.417,0.962,0.420,-2.450,-0.700
1172424,-0.059,-0.420,0.964,0.840,-2.520,-0.770
1172442,-0.059,-0.422,0.963,0.630,-2.590,-0.770
1172464,-0.059,-0.420,0.962,0.630,-2.520,-0.840
1172484,-0.058,-0.420,0.963,1.050,-2.310,-0.770
1172504,-0.063,-0.421,0.959,0.910,-2.240,-0.770
1172524,-0.060,-0.419,0.962,1.120,-2.240,-0.910
1172544,-0.061,-0.423,0.963,1.120,-2.240,-0.770
1172564,-0.060,-0.420,0.962,0.770,-2.520,-0.840
1172584,-0.061,-0.421,0.963,0.840,-2.380,-0.700
1172604,-0.061,-0.419,0.962,1.120,-2.380,-0.700
1172623,-0.059,-0.420,0.962,0.910,-2.450,-0.700
1172643,-0.059,-0.418,0.964,0.630,-2.520,-0.770
1172663,-0.061,-0.417,0.965,0.700,-2.380,-0.840
1172688,-0.062,-0.421,0.963,1.050,-2.520,-0.700
1172708,-0.059,-0.422,0.964,0.770,-2.520,-0.770
1172728,-0.061,-0.421,0.960,0.840,-2.450,-0.770
1172748,-0.057,-0.420,0.963,0.980,-2.240,-0.630
1172768,-0.058,-0.421,0.965,1.190,-2.310,-0.700
1172788,-0.059,-0.422,0.963,0.630,-2.520,-0.840
1172807,-0.061,-0.419,0.962,0.700,-2.380,-0.840
1172828,-0.058,-0.420,0.963,0.910,-2.310,-0.840
1172848,-0.060,-0.420,0.962,0.910,-2.450,-0.700
1172870,-0.060,-0.422,0.959,0.980,-2.520,-0.910
1172894,-0.061,-0.421,0.962,0.490,-2.380,-0.700
1172914,-0.060,-0.421,0.966,1.330,-2.310,-0.770
1172934,-0.061,-0.423,0.962,1.190,-2.380,-0.770
1172954,-0.061,-0.422,0.963,0.770,-2.450,-0.700
1172974,-0.061,-0.418,0.963,0.840,-2.590,-0.840
1172991,-0.062,-0.420,0.967,0.980,-2.310,-0.700
1173015,-0.061,-0.422,0.963,1.260,-2.380,-0.770
1173035,-0.061,-0.420,0.961,0.910,-2.310,-0.840
1173050,-0.061,-0.417,0.963,0.770,-2.380,-0.770
1173075,-0.059,-0.421,0.962,0.840,-2.450,-0.840
1173095,-0.059,-0.422,0.963,1.050,-2.450,-0.700
1173114,-0.060,-0.420,0.965,0.910,-2.450,-0.840
1173134,-0.061,-0.419,0.964,0.700,-2.380,-0.770
1173153,-0.059,-0.417,0.964,0.980,-2.380,-0.770
1173173,-0.058,-0.421,0.963,1.120,-2.450,-0.700
1173193,-0.062,-0.421,0.961,0.420,-2.520,-0.840
1173213,-0.061,-0.419,0.962,0.700,-2.450,-0.840
1173233,-0.061,-0.419,0.963,1.260,-2.450,-0.630
1173258,-0.062,-0.423,0.963,0.630,-2.450,-0.700
1173278,-0.060,-0.420,0.962,0.560,-2.380,-0.840
1173298,-0.059,-0.419,0.963,0.700,-2.380,-0.770
1173316,-0.059,-0.423,0.964,1.330,-2.450,-0.770
1173338,-0.059,-0.421,0.962,0.840,-2.380,-0.840
1173357,-0.058,-0.421,0.963,0.770,-2.450,-0.840
1173376,-0.059,-0.417,0.963,0.910,-2.310,-0.700
1173401,-0.062,-0.422,0.962,0.980,-2.380,-0.770
1173420,-0.058,-0.419,0.963,0.840,-2.520,-0.770
1173440,-0.059,-0.418,0.961,0.840,-2.380,-0.770
1173465,-0.059,-0.416,0.962,0.980,-2.310,-0.910
1173484,-0.059,-0.419,0.967,1.260,-2.310,-0.770
1173504,-0.060,-0.423,0.962,0.630,-2.520,-0.700
1173524,-0.060,-0.420,0.961,0.280,-2.450,-0.980
1173543,-0.057,-0.416,0.963,1.050,-2.380,-0.840
1173568,-0.061,-0.419,0.962,0.980,-2.450,-0.700
1173592,-0.059,-0.424,0.963,0.840,-2.450,-0.700
1173609,-0.060,-0.421,0.961,0.840,-2.380,-0.840
1173629,-0.059,-0.419,0.961,0.700,-2.380,-0.770
1173652,-0.060,-0.416,0.966,1.120,-2.310,-0.630
1173672,-0.060,-0.421,0.965,1.260,-2.520,-0.840
1173692,-0.061,-0.421,0.963,0.490,-2.520,-0.840
1173712,-0.061,-0.420,0.963,0.630,-2.380,-0.630
1173737,-0.061,-0.419,0.964,1.120,-2.310,-0.770
1173756,-0.062,-0.422,0.960,0.770,-2.520,-0.630
1173776,-0.061,-0.420,0.963,0.350,-2.590,-0.910
1173796,-0.058,-0.419,0.964,0.700,-2.450,-0.770
1173816,-0.059,-0.421,0.965,1.190,-2.310,-0.770
1173836,-0.059,-0.424,0.963,1.120,-2.450,-0.840
1173856,-0.061,-0.420,0.961,0.770,-2.660,-0.910
1173876,-0.061,-0.420,0.962,0.560,-2.380,-0.840
1173896,-0.061,-0.421,0.965,1.260,-2.380,-0.700
1173915,-0.061,-0.421,0.960,0.700,-2.520,-0.770
1173931,-0.059,-0.417,0.966,0.630,-2.310,-0.630
1173951,-0.059,-0.423,0.962,1.260,-2.380,-0.770
1173974,-0.060,-0.421,0.964,0.980,-2.520,-0.700
1173991,-0.060,-0.418,0.963,0.140,-2.450,-0.770
1174011,-0.060,-0.417,0.966,0.840,-2.380,-0.700
1174037,-0.061,-0.421,0.962,1.260,-2.520,-0.770
1174056,-0.061,-0.421,0.962,0.490,-2.590,-0.840
1174074,-0.059,-0.418,0.964,0.630,-2.380,-0.770
1174093,-0.058,-0.419,0.964,1.330,-2.310,-0.770
1174113,-0.061,-0.424,0.966,1.120,-2.450,-0.840
1174133,-0.061,-0.419,0.962,0.560,-2.380,-0.910
1174152,-0.061,-0.417,0.965,0.910,-2.240,-0.840
1174177,-0.058,-0.424,0.964,1.260,-2.310,-0.630
1174197,-0.059,-0.425,0.961,1.120,-2.660,-0.770
1174217,-0.061,-0.419,0.961,0.350,-2.520,-0.770
1174237,-0.060,-0.419,0.965,0.700,-2.310,-0.700
1174262,-0.060,-0.420,0.965,1.400,-2.380,-0.630
1174281,-0.061,-0.421,0.961,0.560,-2.520,-0.700
1174301,-0.059,-0.419,0.963,0.280,-2.520,-0.700
1174321,-0.057,-0.421,0.965,1.330,-2.240,-0.770
1174337,-0.059,-0.419,0.962,0.980,-2.310,-0.770
1174361,-0.059,-0.420,0.960,0.980,-2.520,-0.770
1174376,-0.061,-0.419,0.963,0.630,-2.380,-0.700
1174396,-0.058,-0.419,0.964,1.260,-2.310,-0.700
1174416,-0.058,-0.425,0.959,1.050,-2.310,-0.770
1174441,-0.058,-0.419,0.962,0.630,-2.520,-0.770
1174461,-0.060,-0.421,0.960,0.770,-2.520,-0.840
1174480,-0.061,-0.422,0.965,1.540,-2.380,-0.770
1174501,-0.061,-0.422,0.962,1.190,-2.520,-0.630
1174521,-0.060,-0.416,0.963,-0.070,-2.450,-0.700
1174541,-0.061,-0.419,0.962,0.840,-2.380,-0.700
1174564,-0.057,-0.421,0.964,0.630,-2.310,-0.700
1174588,-0.058,-0.423,0.964,0.980,-2.520,-0.910
1174608,-0.060,-0.420,0.962,0.910,-2.450,-0.770
1174628,-0.059,-0.419,0.965,0.490,-2.380,-0.840
1174648,-0.057,-0.424,0.963,1.050,-2.450,-0.770
1174668,-0.060,-0.423,0.961,1.470,-2.380,-0.700
1174688,-0.062,-0.418,0.966,0.700,-2.520,-0.840
1174707,-0.060,-0.420,0.962,0.700,-2.380,-0.700
1174726,-0.060,-0.420,0.965,1.400,-2.380,-0.630
1174751,-0.058,-0.422,0.963,0.350,-2.380,-0.770
1174771,-0.062,-0.416,0.966,0.350,-2.520,-0.910
1174791,-0.061,-0.422,0.964,1.050,-2.240,-0.770
1174810,-0.062,-0.424,0.966,0.840,-2.450,-0.770
1174826,-0.059,-0.421,0.962,0.560,-2.450,-0.840
1174851,-0.062,-0.420,0.962,0.630,-2.380,-0.700
1174871,-0.060,-0.419,0.967,1.330,-2.310,-0.630
1174886,-0.061,-0.420,0.965,0.980,-2.450,-0.840
1174911,-0.061,-0.418,0.966,0.700,-2.660,-0.910
1174931,-0.056,-0.419,0.964,0.770,-2.520,-0.770
1174951,-0.063,-0.423,0.964,1.120,-2.520,-0.700
1174971,-0.057,-0.420,0.961,0.910,-2.450,-0.770
1174991,-0.063,-0.416,0.963,0.700,-2.310,-0.700
1175010,-0.058,-0.423,0.963,0.840,-2.450,-0.700
1175031,-0.060,-0.424,0.962,0.910,-2.380,-0.770
1175055,-0.060,-0.419,0.962,0.350,-2.520,-0.770
1175074,-0.057,-0.418,0.965,0.560,-2.380,-0.770
1175093,-0.058,-0.420,0.965,1.050,-2.380,-0.700
1175113,-0.060,-0.422,0.962,1.050,-2.520,-0.840
1175138,-0.061,-0.419,0.961,0.630,-2.450,-0.840
1175157,-0.058,-0.420,0.963,1.120,-2.170,-0.770
1175178,-0.059,-0.422,0.962,1.470,-2.170,-0.630
1175196,-0.058,-0.421,0.964,0.840,-2.520,-0.700
1175216,-0.060,-0.420,0.965,0.140,-2.520,-0.840
1175236,-0.058,-0.420,0.961,0.910,-2.310,-0.700
1175256,-0.056,-0.422,0.964,1.260,-2.450,-0.700
1175276,-0.060,-0.421,0.962,0.490,-2.660,-0.840
1175300,-0.063,-0.417,0.966,0.210,-2.450,-0.770
1175319,-0.058,-0.421,0.965,0.770,-2.240,-0.770
1175342,-0.058,-0.422,0.964,1.960,-2.240,-0.840
1175366,-0.060,-0.426,0.961,1.680,-2.380,-0.840
1175383,-0.060,-0.418,0.964,0.350,-2.380,-0.910
1175404,-0.061,-0.420,0.963,1.750,-2.100,-0.700
1175424,-0.058,-0.424,0.962,1.890,-2.100,-0.700
1175444,-0.062,-0.419,0.965,1.050,-2.380,-0.910
1175464,-0.061,-0.419,0.962,0.980,-2.310,-0.630
1175484,-0.059,-0.419,0.964,1.610,-2.170,-0.700
1175504,-0.059,-0.420,0.964,1.190,-2.380,-0.840
1175523,-0.059,-0.417,0.960,0.560,-2.450,-0.840
1175548,-0.062,-0.417,0.966,0.070,-2.590,-0.770
1175572,-0.060,-0.418,0.963,0.070,-2.660,-0.770
1175592,-0.058,-0.424,0.961,0.210,-2.730,-0.840
1175612,-0.058,-0.419,0.965,0.140,-2.660,-0.700
1175632,-0.060,-0.421,0.961,0.700,-2.310,-0.770
1175656,-0.058,-0.421,0.966,1.260,-2.170,-0.700
1175675,-0.058,-0.424,0.960,1.680,-2.380,-0.840
1175695,-0.061,-0.418,0.961,0.630,-2.450,-0.910
1175716,-0.060,-0.415,0.964,1.470,-2.310,-0.700
