Millis,AccelX_chest,AccelY_chest,AccelZ_chest,GyroX_chest,GyroY_chest,GyroZ_chest,AccelX_right_leg,AccelY_right_leg,AccelZ_right_leg,GyroX_right_leg,GyroY_right_leg,GyroZ_right_leg,AccelX_left_leg,AccelY_left_leg,AccelZ_left_leg,GyroX_left_leg,GyroY_left_leg,GyroZ_left_leg,AccelX_right_arm,AccelY_right_arm,AccelZ_right_arm,GyroX_right_arm,GyroY_right_arm,GyroZ_right_arm
0.0,-0.978,0.001,0.294,0.07,-0.42,-0.42,-0.996,0.215,-0.003,-0.28,-2.1,0.84,-1.005,-0.081,0.061,0.56,-2.94,-1.82,-0.863,-0.03,0.531,2.24,-1.4,-2.59
20.0,-0.984,-0.002,0.302,0.513,-0.652,-0.284,-0.999,0.219,-0.003,-0.484,-2.056,0.85,-1.002,-0.078,0.06,0.28,-2.8,-1.75,-0.856,-0.031,0.536,2.31,-0.997,-2.59
40.0,-0.982,-0.002,0.298,0.683,-0.881,-0.361,-0.995,0.213,-0.004,-0.35,-2.38,0.98,-1.001,-0.08,0.062,0.28,-2.66,-1.89,-0.86,-0.023,0.538,1.269,-0.701,-2.656
60.0,-0.984,-0.0,0.299,0.369,-1.252,-0.589,-0.998,0.214,-0.002,-0.07,-2.31,0.98,-1.003,-0.08,0.062,0.21,-2.38,-1.82,-0.872,-0.009,0.553,-1.26,-0.98,-2.73
80.0,-0.989,0.003,0.295,0.385,-2.025,-0.859,-0.992,0.216,-0.0,-0.219,-2.24,0.84,-1.002,-0.078,0.057,0.63,-2.59,-1.82,-0.869,-0.02,0.552,-2.45,-1.26,-2.31
100.0,-0.984,-0.001,0.294,0.832,-2.207,-0.875,-0.996,0.217,-0.002,-0.417,-2.241,0.914,-1.002,-0.083,0.06,0.63,-2.73,-1.96,-0.866,-0.032,0.56,-1.249,-2.542,-2.038
120.0,-0.98,-0.007,0.298,0.91,-2.057,-0.751,-0.996,0.212,-0.005,-0.07,-2.31,0.992,-1.004,-0.08,0.061,0.635,-2.664,-1.89,-0.86,-0.017,0.562,-2.912,-3.582,-2.093
140.0,-0.979,-0.008,0.296,0.674,-1.576,-0.604,-0.997,0.216,-0.001,-0.075,-2.329,1.05,-1.005,-0.08,0.061,0.804,-2.73,-1.897,-0.857,-0.008,0.563,-6.468,-4.608,-1.642
160.0,-0.981,-0.007,0.291,0.585,-0.943,-0.624,-0.997,0.217,-0.003,-0.13,-2.59,1.053,-1.002,-0.083,0.06,1.049,-2.731,-2.03,-0.851,-0.007,0.562,-9.163,-5.84,-0.583
180.0,-0.983,-0.006,0.292,0.963,-0.503,-0.631,-0.995,0.214,-0.001,-0.001,-2.59,1.117,-1.006,-0.078,0.059,0.872,-2.931,-1.971,-0.851,-0.032,0.547,-7.014,-6.283,0.304
200.0,-0.978,-0.003,0.295,0.939,-0.052,-0.512,-0.997,0.216,-0.003,0.0,-2.73,1.19,-1.003,-0.083,0.061,0.647,-2.872,-1.897,-0.844,-0.054,0.547,-1.955,-5.837,0.749
220.0,-0.979,-0.001,0.298,0.609,0.148,-0.442,-0.996,0.214,-0.004,0.07,-2.8,1.26,-1.003,-0.08,0.059,0.503,-2.87,-1.838,-0.85,-0.041,0.549,1.447,-5.542,0.456
240.0,-0.978,0.0,0.301,0.543,0.313,-0.516,-0.992,0.214,-0.004,0.07,-2.8,1.26,-1.002,-0.081,0.059,0.655,-2.911,-1.761,-0.854,-0.019,0.546,0.387,-5.704,0.42
260.0,-0.981,-0.001,0.3,0.836,0.596,-0.711,-0.997,0.214,-0.003,0.321,-3.051,1.197,-0.999,-0.082,0.059,0.651,-3.061,-1.808,-0.855,-0.021,0.541,-1.107,-5.937,0.764
280.0,-0.986,-0.002,0.3,0.98,0.622,-0.799,-0.996,0.219,-0.001,0.282,-2.821,1.278,-1.001,-0.082,0.058,0.592,-3.08,-1.724,-0.861,-0.032,0.541,-0.95,-5.189,1.015
300.0,-0.984,0.003,0.303,0.917,-0.199,-0.901,-0.996,0.218,0.002,-0.194,-2.778,1.376,-1.001,-0.082,0.061,0.421,-3.296,-1.723,-0.858,-0.041,0.539,0.518,-4.775,1.181
320.0,-0.972,0.008,0.301,0.487,-1.375,-1.058,-0.997,0.215,0.002,-0.303,-2.8,1.454,-1.002,-0.08,0.063,0.562,-3.43,-1.665,-0.865,-0.027,0.545,1.286,-5.06,0.683
340.0,-0.969,0.006,0.294,0.28,-1.431,-1.159,-0.995,0.215,-0.0,-0.28,-2.8,1.47,-1.002,-0.079,0.061,0.7,-3.47,-1.641,-0.86,-0.026,0.545,0.963,-5.554,0.431
360.0,-0.976,0.001,0.291,0.274,-0.628,-1.19,-0.995,0.217,-0.0,-0.312,-2.709,1.379,-1.003,-0.079,0.06,0.579,-3.473,-1.715,-0.849,-0.027,0.538,0.678,-5.368,0.827
380.0,-0.979,-0.001,0.294,0.147,0.434,-1.182,-0.996,0.219,-0.001,-0.45,-2.66,1.33,-1.002,-0.081,0.064,0.641,-3.358,-1.829,-0.839,-0.031,0.538,-0.209,-4.9,1.488
400.0,-0.979,-0.005,0.299,0.052,1.322,-1.1,-0.996,0.215,-0.0,-0.378,-2.751,1.375,-1.001,-0.081,0.064,0.863,-3.13,-1.977,-0.836,-0.031,0.54,-1.098,-4.406,1.863
420.0,-0.976,-0.006,0.302,0.703,1.696,-0.983,-0.995,0.216,-0.001,-0.173,-2.709,1.4,-1.002,-0.081,0.061,0.879,-3.041,-1.991,-0.838,-0.028,0.54,-0.953,-3.66,2.072
440.0,-0.975,-0.005,0.296,0.801,2.347,-0.774,-0.996,0.217,-0.001,-0.231,-2.932,1.4,-1.003,-0.081,0.06,0.663,-3.282,-1.85,-0.845,-0.035,0.537,-0.609,-2.883,2.145
460.0,-0.974,-0.003,0.294,0.805,3.559,-0.711,-0.996,0.216,-0.0,-0.166,-3.08,1.355,-1.003,-0.083,0.063,0.393,-3.416,-1.82,-0.851,-0.038,0.534,0.191,-2.535,2.157
480.0,-0.978,-0.004,0.297,1.682,4.62,-0.743,-0.994,0.216,-0.062,0.023,-2.975,1.4,-1.003,-0.084,0.064,0.398,-3.318,-1.871,-0.853,-0.031,0.536,1.13,-2.001,2.24
500.0,-0.987,-0.004,0.294,2.02,3.657,-0.405,-0.993,0.215,-0.068,-0.026,-2.902,1.47,-1.0,-0.082,0.064,0.742,-3.208,-2.028,-0.852,-0.028,0.542,-0.67,-1.612,2.432
520.0,-0.981,-0.008,0.289,0.553,2.529,-0.141,-0.993,0.218,0.003,-0.097,-2.94,1.297,-0.999,-0.08,0.063,0.357,-3.114,-1.916,-0.856,-0.032,0.544,-1.247,-1.433,2.887
540.0,-0.978,0.003,0.29,0.551,3.568,-0.208,-0.994,0.217,0.001,-0.238,-2.817,1.281,-1.001,-0.082,0.061,0.369,-2.94,-1.685,-0.845,-0.034,0.542,-0.723,-0.93,2.999
560.0,-0.987,0.006,0.308,1.39,3.298,-0.069,-0.994,0.216,0.001,-0.386,-2.697,1.283,-0.997,-0.08,0.062,-0.055,-2.908,-1.767,-0.84,-0.039,0.537,-0.537,-0.603,2.841
580.0,-0.988,-0.001,0.29,1.137,0.852,0.627,-0.994,0.217,0.003,-0.471,-2.567,1.132,-0.996,-0.081,0.063,0.226,-2.682,-1.813,-0.849,-0.035,0.549,-2.139,-0.424,2.178
600.0,-0.976,-0.002,0.269,0.494,1.757,0.431,-0.995,0.218,0.004,-0.54,-2.38,1.05,-1.001,-0.083,0.063,0.56,-2.87,-1.75,-0.854,-0.043,0.544,-0.394,-0.554,1.658
620.0,-0.981,0.006,0.281,0.907,3.491,0.211,-0.996,0.217,0.003,-0.458,-2.38,1.05,-1.003,-0.085,0.061,0.42,-2.867,-1.75,-0.855,-0.034,0.539,0.878,-0.254,1.54
640.0,-0.991,0.003,0.288,0.845,2.906,0.21,-0.993,0.216,0.001,-0.399,-2.38,1.086,-1.001,-0.083,0.063,0.42,-2.733,-1.75,-0.861,-0.029,0.549,-0.458,-0.087,1.519
660.0,-0.985,0.002,0.294,0.645,2.145,0.071,-0.995,0.216,0.0,-0.304,-2.446,1.173,-1.003,-0.082,0.069,0.556,-2.798,-1.682,-0.862,-0.037,0.547,-0.732,-0.45,1.086
680.0,-0.987,0.002,0.286,0.283,1.077,0.13,-0.996,0.219,0.002,-0.289,-2.57,1.14,-1.003,-0.081,0.063,0.494,-2.8,-1.68,-0.854,-0.042,0.547,1.451,-0.603,1.057
700.0,-0.984,0.003,0.279,0.347,0.363,-0.062,-0.995,0.218,0.003,-0.442,-2.283,1.176,-1.001,-0.081,0.065,0.413,-2.59,-1.54,-0.854,-0.024,0.552,2.09,-0.7,1.593
720.0,-0.983,0.005,0.277,0.42,0.21,-0.202,-0.996,0.215,0.002,-0.192,-2.228,1.127,-1.006,-0.084,0.062,0.15,-2.657,-1.54,-0.859,-0.024,0.548,1.118,-0.746,1.612
740.0,-0.984,0.004,0.277,0.327,0.404,-0.375,-0.995,0.216,0.006,-0.11,-2.14,1.15,-1.001,-0.081,0.066,0.469,-2.66,-1.409,-0.854,-0.032,0.549,0.993,-1.2,0.807
760.0,-0.983,0.003,0.274,0.103,0.908,-0.505,-0.997,0.217,0.003,-0.035,-2.065,1.012,-1.006,-0.081,0.061,0.49,-2.66,-1.4,-0.849,-0.037,0.553,3.141,-1.356,0.282
780.0,-0.985,0.007,0.279,-0.084,1.117,-0.564,-0.995,0.215,0.001,0.0,-2.064,1.031,-1.001,-0.083,0.061,0.726,-2.778,-1.442,-0.858,-0.023,0.557,3.817,-1.744,0.505
800.0,-0.99,0.005,0.287,-0.49,0.35,-0.7,-0.999,0.215,0.001,0.0,-2.161,1.19,-1.003,-0.081,0.063,0.636,-2.8,-1.672,-0.855,-0.015,0.551,3.15,-2.03,1.12
820.0,-0.979,0.003,0.276,-0.49,-0.56,-0.84,-0.993,0.214,0.003,-0.008,-2.054,1.19,-1.002,-0.083,0.064,0.753,-2.677,-1.434,-0.852,-0.031,0.54,2.38,-2.38,0.56
840.0,-0.981,0.003,0.276,-0.35,-0.7,-0.91,-0.996,0.218,0.0,-0.07,-2.24,1.196,-1.003,-0.081,0.065,0.715,-2.725,-1.4,-0.851,-0.021,0.552,1.47,-1.82,-0.56
860.0,-0.987,0.008,0.274,0.219,-0.768,-1.166,-0.994,0.215,0.004,-0.079,-2.24,1.271,-1.002,-0.081,0.064,0.612,-2.563,-1.4,-0.855,-0.016,0.546,1.133,-1.82,-1.494
880.0,-0.986,0.004,0.271,0.471,-0.378,-1.259,-0.995,0.22,0.005,-0.207,-2.236,1.327,-1.003,-0.082,0.062,0.378,-2.627,-1.453,-0.863,-0.005,0.532,1.434,-1.724,-0.392
900.0,-0.988,0.0,0.274,0.678,-0.221,-1.024,-0.995,0.216,0.001,-0.124,-2.173,1.25,-1.003,-0.081,0.065,0.025,-2.415,-1.409,-0.868,-0.003,0.521,1.238,-1.193,1.743
920.0,-0.99,0.001,0.274,0.426,-0.392,-1.075,-0.994,0.221,0.004,-0.001,-2.24,1.19,-1.003,-0.082,0.062,0.052,-2.505,-1.4,-0.873,-0.001,0.534,-0.061,-0.405,3.852
940.0,-0.992,0.008,0.277,0.557,-0.682,-1.185,-0.995,0.218,0.004,-0.278,-1.962,1.19,-1.004,-0.082,0.06,0.161,-2.471,-1.449,-0.867,-0.004,0.544,0.735,1.391,5.605
960.0,-0.992,0.007,0.277,0.925,-0.54,-1.064,-0.994,0.221,0.002,-0.28,-1.96,1.05,-1.0,-0.083,0.062,0.245,-2.493,-1.47,-0.876,0.015,0.538,-0.94,1.108,8.455
980.0,-0.986,0.001,0.275,0.578,0.009,-0.797,-0.993,0.218,0.004,-0.071,-1.682,0.98,-0.999,-0.082,0.065,0.532,-2.407,-1.422,-0.874,-0.02,0.524,-2.033,0.725,8.56
1000.0,-0.986,0.0,0.275,0.533,-0.011,-0.53,-0.994,0.219,0.002,-0.35,-1.75,0.98,-0.999,-0.083,0.064,0.51,-2.121,-1.51,-0.864,-0.038,0.526,-1.19,0.071,7.087
1020.0,-0.987,0.0,0.272,0.891,-0.04,-0.632,-0.998,0.215,0.003,-0.42,-1.68,0.98,-1.0,-0.083,0.065,0.646,-2.152,-1.6,-0.852,-0.037,0.53,3.102,-0.458,3.426
1040.0,-0.983,0.005,0.276,0.888,0.283,-0.7,-0.992,0.217,-0.001,-0.226,-1.745,0.98,-1.001,-0.08,0.062,0.603,-1.976,-1.572,-0.848,-0.022,0.524,6.057,-0.414,1.523
1060.0,-0.981,0.009,0.273,0.393,0.21,-0.847,-0.993,0.218,0.001,-0.335,-1.625,0.93,-1.01,-0.081,0.062,0.962,-2.041,-1.484,-0.849,-0.008,0.528,5.621,-0.055,1.792
1080.0,-0.982,0.009,0.265,0.038,0.152,-1.111,-0.996,0.216,-0.002,0.0,-1.61,0.77,-1.008,-0.082,0.065,0.946,-2.034,-1.517,-0.855,-0.0,0.532,4.909,0.187,3.763
1100.0,-0.98,0.003,0.268,-0.063,0.94,-1.281,-0.994,0.213,-0.001,0.109,-1.663,0.822,-1.002,-0.083,0.064,0.804,-1.748,-1.54,-0.86,0.001,0.524,4.98,0.673,3.844
1120.0,-0.981,-0.002,0.262,-0.293,1.885,-1.33,-1.002,0.218,-0.0,0.506,-1.79,1.031,-1.002,-0.082,0.059,0.64,-1.715,-1.54,-0.862,-0.008,0.537,2.918,1.271,2.077
1140.0,-0.985,-0.0,0.225,-2.277,5.827,-1.389,-1.0,0.217,0.002,0.628,-1.953,0.996,-1.003,-0.077,0.054,0.3,-2.083,-1.532,-0.861,-0.013,0.561,0.23,1.477,0.002
1160.0,-0.998,0.004,0.205,-6.089,16.384,-2.319,-0.993,0.216,0.003,0.592,-1.715,0.806,-1.005,-0.08,0.053,0.265,-2.409,-1.454,-0.854,-0.037,0.575,-0.324,2.136,-1.867
1180.0,-1.028,0.006,0.284,-5.669,18.447,-3.37,-0.993,0.211,0.0,0.394,-1.495,0.806,-1.008,-0.082,0.054,0.521,-3.245,-1.361,-0.881,-0.048,0.587,-1.545,0.956,-2.117
1200.0,-1.001,0.01,0.325,-2.513,9.425,-2.286,-0.992,0.213,-0.006,0.063,-1.59,0.924,-1.005,-0.083,0.061,0.214,-3.519,-1.19,-0.877,-0.046,0.583,-4.449,-1.438,-3.572
1220.0,-0.961,-0.001,0.297,0.845,1.776,-1.776,-0.993,0.214,-0.006,-0.043,-1.964,1.224,-1.008,-0.083,0.064,0.699,-3.918,-1.263,-0.858,-0.047,0.561,-6.363,-4.445,-5.882
1240.0,-0.955,-0.007,0.237,2.589,0.023,-1.688,-1.001,0.217,-0.005,-0.589,-2.413,1.526,-1.005,-0.08,0.062,0.632,-3.635,-1.335,-0.849,-0.054,0.533,-3.181,-5.985,-7.623
1260.0,-0.983,-0.0,0.228,2.268,1.345,-1.333,-0.996,0.217,0.001,-0.768,-2.725,1.609,-1.004,-0.082,0.064,0.838,-3.562,-1.477,-0.852,-0.044,0.521,3.794,-5.507,-8.163
1280.0,-1.006,0.006,0.237,0.809,3.314,-1.604,-0.996,0.221,0.001,-0.666,-2.438,1.51,-0.998,-0.078,0.064,0.55,-3.032,-1.624,-0.868,-0.021,0.513,7.923,-3.728,-8.369
1300.0,-1.014,0.01,0.261,0.645,3.765,-1.68,-0.995,0.221,0.001,-0.547,-2.33,1.299,-0.998,-0.08,0.066,0.483,-2.565,-1.757,-0.876,0.01,0.501,8.287,-3.499,-8.522
1320.0,-1.013,-0.001,0.27,1.917,0.695,-1.652,-0.996,0.217,0.001,-0.122,-2.265,1.31,-0.996,-0.08,0.066,0.212,-2.011,-1.902,-0.871,0.025,0.49,4.97,-2.939,-8.061
1340.0,-0.989,-0.006,0.234,0.703,0.271,-1.273,-0.993,0.217,-0.001,-0.05,-2.198,1.204,-1.0,-0.079,0.063,0.276,-1.472,-1.957,-0.855,0.033,0.502,0.235,-1.324,-6.055
1360.0,-0.987,-0.008,0.225,-0.186,3.023,-1.423,-0.994,0.216,-0.003,0.181,-2.091,1.006,-1.002,-0.083,0.06,0.419,-1.737,-2.03,-0.86,0.03,0.508,-2.579,0.202,-3.605
1380.0,-0.993,-0.001,0.247,0.123,3.522,-1.46,-0.993,0.218,0.002,0.238,-1.828,0.98,-1.005,-0.084,0.058,0.142,-1.949,-1.752,-0.859,0.008,0.494,-0.473,1.225,-1.72
1400.0,-0.99,-0.002,0.256,0.42,2.052,-1.126,-0.994,0.218,0.005,0.025,-1.569,0.98,-1.004,-0.084,0.061,0.42,-2.17,-1.75,-0.863,0.008,0.495,1.114,1.781,0.193
1420.0,-0.989,-0.006,0.253,0.42,0.052,-0.632,-0.995,0.218,-0.0,-0.122,-1.325,0.859,-1.005,-0.08,0.057,0.629,-2.38,-1.888,-0.86,0.005,0.495,2.588,2.507,0.999
1440.0,-0.998,-0.006,0.238,1.115,-0.628,-0.76,-0.996,0.218,-0.002,-0.14,-1.34,0.77,-0.884,-0.082,0.059,0.418,-2.315,-1.564,-0.865,0.025,0.515,2.409,2.974,1.106
1460.0,-0.998,0.007,0.235,0.98,0.14,-1.05,-0.993,0.217,0.0,-0.04,-1.366,0.72,-0.994,-0.082,0.061,-0.245,-2.31,-1.54,-0.866,0.012,0.528,1.629,3.285,1.294
1480.0,-1.001,0.003,0.24,0.42,0.262,-0.876,-0.993,0.217,-0.003,-0.185,-1.085,0.7,-0.999,-0.081,0.059,-0.171,-2.189,-1.671,-0.87,0.007,0.517,2.704,3.222,3.473
1500.0,-1.002,0.0,0.248,0.42,-0.443,-0.631,-0.994,0.216,-0.005,-0.28,-1.133,0.669,-0.999,-0.079,0.061,0.185,-2.101,-1.68,-0.874,-0.005,0.509,5.062,3.288,4.536
1520.0,-0.999,-0.002,0.242,0.559,-2.129,-0.894,-0.995,0.214,-0.004,-0.26,-1.31,0.669,-1.002,-0.084,0.059,0.346,-2.153,-1.614,-0.882,0.002,0.538,4.517,3.111,4.55
1540.0,-0.992,0.005,0.234,0.21,-2.59,-1.26,-0.996,0.216,-0.003,-0.388,-1.26,0.731,-1.002,-0.08,0.056,0.21,-2.66,-1.61,-0.872,0.0,0.541,2.313,2.524,3.836
1560.0,-0.993,0.005,0.231,-0.566,-2.515,-1.336,-0.994,0.217,-0.004,-0.828,-1.238,0.673,-1.003,-0.081,0.059,0.14,-2.52,-1.54,-0.878,-0.013,0.532,0.525,1.615,3.501
1580.0,-0.993,0.004,0.232,-0.63,-2.38,-1.54,-0.994,0.214,-0.005,-0.662,-1.204,0.77,-1.001,-0.074,0.061,0.488,-2.52,-1.808,-0.871,-0.026,0.525,0.14,2.17,3.57
1600.0,-0.993,0.001,0.236,-0.413,-2.641,-1.726,-0.995,0.215,-0.006,-0.49,-1.316,0.792,-1.004,-0.083,0.061,-0.307,-2.402,-2.023,-0.877,-0.04,0.517,2.743,1.767,3.114
1620.0,-0.994,0.003,0.248,0.021,-3.591,-1.816,-0.994,0.214,-0.003,-0.541,-1.383,0.781,-1.003,-0.086,0.061,0.347,-2.263,-1.903,-0.876,-0.023,0.525,2.604,0.88,2.066
1640.0,-1.003,0.002,0.244,0.125,-3.843,-1.82,-0.994,0.215,0.001,-0.681,-1.334,0.546,-1.0,-0.079,0.058,0.28,-2.17,-1.89,-0.877,-0.02,0.519,1.119,0.908,0.957
1660.0,-1.003,-0.003,0.243,0.22,-3.85,-1.929,-0.997,0.216,-0.007,-0.229,-1.392,0.47,-1.004,-0.08,0.061,-0.05,-2.112,-1.89,-0.878,-0.028,0.52,-0.068,0.91,-0.323
1680.0,-0.997,-0.006,0.242,0.82,-3.565,-1.96,-0.994,0.21,-0.006,0.016,-1.14,0.248,-1.002,-0.086,0.059,0.557,-2.035,-1.837,-0.879,-0.031,0.521,-0.026,0.838,-1.686
1700.0,-0.988,-0.01,0.241,0.856,-3.217,-1.96,-0.99,0.214,-0.012,0.07,-0.84,0.039,-1.002,-0.079,0.062,0.14,-2.1,-1.75,-0.878,-0.021,0.513,1.44,0.141,-1.953
1720.0,-0.988,-0.014,0.24,0.77,-3.039,-1.842,-0.997,0.207,-0.0,0.07,-0.84,-0.139,-1.001,-0.088,0.061,-0.471,-1.926,-1.615,-0.876,-0.015,0.512,0.872,-0.223,-1.636
1740.0,-0.984,-0.013,0.241,0.77,-2.726,-1.776,-0.999,0.215,-0.01,-0.208,-0.972,-0.076,-1.0,-0.085,0.058,0.867,-1.617,-1.61,-0.876,-0.015,0.511,0.42,-0.321,-1.539
1760.0,-0.986,-0.014,0.244,0.924,-2.66,-1.621,-0.998,0.21,-0.008,0.396,-1.155,0.247,-1.005,-0.084,0.06,0.91,-1.742,-1.478,-0.877,-0.018,0.509,1.24,-0.616,-2.077
1780.0,-0.99,-0.014,0.248,1.274,-2.593,-1.44,-0.995,0.223,-0.001,0.452,-1.231,0.373,-1.003,-0.082,0.057,0.976,-1.697,-1.47,-0.877,-0.017,0.502,3.244,-1.021,-2.172
1800.0,-0.985,-0.012,0.251,1.33,-2.106,-1.35,-0.993,0.212,-0.007,-0.067,-0.842,0.482,-0.996,-0.079,0.06,0.313,-1.389,-1.804,-0.87,-0.005,0.492,3.691,-0.912,-1.509
1820.0,-0.985,-0.012,0.258,1.387,-1.845,-1.293,-0.996,0.211,-0.008,0.14,-1.05,0.77,-0.995,-0.078,0.064,0.257,-0.511,-1.74,-0.869,0.004,0.486,2.61,-0.289,-0.217
1840.0,-0.989,-0.017,0.26,1.847,-2.033,-1.115,-0.995,0.212,-0.008,0.432,-0.969,0.838,-0.991,-0.08,0.069,2.499,0.563,-1.568,-0.875,0.033,0.491,-0.41,0.55,1.444
1860.0,-0.99,-0.023,0.255,3.118,-3.089,-1.075,-0.988,0.221,0.001,0.627,0.151,0.271,-0.989,-0.036,0.076,-0.383,2.955,-1.583,-0.877,0.044,0.522,-10.682,2.071,2.811
1880.0,-0.987,-0.023,0.239,3.64,-3.11,-1.35,-0.983,0.225,-0.002,-1.221,1.6,-0.34,-1.001,-0.048,0.067,-6.046,3.72,-1.881,-0.882,0.019,0.522,-12.534,1.8,3.832
1900.0,-0.985,-0.02,0.228,3.436,-0.38,-1.524,-0.995,0.201,-0.009,0.668,2.249,-0.809,-0.997,-0.091,0.053,-2.53,5.019,-1.485,-0.882,-0.024,0.511,-8.648,0.317,3.675
1920.0,-0.987,-0.02,0.234,2.681,2.58,-1.854,-0.994,0.214,-0.01,1.736,2.933,-1.026,-1.005,-0.062,0.053,-1.244,5.52,-1.046,-0.88,-0.029,0.509,4.564,-0.522,3.311
1940.0,-0.995,-0.019,0.246,2.719,3.246,-2.071,-0.995,0.216,-0.005,1.693,3.829,-1.336,-1.004,-0.04,0.053,-8.369,5.981,-0.56,-0.876,-0.003,0.512,10.89,-0.525,3.469
1960.0,-0.994,-0.022,0.251,2.638,3.451,-1.78,-0.992,0.203,-0.014,2.532,4.605,-1.762,-0.999,-0.085,0.054,-11.868,6.451,0.566,-0.882,0.0,0.516,11.742,-1.043,3.844
1980.0,-0.999,-0.033,0.244,2.619,4.659,-1.47,-0.991,0.206,-0.013,2.73,5.092,-2.443,-1.008,-0.113,0.053,-8.598,6.328,1.756,-0.895,-0.029,0.521,13.698,-1.37,4.627
2000.0,-1.005,-0.037,0.243,4.464,5.724,-1.47,-0.992,0.214,-0.014,3.229,6.297,-2.59,-0.998,-0.106,0.037,-7.56,6.947,2.999,-0.895,-0.055,0.508,27.427,0.528,5.888
2020.0,-0.986,-0.041,0.231,5.734,4.351,-1.331,-1.006,0.196,-0.034,3.319,6.176,-2.771,-0.992,-0.086,0.035,-8.929,7.669,3.668,-0.887,-0.024,0.461,36.076,-0.05,6.935
2040.0,-0.971,-0.049,0.214,5.311,5.365,-1.33,-0.996,0.189,-0.026,3.677,6.464,-2.413,-1.003,-0.1,0.028,-9.185,8.408,4.122,-0.886,0.01,0.432,35.67,1.901,10.346
2060.0,-0.979,-0.055,0.219,4.499,7.76,-1.543,-0.985,0.186,-0.024,4.024,7.49,-2.066,-1.017,-0.116,0.017,-5.058,8.503,5.044,-0.896,0.017,0.419,31.579,2.911,13.521
2080.0,-0.978,-0.057,0.225,4.19,8.381,-2.253,-0.973,0.183,-0.029,3.937,9.086,-2.135,-1.019,-0.076,0.021,-4.341,8.249,5.615,-0.903,0.004,0.411,31.702,3.884,14.35
2100.0,-0.97,-0.057,0.221,3.012,9.028,-2.38,-0.978,0.221,-0.023,1.996,10.278,-1.598,-0.995,-0.05,0.033,-9.082,10.14,5.342,-0.89,0.0,0.403,31.581,5.61,14.407
2120.0,-0.963,-0.055,0.209,0.563,9.834,-2.285,-1.01,0.208,-0.027,-0.981,10.702,0.075,-0.994,-0.018,0.042,-12.072,13.222,5.4,-0.88,0.01,0.405,33.439,6.752,14.382
2140.0,-0.968,-0.05,0.204,-0.27,10.209,-2.202,-1.019,0.161,-0.061,-3.057,10.581,2.223,-1.015,-0.05,0.043,-11.78,16.794,5.264,-0.883,0.026,0.415,34.182,9.47,17.798
2160.0,-0.979,-0.044,0.204,-0.894,10.677,-2.084,-1.016,0.161,-0.086,-3.561,6.31,5.503,-1.026,-0.07,0.051,-11.54,21.857,6.865,-0.898,0.032,0.423,38.12,10.163,23.812
2180.0,-0.987,-0.036,0.198,-1.939,11.366,-1.831,-1.041,0.169,-0.092,-1.476,-6.332,9.858,-1.059,-0.049,0.038,-10.869,22.214,7.521,-0.906,0.06,0.43,44.623,12.794,28.708
2200.0,-0.992,-0.029,0.191,-3.476,12.452,-1.36,-1.026,0.174,-0.096,0.146,-13.736,12.714,-1.059,0.011,0.019,-14.578,23.784,7.714,-0.922,0.082,0.447,53.83,12.81,32.13
2220.0,-1.005,-0.022,0.196,-5.858,13.402,-0.705,-1.018,0.199,-0.054,-4.294,-18.556,12.691,-1.049,-0.037,0.04,-18.882,29.028,9.083,-0.914,0.129,0.447,58.1,11.41,32.48
2240.0,-1.012,-0.02,0.206,-7.832,13.231,-0.037,-0.991,0.199,-0.103,-2.695,-19.55,11.49,-1.1,-0.092,0.065,-13.415,31.174,10.207,-0.885,0.136,0.452,59.664,11.966,31.268
2260.0,-1.009,-0.024,0.208,-8.459,11.369,0.651,-0.959,0.253,-0.097,-5.607,-9.507,10.945,-1.128,-0.05,0.022,-11.512,34.339,11.999,-0.887,0.158,0.464,60.338,10.928,30.545
2280.0,-0.995,-0.025,0.201,-8.462,9.323,1.316,-0.999,0.326,0.022,-21.904,6.426,10.596,-1.108,-0.033,0.004,-15.662,37.319,13.667,-0.882,0.182,0.46,59.736,11.332,30.139
2300.0,-1.004,-0.027,0.186,-8.866,8.79,1.75,-1.012,0.156,0.01,-22.145,6.519,10.248,-1.105,-0.088,0.004,-10.191,38.643,13.755,-0.887,0.202,0.445,58.2,10.008,28.965
2320.0,-1.002,-0.038,0.161,-9.238,9.456,1.675,-0.955,0.104,-0.017,2.595,8.83,14.007,-1.105,-0.119,0.015,4.422,41.834,13.04,-0.875,0.227,0.449,52.752,9.511,26.809
2340.0,-0.999,-0.031,0.148,-10.682,11.317,1.168,-0.979,0.191,-0.048,12.954,10.685,15.35,-1.098,-0.081,0.015,21.08,38.29,10.995,-0.891,0.266,0.472,40.016,9.162,25.254
2360.0,-0.999,-0.009,0.158,-11.063,12.26,1.082,-1.013,0.249,-0.041,10.114,10.424,14.904,-1.206,-0.033,-0.047,37.31,13.58,3.22,-0.896,0.25,0.473,26.716,8.5,24.073
2380.0,-1.003,0.015,0.163,-13.563,13.252,1.88,-0.978,0.235,-0.031,8.337,10.523,14.096,-0.969,-0.061,-0.254,21.525,37.571,0.523,-0.895,0.242,0.468,23.241,8.526,23.453
2400.0,-1.02,0.035,0.168,-16.19,13.907,2.321,-0.976,0.227,-0.074,11.732,8.943,12.492,-0.892,-0.089,-0.246,29.82,33.81,0.21,-0.883,0.262,0.464,17.827,8.138,21.624
2420.0,-1.037,0.054,0.198,-17.108,12.115,2.395,-0.983,0.287,-0.088,13.28,7.249,9.802,-0.778,-0.033,-0.303,33.25,30.73,-1.96,-0.861,0.271,0.464,10.691,8.583,18.842
2440.0,-1.05,0.063,0.216,-14.224,7.126,2.762,-0.95,0.288,-0.06,6.185,9.598,7.467,-0.822,0.192,0.085,19.81,9.94,-4.76,-0.859,0.279,0.463,4.162,8.514,15.315
2460.0,-1.039,0.047,0.221,-11.377,3.914,3.148,-0.981,0.272,-0.109,2.717,8.057,5.022,-0.917,0.262,0.445,-4.48,-30.1,-2.1,-0.851,0.285,0.465,-2.186,7.515,10.275
2480.0,-1.037,0.032,0.221,-9.685,1.644,2.918,-1.003,0.277,-0.112,1.888,7.082,3.125,-0.821,0.194,0.399,-33.261,-80.715,3.513,-0.848,0.289,0.467,-7.415,7.089,3.404
2500.0,-1.049,0.041,0.224,-7.909,0.357,2.815,-0.986,0.237,-0.085,-3.55,7.073,3.026,-0.928,0.019,0.28,-33.243,-110.315,5.579,-0.851,0.304,0.468,-11.566,6.399,-3.097
2520.0,-1.044,0.041,0.254,-5.351,-1.327,2.563,-1.006,0.226,-0.116,2.37,5.103,1.95,-1.036,-0.073,0.175,-16.716,-131.393,4.853,-0.865,0.318,0.467,-16.971,4.359,-8.054
2540.0,-1.038,0.043,0.279,-3.222,-4.254,1.514,-0.999,0.294,-0.119,-1.889,2.286,1.02,-1.063,0.002,0.064,-7.164,-141.016,3.412,-0.881,0.316,0.454,-22.48,1.982,-12.273
2560.0,-1.014,0.049,0.255,-1.059,-5.943,0.425,-1.0,0.307,-0.119,-6.828,-1.942,0.823,-1.137,0.044,-0.024,-1.006,-136.172,5.837,-0.897,0.297,0.437,-22.096,0.948,-16.188
2580.0,-0.995,0.06,0.238,3.979,-5.886,0.42,-0.977,0.274,-0.086,-0.404,-2.577,0.04,-1.189,0.059,-0.079,-3.207,-123.874,13.364,-0.905,0.278,0.429,-18.507,-0.074,-18.576
2600.0,-0.987,0.077,0.199,6.168,-4.216,0.979,-0.96,0.352,-0.062,0.869,-2.192,-2.202,-1.14,-0.11,-0.15,-1.738,-110.816,12.66,-0.913,0.261,0.421,-6.769,-2.271,-19.733
2620.0,-0.978,0.077,0.176,5.415,-3.085,0.886,-0.975,0.245,-0.108,1.556,-1.492,-4.673,-1.061,-0.237,-0.255,12.998,-95.866,3.368,-0.905,0.259,0.408,10.555,-5.155,-20.54
2640.0,-0.961,0.087,0.151,4.335,-0.095,0.298,-0.961,0.262,-0.086,4.768,-1.212,-5.974,-0.939,-0.142,-0.263,27.412,-75.025,-3.868,-0.896,0.272,0.403,20.153,-7.183,-21.169
2660.0,-0.958,0.096,0.152,3.245,3.246,-0.364,-0.98,0.294,-0.063,5.322,0.25,-6.656,-0.915,-0.089,-0.221,26.331,-47.24,-5.708,-0.881,0.284,0.399,23.899,-8.418,-21.123
2680.0,-0.967,0.097,0.17,2.87,2.806,-1.195,-0.998,0.234,-0.067,6.208,3.11,-7.864,-0.937,-0.017,-0.185,22.472,-33.156,-8.245,-0.853,0.302,0.389,23.872,-8.562,-20.792
2700.0,-0.981,0.102,0.185,3.532,0.091,-2.28,-0.993,0.245,-0.122,6.531,3.32,-9.615,-0.869,0.07,-0.141,4.604,-14.943,-10.177,-0.845,0.302,0.372,19.349,-7.123,-22.376
2720.0,-1.014,0.102,0.2,7.147,-2.481,-3.307,-0.984,0.237,-0.104,7.919,3.038,-11.074,-0.898,0.112,-0.094,-49.926,10.122,-20.157,-0.87,0.295,0.375,15.921,-5.673,-24.347
2740.0,-1.042,0.099,0.198,8.555,-4.451,-4.43,-0.99,0.239,-0.09,10.017,3.649,-13.159,-0.927,0.19,0.062,-47.09,16.81,-20.449,-0.9,0.324,0.411,12.285,-6.582,-28.001
2760.0,-1.049,0.103,0.19,7.997,-5.172,-4.887,-0.991,0.263,-0.111,8.566,4.168,-15.184,-1.093,-0.083,0.431,-11.076,-0.357,-19.351,-0.915,0.328,0.421,8.928,-9.607,-33.055
2780.0,-1.047,0.111,0.205,5.561,-6.647,-5.129,-0.99,0.226,-0.109,9.92,3.518,-17.204,-1.0,-0.114,0.359,20.861,-4.027,-18.006,-0.904,0.312,0.404,4.781,-11.8,-35.896
2800.0,-1.031,0.115,0.209,4.814,-10.097,-5.373,-0.963,0.236,-0.078,14.42,4.5,-20.688,-0.974,0.027,0.129,37.202,6.239,-19.097,-0.911,0.313,0.404,5.03,-13.238,-35.544
2820.0,-1.015,0.118,0.193,4.55,-11.514,-5.32,-0.949,0.271,-0.068,9.765,9.128,-25.892,-1.06,0.138,0.167,42.103,15.614,-22.181,-0.906,0.311,0.416,6.047,-13.501,-34.009
2840.0,-1.007,0.122,0.187,4.715,-12.164,-5.32,-0.997,0.24,-0.097,12.448,9.757,-30.423,-1.042,0.1,0.146,34.571,19.97,-26.291,-0.914,0.291,0.427,10.492,-13.452,-30.682
2860.0,-1.031,0.104,0.208,6.675,-14.5,-5.393,-0.983,0.239,-0.078,19.258,13.237,-37.765,-1.073,0.039,0.163,22.288,20.439,-28.787,-0.927,0.236,0.386,17.71,-13.318,-30.903
2880.0,-1.038,0.08,0.21,9.305,-16.914,-5.905,-0.971,0.272,-0.054,21.962,21.675,-43.916,-1.022,-0.04,0.201,14.688,19.086,-28.304,-0.948,0.252,0.4,19.012,-12.2,-32.576
2900.0,-1.037,0.06,0.193,11.633,-17.988,-6.792,-1.012,0.27,-0.056,21.635,28.776,-48.633,-0.972,-0.058,0.17,2.191,20.288,-24.58,-0.947,0.262,0.44,13.025,-13.057,-34.765
2920.0,-1.042,0.035,0.187,13.396,-19.066,-7.817,-1.09,0.146,-0.061,21.225,34.155,-52.695,-0.992,-0.021,0.147,-7.467,20.77,-22.496,-0.956,0.248,0.435,5.779,-16.307,-35.627
2940.0,-1.035,0.025,0.173,14.807,-19.63,-9.679,-1.106,0.081,-0.04,24.925,40.574,-53.711,-1.003,-0.026,0.16,-13.2,20.571,-22.353,-0.959,0.216,0.409,1.532,-18.291,-35.77
2960.0,-1.029,0.02,0.162,15.254,-19.077,-10.981,-1.176,0.097,-0.035,27.125,46.243,-53.55,-1.0,-0.133,0.14,-11.525,20.014,-23.687,-0.971,0.199,0.409,-1.031,-17.976,-35.093
2980.0,-1.012,-0.001,0.156,15.535,-15.786,-11.593,-1.244,0.106,-0.063,30.858,51.565,-53.318,-1.008,-0.127,0.127,6.921,18.558,-24.94,-0.987,0.184,0.418,-0.897,-18.803,-31.771
3000.0,-1.005,-0.011,0.143,15.067,-10.645,-11.814,-1.359,0.169,-0.005,67.363,39.06,-48.573,-1.012,-0.117,0.147,6.456,20.168,-23.716,-0.985,0.159,0.425,1.545,-20.426,-27.109
3020.0,-1.011,-0.027,0.125,13.58,-3.99,-11.62,-1.301,0.218,0.037,84.547,36.68,-48.874,-1.013,-0.155,0.153,4.697,21.002,-19.494,-0.965,0.124,0.445,9.746,-21.655,-21.667
3040.0,-0.976,-0.066,0.128,13.79,1.26,-12.11,-0.937,0.156,-0.248,15.681,69.824,-64.805,-1.006,-0.208,0.146,12.969,19.596,-12.734,-0.928,0.101,0.484,17.264,-24.316,-15.584
3060.0,-0.897,-0.143,0.154,16.274,8.519,-13.257,-0.922,0.037,-0.35,-26.297,67.207,-65.183,-0.997,-0.145,0.131,12.042,18.244,-7.589,-0.864,0.155,0.481,13.607,-29.168,-11.304
3080.0,-0.852,-0.207,0.201,18.14,11.94,-13.617,-0.818,-0.044,-0.021,-46.469,30.652,-46.638,-1.007,0.004,0.092,-8.007,17.365,-6.147,-0.784,0.175,0.507,-7.903,-33.441,-3.763
3100.0,-0.85,-0.251,0.239,20.676,9.137,-13.995,-0.789,0.504,0.538,-60.682,-58.199,-4.399,-1.019,-0.099,0.079,-13.031,17.536,-7.181,-0.741,0.107,0.588,-11.315,-28.086,8.384
3120.0,-0.968,-0.259,0.251,21.944,-0.551,-14.675,-0.637,0.454,0.252,-60.218,-103.994,34.703,-0.982,-0.214,0.083,7.003,18.199,-6.599,-0.807,0.108,0.639,-11.428,-21.289,18.293
3140.0,-1.096,-0.21,0.245,21.84,-11.83,-16.87,-0.892,0.158,0.022,-57.143,-140.07,59.939,-0.984,-0.111,0.078,8.531,17.951,-3.94,-0.915,0.096,0.692,-10.811,-16.947,25.293
3160.0,-1.129,-0.124,0.185,14.892,-13.124,-17.278,-0.955,0.041,-0.108,-45.139,-140.07,65.675,-0.988,-0.101,0.08,-4.686,16.79,-1.224,-0.972,0.145,0.724,-3.073,-20.864,32.631
3180.0,-1.083,-0.105,0.128,9.684,-4.367,-13.98,-1.188,-0.118,-0.451,-44.961,-129.943,64.424,-1.011,-0.131,0.054,-6.812,15.499,0.779,-0.873,0.192,0.722,-0.322,-30.635,37.819
3200.0,-1.074,-0.134,0.141,3.302,3.63,-9.368,-1.183,-0.058,-0.623,-58.41,-100.828,56.612,-1.011,-0.111,0.028,-5.263,13.673,1.742,-0.809,0.254,0.716,-13.241,-34.814,42.065
3220.0,-1.014,-0.174,0.167,3.012,-0.259,-5.538,-1.126,-0.64,-0.83,-41.754,-81.264,38.462,-1.024,-0.127,0.018,-7.513,11.828,3.461,-0.789,0.202,0.731,-36.165,-38.194,46.648
3240.0,-0.952,-0.183,0.177,5.853,-6.061,-1.813,-0.984,-0.457,-0.513,9.456,-61.116,28.783,-1.032,-0.128,0.02,-4.914,8.938,5.133,-0.815,0.195,0.712,-47.472,-42.425,54.2
3260.0,-0.904,-0.193,0.165,8.896,-11.037,1.142,-0.905,-0.349,-0.448,51.68,-47.744,25.016,-1.021,-0.178,0.012,-6.498,6.985,9.073,-0.836,0.217,0.733,-54.179,-48.166,58.448
3280.0,-0.922,-0.184,0.176,6.438,-11.04,2.377,-0.886,-0.094,-0.189,74.137,-40.273,27.564,-1.038,-0.115,0.036,-3.174,3.171,11.888,-0.862,0.164,0.746,-53.821,-54.337,57.899
3300.0,-0.99,-0.168,0.226,1.397,-12.863,2.45,-0.926,-0.049,-0.241,50.491,-40.702,22.72,-1.013,-0.097,0.065,-5.304,6.014,11.836,-0.875,0.151,0.741,-47.131,-62.699,57.266
3320.0,-1.031,-0.147,0.255,-2.478,-18.261,2.929,-0.685,-0.131,-0.848,44.717,-11.225,10.445,-0.987,-0.114,0.066,-0.807,8.502,11.593,-0.879,0.13,0.712,-39.871,-66.015,56.868
3340.0,-1.028,-0.151,0.261,-5.747,-22.469,3.89,-0.927,0.006,-0.044,42.935,23.578,3.838,-0.973,-0.095,0.072,2.032,11.845,10.456,-0.939,0.166,0.704,-37.646,-71.386,54.06
3360.0,-1.03,-0.153,0.259,-8.456,-24.258,4.984,-0.859,0.352,-0.092,-35.44,9.194,0.487,-0.998,-0.065,0.031,3.526,13.098,8.428,-0.955,0.167,0.704,-36.8,-75.144,50.377
3380.0,-1.05,-0.142,0.255,-10.878,-25.341,5.911,-1.083,0.306,-0.018,-48.356,14.253,2.323,-0.988,-0.026,-0.02,1.972,11.771,6.993,-0.95,0.198,0.753,-41.605,-78.787,46.574
3400.0,-1.063,-0.126,0.249,-11.863,-26.408,6.377,-1.213,0.089,0.046,-23.982,13.924,1.941,-0.979,-0.045,0.019,-5.28,10.369,6.497,-0.962,0.171,0.73,-47.406,-80.561,43.448
3420.0,-1.069,-0.066,0.214,-12.332,-26.286,6.954,-1.061,0.053,-0.017,-0.413,9.405,2.327,-0.991,0.002,0.032,-18.146,8.985,5.399,-0.928,0.121,0.673,-42.533,-81.25,41.927
3440.0,-1.043,-0.014,0.178,-13.643,-21.444,7.468,-0.984,0.132,-0.026,2.2,10.843,3.92,-0.98,-0.017,0.009,-26.839,9.063,4.142,-0.901,0.17,0.729,-36.052,-81.827,37.94
3460.0,-0.976,0.002,0.174,-12.012,-9.584,7.396,-0.98,0.133,-0.025,-0.541,11.778,3.5,-0.968,-0.09,0.051,-26.957,13.308,1.371,-0.843,0.166,0.739,-32.676,-83.211,37.296
3480.0,-0.955,0.012,0.187,-5.88,-2.03,8.12,-0.974,0.12,-0.019,0.97,11.958,3.4,-0.991,-0.063,0.01,-19.538,17.093,-1.568,-0.719,0.131,0.688,-27.871,-86.191,39.048
3500.0,-0.883,0.031,0.183,0.758,0.861,9.331,-0.972,0.14,-0.019,5.581,11.852,3.818,-1.015,-0.089,0.027,-12.863,21.469,-4.605,-0.661,0.153,0.672,-19.514,-83.625,42.335
3520.0,-0.838,0.009,0.195,5.402,4.905,9.719,-1.008,0.138,-0.034,6.584,12.646,3.58,-1.022,-0.123,0.028,2.726,25.592,-4.363,-0.672,0.186,0.685,-21.267,-81.477,42.058
3540.0,-0.831,-0.011,0.221,8.82,9.1,9.87,-1.02,0.129,-0.027,6.332,13.985,3.232,-0.98,-0.101,-0.063,11.62,29.513,-5.064,-0.639,0.129,0.7,-16.433,-81.026,39.324
3560.0,-0.856,-0.027,0.217,10.08,9.66,7.98,-0.982,0.137,-0.025,3.93,17.938,1.107,-0.966,-0.077,-0.122,11.24,28.124,-8.976,-0.618,0.125,0.7,-6.426,-79.887,33.172
3580.0,-0.882,-0.019,0.18,6.72,14.42,4.27,-0.97,0.139,-0.046,2.306,20.57,-0.004,-0.984,-0.002,-0.108,4.872,19.347,-11.037,-0.602,0.142,0.674,4.485,-77.959,28.886
3600.0,-0.888,-0.008,0.166,4.201,22.352,0.087,-0.993,0.229,-0.015,3.231,21.518,1.381,-0.964,0.01,-0.092,-14.094,13.39,-12.312,-0.573,0.169,0.672,6.196,-77.271,26.736
3620.0,-0.875,0.012,0.149,2.199,29.083,-2.463,-1.069,0.196,-0.013,10.644,20.268,2.249,-0.98,-0.096,-0.077,-12.983,12.648,-15.315,-0.528,0.187,0.692,7.454,-72.142,24.812
3640.0,-0.871,0.005,0.139,1.823,35.034,-3.753,-1.005,0.106,-0.113,3.504,25.108,0.184,-1.022,-0.069,0.048,-9.774,17.546,-17.161,-0.411,0.197,0.675,4.708,-70.184,22.726
3660.0,-0.859,0.008,0.138,2.077,40.034,-4.528,-0.963,0.06,-0.103,4.75,25.716,2.514,-1.014,-0.079,0.018,-10.001,26.361,-17.244,-0.42,0.172,0.644,1.124,-68.656,22.557
3680.0,-0.835,0.004,0.139,3.224,42.352,-6.29,-0.944,0.147,-0.099,10.278,20.52,3.777,-0.975,-0.156,-0.126,-9.64,26.089,-17.034,-0.422,0.174,0.675,1.621,-63.238,22.387
3700.0,-0.832,-0.034,0.133,4.809,43.68,-8.349,-0.967,0.111,-0.107,-0.316,25.858,1.303,-0.99,-0.035,-0.08,-12.467,22.724,-18.968,-0.416,0.212,0.688,-1.928,-59.306,22.046
3720.0,-0.828,-0.041,0.117,6.381,42.466,-10.63,-1.006,0.034,-0.083,5.538,27.018,-0.27,-0.977,-0.115,-0.093,-18.34,26.459,-19.657,-0.4,0.202,0.695,-7.752,-57.428,20.54
3740.0,-0.808,-0.022,0.083,4.319,42.25,-12.265,-0.986,0.095,-0.188,7.518,26.136,1.663,-0.987,-0.189,-0.15,-13.459,24.791,-19.094,-0.36,0.174,0.748,-8.058,-56.676,19.898
3760.0,-0.806,0.007,0.072,-3.728,43.58,-12.837,-0.987,0.229,-0.12,10.383,20.543,1.17,-0.99,-0.063,-0.129,-15.852,21.51,-17.572,-0.327,0.171,0.78,-8.232,-55.167,20.712
3780.0,-0.834,0.027,0.078,-7.806,42.443,-13.183,-0.97,0.214,-0.099,3.817,26.805,-3.393,-1.044,-0.078,-0.136,-2.499,15.339,-17.297,-0.32,0.195,0.777,-8.309,-53.206,20.246
3800.0,-0.829,0.023,0.081,-7.422,43.072,-13.54,-1.035,0.095,-0.114,-0.174,27.019,-3.983,-0.939,-0.21,-0.073,3.937,26.081,-18.257,-0.31,0.204,0.763,-8.335,-54.214,17.687
3820.0,-0.828,0.02,0.087,-5.138,43.09,-13.247,-1.049,0.143,-0.162,14.25,25.576,-1.689,-0.941,-0.205,-0.174,0.89,17.501,-15.427,-0.261,0.213,0.719,-12.904,-58.625,14.969
3840.0,-0.849,0.012,0.088,-4.418,42.626,-11.72,-0.999,0.154,-0.223,11.791,24.392,-3.074,-1.121,-0.239,-0.165,19.75,3.181,-12.612,-0.197,0.18,0.753,-16.891,-55.842,11.409
3860.0,-0.864,-0.02,0.074,-4.565,44.762,-10.605,-0.966,0.161,-0.169,7.085,22.363,-6.816,-1.011,-0.116,-0.221,13.93,10.57,-12.95,-0.218,0.149,0.755,-12.084,-52.686,11.101
3880.0,-0.877,-0.036,0.071,-3.087,45.468,-10.46,-0.966,0.165,-0.201,1.905,23.066,-7.671,-1.008,-0.159,-0.069,5.04,5.81,-14.42,-0.215,0.159,0.753,-4.195,-52.329,10.924
3900.0,-0.888,-0.046,0.061,-2.04,43.653,-11.319,-1.001,0.061,-0.295,2.185,14.965,-8.803,-0.919,-0.131,-0.236,-1.19,10.57,-12.53,-0.157,0.202,0.775,-2.334,-51.653,10.783
3920.0,-0.877,-0.075,0.034,-2.621,41.702,-13.415,-0.968,0.115,-0.187,5.675,19.513,-10.81,-0.998,-0.215,-0.203,7.886,5.698,-13.998,-0.151,0.215,0.789,-4.057,-46.738,10.902
3940.0,-0.879,-0.086,-0.002,-2.03,43.403,-14.908,-0.992,0.084,-0.207,12.882,20.002,-8.221,-0.966,-0.111,-0.11,3.826,9.853,-13.209,-0.158,0.208,0.793,-12.013,-44.579,10.565
3960.0,-0.881,-0.079,0.0,-1.903,44.89,-14.835,-0.973,0.097,-0.273,13.609,18.063,-8.55,-1.005,-0.125,-0.236,3.106,8.04,-12.398,-0.135,0.186,0.814,-15.662,-44.297,10.319
3980.0,-0.92,-0.034,-0.014,-7.574,43.599,-11.394,-0.991,0.076,-0.23,11.37,15.958,-9.194,-0.866,-0.221,-0.191,3.918,11.665,-11.405,-0.1,0.178,0.853,-11.787,-41.441,10.471
4000.0,-0.928,-0.017,-0.042,-10.859,42.632,-8.264,-0.988,0.108,-0.213,15.951,14.973,-9.755,-1.013,-0.184,-0.117,12.619,12.786,-7.299,-0.101,0.184,0.865,-7.314,-36.383,10.593
4020.0,-0.92,-0.016,-0.041,-6.79,41.44,-6.72,-0.985,0.123,-0.253,11.649,13.613,-10.106,-0.979,-0.177,-0.265,3.891,9.68,-6.779,-0.13,0.22,0.875,-7.031,-36.849,12.197
4040.0,-0.92,-0.021,-0.037,-2.131,39.445,-5.422,-1.045,0.067,-0.253,6.511,13.08,-9.467,-0.973,-0.23,-0.15,-0.519,17.842,-6.508,-0.14,0.257,0.924,-11.221,-37.213,11.213
4060.0,-0.969,-0.073,-0.047,-7.84,37.24,-1.75,-0.997,0.075,-0.242,8.969,12.88,-10.304,-0.945,-0.175,-0.141,2.747,16.531,-4.221,-0.157,0.253,0.932,-18.585,-36.887,9.547
4080.0,-1.017,-0.135,-0.048,-9.8,34.79,-1.61,-0.934,0.112,-0.276,6.68,11.244,-11.645,-0.913,-0.177,-0.23,-0.99,16.387,-6.311,-0.127,0.202,0.924,-18.507,-37.603,10.266
4100.0,-1.037,-0.119,-0.07,-1.888,27.954,-6.6,-0.972,0.11,-0.337,-1.143,9.928,-12.129,-0.97,-0.229,-0.264,6.251,13.03,-8.408,-0.092,0.191,0.925,-10.279,-33.681,11.039
4120.0,-1.019,-0.118,-0.045,2.537,28.359,-9.776,-0.991,0.054,-0.221,-1.025,13.077,-12.245,-0.965,-0.124,-0.19,4.562,9.01,-8.006,-0.097,0.202,0.92,-7.025,-31.671,11.702
4140.0,-0.997,-0.127,-0.035,-0.001,23.131,-9.405,-0.979,0.049,-0.177,1.113,15.927,-8.732,-0.897,-0.216,-0.153,0.454,11.58,-8.744,-0.032,0.242,0.978,-18.193,-35.898,12.573
4160.0,-0.96,-0.119,-0.103,-2.138,15.195,-9.321,-0.999,0.007,-0.387,-2.938,11.298,-7.086,-0.929,-0.28,-0.213,10.16,14.3,-7.435,0.009,0.185,1.018,-25.732,-32.274,10.072
4180.0,-0.943,-0.076,-0.201,3.973,19.852,-8.894,-0.977,0.018,-0.361,-1.68,10.045,-6.93,-0.955,-0.108,-0.267,14.149,12.966,-6.293,-0.032,0.135,0.995,-24.635,-31.239,7.16
4200.0,-1.017,-0.045,-0.16,0.358,27.584,-4.481,-0.951,0.106,-0.251,1.301,9.932,-6.711,-0.95,-0.151,-0.225,6.911,7.813,-9.116,-0.056,0.098,0.984,-16.951,-30.262,3.291
4220.0,-1.087,-0.055,-0.07,-3.736,22.603,-3.634,-0.947,0.108,-0.264,-1.801,11.064,-6.571,-0.962,-0.26,-0.193,11.992,7.787,-8.827,0.01,0.088,1.039,-8.174,-27.258,0.042
4240.0,-1.068,-0.1,-0.074,-4.519,13.847,-5.653,-0.935,0.05,-0.33,-3.323,13.382,-7.084,-0.963,-0.183,-0.227,12.21,10.809,-8.635,0.002,0.125,1.02,-12.16,-26.671,-3.01
4260.0,-1.031,-0.147,-0.158,-1.239,10.61,-8.304,-0.897,0.073,-0.35,-5.412,13.464,-6.438,-0.932,-0.267,-0.295,6.232,12.174,-11.395,0.007,0.154,1.014,-20.916,-26.787,-7.123
4280.0,-0.995,-0.141,-0.173,0.038,13.712,-7.519,-0.88,0.074,-0.288,-5.85,14.657,-5.235,-0.91,-0.282,-0.338,13.055,13.445,-10.185,-0.044,0.146,1.036,-33.157,-32.739,-14.066
4300.0,-0.987,-0.116,-0.14,-3.268,14.811,-3.666,-0.943,0.091,-0.191,-4.33,14.131,-6.2,-0.915,-0.147,-0.274,14.68,13.768,-9.691,0.01,0.038,1.031,-32.008,-37.117,-15.843
4320.0,-1.01,-0.066,-0.103,-5.255,9.728,-0.665,-0.992,0.205,-0.308,-12.7,12.742,-8.15,-0.906,-0.125,-0.178,0.547,13.192,-15.029,0.046,-0.006,1.034,-18.254,-38.111,-18.335
4340.0,-1.02,-0.02,-0.104,-4.249,3.661,0.838,-1.008,0.003,-0.39,-15.684,13.695,-10.782,-0.922,-0.25,-0.233,-1.563,12.022,-20.017,0.056,0.043,1.036,-10.221,-30.781,-17.22
4360.0,-1.022,-0.022,-0.155,-3.147,0.837,2.345,-0.969,-0.007,-0.313,-10.973,15.78,-13.373,-0.911,-0.273,-0.292,6.543,9.215,-21.186,0.001,0.228,1.045,-19.994,-31.975,-16.53
4380.0,-1.038,-0.079,-0.186,-6.418,5.781,3.703,-0.87,0.111,-0.142,-9.21,22.862,-13.615,-0.863,-0.172,-0.298,10.199,7.92,-20.675,0.031,0.127,1.054,-41.806,-33.145,-18.972
4400.0,-1.096,-0.165,-0.117,-6.211,-0.192,2.738,-0.942,0.05,-0.385,-11.399,19.661,-13.911,-0.929,-0.157,-0.184,-3.55,12.997,-20.659,0.067,0.015,1.056,-38.817,-31.819,-19.503
4420.0,-1.065,-0.152,-0.168,-6.516,-4.817,0.975,-0.927,-0.044,-0.393,-11.924,23.161,-12.843,-0.9,-0.176,-0.213,-8.657,12.403,-20.925,0.078,-0.01,1.057,-18.908,-27.965,-19.036
4440.0,-1.045,-0.051,-0.14,-9.226,-6.789,2.471,-0.986,-0.042,-0.482,-9.715,21.383,-11.937,-0.927,-0.361,-0.387,-6.295,2.377,-22.01,0.087,0.008,1.038,-0.607,-21.587,-19.067
4460.0,-1.081,-0.103,-0.155,-11.266,-15.011,3.707,-0.89,0.091,-0.287,-13.74,23.475,-17.183,-0.917,-0.374,-0.315,2.197,8.872,-22.144,0.05,0.134,1.012,-0.796,-23.671,-20.67
4480.0,-1.096,-0.109,-0.283,-11.038,-0.318,2.944,-1.017,0.114,-0.269,-19.626,25.104,-16.762,-0.94,-0.231,-0.27,2.194,6.3,-22.704,0.085,0.162,1.058,-20.671,-27.992,-23.358
4500.0,-1.105,-0.079,-0.239,-9.844,-0.574,2.591,-0.938,-0.203,-0.49,0.536,18.811,-13.977,-1.001,-0.229,-0.325,0.982,5.731,-21.323,0.136,0.05,1.081,-37.108,-26.204,-29.025
4520.0,-1.103,-0.069,-0.121,-8.986,-12.355,2.853,-0.931,0.064,-0.444,-4.571,19.968,-12.237,-0.903,-0.367,-0.349,1.89,2.71,-20.736,0.125,-0.086,1.035,-17.817,-22.076,-30.21
4540.0,-1.088,-0.081,-0.2,-4.837,-15.081,2.096,-0.881,-0.013,-0.381,-8.457,22.586,-10.653,-0.864,-0.282,-0.344,3.65,6.129,-21.253,0.077,-0.026,1.026,8.208,-16.511,-29.362
4560.0,-1.145,-0.02,-0.176,-5.128,-9.155,2.447,-0.914,0.015,-0.336,-15.579,20.5,-8.148,-0.911,-0.306,-0.258,-0.421,9.147,-19.505,0.045,0.037,1.06,24.187,-14.857,-26.013
4580.0,-1.212,-0.109,-0.081,-0.972,-25.035,2.043,-0.984,-0.145,-0.463,0.594,15.348,-2.95,-0.927,-0.263,-0.319,-4.392,7.966,-14.917,0.079,0.1,1.127,21.873,-14.762,-20.915
4600.0,-1.233,-0.145,-0.262,-4.544,-30.141,0.511,-0.821,0.054,-0.497,-4.782,14.933,-0.731,-0.909,-0.424,-0.275,-3.901,6.305,-4.475,0.15,0.139,1.197,9.094,-10.921,-16.07
4620.0,-1.239,-0.045,-0.294,-8.47,-19.53,11.27,-0.953,-0.118,-0.401,-3.455,13.208,1.344,-0.929,-0.322,-0.345,0.255,3.842,1.732,0.146,0.085,1.253,7.22,-5.241,-10.497
4640.0,-1.347,-0.232,-0.169,-1.47,-14.7,2.66,-0.952,0.026,-0.455,1.742,8.925,3.201,-0.961,-0.312,-0.351,-3.806,5.088,4.299,0.114,0.115,1.36,3.737,-9.533,-7.572
4660.0,-1.426,-0.079,-0.211,5.128,-31.466,3.701,-0.899,-0.089,-0.464,5.291,6.41,5.126,-0.959,-0.393,-0.432,0.708,-3.265,9.981,0.139,0.062,1.474,-4.054,-11.358,-5.375
4680.0,-1.418,-0.16,-0.379,6.208,-22.529,5.2,-0.952,-0.037,-0.471,11.409,1.138,5.458,-0.884,-0.348,-0.338,4.287,-1.363,14.802,0.196,0.051,1.515,3.407,-10.088,-3.667
4700.0,-1.43,-0.207,-0.233,4.915,-11.353,1.897,-0.967,0.06,-0.527,8.783,-4.067,4.244,-0.945,-0.308,-0.29,4.908,-1.776,15.001,0.212,0.077,1.565,4.359,-5.336,-4.156
4720.0,-1.45,-0.15,-0.299,8.365,-11.512,2.337,-0.875,-0.045,-0.498,6.216,-7.086,4.816,-0.929,-0.291,-0.36,-3.603,-2.963,15.872,0.201,0.062,1.562,7.159,-2.05,-2.565
4740.0,-1.425,-0.164,-0.263,16.761,-6.711,1.109,-0.912,-0.036,-0.449,6.78,-12.05,6.626,-0.882,-0.277,-0.372,-5.334,-6.45,16.438,0.235,0.077,1.442,17.793,-1.354,3.133
4760.0,-1.349,-0.143,-0.293,13.316,7.417,-0.273,-0.92,-0.016,-0.433,4.897,-12.606,8.607,-0.941,-0.255,-0.309,-2.576,-6.499,15.513,0.215,0.189,1.381,10.542,1.288,6.916
4780.0,-1.338,-0.138,-0.243,8.004,19.269,-1.964,-0.939,0.001,-0.425,5.114,-13.52,10.475,-0.957,-0.252,-0.29,-6.084,-9.23,14.365,0.144,0.091,1.241,4.114,2.398,7.623
4800.0,-1.378,-0.14,-0.153,8.579,19.46,-4.547,-0.937,-0.024,-0.429,10.278,-17.903,12.414,-0.891,-0.27,-0.302,-5.953,-5.669,14.971,0.151,0.08,1.169,13.372,4.768,9.842
4820.0,-1.361,-0.157,-0.208,10.722,12.008,-6.411,-0.896,-0.028,-0.438,11.238,-17.778,13.35,-0.942,-0.248,-0.299,-9.42,-6.367,16.264,0.197,0.126,1.174,18.763,11.6,10.738
4840.0,-1.32,-0.138,-0.238,10.848,12.877,-9.499,-0.902,0.019,-0.436,6.254,-16.494,13.2,-0.932,-0.249,-0.345,-7.925,-10.489,16.406,0.097,0.118,1.108,14.515,20.873,9.309
4860.0,-1.277,-0.075,-0.18,9.304,10.359,-5.556,-0.91,0.033,-0.412,5.206,-16.924,11.528,-0.933,-0.24,-0.313,-9.892,-11.014,16.982,0.083,0.067,1.044,9.239,22.377,6.998
4880.0,-1.256,-0.081,-0.162,8.594,9.931,-3.822,-0.92,0.059,-0.384,6.227,-17.0,9.348,-0.947,-0.241,-0.327,-8.19,-11.592,16.843,0.063,0.112,1.007,6.16,27.02,5.53
4900.0,-1.203,-0.11,-0.158,8.892,5.535,-3.383,-0.959,0.065,-0.397,6.037,-18.871,7.789,-0.935,-0.189,-0.381,-10.67,-13.309,15.554,0.117,0.078,1.012,-6.887,31.469,4.071
4920.0,-1.136,-0.12,-0.188,8.527,4.849,-2.691,-0.9,-0.004,-0.432,10.171,-19.54,5.418,-0.905,-0.234,-0.24,-8.532,-12.696,14.455,0.077,0.073,1.031,-12.32,34.44,3.08
4940.0,-1.124,-0.081,-0.166,6.427,3.639,0.201,-0.927,0.077,-0.382,9.358,-18.938,3.789,-0.928,-0.205,-0.261,-6.448,-13.403,11.964,0.034,0.075,1.057,-26.74,36.61,2.03
4960.0,-1.109,-0.007,-0.167,4.054,-0.883,1.963,-0.938,0.015,-0.419,3.545,-21.922,1.324,-0.972,-0.224,-0.319,-7.56,-13.219,10.818,-0.003,0.002,0.988,-25.69,42.91,1.96
4980.0,-1.111,-0.033,-0.165,-1.65,-1.438,3.001,-0.924,0.037,-0.36,2.525,-21.713,0.705,-0.963,-0.263,-0.328,-8.575,-12.191,11.865,-0.087,0.034,0.891,-14.311,46.003,3.985
5000.0,-1.089,-0.101,-0.182,-3.536,0.798,2.183,-0.97,0.039,-0.299,-0.114,-19.207,0.88,-0.899,-0.185,-0.31,-11.896,-12.172,12.293,-0.04,0.07,0.99,-18.609,52.863,7.252
5020.0,-1.082,-0.164,-0.199,0.367,2.771,0.594,-1.012,0.082,-0.368,-3.777,-22.684,1.854,-0.932,-0.203,-0.239,-12.627,-16.247,9.722,-0.165,-0.011,0.922,-15.018,58.015,7.836
5040.0,-1.101,-0.133,-0.177,1.19,3.166,2.59,-0.945,-0.064,-0.37,-7.864,-13.58,2.386,-0.977,-0.279,-0.24,-2.665,-19.978,9.286,-0.199,-0.041,0.715,-1.149,62.44,11.913
5060.0,-1.128,-0.093,-0.166,0.783,2.545,4.419,-0.962,-0.038,-0.407,-3.071,-13.75,2.47,-0.972,-0.18,-0.365,2.958,-20.123,13.983,-0.03,0.106,0.823,3.763,67.879,15.94
5080.0,-1.156,-0.108,-0.169,6.259,-0.511,4.589,-0.895,-0.026,-0.42,-9.068,-16.761,2.773,-1.005,-0.123,-0.352,1.812,-22.692,16.068,-0.169,0.137,0.872,-13.56,80.281,14.018
5100.0,-1.179,-0.129,-0.149,14.187,-3.292,5.01,-0.977,0.058,-0.294,0.84,-21.56,5.95,-0.945,-0.186,-0.219,-3.152,-20.331,15.323,-0.462,0.047,0.805,-10.412,88.956,13.034
5120.0,-1.2,-0.111,-0.125,12.956,-11.496,3.25,-0.992,0.027,-0.354,5.309,-24.005,7.64,-0.964,-0.165,-0.303,-4.037,-26.749,15.255,-0.413,-0.001,0.818,0.42,91.498,11.496
5140.0,-1.171,-0.056,-0.095,3.325,-21.366,3.299,-0.944,-0.01,-0.391,2.367,-23.032,9.148,-0.979,-0.128,-0.288,-8.079,-28.111,14.412,-0.367,0.057,0.842,8.234,102.245,7.233
5160.0,-1.154,-0.053,-0.095,-2.192,-24.718,5.419,-0.97,-0.027,-0.365,-1.367,-26.318,10.879,-0.955,-0.15,-0.31,-8.256,-26.458,13.795,-0.388,0.066,0.904,10.554,107.467,4.115
5180.0,-1.127,-0.074,-0.076,-1.27,-28.227,3.99,-0.967,0.048,-0.305,-1.454,-28.034,10.783,-0.983,-0.148,-0.29,-13.222,-29.345,13.113,-0.36,0.077,0.989,12.151,112.965,0.229
5200.0,-1.035,-0.023,-0.059,-2.455,-33.351,4.113,-0.966,0.055,-0.328,-1.489,-28.14,12.066,-0.965,-0.189,-0.237,-12.85,-28.17,14.765,-0.438,0.031,0.868,12.385,116.659,-12.208
5220.0,-0.968,-0.08,-0.036,-2.66,-35.91,5.81,-0.963,0.015,-0.339,-1.638,-28.594,13.919,-0.963,-0.213,-0.248,-4.775,-26.08,17.0,-0.488,0.041,0.701,29.389,115.304,-18.058
5240.0,-0.931,-0.128,0.015,-2.619,-40.045,6.0,-0.969,0.026,-0.304,-2.414,-30.685,13.721,-0.992,-0.155,-0.254,-1.581,-36.266,17.765,-0.387,0.157,0.935,30.59,119.684,-19.158
5260.0,-0.906,-0.131,0.029,1.283,-47.601,5.159,-0.983,0.068,-0.294,-7.047,-32.029,13.202,-0.99,-0.09,-0.195,-5.278,-39.713,17.117,-0.469,0.073,1.021,33.334,121.848,-23.327
5280.0,-0.879,-0.08,-0.004,7.489,-54.027,3.221,-0.982,0.077,-0.281,-11.474,-33.02,12.852,-0.97,-0.097,-0.236,-15.194,-37.709,16.706,-0.532,0.035,0.907,49.795,119.23,-25.378
5300.0,-0.792,-0.066,-0.073,7.005,-50.931,3.344,-1.004,0.071,-0.304,-7.589,-34.872,11.336,-0.989,-0.128,-0.182,-14.589,-41.32,17.827,-0.499,0.079,0.742,65.279,107.702,-25.749
5320.0,-0.8,0.006,-0.067,-1.852,-48.484,3.427,-0.979,0.08,-0.261,-6.953,-37.996,12.58,-1.014,-0.152,-0.184,-2.641,-41.865,17.904,-0.399,0.196,0.804,62.432,113.92,-26.88
5340.0,-0.801,0.021,-0.041,-8.68,-43.54,3.22,-0.993,0.054,-0.263,-7.224,-40.916,12.731,-0.976,-0.121,-0.188,4.06,-40.18,17.64,-0.471,0.27,0.902,40.22,125.919,-26.965
5360.0,-0.804,-0.0,0.038,-6.485,-39.289,4.948,-0.993,0.074,-0.201,-3.327,-41.488,13.323,-0.984,-0.084,-0.179,7.611,-42.775,17.422,-0.732,0.214,0.789,17.031,125.732,-24.626
5380.0,-0.8,-0.038,0.119,-3.752,-45.204,8.558,-0.94,0.084,-0.197,-7.038,-39.717,10.759,-1.015,-0.052,-0.075,12.712,-45.252,15.331,-0.703,0.106,0.668,13.79,110.896,-26.009
5400.0,-0.827,-0.009,0.036,-8.014,-54.347,9.223,-0.994,0.104,-0.252,-14.033,-39.548,17.142,-0.968,-0.094,-0.189,13.16,-39.48,15.61,-0.599,0.129,0.694,14.447,106.007,-32.396
5420.0,-0.801,-0.011,-0.014,-11.636,-52.439,9.24,-1.048,0.057,-0.172,-16.432,-43.5,17.239,-1.041,-0.08,-0.208,10.239,-51.951,16.376,-0.649,0.111,0.761,18.935,108.853,-31.366
5440.0,-0.768,-0.02,0.012,-13.292,-44.336,10.63,-0.991,0.007,-0.27,-10.4,-45.053,14.566,-1.073,-0.066,-0.072,14.35,-55.79,16.31,-0.791,0.024,0.714,34.888,105.652,-25.755
5460.0,-0.743,-0.039,0.06,-14.327,-37.955,10.94,-0.98,0.13,-0.093,-9.81,-44.088,18.525,-1.018,-0.039,-0.002,5.568,-55.813,18.017,-0.767,0.056,0.588,52.102,98.73,-23.65
5480.0,-0.764,-0.016,0.059,-17.604,-38.938,10.92,-1.014,0.144,-0.107,-11.619,-45.363,18.383,-0.946,-0.147,-0.146,8.476,-52.358,21.616,-0.627,0.176,0.579,54.741,101.513,-23.735
5500.0,-0.792,-0.013,0.071,-17.19,-40.645,10.92,-1.053,0.033,-0.239,-15.029,-50.79,23.401,-0.946,-0.063,-0.042,15.778,-56.956,17.053,-0.646,0.219,0.731,35.427,111.912,-23.397
5520.0,-0.883,-0.018,0.14,-10.426,-39.505,11.508,-1.018,0.099,-0.043,-5.079,-56.5,26.019,-0.911,-0.063,0.086,25.242,-45.861,13.771,-0.89,0.18,0.757,19.941,99.964,-20.533
5540.0,-0.927,-0.033,0.148,-9.726,-41.383,12.685,-1.07,0.168,-0.052,5.026,-59.726,20.734,-1.023,0.009,-0.018,17.513,-48.362,13.523,-0.912,0.051,0.617,24.149,83.694,-25.886
5560.0,-0.864,-0.031,0.127,-11.531,-41.895,13.02,-0.949,0.171,-0.115,-8.825,-55.51,18.337,-0.914,0.06,0.075,19.516,-39.352,5.866,-0.874,0.021,0.526,57.5,63.913,-42.639
5580.0,-0.783,-0.025,0.077,-19.929,-48.038,14.463,-0.899,0.152,-0.006,-12.717,-51.202,17.103,-0.894,0.098,0.154,10.57,-32.55,1.89,-0.728,0.09,0.51,93.052,52.642,-51.385
5600.0,-0.741,-0.023,-0.054,-23.724,-52.25,16.49,-0.889,0.161,0.012,-8.465,-44.464,15.467,-0.97,-0.019,0.068,7.777,-26.139,0.374,-0.66,0.123,0.506,112.338,49.309,-51.415
5620.0,-0.593,-0.055,-0.107,-13.491,-37.864,13.37,-0.933,0.105,0.063,-14.227,-39.29,14.498,-0.985,-0.015,0.14,5.292,-22.114,-0.332,-0.622,0.167,0.485,124.175,44.803,-40.723
5640.0,-0.425,-0.07,-0.035,-6.148,-14.146,-2.207,-0.915,0.089,0.061,-6.413,-32.058,15.133,-0.987,-0.033,0.126,-0.959,-14.359,0.685,-0.539,0.282,0.508,123.859,45.291,-30.694
5660.0,-0.4,-0.031,0.139,-3.519,-5.726,-11.606,-0.93,0.143,0.074,0.97,-24.32,15.916,-1.022,0.024,0.072,-8.147,-11.366,1.313,-0.489,0.287,0.556,118.838,57.518,-21.361
5680.0,-0.603,-0.008,0.224,4.37,-9.436,-7.793,-0.98,0.178,0.057,0.719,-19.265,14.064,-1.026,-0.04,0.068,-10.492,-9.553,2.026,-0.593,0.346,0.671,113.449,66.74,-10.312
5700.0,-0.868,-0.005,0.239,14.631,-19.505,4.74,-0.987,0.203,0.068,-0.533,-15.67,12.085,-0.986,-0.022,0.109,-9.478,-6.688,1.096,-0.765,0.488,0.752,78.4,60.48,-6.51
5720.0,-1.139,0.019,0.199,16.631,-18.29,4.169,-1.021,0.21,0.046,-1.614,-13.975,12.054,-1.028,-0.023,0.034,0.556,-8.632,-0.132,-0.96,0.529,0.692,38.678,57.826,-9.172
5740.0,-1.237,0.042,0.197,9.183,-8.027,-0.275,-1.042,0.195,0.041,-1.262,-13.732,10.365,-1.029,0.007,0.04,1.136,-10.957,-2.803,-1.096,0.563,0.672,6.407,45.313,-17.547
5760.0,-1.195,-0.012,0.149,5.692,3.096,0.084,-1.01,0.227,0.053,-1.104,-12.405,8.955,-0.946,-0.012,0.107,3.497,-9.103,-4.958,-1.212,0.561,0.68,-23.617,25.57,-31.843
5780.0,-1.125,-0.019,0.216,1.614,7.128,1.202,-0.992,0.216,0.032,1.251,-11.293,7.393,-0.955,-0.063,0.1,12.25,-6.747,-4.902,-1.173,0.386,0.649,-25.86,6.076,-31.203
5800.0,-1.054,0.03,0.257,-0.393,7.287,-0.288,-0.976,0.167,0.031,1.314,-10.858,7.156,-0.959,-0.065,0.104,12.227,-4.21,-3.403,-0.953,0.219,0.548,-12.029,-4.517,-20.899
5820.0,-0.98,0.015,0.245,-1.829,3.715,-1.093,-0.955,0.166,0.072,2.868,-9.568,6.72,-0.902,-0.038,0.171,3.346,3.154,0.065,-0.859,0.198,0.407,10.558,-5.311,-7.386
5840.0,-0.945,-0.007,0.183,-4.855,-0.407,-1.016,-0.989,0.206,0.086,2.662,-6.686,6.672,-0.903,0.074,0.287,-11.844,16.395,1.509,-0.838,0.203,0.342,11.931,-3.1,5.685
5860.0,-0.919,-0.025,0.177,-2.674,-1.091,-2.597,-0.986,0.188,0.056,2.617,-5.19,3.464,-0.925,0.097,0.27,-39.368,31.171,-2.045,-0.823,0.143,0.324,11.512,-1.882,5.684
5880.0,-0.951,-0.005,0.167,-1.567,-6.58,-3.133,-0.949,0.215,0.06,-0.552,-0.234,-1.656,-0.924,0.014,0.218,-44.185,50.23,-10.402,-0.819,0.085,0.34,17.853,-0.964,0.633
5900.0,-0.968,0.039,0.146,-2.635,-7.189,-2.903,-0.946,0.32,0.134,-0.149,5.669,-7.652,-1.009,0.013,0.112,-35.49,56.926,-19.015,-0.856,0.123,0.43,33.053,-2.115,-7.597
5920.0,-1.015,0.059,0.186,-5.45,-6.722,-3.819,-0.965,0.326,0.154,5.244,16.469,-14.018,-0.994,0.009,-0.042,-31.825,64.108,-25.622,-0.913,0.225,0.599,43.857,-6.597,-17.1
5940.0,-1.035,0.013,0.152,-6.51,-8.96,-4.27,-0.946,0.163,0.111,15.266,22.052,-19.644,-0.945,-0.024,-0.135,-20.884,63.835,-30.267,-0.932,0.408,0.724,49.167,-21.415,-21.192
5960.0,-0.951,-0.042,0.019,-11.06,-9.17,-5.11,-0.935,0.086,0.099,20.534,30.788,-20.676,-0.884,0.022,-0.253,-17.01,57.491,-30.976,-0.871,0.551,0.838,42.412,-38.917,-18.073
5980.0,-0.878,-0.001,-0.033,-10.64,10.5,-7.35,-0.964,0.15,0.096,21.891,42.301,-21.556,-1.01,-0.02,-0.144,-19.425,37.743,-33.509,-0.726,0.562,0.903,24.618,-55.946,-5.052
6000.0,-0.805,0.013,0.099,-5.862,28.516,-8.605,-0.893,0.068,0.071,24.759,55.76,-20.491,-1.144,-0.322,0.031,-10.791,29.947,-35.032,-0.623,0.525,0.905,5.428,-70.672,15.465
6020.0,-0.709,0.016,0.121,-2.949,31.931,-8.153,-0.9,0.144,0.102,35.196,61.944,-19.4,-1.08,-0.158,-0.004,10.919,32.025,-31.658,-0.61,0.49,0.854,-0.588,-83.03,31.457
6040.0,-0.604,-0.022,0.067,-0.42,34.65,-9.52,-0.985,0.263,0.0,33.228,68.21,-16.423,-0.958,0.061,0.019,-0.847,37.45,-31.78,-0.601,0.437,0.75,-0.366,-95.733,45.052
6060.0,-0.521,-0.019,0.064,1.571,39.04,-9.343,-1.101,0.182,-0.112,31.224,66.112,-14.586,-0.904,-0.083,-0.092,-23.27,38.488,-31.798,-0.585,0.454,0.667,-2.327,-102.53,58.689
6080.0,-0.481,-0.004,0.058,3.22,41.09,-8.12,-1.048,0.049,-0.197,26.088,63.103,-13.213,-0.925,-0.227,-0.358,-19.109,28.899,-28.094,-0.652,0.493,0.651,-21.453,-110.014,70.389
6100.0,-0.454,-0.026,0.037,6.654,46.148,-5.801,-0.986,0.044,-0.206,22.876,59.644,-12.764,-0.982,-0.258,-0.289,23.768,27.29,-25.528,-0.704,0.42,0.629,-47.618,-117.608,79.882
6120.0,-0.459,-0.06,0.0,14.726,50.12,-4.068,-1.008,0.108,-0.175,25.734,50.427,-13.477,-1.216,-0.135,-0.245,35.348,26.575,-23.321,-0.743,0.373,0.617,-58.515,-117.55,81.993
6140.0,-0.529,-0.103,0.025,15.707,62.575,-4.241,-0.987,0.123,-0.237,24.878,44.316,-14.137,-0.909,-0.036,-0.098,13.699,33.468,-23.655,-0.819,0.353,0.644,-64.074,-119.42,81.97
6160.0,-0.623,-0.097,0.092,9.076,65.818,-5.753,-0.997,0.161,-0.327,5.776,42.037,-12.774,-1.005,-0.196,-0.178,-1.482,27.903,-21.566,-0.807,0.352,0.628,-65.585,-121.857,82.053
6180.0,-0.779,-0.09,0.079,8.754,64.818,-10.686,-1.03,0.113,-0.32,-4.876,40.15,-13.071,-0.851,-0.299,-0.093,-10.388,34.466,-16.732,-0.787,0.382,0.544,-69.862,-121.807,81.276
6200.0,-0.969,-0.019,0.057,9.365,66.284,-15.068,-0.999,0.035,-0.312,-5.58,39.931,-14.809,-1.027,-0.202,-0.342,4.196,19.937,-11.752,-0.825,0.367,0.517,-78.375,-122.3,75.224
6220.0,-1.075,-0.064,0.078,9.904,66.313,-17.713,-0.949,0.04,-0.361,-1.555,35.987,-14.297,-0.977,-0.076,-0.291,5.855,16.127,-14.102,-0.799,0.257,0.564,-75.481,-123.056,68.652
6240.0,-1.019,-0.065,0.059,5.728,64.271,-15.29,-0.959,0.088,-0.187,-5.618,37.48,-13.5,-0.902,-0.062,-0.146,-6.823,21.191,-15.504,-0.646,0.181,0.586,-44.826,-122.797,64.732
6260.0,-0.932,-0.041,0.049,-1.661,57.571,-13.303,-1.035,0.014,-0.323,0.573,31.703,-12.802,-1.055,-0.28,-0.321,12.017,18.259,-13.814,-0.578,0.276,0.6,-26.51,-111.376,65.463
6280.0,-0.899,-0.023,0.015,0.76,47.003,-13.247,-0.996,0.013,-0.377,-2.675,29.614,-10.646,-0.956,-0.107,-0.311,15.115,17.603,-16.486,-0.612,0.347,0.65,-30.275,-105.716,66.928
6300.0,-0.875,-0.0,-0.047,6.033,48.965,-11.974,-1.012,0.048,-0.198,8.828,26.637,-11.155,-1.018,-0.104,-0.046,3.475,22.227,-18.922,-0.723,0.343,0.711,-51.42,-106.193,62.628
6320.0,-0.899,-0.006,-0.009,5.11,50.577,-7.731,-0.894,0.322,-0.261,4.039,31.883,-8.935,-0.955,-0.327,-0.162,-3.81,33.175,-15.502,-0.665,0.258,0.709,-57.75,-110.18,55.37
6340.0,-0.98,-0.041,0.006,4.868,34.72,-7.171,-1.032,-0.05,-0.281,-4.857,27.431,-9.423,-0.776,-0.317,-0.243,13.156,34.842,-10.701,-0.551,0.252,0.869,-47.67,-103.88,45.64
6360.0,-1.039,-0.043,-0.108,6.645,27.795,-9.489,-0.983,0.003,-0.227,5.493,27.791,-11.638,-0.931,-0.157,-0.316,23.978,24.571,-7.02,-0.644,0.286,0.826,-57.478,-102.398,40.257
6380.0,-1.093,-0.05,-0.108,4.228,27.507,-11.208,-0.918,0.141,-0.468,9.31,28.56,-10.85,-0.925,-0.05,-0.336,2.548,15.024,-10.599,-0.669,0.244,0.841,-61.81,-104.58,40.39
6400.0,-1.118,-0.079,-0.075,-1.839,25.042,-10.43,-0.956,-0.003,-0.344,-0.91,27.37,-13.09,-0.886,-0.307,-0.145,1.34,24.463,-14.637,-0.607,0.174,0.795,-37.886,-108.766,32.008
6420.0,-1.102,-0.103,-0.04,-2.456,19.399,-7.134,-0.827,0.048,-0.425,2.303,26.465,-16.05,-1.082,-0.123,-0.313,9.653,19.267,-11.58,-0.533,0.197,0.885,-40.32,-105.35,22.33
6440.0,-1.065,-0.141,-0.019,3.967,10.253,-5.807,-0.945,0.135,-0.36,-5.243,22.944,-14.283,-0.95,-0.201,-0.173,-0.749,31.142,-11.131,-0.524,0.122,0.977,-37.31,-101.29,22.54
6460.0,-1.05,-0.124,-0.056,7.846,8.767,-5.187,-1.048,-0.063,-0.356,-3.177,20.598,-14.688,-0.907,-0.382,-0.365,9.773,28.073,-10.734,-0.397,0.121,0.934,-36.284,-98.441,24.78
6480.0,-1.066,-0.069,-0.071,8.54,5.31,-3.315,-0.904,-0.014,-0.343,3.413,23.03,-11.783,-1.016,-0.128,-0.42,9.995,20.34,-6.729,-0.393,0.208,0.925,-43.625,-90.671,25.439
6500.0,-1.099,-0.033,-0.101,10.488,-7.566,-1.407,-0.925,0.006,-0.438,-1.321,22.816,-6.42,-0.907,-0.294,-0.328,2.03,19.95,-8.75,-0.455,0.176,0.887,-64.178,-90.992,20.432
6520.0,-1.097,-0.006,-0.159,12.23,-8.217,-0.831,-1.03,-0.013,-0.437,-9.519,13.142,-8.465,-0.955,-0.274,-0.255,7.208,17.556,-10.867,-0.311,0.074,0.895,-74.166,-90.487,15.296
6540.0,-1.097,-0.013,-0.16,6.253,-4.166,-1.171,-0.922,0.116,-0.321,-0.169,13.4,-8.089,-0.948,-0.138,-0.436,6.58,-0.35,-12.25,-0.199,-0.02,0.91,-59.564,-81.597,7.275
6560.0,-1.092,-0.059,-0.131,3.098,-5.234,-2.996,-0.928,0.092,-0.411,-12.179,19.705,-4.049,-0.91,-0.349,-0.347,2.15,-0.531,-11.775,-0.302,0.061,0.842,-50.526,-80.863,0.094
6580.0,-1.038,-0.071,-0.124,3.589,-6.178,-2.096,-1.022,0.017,-0.347,-14.046,17.167,-4.337,-0.895,-0.229,-0.24,17.5,0.07,-10.64,-0.105,0.023,0.916,-43.118,-80.682,-1.94
6600.0,-0.997,-0.074,-0.18,-0.034,-0.538,-0.788,-0.948,-0.136,-0.528,-3.233,6.305,0.205,-0.995,-0.164,-0.369,10.921,-14.483,-15.065,-0.046,0.056,0.96,-29.06,-76.589,-4.993
6620.0,-0.994,-0.108,-0.195,-1.796,2.582,-3.851,-0.899,0.04,-0.49,-5.367,4.547,1.14,-0.909,-0.283,-0.395,4.06,-15.19,-18.2,-0.003,0.023,0.974,-27.6,-70.582,-6.671
6640.0,-1.048,-0.09,-0.169,2.958,5.07,-4.005,-0.954,0.088,-0.419,-13.01,2.318,0.77,-0.949,-0.388,-0.267,20.144,-18.944,-18.0,-0.097,-0.022,0.954,-8.654,-61.813,-4.346
6660.0,-1.088,-0.126,-0.123,5.365,8.321,-0.303,-0.924,-0.001,-0.424,-11.379,2.175,1.473,-0.95,-0.269,-0.235,16.713,-13.944,-18.046,-0.081,0.075,0.946,0.63,-60.34,-4.83
6680.0,-1.094,-0.141,-0.15,5.841,2.616,1.563,-0.968,-0.001,-0.425,-11.265,4.464,6.568,-0.992,-0.177,-0.324,7.774,-9.74,-17.764,-0.08,0.175,1.019,-14.063,-59.156,-4.126
6700.0,-1.064,-0.147,-0.317,7.148,2.877,0.6,-0.95,-0.082,-0.431,-10.335,7.555,10.334,-0.86,-0.386,-0.361,6.234,-9.669,-14.932,-0.062,0.041,1.099,-17.72,-60.324,1.418
6720.0,-1.097,-0.091,-0.268,-0.799,17.326,-1.135,-0.92,0.04,-0.361,-5.048,7.174,12.532,-0.821,-0.281,-0.322,13.724,-10.443,-14.295,0.005,0.038,1.13,-8.818,-55.894,7.149
6740.0,-1.169,-0.043,-0.282,-7.966,26.346,-2.647,-0.975,0.083,-0.413,-10.531,5.07,14.041,-0.985,-0.23,-0.217,11.596,-6.146,-14.962,-0.112,0.103,1.097,-11.826,-56.962,8.048
6760.0,-1.212,-0.017,-0.303,-5.453,33.058,-0.851,-0.967,0.016,-0.505,-8.229,-0.848,15.194,-0.917,-0.337,-0.135,1.631,-5.677,-10.93,0.071,-0.033,0.979,-8.269,-59.318,9.691
6780.0,-1.25,-0.177,-0.368,-4.434,44.56,-2.94,-0.867,-0.007,-0.504,-2.621,-3.159,17.496,-0.806,-0.344,-0.263,3.06,-4.539,-4.15,0.188,-0.037,0.983,13.997,-42.21,10.401
6800.0,-1.283,-0.267,-0.339,-7.684,53.318,-3.919,-0.839,0.087,-0.401,-4.744,-1.233,18.015,-0.935,-0.292,-0.24,1.509,-2.692,-3.462,0.118,0.042,1.088,15.28,-35.032,10.239
6820.0,-1.455,-0.194,-0.133,-4.023,46.293,-3.476,-0.973,0.113,-0.376,-9.485,-0.354,15.452,-0.953,-0.341,-0.317,-4.612,-4.733,-2.494,0.106,0.113,1.168,4.968,-31.137,6.949
6840.0,-1.425,-0.189,-0.191,1.16,19.981,1.023,-0.945,0.015,-0.494,-1.76,-2.482,12.439,-0.9,-0.32,-0.312,-5.055,-2.901,0.644,0.201,0.033,1.129,5.659,-25.186,4.427
6860.0,-1.401,-0.215,-0.393,2.492,4.15,-4.108,-0.897,0.036,-0.468,3.241,-0.896,8.819,-0.988,-0.293,-0.322,-1.872,-4.037,3.334,0.245,0.003,1.181,9.267,-12.173,5.305
6880.0,-1.435,-0.076,-0.333,7.842,-0.591,-0.669,-0.915,0.085,-0.462,4.269,-0.551,5.108,-0.98,-0.296,-0.327,0.395,-4.705,4.847,0.211,0.031,1.285,13.766,-7.749,7.249
6900.0,-1.452,-0.116,-0.358,6.728,-10.086,0.547,-0.878,0.104,-0.477,5.765,-4.384,2.472,-0.89,-0.279,-0.304,0.455,-4.76,6.946,0.223,0.053,1.361,15.017,-7.718,9.728
6920.0,-1.257,-0.144,-0.379,2.172,-0.173,-2.283,-0.897,0.081,-0.437,4.977,-5.653,2.228,-0.894,-0.289,-0.315,-0.837,-6.73,8.348,0.303,0.07,1.431,3.823,-6.459,10.632
6940.0,-1.355,-0.152,-0.27,6.441,-1.339,-1.281,-0.923,0.075,-0.443,6.091,-7.024,1.994,-0.919,-0.313,-0.272,-1.529,-5.452,9.167,0.318,0.059,1.447,-8.914,-2.978,10.154
6960.0,-1.367,-0.123,-0.286,4.221,-5.482,-0.103,-0.913,0.074,-0.455,7.238,-10.856,0.868,-0.97,-0.275,-0.26,-1.027,-6.152,11.562,0.336,-0.092,1.289,0.883,-2.215,10.297
6980.0,-1.355,-0.124,-0.362,-3.295,-9.722,0.007,-0.912,0.063,-0.45,6.964,-12.267,-0.036,-0.889,-0.283,-0.312,-6.045,-6.207,13.302,0.382,-0.064,1.221,11.044,7.209,5.413
7000.0,-1.319,-0.105,-0.374,-4.275,-5.67,-1.72,-0.88,0.094,-0.422,7.567,-12.106,-1.681,-0.908,-0.321,-0.273,-5.856,-4.413,13.952,0.251,0.06,1.198,-1.216,12.272,0.086
7020.0,-1.306,-0.084,-0.294,-2.61,-4.072,-2.744,-0.915,0.093,-0.391,5.673,-12.521,-4.068,-0.953,-0.247,-0.29,-2.829,-5.981,14.287,0.185,0.03,1.167,-16.213,13.427,-4.681
7040.0,-1.318,-0.1,-0.268,-0.595,-10.858,-3.141,-0.916,0.082,-0.425,7.568,-14.306,-5.611,-0.983,-0.175,-0.313,-9.85,-7.582,12.412,0.18,-0.032,1.118,-17.913,15.048,-8.944
7060.0,-1.31,-0.127,-0.325,0.787,-13.938,-3.386,-0.919,0.093,-0.388,9.557,-14.584,-7.036,-0.955,-0.276,-0.285,-8.638,-4.886,12.561,0.144,-0.064,1.031,4.929,21.225,-11.454
7080.0,-1.277,-0.127,-0.287,-3.616,-11.598,-2.762,-0.933,0.059,-0.411,10.031,-15.79,-9.181,-0.935,-0.303,-0.234,-1.743,-6.135,13.359,0.197,-0.062,1.048,11.27,31.342,-12.077
7100.0,-1.251,-0.092,-0.281,-6.72,-13.624,-0.932,-0.957,0.067,-0.472,9.537,-19.421,-11.043,-0.943,-0.203,-0.294,-4.143,-7.109,10.649,0.172,0.022,1.132,2.913,35.219,-13.939
7120.0,-1.199,-0.059,-0.285,-6.476,-13.339,3.371,-0.952,0.101,-0.358,8.306,-18.943,-13.567,-0.919,-0.227,-0.356,-13.033,-9.989,8.325,0.047,0.01,0.978,-1.607,37.566,-16.57
7140.0,-1.185,-0.067,-0.223,-6.042,-12.592,6.491,-0.917,0.041,-0.421,3.605,-17.337,-14.831,-0.952,-0.281,-0.258,-4.184,-13.16,6.917,0.008,0.016,0.903,-1.057,44.52,-15.972
7160.0,-1.213,-0.122,-0.196,-7.275,-19.173,7.347,-0.902,-0.002,-0.408,8.704,-17.772,-13.891,-0.907,-0.202,-0.267,-9.16,-13.422,6.663,0.02,0.044,1.01,-14.505,51.882,-12.301
7180.0,-1.178,-0.134,-0.242,-8.507,-17.224,6.65,-0.929,0.076,-0.388,2.711,-19.761,-9.421,-0.977,-0.306,-0.277,-2.536,-13.367,6.658,-0.008,0.0,1.007,-23.272,56.14,-10.496
7200.0,-1.112,-0.13,-0.246,-5.95,-13.3,5.95,-0.934,-0.114,-0.36,6.386,-16.99,-5.649,-0.957,-0.213,-0.309,-2.424,-14.31,7.85,-0.035,-0.1,0.92,-11.044,58.14,-9.385
7220.0,-1.106,-0.107,-0.211,0.103,-11.704,5.548,-0.919,0.03,-0.37,1.283,-14.637,-1.833,-0.949,-0.221,-0.176,-4.375,-17.143,8.607,-0.073,-0.047,0.869,15.26,71.75,-12.67
7240.0,-1.125,-0.104,-0.2,0.176,-7.05,7.098,-0.941,-0.014,-0.397,-9.7,-15.326,1.417,-0.98,-0.258,-0.32,-4.742,-16.227,11.488,-0.145,0.016,0.9,21.123,73.49,-11.612
7260.0,-1.142,-0.075,-0.105,1.761,-9.804,7.28,-0.934,-0.077,-0.381,-0.634,-18.034,5.808,-0.962,-0.25,-0.327,-3.95,-16.199,14.315,-0.146,-0.008,0.919,19.943,78.466,-10.71
7280.0,-1.132,-0.086,-0.118,7.692,-23.792,5.901,-0.956,-0.071,-0.439,3.43,-20.44,9.59,-0.984,-0.207,-0.071,-3.756,-18.765,16.387,-0.207,0.001,0.886,24.897,86.039,-12.766
7300.0,-1.105,-0.078,-0.173,6.933,-20.663,3.521,-0.977,0.033,-0.286,10.01,-25.9,9.73,-0.992,-0.19,-0.356,-10.844,-28.633,17.35,-0.317,0.003,0.776,38.978,96.272,-18.168
7320.0,-1.167,-0.06,-0.118,-4.277,-22.404,6.014,-1.007,0.187,-0.35,2.319,-26.528,8.592,-0.968,-0.221,-0.333,-12.198,-35.208,15.398,-0.324,0.041,0.774,49.116,104.501,-23.605
7340.0,-1.197,-0.065,-0.095,-3.595,-34.828,5.22,-0.938,0.043,-0.383,-5.22,-26.263,6.103,-0.956,-0.225,-0.225,-11.284,-32.922,16.466,-0.324,0.178,0.859,46.08,113.354,-28.923
7360.0,-1.158,-0.061,-0.086,-2.06,-37.445,3.975,-0.958,-0.061,-0.397,1.248,-29.99,9.107,-0.947,-0.234,-0.138,-11.536,-36.081,19.109,-0.466,0.228,0.864,23.975,122.578,-33.344
7380.0,-1.11,-0.06,-0.057,-1.82,-37.862,4.101,-0.986,-0.011,-0.339,4.13,-36.12,11.2,-0.977,-0.216,-0.222,-0.948,-38.257,21.949,-0.523,0.087,0.789,17.473,119.633,-33.634
7400.0,-1.043,-0.072,-0.013,-1.128,-39.155,4.116,-0.98,0.042,-0.308,6.987,-36.679,13.708,-1.017,-0.072,-0.299,-3.206,-40.931,21.983,-0.465,0.114,0.87,35.997,120.657,-33.404
7420.0,-0.935,-0.09,0.005,4.195,-43.179,3.162,-0.944,0.05,-0.34,-2.075,-31.018,13.661,-0.913,-0.228,-0.157,1.75,-41.23,20.86,-0.443,0.204,0.883,29.417,128.407,-35.164
7440.0,-0.863,-0.077,-0.004,10.5,-49.131,2.596,-0.994,0.032,-0.331,-12.394,-35.487,13.31,-0.926,-0.243,-0.005,9.083,-37.435,20.486,-0.62,0.041,0.784,31.627,121.997,-38.765
7460.0,-0.811,-0.027,-0.041,11.07,-51.052,2.983,-0.997,0.013,-0.337,-12.81,-41.786,12.691,-0.983,-0.027,-0.183,7.766,-39.307,26.779,-0.66,-0.049,0.628,73.89,113.279,-45.759
7480.0,-0.775,-0.022,-0.038,6.877,-44.941,4.179,-0.978,0.035,-0.32,-5.532,-44.351,13.651,-0.982,-0.172,-0.06,5.361,-37.186,21.679,-0.569,0.025,0.567,105.167,109.429,-57.823
7500.0,-0.785,-0.046,0.041,7.249,-41.163,5.307,-0.982,0.021,-0.273,0.393,-46.809,15.913,-0.993,-0.174,-0.313,6.907,-35.146,25.597,-0.486,0.295,0.682,94.258,125.411,-64.692
7520.0,-0.817,-0.055,0.102,11.456,-48.072,4.48,-0.953,0.055,-0.217,3.662,-46.569,16.278,-0.984,-0.077,-0.097,3.57,-41.09,22.4,-0.605,0.317,0.703,71.141,136.232,-61.998
7540.0,-0.793,-0.021,0.019,10.778,-49.377,4.608,-0.951,0.097,-0.224,2.657,-47.083,19.895,-0.982,-0.085,0.062,19.773,-41.23,17.663,-0.595,0.337,0.702,42.346,139.466,-48.983
7560.0,-0.691,-0.028,-0.083,11.381,-43.933,6.787,-0.974,0.082,-0.228,0.161,-52.702,20.949,-1.032,-0.132,-0.377,14.51,-36.227,24.659,-0.584,0.38,0.796,0.28,144.62,-40.11
7580.0,-0.604,-0.038,-0.074,5.88,-27.44,11.62,-0.965,0.076,-0.183,-4.546,-52.0,16.571,-1.134,-0.02,-0.107,2.963,-54.587,20.546,-0.735,0.241,0.787,-23.38,146.65,-36.75
7600.0,-0.674,-0.047,0.066,4.34,-25.015,13.054,-0.955,0.133,-0.178,-12.199,-47.05,17.428,-1.007,-0.149,-0.243,8.025,-47.755,25.335,-0.832,0.065,0.706,2.129,135.342,-29.601
7620.0,-0.763,-0.018,0.003,4.277,-38.274,12.104,-0.977,0.144,-0.117,-18.774,-47.463,19.617,-1.094,0.075,-0.134,11.427,-58.784,27.425,-0.781,0.011,0.63,38.571,130.636,-30.476
7640.0,-0.788,0.019,0.153,-4.327,-44.41,9.113,-1.055,0.06,-0.1,-22.66,-50.297,23.172,-0.944,-0.111,0.011,12.996,-58.564,22.766,-0.854,0.043,0.63,71.913,134.934,-38.097
7660.0,-0.862,-0.008,0.14,-2.715,-48.302,8.397,-1.086,-0.02,-0.171,-19.977,-53.163,26.718,-0.96,-0.055,0.076,27.832,-55.216,20.319,-0.937,0.19,0.726,92.75,131.04,-43.4
7680.0,-0.937,-0.016,0.152,-4.614,-51.073,7.719,-1.044,0.003,-0.144,-1.952,-56.233,23.731,-0.939,-0.021,0.064,16.058,-50.945,17.823,-1.011,0.266,0.76,89.438,126.979,-52.544
7700.0,-0.912,-0.014,0.1,-4.2,-51.73,7.28,-1.008,0.135,-0.192,1.413,-61.666,24.635,-0.866,-0.037,0.1,19.561,-45.777,12.084,-1.022,0.268,0.708,84.314,110.115,-60.663
7720.0,-0.839,-0.051,-0.004,-3.718,-46.99,5.782,-0.974,0.18,-0.069,-11.862,-63.776,23.731,-0.861,-0.041,0.167,29.202,-40.357,7.638,-0.882,0.26,0.597,86.717,93.51,-67.39
7740.0,-0.752,-0.048,0.054,-6.091,-45.241,3.475,-0.978,0.19,-0.008,-18.793,-59.577,16.531,-0.941,0.075,0.111,27.183,-31.972,4.81,-0.788,0.262,0.562,98.048,86.726,-72.192
7760.0,-0.714,-0.014,0.04,0.463,-54.422,16.593,-0.913,0.183,0.034,-17.061,-52.376,13.89,-0.975,0.106,0.115,8.785,-19.846,-0.414,-0.683,0.313,0.59,101.481,80.77,-69.374
7780.0,-0.627,0.003,-0.075,2.157,-54.452,0.68,-0.879,0.21,0.093,-22.378,-42.146,14.043,-0.999,0.061,0.105,-4.167,-16.255,-1.528,-0.661,0.355,0.622,99.83,74.109,-66.537
7800.0,-0.531,-0.088,-0.051,0.162,-37.262,1.25,-0.884,0.179,0.185,-16.112,-31.664,13.808,-0.929,-0.07,0.087,-6.383,-18.749,-2.236,-0.656,0.325,0.607,107.237,64.08,-64.339
7820.0,-0.409,-0.044,0.114,4.255,-28.123,4.532,-0.911,0.116,0.143,-12.683,-20.412,14.208,-0.987,-0.112,0.098,0.511,-14.018,-2.003,-0.57,0.358,0.498,120.542,53.219,-61.004
7840.0,-0.419,-0.054,0.126,4.705,-16.338,4.498,-0.961,0.151,0.121,-6.264,-12.604,13.243,-0.998,-0.093,0.111,4.01,-6.799,0.125,-0.502,0.526,0.538,112.812,54.748,-58.335
7860.0,-0.615,-0.043,0.075,2.754,4.441,1.773,-0.968,0.256,0.083,-6.639,-5.956,9.337,-0.999,-0.049,0.098,3.085,-5.637,2.431,-0.605,0.64,0.638,83.926,57.025,-56.396
7880.0,-0.913,0.005,0.084,-1.877,22.827,-1.504,-0.959,0.232,0.058,-6.109,-0.753,4.617,-1.048,-0.001,0.039,-2.71,-9.23,3.957,-0.827,0.656,0.66,44.499,52.346,-53.49
7900.0,-1.317,0.01,0.184,-1.474,26.089,-1.387,-0.989,0.209,0.049,-2.815,1.379,1.576,-1.051,0.006,0.061,-7.404,-9.032,2.654,-0.978,0.635,0.64,14.643,42.234,-51.506
7920.0,-1.396,0.022,0.204,1.295,22.24,-2.283,-1.013,0.158,0.054,4.337,1.405,-0.557,-1.016,-0.025,0.101,-7.226,-6.726,1.122,-1.154,0.661,0.636,-8.636,36.191,-49.282
7940.0,-1.288,0.033,0.24,3.347,15.077,-3.867,-1.026,0.167,0.045,7.948,1.4,0.073,-0.998,-0.028,0.09,-2.64,-7.159,1.398,-1.346,0.65,0.62,-49.105,15.388,-40.066
7960.0,-1.176,0.021,0.236,2.109,7.179,-3.522,-1.035,0.133,0.003,5.626,-0.114,1.745,-1.012,0.008,0.079,-3.537,-7.718,0.586,-1.32,0.365,0.464,-63.126,-17.09,-26.056
7980.0,-1.08,0.009,0.167,0.193,2.792,-3.471,-1.023,0.142,0.003,3.455,-3.098,4.282,-1.003,-0.017,0.092,-6.132,-7.038,-0.42,-1.034,0.105,0.336,-46.061,-26.292,-9.379
8000.0,-0.937,0.001,0.163,-1.102,2.805,-4.593,-1.019,0.164,0.008,0.187,-5.398,6.641,-0.988,-0.04,0.099,-5.147,-6.723,-0.493,-0.857,0.023,0.304,-21.097,-21.295,7.847
8020.0,-0.878,-0.01,0.195,-3.884,2.864,-4.83,-1.011,0.151,0.027,-4.971,-7.504,8.036,-0.991,-0.013,0.131,-5.245,-4.494,-0.035,-0.816,-0.024,0.288,-7.538,-11.613,20.484
8040.0,-0.874,-0.021,0.156,-5.115,0.593,-4.935,-1.017,0.153,0.04,-3.426,-8.953,8.475,-0.933,-0.04,0.183,-7.84,4.043,-0.193,-0.803,-0.075,0.245,1.378,-6.721,22.848
8060.0,-0.892,-0.018,0.131,-3.479,-0.188,-4.907,-1.02,0.185,0.037,-3.017,-8.797,8.13,-0.926,-0.017,0.199,-10.226,13.873,1.864,-0.823,-0.049,0.212,4.112,-4.667,20.634
8080.0,-0.953,0.014,0.141,1.25,1.472,-3.46,-0.997,0.206,0.049,-2.314,-7.402,6.345,-0.938,0.097,0.174,-28.482,22.58,4.772,-0.873,-0.003,0.168,1.733,-3.581,13.814
8100.0,-1.054,0.015,0.15,2.775,5.946,-0.837,-0.983,0.222,0.065,0.817,-5.711,3.285,-0.915,0.19,0.21,-58.187,32.522,0.245,-0.895,0.01,0.142,6.047,0.794,8.407
8120.0,-1.118,-0.008,0.208,2.452,6.73,-0.087,-0.974,0.231,0.068,2.702,-2.254,-1.644,-0.856,0.198,0.252,-85.07,50.213,-9.381,-0.971,0.072,0.258,12.013,3.697,7.149
8140.0,-1.109,-0.017,0.23,1.485,-0.284,-0.469,-0.929,0.22,0.096,8.689,4.487,-6.842,-0.915,-0.202,0.335,-85.058,65.283,-21.459,-0.995,0.185,0.435,11.248,-2.712,11.579
8160.0,-1.022,-0.013,0.201,1.494,-6.413,-1.245,-0.905,0.231,0.113,12.93,19.954,-11.776,-0.85,-0.403,0.117,-10.691,77.39,-34.364,-0.945,0.266,0.621,16.531,-12.019,17.111
8180.0,-0.961,-0.028,0.12,1.816,-7.616,-1.27,-0.9,0.246,0.142,18.675,34.862,-17.133,-1.085,-0.105,-0.171,29.411,76.313,-37.088,-0.928,0.456,0.727,10.185,-23.153,19.733
8200.0,-0.93,-0.038,0.052,-0.837,0.436,-1.19,-0.932,0.224,0.124,22.614,35.144,-21.333,-1.007,0.106,-0.256,19.489,64.109,-37.452,-0.903,0.548,0.869,-13.983,-45.56,27.63
8220.0,-0.902,-0.049,0.011,0.281,6.953,-3.02,-0.941,0.113,0.073,21.856,48.003,-23.904,-0.993,0.033,-0.071,-8.154,58.806,-37.345,-0.844,0.563,0.93,-30.421,-68.063,41.391
8240.0,-0.811,-0.055,0.017,5.35,14.783,-4.503,-0.922,0.11,0.104,21.519,61.29,-25.192,-1.032,-0.08,0.018,-16.45,39.215,-37.884,-0.767,0.549,0.926,-38.497,-84.287,53.402
8260.0,-0.713,-0.035,0.018,9.07,21.708,-6.154,-0.941,0.095,0.008,20.492,70.233,-24.414,-0.727,-0.158,-0.208,-25.418,58.759,-30.777,-0.742,0.441,0.833,-28.727,-102.935,66.572
8280.0,-0.65,-0.008,0.013,10.5,24.92,-7.21,-0.957,0.122,-0.113,12.983,73.485,-21.147,-1.036,-0.124,-0.2,-19.39,44.24,-28.98,-0.712,0.475,0.824,-29.376,-112.54,81.985
8300.0,-0.561,0.003,-0.042,11.165,30.516,-7.487,-1.0,0.12,-0.148,11.634,72.113,-16.405,-1.003,-0.198,-0.325,-23.31,69.16,-19.04,-0.707,0.475,0.792,-43.428,-121.796,89.937
8320.0,-0.568,0.01,-0.015,13.936,37.823,-7.038,-0.935,0.238,-0.077,31.206,57.824,-12.012,-1.291,-0.314,0.244,6.86,11.13,-24.78,-0.748,0.438,0.742,-48.415,-127.568,91.247
8340.0,-0.594,-0.009,0.071,16.3,38.917,-5.551,-0.998,0.073,-0.199,31.778,57.511,-10.314,-0.776,-0.217,-0.236,22.915,48.596,-15.749,-0.821,0.43,0.702,-49.203,-135.376,88.73
8360.0,-0.642,-0.038,0.107,12.74,35.49,-5.39,-0.964,0.035,-0.26,31.347,42.016,-8.972,-0.968,-0.162,-0.223,34.717,57.441,-13.78,-0.868,0.442,0.663,-65.338,-147.214,82.929
8380.0,-0.706,-0.003,0.086,10.836,30.521,-6.382,-1.037,0.195,-0.248,22.82,45.64,-17.71,-0.894,-0.066,-0.272,25.882,59.448,-16.806,-0.895,0.456,0.611,-84.571,-153.106,73.594
8400.0,-0.794,0.023,0.082,14.389,26.998,-7.061,-1.149,0.274,-0.102,21.924,41.398,-23.607,-1.153,0.014,-0.243,-0.112,39.212,-15.289,-0.908,0.329,0.623,-86.372,-154.059,67.392
8420.0,-0.837,-0.031,0.096,17.106,27.358,-6.73,-0.986,0.113,-0.306,-2.256,50.647,-24.007,-1.156,-0.269,-0.427,12.64,4.214,-16.349,-0.889,0.302,0.631,-72.24,-154.023,63.084
8440.0,-0.813,-0.077,0.07,12.156,27.37,-6.801,-1.007,0.015,-0.208,-2.061,48.429,-23.076,-0.529,-0.23,-0.306,-27.056,65.144,-12.553,-0.882,0.333,0.594,-61.216,-154.907,59.5
8460.0,-0.794,-0.072,0.076,5.478,27.254,-7.93,-1.017,0.074,-0.416,5.32,47.25,-21.98,-0.992,-0.205,-0.365,16.573,26.305,-9.966,-0.821,0.275,0.535,-55.235,-153.837,57.152
8480.0,-0.786,-0.027,0.096,3.22,23.38,-9.1,-1.009,-0.037,-0.379,12.864,37.775,-22.823,-1.08,-0.105,-0.505,40.15,22.345,-4.899,-0.739,0.191,0.49,-52.927,-147.553,58.018
8500.0,-0.79,0.018,0.033,5.95,24.99,-10.57,-0.951,-0.013,-0.242,19.499,34.444,-25.414,-1.013,0.07,-0.141,18.354,17.258,-8.274,-0.769,0.17,0.511,-39.613,-141.273,60.613
8520.0,-0.799,0.033,0.044,3.429,39.125,-12.624,-0.98,0.354,-0.235,-5.167,34.883,-20.416,-0.967,-0.142,-0.192,-4.918,17.563,-10.533,-0.736,0.203,0.592,-31.153,-137.292,63.847
8540.0,-0.812,0.007,0.109,-2.729,43.665,-11.668,-1.044,-0.201,-0.475,-23.82,36.587,-20.718,-1.06,-0.274,-0.385,6.989,26.853,-8.703,-0.61,0.177,0.604,-33.372,-131.905,62.471
8560.0,-0.878,-0.035,0.043,-2.571,37.558,-11.249,-0.95,-0.147,-0.249,-0.078,30.585,-19.838,-1.042,-0.147,-0.382,10.916,26.624,-9.11,-0.587,0.165,0.563,-38.467,-126.406,57.781
8580.0,-0.965,-0.028,0.06,3.697,32.032,-10.464,-1.038,0.161,-0.397,-5.149,23.186,-15.71,-1.011,-0.064,-0.355,-1.219,14.409,-13.935,-0.563,0.092,0.565,-35.028,-118.072,54.556
8600.0,-0.957,-0.058,0.005,2.684,34.079,-8.122,-0.926,-0.013,-0.303,-12.565,25.615,-18.306,-1.01,-0.263,-0.383,-6.976,11.025,-13.836,-0.512,0.082,0.667,-22.715,-108.689,54.468
8620.0,-0.979,-0.061,0.018,-7.191,42.77,-5.943,-0.948,-0.001,-0.354,-7.979,23.555,-14.817,-0.87,-0.305,-0.308,8.843,16.124,-6.01,-0.49,0.162,0.74,-26.12,-105.266,54.397
8640.0,-1.058,-0.093,0.019,-8.832,39.15,-6.645,-0.96,-0.07,-0.415,-9.729,25.026,-14.311,-0.877,-0.259,-0.309,14.61,15.689,-4.739,-0.468,0.198,0.738,-44.642,-102.375,53.381
8660.0,-1.038,-0.072,-0.023,-1.534,34.886,-8.944,-0.965,0.041,-0.364,-7.912,16.963,-15.162,-1.036,-0.069,-0.464,10.497,6.257,-7.287,-0.405,0.127,0.707,-60.627,-99.498,50.353
8680.0,-0.991,-0.07,0.003,-2.86,32.747,-7.96,-0.973,0.008,-0.369,-7.937,3.764,-13.124,-0.95,-0.198,-0.306,8.554,0.954,-7.99,-0.327,0.077,0.769,-65.011,-94.666,44.67
8700.0,-1.017,-0.13,-0.057,-5.863,23.879,-5.451,-1.011,-0.079,-0.444,-8.614,4.523,-9.859,-0.887,-0.265,-0.281,6.663,3.227,-8.295,-0.347,0.037,0.888,-54.884,-83.723,38.361
8720.0,-1.042,-0.132,-0.108,1.287,22.19,-6.39,-0.908,-0.065,-0.43,-6.552,24.341,-7.522,-0.923,-0.314,-0.312,16.936,9.637,-7.357,-0.373,0.032,0.89,-37.543,-83.023,35.469
8740.0,-1.063,-0.067,-0.094,10.204,21.098,-8.649,-0.841,-0.055,-0.405,-4.174,20.616,-2.854,-0.946,-0.102,-0.311,13.081,11.217,-8.371,-0.317,0.059,0.876,-29.972,-84.953,33.626
8760.0,-1.099,0.005,-0.096,10.597,18.69,-8.859,-0.909,-0.047,-0.415,-6.44,11.694,-0.241,-1.041,-0.051,-0.429,-1.683,0.872,-12.109,-0.133,0.109,0.878,-34.6,-77.333,29.115
8780.0,-1.125,-0.008,-0.08,0.879,12.561,-5.417,-0.929,0.018,-0.379,-7.704,10.058,0.494,-0.959,-0.241,-0.28,-3.892,-2.117,-14.403,-0.108,0.118,0.894,-41.722,-65.63,23.729
8800.0,-1.142,-0.113,-0.098,-2.573,4.804,-5.6,-0.901,0.039,-0.339,-4.256,11.026,2.086,-0.912,-0.24,-0.396,8.818,4.272,-11.969,-0.112,0.075,0.937,-43.436,-59.446,15.468
8820.0,-1.18,-0.148,-0.133,-1.68,3.067,-6.822,-0.911,-0.021,-0.429,-5.375,13.448,3.754,-0.916,-0.207,-0.407,9.251,1.202,-12.05,-0.082,0.03,0.97,-37.372,-57.094,5.847
8840.0,-1.194,-0.131,-0.116,-0.605,1.175,-4.072,-0.979,-0.004,-0.426,-10.6,10.416,3.299,-0.892,-0.204,-0.334,9.328,0.827,-14.692,-0.065,0.034,1.019,-27.229,-54.628,-0.257
8860.0,-1.135,-0.129,-0.121,4.08,-8.041,-1.416,-0.882,-0.059,-0.371,-10.869,14.902,7.117,-1.003,-0.186,-0.398,12.474,-3.309,-15.574,-0.014,0.097,1.068,-20.773,-45.725,-2.87
8880.0,-1.09,-0.081,-0.193,12.768,-12.172,0.086,-0.865,-0.059,-0.413,-7.021,12.776,10.84,-0.918,-0.206,-0.337,9.058,-2.82,-15.528,-0.038,0.126,1.077,-18.988,-43.885,-2.74
8900.0,-1.068,-0.007,-0.225,10.329,-10.575,1.87,-0.952,0.1,-0.342,-7.711,11.98,11.749,-0.986,-0.384,-0.315,6.557,-3.766,-12.683,0.005,0.125,1.067,-29.197,-46.954,-0.71
8920.0,-1.161,-0.009,-0.187,-4.855,-0.709,4.964,-1.021,0.059,-0.466,-17.188,9.958,9.294,-0.934,-0.196,-0.365,11.057,-4.293,-13.711,0.024,-0.003,1.149,-23.095,-42.218,1.456
8940.0,-1.238,-0.099,-0.16,-12.081,0.271,5.926,-0.934,-0.039,-0.464,-11.857,12.457,7.991,-0.829,-0.206,-0.423,1.4,-5.6,-15.89,0.014,-0.009,1.145,-1.444,-42.97,7.491
8960.0,-1.154,-0.124,-0.289,-8.043,1.043,-3.169,-0.857,-0.021,-0.421,-10.206,11.826,10.434,-0.9,-0.319,-0.346,15.917,-7.357,-15.554,0.064,0.064,1.113,10.012,-41.232,13.79
8980.0,-1.083,-0.086,-0.313,0.035,17.42,-5.565,-0.856,0.028,-0.392,-6.184,10.769,13.156,-0.985,-0.134,-0.282,17.132,-14.182,-14.671,-0.001,0.221,1.096,-6.619,-41.842,18.903
9000.0,-1.127,-0.063,-0.114,-1.679,20.41,-1.41,-0.968,0.117,-0.471,-10.782,7.531,11.959,-0.917,-0.197,-0.353,-11.189,-9.777,-14.058,-0.01,0.074,1.106,-30.072,-44.145,23.669
9020.0,-1.166,-0.146,-0.105,-8.845,5.66,-3.718,-0.858,0.033,-0.499,-9.217,2.661,8.91,-0.758,-0.567,-0.374,31.884,-8.265,-6.438,0.147,-0.079,1.06,-10.734,-44.931,28.558
9040.0,-1.141,-0.185,-0.308,-4.55,14.551,-8.413,-0.917,0.04,-0.463,-6.397,-1.322,9.397,-0.913,-0.133,-0.199,16.59,-9.31,-0.84,0.179,-0.012,1.099,3.005,-39.52,28.573
9060.0,-1.219,-0.045,-0.216,10.963,22.533,-9.198,-0.843,0.148,-0.398,-9.123,0.006,10.238,-0.904,-0.185,-0.306,-2.307,-8.069,-6.234,0.155,0.061,1.141,-3.918,-35.714,26.549
9080.0,-1.292,-0.0,-0.125,8.611,16.36,-2.888,-0.774,-0.041,-0.428,-17.621,4.363,13.446,-0.84,-0.253,-0.363,-5.49,-6.193,-4.729,0.225,0.021,1.177,-17.98,-33.017,21.221
9100.0,-1.295,-0.132,-0.24,1.821,3.579,-0.658,-0.949,-0.001,-0.428,-8.501,1.787,13.473,-1.006,-0.455,-0.359,-7.852,-1.662,0.628,0.234,-0.103,1.193,-7.729,-30.726,15.633
9120.0,-1.465,-0.075,-0.18,-13.794,1.241,-2.603,-0.917,0.141,-0.513,0.67,-1.388,10.53,-0.908,-0.238,-0.316,2.117,-3.487,8.312,0.276,-0.11,1.277,18.03,-24.412,15.85
9140.0,-1.562,-0.054,-0.225,-14.7,-13.51,3.71,-0.914,0.115,-0.53,-1.037,-4.515,4.476,-0.956,-0.237,-0.373,-6.467,-7.255,9.904,0.351,0.011,1.346,24.251,-18.807,15.75
9160.0,-1.511,-0.113,-0.382,2.859,-14.123,-2.235,-0.927,0.044,-0.442,-0.252,-6.734,-0.873,-0.88,-0.329,-0.336,-2.685,-5.821,10.525,0.354,0.063,1.292,4.439,-12.592,11.816
9180.0,-1.612,-0.221,-0.306,11.735,-13.356,-4.16,-0.883,0.025,-0.442,6.804,-6.179,-2.507,-0.947,-0.324,-0.352,2.564,-6.714,12.224,0.298,0.029,1.371,-5.125,0.408,7.032
9200.0,-1.654,-0.041,-0.353,0.619,-15.327,0.669,-0.872,0.061,-0.476,9.404,-8.441,-2.561,-0.975,-0.23,-0.326,-2.176,-10.943,14.143,0.313,-0.016,1.452,-3.734,8.636,3.505
9220.0,-1.592,-0.066,-0.349,-6.58,-11.55,5.32,-0.934,0.043,-0.443,8.788,-12.956,-1.763,-0.938,-0.275,-0.356,-6.957,-9.686,17.969,0.3,-0.084,1.362,9.961,12.464,0.606
9240.0,-1.523,-0.123,-0.293,0.565,-5.949,1.429,-0.944,-0.002,-0.452,11.815,-15.013,-2.164,-0.955,-0.275,-0.329,-1.289,-6.115,21.96,0.344,-0.082,1.33,27.126,19.304,-0.778
9260.0,-1.49,-0.185,-0.338,8.121,7.044,-3.341,-0.914,0.028,-0.469,12.991,-16.803,-4.08,-0.953,-0.194,-0.346,-5.071,-8.545,21.243,0.379,0.056,1.448,16.625,26.067,-3.85
9280.0,-1.393,-0.162,-0.168,-5.057,11.249,-4.185,-0.91,0.029,-0.474,12.351,-20.567,-4.306,-0.852,-0.141,-0.377,-9.34,-8.458,17.466,0.222,0.017,1.342,-5.94,23.812,-10.968
9300.0,-1.416,-0.039,-0.154,-8.11,8.462,-1.793,-0.907,0.032,-0.471,11.043,-22.093,-3.751,-0.92,-0.183,-0.252,-4.444,-12.348,12.538,0.235,-0.047,1.178,-5.752,24.782,-13.117
9320.0,-1.404,-0.04,-0.202,-5.971,3.39,-1.84,-0.898,0.048,-0.429,10.1,-20.486,-4.505,-0.927,-0.196,-0.275,-1.956,-10.845,5.523,0.235,-0.069,1.195,-6.665,34.157,-13.071
9340.0,-1.349,-0.082,-0.224,-5.866,1.035,0.218,-0.897,0.013,-0.427,10.552,-21.065,-5.359,-0.986,-0.206,-0.379,-3.32,-15.997,4.347,0.161,-0.067,1.204,-8.288,40.808,-12.987
9360.0,-1.283,-0.135,-0.172,-12.421,-1.7,-0.134,-0.901,0.014,-0.434,10.777,-23.129,-3.719,-0.974,-0.193,-0.319,-4.609,-18.954,3.605,0.091,-0.046,1.134,-7.705,44.026,-13.976
9380.0,-1.257,-0.094,-0.215,-14.135,-3.702,1.103,-0.929,0.023,-0.402,11.575,-23.036,-1.646,-0.922,-0.212,-0.178,-4.48,-14.35,0.777,-0.004,-0.059,1.02,-6.205,47.9,-20.848
9400.0,-1.233,-0.067,-0.163,-10.827,2.085,3.48,-0.922,0.01,-0.424,8.107,-22.928,-0.426,-0.915,-0.255,-0.258,-5.137,-10.222,0.893,-0.07,-0.115,0.804,8.516,52.164,-25.158
9420.0,-1.272,-0.149,-0.119,-6.212,-2.039,7.29,-0.882,0.077,-0.348,1.189,-18.747,2.056,-0.929,-0.252,-0.441,-2.205,-18.602,8.1,-0.042,-0.099,0.778,20.489,59.091,-25.302
9440.0,-1.262,-0.168,-0.167,-2.942,-12.65,6.207,-0.913,-0.01,-0.368,-3.857,-14.724,3.169,-0.941,-0.182,-0.35,-4.058,-26.477,11.659,-0.04,0.025,0.951,9.19,73.048,-22.758
9460.0,-1.185,-0.167,-0.181,-2.722,-13.141,4.444,-0.892,-0.112,-0.482,-2.826,-17.471,3.848,-0.958,-0.162,-0.202,-14.028,-26.568,15.051,-0.219,-0.052,0.975,-0.525,83.896,-21.369
9480.0,-1.142,-0.14,-0.16,2.276,-12.811,1.456,-0.928,0.181,-0.362,-3.22,-22.442,5.39,-0.946,-0.267,-0.205,-13.817,-22.047,19.095,-0.257,-0.134,0.705,29.571,88.326,-21.866
9500.0,-1.135,-0.091,-0.128,10.329,-14.821,-3.707,-0.959,0.003,-0.389,-2.34,-25.911,4.498,-0.947,-0.238,-0.314,-5.281,-22.567,20.677,-0.269,-0.029,0.672,43.389,98.248,-33.492
9520.0,-1.167,-0.059,-0.021,5.464,-23.477,3.356,-0.968,0.051,-0.348,3.555,-28.423,5.551,-1.031,-0.118,-0.363,-2.926,-39.421,21.05,-0.318,0.032,0.82,36.984,104.59,-37.222
9540.0,-1.137,-0.077,-0.038,7.111,-35.095,2.762,-0.966,0.056,-0.413,-3.277,-33.655,6.106,-0.984,-0.133,-0.383,-10.939,-46.375,17.753,-0.335,0.021,0.818,28.603,108.41,-37.95
9560.0,-1.109,-0.052,-0.062,11.964,-42.259,2.838,-0.955,-0.015,-0.397,-6.903,-35.636,7.153,-0.945,-0.143,-0.179,-11.592,-46.193,15.787,-0.341,0.032,0.748,36.438,128.384,-37.168
9580.0,-1.059,0.02,-0.08,13.761,-44.658,5.926,-0.969,0.045,-0.354,-8.374,-43.885,11.6,-0.974,-0.155,-0.196,-11.37,-45.53,17.487,-0.471,0.037,0.73,46.865,133.105,-35.985
9600.0,-0.906,0.028,-0.053,8.736,-41.712,9.95,-0.961,-0.046,-0.398,-6.994,-47.731,13.526,-1.002,-0.208,-0.363,-10.358,-42.914,18.565,-0.569,0.107,0.654,51.136,132.364,-38.627
9620.0,-0.854,-0.033,0.09,-0.352,-39.257,10.797,-0.977,0.006,-0.347,-2.187,-52.359,18.39,-0.986,-0.162,-0.321,-1.961,-52.155,19.805,-0.557,0.185,0.581,48.306,135.611,-41.674
9640.0,-0.842,-0.066,0.096,-0.129,-55.958,7.392,-0.993,-0.028,-0.329,-1.924,-51.093,19.608,-1.044,-0.122,-0.182,0.136,-61.25,22.675,-0.414,0.328,0.733,3.155,142.328,-39.361
9660.0,-0.745,-0.038,-0.022,9.208,-64.47,4.799,-0.984,0.023,-0.323,0.547,-55.69,19.276,-0.982,-0.091,-0.114,-7.641,-62.358,24.196,-0.566,0.221,0.813,-16.628,151.098,-43.382
9680.0,-0.686,-0.059,0.002,15.89,-52.29,4.55,-1.028,0.07,-0.288,-5.671,-63.374,23.513,-0.934,-0.074,-0.079,-20.438,-57.409,24.391,-0.675,-0.051,0.527,16.957,148.296,-44.111
9700.0,-0.812,-0.014,0.073,8.478,-47.47,5.769,-1.004,0.08,-0.203,-9.534,-63.552,23.242,-1.005,-0.187,-0.178,-4.826,-56.083,26.655,-0.581,0.028,0.473,67.819,146.593,-43.362
9720.0,-0.902,0.008,0.048,0.14,-48.93,6.16,-0.973,0.073,-0.285,-13.255,-63.608,23.553,-0.996,-0.166,-0.094,4.092,-64.288,26.554,-0.543,0.243,0.642,75.758,160.702,-41.138
9740.0,-0.764,0.011,0.033,1.926,-47.111,7.256,-1.024,0.056,-0.169,-11.499,-68.691,26.999,-0.997,-0.159,-0.078,19.943,-57.533,26.526,-0.683,0.346,0.779,37.194,167.883,-38.039
9760.0,-0.619,-0.003,0.059,2.506,-44.748,10.23,-0.96,0.116,-0.141,-4.312,-65.227,22.059,-1.006,-0.07,-0.103,26.042,-60.66,24.46,-0.815,0.177,0.554,19.484,164.85,-37.521
9780.0,-0.567,-0.024,0.071,-2.401,-48.44,14.434,-0.96,0.202,-0.072,-4.696,-64.984,20.368,-0.913,-0.11,0.048,26.18,-60.506,22.248,-0.677,0.11,0.515,34.346,160.667,-41.113
9800.0,-0.523,-0.054,0.027,-3.532,-53.838,16.3,-0.938,0.223,-0.174,-13.23,-62.93,19.88,-0.985,-0.211,-0.109,38.711,-66.369,18.056,-0.692,0.295,0.676,20.886,159.368,-41.507
9820.0,-0.463,-0.061,0.025,-4.273,-49.881,15.531,-1.04,0.124,-0.139,-18.284,-68.563,17.886,-1.002,0.108,-0.018,39.106,-56.826,16.752,-0.785,0.17,0.67,14.7,153.93,-35.14
9840.0,-0.421,-0.074,0.088,-4.403,-41.441,13.623,-1.049,0.062,-0.172,-8.954,-70.81,12.051,-0.931,0.108,0.205,10.628,-52.129,9.752,-0.809,0.074,0.536,36.61,136.009,-36.037
9860.0,-0.436,-0.074,0.156,-3.183,-40.531,10.575,-0.932,0.096,0.019,-6.156,-63.699,14.027,-0.879,0.019,0.153,8.05,-44.66,3.36,-0.737,0.086,0.477,65.082,121.7,-42.01
9880.0,-0.511,-0.042,0.16,0.583,-45.828,6.024,-0.92,0.187,0.073,-0.587,-57.902,12.6,-0.926,-0.004,0.096,10.64,-29.47,-1.82,-0.628,0.12,0.475,94.386,116.567,-46.812
9900.0,-0.567,-0.013,0.099,5.668,-49.487,1.666,-0.881,0.192,0.112,-5.278,-45.737,13.398,-1.006,0.046,0.134,7.91,-22.26,-3.5,-0.615,0.202,0.499,116.386,118.457,-43.703
9920.0,-0.588,-0.004,0.031,12.619,-48.787,-1.318,-0.93,0.117,0.119,-15.568,-35.831,13.806,-1.026,-0.027,0.077,-3.36,-22.75,-2.1,-0.642,0.36,0.572,102.76,121.38,-43.82
9940.0,-0.579,-0.018,0.015,17.7,-39.527,-1.559,-0.945,0.103,0.135,-5.971,-27.891,15.109,-0.995,-0.043,0.089,-7.068,-19.153,0.933,-0.744,0.379,0.611,82.943,115.509,-45.372
9960.0,-0.609,0.002,0.049,18.008,-23.126,0.014,-0.95,0.136,0.094,-0.338,-21.681,15.036,-0.966,-0.02,0.144,-12.939,-15.599,1.324,-0.844,0.271,0.611,86.12,109.289,-51.988
9980.0,-0.75,0.005,0.096,14.521,-6.683,2.697,-0.983,0.211,0.054,-1.959,-16.293,12.378,-0.996,-0.065,0.075,-9.869,-13.975,2.661,-0.916,0.229,0.636,120.283,107.011,-57.616
10000.0,-0.965,-0.079,0.154,12.544,0.978,6.289,-1.022,0.223,0.045,-8.111,-14.136,8.274,-0.982,-0.057,0.153,-3.985,-14.405,2.673,-1.078,0.439,0.699,167.268,100.613,-61.285
10020.0,-1.191,-0.068,0.244,9.59,0.49,3.43,-1.026,0.159,0.044,-5.885,-14.84,6.561,-0.978,-0.009,0.118,0.381,-12.01,0.97,-1.225,0.473,0.803,205.777,83.96,-63.667
10040.0,-1.281,-0.015,0.195,8.826,-1.364,-0.698,-1.023,0.152,0.053,1.466,-15.468,5.971,-0.975,0.003,0.108,0.86,-8.561,-2.877,-1.269,0.714,0.823,174.241,47.934,-61.202
10060.0,-1.206,0.011,0.22,9.44,-1.826,-0.012,-1.01,0.158,0.064,6.322,-15.465,5.561,-0.949,-0.021,0.1,5.083,-3.163,-6.011,-1.199,0.652,0.853,161.196,22.022,-46.291
10080.0,-1.153,-0.009,0.286,4.151,-3.297,2.563,-0.989,0.174,0.087,8.027,-14.278,5.4,-0.908,-0.102,0.159,14.224,3.111,-7.112,-1.091,0.577,0.848,154.824,4.982,-27.659
10100.0,-1.074,-0.058,0.234,0.067,-5.67,-0.074,-0.995,0.153,0.075,8.6,-13.132,6.087,-0.931,-0.065,0.16,14.488,8.635,-6.45,-1.0,0.74,0.81,103.697,-11.953,-14.534
10120.0,-1.011,-0.029,0.166,3.13,-6.529,-5.421,-0.986,0.164,0.08,7.231,-11.652,5.946,-0.941,0.003,0.152,8.493,15.284,-3.901,-0.856,0.823,0.789,-8.529,-24.467,-3.895
10140.0,-0.953,0.004,0.114,3.033,-6.829,-8.127,-0.936,0.226,0.104,5.005,-8.701,4.862,-0.965,0.013,0.162,-5.276,19.801,-2.691,-0.786,0.596,0.726,-96.109,-31.598,4.342
10160.0,-0.918,0.036,0.099,1.312,-6.612,-8.065,-0.937,0.276,0.113,-1.933,-3.863,2.912,-0.978,0.006,0.152,-15.089,24.412,-3.334,-0.758,0.351,0.615,-124.728,-34.515,13.202
10180.0,-0.885,0.016,0.101,1.467,-3.819,-6.07,-0.918,0.269,0.114,-5.589,1.232,-1.0,-0.935,0.03,0.14,-22.712,35.303,-6.132,-0.795,0.261,0.546,-106.972,-36.373,22.389
10200.0,-0.891,0.011,0.117,4.666,-0.927,-4.067,-0.927,0.257,0.103,-4.73,5.579,-6.27,-0.934,-0.013,0.203,-25.689,45.819,-10.377,-0.858,0.365,0.609,-99.975,-44.045,26.233
10220.0,-0.899,0.014,0.102,4.485,0.247,-3.341,-0.923,0.225,0.122,-3.33,14.405,-11.337,-0.994,-0.066,0.143,-23.362,52.636,-15.364,-0.933,0.507,0.725,-104.659,-57.549,31.596
10240.0,-0.932,0.022,0.086,-2.448,8.159,-2.435,-0.969,0.163,0.149,5.775,23.254,-16.192,-0.994,-0.025,-0.044,-18.691,59.552,-22.072,-0.951,0.538,0.748,-129.994,-78.865,32.137
10260.0,-0.984,0.003,0.088,-3.584,14.513,-2.482,-0.969,0.229,0.147,9.689,28.425,-19.211,-0.957,0.074,-0.042,-19.204,67.872,-30.096,-0.909,0.402,0.706,-131.625,-93.088,33.354
10280.0,-0.974,-0.002,0.088,-5.14,20.661,-3.117,-0.939,0.216,0.139,17.64,39.62,-20.93,-0.959,0.029,-0.086,-29.516,68.977,-33.054,-0.878,0.364,0.709,-109.603,-100.06,35.733
10300.0,-0.926,-0.009,0.106,-6.58,27.952,-3.78,-0.952,0.169,0.138,19.385,52.576,-22.185,-0.992,-0.269,-0.26,-16.431,60.588,-34.847,-0.906,0.336,0.741,-85.334,-105.229,43.504
10320.0,-0.874,-0.018,0.108,-5.108,33.051,-4.596,-0.997,0.053,-0.054,7.14,56.91,-21.63,-1.045,-0.229,-0.178,11.074,47.45,-35.955,-0.931,0.354,0.709,-71.374,-114.049,50.386
10340.0,-0.759,-0.018,0.053,-1.523,37.431,-6.063,-0.971,-0.067,0.019,17.29,62.02,-15.47,-1.001,-0.025,-0.036,-4.789,51.482,-30.829,-0.879,0.306,0.66,-61.944,-126.252,54.989
10360.0,-0.631,-0.017,0.054,-0.527,41.585,-7.449,-0.94,0.037,-0.035,10.29,65.73,-12.46,-0.953,-0.14,-0.187,-13.381,58.69,-26.864,-0.812,0.272,0.635,-57.838,-135.659,64.003
10380.0,-0.563,-0.007,0.083,-0.718,42.106,-8.184,-0.93,0.158,-0.139,4.3,69.401,-8.809,-0.998,-0.08,-0.143,-9.362,47.789,-24.993,-0.747,0.19,0.632,-51.37,-140.802,70.963
10400.0,-0.523,-0.001,0.084,-0.483,40.716,-8.139,-1.132,0.221,0.081,-1.929,70.195,-9.709,-0.916,-0.241,-0.024,-7.962,53.963,-25.006,-0.771,0.177,0.648,-32.682,-140.423,76.042
10420.0,-0.521,-0.003,0.059,0.104,43.326,-8.543,-0.992,0.046,-0.292,6.773,67.613,-17.295,-1.07,-0.378,-0.211,11.324,51.457,-22.941,-0.811,0.215,0.658,-25.528,-142.019,76.263
10440.0,-0.583,-0.016,0.084,-1.717,45.855,-9.746,-0.935,0.052,-0.134,8.693,66.945,-10.536,-1.023,-0.074,-0.31,19.185,56.166,-19.854,-0.799,0.205,0.676,-23.23,-144.999,74.218
10460.0,-0.678,-0.028,0.103,-2.301,43.297,-9.827,-0.992,0.103,-0.128,13.641,63.012,-15.139,-0.888,-0.091,-0.118,20.902,50.699,-17.47,-0.845,0.285,0.67,-32.894,-148.52,70.244
10480.0,-0.764,-0.062,0.074,-1.768,41.478,-8.875,-0.948,0.228,-0.332,8.437,63.379,-20.422,-0.89,-0.274,-0.412,16.409,54.824,-12.66,-0.832,0.253,0.642,-49.683,-152.086,66.796
10500.0,-0.852,-0.079,0.086,1.371,38.609,-8.533,-1.03,0.045,-0.431,-19.82,55.955,-21.372,-1.117,-0.03,-0.269,-0.35,21.368,-11.948,-0.789,0.172,0.668,-44.435,-149.485,62.284
10520.0,-0.89,-0.087,0.061,2.704,36.747,-9.229,-1.117,0.055,-0.193,-16.677,45.65,-20.953,-1.096,-0.17,-0.252,-5.837,27.107,-14.778,-0.833,0.149,0.676,-26.728,-150.861,56.973
10540.0,-0.851,-0.088,0.054,-2.623,40.837,-9.488,-0.992,0.071,-0.245,6.67,44.775,-20.073,-0.749,-0.021,-0.254,-19.256,32.418,-17.438,-0.788,0.115,0.675,-11.109,-154.633,54.284
10560.0,-0.786,-0.021,0.068,-2.994,41.173,-12.559,-0.999,0.008,-0.406,17.142,34.175,-12.107,-1.228,-0.278,-0.126,21.398,10.87,-18.289,-0.67,0.16,0.647,-1.336,-148.604,54.806
10580.0,-0.794,-0.004,0.053,6.419,38.832,-13.714,-1.18,-0.01,-0.253,32.602,2.791,-3.379,-1.163,-0.392,-0.151,30.877,4.814,-18.412,-0.694,0.202,0.632,-7.488,-143.904,55.635
10600.0,-0.872,-0.019,-0.009,9.797,44.716,-13.369,-0.941,0.006,-0.179,37.548,13.573,-7.702,-0.89,0.072,-0.582,31.01,-9.73,-17.43,-0.625,0.186,0.711,-18.672,-140.212,55.46
10620.0,-0.867,-0.02,-0.018,3.511,48.557,-11.805,-0.826,0.056,-0.297,27.798,20.541,-8.303,-0.992,-0.298,-0.309,16.264,-25.649,-15.876,-0.542,0.162,0.751,-22.076,-134.823,51.744
10640.0,-0.905,-0.113,0.02,0.602,48.734,-11.788,-0.974,0.09,-0.449,18.68,15.091,-4.013,-0.649,-0.297,-0.121,12.378,8.834,-12.367,-0.522,0.179,0.734,-26.617,-131.181,48.539
10660.0,-0.974,-0.118,0.007,4.161,37.431,-12.246,-0.933,0.001,-0.295,3.304,19.369,-5.653,-1.036,-0.18,-0.366,23.73,4.13,-10.01,-0.5,0.163,0.779,-40.279,-123.692,47.782
10680.0,-1.002,-0.083,-0.061,7.654,31.499,-12.474,-0.991,-0.064,-0.243,9.863,18.113,-2.329,-1.02,-0.153,-0.306,-1.61,6.16,-13.58,-0.471,0.036,0.711,-39.48,-122.57,43.61
10700.0,-1.01,-0.063,-0.083,5.849,36.521,-10.359,-1.058,-0.017,-0.352,13.363,16.081,-0.025,-0.918,-0.209,-0.197,-2.73,3.99,-13.16,-0.36,0.073,0.74,-32.37,-118.471,37.701
10720.0,-1.102,-0.06,-0.038,3.705,33.758,-12.342,-0.974,-0.015,-0.372,4.687,19.553,-2.355,-0.845,-0.27,-0.297,4.34,3.92,-11.69,-0.258,0.135,0.802,-35.302,-103.502,35.041
10740.0,-1.079,-0.018,-0.112,-0.18,31.581,-14.068,-1.012,0.116,-0.314,-3.526,17.499,-1.888,-0.873,-0.118,-0.343,7.237,4.036,-13.979,-0.283,0.151,0.787,-46.476,-96.692,32.589
10760.0,-1.068,0.004,-0.069,-1.826,32.873,-13.501,-1.017,0.169,-0.326,-12.21,14.039,-3.291,-1.011,-0.167,-0.386,3.488,-10.317,-16.439,-0.259,0.056,0.747,-54.84,-87.712,23.803
10780.0,-1.057,0.001,-0.046,-4.785,30.318,-12.228,-0.931,0.012,-0.376,-14.967,13.116,-6.002,-0.903,-0.232,-0.334,4.933,-9.138,-18.059,-0.226,0.048,0.751,-50.856,-86.611,16.17
10800.0,-1.053,-0.095,-0.126,-8.89,20.72,-10.5,-0.942,-0.032,-0.36,-10.529,10.998,-0.936,-0.902,-0.295,-0.167,12.11,-4.9,-18.34,-0.151,0.038,0.838,-43.513,-83.715,12.098
10820.0,-1.051,-0.146,-0.158,-13.44,17.92,-9.8,-0.98,-0.023,-0.413,-3.329,6.583,4.766,-0.965,-0.243,-0.246,19.594,-7.77,-17.442,-0.111,0.066,0.883,-40.205,-77.036,10.797
10840.0,-1.019,-0.19,-0.138,-5.451,19.604,-12.428,-0.904,0.022,-0.34,5.87,7.953,5.781,-1.023,-0.183,-0.301,9.343,-10.505,-17.709,-0.086,0.04,0.857,-31.042,-70.606,10.281
10860.0,-1.079,-0.133,-0.14,2.295,20.007,-13.27,-0.917,0.117,-0.253,-8.379,12.189,5.78,-0.88,-0.277,-0.348,-5.88,-13.16,-17.71,-0.066,-0.051,0.844,0.175,-65.139,8.42
10880.0,-1.083,-0.15,-0.178,-4.357,16.966,-11.061,-0.985,0.038,-0.359,-10.412,10.314,7.279,-0.749,-0.322,-0.341,4.69,-2.38,-14.56,-0.014,0.122,0.953,18.756,-61.772,8.582
10900.0,-1.07,-0.092,-0.175,-5.929,13.534,-8.315,-0.96,0.001,-0.382,-10.008,10.679,9.194,-0.844,-0.202,-0.067,14.7,0.98,-14.07,0.001,0.149,0.997,3.888,-58.368,9.963
10920.0,-1.072,-0.017,-0.195,-2.249,13.344,-1.881,-0.862,-0.021,-0.394,-2.135,11.61,11.61,-0.876,-0.304,-0.26,1.627,4.176,-10.378,0.036,0.183,0.968,1.18,-58.452,13.765
10940.0,-1.114,-0.027,-0.232,-4.912,17.098,0.723,-0.943,0.11,-0.31,-8.153,10.49,11.142,-0.876,-0.275,-0.228,-1.858,-3.312,-7.058,0.131,0.142,1.033,-8.673,-56.442,15.73
10960.0,-1.161,-0.144,-0.276,-12.396,13.528,0.41,-0.938,0.15,-0.353,-16.817,14.51,11.408,-0.906,-0.309,-0.332,3.998,-2.004,-2.868,0.13,0.108,1.07,-14.135,-49.671,18.909
10980.0,-1.212,-0.169,-0.32,-16.037,19.299,0.063,-0.891,0.026,-0.397,-22.272,18.542,12.28,-0.838,-0.334,-0.205,1.24,2.962,-0.846,0.13,0.095,1.052,-15.839,-45.322,19.547
11000.0,-1.201,-0.143,-0.294,-10.853,20.774,-1.525,-0.979,0.066,-0.305,-13.809,15.635,14.432,-0.832,-0.365,-0.221,6.991,15.167,1.472,0.174,-0.063,1.018,-8.35,-39.666,15.047
11020.0,-1.207,-0.165,-0.3,-6.278,16.361,-7.047,-0.993,0.045,-0.387,-15.455,15.449,9.425,-0.946,-0.194,-0.347,10.754,6.694,1.671,0.198,-0.066,0.985,6.852,-35.536,9.942
11040.0,-1.227,-0.206,-0.38,-10.18,17.725,-7.694,-0.935,0.109,-0.427,-10.641,13.766,6.656,-0.963,-0.2,-0.251,-1.837,1.434,-0.858,0.239,0.049,0.995,9.578,-30.074,5.976
11060.0,-1.187,-0.181,-0.391,-14.52,27.753,-4.029,-0.95,-0.007,-0.391,4.497,8.291,8.552,-0.967,-0.363,-0.305,-1.022,-1.372,-1.713,0.274,0.069,1.027,2.35,-21.661,4.271
11080.0,-1.161,-0.14,-0.225,-10.78,30.483,-4.649,-0.929,0.078,-0.409,-0.767,6.48,8.44,-0.955,-0.355,-0.255,8.904,-3.179,-2.01,0.236,0.019,1.017,4.701,-16.159,4.45
11100.0,-1.222,-0.139,-0.135,-2.354,5.586,-6.253,-0.88,0.201,-0.397,-10.609,7.946,8.246,-0.953,-0.197,-0.263,0.653,-3.088,-1.886,0.226,0.019,1.032,11.374,-13.39,4.245
11120.0,-1.207,-0.121,-0.343,-7.696,0.083,-0.673,-0.928,0.182,-0.45,-5.25,1.75,7.56,-0.952,-0.245,-0.273,-3.745,-3.955,0.879,0.303,0.076,1.163,-3.636,-16.548,2.701
11140.0,-1.223,-0.158,-0.376,-4.446,3.682,-0.194,-0.963,0.045,-0.388,-4.198,-0.131,4.575,-0.951,-0.297,-0.253,-0.438,-4.821,3.684,0.441,-0.018,1.226,-9.534,-11.503,1.211
11160.0,-1.33,-0.173,-0.372,0.433,1.231,-0.72,-0.969,0.077,-0.449,5.313,-3.454,3.279,-0.949,-0.186,-0.254,-3.785,-3.23,4.654,0.359,-0.052,1.243,-1.306,-4.55,-3.028
11180.0,-1.399,-0.156,-0.324,3.488,-3.91,-0.831,-0.882,0.165,-0.463,2.379,-4.401,0.794,-0.919,-0.305,-0.238,-3.982,-1.991,7.306,0.339,0.052,1.401,1.09,-2.533,-6.439
11200.0,-1.471,0.006,-0.362,-0.834,-13.752,5.746,-0.975,-0.013,-0.455,3.648,-1.771,-0.082,-0.947,-0.257,-0.344,1.253,-7.184,11.124,0.292,-0.005,1.438,-5.621,-3.86,-7.116
11220.0,-1.466,-0.104,-0.513,-1.572,-12.812,3.154,-0.977,0.117,-0.41,11.5,-7.327,-2.601,-0.943,-0.287,-0.255,-8.052,-6.687,12.341,0.401,-0.104,1.321,11.436,-5.865,-3.321
11240.0,-1.502,-0.17,-0.452,-7.91,-10.22,0.21,-0.898,0.154,-0.437,5.147,-7.936,-5.27,-0.957,-0.32,-0.183,-6.025,-7.681,13.714,0.392,0.066,1.407,8.26,10.5,-3.99
11260.0,-1.537,-0.13,-0.476,-6.128,-8.236,3.832,-0.892,0.11,-0.453,9.328,-14.576,-6.275,-0.971,-0.179,-0.293,-6.158,-8.811,14.717,0.219,-0.044,1.188,14.98,12.53,-5.04
11280.0,-1.525,-0.07,-0.403,-5.741,-7.074,3.064,-0.927,0.094,-0.367,5.581,-14.099,-6.42,-0.956,-0.236,-0.306,-8.189,-9.162,15.656,0.38,0.102,1.268,13.674,17.766,-2.758
11300.0,-1.441,-0.24,-0.381,-7.616,-7.765,0.852,-0.951,0.009,-0.434,11.256,-14.711,-6.737,-0.962,-0.268,-0.294,-7.794,-8.382,18.916,0.275,0.077,1.199,-3.969,26.1,-4.37
11320.0,-1.361,-0.194,-0.369,-1.075,-5.616,-3.755,-0.898,0.136,-0.419,13.234,-21.145,-7.585,-0.896,-0.266,-0.25,-2.983,-6.476,19.28,0.143,-0.01,1.106,-0.397,38.615,-6.541
11340.0,-1.445,-0.09,-0.281,-0.469,-8.432,0.082,-0.957,0.09,-0.384,8.533,-22.034,-8.55,-0.947,-0.193,-0.155,-3.466,-6.439,16.109,0.095,-0.067,1.052,9.73,42.07,-11.2
11360.0,-1.428,-0.037,-0.28,6.79,-20.93,3.57,-0.956,-0.009,-0.462,8.452,-23.14,-8.1,-0.908,-0.197,-0.26,0.724,-7.529,11.425,0.176,0.026,1.008,26.655,50.439,-13.758
11380.0,-1.297,-0.094,-0.372,7.198,-13.213,1.042,-0.94,0.005,-0.427,13.831,-25.527,-6.145,-1.019,-0.077,-0.248,-8.112,-11.698,7.167,0.067,0.114,0.945,20.181,59.881,-15.394
11400.0,-1.239,-0.141,-0.252,-1.008,-4.784,0.9,-0.923,0.088,-0.296,15.252,-24.64,-5.109,-0.956,-0.263,-0.331,-8.88,-13.578,5.065,0.093,0.044,0.993,10.543,68.814,-14.057
11420.0,-1.267,-0.149,-0.243,-1.088,-15.209,-0.334,-0.937,0.008,-0.373,5.261,-23.046,-4.449,-0.94,-0.25,-0.148,0.227,-13.25,6.434,0.172,0.147,1.059,-3.294,82.359,-12.369
11440.0,-1.241,-0.099,-0.309,-1.331,-17.799,-0.55,-0.962,-0.086,-0.439,3.675,-25.009,-0.104,-0.946,-0.259,-0.229,3.307,-10.158,8.101,-0.017,0.121,0.981,-12.896,90.707,-15.827
11460.0,-1.13,-0.085,-0.269,-3.917,-6.309,0.962,-0.973,-0.025,-0.329,9.299,-26.161,3.472,-1.062,-0.216,-0.371,-3.638,-6.252,10.573,-0.157,0.038,0.895,-6.213,90.404,-19.732
11480.0,-1.159,-0.166,-0.157,1.048,-3.248,1.897,-0.96,0.086,-0.315,6.558,-20.887,2.463,-0.957,-0.136,-0.287,-8.984,-17.403,11.555,-0.139,-0.014,0.958,17.233,90.833,-17.908
11500.0,-1.208,-0.178,-0.141,2.938,-11.585,3.611,-0.907,0.067,-0.369,-2.608,-19.069,1.01,-0.98,-0.139,-0.148,-15.517,-22.204,12.035,-0.197,0.1,1.017,25.773,99.548,-23.114
11520.0,-1.145,-0.143,-0.212,3.211,-21.782,3.602,-0.934,0.064,-0.284,-2.783,-21.893,3.394,-0.973,-0.247,-0.251,-15.597,-22.177,11.912,-0.339,0.081,0.886,24.326,104.014,-25.697
11540.0,-1.053,-0.103,-0.22,5.924,-18.165,1.113,-0.971,0.029,-0.342,-2.77,-25.661,4.689,-0.98,-0.256,-0.212,0.77,-21.14,12.32,-0.353,0.042,0.767,30.269,111.014,-22.999
11560.0,-1.078,-0.037,-0.121,12.241,-18.366,1.205,-1.006,-0.056,-0.384,6.421,-32.507,8.883,-1.034,-0.184,-0.347,3.471,-28.603,15.424,-0.311,0.17,0.876,22.748,127.018,-25.907
11580.0,-1.13,-0.011,-0.075,16.035,-33.766,4.451,-0.976,0.037,-0.341,11.699,-33.682,8.852,-1.035,-0.243,-0.429,-1.26,-52.92,14.77,-0.447,0.178,0.875,-0.642,134.018,-33.107
11600.0,-1.066,-0.073,-0.084,13.195,-39.683,6.614,-0.981,0.192,-0.247,3.528,-35.895,9.856,-0.97,-0.184,-0.185,4.06,-42.84,14.63,-0.555,0.016,0.769,6.007,126.419,-34.992
11620.0,-1.029,-0.058,-0.052,7.082,-42.781,7.552,-0.98,0.2,-0.293,-13.46,-35.311,11.042,-0.984,-0.092,-0.055,-10.22,-37.24,15.05,-0.45,0.014,0.797,30.533,125.105,-34.213
11640.0,-0.941,-0.058,-0.039,10.318,-47.136,6.487,-1.016,0.005,-0.315,-17.615,-37.435,10.364,-1.028,-0.13,-0.319,-18.542,-37.843,21.409,-0.37,0.207,0.913,26.314,139.671,-33.529
11660.0,-0.789,-0.129,-0.059,19.814,-47.777,5.281,-1.005,-0.013,-0.293,-11.98,-40.705,11.586,-1.054,-0.252,-0.308,-15.807,-50.809,19.41,-0.509,0.295,0.917,-5.289,151.391,-35.588
11680.0,-0.765,-0.129,-0.024,18.623,-45.295,6.129,-1.043,-0.062,-0.359,-2.24,-44.59,14.77,-0.977,-0.22,-0.155,-4.949,-46.58,20.305,-0.611,0.053,0.748,-2.841,140.945,-38.731
11700.0,-0.806,-0.062,-0.009,9.35,-51.111,6.637,-0.974,0.015,-0.287,12.624,-53.861,17.499,-1.005,-0.131,-0.127,5.905,-48.373,21.664,-0.505,-0.009,0.701,30.625,132.487,-39.734
11720.0,-0.824,-0.016,-0.013,2.049,-54.511,5.339,-0.969,0.119,-0.216,14.729,-57.861,19.734,-0.99,-0.032,-0.01,-1.183,-44.847,21.754,-0.479,0.096,0.761,34.803,145.493,-44.309
11740.0,-0.778,-0.025,-0.004,8.484,-51.521,4.242,-0.988,0.167,-0.122,-4.02,-56.56,17.094,-0.956,-0.191,-0.165,-7.98,-38.36,23.8,-0.708,0.08,0.772,30.237,150.301,-46.286
11760.0,-0.738,-0.068,0.043,7.832,-48.528,7.585,-1.036,0.167,-0.147,-24.496,-56.063,17.819,-1.071,-0.16,-0.24,-3.813,-46.826,26.107,-0.804,0.059,0.577,48.046,145.77,-49.747
11780.0,-0.741,-0.07,0.077,1.598,-51.526,10.15,-1.053,0.129,-0.198,-21.61,-55.657,15.687,-1.053,-0.077,-0.232,9.271,-57.413,25.243,-0.724,0.13,0.491,57.161,141.142,-62.059
11800.0,-0.78,-0.023,0.082,1.034,-58.786,10.175,-0.978,0.063,-0.151,-6.543,-59.667,14.146,-1.059,-0.095,0.038,7.56,-63.7,21.21,-0.673,0.264,0.515,48.6,147.142,-64.683
11820.0,-0.755,-0.022,0.062,4.3,-59.125,10.924,-1.014,0.188,-0.01,-3.099,-62.512,17.072,-1.038,-0.029,-0.114,10.477,-63.506,27.756,-0.794,0.287,0.587,26.327,153.42,-63.089
11840.0,-0.688,-0.056,0.037,2.817,-55.889,12.175,-0.994,0.147,-0.14,-4.352,-64.3,15.704,-0.941,-0.09,0.096,6.384,-68.695,21.371,-0.92,0.15,0.581,18.168,153.266,-61.823
11860.0,-0.662,-0.084,0.043,-1.45,-50.947,13.444,-0.996,0.176,-0.086,-3.171,-65.324,16.779,-0.807,-0.123,0.182,8.96,-55.58,19.67,-0.996,0.098,0.483,47.894,138.633,-64.335
11880.0,-0.688,-0.095,0.102,-1.094,-52.737,13.568,-1.074,0.187,-0.08,-8.954,-67.239,15.187,-0.89,0.061,0.053,21.394,-44.529,10.694,-0.906,0.133,0.459,79.8,130.83,-71.05
11900.0,-0.638,-0.085,0.102,0.078,-55.116,11.0,-0.995,0.074,-0.019,0.703,-66.351,10.768,-0.94,0.048,0.15,8.226,-37.849,2.853,-0.813,0.225,0.573,92.991,128.414,-70.561
11920.0,-0.598,-0.073,0.062,2.265,-56.806,8.253,-0.853,0.191,0.077,-0.567,-56.365,11.178,-0.925,-0.092,0.114,13.65,-29.82,0.91,-0.81,0.212,0.628,94.969,125.22,-65.536
11940.0,-0.508,-0.052,-0.002,3.732,-58.819,5.637,-0.881,0.166,0.06,-11.977,-48.695,13.474,-0.915,-0.025,0.166,12.764,-24.119,-0.427,-0.734,0.21,0.623,100.162,111.009,-58.289
11960.0,-0.466,-0.024,-0.051,3.862,-51.933,5.438,-0.906,0.11,0.083,-12.249,-38.922,16.833,-0.957,-0.008,0.161,1.416,-14.561,-0.355,-0.674,0.227,0.594,99.617,104.252,-54.107
11980.0,-0.498,0.021,-0.058,4.48,-46.55,3.99,-0.929,0.107,0.13,-12.253,-32.77,17.871,-0.995,-0.038,0.099,-0.661,-11.059,-2.315,-0.624,0.289,0.61,88.31,95.618,-49.697
12000.0,-0.515,-0.008,-0.021,6.673,-35.439,1.974,-0.938,0.158,0.144,-17.716,-27.448,16.957,-1.031,-0.006,0.15,2.029,-4.72,-2.819,-0.63,0.345,0.656,65.667,91.757,-42.162
12020.0,-0.602,0.004,0.072,7.766,-19.374,0.565,-0.951,0.132,0.111,-19.152,-18.828,16.149,-1.012,-0.039,0.153,-1.042,0.907,-3.874,-0.746,0.34,0.655,63.277,91.576,-33.985
12040.0,-0.813,-0.01,0.13,5.112,-6.167,0.567,-1.033,0.206,0.09,-15.766,-15.166,14.662,-0.983,-0.086,0.07,-1.837,4.162,-3.213,-0.871,0.499,0.666,54.291,83.493,-29.052
12060.0,-1.059,-0.023,0.168,0.98,-2.03,0.84,-1.053,0.189,0.089,-13.552,-13.878,12.148,-0.984,-0.111,0.073,9.7,3.77,-4.065,-0.959,0.444,0.701,45.551,76.793,-26.321
12080.0,-1.262,-0.039,0.178,0.35,-8.12,1.61,-1.024,0.173,0.12,-4.787,-11.964,8.458,-1.012,-0.031,0.089,10.633,5.067,-3.761,-1.085,0.52,0.809,28.03,66.95,-26.883
12100.0,-1.219,-0.06,0.153,3.01,-6.16,1.89,-0.943,0.256,0.15,2.234,-6.883,3.726,-1.012,0.013,0.074,1.09,5.316,-3.064,-1.153,0.301,0.882,38.795,55.987,-31.038
12120.0,-1.187,-0.05,0.166,7.375,-4.588,0.27,-0.932,0.293,0.162,0.756,0.928,-2.838,-0.967,-0.048,0.063,-1.64,4.44,-2.682,-1.219,0.28,0.928,94.982,31.074,-31.639
12140.0,-1.106,-0.039,0.151,2.989,-0.153,0.328,-0.966,0.222,0.132,2.794,6.076,-5.427,-0.974,-0.075,0.057,1.548,3.374,-2.551,-1.175,0.508,0.796,68.012,2.007,-28.088
12160.0,-1.028,0.002,0.147,-2.589,6.051,-2.443,-1.007,0.138,0.077,6.766,6.999,-5.47,-0.989,-0.06,0.066,2.162,3.8,-2.478,-1.049,0.704,0.669,-36.536,-20.366,-22.085
12180.0,-0.985,0.031,0.187,-4.232,5.598,-4.223,-1.01,0.114,0.057,7.182,5.718,-4.427,-0.985,-0.035,0.078,-1.64,6.659,-2.126,-0.888,0.391,0.56,-97.311,-30.252,-11.567
12200.0,-0.936,0.021,0.182,-2.473,2.166,-3.75,-0.981,0.105,0.065,6.899,5.338,-3.721,-0.984,-0.058,0.078,-1.01,9.776,-2.136,-0.771,0.012,0.489,-90.154,-28.378,2.764
12220.0,-0.894,-0.011,0.155,-1.662,1.862,-2.821,-0.967,0.122,0.079,5.873,6.599,-3.252,-0.987,-0.095,0.09,1.499,13.368,-2.571,-0.768,-0.046,0.395,-59.041,-22.22,11.562
12240.0,-0.902,-0.036,0.131,0.448,2.945,-2.855,-0.995,0.181,0.049,-1.583,7.325,-2.607,-1.001,-0.043,0.081,2.664,14.706,-2.287,-0.81,0.03,0.372,-38.935,-21.17,14.205
12260.0,-0.94,-0.039,0.125,1.219,5.413,-3.757,-1.011,0.163,0.034,-3.89,6.741,-2.665,-0.979,-0.036,0.115,-1.0,19.786,-1.721,-0.876,0.16,0.386,-38.133,-23.717,13.081
12280.0,-0.997,-0.03,0.145,1.142,8.287,-4.094,-1.0,0.177,0.075,-1.64,7.039,-4.41,-0.98,-0.023,0.093,-9.965,22.513,-1.524,-0.953,0.204,0.424,-44.476,-29.913,12.405
12300.0,-1.03,-0.035,0.158,0.736,7.018,-4.565,-0.981,0.171,0.083,0.363,9.181,-6.961,-0.959,0.013,0.058,-17.18,22.667,-3.386,-0.998,0.251,0.502,-58.767,-40.37,14.157
12320.0,-1.043,-0.047,0.137,-1.848,6.878,-4.456,-0.979,0.148,0.071,3.143,12.25,-8.622,-0.919,-0.053,0.008,-19.504,27.576,-5.929,-1.005,0.243,0.604,-57.665,-48.852,18.753
12340.0,-1.022,-0.066,0.103,-4.542,10.03,-3.695,-0.983,0.161,0.061,4.868,14.544,-10.126,-0.985,-0.063,0.001,-5.819,28.416,-8.346,-1.039,0.268,0.631,-43.475,-60.278,25.915
12360.0,-0.995,-0.08,0.109,-3.989,14.848,-3.746,-0.967,0.179,0.06,6.155,18.162,-11.708,-1.004,0.121,-0.016,-5.399,31.04,-12.565,-1.035,0.282,0.637,-32.554,-71.427,33.82
12380.0,-0.975,-0.079,0.127,-2.279,13.764,-4.014,-0.993,0.193,0.098,7.325,23.99,-12.024,-0.941,0.026,-0.024,-12.338,37.004,-17.318,-0.997,0.297,0.652,-22.587,-79.976,41.291
12400.0,-0.932,-0.057,0.071,-2.201,13.588,-4.783,-1.024,0.073,0.116,17.64,32.02,-12.424,-0.935,0.034,0.016,-16.5,44.262,-20.932,-0.978,0.303,0.735,-21.559,-90.239,47.785
12420.0,-0.889,-0.014,-0.041,-3.074,25.722,-6.19,-0.952,0.074,0.052,19.325,39.797,-14.491,-0.949,-0.058,0.008,-22.79,53.821,-22.428,-0.943,0.303,0.765,-19.331,-100.47,55.9
12440.0,-0.869,0.012,-0.006,-4.03,41.103,-8.236,-0.883,0.107,0.078,10.995,51.866,-14.594,-1.036,-0.274,-0.104,3.292,52.847,-22.592,-0.883,0.314,0.759,-15.642,-108.017,63.655
12460.0,-0.845,0.012,0.157,-0.263,38.857,-7.738,-0.998,0.212,0.077,7.294,54.806,-11.314,-1.06,-0.015,-0.172,7.07,44.8,-19.81,-0.894,0.34,0.795,-18.792,-113.675,69.516
12480.0,-0.804,-0.023,0.14,4.758,33.69,-6.493,-1.068,0.179,-0.102,-3.703,52.462,-6.993,-0.949,-0.002,-0.199,-5.734,45.62,-20.787,-0.904,0.331,0.801,-30.856,-123.124,73.861
12500.0,-0.753,-0.091,0.086,4.159,30.54,-5.377,-1.043,0.046,-0.106,-6.493,52.801,-4.913,-1.016,-0.038,-0.235,-12.503,40.899,-21.21,-0.888,0.292,0.727,-35.814,-131.174,74.428
12520.0,-0.708,-0.108,0.007,-3.186,30.851,-5.071,-0.936,0.0,-0.095,5.792,47.907,-3.994,-0.929,-0.01,-0.181,-29.613,17.116,-22.636,-0.918,0.247,0.687,-38.832,-137.777,72.852
12540.0,-0.711,-0.066,0.024,-2.305,32.6,-6.081,-0.911,0.18,-0.198,1.391,46.501,-2.819,-0.983,-0.203,-0.211,-27.743,32.032,-21.013,-0.962,0.225,0.673,-37.16,-143.406,73.359
12560.0,-0.756,-0.019,0.066,3.781,31.64,-7.963,-0.973,0.037,-0.135,-0.629,43.208,-3.244,-1.348,-0.334,-0.099,6.445,20.992,-18.917,-1.002,0.276,0.642,-35.643,-146.946,71.476
12580.0,-0.784,-0.008,0.065,5.398,31.156,-8.875,-1.049,0.055,-0.117,13.768,42.134,-2.79,-0.78,-0.031,-0.102,10.904,33.549,-15.339,-0.987,0.284,0.656,-44.454,-152.939,65.024
12600.0,-0.793,-0.013,0.061,2.673,32.356,-8.586,-1.005,0.179,-0.228,11.188,41.923,-2.524,-0.947,-0.176,-0.329,-2.62,48.475,-13.122,-0.909,0.206,0.659,-49.989,-156.09,60.709
12620.0,-0.852,-0.045,0.075,1.824,29.06,-5.631,-1.031,0.209,-0.157,24.074,31.65,2.969,-0.886,0.025,-0.115,2.485,28.39,-14.176,-0.914,0.156,0.61,-45.184,-155.12,58.596
12640.0,-0.902,-0.055,0.054,3.425,23.653,-3.284,-1.19,0.173,-0.103,35.166,14.075,-5.619,-1.092,-0.197,-0.13,-6.946,24.695,-12.465,-0.946,0.133,0.616,-36.916,-154.398,56.421
12660.0,-0.896,-0.052,0.046,3.079,28.162,-2.792,-0.915,0.156,-0.275,15.844,40.662,-15.511,-1.017,-0.272,-0.322,10.471,13.809,-11.83,-0.932,0.089,0.629,-26.998,-156.945,55.264
12680.0,-0.915,-0.075,0.126,5.182,28.529,-5.107,-0.916,0.166,-0.256,-6.821,42.966,-13.692,-0.937,-0.138,-0.288,28.91,13.641,-13.644,-0.789,0.108,0.57,-6.713,-157.764,55.338
12700.0,-0.873,-0.08,0.096,8.91,20.012,-5.712,-1.131,0.12,-0.313,1.18,24.232,-11.143,-0.929,-0.154,-0.235,11.778,37.752,-12.815,-0.603,0.131,0.553,-4.227,-148.471,55.861
12720.0,-0.846,-0.066,0.05,9.514,19.321,-5.193,-0.981,-0.007,-0.35,14.56,30.17,-16.52,-0.815,-0.151,-0.274,11.329,31.145,-14.187,-0.551,0.157,0.613,-16.767,-137.589,55.968
12740.0,-0.829,-0.084,0.046,6.981,19.402,-6.307,-0.958,0.136,-0.106,15.119,32.516,-19.098,-0.933,-0.138,-0.327,14.428,27.78,-13.353,-0.536,0.042,0.672,-21.884,-131.524,53.495
12760.0,-0.812,-0.076,0.035,9.893,20.092,-8.82,-1.032,0.241,-0.166,14.885,34.482,-17.055,-0.973,-0.117,-0.274,13.38,26.484,-12.901,-0.496,0.023,0.651,-8.493,-129.02,47.251
12780.0,-0.81,-0.039,0.056,7.744,23.344,-8.816,-1.014,0.102,-0.355,3.532,33.789,-17.437,-0.935,-0.109,-0.277,10.466,19.768,-14.011,-0.332,0.017,0.622,0.267,-126.248,42.103
12800.0,-0.838,-0.011,0.072,0.14,17.85,-7.91,-1.0,-0.018,-0.382,6.053,29.584,-18.25,-0.94,-0.195,-0.326,7.959,15.757,-14.168,-0.24,0.106,0.685,-3.981,-116.059,39.3
12820.0,-0.795,0.013,-0.022,-6.051,18.786,-6.474,-0.873,0.14,-0.314,0.0,35.11,-17.811,-0.944,-0.249,-0.24,8.331,17.124,-11.241,-0.231,0.152,0.771,-21.925,-109.018,34.232
12840.0,-0.831,0.003,-0.021,1.839,22.456,-5.856,-0.955,0.027,-0.313,-9.209,27.446,-17.611,-0.92,-0.196,-0.353,12.406,19.935,-9.924,-0.338,0.069,0.718,-26.568,-104.695,24.099
12860.0,-0.874,-0.01,0.002,6.695,20.225,-1.399,-0.944,0.07,-0.311,-4.631,22.145,-15.619,-0.988,-0.106,-0.411,10.774,10.858,-14.261,-0.308,0.067,0.643,-18.715,-106.026,16.906
12880.0,-0.951,-0.059,-0.015,-3.622,22.102,1.786,-0.946,0.082,-0.311,-5.79,22.653,-13.484,-0.894,-0.108,-0.253,0.988,4.817,-15.124,-0.191,0.163,0.774,-20.385,-94.87,14.458
12900.0,-1.028,-0.128,-0.035,-11.42,22.98,2.696,-0.993,-0.027,-0.399,-1.143,19.73,-15.414,-0.856,-0.219,-0.169,4.011,2.205,-12.525,-0.212,0.109,0.73,-27.617,-89.44,12.73
12920.0,-1.096,-0.109,-0.01,-7.611,15.443,0.766,-0.899,0.105,-0.318,-1.085,18.193,-16.348,-1.022,-0.231,-0.432,19.151,0.913,-11.655,-0.201,0.085,0.673,-24.341,-86.721,12.192
12940.0,-1.068,-0.071,-0.034,-2.263,13.306,-1.231,-0.942,0.1,-0.339,-10.622,15.333,-13.716,-1.066,-0.096,-0.375,11.815,1.095,-13.139,-0.081,0.058,0.717,-7.764,-78.06,13.43
12960.0,-1.013,-0.067,-0.082,-3.935,16.229,-3.28,-0.973,-0.04,-0.345,-9.247,13.389,-12.381,-0.959,-0.302,-0.325,3.176,2.597,-13.442,-0.022,0.172,0.771,-9.913,-69.014,13.928
12980.0,-1.032,-0.105,-0.028,-7.888,17.147,-2.734,-0.919,-0.02,-0.293,-4.123,12.797,-10.987,-0.806,-0.204,-0.322,7.922,5.039,-9.361,-0.063,0.202,0.836,-34.861,-62.816,11.174
13000.0,-1.02,-0.083,-0.085,-7.49,12.81,-3.22,-0.927,0.063,-0.384,-6.315,10.404,-4.453,-0.906,-0.292,-0.304,8.069,4.758,-8.103,-0.035,0.132,0.911,-44.781,-61.815,7.587
13020.0,-1.006,-0.052,-0.091,-2.667,16.116,-5.056,-1.021,-0.064,-0.368,-8.818,9.863,-1.214,-1.053,-0.231,-0.427,9.528,-5.75,-5.537,0.035,0.035,0.896,-24.144,-57.902,6.871
13040.0,-1.036,-0.056,-0.007,-1.779,13.123,-4.495,-1.027,-0.044,-0.32,-5.237,9.789,1.794,-0.889,-0.251,-0.267,9.539,-7.251,-2.27,0.067,0.119,0.96,-18.82,-53.246,4.65
13060.0,-1.06,-0.082,-0.055,-0.302,7.041,-3.402,-0.884,0.008,-0.389,-6.68,12.243,4.796,-0.959,-0.339,-0.378,1.039,-18.159,-1.557,0.032,0.129,0.983,-19.874,-53.186,2.551
13080.0,-1.059,-0.106,-0.114,5.108,2.887,-4.394,-0.937,-0.021,-0.399,-3.599,7.158,8.193,-0.879,-0.415,-0.269,27.921,-7.856,1.449,0.021,0.109,0.957,-22.128,-55.5,0.506
13100.0,-1.043,-0.094,-0.116,2.074,4.523,-3.338,-0.942,0.111,-0.359,-7.063,2.96,7.31,-0.992,-0.023,-0.263,3.726,-10.878,-4.404,0.094,0.016,0.849,-7.498,-55.44,0.95
13120.0,-1.041,-0.089,-0.125,-2.066,5.265,-1.773,-0.941,-0.027,-0.457,-8.018,-0.437,11.142,-1.002,-0.172,-0.333,-1.884,-8.377,-7.906,0.211,0.046,0.866,11.056,-49.93,4.514
13140.0,-1.057,-0.098,-0.124,-0.587,4.878,-1.099,-0.958,0.093,-0.308,-4.517,-4.297,11.279,-0.899,-0.361,-0.345,11.081,-5.125,-4.675,0.247,0.174,0.929,12.932,-38.897,9.079
13160.0,-1.131,-0.118,-0.113,0.426,2.497,-0.295,-0.953,0.06,-0.333,-8.145,4.647,14.564,-0.86,-0.316,-0.326,14.423,-5.258,-4.322,0.251,0.218,0.938,-3.296,-30.778,11.336
13180.0,-1.227,-0.129,-0.136,-1.675,-2.608,-0.543,-0.928,0.092,-0.333,-27.27,3.511,11.575,-0.915,-0.122,-0.185,12.332,-9.123,-6.753,0.277,0.172,0.949,-14.444,-25.522,12.125
13200.0,-1.246,-0.123,-0.286,-1.242,-3.439,-1.761,-1.022,0.06,-0.364,-29.442,5.28,13.188,-1.018,-0.153,-0.167,6.097,-11.778,-8.335,0.271,0.123,1.048,-15.43,-18.429,12.292
13220.0,-1.225,-0.084,-0.345,0.663,9.058,-1.403,-0.904,-0.066,-0.365,-15.96,11.38,15.119,-1.024,-0.273,-0.39,-4.659,-10.89,-9.324,0.226,0.133,1.129,-18.067,-15.548,12.688
13240.0,-1.201,-0.069,-0.279,-4.302,25.545,-4.674,-0.91,0.027,-0.423,-16.1,6.86,14.77,-0.99,-0.209,-0.406,5.819,-10.535,-7.431,0.245,0.071,1.134,-19.532,-14.781,14.92
13260.0,-1.216,-0.073,-0.078,-6.832,19.827,-6.719,-0.914,0.253,-0.389,-22.913,7.897,13.38,-0.944,-0.228,-0.348,1.393,-10.999,-6.269,0.249,0.053,1.142,-20.919,-15.031,16.089
13280.0,-1.239,-0.067,-0.048,-1.53,6.266,-6.518,-0.935,-0.021,-0.36,-18.742,6.358,11.11,-0.841,-0.282,-0.218,2.185,-7.055,-6.148,0.266,0.072,1.205,-25.317,-16.774,15.813
13300.0,-1.192,-0.097,-0.206,2.451,11.343,-6.18,-0.924,0.109,-0.355,-9.46,7.578,12.53,-0.925,-0.321,-0.276,4.724,-8.489,-3.184,0.371,-0.021,1.176,-26.013,-16.193,12.742
13320.0,-1.196,-0.133,-0.122,3.769,11.402,-7.59,-0.906,-0.034,-0.463,-5.616,7.7,12.53,-0.97,-0.244,-0.259,7.049,-7.345,1.058,0.389,-0.073,1.131,-3.729,-13.745,7.121
13340.0,-1.281,-0.039,-0.138,-3.634,5.908,-2.768,-0.913,0.131,-0.455,-8.294,2.405,11.025,-0.941,-0.147,-0.238,-1.621,-6.703,0.464,0.386,-0.021,1.184,11.669,-12.441,2.816
13360.0,-1.335,-0.116,-0.264,-2.805,9.245,-1.57,-0.944,0.09,-0.376,-5.346,-1.119,7.506,-0.968,-0.221,-0.299,-4.77,-9.246,-3.649,0.398,0.028,1.195,7.839,-10.133,2.224
13380.0,-1.355,-0.106,-0.255,3.046,9.058,-1.974,-0.984,0.089,-0.403,2.227,-6.023,6.129,-0.938,-0.275,-0.287,-4.003,-8.181,-3.467,0.389,0.042,1.174,2.056,-7.137,2.8
13400.0,-1.394,-0.129,-0.212,3.728,4.456,-3.092,-0.941,0.063,-0.475,2.416,-5.506,6.301,-0.935,-0.223,-0.3,-1.933,-10.438,0.09,0.371,0.09,1.258,1.812,0.414,1.46
13420.0,-1.468,-0.076,-0.231,-5.175,6.131,1.139,-0.96,0.123,-0.376,5.089,-5.532,6.628,-0.904,-0.306,-0.217,-3.354,-10.63,3.245,0.316,0.112,1.366,-8.164,1.064,-2.45
13440.0,-1.442,-0.119,-0.275,-5.228,5.134,2.646,-0.915,0.052,-0.378,5.661,-6.574,7.615,-0.946,-0.318,-0.271,5.558,-7.762,7.4,0.393,0.02,1.368,-2.556,1.278,-3.325
13460.0,-1.425,-0.114,-0.38,1.001,2.33,2.557,-0.95,0.119,-0.392,5.125,-7.207,7.7,-0.971,-0.245,-0.29,-7.781,-11.543,9.813,0.447,0.016,1.341,7.97,5.695,-3.469
13480.0,-1.441,-0.05,-0.287,2.392,3.139,0.046,-0.959,0.019,-0.461,9.515,-11.144,4.99,-0.939,-0.334,-0.249,-8.737,-11.202,11.612,0.351,0.03,1.296,13.107,8.659,-4.682
13500.0,-1.44,-0.069,-0.257,-4.253,4.921,0.882,-0.903,0.164,-0.458,10.328,-12.006,2.265,-0.935,-0.199,-0.254,-4.243,-9.706,13.853,0.304,0.027,1.282,19.955,9.709,-4.768
13520.0,-1.39,-0.091,-0.27,-6.514,5.776,1.118,-0.929,0.141,-0.427,6.276,-13.619,-2.106,-0.917,-0.198,-0.266,-7.965,-9.183,12.208,0.399,0.139,1.353,19.691,13.724,-7.121
13540.0,-1.337,-0.124,-0.293,-2.583,1.696,0.869,-0.938,0.114,-0.362,6.74,-18.758,-5.081,-0.901,-0.276,-0.24,-3.076,-7.217,10.462,0.345,0.08,1.153,11.703,18.348,-10.076
13560.0,-1.33,-0.126,-0.224,-2.061,3.787,-1.742,-0.97,0.09,-0.406,12.852,-20.431,-4.788,-0.915,-0.202,-0.302,-3.618,-7.262,11.264,0.257,0.008,1.074,29.62,21.818,-11.926
13580.0,-1.376,-0.116,-0.171,-5.95,0.98,-4.13,-0.965,0.101,-0.374,12.503,-19.172,-4.036,-0.935,-0.173,-0.302,-3.59,-10.731,10.433,0.276,0.142,1.126,28.417,25.626,-14.207
13600.0,-1.293,-0.071,-0.218,-2.38,-2.17,-3.22,-0.916,0.113,-0.353,6.879,-15.673,-4.464,-0.996,-0.271,-0.222,-4.269,-10.299,10.32,0.234,0.203,1.118,10.264,32.143,-15.459
13620.0,-1.215,-0.075,-0.271,1.115,-0.894,-2.172,-0.925,0.014,-0.37,9.765,-13.76,-4.855,-0.952,-0.182,-0.24,-1.741,-5.512,10.409,0.176,0.16,1.056,-3.618,36.824,-16.223
13640.0,-1.212,-0.044,-0.248,-4.392,3.01,-2.348,-0.942,0.077,-0.408,9.986,-16.576,-5.275,-0.922,-0.115,-0.295,-10.474,-11.76,9.092,0.123,0.061,0.983,-6.325,40.697,-17.341
13660.0,-1.187,-0.063,-0.218,-11.119,2.649,-3.498,-0.923,0.076,-0.368,11.809,-18.006,-5.195,-0.989,-0.159,-0.245,-12.11,-12.81,8.26,0.109,0.042,0.942,13.17,47.536,-16.494
13680.0,-1.162,-0.079,-0.202,-10.066,2.425,-3.171,-0.94,0.095,-0.348,7.878,-16.009,-5.594,-0.979,-0.26,-0.226,-8.26,-14.14,9.03,0.097,0.111,0.939,17.791,55.149,-12.301
13700.0,-1.217,-0.075,-0.166,-4.76,-5.25,1.19,-0.961,0.101,-0.344,-1.818,-15.114,-6.158,-0.99,-0.203,-0.244,-1.96,-11.55,9.94,0.07,0.179,0.957,7.64,59.517,-10.431
13720.0,-1.211,-0.135,-0.209,-2.644,-7.645,2.645,-0.953,0.063,-0.331,-0.7,-15.25,-5.917,-0.989,-0.15,-0.355,-5.827,-15.738,10.562,-0.043,0.089,0.873,1.521,64.055,-9.956
13740.0,-1.169,-0.125,-0.161,-7.468,-8.45,4.63,-0.966,0.034,-0.355,-1.852,-15.909,-4.165,-0.954,-0.183,-0.317,-10.698,-19.74,13.454,-0.053,0.046,0.827,13.07,65.79,-10.487
13760.0,-1.183,-0.126,-0.173,-1.865,-13.358,3.767,-0.993,-0.011,-0.422,-8.258,-17.276,-1.077,-0.984,-0.228,-0.133,-9.561,-23.879,15.305,-0.029,0.085,0.799,27.58,78.19,-12.6
13780.0,-1.166,-0.135,-0.187,5.553,-12.25,-0.357,-0.935,-0.047,-0.405,0.545,-20.22,2.795,-0.986,-0.172,-0.245,-4.862,-22.69,14.094,-0.067,0.162,0.922,27.737,90.333,-13.955
13800.0,-1.08,-0.121,-0.152,7.495,-11.921,-0.752,-0.903,0.083,-0.284,3.745,-21.838,5.418,-1.046,-0.126,-0.315,-10.251,-28.007,10.878,-0.159,0.116,0.876,24.22,98.305,-18.676
13820.0,-1.076,-0.079,-0.1,0.184,-17.609,1.965,-0.938,0.113,-0.33,-3.932,-23.521,5.752,-1.048,0.02,-0.336,-18.918,-35.185,15.821,-0.243,0.098,0.82,34.463,102.404,-24.867
13840.0,-1.155,0.017,-0.093,-4.386,-25.198,3.876,-0.988,0.026,-0.368,-9.264,-25.202,8.159,-0.991,-0.189,-0.259,-14.135,-40.507,13.077,-0.219,0.139,0.877,41.705,112.169,-27.933
13860.0,-1.12,-0.053,-0.125,-2.604,-25.007,2.59,-1.008,-0.046,-0.328,-8.441,-30.641,12.973,-0.983,-0.197,-0.123,-7.646,-40.613,15.164,-0.251,0.295,1.013,25.765,115.765,-27.861
13880.0,-1.007,-0.052,-0.069,2.307,-25.522,2.385,-1.021,-0.021,-0.387,2.12,-33.904,17.833,-0.962,-0.156,-0.084,-7.458,-36.593,14.189,-0.312,0.185,0.941,7.059,114.182,-26.03
13900.0,-0.977,-0.032,0.033,2.021,-30.425,3.382,-0.982,-0.012,-0.389,6.821,-39.644,18.536,-1.027,-0.147,-0.155,-12.013,-32.94,15.905,-0.391,0.137,0.794,6.239,118.193,-27.977
13920.0,-0.948,-0.06,0.024,-1.771,-40.166,3.813,-0.961,0.185,-0.205,-4.991,-39.802,18.891,-1.069,-0.005,-0.346,-22.48,-49.304,20.055,-0.442,0.112,0.762,12.399,114.656,-31.772
13940.0,-0.877,-0.104,-0.066,-4.672,-47.021,2.936,-1.042,0.14,-0.345,-19.551,-41.613,17.992,-0.881,-0.074,0.033,-20.523,-43.418,17.342,-0.223,0.178,0.931,8.828,117.014,-29.792
13960.0,-0.814,-0.116,-0.12,2.048,-43.53,-1.065,-0.993,-0.006,-0.343,-11.452,-46.275,15.405,-0.978,-0.199,-0.006,-2.644,-42.067,18.739,-0.313,0.187,0.897,-11.873,122.506,-28.762
13980.0,-0.833,-0.1,-0.062,8.218,-35.91,-1.465,-0.963,0.068,-0.26,-7.931,-48.83,15.3,-1.002,-0.047,-0.135,0.529,-38.572,22.729,-0.46,0.028,0.768,-6.42,126.193,-24.751
14000.0,-0.815,-0.06,0.043,6.081,-34.823,0.121,-0.977,0.115,-0.229,-6.652,-50.132,15.847,-1.018,-0.17,-0.298,-14.918,-40.154,22.774,-0.522,0.024,0.697,27.954,124.588,-25.197
14020.0,-0.763,-0.026,0.055,-2.113,-42.377,3.263,-0.964,0.15,-0.203,-8.036,-53.59,14.727,-1.108,-0.1,-0.218,4.13,-50.932,21.6,-0.5,0.194,0.794,17.43,128.235,-30.04
14040.0,-0.712,-0.021,0.032,-3.884,-47.449,5.096,-1.006,0.15,-0.224,-10.35,-57.258,15.194,-0.983,-0.125,-0.055,-1.758,-52.256,22.304,-0.581,0.187,0.855,-18.215,127.089,-35.942
14060.0,-0.686,-0.023,0.02,-0.423,-47.051,6.421,-1.009,0.096,-0.208,-14.911,-59.349,14.538,-1.058,-0.027,-0.12,6.639,-60.532,26.977,-0.606,0.036,0.781,-15.048,114.02,-33.185
14080.0,-0.701,-0.037,0.045,2.204,-45.551,7.434,-1.016,0.172,-0.156,-11.175,-60.504,14.029,-0.989,-0.042,-0.008,2.048,-70.118,21.051,-0.635,0.016,0.73,-0.335,113.205,-34.19
14100.0,-0.724,-0.056,0.057,3.375,-45.609,7.69,-1.024,0.148,-0.157,-10.238,-61.192,13.983,-0.933,-0.14,0.091,3.423,-65.548,20.986,-0.696,0.006,0.68,19.063,116.994,-38.364
14120.0,-0.774,-0.026,0.053,2.596,-48.405,7.161,-1.021,0.121,-0.144,-7.998,-65.984,17.539,-0.916,-0.159,0.05,18.912,-58.582,21.472,-0.753,-0.01,0.547,46.287,116.642,-41.409
14140.0,-0.878,-0.013,0.07,-2.706,-51.493,6.846,-1.114,0.153,-0.033,-6.609,-68.326,20.01,-0.932,-0.068,0.06,32.627,-54.43,14.601,-0.728,0.096,0.501,59.125,115.576,-45.053
14160.0,-0.89,-0.051,0.067,-3.698,-54.241,7.946,-0.997,0.115,-0.113,-7.38,-68.347,17.466,-0.924,0.055,0.128,31.815,-46.635,9.307,-0.646,0.314,0.695,28.491,122.053,-47.421
14180.0,-0.814,-0.087,0.066,-1.319,-56.548,9.659,-0.902,0.168,-0.012,-7.698,-62.627,17.0,-0.909,0.114,0.115,19.247,-37.402,6.301,-0.753,0.288,0.725,-1.121,122.034,-45.152
14200.0,-0.654,-0.088,0.057,1.066,-57.827,10.22,-0.886,0.24,0.023,-16.036,-55.067,15.873,-0.956,0.084,0.156,4.906,-30.976,2.068,-0.784,0.129,0.65,-5.468,113.047,-38.256
14220.0,-0.551,-0.059,0.005,-1.428,-57.927,9.994,-0.889,0.185,0.044,-24.621,-47.395,15.681,-0.956,0.026,0.176,-3.393,-22.987,-0.668,-0.711,0.027,0.533,28.823,100.27,-35.299
14240.0,-0.477,-0.027,-0.032,-2.273,-56.305,9.756,-0.903,0.098,0.123,-19.32,-38.5,15.89,-0.964,-0.04,0.174,-3.378,-16.392,-2.085,-0.624,0.075,0.49,70.659,91.313,-32.258
14260.0,-0.449,-0.017,-0.05,-1.276,-48.184,9.668,-0.928,0.105,0.138,-8.382,-31.197,15.808,-0.993,-0.037,0.152,2.274,-11.269,-2.09,-0.515,0.214,0.474,93.626,90.952,-23.364
