Millis,AccelX,AccelY,AccelZ,GyroX,GyroY,GyroZ
9249441,-1.007,0.031,0.021,-0.630,-2.380,-0.980
9249461,-1.003,0.023,0.019,-1.050,-2.030,-0.840
9249485,-1.010,0.023,0.018,-0.350,-2.030,-1.050
9249505,-1.003,0.024,0.017,-0.560,-1.680,-1.260
9249524,-1.014,0.020,0.012,0.490,-2.380,-1.470
9249544,-1.016,0.027,0.016,0.630,-3.080,-1.470
9249564,-1.001,0.032,0.020,-0.350,-3.220,-1.540
9249583,-1.006,0.013,0.017,0.000,-2.870,-1.820
9249608,-1.011,0.022,0.020,1.820,-3.290,-1.680
9249628,-1.006,0.035,0.023,0.770,-3.290,-1.330
9249652,-1.000,0.024,0.020,-0.700,-2.660,-1.750
9249668,-1.008,0.024,0.018,0.210,-2.870,-1.610
9249688,-1.005,0.024,0.021,0.630,-2.800,-1.610
9249712,-1.007,0.033,0.021,0.280,-2.590,-1.750
9249731,-1.005,0.023,0.020,-0.560,-2.240,-1.750
9249750,-1.009,0.019,0.017,0.070,-2.590,-1.680
9249770,-1.009,0.026,0.018,0.210,-2.590,-1.610
9249794,-1.005,0.029,0.017,-0.350,-2.590,-1.610
9249809,-1.006,0.023,0.018,-0.490,-2.450,-1.680
9249834,-1.006,0.018,0.019,0.910,-2.450,-1.750
9249854,-1.011,0.021,0.017,1.890,-2.660,-1.540
9249874,-1.008,0.032,0.015,1.260,-2.590,-1.680
9249898,-1.002,0.028,0.019,0.560,-2.590,-2.030
9249917,-1.011,0.023,0.018,0.980,-2.450,-1.820
9249938,-1.015,0.024,0.017,1.330,-2.800,-1.540
9249959,-1.001,0.029,0.018,-0.140,-2.800,-1.260
9249978,-1.008,0.029,0.018,-0.770,-2.590,-1.260
9250002,-1.009,0.024,0.020,-0.560,-3.010,-1.400
9250022,-1.001,0.018,0.019,0.210,-2.730,-1.750
9250042,-1.009,0.020,0.018,1.960,-2.590,-1.540
9250057,-1.006,0.026,0.020,1.540,-2.590,-1.400
9250081,-1.006,0.031,0.016,0.560,-2.800,-1.400
9250102,-1.002,0.026,0.019,0.070,-2.800,-1.470
9250122,-1.007,0.025,0.016,0.560,-2.870,-1.470
9250140,-1.009,0.022,0.019,0.770,-2.590,-1.610
9250164,-1.004,0.027,0.020,1.120,-2.590,-1.330
9250184,-1.008,0.030,0.020,0.560,-2.520,-1.400
9250201,-1.006,0.033,0.020,-0.280,-2.800,-1.470
9250220,-1.004,0.021,0.021,0.070,-2.520,-1.820
9250240,-1.010,0.018,0.017,1.470,-2.520,-1.400
9250259,-1.011,0.031,0.018,1.820,-2.940,-1.470
9250284,-1.005,0.033,0.019,0.350,-2.800,-1.540
9250302,-1.006,0.024,0.019,0.350,-2.590,-1.750
9250326,-1.006,0.029,0.018,-0.210,-2.660,-1.960
9250345,-1.011,0.023,0.019,0.420,-2.940,-1.890
9250365,-1.010,0.023,0.015,1.260,-3.220,-1.750
9250385,-1.002,0.031,0.020,0.210,-3.010,-1.890
9250405,-1.013,0.023,0.015,0.350,-3.500,-1.820
9250429,-1.013,0.022,0.018,0.560,-4.200,-1.820
9250449,-0.999,0.028,0.020,0.140,-3.570,-1.820
9250469,-1.009,0.022,0.018,0.840,-3.920,-1.960
9250489,-1.010,0.031,0.020,0.910,-4.270,-1.820
9250513,-1.000,0.039,0.021,-1.050,-4.130,-1.890
9250533,-1.004,0.023,0.026,-1.890,-3.500,-1.820
9250553,-1.008,0.019,0.021,-1.120,-3.290,-1.680
9250571,-1.002,0.023,0.026,-0.210,-3.150,-1.610
9250593,-1.005,0.029,0.022,-0.630,-2.590,-1.890
9250613,-1.007,0.022,0.022,-0.210,-2.800,-2.030
9250633,-1.007,0.020,0.022,0.560,-2.590,-1.750
9250651,-1.011,0.022,0.019,0.630,-3.010,-1.610
9250674,-1.010,0.032,0.020,-0.070,-3.290,-1.470
9250692,-1.002,0.023,0.023,-0.840,-3.010,-1.750
9250716,-1.005,0.019,0.021,0.770,-2.800,-1.680
9250736,-1.009,0.027,0.023,1.400,-2.730,-1.680
9250756,-1.003,0.032,0.024,0.000,-2.520,-1.680
9250772,-1.004,0.024,0.021,-0.140,-2.100,-1.890
9250794,-1.007,0.025,0.020,0.140,-2.170,-1.890
9250813,-1.008,0.020,0.020,0.840,-2.170,-2.030
9250832,-1.006,0.026,0.020,1.050,-2.170,-1.960
9250857,-1.009,0.029,0.019,0.490,-2.380,-1.960
9250876,-1.012,0.023,0.020,0.560,-2.590,-2.030
9250896,-1.005,0.017,0.021,1.330,-2.730,-1.890
9250920,-1.002,0.029,0.020,1.540,-2.590,-1.820
9250943,-1.011,0.027,0.021,0.700,-2.870,-1.820
9250964,-1.009,0.024,0.019,0.490,-2.800,-1.960
9250984,-1.004,0.027,0.022,1.260,-3.150,-2.170
9251004,-1.005,0.029,0.022,-0.070,-2.660,-2.310
9251024,-1.007,0.016,0.019,0.490,-2.730,-2.380
9251041,-1.011,0.016,0.022,1.750,-3.080,-2.170
9251064,-1.002,0.025,0.022,1.610,-3.010,-1.890
9251085,-1.008,0.019,0.022,1.820,-2.800,-2.170
9251103,-1.006,0.024,0.020,2.030,-2.800,-1.960
9251123,-1.005,0.027,0.020,1.610,-2.870,-2.170
9251147,-1.006,0.023,0.022,1.190,-2.730,-2.240
9251162,-1.011,0.025,0.022,1.470,-2.940,-2.310
9251187,-1.010,0.022,0.022,1.680,-3.080,-2.310
9251205,-1.004,0.024,0.021,1.120,-2.870,-2.170
9251229,-1.008,0.022,0.022,0.490,-2.800,-1.890
9251249,-1.011,0.025,0.021,-0.280,-3.080,-1.960
9251268,-1.008,0.016,0.020,0.210,-3.080,-1.820
9251289,-1.004,0.018,0.021,0.350,-2.940,-2.100
9251309,-1.005,0.021,0.022,1.050,-3.010,-2.170
9251328,-1.009,0.023,0.024,1.330,-3.290,-2.240
9251348,-1.005,0.020,0.022,1.400,-2.870,-2.520
9251373,-1.004,0.022,0.023,0.980,-2.870,-2.590
9251393,-1.009,0.017,0.025,1.190,-2.940,-2.380
9251413,-1.006,0.019,0.023,1.470,-2.660,-2.240
9251431,-1.004,0.029,0.022,0.420,-3.150,-2.030
9251455,-1.006,0.022,0.026,-0.070,-2.730,-2.380
9251475,-1.007,0.014,0.020,0.210,-2.590,-2.660
9251494,-1.010,0.016,0.024,1.680,-2.800,-2.520
9251513,-1.012,0.023,0.025,1.260,-2.870,-2.380
9251535,-0.999,0.018,0.025,0.420,-2.520,-2.590
9251552,-1.001,0.024,0.021,0.630,-2.590,-2.450
9251575,-1.007,0.020,0.020,0.000,-2.730,-3.150
9251594,-1.010,0.011,0.017,1.260,-2.940,-2.940
9251614,-1.005,0.013,0.023,2.590,-3.360,-3.080
9251638,-1.002,0.022,0.025,3.150,-2.730,-3.360
9251656,-1.009,0.022,0.015,1.610,-2.870,-3.640
9251680,-1.014,0.006,0.021,2.170,-3.850,-3.360
9251699,-1.004,0.016,0.031,0.980,-3.430,-2.730
9251716,-1.000,0.030,0.029,-0.840,-2.800,-2.590
9251740,-1.011,0.010,0.023,-2.240,-2.240,-2.940
9251756,-1.009,0.001,0.024,-1.260,-2.310,-2.450
9251776,-0.997,0.005,0.028,0.210,-1.820,-2.310
9251800,-1.003,0.016,0.024,0.140,-1.260,-2.310
9251820,-1.012,0.003,0.021,1.540,-1.750,-2.590
9251840,-1.008,0.009,0.023,2.450,-1.750,-1.960
9251864,-1.004,0.016,0.020,0.840,-1.750,-1.680
9251884,-1.009,0.008,0.020,0.840,-1.890,-1.680
9251904,-1.008,0.004,0.021,2.100,-2.030,-1.470
9251923,-1.005,0.012,0.024,2.380,-2.030,-1.540
9251942,-1.007,0.011,0.024,1.960,-1.960,-1.400
9251966,-1.004,0.014,0.021,2.030,-1.820,-1.750
9251987,-1.009,0.017,0.023,1.890,-1.120,-2.310
9252005,-1.010,0.010,0.020,2.730,-1.330,-2.730
9252029,-0.998,0.014,0.021,3.360,-0.840,-3.360
9252049,-0.992,0.022,0.016,5.740,-1.260,-4.340
9252066,-1.018,0.012,0.003,4.970,0.350,-5.040
9252086,-1.021,0.006,0.007,6.790,-2.730,-5.390
9252110,-1.006,0.011,0.013,5.740,-3.150,-5.040
9252130,-1.003,0.014,0.016,2.660,-3.430,-5.670
9252145,-1.004,0.009,0.011,2.730,-3.780,-6.160
9252170,-1.013,0.002,0.014,4.760,-4.130,-7.420
9252191,-1.011,-0.009,0.010,8.050,-4.200,-8.190
9252210,-1.012,-0.011,0.018,10.500,-4.830,-8.120
9252234,-1.000,0.011,0.027,7.490,-4.130,-7.770
9252250,-1.008,0.015,0.036,4.550,-4.690,-8.610
9252274,-1.015,0.009,0.003,3.990,-3.780,-9.660
9252293,-1.020,0.009,-0.001,1.960,-6.020,-9.940
9252312,-1.029,-0.002,0.014,2.870,-8.960,-9.730
9252336,-1.004,-0.043,0.040,-2.170,-8.190,-7.980
9252354,-0.973,-0.064,0.037,-1.260,-7.210,-6.930
9252375,-0.986,-0.075,0.041,4.830,-5.530,-7.070
9252399,-0.981,-0.043,0.034,16.590,-3.780,-9.030
9252417,-1.028,-0.067,0.017,27.790,-5.180,-10.220
9252438,-1.023,0.036,0.030,27.370,-7.700,-8.330
9252462,-1.005,0.001,0.061,8.330,-4.900,-8.330
9252482,-0.991,-0.081,0.044,11.550,-4.200,-5.530
9252502,-1.015,-0.098,0.053,16.520,-3.430,-1.680
9252520,-1.004,0.037,0.028,11.970,-5.250,0.980
9252539,-1.049,0.045,0.023,-5.180,-6.510,0.840
9252564,-1.009,0.034,0.048,-16.520,-7.490,-0.070
9252583,-0.986,-0.062,0.034,-14.980,-4.970,-1.120
9252602,-1.017,-0.092,0.052,-4.760,-5.880,-1.330
9252627,-0.971,-0.054,0.045,2.660,-3.360,0.350
9252645,-1.018,-0.024,0.045,0.560,-3.780,0.630
9252669,-1.004,-0.015,0.031,-1.960,-4.690,1.890
9252689,-0.984,-0.019,0.057,-6.510,-2.450,1.120
9252705,-1.017,-0.064,0.031,-1.680,-1.960,1.820
9252724,-1.006,-0.032,0.042,0.840,-3.080,3.850
9252744,-1.018,0.015,0.056,-4.830,-2.590,5.250
9252769,-0.999,-0.007,0.056,-14.840,-2.030,7.140
9252789,-0.975,0.033,0.059,-15.820,-0.910,6.370
9252809,-1.026,-0.090,0.043,-9.310,1.400,3.780
9252827,-1.000,-0.104,0.047,4.620,1.050,5.110
9252847,-1.005,-0.014,0.039,13.440,-0.700,6.860
9252871,-1.022,0.088,0.060,-1.680,-1.820,6.160
9252891,-0.996,0.038,0.026,-15.890,-5.670,6.370
9252911,-1.005,-0.045,0.026,-17.150,-2.660,8.470
9252935,-1.011,-0.061,0.029,-7.630,-1.890,11.060
9252955,-0.997,-0.020,0.029,-2.030,-1.610,12.460
9252975,-1.019,0.018,0.040,-3.500,-2.240,12.040
9252991,-1.015,0.027,0.055,-4.340,-3.360,10.990
9253016,-0.973,0.022,0.052,-3.220,-3.500,8.820
9253035,-0.991,0.028,0.060,-0.910,-3.500,7.280
9253055,-0.976,-0.004,0.057,6.090,-0.350,5.320
9253073,-0.976,0.048,0.049,6.720,5.670,5.180
9253097,-1.015,0.016,0.078,6.160,7.210,2.450
9253117,-0.970,0.093,0.056,7.770,14.210,1.330
9253137,-0.978,0.030,0.057,3.010,17.640,-1.400
9253156,-0.996,0.014,0.004,12.040,20.790,-2.380
9253180,-1.015,0.115,-0.001,9.310,16.940,-3.500
9253200,-1.037,0.002,-0.016,-9.450,14.490,-5.740
9253220,-1.023,0.058,-0.023,-8.610,6.440,-7.630
9253238,-0.981,-0.015,-0.039,-5.250,10.570,-10.360
9253256,-1.042,-0.005,-0.028,7.070,9.870,-11.760
9253280,-1.064,0.090,-0.061,15.330,10.570,-13.300
9253304,-0.998,0.122,-0.088,4.690,8.470,-16.450
9253322,-0.969,0.023,-0.058,-8.050,4.130,-19.460
9253344,-1.004,-0.071,-0.035,-2.940,0.070,-20.790
9253363,-1.023,-0.081,-0.040,11.340,0.420,-20.230
9253386,-1.009,-0.070,-0.016,18.550,0.910,-19.040
9253409,-1.010,0.011,-0.004,20.300,-1.890,-18.410
9253430,-1.000,-0.002,-0.054,12.810,2.520,-19.460
9253454,-0.987,-0.018,-0.020,6.650,7.770,-20.510
9253473,-0.986,0.024,-0.002,0.140,13.440,-19.320
9253494,-1.004,-0.090,-0.016,-4.970,13.720,-21.000
9253517,-0.967,-0.155,-0.019,10.150,21.350,-19.390
9253537,-0.986,-0.156,0.029,19.740,23.380,-16.940
9253556,-0.947,-0.076,-0.082,26.740,24.150,-16.240
9253581,-0.968,-0.020,-0.046,8.750,28.630,-15.540
9253601,-0.924,-0.053,-0.097,-4.900,31.080,-17.080
9253619,-0.995,-0.037,-0.087,-1.610,28.210,-16.380
9253640,-1.000,-0.021,-0.172,-8.750,25.410,-16.380
9253664,-1.050,-0.126,-0.213,0.000,20.300,-16.660
9253684,-1.173,-0.167,-0.090,15.610,-10.850,-18.480
9253704,-1.377,-0.125,-0.230,26.180,-65.030,-14.840
9253723,-0.938,-0.131,-0.147,9.030,-11.550,-8.750
9253743,-0.950,-0.089,-0.153,7.000,-10.010,-9.100
9253767,-0.989,-0.090,-0.056,-3.080,0.770,-7.700
9253786,-0.969,-0.147,-0.161,2.310,1.330,-12.040
9253807,-1.041,-0.055,-0.121,-1.540,0.770,-12.810
9253831,-0.978,-0.114,-0.113,-4.830,3.500,-12.250
9253851,-0.952,-0.182,-0.031,-1.330,11.410,-8.330
9253869,-0.962,-0.271,-0.079,8.890,10.920,-4.690
9253886,-0.956,-0.088,-0.158,2.240,8.680,-2.940
9253906,-0.954,-0.065,-0.159,-9.240,4.900,-2.100
9253930,-1.140,-0.027,-0.137,-10.990,-16.730,-4.970
9253951,-1.131,-0.193,-0.159,-2.940,-23.030,-1.190
9253971,-0.972,-0.253,-0.164,5.530,-14.070,2.730
9253989,-0.949,-0.137,-0.151,17.500,-13.580,5.250
9254011,-0.959,-0.099,-0.129,7.770,-14.140,7.070
9254031,-0.981,-0.134,-0.133,-2.590,-11.830,9.170
9254049,-0.997,-0.244,-0.112,5.460,-11.270,9.870
9254068,-0.981,-0.100,-0.090,12.250,-12.180,9.380
9254092,-0.974,-0.045,-0.082,1.680,-15.610,8.330
9254113,-0.996,-0.084,-0.120,-0.490,-16.240,6.720
9254133,-1.000,-0.094,-0.085,-3.220,-15.820,6.650
9254153,-0.999,-0.124,-0.102,2.170,-14.350,7.840
9254171,-0.995,-0.104,-0.061,2.520,-13.930,7.630
9254193,-0.969,-0.035,-0.067,-6.860,-14.280,7.140
9254212,-1.017,-0.069,-0.048,-10.360,-14.700,7.210
9254236,-0.988,-0.045,-0.056,-14.000,-13.160,6.510
9254251,-0.991,-0.086,-0.046,-16.310,-10.570,6.860
9254271,-1.002,-0.156,-0.058,-12.250,-8.750,7.980
9254291,-0.981,-0.093,-0.052,-8.260,-9.590,7.770
9254316,-0.972,-0.069,-0.060,-12.740,-4.480,8.750
9254336,-1.012,-0.075,-0.051,-10.080,-2.520,10.150
9254356,-1.042,-0.100,-0.069,-9.870,-5.670,10.290
9254375,-1.023,-0.094,-0.045,-3.360,-8.470,10.080
9254395,-0.954,0.073,-0.060,-13.160,-4.340,11.900
9254420,-1.019,-0.064,-0.045,-24.640,-5.180,10.220
9254440,-0.999,-0.066,-0.050,-12.180,-5.040,11.130
9254459,-1.004,-0.049,-0.039,-12.040,-5.250,12.250
9254476,-1.026,-0.070,-0.038,-9.310,-10.920,9.660
9254498,-0.995,-0.067,0.010,-6.160,-9.660,10.710
9254519,-0.983,-0.065,-0.056,-2.940,-8.260,12.880
9254538,-1.020,-0.015,-0.040,-3.500,-9.380,13.300
9254562,-0.981,0.019,-0.024,-8.330,-4.690,13.090
9254582,-1.000,-0.034,-0.070,-13.370,-7.280,13.090
9254602,-1.025,-0.075,-0.051,-4.200,-7.630,12.950
9254621,-1.025,0.000,-0.040,-1.400,-11.830,12.880
9254641,-1.026,0.070,-0.022,-7.630,-13.090,11.620
9254661,-0.993,0.073,-0.044,-18.550,-10.080,10.920
9254681,-1.007,-0.024,-0.001,-15.470,-12.530,9.450
9254701,-0.995,-0.050,-0.018,-9.730,-10.080,10.710
9254721,-0.976,-0.011,-0.016,-3.220,-9.590,10.920
9254740,-1.015,0.078,-0.019,-6.790,-8.050,10.920
9254765,-1.023,0.086,-0.027,-15.120,-10.360,9.030
9254786,-0.994,0.015,-0.010,-13.720,-9.450,7.770
9254805,-1.004,0.000,-0.001,-7.350,-8.610,8.330
9254824,-1.004,0.032,-0.010,-4.410,-8.470,8.680
9254843,-1.014,0.061,0.009,-7.980,-7.000,9.030
9254865,-0.995,0.061,0.019,-15.260,-5.600,8.260
9254885,-0.996,0.055,-0.003,-14.140,-5.880,7.210
9254905,-1.006,0.068,-0.002,-11.130,-5.320,5.810
9254929,-1.006,0.051,0.011,-4.060,-3.500,3.150
9254947,-1.012,0.090,-0.006,-1.680,0.000,2.940
9254969,-0.999,0.041,0.044,-2.870,-0.840,1.400
9254993,-0.972,0.046,0.016,1.120,3.780,1.960
9255013,-1.045,0.117,0.009,-5.600,1.960,0.350
9255033,-0.991,0.127,-0.024,-13.370,2.730,-0.630
9255052,-1.012,0.085,-0.031,-12.390,2.940,-1.750
9255070,-0.996,0.032,-0.029,-10.360,2.100,-1.260
9255094,-1.005,-0.028,-0.001,3.990,2.100,-1.050
9255109,-1.012,0.063,-0.033,6.370,4.130,0.000
9255129,-1.012,0.114,-0.020,-2.660,-1.540,0.070
9255154,-0.989,0.041,-0.014,-9.520,1.120,-0.420
9255173,-1.028,0.100,-0.030,-7.840,0.420,0.280
9255192,-0.997,0.100,-0.044,-11.620,-0.140,0.840
9255212,-1.012,0.040,-0.008,-7.140,-0.490,-2.030
9255236,-1.001,0.021,0.002,-0.840,0.350,-2.170
9255256,-1.022,0.051,0.047,-4.550,1.680,-2.310
9255275,-1.037,0.240,0.007,-17.780,3.150,-3.220
9255295,-1.003,0.160,-0.026,-25.900,4.270,-4.620
9255319,-0.979,0.142,-0.013,-24.850,7.840,-8.050
9255339,-0.987,0.069,-0.009,-11.900,10.430,-10.850
9255356,-1.012,-0.017,-0.021,11.760,11.620,-13.370
9255379,-0.996,0.072,-0.031,22.960,13.370,-12.460
9255401,-0.976,0.058,-0.082,18.550,13.790,-14.070
9255420,-0.970,-0.003,-0.044,14.420,12.740,-14.140
9255443,-0.964,-0.020,-0.044,19.670,12.950,-14.910
9255463,-0.950,-0.023,-0.056,22.610,18.060,-15.120
9255487,-0.960,-0.068,-0.021,34.720,22.540,-17.010
9255506,-0.990,0.069,-0.048,33.250,31.010,-15.400
9255526,-1.024,0.107,-0.063,21.210,28.070,-15.120
9255546,-0.953,-0.054,-0.210,29.820,26.670,-15.400
9255565,-1.005,0.024,-0.281,40.460,22.960,-16.940
9255590,-1.075,0.110,-0.203,28.630,14.490,-16.380
9255607,-0.989,0.054,-0.124,0.840,5.460,-16.800
9255631,-0.976,-0.062,-0.136,-5.460,6.090,-12.530
9255651,-0.983,-0.143,-0.135,10.150,5.740,-12.180
9255671,-0.968,-0.023,-0.149,19.740,6.930,-9.170
9255691,-0.999,-0.014,-0.158,20.650,8.190,-6.650
9255715,-0.990,-0.079,-0.151,24.500,7.070,-5.180
9255730,-0.941,-0.091,-0.206,29.330,5.390,-4.130
9255755,-0.928,-0.028,-0.167,29.470,1.120,-5.880
9255774,-0.899,-0.065,-0.150,19.320,0.700,-5.110
9255795,-0.944,-0.126,-0.119,22.680,-0.910,-7.910
9255815,-1.163,0.086,-0.124,7.560,-37.590,-14.700
9255834,-0.886,0.009,-0.122,-11.760,-16.310,-9.170
9255857,-1.000,-0.137,-0.143,-2.520,-18.550,-10.430
9255881,-1.064,-0.028,-0.112,5.670,-10.780,-7.490
9255901,-1.099,0.058,-0.149,-2.520,-25.340,-6.160
9255920,-1.197,0.004,-0.186,1.750,-25.130,-5.180
9255941,-0.967,-0.093,-0.208,0.350,-13.300,-0.840
9255958,-1.005,-0.147,-0.168,10.570,-12.320,1.610
9255982,-0.979,-0.147,-0.116,16.030,-11.620,6.300
9255998,-0.984,-0.102,-0.086,15.750,-13.300,7.700
9256022,-0.975,-0.021,-0.085,7.910,-10.640,10.500
9256040,-0.973,-0.044,-0.076,-2.590,-5.880,12.110
9256062,-0.982,-0.091,-0.102,3.570,-2.310,12.180
9256082,-1.092,-0.002,-0.097,6.650,-10.010,12.390
9256102,-0.991,0.039,-0.099,-4.620,-8.050,12.810
9256120,-0.971,-0.038,-0.100,-11.480,-9.380,12.880
9256140,-0.997,-0.097,-0.069,-6.510,-9.590,14.280
9256159,-0.953,-0.061,-0.103,4.900,-5.040,14.560
9256183,-0.983,0.061,-0.079,-3.780,-8.190,13.720
9256203,-0.960,0.078,-0.045,-16.170,-1.400,15.260
9256225,-1.046,0.024,-0.074,-22.470,-4.060,14.980
9256245,-1.104,-0.031,-0.102,-13.860,-10.570,14.140
9256264,-0.981,0.011,-0.090,-7.490,-13.090,12.600
9256289,-0.981,0.097,-0.068,-16.240,-12.390,12.880
9256306,-1.009,0.062,-0.098,-25.340,-11.410,11.550
9256325,-0.997,0.023,-0.040,-24.710,-8.680,11.970
9256348,-0.994,0.021,-0.040,-18.130,-9.870,11.900
9256372,-0.996,0.010,-0.069,-16.310,-8.120,12.530
9256391,-1.010,0.018,-0.051,-9.380,-8.890,12.390
9256410,-0.968,0.037,-0.078,-7.490,-7.840,12.040
9256435,-1.028,0.058,-0.034,-8.120,-9.380,12.530
9256455,-1.009,0.111,-0.050,-6.440,-7.910,13.090
9256470,-1.000,0.104,-0.071,-11.830,-9.450,12.040
9256494,-1.010,0.042,-0.018,-7.630,-7.560,10.150
9256514,-1.020,0.046,-0.080,0.840,-11.690,10.920
9256538,-1.018,0.101,-0.059,-2.310,-10.080,11.970
9256557,-1.010,0.129,-0.044,-7.980,-12.880,11.340
9256573,-0.998,0.094,-0.052,-12.320,-12.950,11.060
9256597,-1.012,0.055,-0.039,-6.930,-12.460,10.220
9256618,-1.002,0.105,-0.001,-0.350,-13.650,10.010
9256638,-0.969,0.112,-0.053,1.470,-14.560,8.540
9256656,-1.027,0.163,-0.024,-4.550,-12.320,8.890
9256680,-1.013,0.118,-0.006,-11.060,-16.940,6.370
9256700,-0.969,0.122,-0.019,-10.430,-13.930,5.110
9256719,-1.009,0.134,-0.021,-7.280,-15.050,3.220
9256739,-0.977,0.162,0.025,-7.420,-10.920,0.980
9256763,-0.995,0.137,0.049,-11.690,-10.360,-2.240
9256783,-0.977,0.056,0.029,4.060,-3.430,-3.920
9256802,-0.964,0.151,0.039,8.610,-0.980,-3.430
9256822,-0.987,0.141,0.017,4.970,2.870,-4.970
9256843,-0.989,0.151,0.007,-2.240,2.590,-4.480
9256863,-0.975,0.109,-0.010,-1.890,4.130,-4.970
9256887,-0.972,0.117,-0.016,-0.980,4.830,-5.180
9256907,-1.039,0.088,0.003,3.710,3.290,-6.160
9256926,-1.041,0.133,-0.049,5.110,0.140,-5.670
9256950,-1.020,0.170,-0.024,-3.710,-3.710,-5.320
9256966,-0.988,0.115,-0.038,-8.680,-3.080,-5.250
9256988,-0.991,0.057,-0.015,-0.070,-3.430,-5.460
9257012,-0.982,0.057,0.003,8.260,-1.470,-5.250
9257032,-0.999,0.063,-0.008,11.760,-1.050,-4.130
9257052,-0.984,0.171,-0.011,2.240,-1.890,-2.730
9257068,-0.983,0.149,-0.008,-9.870,-0.280,-2.870
9257091,-1.007,0.084,-0.026,-12.530,-0.420,-3.080
9257112,-1.017,0.065,-0.028,-4.690,-1.680,-2.310
9257132,-0.988,0.104,-0.016,1.190,-2.310,-1.540
9257151,-1.000,0.112,-0.016,0.490,-1.050,-2.100
9257171,-1.018,0.115,-0.025,0.000,-1.400,-1.960
9257195,-1.016,0.132,-0.015,-4.970,-2.520,-0.700
9257210,-0.984,0.126,0.000,-13.720,-1.960,-0.280
9257235,-0.995,0.115,-0.016,-16.590,-0.630,-0.490
9257255,-1.010,0.019,-0.013,-7.770,-3.150,-2.100
9257273,-1.119,0.067,-0.025,1.330,-0.980,-0.840
9257292,-1.001,0.126,-0.010,-0.350,-2.870,-0.980
9257317,-0.991,0.109,-0.013,-8.820,-1.680,-0.630
9257336,-0.979,0.082,-0.028,-7.070,-0.910,-0.560
9257360,-0.999,0.097,-0.022,-2.030,-0.630,-0.490
9257379,-0.876,0.122,-0.007,-3.920,-0.700,-0.630
9257400,-1.013,0.083,-0.019,-1.890,0.280,-1.820
9257420,-1.042,0.133,-0.044,1.820,-1.750,-3.220
9257440,-1.001,0.142,-0.038,-0.700,-4.830,-5.180
9257459,-0.998,0.096,-0.032,1.820,-4.760,-6.860
9257479,-0.997,0.112,-0.036,3.150,-4.340,-6.160
9257503,-1.018,0.093,-0.021,2.520,-6.790,-6.440
9257523,-1.027,0.127,-0.008,-0.980,-6.790,-7.210
9257541,-1.005,0.216,-0.034,-4.620,-8.750,-9.450
9257563,-1.018,0.080,-0.035,-7.000,-4.900,-12.460
9257583,-0.974,0.013,-0.013,6.230,-6.860,-12.390
9257602,-0.982,0.048,0.032,7.630,-1.120,-8.890
9257627,-1.022,0.117,0.040,-1.820,3.290,-7.700
9257645,-0.977,0.153,0.116,-11.970,6.090,-11.830
9257666,-0.956,0.104,-0.019,-10.220,10.920,-15.680
9257690,-1.025,0.010,-0.024,8.890,10.360,-17.990
9257710,-0.993,-0.021,-0.041,30.380,14.770,-18.410
9257730,-1.070,0.141,-0.042,28.070,10.710,-17.500
9257753,-0.993,0.142,-0.060,9.240,7.280,-18.130
9257774,-0.940,0.133,-0.080,-0.420,11.620,-18.480
9257794,-0.977,0.050,-0.048,-2.660,7.000,-19.320
9257810,-0.885,-0.092,-0.058,9.590,14.630,-20.860
9257834,-0.983,-0.076,-0.005,21.140,18.830,-19.670
9257854,-1.024,-0.043,0.032,26.740,20.510,-19.600
9257873,-0.971,0.059,-0.033,25.410,22.750,-21.420
9257891,-0.957,0.008,-0.052,25.270,27.650,-24.780
9257910,-1.188,-0.065,-0.035,40.810,12.950,-35.210
9257935,-0.996,0.122,-0.239,35.560,9.730,-28.840
9257950,-1.009,0.064,-0.178,23.310,16.100,-27.650
9257975,-0.919,-0.122,-0.163,18.410,14.910,-24.710
9257994,-0.952,-0.150,-0.211,29.820,7.070,-22.050
9258018,-1.119,-0.098,-0.092,34.510,-8.190,-17.570
9258039,-1.024,-0.053,-0.018,29.890,3.500,-13.510
9258058,-0.858,0.041,-0.020,7.910,-5.740,-11.480
9258082,-0.777,-0.096,-0.263,16.590,-11.550,-8.330
9258102,-0.987,-0.035,-0.157,22.050,-13.650,-4.620
9258121,-1.004,-0.084,-0.086,13.300,-3.850,-5.880
9258141,-0.966,-0.130,-0.043,9.730,4.480,-3.710
9258161,-0.937,-0.144,-0.131,21.000,-1.610,0.490
9258181,-0.989,-0.060,-0.165,24.010,-8.890,-0.980
9258205,-1.027,-0.035,-0.092,8.330,-4.970,-0.280
9258225,-1.006,-0.129,-0.124,6.720,-0.910,2.940
9258245,-0.999,-0.155,-0.067,8.120,-2.800,5.460
9258265,-0.991,-0.031,-0.064,13.370,-6.230,4.270
9258283,-1.038,-0.044,-0.129,1.820,-5.950,3.010
9258303,-0.997,-0.089,-0.135,-2.520,-3.990,4.480
9258327,-0.993,-0.109,-0.099,2.590,-5.600,4.620
9258347,-1.000,-0.075,-0.092,3.990,-7.070,4.690
9258366,-1.020,-0.036,-0.105,1.680,-7.700,4.760
9258388,-0.990,0.002,-0.079,-10.080,-6.510,2.660
9258406,-0.985,-0.084,-0.093,-9.590,-5.320,1.330
9258430,-0.981,-0.077,-0.080,-8.470,-1.330,1.610
9258450,-1.054,-0.016,-0.173,-6.650,-9.800,4.690
9258470,-1.004,-0.091,-0.111,-15.470,-5.390,4.900
9258490,-0.992,-0.087,-0.097,-7.210,-6.580,6.020
9258510,-0.996,-0.043,-0.092,-6.510,-2.450,7.910
9258534,-0.997,-0.053,-0.119,1.050,1.260,8.470
9258553,-0.999,-0.036,-0.121,0.140,1.120,8.750
9258574,-1.007,-0.017,-0.117,-0.700,-0.280,9.940
9258593,-1.060,-0.047,-0.063,-2.870,-7.840,10.500
9258614,-0.973,-0.042,-0.092,-11.550,-18.900,8.050
9258629,-0.974,-0.021,-0.046,-10.710,-14.700,10.920
9258654,-0.996,-0.051,-0.064,-12.460,-11.550,13.090
9258673,-0.989,-0.019,-0.096,-14.490,-8.960,14.000
9258689,-0.975,0.001,-0.080,-14.070,-4.900,15.120
9258714,-1.023,0.005,-0.020,-16.380,-5.250,14.070
9258733,-1.032,0.024,-0.112,-16.310,-7.000,14.910
9258753,-1.013,-0.006,-0.076,-13.650,-8.400,14.560
9258777,-1.009,-0.038,-0.082,-5.250,-16.030,12.530
9258796,-1.027,0.043,-0.081,-5.950,-15.960,13.230
9258816,-1.004,0.040,-0.065,-12.040,-16.240,13.650
9258837,-0.967,0.055,-0.036,-13.930,-17.640,13.580
9258856,-0.978,0.019,-0.020,-15.330,-10.640,14.000
9258881,-1.033,0.054,-0.046,-13.720,-12.880,14.140
9258899,-1.037,0.023,-0.027,-7.840,-20.020,9.730
9258919,-0.977,0.080,-0.041,-6.930,-14.560,10.360
9258940,-1.002,0.064,-0.037,-9.730,-15.890,9.450
9258961,-1.036,0.079,-0.030,-7.420,-19.530,7.700
9258980,-0.995,0.081,-0.013,-10.640,-18.060,7.350
9258999,-0.970,0.073,0.007,-12.110,-14.210,7.070
9259023,-1.022,0.072,-0.030,-11.830,-14.980,6.650
9259044,-1.017,0.099,-0.010,-11.270,-13.580,8.050
9259060,-0.994,0.111,0.014,-15.470,-13.790,7.350
9259081,-1.113,0.059,0.056,-16.240,-25.690,0.280
9259102,-0.919,0.062,-0.005,-9.450,-18.550,1.330
9259126,-0.975,0.069,0.036,-6.720,-12.320,2.660
9259145,-0.967,0.092,0.050,-5.180,-8.190,3.710
9259165,-0.979,0.056,0.052,-5.040,-2.170,2.520
9259181,-0.977,0.096,0.039,-0.700,0.630,2.940
9259206,-1.034,0.126,0.016,-2.940,-0.770,1.120
9259226,-0.999,0.131,0.013,-8.750,-1.260,-0.490
9259244,-0.970,0.112,0.029,-10.080,1.540,-1.260
9259265,-1.035,0.037,0.054,-4.270,0.840,-3.850
9259289,-0.972,0.060,-0.003,7.840,-3.010,-4.760
9259305,-1.002,0.091,0.020,8.330,-1.820,-4.550
9259326,-0.997,0.102,0.021,0.770,0.700,-3.640
9259350,-1.004,0.096,0.000,-4.760,1.190,-3.010
9259368,-1.021,0.077,0.018,-4.060,0.700,-4.550
9259390,-0.997,0.124,0.005,-4.970,2.870,-4.830
9259410,-1.000,0.089,0.006,0.840,2.870,-6.650
9259434,-0.985,0.081,0.022,2.310,5.530,-7.140
9259454,-1.008,0.073,0.021,4.340,7.070,-6.860
9259474,-1.011,0.097,0.005,0.840,7.420,-6.650
9259494,-1.012,0.097,-0.015,-3.360,6.440,-6.440
9259512,-1.023,0.108,-0.018,-5.460,5.880,-7.000
9259531,-1.019,0.113,-0.022,-12.530,2.520,-6.930
9259555,-1.027,0.002,-0.020,-7.140,0.980,-8.540
9259576,-1.001,-0.001,-0.049,5.810,-0.350,-7.980
9259597,-1.024,0.074,-0.026,7.210,-4.900,-6.370
9259621,-1.001,0.098,-0.013,-1.190,-4.970,-4.620
9259641,-1.011,0.047,-0.003,-4.130,-5.740,-3.570
9259661,-1.016,0.045,-0.020,-4.690,-5.600,-2.590
9259684,-0.978,0.027,-0.010,-3.150,-6.300,-1.610
9259703,-0.946,0.059,0.038,0.420,-4.760,-1.820
9259727,-0.988,0.016,0.009,6.020,2.800,-2.590
9259748,-1.037,0.069,0.001,9.170,1.750,-2.590
9259767,-0.982,0.080,-0.005,9.310,0.910,-3.780
9259785,-0.992,0.083,-0.017,4.550,3.920,-3.570
9259808,-1.023,0.051,-0.008,0.210,1.540,-3.430
9259829,-1.078,0.033,0.017,1.680,-5.880,-5.320
9259851,-0.950,0.059,-0.024,-2.100,-10.220,-6.650
9259874,-0.927,0.035,-0.002,-0.980,3.640,-4.480
9259893,-1.015,0.015,-0.004,7.420,3.150,-6.510
9259914,-0.984,0.033,-0.007,17.290,8.470,-8.820
9259936,-1.010,0.128,0.022,17.500,13.090,-10.360
9259954,-1.081,0.127,-0.019,11.550,4.340,-15.820
9259974,-0.976,0.107,-0.050,8.050,10.010,-16.450
9259993,-0.969,0.020,-0.078,14.700,12.670,-18.550
9260018,-0.964,0.001,-0.082,24.220,11.200,-20.090
9260038,-1.118,-0.023,-0.027,30.030,11.130,-21.350
9260053,-1.066,0.084,-0.027,29.610,8.400,-20.510
9260075,-1.031,0.102,-0.087,8.960,6.160,-18.200
9260095,-0.985,-0.026,-0.157,7.140,5.670,-20.440
9260115,-0.996,0.057,-0.079,1.750,2.240,-19.250
9260139,-0.973,0.025,-0.028,-3.290,7.910,-20.510
9260157,-1.053,-0.000,0.069,-1.680,11.200,-18.480
9260181,-0.975,-0.191,-0.085,21.420,13.720,-19.110
9260199,-1.024,-0.049,-0.093,35.070,14.490,-16.800
9260218,-0.979,-0.002,-0.098,18.970,13.440,-15.260
9260242,-0.972,-0.075,-0.088,11.550,12.530,-16.100
9260263,-0.937,-0.103,-0.122,12.180,10.080,-14.980
9260283,-1.016,-0.070,-0.144,18.270,4.970,-13.510
9260302,-1.054,-0.007,-0.123,13.650,1.820,-12.740
9260326,-1.037,-0.130,-0.105,16.240,-0.490,-13.160
9260345,-1.099,-0.034,-0.115,24.150,-18.550,-13.720
9260364,-1.013,0.119,-0.076,17.640,-32.130,-16.380
9260384,-0.990,-0.076,-0.013,-1.680,-6.580,-15.260
9260408,-0.950,-0.158,-0.069,0.000,3.080,-11.900
9260426,-0.962,-0.184,-0.072,9.870,1.890,-10.920
9260447,-0.966,-0.124,-0.075,8.960,-0.350,-7.980
9260468,-1.004,0.008,-0.118,-11.060,-5.180,-7.070
9260488,-1.017,-0.085,-0.118,-22.260,-4.130,-5.810
9260512,-1.039,-0.224,-0.109,-0.140,-4.410,-4.900
9260532,-1.059,-0.154,-0.114,16.030,-5.600,-1.400
9260549,-1.009,-0.079,-0.101,11.550,-4.060,-0.350
9260569,-1.000,-0.061,-0.106,4.550,-4.830,0.770
9260589,-1.027,-0.102,-0.099,-1.050,-7.700,2.170
9260609,-1.002,-0.144,-0.098,-0.910,-9.380,2.940
9260633,-0.983,-0.055,-0.070,1.190,-9.870,4.550
9260652,-1.009,-0.062,-0.080,-2.660,-7.770,4.060
9260670,-0.998,-0.091,-0.091,-4.970,-3.990,4.760
9260694,-0.992,-0.133,-0.095,1.820,-2.800,7.980
9260712,-0.983,-0.104,-0.108,3.780,-2.170,10.710
9260732,-1.011,-0.061,-0.051,-2.940,-1.120,13.160
9260756,-0.982,-0.042,-0.111,-9.520,1.890,14.910
9260776,-1.025,-0.078,-0.110,-9.940,-1.260,15.680
9260799,-0.993,-0.108,-0.042,-2.870,-1.050,16.030
9260817,-1.028,-0.113,-0.088,6.720,-4.620,16.380
9260840,-0.998,0.049,-0.104,3.150,-4.270,18.130
9260861,-1.009,0.053,-0.031,-16.100,-7.070,14.910
9260881,-1.010,0.000,-0.086,-24.220,-8.330,13.860
9260905,-1.024,-0.066,-0.063,-21.210,-3.640,14.910
9260921,-0.996,-0.064,-0.065,-15.540,-8.330,15.330
9260941,-0.988,-0.074,-0.039,-7.700,-5.460,16.520
9260965,-0.995,-0.030,-0.094,-3.150,-6.090,17.290
9260985,-1.027,0.008,-0.079,-0.910,-10.990,16.730
9261004,-0.986,0.065,-0.055,-10.290,-8.330,17.850
9261028,-1.021,0.041,-0.089,-15.190,-9.730,16.660
9261048,-0.996,-0.000,-0.074,-15.400,-10.500,16.240
9261066,-0.997,0.051,-0.050,-11.690,-9.310,17.010
9261088,-0.979,0.021,-0.069,-13.160,-9.450,15.960
9261106,-1.022,0.028,-0.043,-9.170,-9.660,15.750
9261130,-1.023,0.034,-0.026,-10.360,-10.220,15.400
9261149,-0.991,0.056,-0.092,-6.580,-10.920,15.540
9261170,-0.995,0.104,-0.056,-10.500,-14.420,13.790
9261190,-1.013,0.083,-0.038,-13.720,-13.370,12.460
9261209,-0.998,0.057,-0.057,-11.690,-13.930,12.250
9261229,-1.012,0.050,-0.026,-6.020,-15.260,11.480
9261248,-0.991,0.117,-0.026,-6.300,-16.030,10.220
9261272,-0.987,0.114,-0.020,-12.600,-13.230,8.400
9261289,-0.983,0.107,-0.013,-9.730,-13.370,6.650
9261313,-1.010,0.111,-0.011,-7.630,-11.410,4.130
9261333,-1.022,0.086,-0.017,-0.420,-11.550,1.190
9261353,-1.004,0.131,-0.013,1.610,-8.540,0.980
9261377,-0.991,0.121,0.008,-4.480,-8.260,-0.700
9261396,-0.967,0.104,0.015,-6.230,-5.810,-1.680
9261416,-0.986,0.091,0.009,-5.250,-4.060,-2.870
9261436,-1.017,0.040,0.004,2.030,-3.430,-4.130
9261457,-0.982,0.056,-0.002,10.850,-0.840,-5.460
9261477,-1.026,0.163,0.000,7.630,-1.680,-5.530
9261496,-1.028,0.144,0.011,-3.220,-1.050,-6.650
9261516,-0.979,0.060,0.004,-3.640,0.840,-7.840
9261540,-1.009,0.090,-0.003,-3.290,-0.700,-7.910
9261559,-0.989,0.049,-0.018,2.450,-0.070,-9.170
9261584,-0.988,0.110,-0.021,7.700,2.030,-8.890
9261604,-1.006,0.106,-0.002,3.290,1.960,-8.820
9261622,-1.000,0.100,-0.018,-2.030,1.890,-8.190
9261641,-1.008,0.076,-0.010,-4.830,1.120,-7.980
9261662,-0.989,0.053,-0.038,-3.920,1.330,-7.630
9261681,-1.012,0.046,-0.030,-1.120,-0.280,-7.280
9261706,-0.998,0.070,-0.015,-1.820,-0.980,-5.950
9261726,-1.012,0.071,-0.025,-3.010,-1.400,-6.090
9261744,-1.021,0.066,-0.044,-2.590,-3.080,-6.160
9261765,-1.010,0.054,-0.030,0.630,-4.550,-6.580
9261789,-0.992,0.080,-0.009,-5.320,-4.900,-5.040
9261808,-0.999,0.039,-0.004,-5.390,-3.780,-4.760
9261828,-1.009,0.043,-0.008,-2.170,-2.240,-4.200
9261852,-0.988,0.044,-0.010,1.260,-1.540,-4.270
9261870,-0.988,0.070,-0.018,0.000,-0.140,-4.270
9261890,-0.999,0.047,-0.005,0.350,0.420,-4.550
9261914,-0.982,0.036,0.014,1.400,2.940,-3.780
9261933,-0.993,0.052,-0.020,3.290,4.760,-4.200
9261953,-1.024,0.072,-0.013,4.060,4.200,-5.530
9261973,-0.996,0.045,-0.015,2.800,6.790,-6.720
9261997,-1.001,0.051,-0.027,4.830,6.720,-7.980
9262016,-1.001,0.044,-0.023,7.770,7.770,-9.310
9262037,-0.990,0.077,0.016,12.250,12.670,-10.360
9262057,-1.031,0.090,-0.060,9.660,13.370,-12.810
9262076,-1.052,0.063,-0.073,9.800,3.290,-16.310
9262097,-1.001,0.070,-0.074,11.060,6.230,-16.730
9262115,-1.015,0.019,-0.070,13.720,0.070,-20.230
9262134,-0.988,0.011,-0.087,17.780,0.070,-21.000
9262157,-0.968,0.012,-0.061,21.070,1.540,-21.070
9262177,-1.015,-0.009,-0.002,21.350,2.030,-23.730
9262196,-1.008,0.001,-0.031,21.070,-1.750,-25.760
9262221,-0.987,0.039,-0.082,13.790,1.610,-23.380
9262240,-0.956,0.020,-0.082,11.060,8.470,-24.710
9262260,-0.993,0.078,-0.064,8.330,11.620,-25.830
9262284,-1.041,-0.014,-0.073,6.720,3.080,-30.940
9262304,-1.050,-0.116,-0.026,12.600,7.770,-29.820
9262324,-0.980,-0.032,-0.034,12.460,7.350,-25.970
9262344,-0.940,-0.120,-0.057,8.120,16.870,-25.690
9262364,-0.944,-0.134,0.004,5.250,20.160,-24.080
9262384,-0.999,-0.151,-0.027,9.030,17.500,-22.680
9262408,-1.057,-0.094,-0.161,9.660,6.510,-19.880
9262428,-0.976,-0.171,-0.157,9.030,13.020,-20.230
9262444,-0.979,-0.161,-0.105,17.990,16.380,-19.180
9262468,-1.053,-0.080,-0.141,28.420,0.490,-12.810
9262488,-0.897,-0.130,-0.111,15.820,10.570,-12.390
9262508,-0.992,-0.163,-0.193,8.540,5.740,-12.810
9262526,-1.002,-0.089,-0.209,9.870,5.740,-9.310
9262550,-1.070,-0.139,-0.180,7.910,1.260,-7.770
9262570,-1.014,-0.188,-0.171,15.400,1.400,-4.620
9262589,-1.001,-0.138,-0.158,14.980,-0.630,-3.570
9262609,-0.976,-0.139,-0.162,5.950,-3.010,-5.040
9262629,-1.020,-0.133,-0.150,2.590,-5.880,-2.310
9262649,-0.995,-0.194,-0.162,0.630,-6.650,0.910
9262669,-0.994,-0.181,-0.116,4.690,-6.720,4.060
9262693,-0.985,-0.124,-0.112,2.660,-6.790,5.460
9262712,-1.013,-0.127,-0.134,-0.490,-7.980,6.510
9262730,-0.986,-0.134,-0.117,-6.370,-6.580,5.880
9262752,-0.975,-0.177,-0.106,-1.190,-6.370,8.190
9262770,-0.967,-0.171,-0.133,3.640,-4.410,10.500
9262794,-0.960,-0.181,-0.121,7.280,-1.190,9.310
9262813,-0.991,-0.068,-0.132,9.870,2.030,12.250
9262833,-1.022,-0.086,-0.093,2.170,5.250,11.900
9262853,-1.049,-0.009,-0.160,-5.250,-8.890,11.550
9262877,-1.003,-0.095,-0.163,-8.050,-11.270,12.250
9262897,-0.982,-0.086,-0.136,-11.690,-11.760,12.390
9262917,-0.973,-0.066,-0.113,-13.650,-8.890,13.300
9262934,-0.981,-0.089,-0.145,-13.230,-5.810,15.260
9262953,-1.045,-0.103,-0.100,-11.480,-4.340,17.570
9262973,-0.994,-0.045,-0.088,-11.480,-10.850,17.150
9262997,-0.994,-0.048,-0.090,-35.770,-9.590,17.710
9263015,-1.014,-0.076,-0.096,-18.620,-10.990,17.640
9263034,-0.993,-0.075,-0.098,-16.310,-13.790,19.390
9263059,-0.982,-0.057,-0.095,-12.180,-14.350,18.830
9263079,-1.004,-0.010,-0.094,-16.170,-14.910,18.200
9263095,-1.000,-0.010,-0.059,-17.010,-13.860,17.990
9263119,-0.986,0.006,-0.097,-19.180,-13.230,17.920
9263139,-1.029,-0.004,-0.056,-18.690,-11.830,17.640
9263157,-1.001,-0.030,-0.101,-14.700,-14.770,17.430
9263179,-1.003,0.013,-0.060,-13.440,-15.680,17.850
9263199,-0.981,-0.002,-0.072,-16.800,-11.270,17.710
9263219,-1.042,0.057,-0.084,-16.870,-15.890,18.410
9263242,-1.027,0.026,-0.030,-18.410,-15.120,17.500
9263263,-0.877,0.052,-0.077,-17.570,-15.470,17.780
9263283,-0.993,-0.010,-0.086,-11.760,-16.940,16.100
9263302,-1.017,0.026,-0.050,-6.090,-16.520,17.080
9263322,-1.010,0.108,-0.038,-10.500,-21.280,18.550
9263341,-0.981,0.056,-0.041,-13.720,-20.230,17.640
9263365,-1.002,0.106,-0.044,-13.790,-19.110,17.780
9263384,-1.017,0.089,-0.014,-15.610,-21.840,15.050
9263404,-0.974,0.084,-0.012,-9.800,-19.740,13.300
9263428,-0.989,0.108,0.003,-8.890,-17.710,12.250
9263447,-0.996,0.052,0.010,-7.420,-15.330,11.830
9263468,-1.001,0.122,0.020,-7.280,-15.190,12.530
9263487,-0.988,0.107,0.029,-11.410,-14.140,10.290
9263508,-1.001,0.106,0.041,-10.220,-13.300,7.210
9263532,-0.990,0.107,-0.005,-0.700,-17.570,3.220
9263552,-0.965,0.133,0.046,2.170,-10.080,3.010
9263571,-0.945,0.122,0.041,3.920,-3.990,1.820
9263592,-1.013,0.131,0.067,-1.190,-0.140,1.470
9263611,-0.993,0.110,0.026,-2.450,2.030,1.190
9263631,-1.011,0.101,0.022,-1.190,2.240,1.400
9263655,-0.955,0.142,0.019,2.380,4.340,0.140
9263675,-1.060,0.087,0.051,4.620,1.610,-4.060
9263695,-1.001,0.102,-0.020,13.440,-6.440,-6.720
9263719,-1.011,0.122,0.013,12.950,-2.520,-4.060
9263738,-0.969,0.190,0.002,0.910,-0.070,-1.890
9263759,-1.010,0.169,0.008,-9.520,-0.350,-2.870
9263779,-0.998,0.110,-0.001,-8.120,-0.210,-3.920
9263799,-0.992,0.114,0.042,-3.710,0.840,-5.600
9263819,-0.983,0.106,-0.024,2.870,3.500,-7.350
9263839,-1.043,0.134,0.010,3.570,-1.470,-8.680
9263859,-1.005,0.126,0.003,-0.840,0.280,-8.190
9263874,-1.017,0.134,0.002,-3.220,-2.100,-7.770
9263899,-0.979,0.130,0.032,-8.680,-0.420,-8.400
9263919,-0.966,0.138,0.043,-9.380,2.940,-10.430
9263938,-1.007,0.033,0.019,-3.290,8.610,-13.160
9263962,-1.020,0.026,0.014,14.560,4.340,-13.300
9263982,-0.990,0.108,0.005,16.940,6.300,-11.270
9263999,-0.998,0.180,-0.009,7.000,7.350,-10.710
9264021,-1.035,0.145,-0.024,-13.440,5.390,-11.620
9264040,-1.012,0.088,-0.027,-20.160,1.260,-11.060
9264065,-0.997,-0.029,-0.035,-10.640,0.280,-10.010
9264085,-1.036,0.014,-0.028,5.880,-1.400,-8.050
9264104,-1.053,0.149,-0.038,-0.350,-4.060,-7.350
9264128,-0.988,0.113,-0.021,-13.720,-4.480,-9.870
9264146,-0.994,0.042,-0.022,-12.740,-3.080,-9.940
9264170,-1.057,-0.068,0.008,3.990,-8.330,-10.570
9264191,-1.014,0.051,-0.010,9.800,-6.580,-6.580
9264209,-0.985,0.070,0.030,-3.080,-5.810,-6.720
9264228,-0.939,0.022,-0.017,-3.500,-0.490,-7.140
9264251,-1.022,0.020,0.007,5.950,-0.280,-7.770
9264271,-0.963,0.013,-0.013,16.590,3.360,-9.240
9264291,-0.990,0.097,0.009,18.620,6.650,-8.540
9264315,-0.967,0.048,0.017,10.570,9.450,-10.710
9264334,-1.002,-0.004,0.012,15.610,10.780,-11.900
9264354,-1.037,0.022,-0.048,15.820,10.710,-10.850
9264378,-1.057,0.037,-0.083,31.290,6.650,-10.290
9264397,-0.982,0.084,-0.130,31.220,3.430,-12.600
9264422,-1.046,0.155,-0.049,20.790,0.140,-13.160
9264442,-1.019,0.001,-0.022,18.970,-0.630,-15.610
9264457,-1.025,-0.039,-0.020,24.220,-2.520,-14.350
9264482,-1.005,-0.054,-0.030,28.490,-2.660,-12.250
9264498,-0.925,-0.077,-0.038,30.240,-3.710,-15.120
9264522,-0.940,-0.010,-0.020,28.700,1.820,-15.050
9264542,-1.010,0.014,-0.026,29.050,3.780,-14.910
9264562,-1.007,-0.063,-0.038,32.900,3.570,-15.050
9264582,-1.006,-0.044,-0.072,42.210,3.920,-14.280
9264602,-1.022,0.048,-0.099,37.590,2.870,-11.760
9264626,-1.029,0.052,-0.023,25.060,-0.770,-12.670
9264645,-0.954,0.031,0.036,14.700,8.890,-9.240
9264666,-1.094,-0.148,-0.044,32.690,-1.540,-11.760
9264686,-1.004,0.159,-0.105,28.070,-2.380,-13.020
9264704,-1.232,0.202,-0.039,15.750,-57.050,-21.560
9264727,-0.838,-0.076,-0.037,-3.500,-3.780,-14.280
9264748,-0.981,-0.183,-0.067,14.980,-2.590,-8.400
9264768,-1.060,-0.182,-0.071,30.310,-10.780,-7.910
9264788,-0.912,0.029,-0.023,5.740,-10.220,-3.430
9264807,-1.009,-0.000,-0.012,-15.750,-6.580,-2.170
9264831,-1.015,-0.142,-0.010,-9.940,-3.920,-1.820
9264851,-1.001,-0.091,-0.049,9.660,-15.470,-1.120
9264868,-0.962,-0.024,-0.013,11.270,-13.580,1.820
9264890,-0.992,0.050,-0.015,-8.680,-5.950,7.210
9264914,-0.995,-0.146,-0.001,-14.980,-6.650,6.650
9264933,-1.000,-0.123,-0.068,7.350,-9.590,8.540
9264953,-1.013,0.039,0.034,-1.960,-10.780,10.920
9264977,-0.989,-0.003,0.018,-11.900,-5.460,8.890
9264997,-1.018,-0.003,0.019,-17.430,-2.520,7.420
9265016,-1.002,-0.075,0.015,-7.350,0.140,6.790
9265034,-0.995,-0.034,0.006,-6.090,-0.210,6.510
9265058,-1.017,-0.047,-0.009,-11.410,-0.840,6.370
9265078,-1.009,-0.045,-0.044,-10.500,-2.170,7.070
9265097,-1.033,-0.027,-0.069,-8.330,-5.600,8.610
9265117,-1.017,0.043,-0.089,-12.600,-9.590,10.290
9265138,-1.033,0.049,-0.002,-13.580,-10.010,9.240
9265158,-1.023,-0.028,0.050,-20.370,-7.840,8.680
9265181,-0.984,-0.061,-0.057,-3.150,-7.490,9.800
9265202,-0.996,-0.030,-0.033,-4.620,-3.220,12.950
9265222,-0.992,0.050,-0.033,-6.930,-2.870,13.370
9265244,-1.002,0.135,0.014,-27.720,-0.140,15.750
9265262,-0.991,0.026,0.003,-40.600,4.270,15.890
9265281,-1.029,-0.042,-0.019,-30.380,5.740,17.990
9265305,-1.030,-0.038,0.016,-10.850,0.000,18.690
9265325,-1.022,0.046,-0.004,-4.900,-2.310,17.220
9265343,-1.012,0.136,-0.044,-18.130,-1.750,17.640
9265363,-1.030,0.114,-0.009,-29.680,-6.650,16.240
9265387,-0.990,0.029,-0.002,-31.570,-4.970,15.050
9265407,-1.030,-0.000,-0.013,-16.870,-9.240,14.560
9265427,-1.026,0.021,-0.013,-6.650,-12.670,13.930
9265446,-0.962,0.069,0.025,-5.810,-11.620,13.230
9265471,-1.006,0.109,0.003,-7.560,-10.080,12.110
9265491,-1.006,0.108,0.021,-9.800,-9.240,11.060
9265511,-0.968,0.103,0.047,-7.000,-8.750,8.610
9265531,-1.001,0.093,0.014,-5.740,-6.090,6.860
9265550,-1.014,0.080,0.034,0.490,-6.370,5.600
9265575,-0.985,0.151,0.012,-0.280,-5.600,4.550
9265593,-0.970,0.161,0.028,-10.080,-4.130,3.430
9265614,-0.972,0.089,0.030,-9.870,-1.540,1.610
9265634,-1.011,0.091,0.003,-3.780,-0.280,1.540
9265653,-0.986,0.127,0.015,0.140,-0.980,1.400
9265678,-1.002,0.169,0.007,0.140,0.630,-0.210
9265697,-0.986,0.129,0.010,-6.230,2.100,-1.400
9265718,-1.019,0.084,-0.004,-0.770,-0.630,-1.750
9265737,-1.040,0.122,0.020,-4.620,0.140,-1.330
9265761,-0.973,0.157,0.011,-10.990,-2.380,-1.960
9265781,-0.988,0.076,0.004,-6.860,0.700,-4.620
9265799,-1.007,0.069,-0.007,7.280,0.630,-4.550
9265820,-1.004,0.117,0.020,6.020,-0.840,-3.990
9265841,-0.966,0.132,0.009,-5.040,0.770,-2.450
9265865,-1.004,0.139,-0.011,-12.530,1.120,-2.170
9265885,-1.049,0.091,-0.012,-15.960,-3.360,-3.780
9265905,-0.997,0.093,-0.021,-11.270,-5.530,-3.010
9265925,-0.978,0.092,0.013,-9.870,-3.850,-2.800
9265943,-0.981,0.069,0.012,-7.490,-3.500,-3.290
9265962,-1.006,0.094,0.007,-4.900,-1.960,-2.870
9265982,-1.032,0.086,0.019,-0.210,-2.800,-4.270
9266006,-1.015,0.201,0.004,-5.110,-2.100,-4.550
9266030,-1.005,0.115,0.026,-12.880,-3.150,-7.140
9266050,-0.996,0.059,0.002,-6.860,-1.120,-6.230
9266068,-1.015,0.062,0.014,1.120,-2.520,-5.810
9266092,-0.976,0.129,0.019,-3.360,-0.840,-5.740
9266108,-1.001,0.130,-0.001,-4.340,-0.420,-6.720
9266129,-1.037,0.102,-0.000,-7.490,-1.470,-7.770
9266152,-1.012,0.103,-0.013,-6.510,-3.290,-7.700
9266170,-0.989,0.085,-0.003,-5.530,-3.360,-8.890
9266192,-0.995,0.110,-0.005,-5.320,-3.710,-10.010
9266212,-1.053,0.033,0.022,-2.940,-6.930,-13.510
9266228,-0.971,0.033,0.014,6.090,-8.190,-11.620
9266252,-1.011,0.076,0.039,8.120,-4.200,-9.240
9266271,-1.024,0.091,0.055,4.620,-1.750,-10.990
9266291,-0.990,0.112,0.001,-1.400,4.410,-11.340
9266310,-0.991,0.044,0.011,2.240,1.470,-13.300
9266334,-1.002,0.047,0.008,9.730,4.830,-13.370
9266350,-1.081,0.049,0.046,14.280,4.200,-15.610
9266371,-0.980,0.073,0.011,15.050,-4.550,-18.060
9266391,-0.979,-0.021,-0.027,26.810,4.550,-18.200
9266411,-0.968,-0.050,-0.051,44.380,0.700,-19.110
9266435,-0.994,0.022,-0.009,49.140,2.660,-17.290
9266455,-1.016,0.077,0.012,37.870,1.610,-17.780
9266474,-1.038,0.117,-0.015,21.910,0.140,-16.030
9266495,-0.967,0.020,-0.029,4.970,-2.660,-16.450
9266516,-0.957,-0.063,-0.032,13.650,1.050,-17.710
9266535,-1.012,-0.067,0.041,19.390,3.010,-16.100
9266559,-1.052,-0.008,-0.009,31.710,3.570,-14.280
9266579,-0.999,0.056,-0.052,24.920,5.460,-15.260
9266594,-0.990,0.045,-0.016,22.540,5.600,-19.110
9266618,-0.954,0.017,-0.026,12.390,8.680,-18.340
9266638,-1.093,-0.083,-0.035,16.870,3.850,-17.290
9266662,-1.002,-0.070,-0.013,21.000,1.190,-14.420
9266682,-0.967,-0.121,-0.012,27.860,-0.910,-14.770
9266699,-1.019,0.016,-0.005,24.640,-0.280,-12.880
9266721,-1.099,0.005,0.075,10.430,-1.540,-11.760
9266740,-0.889,-0.084,-0.030,7.280,-0.140,-11.760
9266760,-0.914,-0.173,-0.065,16.590,2.520,-11.830
9266779,-1.021,-0.019,-0.024,22.890,-0.630,-8.960
9266804,-1.057,0.026,-0.061,3.780,-1.960,-7.350
9266822,-1.017,-0.025,-0.068,-3.850,-0.980,-5.740
9266843,-0.983,-0.063,-0.034,-2.240,-0.630,-6.650
9266861,-1.048,-0.159,-0.033,8.890,-1.680,-6.230
9266881,-1.001,-0.092,-0.073,17.430,-4.340,-2.730
9266905,-1.008,-0.079,-0.017,17.640,-9.030,-0.770
9266924,-1.002,-0.013,-0.014,2.520,-7.070,0.910
9266944,-0.978,-0.072,-0.007,-8.610,-3.640,1.540
9266963,-0.974,-0.133,-0.027,-3.570,-1.820,2.590
9266984,-0.992,-0.093,-0.027,2.380,-1.890,4.480
9267007,-0.992,-0.051,-0.013,-0.420,-1.190,5.950
9267027,-1.079,-0.063,-0.057,-3.150,-7.910,6.090
9267045,-1.023,-0.042,-0.066,-9.590,-7.210,7.350
9267066,-0.991,-0.063,-0.021,-3.570,-8.260,6.160
9267090,-1.124,-0.031,0.000,-4.200,-5.950,7.000
9267110,-1.001,-0.056,-0.004,-4.760,-4.760,6.510
9267128,-1.013,-0.041,-0.039,-5.180,-2.100,8.470
9267148,-0.966,-0.047,-0.045,-2.520,2.030,9.100
9267171,-1.015,0.047,-0.036,-7.280,4.060,10.990
9267191,-1.050,0.001,-0.048,-21.210,5.040,13.230
9267213,-1.002,-0.020,-0.031,-18.970,0.630,12.740
9267233,-0.976,-0.015,-0.020,-19.670,-1.960,11.970
9267257,-1.001,-0.011,-0.006,-22.050,-0.140,12.530
9267277,-1.014,-0.067,-0.016,-14.770,-2.240,12.180
9267295,-0.984,-0.009,-0.031,-13.370,-0.840,13.860
9267317,-1.006,0.023,0.020,-18.690,0.350,12.460
9267337,-0.989,0.074,-0.033,-22.890,0.070,12.390
9267357,-1.037,0.031,-0.034,-24.150,2.100,11.620
9267377,-1.010,-0.018,-0.015,-14.210,0.980,10.640
9267397,-1.005,0.022,-0.038,-9.660,1.610,11.060
9267417,-1.009,0.043,-0.066,-9.310,-3.080,9.940
9267440,-0.988,0.108,-0.049,-20.790,-1.960,11.060
9267459,-0.999,0.046,-0.026,-28.210,-1.820,10.360
9267478,-1.026,-0.009,-0.039,-22.330,-2.800,10.710
9267498,-0.980,0.012,-0.052,-12.320,-1.890,10.780
9267523,-1.007,0.051,-0.029,-6.370,-2.520,9.240
9267542,-1.000,0.078,-0.020,-10.220,-1.470,10.360
9267565,-0.981,0.028,-0.061,-4.340,-0.910,10.220
9267586,-1.006,0.105,-0.036,-5.040,-2.660,9.380
9267606,-0.996,0.126,-0.034,-10.010,-2.030,8.260
9267626,-1.000,0.029,-0.014,-8.680,0.000,6.720
9267646,-1.034,0.095,-0.065,0.280,-1.540,6.720
9267666,-1.017,0.068,-0.035,1.120,-3.570,5.110
9267689,-0.995,0.068,-0.037,4.060,-3.150,5.390
9267706,-1.004,0.118,-0.058,1.330,-3.920,5.950
9267727,-0.991,0.097,-0.050,-4.060,-4.830,5.460
9267751,-1.022,0.083,-0.050,-1.890,-5.460,4.830
9267769,-1.044,0.066,-0.035,-0.210,-7.420,3.220
9267791,-0.968,0.140,-0.020,0.490,-5.950,3.010
9267811,-0.981,0.100,-0.018,-1.330,-3.220,1.540
9267834,-1.038,0.070,-0.020,3.220,-1.890,1.190
9267854,-1.007,0.079,-0.026,2.940,-2.100,1.960
9267874,-0.990,0.110,-0.037,1.400,-3.570,1.960
9267898,-0.993,0.148,-0.054,-3.360,-2.940,0.980
9267918,-0.996,0.130,-0.045,-9.030,-3.430,0.910
9267938,-0.996,0.095,-0.042,-7.350,-3.710,1.050
9267958,-0.998,0.086,-0.032,-7.070,-4.060,1.330
9267974,-1.002,0.100,-0.041,-4.690,-4.130,1.190
9267995,-1.008,0.108,-0.045,-3.220,-4.690,0.770
9268019,-0.970,0.166,-0.039,-1.680,-6.440,0.630
9268038,-0.961,0.120,-0.039,-4.620,-2.870,-1.400
9268059,-1.020,0.092,-0.030,0.350,-2.800,-1.470
9268074,-1.025,0.100,-0.019,-0.280,-3.990,-0.910
9268099,-0.998,0.111,-0.028,-3.780,-3.220,0.350
9268117,-1.000,0.135,-0.024,-7.630,-3.780,0.000
9268139,-0.989,0.105,-0.010,-8.470,-2.170,-0.840
9268163,-0.982,0.103,-0.032,-4.270,-0.560,-1.540
9268182,-1.006,0.092,-0.033,-1.330,-1.680,-2.870
9268206,-1.000,0.077,-0.037,4.760,-2.520,-3.570
9268225,-1.002,0.089,-0.033,6.160,-2.660,-3.360
9268246,-1.008,0.126,-0.037,6.370,-3.920,-3.150
9268265,-1.012,0.142,-0.031,-1.050,-4.480,-3.290
9268290,-1.003,0.104,-0.043,-3.780,-6.930,-3.990
9268310,-0.998,0.076,-0.032,0.700,-6.860,-4.690
9268328,-1.003,0.091,-0.029,5.250,-6.440,-4.480
9268352,-0.996,0.125,-0.022,6.230,-6.440,-5.320
9268371,-1.129,0.102,0.052,6.020,-16.870,-13.370
9268391,-0.865,0.147,-0.029,6.510,-14.000,-13.440
9268410,-0.979,0.135,-0.002,-0.350,-4.900,-13.020
9268435,-1.013,0.091,-0.022,4.200,0.070,-14.210
9268452,-0.994,0.061,-0.016,7.980,2.240,-13.860
9268473,-0.985,0.112,-0.012,8.750,3.080,-13.020
9268497,-1.033,0.101,-0.026,3.920,3.570,-14.420
9268517,-1.026,0.105,-0.022,0.420,2.240,-14.420
9268537,-1.001,0.007,-0.056,10.150,3.850,-13.650
9268557,-1.017,0.027,-0.040,14.980,-0.420,-12.040
9268572,-1.049,0.124,-0.045,16.380,-4.830,-12.110
9268597,-1.007,0.217,-0.072,-15.540,-4.690,-10.920
9268617,-1.107,-0.020,-0.040,-10.430,-24.220,-19.110
9268637,-0.926,-0.127,-0.022,16.450,-13.930,-14.000
9268655,-0.981,-0.034,0.013,27.510,-14.000,-10.640
9268678,-0.982,0.085,0.027,22.540,-9.030,-9.310
9268699,-1.029,0.169,0.000,6.930,-3.360,-8.470
9268717,-0.979,0.087,0.019,-8.400,-3.290,-10.920
9268739,-0.981,-0.066,-0.053,8.960,0.910,-12.320
9268756,-1.043,-0.047,-0.037,25.690,-3.220,-13.020
9268780,-1.014,0.049,-0.015,28.980,-3.850,-10.080
9268800,-1.022,0.077,0.018,13.650,-4.690,-11.200
9268817,-0.974,0.104,0.017,-0.980,-3.710,-10.290
9268840,-0.988,-0.008,-0.006,-1.470,-0.840,-12.390
9268859,-1.003,0.015,0.010,11.620,-1.750,-14.700
9268879,-1.042,0.053,-0.008,9.940,3.360,-13.510
9268904,-1.033,0.032,-0.043,12.040,-1.260,-15.610
9268923,-1.004,-0.049,-0.064,23.310,-4.200,-17.780
9268944,-0.999,-0.031,-0.010,29.470,-2.660,-17.990
9268961,-0.976,-0.005,0.065,23.870,-3.640,-17.290
9268985,-0.966,-0.123,0.057,22.680,2.660,-17.150
9269004,-0.956,-0.109,0.034,24.990,6.090,-16.310
9269025,-0.952,-0.040,-0.014,20.090,8.120,-15.610
9269049,-0.985,0.045,-0.060,8.190,8.050,-15.890
9269064,-1.055,0.022,0.002,1.750,4.900,-15.960
9269089,-1.071,-0.074,-0.011,7.000,4.550,-14.490
9269109,-1.000,-0.105,-0.068,24.080,3.150,-13.020
9269129,-0.954,-0.005,-0.004,23.310,3.360,-13.090
9269153,-1.098,-0.028,0.031,15.260,-5.670,-14.700
9269171,-0.936,-0.028,-0.075,-4.480,-5.320,-11.410
9269195,-0.961,-0.210,-0.039,1.260,-1.190,-6.510
9269214,-1.026,-0.145,-0.031,17.570,-3.290,-4.550
9269233,-0.995,0.003,-0.045,9.940,-5.950,-2.520
9269258,-1.004,-0.056,-0.039,-1.680,-2.800,-1.120
9269273,-1.012,-0.060,-0.046,-3.500,-2.520,0.000
9269298,-1.008,-0.128,-0.032,-1.890,-2.450,2.380
9269317,-0.996,-0.124,-0.022,4.130,-4.060,4.060
9269338,-0.997,-0.084,-0.019,3.780,-3.150,6.440
9269358,-1.119,-0.094,0.009,4.900,-13.020,6.790
9269378,-0.951,-0.066,-0.060,3.640,-12.530,7.070
9269395,-0.989,-0.060,-0.015,3.780,-9.660,8.540
9269415,-0.993,-0.034,-0.018,-0.210,-5.390,9.800
9269437,-0.999,-0.046,-0.020,-5.460,-3.150,10.500
9269461,-1.010,-0.038,-0.024,-3.010,-1.330,12.110
9269481,-1.017,-0.015,-0.021,-8.470,0.140,12.460
9269498,-0.969,-0.011,0.008,-13.720,3.150,13.230
9269522,-1.136,-0.065,-0.025,-7.140,-13.090,9.100
9269542,-1.017,-0.023,-0.048,-4.620,-8.610,11.830
9269562,-0.972,0.053,0.000,-9.450,-4.970,12.950
9269579,-1.002,-0.015,-0.015,-17.430,-2.940,10.920
9269601,-0.980,-0.027,-0.014,-15.260,1.190,12.950
9269625,-1.004,-0.003,-0.031,-11.130,1.190,14.420
9269644,-1.007,0.056,-0.015,-24.290,3.990,15.330
9269665,-0.992,0.025,0.008,-27.370,6.300,13.860
9269684,-1.006,0.020,-0.048,-29.960,8.820,14.700
9269708,-1.045,-0.016,-0.033,-23.590,3.990,15.540
9269728,-0.997,-0.035,-0.041,-18.550,3.920,16.520
9269748,-1.036,0.036,-0.033,-14.140,1.680,17.500
9269767,-1.000,0.044,-0.032,-18.620,-1.750,17.220
9269787,-1.012,0.037,-0.035,-18.690,-0.630,16.660
9269812,-1.005,0.066,-0.033,-20.020,-1.610,16.800
9269832,-1.023,0.054,-0.054,-16.520,-5.110,16.450
9269849,-1.009,0.046,-0.045,-12.460,-7.070,15.470
9269873,-0.974,0.100,-0.028,-16.870,-5.320,16.520
9269891,-1.007,0.019,-0.039,-16.590,-6.370,15.610
9269911,-1.014,0.064,-0.050,-6.930,-7.280,16.520
9269935,-1.002,0.143,-0.027,-10.360,-9.730,16.170
9269955,-0.983,0.099,-0.034,-13.580,-8.470,13.860
9269975,-0.992,0.100,-0.025,-11.970,-7.490,13.860
9269994,-1.022,0.104,-0.012,-9.310,-8.330,12.950
9270014,-1.030,0.137,0.015,-9.030,-7.420,11.270
9270038,-0.953,0.130,0.000,-9.380,-6.300,9.450
9270058,-1.000,0.135,-0.022,-7.700,-4.480,7.980
9270078,-1.017,0.132,-0.020,-4.060,-6.790,6.860
9270098,-0.985,0.184,0.004,-9.520,-5.530,6.650
9270117,-0.964,0.152,0.026,-19.180,-3.780,5.390
9270136,-0.973,0.082,-0.007,-14.630,-0.770,4.620
9270156,-1.011,0.163,-0.011,-6.300,-2.170,4.620
9270176,-0.972,0.157,-0.019,-8.190,-1.680,3.360
9270197,-0.983,0.155,-0.015,-8.470,-0.490,2.380
9270219,-0.994,0.096,0.014,-2.660,-0.630,-0.770
9270242,-0.992,0.118,-0.013,7.210,3.150,-1.330
9270263,-0.972,0.177,-0.008,9.030,2.310,-2.870
9270282,-0.975,0.171,-0.009,3.080,4.550,-4.410
9270306,-0.981,0.146,-0.043,0.910,3.640,-6.090
9270330,-1.008,0.144,-0.040,5.460,2.030,-8.260
9270350,-1.024,0.151,-0.020,6.370,1.050,-9.800
9270369,-1.029,0.167,-0.018,6.160,0.350,-11.410
9270389,-1.022,0.177,-0.034,-0.070,-0.770,-12.320
9270413,-1.006,0.150,-0.030,-6.090,-2.660,-13.370
9270432,-0.982,0.111,-0.033,-3.920,-1.820,-13.860
9270451,-1.017,0.144,-0.041,-2.520,-2.310,-14.280
9270471,-1.033,0.123,-0.052,-1.470,-5.040,-15.960
9270494,-0.996,0.169,-0.045,-6.370,-8.400,-16.310
9270514,-0.985,0.092,-0.035,-7.630,-8.050,-17.080
9270538,-0.992,0.038,-0.004,-3.080,-7.770,-17.150
9270553,-0.998,0.010,-0.013,8.330,-6.230,-16.800
9270574,-0.967,0.157,-0.031,10.080,-7.000,-15.890
9270593,-1.049,0.163,0.013,-2.030,-4.900,-17.290
9270618,-1.011,0.049,0.001,-5.320,-4.060,-17.710
9270634,-0.999,-0.046,0.003,6.300,-2.940,-16.450
9270655,-1.003,0.019,-0.020,18.900,-2.240,-15.610
9270678,-0.981,0.192,-0.040,3.010,-2.800,-13.860
9270702,-1.080,0.046,-0.040,-3.780,-8.890,-15.470
9270722,-1.014,-0.021,-0.036,9.800,-9.240,-12.320
9270742,-0.991,-0.065,-0.027,17.850,-9.520,-10.570
9270761,-0.999,0.048,-0.005,19.600,-11.270,-9.730
9270781,-0.970,0.163,0.021,0.980,-11.270,-9.240
9270805,-1.033,0.095,0.001,-9.240,-7.700,-9.940
9270823,-1.007,-0.063,0.001,5.040,-14.070,-11.550
9270847,-0.918,-0.105,-0.001,28.910,-9.730,-13.720
9270867,-0.991,0.084,0.029,26.040,-3.290,-11.410
9270887,-0.986,0.134,0.036,6.650,-0.910,-11.830
9270903,-0.979,0.045,0.015,2.030,2.800,-12.950
9270927,-1.005,-0.032,0.027,11.130,5.320,-13.860
9270947,-1.011,-0.110,-0.061,28.700,3.570,-14.420
9270966,-1.024,-0.056,-0.105,37.870,-0.420,-11.760
9270986,-1.023,0.032,-0.036,33.390,-8.260,-10.990
9271010,-1.058,0.072,0.017,12.320,-10.080,-7.070
9271029,-1.039,-0.048,-0.001,12.390,-12.460,-7.910
9271046,-1.008,-0.063,-0.023,20.090,-12.040,-7.350
9271066,-1.012,-0.041,0.002,38.500,-12.600,-8.750
9271090,-1.008,0.030,0.043,40.390,-7.770,-9.380
9271109,-1.000,0.027,0.047,34.230,-4.480,-8.960
9271126,-0.981,-0.034,0.038,31.080,-4.550,-9.940
9271146,-0.967,-0.021,0.032,24.710,-3.990,-8.540
9271170,-1.041,-0.075,0.064,14.910,-7.350,-9.030
9271190,-0.978,-0.045,0.030,13.510,-9.030,-8.050
9271208,-1.020,-0.014,-0.001,14.560,-14.560,-8.260
9271229,-1.013,-0.016,-0.009,17.150,-8.260,-7.000
9271252,-0.994,0.025,0.020,15.190,-4.130,-6.720
9271267,-1.068,0.047,0.017,12.880,-8.680,-7.770
9271287,-1.006,0.042,0.037,0.840,-7.700,-6.720
9271311,-0.954,-0.072,0.027,-2.870,-5.040,-6.370
9271335,-0.998,-0.060,0.043,-1.680,-4.060,-2.520
9271351,-1.018,-0.030,0.034,-4.270,-4.270,0.910
9271374,-1.000,-0.072,0.061,-7.980,-4.270,2.380
9271395,-0.974,-0.040,0.010,-4.620,-1.190,3.920
9271411,-1.131,-0.056,0.062,1.400,-9.940,3.080
9271431,-0.996,-0.034,0.009,-1.470,-14.490,2.870
9271453,-0.997,-0.027,0.011,-2.380,-14.280,4.060
9271473,-0.976,-0.015,0.061,-12.110,-12.320,5.250
9271493,-0.950,-0.063,0.075,-17.990,-9.870,6.440
9271517,-0.980,-0.064,0.059,-17.010,-6.300,8.680
9271533,-0.994,-0.032,0.057,-14.770,-6.510,9.380
9271552,-1.013,0.010,0.077,-17.220,-3.430,11.410
9271574,-0.996,0.013,0.074,-22.120,-2.660,10.640
9271596,-1.004,-0.029,0.045,-15.260,-7.210,8.890
9271620,-1.006,-0.015,0.062,-13.090,-0.630,11.760
9271636,-1.008,-0.011,0.055,-11.690,-1.260,11.200
9271660,-0.996,0.025,0.062,-13.720,2.450,12.390
9271675,-1.042,0.041,0.059,-14.770,-4.900,11.200
9271699,-1.015,-0.033,0.028,-18.830,-0.350,11.900
9271718,-1.016,-0.003,0.015,-10.780,-1.260,14.070
9271741,-1.023,0.036,0.064,-7.980,-6.580,13.930
9271762,-0.972,0.016,0.038,-7.490,-7.280,12.320
9271780,-1.007,0.037,0.035,-4.620,-4.760,14.490
9271804,-1.023,0.052,0.040,-0.910,-7.910,14.280
9271822,-0.975,0.043,0.069,-0.490,-4.480,14.070
9271843,-0.983,0.062,0.078,-2.590,-0.280,13.930
9271862,-0.984,0.030,0.081,-2.030,1.890,13.720
9271886,-0.988,0.064,0.064,1.890,3.990,14.420
9271906,-1.011,0.110,0.041,-0.140,4.900,14.140
9271926,-0.997,0.134,0.023,-5.600,2.030,14.140
9271948,-1.011,0.141,0.040,-14.700,4.620,14.210
9271968,-1.002,0.134,0.035,-24.080,4.830,14.280
9271989,-1.004,0.089,0.038,-23.870,4.270,13.300
9272009,-0.979,0.087,0.061,-25.060,6.020,12.810
9272033,-1.002,0.063,0.037,-21.770,9.030,12.320
9272053,-1.000,0.035,0.018,-13.720,10.010,12.040
9272071,-1.015,0.109,0.008,-6.090,12.530,13.860
9272089,-1.003,0.153,0.047,-6.510,10.500,14.070
9272113,-0.987,0.197,-0.002,-21.630,12.460,14.490
9272133,-1.040,0.131,0.013,-29.820,7.630,12.880
9272152,-1.017,0.084,0.026,-19.320,7.700,10.710
9272177,-1.030,0.154,-0.006,-12.110,0.000,9.590
9272195,-0.992,0.141,0.004,-10.220,0.700,7.980
9272214,-1.018,0.150,0.005,-10.080,-1.820,7.140
9272236,-1.003,0.165,0.007,-13.370,-1.610,6.650
9272260,-0.962,0.153,0.035,-14.210,-2.520,5.040
9272276,-0.933,0.142,0.022,-10.850,1.120,3.850
9272299,-0.973,0.122,0.018,0.840,5.810,1.610
9272319,-1.024,0.163,0.060,7.140,2.380,-0.140
9272336,-1.032,0.182,0.011,5.530,-7.700,-5.600
9272360,-0.936,0.196,0.019,0.210,4.480,-4.270
9272378,-0.968,0.120,0.016,1.260,7.140,-5.320
9272400,-1.018,0.147,-0.019,4.690,7.140,-5.040
9272420,-0.990,0.122,-0.003,11.760,7.210,-5.110
9272440,-0.956,0.182,-0.002,16.940,9.800,-4.340
9272460,-1.043,0.226,-0.020,4.690,10.640,-5.810
9272483,-1.024,0.169,-0.027,-7.280,7.000,-6.300
9272507,-0.984,0.124,-0.014,-8.540,7.420,-6.370
9272526,-1.023,0.119,-0.030,-4.830,6.720,-6.650
9272546,-1.081,0.140,-0.012,-0.770,3.290,-8.470
9272566,-0.950,0.143,-0.010,0.910,1.120,-9.170
9272589,-0.965,0.090,-0.021,6.090,7.280,-9.730
9272612,-1.002,0.103,-0.053,10.780,5.670,-9.660
9272633,-1.017,0.124,-0.055,8.540,5.530,-8.260
9272649,-0.987,0.168,-0.062,7.630,4.550,-6.720
9272673,-1.003,0.153,-0.068,0.140,3.990,-6.790
9272693,-0.966,0.120,-0.067,-3.640,2.590,-6.020
9272711,-0.933,0.125,-0.030,-4.970,4.550,-5.110
9272735,-0.980,0.103,-0.042,-4.550,8.330,-6.580
9272753,-1.062,0.092,-0.064,0.910,3.290,-6.020
9272775,-1.032,0.077,-0.071,5.950,0.980,-7.350
9272794,-0.985,0.126,-0.075,10.290,0.280,-7.000
9272815,-0.986,0.129,-0.084,8.330,0.490,-7.630
9272835,-1.003,0.119,-0.061,2.730,-3.920,-7.280
9272851,-0.997,0.102,-0.081,0.700,-4.270,-6.230
9272871,-1.193,0.048,-0.059,2.380,-37.450,-14.840
9272895,-0.809,0.064,-0.092,13.370,-18.200,-7.490
9272915,-0.980,0.058,-0.076,17.500,-12.950,-4.690
9272935,-1.054,0.115,-0.023,16.100,-13.510,-3.150
9272953,-1.022,0.158,-0.059,10.990,-13.440,-0.840
9272975,-1.034,0.199,-0.053,-1.540,-15.120,-1.260
9272999,-0.961,0.129,-0.048,-9.520,-13.160,-2.380
9273014,-1.010,0.037,0.033,-2.170,-15.610,-5.880
9273039,-1.017,0.053,-0.012,8.050,-21.070,-7.350
9273059,-0.995,0.118,0.030,6.160,-13.720,-4.130
9273076,-0.948,0.149,0.028,0.910,-7.490,-3.990
9273100,-0.967,0.133,0.060,-8.190,1.120,-6.650
9273120,-0.984,0.052,0.040,-2.660,10.640,-7.490
9273135,-0.995,0.019,0.009,9.100,10.710,-7.910
9273159,-0.991,0.034,-0.018,17.990,13.020,-5.740
9273180,-0.984,0.237,-0.001,14.280,17.430,-3.500
9273199,-0.968,0.101,0.020,4.760,18.620,-4.130
9273219,-0.966,0.078,-0.034,7.420,23.590,-5.670
9273239,-1.062,0.092,-0.060,10.150,24.990,-7.560
9273261,-1.015,0.077,-0.047,17.430,17.080,-10.990
9273281,-1.003,0.108,-0.089,13.300,21.840,-10.500
9273305,-1.009,0.086,-0.064,4.830,17.430,-10.080
9273325,-0.999,0.033,-0.102,0.700,17.640,-9.030
9273341,-1.000,0.081,-0.142,-3.710,13.650,-7.630
9273361,-1.018,0.009,-0.091,-3.710,12.740,-7.490
9273385,-0.979,0.055,-0.029,8.820,16.590,-6.440
9273409,-0.973,0.028,-0.151,15.960,13.440,-5.950
9273429,-1.098,0.005,-0.207,23.940,7.770,-1.540
9273449,-1.028,0.003,-0.191,17.570,-0.210,3.430
9273467,-1.022,0.084,-0.168,-0.280,-3.920,5.390
9273489,-1.016,0.203,-0.114,-15.820,-7.700,1.750
9273513,-1.011,0.080,-0.086,-16.170,-3.010,-4.550
9273532,-0.970,-0.073,-0.111,0.560,-5.600,-3.500
9273552,-0.953,-0.035,-0.098,15.820,-1.540,3.500
9273575,-0.973,0.108,-0.068,14.350,1.680,0.770
9273595,-0.976,0.186,-0.083,1.260,5.670,-6.020
9273614,-0.977,0.140,-0.109,-2.100,9.660,-12.040
9273638,-0.996,0.004,-0.122,-4.900,6.300,-17.220
9273656,-1.035,-0.020,-0.149,-1.960,8.820,-19.250
9273678,-1.071,0.057,-0.082,-8.470,-9.240,-19.670
9273698,-0.870,0.035,-0.153,-13.300,-21.280,-22.610
9273718,-0.990,0.028,-0.147,-7.350,-10.150,-19.250
9273742,-0.991,0.076,-0.212,-6.580,-29.540,-21.210
9273765,-0.980,0.084,-0.164,-14.980,-19.110,-19.810
9273784,-0.960,0.047,-0.147,-22.610,-15.960,-21.700
9273809,-0.946,-0.050,-0.047,-33.110,-20.720,-21.210
9273828,-0.760,-0.207,-0.168,8.610,-23.660,-27.510
9273848,-0.937,-0.210,-0.108,-3.290,-3.220,-7.980
9273872,-0.944,0.024,-0.098,0.210,5.110,10.850
9273892,-1.018,-0.021,-0.097,-6.230,3.360,11.970
9273911,-1.009,0.032,-0.083,-9.870,-0.280,9.030
9273932,-1.111,0.015,-0.074,-9.170,-18.690,3.010
9273953,-1.008,0.037,-0.119,-8.540,-19.530,3.710
9273977,-0.991,-0.035,-0.069,-10.080,-13.300,5.110
9273997,-0.955,-0.063,-0.074,-5.390,-8.050,7.280
9274016,-0.988,-0.017,-0.059,0.560,-5.390,10.710
9274036,-0.989,0.017,-0.057,-3.710,-0.700,11.690
9274060,-0.992,-0.030,-0.110,8.470,5.950,16.730
9274078,-1.012,0.038,-0.081,12.040,1.260,16.100
9274102,-1.041,0.095,-0.075,-1.190,-7.280,9.450
9274122,-1.072,0.108,-0.101,-4.270,-7.700,11.130
9274138,-1.016,0.011,-0.112,-4.900,-9.310,13.790
9274162,-0.997,0.042,-0.085,0.210,-11.480,16.030
9274182,-1.013,0.121,-0.018,-6.230,-10.570,14.070
9274202,-1.014,0.108,-0.111,-8.750,-10.850,13.230
9274222,-1.018,0.089,-0.042,-11.620,-15.260,11.830
9274239,-1.002,0.078,-0.034,-14.910,-15.820,10.710
9274263,-1.012,0.008,-0.060,-13.370,-18.830,11.410
9274279,-0.961,0.053,-0.072,-8.120,-17.220,13.580
9274298,-1.013,0.121,-0.018,-12.040,-19.390,13.860
9274318,-1.010,0.049,-0.063,-16.660,-21.770,13.580
9274342,-1.008,0.014,-0.032,-2.870,-18.760,14.280
9274361,-0.991,0.115,-0.003,7.000,-20.020,13.510
9274381,-0.991,0.158,-0.027,3.360,-23.240,10.010
9274404,-1.026,0.147,-0.026,1.400,-21.770,7.350
9274425,-0.972,0.180,0.030,-0.280,-21.770,4.620
9274445,-0.991,0.121,-0.013,-2.660,-21.420,1.960
9274464,-1.045,0.125,0.002,3.850,-19.950,1.680
9274484,-1.020,0.197,0.020,-3.430,-23.100,1.540
9274503,-0.974,0.143,0.022,-11.270,-23.870,-0.630
9274523,-0.999,0.109,0.028,-9.870,-21.630,-1.330
9274548,-0.996,0.110,0.045,-9.030,-22.890,-0.980
9274566,-0.999,0.150,0.055,-9.660,-22.820,-0.560
9274588,-1.006,0.114,0.070,-3.500,-22.610,-3.710
9274608,-0.969,0.190,0.107,-5.740,-16.800,-3.010
9274632,-0.941,0.104,0.141,-14.070,-12.110,-4.970
9274652,-0.953,0.054,0.108,-4.060,-2.730,-4.200
9274676,-0.981,0.126,0.077,-2.170,-0.280,-2.590
9274696,-0.987,0.152,0.116,-11.550,2.380,-1.890
9274716,-0.947,0.103,0.096,-9.870,6.160,-3.010
9274736,-1.007,0.041,0.062,4.480,11.970,-4.340
9274753,-1.031,0.073,0.037,16.520,8.890,-5.250
9274776,-1.013,0.151,0.044,16.940,6.020,-3.990
9274795,-0.996,0.189,0.024,-1.050,6.650,-2.030
9274820,-1.032,0.141,0.047,-18.410,0.840,-0.210
9274838,-0.992,0.070,0.032,-14.560,0.420,0.980
9274858,-1.005,0.062,0.021,-1.960,0.000,1.050
9274877,-0.995,0.093,0.039,6.930,-0.420,0.700
9274897,-1.017,0.142,0.058,5.040,-1.680,1.050
9274921,-0.969,0.131,0.057,0.630,0.700,1.750
9274942,-0.983,0.100,0.084,2.520,4.760,0.350
9274962,-1.011,0.120,0.045,5.670,7.490,0.910
9274982,-1.000,0.120,0.039,6.860,5.810,1.190
9275005,-0.982,0.150,0.026,6.510,8.260,1.680
9275026,-1.008,0.153,0.025,0.770,7.280,1.750
9275045,-0.992,0.122,0.036,0.840,7.420,1.050
9275070,-0.984,0.105,0.027,7.840,9.660,0.070
9275090,-1.007,0.112,0.032,12.460,10.290,-0.070
9275110,-0.976,0.157,0.006,8.680,12.670,-0.280
9275125,-0.976,0.152,0.011,2.870,15.960,-0.140
9275146,-0.920,0.143,0.009,-3.640,17.710,0.420
9275166,-0.952,0.138,0.020,-5.110,22.750,-17.920
9275190,-0.980,0.106,0.158,3.290,31.850,-6.720
9275207,-1.002,0.085,-0.066,21.700,37.030,-9.870
9275225,-1.199,0.179,-0.109,25.200,19.530,-11.970
9275245,-0.854,0.220,-0.126,13.860,14.420,-11.130
9275270,-1.030,0.172,-0.107,-13.440,15.470,-10.290
9275290,-1.054,0.119,-0.052,-12.880,5.810,-8.470
9275310,-0.921,0.004,-0.124,3.500,-1.190,-8.890
9275328,-1.031,0.158,-0.073,11.760,3.500,-6.230
9275348,-1.016,0.123,-0.120,-1.820,4.200,-5.670
9275372,-1.003,0.055,-0.048,1.960,7.210,-4.970
9275390,-0.971,0.123,-0.003,4.130,12.880,-6.440
9275412,-0.998,0.160,-0.020,11.130,15.820,-9.240
9275436,-0.986,0.042,-0.120,8.820,19.110,-9.660
9275456,-0.983,0.081,-0.083,20.720,17.360,-8.400
9275476,-0.965,0.060,-0.144,12.950,17.780,-6.930
9275492,-1.037,0.144,-0.115,17.080,14.910,-9.380
9275512,-1.012,0.222,-0.133,2.310,13.160,-14.000
9275532,-1.080,0.145,-0.174,-3.010,10.080,-18.130
9275556,-0.979,0.100,-0.184,-11.690,-2.520,-21.350
9275574,-1.017,0.130,-0.176,-12.670,-6.510,-21.070
9275591,-1.009,0.068,-0.161,-20.440,-1.820,-20.160
9275616,-0.996,0.076,-0.114,-15.820,0.490,-23.170
9275636,-0.968,0.011,-0.085,-5.250,5.600,-20.300
9275656,-1.037,-0.071,-0.179,0.280,-17.080,-15.890
9275676,-0.944,-0.154,-0.130,5.880,-4.130,-6.230
9275694,-1.097,0.157,-0.132,21.490,-8.050,-15.680
9275714,-0.580,0.463,-0.098,-33.040,-2.520,-28.840
9275737,-1.236,0.066,-0.166,7.700,-4.830,2.730
9275758,-1.092,-0.049,-0.194,-5.740,-5.600,-5.600
9275778,-1.056,-0.037,-0.170,-4.550,-4.060,7.490
9275797,-1.084,0.047,-0.114,-11.060,-5.810,9.310
9275817,-0.995,0.003,-0.151,-9.170,-18.480,6.020
9275837,-0.943,0.042,-0.091,-8.050,-13.930,6.790
9275861,-0.934,-0.038,-0.123,1.610,-7.280,9.100
9275881,-1.006,0.005,-0.091,8.050,-7.630,11.200
9275901,-0.982,0.020,-0.084,10.780,-3.990,10.150
9275920,-0.994,0.061,-0.145,9.380,-1.470,11.690
9275941,-1.009,0.047,-0.146,5.740,-2.240,10.780
9275958,-1.028,0.048,-0.120,10.920,-1.470,12.180
9275983,-1.035,0.089,-0.173,9.660,-5.530,11.690
9276000,-1.050,0.126,-0.162,4.550,-13.790,11.970
9276024,-0.988,0.106,-0.156,-7.280,-19.040,11.830
9276042,-0.982,0.079,-0.136,-8.960,-21.770,11.970
9276063,-1.008,0.078,-0.106,-7.770,-23.100,12.810
9276087,-0.999,0.054,-0.093,-4.270,-23.800,14.210
9276107,-0.966,0.068,-0.077,-0.840,-24.570,14.280
9276127,-0.982,0.122,-0.053,-1.680,-21.210,12.880
9276147,-1.019,0.132,-0.067,-4.480,-21.770,12.460
9276166,-0.980,0.118,-0.064,-5.180,-20.020,11.900
9276190,-0.967,0.142,-0.067,-9.170,-19.950,10.920
9276209,-0.985,0.179,-0.056,-14.770,-22.260,10.360
9276233,-1.001,0.138,-0.056,-19.320,-22.750,8.190
9276253,-0.979,0.135,-0.030,-18.900,-22.890,8.960
9276272,-0.976,0.104,-0.017,-15.680,-19.110,8.190
9276292,-1.040,0.123,0.009,-12.600,-20.370,7.210
9276312,-1.002,0.150,-0.014,-11.690,-21.980,6.160
9276332,-0.996,0.175,-0.005,-16.520,-20.300,6.650
9276356,-0.986,0.133,0.003,-16.380,-17.290,6.160
9276373,-0.989,0.137,0.062,-7.700,-15.540,3.430
9276393,-0.976,0.178,0.023,-3.430,-12.880,2.170
9276417,-1.008,0.182,0.029,-2.940,-10.500,0.070
9276437,-0.970,0.219,0.020,-7.210,-11.270,-1.120
9276453,-0.991,0.183,0.051,-13.230,-11.060,-3.710
9276477,-0.978,0.111,0.020,-4.270,-7.140,-5.110
9276497,-1.004,0.153,0.033,-0.630,-6.720,-4.410
9276516,-0.995,0.154,0.050,-2.450,-8.260,-4.900
9276535,-0.982,0.142,-0.006,-1.890,-6.230,-4.830
9276560,-1.037,0.176,0.012,-3.010,-14.140,-4.410
9276580,-0.992,0.178,0.039,-5.950,-12.600,-5.600
9276596,-1.000,0.144,0.028,-5.600,-12.530,-5.880
9276620,-1.011,0.100,0.047,1.750,-14.840,-7.560
9276640,-1.000,0.106,0.055,10.430,-14.770,-8.050
9276662,-0.975,0.128,0.042,16.590,-12.460,-7.560
9276686,-0.983,0.156,0.056,10.150,-14.770,-6.300
9276704,-0.995,0.138,0.079,10.640,-14.770,-6.790
9276727,-0.982,0.155,0.076,3.640,-10.290,-6.230
9276746,-0.932,0.120,0.113,5.460,-7.280,-7.210
9276765,-0.944,0.081,0.121,11.620,1.960,-7.280
9276789,-0.988,0.098,0.087,20.580,7.420,-6.650
9276810,-1.033,0.147,0.065,22.470,6.650,-5.390
9276834,-1.011,0.178,0.060,6.930,6.090,-4.270
9276855,-1.009,0.178,0.046,-7.420,7.350,-3.150
9276879,-1.013,0.118,0.026,-10.780,4.200,-3.290
9276899,-0.995,0.069,0.024,-1.050,3.290,-2.380
9276919,-1.001,0.093,0.018,5.600,2.030,-0.210
9276939,-1.015,0.121,0.032,4.900,-0.140,1.470
9276957,-0.995,0.143,0.045,-0.560,-0.700,3.080
9276974,-0.977,0.160,0.051,-6.440,0.210,4.200
9276999,-1.006,0.132,0.035,-10.500,0.840,4.060
9277016,-1.002,0.116,0.020,-7.490,1.330,3.990
9277035,-0.989,0.113,0.036,-0.980,-0.910,3.500
9277058,-0.985,0.122,0.042,6.300,2.100,3.640
9277078,-1.001,0.144,0.028,7.350,2.800,3.850
9277102,-0.980,0.166,0.024,2.660,0.840,3.990
9277121,-0.953,0.167,0.018,-1.050,1.680,3.990
9277140,-0.978,0.154,0.061,-3.780,4.060,3.850
9277165,-1.047,0.093,0.011,0.140,-1.680,0.000
9277185,-1.004,0.154,0.064,6.510,1.470,2.450
9277209,-0.964,0.165,0.024,6.650,5.810,2.800
9277230,-1.002,0.163,-0.008,4.410,1.680,1.890
9277249,-1.005,0.153,0.005,5.530,1.750,1.680
9277269,-1.005,0.187,0.000,2.520,2.100,3.220
9277289,-0.990,0.174,0.008,-1.680,0.000,3.290
9277306,-0.940,0.164,0.039,-3.360,2.590,3.780
9277326,-0.967,0.136,0.096,0.000,8.750,2.660
9277348,-1.001,0.139,0.000,4.480,16.100,2.590
9277365,-1.044,0.142,0.001,10.080,12.320,1.400
9277389,-0.968,0.233,-0.009,6.440,11.900,2.240
9277410,-0.982,0.192,-0.012,-5.880,4.970,-2.030
9277430,-1.007,0.061,-0.003,1.400,12.740,-3.220
9277449,-1.027,0.122,-0.059,17.570,12.040,-1.400
9277470,-1.006,0.241,-0.009,9.240,8.120,0.350
9277490,-0.995,0.220,-0.078,-4.830,9.730,0.700
9277510,-1.022,0.157,-0.061,-12.180,2.660,1.050
9277534,-0.978,0.120,-0.067,-9.450,2.520,4.900
9277553,-1.058,0.121,-0.019,4.760,-8.190,1.050
9277577,-0.947,0.163,-0.009,12.250,1.750,-2.520
9277592,-0.981,0.242,0.026,17.430,4.550,-4.830
9277617,-0.943,0.245,-0.059,2.730,12.600,-8.750
9277632,-0.987,0.213,-0.017,-1.610,15.330,-11.480
9277657,-0.949,0.194,0.030,-4.200,17.990,-14.630
9277677,-0.960,0.033,-0.026,8.330,17.850,-17.010
9277693,-1.026,0.070,-0.103,28.560,4.760,-17.780
9277712,-0.996,0.288,-0.153,17.920,4.690,-15.960
9277737,-1.200,0.214,-0.049,-13.020,-8.820,-23.870
9277756,-0.916,0.179,-0.143,-24.360,-14.070,-25.340
9277780,-1.006,0.120,-0.077,-20.300,-7.770,-21.490
9277800,-1.014,0.073,-0.120,-2.870,-12.040,-19.180
9277820,-1.026,0.126,-0.045,1.330,-18.760,-19.040
9277839,-0.954,0.118,-0.069,-11.200,-11.410,-16.520
9277858,-0.964,0.127,-0.049,-15.050,-7.350,-12.880
9277882,-0.966,0.146,-0.037,-10.290,0.770,-14.070
9277902,-0.966,0.061,0.020,-20.440,5.110,-19.740
9277926,-1.015,-0.237,-0.010,-8.540,4.340,-28.210
9277943,-0.973,0.003,-0.148,14.630,7.630,-11.410
9277962,-1.208,0.161,-0.135,18.340,-31.570,-11.830
9277987,-1.083,0.175,-0.101,-1.820,-3.010,4.900
9278007,-1.016,0.060,-0.097,-20.300,2.030,4.480
9278026,-0.996,-0.028,-0.083,-8.050,1.050,5.250
9278046,-1.007,-0.173,-0.033,14.490,1.540,1.330
9278066,-1.029,-0.027,-0.022,40.460,3.990,2.870
9278090,-0.972,0.114,-0.106,38.710,14.840,11.480
9278114,-1.026,0.206,-0.096,23.520,14.140,11.620
9278134,-1.013,0.166,-0.135,6.160,10.990,7.980
9278153,-1.040,0.124,-0.117,6.650,5.670,7.000
9278173,-1.025,0.120,-0.089,6.860,2.450,6.650
9278189,-1.042,0.088,-0.087,11.480,-2.310,4.270
9278214,-1.009,0.119,-0.128,6.650,-5.810,4.060
9278230,-0.998,0.139,-0.101,1.820,-10.780,2.870
9278253,-1.009,0.135,-0.057,-2.100,-11.480,-0.140
9278273,-1.005,0.114,-0.089,-4.060,-9.310,0.000
9278292,-0.988,0.033,-0.084,4.830,-9.590,-1.050
9278316,-1.021,0.130,-0.087,7.490,-10.010,0.210
9278331,-1.024,0.154,-0.082,-2.730,-13.440,0.070
9278356,-0.964,0.115,-0.048,-9.800,-10.850,-1.750
9278372,-0.969,0.095,-0.057,-7.840,-8.610,-1.960
9278391,-1.014,0.079,-0.068,-1.820,-7.980,-2.240
9278411,-0.979,0.053,-0.107,4.900,-8.330,-2.450
9278432,-0.976,0.146,-0.084,1.820,-11.900,-1.190
9278456,-0.967,0.137,-0.070,-3.920,-10.360,-2.100
9278474,-0.978,0.102,-0.066,-3.710,-9.240,-1.820
9278497,-1.007,0.082,-0.059,-2.800,-9.520,-1.050
9278516,-1.031,0.078,-0.046,2.030,-9.660,-0.840
9278535,-1.021,0.106,-0.061,6.580,-9.660,17.780
9278560,-0.962,0.112,-0.086,7.420,-10.360,0.350
9278575,-1.026,0.150,-0.070,3.080,-13.090,0.280
9278600,-1.027,0.157,-0.043,-8.540,-15.890,0.000
9278619,-1.020,0.105,-0.022,-4.690,-15.400,-0.630
9278640,-0.995,0.110,-0.058,-4.550,-14.910,-0.210
9278655,-1.015,0.127,-0.058,-6.160,-17.710,-0.140
9278680,-0.975,0.120,-0.002,-9.310,-17.640,-0.280
9278700,-0.961,0.090,-0.004,-4.900,-12.740,-0.560
9278720,-0.985,0.102,0.013,-2.870,-11.200,-1.610
9278738,-0.998,0.125,0.009,-1.890,-7.140,-2.100
9278756,-0.963,0.093,0.023,-1.190,-7.140,-3.850
9278775,-1.020,0.103,0.027,0.910,-0.630,-4.200
9278799,-1.014,0.144,-0.029,-4.200,-0.560,-3.850
9278820,-0.992,0.099,-0.004,-4.060,-3.920,-4.130
9278840,-0.987,0.099,-0.038,1.400,-2.030,-3.570
9278860,-1.002,0.102,-0.022,0.070,-4.480,-2.940
9278879,-1.010,0.108,-0.042,-3.080,-5.600,-1.610
9278900,-1.022,0.117,0.003,-8.190,-8.470,-0.980
9278919,-1.002,0.065,-0.012,-4.900,-7.000,-0.910
9278940,-0.997,0.099,-0.034,0.910,-8.050,-0.770
9278964,-1.021,0.119,-0.001,-2.730,-10.640,0.000
9278984,-1.010,0.126,0.034,-5.250,-9.380,0.140
9279000,-0.991,0.095,0.012,-4.200,-8.820,-0.280
9279024,-1.014,0.126,0.004,-1.820,-7.980,-0.420
9279044,-0.984,0.148,0.019,-2.520,-6.930,-2.100
9279062,-1.012,0.098,0.025,-1.470,-4.900,-3.080
9279082,-0.994,0.082,0.018,3.640,-4.200,-2.660
9279104,-0.958,0.077,0.020,8.470,-1.470,-1.330
9279125,-1.016,0.106,0.015,9.380,-0.840,-0.490
9279144,-1.000,0.120,-0.005,5.390,0.280,0.070
9279169,-1.007,0.121,0.006,1.190,-2.310,1.120
9279187,-0.997,0.085,0.004,1.190,-1.260,2.030
9279207,-0.992,0.093,0.016,6.090,0.000,3.220
9279231,-0.997,0.111,-0.007,7.980,0.770,3.920
9279251,-1.021,0.131,0.009,4.550,-1.190,3.710
9279271,-0.988,0.090,0.007,5.250,0.980,4.060
9279287,-0.985,0.109,-0.007,5.250,2.380,5.600
9279311,-0.980,0.108,0.028,7.630,2.520,5.950
9279329,-0.987,0.113,-0.002,8.400,5.740,6.790
9279352,-0.974,0.149,-0.011,5.530,6.720,7.350
9279370,-0.997,0.139,0.002,1.680,8.610,6.860
9279389,-0.971,0.120,-0.003,2.380,10.010,7.350
9279414,-0.947,0.144,0.003,3.290,17.150,7.490
9279431,-0.976,0.169,0.022,2.590,21.910,5.110
9279455,-0.953,0.168,-0.026,6.860,25.620,0.700
9279473,-1.170,0.133,-0.012,14.840,20.090,-5.670
9279497,-0.930,0.147,-0.103,10.710,11.760,-3.010
9279516,-1.179,0.218,-0.058,-5.390,15.890,-3.080
9279537,-0.996,0.158,-0.114,-18.830,11.410,-2.940
9279557,-1.042,0.071,-0.030,-14.490,12.460,-2.450
9279577,-0.966,0.079,-0.187,6.370,11.970,1.330
9279597,-1.047,0.166,-0.102,14.070,2.380,1.610
9279621,-0.973,0.169,-0.087,3.150,6.090,1.050
9279641,-1.033,0.126,-0.050,-3.710,4.970,0.140
9279661,-0.994,0.139,-0.093,-1.540,8.260,3.010
9279684,-0.997,0.197,-0.121,-5.810,3.640,1.750
9279700,-0.991,0.201,-0.148,-13.020,0.210,-0.140
9279725,-0.996,0.204,-0.132,-21.000,-4.900,-4.130
9279745,-1.012,0.188,-0.076,-15.680,-4.970,-8.890
9279765,-0.965,0.149,-0.083,-12.040,-2.240,-11.410
9279789,-1.005,0.133,-0.103,-2.310,-2.660,-14.350
9279808,-1.011,0.233,-0.115,-8.190,-4.270,-15.260
9279828,-0.977,0.252,-0.090,-26.600,-9.870,-17.220
9279848,-0.584,-0.107,-0.074,-25.970,27.930,-29.260
9279870,-1.469,0.298,-0.131,-10.710,-38.220,-16.030
9279891,-0.944,-0.142,-0.006,-10.010,-9.170,-20.230
9279915,-1.083,0.374,-0.057,-6.650,-13.580,-8.120
9279932,-0.965,0.184,-0.051,-34.510,2.870,6.720
9279951,-0.979,0.084,-0.108,-27.090,0.490,10.640
9279976,-0.885,0.002,-0.137,-4.550,-6.510,-4.200
9279994,-1.018,0.021,-0.098,16.450,-2.870,0.770
9280016,-0.929,0.142,-0.105,21.910,-6.440,-5.810
9280035,-1.028,0.139,-0.073,6.930,-8.400,0.700
9280056,-0.972,0.076,-0.088,10.010,-6.790,3.360
9280080,-1.001,0.159,-0.095,6.860,-10.010,3.080
9280100,-1.033,0.147,-0.096,-1.470,-9.940,2.310
9280120,-0.989,0.095,-0.079,-0.490,-10.430,3.010
9280143,-1.036,0.053,-0.081,13.370,-12.460,3.920
9280164,-1.031,0.113,-0.079,16.380,-12.950,6.370
9280182,-0.967,0.132,-0.090,13.930,-12.810,7.000
9280206,-1.009,0.168,-0.076,8.750,-16.170,6.230
9280225,-0.997,0.199,-0.084,3.990,-18.410,4.410
9280245,-1.012,0.207,-0.062,-2.240,-18.970,1.470
9280268,-1.015,0.166,-0.056,-9.870,-21.700,-1.540
9280289,-0.984,0.153,-0.050,-9.520,-23.520,-0.280
9280309,-0.972,0.116,-0.021,-7.980,-20.510,-0.210
9280329,-0.990,0.160,-0.022,-8.330,-20.090,0.000
9280347,-0.989,0.156,0.000,-11.270,-18.480,-1.190
9280368,-0.988,0.124,0.006,-3.360,-15.260,-1.540
9280386,-1.019,0.112,0.009,-0.980,-19.040,-3.920
9280409,-0.990,0.109,-0.020,6.790,-21.140,-4.130
9280430,-1.003,0.141,0.019,7.910,-18.900,-3.150
9280449,-0.960,0.174,0.025,7.000,-17.570,-2.590
9280465,-0.976,0.100,0.034,8.260,-14.140,-4.130
9280490,-0.997,0.060,-0.020,19.390,-8.960,-3.080
9280510,-1.044,0.157,0.028,23.240,-14.840,-1.750
9280525,-0.969,0.221,0.063,10.360,-10.780,-1.820
9280549,-1.032,0.122,-0.011,5.250,-13.860,-5.670
9280570,-1.034,0.132,-0.001,9.100,-14.700,-3.430
9280592,-0.991,0.162,0.055,5.250,-13.510,-1.680
9280614,-0.950,0.164,0.067,-3.360,-7.910,-1.750
9280635,-0.994,0.121,0.046,-2.940,-4.340,-1.680
9280653,-0.995,0.156,0.055,-4.970,-1.890,0.630
9280677,-0.965,0.158,0.053,-11.760,2.240,1.680
9280701,-1.013,0.083,0.025,-7.560,-0.070,0.910
9280720,-1.044,0.100,0.004,-2.170,-1.540,2.380
9280740,-1.018,0.159,0.011,-3.150,-3.570,3.780
9280764,-0.972,0.173,0.031,-8.470,-6.300,3.920
9280781,-0.995,0.138,0.039,-10.500,-4.060,4.130
9280805,-1.019,0.144,0.020,-10.290,-6.860,5.670
9280824,-0.996,0.143,0.057,-10.780,-9.380,5.250
9280844,-0.981,0.110,0.036,-4.970,-6.930,4.830
9280863,-1.013,0.119,0.037,3.640,-9.380,4.830
9280888,-0.994,0.183,0.052,1.540,-8.190,5.740
9280908,-0.967,0.173,0.079,-2.450,-8.190,4.270
9280932,-0.975,0.175,0.069,-3.430,-0.560,3.080
9280949,-0.999,0.152,0.084,-1.190,-1.680,0.420
9280971,-0.966,0.155,0.074,3.640,3.360,-0.280
9280990,-0.965,0.164,0.060,7.280,5.600,-1.750
9281014,-0.989,0.173,0.057,4.620,7.770,-3.010
9281034,-1.035,0.190,0.038,-0.700,3.500,-4.900
9281053,-0.976,0.172,0.039,-3.080,5.670,-5.040
9281074,-0.991,0.144,0.031,-1.680,6.510,-4.200
9281094,-1.003,0.136,0.005,5.460,6.440,-4.060
9281113,-0.986,0.151,0.002,8.400,7.280,-3.150
9281132,-0.986,0.190,0.003,2.100,4.970,-2.170
9281157,-0.988,0.163,0.062,-7.490,6.090,-2.100
9281177,-0.982,0.144,0.024,-7.700,10.290,-3.010
9281201,-1.005,0.161,0.013,0.070,8.890,-5.880
9281219,-0.977,0.131,0.022,8.120,11.200,-7.910
9281242,-0.992,0.151,0.054,19.460,13.860,-9.940
9281262,-0.952,0.125,-0.028,22.260,35.070,-10.640
9281282,-1.041,0.171,-0.005,21.980,15.540,-11.200
9281306,-0.960,0.165,-0.004,9.730,14.560,-11.480
9281326,-0.985,0.137,-0.046,8.400,19.460,-10.010
9281343,-1.053,0.086,-0.053,11.130,17.710,-11.970
9281367,-0.975,0.055,-0.049,23.940,9.240,-12.180
9281385,-1.006,0.133,-0.026,30.590,10.990,-13.790
9281402,-1.016,0.195,-0.063,22.680,3.850,-18.620
9281426,-0.965,0.159,-0.051,17.640,9.590,-21.070
9281450,-0.974,0.109,-0.027,18.830,10.780,-20.650
9281469,-1.068,0.016,-0.012,25.060,9.520,-20.860
9281488,-0.926,0.085,-0.153,35.210,19.530,-16.310
9281513,-1.011,0.187,-0.081,27.930,6.930,-19.110
9281533,-1.024,0.113,-0.101,9.100,11.410,-20.510
9281552,-1.108,0.059,-0.061,4.830,2.030,-21.140
9281573,-1.077,0.050,-0.094,8.050,-8.120,-19.250
9281591,-0.935,-0.005,-0.151,11.410,-1.960,-15.470
9281614,-0.983,0.069,-0.088,13.370,1.750,-14.210
9281635,-0.967,0.138,-0.089,0.140,7.350,-16.940
9281659,-0.979,0.115,-0.017,-4.060,14.770,-19.880
9281678,-0.986,0.033,-0.117,-3.430,17.920,-16.590
9281702,-1.005,-0.073,-0.199,4.690,14.910,-11.970
9281721,-1.050,0.031,-0.185,-0.560,7.280,-18.970
9281742,-1.105,0.179,-0.145,-16.800,2.730,-13.160
9281761,-0.857,0.085,-0.119,-15.890,6.650,-19.110
9281780,-0.940,-0.083,-0.094,-91.980,-50.190,-80.850
9281805,-1.918,0.732,-0.113,-65.940,-68.250,-12.320
9281825,-1.215,-0.110,-0.211,4.060,-15.820,-7.840
9281843,-1.119,0.021,-0.102,-25.900,-16.030,-12.740
9281865,-0.843,0.097,-0.164,-4.900,7.630,12.180
9281889,-1.155,-0.117,-0.165,13.300,-4.270,17.360
9281908,-1.250,0.031,-0.131,8.610,-1.470,38.220
9281927,-0.937,0.045,-0.114,4.130,-8.400,17.640
9281951,-0.863,0.096,-0.099,-6.860,-17.850,-3.920
9281970,-1.077,0.035,-0.175,-20.440,-25.130,-5.320
9281987,-0.996,-0.042,-0.133,-29.190,-21.490,1.610
9282013,-0.996,-0.030,-0.129,-2.590,-15.610,8.260
9282032,-1.003,0.094,-0.087,-4.130,-13.160,12.250
9282054,-1.267,0.017,-0.036,-12.530,-26.040,13.370
9282078,-0.868,0.002,-0.137,-5.810,-27.860,12.390
9282097,-0.950,0.028,-0.076,0.770,-24.080,11.410
9282115,-0.997,-0.007,-0.083,-4.340,-18.130,14.700
9282135,-1.011,0.054,-0.079,4.060,-19.670,20.790
9282159,-0.998,0.150,-0.077,2.030,-14.700,20.230
9282180,-0.983,0.083,-0.081,-8.890,-13.160,16.870
9282199,-0.997,0.154,-0.073,-14.000,-15.540,16.800
9282218,-1.068,0.143,-0.031,-20.580,-19.320,14.350
9282239,-1.053,0.085,-0.034,-20.230,-26.250,13.790
9282256,-0.978,0.097,-0.008,-18.550,-28.910,13.230
9282280,-1.035,0.123,0.018,-21.420,-25.620,13.160
9282296,-0.991,0.086,0.007,-21.910,-24.150,12.740
9282319,-0.953,0.051,0.024,-12.040,-22.050,11.480
9282339,-0.967,0.130,0.032,-1.820,-17.220,11.060
9282361,-0.999,0.140,0.001,-3.920,-16.800,8.680
9282382,-1.013,0.154,0.026,-4.340,-17.080,8.050
9282404,-0.994,0.186,0.036,-9.660,-17.080,7.280
9282423,-1.017,0.141,0.046,-13.720,-21.560,3.500
9282442,-0.976,0.173,0.051,-11.270,-21.210,1.820
9282465,-0.988,0.158,0.046,-13.230,-25.760,-1.400
9282486,-0.991,0.102,0.061,-5.670,-22.120,-1.610
9282506,-0.970,0.078,0.065,5.880,-22.050,-2.170
9282526,-0.957,0.107,0.123,12.250,-16.030,-2.800
9282541,-0.987,0.134,0.101,18.760,-20.090,-5.740
9282566,-0.977,0.142,0.075,26.110,-9.310,-3.710
9282589,-1.011,0.272,0.057,22.120,-5.040,-3.220
9282608,-0.993,0.176,0.074,7.840,-1.680,-5.810
9282626,-0.978,0.111,0.110,12.880,0.910,-7.980
9282648,-0.984,0.172,0.084,30.520,4.550,-8.330
9282670,-0.998,0.163,0.067,24.850,6.230,-10.360
9282694,-1.003,0.172,0.067,19.880,7.140,-9.380
9282713,-0.975,0.205,0.115,1.680,8.470,-9.100
9282733,-0.976,0.113,0.056,-12.950,9.170,-8.890
9282757,-1.020,0.052,0.021,-7.490,9.590,-6.790
9282777,-1.014,0.088,0.057,-2.870,7.490,-6.090
9282794,-0.964,0.080,0.022,-2.450,7.630,-5.390
9282818,-1.014,0.049,0.016,10.430,8.400,-3.850
9282837,-1.044,0.213,0.002,9.590,1.330,0.140
9282856,-0.979,0.142,0.033,1.610,0.140,-1.470
9282880,-1.012,0.176,0.043,-5.880,1.750,-1.400
9282900,-0.993,0.113,0.015,-6.790,3.430,-2.590
9282916,-1.005,0.101,0.013,-1.610,3.220,-1.330
9282940,-0.981,0.142,-0.002,-0.490,6.510,1.680
9282959,-1.057,0.161,0.064,-4.620,4.130,2.730
9282983,-0.971,0.150,-0.004,-11.550,-3.290,1.190
9283003,-0.996,0.113,0.021,-10.360,-4.690,1.610
9283022,-1.009,0.071,0.033,-3.430,-5.180,1.120
9283043,-0.973,0.078,0.020,7.560,-3.010,1.750
9283063,-0.999,0.142,0.041,9.240,-1.680,1.750
9283082,-1.004,0.156,-0.006,6.720,1.540,3.710
9283102,-1.030,0.177,0.005,-1.050,-2.030,4.480
9283126,-0.997,0.187,-0.003,-13.090,-3.850,5.810
9283145,-0.984,0.123,0.004,-15.400,-7.000,5.950
9283166,-0.987,0.025,0.027,-2.730,-7.770,7.070
9283186,-0.999,0.085,0.053,14.840,-5.390,8.890
9283203,-0.996,0.177,0.080,11.060,-5.320,8.890
9283223,-0.995,0.200,0.053,-2.660,-2.730,7.980
9283247,-1.010,0.185,0.015,-10.290,-1.190,6.650
9283266,-0.875,0.157,0.039,-12.040,-6.090,5.110
9283291,-0.954,0.131,0.032,-6.370,-3.220,4.900
9283307,-0.962,0.147,0.038,0.630,-0.910,4.620
9283327,-1.007,0.167,0.040,0.560,0.490,3.500
9283350,-1.023,0.160,0.049,0.700,-0.630,3.640
9283369,-0.963,0.172,0.028,0.490,0.910,4.410
9283391,-0.982,0.192,0.043,-2.450,3.290,2.730
9283411,-1.002,0.179,0.033,-1.400,6.160,0.210
9283435,-1.014,0.147,0.032,8.050,7.000,-1.820
9283454,-0.956,0.195,0.003,10.850,5.180,-1.400
9283472,-0.890,0.211,0.032,3.080,9.870,-1.260
9283496,-1.039,0.179,0.015,-8.400,11.550,-2.660
9283515,-1.063,0.144,-0.011,-9.380,5.460,-1.750
9283539,-0.941,0.175,0.013,-1.610,7.630,-2.800
9283559,-1.003,0.143,-0.046,7.420,6.160,-4.270
9283579,-0.997,0.140,0.008,16.100,3.920,-5.040
9283597,-0.983,0.178,-0.032,13.790,3.710,-4.760
9283620,-1.037,0.219,-0.034,4.060,0.700,-3.220
9283641,-0.948,0.157,-0.044,-1.610,-2.520,-2.870
9283659,-1.015,0.126,-0.038,2.030,-2.310,-1.260
9283682,-1.025,0.144,-0.012,10.570,-7.980,-2.100
9283706,-0.997,0.197,0.014,13.720,-4.900,-2.660
9283725,-0.964,0.168,0.000,12.250,-0.280,-3.990
9283742,-1.057,0.183,-0.007,10.780,-6.790,-6.510
9283766,-0.961,0.213,0.002,8.050,-5.600,-6.930
9283786,-0.951,0.183,-0.011,1.050,-2.520,-7.630
9283802,-1.147,0.182,0.020,-0.490,-14.490,-14.070
9283822,-0.947,0.176,0.008,-4.620,-19.460,-15.190
9283845,-0.931,0.131,-0.014,-8.680,-13.160,-10.010
9283866,-0.955,0.086,0.025,4.970,-2.660,-4.690
9283886,-0.972,0.124,0.016,3.640,1.540,-2.520
9283905,-1.011,0.114,0.027,0.770,2.940,-1.400
9283929,-0.988,0.130,-0.012,3.080,6.090,1.330
9283948,-0.992,0.154,-0.004,4.270,7.280,0.840
9283969,-0.968,0.176,0.028,1.890,13.160,-2.660
9283989,-1.037,0.189,0.025,5.810,-0.140,-10.360
9284009,-0.959,0.069,-0.022,9.660,7.630,-11.900
9284028,-0.981,0.126,0.004,22.260,8.190,-11.410
9284053,-1.131,0.173,-0.041,19.180,-8.890,-16.800
9284072,-1.014,0.207,-0.065,3.080,0.000,-14.910
9284092,-0.967,0.156,-0.032,-10.360,4.340,-15.890
9284116,-1.008,0.068,-0.048,-7.770,4.060,-13.790
9284136,-0.996,0.090,-0.035,12.670,4.270,-14.560
9284156,-0.993,0.168,-0.091,-6.720,8.190,-15.890
9284176,-1.013,0.096,-0.109,-9.590,6.790,-14.420
9284196,-1.008,0.164,-0.065,-12.670,4.690,-11.690
9284216,-0.899,-0.104,-0.049,-13.230,10.010,-5.810
9284235,-0.971,0.088,-0.025,6.160,-4.480,-21.980
9284252,-1.017,0.191,-0.079,-21.560,-7.490,-6.790
9284276,-1.057,-0.096,-0.092,-6.650,-1.680,-4.970
9284296,-0.973,0.156,-0.053,-3.780,-1.750,-1.470
9284315,-0.986,0.070,0.004,-20.860,1.470,0.000
9284336,-1.029,-0.012,-0.080,-4.550,5.110,12.180
9284356,-1.037,0.079,0.004,3.010,1.820,5.600
9284376,-0.955,0.122,-0.049,-7.280,-2.170,2.170
9284396,-0.997,0.065,-0.064,-1.890,-3.360,2.100
9284416,-1.022,0.138,-0.052,-0.910,-6.230,4.340
9284439,-1.019,0.109,-0.035,-2.310,-7.140,2.240
9284455,-0.999,0.133,-0.046,-4.830,-7.420,2.170
9284478,-1.013,0.116,-0.025,-5.110,-5.600,4.130
9284498,-0.964,0.037,-0.045,-0.910,-7.000,1.190
9284522,-1.033,0.106,-0.048,1.890,-5.810,4.830
9284538,-0.996,0.091,-0.042,-3.290,-4.060,6.510
9284557,-1.012,0.077,-0.060,0.420,-5.600,8.540
9284582,-0.998,0.124,-0.045,2.380,-8.400,11.200
9284602,-0.985,0.195,-0.010,3.360,-9.240,9.660
9284619,-1.015,0.173,-0.043,-9.170,-10.920,6.930
9284643,-1.027,0.087,-0.028,-13.790,-12.740,6.230
9284662,-0.992,0.083,-0.018,-1.820,-14.070,7.700
9284682,-0.990,0.205,0.021,-4.900,-13.650,6.300
9284706,-1.016,0.141,-0.005,-9.030,-11.830,1.610
9284726,-0.991,0.151,0.028,-5.390,-10.360,0.490
9284746,-0.959,0.137,0.023,0.140,-7.140,-0.910
9284762,-0.985,0.095,0.003,3.150,-6.580,-0.770
9284786,-0.988,0.088,0.016,10.430,-4.270,0.630
9284806,-1.024,0.139,-0.027,11.410,-7.490,1.610
9284826,-1.015,0.193,-0.005,6.860,-9.450,1.400
9284845,-0.998,0.211,-0.002,-2.380,-9.100,-0.910
9284863,-0.999,0.147,0.004,-5.040,-8.330,-2.660
9284885,-0.981,0.080,-0.028,-2.240,-9.100,-1.470
9284905,-1.014,0.127,-0.015,0.560,-11.760,1.960
9284929,-1.020,0.199,0.005,-6.370,-14.840,3.290
9284949,-0.981,0.163,0.007,-10.080,-16.520,2.240
9284967,-0.984,0.141,0.026,-7.490,-13.650,1.540
9284989,-1.005,0.154,0.024,-4.550,-13.510,1.050
9285012,-0.967,0.152,0.046,-5.670,-14.700,-0.210
9285032,-0.974,0.162,0.037,-6.020,-8.400,-0.350
9285056,-0.996,0.134,0.073,-7.420,-9.590,-1.400
9285076,-0.999,0.116,0.060,-0.770,-5.320,-1.050
9285095,-0.987,0.127,0.065,5.530,-3.220,-2.030
9285115,-0.976,0.169,0.026,7.980,-1.260,-2.590
9285138,-1.023,0.162,0.059,1.680,-3.850,-3.150
9285157,-0.987,0.143,0.042,3.430,-0.980,-2.940
9285182,-0.969,0.142,0.056,5.530,1.680,-3.570
9285202,-0.998,0.172,0.041,2.520,2.030,-3.080
9285226,-0.977,0.156,0.021,-2.800,1.960,-2.520
9285244,-1.034,0.145,0.033,-7.910,1.610,-1.400
9285265,-0.998,0.126,0.012,-6.510,-1.260,17.780
9285281,-0.988,0.125,0.023,-3.780,-1.470,0.700
9285305,-1.010,0.136,0.025,0.840,-1.750,0.980
9285325,-1.023,0.164,0.027,1.540,-4.620,0.630
9285345,-0.985,0.171,0.031,-0.910,-5.530,-0.210
9285361,-0.984,0.182,0.014,-6.160,-4.690,0.770
9285386,-1.002,0.144,0.035,-8.680,-7.350,0.210
9285406,-0.982,0.115,0.037,-1.960,-4.900,0.630
9285426,-0.991,0.131,0.049,6.020,-4.200,0.490
9285444,-0.989,0.138,0.052,9.520,-2.240,0.140
9285468,-0.994,0.185,0.046,6.510,-1.680,0.490
9285488,-0.983,0.186,0.043,-0.420,-1.050,-0.350
9285508,-1.000,0.155,0.029,-1.820,-1.330,-0.840
9285527,-0.988,0.154,0.030,0.000,-0.420,-0.490
9285551,-0.979,0.160,0.045,1.680,-0.210,-0.560
9285571,-0.986,0.157,0.058,1.190,2.870,-0.910
9285591,-1.011,0.152,0.026,4.550,0.630,-1.120
9285610,-0.999,0.184,0.010,2.940,-2.450,-0.840
9285629,-1.004,0.185,0.020,-1.960,-3.500,-1.120
9285654,-0.985,0.155,0.025,-2.310,-3.010,-1.470
9285674,-1.003,0.127,0.026,3.010,-4.900,-1.750
9285689,-0.983,0.144,0.026,6.020,-3.920,-0.980
9285714,-1.011,0.169,0.043,3.990,-4.620,-0.980
9285734,-0.978,0.171,0.025,-0.070,-3.430,-0.630
9285750,-0.991,0.159,0.029,-0.280,-3.150,-0.980
9285774,-0.994,0.159,0.042,2.310,-2.730,-2.170
9285793,-0.996,0.140,0.037,7.420,-1.960,-2.520
9285812,-0.985,0.168,0.031,8.750,-2.170,-2.660
9285832,-0.997,0.182,0.043,5.530,-1.960,-2.940
9285855,-0.985,0.163,0.027,2.870,0.070,-2.870
9285876,-1.000,0.143,0.037,3.290,-0.700,-2.800
9285895,-0.995,0.163,0.035,2.800,0.700,-1.890
9285916,-0.991,0.170,0.030,1.260,0.630,-2.660
9285940,-1.005,0.158,0.028,2.030,-0.070,-3.850
9285955,-0.990,0.145,0.012,3.710,0.630,-3.780
9285980,-0.996,0.131,0.026,8.750,-0.070,-3.850
9285995,-0.999,0.177,0.013,7.910,0.420,-3.290
9286015,-1.001,0.175,0.028,3.290,-0.630,-3.780
9286035,-0.988,0.159,0.004,2.030,-0.770,-3.920
9286060,-0.979,0.128,0.029,5.180,-1.120,-3.220
9286077,-1.004,0.121,0.035,9.240,0.840,-2.660
9286098,-1.021,0.166,0.020,9.170,0.140,-1.680
9286120,-0.969,0.197,0.003,-0.630,-0.840,-1.330
9286140,-0.968,0.165,0.038,-5.320,1.050,-2.030
9286164,-1.003,0.141,0.016,-6.230,2.940,-2.380
9286184,-1.011,0.102,0.019,4.410,1.470,-1.610
9286202,-0.970,0.161,0.022,7.560,4.130,-0.280
9286222,-1.024,0.199,0.015,2.520,2.800,-1.680
9286246,-0.989,0.189,-0.014,-5.950,4.130,-2.380
9286266,-0.975,0.137,-0.014,-4.410,2.310,-2.030
9286285,-1.008,0.128,0.006,-1.890,2.170,-1.050
9286307,-0.975,0.119,0.019,3.990,3.850,-0.280
9286331,-0.980,0.131,0.042,10.920,9.380,-1.050
9286351,-0.983,0.160,-0.004,10.080,10.920,-1.610
9286371,-1.010,0.156,-0.050,10.640,9.800,-1.330
9286391,-1.016,0.147,-0.016,4.970,3.990,-2.940
9286411,-1.021,0.163,-0.054,0.280,-3.710,-2.800
9286430,-1.038,0.154,-0.024,-3.710,-3.710,-1.960
9286450,-1.022,0.131,-0.005,0.910,-9.940,-4.130
9286473,-0.979,0.146,-0.043,5.600,-17.430,-5.950
9286493,-0.936,0.138,-0.024,8.330,-2.800,-1.750
9286512,-0.993,0.157,-0.010,9.240,-3.780,-1.050
9286532,-0.983,0.214,0.001,-2.870,1.400,-0.840
9286551,-0.977,0.226,-0.005,-10.640,4.830,-0.910
9286576,-0.982,0.101,-0.019,-11.620,7.070,-2.870
9286596,-0.978,0.100,0.011,-0.070,10.920,-1.540
9286614,-0.978,0.147,0.055,5.390,11.550,-1.750
9286637,-0.958,0.132,-0.077,11.130,17.220,-1.680
9286658,-1.006,0.227,0.001,12.180,10.710,-3.150
9286682,-0.955,0.172,-0.042,-2.590,15.190,-4.200
9286706,-1.036,0.096,-0.066,-0.280,-14.070,-10.850
9286726,-1.007,0.161,-0.068,-1.680,-1.680,-7.980
9286742,-0.962,0.182,-0.018,-1.890,1.260,-7.840
9286766,-0.971,0.183,-0.026,-10.500,5.740,-12.390
9286786,-0.971,0.149,-0.068,-9.030,7.420,-13.510
9286806,-1.017,0.163,-0.086,-3.780,6.160,-15.540
9286826,-0.993,0.180,-0.090,-9.800,7.630,-14.700
9286843,-1.043,0.136,-0.062,-14.000,-1.120,-16.100
9286867,-1.002,0.116,-0.082,-14.490,-9.590,-16.590
9286886,-0.876,0.097,-0.050,-11.410,-6.370,-13.720
9286906,-0.974,0.069,-0.057,-9.030,-1.750,-10.220
9286930,-0.972,0.000,-0.046,-2.100,0.210,-5.040
9286950,-0.984,0.032,-0.066,-1.260,1.470,0.140
9286968,-0.931,0.309,0.109,-40.880,-0.770,-2.450
9286989,-1.139,-0.022,0.107,26.600,-4.760,27.650
9287010,-0.983,0.095,-0.036,-29.260,-0.070,7.700
9287029,-1.032,0.055,-0.097,16.660,-2.870,5.390
9287054,-0.938,0.152,-0.054,4.060,-5.460,1.610
9287072,-1.029,0.122,-0.069,2.310,-5.320,0.840
9287094,-1.015,0.096,-0.069,6.090,-6.300,2.800
9287117,-0.974,0.122,-0.060,4.760,-7.910,4.900
9287136,-0.996,0.110,-0.038,4.060,-5.950,6.440
9287161,-0.991,0.124,-0.044,10.290,-4.830,7.280
9287177,-1.000,0.126,-0.084,8.750,-5.390,6.720
9287197,-1.007,0.186,-0.063,6.160,-9.030,6.440
9287221,-1.008,0.197,-0.027,-6.300,-9.660,5.250
9287241,-0.993,0.125,-0.081,-4.760,-9.240,5.880
9287261,-1.010,0.136,-0.067,-1.190,-13.580,5.670
9287281,-0.998,0.169,-0.041,-3.640,-14.560,5.110
9287298,-1.000,0.165,-0.021,-7.980,-14.910,4.340
9287317,-0.987,0.102,-0.022,-6.580,-13.510,4.760
9287340,-0.989,0.116,-0.032,2.590,-12.740,5.530
9287357,-0.988,0.196,-0.007,1.120,-12.600,3.850
9287380,-0.967,0.196,-0.005,-9.870,-10.780,2.030
9287401,-0.977,0.144,-0.012,-7.000,-8.820,0.560
9287421,-1.025,0.163,0.007,-3.430,-7.490,-0.560
9287441,-1.000,0.183,-0.012,-3.710,-7.980,-1.330
9287460,-0.954,0.156,-0.008,-6.580,-7.280,-2.310
9287485,-1.014,0.147,-0.006,-3.360,-6.020,-2.170
9287505,-1.028,0.140,-0.020,-0.840,-7.840,-1.050
9287522,-0.984,0.145,-0.002,-2.940,-9.590,-0.070
9287542,-0.974,0.142,-0.031,-3.710,-8.540,1.190
9287562,-1.025,0.143,-0.001,-0.350,-10.850,1.890
9287582,-1.010,0.166,-0.013,1.540,-11.620,2.520
9287606,-0.963,0.170,0.002,-1.400,-12.740,2.240
9287624,-0.972,0.121,-0.030,-2.240,-11.340,3.500
9287648,-1.056,0.150,0.004,-0.420,-16.660,6.230
9287667,-0.987,0.201,0.009,-4.620,-19.180,6.440
9287686,-0.984,0.205,0.024,-6.860,-18.410,4.970
9287711,-1.000,0.165,0.032,-3.850,-18.270,2.380
9287731,-0.994,0.204,0.037,-4.970,-18.550,2.310
9287751,-0.972,0.219,0.059,-10.920,-16.660,1.190
9287770,-1.002,0.154,0.076,-9.310,-14.770,-0.980
9287791,-0.987,0.141,0.063,-3.080,-11.130,-0.840
9287815,-0.960,0.178,0.085,0.630,-8.750,-1.680
9287835,-0.966,0.137,0.085,4.900,-4.130,-2.520
9287853,-0.979,0.161,0.066,8.960,-2.520,-1.820
9287873,-0.982,0.223,0.070,2.170,-2.660,-0.770
9287897,-0.952,0.154,0.046,1.400,0.910,-1.260
9287915,-1.033,0.171,0.058,4.410,-2.310,-1.050
9287937,-1.036,0.214,0.007,-0.070,-7.140,-0.140
9287957,-1.032,0.219,0.013,-5.600,-15.680,-0.140
9287981,-0.969,0.187,0.068,-6.510,-15.540,0.140
9288000,-0.976,0.155,0.071,0.000,-14.700,-0.420
9288021,-0.987,0.199,0.096,-0.140,-11.480,-0.140
9288040,-0.949,0.170,0.126,-2.100,-7.910,-0.910
9288061,-0.940,0.146,0.123,-1.260,-0.840,-0.140
9288082,-0.997,0.176,0.113,-1.470,0.700,-0.070
9288102,-0.969,0.168,0.088,-1.330,3.360,-0.770
9288126,-0.976,0.163,0.056,6.090,5.180,-2.100
9288144,-1.023,0.201,0.057,7.840,2.590,-2.170
9288166,-0.983,0.203,0.055,0.560,0.630,-2.030
9288190,-0.996,0.187,0.055,-1.540,-1.120,-2.030
9288210,-1.007,0.180,0.047,-0.910,-4.410,-1.750
9288229,-0.992,0.188,0.069,-0.210,-5.530,-2.100
9288248,-0.985,0.185,0.069,-0.840,-3.710,-2.870
9288273,-0.986,0.183,0.064,0.560,-3.990,-3.080
9288293,-0.981,0.191,0.081,-0.980,-3.640,-2.870
9288313,-0.978,0.178,0.068,-3.780,-2.520,-2.380
9288333,-0.997,0.172,0.068,-3.780,-2.310,-2.030
9288353,-0.980,0.190,0.095,-4.410,-1.540,-1.960
9288371,-0.951,0.163,0.089,-0.770,0.910,-2.520
9288391,-0.991,0.162,0.111,3.220,4.900,-4.200
9288410,-0.999,0.151,0.066,8.120,6.860,-5.180
9288435,-0.999,0.172,0.052,11.060,5.250,-4.410
9288453,-0.995,0.199,0.064,6.720,5.250,-3.990
9288478,-0.977,0.180,0.043,3.430,4.900,-3.850
9288497,-0.991,0.160,0.032,5.250,5.180,-3.710
9288515,-1.019,0.159,0.050,6.790,3.710,-3.710
9288534,-0.996,0.132,0.037,9.520,2.450,-2.590
9288559,-0.979,0.166,0.044,11.130,2.520,0.280
9288577,-0.997,0.194,0.052,8.330,3.360,0.770
9288600,-0.987,0.184,0.066,5.810,4.690,-0.140
9288624,-0.966,0.151,0.059,10.010,7.560,-1.470
9288644,-0.982,0.174,0.050,13.440,11.900,-1.820
9288664,-0.997,0.180,0.026,11.130,11.410,-2.380
9288687,-0.960,0.198,0.027,7.840,15.120,-1.960
9288707,-0.999,0.152,0.021,5.880,15.750,-2.590
9288731,-1.004,0.146,-0.022,10.640,12.880,-1.190
9288751,-0.999,0.188,-0.065,7.000,6.720,0.070
9288774,-1.005,0.198,0.005,-0.700,2.240,0.280
9288795,-0.971,0.185,-0.001,-0.910,2.660,-0.210
9288818,-0.985,0.144,-0.013,5.180,7.630,-1.610
9288839,-1.024,0.194,0.018,13.160,7.560,-1.470
9288859,-0.976,0.190,-0.065,8.610,6.440,-0.280
9288878,-1.001,0.213,-0.097,5.670,4.340,0.700
9288898,-1.026,0.225,-0.000,-6.580,0.980,-2.310
9288916,-0.993,0.229,-0.029,-13.300,4.340,-1.960
9288940,-0.991,0.110,-0.060,-8.820,3.290,-3.360
9288960,-1.019,0.127,-0.013,3.920,-1.260,-2.800
9288977,-0.962,0.136,-0.041,8.190,0.840,-0.910
9288998,-0.981,0.146,0.004,20.370,3.150,-3.080
9289022,-0.991,0.271,-0.013,11.900,5.740,-5.950
9289041,-0.967,0.188,-0.070,0.630,8.890,-8.960
9289062,-0.980,0.188,0.005,2.170,7.490,-10.080
9289079,-0.974,0.143,-0.031,5.810,10.220,-11.760
9289103,-1.021,0.183,-0.060,16.520,8.890,-16.590
9289122,-0.992,0.255,-0.052,12.320,10.290,-19.880
9289146,-0.997,0.235,-0.075,1.050,9.940,-22.960
9289165,-1.026,0.119,-0.093,-6.160,6.160,-21.560
9289184,-1.021,0.053,-0.117,-3.430,-4.690,-19.390
9289204,-1.024,0.102,-0.098,-0.980,-3.990,-14.350
9289228,-0.997,0.151,-0.094,-3.360,-1.610,-12.950
9289247,-0.997,0.215,-0.073,-7.350,-0.770,-15.470
9289270,-0.990,0.193,-0.105,-13.790,-0.420,-16.590
9289287,-1.010,0.142,-0.067,-19.530,-6.930,-21.560
9289312,-0.854,0.247,-0.252,-20.090,17.360,1.540
9289330,-1.261,0.013,0.044,-7.630,-12.460,-12.320
9289352,-0.903,0.167,-0.102,-7.350,7.980,9.030
9289371,-1.024,0.083,-0.038,-21.000,-3.780,7.840
9289390,-0.927,-0.018,-0.094,-12.110,-5.880,-0.980
9289409,-1.015,0.075,-0.061,-0.280,-8.400,1.330
9289434,-0.986,0.073,-0.085,-3.570,-5.180,3.780
9289453,-1.022,0.047,-0.078,9.450,-8.190,4.270
9289477,-1.004,0.171,-0.051,7.350,-7.350,6.160
9289500,-0.991,0.122,-0.060,-1.960,-7.350,5.950
9289519,-0.983,0.068,-0.082,4.760,-11.620,4.480
9289540,-1.035,0.133,-0.062,3.010,-13.720,6.860
9289560,-1.010,0.149,-0.056,6.790,-12.110,6.230
9289584,-1.007,0.099,-0.072,2.310,-15.960,8.750
9289600,-1.013,0.138,-0.061,5.250,-16.940,8.820
9289623,-1.003,0.138,-0.048,-1.050,-18.760,9.590
9289644,-0.997,0.181,-0.036,-6.580,-20.230,9.170
9289664,-1.017,0.141,-0.013,-13.230,-19.950,8.050
9289683,-0.989,0.092,-0.022,-6.300,-19.950,7.980
9289702,-1.120,0.126,0.002,-0.980,-18.550,8.750
9289724,-0.989,0.174,-0.005,-1.960,-22.540,6.160
9289748,-0.977,0.200,0.010,-8.680,-19.880,5.320
9289765,-0.983,0.152,0.025,-10.080,-16.310,5.460
9289784,-0.976,0.120,-0.009,-7.420,-15.190,6.020
9289809,-0.995,0.155,0.008,-3.150,-15.470,7.070
9289829,-1.010,0.183,0.040,-6.580,-15.260,6.440
9289845,-0.977,0.162,0.055,-6.720,-12.460,5.880
9289864,-0.970,0.118,0.036,1.190,-10.990,3.850
9289889,-1.018,0.196,0.050,10.080,-9.940,3.010
9289908,-0.998,0.248,0.048,4.480,-10.920,0.910
9289932,-0.979,0.225,0.054,-7.350,-8.400,-1.470
9289948,-0.963,0.159,0.049,-5.740,-6.230,-2.450
9289970,-0.982,0.148,0.060,0.000,-4.060,-3.430
9289987,-0.976,0.142,0.079,5.110,-0.700,-4.480
9290012,-0.975,0.167,0.044,8.610,2.310,-4.900
9290032,-0.998,0.189,0.043,5.880,2.030,-5.040
9290052,-0.965,0.172,0.068,1.680,3.920,-5.390
9290073,-0.987,0.118,0.041,4.200,6.720,-6.090
9290095,-1.015,0.168,-0.015,6.510,5.530,-3.430
9290116,-1.036,0.205,0.019,-0.840,0.140,-2.590
9290136,-1.018,0.186,0.005,-7.560,-1.680,-2.800
9290156,-0.989,0.119,0.028,-0.140,-2.660,-3.150
9290172,-0.977,0.158,0.016,3.640,-0.910,-1.680
9290196,-1.006,0.169,0.006,0.210,-3.080,-0.700
9290215,-0.988,0.177,0.027,-6.510,-4.270,-0.560
9290234,-0.992,0.167,0.035,-8.960,-3.640,0.700
9290254,-0.991,0.133,0.035,-5.320,-3.080,0.560
9290274,-1.005,0.149,0.032,1.890,-1.680,0.840
9290299,-0.976,0.174,0.034,4.760,-0.770,-0.210
9290317,-0.982,0.175,0.016,0.490,0.280,-0.140
9290334,-1.028,0.160,0.024,-1.330,-1.050,0.910
9290355,-0.979,0.182,0.013,-4.970,-2.590,2.590
9290374,-0.996,0.177,0.021,-7.140,-3.290,2.240
9290394,-0.988,0.173,0.010,-3.360,-4.340,0.980
9290419,-1.020,0.172,0.012,2.520,-6.300,-0.140
9290439,-0.990,0.194,0.020,0.560,-7.140,-0.350
9290457,-0.988,0.180,0.041,-1.750,-6.790,-0.140
9290481,-0.976,0.159,0.028,-3.080,-4.480,0.700
9290501,-0.878,0.160,0.033,-1.610,-6.720,1.400
9290521,-0.966,0.171,0.060,-1.120,-3.990,1.960
9290541,-0.979,0.155,0.043,3.360,-1.330,0.630
9290565,-1.005,0.168,0.045,9.030,0.280,-0.420
9290581,-0.961,0.191,0.039,10.220,2.240,-0.490
9290600,-0.981,0.170,0.062,9.240,4.130,-1.610
9290625,-0.977,0.164,0.040,12.320,8.470,-1.470
9290643,-0.988,0.183,0.041,11.760,9.800,-1.400
9290665,-0.997,0.200,0.040,8.610,10.920,-2.100
9290685,-0.990,0.183,0.011,7.000,12.740,-2.520
9290709,-0.964,0.163,-0.006,7.140,12.740,-2.450
9290729,-1.011,0.173,0.005,10.780,15.050,-2.240
9290753,-1.001,0.214,0.003,9.520,11.760,-2.240
9290773,-0.949,0.174,-0.064,3.290,14.980,-1.820
9290793,-1.014,0.175,-0.018,1.680,10.010,-1.890
9290813,-0.952,0.205,-0.065,-6.300,11.620,0.350
9290832,-0.953,0.126,-0.007,-1.260,14.420,-0.350
9290852,-0.992,0.201,-0.023,1.120,15.260,-0.490
9290876,-1.053,0.116,0.010,4.480,12.530,-5.180
9290896,-1.109,0.125,-0.081,13.930,7.980,-8.050
9290916,-0.908,0.182,-0.097,20.160,-3.850,-7.350
9290936,-0.905,0.220,-0.067,6.160,5.460,-5.950
9290953,-1.027,0.225,-0.077,-2.450,1.260,-7.210
9290976,-1.005,0.175,-0.065,-7.210,4.270,-7.280
9290996,-0.976,0.134,-0.066,0.840,6.930,-6.020
9291017,-1.001,0.170,-0.038,4.060,7.350,-6.860
9291037,-0.986,0.150,-0.058,8.190,11.970,-6.930
9291057,-0.976,0.172,-0.108,6.720,9.800,-7.700
9291072,-0.997,0.187,-0.080,6.370,8.050,-7.910
9291097,-1.009,0.171,-0.133,4.970,4.620,-10.430
9291120,-1.018,0.190,-0.116,-0.910,0.980,-12.390
9291141,-0.990,0.244,-0.097,-12.040,0.490,-15.470
9291161,-0.998,0.190,-0.130,-16.310,-2.100,-16.100
9291181,-1.002,0.166,-0.138,-19.880,-5.600,-14.770
9291197,-1.004,0.111,-0.103,-17.500,-7.840,-15.120
9291220,-0.993,0.106,-0.063,-19.600,-15.260,-19.110
9291240,-1.216,0.097,-0.117,-28.980,-48.790,-22.820
9291257,-0.956,0.103,-0.095,-20.090,-22.890,-11.270
9291281,-0.987,0.089,-0.041,-3.780,-13.930,-4.130
9291300,-1.050,-0.027,0.039,-3.710,-7.350,-4.900
9291320,-0.915,0.121,-0.045,15.750,-18.410,-0.420
9291341,-0.948,0.095,-0.008,9.940,-9.730,-2.100
9291360,-0.982,0.187,-0.023,2.450,-7.980,-2.870
9291380,-0.982,0.106,-0.051,-2.800,-4.620,-3.850
9291404,-0.985,0.061,-0.031,6.090,-3.150,-1.400
9291424,-0.994,0.077,-0.034,8.470,-1.190,1.330
9291444,-0.992,0.103,-0.050,9.730,0.280,5.110
9291464,-0.990,0.080,-0.053,4.690,1.890,2.030
9291482,-1.233,0.104,-0.123,7.980,-12.670,2.310
9291506,-0.971,0.134,-0.063,2.240,-13.510,3.080
9291526,-0.989,0.119,-0.029,4.480,-11.060,4.200
9291544,-1.002,0.094,-0.025,5.600,-10.920,4.620
9291561,-0.990,0.093,-0.044,9.660,-11.690,5.740
9291586,-0.995,0.139,-0.034,8.750,-11.690,7.000
9291606,-1.013,0.193,-0.030,0.280,-10.920,7.140
9291626,-0.994,0.164,-0.030,-12.460,-9.940,6.230
9291646,-1.007,0.105,-0.022,-12.390,-11.620,6.090
9291666,-1.001,0.120,-0.016,-3.780,-11.130,6.790
9291687,-1.012,0.162,0.026,-0.070,-13.720,6.720
9291711,-0.959,0.167,0.004,-6.580,-15.820,5.320
9291728,-0.999,0.132,0.022,-8.330,-15.540,5.530
9291752,-0.984,0.123,0.025,-3.080,-11.900,6.300
9291771,-0.966,0.138,0.024,0.000,-8.750,5.670
9291790,-0.983,0.171,0.034,2.730,-6.370,5.180
9291812,-0.971,0.174,0.020,-2.520,-0.350,3.920
9291832,-0.992,0.141,0.015,3.360,1.750,4.620
9291852,-1.003,0.188,0.002,3.570,-8.960,3.290
9291869,-1.013,0.194,0.049,-0.560,-9.240,3.220
9291889,-0.979,0.195,-0.004,-7.070,-13.370,1.400
9291908,-1.005,0.188,0.031,-9.030,-10.920,1.190
9291933,-0.982,0.176,0.030,-8.330,-8.330,0.000
9291953,-0.977,0.144,0.010,-1.330,-7.420,-0.700
9291973,-0.988,0.176,0.046,-0.210,-6.370,-0.490
9291992,-0.973,0.182,0.062,-2.520,0.140,-0.210
9292016,-0.965,0.166,0.036,-0.980,4.760,0.700
9292036,-0.999,0.205,0.040,-1.750,3.570,-0.210
9292058,-0.980,0.164,0.010,-4.480,0.420,-1.400
9292077,-1.002,0.121,0.031,-0.140,1.680,-2.030
9292102,-1.023,0.159,0.008,7.350,-4.830,-3.080
9292121,-0.983,0.202,0.028,3.850,-5.180,-3.850
9292138,-1.000,0.183,0.041,1.400,-4.060,-4.760
9292162,-1.011,0.170,-0.012,3.570,-5.810,-5.110
9292182,-1.026,0.188,0.052,-0.490,-13.580,-8.540
9292202,-0.961,0.149,0.015,-2.380,-11.760,-8.260
9292222,-1.007,0.166,0.043,-1.050,-11.830,-6.370
9292242,-0.961,0.151,0.042,-0.490,-7.560,-5.460
9292257,-0.987,0.163,0.023,0.560,-7.280,-5.320
9292278,-0.984,0.138,0.061,0.980,-7.000,-6.230
9292302,-1.003,0.152,0.045,1.750,-10.990,-7.000
9292322,-0.982,0.133,0.055,3.360,-7.070,-5.670
9292342,-0.980,0.179,0.056,0.490,-4.270,-4.270
9292362,-0.986,0.172,0.039,-5.040,-3.010,-5.320
9292381,-0.982,0.138,0.073,-2.310,-1.610,-6.160
9292405,-0.965,0.115,0.055,6.440,2.660,-5.320
9292422,-0.974,0.133,0.042,13.020,5.530,-5.390
9292442,-1.046,0.176,0.034,7.770,6.300,-3.500
9292465,-0.990,0.187,0.023,-4.060,2.030,-1.820
9292486,-0.996,0.169,0.087,-16.590,-2.240,-3.710
9292502,-1.048,0.081,-0.006,-12.110,-17.360,-8.400
9292525,-0.975,0.074,0.025,5.180,-7.560,-3.290
9292541,-0.960,0.132,0.033,14.350,-5.110,-1.190
9292561,-0.998,0.183,0.046,9.590,-4.410,-1.400
9292586,-0.988,0.171,0.057,1.470,-1.400,-1.470
9292605,-0.968,0.144,0.046,1.050,2.870,-1.190
9292622,-0.999,0.131,0.030,1.820,3.920,-0.070
9292646,-0.976,0.150,0.031,1.680,4.200,1.610
9292665,-1.018,0.146,0.065,-3.010,5.180,0.630
9292689,-0.975,0.086,0.035,4.410,5.740,-0.630
9292709,-0.998,0.111,0.016,14.700,4.900,-0.420
9292729,-1.033,0.190,0.023,10.850,5.670,-0.420
9292753,-1.003,0.164,-0.004,0.910,1.820,-0.420
9292773,-0.987,0.128,0.029,0.000,-0.490,-0.560
9292793,-1.004,0.149,0.020,0.560,1.960,0.140
9292813,-0.988,0.135,0.064,5.810,1.540,-2.170
9292833,-0.930,0.140,-0.019,12.460,5.810,-2.170
9292853,-1.019,0.143,0.061,16.870,9.100,-3.710
9292873,-1.039,0.132,-0.112,8.050,7.910,-6.020
9292892,-0.975,0.138,0.000,11.130,4.200,-4.550
9292915,-0.930,0.182,0.041,9.100,10.430,-2.730
9292935,-0.984,0.182,-0.011,0.000,14.630,-4.270
9292954,-0.996,0.109,0.022,4.200,18.410,-6.090
9292979,-1.062,0.053,-0.066,22.330,7.210,-7.000
9292999,-0.905,0.226,-0.087,23.380,5.530,-7.140
9293019,-1.017,0.240,-0.047,-2.660,3.640,-7.000
9293037,-1.031,0.161,-0.049,-19.040,3.360,-6.370
9293057,-1.011,0.055,-0.035,-11.970,4.410,-5.600
9293077,-1.056,0.060,-0.063,3.640,-1.820,-5.390
9293101,-1.003,0.148,-0.035,-0.140,-5.040,-5.460
9293119,-0.965,0.153,-0.088,-1.610,-2.170,-3.710
9293139,-0.984,0.110,0.004,-7.210,-0.350,-5.950
9293161,-0.979,0.122,0.011,3.570,7.630,-7.980
9293181,-1.001,0.140,0.015,14.770,11.340,-9.100
9293205,-0.958,0.049,-0.063,15.330,14.910,-8.400
9293225,-0.977,0.087,-0.053,20.580,14.350,-7.070
9293244,-0.981,0.172,-0.028,10.430,15.820,-7.070
9293262,-0.996,0.151,-0.062,9.240,18.690,-8.750
9293282,-1.021,0.164,-0.096,6.440,17.150,-11.970
9293302,-1.000,0.126,-0.117,-0.560,14.770,-14.280
9293322,-1.049,0.112,-0.108,-0.560,7.070,-14.770
9293346,-1.020,0.122,-0.154,-2.800,4.200,-14.350
9293364,-1.037,0.117,-0.183,-7.840,-3.150,-12.320
9293385,-1.010,0.091,-0.115,-28.490,-8.610,-13.580
9293409,-1.044,0.203,-0.064,-3.080,-4.060,-5.390
9293428,-1.006,-0.033,-0.057,-18.550,-6.510,-4.340
9293447,-0.958,0.036,-0.064,1.190,0.840,1.960
9293471,-0.995,0.026,-0.081,5.320,-0.490,9.170
9293491,-1.019,0.114,-0.044,-1.820,1.610,13.090
9293511,-0.987,0.068,-0.125,0.210,2.100,12.110
9293530,-1.005,0.114,-0.112,5.460,-3.430,9.100
9293555,-0.954,0.093,-0.116,1.120,-4.830,7.140
9293574,-1.026,0.101,-0.109,6.580,-9.240,5.670
9293593,-1.003,0.141,-0.116,3.430,-8.960,3.640
9293614,-1.009,0.171,-0.091,-11.200,-12.040,6.650
9293638,-1.000,0.076,-0.091,-9.660,-11.970,7.700
9293657,-1.011,0.056,-0.099,0.910,-13.650,9.450
9293677,-1.001,0.105,-0.083,3.570,-14.700,11.410
9293700,-0.998,0.092,-0.078,2.520,-17.430,11.410
9293720,-0.997,0.152,-0.063,3.220,-17.570,11.060
9293739,-0.999,0.210,-0.065,-0.140,-18.690,7.350
9293758,-1.008,0.197,-0.063,-7.000,-19.390,5.110
9293783,-0.981,0.157,-0.046,-12.110,-20.370,3.780
9293803,-0.996,0.131,-0.042,-8.610,-18.970,4.410
9293822,-1.003,0.150,-0.020,-10.290,-20.930,4.270
9293843,-0.964,0.177,-0.029,-12.740,-18.410,3.710
9293863,-1.006,0.187,-0.004,-19.950,-18.130,2.800
9293883,-0.989,0.149,-0.023,-21.840,-17.990,2.170
9293906,-0.978,0.140,0.031,-15.330,-15.960,0.560
9293927,-0.954,0.125,-0.005,-7.280,-13.090,-0.140
9293947,-0.993,0.142,0.002,0.140,-10.710,-0.630
9293967,-1.001,0.194,0.012,-3.080,-10.220,-1.050
9293991,-1.014,0.191,0.025,-10.430,-12.110,-2.520
9294011,-0.960,0.131,0.036,-10.780,-8.330,-2.660
9294026,-0.980,0.091,-0.009,-2.590,-6.720,-2.520
9294046,-1.041,0.131,0.005,5.810,-9.800,-1.750
9294071,-0.967,0.154,0.021,7.070,-11.270,-3.080
9294091,-0.983,0.197,0.038,6.510,-7.770,-4.200
9294111,-1.009,0.180,0.005,0.560,-7.980,-6.090
9294130,-1.014,0.137,0.019,3.220,-9.870,-6.720
9294146,-0.969,0.178,0.033,2.730,-9.660,-6.720
9294171,-0.998,0.178,0.051,-1.750,-7.070,-9.380
9294191,-0.987,0.126,0.040,1.260,-5.390,-11.130
9294208,-1.005,0.103,0.035,7.490,-3.990,-10.990
9294228,-0.973,0.165,0.047,9.590,-4.270,-11.270
9294252,-0.972,0.151,0.077,4.480,-0.420,-13.860
9294271,-0.975,0.107,0.024,6.160,3.920,-13.440
9294291,-1.046,0.084,0.038,13.440,2.310,-12.110
9294315,-0.959,0.152,0.041,8.820,6.160,-8.750
9294334,-1.024,0.141,0.055,0.700,4.340,-8.750
9294354,-0.973,0.101,0.002,17.710,6.580,-8.260
9294374,-1.028,0.078,0.008,5.250,5.460,-7.980
9294398,-1.000,0.068,0.012,12.530,4.200,-7.280
9294417,-0.993,0.099,-0.005,17.570,6.370,-5.740
9294437,-1.006,0.137,-0.004,14.350,3.150,-5.250
9294462,-1.006,0.112,-0.019,9.380,4.060,-4.620
9294481,-1.020,0.124,-0.016,9.660,2.100,-4.060
9294505,-1.013,0.128,-0.022,4.900,0.350,-2.940
9294520,-1.003,0.113,-0.013,-0.350,-0.700,-2.450
9294540,-1.008,0.090,-0.009,-0.980,-2.240,-1.820
9294565,-1.024,0.089,-0.019,3.220,-2.590,-1.470
9294585,-1.018,0.128,0.001,0.070,-5.040,-1.330
9294605,-0.976,0.104,0.017,-1.890,-3.710,-1.750
9294624,-0.986,0.091,-0.005,0.210,-1.050,-1.400
9294648,-1.003,0.111,0.010,0.630,-1.470,-1.610
9294669,-0.986,0.102,0.007,1.120,1.050,-2.170
9294688,-0.980,0.101,0.007,2.800,2.730,-3.080
9294712,-0.994,0.102,-0.023,7.490,3.150,-3.430
9294732,-1.010,0.113,-0.020,6.790,1.820,-4.200
9294752,-1.008,0.104,-0.020,6.230,0.420,-4.620
9294776,-1.015,0.116,-0.032,6.020,-0.420,-4.410
9294796,-1.012,0.126,-0.028,1.610,-2.870,-5.320
9294816,-0.981,0.122,-0.035,1.680,-3.360,-4.900
9294833,-0.999,0.109,-0.023,0.630,-3.920,-5.880
9294853,-1.015,0.102,-0.023,-0.210,-5.320,-6.370
9294877,-1.012,0.105,-0.024,0.420,-7.490,-6.860
9294897,-0.999,0.100,-0.019,0.210,-7.070,-7.770
9294917,-1.004,0.097,-0.012,-0.420,-8.050,-8.400
9294936,-0.999,0.080,0.006,1.750,-7.700,-9.520
9294961,-1.013,0.085,-0.006,4.620,-6.650,-10.010
9294979,-1.014,0.086,-0.006,4.200,-7.490,-10.430
9294999,-0.994,0.069,-0.006,4.130,-7.700,-11.060
9295022,-1.014,0.059,-0.004,5.390,-8.330,-11.830
9295041,-0.998,0.046,-0.003,8.260,-8.750,-12.670
9295064,-0.988,0.037,-0.007,18.340,-8.610,-13.160
9295084,-1.016,0.110,0.001,23.310,-8.330,-12.530
9295108,-1.026,0.115,0.011,14.000,-9.380,-13.930
9295127,-0.985,0.068,0.009,11.620,-9.240,-13.790
9295148,-0.995,0.057,0.005,10.850,-7.700,-14.210
9295168,-1.033,0.031,0.015,12.810,-8.960,-14.210
9295186,-0.999,0.025,0.019,14.210,-8.820,-13.510
9295205,-0.995,0.034,0.030,15.470,-8.400,-13.090
9295229,-1.016,0.034,0.011,13.510,-8.190,-13.650
9295245,-1.030,0.061,0.007,10.360,-9.730,-13.370
9295265,-1.006,0.047,0.029,3.570,-10.220,-12.530
9295290,-0.981,-0.011,0.045,3.430,-8.190,-12.530
9295310,-0.972,-0.035,0.033,12.180,-6.440,-13.160
9295325,-1.015,-0.013,0.035,19.880,-5.460,-13.790
9295350,-1.026,0.034,0.012,23.870,-5.390,-13.300
9295370,-1.023,0.055,0.035,18.200,-9.170,-12.950
9295385,-0.996,0.007,0.045,6.650,-7.280,-12.320
9295405,-0.989,-0.056,0.030,6.160,-6.300,-10.080
9295430,-1.011,-0.039,0.043,16.030,-7.000,-8.050
9295449,-1.019,0.037,0.029,10.850,-5.390,-6.860
9295469,-1.031,0.004,0.035,6.510,-7.560,-7.140
9295489,-0.989,-0.024,0.046,6.020,-6.720,-5.740
9295513,-1.006,0.019,0.056,3.080,-4.970,-3.220
9295537,-1.000,0.010,0.054,-4.620,-3.920,-2.940
9295557,-1.014,-0.042,0.040,-4.830,-3.430,-2.030
9295576,-1.004,-0.039,0.041,17.710,-3.640,-0.630
9295595,-0.997,-0.005,0.048,0.560,-2.450,0.700
9295615,-1.007,-0.004,0.045,-2.380,-1.960,1.330
9295635,-1.015,-0.013,0.045,-1.610,-1.540,2.240
9295659,-0.995,0.119,0.055,-1.400,-0.490,3.290
9295674,-1.000,-0.007,0.046,-3.220,0.630,3.920
9295698,-1.020,0.008,0.029,-3.710,0.210,5.740
9295717,-1.016,0.001,0.042,-8.120,-0.840,6.090
9295735,-0.983,0.002,0.040,-7.350,0.700,6.650
9295755,-1.002,-0.014,0.038,-5.740,1.470,6.790
9295779,-1.036,-0.016,0.036,-1.400,-3.920,6.300
9295795,-0.984,0.030,0.038,-0.420,-0.840,7.630
9295819,-1.017,0.013,0.035,-5.110,0.980,8.750
9295839,-1.003,-0.027,0.037,-2.100,1.890,11.690
9295859,-0.999,0.016,0.041,-3.430,3.360,14.770
9295875,-1.013,0.002,0.039,-6.580,4.270,17.010
9295898,-1.016,0.008,0.032,-5.950,4.410,20.090
9295919,-1.001,0.033,0.031,-7.210,4.620,21.770
9295939,-1.000,0.071,0.019,-12.530,6.160,23.240
9295959,-1.024,0.082,0.031,-17.710,4.060,23.590
9295979,-0.990,0.092,0.029,-22.120,5.530,23.520
9296003,-1.005,0.065,0.006,-18.480,6.300,22.120
9296020,-1.011,0.059,0.009,-13.440,5.320,21.630
9296040,-1.004,0.068,0.013,-6.930,5.670,21.980
9296064,-1.002,0.113,0.019,-7.070,7.210,21.910
9296084,-1.002,0.135,0.017,-11.480,8.610,21.140
9296099,-1.002,0.132,0.013,-13.160,9.590,20.580
9296121,-0.973,0.122,0.007,-12.040,11.550,19.320
9296145,-0.981,0.105,0.003,-4.830,13.860,17.080
9296165,-0.975,0.124,0.000,3.010,16.450,15.820
9296184,-1.002,0.128,-0.008,8.050,18.200,14.070
9296209,-1.012,0.163,-0.028,11.060,18.830,12.600
9296229,-0.986,0.192,-0.029,9.800,19.180,11.410
9296250,-1.030,0.197,-0.057,5.040,19.740,9.940
9296264,-1.015,0.181,-0.068,4.550,17.500,8.960
9296289,-0.992,0.174,-0.047,6.020,18.340,8.470
9296309,-1.039,0.163,-0.105,11.200,15.540,7.980
9296328,-1.036,0.224,-0.101,9.660,12.040,8.120
9296348,-1.008,0.216,-0.086,4.900,8.400,8.190
9296372,-0.954,0.175,-0.122,7.490,7.910,7.140
9296392,-0.969,0.178,-0.116,8.820,6.300,6.650
9296412,-0.976,0.191,-0.107,5.950,3.710,5.880
9296429,-0.981,0.185,-0.108,3.990,3.430,5.810
9296449,-1.002,0.228,-0.104,1.890,-0.490,4.760
9296469,-0.980,0.256,-0.140,-6.440,-0.980,5.110
9296490,-0.981,0.206,-0.125,-9.660,-4.060,4.060
9296514,-0.971,0.175,-0.111,-6.090,-4.900,3.500
9296530,-0.965,0.158,-0.103,-0.490,-4.200,3.360
9296554,-0.956,0.169,-0.102,5.950,-4.130,3.150
9296572,-0.970,0.199,-0.102,3.430,-4.760,2.240
9296593,-0.952,0.235,-0.078,-3.780,-4.690,2.100
9296614,-0.969,0.218,-0.113,-9.870,-5.390,1.260
9296634,-0.961,0.195,-0.107,-10.360,-6.790,0.140
9296654,-0.974,0.200,-0.095,-6.860,-6.370,-0.840
9296674,-0.998,0.228,-0.102,-4.620,-7.000,-1.330
9296692,-1.001,0.230,-0.092,-6.300,-8.400,-2.030
9296713,-0.972,0.225,-0.071,-7.070,-8.750,-3.080
9296736,-0.988,0.226,-0.084,-7.210,-8.190,-4.690
9296756,-0.961,0.233,-0.093,-8.120,-8.050,-5.460
9296774,-0.957,0.226,-0.082,-3.290,-6.790,-5.600
9296793,-0.991,0.245,-0.077,-8.540,-6.650,-6.580
9296817,-1.001,0.211,-0.067,-15.820,-7.560,-7.420
9296838,-0.961,0.144,-0.068,-9.310,-6.370,-6.930
9296853,-0.980,0.149,-0.068,-1.050,-5.530,-6.650
9296873,-0.994,0.176,-0.062,1.470,-5.670,-6.720
9296898,-0.987,0.199,-0.054,-1.400,-6.300,-7.070
9296917,-0.968,0.204,-0.073,-3.290,-6.720,-7.280
9296937,-0.962,0.193,-0.077,-3.290,-5.390,-7.910
9296957,-0.990,0.182,-0.072,-0.630,-6.440,-8.820
9296980,-0.988,0.210,-0.059,1.120,-6.720,-8.330
9297000,-1.005,0.203,-0.054,-1.260,-6.720,-8.330
9297024,-0.978,0.191,-0.063,-4.200,-7.420,-8.330
9297044,-0.975,0.163,-0.057,-3.780,-6.510,-7.910
9297064,-1.004,0.150,-0.046,-1.190,-6.440,-7.910
9297084,-0.998,0.175,-0.046,0.280,-7.070,-7.910
9297105,-0.990,0.196,-0.047,-0.840,-6.580,-7.770
9297124,-0.972,0.196,-0.052,-2.940,-6.580,-8.190
9297149,-0.981,0.168,-0.049,-2.310,-5.880,-8.820
9297168,-0.992,0.158,-0.055,-0.560,-6.300,-8.960
9297188,-0.994,0.148,-0.048,2.240,-6.720,-9.310
9297208,-1.002,0.155,-0.047,6.580,-6.930,-9.240
9297232,-0.994,0.171,-0.045,6.020,-7.000,-9.240
9297252,-0.992,0.176,-0.041,2.450,-7.350,-9.240
9297272,-0.996,0.150,-0.038,1.260,-7.280,-9.030
9297292,-1.000,0.141,-0.046,1.540,-6.930,-8.750
9297312,-1.003,0.144,-0.044,3.150,-8.400,-8.820
9297332,-0.971,0.155,-0.038,2.520,-7.420,-8.750
9297356,-0.978,0.135,-0.028,2.800,-6.440,-9.100
9297374,-1.001,0.132,-0.033,3.150,-6.720,-9.310
9297398,-1.012,0.161,-0.037,4.480,-8.050,-8.750
9297417,-0.992,0.192,-0.053,0.770,-7.910,-8.820
9297437,-1.014,0.144,-0.034,-4.690,-10.080,-9.940
9297461,-1.007,0.108,-0.023,-1.190,-10.010,-10.920
9297476,-1.011,0.110,-0.006,4.060,-9.170,-11.270
9297501,-0.991,0.120,-0.016,6.160,-8.120,-11.410
9297521,-0.992,0.124,-0.008,5.740,-7.840,-11.690
9297543,-1.017,0.150,-0.006,2.870,-5.880,-12.460
9297566,-1.016,0.146,-0.015,-2.030,-6.790,-12.950
9297584,-0.994,0.086,-0.010,0.420,-6.580,-13.930
9297607,-0.984,0.074,-0.015,7.000,-5.180,-13.580
9297626,-0.995,0.090,-0.015,9.310,-4.270,-13.370
9297646,-1.000,0.108,-0.012,8.050,-5.110,-13.090
9297666,-0.997,0.092,-0.015,5.530,-4.690,-13.160
9297690,-0.994,0.095,-0.020,6.370,-5.040,-12.950
9297710,-1.005,0.092,-0.015,3.780,-4.970,-13.160
9297733,-1.017,0.077,-0.010,0.560,-6.020,-13.300
9297754,-1.017,0.072,-0.008,0.350,-7.280,-13.160
9297778,-0.998,0.057,-0.010,2.520,-6.860,-13.650
9297797,-1.006,0.059,-0.008,5.390,-6.650,-13.580
9297818,-1.012,0.064,-0.004,5.110,-7.210,-14.000
9297838,-1.011,0.067,-0.006,3.430,-7.840,-13.860
9297858,-0.999,0.067,-0.008,1.680,-8.260,-13.930
9297879,-1.003,0.037,-0.003,2.170,-8.610,-14.980
9297900,-0.993,0.045,-0.000,3.500,-8.540,-15.190
9297921,-1.030,0.015,0.031,2.170,-7.770,-15.540
9297940,-1.003,-0.008,0.028,4.970,-6.440,-14.630
9297961,-0.976,0.009,0.002,16.800,-6.650,-14.000
9297985,-1.040,0.057,0.017,12.880,-4.620,-15.400
9298007,-1.024,0.020,0.009,10.780,-5.600,-15.330
9298031,-0.975,-0.003,0.014,13.930,-5.740,-15.120
9298048,-0.970,0.005,0.012,13.510,-5.180,-15.260
9298072,-1.020,-0.047,0.020,22.400,-3.430,-16.450
9298092,-1.042,-0.040,0.071,25.480,-5.320,-14.210
9298109,-1.002,-0.102,0.027,30.380,-8.190,-13.580
9298130,-0.982,0.012,0.003,21.910,-3.780,-11.340
9298149,-0.996,0.054,0.001,18.620,-4.690,-10.150
9298174,-1.061,0.035,0.018,11.060,-5.040,-10.080
9298194,-1.015,-0.027,0.015,9.800,-6.370,-7.840
9298212,-0.992,-0.044,0.031,11.200,-6.230,-4.760
9298235,-1.001,-0.015,0.031,2.520,-3.570,-1.050
9298255,-1.012,-0.007,0.028,-2.380,-3.360,0.350
9298279,-1.019,-0.029,0.029,-1.960,-3.080,0.140
9298299,-1.009,-0.013,0.004,-0.280,-3.080,0.630
9298318,-0.988,0.011,0.025,-3.920,-3.640,0.350
9298335,-0.991,-0.052,0.022,-3.500,-3.360,-0.700
9298355,-1.000,-0.067,0.033,2.870,-2.240,1.120
9298376,-0.997,-0.039,0.035,6.790,-0.630,3.290
9298396,-1.012,-0.004,0.012,4.060,-0.770,4.620
9298419,-1.024,0.008,0.003,-1.540,-3.360,5.810
9298440,-1.005,0.036,0.004,-6.160,-4.200,6.860
9298457,-1.019,0.014,0.039,-12.040,-3.570,7.000
9298476,-1.013,-0.112,0.015,-1.120,-6.720,7.140
9298500,-1.007,-0.041,0.019,7.980,-4.970,11.620
9298519,-0.996,0.037,0.025,0.910,-6.650,13.090
9298541,-1.016,-0.003,0.022,-0.210,-7.210,13.090
9298564,-1.037,0.011,0.020,0.280,-9.660,15.540
9298588,-1.000,0.030,0.035,-2.520,-10.290,17.780
9298604,-1.008,0.004,0.052,-4.060,-8.820,18.900
9298623,-1.004,-0.003,0.045,-1.120,-7.490,22.050
9298648,-1.029,0.016,0.074,1.750,-5.320,25.200
9298667,-0.876,0.044,0.079,2.030,-1.960,25.970
9298688,-0.986,0.100,0.065,1.540,3.220,24.990
9298708,-1.029,0.110,0.064,-0.280,4.760,21.840
9298729,-0.987,0.040,0.039,10.150,5.530,18.270
9298749,-0.981,0.049,0.037,24.920,8.750,15.890
9298773,-1.010,0.126,0.040,24.990,10.430,15.890
9298793,-1.060,0.109,0.039,15.610,9.100,13.860
9298813,-1.053,0.115,0.026,12.250,9.310,13.930
9298833,-1.044,0.126,0.021,11.130,8.610,13.160
9298848,-1.093,0.111,0.040,19.040,9.380,14.140
9298873,-1.319,0.266,-0.046,6.020,-26.600,4.060
9298892,-0.959,0.133,-0.118,4.130,-9.240,3.780
9298908,-0.912,0.051,-0.116,0.910,1.260,1.750
9298933,-0.984,-0.078,-0.172,7.700,9.030,-10.430
9298949,-0.918,-0.096,-0.286,6.160,19.530,-15.820
9298968,-0.929,-0.023,-0.467,-7.630,34.090,-17.220
9298988,-1.040,0.035,-0.318,-13.930,41.510,-16.940
9299011,-1.021,-0.016,-0.240,-23.660,44.520,-24.710
9299031,-1.004,-0.106,-0.305,-32.900,51.170,-32.900
9299055,-0.991,-0.042,-0.200,-28.210,47.670,-37.030
9299075,-0.943,0.012,-0.228,-33.320,54.180,-35.070
9299092,-1.104,-0.098,-0.300,-34.720,52.430,-37.170
9299112,-1.017,-0.123,-0.260,-9.590,54.180,-39.060
9299132,-1.005,0.040,-0.322,2.100,57.820,-36.190
9299157,-0.995,0.070,-0.373,-4.270,56.840,-37.170
9299174,-0.977,0.079,-0.348,-10.850,53.410,-38.500
9299195,-0.960,0.095,-0.297,-17.640,50.680,-38.430
9299215,-0.945,0.119,-0.254,-21.210,48.090,-35.420
9299236,-0.888,0.165,-0.216,-32.340,48.510,-30.240
9299255,-0.945,0.186,-0.209,-42.140,42.420,-25.060
9299275,-0.980,0.106,-0.166,-51.170,30.800,-22.890
9299297,-0.909,0.128,0.015,-51.870,24.500,-18.620
9299321,-0.895,0.192,0.052,-64.750,12.880,-14.280
9299337,-0.933,0.203,0.071,-77.700,-0.140,-10.220
9299361,-0.949,0.185,0.128,-83.090,-19.530,-7.210
9299380,-0.965,0.099,0.224,-82.600,-37.590,-1.190
9299404,-0.930,-0.127,0.207,-37.730,-55.090,-6.300
9299423,-0.794,-0.391,-0.891,16.030,-10.290,-12.390
9299442,-1.500,-0.046,-0.208,10.010,-38.430,-20.370
9299466,-0.934,0.130,0.031,-8.120,-54.810,-13.510
9299486,-0.775,0.049,-0.136,-52.850,-18.340,-17.220
9299506,-1.185,-0.193,-0.077,-40.320,-32.620,-14.000
9299530,-1.082,-0.102,-0.092,-12.670,-21.070,-14.700
9299550,-1.067,-0.105,-0.108,11.900,-21.070,-11.830
9299570,-0.991,0.019,-0.234,24.640,-11.970,-12.460
9299588,-0.973,0.054,-0.208,28.770,-15.890,-14.210
9299609,-0.973,0.040,-0.178,20.510,-16.870,-17.920
9299633,-0.949,-0.020,-0.198,16.100,-15.260,-17.850
9299653,-1.039,-0.031,-0.086,13.440,-16.310,-17.430
9299672,-1.107,-0.005,-0.084,0.910,-7.420,-19.040
9299692,-1.058,0.122,-0.090,-18.690,-1.680,-17.150
9299716,-1.818,0.154,-0.113,-18.410,-85.820,-34.580
9299740,-0.844,-0.063,-0.053,-34.160,11.830,-24.570
9299760,-0.977,-0.235,-0.102,-10.500,16.800,-14.420
9299784,-0.920,-0.125,-0.145,-12.810,18.550,-7.770
9299804,-0.890,-0.128,-0.229,-30.170,23.030,-2.240
9299824,-0.884,-0.264,-0.219,-26.040,21.560,-0.980
9299848,-0.930,-0.199,-0.216,-9.520,18.900,2.870
9299868,-0.932,-0.179,-0.244,-2.730,21.630,4.970
9299892,-0.932,-0.069,-0.243,15.680,22.190,7.000
9299912,-0.933,-0.015,-0.234,7.280,22.960,1.190
9299931,-0.953,0.020,-0.207,0.980,24.500,0.000
9299955,-0.949,-0.025,-0.224,3.430,31.780,1.190
9299975,-0.969,-0.132,-0.260,16.310,34.090,-1.120
9299993,-1.095,-0.029,-0.266,14.280,8.330,-2.870
9300015,-0.882,-0.037,-0.195,-4.550,21.560,-4.550
9300034,-0.890,0.016,-0.284,-8.330,35.420,-1.540
9300059,-0.954,-0.151,-0.321,2.450,36.750,-2.170
9300075,-0.907,-0.130,-0.302,7.700,38.710,1.190
9300095,-0.959,-0.067,-0.257,6.090,42.980,0.910
9300114,-0.975,-0.053,-0.326,12.250,46.830,4.760
9300134,-0.881,-0.171,-0.320,6.510,45.850,4.620
9300159,-0.983,-0.095,-0.416,2.800,30.170,2.100
9300177,-0.883,-0.038,-0.387,-1.680,34.650,1.190
9300198,-0.874,0.013,-0.390,-6.860,39.130,1.190
9300220,-0.946,-0.127,-0.376,-5.460,40.600,-1.260
9300240,-0.757,-0.139,-0.445,1.120,9.030,-0.280
9300259,-0.618,-0.070,-0.502,-1.400,25.200,12.810
9300282,-0.736,0.105,-0.469,-21.140,50.120,13.580
9300302,-0.959,0.118,-0.413,-20.510,38.640,14.980
9300326,-0.899,0.012,-0.458,-27.510,43.470,14.280
9300341,-1.195,-0.165,-0.417,-23.030,48.510,19.530
9300365,-1.303,-0.160,-0.364,-1.540,41.930,22.050
