Millis,AccelX,AccelY,AccelZ,GyroX,GyroY,GyroZ
157759856,-0.996,0.007,0.081,-1.820,-5.180,0.420
157759874,-0.987,-0.001,0.078,-0.700,-4.340,1.050
157759895,-0.992,0.000,0.077,0.490,-2.800,1.820
157759915,-1.002,0.004,0.082,0.840,-2.380,2.030
157759937,-1.000,0.004,0.083,0.350,-2.240,2.240
157759959,-0.994,0.001,0.084,-0.280,-2.170,2.380
157759978,-0.992,-0.003,0.086,-0.210,-1.820,2.240
157759997,-0.991,-0.007,0.084,0.070,-1.400,2.380
157760021,-0.991,-0.012,0.093,0.630,-1.260,2.310
157760037,-1.000,-0.014,0.090,1.050,-1.050,2.380
157760062,-1.009,-0.009,0.090,1.190,-1.400,2.170
157760079,-1.006,-0.014,0.091,1.260,-1.330,1.750
157760103,-1.004,-0.012,0.099,1.960,-1.400,1.470
157760123,-0.994,-0.010,0.099,1.960,-1.400,1.120
157760140,-0.993,-0.014,0.097,2.100,-1.260,0.910
157760163,-0.996,-0.006,0.101,1.890,-1.260,0.350
157760187,-1.005,-0.007,0.098,0.700,-1.680,-0.840
157760207,-1.015,-0.008,0.095,0.560,-2.240,-1.330
157760231,-1.007,-0.007,0.091,0.910,-2.660,-2.030
157760249,-1.008,-0.008,0.092,1.890,-2.310,-1.680
157760269,-1.003,-0.006,0.098,2.940,-2.520,-0.980
157760293,-0.999,-0.002,0.092,3.010,-1.960,-0.210
157760313,-1.003,-0.003,0.091,3.220,-2.170,-0.210
157760333,-1.005,-0.001,0.095,2.940,-2.660,-0.840
157760350,-1.002,-0.004,0.091,2.730,-2.800,-1.470
157760374,-0.997,-0.003,0.092,3.220,-2.940,-1.540
157760394,-0.997,-0.002,0.089,3.640,-2.660,-1.540
157760414,-0.996,-0.005,0.087,4.130,-2.310,-1.260
157760434,-1.000,-0.002,0.086,4.760,-2.030,-0.980
157760450,-1.000,0.000,0.087,4.760,-2.030,-1.260
157760473,-0.996,0.000,0.086,4.340,-2.170,-1.540
157760493,-0.993,-0.005,0.085,4.550,-2.030,-1.750
157760517,-0.994,-0.008,0.081,5.740,-1.540,-1.470
157760537,-0.996,-0.009,0.081,7.210,-0.980,-1.330
157760557,-1.007,0.005,0.090,7.070,-1.330,-1.050
157760577,-1.000,0.003,0.088,6.160,-1.540,-0.630
157760598,-0.997,-0.001,0.087,6.790,-0.700,0.140
157760617,-1.001,0.004,0.091,7.140,-0.490,0.420
157760642,-1.006,0.005,0.093,6.160,-0.490,0.000
157760662,-1.004,0.002,0.088,5.250,-1.050,-0.420
157760682,-0.993,-0.001,0.092,4.900,-0.840,-0.560
157760701,-1.002,-0.013,0.108,4.410,-0.840,-0.840
157760718,-1.019,-0.022,0.103,5.320,-0.700,-1.050
157760740,-1.026,-0.015,0.103,6.090,-2.590,-1.610
157760760,-1.009,-0.018,0.110,7.000,-3.150,-2.590
157760780,-1.003,-0.014,0.109,7.490,-3.570,-2.730
157760802,-0.987,-0.004,0.109,6.860,-3.360,-2.870
157760822,-0.990,0.002,0.108,5.950,-2.590,-3.850
157760844,-1.004,0.005,0.104,3.290,-2.870,-5.670
157760864,-1.002,0.015,0.102,0.910,-3.850,-6.860
157760887,-0.996,0.020,0.100,-2.310,-4.060,-7.700
157760911,-0.999,0.014,0.091,-4.060,-4.060,-7.420
157760931,-0.996,0.013,0.087,-4.620,-3.920,-6.370
157760950,-1.003,0.013,0.080,-4.410,-3.150,-5.600
157760971,-1.005,0.012,0.077,-4.130,-2.870,-4.760
157760989,-1.010,0.018,0.078,-4.690,-3.710,-3.570
157761011,-0.998,0.010,0.073,-4.900,-3.360,-1.610
157761035,-0.992,0.011,0.066,-4.760,-2.660,0.980
157761055,-0.999,0.012,0.067,-4.970,-1.750,2.660
157761075,-1.005,0.006,0.067,-5.670,-1.680,3.360
157761093,-1.007,-0.003,0.076,-5.740,-2.030,3.430
157761112,-0.996,-0.017,0.075,-4.340,-1.960,4.200
157761137,-0.991,-0.022,0.070,-1.610,-0.910,5.180
157761157,-0.996,-0.020,0.076,0.630,-0.420,5.600
157761177,-0.997,-0.013,0.083,0.350,-0.350,5.460
157761196,-1.006,-0.014,0.088,-1.050,-0.280,4.830
157761217,-1.002,-0.017,0.089,-3.780,-0.350,3.990
157761236,-1.001,-0.026,0.092,-4.620,-0.420,3.080
157761256,-0.999,-0.032,0.093,-4.970,-0.420,1.890
157761275,-1.010,-0.035,0.096,-5.530,-0.910,0.700
157761298,-1.007,-0.046,0.096,-4.620,-1.750,-0.350
157761317,-0.996,-0.045,0.094,-2.870,-2.170,-0.910
157761341,-0.994,-0.040,0.092,-1.610,-2.030,-1.470
157761360,-1.004,-0.040,0.089,-0.700,-2.100,-2.450
157761380,-1.015,-0.048,0.091,1.260,-2.730,-3.010
157761404,-1.012,-0.032,0.084,2.940,-3.290,-3.640
157761422,-1.002,-0.034,0.082,4.200,-3.010,-3.850
157761442,-0.997,-0.016,0.085,4.760,-2.590,-3.360
157761466,-1.004,-0.021,0.102,3.640,-3.220,-3.010
157761486,-0.995,-0.035,0.105,4.550,-3.570,-2.100
157761506,-0.991,-0.029,0.097,7.560,-3.290,-2.310
157761530,-1.000,-0.021,0.105,8.680,-3.780,-3.710
157761550,-1.005,-0.005,0.107,6.930,-4.970,-5.250
157761569,-0.996,-0.009,0.099,5.250,-5.600,-6.090
157761589,-0.995,-0.012,0.097,4.690,-5.530,-6.230
157761613,-1.001,-0.022,0.092,5.530,-5.740,-5.320
157761633,-1.003,-0.026,0.083,7.140,-5.600,-3.990
157761653,-0.998,-0.025,0.079,9.100,-5.180,-3.010
157761677,-0.999,-0.011,0.079,9.800,-4.760,-2.170
157761696,-1.000,-0.002,0.085,7.910,-5.040,-1.960
157761717,-0.995,-0.001,0.075,5.460,-4.270,-1.540
157761737,-0.994,-0.004,0.070,4.060,-3.500,-1.330
157761757,-0.992,0.005,0.078,2.030,-2.660,-1.680
157761775,-0.996,0.005,0.080,-0.980,-2.590,-2.450
157761799,-0.993,-0.010,0.083,-2.100,-3.220,-2.450
157761818,-0.980,-0.032,0.087,0.560,-2.450,-1.470
157761834,-0.991,-0.028,0.085,3.290,-1.540,-0.700
157761859,-1.012,-0.025,0.095,5.810,-1.470,-0.280
157761879,-1.014,-0.011,0.100,5.880,-2.310,-0.420
157761895,-1.008,-0.005,0.093,4.200,-2.940,-0.490
157761919,-0.998,-0.007,0.092,2.170,-3.220,-0.070
157761938,-0.998,-0.021,0.091,2.310,-3.080,0.840
157761957,-0.995,-0.024,0.086,2.940,-2.590,2.030
157761981,-1.001,-0.020,0.082,3.010,-1.680,2.660
157761999,-1.003,-0.013,0.091,1.820,-1.330,2.380
157762023,-1.000,-0.010,0.094,-1.260,-1.260,1.330
157762043,-0.989,-0.014,0.091,-2.520,-0.910,0.700
157762061,-0.996,-0.015,0.096,-3.780,-0.910,0.630
157762083,-0.999,-0.023,0.093,-4.620,-1.120,1.190
157762103,-0.998,-0.032,0.093,-4.200,-1.330,2.590
157762122,-0.999,-0.031,0.096,-3.570,-1.610,3.430
157762143,-1.003,-0.047,0.103,-1.750,-1.680,4.270
157762162,-1.018,-0.055,0.095,1.960,-1.610,4.970
157762186,-1.014,-0.046,0.099,6.090,-2.660,4.830
157762203,-1.002,-0.038,0.103,7.210,-2.870,4.480
157762227,-0.998,-0.033,0.102,6.930,-3.010,4.340
157762245,-0.997,-0.023,0.101,5.460,-2.870,3.570
157762265,-1.006,-0.028,0.098,3.500,-2.520,2.310
157762285,-1.009,-0.026,0.099,2.380,-2.450,0.560
157762309,-1.013,-0.021,0.097,0.560,-2.310,-2.660
157762327,-1.027,-0.020,0.100,-1.330,-3.640,-4.970
157762351,-1.025,-0.016,0.108,-2.660,-5.180,-7.840
157762371,-1.022,-0.024,0.111,-3.850,-6.930,-8.610
157762391,-1.017,-0.032,0.110,-3.080,-9.030,-7.770
157762411,-1.014,-0.044,0.100,0.630,-10.220,-5.390
157762431,-1.015,-0.050,0.084,5.250,-10.640,-3.080
157762451,-1.006,-0.041,0.081,8.400,-10.990,-1.330
157762470,-0.985,-0.036,0.073,10.850,-10.570,-0.420
157762487,-0.969,-0.036,0.057,13.160,-9.240,-0.070
157762507,-0.965,-0.033,0.045,15.330,-7.070,-0.140
157762531,-0.970,-0.030,0.045,16.450,-5.460,-1.470
157762550,-0.970,-0.026,0.040,16.450,-2.590,-3.430
157762567,-0.985,-0.023,0.028,15.540,0.000,-6.300
157762589,-0.997,-0.011,0.039,12.740,0.770,-9.870
157762608,-0.988,-0.015,0.046,9.030,1.820,-12.880
157762633,-0.990,-0.020,0.041,6.160,3.220,-14.980
157762653,-1.003,-0.028,0.038,4.550,4.550,-16.310
157762673,-1.020,-0.038,0.052,3.500,5.460,-17.290
157762692,-1.036,-0.051,0.076,3.150,4.830,-17.640
157762716,-1.026,-0.061,0.089,6.580,3.360,-17.570
157762736,-1.009,-0.071,0.099,10.290,2.450,-16.380
157762755,-0.988,-0.065,0.105,12.880,2.800,-14.070
157762776,-0.987,-0.072,0.124,14.840,3.430,-10.640
157762796,-0.992,-0.081,0.131,16.870,3.990,-6.580
157762820,-0.993,-0.087,0.128,18.830,5.810,-3.710
157762839,-1.007,-0.083,0.141,20.440,5.810,-2.380
157762860,-1.005,-0.062,0.168,17.570,5.530,-1.190
157762875,-0.998,-0.083,0.183,14.630,4.970,0.280
157762900,-0.981,-0.132,0.191,17.360,6.090,4.340
157762919,-0.933,-0.152,0.209,28.560,8.820,7.980
157762937,-0.929,-0.098,0.209,31.080,9.590,8.750
157762957,-0.938,-0.034,0.200,22.050,6.930,6.720
157762981,-0.927,-0.012,0.172,7.630,2.940,0.980
157763001,-0.918,-0.035,0.118,-7.070,-1.330,-2.310
157763019,-0.926,-0.074,0.109,-14.420,-2.030,-3.920
157763039,-0.909,-0.134,0.081,-12.740,-0.070,-4.760
157763062,-0.883,-0.222,0.066,1.820,7.910,-4.200
157763086,-0.951,-0.204,0.078,18.130,14.560,-2.660
157763106,-0.986,-0.163,0.082,26.810,13.160,-3.080
157763125,-0.958,-0.126,0.081,26.810,11.340,-1.890
157763146,-0.939,-0.091,0.078,20.090,11.270,-0.140
157763165,-0.947,-0.126,0.068,15.820,12.040,1.750
157763190,-0.940,-0.174,0.056,19.250,13.440,3.710
157763210,-0.912,-0.172,0.057,31.150,16.030,5.320
157763230,-0.916,-0.111,0.056,35.840,19.110,5.390
157763249,-0.940,-0.095,0.047,34.230,20.860,3.780
157763273,-0.994,-0.096,0.041,29.050,19.460,-0.770
157763294,-1.019,-0.105,0.038,26.180,16.240,-5.040
157763312,-0.986,-0.120,0.026,28.560,14.630,-6.580
157763333,-0.917,-0.112,0.005,34.300,15.400,-7.000
157763357,-0.873,-0.109,-0.001,38.430,18.200,-5.880
157763377,-0.850,-0.086,0.001,41.300,22.680,-4.830
157763397,-0.886,-0.071,0.003,40.740,24.360,-4.060
157763415,-0.918,-0.069,-0.019,40.670,22.750,-3.640
157763434,-0.886,-0.082,-0.047,41.580,20.930,-4.480
157763458,-0.811,-0.094,-0.063,47.670,23.100,-3.780
157763477,-0.761,-0.066,-0.071,54.530,29.190,-1.190
157763494,-0.778,-0.036,-0.063,55.790,30.590,-1.190
157763514,-0.808,-0.008,-0.032,52.360,27.440,-1.820
157763538,-0.780,-0.042,-0.051,51.520,23.310,-2.380
157763558,-0.721,-0.081,-0.086,59.150,24.920,-1.540
157763578,-0.717,-0.053,-0.114,73.360,29.890,0.420
157763595,-0.760,-0.020,-0.096,76.650,29.540,1.190
157763615,-0.775,0.003,-0.098,72.310,22.820,0.490
157763639,-0.736,0.002,-0.124,67.620,21.210,0.700
157763657,-0.845,-0.024,-0.189,65.450,26.460,-1.260
157763681,-1.059,0.041,-0.180,57.540,17.080,-8.190
157763699,-1.088,0.067,-0.168,35.210,-0.210,-16.870
157763718,-0.920,-0.016,-0.225,18.550,-7.980,-18.200
157763742,-0.874,-0.117,-0.282,24.150,-0.910,-12.950
157763763,-0.950,-0.126,-0.268,38.990,5.740,-6.930
157763783,-1.049,-0.125,-0.315,46.550,1.890,-3.850
157763803,-1.012,-0.122,-0.366,52.430,0.420,1.330
157763821,-0.957,-0.094,-0.354,61.880,4.480,6.370
157763843,-0.977,-0.028,-0.300,55.510,8.470,12.670
157763863,-1.056,-0.011,-0.264,30.800,6.790,9.520
157763881,-1.033,-0.073,-0.289,17.080,0.070,7.350
157763905,-0.936,-0.179,-0.318,16.030,0.840,4.270
157763924,-0.912,-0.182,-0.337,27.020,10.290,10.780
157763948,-0.945,-0.121,-0.275,20.860,17.570,13.370
157763968,-0.987,-0.126,-0.254,2.800,16.940,8.960
157763988,-1.106,-0.023,-0.188,-28.070,10.360,-3.850
157764007,-1.172,-0.087,-0.193,-63.700,0.910,-21.490
157764032,-1.144,-0.289,-0.272,-62.440,1.960,-27.090
157764052,-1.093,-0.457,-0.339,-17.220,13.160,-11.550
157764070,-1.076,-0.418,-0.323,40.390,24.780,3.990
157764090,-1.152,-0.199,-0.315,63.280,27.650,11.830
157764109,-1.239,-0.023,-0.281,50.890,27.160,13.020
157764134,-1.406,0.032,-0.239,12.460,16.310,1.470
157764154,-1.302,-0.094,-0.305,-18.480,9.870,1.470
157764174,-1.274,-0.266,-0.270,-6.580,14.280,12.530
157764192,-1.249,-0.270,-0.293,9.800,22.610,16.940
157764212,-1.220,-0.253,-0.261,18.760,31.990,16.310
157764236,-1.535,-0.555,0.166,46.200,26.740,23.730
157764256,-1.876,-0.866,0.422,154.490,-6.510,43.680
157764275,-1.267,0.272,-0.060,111.720,-7.700,10.220
157764296,-1.201,0.185,-0.176,41.580,4.760,3.150
157764316,-1.491,0.175,-0.188,-4.690,-5.600,2.170
157764336,-1.448,-0.028,-0.295,-36.120,-18.270,-5.460
157764354,-1.200,-0.217,-0.344,-39.620,-16.380,-8.050
157764378,-1.249,-0.351,-0.257,-19.600,-0.840,-4.270
157764397,-1.268,-0.204,-0.167,-5.460,-0.280,-5.390
157764417,-1.289,-0.142,-0.187,-6.160,-2.380,-8.820
157764437,-1.187,-0.202,-0.267,3.010,-3.150,-7.350
157764458,-1.022,-0.272,-0.309,27.650,2.590,-0.140
157764478,-1.010,-0.151,-0.247,43.820,6.650,6.020
157764502,-1.047,-0.007,-0.155,26.460,0.490,4.410
157764522,-1.104,-0.025,-0.127,-4.970,-7.910,-4.340
157764540,-1.067,-0.125,-0.201,-19.810,-14.000,-3.780
157764560,-0.944,-0.164,-0.232,-23.590,-16.240,-2.240
157764584,-0.876,-0.129,-0.238,-16.100,-7.840,0.420
157764604,-0.940,-0.132,-0.259,-6.930,-2.310,1.610
157764624,-1.030,-0.097,-0.253,-2.100,-10.010,-0.910
157764643,-0.962,-0.096,-0.225,-9.310,-19.320,-5.950
157764664,-0.830,-0.121,-0.184,-9.100,-17.710,-8.050
157764688,-0.852,-0.089,-0.191,-5.670,-9.870,-6.580
157764707,-0.963,-0.087,-0.195,-8.750,-11.480,-11.480
157764728,-0.914,-0.077,-0.221,-12.810,-16.800,-11.760
157764749,-0.860,-0.043,-0.217,-15.960,-16.590,-10.220
157764770,-0.887,-0.057,-0.243,-19.250,-12.320,-8.820
157764788,-0.944,-0.071,-0.275,-18.410,-12.530,-5.810
157764813,-0.935,-0.107,-0.236,-15.680,-12.810,-0.210
157764833,-0.945,-0.141,-0.205,-11.760,-11.760,3.850
157764852,-0.956,-0.147,-0.208,-4.060,-12.040,7.910
157764870,-0.928,-0.110,-0.192,1.890,-11.690,11.900
157764889,-0.916,-0.049,-0.197,-1.260,-9.800,12.250
157764913,-0.922,-0.093,-0.243,-9.170,-8.680,10.360
157764933,-0.940,-0.119,-0.208,-14.140,-9.870,9.170
157764957,-0.921,-0.093,-0.155,-23.730,-15.190,5.600
157764977,-0.859,-0.118,-0.139,-26.460,-14.700,3.850
157764997,-0.826,-0.121,-0.142,-27.510,-12.670,0.630
157765015,-0.844,-0.147,-0.154,-25.130,-8.470,-1.610
157765037,-0.886,-0.141,-0.164,-18.550,-8.400,-2.380
157765061,-0.865,-0.104,-0.142,-17.850,-8.610,-4.270
157765082,-0.823,-0.091,-0.114,-23.450,-8.540,-5.740
157765099,-0.832,-0.078,-0.085,-27.580,-9.030,-5.950
157765118,-0.809,-0.092,-0.077,-31.220,-10.570,-6.020
157765142,-0.804,-0.095,-0.070,-32.620,-9.520,-5.110
157765163,-0.853,-0.114,-0.121,-33.600,-7.560,-5.180
157765183,-0.890,-0.178,-0.140,-31.010,-10.290,-2.940
157765203,-0.838,-0.187,-0.116,-23.660,-9.520,0.980
157765222,-0.795,-0.186,-0.088,-15.330,-5.950,1.540
157765246,-0.811,-0.184,-0.073,-5.600,-1.610,1.120
157765266,-0.859,-0.135,-0.101,-3.220,-3.150,-1.890
157765290,-0.838,-0.125,-0.118,-5.740,-4.830,-5.810
157765310,-0.813,-0.133,-0.113,-5.250,-1.470,-6.720
157765329,-0.839,-0.131,-0.108,-6.860,0.350,-7.350
157765353,-0.834,-0.154,-0.114,-6.860,0.840,-7.280
157765373,-0.799,-0.154,-0.118,-1.610,4.340,-6.790
157765393,-0.832,-0.125,-0.096,1.470,8.190,-6.230
157765413,-0.893,-0.130,-0.111,-0.420,7.140,-7.910
157765431,-0.881,-0.189,-0.148,2.240,6.090,-8.400
157765450,-0.864,-0.149,-0.143,8.050,6.020,-6.580
157765475,-0.852,-0.110,-0.128,5.670,5.950,-7.280
157765494,-0.815,-0.130,-0.142,5.460,6.510,-8.470
157765515,-0.788,-0.134,-0.144,6.860,8.190,-6.790
157765531,-0.794,-0.120,-0.164,5.460,10.710,-4.830
157765555,-0.864,-0.122,-0.182,4.480,11.690,-3.640
157765574,-0.897,-0.147,-0.177,4.690,7.630,-2.870
157765593,-0.850,-0.169,-0.170,9.310,4.900,-1.820
157765613,-0.761,-0.163,-0.172,12.320,7.560,-3.290
157765637,-0.789,-0.171,-0.207,14.700,14.210,-2.660
157765657,-0.838,-0.160,-0.239,15.470,14.210,-3.290
157765676,-0.861,-0.165,-0.224,16.450,12.320,-2.730
157765695,-0.840,-0.157,-0.198,18.900,11.060,-4.340
157765716,-0.837,-0.243,-0.213,19.460,12.950,-10.010
157765740,-0.851,-0.214,-0.245,20.650,13.790,-10.500
157765760,-0.868,-0.142,-0.288,15.960,13.790,-10.150
157765778,-0.923,-0.135,-0.268,8.190,10.360,-10.990
157765802,-0.911,-0.169,-0.234,2.730,5.110,-11.060
157765821,-0.883,-0.233,-0.222,6.020,6.160,-7.630
157765842,-0.892,-0.204,-0.232,14.070,6.160,-3.290
157765862,-0.942,-0.142,-0.235,9.450,3.990,-0.700
157765879,-0.997,-0.140,-0.267,-1.610,-0.910,-3.500
157765903,-1.008,-0.208,-0.294,-13.510,-5.880,-4.270
157765927,-0.993,-0.238,-0.313,-7.560,-7.420,-0.630
157765946,-0.915,-0.183,-0.296,-0.700,-5.460,1.260
157765967,-0.935,-0.145,-0.270,-8.190,2.450,1.540
157765987,-1.003,-0.304,-0.309,-9.940,2.030,-0.910
157766004,-0.999,-0.376,-0.337,4.760,2.940,1.610
157766028,-1.031,-0.288,-0.304,24.080,2.590,4.690
157766048,-1.096,-0.093,-0.320,18.060,-1.820,0.700
157766068,-1.125,-0.063,-0.346,-1.680,-4.340,2.520
157766087,-1.086,-0.127,-0.377,-18.760,-7.070,4.270
157766112,-1.072,-0.247,-0.378,-22.190,-0.490,8.400
157766132,-1.129,-0.273,-0.366,-0.770,5.250,14.630
157766152,-1.136,-0.193,-0.383,14.840,8.960,20.090
157766171,-1.064,-0.123,-0.358,21.560,15.330,27.580
157766191,-1.169,0.015,-0.312,7.910,15.540,25.060
157766215,-1.348,0.029,-0.284,-26.110,9.310,16.520
157766235,-1.325,-0.160,-0.271,-36.890,11.690,14.490
157766254,-1.392,-0.338,-0.226,-16.240,15.120,16.170
157766278,-1.500,-0.504,-0.079,49.350,16.100,26.110
157766296,-1.519,-0.465,-0.150,95.620,9.100,31.710
157766317,-1.403,0.129,-0.205,64.260,1.120,10.080
157766341,-1.458,-0.039,-0.174,24.010,1.190,1.890
157766361,-1.432,0.008,-0.188,2.800,-5.110,6.720
157766380,-1.303,-0.113,-0.241,0.560,-3.570,11.550
157766404,-1.238,-0.188,-0.274,-2.730,-3.640,0.980
157766424,-1.246,-0.220,-0.322,-6.090,-3.570,-5.390
157766447,-1.179,-0.108,-0.327,-3.080,-5.530,-5.810
157766466,-1.106,-0.120,-0.297,-3.500,-2.660,-7.420
157766485,-1.100,-0.202,-0.231,1.400,0.560,-8.960
157766510,-1.129,-0.110,-0.200,-7.000,-5.040,-12.810
157766525,-1.069,-0.102,-0.256,-15.260,-10.080,-14.630
157766545,-0.976,-0.134,-0.274,-13.860,-10.360,-12.600
157766569,-0.956,-0.122,-0.280,-9.520,-7.210,-9.730
157766589,-1.010,-0.122,-0.305,-13.860,-13.020,-12.250
157766608,-0.972,-0.147,-0.283,-19.320,-18.270,-14.910
157766633,-0.953,-0.156,-0.291,-14.490,-15.820,-9.240
157766650,-0.982,-0.105,-0.312,-9.100,-13.580,-7.840
157766674,-1.026,-0.082,-0.336,-12.320,-18.060,-8.120
157766693,-0.942,-0.084,-0.296,-20.510,-26.810,-4.970
157766712,-0.862,-0.031,-0.264,-30.170,-25.690,0.490
157766736,-0.917,-0.007,-0.347,-41.160,-21.560,5.040
157766760,-0.936,-0.029,-0.332,-54.880,-29.960,7.280
157766776,-0.830,-0.035,-0.273,-66.570,-35.070,9.520
157766795,-0.845,-0.005,-0.269,-74.970,-31.920,6.860
157766820,-0.906,-0.089,-0.289,-74.970,-32.410,11.690
157766840,-0.896,-0.096,-0.263,-61.110,-30.030,12.250
157766859,-0.883,-0.050,-0.250,-56.980,-28.210,13.580
157766883,-0.905,-0.129,-0.263,-53.410,-29.400,9.380
157766903,-0.854,-0.227,-0.241,-33.320,-28.910,11.270
157766921,-0.780,-0.150,-0.180,-10.850,-24.080,10.920
157766942,-0.798,-0.022,-0.196,-1.470,-15.190,7.280
157766962,-0.901,-0.020,-0.235,-7.070,-13.930,1.820
157766986,-0.893,-0.003,-0.199,-23.940,-26.460,-1.960
157767006,-0.808,-0.013,-0.104,-35.770,-29.050,-1.680
157767026,-0.793,-0.026,-0.133,-40.250,-24.430,-1.890
157767046,-0.851,-0.106,-0.190,-31.290,-21.490,-0.280
157767065,-0.854,-0.115,-0.175,-12.180,-20.650,2.100
157767090,-0.826,-0.047,-0.121,-2.800,-17.990,3.710
157767110,-0.833,-0.011,-0.109,-5.880,-17.360,0.910
157767126,-0.835,-0.006,-0.116,-11.620,-16.030,0.210
157767148,-0.892,0.020,-0.118,-17.920,-14.000,-4.130
157767170,-0.927,-0.044,-0.117,-22.680,-15.610,-7.140
157767190,-0.894,-0.121,-0.114,-14.420,-14.910,-4.620
157767210,-0.866,-0.105,-0.086,-5.320,-13.160,0.140
157767229,-0.841,-0.053,-0.056,-0.770,-8.750,2.170
157767246,-0.888,-0.057,-0.063,-2.380,-5.600,2.450
157767269,-0.935,-0.089,-0.085,-4.830,-7.490,1.260
157767289,-0.972,-0.051,-0.058,-9.310,-7.490,-0.560
157767313,-0.975,-0.046,-0.022,-19.670,-10.010,-4.690
157767333,-0.978,-0.103,-0.005,-20.510,-10.850,-6.370
157767357,-0.941,-0.138,-0.014,-11.270,-10.990,-5.250
157767381,-0.901,-0.122,-0.027,-1.470,-6.790,-3.220
157767400,-0.929,-0.066,-0.016,-0.280,-5.320,-2.100
157767424,-1.015,-0.079,-0.019,-6.650,-7.280,-2.380
157767444,-1.042,-0.140,-0.037,-5.460,-10.640,-0.490
157767464,-0.975,-0.121,-0.030,-0.350,-12.530,2.940
157767484,-0.948,-0.036,-0.017,-3.920,-11.130,1.960
157767508,-0.976,-0.011,-0.014,-18.270,-11.130,-3.570
157767524,-1.007,-0.073,-0.017,-26.320,-12.530,-5.250
157767548,-0.995,-0.104,-0.029,-26.810,-12.880,-6.930
157767567,-0.962,-0.119,-0.022,-22.400,-10.850,-7.910
157767588,-0.960,-0.101,-0.007,-15.890,-8.750,-9.380
157767607,-0.972,-0.088,-0.008,-15.050,-10.500,-11.690
157767632,-0.942,-0.093,-0.020,-14.350,-12.320,-13.020
157767649,-0.898,-0.096,-0.014,-14.350,-12.110,-13.230
157767672,-0.874,-0.111,0.009,-15.820,-11.900,-14.140
157767692,-0.893,-0.125,0.007,-15.120,-11.200,-12.670
157767711,-0.859,-0.142,-0.010,-12.530,-13.440,-11.340
157767730,-0.785,-0.161,-0.028,-5.950,-12.320,-9.450
157767755,-0.720,-0.176,-0.044,2.520,-4.690,-5.880
157767770,-0.693,-0.195,-0.051,11.620,0.350,-3.150
157767790,-0.712,-0.182,-0.050,22.540,5.880,-1.330
157767815,-0.724,-0.127,-0.055,24.570,8.120,-1.750
157767835,-0.728,-0.099,-0.067,19.250,11.340,-2.730
157767859,-0.727,-0.130,-0.070,14.490,17.290,-4.970
157767876,-0.760,-0.156,-0.074,16.310,23.590,-5.670
157767898,-0.822,-0.129,-0.090,15.400,24.850,-6.790
157767919,-0.863,-0.093,-0.095,9.170,22.750,-7.770
157767937,-0.863,-0.103,-0.090,4.830,21.420,-9.030
157767961,-0.816,-0.189,-0.101,12.250,22.750,-7.700
157767980,-0.810,-0.199,-0.115,29.120,26.810,-3.080
157767999,-0.875,-0.135,-0.119,40.600,27.090,2.100
157768023,-0.910,-0.109,-0.122,44.520,25.340,7.070
157768041,-0.904,-0.097,-0.140,45.990,21.210,10.010
157768061,-0.834,-0.069,-0.163,41.650,17.640,12.880
157768085,-0.819,-0.058,-0.166,34.230,18.410,14.210
157768105,-0.935,-0.111,-0.156,24.780,15.470,12.320
157768129,-0.949,-0.203,-0.196,35.560,12.250,13.090
157768149,-0.835,-0.173,-0.234,58.030,13.440,15.540
157768169,-0.792,-0.057,-0.215,56.630,16.310,11.900
157768189,-0.913,0.068,-0.191,24.290,10.010,2.170
157768207,-0.955,-0.048,-0.195,-0.910,1.960,-5.110
157768228,-0.917,-0.195,-0.259,2.590,-1.400,-6.930
157768249,-0.819,-0.219,-0.275,19.530,1.820,-2.030
157768270,-0.826,-0.193,-0.252,39.830,15.820,3.150
157768292,-1.020,-0.153,-0.239,48.020,14.560,2.310
157768316,-0.947,-0.156,-0.318,58.870,15.960,3.290
157768336,-0.887,-0.070,-0.332,60.830,23.030,5.390
157768356,-0.953,0.070,-0.263,30.100,21.070,-2.800
157768375,-1.110,-0.058,-0.244,-4.480,17.290,-12.110
157768399,-1.170,-0.224,-0.274,-8.400,4.550,-11.760
157768419,-1.116,-0.194,-0.284,5.390,6.160,-6.370
157768442,-1.269,-0.190,-0.320,23.520,14.350,9.240
157768463,-1.446,-0.132,-0.400,44.240,14.000,14.770
157768480,-1.381,-0.054,-0.369,46.550,22.330,21.700
157768504,-1.398,0.045,-0.377,25.550,30.240,26.600
157768523,-1.486,0.044,-0.416,3.500,35.210,23.100
157768545,-1.513,-0.125,-0.512,10.010,27.230,25.200
157768567,-1.445,-0.149,-0.279,45.710,31.500,42.000
157768586,-1.596,-0.427,0.015,55.790,20.650,39.410
157768610,-1.597,-0.690,0.226,133.980,6.440,53.130
157768629,-1.422,0.275,0.000,81.340,-0.280,10.990
157768652,-1.436,0.161,-0.109,14.770,-1.680,-9.730
157768675,-1.594,0.114,-0.190,-16.520,-10.290,-12.250
157768696,-1.408,-0.026,-0.341,-28.280,-20.440,-14.280
157768715,-1.195,-0.164,-0.313,-19.810,-16.170,-12.250
157768739,-1.109,-0.200,-0.305,4.620,-1.470,-3.290
157768760,-1.228,0.016,-0.283,14.980,6.090,-1.890
157768783,-1.303,0.085,-0.232,-14.910,-5.320,-8.750
157768802,-1.114,0.086,-0.190,-44.520,-12.600,-10.920
157768822,-1.011,-0.035,-0.208,-62.300,-10.920,-12.320
157768842,-1.024,-0.166,-0.273,-55.230,-8.400,-14.140
157768862,-1.043,-0.170,-0.321,-39.550,-11.270,-14.070
157768881,-1.004,-0.121,-0.345,-26.320,-10.990,-12.880
157768905,-1.046,-0.072,-0.330,-20.860,-9.800,-14.770
157768928,-1.043,-0.128,-0.259,-16.800,-10.570,-9.100
157768951,-1.051,-0.055,-0.257,-17.850,-16.170,-12.880
157768969,-1.030,-0.050,-0.298,-24.220,-15.960,-12.810
157768989,-1.031,-0.068,-0.305,-21.420,-14.350,-10.360
157769013,-1.029,-0.034,-0.284,-24.990,-22.820,-8.330
157769032,-0.896,-0.056,-0.240,-32.340,-26.530,-2.730
157769052,-0.873,-0.047,-0.279,-41.370,-21.280,-5.110
157769071,-0.909,-0.157,-0.306,-36.050,-21.000,-1.960
157769090,-0.869,-0.147,-0.275,-21.560,-22.330,1.890
157769110,-0.852,-0.059,-0.235,-17.850,-16.590,1.890
157769135,-0.897,-0.067,-0.227,-24.710,-20.230,-2.170
157769155,-0.845,-0.063,-0.189,-31.290,-21.630,-3.150
157769179,-0.865,-0.060,-0.203,-36.750,-21.840,-6.790
157769199,-0.885,-0.088,-0.216,-38.920,-24.920,-9.520
157769219,-0.865,-0.085,-0.215,-35.420,-26.740,-9.450
157769238,-0.853,-0.107,-0.202,-28.280,-27.720,-7.910
157769259,-0.767,-0.076,-0.147,-21.070,-25.830,-3.920
157769275,-0.764,-0.046,-0.126,-18.830,-21.070,-2.170
157769295,-0.859,-0.061,-0.150,-21.070,-18.270,-1.470
157769319,-0.914,-0.072,-0.152,-23.310,-21.140,-1.540
157769339,-0.878,-0.052,-0.126,-26.320,-24.850,-3.220
157769359,-0.851,-0.021,-0.079,-32.340,-22.400,-4.900
157769379,-0.937,-0.079,-0.114,-33.950,-21.280,-7.280
157769403,-0.978,-0.143,-0.172,-24.010,-26.530,-5.250
157769422,-0.901,-0.088,-0.122,-16.240,-28.700,-2.030
157769446,-0.842,-0.043,-0.050,-17.220,-25.970,-0.350
157769466,-0.927,-0.036,-0.037,-25.690,-23.660,-2.380
157769486,-0.962,-0.099,-0.066,-32.270,-29.260,-2.660
157769505,-0.876,-0.112,-0.032,-28.070,-29.820,-1.890
157769526,-0.846,-0.085,-0.015,-26.390,-25.900,-2.870
157769545,-0.905,-0.106,-0.034,-24.290,-21.140,-3.570
157769566,-0.935,-0.165,-0.039,-13.930,-22.330,-2.030
157769586,-0.879,-0.124,-0.031,-3.010,-22.890,-1.190
157769605,-0.858,-0.050,-0.009,-4.550,-24.150,-1.260
157769629,-0.849,-0.042,0.034,-11.690,-23.380,-3.220
157769647,-0.862,-0.053,0.074,-21.420,-27.300,-4.620
157769667,-0.868,-0.249,0.049,-23.310,-28.070,-3.640
157769686,-0.862,-0.159,0.005,-14.560,-25.410,-0.630
157769711,-0.852,-0.129,-0.003,-6.860,-21.910,1.190
157769731,-0.874,-0.116,0.035,-8.120,-21.840,0.490
157769750,-0.868,-0.133,0.057,-5.600,-21.490,0.280
157769773,-0.854,-0.119,0.061,-3.500,-19.950,0.490
157769794,-0.834,-0.114,0.048,-0.910,-14.140,1.190
157769813,-0.883,-0.133,0.006,1.960,-9.800,2.590
157769837,-0.935,-0.136,0.012,3.010,-8.470,5.950
157769854,-0.897,-0.122,0.034,-0.070,-9.170,7.560
157769876,-0.829,-0.131,0.051,-4.620,-5.320,9.100
157769900,-0.841,-0.149,0.051,-5.390,-1.960,8.820
157769919,-0.871,-0.168,0.037,-2.310,2.310,7.700
157769940,-0.921,-0.176,0.010,4.480,3.920,4.410
157769960,-0.927,-0.136,0.015,4.130,3.080,3.010
157769979,-0.908,-0.132,0.037,-0.140,4.060,2.240
157769999,-0.912,-0.146,0.038,-3.710,4.970,0.770
157770023,-0.911,-0.169,0.017,0.560,6.300,-0.070
157770041,-0.893,-0.153,0.022,6.580,6.020,-0.560
157770063,-0.838,-0.156,0.017,9.380,7.210,-1.820
157770082,-0.821,-0.138,0.016,12.320,13.930,-0.210
157770107,-0.890,-0.084,0.036,5.670,13.860,-1.540
157770126,-0.910,-0.082,0.031,-5.530,12.320,-3.850
157770144,-0.880,-0.134,-0.015,-6.300,8.890,-5.950
157770167,-0.813,-0.186,-0.050,2.940,8.330,-6.230
157770188,-0.755,-0.175,-0.062,20.510,18.550,-2.170
157770207,-0.810,-0.142,-0.074,31.570,25.970,1.400
157770231,-0.857,-0.116,-0.053,35.770,27.510,0.140
157770250,-0.784,-0.046,-0.065,27.300,25.340,-4.620
157770269,-0.714,-0.009,-0.049,12.740,22.190,-10.080
157770290,-0.681,-0.061,-0.070,2.030,22.400,-13.440
157770312,-0.730,-0.129,-0.102,-0.560,24.990,-15.120
157770332,-0.825,-0.130,-0.111,1.400,24.500,-13.860
157770356,-0.836,-0.133,-0.245,12.110,22.190,-11.480
157770376,-0.802,-0.107,-0.173,23.450,21.350,-8.470
157770393,-0.789,-0.008,-0.205,21.770,21.070,-6.930
157770415,-0.892,-0.001,-0.203,8.610,19.250,-7.420
157770437,-1.057,-0.061,-0.229,-8.190,13.930,-9.100
157770454,-1.060,-0.130,-0.282,-8.330,12.950,-10.080
157770477,-1.032,-0.155,-0.329,10.220,15.050,-5.390
157770501,-0.886,-0.096,-0.336,21.700,21.420,0.140
157770519,-0.905,-0.078,-0.279,20.930,25.830,2.870
157770543,-1.004,-0.119,-0.306,21.070,27.020,3.220
157770563,-1.087,-0.088,-0.365,30.940,26.740,1.120
157770582,-1.125,-0.032,-0.352,29.680,23.520,-3.150
157770606,-1.097,-0.076,-0.327,9.730,21.490,-2.310
157770630,-1.071,-0.138,-0.373,1.610,21.490,-0.210
157770646,-1.104,-0.118,-0.381,-3.430,25.340,1.260
157770665,-1.227,-0.145,-0.389,-2.520,28.140,0.770
157770690,-1.377,-0.142,-0.351,3.080,21.070,2.800
157770710,-1.403,-0.087,-0.257,-2.380,16.030,6.510
157770729,-1.432,-0.171,-0.195,2.030,19.180,18.340
157770753,-1.485,-0.277,-0.196,18.970,22.050,31.290
157770770,-1.428,-0.978,-0.027,71.120,32.760,41.860
157770794,-1.219,-1.146,-0.329,265.440,46.550,88.830
157770814,-1.451,0.431,-0.077,257.250,34.090,66.360
157770831,-1.666,0.581,0.042,110.250,-3.780,2.450
157770852,-1.419,0.089,-0.072,6.370,-6.580,-18.690
157770876,-1.373,0.046,-0.235,6.510,1.400,-9.310
157770895,-1.378,0.061,-0.233,-10.430,1.750,-6.090
157770915,-1.491,-0.024,-0.212,-21.350,-3.500,-8.260
157770939,-1.444,-0.083,-0.302,-28.070,-16.520,-7.630
157770959,-1.239,-0.077,-0.274,-28.910,-18.550,-1.540
157770978,-1.185,-0.106,-0.274,-29.120,-16.170,-1.680
157771002,-1.177,-0.115,-0.299,-39.620,-22.540,-10.080
157771022,-1.124,-0.186,-0.315,-41.440,-22.820,-12.180
157771040,-1.105,-0.268,-0.321,-20.720,-11.200,-6.160
157771061,-1.204,-0.197,-0.257,3.430,-6.650,5.110
157771085,-1.125,-0.056,-0.234,0.140,-9.730,5.180
157771103,-1.079,-0.067,-0.263,-13.160,-9.800,-1.400
157771127,-1.049,-0.106,-0.307,-22.960,-11.270,-6.230
157771147,-1.039,-0.171,-0.328,-23.730,-9.590,-5.460
157771166,-1.042,-0.134,-0.279,-16.380,-15.680,-4.760
157771187,-0.977,-0.089,-0.228,-19.880,-16.100,-6.020
157771205,-0.956,-0.126,-0.277,-21.910,-15.540,-5.880
157771229,-0.907,-0.174,-0.277,-14.840,-12.740,-0.770
157771249,-0.916,-0.125,-0.217,-10.150,-10.850,0.350
157771265,-0.890,-0.085,-0.183,-14.210,-13.300,2.240
157771284,-0.940,-0.055,-0.189,-22.540,-10.920,-0.770
157771309,-0.988,-0.106,-0.226,-32.760,-22.260,-2.520
157771329,-0.855,-0.151,-0.192,-28.490,-23.800,0.560
157771345,-0.809,-0.113,-0.178,-23.520,-18.970,0.210
157771365,-0.920,-0.101,-0.207,-25.550,-15.470,-2.170
157771389,-0.947,-0.159,-0.244,-22.540,-21.700,-2.100
157771413,-0.834,-0.120,-0.208,-16.940,-23.450,0.420
157771433,-0.774,-0.036,-0.145,-23.310,-22.680,-3.640
157771452,-0.856,-0.058,-0.179,-32.200,-21.560,-7.560
157771476,-0.928,-0.180,-0.235,-27.580,-25.900,-9.030
157771494,-0.844,-0.151,-0.208,-14.630,-30.380,-7.420
157771514,-0.753,-0.099,-0.147,-7.770,-26.460,-6.650
157771535,-0.822,-0.056,-0.135,-6.370,-22.260,-6.860
157771554,-0.885,-0.097,-0.160,-12.320,-23.310,-5.950
157771574,-0.864,-0.116,-0.151,-11.480,-26.250,-3.850
157771594,-0.805,-0.060,-0.109,-12.180,-26.670,-5.600
157771619,-0.822,-0.040,-0.115,-18.690,-23.520,-9.240
157771639,-0.867,-0.120,-0.119,-14.140,-24.150,-8.540
157771659,-0.828,-0.126,-0.095,-4.270,-22.750,-5.600
157771683,-0.833,-0.049,-0.069,-3.570,-20.650,-4.690
157771703,-0.860,-0.064,-0.059,-9.660,-21.350,-4.480
157771724,-0.865,-0.100,-0.067,-15.890,-26.040,-3.920
157771743,-0.803,-0.145,-0.042,-12.390,-25.480,-1.120
157771766,-0.767,-0.154,-0.034,-2.940,-18.270,2.520
157771790,-0.844,-0.145,-0.055,2.520,-14.070,4.270
157771810,-0.893,-0.159,-0.058,3.850,-13.860,5.530
157771830,-0.888,-0.126,-0.026,2.170,-12.460,4.760
157771848,-0.906,-0.099,0.001,-5.880,-11.760,0.630
157771870,-0.941,-0.139,0.001,-10.780,-12.250,-4.060
157771894,-0.925,-0.173,-0.014,-5.600,-11.900,-4.970
157771914,-0.892,-0.155,-0.004,-0.070,-9.800,-2.940
157771934,-0.878,-0.144,0.024,0.910,-8.190,-1.260
157771953,-0.882,-0.170,0.033,4.410,-6.510,1.330
157771977,-0.893,-0.162,0.033,11.690,-4.760,3.360
157771995,-0.906,-0.122,0.041,14.280,-4.690,3.290
157772019,-0.933,-0.098,0.051,8.400,-5.320,0.770
157772039,-0.958,-0.106,0.047,-17.640,-7.420,-0.980
157772059,-0.957,-0.105,0.026,-7.700,-8.750,-0.770
157772079,-0.958,-0.138,0.040,-12.880,-8.960,-0.630
157772101,-0.949,-0.222,0.001,-5.180,-7.560,0.630
157772121,-0.946,-0.182,0.002,7.840,-5.600,1.960
157772138,-0.939,-0.105,0.021,7.000,-4.900,1.330
157772163,-0.920,-0.247,0.037,3.360,-3.010,1.820
157772183,-0.911,-0.147,0.002,3.290,-3.430,2.730
157772202,-0.874,-0.159,-0.000,8.120,-1.890,6.160
157772226,-0.846,-0.164,-0.015,15.750,0.140,9.030
157772245,-0.830,-0.122,0.002,16.940,0.560,9.100
157772266,-0.823,-0.087,0.015,9.170,0.420,8.120
157772286,-0.819,-0.075,0.009,-1.820,1.190,5.530
157772302,-0.809,-0.140,-0.020,-3.920,2.030,4.900
157772326,-0.786,-0.189,-0.041,5.530,5.740,6.370
157772346,-0.802,-0.001,-0.023,14.630,8.820,5.250
157772365,-0.810,-0.081,-0.019,12.460,10.430,3.360
157772383,-0.811,-0.097,-0.036,11.200,10.850,1.680
157772407,-0.761,-0.101,-0.053,10.990,13.580,1.330
157772427,-0.752,-0.093,-0.049,13.650,16.240,2.030
157772446,-0.756,-0.108,-0.052,20.790,18.760,2.030
157772464,-0.781,-0.087,-0.085,26.530,18.970,2.100
157772484,-0.794,-0.061,-0.093,29.890,18.900,2.870
157772508,-0.778,-0.032,-0.117,29.890,16.100,2.730
157772528,-0.736,-0.017,-0.118,27.090,17.360,4.270
157772548,-0.728,-0.028,-0.137,25.340,18.410,7.420
157772566,-0.737,-0.026,-0.135,22.820,19.040,9.590
157772584,-0.809,-0.054,-0.150,21.210,18.830,8.960
157772603,-0.885,-0.082,-0.176,22.050,14.980,5.880
157772628,-0.859,-0.079,-0.248,25.200,12.320,3.920
157772648,-0.870,-0.084,-0.232,25.480,16.450,5.390
157772668,-0.949,-0.080,-0.238,22.260,19.250,3.850
157772688,-1.146,-0.131,-0.312,22.820,17.710,-0.280
157772705,-1.120,-0.174,-0.393,32.270,10.500,-0.210
157772729,-0.956,-0.125,-0.407,43.820,13.790,3.430
157772744,-0.969,-0.000,-0.341,36.470,17.780,4.480
157772769,-1.113,-0.029,-0.214,10.920,22.120,0.210
157772789,-1.239,-0.129,-0.237,-0.070,14.840,-6.930
157772809,-1.177,-0.205,-0.258,2.590,14.280,-7.140
157772828,-1.130,-0.238,-0.266,12.250,19.950,-0.700
157772847,-1.248,-0.187,-0.243,25.270,29.330,9.590
157772871,-1.461,-0.100,-0.277,29.190,24.570,13.370
157772891,-1.505,0.155,-0.224,1.330,17.220,4.270
157772910,-1.609,-0.073,0.087,-27.370,14.980,2.100
157772935,-1.833,-1.074,0.144,67.410,17.780,40.320
157772955,-1.581,-0.207,-0.160,198.100,7.560,82.460
157772977,-1.759,0.668,0.063,110.320,-21.490,21.560
157772998,-1.427,0.221,0.016,-13.300,-17.220,-3.290
157773019,-1.444,-0.029,-0.212,-18.900,-5.040,0.560
157773039,-1.542,0.035,-0.269,-27.930,-7.070,-7.420
157773059,-1.447,-0.111,-0.277,-14.350,-6.790,-1.890
157773079,-1.357,-0.042,-0.278,-2.170,-1.890,-4.480
157773098,-1.377,0.008,-0.149,-9.100,0.280,-7.630
157773121,-1.335,0.027,-0.040,-30.450,-4.970,-13.370
157773138,-1.234,-0.047,-0.121,-35.000,-3.360,-15.260
157773162,-1.165,-0.141,-0.208,-21.840,3.220,-10.710
157773182,-1.150,-0.101,-0.241,-5.250,6.790,-8.400
157773197,-1.130,-0.019,-0.227,-9.100,3.430,-11.060
157773222,-1.158,0.030,-0.128,-32.480,-4.060,-15.680
157773241,-1.117,-0.020,-0.147,-52.710,-12.110,-20.650
157773265,-1.007,-0.165,-0.186,-48.090,-13.580,-17.920
157773285,-0.960,-0.160,-0.191,-23.660,-7.560,-13.580
157773305,-0.979,-0.076,-0.206,-14.980,-5.600,-13.790
157773325,-1.019,-0.076,-0.222,-13.790,-6.300,-16.450
157773344,-1.057,-0.064,-0.203,-16.520,-9.380,-15.820
157773368,-1.009,-0.082,-0.207,-19.670,-16.450,-14.280
157773388,-0.924,-0.098,-0.218,-16.170,-17.150,-11.480
157773408,-0.972,-0.065,-0.164,-20.650,-18.760,-12.530
157773428,-0.933,-0.071,-0.178,-32.970,-29.470,-11.690
157773444,-0.871,-0.071,-0.196,-38.570,-29.540,-10.780
157773464,-0.859,-0.099,-0.218,-40.880,-25.830,-10.290
157773484,-0.879,-0.115,-0.203,-39.830,-26.040,-9.660
157773503,-0.847,-0.143,-0.210,-34.930,-24.640,-9.660
157773528,-0.857,-0.137,-0.202,-25.550,-23.590,-9.660
157773548,-0.860,-0.092,-0.200,-24.220,-22.330,-10.430
157773567,-0.884,-0.107,-0.199,-22.820,-19.810,-10.010
157773588,-0.864,-0.125,-0.197,-18.550,-17.780,-8.190
157773603,-0.858,-0.099,-0.149,-17.220,-16.030,-6.580
157773628,-0.875,-0.039,-0.148,-27.790,-19.040,-10.010
157773646,-0.863,-0.062,-0.142,-36.190,-20.650,-11.410
157773665,-0.853,-0.126,-0.121,-36.190,-23.800,-10.220
157773685,-0.787,-0.160,-0.104,-26.600,-21.140,-7.000
157773709,-0.827,-0.148,-0.065,-13.650,-14.280,-2.940
157773729,-0.897,-0.166,-0.084,-5.530,-14.210,0.350
157773753,-0.942,-0.135,-0.119,-2.450,-21.630,2.590
157773772,-0.861,-0.093,-0.086,-8.260,-24.920,1.890
157773793,-0.802,-0.067,-0.009,-15.820,-22.120,0.000
157773812,-0.864,-0.095,0.002,-23.520,-22.260,-3.990
157773832,-0.861,-0.178,-0.016,-21.840,-23.800,-2.240
157773856,-0.837,-0.153,-0.015,-10.010,-23.030,-1.120
157773876,-0.835,-0.087,0.009,-11.270,-22.050,-2.660
157773896,-0.904,-0.124,0.016,-13.370,-21.280,-4.410
157773916,-0.937,-0.149,-0.005,-7.840,-23.450,-2.450
157773935,-0.891,-0.132,-0.010,-2.730,-24.990,1.120
157773954,-0.866,-0.114,0.020,0.350,-23.030,5.600
157773979,-0.868,-0.146,0.048,-0.140,-24.150,10.500
157774003,-0.890,-0.140,0.003,-0.280,-26.600,12.740
157774023,-0.869,-0.134,0.000,-2.800,-26.670,12.670
157774043,-0.861,-0.131,0.027,-5.810,-23.100,9.940
157774059,-0.903,-0.151,0.053,-8.680,-21.980,7.000
157774083,-0.891,-0.181,0.055,-7.840,-22.470,1.960
157774102,-0.838,-0.184,0.027,-0.840,-19.670,-0.350
157774127,-0.830,-0.160,0.027,10.010,-15.050,-2.310
157774144,-0.856,-0.113,0.032,10.710,-12.600,-3.990
157774166,-0.863,-0.107,0.037,8.400,-10.010,-4.200
157774186,-0.868,-0.093,0.050,5.040,-7.070,-4.270
157774206,-0.865,-0.099,0.054,1.470,-5.110,-5.250
157774224,-0.871,-0.108,0.056,0.630,-4.060,-5.250
157774244,-0.862,-0.106,0.058,3.080,-2.940,-5.460
157774264,-0.858,-0.109,0.063,4.480,-0.490,-5.040
157774283,-0.893,-0.103,0.056,3.920,1.330,-6.370
157774308,-0.904,-0.103,0.050,-3.640,0.840,-8.120
157774328,-0.874,-0.132,0.041,-9.800,0.840,-6.370
157774346,-0.816,-0.168,0.025,-4.340,4.830,-3.500
157774365,-0.808,-0.154,0.019,3.710,10.080,-1.540
157774384,-0.845,-0.132,0.032,8.960,15.050,-0.770
157774408,-0.912,-0.084,0.043,4.550,15.050,-2.240
157774429,-0.885,-0.138,0.007,0.070,14.420,-2.800
157774447,-0.831,-0.191,-0.020,7.000,20.510,1.330
157774468,-0.867,-0.177,-0.032,19.600,26.040,4.270
157774489,-0.918,-0.123,-0.020,24.010,25.270,2.380
157774513,-0.898,-0.098,-0.023,17.990,21.700,-0.280
157774532,-0.832,-0.089,-0.023,8.470,22.890,-1.540
157774552,-0.903,-0.154,-0.015,4.830,26.250,-2.660
157774572,-0.921,-0.202,-0.079,12.950,25.200,-1.890
157774596,-0.831,-0.189,-0.127,33.740,25.900,0.210
157774616,-0.763,-0.107,-0.083,39.620,29.120,2.240
157774636,-0.812,-0.027,-0.046,27.930,28.070,0.560
157774656,-0.861,-0.052,-0.116,14.350,24.780,-1.330
157774676,-0.849,-0.060,-0.174,10.710,21.980,-0.980
157774700,-0.808,-0.020,-0.208,0.980,22.890,0.420
157774719,-0.825,-0.112,-0.157,-7.350,24.920,1.330
157774739,-0.945,-0.171,-0.187,-5.180,26.950,1.610
157774759,-0.981,-0.213,-0.188,8.470,21.980,-0.280
157774783,-0.879,-0.163,-0.264,24.080,22.470,-1.540
157774803,-0.888,-0.103,-0.253,21.000,24.360,-2.310
157774819,-0.966,-0.183,-0.252,13.860,22.890,-2.030
157774843,-1.016,-0.150,-0.267,5.600,16.450,-0.280
157774863,-0.981,-0.124,-0.243,-2.800,11.130,-3.360
157774887,-0.931,-0.187,-0.284,-1.610,12.810,-4.480
157774907,-0.991,-0.226,-0.342,9.310,16.380,2.660
157774927,-1.067,-0.175,-0.310,20.020,16.590,9.660
157774945,-1.126,-0.047,-0.288,11.480,13.160,10.290
157774963,-1.188,-0.043,-0.259,-5.740,11.760,11.410
157774987,-1.189,-0.121,-0.317,-25.130,4.130,11.900
157775007,-0.995,-0.268,-0.253,-22.820,8.610,17.220
157775025,-1.075,-0.222,-0.213,-13.580,15.750,10.710
157775049,-1.355,-0.131,-0.254,-11.550,13.230,0.840
157775067,-1.381,-0.227,-0.216,-3.990,15.680,2.940
157775084,-1.389,-0.221,-0.162,4.690,21.140,6.860
157775104,-1.498,-0.116,-0.135,1.750,21.070,7.840
157775124,-1.631,-0.113,-0.178,1.400,16.310,4.130
157775144,-1.724,-0.255,-0.130,13.230,9.660,6.580
157775169,-1.696,-0.473,-0.069,67.620,-0.840,21.210
157775188,-1.453,-0.139,-0.097,79.450,-3.010,21.980
157775205,-1.482,0.084,-0.018,37.450,-5.390,9.730
157775224,-1.593,-0.022,0.034,-6.090,-14.560,-7.630
157775249,-1.452,-0.192,-0.108,-16.030,-14.350,-13.790
157775269,-1.294,-0.273,-0.223,9.590,-4.690,-4.550
157775288,-1.233,-0.200,-0.227,37.520,2.730,0.560
157775313,-1.228,-0.087,-0.121,32.410,0.490,-3.920
157775329,-1.276,-0.077,-0.111,19.460,-3.710,-8.470
157775352,-1.253,-0.108,-0.222,17.920,-6.160,-10.920
157775373,-1.125,-0.122,-0.276,29.610,-5.040,-8.400
157775393,-1.040,0.006,-0.243,21.420,-5.670,-7.560
157775417,-1.073,0.022,-0.200,-10.290,-9.030,-13.020
157775437,-1.002,-0.056,-0.222,-26.460,-14.980,-10.010
157775459,-0.940,-0.179,-0.277,-25.690,-14.980,-6.860
157775478,-0.915,-0.191,-0.286,-17.010,-14.770,-5.320
157775498,-0.958,-0.154,-0.252,-10.290,-15.960,-6.090
157775521,-1.015,-0.146,-0.239,-5.390,-21.910,-6.440
157775541,-0.910,-0.129,-0.268,-2.940,-25.340,-2.730
157775565,-0.846,-0.120,-0.286,0.560,-18.760,0.350
157775585,-0.894,-0.102,-0.273,-4.620,-17.920,0.070
157775605,-0.921,-0.099,-0.222,-20.020,-24.360,-1.470
157775625,-0.882,-0.125,-0.224,-25.760,-25.130,-4.690
157775645,-0.820,-0.193,-0.227,-14.630,-22.470,-4.060
157775660,-0.815,-0.162,-0.226,-7.210,-19.880,-6.510
157775685,-0.817,-0.163,-0.224,-3.080,-15.540,-7.630
157775705,-0.834,-0.172,-0.196,2.450,-15.470,-8.540
157775725,-0.849,-0.063,-0.174,-5.040,-17.010,-10.570
157775743,-0.870,-0.046,-0.204,-17.080,-16.520,-12.600
157775764,-0.874,-0.102,-0.175,-23.380,-17.500,-11.270
157775788,-0.873,-0.123,-0.149,-25.130,-17.080,-9.660
157775807,-0.852,-0.162,-0.163,-21.980,-17.430,-8.050
157775831,-0.834,-0.136,-0.118,-14.840,-14.910,-4.760
157775851,-0.854,-0.099,-0.092,-17.080,-16.590,-4.410
157775871,-0.833,-0.135,-0.103,-18.060,-17.990,-3.710
157775888,-0.875,-0.126,-0.100,-18.550,-20.370,-2.730
157775907,-0.883,-0.087,-0.098,-26.880,-22.890,-3.360
157775932,-0.935,-0.113,-0.101,-40.670,-24.920,-3.570
157775949,-0.907,-0.175,-0.090,-41.230,-26.670,-1.890
157775968,-0.867,-0.203,-0.063,-34.510,-25.200,0.070
157775993,-0.867,-0.189,-0.087,-19.810,-19.740,0.070
157776013,-0.895,-0.154,-0.104,-16.100,-19.040,1.400
157776031,-0.896,-0.144,-0.083,-16.520,-19.670,2.240
157776052,-0.895,-0.163,-0.053,-20.440,-19.530,1.400
157776076,-0.877,-0.189,-0.026,-22.680,-18.690,2.450
157776093,-0.884,-0.171,-0.035,-20.580,-16.520,2.030
157776113,-0.883,-0.193,-0.037,-17.710,-14.070,1.330
157776134,-0.868,-0.175,-0.004,-12.110,-10.780,1.120
157776158,-0.905,-0.145,0.040,-14.630,-14.070,-3.920
157776176,-0.896,-0.136,0.042,-18.970,-15.610,-6.930
157776199,-0.903,-0.153,0.010,-18.480,-17.920,-9.660
157776218,-0.863,-0.145,0.014,-16.870,-16.450,-10.080
157776237,-0.889,-0.183,0.024,-13.930,-14.280,-7.980
157776258,-0.944,-0.190,0.039,-8.120,-15.050,-6.020
157776277,-0.945,-0.157,0.046,-7.770,-19.460,-5.600
157776297,-0.898,-0.147,0.042,-8.400,-19.740,-4.060
157776322,-0.867,-0.165,0.031,-6.930,-18.060,-0.490
157776342,-0.826,-0.202,0.035,-1.890,-14.840,4.760
157776362,-0.781,-0.200,0.044,4.410,-10.010,9.170
157776382,-0.773,-0.176,0.039,5.950,-6.230,9.730
157776397,-0.789,-0.166,0.056,1.750,-4.620,6.440
157776417,-0.783,-0.188,0.064,-4.480,-3.780,-1.400
157776442,-0.761,-0.210,0.067,-4.900,-1.330,-7.980
157776462,-0.730,-0.235,0.049,3.640,3.710,-9.100
157776480,-0.723,-0.201,0.041,8.050,8.050,-8.260
157776504,-0.758,-0.184,0.095,3.360,9.170,-8.960
157776521,-0.773,-0.211,0.094,0.840,8.540,-9.100
157776541,-0.780,-0.231,0.041,6.650,9.380,-8.120
157776565,-0.748,-0.227,0.014,16.450,11.690,-4.900
157776585,-0.702,-0.177,0.005,24.290,13.650,-0.980
157776604,-0.692,-0.155,0.024,22.680,16.870,1.540
157776625,-0.781,-0.206,0.028,24.640,17.360,2.870
157776645,-0.800,-0.169,-0.047,27.790,14.700,5.040
157776669,-0.742,-0.124,-0.084,31.920,15.680,6.790
157776684,-0.702,-0.051,-0.105,28.700,18.130,7.210
157776709,-0.772,-0.095,-0.116,16.730,18.970,4.620
157776729,-0.853,-0.069,-0.122,2.590,11.410,2.310
157776753,-0.837,-0.078,-0.160,-7.560,7.490,-0.140
157776769,-0.852,-0.135,-0.218,-10.780,8.610,-0.630
157776789,-0.841,-0.227,-0.255,-4.200,11.480,1.470
157776810,-0.945,-0.216,-0.262,9.730,13.370,4.410
157776834,-0.976,-0.149,-0.308,19.670,14.350,8.890
157776853,-1.022,-0.082,-0.366,18.620,14.420,8.680
157776874,-0.985,-0.093,-0.416,5.460,14.840,10.500
157776891,-1.025,-0.114,-0.386,0.980,16.800,14.350
157776915,-1.093,-0.119,-0.326,-2.450,16.520,17.640
157776935,-1.099,-0.166,-0.307,-5.950,14.350,17.850
157776955,-1.061,-0.222,-0.310,0.980,13.160,18.690
157776973,-1.051,-0.175,-0.294,2.870,14.140,19.040
157776990,-1.142,-0.125,-0.269,-2.100,13.720,16.870
157777010,-1.246,-0.130,-0.225,-9.870,13.930,13.370
157777035,-1.293,-0.208,-0.258,-14.630,13.860,9.450
157777051,-1.273,-0.250,-0.295,-7.350,15.820,10.430
157777075,-1.249,-0.265,-0.307,7.420,23.660,9.310
157777093,-1.321,-0.166,-0.234,8.050,25.900,3.990
157777113,-1.395,-0.079,-0.163,-12.390,23.100,-2.590
157777132,-1.419,-0.131,-0.104,-37.520,19.880,-7.280
157777157,-1.391,-0.306,-0.178,-21.210,21.560,-4.690
157777176,-1.390,-0.345,-0.074,0.630,24.780,1.050
157777197,-1.579,-0.722,0.246,69.930,31.010,17.710
157777217,-1.383,-0.346,0.022,136.220,24.850,35.840
157777237,-1.444,0.186,0.042,114.310,11.900,2.030
157777260,-1.475,0.259,0.014,38.290,-0.280,-6.440
157777281,-1.515,0.016,-0.094,-2.450,-7.000,-19.040
157777305,-1.466,-0.210,-0.183,-5.390,-11.830,-15.750
157777323,-1.340,-0.298,-0.223,16.520,-7.560,-3.920
157777345,-1.228,-0.206,-0.195,49.560,0.140,10.920
157777365,-1.257,-0.061,-0.192,51.800,2.520,14.840
157777385,-1.241,-0.014,-0.152,25.550,-6.720,10.080
157777409,-1.079,-0.083,-0.173,6.510,-11.900,5.810
157777429,-1.040,-0.111,-0.243,1.680,-7.210,3.990
157777449,-1.065,-0.165,-0.295,6.440,-4.550,0.210
157777469,-1.050,-0.163,-0.300,14.630,-6.230,0.140
157777489,-0.999,-0.113,-0.217,12.250,-7.560,0.350
157777508,-0.996,-0.055,-0.203,0.490,-8.540,-2.590
157777531,-1.018,-0.109,-0.267,-12.320,-10.220,-5.600
157777551,-0.965,-0.174,-0.296,-7.770,-9.380,-1.470
157777572,-0.986,-0.132,-0.272,0.840,-5.460,-0.630
157777592,-1.046,-0.078,-0.250,-5.460,-9.870,-1.190
157777616,-1.024,-0.074,-0.231,-23.660,-19.670,-0.140
157777637,-0.872,-0.124,-0.203,-28.210,-17.010,4.900
157777656,-0.983,-0.096,-0.251,-31.710,-9.730,5.320
157777671,-1.023,-0.164,-0.253,-32.900,-15.260,7.140
157777696,-0.907,-0.155,-0.234,-32.200,-20.440,8.680
157777714,-0.845,-0.107,-0.206,-34.020,-16.940,7.000
157777738,-0.928,-0.126,-0.246,-33.950,-17.360,0.420
157777759,-0.908,-0.199,-0.243,-19.110,-17.780,1.050
157777775,-0.836,-0.133,-0.183,-6.230,-13.790,2.590
157777794,-0.879,-0.046,-0.148,-9.800,-11.340,-0.140
157777819,-0.896,-0.008,-0.170,-25.130,-13.160,-4.270
157777839,-0.875,-0.071,-0.149,-43.050,-16.730,-5.950
157777859,-0.849,-0.118,-0.133,-42.280,-18.690,-7.490
157777878,-0.845,-0.123,-0.159,-33.250,-17.150,-8.750
157777898,-0.866,-0.142,-0.165,-13.720,-14.420,-8.960
157777916,-0.834,-0.103,-0.136,-3.010,-13.930,-9.380
157777940,-0.823,-0.027,-0.082,-2.380,-11.900,-10.710
157777960,-0.892,-0.022,-0.081,-13.090,-13.020,-11.620
157777975,-0.943,-0.041,-0.101,-19.250,-16.520,-11.900
157778000,-0.864,-0.077,-0.077,-17.080,-19.670,-8.400
157778017,-0.834,-0.111,-0.104,-11.340,-17.290,-8.750
157778040,-0.863,-0.121,-0.097,2.380,-14.560,-3.220
157778060,-0.884,-0.073,-0.069,8.190,-17.360,-2.100
157778084,-0.844,-0.015,-0.037,4.270,-16.940,-2.590
157778100,-0.892,-0.014,-0.028,-4.130,-14.770,-3.710
157778125,-0.970,-0.088,-0.072,-11.270,-16.800,0.560
157778144,-0.962,-0.116,-0.078,-9.380,-17.920,4.970
157778165,-0.872,-0.083,-0.026,-12.880,-17.430,5.740
157778183,-0.876,-0.035,-0.023,-23.170,-17.010,0.840
157778207,-0.897,-0.052,-0.046,-37.520,-16.520,-1.540
157778225,-0.949,-0.099,-0.048,-38.990,-19.810,-4.690
157778247,-0.873,-0.189,-0.024,-29.820,-20.370,-4.410
157778271,-0.862,-0.199,-0.003,-12.250,-14.350,1.120
157778291,-0.936,-0.135,-0.036,-5.600,-14.910,4.410
157778312,-0.936,-0.112,0.005,-7.770,-17.290,6.860
157778328,-0.937,-0.125,0.029,-12.250,-18.130,6.790
157778352,-0.967,-0.116,0.024,-21.700,-20.300,3.710
157778372,-1.036,-0.110,-0.024,-28.910,-22.750,0.070
157778391,-1.047,-0.183,-0.043,-26.810,-27.230,-0.140
157778407,-0.940,-0.222,-0.046,-0.490,-27.580,4.270
157778432,-0.876,-0.214,-0.008,-7.420,-21.630,12.320
157778452,-0.885,-0.189,-0.005,-1.470,-17.290,15.190
157778472,-0.894,-0.160,0.034,0.560,-16.520,12.950
157778492,-0.895,-0.121,0.056,-1.470,-18.620,6.300
157778512,-0.897,-0.095,0.076,-10.710,-19.530,-0.140
157778527,-0.915,-0.134,0.065,-14.420,-19.110,-4.760
157778552,-0.919,-0.175,0.062,-12.950,-18.760,-7.910
157778572,-0.905,-0.191,0.052,-5.250,-15.050,-6.510
157778591,-0.899,-0.184,0.049,5.880,-12.460,-5.670
157778612,-0.854,-0.157,0.048,12.250,-10.150,-4.830
157778632,-0.819,-0.153,0.064,17.290,-4.620,-4.620
157778649,-0.838,-0.104,0.072,15.890,-1.890,-5.320
157778673,-0.824,-0.093,0.057,9.380,0.140,-11.620
157778692,-0.804,-0.113,0.039,6.300,3.360,-15.190
157778713,-0.804,-0.123,0.035,6.650,5.530,-15.050
157778733,-0.781,-0.122,0.020,8.610,7.560,-13.230
157778757,-0.763,-0.120,0.022,8.540,13.020,-10.850
157778774,-0.826,-0.115,0.012,7.770,15.610,-10.290
157778798,-0.856,-0.132,-0.020,7.280,15.820,-12.180
157778816,-0.822,-0.141,-0.030,13.300,16.870,-9.450
157778838,-0.752,-0.119,-0.013,20.370,20.650,-5.740
157778858,-0.795,-0.075,0.016,18.760,24.220,-2.940
157778882,-0.905,-0.095,-0.002,13.230,22.540,-3.010
157778898,-0.924,-0.127,-0.061,14.210,16.800,-1.820
157778922,-0.813,-0.145,-0.088,25.200,14.700,1.960
157778942,-0.794,-0.090,-0.066,30.100,19.040,5.250
157778962,-0.934,-0.105,-0.071,23.170,19.250,5.040
157778986,-1.011,-0.152,-0.138,21.630,12.390,7.070
157779006,-0.922,-0.156,-0.198,26.530,8.960,10.500
157779024,-0.748,-0.122,-0.185,26.670,14.980,11.900
157779048,-0.794,-0.076,-0.127,18.830,21.560,9.240
157779068,-0.992,-0.135,-0.088,6.930,18.410,1.330
157779088,-1.003,-0.215,-0.174,11.410,13.510,-2.240
157779112,-0.910,-0.194,-0.205,21.070,14.560,-1.260
157779132,-0.891,-0.112,-0.208,21.210,16.170,-2.660
157779152,-0.907,-0.056,-0.232,8.330,17.220,-6.230
157779172,-0.986,-0.065,-0.188,-13.090,12.880,-9.380
157779192,-0.915,-0.116,-0.198,-28.420,9.660,-14.280
157779212,-0.874,-0.213,-0.228,-25.760,14.140,-15.050
157779232,-0.931,-0.263,-0.213,-3.570,20.860,-15.470
157779257,-1.049,-0.191,-0.187,24.710,22.120,-14.210
157779272,-1.095,-0.084,-0.193,24.010,14.560,-12.600
157779295,-0.974,-0.053,-0.197,13.650,13.510,-10.010
157779316,-0.985,-0.044,-0.209,-4.410,14.630,-11.760
157779336,-1.088,-0.082,-0.194,-11.060,14.630,-12.740
157779355,-1.154,-0.191,-0.247,-2.520,10.710,-9.870
157779379,-1.142,-0.235,-0.320,12.740,11.270,3.430
157779395,-1.137,-0.231,-0.329,29.820,16.310,10.920
157779418,-1.212,-0.130,-0.280,27.370,16.730,15.680
157779439,-1.396,0.048,-0.179,-2.520,9.030,3.710
157779459,-1.296,-0.182,-0.268,-39.270,5.740,-7.070
157779474,-1.238,-0.417,-0.365,-21.700,35.280,-0.420
157779494,-1.256,-0.419,-0.333,24.710,31.570,11.690
157779519,-1.459,-0.234,-0.193,40.250,35.700,12.250
157779534,-1.568,-0.561,0.125,29.890,30.800,1.120
157779559,-1.496,-0.908,0.045,129.430,21.980,31.500
157779579,-1.406,-0.026,0.027,162.050,17.920,38.010
157779598,-1.470,0.325,0.060,98.140,4.410,12.040
157779622,-1.489,0.142,0.047,14.560,-6.580,-2.100
157779640,-1.428,-0.097,-0.067,-18.060,-10.430,-8.400
157779664,-1.347,-0.321,-0.203,-16.380,-8.190,-5.880
157779684,-1.233,-0.218,-0.195,0.700,-0.560,1.470
157779708,-1.281,-0.162,-0.197,3.920,4.550,2.870
157779728,-1.321,-0.154,-0.249,-0.140,-0.070,3.080
157779752,-1.208,-0.140,-0.240,-5.880,-5.460,2.870
157779770,-1.116,-0.164,-0.210,-9.870,-3.850,4.620
157779788,-1.108,-0.242,-0.200,-0.210,-2.940,5.950
157779812,-1.093,-0.257,-0.213,20.720,-2.030,11.060
157779832,-1.061,-0.159,-0.234,23.240,-4.130,12.110
157779851,-1.021,-0.091,-0.215,7.210,-9.450,9.030
157779870,-0.973,-0.083,-0.193,-13.860,-11.830,6.090
157779891,-0.955,-0.187,-0.269,-19.600,-12.810,4.340
157779915,-0.879,-0.232,-0.279,1.190,-6.650,5.600
157779934,-0.894,-0.108,-0.224,5.390,-3.920,3.920
157779958,-0.990,-0.088,-0.260,-7.280,-3.010,-3.570
157779978,-1.038,-0.164,-0.273,-18.480,-12.320,-2.800
157779995,-0.932,-0.170,-0.228,-22.470,-16.520,2.940
157780014,-0.867,-0.145,-0.206,-24.430,-13.790,4.970
157780039,-0.908,-0.198,-0.225,-21.140,-12.810,-0.770
157780059,-0.925,-0.201,-0.272,-11.830,-15.750,-0.910
157780083,-0.890,-0.143,-0.256,-5.390,-13.790,-2.940
157780103,-0.908,-0.073,-0.166,-14.070,-11.900,-4.270
157780122,-0.914,-0.104,-0.137,-23.940,-15.260,-7.000
157780138,-0.928,-0.088,-0.142,-29.470,-15.960,-8.330
157780162,-0.975,-0.125,-0.177,-29.890,-19.670,-9.870
157780182,-0.923,-0.121,-0.184,-22.890,-21.280,-9.100
157780206,-0.913,-0.117,-0.176,-19.530,-19.460,-5.460
157780222,-0.946,-0.140,-0.171,-13.720,-21.490,-3.990
157780244,-0.872,-0.060,-0.154,-12.320,-25.760,-3.360
157780265,-0.822,-0.037,-0.161,-15.540,-23.450,-3.640
157780284,-0.857,-0.073,-0.150,-16.870,-21.140,-2.310
157780309,-0.868,-0.081,-0.151,-17.710,-22.120,2.030
157780329,-0.867,-0.045,-0.122,-25.830,-23.310,-1.120
157780348,-0.876,-0.082,-0.074,-29.120,-24.920,-2.800
157780372,-0.868,-0.135,-0.092,-18.970,-26.740,-2.240
157780390,-0.842,-0.116,-0.109,-8.190,-25.340,1.330
157780414,-0.857,-0.070,-0.099,-2.660,-24.990,2.940
157780434,-0.895,-0.023,-0.081,-20.090,-29.260,1.120
157780449,-0.892,-0.094,-0.082,-26.180,-30.170,1.890
157780474,-0.874,-0.108,-0.061,-24.570,-28.770,5.530
157780494,-0.858,-0.147,-0.051,-17.640,-22.750,3.220
157780509,-0.895,-0.165,-0.075,-9.450,-21.420,4.480
157780534,-0.854,-0.138,-0.026,-5.180,-22.330,6.790
157780553,-0.819,-0.113,0.013,-5.670,-22.120,6.510
157780576,-0.809,-0.068,0.047,-14.000,-25.270,2.660
157780597,-0.829,-0.096,0.049,-31.990,-29.470,-0.210
157780617,-0.816,-0.160,0.012,-35.630,-31.570,0.070
157780636,-0.774,-0.205,0.008,-30.800,-29.540,1.960
157780656,-0.771,-0.248,0.031,-25.060,-24.990,2.100
157780676,-0.784,-0.274,0.043,-10.640,-22.820,1.820
157780699,-0.772,-0.216,0.065,4.340,-18.690,-0.280
157780717,-0.758,-0.153,0.064,9.590,-13.020,-4.760
157780741,-0.779,-0.145,0.063,6.300,-7.840,-9.240
157780756,-0.809,-0.150,0.046,0.910,-4.340,-8.890
157780781,-0.803,-0.115,0.047,-3.710,-2.170,-7.210
157780800,-0.798,-0.125,0.047,-10.500,-0.280,-8.260
157780821,-0.798,-0.170,0.045,-8.330,1.890,-8.190
157780841,-0.800,-0.190,0.027,0.700,5.110,-5.880
157780861,-0.811,-0.154,0.027,6.440,7.630,-3.850
157780880,-0.830,-0.157,0.027,5.390,7.700,-2.660
157780896,-0.805,-0.164,0.011,3.500,7.140,-1.820
157780921,-0.787,-0.185,0.008,7.280,8.750,0.700
157780941,-0.764,-0.176,-0.012,15.610,12.180,1.050
157780961,-0.855,-0.172,-0.017,21.980,14.490,-0.840
157780976,-0.906,-0.150,-0.041,20.580,13.440,-1.540
157781000,-0.940,-0.117,-0.098,17.640,11.760,-0.420
157781020,-0.842,-0.115,-0.095,14.770,9.240,3.990
157781040,-0.778,-0.118,-0.066,17.220,13.020,7.910
157781064,-0.856,-0.133,-0.086,18.690,17.080,8.190
157781084,-0.958,-0.110,-0.144,19.040,18.130,6.580
157781104,-0.981,-0.102,-0.139,16.030,15.610,3.850
157781120,-0.883,-0.097,-0.123,13.020,13.650,4.830
157781144,-0.834,-0.097,-0.110,12.740,15.330,6.860
157781164,-0.867,-0.124,-0.143,14.350,19.040,4.830
157781184,-0.996,-0.113,-0.148,17.640,18.340,3.780
157781200,-1.004,-0.126,-0.165,21.000,15.470,4.200
157781224,-0.926,-0.115,-0.163,31.990,17.220,9.800
157781240,-0.898,-0.084,-0.171,32.970,19.600,10.710
157781264,-0.968,0.027,-0.162,19.390,19.950,7.560
157781283,-1.111,-0.006,-0.157,-14.840,10.500,-0.420
157781303,-1.052,-0.149,-0.191,-21.630,6.370,1.680
157781325,-1.011,-0.233,-0.221,-2.450,9.380,8.470
157781349,-0.985,-0.215,-0.188,17.430,14.280,13.860
157781369,-1.140,-0.134,-0.194,24.220,15.610,13.160
157781388,-1.168,-0.099,-0.175,19.110,10.430,10.710
157781411,-1.100,-0.117,-0.220,11.410,7.980,5.950
157781432,-1.042,-0.151,-0.234,10.430,12.320,5.740
157781452,-1.108,-0.175,-0.199,6.230,15.400,5.040
157781471,-1.147,-0.203,-0.270,8.190,13.580,7.000
157781492,-1.152,-0.092,-0.246,3.360,11.620,1.400
157781516,-1.099,-0.087,-0.230,-14.840,10.010,-6.930
157781536,-1.170,-0.222,-0.202,-19.250,11.340,-7.210
157781556,-1.159,-0.262,-0.181,-4.480,13.790,-2.800
157781572,-1.182,-0.145,-0.072,4.970,14.840,-4.270
157781594,-1.281,-0.062,-0.088,-5.390,13.720,-10.150
157781618,-1.366,-0.119,-0.136,-11.970,13.580,-13.790
157781638,-1.371,-0.177,-0.193,-2.310,12.530,-12.810
157781657,-1.352,-0.088,-0.190,8.610,15.260,-9.940
157781681,-1.456,-0.039,-0.101,-3.640,11.270,-13.300
157781700,-1.455,-0.167,-0.095,-5.950,8.330,-13.510
157781719,-1.434,-0.246,-0.135,8.470,11.620,-8.330
157781743,-1.449,-0.248,-0.140,35.770,15.190,-1.820
157781761,-1.469,-0.197,-0.163,47.110,13.440,1.680
157781785,-1.443,-0.131,-0.126,41.580,8.050,5.530
157781804,-1.349,-0.087,-0.092,21.770,6.230,3.360
157781823,-1.339,-0.123,-0.133,2.100,7.420,0.700
157781848,-1.335,-0.234,-0.205,-1.750,8.470,0.420
157781863,-1.285,-0.268,-0.255,9.450,7.140,2.450
157781886,-1.142,-0.205,-0.305,18.060,7.070,-0.280
157781903,-1.137,-0.139,-0.245,16.030,8.750,-4.270
157781928,-1.164,-0.140,-0.230,12.460,7.210,-9.660
157781946,-1.077,-0.135,-0.205,18.830,6.230,-8.680
157781966,-1.056,-0.068,-0.238,20.300,10.150,-6.510
157781985,-1.107,-0.116,-0.292,7.140,7.630,-8.120
157782005,-1.055,-0.167,-0.287,3.150,0.210,-1.960
157782030,-0.969,-0.106,-0.225,0.560,-6.020,0.630
157782049,-0.944,-0.060,-0.211,-6.720,-8.680,0.840
157782070,-0.940,-0.093,-0.232,-16.030,-15.400,3.360
157782090,-0.880,-0.160,-0.201,-18.690,-19.880,5.670
157782109,-0.818,-0.139,-0.178,-15.960,-21.980,9.380
157782133,-0.802,-0.102,-0.186,-16.940,-24.150,9.170
157782153,-0.818,-0.119,-0.202,-15.960,-24.920,9.870
157782171,-0.813,-0.119,-0.181,-16.030,-27.860,10.220
157782190,-0.783,-0.103,-0.131,-20.790,-30.240,8.960
157782214,-0.795,-0.095,-0.167,-20.580,-26.530,8.400
157782235,-0.835,-0.147,-0.200,-13.300,-25.130,9.800
157782253,-0.811,-0.172,-0.199,4.620,-20.930,14.700
157782271,-0.826,-0.041,-0.202,11.410,-21.770,13.300
157782291,-0.831,0.108,-0.144,-9.380,-25.130,7.700
157782311,-0.897,0.097,-0.137,-40.880,-28.560,-1.820
157782335,-0.898,0.013,-0.150,-60.970,-33.250,-4.690
157782353,-0.873,0.017,-0.162,-63.980,-32.060,-5.670
157782373,-0.830,-0.103,-0.111,-60.060,-31.640,4.200
157782397,-0.848,-0.142,-0.139,-37.310,-19.530,13.580
157782417,-0.845,-0.115,-0.155,-13.860,-16.170,18.480
157782437,-0.810,-0.050,-0.166,4.900,-5.670,21.210
157782457,-0.874,0.042,-0.183,6.230,1.260,20.300
157782481,-0.924,0.081,-0.179,-7.560,0.910,16.940
157782501,-0.889,0.131,-0.140,-25.480,-0.980,12.390
157782519,-0.902,0.153,-0.108,-44.170,-2.940,6.510
157782541,-1.050,0.071,-0.101,-70.910,-17.990,0.280
157782561,-0.982,-0.041,-0.133,-71.260,-33.110,0.910
157782579,-0.863,-0.098,-0.130,-52.430,-32.760,3.640
157782603,-0.802,-0.045,-0.087,-28.070,-22.540,10.220
157782623,-0.851,0.024,-0.080,-23.870,-16.870,14.490
157782641,-0.938,0.046,-0.093,-32.830,-15.820,17.010
157782661,-0.921,0.046,-0.052,-46.200,-21.980,16.380
157782681,-0.889,0.010,0.124,-57.610,-22.610,13.720
157782705,-0.944,-0.037,-0.009,-61.670,-24.360,11.270
157782725,-0.960,-0.061,0.005,-60.480,-31.360,8.540
157782744,-0.927,-0.064,-0.000,-57.750,-32.690,6.860
157782765,-0.952,-0.060,-0.076,-55.300,-28.980,1.610
157782785,-0.957,-0.111,-0.097,-45.920,-26.810,-2.660
157782809,-0.936,-0.094,-0.075,-34.510,-23.660,-6.370
157782828,-0.957,-0.059,-0.034,-26.880,-15.050,-8.400
157782848,-0.994,-0.049,0.013,-26.250,-12.880,-9.870
157782867,-1.013,-0.059,0.029,-26.950,-12.740,-9.590
157782892,-0.998,-0.082,0.016,-27.300,-11.200,-10.290
157782912,-1.042,-0.105,0.001,-22.750,-8.330,-12.460
157782932,-1.090,-0.070,-0.034,-21.700,-9.240,-16.660
157782950,-1.132,-0.082,-0.053,-21.000,-13.300,-20.370
157782971,-1.087,-0.092,-0.038,-18.620,-16.450,-20.580
157782990,-1.004,-0.065,-0.015,-18.970,-16.380,-17.920
157783010,-1.000,-0.080,0.011,-22.190,-12.460,-15.610
157783029,-1.067,-0.111,-0.037,-23.310,-10.150,-12.740
157783052,-1.055,-0.124,-0.066,-19.460,-13.090,-8.820
157783073,-1.020,-0.081,-0.072,-15.610,-10.430,-8.610
157783095,-1.044,-0.055,-0.091,-21.000,-8.960,-14.630
157783115,-1.026,-0.068,-0.069,-26.880,-9.870,-21.560
157783134,-1.000,-0.046,-0.055,-30.870,-9.870,-27.580
157783159,-1.023,-0.034,-0.066,-38.780,-10.150,-36.400
157783177,-1.009,-0.064,-0.087,-42.700,-10.850,-40.390
157783198,-0.990,-0.081,-0.096,-44.030,-10.080,-41.790
157783221,-0.955,-0.097,-0.077,-45.220,-6.020,-42.490
157783242,-0.988,-0.110,-0.033,-43.260,-1.470,-42.070
157783262,-1.052,-0.144,-0.051,-39.970,-2.590,-41.580
157783286,-1.017,-0.176,-0.042,-33.880,-4.970,-36.260
157783306,-0.986,-0.147,-0.020,-29.750,1.190,-30.940
157783325,-1.054,-0.142,-0.026,-34.440,5.180,-28.560
157783345,-1.118,-0.219,-0.019,-37.240,0.630,-26.180
157783364,-1.059,-0.238,0.000,-34.580,-3.080,-21.490
157783384,-0.992,-0.208,0.004,-29.610,-0.420,-16.310
157783403,-0.986,-0.201,0.000,-29.960,3.920,-14.840
157783423,-1.076,-0.281,0.011,-28.980,7.630,-14.770
157783444,-1.098,-0.313,0.050,-22.120,3.080,-13.790
157783468,-1.034,-0.300,0.040,-12.740,-2.100,-13.160
157783488,-0.929,-0.300,0.055,-2.240,-1.820,-14.700
157783512,-0.944,-0.278,0.097,5.740,-2.030,-17.500
157783532,-0.959,-0.283,0.134,-0.420,-7.210,-26.600
157783550,-0.918,-0.300,0.103,-3.080,-1.470,-30.940
157783570,-0.962,-0.332,0.089,-0.210,2.380,-35.140
157783591,-1.072,-0.257,0.135,-6.300,2.450,-38.780
157783615,-1.030,-0.213,0.154,-31.290,-11.410,-54.600
157783635,-0.843,-0.300,0.120,-42.770,-16.240,-62.090
157783655,-0.713,-0.398,0.056,-29.260,-10.850,-62.790
157783674,-0.715,-0.456,0.018,-10.080,-7.070,-60.340
157783695,-0.732,-0.453,-0.017,14.280,-6.930,-62.790
157783712,-0.739,-0.408,-0.014,28.490,-11.620,-71.120
157783735,-0.690,-0.401,0.024,36.470,-9.730,-77.210
157783755,-0.822,-0.375,0.023,33.460,-9.520,-81.690
157783770,-0.922,-0.349,0.067,20.090,-16.520,-89.320
157783790,-0.921,-0.349,0.055,-5.460,-22.050,-102.620
157783810,-0.915,-0.514,0.018,-20.650,-22.680,-112.070
157783834,-0.868,-0.648,0.032,-18.550,-19.530,-113.890
157783855,-0.754,-0.699,0.090,-11.690,-14.910,-109.060
157783875,-0.680,-0.749,0.090,-0.630,-9.590,-108.010
157783899,-0.704,-0.651,0.038,11.130,-4.620,-107.590
157783922,-0.742,-0.577,-0.025,12.250,-10.430,-108.780
157783941,-0.687,-0.638,0.010,8.750,-19.670,-108.990
157783964,-0.596,-0.695,0.021,8.820,-23.590,-98.490
157783980,-0.575,-0.694,0.007,10.500,-21.980,-88.200
157784005,-0.560,-0.720,-0.022,14.770,-18.200,-79.660
157784024,-0.627,-0.723,-0.039,16.730,-13.440,-73.780
157784042,-0.635,-0.765,-0.019,14.070,-14.770,-66.920
157784065,-0.546,-0.783,0.055,6.510,-11.270,-55.860
157784086,-0.531,-0.818,0.099,-4.970,-1.960,-51.520
157784105,-0.535,-0.913,0.110,-4.830,-0.350,-45.850
157784124,-0.452,-0.950,0.155,3.430,-1.120,-34.650
157784149,-0.280,-0.997,0.132,11.830,2.940,-25.550
157784169,-0.270,-0.938,0.142,14.770,18.200,-17.360
157784188,-0.514,-0.752,0.091,-3.010,15.400,-14.630
157784209,-0.421,-0.883,0.166,-23.870,3.780,-12.530
157784228,-0.329,-0.978,0.154,-24.920,9.660,-1.540
157784253,-0.413,-0.983,0.103,-22.400,11.340,8.610
157784273,-0.433,-1.003,0.115,-16.310,12.110,12.530
157784293,-0.468,-0.847,0.135,-18.200,10.570,18.130
157784312,-0.474,-0.845,0.082,-28.560,4.060,23.520
157784334,-0.468,-0.952,0.058,-34.510,-3.920,30.380
157784353,-0.428,-0.963,0.044,-25.270,1.470,34.230
157784374,-0.512,-0.848,0.066,-14.770,7.700,39.620
157784397,-0.650,-0.746,0.066,-20.720,1.960,43.400
157784417,-0.642,-0.793,0.069,-31.850,-10.990,44.730
157784440,-0.551,-0.863,0.060,-38.710,-16.660,47.880
157784457,-0.557,-0.890,-0.009,-27.650,-9.520,50.890
157784480,-0.664,-0.834,-0.026,-11.620,-4.900,56.560
157784501,-0.700,-0.788,0.029,-7.070,-12.530,54.740
157784519,-0.625,-0.776,0.026,-7.490,-13.230,52.710
157784537,-0.657,-0.738,-0.006,-4.900,-9.380,55.510
157784561,-0.722,-0.704,-0.034,-2.170,-10.500,57.400
157784581,-0.718,-0.703,-0.011,-2.450,-14.770,57.330
157784601,-0.655,-0.717,-0.027,0.630,-14.560,60.200
157784619,-0.701,-0.705,-0.075,7.980,-8.890,66.010
157784639,-0.797,-0.648,-0.081,13.580,-9.380,67.480
157784659,-0.828,-0.609,-0.060,10.640,-13.370,67.270
157784683,-0.781,-0.594,-0.018,6.650,-18.130,67.970
157784698,-0.800,-0.572,-0.011,5.250,-16.100,70.630
157784718,-0.832,-0.565,-0.025,3.920,-18.480,70.210
157784738,-0.750,-0.597,-0.014,4.410,-19.110,69.930
157784763,-0.739,-0.569,0.012,12.740,-13.370,72.870
157784783,-0.791,-0.519,0.041,15.120,-14.070,72.310
157784807,-0.769,-0.529,0.060,12.530,-18.130,66.080
157784826,-0.725,-0.494,0.056,14.770,-14.350,65.030
157784843,-0.814,-0.453,0.022,17.080,-7.140,63.490
157784862,-0.915,-0.441,-0.011,13.860,-8.890,58.240
157784886,-0.884,-0.480,0.020,8.680,-14.000,51.380
157784906,-0.862,-0.471,0.062,7.770,-9.800,49.140
157784930,-0.937,-0.468,0.036,8.260,-5.320,45.640
157784950,-1.025,-0.456,0.039,7.280,-8.260,39.830
157784968,-0.996,-0.440,0.054,4.410,-13.860,35.210
157784988,-0.970,-0.405,0.067,0.140,-15.750,29.190
157785008,-0.942,-0.429,0.059,-3.430,-15.470,24.360
157785032,-0.923,-0.481,0.037,1.120,-12.110,24.220
157785049,-0.955,-0.444,0.040,3.990,-10.220,23.590
157785070,-0.999,-0.414,0.041,2.520,-9.940,19.670
157785094,-1.004,-0.408,0.045,0.560,-11.200,12.320
157785114,-0.973,-0.422,0.065,0.280,-10.920,6.230
157785134,-0.966,-0.398,0.081,0.910,-8.050,0.910
157785154,-0.964,-0.374,0.075,-1.330,-7.630,-3.850
157785173,-0.940,-0.357,0.085,-4.830,-6.160,-5.250
157785190,-0.963,-0.337,0.086,-10.570,-5.250,-9.660
157785214,-0.999,-0.360,0.093,-20.510,-5.880,-17.780
157785234,-1.001,-0.366,0.089,-25.690,-8.260,-21.700
157785253,-0.980,-0.357,0.079,-28.910,-9.380,-24.430
157785271,-0.989,-0.380,0.058,-30.870,-7.630,-26.880
157785291,-0.996,-0.433,0.048,-28.070,-7.910,-27.720
157785315,-0.961,-0.440,0.053,-24.500,-8.050,-28.420
157785335,-0.919,-0.442,0.068,-22.540,-5.040,-28.420
157785355,-0.910,-0.428,0.044,-21.490,-0.210,-28.700
157785375,-0.971,-0.450,0.020,-21.840,-0.560,-32.200
157785395,-0.975,-0.449,0.036,-24.010,-6.230,-36.470
157785417,-0.921,-0.441,0.051,-28.630,-8.120,-42.210
157785440,-0.936,-0.458,0.046,-33.110,-4.900,-47.530
157785461,-0.982,-0.483,0.051,-37.030,-10.640,-49.910
157785476,-0.900,-0.495,0.074,-40.390,-15.050,-51.870
157785496,-0.768,-0.545,0.086,-38.710,-11.270,-52.640
157785521,-0.798,-0.546,0.058,-30.520,-8.050,-52.990
157785540,-0.821,-0.506,0.052,-24.640,-15.540,-55.090
157785561,-0.717,-0.538,0.043,-17.920,-19.670,-59.710
157785578,-0.667,-0.566,0.037,-6.860,-16.870,-60.340
157785602,-0.706,-0.496,0.066,0.910,-12.740,-60.970
157785622,-0.819,-0.482,0.056,-9.030,-15.190,-66.920
157785640,-0.794,-0.562,0.094,-14.630,-18.900,-69.720
157785662,-0.715,-0.576,0.131,-15.750,-16.170,-68.110
157785679,-0.724,-0.576,0.094,-19.460,-11.060,-67.620
157785699,-0.726,-0.645,0.041,-20.790,-13.720,-69.300
157785722,-0.657,-0.712,0.041,-12.110,-13.860,-69.720
157785740,-0.622,-0.661,0.031,0.910,-10.430,-67.620
157785760,-0.585,-0.688,-0.013,8.820,-9.940,-66.010
157785780,-0.568,-0.701,-0.020,15.610,-5.880,-62.580
157785803,-0.633,-0.626,0.004,8.610,-2.030,-62.230
157785823,-0.632,-0.643,0.043,-11.830,-6.440,-67.970
157785843,-0.585,-0.769,0.059,-20.580,-4.900,-68.810
157785863,-0.607,-0.838,0.033,-17.290,-2.100,-65.170
157785887,-0.527,-0.898,0.006,-9.800,-0.350,-59.920
157785911,-0.425,-0.936,-0.013,4.060,14.140,-53.550
157785926,-0.480,-0.874,-0.002,7.140,22.680,-48.580
157785951,-0.551,-0.814,0.025,-8.540,20.090,-46.340
157785971,-0.455,-0.898,0.094,-24.080,15.890,-46.270
157785986,-0.373,-0.972,0.109,-25.690,18.620,-42.770
157786011,-0.364,-0.962,0.061,-16.100,20.510,-35.490
157786031,-0.389,-0.971,-0.021,-3.710,23.170,-30.590
157786051,-0.432,-0.937,-0.002,3.850,22.400,-24.150
157786071,-0.357,-0.931,0.078,-5.040,15.540,-19.390
157786091,-0.284,-1.025,0.037,-6.860,18.550,-12.110
157786106,-0.275,-1.056,0.027,-2.170,23.030,-2.800
157786131,-0.369,-0.941,0.028,-4.480,30.940,3.780
157786150,-0.529,-0.859,-0.003,-26.600,20.860,4.200
157786173,-0.388,-1.037,0.031,-43.470,8.120,8.680
157786192,-0.379,-1.091,-0.034,-34.020,8.820,15.680
157786216,-0.389,-1.064,-0.084,-16.800,6.720,26.530
157786236,-0.368,-0.991,-0.127,2.870,6.930,36.610
157786256,-0.397,-1.004,-0.152,13.720,4.270,43.400
157786276,-0.403,-0.904,-0.107,18.970,5.110,50.680
157786299,-0.427,-0.773,-0.088,14.490,9.310,54.110
157786319,-0.564,-0.744,-0.105,5.880,9.800,56.630
157786339,-0.599,-0.756,-0.081,-4.340,5.040,57.540
157786361,-0.530,-0.779,-0.007,-16.520,4.130,55.720
157786385,-0.578,-0.749,-0.023,-19.600,7.560,59.220
157786404,-0.677,-0.743,-0.052,-21.770,3.780,60.410
157786423,-0.751,-0.749,-0.084,-23.310,-3.640,62.440
157786443,-0.691,-0.821,-0.105,-18.200,-12.320,64.610
157786463,-0.607,-0.826,-0.140,-2.520,-8.050,70.280
157786487,-0.689,-0.784,-0.136,9.520,-5.600,73.990
157786507,-0.740,-0.692,-0.070,9.870,-11.410,74.270
157786526,-0.746,-0.636,-0.041,3.990,-19.250,71.890
157786546,-0.739,-0.667,-0.079,2.100,-24.850,68.950
157786570,-0.739,-0.691,-0.124,10.080,-25.830,68.810
157786589,-0.769,-0.636,-0.107,16.170,-23.240,70.140
157786609,-0.799,-0.583,-0.056,18.270,-24.640,70.560
157786628,-0.785,-0.536,-0.025,15.330,-25.620,71.330
157786653,-0.804,-0.539,-0.056,9.730,-22.750,71.190
157786669,-0.845,-0.580,-0.080,9.590,-21.070,71.260
157786689,-0.852,-0.555,-0.051,13.580,-20.440,73.780
157786713,-0.831,-0.512,-0.039,16.030,-19.390,74.690
157786733,-0.812,-0.502,-0.027,21.420,-16.800,75.530
157786753,-0.797,-0.465,0.015,22.820,-16.030,75.250
157786770,-0.810,-0.426,0.027,22.330,-13.650,74.620
157786792,-0.864,-0.414,-0.000,22.260,-12.040,70.420
157786814,-0.844,-0.410,0.015,23.590,-13.300,67.410
157786838,-0.841,-0.386,0.070,25.620,-10.500,66.710
157786854,-0.874,-0.330,0.083,22.960,-11.690,66.220
157786878,-0.902,-0.300,0.061,17.430,-12.040,62.930
157786897,-0.929,-0.325,0.024,15.540,-13.790,61.040
157786918,-0.898,-0.342,0.027,19.600,-15.190,60.270
157786938,-0.840,-0.322,0.054,27.440,-12.880,60.620
157786953,-0.804,-0.295,0.041,34.510,-6.300,60.690
157786976,-0.879,-0.258,0.021,43.540,2.310,61.460
157786997,-0.975,-0.213,0.039,45.780,2.800,55.370
157787015,-1.035,-0.175,0.057,40.460,-2.660,46.970
157787039,-1.008,-0.153,0.055,30.030,-7.280,39.550
157787059,-1.048,-0.193,0.043,27.370,-8.470,32.550
157787080,-1.035,-0.249,0.023,34.300,-7.140,31.360
157787100,-1.049,-0.242,0.011,46.410,-2.730,31.360
157787120,-1.066,-0.198,0.031,54.250,3.010,30.450
157787139,-1.093,-0.131,0.061,53.130,6.160,26.110
157787164,-1.085,-0.081,0.093,38.570,6.860,18.760
157787183,-1.105,-0.068,0.086,25.340,8.260,11.760
157787203,-1.137,-0.073,0.060,13.440,7.630,3.780
157787223,-1.148,-0.094,0.052,3.220,6.230,-3.010
157787243,-1.122,-0.113,0.083,-3.920,4.550,-6.300
157787267,-1.102,-0.117,0.091,-7.350,6.160,-6.860
157787286,-1.142,-0.106,0.078,-16.800,3.920,-7.210
157787306,-1.186,-0.151,0.081,-23.800,0.420,-8.750
157787326,-1.194,-0.191,0.068,-25.550,-6.790,-11.130
157787350,-1.120,-0.230,0.067,-21.070,-10.640,-12.530
157787370,-1.055,-0.229,0.080,-13.370,-9.520,-13.790
157787389,-1.041,-0.203,0.100,-10.430,-8.820,-16.030
157787408,-1.034,-0.181,0.084,-11.340,-9.380,-19.740
157787427,-1.046,-0.171,0.062,-13.160,-10.570,-24.710
157787446,-1.048,-0.166,0.066,-15.610,-15.330,-29.960
157787471,-1.006,-0.146,0.077,-19.600,-17.570,-35.280
157787490,-0.997,-0.152,0.062,-22.260,-18.550,-38.990
157787507,-0.982,-0.177,0.061,-21.770,-19.180,-41.230
157787531,-0.968,-0.198,0.067,-18.900,-18.900,-44.380
157787549,-0.977,-0.203,0.055,-15.680,-16.870,-46.620
157787573,-1.012,-0.199,0.067,-12.950,-15.890,-50.120
157787593,-1.007,-0.175,0.105,-16.170,-16.380,-52.780
157787613,-0.986,-0.185,0.135,-24.640,-16.940,-57.610
157787637,-0.955,-0.193,0.129,-36.120,-14.630,-60.760
157787657,-0.930,-0.195,0.117,-44.730,-11.270,-62.930
157787677,-0.935,-0.218,0.130,-71.330,-8.400,-65.240
157787696,-0.946,-0.255,0.162,-65.240,-10.710,-69.090
157787719,-0.887,-0.312,0.135,-73.850,-10.640,-71.890
157787738,-0.848,-0.363,0.094,-70.700,-8.750,-71.400
157787763,-0.827,-0.413,0.066,-62.720,-10.920,-71.120
157787783,-0.769,-0.456,0.061,-51.310,-9.590,-71.470
157787803,-0.767,-0.484,0.038,-31.850,-4.130,-69.790
157787821,-0.782,-0.443,0.043,-24.500,-0.630,-68.530
157787843,-0.793,-0.441,0.067,-26.250,-1.400,-71.400
157787863,-0.788,-0.475,0.041,-32.130,1.960,-73.010
157787883,-0.844,-0.510,0.023,-35.070,2.870,-74.130
157787902,-0.820,-0.500,0.050,-41.160,-1.820,-75.950
157787921,-0.705,-0.547,0.057,-48.510,-1.890,-77.700
157787941,-0.675,-0.652,0.014,-46.690,-0.910,-75.810
157787964,-0.596,-0.714,0.001,-35.420,1.120,-69.300
157787985,-0.563,-0.714,-0.003,-15.890,8.260,-65.170
157788005,-0.636,-0.634,-0.036,-7.140,8.400,-69.020
157788028,-0.652,-0.637,-0.037,-10.920,-0.910,-77.910
157788048,-0.605,-0.711,-0.074,-11.690,-2.660,-79.800
157788068,-0.619,-0.748,-0.069,-6.090,-1.540,-72.730
157788092,-0.651,-0.763,-0.092,-4.970,-0.490,-66.990
157788112,-0.621,-0.819,-0.117,-4.970,1.400,-62.440
157788129,-0.561,-0.837,-0.102,-3.080,6.650,-57.120
157788150,-0.544,-0.825,-0.034,-6.720,14.630,-49.770
157788170,-0.594,-0.771,-0.000,-17.710,17.430,-43.260
157788192,-0.583,-0.831,-0.040,-32.060,9.100,-37.870
157788213,-0.426,-0.990,-0.127,-22.610,3.920,-29.610
157788233,-0.275,-0.978,-0.171,1.820,11.620,-14.770
157788257,-0.336,-0.812,-0.127,13.300,24.080,-3.500
157788277,-0.469,-0.706,-0.061,-6.580,16.730,-0.840
157788295,-0.545,-0.769,-0.037,-24.220,7.840,2.310
157788314,-0.574,-0.897,-0.106,-34.020,2.590,8.050
157788339,-0.612,-1.029,-0.202,-19.950,9.800,25.410
157788358,-0.509,-1.066,-0.103,-7.630,13.440,38.220
157788378,-0.424,-1.100,-0.087,5.740,23.870,46.340
157788401,-0.570,-0.906,-0.093,10.850,31.360,48.230
157788421,-0.721,-0.744,-0.085,-2.380,24.990,46.970
157788441,-0.630,-0.819,-0.050,-22.540,6.090,44.590
157788460,-0.436,-0.945,-0.071,-21.770,5.460,48.300
157788485,-0.522,-0.881,-0.152,-5.390,13.020,54.250
157788500,-0.671,-0.783,-0.179,6.720,11.270,55.580
157788524,-0.688,-0.657,-0.113,15.750,8.960,57.190
157788545,-0.696,-0.642,-0.055,8.960,1.750,58.800
157788564,-0.716,-0.715,-0.119,2.450,-1.960,59.640
157788587,-0.787,-0.743,-0.176,4.550,-1.190,61.320
157788608,-0.793,-0.729,-0.139,14.210,1.120,59.430
157788630,-0.770,-0.614,-0.099,18.550,0.770,59.710
157788654,-0.752,-0.586,-0.142,10.360,-4.550,64.750
157788673,-0.807,-0.671,-0.209,11.480,-7.070,67.690
157788692,-0.799,-0.692,-0.213,16.590,-11.830,63.560
157788712,-0.741,-0.611,-0.142,27.790,-7.490,59.990
157788736,-0.845,-0.453,-0.091,24.150,-9.100,52.920
157788755,-0.827,-0.497,-0.076,10.780,-19.670,50.540
157788779,-0.762,-0.595,-0.049,5.390,-23.800,52.640
157788799,-0.765,-0.614,-0.066,14.560,-19.950,52.500
157788819,-0.869,-0.594,-0.149,25.900,-15.470,50.610
157788838,-0.929,-0.548,-0.180,41.650,-20.020,46.830
157788858,-0.847,-0.527,-0.122,49.770,-21.910,43.610
157788879,-0.806,-0.462,-0.070,50.890,-16.450,46.620
157788900,-0.884,-0.441,-0.060,44.450,-12.110,47.250
157788924,-0.920,-0.431,-0.055,33.530,-12.040,46.060
157788942,-0.971,-0.414,-0.091,28.490,-7.980,42.770
157788963,-1.035,-0.415,-0.085,22.820,-9.520,36.120
157788983,-0.977,-0.429,-0.014,15.120,-14.420,31.500
157789007,-0.875,-0.428,0.020,9.450,-12.950,33.810
157789026,-0.876,-0.426,-0.014,10.780,-6.720,37.030
157789045,-0.931,-0.438,-0.053,13.090,-4.830,35.770
157789064,-0.937,-0.430,-0.038,16.800,-6.090,33.670
157789084,-0.918,-0.376,-0.007,18.060,-7.280,30.800
157789104,-0.913,-0.320,0.014,12.530,-9.380,27.580
157789123,-0.895,-0.324,0.012,5.740,-10.570,24.850
157789148,-0.905,-0.378,-0.011,5.180,-7.700,21.770
157789166,-0.956,-0.370,-0.017,8.750,-6.090,20.440
157789187,-0.987,-0.335,0.000,9.870,-5.810,17.080
157789211,-1.008,-0.293,0.019,4.830,-9.100,12.530
157789231,-0.969,-0.312,0.042,-3.570,-11.900,10.640
157789251,-0.937,-0.318,0.062,-8.330,-12.880,10.850
157789270,-0.932,-0.329,0.037,-7.560,-9.870,12.460
157789290,-0.968,-0.327,0.026,-6.160,-8.960,13.300
157789313,-1.000,-0.341,0.032,-2.730,-9.730,13.930
157789330,-0.989,-0.354,0.026,0.420,-11.060,14.490
157789354,-0.922,-0.347,0.038,4.130,-9.520,17.150
157789373,-0.879,-0.305,0.067,6.090,-4.060,17.360
157789394,-0.916,-0.267,0.080,-0.280,3.500,13.860
157789414,-1.029,-0.268,0.053,-8.820,2.170,7.210
157789433,-1.029,-0.287,0.048,-15.260,-4.900,0.490
157789453,-0.948,-0.299,0.080,-20.230,-7.070,-3.360
157789473,-0.926,-0.281,0.076,-23.590,-5.600,-5.040
157789492,-0.958,-0.299,0.028,-24.500,-2.240,-6.090
157789515,-1.032,-0.351,-0.027,-22.120,-3.430,-7.560
157789539,-1.024,-0.357,-0.017,-15.750,-6.370,-7.350
157789559,-0.991,-0.314,0.008,-14.070,-5.320,-8.610
157789579,-0.981,-0.300,0.017,-18.200,-2.590,-11.130
157789597,-0.978,-0.335,0.022,-21.420,-1.260,-14.140
157789618,-0.954,-0.309,0.040,-24.990,-0.140,-17.920
157789640,-0.932,-0.280,0.065,-33.810,1.260,-25.830
157789664,-0.963,-0.271,0.050,-43.820,-0.350,-37.240
157789683,-0.954,-0.298,0.023,-52.570,-6.300,-43.330
157789702,-0.909,-0.308,0.007,-54.600,-7.630,-46.900
157789727,-0.928,-0.324,-0.011,-55.230,-4.760,-51.660
157789747,-0.946,-0.397,-0.015,-53.340,-7.210,-54.670
157789765,-0.820,-0.449,0.026,-46.480,-5.950,-53.200
157789785,-0.753,-0.448,0.025,-36.820,0.560,-51.240
157789808,-0.756,-0.431,0.009,-28.350,2.240,-51.660
157789829,-0.758,-0.388,-0.017,-23.870,0.070,-54.110
157789848,-0.802,-0.353,-0.049,-26.320,-2.870,-59.780
157789867,-0.837,-0.429,-0.065,-28.910,-7.210,-68.950
157789891,-0.820,-0.502,-0.048,-26.600,-7.140,-73.150
157789915,-0.813,-0.529,-0.072,-19.040,0.350,-71.330
157789935,-0.800,-0.554,-0.069,-16.450,7.630,-70.350
157789954,-0.812,-0.602,-0.059,-13.440,15.540,-67.830
157789974,-0.875,-0.607,-0.086,-9.730,19.740,-67.690
157789994,-0.871,-0.575,-0.074,-13.790,17.080,-69.300
157790018,-0.795,-0.591,-0.072,-23.520,14.700,-72.170
157790037,-0.785,-0.653,-0.127,-24.080,16.100,-71.260
157790061,-0.741,-0.685,-0.141,-18.550,15.330,-67.480
157790085,-0.658,-0.743,-0.151,-8.050,19.040,-63.490
157790105,-0.608,-0.760,-0.163,7.070,26.040,-57.890
157790128,-0.648,-0.684,-0.140,11.620,28.560,-50.260
157790149,-0.630,-0.664,-0.106,-2.450,20.160,-49.420
157790169,-0.573,-0.745,-0.174,-6.090,19.740,-47.600
157790188,-0.609,-0.771,-0.187,-3.220,20.160,-42.630
157790213,-0.637,-0.759,-0.184,-2.660,20.440,-32.760
157790233,-0.635,-0.787,-0.187,-6.510,17.640,-21.840
157790251,-0.677,-0.833,-0.216,-8.680,16.870,-11.690
157790270,-0.719,-0.913,-0.221,-7.700,13.300,1.750
157790291,-0.642,-0.916,-0.195,-2.660,10.710,12.320
157790315,-0.610,-0.925,-0.204,2.800,10.290,24.150
157790335,-0.606,-0.903,-0.177,6.790,7.840,32.970
157790355,-0.628,-0.844,-0.181,8.050,4.200,35.140
157790375,-0.688,-0.831,-0.189,10.640,0.770,36.330
157790394,-0.700,-0.805,-0.186,12.810,-2.870,39.480
157790415,-0.671,-0.778,-0.168,14.490,-5.950,46.130
157790432,-0.663,-0.788,-0.163,16.870,-6.580,51.170
157790453,-0.685,-0.761,-0.162,19.390,-5.880,55.720
157790474,-0.749,-0.737,-0.167,23.450,-5.600,57.330
157790493,-0.792,-0.694,-0.174,27.160,-7.840,57.470
157790513,-0.787,-0.626,-0.153,24.710,-11.620,58.730
157790537,-0.737,-0.661,-0.177,20.790,-13.440,60.060
157790561,-0.721,-0.730,-0.157,27.300,-10.080,61.530
157790581,-0.736,-0.688,-0.136,39.060,-5.950,62.720
157790600,-0.759,-0.598,-0.098,42.420,-6.860,60.760
157790619,-0.741,-0.508,-0.079,37.240,-9.730,57.960
157790636,-0.733,-0.485,-0.080,31.080,-12.460,56.350
157790657,-0.727,-0.521,-0.099,26.880,-12.950,52.990
157790678,-0.756,-0.547,-0.079,29.050,-9.520,51.100
157790702,-0.864,-0.501,-0.089,35.350,-9.450,48.720
157790718,-0.874,-0.474,-0.066,37.800,-12.460,47.250
157790737,-0.840,-0.480,-0.078,39.550,-11.830,44.660
157790761,-0.844,-0.496,-0.085,45.360,-8.610,45.990
157790781,-0.875,-0.472,-0.058,51.310,-4.830,50.540
157790801,-0.926,-0.436,-0.052,52.640,-4.970,52.430
157790821,-0.940,-0.416,-0.034,51.450,-6.510,51.170
157790845,-0.942,-0.415,-0.043,51.660,-4.970,48.790
157790864,-0.959,-0.432,-0.058,52.780,-2.870,45.920
157790885,-0.947,-0.416,-0.029,54.110,-1.260,44.660
157790901,-0.918,-0.381,0.016,53.060,2.590,42.490
157790920,-0.924,-0.333,0.038,47.040,5.320,38.920
157790945,-0.939,-0.326,0.048,36.960,6.370,32.550
157790965,-0.941,-0.334,0.052,25.270,7.910,24.500
157790985,-0.928,-0.341,0.040,17.080,10.710,20.230
157791000,-0.949,-0.320,0.037,16.310,12.110,17.850
157791020,-0.983,-0.302,0.072,11.270,8.750,13.510
157791041,-0.987,-0.276,0.086,2.240,3.290,9.870
157791065,-0.982,-0.303,0.052,-5.180,2.100,2.660
157791085,-0.980,-0.343,0.010,-1.890,1.680,2.100
157791104,-0.983,-0.359,0.023,6.090,3.360,1.890
157791123,-1.004,-0.334,0.048,9.940,3.850,1.820
157791141,-0.999,-0.304,0.085,6.860,1.610,-0.070
157791165,-0.973,-0.306,0.072,-0.630,3.430,-2.660
157791185,-1.017,-0.319,0.065,-5.250,1.120,-6.720
157791204,-1.029,-0.338,0.091,-9.030,-2.660,-9.940
157791227,-1.002,-0.324,0.092,-12.810,-6.930,-11.340
157791245,-0.983,-0.311,0.070,-16.310,-8.750,-10.990
157791269,-0.961,-0.325,0.061,-19.040,-11.900,-8.050
157791289,-0.922,-0.376,0.036,-16.310,-11.690,-8.260
157791309,-0.899,-0.383,0.041,-9.380,-10.080,-7.350
157791332,-0.895,-0.349,0.036,-5.880,-11.480,-9.940
157791352,-0.892,-0.307,0.041,-6.440,-13.440,-14.140
157791373,-0.909,-0.303,0.019,-10.150,-14.980,-19.530
157791391,-0.943,-0.332,-0.010,-11.270,-16.170,-21.070
157791415,-0.933,-0.329,-0.010,-10.640,-16.870,-20.300
157791434,-0.913,-0.311,-0.001,-11.550,-15.610,-19.110
157791453,-0.910,-0.291,-0.006,-16.240,-13.720,-18.270
157791474,-0.917,-0.321,-0.013,-21.840,-12.110,-18.620
157791498,-0.915,-0.358,0.005,-22.820,-11.900,-18.410
157791515,-0.862,-0.364,0.016,-23.240,-11.410,-19.810
157791535,-0.839,-0.364,0.014,-23.870,-9.380,-21.140
157791559,-0.889,-0.369,0.009,-26.250,-10.710,-23.310
157791578,-0.914,-0.397,-0.006,-27.720,-15.680,-25.550
157791597,-0.847,-0.435,-0.016,-24.150,-18.060,-24.850
157791619,-0.794,-0.468,-0.018,-17.780,-15.120,-22.750
157791641,-0.808,-0.452,-0.010,-8.470,-10.010,-19.600
157791660,-0.869,-0.441,-0.019,-6.720,-7.770,-19.880
157791685,-0.887,-0.452,-0.019,-8.820,-8.680,-23.940
157791705,-0.861,-0.462,-0.015,-12.040,-8.120,-27.860
157791725,-0.814,-0.462,0.022,-15.470,-5.250,-30.590
157791745,-0.808,-0.453,0.011,-20.020,-1.960,-32.410
157791764,-0.824,-0.473,-0.021,-27.090,-0.560,-33.180
157791783,-0.823,-0.530,-0.030,-28.210,-1.190,-31.500
157791802,-0.783,-0.597,-0.015,-24.360,-1.120,-31.850
157791826,-0.768,-0.662,-0.042,-9.800,5.040,-34.440
157791847,-0.802,-0.634,-0.077,7.210,7.560,-35.140
157791867,-0.793,-0.535,-0.039,11.200,6.650,-36.820
157791886,-0.759,-0.542,-0.018,-0.490,6.230,-45.920
157791910,-0.734,-0.616,-0.032,-8.260,11.200,-52.500
157791930,-0.755,-0.622,-0.040,-7.980,16.310,-53.410
157791949,-0.800,-0.616,-0.042,-6.230,17.780,-53.900
157791968,-0.791,-0.578,-0.037,-8.960,18.270,-54.110
157791990,-0.852,-0.649,-0.063,-14.840,20.020,-55.160
157792009,-0.853,-0.697,-0.077,-12.600,18.900,-52.710
157792031,-0.802,-0.718,-0.019,-10.920,17.920,-50.050
157792050,-0.742,-0.746,-0.023,-7.840,19.880,-46.060
157792075,-0.778,-0.732,-0.073,-3.290,24.150,-38.780
157792093,-0.760,-0.730,-0.067,-4.270,25.200,-35.350
157792115,-0.700,-0.748,-0.020,-8.610,26.740,-32.550
157792135,-0.667,-0.758,-0.002,-12.320,27.370,-28.700
157792151,-0.684,-0.783,-0.057,-10.010,27.300,-24.360
157792170,-0.756,-0.740,-0.122,-6.720,28.140,-16.660
157792195,-0.750,-0.787,-0.110,-13.650,22.330,-10.570
157792210,-0.720,-0.834,-0.075,-17.640,22.750,-5.180
157792235,-0.808,-0.775,-0.095,-24.010,20.440,-0.910
157792254,-0.866,-0.791,-0.123,-28.490,8.890,2.590
157792275,-0.759,-0.903,-0.101,-19.180,2.170,14.490
157792295,-0.721,-0.882,-0.108,-7.980,0.070,23.380
157792315,-0.747,-0.816,-0.136,-4.970,-4.480,28.000
157792333,-0.783,-0.784,-0.180,-0.350,-7.840,28.560
157792353,-0.816,-0.765,-0.200,5.180,-13.160,29.610
157792377,-0.753,-0.747,-0.183,7.910,-14.490,33.740
157792395,-0.713,-0.722,-0.155,7.980,-10.990,38.010
157792416,-0.754,-0.698,-0.176,7.210,-9.870,41.160
157792436,-0.738,-0.706,-0.181,10.360,-10.920,41.020
157792459,-0.750,-0.646,-0.161,16.100,-8.050,40.390
157792482,-0.777,-0.601,-0.148,11.830,-9.380,35.910
157792503,-0.785,-0.601,-0.145,2.940,-12.180,33.250
157792523,-0.760,-0.642,-0.148,1.050,-13.580,34.650
157792541,-0.750,-0.649,-0.132,4.760,-10.430,36.680
157792562,-0.782,-0.622,-0.121,8.960,-8.680,36.470
157792586,-0.808,-0.584,-0.103,10.990,-9.100,33.880
157792603,-0.808,-0.541,-0.059,8.540,-13.510,33.460
157792627,-0.808,-0.507,-0.042,1.960,-18.130,34.300
157792646,-0.787,-0.486,-0.030,-3.150,-21.560,35.700
157792665,-0.802,-0.459,-0.015,-8.400,-26.530,39.550
157792687,-0.822,-0.409,-0.016,-14.700,-35.070,38.220
157792711,-0.775,-0.480,-0.017,-16.450,-43.610,33.390
157792731,-0.860,-0.599,0.105,-7.630,-49.700,34.930
157792751,-0.915,-0.748,0.161,16.800,-57.470,38.430
157792769,-0.686,-1.007,-0.093,82.180,-41.930,57.050
157792789,-0.793,-1.384,0.001,246.190,-5.600,124.950
157792808,-0.957,-1.077,0.159,418.040,7.630,194.390
157792833,-1.147,-0.327,0.203,479.080,-3.430,237.370
157792853,-1.114,-0.405,0.251,488.670,-22.050,259.840
157792873,-0.946,-0.259,0.096,540.960,-20.720,288.890
157792893,-0.895,0.471,0.066,525.350,-9.170,302.960
157792915,-1.011,0.817,0.208,388.920,-9.170,281.540
157792938,-1.101,0.764,0.185,240.730,-28.210,250.670
157792962,-1.103,0.580,0.178,150.290,-23.310,216.230
157792980,-1.047,0.526,0.182,99.050,-26.110,185.570
157793000,-0.948,0.324,0.174,54.040,-25.200,158.340
157793024,-0.866,0.291,0.148,40.530,-19.740,129.920
157793043,-0.835,0.361,0.095,6.720,-20.930,104.930
157793061,-0.784,0.326,0.066,-31.150,-26.950,74.410
157793083,-0.652,0.190,-0.003,-42.140,-26.880,46.620
157793106,-0.591,0.304,-0.052,-52.920,-22.820,12.670
157793130,-0.637,0.539,-0.005,-112.280,-31.430,-29.330
157793150,-0.620,0.488,0.013,-192.430,-46.480,-68.600
157793170,-0.505,0.231,-0.023,-210.070,-50.190,-94.290
157793192,-0.428,0.237,-0.094,-202.930,-29.120,-100.310
157793214,-0.504,0.281,-0.052,-193.200,-9.450,-102.900
157793233,-0.692,0.362,0.006,-190.540,1.960,-109.410
157793257,-0.779,0.340,0.079,-209.440,2.310,-125.230
157793277,-0.734,0.319,0.115,-226.240,8.330,-130.410
157793295,-0.734,0.203,0.189,-231.280,9.450,-124.950
157793317,-0.799,0.101,0.305,-228.410,14.490,-122.430
157793337,-0.834,0.032,0.348,-223.370,20.020,-110.390
157793358,-0.859,-0.222,0.347,-193.410,41.160,-87.010
157793377,-0.910,-0.386,0.348,-130.620,66.850,-63.560
157793395,-1.003,-0.399,0.341,-66.290,85.960,-41.370
157793415,-1.135,-0.267,0.482,-23.310,86.450,-30.730
157793439,-1.180,-0.136,0.529,-25.760,76.020,-37.940
157793459,-1.122,-0.120,0.439,-49.630,70.630,-43.820
157793479,-1.092,-0.231,0.381,-51.450,70.280,-41.580
157793499,-1.073,-0.224,0.389,-47.810,70.770,-38.290
157793518,-1.119,-0.244,0.444,-50.890,67.270,-39.410
157793542,-1.105,-0.271,0.454,-53.130,58.730,-40.110
157793561,-1.040,-0.268,0.409,-51.240,53.620,-41.370
157793586,-0.985,-0.259,0.336,-47.810,51.730,-43.540
157793605,-0.966,-0.262,0.320,-44.100,52.080,-45.290
157793624,-1.017,-0.298,0.342,-42.420,46.690,-49.560
157793645,-1.050,-0.299,0.301,-42.000,41.510,-52.220
157793669,-1.040,-0.297,0.251,-42.140,30.660,-52.920
157793689,-0.994,-0.289,0.221,-42.000,27.020,-53.760
157793709,-0.987,-0.329,0.186,-42.000,24.780,-53.830
157793728,-0.969,-0.355,0.177,-38.360,23.310,-49.420
157793749,-0.989,-0.259,0.186,-48.510,20.510,-47.950
157793769,-1.050,-0.283,0.158,-69.790,12.180,-50.470
157793793,-1.066,-0.436,0.102,-75.950,-2.100,-51.660
157793813,-0.912,-0.562,0.030,-62.370,-10.010,-49.770
157793833,-0.764,-0.603,-0.006,-28.420,-3.710,-41.370
157793849,-0.764,-0.542,0.017,-7.770,1.610,-37.660
157793869,-0.841,-0.439,0.004,-0.560,0.910,-38.290
157793893,-0.879,-0.403,0.006,-11.480,-7.420,-44.380
157793912,-0.790,-0.468,0.019,-24.850,-13.860,-47.600
157793932,-0.772,-0.483,-0.017,-27.090,-8.400,-48.090
157793952,-0.831,-0.510,-0.061,-27.580,-3.500,-47.600
157793975,-0.883,-0.502,-0.074,-30.450,-4.480,-44.380
157793995,-0.867,-0.517,-0.056,-36.190,-5.880,-41.930
157794014,-0.865,-0.576,-0.071,-40.530,-4.340,-42.630
157794034,-0.879,-0.642,-0.095,-38.080,-0.630,-41.650
157794059,-0.889,-0.656,-0.081,-31.010,-3.010,-35.070
157794079,-0.774,-0.604,-0.014,-26.810,-4.060,-29.820
157794094,-0.756,-0.579,-0.022,-27.230,-1.400,-25.550
157794118,-0.752,-0.675,-0.059,-25.480,-0.840,-24.360
157794139,-0.706,-0.772,-0.056,-7.910,-1.260,-22.260
157794159,-0.676,-0.666,-0.033,6.020,0.350,-21.350
157794178,-0.715,-0.543,-0.028,4.760,0.490,-24.430
157794203,-0.794,-0.531,-0.068,-8.120,-8.400,-32.410
157794218,-0.750,-0.680,-0.086,-17.500,-12.810,-37.380
157794238,-0.666,-0.746,-0.065,-10.360,-9.380,-35.770
157794259,-0.669,-0.650,-0.033,-3.430,-4.270,-34.860
157794283,-0.692,-0.601,-0.038,-8.400,-2.800,-39.620
157794302,-0.693,-0.621,-0.039,-14.210,-3.360,-42.840
157794322,-0.638,-0.651,-0.029,-19.810,-2.800,-47.460
157794345,-0.596,-0.659,-0.046,-24.640,-0.770,-49.630
157794364,-0.618,-0.692,-0.049,-23.240,-0.420,-48.720
157794383,-0.681,-0.695,-0.073,-20.580,-3.500,-46.340
157794407,-0.683,-0.722,-0.101,-19.040,-9.100,-46.130
157794427,-0.707,-0.732,-0.119,-13.510,-9.870,-43.960
157794446,-0.691,-0.767,-0.089,-8.400,-10.360,-41.160
157794469,-0.630,-0.798,-0.070,-3.990,-8.820,-33.880
157794488,-0.609,-0.797,-0.086,-3.640,-4.200,-29.890
157794512,-0.631,-0.811,-0.115,-8.680,-1.190,-26.950
157794532,-0.626,-0.810,-0.080,-14.910,-2.240,-24.990
157794551,-0.647,-0.860,-0.093,-20.020,-1.190,-23.590
157794571,-0.643,-0.954,-0.159,-17.290,-2.800,-21.560
157794595,-0.522,-0.956,-0.148,-9.730,-3.920,-12.110
157794615,-0.410,-0.888,-0.139,-3.990,5.530,-4.480
157794635,-0.564,-0.834,-0.140,-6.300,12.880,-0.140
157794655,-0.606,-0.794,-0.087,-22.120,0.000,1.820
157794677,-0.510,-0.894,-0.104,-34.230,-3.150,5.950
157794701,-0.550,-0.959,-0.174,-22.960,-0.490,17.710
157794720,-0.598,-0.907,-0.179,-13.930,-1.260,27.510
157794741,-0.586,-0.854,-0.140,-13.930,-3.150,34.370
157794760,-0.618,-0.892,-0.135,-11.480,-3.710,41.510
157794784,-0.654,-0.869,-0.133,-9.800,-6.510,48.160
157794804,-0.610,-0.846,-0.110,-4.060,-9.310,52.640
157794824,-0.584,-0.829,-0.120,3.640,-10.500,56.140
157794843,-0.616,-0.786,-0.141,7.980,-10.500,57.820
157794863,-0.679,-0.734,-0.151,7.910,-13.370,55.230
157794884,-0.678,-0.712,-0.107,6.370,-15.960,52.430
157794904,-0.702,-0.679,-0.100,2.870,-17.290,52.780
157794924,-0.714,-0.710,-0.138,3.990,-17.920,55.020
157794942,-0.731,-0.750,-0.137,9.590,-16.940,55.580
157794959,-0.754,-0.730,-0.115,16.240,-15.960,55.930
157794984,-0.772,-0.664,-0.091,23.590,-16.030,54.110
157795000,-0.798,-0.621,-0.122,26.040,-17.500,53.340
157795020,-0.764,-0.661,-0.126,25.480,-20.440,54.670
157795040,-0.753,-0.663,-0.124,28.420,-16.730,56.560
157795063,-0.771,-0.586,-0.075,27.930,-14.420,56.840
157795083,-0.815,-0.573,-0.046,25.760,-16.100,51.730
157795107,-0.829,-0.583,-0.059,24.990,-20.090,47.600
157795126,-0.824,-0.596,-0.081,28.630,-22.190,47.740
157795144,-0.798,-0.636,-0.132,35.490,-21.210,46.970
157795165,-0.811,-0.612,-0.123,49.000,-15.960,48.300
157795189,-0.882,-0.515,-0.071,52.640,-15.470,46.060
157795205,-0.881,-0.463,-0.024,45.780,-20.370,42.770
157795229,-0.832,-0.503,-0.038,38.360,-19.530,36.260
157795248,-0.813,-0.553,-0.060,41.370,-14.980,36.960
157795269,-0.859,-0.467,-0.020,46.900,-8.890,38.080
157795289,-0.898,-0.398,0.027,41.440,-9.240,34.720
157795307,-0.894,-0.386,0.047,31.360,-11.900,30.030
157795330,-0.836,-0.458,0.033,24.080,-10.430,23.660
157795348,-0.837,-0.477,0.018,29.820,-6.510,25.830
157795369,-0.857,-0.426,0.026,35.980,-5.040,28.910
157795392,-0.874,-0.375,0.057,35.980,-5.880,28.280
157795412,-0.857,-0.394,0.054,34.510,-3.780,25.690
157795435,-0.894,-0.424,0.008,40.250,-0.910,24.430
157795459,-0.889,-0.379,0.032,47.460,0.490,27.300
157795479,-0.927,-0.283,0.095,42.980,2.380,26.040
157795499,-0.956,-0.263,0.113,28.700,0.420,19.040
157795516,-0.940,-0.280,0.115,18.060,-2.310,15.820
157795535,-0.895,-0.291,0.126,11.340,-2.800,15.680
157795560,-0.901,-0.304,0.095,10.150,0.630,15.120
157795580,-0.928,-0.295,0.081,10.920,1.540,15.260
157795600,-0.966,-0.300,0.082,10.640,4.690,14.770
157795618,-1.031,-0.296,0.092,9.870,3.570,13.510
157795637,-1.043,-0.288,0.123,6.930,0.420,11.830
157795661,-1.010,-0.304,0.121,5.880,-1.820,10.290
157795681,-0.956,-0.303,0.115,10.290,-1.400,12.320
157795697,-0.977,-0.296,0.116,12.320,0.070,14.840
157795717,-1.015,-0.301,0.114,11.900,-0.350,16.380
157795741,-1.031,-0.314,0.115,9.170,-6.160,16.590
157795761,-0.985,-0.341,0.121,11.690,-7.490,16.100
157795781,-0.962,-0.334,0.113,17.430,-6.860,15.610
157795799,-0.963,-0.304,0.109,19.600,-7.280,13.860
157795823,-0.967,-0.267,0.114,17.220,-8.680,11.200
157795842,-0.968,-0.250,0.114,13.440,-8.680,9.030
157795866,-0.976,-0.261,0.116,9.170,-8.610,5.740
157795885,-0.961,-0.283,0.120,7.000,-7.140,3.640
157795901,-0.948,-0.261,0.124,7.630,-5.110,2.450
157795921,-0.943,-0.227,0.129,6.020,-3.500,-0.840
157795946,-0.985,-0.216,0.122,-0.350,-3.780,-4.690
157795966,-0.984,-0.223,0.124,-4.270,-5.040,-5.670
157795986,-0.976,-0.224,0.137,-6.160,-4.620,-5.320
157796002,-0.970,-0.217,0.143,-7.630,-3.990,-5.600
157796022,-0.965,-0.224,0.142,-9.240,-3.150,-6.370
157796042,-0.964,-0.230,0.136,-8.960,-2.730,-6.860
157796066,-0.973,-0.221,0.146,-9.940,-2.940,-7.350
157796085,-0.978,-0.212,0.140,-12.810,-4.410,-7.560
157796109,-0.963,-0.216,0.140,-15.960,-5.740,-6.650
157796125,-0.965,-0.234,0.138,-18.340,-5.040,-4.550
157796145,-0.971,-0.244,0.134,-18.830,-5.670,-2.310
157796165,-0.967,-0.242,0.127,-18.900,-6.160,0.140
157796189,-0.978,-0.242,0.248,-19.670,-5.950,0.910
157796213,-0.982,-0.249,0.128,-20.230,-8.260,1.050
157796229,-0.936,-0.258,0.132,-20.090,-7.910,1.120
157796253,-0.917,-0.259,0.122,-19.110,-6.090,0.770
157796270,-0.930,-0.259,0.121,-18.060,-4.620,0.000
157796291,-0.973,-0.269,0.116,-19.040,-4.830,-1.890
157796315,-0.970,-0.280,0.111,-20.300,-7.490,-3.500
157796335,-0.949,-0.274,0.106,-20.370,-6.860,-2.940
157796359,-0.982,-0.281,0.092,-22.400,-5.670,-2.660
157796383,-1.003,-0.295,0.093,-25.060,-6.930,-2.590
157796403,-0.973,-0.303,0.099,-25.830,-9.030,-2.660
157796423,-0.950,-0.305,0.094,-26.810,-7.700,-4.410
157796438,-0.961,-0.328,0.084,-25.830,-7.070,-6.860
157796462,-0.946,-0.345,0.080,-22.540,-7.070,-9.730
157796483,-0.896,-0.331,0.080,-19.950,-4.270,-11.690
157796503,-0.896,-0.308,0.096,-21.560,-0.910,-14.490
157796527,-0.908,-0.277,0.110,-31.570,1.400,-19.040
157796545,-0.930,-0.284,0.104,-40.040,1.820,-22.890
157796567,-0.924,-0.339,0.083,-46.900,-0.280,-28.560
157796587,-0.878,-0.374,0.076,-45.220,-0.490,-31.430
157796611,-0.845,-0.372,0.082,-38.780,1.890,-33.250
157796631,-0.863,-0.359,0.091,-38.150,4.410,-36.330
157796650,-0.916,-0.356,0.081,-40.880,4.760,-40.740
157796674,-0.950,-0.382,0.067,-45.290,0.980,-46.900
157796694,-0.952,-0.447,0.029,-44.240,-1.960,-50.260
157796713,-0.915,-0.474,0.023,-40.250,-3.290,-49.350
157796735,-0.863,-0.459,0.017,-36.260,-0.490,-45.990
157796755,-0.891,-0.449,-0.002,-36.120,3.080,-45.010
157796775,-0.932,-0.452,-0.004,-38.290,2.730,-45.570
157796794,-0.922,-0.464,-0.001,-42.490,1.050,-49.140
157796818,-0.869,-0.510,-0.000,-45.570,2.800,-51.450
157796838,-0.852,-0.569,-0.006,-42.840,7.000,-51.310
157796862,-0.872,-0.592,-0.031,-35.280,10.850,-49.000
157796881,-0.834,-0.582,-0.056,-27.440,9.940,-47.880
157796901,-0.759,-0.609,-0.063,-22.400,10.710,-48.510
157796921,-0.691,-0.631,-0.071,-14.770,15.610,-50.400
157796944,-0.706,-0.588,-0.054,-10.080,21.420,-53.200
157796968,-0.709,-0.550,-0.021,-15.470,18.270,-58.100
157796988,-0.713,-0.591,-0.073,-20.790,19.320,-63.560
157797008,-0.743,-0.668,-0.102,-17.430,18.130,-67.130
157797028,-0.730,-0.642,-0.082,-14.770,18.130,-67.970
157797048,-0.754,-0.615,-0.050,-18.970,16.800,-68.600
157797064,-0.756,-0.656,-0.055,-26.180,10.010,-67.830
157797088,-0.714,-0.716,-0.128,-24.500,10.570,-61.810
157797107,-0.725,-0.778,-0.177,-13.580,14.700,-55.090
157797128,-0.710,-0.732,-0.106,-9.310,15.400,-48.580
157797148,-0.666,-0.703,-0.071,-16.870,15.050,-44.730
157797166,-0.671,-0.740,-0.096,-21.910,13.510,-39.270
157797183,-0.674,-0.789,-0.154,-21.280,10.150,-33.740
157797203,-0.623,-0.834,-0.170,-14.280,5.600,-26.110
157797223,-0.567,-0.836,-0.192,-4.970,8.120,-17.920
157797243,-0.601,-0.801,-0.215,-0.210,8.540,-10.220
157797263,-0.630,-0.778,-0.200,-3.780,4.060,-4.410
157797288,-0.633,-0.795,-0.198,-9.870,0.210,1.890
157797303,-0.649,-0.832,-0.210,-9.520,-1.470,6.160
157797326,-0.661,-0.891,-0.249,-2.310,-1.260,13.300
157797350,-0.672,-0.933,-0.246,7.560,-3.430,23.310
157797369,-0.651,-0.874,-0.203,7.630,-2.520,27.020
157797390,-0.667,-0.827,-0.203,-0.840,-4.200,26.670
157797410,-0.622,-0.925,-0.220,-0.210,-8.820,28.770
157797430,-0.579,-0.951,-0.221,12.810,-5.810,33.460
157797448,-0.587,-0.872,-0.212,20.650,-2.590,34.580
157797468,-0.613,-0.773,-0.204,20.230,-3.150,31.360
157797488,-0.615,-0.744,-0.186,16.380,-5.950,29.470
157797512,-0.603,-0.752,-0.206,16.240,-5.880,32.830
157797536,-0.626,-0.750,-0.222,18.970,-0.980,35.630
157797555,-0.668,-0.718,-0.203,22.120,3.010,36.470
157797576,-0.693,-0.651,-0.172,18.410,6.090,35.560
157797596,-0.741,-0.610,-0.158,7.210,3.150,34.230
157797616,-0.724,-0.683,-0.174,3.430,1.820,32.830
157797636,-0.703,-0.704,-0.189,9.450,5.390,34.440
157797656,-0.735,-0.631,-0.151,14.630,7.350,35.630
157797674,-0.770,-0.587,-0.118,13.370,5.390,34.720
157797698,-0.759,-0.604,-0.120,7.770,1.050,34.090
157797717,-0.726,-0.672,-0.149,8.470,0.840,35.700
157797738,-0.726,-0.638,-0.146,17.080,4.480,39.830
157797758,-0.807,-0.564,-0.123,20.930,3.080,38.430
157797775,-0.827,-0.570,-0.120,18.760,-0.210,34.650
157797798,-0.799,-0.609,-0.131,18.060,-4.270,32.830
157797818,-0.770,-0.566,-0.133,21.700,-3.430,37.170
157797842,-0.808,-0.524,-0.136,21.420,-1.330,39.270
157797866,-0.871,-0.536,-0.136,19.460,-2.170,36.820
157797886,-0.871,-0.550,-0.122,19.600,-6.510,36.260
157797906,-0.814,-0.507,-0.095,21.700,-6.090,37.800
157797922,-0.825,-0.506,-0.113,21.140,-3.430,37.380
157797942,-0.856,-0.509,-0.105,20.440,-3.640,37.940
157797966,-0.836,-0.508,-0.078,20.020,-4.970,39.480
157797983,-0.829,-0.517,-0.093,23.310,-1.820,39.200
157798004,-0.908,-0.523,-0.117,30.590,0.280,38.500
157798025,-0.938,-0.499,-0.096,33.320,-2.590,35.630
157798045,-0.876,-0.459,-0.050,31.080,-5.460,34.020
157798069,-0.842,-0.436,-0.023,25.410,-3.640,32.620
157798089,-0.882,-0.437,-0.028,18.760,-2.730,31.780
157798109,-0.899,-0.463,-0.032,12.880,-6.510,29.260
157798124,-0.899,-0.503,-0.036,15.820,-7.070,28.280
157798144,-0.914,-0.506,-0.055,23.450,-8.820,26.390
157798165,-0.875,-0.477,-0.038,30.310,-11.760,26.880
157798189,-0.833,-0.440,-0.036,33.250,-12.110,27.440
157798209,-0.830,-0.431,-0.044,34.650,-9.590,27.020
157798229,-0.880,-0.442,-0.063,37.730,-7.210,24.920
157798249,-0.913,-0.407,-0.057,41.090,-7.210,22.680
157798269,-0.928,-0.351,-0.055,39.410,-8.540,18.900
157798285,-0.918,-0.332,-0.054,34.230,-7.420,15.680
157798309,-0.946,-0.333,-0.057,29.050,-4.690,14.000
157798329,-0.970,-0.316,-0.021,20.580,-4.200,12.670
157798347,-0.970,-0.306,0.004,12.460,-4.410,9.240
157798369,-0.926,-0.325,0.035,3.640,-6.370,8.190
157798389,-0.915,-0.318,0.038,1.190,-5.110,7.000
157798409,-0.905,-0.340,0.032,1.540,-4.270,7.210
157798429,-0.921,-0.339,0.012,4.340,-3.780,6.160
157798449,-0.946,-0.355,-0.006,7.070,-4.130,4.410
157798468,-0.953,-0.350,-0.003,8.820,-6.930,3.430
157798487,-0.931,-0.332,0.012,10.010,-5.810,4.900
157798512,-0.932,-0.315,0.014,8.260,-5.250,5.180
157798530,-0.955,-0.342,0.010,4.900,-1.610,5.040
157798554,-0.992,-0.346,-0.005,4.340,-1.120,4.340
157798574,-1.006,-0.322,0.008,1.610,-3.920,3.430
157798593,-0.976,-0.281,0.020,-4.130,-5.670,3.010
157798613,-0.953,-0.307,0.019,-8.540,-5.810,3.360
157798637,-0.919,-0.358,0.022,-7.840,-4.130,5.180
157798657,-0.920,-0.362,0.018,-2.030,-1.610,6.510
157798675,-0.943,-0.338,0.011,1.190,-1.680,5.250
157798697,-0.950,-0.308,0.024,-0.490,-2.380,2.730
157798717,-0.966,-0.304,0.041,-4.410,-3.010,-0.070
157798738,-0.974,-0.305,0.047,-10.010,-3.430,-1.540
157798762,-0.977,-0.315,0.041,-13.580,-3.640,-3.360
157798777,-0.992,-0.335,0.039,-15.680,-4.690,-3.990
157798802,-0.998,-0.357,0.042,-15.890,-7.070,-4.200
157798822,-0.992,-0.354,0.051,-15.680,-7.350,-2.660
157798842,-0.995,-0.359,0.047,-16.100,-8.120,-2.590
157798862,-0.994,-0.352,0.041,-16.870,-8.470,-1.960
157798880,-1.004,-0.345,0.035,-17.570,-8.750,-1.750
157798903,-1.020,-0.326,0.025,-20.720,-10.220,-2.100
157798923,-1.020,-0.312,0.038,-25.970,-13.580,-3.360
157798943,-0.947,-0.330,0.044,-32.550,-16.310,-6.650
157798962,-0.910,-0.346,0.055,-34.580,-14.140,-7.280
157798986,-0.951,-0.349,0.027,-33.810,-17.010,-10.290
157799010,-0.932,-0.354,0.003,-30.520,-20.790,-12.250
157799030,-0.888,-0.349,0.006,-26.390,-22.050,-13.300
157799049,-0.831,-0.369,0.030,-23.310,-19.320,-16.030
157799070,-0.851,-0.356,0.036,-21.420,-14.840,-20.160
157799088,-0.888,-0.341,0.019,-23.310,-14.000,-27.650
157799108,-0.926,-0.324,-0.010,-26.600,-15.820,-35.980
157799132,-0.946,-0.352,-0.008,-33.110,-18.620,-46.830
157799150,-0.932,-0.404,-0.009,-35.210,-17.570,-49.420
157799174,-0.891,-0.430,0.002,-37.450,-14.420,-50.540
157799194,-0.838,-0.423,0.026,-38.780,-8.120,-49.000
157799214,-0.835,-0.386,0.032,-43.330,-4.550,-51.590
157799234,-0.881,-0.411,0.000,-52.850,-6.720,-59.360
157799254,-0.834,-0.502,-0.019,-50.750,-11.480,-64.680
157799274,-0.781,-0.534,-0.053,-37.940,-9.520,-66.430
157799294,-0.734,-0.543,-0.076,-22.120,-3.360,-65.870
157799312,-0.756,-0.542,-0.068,-10.640,2.870,-63.840
157799336,-0.769,-0.528,-0.061,-9.170,4.060,-62.720
157799351,-0.733,-0.546,-0.076,-11.060,6.090,-62.580
157799376,-0.737,-0.601,-0.115,-5.670,9.520,-61.180
157799392,-0.722,-0.630,-0.146,1.120,9.660,-60.410
157799415,-0.710,-0.610,-0.152,6.160,12.950,-58.940
157799436,-0.769,-0.594,-0.158,1.330,12.880,-60.900
157799456,-0.751,-0.595,-0.133,-7.980,10.990,-62.020
157799476,-0.716,-0.670,-0.130,-14.420,12.040,-63.210
157799496,-0.689,-0.717,-0.110,-14.070,14.910,-57.470
157799512,-0.721,-0.738,-0.120,-10.010,20.790,-53.480
157799531,-0.789,-0.751,-0.147,-6.720,23.870,-49.140
157799556,-0.769,-0.759,-0.128,-10.850,24.430,-41.650
157799575,-0.654,-0.831,-0.128,-12.250,28.490,-34.160
157799595,-0.600,-0.870,-0.085,-9.870,34.790,-23.380
157799614,-0.627,-0.821,-0.064,-9.030,35.420,-18.130
157799638,-0.593,-0.749,-0.056,-12.810,31.780,-14.910
157799658,-0.599,-0.774,-0.095,-16.170,27.090,-11.340
157799682,-0.680,-0.854,-0.110,-15.610,21.630,-1.890
157799702,-0.702,-0.829,-0.101,-17.640,15.960,5.460
157799718,-0.700,-0.861,-0.122,-16.660,12.390,10.430
157799742,-0.701,-0.915,-0.126,-8.400,7.000,22.960
157799762,-0.633,-0.935,-0.122,6.300,7.630,33.880
157799777,-0.643,-0.828,-0.130,12.670,10.500,40.740
157799802,-0.680,-0.778,-0.121,5.740,5.670,41.720
157799820,-0.699,-0.782,-0.123,-1.540,0.910,40.810
157799842,-0.682,-0.783,-0.103,-3.360,-3.360,41.300
157799861,-0.680,-0.801,-0.138,0.630,-5.600,43.050
157799882,-0.703,-0.807,-0.180,9.870,-5.040,46.970
157799902,-0.738,-0.742,-0.182,19.040,-4.550,49.700
157799920,-0.718,-0.695,-0.132,20.370,-7.070,49.140
157799942,-0.703,-0.710,-0.140,20.650,-6.510,49.560
157799962,-0.738,-0.682,-0.152,24.150,-7.490,51.660
157799980,-0.755,-0.643,-0.147,26.110,-8.050,51.660
157800004,-0.792,-0.600,-0.140,26.810,-9.170,45.780
157800021,-0.799,-0.569,-0.133,25.130,-10.990,43.540
157800045,-0.783,-0.554,-0.098,21.700,-11.760,44.520
157800065,-0.799,-0.535,-0.081,18.200,-10.010,46.760
157800085,-0.817,-0.536,-0.081,13.440,-10.570,46.830
157800103,-0.833,-0.565,-0.118,15.470,-9.310,46.620
157800127,-0.801,-0.591,-0.089,29.540,-10.850,47.180
157800146,-0.808,-0.515,-0.068,35.980,-6.300,47.880
157800165,-0.878,-0.476,-0.102,34.720,-7.420,44.660
157800189,-0.930,-0.505,-0.125,31.010,-9.590,42.210
157800213,-0.939,-0.547,-0.124,33.880,-11.970,39.480
157800233,-0.866,-0.481,-0.057,37.380,-10.920,38.850
157800253,-0.855,-0.417,-0.012,32.690,-6.160,36.190
157800272,-0.905,-0.394,-0.009,21.840,-5.390,31.570
157800292,-0.901,-0.425,-0.009,11.760,-8.890,26.460
157800311,-0.857,-0.469,-0.031,10.710,-10.220,23.450
157800336,-0.805,-0.469,-0.024,19.460,-8.960,24.710
157800354,-0.829,-0.413,-0.021,24.430,-5.740,25.970
157800379,-0.898,-0.392,-0.027,21.770,-5.600,20.580
157800398,-0.919,-0.398,-0.035,19.460,-7.280,17.430
157800417,-0.878,-0.380,-0.020,19.600,-7.840,17.150
157800441,-0.864,-0.350,-0.003,18.970,-4.620,16.240
157800457,-0.897,-0.316,-0.016,12.950,-2.310,14.490
157800476,-0.938,-0.304,-0.025,4.620,-1.260,13.300
157800500,-0.987,-0.351,-0.039,-4.270,-1.400,9.940
157800518,-1.005,-0.397,-0.015,-5.040,-3.780,9.380
157800542,-0.942,-0.383,0.012,-3.990,-5.670,10.990
157800561,-0.884,-0.361,0.014,-4.060,-2.310,13.160
157800578,-0.891,-0.366,0.008,-6.230,0.350,14.350
157800598,-0.945,-0.392,0.005,-7.070,1.540,15.680
157800622,-0.989,-0.387,0.003,-10.080,-4.200,13.440
157800641,-0.970,-0.363,0.002,-13.930,-6.650,12.530
157800662,-0.920,-0.386,0.005,-16.240,-6.370,11.130
157800681,-0.912,-0.415,0.003,-13.790,-3.360,11.410
157800700,-0.931,-0.416,-0.000,-8.820,-1.260,12.110
157800725,-0.962,-0.386,-0.006,-7.280,-2.240,10.290
157800745,-0.960,-0.376,-0.014,-9.940,-4.760,7.350
157800765,-0.948,-0.376,-0.013,-11.270,-5.250,6.930
157800786,-0.939,-0.381,-0.016,-11.620,-4.760,6.510
157800809,-0.915,-0.376,-0.011,-12.040,-3.570,4.550
157800829,-0.918,-0.367,-0.004,-12.180,-1.190,2.030
157800849,-0.946,-0.344,-0.004,-13.720,-3.080,-2.030
157800869,-0.942,-0.345,-0.013,-15.400,-4.480,-4.900
157800889,-0.945,-0.361,-0.035,-15.400,-5.180,-6.300
157800909,-0.977,-0.356,-0.036,-14.140,-4.340,-5.600
157800933,-0.979,-0.342,-0.032,-19.180,-6.930,-7.000
157800953,-0.930,-0.356,-0.022,-22.400,-6.860,-8.750
157800972,-0.919,-0.346,-0.023,-24.220,-6.510,-10.010
157800990,-0.931,-0.327,-0.038,-27.230,-7.560,-12.040
157801009,-0.943,-0.343,-0.053,-30.380,-10.290,-15.890
157801029,-0.927,-0.361,-0.052,-29.540,-12.040,-17.990
157801054,-0.894,-0.366,-0.041,-26.390,-12.390,-19.950
157801074,-0.841,-0.393,-0.026,-24.850,-10.150,-23.380
157801094,-0.842,-0.407,-0.021,-23.030,-5.670,-27.230
157801114,-0.857,-0.385,-0.025,-23.800,-3.920,-33.740
157801138,-0.866,-0.356,-0.026,-30.800,-6.300,-43.680
157801158,-0.849,-0.380,-0.038,-38.780,-8.330,-51.100
157801178,-0.868,-0.436,-0.076,-39.690,-9.240,-55.370
157801201,-0.855,-0.468,-0.097,-34.790,-9.870,-55.860
157801222,-0.828,-0.492,-0.121,-27.370,-6.370,-56.350
157801242,-0.814,-0.525,-0.114,-21.420,-3.990,-56.630
157801262,-0.803,-0.504,-0.079,-18.620,-3.080,-58.240
157801280,-0.796,-0.485,-0.103,-17.290,-2.450,-60.970
157801304,-0.806,-0.494,-0.155,-15.120,-1.890,-63.490
157801323,-0.806,-0.613,-0.203,-7.910,-0.700,-65.660
157801343,-0.772,-0.616,-0.188,1.050,6.020,-62.860
157801365,-0.833,-0.547,-0.161,3.570,12.110,-62.020
157801389,-0.927,-0.516,-0.132,-10.570,7.560,-67.620
157801409,-0.875,-0.588,-0.134,-19.390,0.700,-71.050
157801427,-0.732,-0.708,-0.151,-10.290,7.420,-69.090
157801451,-0.786,-0.702,-0.190,5.670,17.500,-61.390
157801471,-0.845,-0.663,-0.157,5.040,15.820,-55.860
157801487,-0.787,-0.682,-0.140,-1.260,16.100,-50.960
157801511,-0.727,-0.799,-0.160,-2.870,18.620,-43.330
157801531,-0.684,-0.815,-0.146,1.330,25.410,-35.490
157801551,-0.679,-0.729,-0.130,-0.980,28.980,-31.780
157801569,-0.699,-0.710,-0.103,-7.000,25.410,-28.490
157801591,-0.669,-0.725,-0.084,-12.600,22.120,-24.850
157801609,-0.660,-0.736,-0.100,-18.620,20.020,-18.200
157801633,-0.659,-0.799,-0.246,-21.280,14.700,-7.490
157801653,-0.652,-0.866,-0.182,-6.510,13.650,4.480
157801673,-0.664,-0.808,-0.170,3.640,11.130,15.190
157801692,-0.675,-0.787,-0.142,3.570,6.160,21.070
157801716,-0.685,-0.776,-0.122,1.120,2.170,28.000
157801739,-0.709,-0.789,-0.133,1.330,-1.400,32.340
157801760,-0.721,-0.849,-0.156,8.120,-5.810,33.250
157801780,-0.703,-0.812,-0.132,15.960,-6.370,36.120
157801800,-0.708,-0.715,-0.113,14.840,-6.860,38.290
157801824,-0.712,-0.706,-0.126,4.060,-10.850,37.450
157801843,-0.699,-0.736,-0.123,1.890,-10.010,37.940
157801863,-0.748,-0.719,-0.109,6.160,-9.590,38.220
157801879,-0.779,-0.696,-0.124,9.590,-11.270,36.470
157801904,-0.755,-0.702,-0.130,13.860,-15.400,37.800
157801922,-0.733,-0.665,-0.123,18.270,-12.950,42.210
157801942,-0.790,-0.648,-0.152,20.020,-9.590,44.730
157801966,-0.835,-0.624,-0.138,19.320,-11.410,46.340
157801981,-0.822,-0.598,-0.086,17.430,-11.690,46.340
157802006,-0.828,-0.551,-0.063,12.810,-11.270,47.250
157802026,-0.838,-0.524,-0.092,5.180,-10.850,47.880
157802046,-0.806,-0.560,-0.087,3.850,-15.820,50.190
157802066,-0.746,-0.540,-0.068,9.660,-12.390,55.160
157802081,-0.791,-0.500,-0.057,14.000,-9.520,57.400
157802105,-0.874,-0.434,-0.067,15.120,-10.430,57.260
157802124,-0.893,-0.444,-0.087,12.180,-14.350,55.230
157802149,-0.846,-0.464,-0.074,16.030,-17.150,57.260
157802169,-0.816,-0.465,-0.047,23.310,-13.720,60.970
157802189,-0.868,-0.426,-0.073,26.460,-10.640,62.160
157802205,-0.935,-0.405,-0.094,27.160,-10.430,61.740
157802229,-0.947,-0.397,-0.065,27.650,-15.820,58.800
157802246,-0.915,-0.385,-0.031,26.530,-16.590,56.420
157802266,-0.892,-0.376,-0.010,23.940,-16.940,53.760
157802288,-0.864,-0.373,-0.027,23.030,-13.860,53.130
157802307,-0.883,-0.366,-0.042,26.600,-10.290,54.040
157802332,-0.962,-0.324,-0.038,26.250,-13.090,50.960
157802347,-0.965,-0.311,-0.025,22.750,-16.870,47.460
157802371,-0.876,-0.314,-0.010,21.630,-20.790,47.110
157802390,-0.842,-0.287,-0.016,26.670,-17.010,49.770
157802414,-0.881,-0.269,-0.031,31.920,-11.480,52.290
157802434,-0.969,-0.211,-0.029,30.870,-13.160,51.730
157802453,-0.972,-0.219,-0.010,28.910,-15.820,46.760
157802478,-0.967,-0.215,0.027,28.910,-14.840,43.050
157802496,-0.976,-0.215,0.017,30.800,-12.670,39.690
157802514,-0.990,-0.210,0.008,33.950,-11.830,38.150
157802537,-0.933,-0.161,0.066,35.910,-14.560,39.060
157802557,-0.957,-0.114,0.067,33.040,-10.500,38.780
157802577,-1.007,-0.123,0.052,28.630,-11.480,37.170
157802601,-1.002,-0.135,0.064,26.250,-14.630,35.700
157802619,-0.993,-0.127,0.075,27.160,-14.770,34.230
157802640,-0.972,-0.101,0.091,27.580,-16.660,32.690
157802663,-0.987,-0.086,0.071,27.090,-13.580,30.660
157802687,-1.023,-0.086,0.048,26.600,-13.370,28.000
157802707,-1.015,-0.070,0.064,25.970,-9.730,25.550
157802725,-1.052,-0.046,0.093,23.450,-7.420,21.070
157802748,-1.054,-0.021,0.127,15.890,-7.630,13.720
157802769,-1.029,-0.008,0.126,4.340,-6.370,8.750
157802789,-1.004,-0.026,0.114,-4.550,-4.900,6.580
157802809,-1.018,-0.049,0.103,-8.750,-3.570,5.950
157802826,-1.056,-0.059,0.104,-11.130,-3.990,4.550
157802847,-1.037,-0.083,0.113,-13.580,-5.600,1.820
157802868,-1.041,-0.101,0.102,-10.500,-4.340,-0.210
157802890,-1.033,-0.082,0.103,-6.790,-5.950,-3.570
157802910,-0.990,-0.055,0.104,-5.460,-4.970,-6.440
157802928,-0.972,-0.056,0.107,-4.480,-2.310,-8.750
157802951,-1.008,-0.065,0.091,-2.380,2.170,-11.060
157802975,-1.033,-0.054,0.092,-4.060,3.080,-14.420
157802994,-1.032,-0.038,0.108,-9.030,2.520,-17.290
157803015,-1.026,-0.042,0.116,-17.010,1.540,-20.790
157803035,-1.031,-0.082,0.102,-22.330,0.000,-22.540
157803059,-1.009,-0.108,0.094,-21.770,-0.280,-22.330
157803079,-0.994,-0.123,0.098,-19.600,0.630,-22.890
157803102,-0.987,-0.123,0.090,-19.040,3.430,-24.710
157803123,-0.994,-0.121,0.101,-21.420,5.880,-27.860
157803141,-0.999,-0.113,0.107,-27.440,7.560,-33.670
157803165,-0.980,-0.099,0.109,-39.340,7.000,-43.890
157803183,-0.938,-0.094,0.113,-51.520,4.760,-49.840
157803202,-0.919,-0.129,0.119,-62.160,4.830,-55.790
157803228,-0.936,-0.192,0.070,-68.180,2.940,-60.340
157803246,-0.921,-0.240,0.042,-63.350,1.960,-61.950
157803270,-0.908,-0.281,0.029,-50.890,5.880,-64.120
157803290,-0.950,-0.309,-0.005,-40.040,6.650,-66.430
157803307,-0.925,-0.318,0.001,-31.360,6.300,-65.240
157803331,-0.871,-0.289,0.036,-24.290,7.910,-62.090
157803350,-0.866,-0.258,0.033,-27.160,11.340,-62.580
157803369,-0.926,-0.307,-0.012,-31.500,13.370,-65.170
157803390,-0.972,-0.352,-0.022,-31.570,11.060,-67.620
157803411,-0.972,-0.398,-0.062,-30.940,10.080,-72.660
157803432,-0.921,-0.493,-0.054,-24.710,5.530,-75.600
157803455,-0.840,-0.530,-0.046,-11.830,7.490,-75.390
157803473,-0.814,-0.547,-0.053,3.500,10.360,-74.270
157803494,-0.851,-0.556,-0.078,16.520,12.950,-74.060
157803514,-0.887,-0.550,-0.089,24.220,11.340,-75.110
157803538,-0.797,-0.539,-0.020,21.070,4.900,-78.680
157803558,-0.674,-0.529,-0.004,8.050,12.110,-80.080
157803578,-0.719,-0.500,-0.011,-3.360,17.150,-79.590
157803595,-0.789,-0.485,-0.015,-15.400,16.800,-80.360
157803615,-0.886,-0.587,-0.031,-25.270,12.040,-83.230
157803634,-0.849,-0.705,-0.071,-21.980,9.380,-79.870
157803659,-0.763,-0.712,-0.067,-9.520,12.670,-65.520
157803679,-0.735,-0.719,-0.091,1.260,18.620,-50.890
157803699,-0.805,-0.722,-0.137,10.850,21.000,-36.960
157803714,-0.795,-0.685,-0.115,10.850,17.430,-31.430
157803739,-0.674,-0.668,-0.098,4.340,17.990,-24.080
157803759,-0.640,-0.717,-0.075,-1.890,21.070,-19.110
157803783,-0.648,-0.734,-0.050,-10.150,23.520,-10.710
157803803,-0.739,-0.716,-0.068,-16.030,20.230,-6.370
157803826,-0.773,-0.747,-0.085,-17.150,11.970,0.140
157803845,-0.760,-0.823,-0.123,-13.020,7.980,7.140
157803867,-0.747,-0.851,-0.145,-2.450,8.190,19.880
157803887,-0.810,-0.806,-0.135,0.700,5.810,27.580
157803907,-0.773,-0.807,-0.115,1.610,3.290,34.580
157803926,-0.770,-0.800,-0.101,6.300,1.820,39.200
157803946,-0.770,-0.722,-0.086,6.860,0.770,41.020
157803968,-0.819,-0.700,-0.139,4.830,-3.010,39.970
157803988,-0.817,-0.713,-0.157,7.420,-7.070,40.460
157804007,-0.757,-0.718,-0.140,10.640,-7.770,44.450
157804032,-0.750,-0.703,-0.148,15.400,-4.830,48.930
157804052,-0.763,-0.643,-0.145,19.530,-3.710,51.100
157804072,-0.791,-0.579,-0.122,18.200,-4.970,50.190
157804095,-0.814,-0.598,-0.145,14.700,-7.350,46.690
157804114,-0.790,-0.622,-0.141,17.780,-6.930,47.040
157804137,-0.791,-0.562,-0.123,21.980,-3.430,49.700
157804159,-0.835,-0.515,-0.111,19.180,-2.660,49.910
157804183,-0.833,-0.540,-0.097,18.060,-5.950,50.050
157804203,-0.795,-0.537,-0.092,22.190,-6.300,51.520
157804221,-0.771,-0.513,-0.066,25.480,-5.320,52.710
157804242,-0.822,-0.438,-0.043,25.830,-4.620,51.520
157804261,-0.886,-0.407,-0.029,21.840,-8.680,49.070
157804285,-0.891,-0.396,-0.028,17.850,-16.030,48.860
157804309,-0.886,-0.398,-0.042,20.930,-18.620,53.130
157804326,-0.903,-0.374,-0.034,24.710,-20.930,57.540
157804348,-0.908,-0.321,0.005,25.900,-22.540,62.440
157804367,-0.948,-0.302,0.025,24.360,-24.710,64.190
157804386,-0.976,-0.282,0.046,22.400,-29.330,66.010
157804411,-0.947,-0.246,0.058,20.720,-34.860,70.140
157804431,-0.915,-0.235,0.053,21.840,-35.700,73.290
157804455,-0.896,-0.229,0.048,28.560,-34.720,77.630
157804475,-0.880,-0.193,0.061,32.270,-32.830,79.310
157804494,-0.874,-0.140,0.075,31.500,-30.590,78.750
157804514,-0.873,-0.090,0.086,28.350,-28.700,76.020
157804538,-0.883,-0.061,0.090,24.010,-25.690,69.230
157804558,-0.954,-0.052,0.071,18.970,-23.940,63.770
157804578,-0.970,-0.028,0.074,13.510,-24.710,59.710
157804597,-0.960,-0.017,0.076,8.680,-21.350,55.650
157804618,-0.974,-0.024,0.081,6.230,-15.960,51.870
157804637,-0.995,-0.015,0.089,3.360,-10.780,50.400
157804661,-1.047,-0.027,0.108,-2.100,-6.580,48.370
157804681,-1.114,-0.026,0.099,-11.760,-7.560,46.550
157804700,-1.143,-0.036,0.093,-19.180,-10.080,46.270
157804721,-1.206,-0.020,0.128,-30.520,-12.250,49.980
157804740,-1.306,-0.063,0.130,-53.690,-28.840,50.540
157804764,-1.192,-0.199,0.148,-51.940,-40.600,52.080
157804782,-1.170,-0.197,0.161,-44.100,-46.620,55.720
157804802,-1.159,-0.186,0.128,-36.050,-52.500,60.760
157804825,-1.073,-0.263,0.099,-18.480,-52.850,67.060
157804846,-0.997,-0.320,0.105,4.200,-48.230,71.400
157804865,-0.942,-0.289,0.134,35.910,-32.830,71.540
157804882,-0.937,-0.207,0.158,62.230,-22.330,69.510
157804906,-0.948,-0.099,0.164,79.240,-14.210,59.570
157804921,-0.928,-0.046,0.161,84.910,-9.660,50.540
157804944,-0.886,0.006,0.154,91.770,-6.090,31.710
157804966,-0.891,0.100,0.147,85.610,-3.150,13.440
157804986,-0.927,0.192,0.149,63.630,-5.880,-0.840
157805004,-0.920,0.202,0.153,48.930,-7.980,-12.810
157805024,-0.915,0.206,0.143,37.380,-7.420,-20.650
157805048,-0.880,0.179,0.141,34.300,-0.210,-29.400
157805068,-0.916,0.188,0.142,37.380,7.070,-31.640
157805083,-1.052,0.264,0.165,40.040,16.520,-35.840
157805104,-1.212,0.357,0.170,14.350,0.980,-36.470
157805128,-1.223,0.380,0.203,-18.200,-19.390,-34.230
157805148,-1.102,0.304,0.182,-27.510,-21.630,-19.460
157805165,-1.098,0.211,0.131,-11.130,-7.770,2.170
157805186,-1.201,0.261,0.076,3.570,-1.960,18.200
157805207,-1.153,0.284,0.161,12.810,-6.580,27.930
157805231,-1.173,0.387,0.180,8.330,-7.560,35.070
157805251,-1.186,0.420,0.145,-24.150,-14.770,40.530
157805267,-1.139,0.394,0.125,-34.160,-21.910,43.540
157805287,-0.980,0.282,0.139,-18.480,-21.630,40.320
157805311,-0.947,0.161,0.169,-12.040,-11.620,43.960
157805329,-0.877,0.194,0.184,0.490,-1.750,40.040
157805348,-0.846,0.198,0.145,9.660,5.880,30.940
157805373,-0.722,0.235,0.157,28.840,10.780,24.570
157805392,-0.730,0.303,0.168,32.340,18.900,12.880
157805408,-0.757,0.498,0.160,27.230,24.710,6.650
157805433,-0.762,0.410,0.146,15.610,19.390,0.000
157805448,-0.787,0.356,0.216,12.180,11.340,-3.150
157805473,-0.846,0.357,0.367,28.280,11.550,-1.960
157805492,-0.976,0.378,0.427,42.280,7.210,-3.430
157805516,-0.902,0.393,0.376,36.330,-6.860,-15.050
157805536,-0.941,0.605,0.093,32.410,-6.440,-0.910
157805554,-1.012,0.600,0.108,7.980,-15.400,0.420
157805578,-1.103,0.580,0.221,-32.690,-31.920,-5.810
157805597,-0.963,0.372,0.220,-68.670,-45.290,-11.970
157805616,-0.695,0.002,0.221,-37.660,-35.490,-1.890
157805634,-0.604,-0.100,0.193,0.770,-14.840,2.730
157805658,-0.744,0.029,0.124,45.780,4.550,12.530
157805678,-0.810,0.201,0.105,53.900,8.820,12.950
157805696,-0.816,0.359,0.067,42.910,9.590,17.080
157805718,-0.805,0.417,0.133,12.880,9.310,8.400
157805741,-0.840,0.379,0.224,-10.920,4.690,-6.440
157805762,-0.848,0.270,0.310,-20.090,2.730,-15.540
157805782,-0.842,0.118,0.323,-13.720,0.910,-20.860
157805801,-0.872,0.034,0.356,10.290,4.060,-15.890
157805824,-0.969,0.159,0.348,35.350,3.220,-15.960
157805842,-1.050,0.199,0.263,29.750,0.980,-27.300
157805866,-1.054,0.202,0.281,9.590,-27.090,-42.840
157805886,-0.931,0.130,0.251,-7.210,-19.810,-48.230
157805906,-0.985,0.006,0.126,-1.260,-6.230,-44.730
157805930,-1.077,0.049,0.140,16.100,11.270,-29.960
157805946,-1.150,0.172,-0.041,25.760,21.840,-27.230
157805969,-1.263,-0.003,0.211,5.670,-3.080,-36.050
157805990,-1.160,-0.078,0.251,39.270,4.760,-28.140
157806010,-1.123,0.068,0.218,44.520,11.690,-16.380
157806030,-1.117,0.093,0.099,52.150,19.320,-7.490
157806054,-1.106,0.166,0.134,59.640,16.450,0.630
157806070,-1.029,0.274,0.206,49.070,17.290,-3.850
157806089,-0.940,0.189,0.186,34.160,11.550,-11.900
157806114,-0.896,0.101,0.105,41.860,21.420,-10.430
157806134,-0.946,0.087,0.048,60.060,32.690,-7.840
157806152,-0.878,0.103,0.045,67.690,36.050,-6.580
157806176,-0.782,0.042,0.066,81.900,48.370,4.410
157806196,-0.830,-0.025,0.110,120.960,60.690,34.790
157806216,-0.898,-0.005,0.069,166.530,75.740,31.220
157806236,-0.921,0.147,-0.041,192.010,71.330,37.870
157806255,-0.986,0.424,-0.019,183.330,60.900,33.880
157806276,-1.092,0.485,-0.012,138.740,40.880,14.980
157806300,-1.064,0.430,0.004,80.850,24.850,-20.860
157806320,-1.058,0.198,-0.118,19.950,6.650,-30.940
157806338,-0.960,0.160,-0.121,16.520,10.920,-25.130
157806362,-0.942,0.000,-0.070,41.090,19.250,-12.180
157806381,-0.956,-0.010,-0.175,57.610,20.790,-21.420
157806401,-0.836,0.066,-0.344,62.860,28.770,-21.840
157806421,-0.844,0.245,-0.430,78.470,42.910,-15.610
157806442,-1.018,0.372,-0.144,58.940,16.870,-32.550
157806466,-1.021,0.589,-0.140,4.130,5.110,-35.980
157806486,-0.963,0.565,-0.400,-47.320,-3.850,-45.850
157806505,-0.841,0.294,-0.379,-73.920,-2.520,-53.410
157806525,-0.791,0.036,-0.262,-50.330,9.800,-40.810
157806545,-0.892,0.047,-0.171,3.430,26.880,-11.620
157806569,-0.968,0.288,-0.033,49.070,2.450,0.280
157806589,-0.868,0.663,-0.301,-25.550,15.330,-17.290
157806608,-0.919,0.184,-0.343,-54.740,8.400,-29.610
157806632,-1.024,-0.025,-0.222,-49.490,-1.610,-23.030
157806652,-0.829,-0.486,-0.224,21.140,18.060,-0.840
157806671,-0.936,-0.115,-0.243,50.400,19.250,-1.540
157806690,-1.056,0.202,-0.220,38.500,2.940,3.360
157806714,-1.365,0.313,-0.390,-1.680,-0.070,-16.800
157806734,-1.122,0.304,-0.397,-31.220,-14.910,-19.390
157806754,-0.941,0.316,-0.462,-57.400,-14.700,-20.860
157806773,-0.796,0.169,-0.519,-72.100,-8.190,-19.670
157806796,-0.732,0.085,-0.500,-63.840,10.920,-13.440
157806816,-0.805,0.170,-0.476,-51.100,12.670,-14.350
157806837,-0.848,0.274,-0.367,-68.670,6.650,-16.660
157806857,-0.820,0.282,-0.358,-97.790,0.630,-19.600
157806872,-0.824,0.157,-0.400,-108.990,-1.960,-19.460
157806897,-0.778,-0.043,-0.308,-95.620,-6.230,-8.540
157806917,-1.050,-0.431,-0.040,-38.850,8.680,3.710
157806936,-0.977,-0.323,0.005,21.140,14.070,18.760
157806957,-1.226,0.460,-0.066,28.280,-1.540,15.960
157806977,-1.184,0.784,-0.123,-68.250,-38.850,-20.370
157806996,-1.033,0.480,-0.190,-144.760,-56.140,-53.200
157807016,-0.894,-0.098,-0.300,-163.100,-56.070,-56.420
157807035,-0.779,-0.122,-0.288,-125.860,-37.590,-46.620
157807056,-0.847,0.059,-0.278,-113.750,-31.010,-44.800
157807080,-0.774,-0.075,-0.229,-99.750,-23.450,-40.460
157807099,-0.864,-0.129,-0.269,-65.870,-8.260,-30.380
157807120,-1.078,0.014,-0.185,-21.210,-1.190,-20.020
157807140,-1.124,0.220,-0.190,-32.900,-15.260,-25.970
157807160,-1.010,0.107,-0.242,-42.630,-19.530,-28.840
157807184,-1.048,-0.156,-0.160,-40.950,-15.470,-21.420
157807208,-1.054,-0.228,-0.073,-13.020,-22.190,-15.120
157807228,-0.971,-0.217,-0.118,15.330,-18.200,-13.650
157807247,-0.866,-0.089,-0.209,25.130,-16.310,-13.580
157807266,-1.003,0.021,-0.008,24.150,-8.960,-3.500
157807290,-1.226,0.118,0.072,21.140,-13.650,1.820
157807307,-1.057,-0.049,-0.245,28.700,-3.360,13.510
157807331,-0.912,-0.410,-0.157,84.070,21.840,44.380
157807351,-0.898,-0.453,-0.147,186.480,50.820,63.700
