Millis,AccelX,AccelY,AccelZ,GyroX,GyroY,GyroZ
7519815,-0.992,-0.057,0.228,-1.190,-2.030,-0.420
7519835,-0.991,-0.052,0.231,-0.980,-1.890,-0.420
7519855,-0.991,-0.052,0.233,-1.120,-1.820,-0.420
7519879,-0.997,-0.054,0.236,-1.050,-1.960,-0.280
7519899,-0.995,-0.059,0.235,-0.840,-2.030,-0.280
7519916,-0.996,-0.058,0.232,-0.770,-2.170,-0.280
7519939,-0.993,-0.057,0.226,-0.350,-1.330,-0.350
7519959,-0.992,-0.063,0.227,-0.840,-1.190,-0.210
7519982,-0.988,-0.060,0.220,-0.210,-1.820,-0.070
7520001,-0.990,-0.046,0.214,1.540,-0.980,0.070
7520025,-0.991,-0.050,0.224,1.330,-0.560,0.210
7520044,-0.995,-0.055,0.224,-0.280,-0.140,0.070
7520061,-1.005,-0.048,0.233,-1.050,-0.210,-0.070
7520083,-1.001,-0.054,0.230,-0.840,-1.470,-0.210
7520105,-0.994,-0.055,0.223,-0.210,-1.190,-0.280
7520124,-0.989,-0.056,0.219,0.000,-1.190,-0.350
7520148,-0.991,-0.054,0.225,0.210,-1.120,-0.490
7520168,-0.995,-0.057,0.225,0.630,-1.190,-0.490
7520187,-0.995,-0.055,0.222,0.700,-0.700,-0.770
7520206,-0.997,-0.054,0.227,0.560,0.000,-0.980
7520226,-0.996,-0.050,0.226,1.680,0.350,-1.120
7520250,-1.002,-0.058,0.233,1.610,-0.770,-0.980
7520271,-0.991,-0.052,0.214,1.330,-0.770,-1.190
7520290,-0.988,-0.051,0.222,1.540,-0.070,-1.190
7520309,-0.991,-0.056,0.226,1.540,0.350,-1.400
7520333,-0.994,-0.057,0.224,1.820,0.070,-1.610
7520354,-0.995,-0.053,0.221,2.240,0.490,-1.750
7520374,-0.998,-0.054,0.218,2.240,0.770,-1.680
7520394,-0.996,-0.053,0.220,2.240,0.980,-1.540
7520414,-0.994,-0.053,0.219,2.100,1.330,-1.470
7520438,-0.994,-0.054,0.221,1.960,1.260,-1.400
7520457,-0.996,-0.054,0.220,1.960,1.260,-1.330
7520479,-0.999,-0.058,0.223,2.380,1.120,-1.330
7520502,-0.992,-0.051,0.220,2.730,1.190,-1.260
7520521,-0.996,-0.048,0.216,2.380,1.330,-1.260
7520540,-0.993,-0.049,0.213,1.750,1.400,-1.330
7520556,-0.994,-0.050,0.212,1.260,1.680,-1.260
7520581,-0.994,-0.051,0.217,1.890,2.520,-1.050
7520601,-1.003,-0.061,0.228,1.890,2.030,-0.630
7520621,-1.001,-0.066,0.214,1.120,0.350,-0.490
7520645,-0.997,-0.042,0.211,2.590,0.980,-0.560
7520665,-0.997,-0.034,0.212,2.730,1.680,-0.280
7520689,-0.996,-0.050,0.211,0.350,2.520,-0.420
7520709,-0.995,-0.051,0.218,-0.140,2.100,-0.700
7520727,-1.001,-0.049,0.212,-0.140,1.820,-0.910
7520750,-1.012,-0.044,0.213,-0.490,1.750,-0.910
7520773,-1.004,-0.041,0.210,-1.050,1.400,-0.700
7520793,-1.001,-0.043,0.208,-1.610,0.560,-0.630
7520817,-1.003,-0.051,0.209,-1.820,-0.350,-0.560
7520836,-1.005,-0.050,0.206,-1.890,-0.490,-0.350
7520856,-1.002,-0.053,0.205,-2.380,-0.420,-0.280
7520876,-1.003,-0.052,0.198,-2.170,-0.560,-0.420
7520896,-1.002,-0.052,0.213,-1.960,-0.910,-0.280
7520920,-0.998,-0.051,0.202,-2.170,-1.260,-0.420
7520939,-1.004,-0.053,0.206,-2.450,-0.770,-0.630
7520959,-1.001,-0.055,0.206,-2.310,-1.050,-0.980
7520983,-1.002,-0.054,0.211,-1.470,-1.680,-0.980
7521003,-0.999,-0.052,0.211,-0.980,-2.310,-0.910
7521023,-0.998,-0.051,0.207,-1.120,-2.240,-1.050
7521043,-0.998,-0.058,0.204,-1.120,-2.310,-1.260
7521062,-0.998,-0.059,0.205,-0.770,-2.450,-1.470
7521088,-1.000,-0.054,0.207,-0.140,-2.450,-1.540
7521105,-0.996,-0.053,0.205,0.070,-2.100,-1.540
7521127,-0.994,-0.053,0.209,-0.210,-1.680,-1.540
7521146,-0.998,-0.056,0.213,-0.210,-2.030,-1.470
7521170,-1.002,-0.055,0.208,-0.210,-2.450,-1.540
7521186,-0.998,-0.051,0.206,-0.420,-2.240,-1.540
7521206,-1.001,-0.054,0.207,-0.630,-2.030,-1.610
7521225,-0.999,-0.053,0.211,0.070,-1.820,-1.750
7521250,-1.001,-0.058,0.213,-0.140,-2.660,-1.610
7521265,-0.996,-0.063,0.200,0.280,-3.080,-1.610
7521286,-0.998,-0.048,0.210,1.820,-1.820,-1.610
7521308,-0.992,-0.049,0.204,3.010,-1.190,-1.190
7521330,-0.994,-0.060,0.208,1.540,-0.490,-1.400
7521350,-0.994,-0.057,0.217,1.120,-0.910,-1.680
7521374,-0.996,-0.057,0.208,1.750,-0.840,-1.960
7521392,-1.000,-0.060,0.207,2.030,-0.700,-2.030
7521416,-0.997,-0.060,0.205,1.820,-0.840,-2.240
7521434,-0.995,-0.055,0.202,1.190,-0.770,-2.380
7521453,-0.997,-0.053,0.206,0.910,-0.630,-2.380
7521478,-0.992,-0.052,0.206,1.050,-0.910,-2.030
7521498,-0.995,-0.058,0.210,0.560,-0.700,-1.820
7521522,-1.002,-0.060,0.213,0.560,-1.120,-1.540
7521542,-1.003,-0.060,0.215,1.610,-1.050,-1.260
7521562,-1.000,-0.057,0.203,1.190,-0.560,-1.050
7521577,-0.994,-0.056,0.202,1.120,0.140,-0.980
7521602,-0.989,-0.058,0.209,1.470,0.560,-0.770
7521623,-0.991,-0.062,0.211,1.960,0.910,-0.700
7521642,-0.997,-0.062,0.209,2.170,0.840,-0.630
7521661,-0.999,-0.056,0.207,1.890,0.840,-0.770
7521684,-0.996,-0.052,0.206,1.330,0.980,-0.980
7521704,-0.996,-0.051,0.208,0.980,1.260,-0.840
7521728,-1.001,-0.054,0.206,0.700,0.700,-0.770
7521748,-1.002,-0.055,0.199,0.490,0.210,-0.840
7521768,-0.998,-0.052,0.202,0.210,0.210,-0.770
7521788,-1.000,-0.048,0.212,0.280,-0.280,-0.700
7521812,-1.003,-0.055,0.217,0.560,-0.980,-0.350
7521831,-0.998,-0.055,0.209,0.420,-1.050,-0.210
7521849,-1.003,-0.056,0.206,0.000,-1.260,-0.490
7521873,-1.002,-0.052,0.206,0.140,-2.590,-0.770
7521894,-1.001,-0.050,0.204,0.910,-2.520,-0.770
7521910,-1.000,-0.053,0.210,1.260,-2.520,-0.560
7521934,-0.991,-0.057,0.201,1.890,-2.870,-0.700
7521954,-0.988,-0.055,0.197,1.540,-1.470,-0.770
7521974,-0.998,-0.057,0.211,0.910,-0.560,-0.420
7521998,-1.002,-0.061,0.207,0.630,-1.470,-1.190
7522019,-0.990,-0.063,0.207,1.190,-1.610,-1.260
7522035,-0.997,-0.063,0.207,1.190,-1.960,-0.980
7522054,-0.993,-0.069,0.193,-0.070,-1.960,-0.910
7522079,-0.988,-0.062,0.198,2.660,-0.630,-0.910
7522099,-0.998,-0.063,0.202,4.480,-0.140,-0.770
7522114,-0.994,-0.072,0.203,3.150,-0.280,-0.700
7522138,-1.000,-0.067,0.218,2.450,-0.210,-0.910
7522158,-1.002,-0.068,0.213,3.080,-0.420,-0.630
7522178,-1.004,-0.067,0.211,3.570,-0.420,-1.120
7522197,-0.999,-0.066,0.204,3.920,-0.840,-1.330
7522222,-0.990,-0.057,0.197,3.640,-0.070,-1.820
7522243,-0.994,-0.047,0.204,3.570,0.630,-1.960
7522262,-1.005,-0.040,0.207,3.360,0.140,-2.310
7522280,-1.012,-0.043,0.204,2.870,-0.980,-2.730
7522303,-1.021,-0.042,0.202,2.240,-2.450,-3.220
7522327,-1.027,-0.032,0.196,2.450,-4.130,-4.340
7522347,-1.021,-0.033,0.195,2.520,-6.440,-4.690
7522363,-0.997,-0.036,0.184,2.590,-7.350,-4.970
7522386,-0.976,-0.030,0.186,2.730,-6.720,-4.900
7522407,-0.978,-0.043,0.207,3.430,-4.760,-4.480
7522424,-0.991,-0.048,0.216,4.900,-4.130,-3.990
7522448,-0.977,-0.050,0.209,6.930,-3.570,-3.500
7522468,-0.959,-0.052,0.209,9.030,-0.070,-2.800
7522488,-0.966,-0.053,0.225,9.520,3.570,-1.890
7522507,-0.983,-0.053,0.227,10.010,5.740,-1.470
7522524,-0.984,-0.042,0.217,10.150,6.860,-1.680
7522545,-0.973,-0.023,0.197,10.290,8.960,-2.030
7522565,-0.976,-0.013,0.197,9.660,10.430,-2.800
7522585,-0.982,-0.012,0.195,8.400,11.620,-3.360
7522609,-1.000,-0.016,0.201,6.650,13.090,-4.200
7522627,-0.996,-0.023,0.201,7.070,12.810,-5.250
7522649,-0.991,-0.031,0.193,7.910,12.460,-6.930
7522671,-1.007,-0.054,0.191,8.540,11.480,-8.960
7522690,-1.003,-0.079,0.181,7.280,13.720,-10.990
7522709,-1.004,-0.090,0.188,5.740,14.560,-13.440
7522729,-0.972,-0.094,0.168,6.370,12.740,-14.560
7522750,-0.969,-0.133,0.151,9.240,13.090,-13.650
7522769,-0.997,-0.173,0.157,10.640,14.490,-12.740
7522794,-1.047,-0.187,0.174,7.980,11.760,-11.970
7522814,-1.044,-0.183,0.159,8.610,10.850,-11.550
7522834,-1.049,-0.182,0.159,10.850,8.680,-10.220
7522855,-1.040,-0.172,0.164,10.080,6.090,-8.120
7522873,-1.030,-0.165,0.172,6.510,5.600,-5.600
7522898,-1.025,-0.147,0.189,4.060,0.140,-1.960
7522913,-0.998,-0.143,0.162,3.780,-0.840,0.700
7522933,-0.962,-0.158,0.149,5.180,-0.350,3.360
7522955,-0.936,-0.179,0.136,7.000,1.120,6.300
7522977,-0.942,-0.197,0.124,7.280,3.010,8.190
7523001,-0.959,-0.179,0.129,7.280,3.990,9.870
7523021,-1.000,-0.157,0.131,6.860,3.500,11.620
7523037,-1.022,-0.157,0.127,4.900,3.570,12.880
7523061,-1.036,-0.166,0.138,3.080,5.530,14.770
7523081,-1.039,-0.164,0.147,3.080,4.620,16.800
7523102,-1.015,-0.144,0.136,6.510,3.850,20.300
7523120,-0.999,-0.141,0.133,8.260,5.110,23.520
7523141,-1.003,-0.137,0.140,9.380,5.180,26.600
7523161,-0.991,-0.127,0.142,10.430,5.460,28.210
7523185,-0.982,-0.116,0.136,12.180,4.060,31.150
7523204,-0.974,-0.098,0.114,14.140,4.620,33.950
7523222,-0.981,-0.077,0.108,16.240,6.580,36.470
7523242,-1.024,-0.057,0.121,17.780,8.260,38.780
7523261,-1.025,-0.042,0.124,19.880,9.730,39.410
7523284,-1.001,-0.009,0.115,22.050,12.670,39.760
7523304,-0.966,0.005,0.108,22.190,15.540,40.180
7523328,-0.948,0.027,0.118,21.910,16.380,42.280
7523343,-0.913,0.054,0.106,23.240,16.170,43.680
7523365,-0.909,0.092,0.080,25.410,18.060,46.550
7523388,-0.899,0.116,0.048,28.280,21.770,49.910
7523408,-0.904,0.152,0.010,30.520,31.990,54.040
7523431,-0.861,0.159,-0.009,31.920,39.130,58.870
7523450,-0.879,0.186,-0.007,30.240,42.910,62.580
7523471,-0.894,0.244,0.019,29.120,45.990,66.850
7523495,-0.900,0.297,0.057,29.820,45.850,73.430
7523514,-0.873,0.305,0.003,33.180,41.230,79.030
7523532,-0.793,0.334,-0.073,37.870,44.170,83.300
7523556,-0.720,0.320,-0.143,42.700,52.430,88.830
7523574,-0.688,0.321,-0.160,41.160,66.010,91.700
7523592,-0.672,0.342,-0.129,39.060,70.910,93.100
7523616,-0.717,0.427,-0.143,38.430,65.940,96.320
7523632,-0.822,0.507,-0.200,39.550,60.760,97.510
7523652,-0.902,0.625,-0.193,43.890,58.940,100.450
7523676,-0.844,0.616,-0.167,47.530,59.430,98.490
7523696,-0.770,0.564,-0.188,46.480,57.540,98.210
7523714,-0.686,0.511,-0.273,43.260,58.800,96.250
7523739,-0.617,0.493,-0.356,36.680,66.220,91.490
7523758,-0.616,0.597,-0.346,31.500,72.240,87.710
7523776,-0.641,0.668,-0.291,30.240,71.540,83.650
7523800,-0.656,0.695,-0.359,31.080,62.790,78.190
7523816,-0.634,0.684,-0.461,26.600,58.520,77.420
7523839,-0.606,0.657,-0.544,24.010,61.600,72.380
7523856,-0.572,0.689,-0.498,28.490,64.540,71.050
7523876,-0.585,0.742,-0.442,27.440,63.420,73.430
7523900,-0.564,0.710,-0.392,19.040,60.410,70.770
7523921,-0.501,0.675,-0.500,13.790,55.650,66.360
7523937,-0.452,0.719,-0.559,16.590,55.300,66.640
7523956,-0.500,0.785,-0.565,20.370,50.540,69.090
7523981,-0.436,0.812,-0.594,17.780,51.380,68.880
7523997,-0.400,0.855,-0.660,6.860,55.510,66.430
7524021,-0.362,0.848,-0.734,-1.120,63.210,60.690
7524041,-0.396,0.859,-0.641,-3.010,60.200,59.850
7524061,-0.372,0.824,-0.616,1.400,52.290,59.080
7524080,-0.319,0.818,-0.700,4.970,51.730,56.490
7524104,-0.320,0.795,-0.712,-1.050,49.350,50.330
7524125,-0.337,0.869,-0.691,-6.440,40.880,42.560
7524145,-0.343,0.944,-0.643,-5.320,32.480,37.380
7524163,-0.285,0.921,-0.765,-5.110,24.920,31.430
7524184,-0.203,0.926,-0.807,-9.380,28.700,21.630
7524204,-0.275,0.917,-0.719,-10.360,22.120,12.950
7524223,-0.325,0.932,-0.730,-10.780,13.650,6.230
7524247,-0.339,0.933,-0.764,-7.630,0.980,-0.490
7524271,-0.261,0.917,-0.810,-1.610,-0.210,-9.730
7524291,-0.270,0.909,-0.765,0.840,-2.730,-17.920
7524309,-0.260,0.910,-0.715,1.960,-5.670,-24.080
7524329,-0.264,0.904,-0.679,3.150,-10.360,-30.870
7524352,-0.291,0.892,-0.700,6.020,-16.660,-40.810
7524375,-0.297,0.894,-0.693,11.830,-21.350,-48.510
7524395,-0.279,0.889,-0.671,15.190,-23.310,-51.730
7524416,-0.262,0.861,-0.630,15.890,-25.270,-53.060
7524434,-0.321,0.830,-0.576,15.330,-31.290,-52.780
7524455,-0.373,0.783,-0.598,11.690,-35.700,-54.250
7524475,-0.385,0.767,-0.604,7.980,-36.610,-58.660
7524499,-0.409,0.795,-0.554,7.350,-37.870,-63.070
7524514,-0.427,0.810,-0.549,4.480,-40.320,-63.280
7524536,-0.431,0.825,-0.529,1.470,-43.190,-62.930
7524558,-0.429,0.799,-0.538,-1.540,-46.830,-61.320
7524581,-0.413,0.727,-0.568,-1.540,-47.110,-59.500
7524597,-0.432,0.692,-0.508,-0.630,-43.190,-58.800
7524618,-0.485,0.652,-0.488,-0.280,-43.960,-58.520
7524638,-0.512,0.636,-0.484,-1.190,-45.500,-58.100
7524662,-0.539,0.617,-0.475,-4.270,-47.110,-59.290
7524682,-0.537,0.598,-0.462,-5.950,-46.900,-60.270
7524700,-0.571,0.583,-0.429,-5.950,-50.750,-57.610
7524724,-0.591,0.596,-0.444,-7.840,-53.690,-54.180
7524743,-0.626,0.600,-0.452,-8.120,-52.920,-51.660
7524763,-0.658,0.575,-0.427,-7.140,-52.640,-49.910
7524782,-0.668,0.518,-0.428,-6.020,-53.550,-49.560
7524805,-0.659,0.475,-0.427,-3.500,-50.330,-51.590
7524823,-0.691,0.474,-0.397,-1.960,-49.420,-53.480
7524847,-0.704,0.492,-0.409,-0.140,-49.140,-56.560
7524868,-0.712,0.513,-0.409,-0.490,-45.150,-57.400
7524887,-0.739,0.520,-0.385,-2.240,-42.420,-57.400
7524906,-0.766,0.511,-0.356,-0.700,-38.220,-57.050
7524930,-0.789,0.508,-0.310,-0.770,-37.520,-56.490
7524948,-0.794,0.481,-0.303,-5.040,-37.310,-55.370
7524970,-0.794,0.443,-0.307,-9.730,-36.890,-54.250
7524987,-0.809,0.452,-0.306,-9.240,-37.170,-52.220
7525009,-0.800,0.438,-0.309,-7.700,-35.280,-48.510
7525029,-0.791,0.413,-0.285,-6.440,-29.330,-45.710
7525049,-0.805,0.364,-0.241,-7.910,-25.200,-43.820
7525072,-0.804,0.306,-0.258,-8.190,-25.130,-42.770
7525094,-0.798,0.332,-0.282,-5.880,-22.750,-40.320
7525119,-0.803,0.361,-0.273,-4.060,-18.130,-35.210
7525134,-0.846,0.362,-0.244,-3.220,-14.350,-30.730
7525153,-0.879,0.353,-0.216,-5.250,-13.650,-25.690
7525179,-0.886,0.351,-0.209,-10.920,-12.600,-21.700
7525198,-0.850,0.347,-0.234,-11.270,-11.970,-17.150
7525217,-0.832,0.323,-0.237,-10.080,-7.630,-12.670
7525235,-0.841,0.292,-0.230,-8.330,-3.990,-8.190
7525260,-0.847,0.278,-0.233,-6.580,-0.280,-3.360
7525279,-0.854,0.262,-0.214,-5.740,3.360,-0.350
7525300,-0.855,0.259,-0.211,-4.830,5.950,3.360
7525319,-0.856,0.258,-0.229,-4.340,8.120,7.000
7525339,-0.870,0.292,-0.242,-5.040,10.080,10.990
7525357,-0.879,0.320,-0.250,-5.530,11.900,15.260
7525378,-0.878,0.329,-0.235,-4.830,14.280,20.440
7525396,-0.891,0.325,-0.224,-4.480,14.210,25.130
7525421,-0.880,0.315,-0.247,-3.500,13.510,29.540
7525441,-0.855,0.326,-0.259,-3.080,15.890,31.990
7525465,-0.853,0.331,-0.266,-2.520,16.870,36.260
7525484,-0.832,0.345,-0.277,-2.380,17.780,40.320
7525505,-0.830,0.382,-0.274,-1.820,19.110,45.290
7525526,-0.854,0.413,-0.276,-1.540,17.360,50.820
7525544,-0.833,0.433,-0.288,-0.350,18.550,54.810
7525568,-0.803,0.430,-0.290,1.890,20.090,60.340
7525584,-0.753,0.410,-0.325,4.410,23.310,63.210
7525604,-0.735,0.414,-0.298,6.790,29.400,65.730
7525628,-0.710,0.418,-0.288,9.730,32.760,66.500
7525648,-0.680,0.467,-0.293,13.300,32.550,68.110
7525673,-0.645,0.483,-0.344,17.850,33.040,71.190
7525692,-0.633,0.497,-0.383,18.200,38.220,72.450
7525711,-0.620,0.514,-0.392,17.990,44.730,71.400
7525731,-0.618,0.553,-0.380,19.880,47.670,70.070
7525753,-0.603,0.581,-0.383,22.260,45.850,69.510
7525775,-0.574,0.604,-0.398,23.660,46.900,68.740
7525790,-0.535,0.616,-0.386,23.870,49.700,68.530
7525816,-0.506,0.603,-0.367,23.870,50.330,67.620
7525833,-0.471,0.595,-0.423,25.200,50.470,66.080
7525852,-0.444,0.622,-0.485,25.970,48.720,65.590
7525873,-0.423,0.651,-0.553,24.500,49.840,64.120
7525893,-0.436,0.683,-0.552,24.710,51.310,61.530
7525917,-0.471,0.715,-0.580,22.960,49.140,56.700
7525937,-0.458,0.755,-0.631,15.610,47.390,54.110
7525957,-0.412,0.799,-0.640,8.890,47.810,54.320
7525977,-0.424,0.871,-0.590,4.830,44.380,56.280
7526001,-0.381,0.886,-0.617,2.870,42.210,57.190
7526018,-0.339,0.854,-0.623,0.630,43.190,56.630
7526041,-0.330,0.774,-0.653,0.000,39.480,55.790
7526061,-0.283,0.754,-0.687,1.050,38.150,53.200
7526081,-0.227,0.780,-0.713,3.570,39.130,50.820
7526101,-0.208,0.835,-0.651,7.280,36.750,48.300
7526122,-0.214,0.847,-0.652,-0.490,33.390,42.910
7526146,-0.229,0.862,-0.658,-7.070,30.730,33.530
7526165,-0.255,0.819,-0.682,-9.380,26.880,27.440
7526188,-0.264,0.854,-0.755,-9.170,21.140,18.410
7526207,-0.237,0.928,-0.799,-8.820,22.190,11.620
7526229,-0.291,1.026,-0.670,-5.600,19.530,6.230
7526253,-0.323,1.036,-0.690,-3.010,7.420,2.100
7526274,-0.301,1.024,-0.777,-5.600,4.410,-4.410
7526293,-0.288,1.011,-0.786,-0.770,1.400,-11.620
7526312,-0.269,0.979,-0.732,4.690,-4.200,-18.060
7526331,-0.259,0.957,-0.689,6.230,-10.920,-26.320
7526355,-0.248,0.938,-0.686,7.560,-17.010,-36.190
7526370,-0.267,0.907,-0.699,10.640,-21.840,-41.650
7526395,-0.271,0.893,-0.729,13.020,-27.300,-50.750
7526416,-0.261,0.886,-0.700,11.690,-29.680,-56.910
7526433,-0.295,0.870,-0.651,11.550,-34.860,-59.990
7526451,-0.346,0.839,-0.641,12.670,-41.300,-64.610
7526475,-0.345,0.821,-0.611,10.010,-44.660,-71.190
7526493,-0.345,0.802,-0.596,7.770,-47.530,-73.220
7526513,-0.346,0.773,-0.579,3.990,-50.260,-75.110
7526536,-0.354,0.753,-0.603,2.240,-51.170,-77.210
7526557,-0.400,0.745,-0.574,0.840,-51.800,-77.560
7526577,-0.446,0.715,-0.546,0.350,-56.560,-78.120
7526594,-0.461,0.681,-0.570,-2.520,-58.800,-80.290
7526616,-0.494,0.672,-0.560,-4.270,-58.170,-82.670
7526641,-0.528,0.680,-0.538,-5.110,-60.970,-81.130
7526659,-0.566,0.697,-0.523,-7.070,-62.860,-79.730
7526679,-0.569,0.657,-0.489,-9.520,-63.210,-79.380
7526699,-0.569,0.595,-0.470,-11.270,-63.350,-79.240
7526724,-0.602,0.544,-0.441,-14.910,-61.740,-78.330
7526740,-0.616,0.535,-0.430,-17.220,-61.950,-78.400
7526758,-0.642,0.536,-0.431,-17.290,-63.000,-79.030
7526778,-0.671,0.521,-0.406,-15.680,-62.650,-78.540
7526803,-0.706,0.495,-0.362,-14.140,-59.360,-78.050
7526821,-0.752,0.490,-0.345,-11.480,-59.290,-77.630
7526840,-0.773,0.479,-0.349,-11.410,-59.150,-76.860
7526863,-0.801,0.458,-0.335,-16.030,-58.590,-75.810
7526883,-0.808,0.457,-0.326,-17.920,-57.330,-74.690
7526902,-0.808,0.447,-0.312,-16.940,-55.580,-71.750
7526928,-0.795,0.419,-0.273,-16.940,-52.010,-69.020
7526946,-0.804,0.383,-0.248,-17.920,-51.380,-68.250
7526966,-0.824,0.378,-0.232,-20.370,-50.470,-67.550
7526989,-0.845,0.382,-0.228,-22.890,-50.260,-63.560
7527010,-0.841,0.350,-0.197,-21.420,-49.000,-59.010
7527031,-0.842,0.329,-0.186,-19.670,-47.880,-54.040
7527050,-0.871,0.297,-0.192,-17.920,-45.220,-51.170
7527071,-0.887,0.274,-0.174,-17.290,-43.400,-49.140
7527089,-0.884,0.241,-0.176,-16.590,-41.020,-46.760
7527108,-0.891,0.214,-0.151,-15.470,-38.430,-44.170
7527127,-0.927,0.193,-0.141,-12.320,-18.550,-42.140
7527151,-0.932,0.186,-0.114,-11.410,-30.240,-40.530
7527170,-0.928,0.177,-0.094,-11.410,-29.400,-37.730
7527190,-0.915,0.159,-0.100,-10.780,-28.910,-33.950
7527214,-0.911,0.160,-0.077,-13.860,-25.830,-30.590
7527231,-0.948,0.158,-0.071,-16.100,-24.430,-28.000
7527254,-1.001,0.171,-0.039,-15.610,-21.630,-24.570
7527275,-1.035,0.152,0.012,-10.850,-22.050,-21.630
7527294,-1.021,0.117,-0.003,-9.520,-26.180,-19.670
7527314,-0.960,0.082,-0.063,-10.290,-24.640,-19.460
7527335,-0.941,0.087,-0.061,-10.220,-21.210,-18.270
7527359,-0.947,0.100,-0.030,-9.520,-17.220,-16.170
7527378,-0.958,0.106,-0.007,-9.590,-13.300,-14.630
7527398,-0.971,0.098,0.018,-11.620,-12.320,-13.440
7527418,-0.976,0.080,0.004,-14.000,-12.460,-12.530
7527441,-0.968,0.078,0.012,-14.140,-11.480,-11.270
7527460,-0.980,0.064,0.022,-13.580,-10.010,-10.220
7527483,-1.003,0.052,0.039,-11.970,-7.910,-9.730
7527502,-0.997,0.054,0.041,-13.860,-5.670,-10.570
7527522,-0.971,0.064,0.019,-15.540,-4.130,-12.040
7527546,-0.975,0.064,0.021,-16.030,-1.750,-11.340
7527567,-0.990,0.049,0.033,-15.120,-0.350,-9.800
7527586,-0.987,0.039,0.031,-15.680,2.240,-8.540
7527601,-0.987,0.050,0.025,-16.520,2.940,-7.490
7527627,-0.976,0.073,0.003,-14.910,5.110,-5.460
7527646,-0.973,0.061,0.001,-14.980,4.900,-2.100
7527666,-0.970,0.039,0.012,-16.030,7.350,1.750
7527685,-0.979,0.031,0.045,-17.570,9.520,5.390
7527704,-0.964,0.037,0.042,-16.030,8.470,12.180
7527726,-0.910,0.027,0.006,-9.030,11.200,21.210
7527746,-0.900,-0.001,-0.010,-3.500,15.890,31.500
7527770,-0.892,-0.010,-0.013,0.980,21.490,42.630
7527790,-0.888,0.019,-0.013,4.130,28.350,50.050
7527806,-0.878,0.049,-0.012,6.510,33.810,56.140
7527828,-0.908,0.060,0.007,9.800,38.010,65.380
7527851,-0.935,0.069,-0.007,14.350,37.870,71.960
7527868,-0.935,0.090,-0.022,16.380,38.220,76.370
7527887,-0.938,0.177,-0.035,19.250,35.000,79.450
7527912,-0.926,0.237,-0.096,20.860,33.040,83.790
7527931,-0.875,0.237,-0.161,20.580,35.980,87.360
7527950,-0.854,0.241,-0.168,20.300,38.640,91.560
7527971,-0.857,0.292,-0.181,25.620,44.100,93.730
7527989,-0.847,0.369,-0.182,31.150,46.200,94.430
7528012,-0.814,0.373,-0.197,35.420,44.590,94.010
7528033,-0.735,0.381,-0.257,35.000,48.650,94.220
7528053,-0.714,0.425,-0.262,33.530,53.270,95.690
7528074,-0.778,0.515,-0.263,33.600,53.620,97.090
7528092,-0.781,0.568,-0.248,33.810,52.710,96.320
7528112,-0.741,0.600,-0.245,34.230,49.210,96.530
7528133,-0.663,0.562,-0.348,33.460,48.370,97.510
7528153,-0.610,0.552,-0.389,30.800,51.450,97.090
7528177,-0.576,0.588,-0.388,30.310,58.380,95.340
7528197,-0.574,0.647,-0.269,31.290,58.800,94.150
7528215,-0.567,0.651,-0.276,31.290,53.200,96.110
7528239,-0.525,0.595,-0.337,25.060,48.930,95.060
7528259,-0.517,0.585,-0.372,16.590,50.680,89.810
7528279,-0.535,0.605,-0.348,13.650,48.230,84.280
7528299,-0.479,0.645,-0.500,14.490,47.460,80.010
7528319,-0.424,0.701,-0.557,15.890,50.680,78.260
7528341,-0.419,0.820,-0.567,18.410,53.480,78.890
7528365,-0.451,0.932,-0.527,20.440,49.420,80.920
7528385,-0.396,0.978,-0.524,16.590,45.010,80.990
7528404,-0.311,0.927,-0.588,4.620,45.710,80.290
7528428,-0.358,0.964,-0.612,3.990,46.690,78.890
7528449,-0.450,1.014,-0.652,14.210,37.380,76.300
7528464,-0.386,1.034,-0.647,15.890,32.830,73.360
7528489,-0.356,1.009,-0.643,15.120,25.620,63.070
7528507,-0.367,1.012,-0.669,13.440,23.030,51.590
7528528,-0.339,0.966,-0.686,15.260,19.880,37.030
7528548,-0.319,0.977,-0.721,18.060,14.070,25.760
7528572,-0.303,1.038,-0.731,16.380,5.460,13.300
7528593,-0.301,1.159,-0.669,12.670,1.050,2.170
7528611,-0.322,1.146,-0.728,10.360,-7.560,-5.600
7528632,-0.282,1.107,-0.762,10.920,-7.840,-13.090
7528649,-0.265,1.024,-0.713,11.620,-10.640,-18.620
7528668,-0.269,0.957,-0.655,10.220,-17.220,-26.880
7528691,-0.305,0.895,-0.657,8.890,-23.310,-40.810
7528712,-0.309,0.866,-0.651,10.780,-25.200,-52.990
7528731,-0.346,0.872,-0.618,13.230,-30.450,-60.970
7528749,-0.364,0.893,-0.625,13.790,-35.840,-66.780
7528773,-0.336,0.905,-0.630,11.690,-36.750,-71.750
7528793,-0.301,0.892,-0.585,8.120,-35.700,-71.330
7528812,-0.320,0.833,-0.565,5.110,-38.780,-71.050
7528829,-0.349,0.793,-0.578,1.540,-41.160,-72.520
7528854,-0.387,0.755,-0.602,-1.540,-41.930,-75.950
7528872,-0.439,0.756,-0.589,-2.100,-42.210,-77.770
7528896,-0.489,0.750,-0.581,-2.800,-44.870,-80.710
7528915,-0.521,0.747,-0.573,-2.170,-46.410,-82.530
7528934,-0.536,0.821,-0.513,1.750,-50.260,-81.690
7528956,-0.581,0.696,-0.503,-0.770,-56.350,-80.220
7528980,-0.588,0.656,-0.516,-3.500,-58.660,-81.620
7528999,-0.563,0.649,-0.537,-6.510,-56.770,-83.090
7529020,-0.611,0.656,-0.465,-9.660,-57.190,-81.410
7529038,-0.640,0.627,-0.434,-12.600,-59.570,-80.080
7529057,-0.652,0.585,-0.430,-15.190,-61.530,-79.170
7529080,-0.660,0.535,-0.436,-17.220,-61.740,-78.750
7529102,-0.677,0.506,-0.403,-19.880,-60.270,-79.520
7529121,-0.722,0.507,-0.370,-20.790,-60.060,-79.100
7529145,-0.751,0.505,-0.361,-18.900,-60.900,-77.840
7529165,-0.738,0.483,-0.357,-18.550,-58.730,-77.630
7529183,-0.747,0.447,-0.341,-19.320,-56.210,-77.210
7529204,-0.770,0.436,-0.305,-21.700,-54.880,-75.810
7529228,-0.769,0.405,-0.285,-23.170,-54.530,-75.320
7529249,-0.762,0.381,-0.268,-24.220,-52.990,-73.430
7529268,-0.780,0.353,-0.232,-25.410,-49.630,-71.820
7529288,-0.856,0.360,-0.194,-27.650,-50.610,-70.140
7529305,-0.888,0.367,-0.199,-26.530,-51.590,-68.460
7529325,-0.896,0.367,-0.190,-26.180,-49.070,-67.900
7529349,-0.886,0.331,-0.182,-29.260,-48.720,-66.430
7529369,-0.895,0.287,-0.158,-32.270,-47.250,-64.050
7529393,-0.894,0.270,-0.110,-29.400,-46.690,-60.130
7529413,-0.922,0.250,-0.093,-25.690,-46.340,-57.260
7529433,-0.914,0.208,-0.084,-26.670,-45.990,-56.210
7529449,-0.909,0.189,-0.091,-28.560,-44.940,-56.630
7529473,-0.895,0.184,-0.082,-27.510,-40.110,-55.930
7529493,-0.905,0.173,-0.064,-24.640,-36.680,-53.270
7529512,-0.925,0.139,-0.048,-22.680,-34.720,-50.330
7529531,-0.936,0.101,-0.017,-21.070,-32.060,-48.020
7529550,-0.944,0.090,-0.007,-23.590,-27.370,-46.480
7529575,-0.933,0.079,0.002,-25.130,-23.240,-45.080
7529594,-0.927,0.066,0.002,-21.840,-21.070,-42.280
7529612,-0.916,0.041,0.013,-17.220,-19.040,-38.990
7529631,-0.932,0.023,0.017,-14.770,-15.330,-34.580
7529657,-0.951,-0.001,0.037,-15.190,-12.740,-27.860
7529676,-0.959,-0.003,0.057,-13.930,-12.530,-21.630
7529694,-0.973,-0.012,0.046,-11.900,-12.250,-16.310
7529718,-0.976,-0.027,0.021,-13.510,-9.100,-9.240
7529738,-0.976,-0.042,0.044,-13.930,-5.810,-4.620
7529758,-0.969,-0.053,0.058,-11.690,-2.380,0.980
7529782,-0.990,-0.089,0.077,-10.780,1.330,8.120
7529803,-1.000,-0.093,0.085,-9.800,1.400,12.950
7529820,-0.984,-0.067,0.067,-8.890,2.730,17.150
7529840,-0.961,-0.022,0.056,-7.910,3.360,22.260
7529864,-0.959,-0.011,0.047,-6.160,4.130,28.140
7529883,-0.977,-0.029,0.049,-3.220,5.810,31.920
7529904,-0.992,-0.040,0.051,-1.260,8.960,34.650
7529927,-0.978,-0.015,0.046,0.280,10.430,36.610
7529950,-0.980,0.019,0.029,2.310,10.570,39.760
7529969,-0.994,0.043,0.012,4.550,11.130,42.490
7529993,-0.981,0.064,-0.007,7.700,12.670,45.360
7530013,-0.950,0.075,-0.005,8.890,15.750,47.600
7530032,-0.919,0.087,-0.026,10.290,21.490,49.350
7530056,-0.915,0.114,0.006,10.710,24.990,53.200
7530077,-0.940,0.139,-0.016,14.420,24.780,57.120
7530097,-0.938,0.169,-0.026,16.100,30.100,59.430
7530118,-0.921,0.186,-0.037,13.720,33.810,61.880
7530137,-0.898,0.193,-0.059,11.760,35.490,64.470
7530157,-0.851,0.201,-0.078,11.900,35.560,67.760
7530179,-0.849,0.226,-0.141,14.560,41.090,71.680
7530204,-0.891,0.287,-0.091,17.920,53.340,73.640
7530218,-0.881,0.293,-0.069,18.130,54.810,74.550
7530244,-0.793,0.297,-0.113,19.740,54.740,77.070
7530263,-0.688,0.325,-0.195,21.140,57.470,80.570
7530279,-0.662,0.356,-0.219,22.540,61.460,84.560
7530302,-0.694,0.432,-0.201,22.120,62.090,87.780
7530324,-0.711,0.516,-0.182,26.320,62.160,89.670
7530343,-0.673,0.553,-0.211,30.240,60.340,93.520
7530361,-0.622,0.500,-0.300,31.500,61.740,97.020
7530385,-0.616,0.471,-0.341,25.550,72.660,100.170
7530405,-0.728,0.564,-0.250,20.160,69.930,97.510
7530424,-0.717,0.702,-0.258,22.260,60.060,94.570
7530448,-0.670,0.781,-0.353,20.440,52.430,94.990
7530468,-0.612,0.757,-0.463,17.080,58.170,94.220
7530488,-0.578,0.744,-0.439,9.800,64.540,92.050
7530508,-0.549,0.758,-0.401,5.390,65.240,88.760
7530530,-0.508,0.739,-0.397,6.020,61.040,85.050
7530553,-0.423,0.703,-0.463,15.050,58.520,82.740
7530570,-0.396,0.710,-0.508,21.560,59.570,82.530
7530594,-0.423,0.759,-0.456,24.220,58.590,78.400
7530614,-0.423,0.817,-0.492,24.220,54.040,73.010
7530633,-0.382,0.869,-0.587,18.480,50.750,66.710
7530654,-0.340,0.952,-0.697,15.890,44.450,61.670
7530674,-0.341,1.063,-0.721,11.060,44.030,59.150
7530696,-0.383,1.093,-0.657,4.690,33.180,56.770
7530716,-0.378,1.076,-0.725,0.630,27.020,50.050
7530739,-0.348,1.029,-0.708,1.610,28.140,37.030
7530757,-0.386,0.960,-0.632,4.760,22.960,29.330
7530777,-0.422,0.920,-0.659,7.630,12.460,20.650
7530801,-0.379,0.912,-0.704,5.740,7.770,4.130
7530820,-0.373,0.968,-0.724,3.850,7.420,-7.000
7530839,-0.399,1.029,-0.674,4.900,1.750,-16.240
7530864,-0.390,1.030,-0.711,5.880,-7.980,-22.750
7530884,-0.378,0.968,-0.715,8.400,-14.350,-27.230
7530904,-0.395,0.969,-0.704,10.780,-19.530,-33.390
7530924,-0.373,0.990,-0.664,10.780,-22.960,-40.250
7530944,-0.366,0.937,-0.603,9.940,-27.020,-43.400
7530963,-0.395,0.877,-0.590,10.220,-32.480,-47.320
7530988,-0.431,0.829,-0.617,10.710,-39.270,-54.460
7531006,-0.421,0.804,-0.650,11.270,-41.230,-59.290
7531028,-0.460,0.800,-0.622,13.790,-43.120,-63.490
7531047,-0.496,0.807,-0.598,14.070,-45.500,-66.290
7531071,-0.517,0.822,-0.563,11.970,-49.210,-67.970
7531089,-0.526,0.801,-0.549,9.590,-53.410,-69.020
7531110,-0.529,0.743,-0.512,6.930,-54.460,-71.470
7531131,-0.551,0.698,-0.497,7.000,-56.140,-74.060
7531151,-0.582,0.685,-0.494,7.140,-61.530,-73.220
7531171,-0.606,0.639,-0.488,8.540,-61.880,-74.480
7531188,-0.606,0.612,-0.472,7.980,-62.790,-75.880
7531212,-0.629,0.597,-0.449,8.050,-64.120,-77.560
7531230,-0.646,0.582,-0.431,6.580,-66.360,-78.680
7531252,-0.646,0.547,-0.444,2.870,-66.430,-79.450
7531271,-0.660,0.532,-0.433,-0.560,-65.310,-79.450
7531295,-0.672,0.538,-0.426,-3.780,-64.680,-78.890
7531312,-0.709,0.548,-0.405,-6.650,-64.890,-78.190
7531336,-0.872,0.524,-0.386,-8.680,-64.680,-76.720
7531355,-0.772,0.489,-0.357,-11.060,-63.980,-76.860
7531380,-0.771,0.450,-0.325,-12.040,-62.090,-77.350
7531400,-0.779,0.415,-0.307,-13.650,-63.210,-76.650
7531419,-0.793,0.382,-0.322,-13.370,-61.740,-76.650
7531442,-0.803,0.370,-0.291,-12.110,-59.010,-77.630
7531460,-0.802,0.362,-0.239,-11.970,-55.300,-78.610
7531483,-0.825,0.340,-0.203,-15.120,-53.760,-77.210
7531503,-0.835,0.304,-0.195,-16.870,-52.850,-76.020
7531523,-0.871,0.298,-0.203,-15.890,-53.830,-73.360
7531547,-0.903,0.297,-0.192,-14.000,-53.200,-72.380
7531567,-0.894,0.336,-0.153,-13.160,-54.040,-67.340
7531587,-0.872,0.273,-0.169,-12.740,-55.230,-61.110
7531607,-0.874,0.205,-0.172,-13.230,-49.770,-57.050
7531627,-0.885,0.151,-0.135,-13.230,-45.290,-54.110
7531646,-0.908,0.126,-0.120,-11.060,-42.280,-50.750
7531669,-0.891,0.126,-0.088,-6.230,-37.520,-46.970
7531693,-0.881,0.117,-0.059,-3.780,-32.340,-42.280
7531713,-0.894,0.090,-0.061,-3.360,-30.100,-38.570
7531732,-0.888,0.077,-0.064,-2.030,-26.810,-34.720
7531752,-0.895,0.075,-0.062,-1.750,-20.090,-30.240
7531776,-0.925,0.062,-0.014,-2.940,-11.060,-25.270
7531796,-0.968,0.065,0.008,-2.310,-10.500,-20.090
7531816,-1.005,0.071,0.000,-1.820,-10.080,-15.190
7531840,-0.996,0.043,-0.003,-0.700,-9.940,-11.340
7531859,-0.985,0.035,-0.013,-0.280,-7.000,-8.890
7531880,-0.976,0.026,-0.019,-1.400,-4.130,-5.950
7531900,-0.962,0.008,0.000,-3.360,-0.070,-2.310
7531920,-0.985,-0.006,0.018,-3.920,0.350,1.540
7531935,-0.990,-0.006,0.005,-3.290,-0.210,4.620
7531960,-0.991,0.011,-0.009,-2.100,0.000,8.820
7531979,-0.981,0.022,-0.020,-2.590,1.750,10.780
7532000,-0.976,0.031,-0.018,-4.270,2.870,13.370
7532019,-0.986,0.042,-0.025,-5.110,3.850,15.680
7532039,-1.004,0.044,-0.026,-5.040,4.830,18.480
7532061,-1.018,0.039,-0.015,-4.410,5.460,21.490
7532081,-1.014,0.041,-0.006,-4.340,5.880,24.080
7532105,-1.024,0.047,0.001,-4.620,3.850,26.530
7532125,-1.011,0.053,-0.009,-5.460,2.660,28.210
7532145,-0.985,0.056,-0.036,-5.950,4.060,29.750
7532163,-0.978,0.082,-0.021,-5.250,4.690,31.920
7532182,-0.961,0.110,-0.019,-3.850,6.090,35.840
7532206,-0.952,0.123,-0.019,-1.820,8.960,41.300
7532226,-0.938,0.126,-0.013,0.560,10.360,47.250
7532246,-0.918,0.117,-0.025,3.010,13.790,52.010
7532270,-0.928,0.122,-0.026,4.060,17.500,58.310
7532289,-0.918,0.149,-0.027,4.900,19.670,61.880
7532309,-0.897,0.187,-0.025,4.340,19.320,66.220
7532330,-0.870,0.228,-0.035,4.900,21.420,72.100
7532349,-0.870,0.195,-0.062,7.700,26.600,74.760
7532372,-0.875,0.250,-0.053,13.090,33.880,76.720
7532392,-0.851,0.295,-0.087,13.160,34.580,80.640
7532410,-0.786,0.324,-0.107,16.240,38.150,84.280
7532429,-0.760,0.322,-0.124,20.370,42.070,88.690
7532455,-0.756,0.340,-0.163,25.270,46.620,91.070
7532474,-0.743,0.376,-0.171,25.550,54.320,90.370
7532492,-0.718,0.395,-0.146,24.990,56.840,89.880
7532511,-0.663,0.410,-0.190,27.440,59.710,91.070
7532536,-0.615,0.441,-0.237,28.910,62.020,94.990
7532553,-0.587,0.497,-0.246,30.100,63.560,98.560
7532573,-0.589,0.563,-0.226,32.340,64.680,101.360
7532597,-0.613,0.606,-0.224,33.250,59.150,104.090
7532617,-0.586,0.641,-0.349,27.580,60.760,104.440
7532637,-0.567,0.687,-0.409,20.440,62.160,103.180
7532656,-0.583,0.753,-0.364,20.510,64.470,100.170
7532678,-0.641,0.836,-0.247,25.900,60.760,101.990
7532697,-0.628,0.784,-0.266,27.020,52.430,98.770
7532716,-0.548,0.715,-0.432,20.790,53.620,91.700
7532735,-0.458,0.691,-0.545,13.860,58.100,85.330
7532759,-0.431,0.780,-0.497,14.910,58.030,81.900
7532777,-0.447,0.878,-0.419,21.280,46.690,81.410
7532799,-0.412,0.937,-0.488,17.500,41.580,78.610
7532822,-0.389,0.955,-0.649,8.050,41.580,73.780
7532843,-0.383,0.992,-0.622,6.440,39.410,70.420
7532861,-0.355,1.031,-0.631,12.740,34.580,65.940
7532885,-0.387,1.069,-0.674,20.020,28.630,59.010
7532904,-0.399,1.092,-0.670,18.340,27.440,50.960
7532923,-0.368,1.043,-0.696,16.660,26.320,38.850
7532944,-0.407,1.030,-0.716,16.030,22.260,27.720
7532968,-0.415,1.085,-0.726,24.570,12.180,14.420
7532989,-0.348,1.102,-0.742,21.140,7.350,1.960
7533008,-0.331,1.061,-0.730,18.130,2.310,-9.870
7533028,-0.333,1.038,-0.730,17.920,-3.430,-22.890
7533052,-0.348,0.969,-0.702,19.530,-10.010,-36.120
7533072,-0.387,0.948,-0.638,21.490,-19.390,-45.500
7533090,-0.381,0.928,-0.649,20.720,-27.510,-53.200
7533110,-0.345,0.934,-0.649,15.540,-29.960,-62.370
7533134,-0.334,0.932,-0.632,11.060,-31.920,-67.270
7533154,-0.365,0.908,-0.644,8.120,-33.460,-70.630
7533169,-0.400,0.884,-0.626,6.650,-36.330,-73.850
7533194,-0.421,0.829,-0.590,3.640,-38.500,-77.350
7533214,-0.432,0.777,-0.568,2.170,-40.740,-79.380
7533233,-0.446,0.718,-0.538,0.210,-41.790,-81.200
7533252,-0.475,0.676,-0.537,0.560,-42.350,-83.230
7533276,-0.501,0.680,-0.525,-0.700,-42.560,-85.260
7533293,-0.552,0.691,-0.505,-1.120,-45.570,-86.940
7533317,-0.564,0.699,-0.511,-1.890,-50.540,-85.470
7533337,-0.580,0.663,-0.508,-2.730,-51.940,-85.540
7533357,-0.603,0.649,-0.485,-5.320,-53.480,-85.050
7533377,-0.646,0.640,-0.470,-10.710,-55.930,-84.770
7533398,-0.650,0.626,-0.467,-15.610,-56.980,-84.630
7533414,-0.668,0.621,-0.450,-17.920,-56.980,-83.860
7533434,-0.686,0.592,-0.416,-20.440,-59.150,-81.270
7533454,-0.695,0.552,-0.418,-23.590,-61.320,-77.840
7533474,-0.696,0.517,-0.386,-27.160,-59.710,-76.580
7533494,-0.713,0.492,-0.369,-30.380,-57.960,-76.090
7533515,-0.751,0.455,-0.340,-31.290,-56.980,-74.830
7533539,-0.779,0.424,-0.314,-29.820,-57.540,-74.410
7533559,-0.801,0.391,-0.309,-27.510,-57.400,-74.130
7533584,-0.785,0.377,-0.293,-26.740,-55.160,-75.670
7533603,-0.799,0.360,-0.262,-27.860,-52.990,-75.390
7533623,-0.828,0.343,-0.232,-29.400,-51.520,-75.180
7533643,-0.853,0.328,-0.214,-29.960,-51.520,-73.780
7533666,-0.863,0.313,-0.211,-27.860,-51.800,-71.610
7533687,-0.843,0.311,-0.172,-25.130,-50.750,-68.600
7533710,-0.884,0.288,-0.157,-22.960,-50.610,-63.910
7533730,-0.891,0.274,-0.136,-20.650,-47.880,-61.880
7533754,-0.895,0.249,-0.123,-19.460,-46.130,-58.800
7533774,-0.891,0.222,-0.118,-20.510,-45.010,-56.700
7533793,-0.897,0.215,-0.118,-20.650,-42.910,-55.020
7533816,-0.922,0.213,-0.097,-17.710,-38.920,-50.890
7533837,-0.944,0.206,-0.071,-14.490,-38.010,-45.710
7533857,-0.943,0.181,-0.058,-13.090,-38.850,-41.440
7533877,-0.930,0.134,-0.072,-12.110,-37.800,-36.750
7533896,-0.920,0.102,-0.062,-9.800,-32.760,-34.440
7533915,-0.934,0.103,-0.044,-7.210,-30.380,-31.850
7533935,-0.912,0.098,-0.059,-5.950,-27.510,-28.000
7533955,-0.897,0.090,-0.015,-6.090,-21.630,-24.710
7533979,-0.915,0.105,0.037,-5.600,-16.660,-18.550
7534000,-0.955,0.097,0.058,-5.250,-13.440,-11.970
7534020,-0.971,0.080,0.043,-3.010,-11.200,-8.610
7534036,-0.955,0.068,0.044,-3.220,-8.400,-6.300
7534060,-0.945,0.074,0.049,-2.450,-4.340,-2.590
7534080,-0.953,0.074,0.061,-1.120,0.560,1.680
7534104,-0.964,0.058,0.074,-0.210,2.590,7.070
7534123,-0.966,0.047,0.072,1.120,3.290,10.360
7534143,-0.971,0.046,0.063,2.240,4.550,13.370
7534167,-0.967,0.059,0.048,3.010,6.300,18.760
7534186,-0.964,0.062,0.038,3.640,7.280,23.170
7534206,-0.952,0.075,0.027,5.390,10.920,27.440
7534226,-0.959,0.098,0.041,8.330,14.070,31.220
7534249,-0.958,0.098,0.043,11.550,16.660,35.980
7534270,-0.980,0.088,0.050,14.280,17.780,39.900
7534286,-0.970,0.079,0.039,14.840,16.660,41.580
7534308,-0.931,0.105,-0.006,14.280,17.150,44.660
7534326,-0.920,0.155,-0.021,12.600,19.740,47.670
7534348,-0.953,0.195,-0.023,12.740,23.100,52.500
7534373,-0.981,0.197,0.006,13.720,24.360,58.310
7534391,-0.981,0.173,0.006,15.470,23.100,60.340
7534412,-0.938,0.176,-0.010,17.570,23.170,61.460
7534432,-0.893,0.201,-0.034,19.880,22.540,63.490
7534451,-0.896,0.236,-0.055,21.980,24.920,66.080
7534475,-0.910,0.280,-0.074,23.170,27.650,67.690
7534492,-0.877,0.310,-0.106,25.060,30.520,68.040
7534516,-0.838,0.331,-0.097,27.300,34.090,68.390
7534536,-0.852,0.356,-0.137,28.560,38.570,69.230
7534552,-0.853,0.386,-0.116,27.860,42.560,69.370
7534571,-0.809,0.392,-0.127,28.700,44.520,69.790
7534591,-0.761,0.414,-0.170,29.680,44.030,70.770
7534616,-0.686,0.462,-0.269,29.750,49.490,73.290
7534633,-0.678,0.493,-0.238,27.510,61.180,74.200
7534656,-0.691,0.525,-0.187,27.370,65.240,76.580
7534675,-0.663,0.529,-0.229,28.630,62.720,78.330
7534695,-0.593,0.517,-0.285,29.120,62.160,80.990
7534714,-0.590,0.541,-0.298,29.050,63.210,82.530
7534737,-0.631,0.594,-0.292,33.950,66.360,83.580
7534757,-0.661,0.622,-0.361,35.630,65.030,82.880
7534777,-0.610,0.639,-0.465,31.080,68.320,80.990
7534802,-0.568,0.683,-0.491,26.880,72.590,79.380
7534820,-0.541,0.788,-0.413,27.370,73.430,80.780
7534838,-0.531,0.810,-0.401,28.140,69.650,83.020
7534861,-0.510,0.758,-0.445,23.730,63.140,82.530
7534882,-0.399,0.671,-0.564,18.900,63.630,79.310
7534906,-0.319,0.673,-0.696,18.200,68.250,75.670
7534924,-0.316,0.772,-0.643,19.670,71.540,74.690
7534944,-0.361,0.834,-0.590,25.900,66.360,73.290
7534967,-0.381,0.881,-0.606,25.480,61.460,69.650
7534986,-0.333,0.869,-0.627,15.820,60.830,66.010
7535009,-0.327,0.874,-0.646,2.100,58.520,60.690
7535032,-0.405,0.914,-0.691,-7.140,52.780,52.850
7535050,-0.360,0.955,-0.831,-8.750,48.790,46.480
7535070,-0.202,0.918,-0.903,-3.220,48.860,38.290
7535089,-0.247,1.028,-0.791,3.080,44.310,33.250
7535112,-0.366,1.072,-0.722,11.830,20.370,27.930
7535132,-0.407,1.029,-0.760,9.450,5.250,16.380
7535157,-0.390,1.011,-0.809,1.260,-0.210,-2.310
7535176,-0.333,1.032,-0.864,-2.590,-4.130,-13.160
7535196,-0.301,1.020,-0.792,3.640,-7.420,-21.910
7535211,-0.344,0.997,-0.718,8.190,-15.190,-28.420
7535235,-0.344,0.936,-0.705,5.250,-27.090,-40.390
7535256,-0.330,0.883,-0.729,0.770,-35.840,-52.150
7535278,-0.347,0.923,-0.674,-1.750,-43.680,-60.200
7535296,-0.367,0.942,-0.642,-2.310,-49.910,-65.380
7535321,-0.367,0.916,-0.644,-4.060,-53.760,-71.330
7535339,-0.358,0.839,-0.627,-6.580,-52.430,-76.020
7535360,-0.381,0.761,-0.545,-1.330,-54.670,-78.540
7535377,-0.426,0.700,-0.510,4.620,-58.520,-80.360
7535402,-0.455,0.671,-0.513,8.820,-61.040,-84.630
7535420,-0.488,0.691,-0.491,10.290,-60.760,-85.960
7535445,-0.514,0.707,-0.466,7.490,-61.600,-86.240
7535461,-0.556,0.717,-0.444,3.920,-64.540,-85.400
7535480,-0.587,0.717,-0.476,5.740,-70.560,-79.660
7535501,-0.614,0.701,-0.471,3.010,-69.370,-78.680
7535524,-0.612,0.637,-0.464,0.280,-69.580,-78.470
7535544,-0.613,0.617,-0.469,-2.590,-68.320,-77.490
7535568,-0.630,0.611,-0.471,-3.850,-67.620,-75.740
7535587,-0.650,0.610,-0.448,-3.220,-67.130,-74.830
7535607,-0.682,0.597,-0.399,-3.080,-64.610,-72.730
7535631,-0.689,0.541,-0.375,-5.740,-63.770,-69.580
7535648,-0.686,0.509,-0.376,-8.890,-61.950,-68.390
7535672,-0.713,0.474,-0.372,-11.550,-60.200,-67.480
7535691,-0.734,0.446,-0.369,-13.440,-58.450,-67.620
7535712,-0.782,0.435,-0.345,-15.330,-56.420,-66.640
7535735,-0.779,0.410,-0.330,-17.850,-54.320,-66.010
7535755,-0.803,0.399,-0.316,-20.160,-52.010,-66.010
7535771,-0.806,0.385,-0.294,-20.020,-51.450,-66.150
7535795,-0.822,0.383,-0.275,-17.220,-50.260,-64.260
7535815,-0.813,0.365,-0.266,-17.430,-50.330,-61.740
7535835,-0.785,0.337,-0.270,-17.570,-47.810,-59.150
7535855,-0.793,0.321,-0.235,-16.310,-42.210,-56.910
7535879,-0.851,0.294,-0.202,-15.190,-40.670,-52.920
7535899,-0.901,0.307,-0.180,-13.370,-38.290,-49.280
7535920,-0.920,0.282,-0.166,-11.690,-38.850,-48.020
7535937,-0.895,0.265,-0.166,-9.940,-36.890,-47.530
7535958,-0.865,0.238,-0.157,-11.200,-34.300,-46.690
7535977,-0.870,0.191,-0.162,-10.010,-27.580,-46.130
7536002,-0.875,0.204,-0.110,-7.560,-24.570,-44.940
7536021,-0.935,0.182,-0.120,-7.210,-23.870,-42.350
7536040,-0.938,0.181,-0.105,-7.770,-22.260,-40.390
7536057,-0.932,0.181,-0.087,-8.120,-20.160,-37.590
7536076,-0.957,0.180,-0.062,-8.750,-17.920,-34.440
7536101,-0.980,0.168,-0.067,-8.470,-17.010,-31.220
7536121,-0.974,0.146,-0.070,-8.680,-15.750,-28.840
7536136,-0.949,0.135,-0.076,-10.360,-15.610,-27.300
7536160,-0.941,0.123,-0.070,-14.280,-11.760,-26.040
7536180,-0.971,0.123,-0.039,-15.890,-8.610,-23.520
7536201,-0.976,0.109,-0.028,-17.010,-7.700,-19.530
7536219,-0.978,0.081,-0.033,-17.430,-9.590,-15.470
7536238,-0.962,0.063,-0.056,-16.100,-8.680,-12.040
7536261,-0.963,0.044,-0.030,-15.120,-5.390,-8.190
7536278,-0.958,0.018,-0.025,-14.490,-2.800,-5.950
7536298,-0.961,0.002,-0.008,-14.000,-1.050,-3.010
7536317,-0.959,0.002,-0.009,-13.930,-0.210,1.540
7536342,-0.960,0.029,-0.022,-16.660,1.890,8.960
7536362,-0.955,0.064,-0.022,-15.960,5.320,15.400
7536379,-0.941,0.068,-0.016,-15.540,8.330,21.280
7536399,-0.922,0.037,-0.003,-15.330,12.250,27.930
7536419,-0.928,0.015,-0.010,-14.070,15.190,33.810
7536439,-0.933,0.012,-0.032,-12.250,18.620,39.410
7536459,-0.923,0.013,-0.052,-8.960,22.260,46.200
7536482,-0.887,0.078,-0.061,-8.400,24.990,54.810
7536503,-0.888,0.123,-0.064,-6.860,31.290,63.000
7536523,-0.895,0.144,-0.025,-5.600,35.560,70.910
7536543,-0.895,0.150,-0.026,-3.150,35.210,77.210
7536563,-0.834,0.134,-0.081,-2.100,35.560,81.620
7536586,-0.809,0.178,-0.145,1.750,42.980,86.660
7536605,-0.832,0.225,-0.127,5.250,53.340,90.370
7536628,-0.834,0.290,-0.129,9.590,57.820,93.310
7536651,-0.775,0.296,-0.164,11.130,59.640,96.810
7536672,-0.714,0.292,-0.207,14.210,62.510,98.210
7536692,-0.747,0.341,-0.273,15.960,68.250,99.400
7536710,-0.732,0.421,-0.251,19.390,77.280,97.860
7536731,-0.697,0.547,-0.166,26.810,76.440,96.320
7536753,-0.631,0.580,-0.252,28.140,67.970,98.280
7536773,-0.575,0.596,-0.401,19.670,68.110,100.730
7536796,-0.572,0.633,-0.425,14.630,76.650,100.660
7536817,-0.608,0.676,-0.307,15.120,77.210,98.700
7536835,-0.634,0.702,-0.348,19.810,71.540,98.070
7536859,-0.591,0.668,-0.403,20.230,68.320,92.750
7536878,-0.538,0.667,-0.462,19.810,70.210,86.660
7536898,-0.566,0.738,-0.432,16.660,69.090,82.040
7536917,-0.531,0.777,-0.448,15.470,62.510,78.050
7536937,-0.442,0.793,-0.552,16.310,60.060,76.370
7536959,-0.390,0.808,-0.628,16.100,63.980,77.140
7536981,-0.376,0.838,-0.651,13.230,65.170,76.090
7537002,-0.420,0.883,-0.585,13.510,57.750,74.690
7537019,-0.415,0.935,-0.608,12.880,49.140,71.260
7537038,-0.378,0.950,-0.652,8.470,46.690,66.850
7537058,-0.372,0.956,-0.691,5.600,43.610,60.550
7537083,-0.375,0.951,-0.697,5.810,38.640,51.100
7537098,-0.411,0.960,-0.709,8.400,32.970,45.430
7537122,-0.388,0.994,-0.698,8.820,23.590,36.260
7537143,-0.374,0.993,-0.693,5.530,15.400,30.310
7537167,-0.393,0.945,-0.679,3.570,4.690,23.590
7537188,-0.340,0.943,-0.741,2.590,1.260,12.530
7537208,-0.317,0.966,-0.766,3.710,-1.050,2.170
7537227,-0.363,1.023,-0.744,4.200,-6.650,-4.690
7537248,-0.381,0.998,-0.740,0.560,-13.580,-12.180
7537268,-0.370,0.959,-0.714,-1.330,-17.570,-21.140
7537288,-0.371,0.939,-0.662,3.360,-20.930,-29.680
7537312,-0.407,0.873,-0.652,10.220,-29.190,-39.760
7537330,-0.386,0.821,-0.649,16.100,-36.260,-46.480
7537349,-0.367,0.827,-0.665,18.480,-42.490,-51.170
7537374,-0.378,0.863,-0.607,16.450,-44.310,-56.420
7537394,-0.385,0.846,-0.582,12.810,-46.900,-59.360
7537418,-0.401,0.797,-0.552,9.660,-50.190,-62.650
7537438,-0.418,0.750,-0.557,9.870,-50.960,-65.730
7537458,-0.421,0.703,-0.550,12.250,-50.260,-68.880
7537479,-0.443,0.692,-0.559,15.680,-53.060,-70.490
7537497,-0.496,0.698,-0.578,18.340,-54.950,-69.860
7537521,-0.503,0.690,-0.560,17.920,-54.670,-69.650
7537540,-0.515,0.695,-0.546,17.780,-56.490,-67.340
7537560,-0.561,0.684,-0.520,14.980,-58.030,-66.290
7537580,-0.589,0.661,-0.534,9.940,-61.670,-66.010
7537600,-0.592,0.671,-0.529,4.830,-62.160,-66.990
7537619,-0.608,0.669,-0.508,0.770,-62.230,-67.760
7537644,-0.629,0.615,-0.462,-3.850,-62.720,-68.180
7537664,-0.627,0.563,-0.462,-10.430,-63.350,-68.740
7537683,-0.671,0.531,-0.481,-14.770,-63.350,-68.880
7537707,-0.699,0.536,-0.474,-16.450,-62.020,-69.720
7537728,-0.712,0.549,-0.444,-16.800,-59.920,-70.770
7537746,-0.733,0.539,-0.407,-18.270,-59.430,-70.140
7537768,-0.768,0.512,-0.381,-19.250,-61.040,-68.460
7537785,-0.790,0.476,-0.359,-20.650,-60.620,-67.130
7537805,-0.779,0.444,-0.314,-23.380,-60.270,-66.290
7537826,-0.790,0.433,-0.328,-24.570,-60.690,-64.680
7537845,-0.792,0.407,-0.320,-24.710,-58.660,-63.700
7537867,-0.813,0.397,-0.295,-25.340,-56.420,-63.840
7537888,-0.820,0.376,-0.260,-25.690,-54.460,-63.350
7537908,-0.834,0.342,-0.226,-24.430,-54.600,-61.810
7537932,-0.851,0.313,-0.209,-23.590,-54.250,-59.500
7537952,-0.885,0.291,-0.189,-22.400,-51.870,-58.730
7537972,-0.884,0.281,-0.162,-19.250,-50.330,-58.030
7537988,-0.875,0.266,-0.155,-17.500,-49.070,-56.770
7538010,-0.852,0.242,-0.140,-18.200,-45.850,-54.530
7538030,-0.875,0.224,-0.129,-16.730,-40.250,-52.080
7538050,-0.923,0.224,-0.091,-13.440,-39.410,-50.400
7538069,-0.927,0.205,-0.070,-11.480,-37.030,-49.000
7538095,-0.915,0.173,-0.059,-11.550,-36.260,-46.130
7538114,-0.935,0.166,-0.071,-10.570,-36.540,-43.400
7538134,-0.960,0.176,-0.074,-7.350,-35.280,-40.040
7538154,-0.965,0.170,-0.073,-8.750,-31.080,-38.360
7538174,-0.973,0.137,-0.044,-11.970,-28.770,-38.920
7538198,-0.982,0.130,-0.050,-13.300,-28.280,-37.870
7538217,-0.980,0.122,-0.012,-11.550,-28.490,-34.720
7538240,-0.967,0.092,-0.011,-9.800,-29.680,-29.750
7538258,-0.976,0.062,-0.008,-10.500,-29.820,-26.390
7538278,-0.994,0.064,0.002,-9.100,-29.260,-23.730
7538302,-1.004,0.076,0.023,-6.580,-27.090,-20.300
7538325,-0.994,0.045,0.041,-7.000,-25.620,-19.040
7538345,-0.970,0.036,0.056,-6.650,-24.010,-18.900
7538367,-0.974,0.032,0.048,-5.180,-23.870,-17.010
7538387,-0.964,0.041,0.039,-4.900,-21.210,-14.140
7538407,-0.966,0.029,0.050,-6.580,-15.330,-12.110
7538427,-0.959,0.023,0.075,-5.740,-12.110,-10.430
7538450,-0.958,0.012,0.083,-1.470,-11.340,-7.630
7538474,-0.935,-0.010,0.074,1.120,-8.050,-5.040
7538490,-0.940,-0.013,0.083,-0.560,-3.500,-3.780
7538510,-0.954,-0.025,0.108,-1.120,0.420,-1.120
7538534,-0.965,-0.016,0.122,0.980,2.730,2.030
7538554,-0.980,0.011,0.110,3.430,4.130,5.880
7538574,-0.962,0.022,0.102,3.360,5.250,9.800
7538594,-0.959,0.022,0.087,1.120,7.910,13.510
7538618,-0.961,0.018,0.106,-1.820,11.760,18.690
7538638,-0.956,0.018,0.110,-0.280,12.530,23.870
7538657,-0.936,0.021,0.072,1.890,13.720,29.400
7538678,-0.902,0.020,0.048,1.470,19.740,35.210
7538697,-0.880,0.023,0.027,2.940,28.840,39.620
7538715,-0.882,0.064,0.071,6.230,34.020,44.660
7538737,-0.904,0.075,0.062,9.240,37.450,51.030
7538760,-0.930,0.107,0.054,8.400,40.180,56.490
7538781,-0.914,0.140,0.042,6.930,43.540,59.780
7538798,-0.882,0.149,0.019,6.650,44.520,62.860
7538821,-0.844,0.146,-0.020,8.820,46.060,67.480
7538840,-0.868,0.183,-0.071,14.140,49.980,70.910
7538859,-0.897,0.239,-0.071,17.780,57.540,72.590
7538879,-0.893,0.278,-0.063,19.180,59.780,74.060
7538899,-0.845,0.301,-0.103,18.690,61.390,75.110
7538925,-0.853,0.321,-0.128,16.730,56.910,78.470
7538945,-0.892,0.396,-0.209,20.720,59.290,80.150
7538964,-0.880,0.441,-0.167,23.590,68.040,79.310
7538984,-0.864,0.445,-0.157,22.120,68.880,80.080
7539004,-0.808,0.422,-0.221,19.110,67.340,80.080
7539024,-0.770,0.474,-0.282,16.590,65.100,80.570
7539044,-0.803,0.554,-0.287,15.820,68.040,81.130
7539067,-0.851,0.614,-0.183,18.480,64.890,82.250
7539086,-0.809,0.605,-0.239,20.720,58.450,83.440
7539108,-0.710,0.573,-0.369,14.840,63.140,84.910
7539128,-0.644,0.570,-0.423,10.080,69.860,84.840
7539148,-0.653,0.624,-0.351,6.580,72.590,83.230
7539172,-0.673,0.699,-0.305,5.740,64.610,82.180
7539191,-0.620,0.675,-0.345,4.340,60.550,82.670
7539212,-0.576,0.620,-0.429,1.890,59.010,82.670
7539232,-0.539,0.594,-0.504,-0.490,64.120,81.270
7539248,-0.552,0.634,-0.464,1.260,64.260,79.030
7539267,-0.564,0.692,-0.450,7.140,60.060,76.650
7539292,-0.481,0.726,-0.499,10.150,57.190,74.830
7539311,-0.438,0.747,-0.548,9.590,55.160,75.110
7539330,-0.409,0.774,-0.535,5.530,55.720,74.410
7539354,-0.379,0.792,-0.530,5.460,52.360,69.580
7539378,-0.406,0.820,-0.562,9.870,42.490,66.850
7539398,-0.388,0.891,-0.689,6.650,39.620,62.440
7539418,-0.385,0.946,-0.710,2.940,39.130,56.630
7539437,-0.355,0.970,-0.696,2.100,35.350,53.130
7539455,-0.394,0.986,-0.642,4.830,31.710,50.470
7539475,-0.436,0.967,-0.652,8.400,20.160,45.990
7539494,-0.412,0.932,-0.714,10.150,14.840,37.660
7539519,-0.408,0.963,-0.678,7.350,7.840,25.480
7539538,-0.403,0.948,-0.691,4.550,-0.210,13.300
7539558,-0.365,0.920,-0.732,3.850,-2.940,3.430
7539581,-0.363,0.965,-0.757,5.460,-4.690,-6.580
7539601,-0.383,0.988,-0.702,6.230,-9.590,-14.910
7539621,-0.378,0.940,-0.657,6.020,-16.730,-22.050
7539642,-0.387,0.875,-0.652,7.280,-23.100,-29.190
7539663,-0.407,0.863,-0.674,7.980,-28.420,-38.640
7539683,-0.403,0.865,-0.693,9.450,-33.320,-47.110
7539706,-0.404,0.889,-0.657,13.580,-38.780,-54.950
7539727,-0.437,0.900,-0.590,17.780,-45.570,-57.610
7539747,-0.446,0.878,-0.585,15.260,-50.400,-59.990
7539767,-0.458,0.806,-0.591,10.640,-51.520,-64.190
7539786,-0.448,0.782,-0.563,7.420,-52.150,-68.180
7539811,-0.471,0.763,-0.515,8.050,-57.050,-70.350
7539829,-0.520,0.761,-0.518,8.680,-60.410,-70.630
7539851,-0.518,0.727,-0.539,5.810,-60.690,-72.030
7539870,-0.485,0.663,-0.509,4.760,-61.740,-70.910
7539887,-0.525,0.661,-0.491,4.550,-61.950,-70.280
7539907,-0.560,0.641,-0.496,3.640,-62.300,-70.350
7539931,-0.570,0.611,-0.489,2.870,-61.670,-71.330
7539951,-0.596,0.599,-0.443,4.480,-61.670,-71.120
7539966,-0.616,0.604,-0.433,5.530,-62.300,-70.140
7539990,-0.643,0.590,-0.455,3.780,-64.120,-70.000
7540008,-0.670,0.603,-0.434,1.890,-62.370,-69.930
7540028,-0.722,0.599,-0.396,0.420,-63.490,-69.860
7540052,-0.729,0.576,-0.354,-3.640,-64.190,-70.000
7540072,-0.746,0.506,-0.353,-6.860,-66.010,-69.300
7540090,-0.771,0.468,-0.376,-8.680,-66.570,-69.720
7540114,-0.797,0.476,-0.374,-9.800,-63.560,-70.210
7540132,-0.849,0.500,-0.313,-10.010,-64.400,-69.720
7540152,-0.860,0.505,-0.301,-10.290,-65.730,-69.790
7540176,-0.854,0.488,-0.296,-12.880,-65.800,-70.070
7540196,-0.831,0.434,-0.285,-14.560,-63.840,-69.440
7540215,-0.803,0.365,-0.257,-15.960,-60.340,-69.230
7540234,-0.782,0.331,-0.209,-16.800,-57.400,-69.440
7540258,-0.823,0.293,-0.206,-15.470,-55.790,-69.090
7540275,-0.865,0.289,-0.175,-13.160,-54.320,-69.370
7540300,-0.883,0.323,-0.174,-12.810,-56.070,-67.830
7540315,-0.903,0.322,-0.168,-14.700,-54.950,-66.220
7540339,-0.906,0.290,-0.143,-14.630,-53.270,-63.700
7540358,-0.913,0.256,-0.129,-13.860,-49.700,-61.040
7540375,-0.928,0.236,-0.100,-13.510,-49.700,-57.960
7540398,-0.941,0.218,-0.103,-12.810,-49.210,-53.480
7540419,-0.932,0.215,-0.062,-12.040,-47.110,-50.120
7540443,-0.949,0.193,-0.051,-14.140,-44.730,-46.410
7540460,-0.948,0.161,-0.035,-16.310,-43.890,-44.940
7540480,-0.962,0.148,-0.024,-17.360,-43.260,-41.860
7540503,-0.949,0.132,-0.033,-18.340,-38.570,-38.640
7540523,-0.931,0.110,-0.003,-19.950,-33.600,-36.470
7540543,-0.898,0.099,0.027,-18.970,-29.750,-33.460
7540567,-0.867,0.088,0.046,-16.310,-26.460,-27.440
7540587,-0.839,0.051,0.027,-12.390,-18.340,-22.400
7540606,-0.841,0.029,0.066,-11.760,-11.130,-16.800
7540627,-0.877,-0.004,0.086,-14.280,-3.850,-10.500
7540648,-0.921,-0.013,0.117,-16.100,0.210,-2.800
7540668,-0.947,-0.012,0.082,-15.330,2.870,4.620
7540691,-0.957,-0.010,0.095,-10.990,10.220,13.930
7540711,-0.972,-0.027,0.096,-9.450,13.300,22.470
7540733,-0.964,-0.040,0.094,-9.870,15.610,30.730
7540753,-0.932,-0.017,0.079,-7.000,18.900,37.660
7540774,-0.925,0.016,0.048,-3.430,23.310,44.870
7540794,-0.922,0.035,0.031,-3.080,26.600,50.680
7540817,-0.927,0.056,0.009,-3.570,27.650,56.630
7540837,-0.920,0.066,0.002,-2.940,30.520,60.970
7540856,-0.922,0.096,0.003,-0.420,34.300,64.470
7540877,-0.926,0.125,-0.004,2.310,38.010,68.600
7540896,-0.899,0.159,-0.009,4.270,40.950,72.870
7540920,-0.882,0.183,-0.031,5.460,41.370,78.120
7540940,-0.905,0.209,-0.041,8.960,40.530,81.480
7540955,-0.941,0.237,-0.071,10.920,42.210,83.510
7540976,-0.924,0.273,-0.078,10.500,46.410,84.700
7541000,-0.864,0.297,-0.103,10.220,50.610,85.680
7541020,-0.838,0.318,-0.140,13.230,49.770,86.450
7541039,-0.844,0.344,-0.180,16.520,50.680,88.340
7541059,-0.882,0.417,-0.187,21.630,54.530,88.760
7541082,-0.899,0.448,-0.108,19.880,58.170,87.150
7541100,-0.851,0.447,-0.135,18.130,51.940,84.210
7541125,-0.739,0.495,-0.283,16.100,56.490,84.700
7541143,-0.680,0.510,-0.316,15.610,66.850,85.470
7541163,-0.678,0.504,-0.243,18.900,69.650,83.720
7541182,-0.668,0.519,-0.191,21.070,69.300,79.450
7541206,-0.659,0.524,-0.265,19.460,62.510,76.020
7541226,-0.590,0.564,-0.404,20.300,66.430,74.270
7541250,-0.572,0.609,-0.407,20.580,72.100,73.150
7541270,-0.619,0.684,-0.343,23.800,68.670,70.910
7541289,-0.659,0.743,-0.314,22.540,62.720,70.000
7541309,-0.633,0.743,-0.410,19.530,58.380,67.410
7541333,-0.578,0.771,-0.496,14.350,61.180,66.220
7541351,-0.584,0.826,-0.481,12.180,62.580,66.360
7541373,-0.558,0.847,-0.412,14.490,58.800,65.240
7541392,-0.517,0.801,-0.467,16.310,55.300,63.280
7541417,-0.449,0.753,-0.529,13.930,56.840,59.500
7541436,-0.406,0.749,-0.563,14.910,56.840,56.770
7541457,-0.398,0.804,-0.559,18.620,55.090,54.880
7541477,-0.395,0.859,-0.558,22.610,48.230,52.570
7541497,-0.367,0.855,-0.601,18.410,45.640,48.160
7541517,-0.340,0.874,-0.618,10.710,46.550,42.700
7541537,-0.367,0.926,-0.646,7.770,41.650,38.640
7541555,-0.376,0.945,-0.645,4.550,37.520,36.680
7541575,-0.361,0.937,-0.647,2.380,32.970,34.090
7541599,-0.346,0.924,-0.679,1.190,34.020,27.230
7541619,-0.344,0.907,-0.654,3.920,31.010,19.810
7541638,-0.374,0.901,-0.675,4.620,23.030,13.580
7541657,-0.399,0.897,-0.745,6.020,14.770,5.950
7541676,-0.367,0.937,-0.753,6.790,12.110,-2.870
7541699,-0.394,0.976,-0.711,6.860,5.250,-12.460
7541723,-0.413,0.962,-0.740,7.210,-5.810,-22.050
7541743,-0.367,0.930,-0.773,6.930,-9.310,-30.170
7541762,-0.351,0.911,-0.730,5.110,-13.440,-37.590
7541787,-0.385,0.926,-0.707,8.050,-24.920,-45.710
7541805,-0.416,0.926,-0.678,10.850,-34.160,-50.960
7541826,-0.425,0.899,-0.677,11.340,-40.390,-57.400
7541846,-0.432,0.860,-0.671,8.190,-46.410,-64.120
7541866,-0.449,0.797,-0.681,3.360,-51.170,-70.770
7541886,-0.475,0.772,-0.641,2.870,-53.760,-76.160
7541904,-0.519,0.722,-0.621,3.710,-59.150,-80.710
7541924,-0.524,0.682,-0.610,4.060,-61.810,-87.080
7541948,-0.543,0.671,-0.566,6.300,-64.540,-91.140
7541972,-0.567,0.666,-0.505,8.260,-70.770,-91.560
7541990,-0.568,0.753,-0.484,3.150,-78.330,-88.130
7542012,-0.645,0.678,-0.524,5.740,-85.260,-84.980
7542032,-0.658,0.677,-0.549,2.800,-84.000,-83.720
7542052,-0.662,0.645,-0.479,1.750,-80.080,-83.720
7542067,-0.679,0.609,-0.417,2.170,-80.150,-82.320
7542092,-0.683,0.555,-0.405,-1.260,-80.570,-79.800
7542110,-0.666,0.508,-0.393,-4.340,-79.590,-79.240
7542132,-0.686,0.511,-0.334,-7.700,-79.240,-76.650
7542152,-0.727,0.520,-0.318,-8.260,-78.960,-73.500
7542176,-0.774,0.517,-0.309,-9.940,-78.680,-69.720
7542194,-0.774,0.467,-0.336,-15.540,-75.460,-68.460
7542214,-0.750,0.427,-0.295,-19.740,-70.840,-67.900
7542239,-0.766,0.421,-0.225,-20.580,-66.710,-65.800
7542257,-0.813,0.420,-0.211,-18.340,-66.990,-63.000
7542276,-0.836,0.396,-0.190,-16.310,-65.450,-60.900
7542298,-0.848,0.354,-0.179,-16.520,-66.080,-58.590
7542322,-0.847,0.351,-0.175,-19.320,-60.900,-56.700
7542342,-0.864,0.336,-0.129,-21.630,-53.970,-55.930
7542362,-0.885,0.311,-0.079,-22.890,-50.050,-54.600
7542381,-0.897,0.287,-0.071,-23.800,-51.240,-53.410
7542404,-0.908,0.293,-0.104,-22.820,-52.850,-51.030
7542427,-0.912,0.272,-0.102,-21.210,-50.400,-49.140
7542448,-0.916,0.255,-0.073,-20.090,-48.020,-48.020
7542468,-0.913,0.211,-0.042,-20.930,-44.380,-46.060
7542488,-0.929,0.176,-0.025,-20.370,-43.820,-44.870
7542508,-0.953,0.182,-0.013,-19.320,-44.450,-42.840
7542528,-0.956,0.172,0.008,-16.590,-45.220,-40.740
7542553,-0.937,0.153,0.025,-11.760,-44.870,-37.240
7542572,-0.913,0.117,0.015,-9.590,-41.160,-35.770
7542596,-0.912,0.112,0.030,-12.040,-35.910,-35.700
7542616,-0.904,0.115,0.030,-15.960,-30.660,-34.860
7542635,-0.909,0.136,0.080,-12.180,-28.630,-31.710
7542657,-0.927,0.129,0.065,-8.540,-27.230,-26.600
7542679,-0.963,0.084,0.086,-8.260,-22.050,-22.050
7542696,-0.962,0.062,0.094,-8.820,-18.970,-20.160
7542716,-0.955,0.056,0.108,-9.240,-14.910,-18.130
7542739,-0.960,0.052,0.118,-8.470,-10.710,-15.400
7542761,-0.983,0.031,0.161,-7.210,-7.630,-12.600
7542779,-0.997,0.014,0.173,-6.930,-8.400,-10.290
7542800,-1.018,0.019,0.139,-7.350,-8.400,-8.610
7542816,-1.000,0.028,0.121,-8.120,-5.810,-8.120
7542835,-0.989,0.028,0.123,-11.480,-2.660,-7.770
7542860,-1.001,0.020,0.138,-14.770,-2.870,-7.420
7542879,-1.021,0.058,0.162,-10.780,-4.830,-6.930
7542897,-1.027,0.060,0.168,-7.000,-2.800,-7.910
7542921,-1.021,0.056,0.132,-12.180,-3.360,-11.620
7542941,-0.969,0.068,0.075,-23.100,-2.660,-14.770
7542959,-0.918,0.107,0.058,-24.920,1.120,-16.170
7542981,-0.911,0.104,0.087,-25.270,7.770,-17.500
7542998,-0.919,0.081,0.117,-26.810,10.640,-18.900
7543018,-0.935,0.096,0.132,-27.930,11.480,-21.210
7543037,-0.948,0.100,0.113,-30.590,13.090,-23.730
7543062,-0.956,0.078,0.081,-35.490,15.750,-28.280
7543082,-0.973,0.027,0.063,-38.220,16.660,-33.110
7543102,-0.960,0.004,0.058,-36.470,17.290,-36.190
7543123,-0.962,-0.018,0.079,-35.070,18.830,-38.290
7543143,-0.963,-0.054,0.085,-35.840,20.720,-42.210
7543162,-0.981,-0.061,0.063,-34.370,20.650,-43.540
7543187,-0.991,-0.087,0.037,-33.740,20.650,-47.390
7543206,-0.980,-0.106,0.058,-33.740,21.140,-49.630
7543226,-0.974,-0.142,0.067,-34.720,21.350,-51.730
7543249,-0.980,-0.157,0.024,-32.410,21.280,-51.800
7543270,-0.988,-0.191,0.039,-27.930,20.860,-50.680
7543289,-0.998,-0.250,0.036,-25.270,19.880,-52.010
7543313,-0.966,-0.280,0.017,-21.770,21.770,-56.490
7543331,-0.958,-0.294,-0.012,-16.800,21.840,-60.830
7543354,-0.980,-0.317,-0.006,-17.710,23.590,-62.510
7543375,-0.981,-0.353,0.026,-17.360,21.630,-61.600
7543394,-0.965,-0.341,0.034,-12.740,20.440,-62.020
7543413,-0.920,-0.330,-0.008,-11.620,24.500,-63.910
7543434,-0.897,-0.353,-0.038,-13.510,25.340,-68.600
7543458,-0.875,-0.360,-0.052,-15.260,25.130,-73.500
7543478,-0.879,-0.375,-0.019,-18.200,27.370,-74.480
7543496,-0.839,-0.381,-0.025,-15.120,27.580,-75.810
7543518,-0.744,-0.379,-0.083,-10.430,30.660,-77.280
7543541,-0.695,-0.429,-0.179,-9.240,37.520,-82.600
7543562,-0.681,-0.436,-0.149,-19.180,47.250,-84.420
7543582,-0.650,-0.460,-0.136,-30.100,52.990,-87.290
7543604,-0.639,-0.425,-0.105,-37.450,54.180,-90.510
7543627,-0.615,-0.427,-0.133,-40.180,51.030,-91.630
7543644,-0.613,-0.471,-0.184,-39.690,50.330,-90.650
7543665,-0.639,-0.581,-0.211,-36.960,52.920,-88.550
7543683,-0.619,-0.611,-0.240,-33.320,54.390,-86.800
7543709,-0.561,-0.649,-0.299,-28.700,59.990,-87.850
7543728,-0.528,-0.690,-0.332,-30.100,64.610,-91.070
7543748,-0.559,-0.718,-0.321,-29.890,65.870,-91.280
7543766,-0.565,-0.736,-0.285,-25.270,64.330,-93.240
7543790,-0.575,-0.743,-0.279,-19.950,62.370,-95.200
7543810,-0.514,-0.748,-0.352,-22.470,60.970,-95.830
7543830,-0.446,-0.678,-0.444,-28.420,63.420,-94.500
7543851,-0.376,-0.753,-0.485,-35.070,65.380,-91.350
7543869,-0.392,-0.797,-0.472,-35.840,67.900,-88.900
7543892,-0.440,-0.811,-0.456,-29.050,60.760,-81.200
7543916,-0.404,-0.861,-0.475,-22.050,59.640,-68.530
7543932,-0.272,-0.921,-0.543,-13.510,66.430,-69.090
7543955,-0.292,-0.915,-0.532,-7.070,60.690,-65.590
7543975,-0.294,-0.930,-0.503,3.500,52.850,-61.670
7543999,-0.315,-1.011,-0.526,13.090,53.410,-57.400
7544019,-0.277,-0.877,-0.667,14.210,51.100,-55.160
7544039,-0.275,-0.927,-0.639,9.380,48.370,-51.450
7544063,-0.313,-0.983,-0.628,2.240,43.470,-44.520
7544080,-0.304,-1.012,-0.624,-3.850,36.260,-39.270
7544104,-0.265,-0.965,-0.639,-8.610,24.780,-30.450
7544125,-0.214,-0.901,-0.639,-7.420,18.410,-21.420
7544142,-0.159,-0.978,-0.671,-6.860,17.990,-14.140
7544166,-0.113,-1.099,-0.638,-9.660,18.200,-10.990
7544186,-0.142,-1.051,-0.718,-10.430,12.390,-7.350
7544205,-0.147,-1.066,-0.728,-6.930,14.280,-1.680
7544226,-0.208,-1.047,-0.635,-10.710,7.910,7.840
7544246,-0.215,-0.966,-0.662,-10.430,-2.590,13.230
7544270,-0.169,-0.941,-0.678,-12.180,-5.250,19.530
7544290,-0.163,-1.004,-0.621,-15.190,-13.230,28.630
7544306,-0.143,-0.980,-0.592,-12.040,-35.490,34.020
7544325,-0.160,-0.948,-0.589,-9.730,-24.640,38.780
7544345,-0.193,-0.903,-0.653,-7.560,-26.320,42.910
7544371,-0.222,-0.898,-0.643,-10.780,-28.280,46.130
7544390,-0.264,-0.899,-0.589,-13.860,-33.670,48.300
7544409,-0.275,-0.877,-0.611,-11.690,-40.390,51.800
7544432,-0.253,-0.835,-0.615,-10.360,-42.840,56.000
7544451,-0.281,-0.827,-0.564,-10.010,-42.560,55.580
7544474,-0.321,-0.775,-0.541,-10.290,-45.360,56.000
7544498,-0.350,-0.748,-0.531,-11.620,-43.960,56.630
7544518,-0.373,-0.722,-0.535,-13.370,-48.650,57.610
7544538,-0.392,-0.708,-0.547,-11.550,-53.060,57.750
7544554,-0.410,-0.712,-0.546,-9.800,-55.510,59.220
7544577,-0.409,-0.726,-0.512,-9.310,-56.420,60.130
7544596,-0.434,-0.736,-0.513,-6.160,-58.660,59.360
7544616,-0.483,-0.717,-0.518,0.490,-61.810,58.380
7544640,-0.508,-0.693,-0.530,5.670,-64.260,57.120
7544661,-0.522,-0.666,-0.510,6.160,-64.400,54.250
7544680,-0.561,-0.663,-0.505,6.860,-62.230,52.640
7544699,-0.592,-0.644,-0.478,9.170,-64.260,53.340
7544723,-0.565,-0.594,-0.464,12.110,-63.280,54.250
7544742,-0.589,-0.576,-0.394,16.450,-62.440,54.950
7544766,-0.597,-0.575,-0.350,18.410,-64.680,56.840
7544787,-0.572,-0.575,-0.378,19.880,-64.610,57.260
7544804,-0.557,-0.531,-0.429,19.460,-61.810,54.040
7544823,-0.576,-0.492,-0.394,13.930,-55.860,50.050
7544847,-0.654,-0.457,-0.329,7.350,-53.270,48.440
7544871,-0.717,-0.432,-0.303,3.150,-51.520,48.300
7544891,-0.744,-0.448,-0.327,1.470,-55.300,49.560
7544911,-0.691,-0.471,-0.335,2.940,-48.720,47.320
7544931,-0.703,-0.469,-0.275,4.270,-44.940,41.790
7544950,-0.725,-0.454,-0.244,4.340,-41.720,36.260
7544974,-0.748,-0.444,-0.232,4.270,-41.580,29.750
7544993,-0.724,-0.448,-0.285,4.340,-40.600,26.250
7545012,-0.696,-0.434,-0.296,5.110,-35.490,22.330
7545036,-0.713,-0.404,-0.265,4.340,-28.420,16.450
7545057,-0.751,-0.400,-0.216,2.310,-21.910,10.290
7545077,-0.791,-0.403,-0.201,0.770,-20.090,5.740
7545095,-0.808,-0.420,-0.189,-0.140,-17.920,2.170
7545119,-0.785,-0.414,-0.183,-1.680,-14.350,-3.220
7545139,-0.769,-0.397,-0.186,-1.820,-10.990,-8.120
7545158,-0.768,-0.405,-0.215,-2.520,-6.930,-12.250
7545182,-0.775,-0.418,-0.209,-4.550,-1.400,-15.470
7545200,-0.790,-0.427,-0.195,-5.320,2.380,-18.410
7545220,-0.783,-0.420,-0.186,-6.020,5.740,-22.470
7545239,-0.785,-0.427,-0.212,-6.510,8.890,-26.320
7545265,-0.789,-0.452,-0.217,-7.490,11.970,-31.010
7545283,-0.806,-0.468,-0.213,-9.730,12.810,-33.810
7545304,-0.805,-0.484,-0.251,-13.580,10.990,-38.500
7545323,-0.786,-0.443,-0.235,-12.390,13.160,-42.000
7545344,-0.775,-0.466,-0.224,-11.900,17.220,-44.380
7545363,-0.786,-0.488,-0.225,-12.250,17.080,-46.410
7545383,-0.739,-0.503,-0.283,-13.020,20.230,-48.860
7545403,-0.709,-0.525,-0.267,-12.040,25.760,-51.590
7545427,-0.696,-0.527,-0.258,-14.910,26.740,-56.350
7545447,-0.658,-0.496,-0.303,-15.820,28.140,-60.830
7545466,-0.624,-0.483,-0.305,-15.960,32.130,-62.790
7545490,-0.619,-0.513,-0.295,-14.210,34.580,-64.820
7545510,-0.607,-0.539,-0.258,-13.300,33.600,-65.940
7545529,-0.581,-0.554,-0.273,-13.930,33.040,-66.150
7545550,-0.548,-0.540,-0.313,-11.060,34.510,-65.660
7545570,-0.505,-0.562,-0.383,-6.510,41.230,-66.010
7545590,-0.528,-0.693,-0.354,-8.400,45.220,-67.480
7545608,-0.521,-0.741,-0.359,-14.770,43.400,-69.580
7545630,-0.478,-0.706,-0.345,-17.850,45.220,-73.080
7545652,-0.463,-0.679,-0.329,-13.650,44.730,-74.340
7545669,-0.417,-0.686,-0.398,-10.570,48.860,-73.640
7545689,-0.431,-0.710,-0.341,-9.870,54.460,-73.500
7545710,-0.474,-0.695,-0.346,-10.570,49.770,-71.750
7545730,-0.417,-0.712,-0.425,-11.690,50.400,-70.420
7545753,-0.350,-0.755,-0.505,-7.980,55.300,-69.020
7545774,-0.353,-0.844,-0.474,-4.060,56.910,-65.870
7545791,-0.357,-0.923,-0.423,-3.360,53.900,-63.000
7545811,-0.273,-0.924,-0.425,-1.680,53.130,-62.300
7545831,-0.263,-0.883,-0.444,1.890,55.160,-62.230
7545851,-0.283,-0.853,-0.459,3.150,50.190,-60.270
7545875,-0.254,-0.827,-0.517,2.450,45.920,-53.830
7545895,-0.257,-0.875,-0.593,0.700,45.220,-46.900
7545916,-0.255,-0.928,-0.609,-6.370,45.640,-43.610
7545933,-0.201,-0.983,-0.693,-16.310,41.160,-42.000
7545955,-0.202,-0.973,-0.617,-17.780,38.710,-38.920
7545974,-0.211,-0.955,-0.587,-11.620,35.980,-31.640
7545992,-0.207,-0.966,-0.573,-4.060,32.060,-23.030
7546016,-0.140,-0.998,-0.591,-6.860,26.880,-16.170
7546036,-0.105,-0.893,-0.663,-16.590,25.480,-13.230
7546055,-0.067,-0.908,-0.695,-15.890,24.010,-10.780
7546076,-0.041,-0.935,-0.743,-10.430,26.740,-6.650
7546095,-0.051,-1.019,-0.765,-8.050,28.140,-3.080
7546115,-0.159,-1.040,-0.753,-14.070,23.450,2.940
7546136,-0.177,-0.982,-0.742,-21.490,16.450,6.930
7546160,-0.133,-0.956,-0.714,-18.060,10.220,11.900
7546180,-0.098,-0.931,-0.706,-11.340,4.900,19.670
7546199,-0.121,-0.934,-0.671,-13.300,1.470,29.610
7546224,-0.155,-0.942,-0.654,-14.140,-7.070,38.220
7546244,-0.109,-0.923,-0.701,-11.130,-12.670,44.100
7546261,-0.117,-0.889,-0.667,-7.490,-14.420,46.480
7546285,-0.156,-0.869,-0.647,-7.980,-18.410,49.560
7546305,-0.184,-0.854,-0.667,-9.940,-21.280,52.430
7546321,-0.211,-0.806,-0.674,-11.970,-24.290,53.550
7546340,-0.222,-0.799,-0.680,-14.700,-28.630,55.020
7546364,-0.221,-0.817,-0.677,-15.120,-32.060,57.750
7546384,-0.249,-0.804,-0.614,-14.910,-33.670,58.240
7546405,-0.280,-0.772,-0.614,-12.320,-36.330,58.940
7546425,-0.272,-0.734,-0.648,-9.730,-38.570,60.410
7546442,-0.269,-0.691,-0.626,-8.050,-37.800,62.230
7546462,-0.303,-0.664,-0.598,-9.170,-41.370,63.700
7546482,-0.326,-0.653,-0.594,-7.490,-44.800,64.400
7546506,-0.362,-0.663,-0.589,-1.750,-45.290,63.630
7546521,-0.377,-0.657,-0.578,1.960,-46.410,64.050
7546546,-0.386,-0.659,-0.578,3.920,-47.810,63.280
7546567,-0.428,-0.660,-0.553,6.440,-49.980,62.370
7546585,-0.475,-0.656,-0.553,5.110,-52.710,61.110
7546604,-0.491,-0.644,-0.567,5.110,-56.070,58.100
7546623,-0.496,-0.622,-0.598,6.440,-55.230,56.210
7546649,-0.518,-0.616,-0.557,6.860,-53.970,57.190
7546668,-0.604,-0.596,-0.473,7.210,-57.400,57.820
7546687,-0.655,-0.591,-0.469,7.560,-61.810,59.430
7546705,-0.632,-0.602,-0.495,6.510,-63.560,61.390
7546724,-0.640,-0.612,-0.467,6.440,-61.460,61.810
7546749,-0.695,-0.600,-0.428,8.610,-65.030,65.030
7546768,-0.712,-0.590,-0.416,9.800,-66.850,69.370
7546787,-0.698,-0.563,-0.396,11.760,-67.130,70.980
7546812,-0.694,-0.511,-0.377,12.040,-65.030,70.840
7546831,-0.730,-0.477,-0.362,14.070,-65.800,71.680
7546851,-0.773,-0.464,-0.369,16.800,-68.250,76.090
7546871,-0.747,-0.467,-0.368,18.550,-65.730,80.290
7546893,-0.767,-0.453,-0.304,18.480,-63.770,80.010
7546911,-0.805,-0.407,-0.285,13.580,-66.430,79.310
7546930,-0.845,-0.368,-0.244,11.130,-67.830,78.960
7546954,-0.897,-0.349,-0.202,15.190,-69.090,80.010
7546976,-0.914,-0.324,-0.200,15.540,-72.310,80.710
7546998,-0.859,-0.298,-0.242,18.480,-68.600,78.960
7547018,-0.820,-0.258,-0.227,14.350,-62.300,75.670
7547038,-0.779,-0.218,-0.162,14.840,-54.110,70.000
7547061,-0.793,-0.172,-0.065,15.890,-44.170,64.190
7547081,-0.840,-0.171,-0.052,7.910,-44.660,58.170
7547105,-0.835,-0.183,-0.105,1.890,-46.200,45.080
7547126,-0.803,-0.187,-0.156,-0.980,-35.350,34.860
7547144,-0.833,-0.143,-0.130,-0.420,-25.340,26.670
7547168,-0.852,-0.139,-0.087,1.330,-18.340,18.270
7547188,-0.909,-0.123,-0.061,2.170,-10.360,12.530
7547208,-0.957,-0.116,-0.023,2.030,-8.190,6.510
7547226,-0.951,-0.128,-0.053,1.400,-6.860,0.560
7547250,-0.940,-0.130,-0.081,2.030,-3.640,-7.000
7547267,-0.925,-0.124,-0.081,3.990,-2.940,-11.620
7547286,-0.924,-0.071,-0.077,5.670,3.150,-16.940
7547311,-0.941,-0.054,-0.061,3.850,8.400,-21.560
7547330,-0.946,-0.094,-0.043,0.910,9.030,-26.040
7547350,-0.946,-0.127,-0.059,-0.140,7.140,-30.450
7547371,-0.952,-0.133,-0.068,0.280,7.210,-35.770
7547394,-0.950,-0.135,-0.075,-0.420,8.890,-41.020
7547413,-0.950,-0.142,-0.075,-0.140,10.710,-44.310
7547438,-0.926,-0.156,-0.084,-0.490,12.250,-46.340
7547457,-0.902,-0.167,-0.098,-2.590,14.280,-49.420
7547474,-0.906,-0.178,-0.087,-4.060,16.100,-53.060
7547498,-0.895,-0.209,-0.095,-4.340,17.360,-56.350
7547518,-0.891,-0.246,-0.104,-4.830,20.090,-59.080
7547541,-0.904,-0.257,-0.137,-5.320,20.090,-62.370
7547562,-0.881,-0.284,-0.131,-9.030,24.500,-65.660
7547581,-0.842,-0.305,-0.131,-11.340,29.120,-69.720
7547601,-0.823,-0.308,-0.112,-14.070,29.820,-74.480
7547621,-0.774,-0.348,-0.138,-15.190,30.520,-78.610
7547645,-0.743,-0.398,-0.171,-17.920,34.090,-84.420
7547664,-0.741,-0.424,-0.208,-22.330,38.850,-88.410
7547683,-0.721,-0.404,-0.205,-28.210,43.820,-91.000
7547707,-0.684,-0.373,-0.224,-31.990,47.670,-92.260
7547728,-0.650,-0.406,-0.244,-32.900,54.530,-92.890
7547747,-0.659,-0.480,-0.266,-29.190,56.560,-92.260
7547771,-0.680,-0.568,-0.260,-28.840,58.170,-90.300
7547786,-0.653,-0.610,-0.261,-29.820,57.960,-89.740
7547812,-0.568,-0.602,-0.337,-27.370,58.870,-93.030
7547830,-0.557,-0.630,-0.410,-27.650,65.100,-96.740
7547849,-0.615,-0.691,-0.375,-31.640,65.800,-97.020
7547874,-0.628,-0.717,-0.316,-33.390,56.560,-94.010
7547892,-0.501,-0.691,-0.444,-30.100,60.550,-92.610
7547916,-0.445,-0.683,-0.509,-23.310,71.260,-88.690
7547934,-0.390,-0.703,-0.490,-23.100,72.730,-85.680
7547953,-0.380,-0.739,-0.404,-25.060,71.260,-81.270
7547977,-0.415,-0.774,-0.393,-22.820,65.030,-78.120
7547996,-0.416,-0.802,-0.456,-15.400,61.810,-76.160
7548013,-0.366,-0.846,-0.495,-6.440,63.000,-74.410
7548034,-0.359,-0.874,-0.539,0.910,62.230,-71.120
7548054,-0.363,-0.889,-0.554,2.240,58.870,-67.410
7548074,-0.352,-0.871,-0.610,0.350,55.090,-61.880
7548098,-0.325,-0.861,-0.628,-2.100,56.700,-55.650
7548118,-0.300,-0.873,-0.633,-8.960,52.150,-51.660
7548134,-0.241,-0.915,-0.646,-13.650,46.620,-48.440
7548157,-0.241,-0.925,-0.705,-11.270,41.230,-42.700
7548178,-0.247,-0.936,-0.700,-11.060,36.260,-31.290
7548195,-0.204,-0.917,-0.701,-12.950,36.050,-24.570
7548215,-0.190,-0.918,-0.708,-13.650,32.480,-19.250
7548235,-0.181,-0.971,-0.682,-6.230,29.470,-13.720
7548258,-0.160,-1.049,-0.697,6.790,25.480,-6.650
7548279,-0.172,-1.105,-0.728,7.770,20.790,-1.260
7548298,-0.168,-1.027,-0.797,1.400,19.110,5.250
7548318,-0.223,-0.916,-0.703,-2.870,15.890,14.210
7548343,-0.200,-0.929,-0.720,-6.230,7.000,19.600
7548362,-0.121,-0.946,-0.764,-4.550,5.670,24.920
7548383,-0.149,-0.983,-0.793,-1.540,5.110,31.920
7548403,-0.213,-1.002,-0.737,-4.690,-0.490,37.030
7548423,-0.226,-0.941,-0.691,-12.670,-4.550,44.240
7548447,-0.221,-0.861,-0.641,-15.610,-13.370,50.960
7548466,-0.212,-0.811,-0.631,-14.420,-18.200,55.580
7548490,-0.236,-0.768,-0.625,-14.630,-22.610,60.970
7548508,-0.265,-0.779,-0.649,-18.410,-26.950,62.790
7548531,-0.274,-0.814,-0.640,-20.020,-30.240,67.830
7548550,-0.268,-0.798,-0.623,-17.570,-33.600,71.050
7548571,-0.266,-0.745,-0.630,-14.560,-36.890,72.940
7548590,-0.300,-0.703,-0.621,-13.580,-38.430,71.540
7548614,-0.355,-0.689,-0.623,-15.260,-39.270,67.690
7548630,-0.370,-0.673,-0.613,-17.920,-40.740,65.660
7548653,-0.363,-0.669,-0.619,-15.470,-46.200,69.370
7548674,-0.497,-0.643,-0.626,-8.330,-48.790,71.540
7548694,-0.391,-0.648,-0.621,-1.050,-44.730,69.720
7548718,-0.427,-0.639,-0.565,-0.350,-41.300,64.820
7548738,-0.423,-0.614,-0.539,0.910,-43.610,61.880
7548758,-0.452,-0.576,-0.546,6.790,-48.370,61.810
7548778,-0.464,-0.532,-0.578,11.060,-52.220,63.840
7548798,-0.485,-0.515,-0.557,12.740,-49.630,64.330
7548822,-0.529,-0.496,-0.523,10.920,-44.590,60.900
7548842,-0.584,-0.481,-0.510,10.010,-44.310,56.280
7548861,-0.616,-0.491,-0.534,9.730,-44.450,55.020
7548885,-0.617,-0.513,-0.520,12.460,-45.290,55.300
7548905,-0.634,-0.519,-0.508,12.320,-46.690,52.990
7548925,-0.651,-0.525,-0.497,12.040,-44.800,49.070
7548949,-0.679,-0.500,-0.452,12.040,-42.350,44.660
7548969,-0.699,-0.462,-0.403,12.250,-43.470,40.530
7548989,-0.689,-0.434,-0.415,11.760,-43.120,38.570
7549009,-0.685,-0.423,-0.437,11.970,-42.490,37.800
7549028,-0.677,-0.401,-0.441,13.020,-39.900,36.680
7549049,-0.686,-0.396,-0.404,12.740,-37.940,33.880
7549069,-0.690,-0.397,-0.387,11.340,-35.980,29.470
7549093,-0.693,-0.401,-0.385,10.080,-33.530,24.500
7549113,-0.721,-0.386,-0.375,9.520,-31.920,21.630
7549133,-0.779,-0.380,-0.351,11.200,-32.620,19.530
7549156,-0.831,-0.378,-0.349,10.780,-35.490,17.920
7549172,-0.833,-0.402,-0.370,8.260,-38.010,15.890
7549197,-0.816,-0.389,-0.385,9.730,-32.060,11.900
7549217,-0.819,-0.379,-0.366,10.430,-28.420,11.690
7549236,-0.813,-0.398,-0.326,9.030,-26.600,11.760
7549253,-0.811,-0.409,-0.305,7.910,-25.900,11.130
7549277,-0.838,-0.395,-0.279,6.790,-25.060,9.730
7549297,-0.820,-0.391,-0.285,5.530,-23.100,9.590
7549317,-0.785,-0.400,-0.292,4.970,-18.340,8.540
7549336,-0.819,-0.382,-0.262,2.450,-16.310,7.490
7549356,-0.847,-0.380,-0.238,-1.050,-15.750,7.070
7549380,-0.843,-0.398,-0.233,-2.170,-15.750,5.810
7549400,-0.778,-0.416,-0.259,-0.700,-13.020,0.630
7549420,-0.756,-0.394,-0.253,0.770,-5.530,-4.970
7549435,-0.761,-0.345,-0.267,-1.190,-3.220,-9.310
7549456,-0.769,-0.340,-0.261,-4.270,-0.420,-13.230
7549476,-0.773,-0.367,-0.262,-4.690,2.660,-16.100
7549500,-0.785,-0.379,-0.262,-2.730,6.230,-19.810
7549516,-0.779,-0.362,-0.287,-2.100,11.620,-22.750
7549536,-0.787,-0.351,-0.279,-3.290,16.310,-26.320
7549555,-0.759,-0.371,-0.279,-4.690,21.000,-31.010
7549579,-0.748,-0.375,-0.261,-7.140,24.220,-37.170
7549600,-0.747,-0.365,-0.261,-11.620,25.270,-43.610
7549619,-0.738,-0.362,-0.289,-14.140,26.320,-47.950
7549644,-0.711,-0.381,-0.297,-14.000,29.890,-54.670
7549663,-0.683,-0.400,-0.303,-13.720,32.830,-60.550
7549683,-0.674,-0.411,-0.326,-13.930,35.350,-65.100
7549704,-0.648,-0.431,-0.369,-14.700,40.390,-67.970
7549723,-0.614,-0.446,-0.367,-15.330,45.360,-71.400
7549740,-0.566,-0.449,-0.347,-18.410,51.100,-75.180
7549764,-0.560,-0.471,-0.338,-20.650,53.340,-79.240
7549779,-0.548,-0.487,-0.363,-18.760,52.500,-79.730
7549802,-0.526,-0.494,-0.415,-14.420,55.020,-80.430
7549826,-0.541,-0.542,-0.409,-5.740,55.720,-80.150
7549847,-0.547,-0.632,-0.417,1.260,58.730,-80.220
7549866,-0.531,-0.692,-0.415,0.490,59.570,-81.620
7549884,-0.508,-0.703,-0.430,-4.900,60.480,-83.580
7549907,-0.490,-0.671,-0.467,-9.870,61.530,-86.030
7549928,-0.517,-0.644,-0.470,-12.320,60.410,-86.030
7549952,-0.380,-0.689,-0.490,-10.010,56.490,-83.020
7549972,-0.433,-0.739,-0.553,-0.070,60.830,-79.170
7549992,-0.380,-0.790,-0.572,7.280,66.500,-76.300
7550011,-0.343,-0.834,-0.556,6.930,68.880,-73.990
7550032,-0.315,-0.831,-0.555,-4.130,61.460,-71.540
7550052,-0.263,-0.771,-0.608,-8.890,57.960,-68.530
7550071,-0.258,-0.744,-0.632,-9.170,58.310,-62.790
7550090,-0.234,-0.793,-0.660,-9.940,57.400,-55.860
7550115,-0.216,-0.861,-0.676,-9.170,54.320,-49.140
7550135,-0.217,-0.888,-0.720,-3.010,51.310,-44.100
7550154,-0.240,-0.904,-0.777,-2.660,45.920,-39.410
7550172,-0.270,-0.955,-0.788,-9.940,41.230,-33.040
7550196,-0.291,-0.995,-0.789,-13.440,36.540,-22.820
7550215,-0.292,-1.068,-0.794,-9.870,24.150,-15.470
7550232,-0.235,-1.075,-0.834,-8.050,14.490,-8.610
7550252,-0.187,-1.009,-0.879,-7.840,7.770,0.840
7550276,-0.182,-0.977,-0.830,-9.660,2.660,14.700
7550296,-0.137,-0.990,-0.808,-4.900,-2.030,19.530
7550317,-0.122,-0.971,-0.839,-0.140,-4.830,27.020
7550334,-0.137,-0.954,-0.835,-1.680,-6.580,36.050
7550352,-0.186,-0.875,-0.779,-7.910,-10.780,41.580
7550371,-0.223,-0.828,-0.715,-13.580,-18.410,47.460
7550394,-0.226,-0.801,-0.703,-17.920,-25.270,51.870
7550418,-0.208,-0.823,-0.720,-16.030,-30.310,59.780
7550438,-0.202,-0.847,-0.732,-13.790,-32.830,64.190
7550456,-0.215,-0.848,-0.672,-16.940,-34.160,66.850
7550480,-0.256,-0.818,-0.631,-18.550,-35.700,67.970
7550498,-0.279,-0.755,-0.642,-17.500,-39.970,68.180
7550517,-0.280,-0.695,-0.685,-14.770,-41.650,68.880
7550541,-0.305,-0.644,-0.670,-11.690,-40.810,72.660
7550565,-0.310,-0.624,-0.653,-10.290,-38.290,77.630
7550583,-0.344,-0.606,-0.618,-10.780,-36.120,77.070
7550604,-0.500,-0.598,-0.600,-11.410,-36.470,74.900
7550625,-0.416,-0.609,-0.604,-8.540,-40.180,74.830
7550640,-0.441,-0.606,-0.620,-4.900,-42.140,76.580
7550665,-0.437,-0.585,-0.605,-1.890,-43.470,79.450
7550681,-0.462,-0.540,-0.563,-1.540,-43.610,79.520
7550700,-0.502,-0.512,-0.544,-1.260,-44.940,78.540
7550725,-0.547,-0.525,-0.565,2.170,-43.820,77.490
7550749,-0.578,-0.542,-0.561,6.930,-42.910,77.420
7550773,-0.587,-0.539,-0.525,10.010,-43.120,74.900
7550797,-0.611,-0.501,-0.472,12.880,-44.800,72.520
7550817,-0.618,-0.448,-0.472,16.800,-47.320,70.560
7550836,-0.633,-0.422,-0.495,19.740,-44.520,69.510
7550852,-0.644,-0.416,-0.494,21.210,-40.180,67.830
7550877,-0.664,-0.411,-0.471,20.020,-37.170,61.460
7550897,-0.696,-0.399,-0.424,16.380,-37.590,55.160
7550917,-0.720,-0.381,-0.429,14.770,-38.500,49.910
7550936,-0.722,-0.352,-0.438,10.990,-39.060,45.290
7550960,-0.699,-0.339,-0.454,7.490,-37.100,38.990
7550975,-0.697,-0.313,-0.445,6.720,-35.350,34.440
7551000,-0.723,-0.294,-0.439,6.020,-32.480,27.230
7551015,-0.760,-0.291,-0.429,4.410,-31.430,24.010
7551040,-0.789,-0.304,-0.410,5.110,-31.500,20.230
7551059,-0.775,-0.311,-0.410,8.190,-28.910,17.990
7551080,-0.795,-0.310,-0.382,6.790,-27.650,13.090
7551099,-0.803,-0.314,-0.376,5.810,-27.580,7.980
7551119,-0.784,-0.306,-0.411,4.270,-26.180,2.870
7551144,-0.780,-0.323,-0.393,4.060,-21.000,-1.190
7551163,-0.810,-0.335,-0.362,3.710,-20.790,-5.040
7551183,-0.822,-0.332,-0.354,-0.210,-21.700,-9.240
7551204,-0.815,-0.314,-0.371,-1.470,-20.790,-13.230
7551222,-0.793,-0.296,-0.386,-0.070,-17.710,-14.980
7551241,-0.773,-0.285,-0.385,1.400,-12.320,-15.610
7551266,-0.778,-0.295,-0.363,-0.070,-6.440,-15.890
7551286,-0.776,-0.310,-0.340,0.490,-3.990,-16.590
7551306,-0.776,-0.319,-0.344,0.210,-3.570,-18.760
7551325,-0.792,-0.320,-0.335,-1.820,-4.200,-21.070
7551342,-0.813,-0.318,-0.347,-4.620,-5.740,-22.820
7551361,-0.807,-0.301,-0.361,-7.000,-4.760,-23.030
7551381,-0.796,-0.286,-0.379,-7.070,-0.770,-22.050
7551404,-0.777,-0.301,-0.369,-6.580,5.390,-21.840
7551423,-0.773,-0.333,-0.355,-9.310,11.340,-22.890
7551448,-0.762,-0.380,-0.333,-11.410,14.840,-26.600
7551468,-0.750,-0.394,-0.321,-10.010,14.350,-30.800
7551489,-0.721,-0.396,-0.346,-8.750,15.750,-34.020
7551507,-0.706,-0.395,-0.345,-8.330,18.550,-35.980
7551528,-0.708,-0.386,-0.342,-6.090,20.580,-37.450
7551548,-0.690,-0.406,-0.359,-3.710,22.960,-38.500
7551568,-0.660,-0.424,-0.374,0.210,28.420,-39.620
7551587,-0.632,-0.433,-0.380,-0.490,32.970,-40.810
7551610,-0.616,-0.442,-0.364,-2.730,36.540,-43.260
7551628,-0.609,-0.422,-0.381,-2.380,37.940,-45.640
7551648,-0.599,-0.428,-0.437,1.190,45.290,-48.160
7551672,-0.607,-0.466,-0.454,4.970,53.130,-49.280
7551692,-0.603,-0.520,-0.442,3.430,53.760,-50.680
7551709,-0.548,-0.533,-0.477,3.570,57.890,-53.130
7551729,-0.536,-0.534,-0.477,5.880,63.140,-55.440
7551749,-0.533,-0.554,-0.500,7.280,67.550,-55.790
7551768,-0.537,-0.586,-0.457,6.650,68.600,-56.000
7551792,-0.549,-0.620,-0.449,8.680,61.530,-56.280
7551813,-0.509,-0.621,-0.491,13.930,61.880,-53.970
7551831,-0.482,-0.607,-0.513,17.360,64.260,-53.550
7551851,-0.475,-0.595,-0.516,12.810,65.660,-54.110
7551874,-0.497,-0.657,-0.548,12.250,65.730,-54.110
7551896,-0.511,-0.691,-0.578,14.770,59.430,-52.080
7551918,-0.431,-0.751,-0.649,17.290,58.870,-48.650
7551942,-0.472,-0.755,-0.581,16.100,53.900,-49.420
7551958,-0.491,-0.744,-0.583,16.940,43.260,-49.070
7551980,-0.434,-0.744,-0.631,22.260,40.600,-44.170
7552002,-0.383,-0.780,-0.632,22.820,35.840,-42.210
7552021,-0.357,-0.817,-0.635,18.130,27.650,-41.650
7552045,-0.279,-0.820,-0.702,19.880,29.190,-38.220
7552064,-0.288,-0.786,-0.689,12.810,27.930,-37.100
7552085,-0.312,-0.769,-0.720,1.680,25.620,-36.750
7552105,-0.305,-0.816,-0.739,2.030,28.070,-32.130
7552129,-0.283,-0.892,-0.770,9.450,25.760,-25.900
7552149,-0.271,-0.931,-0.851,6.230,21.700,-24.150
7552169,-0.271,-0.964,-0.891,-9.240,18.620,-20.160
7552193,-0.354,-0.977,-0.813,-15.330,13.440,-11.690
7552210,-0.377,-1.008,-0.800,-10.920,6.790,-4.620
7552230,-0.332,-1.007,-0.885,-7.280,0.630,0.070
7552254,-0.305,-0.923,-0.878,-8.750,-2.170,7.630
7552274,-0.285,-0.862,-0.773,-13.930,-7.910,15.470
7552294,-0.289,-0.851,-0.707,-15.820,-14.560,23.100
7552311,-0.304,-0.877,-0.725,-12.110,-20.160,27.790
7552335,-0.312,-0.872,-0.759,-7.490,-24.710,31.430
7552353,-0.309,-0.849,-0.741,-8.820,-27.510,33.040
7552377,-0.324,-0.812,-0.691,-13.720,-32.900,34.720
7552398,-0.327,-0.767,-0.674,-15.190,-38.710,37.380
7552415,-0.325,-0.709,-0.659,-13.860,-39.900,39.480
7552436,-0.338,-0.688,-0.627,-14.070,-41.230,41.720
7552458,-0.373,-0.702,-0.641,-13.300,-44.170,43.120
7552476,-0.392,-0.717,-0.638,-14.210,-46.060,43.190
7552501,-0.386,-0.714,-0.630,-14.910,-48.720,43.820
7552517,-0.395,-0.679,-0.599,-13.790,-51.590,44.660
7552536,-0.428,-0.650,-0.573,-13.650,-53.620,45.850
7552556,-0.451,-0.637,-0.598,-13.650,-57.750,46.340
7552575,-0.454,-0.618,-0.613,-13.300,-57.610,46.410
7552600,-0.440,-0.605,-0.619,-9.170,-56.630,46.900
7552620,-0.459,-0.595,-0.577,-8.120,-57.400,47.600
7552640,-0.478,-0.572,-0.542,-7.420,-58.520,48.300
7552657,-0.497,-0.560,-0.542,-3.010,-60.550,49.000
7552676,-0.528,-0.544,-0.545,1.260,-61.390,50.400
7552701,-0.555,-0.547,-0.566,5.040,-63.070,53.340
7552722,-0.584,-0.572,-0.567,7.630,-62.230,55.020
7552741,-0.620,-0.559,-0.536,8.750,-63.210,54.950
7552765,-0.621,-0.518,-0.502,7.840,-63.140,54.460
7552784,-0.646,-0.476,-0.471,8.050,-63.140,52.990
7552801,-0.694,-0.439,-0.452,6.300,-65.310,52.500
7552825,-0.617,-0.445,-0.452,5.950,-59.500,56.280
7552845,-0.646,-0.466,-0.346,9.170,-56.070,58.380
7552862,-0.713,-0.448,-0.295,10.080,-59.500,59.220
7552882,-0.705,-0.454,-0.325,13.230,-59.850,57.960
7552902,-0.702,-0.446,-0.343,16.940,-53.970,55.510
7552926,-0.802,-0.459,-0.310,18.690,-52.500,51.030
7552945,-0.873,-0.474,-0.279,20.020,-56.910,48.860
7552969,-0.881,-0.474,-0.305,21.700,-62.090,47.460
7552990,-0.827,-0.461,-0.289,27.510,-59.150,43.680
7553010,-0.799,-0.404,-0.290,31.920,-56.210,40.530
7553028,-0.777,-0.381,-0.267,34.020,-51.940,39.270
7553049,-0.800,-0.349,-0.215,32.970,-45.780,35.980
7553073,-0.813,-0.297,-0.171,27.720,-44.100,32.270
7553094,-0.818,-0.235,-0.176,24.360,-40.390,29.470
7553112,-0.831,-0.183,-0.182,19.670,-36.470,26.460
7553132,-0.860,-0.194,-0.154,14.910,-29.190,24.010
7553155,-0.912,-0.236,-0.090,9.310,-27.230,23.240
7553175,-0.909,-0.253,-0.094,10.570,-27.370,23.660
7553199,-0.911,-0.291,-0.102,11.830,-24.570,24.500
7553219,-0.893,-0.315,-0.120,13.230,-19.110,24.640
7553238,-0.903,-0.289,-0.096,12.040,-13.440,23.520
7553258,-0.956,-0.258,-0.044,12.320,-13.370,22.190
7553277,-0.964,-0.238,-0.060,11.410,-18.130,21.840
7553300,-0.943,-0.261,-0.075,9.520,-19.670,21.000
7553325,-0.911,-0.271,-0.083,10.640,-14.630,18.270
7553344,-0.894,-0.263,-0.095,12.670,-8.820,16.100
7553362,-0.877,-0.237,-0.074,12.460,-4.410,15.050
7553386,-0.873,-0.197,-0.048,12.880,0.280,14.000
7553405,-0.883,-0.176,-0.076,11.970,5.390,10.920
7553426,-0.900,-0.142,-0.090,10.500,8.540,6.230
7553449,-0.889,-0.143,-0.110,3.010,15.400,-0.490
7553467,-0.874,-0.148,-0.123,-3.640,18.830,-7.560
7553486,-0.881,-0.172,-0.123,-8.960,23.100,-14.980
7553506,-0.900,-0.181,-0.126,-9.660,24.290,-19.180
7553530,-0.913,-0.172,-0.154,-9.590,25.060,-23.590
7553550,-0.911,-0.158,-0.175,-11.200,26.600,-27.650
7553569,-0.894,-0.138,-0.202,-12.810,30.170,-31.360
7553594,-0.901,-0.129,-0.226,-13.370,35.630,-33.180
7553614,-0.897,-0.183,-0.238,-14.210,37.310,-34.440
7553631,-0.895,-0.196,-0.225,-13.090,37.870,-36.260
7553651,-0.879,-0.215,-0.269,-17.220,38.920,-38.570
7553670,-0.854,-0.235,-0.252,-23.310,43.610,-41.090
7553696,-0.838,-0.243,-0.219,-25.480,45.220,-45.290
7553713,-0.799,-0.263,-0.250,-21.350,44.870,-49.910
7553732,-0.803,-0.276,-0.290,-20.580,45.780,-53.690
7553752,-0.810,-0.319,-0.320,-25.200,49.840,-55.300
7553772,-0.787,-0.325,-0.325,-26.390,53.550,-56.700
7553796,-0.753,-0.299,-0.346,-23.030,55.860,-58.870
7553814,-0.759,-0.322,-0.420,-12.600,58.100,-59.570
7553834,-0.770,-0.377,-0.409,-14.770,62.930,-56.490
7553858,-0.813,-0.426,-0.364,-15.120,59.080,-53.550
7553878,-0.793,-0.430,-0.412,-12.810,56.980,-53.620
7553898,-0.703,-0.453,-0.491,-10.570,60.550,-53.620
7553917,-0.679,-0.483,-0.529,-6.510,63.490,-54.040
7553941,-0.707,-0.508,-0.536,-7.140,62.650,-55.300
7553963,-0.756,-0.563,-0.545,-12.390,59.220,-56.700
7553983,-0.776,-0.575,-0.551,-11.830,55.090,-56.560
7554003,-0.705,-0.585,-0.591,-2.380,54.250,-54.950
7554023,-0.650,-0.596,-0.595,4.970,59.220,-53.200
7554045,-0.634,-0.598,-0.560,6.510,57.820,-52.780
7554069,-0.641,-0.584,-0.525,-0.140,51.030,-52.640
7554085,-0.597,-0.566,-0.515,-4.270,45.850,-51.310
7554106,-0.516,-0.511,-0.553,17.500,44.170,-49.910
7554125,-0.475,-0.479,-0.603,2.030,45.640,-47.740
7554151,-0.505,-0.529,-0.599,1.610,45.920,-45.570
7554170,-0.501,-0.614,-0.602,1.260,43.890,-45.010
7554185,-0.466,-0.662,-0.569,3.080,43.680,-45.570
7554206,-0.447,-0.622,-0.529,6.580,40.740,-46.340
7554229,-0.424,-0.604,-0.538,8.120,34.860,-46.480
7554250,-0.364,-0.620,-0.584,12.460,36.890,-49.840
7554271,-0.358,-0.587,-0.599,12.740,38.220,-52.010
7554290,-0.346,-0.592,-0.584,9.240,39.690,-52.710
7554307,-0.324,-0.608,-0.593,7.980,38.990,-53.060
7554327,-0.304,-0.632,-0.603,8.680,40.110,-52.920
7554351,-0.285,-0.685,-0.610,9.660,42.700,-52.570
7554371,-0.318,-0.726,-0.588,10.500,37.030,-52.570
7554390,-0.330,-0.724,-0.570,16.310,29.470,-50.330
7554408,-0.318,-0.726,-0.594,18.270,24.150,-47.600
7554429,-0.290,-0.765,-0.632,16.660,22.260,-46.900
7554451,-0.262,-0.807,-0.690,13.510,20.510,-48.930
7554470,-0.236,-0.812,-0.748,10.430,18.410,-48.580
7554492,-0.222,-0.828,-0.742,11.130,17.150,-46.550
7554512,-0.218,-0.856,-0.724,10.360,14.280,-43.400
7554532,-0.169,-0.857,-0.732,9.450,15.680,-42.140
7554556,-0.177,-0.817,-0.749,6.300,12.810,-38.990
7554576,-0.207,-0.793,-0.814,-0.350,9.310,-33.250
7554596,-0.153,-0.887,-0.867,-3.290,8.540,-29.050
7554620,-0.171,-0.974,-0.816,-4.830,5.110,-21.140
7554637,-0.214,-0.993,-0.802,-7.980,0.140,-14.980
7554661,-0.206,-0.954,-0.839,-7.000,-2.590,-6.930
7554677,-0.203,-0.934,-0.833,-7.490,-4.200,0.000
7554696,-0.202,-0.925,-0.821,-8.050,-12.320,7.070
7554718,-0.182,-0.917,-0.830,-8.470,-16.520,15.680
7554736,-0.176,-0.920,-0.805,-12.110,-20.650,21.000
7554761,-0.199,-0.879,-0.738,-16.870,-31.780,27.580
7554782,-0.228,-0.820,-0.692,-21.280,-39.340,34.300
7554801,-0.230,-0.801,-0.704,-20.930,-40.740,40.600
7554821,-0.211,-0.779,-0.689,-18.620,-41.790,48.300
7554840,-0.208,-0.767,-0.704,-18.060,-45.640,52.360
7554866,-0.222,-0.766,-0.705,-16.870,-47.040,53.550
7554881,-0.231,-0.749,-0.692,-16.660,-45.920,53.620
7554904,-0.255,-0.727,-0.648,-16.730,-46.760,54.180
7554925,-0.289,-0.688,-0.622,-16.800,-51.030,55.370
7554949,-0.332,-0.660,-0.644,-15.120,-53.550,56.770
7554970,-0.369,-0.641,-0.659,-13.440,-53.550,57.540
7554989,-0.408,-0.639,-0.659,-11.620,-52.850,59.220
7555006,-0.435,-0.630,-0.649,-11.620,-54.460,62.090
7555030,-0.445,-0.617,-0.622,-11.410,-58.730,66.220
7555049,-0.450,-0.610,-0.604,-9.940,-62.930,66.850
7555069,-0.470,-0.604,-0.593,-6.650,-62.440,66.780
7555093,-0.464,-0.602,-0.590,-1.330,-60.900,65.730
7555114,-0.476,-0.582,-0.585,7.630,-62.790,65.380
7555132,-0.502,-0.548,-0.595,14.000,-62.720,65.800
7555155,-0.543,-0.527,-0.557,15.610,-61.460,65.870
7555176,-0.570,-0.516,-0.516,15.820,-62.230,63.560
7555195,-0.593,-0.493,-0.513,16.100,-62.020,60.130
7555213,-0.610,-0.461,-0.528,18.690,-58.730,58.520
7555232,-0.615,-0.445,-0.555,22.610,-56.700,59.010
7555252,-0.628,-0.448,-0.523,22.540,-53.480,58.170
7555272,-0.646,-0.452,-0.457,18.760,-52.430,55.440
7555296,-0.677,-0.423,-0.426,15.330,-54.950,50.890
7555315,-0.671,-0.404,-0.465,16.170,-52.990,49.000
7555335,-0.691,-0.375,-0.460,19.460,-48.510,48.440
7555355,-0.723,-0.375,-0.407,18.760,-47.600,46.830
7555378,-0.756,-0.387,-0.371,15.050,-50.680,43.610
7555399,-0.777,-0.381,-0.380,11.760,-53.480,41.580
7555424,-0.770,-0.351,-0.381,16.730,-48.860,41.090
7555443,-0.778,-0.293,-0.386,15.050,-45.290,39.760
7555462,-0.785,-0.294,-0.364,10.430,-42.840,37.940
7555481,-0.791,-0.272,-0.348,9.030,-36.610,35.000
7555501,-0.820,-0.255,-0.295,6.580,-33.530,33.180
7555525,-0.848,-0.275,-0.276,1.960,-30.730,32.060
7555549,-0.869,-0.274,-0.235,5.040,-31.360,30.450
7555569,-0.861,-0.271,-0.265,5.040,-31.710,28.630
7555589,-0.846,-0.295,-0.270,3.850,-27.860,24.920
7555609,-0.866,-0.284,-0.264,3.990,-24.430,20.370
7555626,-0.898,-0.283,-0.250,3.850,-21.560,15.960
7555651,-0.905,-0.297,-0.225,3.430,-20.020,12.320
7555667,-0.933,-0.290,-0.198,3.850,-21.770,9.800
7555687,-0.905,-0.282,-0.208,6.930,-23.100,7.700
7555711,-0.900,-0.254,-0.221,10.570,-20.720,5.670
7555730,-0.912,-0.212,-0.209,11.200,-17.360,5.250
7555752,-0.899,-0.213,-0.211,11.690,-14.980,4.270
7555769,-0.890,-0.219,-0.205,12.810,-11.970,3.150
7555791,-0.909,-0.226,-0.185,13.650,-9.590,2.450
7555811,-0.928,-0.221,-0.180,13.020,-8.120,1.260
7555829,-0.940,-0.209,-0.175,12.250,-6.860,0.770
7555853,-0.931,-0.206,-0.169,12.390,-5.810,0.280
7555872,-0.922,-0.224,-0.176,10.780,-4.340,-0.840
7555893,-0.949,-0.225,-0.178,4.620,-3.640,-2.100
7555912,-0.955,-0.214,-0.175,1.680,-3.920,-3.430
7555933,-0.943,-0.214,-0.176,1.610,-2.030,-3.990
7555953,-0.927,-0.222,-0.162,2.940,-0.420,-4.550
7555973,-0.927,-0.240,-0.154,1.820,-0.070,-5.600
7555993,-0.943,-0.248,-0.154,-1.680,-0.210,-7.140
7556013,-0.944,-0.248,-0.146,-1.610,-0.420,-8.680
7556029,-0.947,-0.238,-0.138,-0.140,-1.120,-9.520
7556049,-0.929,-0.258,-0.159,-1.400,-2.100,-10.430
7556073,-0.910,-0.271,-0.193,-1.610,-0.910,-12.110
7556093,-0.908,-0.244,-0.195,-1.540,3.780,-12.880
7556113,-0.903,-0.249,-0.183,-3.220,6.370,-12.670
7556133,-0.900,-0.264,-0.164,-3.570,7.490,-12.810
7556157,-0.915,-0.263,-0.183,-3.920,9.100,-13.860
7556176,-0.923,-0.260,-0.189,-4.130,10.710,-14.700
7556197,-0.919,-0.268,-0.216,-5.600,11.830,-15.680
7556216,-0.910,-0.278,-0.228,-8.400,13.860,-15.750
7556240,-0.914,-0.288,-0.230,-9.520,16.520,-15.680
7556258,-0.906,-0.297,-0.219,-8.820,20.370,-16.030
7556281,-0.882,-0.303,-0.217,-7.490,22.680,-17.360
7556300,-0.869,-0.301,-0.227,-6.090,23.030,-19.390
7556320,-0.869,-0.297,-0.252,-6.440,23.310,-21.210
7556340,-0.871,-0.300,-0.240,-7.140,24.570,-22.540
7556361,-0.851,-0.304,-0.240,-6.930,25.690,-24.500
7556385,-0.831,-0.330,-0.239,-5.740,26.390,-29.120
7556405,-0.851,-0.346,-0.277,-6.930,27.790,-31.360
7556426,-0.843,-0.356,-0.264,-7.980,29.890,-32.550
7556444,-0.800,-0.338,-0.275,-7.280,30.380,-34.580
7556468,-0.769,-0.312,-0.321,-6.860,31.920,-39.270
7556486,-0.763,-0.315,-0.367,-9.660,35.420,-42.140
7556508,-0.791,-0.356,-0.369,-16.100,38.990,-45.010
7556532,-0.796,-0.375,-0.348,-22.890,39.900,-47.110
7556556,-0.774,-0.368,-0.354,-23.660,42.630,-47.530
7556575,-0.726,-0.348,-0.384,-21.000,45.920,-47.040
7556594,-0.677,-0.370,-0.412,-18.900,48.790,-48.370
7556614,-0.671,-0.432,-0.421,-19.530,50.750,-51.940
7556637,-0.702,-0.516,-0.441,-19.250,48.300,-56.840
7556659,-0.642,-0.545,-0.480,-16.450,47.880,-61.740
7556675,-0.596,-0.514,-0.492,-10.920,51.800,-65.800
7556695,-0.599,-0.466,-0.468,-7.490,57.400,-68.670
7556714,-0.624,-0.469,-0.479,-8.330,56.210,-70.910
7556739,-0.630,-0.534,-0.495,-9.590,52.780,-70.280
7556756,-0.607,-0.592,-0.515,-8.260,52.080,-69.230
7556778,-0.584,-0.609,-0.537,-5.530,53.900,-70.350
7556798,-0.555,-0.591,-0.544,-5.880,56.490,-73.080
7556818,-0.516,-0.581,-0.545,-9.450,56.700,-75.110
7556841,-0.468,-0.583,-0.532,-11.830,55.510,-76.370
7556865,-0.450,-0.579,-0.540,-8.540,52.570,-77.000
7556885,-0.423,-0.579,-0.585,-2.310,54.810,-74.970
7556901,-0.398,-0.629,-0.620,1.190,57.750,-71.470
7556921,-0.373,-0.666,-0.613,1.120,59.290,-67.900
7556942,-0.359,-0.671,-0.620,-1.330,59.500,-65.870
7556960,-0.363,-0.660,-0.585,-4.550,57.960,-64.190
7556981,-0.351,-0.674,-0.593,-5.810,52.290,-61.110
7557005,-0.337,-0.689,-0.633,-2.730,46.200,-59.430
7557024,-0.335,-0.727,-0.661,2.730,44.380,-58.940
7557043,-0.302,-0.783,-0.705,7.280,42.070,-55.790
7557067,-0.277,-0.820,-0.752,7.000,40.180,-49.980
7557086,-0.243,-0.815,-0.760,2.800,35.560,-49.210
7557106,-0.187,-0.756,-0.722,-3.570,30.030,-47.600
7557127,-0.163,-0.773,-0.723,-5.600,29.610,-44.520
7557151,-0.162,-0.811,-0.768,-3.710,25.760,-37.660
7557169,-0.140,-0.809,-0.787,-2.100,21.560,-32.690
7557193,-0.100,-0.798,-0.825,-4.270,17.080,-26.880
7557213,-0.072,-0.821,-0.841,-7.000,17.780,-24.080
7557232,-0.115,-0.858,-0.841,-7.000,16.030,-20.020
7557253,-0.142,-0.879,-0.798,-3.780,10.570,-14.630
7557269,-0.130,-0.865,-0.850,-1.960,8.050,-10.640
7557289,-0.115,-0.872,-0.826,-0.280,4.900,-6.160
7557312,-0.084,-0.889,-0.815,-3.360,2.520,-0.980
7557333,-0.090,-0.853,-0.801,-2.310,-1.610,5.460
7557353,-0.071,-0.818,-0.805,0.210,-3.010,10.780
7557372,-0.062,-0.788,-0.791,0.840,-1.400,14.070
7557395,-0.079,-0.744,-0.737,-0.420,-5.250,19.250
7557414,-0.096,-0.731,-0.742,-3.220,-8.890,23.240
7557438,-0.108,-0.736,-0.746,-5.600,-14.210,28.420
7557458,-0.104,-0.732,-0.789,-5.950,-14.140,32.270
7557476,-0.121,-0.703,-0.767,-6.860,-14.490,34.790
7557496,-0.141,-0.697,-0.743,-9.100,-17.360,38.430
7557521,-0.150,-0.727,-0.766,-9.100,-23.170,44.380
7557539,-0.166,-0.732,-0.755,-11.060,-25.410,46.760
7557559,-0.175,-0.731,-0.724,-15.190,-26.530,47.320
7557579,-0.203,-0.696,-0.697,-19.390,-27.440,46.130
7557599,-0.227,-0.661,-0.693,-19.740,-32.620,45.220
7557623,-0.243,-0.660,-0.732,-17.920,-35.700,47.460
7557639,-0.267,-0.649,-0.734,-15.470,-37.520,49.420
7557663,-0.274,-0.645,-0.713,-14.280,-37.170,50.120
7557682,-0.298,-0.616,-0.678,-15.190,-38.990,51.100
7557702,-0.300,-0.586,-0.684,-13.790,-43.470,71.540
7557723,-0.311,-0.584,-0.706,-10.150,-43.260,54.880
7557741,-0.344,-0.602,-0.706,-6.930,-42.070,54.250
7557762,-0.380,-0.618,-0.682,-5.950,-41.720,52.920
7557785,-0.407,-0.617,-0.673,-6.930,-46.480,53.200
7557806,-0.411,-0.590,-0.690,-4.550,-49.840,53.620
7557825,-0.432,-0.552,-0.691,-1.400,-50.470,53.340
7557845,-0.456,-0.539,-0.700,0.630,-50.890,54.110
7557869,-0.467,-0.509,-0.670,1.890,-49.840,53.620
7557888,-0.493,-0.494,-0.665,2.380,-49.070,52.640
7557911,-0.513,-0.507,-0.636,1.820,-47.810,51.660
7557933,-0.539,-0.510,-0.571,0.770,-50.540,50.190
7557954,-0.566,-0.491,-0.583,1.470,-54.460,47.600
7557971,-0.586,-0.470,-0.613,4.550,-55.440,47.040
7557991,-0.606,-0.460,-0.621,9.730,-53.830,48.650
7558015,-0.607,-0.453,-0.597,10.570,-50.470,47.950
7558032,-0.622,-0.451,-0.553,7.140,-50.050,44.590
7558056,-0.642,-0.434,-0.540,6.090,-52.850,40.880
7558080,-0.637,-0.427,-0.562,7.560,-53.900,39.760
7558100,-0.612,-0.409,-0.542,10.080,-50.680,38.640
7558120,-0.617,-0.395,-0.499,10.920,-48.160,36.470
7558138,-0.671,-0.358,-0.434,10.290,-46.690,34.370
7558157,-0.699,-0.334,-0.452,9.030,-48.230,32.130
7558182,-0.715,-0.328,-0.474,10.220,-47.250,32.270
7558202,-0.705,-0.331,-0.492,11.830,-43.190,32.550
7558222,-0.733,-0.325,-0.475,12.950,-40.460,31.920
7558242,-0.795,-0.304,-0.443,10.150,-39.480,30.870
7558266,-0.813,-0.299,-0.449,9.030,-37.730,30.870
7558287,-0.790,-0.305,-0.445,10.010,-32.970,30.100
7558305,-0.778,-0.314,-0.399,10.150,-26.530,28.070
7558326,-0.789,-0.323,-0.336,5.040,-22.470,24.640
7558346,-0.788,-0.336,-0.311,1.540,-22.610,20.300
7558369,-0.788,-0.311,-0.320,1.260,-24.570,15.120
7558391,-0.762,-0.283,-0.391,3.500,-23.800,10.920
7558410,-0.770,-0.251,-0.403,7.420,-19.320,8.960
7558430,-0.805,-0.257,-0.394,9.940,-13.020,7.840
7558450,-0.835,-0.275,-0.361,8.610,-10.010,7.630
7558469,-0.855,-0.293,-0.365,3.290,-10.080,7.140
7558494,-0.860,-0.277,-0.362,2.520,-8.470,5.810
7558512,-0.880,-0.259,-0.359,2.660,-6.580,5.530
7558536,-0.902,-0.262,-0.351,2.100,-6.510,4.690
7558555,-0.902,-0.277,-0.349,1.190,-6.510,3.290
7558575,-0.874,-0.290,-0.350,0.700,-4.130,2.030
7558599,-0.882,-0.299,-0.317,0.420,-4.690,1.260
7558619,-0.899,-0.293,-0.315,-0.980,-7.770,1.330
7558635,-0.886,-0.283,-0.329,-0.560,-8.540,1.540
7558654,-0.856,-0.276,-0.363,0.630,-5.740,1.120
7558679,-0.862,-0.270,-0.353,-0.420,-1.820,-0.140
7558696,-0.878,-0.278,-0.311,-2.660,-0.980,-1.610
7558716,-0.885,-0.292,-0.288,-3.290,-3.080,-3.710
7558740,-0.866,-0.306,-0.299,-1.190,-3.150,-6.370
7558757,-0.855,-0.313,-0.306,-0.280,-2.450,-8.820
7558781,-0.862,-0.299,-0.292,-1.190,-0.420,-12.040
7558801,-0.853,-0.296,-0.292,-1.890,0.420,-15.190
7558821,-0.832,-0.299,-0.311,0.140,2.100,-18.970
7558841,-0.807,-0.299,-0.322,4.620,5.180,-22.190
7558865,-0.814,-0.312,-0.314,4.550,8.400,-26.320
7558883,-0.825,-0.321,-0.323,2.240,9.660,-29.120
7558903,-0.806,-0.323,-0.320,0.630,12.530,-32.900
7558927,-0.776,-0.316,-0.327,0.770,15.750,-38.150
7558947,-0.758,-0.304,-0.334,0.350,17.290,-41.790
7558967,-0.747,-0.305,-0.346,2.730,18.970,-45.150
7558986,-0.691,-0.300,-0.355,2.660,22.470,-47.250
7559010,-0.660,-0.304,-0.371,-0.560,27.300,-51.520
7559029,-0.712,-0.303,-0.381,-5.040,28.770,-55.230
7559049,-0.772,-0.331,-0.368,-6.580,27.230,-55.510
7559073,-0.769,-0.388,-0.404,-6.720,26.880,-54.460
7559093,-0.721,-0.406,-0.407,-1.680,32.830,-56.770
7559111,-0.688,-0.398,-0.409,0.630,39.760,-59.500
7559132,-0.656,-0.416,-0.423,-2.170,45.780,-64.120
7559152,-0.581,-0.473,-0.440,-7.700,50.820,-70.630
7559174,-0.555,-0.470,-0.426,-14.000,51.730,-77.840
7559194,-0.540,-0.453,-0.421,-17.150,50.890,-82.250
7559218,-0.563,-0.451,-0.483,-14.070,53.620,-81.760
7559238,-0.600,-0.471,-0.497,-8.470,58.380,-78.330
7559258,-0.587,-0.538,-0.502,-7.560,60.550,-74.620
7559277,-0.544,-0.609,-0.505,-7.210,63.910,-73.430
7559298,-0.493,-0.648,-0.528,-8.610,67.900,-73.710
7559318,-0.462,-0.640,-0.555,-10.010,68.740,-73.500
7559338,-0.470,-0.591,-0.521,-7.420,65.240,-72.870
7559357,-0.463,-0.576,-0.552,-2.660,62.790,-68.040
7559378,-0.427,-0.615,-0.585,1.680,63.840,-61.040
7559398,-0.379,-0.693,-0.648,4.550,66.360,-57.120
7559416,-0.382,-0.777,-0.634,6.160,64.540,-56.280
7559435,-0.402,-0.798,-0.657,6.090,55.300,-54.040
7559455,-0.374,-0.791,-0.718,5.110,51.030,-50.400
7559479,-0.349,-0.774,-0.702,8.050,51.170,-44.870
7559500,-0.354,-0.815,-0.685,16.450,45.710,-40.600
7559518,-0.360,-0.861,-0.723,23.450,40.250,-36.330
7559538,-0.280,-0.914,-0.774,14.770,36.190,-33.040
7559558,-0.223,-0.882,-0.797,-1.540,31.850,-33.810
7559582,-0.212,-0.838,-0.766,-13.930,23.940,-30.870
7559602,-0.214,-0.804,-0.754,-3.290,16.800,-23.380
7559620,-0.193,-0.875,-0.766,3.430,18.690,-15.680
7559640,-0.191,-0.975,-0.798,3.640,21.070,-9.170
7559664,-0.246,-1.002,-0.825,-1.960,15.470,-0.490
7559683,-0.276,-0.931,-0.830,-8.190,5.670,3.640
7559704,-0.231,-0.867,-0.831,-7.770,1.260,7.280
7559724,-0.198,-0.845,-0.817,-6.510,-0.420,13.090
7559749,-0.179,-0.859,-0.834,-6.300,-5.320,22.470
7559768,-0.194,-0.874,-0.825,-9.660,-8.470,27.370
7559788,-0.227,-0.878,-0.778,-14.070,-12.670,32.130
7559808,-0.251,-0.867,-0.729,-17.430,-18.550,35.560
7559827,-0.259,-0.818,-0.718,-17.640,-22.400,39.900
7559851,-0.271,-0.755,-0.709,-14.980,-27.720,47.180
7559868,-0.270,-0.721,-0.718,-12.530,-31.360,51.520
7559888,-0.278,-0.697,-0.735,-14.280,-33.670,55.930
7559911,-0.302,-0.701,-0.701,-20.580,-35.000,57.610
7559932,-0.327,-0.698,-0.651,-25.410,-41.300,58.870
7559952,-0.337,-0.684,-0.662,-23.310,-46.340,61.040
7559971,-0.349,-0.652,-0.679,-17.710,-48.020,63.070
7559995,-0.376,-0.630,-0.667,-13.860,-47.600,63.980
7560015,-0.399,-0.600,-0.650,-14.700,-48.020,64.330
7560033,-0.411,-0.587,-0.635,-15.190,-49.840,63.280
7560053,-0.438,-0.556,-0.630,-13.580,-52.780,63.420
7560076,-0.444,-0.523,-0.622,-11.200,-54.950,63.630
7560097,-0.468,-0.513,-0.593,-8.330,-54.880,63.630
7560117,-0.508,-0.504,-0.571,-7.700,-55.020,62.090
7560136,-0.555,-0.544,-0.606,-5.390,-55.790,58.240
7560154,-0.594,-0.551,-0.609,-4.060,-58.100,55.720
7560174,-0.598,-0.525,-0.595,-1.260,-60.760,54.180
7560198,-0.582,-0.449,-0.549,3.080,-61.740,51.800
7560222,-0.621,-0.404,-0.527,5.460,-60.410,46.900
7560238,-0.654,-0.397,-0.539,4.830,-59.080,45.290
7560257,-0.657,-0.418,-0.500,5.250,-58.240,42.770
7560277,-0.660,-0.419,-0.451,4.760,-63.070,39.970
7560299,-0.630,-0.379,-0.421,7.140,-67.550,36.820
7560323,-0.626,-0.330,-0.434,8.400,-64.610,35.070
7560341,-0.654,-0.320,-0.452,9.240,-57.680,34.370
7560364,-0.698,-0.326,-0.406,11.340,-54.600,33.460
7560385,-0.692,-0.339,-0.420,12.250,-50.820,30.590
7560403,-0.715,-0.325,-0.417,9.170,-46.690,26.740
7560423,-0.747,-0.325,-0.409,4.270,-44.940,23.660
7560447,-0.772,-0.349,-0.430,4.340,-43.470,20.440
7560466,-0.781,-0.365,-0.447,6.440,-36.540,18.270
7560482,-0.791,-0.373,-0.407,5.460,-30.030,15.820
7560506,-0.796,-0.363,-0.346,0.350,-23.730,11.690
7560527,-0.809,-0.333,-0.331,-2.380,-23.030,8.120
7560547,-0.818,-0.301,-0.358,0.840,-22.750,7.140
7560566,-0.809,-0.304,-0.374,2.940,-20.790,8.050
7560587,-0.784,-0.335,-0.362,3.570,-17.220,7.210
7560602,-0.784,-0.346,-0.337,3.640,-16.240,4.690
7560626,-0.800,-0.352,-0.363,3.290,-11.480,0.980
7560647,-0.854,-0.354,-0.334,0.490,-8.610,-0.280
7560666,-0.866,-0.362,-0.322,-2.030,-9.520,-0.840
7560688,-0.882,-0.339,-0.333,-1.540,-11.480,-1.470
7560709,-0.868,-0.297,-0.375,0.210,-9.800,-1.820
7560730,-0.850,-0.296,-0.371,0.210,-4.130,-0.700
7560753,-0.848,-0.328,-0.323,-1.610,0.280,-0.280
7560774,-0.841,-0.358,-0.278,-2.100,-0.840,-1.890
7560795,-0.831,-0.349,-0.290,-4.270,-3.640,-4.830
7560813,-0.813,-0.325,-0.309,-5.250,-3.360,-7.770
7560837,-0.792,-0.305,-0.321,-3.710,0.000,-11.060
7560853,-0.777,-0.282,-0.321,-1.960,4.760,-12.460
7560877,-0.788,-0.290,-0.308,0.000,7.350,-13.580
7560896,-0.763,-0.320,-0.338,0.980,8.540,-16.870
7560920,-0.733,-0.317,-0.324,2.030,13.300,-23.240
7560940,-0.715,-0.320,-0.338,0.350,16.520,-29.540
7560960,-0.711,-0.338,-0.352,-3.290,18.900,-34.440
7560978,-0.718,-0.328,-0.356,-3.080,19.600,-37.590
7561001,-0.694,-0.312,-0.342,-1.330,24.710,-41.300
7561019,-0.669,-0.323,-0.339,-2.100,28.840,-45.290
7561039,-0.636,-0.333,-0.389,-3.850,35.490,-50.960
7561062,-0.612,-0.334,-0.413,-6.160,44.310,-57.120
7561082,-0.595,-0.348,-0.416,-9.590,50.400,-62.020
7561104,-0.606,-0.365,-0.400,-10.850,53.690,-68.180
7561123,-0.613,-0.389,-0.412,-10.780,56.560,-71.470
7561143,-0.598,-0.428,-0.458,-9.030,59.710,-73.570
7561163,-0.570,-0.442,-0.498,-4.340,65.030,-74.410
7561187,-0.544,-0.462,-0.508,-0.210,71.890,-75.880
7561207,-0.520,-0.506,-0.506,4.690,77.700,-78.050
7561224,-0.523,-0.542,-0.512,2.870,78.470,-80.710
7561244,-0.541,-0.577,-0.469,-3.080,74.760,-82.530
7561268,-0.545,-0.596,-0.515,-0.140,65.660,-81.340
7561288,-0.512,-0.584,-0.603,7.350,67.060,-76.790
7561308,-0.490,-0.617,-0.654,15.120,71.470,-73.640
7561329,-0.503,-0.654,-0.608,15.260,72.100,-69.930
7561348,-0.520,-0.720,-0.585,11.550,66.570,-65.030
7561368,-0.533,-0.748,-0.586,3.990,61.180,-61.110
7561388,-0.520,-0.712,-0.594,9.870,53.900,-56.700
7561408,-0.483,-0.731,-0.687,24.500,50.190,-48.860
7561432,-0.447,-0.801,-0.731,24.570,49.070,-40.320
7561452,-0.415,-0.892,-0.766,13.650,41.510,-38.640
7561470,-0.344,-0.912,-0.778,-1.050,40.460,-40.670
7561492,-0.318,-0.800,-0.778,-0.980,31.920,-35.840
7561516,-0.320,-0.787,-0.748,-0.560,27.510,-27.930
7561536,-0.366,-0.823,-0.764,2.870,22.330,-21.140
7561556,-0.327,-0.887,-0.838,-1.960,19.460,-14.910
7561574,-0.265,-0.915,-0.894,-8.120,18.900,-13.020
7561598,-0.301,-0.910,-0.821,-13.020,14.140,-6.090
7561618,-0.325,-0.915,-0.759,-9.100,4.200,0.280
7561641,-0.281,-0.913,-0.798,-3.290,-1.750,6.370
7561662,-0.281,-0.896,-0.811,-0.980,-3.640,14.630
7561681,-0.281,-0.916,-0.761,-1.330,-9.100,22.190
7561701,-0.284,-0.908,-0.727,-4.900,-17.710,27.020
7561726,-0.270,-0.867,-0.717,-2.520,-23.590,30.240
7561744,-0.293,-0.808,-0.728,0.140,-27.020,34.230
7561763,-0.294,-0.771,-0.725,-0.770,-29.190,38.990
7561788,-0.291,-0.752,-0.712,-3.920,-29.540,43.610
7561805,-0.296,-0.738,-0.658,-6.370,-32.340,46.690
7561825,-0.298,-0.727,-0.621,-8.820,-34.440,48.370
7561846,-0.330,-0.742,-0.602,-10.640,-36.330,48.090
7561866,-0.352,-0.758,-0.634,-8.190,-37.030,47.740
7561886,-0.369,-0.743,-0.630,-5.250,-38.290,48.090
7561908,-0.391,-0.714,-0.644,-0.700,-40.040,50.120
7561928,-0.420,-0.690,-0.650,-0.140,-40.460,53.340
7561947,-0.450,-0.657,-0.629,-4.620,-40.950,54.600
7561972,-0.497,-0.644,-0.625,-8.120,-42.910,54.460
7561991,-0.538,-0.644,-0.607,-8.190,-46.550,55.230
7562015,-0.555,-0.626,-0.563,-9.310,-52.290,58.030
7562033,-0.549,-0.595,-0.533,-8.890,-57.330,59.990
7562053,-0.557,-0.567,-0.567,-4.760,-57.960,61.880
7562077,-0.572,-0.553,-0.582,-2.170,-56.630,64.260
7562095,-0.599,-0.554,-0.540,-3.640,-58.030,65.240
7562119,-0.626,-0.556,-0.481,-3.780,-61.740,64.050
7562139,-0.646,-0.531,-0.545,-1.190,-62.860,62.020
7562162,-0.656,-0.509,-0.561,0.700,-61.180,61.250
7562181,-0.678,-0.505,-0.499,3.640,-59.010,60.760
7562203,-0.712,-0.487,-0.418,6.020,-61.740,59.150
7562219,-0.738,-0.456,-0.399,5.740,-64.610,57.120
7562241,-0.770,-0.421,-0.435,5.670,-66.640,55.510
7562265,-0.776,-0.389,-0.445,5.670,-67.270,56.210
7562284,-0.789,-0.366,-0.408,9.170,-70.490,57.400
7562304,-0.806,-0.361,-0.382,14.910,-71.820,58.940
7562324,-0.786,-0.350,-0.365,14.490,-70.700,59.500
7562346,-0.760,-0.335,-0.358,10.640,-68.390,58.450
7562366,-0.773,-0.296,-0.346,7.560,-65.450,56.630
7562385,-0.782,-0.275,-0.316,10.430,-63.420,55.720
7562409,-0.784,-0.288,-0.324,16.310,-59.290,53.550
7562429,-0.831,-0.278,-0.286,17.990,-54.250,52.360
7562448,-0.857,-0.285,-0.263,13.300,-51.520,50.960
7562472,-0.868,-0.268,-0.231,9.730,-45.290,47.250
7562491,-0.859,-0.240,-0.197,14.000,-41.440,44.170
7562511,-0.880,-0.175,-0.206,16.660,-36.680,41.230
7562533,-0.904,-0.148,-0.184,11.060,-35.490,39.550
7562552,-0.884,-0.170,-0.172,11.690,-34.440,38.150
7562576,-0.870,-0.164,-0.158,16.730,-32.200,36.750
7562596,-0.873,-0.166,-0.161,20.230,-30.380,34.510
7562619,-0.895,-0.124,-0.150,14.980,-24.710,32.060
7562639,-0.915,-0.103,-0.125,10.290,-21.840,30.800
7562662,-0.883,-0.088,-0.132,13.930,-19.460,28.350
7562681,-0.889,-0.069,-0.106,17.990,-12.880,26.040
7562704,-0.896,-0.091,-0.092,14.840,-9.240,21.420
7562723,-0.908,-0.108,-0.102,6.860,-5.250,13.790
7562739,-0.922,-0.118,-0.092,0.630,-2.730,8.470
7562758,-0.954,-0.098,-0.073,-1.120,-1.330,3.710
7562782,-0.981,-0.101,-0.097,1.260,-6.160,2.590
7562803,-0.964,-0.058,-0.116,7.350,-1.050,3.150
7562820,-0.960,-0.040,-0.095,7.630,3.920,2.240
7562842,-0.970,-0.061,-0.075,4.900,7.420,-0.700
7562866,-0.964,-0.090,-0.076,5.110,9.310,-3.360
7562886,-0.948,-0.122,-0.074,3.290,10.290,-6.160
7562906,-0.935,-0.124,-0.068,-0.210,11.130,-10.430
7562924,-0.917,-0.106,-0.080,-1.750,12.250,-14.700
7562943,-0.898,-0.077,-0.080,-2.030,14.210,-18.340
7562968,-0.904,-0.077,-0.064,-2.730,12.600,-23.590
7562988,-0.867,-0.117,-0.119,-4.480,11.970,-28.910
7563006,-0.838,-0.143,-0.167,-4.270,20.860,-32.830
7563027,-0.864,-0.167,-0.170,-0.350,27.440,-36.330
7563051,-0.866,-0.172,-0.163,0.210,31.430,-40.390
7563071,-0.834,-0.161,-0.159,-5.460,34.160,-45.430
7563086,-0.814,-0.118,-0.144,-10.290,38.360,-49.420
7563110,-0.834,-0.119,-0.177,-9.730,38.710,-54.880
7563128,-0.801,-0.152,-0.271,-8.890,43.680,-58.310
7563151,-0.738,-0.257,-0.301,-10.780,57.190,-64.890
7563172,-0.751,-0.280,-0.252,-11.900,61.880,-72.100
7563192,-0.789,-0.287,-0.230,-12.390,59.290,-77.210
7563212,-0.795,-0.269,-0.258,-10.990,59.710,-78.890
7563232,-0.830,-0.269,-0.295,-6.650,56.280,-77.980
7563252,-0.712,-0.336,-0.421,-3.150,64.820,-80.640
7563272,-0.639,-0.344,-0.455,-0.630,77.280,-85.120
7563290,-0.630,-0.362,-0.422,-3.570,85.890,-90.790
7563314,-0.653,-0.381,-0.387,-14.630,85.470,-95.130
7563334,-0.675,-0.448,-0.392,-18.900,82.950,-94.640
7563355,-0.679,-0.483,-0.459,-6.720,84.700,-92.470
7563374,-0.681,-0.522,-0.508,-0.980,89.530,-90.860
7563393,-0.672,-0.630,-0.497,1.330,93.590,-92.540
7563413,-0.712,-0.616,-0.423,3.360,87.220,-94.290
7563434,-0.746,-0.624,-0.399,4.830,75.180,-91.420
7563456,-0.674,-0.624,-0.497,17.430,66.360,-83.580
7563475,-0.549,-0.615,-0.625,22.890,69.370,-77.490
7563494,-0.488,-0.589,-0.617,19.880,73.080,-74.200
7563519,-0.484,-0.580,-0.569,8.610,64.400,-71.120
7563537,-0.438,-0.656,-0.601,5.810,58.240,-66.990
7563558,-0.424,-0.789,-0.678,13.580,57.050,-61.810
7563578,-0.444,-0.994,-0.662,19.810,52.990,-56.000
7563599,-0.483,-0.883,-0.632,17.150,45.150,-52.360
7563616,-0.473,-0.826,-0.671,11.830,39.270,-48.790
7563636,-0.431,-0.781,-0.721,6.370,37.660,-43.680
7563660,-0.387,-0.819,-0.717,0.140,36.260,-36.750
7563679,-0.364,-0.865,-0.724,-7.000,27.090,-30.030
7563700,-0.364,-0.859,-0.716,-9.520,22.260,-24.640
7563716,-0.326,-0.844,-0.788,-6.860,22.120,-20.510
7563740,-0.282,-0.873,-0.836,-6.300,24.360,-15.050
7563760,-0.261,-0.952,-0.847,-7.700,21.140,-15.260
7563776,-0.302,-0.931,-0.857,-6.440,17.640,-12.320
7563795,-0.373,-0.918,-0.788,-4.200,13.650,-4.900
7563820,-0.388,-0.898,-0.798,-4.550,5.320,4.620
7563840,-0.338,-0.866,-0.847,-4.060,-1.190,11.690
7563863,-0.295,-0.828,-0.845,-3.990,-2.170,18.480
7563883,-0.317,-0.842,-0.781,-9.660,-7.420,23.730
7563903,-0.343,-0.861,-0.752,-15.260,-14.000,27.370
7563924,-0.365,-0.832,-0.772,-13.580,-21.630,31.290
7563947,-0.369,-0.797,-0.764,-10.360,-24.850,36.890
7563963,-0.376,-0.762,-0.758,-10.220,-25.900,39.410
7563988,-0.387,-0.705,-0.720,-13.860,-32.130,42.420
7564006,-0.378,-0.674,-0.690,-17.220,-35.210,46.900
7564028,-0.381,-0.686,-0.690,-19.460,-39.410,50.400
7564048,-0.401,-0.694,-0.693,-14.980,-42.070,52.990
7564072,-0.397,-0.684,-0.699,-10.010,-41.860,55.580
7564092,-0.412,-0.656,-0.661,-7.910,-43.610,56.700
7564111,-0.459,-0.633,-0.624,-7.910,-49.000,57.120
7564131,-0.495,-0.615,-0.653,-9.660,-53.410,58.870
7564155,-0.513,-0.577,-0.638,-11.130,-55.790,60.900
7564175,-0.519,-0.559,-0.636,-9.940,-57.680,63.210
7564195,-0.520,-0.549,-0.625,-4.130,-58.100,66.150
7564214,-0.550,-0.563,-0.596,-0.910,-58.170,67.900
7564235,-0.585,-0.575,-0.556,-0.490,-60.480,68.110
7564259,-0.588,-0.554,-0.559,0.910,-64.820,67.410
7564278,-0.581,-0.517,-0.585,5.810,-65.310,67.340
7564303,-0.618,-0.485,-0.562,11.900,-63.770,68.040
7564326,-0.662,-0.489,-0.515,13.580,-63.980,68.180
7564346,-0.674,-0.474,-0.477,16.030,-62.300,67.550
7564369,-0.703,-0.451,-0.453,19.530,-61.810,67.130
7564390,-0.734,-0.433,-0.426,24.080,-62.440,67.480
7564410,-0.761,-0.422,-0.420,26.530,-64.190,69.020
7564428,-0.778,-0.410,-0.417,28.630,-64.120,70.910
7564449,-0.774,-0.387,-0.401,32.900,-63.560,72.030
7564469,-0.796,-0.372,-0.373,36.680,-61.530,72.030
7564492,-0.846,-0.372,-0.342,38.570,-62.860,72.100
7564516,-0.841,-0.378,-0.338,39.340,-64.120,72.100
7564536,-0.823,-0.367,-0.316,41.230,-63.980,70.420
7564556,-0.824,-0.317,-0.266,41.440,-63.350,68.040
7564573,-0.865,-0.278,-0.213,40.530,-65.590,66.640
7564596,-0.907,-0.274,-0.206,40.320,-71.820,65.030
7564616,-0.905,-0.269,-0.220,42.280,-73.500,63.910
7564635,-0.894,-0.262,-0.217,45.710,-71.820,61.180
7564660,-0.894,-0.227,-0.187,49.560,-66.850,57.750
7564680,-0.898,-0.195,-0.140,53.970,-64.190,54.530
7564695,-0.909,-0.155,-0.098,53.200,-62.160,52.360
7564720,-0.912,-0.107,-0.045,50.050,-60.550,47.740
7564740,-0.906,-0.097,-0.041,47.530,-63.560,42.910
7564760,-0.880,-0.089,-0.066,47.250,-60.690,38.570
7564779,-0.866,-0.060,-0.057,47.110,-56.700,35.140
7564799,-0.878,-0.020,-0.038,47.320,-49.070,31.640
7564823,-0.899,-0.025,0.012,42.700,-42.490,26.600
7564843,-0.932,-0.026,0.025,35.490,-44.800,22.120
7564859,-0.919,-0.004,0.002,35.140,-39.900,18.410
7564881,-0.939,0.045,0.054,33.460,-34.510,13.650
7564902,-0.969,0.051,0.099,26.740,-29.470,10.570
7564926,-0.989,0.065,0.122,22.400,-30.590,7.420
7564945,-0.982,0.081,0.104,17.220,-30.660,5.530
7564968,-0.976,0.079,0.110,12.810,-28.770,3.500
7564988,-0.951,0.067,0.116,8.050,-26.250,1.260
7565008,-0.939,0.061,0.115,3.640,-21.210,-0.210
7565028,-0.945,0.066,0.139,-0.560,-16.520,-1.260
7565048,-0.942,0.052,0.153,-2.940,-13.300,-2.730
7565071,-0.939,0.028,0.176,-5.180,-8.750,-6.160
7565091,-0.960,0.045,0.175,-7.630,-7.140,-7.980
7565110,-0.989,0.078,0.177,-11.270,-6.230,-9.030
7565133,-0.994,0.057,0.180,-16.590,-6.720,-9.940
7565153,-0.984,0.005,0.186,-21.490,-5.320,-10.850
7565174,-0.996,0.014,0.188,-22.820,-5.110,-9.800
7565198,-0.993,0.025,0.174,-20.020,-3.220,-7.980
7565223,-0.998,0.012,0.180,-20.160,-1.330,-7.840
7565242,-0.983,0.002,0.183,-19.530,-0.070,-8.120
7565262,-0.974,-0.031,0.157,-18.270,1.890,-7.700
7565282,-0.978,-0.053,0.146,-15.820,5.250,-6.510
7565302,-0.978,-0.057,0.163,-14.840,7.980,-6.020
7565322,-0.986,-0.055,0.168,-14.840,7.770,-7.420
7565343,-1.002,-0.025,0.139,-14.700,5.040,-8.960
7565360,-0.990,-0.034,0.105,-15.400,6.650,-9.380
7565382,-0.983,-0.072,0.102,-19.460,11.340,-10.640
7565402,-0.971,-0.082,0.114,-17.500,13.790,-10.570
7565422,-0.994,-0.099,0.129,-11.830,14.980,-9.940
7565440,-1.009,-0.115,0.132,-9.310,12.180,-8.820
7565459,-1.016,-0.122,0.112,-4.970,13.020,-9.730
7565484,-1.025,-0.109,0.091,0.280,12.040,-10.290
7565502,-1.016,-0.118,0.071,2.450,15.330,-10.430
7565522,-1.019,-0.120,0.122,4.620,17.290,-10.360
7565546,-1.028,-0.103,0.114,7.210,13.440,-9.590
7565562,-1.018,-0.109,0.080,8.680,12.600,-8.750
7565581,-1.014,-0.116,0.067,11.690,13.650,-8.050
7565606,-1.011,-0.141,0.072,14.070,14.840,-8.330
7565627,-1.025,-0.167,0.100,14.630,16.310,-9.450
7565646,-1.038,-0.156,0.111,13.720,14.140,-9.660
7565664,-1.026,-0.145,0.109,13.930,12.250,-9.100
7565688,-1.024,-0.158,0.089,16.170,9.520,-8.190
7565707,-1.008,-0.176,0.083,19.250,8.260,-8.610
7565727,-1.010,-0.214,0.072,21.000,7.000,-9.030
7565747,-1.009,-0.240,0.086,19.390,11.690,-9.730
7565766,-1.039,-0.250,0.139,17.710,10.920,-9.870
7565791,-1.050,-0.247,0.143,17.080,2.800,-9.590
7565806,-1.031,-0.202,0.115,17.570,-0.560,-8.470
7565831,-1.031,-0.159,0.088,16.870,-4.620,-5.040
7565851,-0.978,-0.160,0.067,12.810,-3.710,-3.290
7565866,-0.972,-0.180,0.089,10.570,-0.210,-2.240
7565891,-0.978,-0.198,0.130,9.310,-0.770,-1.260
7565911,-1.011,-0.224,0.130,9.240,-3.920,-0.490
7565931,-1.039,-0.238,0.129,10.150,-6.300,-0.420
7565951,-1.020,-0.201,0.082,10.640,-8.820,1.400
7565970,-1.004,-0.178,0.080,8.330,-4.200,3.220
7565991,-0.992,-0.178,0.100,3.010,-1.680,5.530
7566015,-0.999,-0.194,0.133,-0.910,-4.690,7.210
7566034,-0.977,-0.213,0.124,-1.470,-7.350,7.770
7566053,-0.954,-0.249,0.099,-1.960,-6.090,8.680
7566072,-0.955,-0.263,0.118,-3.780,-7.140,8.890
7566097,-0.958,-0.228,0.124,-3.220,-7.140,8.960
7566117,-0.963,-0.214,0.140,-2.450,-8.540,10.010
7566136,-0.977,-0.204,0.137,-5.110,-9.380,10.850
7566156,-0.987,-0.220,0.119,-7.770,-10.150,10.500
7566172,-0.988,-0.217,0.091,-8.400,-8.260,9.870
7566197,-0.996,-0.204,0.075,-5.880,-4.830,10.360
7566216,-0.876,-0.207,0.067,-2.310,-2.240,10.920
7566236,-0.994,-0.199,0.071,2.030,2.590,10.990
7566255,-0.997,-0.157,0.072,5.950,4.970,10.780
7566280,-0.998,-0.106,0.061,8.190,6.440,12.250
7566295,-0.986,-0.089,0.073,9.380,9.380,13.370
7566318,-1.013,-0.065,0.126,10.710,8.820,15.050
7566342,-1.016,-0.085,0.142,11.760,2.660,14.490
7566362,-1.014,-0.064,0.119,12.810,-2.310,13.930
7566380,-1.005,-0.076,0.099,13.440,-2.870,13.650
7566402,-1.016,-0.064,0.103,13.230,-4.340,11.690
7566425,-1.017,-0.048,0.085,13.510,-2.310,9.660
7566445,-1.029,-0.022,0.089,12.320,-0.490,9.310
7566466,-1.018,0.017,0.087,9.870,-0.140,9.310
7566486,-1.003,0.036,0.083,10.010,0.210,9.450
7566505,-0.998,0.045,0.077,10.850,0.420,8.890
7566529,-0.997,0.044,0.080,8.960,-1.330,8.400
7566550,-0.988,0.049,0.085,9.800,-2.170,8.050
7566570,-0.986,0.030,0.069,10.640,-3.780,7.000
7566590,-1.006,0.020,0.081,7.560,-2.660,4.900
7566608,-1.037,0.022,0.090,7.420,-3.220,3.430
7566628,-1.033,0.044,0.069,8.820,-2.240,1.330
7566648,-1.024,0.044,0.066,9.310,-0.840,0.560
7566668,-1.008,0.023,0.065,9.310,0.420,-0.140
7566689,-1.019,0.042,0.097,13.650,2.310,-1.330
7566710,-0.999,0.051,0.065,17.290,2.240,-1.050
7566730,-1.008,0.050,0.077,18.620,3.570,-0.210
7566754,-1.019,0.057,0.079,18.410,1.190,-0.840
7566774,-1.016,0.070,0.085,14.980,0.490,-2.030
7566791,-1.029,0.095,0.096,11.690,0.840,-2.450
7566810,-1.049,0.092,0.096,9.730,-0.630,-2.030
7566835,-1.018,0.066,0.082,7.210,-1.120,-0.910
7566854,-1.003,0.047,0.088,4.900,-1.050,-0.420
7566875,-1.008,0.055,0.089,3.220,-0.840,0.210
7566895,-1.008,0.055,0.077,3.150,-0.770,0.840
7566912,-1.014,0.052,0.067,3.220,-1.610,1.050
7566931,-1.016,0.061,0.073,3.920,-2.660,2.660
7566955,-1.012,0.052,0.061,3.990,-3.010,5.390
7566976,-1.035,0.030,0.097,4.480,-1.330,6.020
7567000,-1.051,0.026,0.102,5.040,-3.080,4.830
7567020,-1.050,0.033,0.076,5.110,-4.620,3.640
7567035,-1.021,0.036,0.071,4.620,-4.480,3.080
7567058,-0.988,0.045,0.085,3.500,-4.620,2.310
7567077,-0.993,0.066,0.117,1.680,-3.500,1.890
7567100,-1.037,0.067,0.135,-0.700,-5.390,1.890
7567121,-1.042,0.046,0.079,-4.060,-8.400,2.100
7567145,-1.021,0.049,0.053,-5.110,-7.000,2.100
7567166,-0.992,0.062,0.066,-4.340,-2.660,2.660
7567185,-1.017,0.089,0.111,-4.690,-3.780,3.780
7567205,-1.030,0.090,0.094,-4.480,-6.580,5.740
7567225,-1.012,0.036,0.083,-1.820,-7.490,7.000
7567249,-0.984,-0.026,0.112,-1.820,-7.840,5.950
7567269,-0.990,-0.029,0.115,1.400,-11.690,4.830
7567286,-0.980,0.002,0.086,5.250,-10.010,3.080
7567306,-0.993,0.010,0.064,5.530,-7.630,0.910
7567325,-0.983,0.015,0.068,1.540,-4.130,-0.280
7567345,-1.007,0.032,0.126,-1.400,-1.400,-0.980
7567370,-1.060,0.073,0.152,-2.100,-3.640,-0.350
7567390,-1.058,0.063,0.119,-2.730,-7.560,-0.070
7567409,-1.026,0.042,0.100,-2.660,-7.840,0.210
7567430,-0.991,0.015,0.105,-1.260,-6.300,0.070
7567450,-0.974,0.010,0.125,-0.980,-2.590,-0.700
7567469,-0.999,0.025,0.133,0.000,-2.730,-1.120
7567494,-1.002,0.020,0.123,0.350,-3.780,-1.680
7567512,-1.005,0.017,0.122,1.470,-3.290,-2.450
7567532,-0.999,0.015,0.136,1.330,-2.030,-2.520
7567553,-1.005,0.018,0.131,0.280,-2.310,-2.800
7567573,-1.018,0.030,0.135,-0.910,-2.590,-2.730
7567592,-1.018,0.025,0.129,-1.470,-3.920,-3.150
7567612,-1.001,0.036,0.000,-0.350,-4.760,-3.500
7567636,-0.992,0.041,0.128,1.050,-2.240,-3.640
7567654,-1.007,0.047,0.141,-0.140,-0.280,-3.570
7567674,-1.010,0.064,0.137,-2.030,-0.630,-3.150
7567698,-0.996,0.069,0.122,-6.300,0.070,-3.080
7567718,-0.996,0.072,0.116,-9.590,-0.490,-3.850
7567738,-0.988,0.070,0.119,-11.480,0.980,-4.340
7567757,-1.006,0.053,0.128,-11.690,1.260,-4.410
7567776,-1.023,0.045,0.133,-11.410,0.560,-3.850
7567799,-1.026,0.022,0.129,-10.780,-0.210,-3.640
7567818,-1.026,0.020,0.125,-10.430,0.840,-4.060
7567837,-1.033,0.019,0.120,-14.210,-0.420,-4.620
7567857,-1.004,0.027,0.129,-15.260,0.210,-5.600
7567877,-1.002,0.040,0.116,-15.820,-0.770,-6.020
7567901,-1.011,0.017,0.106,-17.570,0.000,-4.970
7567920,-1.020,-0.012,0.124,-17.430,0.000,-4.480
7567940,-1.042,-0.015,0.125,-15.750,-1.120,-4.130
7567959,-1.060,-0.000,0.121,-15.330,-4.480,-3.290
7567983,-1.034,0.008,0.108,-15.750,-6.790,-3.360
7568003,-0.996,0.021,0.103,-16.380,-8.050,-3.990
7568019,-0.949,0.024,0.109,-17.220,-6.300,-4.550
7568045,-0.940,0.018,0.128,-19.390,-3.990,-5.810
7568062,-0.943,0.031,0.146,-21.070,-2.800,-6.160
7568083,-0.967,0.030,0.148,-21.770,1.890,-6.090
7568102,-1.000,-0.001,0.165,-22.750,6.580,-6.790
7568122,-1.023,-0.037,0.177,-23.170,6.510,-8.120
7568146,-1.036,-0.056,0.163,-21.910,6.510,-8.050
7568165,-1.025,-0.065,0.129,-19.390,6.090,-7.840
7568182,-1.001,-0.058,0.112,-16.660,7.840,-8.120
7568201,-0.991,-0.054,0.112,-14.840,10.010,-8.190
7568221,-0.987,-0.058,0.113,-13.160,11.060,-8.470
7568247,-1.000,-0.066,0.107,-11.620,10.850,-8.260
7568266,-1.007,-0.073,0.104,-10.080,10.010,-7.980
7568286,-1.009,-0.083,0.086,-6.580,11.760,-7.630
7568306,-1.018,-0.099,0.101,-4.970,12.810,-7.280
7568322,-1.030,-0.107,0.098,-4.060,10.500,-7.420
7568347,-1.017,-0.113,0.086,-2.030,9.380,-8.050
7568366,-1.002,-0.121,0.081,0.840,10.220,-8.120
7568383,-1.001,-0.132,0.077,2.310,11.760,-8.190
7568406,-1.028,-0.148,0.079,2.310,11.060,-7.770
7568428,-1.016,-0.182,0.056,3.920,10.150,-7.840
7568447,-1.010,-0.167,0.066,7.490,10.430,-7.910
7568467,-1.007,-0.155,0.072,8.960,9.870,-7.420
7568487,-1.017,-0.152,0.095,7.980,7.910,-6.650
7568503,-1.051,-0.151,0.089,8.050,2.800,-5.880
7568526,-1.065,-0.157,0.055,9.100,0.700,-5.040
7568547,-1.057,-0.162,0.046,9.590,0.280,-4.130
7568563,-1.049,-0.157,0.043,7.980,0.350,-3.360
7568584,-1.027,-0.141,0.038,5.810,1.120,-1.960
7568607,-1.006,-0.129,0.062,5.040,1.120,-0.280
7568628,-1.001,-0.131,0.083,4.270,-1.190,1.260
7568648,-1.012,-0.141,0.088,3.080,-6.300,2.030
7568668,-1.016,-0.152,0.081,1.750,-9.940,2.660
7568687,-1.004,-0.159,0.068,0.770,-11.480,3.010
7568706,-0.989,-0.158,0.049,-0.630,-9.730,3.150
7568726,-0.978,-0.158,0.057,-1.610,-7.280,3.500
7568750,-0.978,-0.173,0.074,-1.260,-6.510,4.130
7568770,-0.979,-0.191,0.062,0.980,-5.040,4.760
7568789,-0.986,-0.206,0.064,3.360,-1.680,5.530
7568809,-0.987,-0.210,0.067,5.670,0.700,5.810
7568829,-0.975,-0.194,0.068,6.650,2.660,6.020
7568852,-0.965,-0.173,0.073,7.000,2.730,6.370
7568873,-0.959,-0.155,0.052,8.890,3.640,7.280
7568893,-0.957,-0.164,0.048,10.220,6.160,7.980
7568913,-0.967,-0.187,0.057,10.850,7.070,8.260
7568937,-0.985,-0.193,0.041,10.640,6.020,8.190
7568957,-0.998,-0.179,0.036,11.970,7.630,7.840
7568975,-1.050,-0.142,0.032,13.650,6.370,7.700
7568998,-1.032,-0.077,-0.027,15.400,11.970,7.560
7569023,-1.007,-0.012,-0.002,15.680,19.810,10.220
7569039,-0.976,0.046,-0.003,13.930,26.600,11.970
7569062,-0.983,0.076,0.028,12.320,30.940,14.350
7569083,-0.992,0.100,0.060,10.500,28.280,16.520
7569103,-1.006,0.118,0.071,7.140,23.100,17.920
7569120,-1.024,0.122,0.061,3.780,16.310,18.410
7569144,-1.020,0.126,0.030,-0.770,12.180,17.360
7569164,-1.036,0.150,0.003,-5.880,10.570,16.310
7569182,-1.063,0.175,-0.004,-12.180,10.150,15.890
7569204,-1.093,0.176,-0.009,-17.010,9.380,14.420
7569224,-1.102,0.154,0.002,-18.270,8.050,12.670
7569240,-1.088,0.140,0.014,-18.690,5.390,10.640
7569260,-1.059,0.131,-0.004,-22.050,1.610,8.820
