Millis	AccelX	AccelY	AccelZ	GyroX	GyroY	GyroZ
0	-0.999	-0.11	-0.083	0.42	-3.78	-0.84
21	-0.996	-0.109	-0.076	0.21	-3.64	-0.56
40	-0.996	-0.113	-0.08	0.21	-3.22	-0.56
59	-0.993	-0.111	-0.079	0.49	-3.29	-0.7
79	-1.0	-0.108	-0.079	0.7	-3.85	-0.98
103	-1.0	-0.102	-0.084	0.0	-3.99	-1.12
123	-1.002	-0.101	-0.083	-0.7	-4.48	-1.12
144	-0.991	-0.115	-0.078	-2.38	-4.48	-0.91
161	-0.99	-0.126	-0.069	-2.24	-3.92	-0.63
179	-0.996	-0.106	-0.079	0.84	-2.73	-0.07
203	-0.995	-0.112	-0.081	0.56	-3.22	-0.77
221	-0.994	-0.106	-0.081	0.56	-3.78	-0.91
245	-0.997	-0.101	-0.073	-17.92	-4.2	-1.33
265	-0.995	-0.107	-0.074	-0.91	-4.06	-1.47
289	-0.998	-0.119	-0.068	-0.91	-3.78	-1.33
309	-0.99	-0.114	-0.075	0.14	-2.66	-0.91
329	-0.996	-0.107	-0.077	1.33	-2.8	-0.91
348	-0.998	-0.108	-0.077	1.54	-3.22	-1.12
369	-0.998	-0.104	-0.073	0.63	-3.57	-1.26
389	-1.002	-0.102	-0.075	-0.49	-4.06	-1.4
409	-1.0	-0.107	-0.073	-0.84	-3.71	-1.75
429	-0.997	-0.112	-0.069	0.07	-3.15	-1.61
448	-0.997	-0.106	-0.072	0.84	-3.22	-1.75
472	-0.996	-0.105	-0.075	0.35	-2.94	-1.82
491	-1.0	-0.108	-0.073	-0.07	-3.36	-2.03
514	-0.995	-0.109	-0.071	-0.42	-3.15	-1.75
534	-0.996	-0.113	-0.07	0.14	-3.29	-1.75
553	-0.997	-0.103	-0.073	-0.42	-3.5	-1.89
578	-0.996	-0.116	-0.067	-0.35	-3.15	-1.89
594	-1.0	-0.104	-0.073	0.0	-2.8	-2.17
618	-0.997	-0.106	-0.074	0.56	-2.87	-2.17
638	-0.996	-0.113	-0.074	0.21	-2.87	-1.82
658	-0.994	-0.107	-0.07	-0.07	-2.8	-1.89
682	-0.997	-0.112	-0.069	0.35	-2.45	-1.89
702	-1.001	-0.107	-0.07	0.49	-2.59	-1.96
722	-0.997	-0.107	-0.074	0.56	-2.24	-1.82
742	-0.994	-0.113	-0.071	0.07	-2.24	-2.1
762	-0.998	-0.106	-0.071	0.07	-2.45	-2.24
780	-0.996	-0.107	-0.072	0.0	-2.1	-2.38
803	-0.997	-0.105	-0.073	-0.42	-2.24	-2.66
824	-1.0	-0.112	-0.079	0.49	-1.75	-2.52
844	-0.995	-0.118	-0.075	-0.56	-2.59	-2.87
868	-0.994	-0.115	-0.071	-0.42	-2.24	-2.8
887	-0.996	-0.111	-0.076	0.35	-2.24	-2.73
907	-0.994	-0.111	-0.072	0.98	-1.89	-2.87
931	-0.992	-0.12	-0.071	1.68	-1.33	-2.66
950	-0.998	-0.113	-0.077	1.26	-1.75	-2.94
970	-1.001	-0.104	-0.076	1.12	-2.17	-3.22
991	-0.996	-0.106	-0.071	0.7	-2.1	-3.57
1011	-0.996	-0.114	-0.075	1.47	-1.82	-3.43
1031	-0.995	-0.117	-0.076	1.61	-1.75	-3.29
1054	-0.996	-0.112	-0.076	1.47	-2.24	-3.29
1074	-0.994	-0.12	-0.074	0.42	-1.68	-3.01
1094	-0.998	-0.123	-0.076	0.7	-2.03	-3.22
1118	-0.993	-0.111	-0.081	1.47	-1.96	-3.15
1138	-0.991	-0.118	-0.076	1.19	-1.61	-2.94
1158	-0.995	-0.118	-0.076	0.84	-2.17	-3.01
1182	-0.996	-0.129	-0.078	1.54	-1.96	-2.52
1202	-0.997	-0.117	-0.077	1.4	-1.96	-2.38
1221	-0.996	-0.116	-0.077	1.54	-1.68	-1.89
1239	-0.996	-0.122	-0.078	0.91	-1.61	-2.1
1263	-0.995	-0.121	-0.078	1.68	-1.68	-1.75
1281	-0.994	-0.118	-0.084	2.17	-1.75	-1.89
1303	-0.998	-0.114	-0.079	1.05	-2.1	-2.24
1322	-0.998	-0.116	-0.082	0.14	-2.31	-2.45
1346	-0.994	-0.119	-0.079	-0.28	-2.45	-2.52
1361	-0.994	-0.25	-0.079	0.14	-2.66	-2.17
1381	-0.994	-0.121	-0.075	0.77	-2.17	-2.1
1406	-0.997	-0.124	-0.082	1.12	-2.1	-2.1
1426	-0.992	-0.122	-0.084	0.98	-1.96	-2.03
1446	-0.993	-0.119	-0.081	0.63	-2.31	-2.17
1466	-0.996	-0.122	-0.082	0.0	-2.52	-2.52
1481	-0.994	-0.126	-0.08	0.49	-2.38	-2.52
1505	-0.995	-0.119	-0.08	0.91	-2.52	-2.31
1526	-0.997	-0.122	-0.081	0.07	-2.52	-2.38
1546	-0.992	-0.12	-0.084	0.77	-2.17	-2.31
1566	-0.991	-0.122	-0.081	0.56	-2.03	-2.1
1586	-0.994	-0.123	-0.084	0.35	-2.45	-2.31
1605	-0.996	-0.122	-0.079	0.21	-2.8	-2.52
1624	-0.996	-0.123	-0.083	0.14	-2.52	-2.31
1649	-0.993	-0.122	-0.083	0.14	-2.73	-2.38
1669	-0.996	-0.126	-0.081	0.35	-2.66	-2.45
1689	-0.992	-0.128	-0.079	0.42	-2.52	-2.17
1706	-0.996	-0.128	-0.083	0.77	-2.03	-2.17
1730	-0.997	-0.117	-0.085	1.12	-2.31	-2.1
1747	-0.991	-0.125	-0.081	0.42	-2.31	-2.24
1767	-0.995	-0.122	-0.079	0.07	-2.59	-2.17
1791	-0.991	-0.129	-0.084	0.77	-2.31	-2.17
1810	-0.994	-0.127	-0.083	0.98	-2.59	-2.38
1830	-0.992	-0.121	-0.081	0.56	-2.45	-2.45
1854	-0.99	-0.124	-0.081	-0.14	-2.52	-2.31
1871	-0.999	-0.117	-0.081	-1.33	-3.36	-2.24
1895	-1.001	-0.122	-0.086	-0.35	-2.52	-1.61
1913	-0.99	-0.122	-0.079	0.77	-2.73	-1.68
1933	-0.991	-0.121	-0.08	-0.28	-2.87	-1.47
1956	-0.998	-0.133	-0.081	0.35	-2.24	-1.19
1976	-0.991	-0.13	-0.086	0.07	-2.45	-1.4
1999	-1.001	-0.115	-0.084	-0.14	-4.06	-1.61
2016	-0.992	-0.128	-0.084	-1.89	-3.15	-1.47
2040	-0.994	-0.132	-0.085	-1.47	-2.45	-1.54
2058	-0.993	-0.137	-0.086	0.7	-3.5	-0.91
2082	-0.991	-0.137	-0.088	0.91	-3.78	0.63
2099	-1.002	-0.112	-0.086	-1.26	-4.34	2.03
2121	-0.994	-0.142	-0.106	-9.73	-3.01	7.49
2140	-1.037	-0.082	-0.07	-6.72	-10.36	0.28
2163	-0.994	-0.122	-0.044	-15.61	-3.71	-2.66
2183	-0.987	-0.122	-0.083	-5.04	-4.97	-2.59
2204	-1.009	-0.17	-0.102	-0.42	-8.19	1.47
2223	-0.991	-0.125	-0.075	-2.31	-10.36	6.23
2247	-1.002	-0.087	-0.073	-3.5	-6.79	4.55
2271	-0.996	-0.099	-0.065	-7.21	-6.16	0.14
2291	-1.007	-0.113	-0.062	-7.98	-5.67	0.77
2311	-1.003	-0.105	-0.072	-9.8	-6.79	-2.24
2330	-1.009	-0.094	-0.064	-6.79	-7.35	-0.7
2353	-1.021	-0.106	-0.07	-7.98	-5.67	-0.42
2375	-1.006	-0.128	-0.067	-4.34	-8.26	1.12
2394	-0.993	-0.099	-0.055	-6.3	-5.32	1.89
2419	-0.882	-0.102	-0.044	-6.3	-3.99	4.2
2439	-0.993	-0.113	-0.06	-1.47	-0.91	2.38
2457	-0.996	-0.112	-0.062	7.14	0.07	0.7
2475	-1.0	-0.074	-0.063	6.16	0.28	-2.1
2495	-0.985	-0.061	-0.061	7.63	0.21	-4.27
2514	-0.98	-0.103	-0.07	-1.61	1.47	-4.41
2539	-1.003	-0.134	-0.084	1.4	2.31	-2.8
2559	-0.989	-0.099	-0.062	4.06	4.62	-2.94
2579	-1.028	0.004	-0.092	-1.26	3.22	-6.02
2599	-0.984	-0.091	-0.091	4.34	6.23	-6.79
2616	-1.031	-0.118	-0.086	-0.84	4.9	-6.51
2640	-0.987	-0.136	-0.069	9.38	8.4	-2.17
2660	-1.008	-0.155	-0.052	17.15	5.39	-0.77
2677	-0.995	-0.102	-0.081	14.98	4.9	0.35
2698	-0.993	-0.087	-0.078	9.87	3.22	-0.56
2721	-0.97	-0.069	-0.102	2.03	0.42	-1.68
2740	-0.959	-0.135	-0.071	-9.73	3.36	-0.84
2765	-0.968	-0.177	-0.046	-5.95	10.08	2.59
2783	-1.022	-0.129	-0.012	-10.15	12.95	7.07
2807	-0.97	-0.092	-0.078	-3.15	18.9	8.96
2827	-1.005	-0.101	-0.078	-2.45	16.8	7.56
2845	-0.981	-0.167	-0.097	3.99	14.7	12.88
2865	-0.963	-0.102	-0.226	1.68	16.1	14.21
2886	-0.988	-0.139	-0.122	-0.84	11.62	12.18
2910	-0.968	-0.023	-0.115	-5.53	10.43	11.06
2930	-0.965	-0.061	-0.152	-6.23	10.92	9.59
2948	-0.981	-0.111	-0.264	0.7	13.3	3.78
2965	-1.074	-0.074	-0.156	3.5	-5.53	2.03
2990	-0.964	-0.052	-0.183	7.42	4.2	7.07
3010	-1.016	0.009	-0.198	3.43	1.96	4.9
3025	-0.987	-0.039	-0.192	-0.21	-1.4	2.03
3050	-0.998	-0.082	-0.175	3.5	-2.1	-0.42
3068	-0.989	-0.056	-0.165	2.45	-2.31	0.28
3086	-1.009	-0.086	-0.156	2.59	-0.07	0.49
3110	-0.949	-0.055	-0.136	7.84	-0.77	0.21
3130	-0.982	-0.015	-0.194	1.96	4.34	-6.09
3150	-1.024	-0.027	-0.131	0.49	-6.16	-11.69
3170	-0.946	-0.084	-0.16	2.03	2.66	-9.59
3189	-1.024	-0.073	-0.162	4.9	2.17	-9.17
3213	-0.961	-0.076	-0.162	3.29	3.01	-7.7
3231	-0.982	-0.09	-0.176	4.41	2.8	-7.07
3255	-0.987	-0.078	-0.171	-1.05	3.01	-7.77
3274	-0.978	-0.113	-0.147	1.12	3.71	-4.97
3291	-0.979	-0.121	-0.176	4.76	4.76	-1.75
3310	-1.123	-0.056	-0.198	4.2	3.15	-1.26
3334	-0.966	-0.081	-0.183	2.73	-0.7	-1.89
3358	-0.99	-0.075	-0.17	-1.12	-2.31	-1.75
3377	-0.981	-0.108	-0.155	-0.07	0.84	0.14
3396	-0.993	-0.092	-0.187	4.27	2.52	0.56
3418	-0.979	-0.064	-0.206	-0.56	-1.26	-0.49
3438	-0.984	-0.076	-0.179	-1.4	-2.52	-0.21
3462	-0.99	-0.068	-0.182	-1.82	-1.19	-0.77
3478	-0.967	-0.069	-0.197	0.77	-2.45	-2.38
3501	-1.011	-0.031	-0.18	1.89	-4.41	-8.19
3522	-0.982	-0.088	-0.161	-3.22	-0.28	-8.33
3542	-0.986	-0.107	-0.203	-0.7	-0.77	-5.81
3562	-0.986	-0.093	-0.222	2.66	0.0	-3.71
3579	-0.984	-0.077	-0.222	4.76	-4.34	-4.55
3603	-0.974	-0.078	-0.191	3.01	-6.79	-6.23
3621	-0.986	-0.07	-0.18	2.52	-5.6	-5.53
3643	-0.992	-0.089	-0.185	2.87	-1.12	-5.18
3662	-0.968	-0.088	-0.186	5.6	-4.2	-4.76
3686	-1.012	-0.082	-0.189	-7.77	-9.87	-7.42
3705	-0.996	-0.098	-0.175	-10.99	-13.09	-6.65
3725	-0.976	-0.11	-0.189	-12.6	-14.98	-4.97
3745	-0.985	-0.125	-0.172	-10.01	-16.17	-4.62
3769	-0.966	-0.116	-0.178	-8.89	-15.54	-2.38
3790	-1.002	-0.116	-0.176	-5.25	-18.55	-1.26
3810	-0.976	-0.094	-0.158	-4.48	-19.18	-0.77
3829	-0.981	-0.054	-0.135	-7.56	-20.51	-2.24
3853	-0.99	-0.081	-0.136	-9.24	-17.71	-1.89
3871	-1.017	-0.081	-0.128	-8.96	-18.69	-1.26
3893	-0.948	-0.145	-0.122	-4.41	-13.23	1.05
3917	-1.008	-0.098	-0.139	-2.45	-17.15	0.7
3937	-0.961	-0.097	-0.137	-4.27	-18.06	0.98
3955	-1.022	-0.064	-0.115	-7.63	-20.65	-1.26
3979	-0.951	-0.111	-0.097	-6.58	-16.38	-1.82
4000	-1.021	-0.096	-0.096	-4.34	-21.63	-2.38
4019	-1.004	-0.096	-0.142	-4.06	-17.43	-4.13
4043	-1.037	-0.032	-0.102	6.16	-21.91	-5.11
4067	-0.969	-0.071	-0.06	-14.35	-22.54	-9.45
4084	-0.995	-0.1	-0.078	-3.5	-16.45	-5.46
4108	-0.985	-0.117	-0.049	-4.97	-11.41	-5.81
4126	-1.003	-0.053	-0.043	1.82	-13.37	-4.34
4148	-1.028	0.005	-0.045	-13.44	-18.9	-7.77
4168	-0.943	-0.127	-0.031	-11.34	-12.67	-7.42
4188	-1.042	-0.077	-0.088	-1.4	-8.68	-7.42
4211	-0.918	-0.185	0.007	-9.03	-12.6	-3.85
4235	-0.941	-0.183	0.01	-10.78	-9.1	-3.36
4255	-1.004	-0.072	-0.044	-5.53	-6.93	-2.17
4275	-0.959	-0.194	-0.001	-10.78	2.59	-0.42
4294	-1.006	-0.053	-0.076	1.12	6.79	0.63
4314	-0.948	-0.184	-0.042	2.31	7.98	-0.42
4338	-0.984	-0.123	-0.062	3.22	5.95	-1.33
4362	-1.018	-0.079	-0.072	5.74	7.14	-1.75
4386	-0.963	-0.132	-0.067	3.29	10.92	0.07
4406	-1.026	-0.026	-0.068	-3.78	2.24	-2.31
4426	-1.006	-0.115	-0.085	8.75	5.6	-1.12
4446	-0.988	-0.125	-0.073	6.16	1.4	-2.94
4466	-1.037	-0.09	-0.083	-0.14	0.56	-3.71
4489	-0.986	-0.084	-0.094	2.87	6.51	-3.22
4509	-0.986	-0.121	-0.088	-0.35	1.89	-4.97
4529	-1.005	-0.092	-0.106	0.35	-0.49	-4.76
4548	-0.966	-0.097	-0.078	-3.78	-3.29	-5.88
4573	-1.024	-0.073	-0.087	-5.53	-6.16	-5.18
4593	-0.976	-0.161	-0.083	-2.66	-1.05	-2.59
4614	-0.972	-0.184	-0.077	3.43	0.7	-0.07
4632	-0.988	-0.122	-0.086	8.89	0.77	3.99
4652	-0.993	-0.112	-0.073	5.11	0.42	3.99
4676	-1.013	-0.043	-0.093	-0.14	2.1	1.26
4696	-0.995	-0.087	-0.07	-0.63	0.28	-0.07
4716	-0.994	-0.105	-0.06	0.91	3.92	0.28
4733	-0.998	-0.1	-0.076	3.78	8.82	1.82
4751	-0.951	-0.204	-0.001	7.28	9.87	4.97
4771	-1.043	-0.033	-0.111	15.26	23.94	5.81
4796	-0.932	-0.105	-0.107	8.47	14.91	-0.42
4816	-1.022	-0.061	-0.094	8.12	11.55	-2.45
4836	-1.025	-0.098	-0.041	12.46	13.51	-1.05
4856	-0.993	-0.102	-0.166	9.66	17.29	-2.03
4876	-0.965	-0.07	-0.146	6.3	11.48	-4.34
4896	-1.017	-0.097	-0.124	4.27	7.49	-1.33
4920	-0.994	-0.13	-0.143	6.86	13.93	5.11
4936	-0.963	-0.098	-0.252	5.25	16.03	1.96
4960	-0.994	-0.096	-0.162	8.33	1.19	-1.12
4975	-0.98	-0.087	-0.111	6.51	1.68	0.28
4995	-0.978	-0.121	-0.109	9.66	10.36	1.96
5020	-0.999	-0.052	-0.145	6.79	12.11	4.83
5040	-0.995	-0.124	-0.178	9.17	9.59	4.97
5060	-1.019	-0.102	-0.242	10.15	9.03	5.6
5084	-0.866	-0.149	-0.206	6.02	10.36	7.42
5103	-1.044	-0.041	-0.174	9.1	-2.52	4.69
5120	-0.947	-0.14	-0.131	5.88	6.09	7.07
5142	-0.885	-0.089	-0.186	13.37	11.76	8.05
5163	-0.972	-0.066	-0.176	11.97	7.07	6.02
5183	-0.931	-0.101	-0.167	10.29	6.16	6.44
5207	-1.038	-0.067	-0.229	6.02	6.44	2.8
5224	-0.961	-0.089	-0.153	1.05	2.38	1.47
5244	-1.0	-0.063	-0.232	6.23	11.06	3.64
5263	-0.985	-0.046	-0.174	-1.61	-2.03	-0.42
5288	-0.993	-0.072	-0.24	-2.59	0.98	-17.92
5308	-0.892	-0.087	-0.21	-6.37	0.42	2.45
5327	-1.054	-0.067	-0.228	3.01	-4.27	1.75
5348	-0.937	-0.107	-0.222	6.09	1.61	3.57
5366	-1.017	-0.052	-0.163	-0.98	-0.63	1.82
5390	-0.981	-0.074	-0.228	2.38	6.02	1.61
5410	-0.988	-0.066	-0.209	0.35	-2.1	-0.91
5426	-0.993	-0.072	-0.196	2.45	-0.98	-1.61
5448	-0.98	-0.06	-0.204	2.24	0.56	-1.12
5470	-0.969	-0.075	-0.221	4.48	0.28	-1.75
5490	-0.999	-0.067	-0.224	5.74	-3.99	-3.64
5510	-0.988	-0.062	-0.209	6.79	-3.43	-3.15
5527	-0.982	-0.03	-0.24	5.74	-3.29	-3.43
5548	-1.015	-0.035	-0.206	1.4	-8.82	-8.33
5571	-0.978	-0.039	-0.206	0.21	-7.21	-11.34
5589	-0.981	-0.081	-0.203	4.55	-4.2	-13.3
5610	-1.0	-0.053	-0.207	4.34	-6.37	-17.08
5634	-0.952	-0.077	-0.189	7.14	-3.08	-17.01
5650	-0.956	-0.08	-0.224	5.88	-2.73	-16.45
5670	-0.971	-0.126	-0.195	-5.67	-1.4	-15.33
5693	-0.975	-0.118	-0.207	-4.9	-6.44	-11.97
5711	-0.969	-0.143	-0.231	3.01	-9.52	-9.38
5731	-0.968	-0.132	-0.209	-1.82	-10.71	-6.16
5750	-0.967	-0.103	-0.183	-4.55	-14.42	-5.74
5774	-0.982	-0.091	-0.18	-6.37	-12.88	-4.76
5790	-0.968	-0.127	-0.183	-3.29	-9.52	-3.92
5815	-0.959	-0.13	-0.18	-8.96	-6.79	-3.36
5830	-0.98	-0.112	-0.178	-6.09	-12.81	-3.5
5852	-0.998	-0.116	-0.18	-17.29	-18.06	-5.18
5871	-0.955	-0.161	-0.183	-11.83	-16.66	-1.33
5890	-0.99	-0.146	-0.118	-2.87	-19.39	0.56
5915	-0.98	-0.077	-0.147	-8.12	-14.0	0.14
5934	-0.988	-0.085	-0.145	-11.69	-13.37	-1.75
5958	-0.99	-0.116	-0.15	-9.52	-13.51	-1.33
5974	-1.001	-0.083	-0.152	-10.92	-15.33	-1.12
5998	-0.973	-0.138	-0.179	-10.15	-14.7	0.07
6018	-1.01	-0.093	-0.157	-6.72	-20.16	0.56
6036	-0.956	-0.112	-0.154	-10.78	-16.52	0.84
6058	-0.989	-0.153	-0.17	-4.9	-14.98	0.63
6082	-1.007	-0.106	-0.146	1.26	-20.3	1.54
6100	-0.991	-0.088	-0.118	2.59	-18.27	2.59
6121	-1.009	-0.077	-0.104	-5.04	-25.27	-0.98
6141	-1.021	-0.014	-0.102	-9.52	-23.8	-5.46
6165	-1.039	-0.153	-0.137	-11.13	-22.82	-8.68
6190	-0.941	-0.118	-0.093	-2.03	-19.74	-5.46
6205	-0.99	-0.064	-0.094	-2.94	-20.58	-5.81
6226	-1.009	-0.061	-0.043	-16.24	-17.85	-6.09
6250	-0.982	-0.102	-0.029	-14.98	-14.84	-5.11
6270	-0.978	-0.142	-0.053	1.47	-8.89	-1.61
6290	-0.947	-0.115	-0.046	8.33	-8.12	-0.77
6310	-0.939	-0.108	-0.091	4.27	-6.86	-0.84
6329	-0.964	-0.099	-0.045	2.87	-7.98	2.38
6350	-1.076	-0.108	-0.087	-2.03	-11.2	1.19
6369	-1.021	-0.085	-0.037	-4.97	-6.16	1.89
6393	-0.992	-0.093	-0.084	2.73	-2.87	0.84
6413	-0.968	-0.13	-0.08	1.61	-7.63	-2.94
6433	-1.005	-0.131	-0.092	4.2	-6.72	-1.61
6453	-0.98	-0.072	-0.032	0.35	-5.95	0.07
6471	-1.04	-0.08	-0.001	-8.19	-8.47	-0.98
6491	-0.989	-0.095	-0.053	-3.78	-3.5	-1.33
6515	-0.991	-0.154	-0.043	2.94	-3.57	-0.14
6535	-0.994	-0.112	-0.057	5.46	-3.92	0.35
6555	-0.996	-0.096	-0.055	2.24	-3.99	0.56
6573	-1.003	-0.108	-0.04	5.11	-2.1	0.0
6595	-1.005	-0.082	-0.051	7.91	0.0	-0.84
6610	-1.004	-0.073	-0.064	3.99	0.07	-2.1
6635	-1.001	-0.105	-0.053	5.25	0.49	-3.22
6655	-0.996	-0.112	-0.061	5.81	-1.68	-4.69
6675	-1.003	-0.106	-0.073	12.46	-2.38	-4.48
6694	-0.981	-0.115	-0.041	11.2	2.66	-2.59
6711	-0.971	-0.08	-0.044	4.48	3.29	-2.45
6732	-1.024	-0.055	-0.058	7.28	5.6	-4.27
6754	-0.995	-0.117	-0.057	8.33	10.92	-4.41
6773	-0.983	-0.101	-0.06	3.71	9.24	-4.62
6793	-1.009	-0.122	-0.076	6.02	8.54	-3.78
6819	-1.004	-0.09	-0.072	0.56	7.56	-2.52
6838	-0.973	-0.124	-0.118	2.59	13.65	-3.01
6857	-0.99	-0.058	-0.083	5.67	6.37	-3.64
6881	-0.988	-0.197	-0.079	2.1	8.19	-3.64
6897	-0.985	-0.189	-0.088	14.98	9.17	1.96
6920	-0.972	-0.158	-0.006	19.6	-8.47	12.04
6941	-0.984	-0.142	-0.26	27.37	10.43	10.43
6958	-0.945	-0.066	-0.061	1.19	-1.96	4.97
6983	-0.905	-0.039	-0.074	4.76	11.83	5.88
7001	-1.008	-0.101	-0.1	5.11	10.57	2.52
7022	-1.076	-0.002	-0.098	0.49	13.23	1.89
7042	-0.905	-0.105	-0.135	1.54	24.78	2.17
7062	-1.084	-0.051	-0.124	2.94	11.27	-6.02
7082	-0.956	-0.072	-0.081	6.86	19.74	-5.18
7100	-1.072	-0.08	-0.217	2.66	11.9	-9.59
7122	-0.951	-0.106	-0.142	-2.1	13.37	-9.17
7142	-0.979	-0.063	-0.193	3.29	13.93	-7.42
7164	-1.023	-0.141	-0.139	6.93	5.81	-8.19
7184	-0.994	-0.09	-0.119	4.69	6.58	-5.18
7204	-0.976	-0.192	-0.193	1.82	15.75	-5.74
7224	-0.942	-0.121	-0.203	2.8	8.61	-3.15
7243	-0.985	-0.123	-0.175	10.01	3.85	-1.82
7266	-0.933	-0.217	-0.185	5.32	6.65	5.67
7285	-0.995	-0.096	-0.227	14.28	2.24	9.59
7305	-1.026	-0.163	-0.222	14.14	1.82	8.05
7325	-0.98	-0.076	-0.203	19.6	14.49	10.15
7345	-1.004	-0.021	-0.233	6.23	9.1	6.58
7365	-0.952	-0.115	-0.153	6.16	-2.66	6.65
7390	-1.008	-0.095	-0.25	11.34	3.71	5.81
7409	-0.925	-0.038	-0.163	2.24	2.03	4.2
7428	-0.963	-0.126	-0.196	3.5	1.26	1.89
7448	-0.985	-0.092	-0.239	2.66	0.91	1.89
7473	-0.986	-0.065	-0.203	3.64	-0.63	-0.49
7493	-0.99	-0.069	-0.207	3.29	1.12	-0.77
7517	-0.996	-0.066	-0.197	1.89	-2.73	-1.26
7538	-0.98	-0.094	-0.218	8.75	-0.7	1.05
7557	-1.009	-0.033	-0.221	11.34	-4.41	-0.42
7576	-0.962	-0.097	-0.186	3.01	-5.53	-0.98
7595	-1.003	-0.081	-0.208	3.01	-5.53	-0.98
7614	-0.985	-0.082	-0.208	3.43	-4.69	0.21
7639	-1.004	-0.057	-0.223	1.61	-8.05	0.28
7654	-0.982	-0.077	-0.221	-0.91	-8.19	-0.49
7674	-1.038	-0.023	-0.194	-0.63	-12.74	-4.41
7699	-1.018	-0.043	-0.187	-16.31	-15.82	-8.05
7719	-0.963	-0.094	-0.186	-7.0	-8.33	-10.01
7739	-0.968	-0.067	-0.188	-5.74	-4.41	-11.97
7757	-0.98	-0.066	-0.192	-3.08	-2.66	-15.26
7777	-0.951	-0.011	-0.14	-6.16	6.16	-14.0
7801	-0.952	-0.152	-0.091	3.15	6.37	-15.33
7820	-1.011	-0.105	-0.223	-6.09	-10.01	-15.19
7840	-0.978	-0.171	-0.268	-5.32	-11.2	-14.42
7864	-0.956	-0.147	-0.213	-6.86	-16.03	-12.74
7884	-0.988	-0.122	-0.143	-6.3	-13.58	-9.52
7901	-0.959	-0.11	-0.181	-3.92	-10.64	-5.88
7925	-0.959	-0.174	-0.187	2.17	-11.55	-3.01
7944	-0.971	-0.131	-0.179	-3.22	-13.51	-0.07
7964	-0.99	-0.118	-0.156	-7.21	-16.87	-0.7
7983	-0.971	-0.127	-0.164	-10.08	-20.86	-0.56
8008	-0.987	-0.128	-0.144	-10.15	-22.19	-1.96
8024	-0.958	-0.136	-0.118	-8.96	-21.56	-1.19
8043	-1.013	-0.088	-0.117	-4.62	-19.04	-2.03
8068	-0.984	-0.098	-0.075	-6.93	-0.42	-3.99
8088	-0.994	-0.104	-0.113	-4.76	-11.2	-2.59
8106	-0.973	-0.08	-0.139	-15.61	-7.14	-3.08
8130	-0.993	-0.181	-0.148	-15.12	-17.57	-1.61
8145	-0.966	-0.131	-0.179	-8.19	-16.38	-1.4
8168	-1.013	-0.097	-0.142	-8.68	-24.99	-4.06
8188	-0.965	-0.097	-0.087	-10.22	-20.44	-5.74
8212	-1.027	-0.076	-0.133	-10.78	-16.94	-9.8
8232	-1.036	-0.122	-0.097	-15.96	-11.55	-10.78
8251	-0.967	-0.151	-0.124	-6.37	-9.59	-7.77
8276	-1.053	-0.047	-0.091	-3.78	-17.01	-9.8
8296	-0.967	-0.075	-0.067	4.62	-10.36	-8.82
8316	-0.921	-0.042	-0.012	-7.14	-2.73	-14.07
8334	-0.983	-0.162	-0.116	0.14	-1.33	-9.8
8358	-0.987	-0.177	-0.073	0.42	0.28	-3.99
8376	-1.016	-0.202	-0.057	-0.98	-8.61	-3.15
8398	-0.945	-0.134	-0.054	-0.28	-5.32	-0.35
8418	-1.032	-0.111	-0.061	-1.05	-3.92	-3.22
8438	-0.998	-0.148	-0.084	1.19	-4.06	-1.26
8456	-1.005	-0.137	-0.121	0.77	-3.08	0.84
8479	-1.0	-0.153	-0.097	2.24	-6.09	-1.75
8497	-1.014	-0.101	-0.09	1.82	-5.46	-1.26
8521	-1.002	-0.135	-0.063	-1.54	-7.14	0.49
8541	-0.959	-0.166	-0.083	-0.07	-3.08	1.26
8561	-0.982	-0.207	-0.068	8.61	-3.78	1.68
8581	-0.987	-0.13	-0.083	7.0	-1.4	1.68
8599	-0.994	-0.147	-0.088	-3.36	1.89	0.77
8621	-0.991	-0.143	-0.1	1.33	1.33	0.21
8636	-1.004	-0.153	-0.095	-7.84	2.17	-1.82
8659	-0.974	-0.087	-0.068	1.12	-7.0	-1.89
8681	-1.041	-0.059	-0.1	3.99	-6.37	-5.04
8701	-1.021	-0.155	-0.103	11.83	-5.25	-4.76
8719	-1.012	-0.081	-0.101	12.95	-5.95	-1.26
8739	-0.95	-0.1	-0.091	4.13	-7.14	-1.61
8758	-1.0	-0.12	-0.019	4.55	5.32	-1.26
8783	-1.007	-0.201	-0.082	11.55	14.98	-2.24
8801	-0.997	-0.19	-0.135	14.56	9.31	3.01
8824	-0.994	-0.174	-0.125	10.78	4.83	7.28
8843	-0.969	-0.165	-0.081	9.94	9.03	7.56
8865	-0.973	-0.129	-0.076	10.5	16.45	5.11
8888	-1.0	-0.14	-0.072	19.25	17.99	5.32
8909	-0.997	-0.121	-0.098	16.59	24.22	10.64
8928	-0.98	-0.129	-0.076	23.66	30.03	12.88
8948	-1.008	-0.041	-0.12	20.65	35.14	12.39
8973	-0.942	-0.09	-0.202	9.45	38.64	7.49
8993	-0.995	-0.199	-0.143	17.5	26.81	12.04
9010	-0.963	-0.215	-0.207	31.78	32.62	23.38
9032	-1.015	-0.138	-0.195	27.65	23.94	23.73
9056	-0.858	0.121	-0.154	19.88	28.98	16.03
9076	-0.988	-0.101	-0.185	4.83	33.81	3.01
9095	-0.985	-0.103	-0.275	8.33	31.15	3.99
9116	-0.964	-0.11	-0.242	7.98	25.48	7.84
9132	-0.972	-0.063	-0.26	7.49	23.94	6.37
9152	-0.946	-0.105	-0.27	9.73	22.75	3.85
9172	-0.944	-0.072	-0.277	16.52	18.41	2.94
9196	-0.961	-0.02	-0.257	13.65	16.59	-3.71
9216	-0.951	-0.067	-0.244	4.27	20.65	-5.88
9236	-0.984	-0.039	-0.284	1.68	18.06	-9.8
9256	-0.979	-0.125	-0.287	6.79	17.71	-10.5
9276	-0.979	-0.126	-0.313	11.06	11.55	-7.21
9294	-0.963	-0.062	-0.254	13.16	13.37	-6.44
9313	-0.95	-0.133	-0.294	13.86	13.58	-2.03
9338	-0.944	-0.124	-0.294	12.18	15.33	1.61
9358	-0.915	-0.107	-0.346	10.78	13.65	3.57
9378	-0.989	-0.131	-0.315	12.88	6.58	6.86
9396	-0.966	-0.122	-0.35	16.59	10.85	8.68
9418	-0.956	-0.088	-0.345	17.5	9.45	9.31
9442	-0.934	-0.065	-0.323	22.4	9.66	6.23
9462	-0.938	-0.076	-0.316	20.93	12.53	3.78
9481	-0.935	-0.092	-0.354	7.56	6.23	1.75
9501	-0.978	-0.057	-0.321	5.6	0.56	-1.89
9525	-0.956	-0.081	-0.348	4.06	-0.63	-5.25
9545	-0.934	-0.098	-0.347	4.48	-1.26	-6.65
9565	-0.971	-0.059	-0.323	-2.94	-5.32	-10.43
9585	-0.933	-0.1	-0.358	-6.09	-9.03	-11.27
9602	-0.947	-0.09	-0.335	-2.45	-10.36	-13.72
9621	-0.952	-0.074	-0.337	-0.35	-12.39	-16.03
9646	-0.948	-0.096	-0.307	-1.68	-16.52	-21.28
9665	-0.97	-0.099	-0.331	-2.52	-24.01	-19.53
9686	-0.923	-0.137	-0.27	-20.23	-31.01	-15.82
9705	-0.948	-0.13	-0.304	-27.09	-37.38	-14.63
9725	-0.964	-0.114	-0.312	-32.13	-30.8	-18.83
9749	-0.922	-0.165	-0.212	-62.51	-70.07	6.93
9768	-0.89	-0.271	-0.445	-9.03	15.89	-9.38
9788	-0.99	-0.144	-0.305	3.36	-26.39	-9.59
9809	-0.98	-0.096	-0.264	-17.85	-18.69	-12.67
9830	-0.933	-0.144	-0.265	-4.97	-16.66	-11.83
9850	-0.95	-0.151	-0.244	-2.73	-15.33	-10.01
9874	-0.962	-0.145	-0.237	0.7	-12.6	-7.0
9893	-0.936	-0.146	-0.248	1.82	-10.78	-5.25
9914	-0.965	-0.132	-0.249	-2.59	-12.25	-6.02
9933	-0.961	-0.142	-0.239	-13.51	-14.84	-6.79
9958	-0.975	-0.155	-0.26	-14.07	-21.49	-4.83
9977	-0.984	-0.138	-0.225	-11.41	-25.13	-2.45
9998	-0.978	-0.134	-0.213	-16.45	-23.1	0.28
10018	-0.97	-0.141	-0.24	-17.85	-21.49	4.48
10037	-0.99	-0.146	-0.219	-17.5	-28.21	4.41
10061	-0.917	-0.213	-0.236	-23.1	-22.19	5.81
10081	-1.025	-0.247	-0.141	14.7	-26.18	5.18
10099	-0.982	0.02	-0.211	-6.58	-22.68	3.71
10123	-0.996	-0.087	-0.184	-10.22	-19.88	-1.12
10143	-1.021	-0.149	-0.238	-5.81	-26.95	-0.35
10163	-1.021	-0.099	-0.132	1.26	-27.51	-1.4
10183	-0.988	-0.055	-0.151	-4.06	-12.11	-5.46
10203	-0.97	-0.078	-0.208	-5.6	-10.71	-7.84
10221	-0.957	-0.181	-0.192	11.69	-6.65	-4.83
10240	-1.036	-0.095	-0.126	2.38	-14.35	-5.74
10260	-0.959	-0.053	-0.122	7.63	-11.62	-5.6
10285	-0.947	-0.096	-0.11	-4.83	-13.3	-11.9
10305	-0.971	-0.135	-0.138	-10.99	-10.92	-13.65
10324	-0.999	-0.167	-0.146	-7.21	-13.58	-15.19
10345	-0.986	-0.164	-0.143	-1.19	-16.1	-11.48
10365	-0.987	-0.172	-0.075	-7.77	-10.5	-10.15
10388	-0.976	-0.19	-0.117	0.77	-11.83	-6.02
10408	-1.001	-0.145	-0.149	12.67	-8.75	-4.41
10432	-0.999	-0.12	-0.098	9.24	-13.51	-2.24
10450	-0.971	-0.138	-0.138	3.57	-9.31	0.0
10473	-1.021	-0.126	-0.124	-0.42	-12.25	-2.52
10491	-0.965	-0.149	-0.097	2.8	-9.94	-1.47
10511	-0.965	-0.164	-0.095	-4.2	-7.77	-9.38
10535	-0.995	-0.17	-0.091	7.63	-10.71	-6.09
10555	-0.967	-0.121	-0.054	1.89	-4.97	-2.59
10573	-0.978	-0.211	-0.09	-0.84	-1.12	-1.05
10595	-0.958	-0.181	-0.104	6.37	0.0	1.19
10619	-0.986	-0.146	-0.112	1.33	6.86	-0.49
10634	-1.015	-0.089	-0.132	-2.45	3.22	-1.05
10659	-1.003	-0.146	-0.119	-6.37	-1.82	-1.54
10679	-0.987	-0.168	-0.106	-7.28	0.28	-1.26
10698	-0.988	-0.138	-0.122	-3.99	0.0	-1.26
10722	-1.014	-0.155	-0.106	-1.82	-3.71	-0.7
10738	-0.976	-0.175	-0.121	-5.39	-2.38	1.4
10762	-0.987	-0.104	-0.105	-8.33	0.14	3.36
10782	-0.995	-0.119	-0.07	-4.41	0.28	1.47
10802	-0.976	-0.189	-0.136	-1.12	4.9	-0.42
10820	-1.006	-0.188	-0.142	5.67	0.91	0.7
10840	-0.986	-0.174	-0.136	3.85	3.22	2.59
10859	-0.97	-0.118	-0.105	0.63	2.45	4.34
10884	-0.946	-0.138	-0.102	-2.87	5.67	5.88
10904	-1.017	-0.2	-0.11	8.54	8.89	9.87
10923	-1.01	-0.161	-0.105	12.95	8.33	13.51
10944	-0.988	-0.096	-0.092	15.89	11.48	18.55
10968	-1.005	-0.049	-0.041	14.14	9.45	21.07
10983	-0.917	-0.146	-0.279	7.07	16.66	18.62
11008	-1.087	-0.111	-0.124	-1.26	1.82	10.57
11027	-0.97	-0.16	-0.064	-9.1	4.06	18.83
11046	-0.931	-0.106	-0.222	-4.06	20.93	26.46
11064	-0.968	-0.066	-0.237	-0.63	6.72	25.83
11083	-0.951	-0.074	-0.201	2.66	-4.2	10.43
11108	-0.992	-0.044	-0.176	2.94	2.17	5.6
11128	-1.052	0.045	-0.129	-4.76	-0.63	8.26
11147	-0.951	-0.063	-0.14	-7.63	10.01	9.17
11168	-1.002	-0.06	-0.192	2.03	6.79	8.82
11185	-0.986	-0.057	-0.182	7.0	4.13	7.0
11209	-0.959	-0.091	-0.223	5.53	3.15	3.08
11226	-0.987	-0.03	-0.16	4.55	-0.98	1.61
11245	-0.986	-0.067	-0.148	1.54	-0.21	0.84
11270	-0.958	-0.103	-0.169	4.34	8.33	4.41
11290	-1.021	-0.099	-0.205	12.95	5.81	7.49
11309	-0.964	-0.025	-0.215	13.37	2.17	9.1
11329	-1.002	0.006	-0.231	0.98	3.43	6.72
11350	-0.989	-0.067	-0.189	-0.42	-1.68	6.58
11370	-0.991	-0.038	-0.222	3.5	-2.1	2.94
11394	-0.99	0.003	-0.2	2.66	-5.18	-1.05
11414	-0.962	-0.044	-0.188	1.82	-2.87	-1.96
11433	-1.009	-0.044	-0.169	2.1	-3.29	-3.99
11457	-0.991	-0.016	-0.199	2.8	2.24	-5.32
11473	-0.991	-0.0	-0.211	2.03	0.42	-8.4
11496	-0.981	0.014	-0.214	-3.92	-0.28	-13.09
11516	-0.985	-0.032	-0.173	-4.69	1.19	-16.66
11540	-0.989	-0.054	-0.187	-0.21	6.51	-16.73
11560	-1.007	-0.052	-0.224	2.1	6.16	-17.78
11579	-0.997	-0.059	-0.244	2.94	2.03	-19.6
11602	-0.985	-0.093	-0.224	-0.7	-2.66	-20.16
11618	-0.991	-0.121	-0.228	0.21	-4.62	-19.11
11638	-0.983	-0.122	-0.214	4.06	-10.01	-19.11
11658	-0.969	-0.099	-0.179	4.27	-10.92	-17.64
11681	-0.973	-0.095	-0.179	1.96	-8.47	-15.61
11703	-0.976	-0.14	-0.183	-0.91	-8.96	-13.02
11725	-0.949	-0.142	-0.214	0.84	-7.7	-11.76
11746	-0.976	-0.104	-0.193	4.97	-11.48	-12.11
11770	-0.955	-0.135	-0.181	0.63	-11.76	-12.39
11790	-0.977	-0.134	-0.162	2.8	-11.9	-11.34
11809	-0.971	-0.126	-0.181	1.61	-11.76	-9.66
11833	-0.995	-0.106	-0.164	-2.59	-11.83	-9.17
11850	-0.964	-0.123	-0.18	-3.01	-9.66	-9.1
11872	-0.987	-0.128	-0.172	-5.95	-12.04	-10.01
11892	-0.971	-0.132	-0.177	-7.28	-10.29	-9.24
11916	-0.981	-0.134	-0.168	-9.24	-11.34	-10.15
11936	-0.984	-0.113	-0.158	-14.0	-12.46	-10.71
11956	-0.986	-0.147	-0.157	-12.46	-12.6	-9.59
11976	-0.99	-0.162	-0.154	-9.8	-9.73	-4.34
11996	-0.983	-0.182	-0.196	-4.48	-12.6	-2.87
12016	-0.979	-0.143	-0.151	-2.52	-13.09	-2.03
12036	-0.984	-0.175	-0.152	-6.09	-16.66	-0.98
12053	-0.956	-0.154	-0.169	-4.97	-12.53	0.42
12077	-0.997	-0.157	-0.144	-0.14	-13.58	2.8
12097	-1.003	-0.127	-0.147	1.05	-13.58	-0.07
12116	-0.962	-0.153	-0.183	4.34	-14.35	-1.96
12141	-1.005	-0.074	-0.059	6.16	-12.18	-2.8
12161	-1.005	-0.104	-0.122	5.67	-9.66	-7.21
12180	-1.057	-0.081	-0.116	9.03	-17.29	-8.75
12204	-1.0	-0.144	-0.127	3.99	-21.42	-9.59
12220	-0.969	-0.163	-0.106	5.25	-22.96	-5.88
12240	-0.939	-0.163	-0.097	-2.1	-19.39	-3.43
12263	-0.979	-0.196	-0.073	-2.52	-15.4	-2.31
12283	-1.007	-0.148	-0.061	1.4	-11.76	-0.14
12307	-0.959	-0.186	-0.071	-0.77	-8.12	0.84
12327	-0.963	-0.153	-0.053	5.39	-3.99	1.82
12342	-0.977	-0.131	-0.095	2.1	0.42	2.38
12367	-1.017	-0.183	-0.115	2.94	-4.69	4.06
12387	-0.986	-0.158	-0.106	0.14	-3.01	4.34
12407	-0.966	-0.164	-0.033	6.02	0.7	4.97
12425	-0.935	-0.141	-0.044	3.15	10.5	3.5
12444	-0.96	-0.261	-0.09	-11.06	24.15	-1.75
12468	-1.022	-0.047	-0.118	15.12	6.93	5.18
12488	-0.977	-0.047	-0.109	-2.73	9.94	7.0
12506	-1.032	-0.178	-0.247	-4.27	6.86	8.4
12526	-1.031	-0.168	-0.123	8.26	0.91	6.37
12549	-1.025	-0.023	-0.139	9.1	0.21	2.24
12568	-0.991	-0.09	-0.131	-5.04	-0.7	-2.1
12591	-0.989	-0.144	-0.133	-8.54	-2.87	-2.31
12611	-0.984	-0.114	-0.104	-3.15	-1.68	-2.24
12635	-0.993	-0.107	-0.1	-0.84	-0.28	-3.08
12655	-1.001	-0.156	-0.111	1.12	0.7	-1.61
12673	-0.98	-0.153	-0.13	2.87	0.42	0.28
12693	-0.99	-0.157	-0.118	2.31	1.47	1.61
12717	-1.0	-0.12	-0.112	3.85	4.83	2.59
12733	-0.999	-0.143	-0.12	5.46	7.42	3.78
12757	-0.973	-0.122	-0.117	9.66	8.12	3.08
12776	-0.993	-0.126	-0.138	10.57	10.78	2.17
12797	-0.994	-0.146	-0.132	14.49	10.5	5.53
12817	-0.981	-0.133	-0.126	13.16	16.03	7.91
12837	-0.982	-0.098	-0.111	10.5	19.67	8.19
12857	-0.949	-0.151	-0.181	20.44	24.92	9.1
12875	-1.017	-0.088	-0.144	13.72	20.44	8.19
12892	-0.955	-0.209	-0.129	11.2	29.82	11.34
12917	-1.032	-0.059	-0.211	17.64	17.99	14.7
12937	-0.947	-0.118	-0.181	8.47	25.41	15.26
12955	-0.998	-0.114	-0.212	12.04	17.57	12.81
12979	-0.964	-0.047	-0.177	9.1	18.76	14.7
12997	-0.917	0.018	-0.294	11.97	31.08	6.79
13017	-0.992	-0.051	-0.24	-1.47	15.19	-4.9
13041	-0.97	-0.096	-0.233	10.92	12.53	-4.9
13060	-0.949	-0.044	-0.222	0.63	14.0	-8.82
13078	-0.963	-0.105	-0.267	3.99	14.7	-8.61
13101	-0.975	-0.065	-0.252	15.26	6.58	-8.12
13121	-0.979	-0.035	-0.249	15.96	0.84	-12.53
13145	-0.963	-0.063	-0.258	10.15	0.7	-16.94
13165	-0.982	-0.11	-0.273	-9.1	-4.27	-17.29
13185	-0.973	-0.171	-0.256	-10.22	-3.01	-10.99
13208	-0.925	-0.14	-0.243	-7.07	-4.76	-3.85
13229	-0.978	-0.127	-0.259	5.25	-3.85	-1.75
13248	-0.966	-0.136	-0.228	-0.21	-3.29	-1.96
13269	-0.96	-0.121	-0.252	7.84	0.14	1.33
13289	-0.962	-0.122	-0.279	9.03	-1.82	3.29
13309	-0.971	-0.118	-0.231	11.69	-8.05	3.22
13333	-0.95	-0.117	-0.235	12.46	-2.1	1.19
13353	-0.967	-0.079	-0.228	6.72	-0.84	-1.96
13371	-1.032	-0.075	-0.216	6.16	-6.37	-3.92
13393	-0.945	-0.134	-0.264	3.08	-3.5	-4.06
13412	-1.105	-0.097	-0.253	1.89	-6.16	-3.08
13436	-0.901	-0.166	-0.22	-9.87	-18.83	-3.57
13452	-1.008	-0.013	-0.198	-23.17	-29.19	-1.47
13477	-0.951	-0.105	-0.231	-16.03	-13.51	-6.93
13496	-1.003	-0.088	-0.211	-7.56	-5.53	-9.1
13516	-0.962	-0.088	-0.253	-6.37	-3.01	-12.39
13540	-0.982	-0.081	-0.221	-6.72	-7.49	-16.8
13560	-0.967	-0.109	-0.216	-3.85	-4.83	-18.34
13580	-0.969	-0.137	-0.221	-1.89	-4.13	-18.9
13599	-0.976	-0.128	-0.226	2.1	-4.83	-20.51
13624	-0.969	-0.158	-0.2	3.99	-4.27	-21.0
13644	-0.954	-0.197	-0.207	-10.78	0.84	-17.92
13668	-0.932	-0.217	-0.281	-7.7	2.31	-11.55
13688	-0.978	-0.226	-0.253	7.56	-6.58	-9.66
13709	-0.927	-0.181	-0.2	4.13	-5.11	-8.4
13733	-0.938	-0.181	-0.228	-1.12	-3.22	-7.84
13751	-0.99	-0.194	-0.209	1.68	-9.87	-7.14
13773	-0.956	-0.158	-0.213	-1.47	-7.98	-5.11
13791	-0.971	-0.158	-0.183	-5.67	-8.61	-3.71
13810	-0.933	-0.173	-0.244	-10.5	-6.23	-1.4
13831	-0.996	-0.183	-0.237	-9.73	-9.94	-1.61
13855	-0.973	-0.136	-0.23	-12.6	-12.25	-1.89
13872	-1.006	-0.131	-0.19	-14.0	-18.2	-2.59
13891	-0.945	-0.175	-0.236	-10.57	-12.39	-1.89
13916	-0.964	-0.203	-0.198	-8.89	-0.98	0.28
13936	-1.022	-0.124	-0.227	-3.71	-23.45	0.42
13956	-0.947	-0.195	-0.184	-13.3	-22.68	0.7
13976	-0.979	-0.198	-0.183	-4.97	-18.55	5.53
13995	-0.983	-0.137	-0.241	-3.71	-16.1	3.64
14016	-0.983	-0.159	-0.148	5.32	-18.9	4.06
14036	-0.975	-0.122	-0.176	9.45	-12.67	5.25
14056	-1.013	-0.117	-0.173	-2.52	-16.52	2.45
14075	-1.002	-0.183	-0.127	-2.03	-16.1	2.94
14095	-0.96	-0.206	-0.208	4.48	-16.8	4.76
14115	-0.987	-0.138	-0.159	5.46	-19.39	2.94
14137	-0.985	-0.079	-0.067	-3.71	-27.02	0.07
14157	-1.013	-0.06	-0.119	-9.31	-17.5	-3.08
14177	-1.013	-0.191	-0.132	-15.05	-24.78	-5.6
14197	-0.928	-0.24	-0.126	-2.94	-21.91	-0.56
14216	-0.975	-0.12	-0.106	-0.28	-15.47	1.4
14241	-0.998	-0.114	-0.103	-8.12	-16.8	-1.05
14261	-0.976	-0.141	-0.1	-5.67	-16.1	-1.33
14281	-0.961	-0.138	-0.083	-2.24	-11.62	-0.21
14298	-0.995	-0.17	-0.049	-1.33	-13.51	-3.29
14321	-1.009	-0.124	-0.075	0.14	-6.23	-1.05
14342	-0.959	-0.146	-0.079	-5.67	-5.88	0.14
14361	-0.935	-0.19	-0.117	0.91	-1.75	0.7
14382	-0.998	-0.158	-0.12	3.92	-2.73	0.14
14402	-1.016	-0.101	-0.083	4.2	-4.9	0.56
14422	-0.994	-0.122	-0.088	-2.31	-3.64	-0.35
14438	-0.977	-0.152	-0.109	-0.77	-2.31	-0.42
14461	-0.971	-0.154	-0.09	0.0	-3.36	-0.42
14481	-1.0	-0.12	-0.072	0.84	-2.38	0.35
14505	-1.001	-0.119	-0.069	-2.24	0.14	-1.82
14524	-0.981	-0.132	-0.115	-1.33	1.75	-1.68
14543	-0.986	-0.136	-0.097	-1.68	-0.42	-3.08
14563	-0.991	-0.109	-0.095	-1.47	1.12	-4.27
14583	-0.988	-0.102	-0.101	-3.22	0.77	-6.58
14606	-0.99	-0.167	-0.123	-0.42	0.42	-8.19
14630	-1.006	-0.163	-0.112	0.14	-0.98	-9.52
14650	-0.998	-0.155	-0.098	2.45	-0.14	-9.8
14669	-0.954	-0.079	-0.045	1.4	1.75	-7.21
14693	-0.985	-0.156	-0.091	2.45	5.81	-5.88
14713	-0.987	-0.183	-0.043	-2.73	7.91	-1.12
14733	-0.945	-0.175	-0.126	-0.56	20.23	4.83
14750	-0.993	-0.152	-0.115	-2.31	13.86	5.67
14770	-0.956	-0.178	-0.086	-8.47	19.39	9.31
14793	-0.965	-0.174	-0.149	-2.66	22.89	12.39
14813	-1.032	-0.218	-0.138	-5.46	17.78	8.33
14833	-0.966	-0.133	-0.162	2.24	12.39	12.88
14854	-0.986	-0.114	-0.167	-1.54	12.11	10.22
14878	-0.984	-0.172	-0.157	1.68	3.99	9.73
14898	-0.947	-0.116	-0.215	12.6	14.7	6.51
14918	-0.956	-0.028	-0.151	1.61	5.32	3.29
14934	-0.994	-0.056	-0.192	-15.33	10.29	-2.59
14953	-0.997	-0.193	-0.138	-12.74	6.65	-2.03
14973	-0.978	-0.12	-0.288	10.15	15.4	3.01
14996	-0.977	-0.101	-0.204	9.73	-0.77	1.4
15018	-0.995	-0.061	-0.148	3.57	10.36	-0.84
15042	-0.957	-0.115	-0.161	4.62	11.69	-1.33
15057	-0.965	-0.144	-0.259	3.36	18.34	-3.36
15078	-1.028	-0.156	-0.178	13.02	6.09	-5.39
15099	-0.941	-0.131	-0.225	17.22	11.55	-0.63
15121	-0.982	-0.128	-0.239	13.58	7.35	-0.14
15145	-0.92	-0.093	-0.228	16.03	12.11	-1.82
15165	-0.993	-0.1	-0.181	14.77	8.12	-4.76
15185	-0.953	-0.105	-0.231	13.79	13.58	-3.43
15203	-1.012	-0.127	-0.242	16.59	9.73	-3.15
15220	-0.966	-0.159	-0.262	6.3	3.08	-1.75
15240	-0.998	-0.125	-0.269	6.58	3.5	1.05
15265	-0.921	-0.182	-0.25	0.7	0.35	6.02
15285	-0.959	-0.132	-0.313	4.69	-1.47	5.95
15302	-0.991	-0.11	-0.202	5.67	-9.73	3.57
15325	-0.96	-0.088	-0.229	0.07	-3.57	3.43
15345	-1.016	-0.079	-0.248	-1.61	-6.16	1.4
15365	-0.967	-0.074	-0.246	3.5	-1.89	-0.84
15389	-0.969	-0.081	-0.256	0.63	-2.66	-6.65
15409	-1.018	-0.071	-0.238	-1.82	-3.36	-9.8
15424	-0.964	-0.103	-0.26	17.5	-2.45	-10.64
15449	-1.0	-0.092	-0.228	-0.49	-3.64	-12.32
15468	-0.971	-0.138	-0.253	-6.37	-6.37	-12.25
15492	-0.947	-0.169	-0.248	-4.62	-3.22	-9.38
15511	-0.971	-0.19	-0.258	1.89	-7.63	-7.0
15532	-0.963	-0.181	-0.252	5.74	-11.83	-5.04
15556	-0.961	-0.165	-0.212	3.92	-13.37	-3.57
15574	-0.94	-0.134	-0.21	-1.96	-10.99	-2.73
15596	-0.976	-0.147	-0.214	-4.13	-11.06	-3.57
15616	-0.972	-0.154	-0.204	-1.05	-13.58	-3.36
15640	-0.952	-0.136	-0.199	-4.48	-10.92	-2.31
15660	-0.975	-0.148	-0.216	-4.76	-11.69	-2.24
15680	-0.966	-0.158	-0.22	-4.76	-11.2	-1.47
15698	-0.976	-0.141	-0.214	-8.33	-12.95	-1.4
15715	-0.967	-0.125	-0.2	-10.64	-14.49	-1.4
15735	-0.969	-0.137	-0.198	-12.74	-14.35	-1.47
15760	-0.981	-0.135	-0.192	-13.72	-17.22	-0.77
15780	-0.969	-0.12	-0.168	-11.9	-15.82	-0.56
15800	-0.973	-0.149	-0.183	-12.11	-15.89	0.28
15820	-0.979	-0.129	-0.197	-10.92	-14.77	1.05
15844	-0.977	-0.161	-0.163	-12.39	-14.63	2.1
15864	-0.972	-0.136	-0.214	-5.67	-12.81	5.25
15884	-0.998	-0.112	-0.183	-9.66	-17.08	5.39
15907	-0.967	-0.175	-0.184	-8.4	-18.62	7.21
15928	-0.976	-0.155	-0.217	-3.64	-17.71	7.56
15948	-0.953	-0.171	-0.206	-6.58	-21.84	4.06
15966	-1.143	0.035	0.041	14.42	-19.74	3.15
15990	-0.946	0.019	-0.138	-13.09	-10.71	-9.38
16009	-1.059	-0.049	-0.109	-8.75	-13.23	-10.36
16026	-0.95	-0.166	-0.181	-2.52	-8.54	-9.52
16050	-0.983	-0.139	-0.132	0.0	-4.69	-7.49
16069	-0.955	-0.106	-0.121	-6.79	-5.46	-7.21
16090	-0.974	-0.131	-0.158	-4.48	-3.22	-7.7
16110	-1.013	-0.177	-0.128	3.64	-7.7	-5.88
16134	-1.025	-0.171	-0.149	14.84	-18.13	-4.83
16154	-1.027	-0.071	-0.098	9.73	-26.18	-2.94
16172	-0.959	-0.075	-0.087	-3.36	-20.93	-2.31
16195	-0.993	-0.137	-0.084	-3.5	-13.72	-2.45
16214	-1.04	-0.158	-0.098	-2.73	-11.62	-0.28
16239	-0.976	-0.118	-0.107	1.75	-13.02	-0.49
16255	-0.972	-0.131	-0.095	0.42	-12.95	-0.63
16279	-0.967	-0.142	-0.088	-2.45	-8.26	-0.77
16298	-0.994	-0.139	-0.107	0.21	-7.56	-0.7
16314	-1.011	-0.105	-0.08	0.91	-9.31	-0.28
16339	-0.997	-0.141	-0.084	-3.85	-7.77	-0.07
16355	-0.988	-0.148	-0.093	-2.73	-8.89	1.68
16379	-0.978	-0.133	-0.042	-1.26	-5.32	3.15
16398	-0.991	-0.154	-0.068	-0.56	-1.05	2.87
16418	-1.0	-0.101	-0.092	4.48	-2.03	2.87
16438	-0.974	-0.061	-0.078	0.7	-1.05	2.17
16461	-1.017	-0.119	-0.098	-1.12	-2.66	1.68
16481	-0.978	-0.125	-0.071	-4.97	-2.03	2.38
16501	-0.99	-0.104	-0.089	-4.9	0.91	2.17
16520	-1.037	-0.116	-0.124	0.84	-1.89	-0.42
16545	-1.009	-0.106	-0.105	-0.63	-6.16	-1.26
16565	-0.991	-0.106	-0.099	-3.5	-4.97	-0.98
16585	-0.976	-0.091	-0.075	-2.59	-4.55	-0.91
16604	-0.981	-0.124	-0.084	-0.35	-2.45	-1.4
16628	-0.97	-0.139	-0.069	2.52	-0.49	-0.14
16648	-0.967	-0.166	-0.07	6.86	3.57	1.82
16663	-0.976	-0.148	-0.081	11.2	6.51	2.59
16688	-0.969	-0.131	-0.073	16.66	7.63	5.95
16707	-0.974	-0.12	-0.066	15.19	10.99	9.17
16731	-1.006	-0.12	-0.078	11.62	14.84	15.19
16751	-1.034	-0.135	-0.211	54.18	31.64	16.94
16771	-0.972	0.006	-0.115	27.3	22.68	15.75
16789	-1.03	-0.031	-0.17	13.93	29.47	10.85
16809	-0.964	-0.045	-0.141	-8.26	24.08	6.58
16829	-1.032	-0.088	-0.16	-7.98	14.91	3.5
16850	-1.113	-0.056	-0.174	-1.68	10.64	0.42
16873	-0.955	-0.101	-0.139	2.03	7.42	-1.54
16894	-1.017	-0.126	-0.171	-0.07	3.64	1.05
16918	-0.995	-0.058	-0.151	0.21	6.86	1.19
16934	-0.976	-0.074	-0.115	9.38	12.25	0.07
16954	-0.985	-0.018	-0.214	9.31	11.83	-1.96
16978	-0.987	-0.152	-0.166	13.86	8.4	1.26
16996	-0.986	0.001	-0.228	9.94	5.88	-3.22
17017	-0.999	-0.095	-0.174	4.48	3.92	-6.93
17041	-0.983	-0.084	-0.181	2.31	3.64	-7.56
17056	-0.988	-0.098	-0.186	6.86	3.71	-5.88
17080	-0.997	-0.12	-0.182	9.73	1.82	-2.8
17101	-0.987	-0.064	-0.177	11.97	0.91	-3.29
17121	-0.964	-0.061	-0.201	7.63	-0.98	-5.67
17144	-0.992	-0.062	-0.18	2.45	-8.47	-9.8
17164	-0.952	-0.173	-0.163	-6.65	3.57	-8.26
17183	-0.971	-0.178	-0.159	9.17	12.74	0.98
17208	-1.033	-0.093	-0.188	14.35	4.83	9.66
17227	-0.964	-0.097	-0.203	20.3	9.59	12.11
17246	-0.955	-0.036	-0.246	16.17	7.98	7.98
17270	-0.991	-0.068	-0.235	2.8	1.68	2.1
17290	-0.978	-0.076	-0.191	6.3	1.19	3.92
17307	-0.984	-0.129	-0.214	14.21	4.76	6.58
17329	-0.986	-0.07	-0.223	17.92	1.05	6.02
17353	-0.966	-0.054	-0.2	14.7	-1.47	2.17
17373	-0.986	-0.036	-0.224	7.21	1.19	-1.82
17393	-1.004	-0.049	-0.203	4.27	-0.35	-6.3
17408	-0.972	-0.063	-0.2	2.24	3.78	-7.35
17430	-0.97	-0.078	-0.224	2.31	3.92	-9.87
17449	-0.982	-0.094	-0.22	1.68	0.28	-13.02
17473	-0.991	-0.062	-0.209	-1.4	-3.5	-13.86
17493	-0.975	-0.103	-0.217	-0.91	-1.89	-12.39
17513	-0.997	-0.068	-0.201	-10.85	-9.38	-10.92
17532	-0.895	-0.166	-0.245	-3.15	-7.91	-11.06
17552	-0.908	-0.169	-0.258	-14.42	-22.82	-11.97
17575	-1.058	-0.024	-0.122	-30.73	-29.12	-5.6
17594	-0.88	-0.174	-0.249	-14.35	1.61	-9.94
17618	-1.031	-0.076	-0.209	-5.25	-6.23	-14.84
17638	-0.958	-0.124	-0.197	-6.3	-2.59	-15.12
17662	-0.986	-0.153	-0.214	-2.45	-4.55	-15.54
17683	-0.956	-0.136	-0.215	2.73	-4.41	-15.96
17704	-0.979	-0.111	-0.186	3.99	-7.14	-18.06
17728	-0.972	-0.124	-0.181	-2.03	-4.06	-17.85
17747	-0.967	-0.146	-0.204	-2.66	-2.03	-15.75
17768	-0.982	-0.16	-0.213	-0.07	-4.9	-11.9
17788	-0.966	-0.166	-0.226	-1.12	-3.08	-8.12
17804	-0.976	-0.154	-0.228	-0.91	-6.65	-5.88
17825	-0.963	-0.159	-0.214	-1.61	-9.1	-3.15
17849	-0.978	-0.136	-0.203	-6.79	-13.58	-2.38
17873	-0.972	-0.146	-0.194	-11.06	-15.12	-3.22
17892	-0.973	-0.146	-0.194	-6.51	-15.4	-3.43
17913	-0.967	-0.15	-0.172	-2.66	-12.74	-3.78
17932	-0.957	-0.174	-0.151	-5.11	-9.24	-4.27
17952	-0.999	-0.095	-0.22	3.5	-10.64	-3.57
17973	-0.976	-0.16	-0.201	2.8	-17.99	-3.29
17992	-1.007	-0.13	-0.188	-3.15	-21.63	-2.17
18013	-0.987	-0.144	-0.161	-13.58	-21.49	-2.03
18037	-0.988	-0.18	-0.158	-18.34	-21.07	0.77
18058	-0.969	-0.162	-0.173	-7.0	-15.68	2.31
18079	-1.008	-0.075	-0.103	-12.32	-24.15	-1.75
18099	-0.962	-0.142	-0.089	-17.57	-10.71	-2.8
18122	-0.98	-0.136	-0.144	-10.85	-10.08	-2.24
18143	-0.979	-0.183	-0.125	-1.68	-9.45	-0.77
18167	-0.969	-0.188	-0.179	1.96	-11.69	3.92
18182	-0.988	-0.196	-0.153	1.54	-11.27	6.58
18207	-0.993	-0.111	-0.14	-1.75	-15.26	6.65
18227	-0.976	-0.09	-0.133	-8.4	-10.57	2.24
18246	-1.026	-0.07	-0.09	-5.53	-11.83	1.96
18265	-0.962	-0.137	-0.128	0.91	-6.09	0.7
18289	-0.974	-0.172	-0.152	7.42	-7.91	2.1
18308	-0.984	-0.141	-0.113	6.23	-5.6	3.78
18329	-1.007	-0.087	-0.102	5.04	-5.53	3.22
18349	-1.001	-0.172	-0.082	3.64	-11.2	0.7
18364	-0.967	-0.192	-0.059	6.02	-9.87	3.71
18389	-0.923	-0.152	-0.036	6.02	-1.82	6.51
18404	-0.932	-0.098	-0.078	5.25	9.38	5.67
18429	-1.043	-0.086	-0.14	-0.14	22.54	-6.58
18448	-1.078	-0.058	-0.122	8.54	-3.99	-1.05
18469	-1.004	-0.043	-0.141	0.35	-3.99	-4.06
18489	-0.966	-0.058	-0.111	-10.71	-2.87	-5.25
18509	-0.971	-0.243	-0.083	-11.27	1.33	-5.11
18528	-1.002	-0.114	-0.145	-0.56	2.94	-2.73
18548	-0.996	-0.09	-0.127	-4.41	-0.56	-3.08
18568	-0.996	-0.123	-0.14	-4.27	-3.5	-3.36
18592	-0.984	-0.166	-0.13	-1.75	-3.92	0.84
18612	-1.002	-0.122	-0.121	3.36	-3.71	1.61
18632	-0.995	-0.132	-0.11	2.52	-1.96	-0.98
18651	-0.985	-0.105	-0.139	-0.98	-3.71	-3.43
18669	-0.988	-0.107	-0.14	-3.92	-5.39	-4.76
18693	-0.998	-0.113	-0.131	-7.84	-7.56	-7.14
18713	-0.983	-0.138	-0.12	-8.12	-6.02	-6.79
18733	-0.993	-0.125	-0.113	-4.27	-4.41	-5.74
18751	-0.981	-0.1	-0.094	-3.15	-2.59	-7.35
18775	-0.985	-0.15	-0.111	0.42	0.98	-9.31
18795	-0.974	-0.191	-0.106	8.75	2.66	-6.3
18815	-0.979	-0.174	-0.095	14.14	8.82	-3.08
18834	-0.964	-0.097	-0.095	12.6	17.36	-2.24
18853	-0.958	-0.147	-0.115	9.38	27.23	-4.55
18877	-1.008	-0.127	-0.148	9.17	25.27	-5.39
18898	-0.961	-0.135	-0.164	14.63	30.1	-5.04
18918	-0.982	-0.188	-0.149	7.42	25.69	-3.29
18938	-0.988	-0.138	-0.226	12.39	19.32	-0.7
18958	-0.953	-0.201	-0.191	9.66	18.55	3.43
18977	-0.996	-0.124	-0.205	5.6	13.09	2.24
18996	-0.966	-0.156	-0.191	16.66	15.68	2.87
19020	-0.95	-0.067	-0.279	9.52	10.85	-5.6
19040	-0.972	-0.136	-0.196	10.85	1.47	-6.02
19059	-0.999	-0.15	-0.219	3.64	-0.14	-7.0
19079	-0.966	-0.103	-0.201	0.49	-0.07	-6.65
19103	-0.985	-0.128	-0.194	-5.74	-1.54	-8.61
19121	-0.95	-0.118	-0.233	-6.72	2.59	-8.68
19139	-0.99	-0.206	-0.24	-5.04	-0.91	-7.28
19163	-0.958	-0.213	-0.188	6.37	-2.24	-0.49
19183	-0.962	-0.176	-0.241	7.77	-1.82	2.73
19203	-0.958	-0.123	-0.22	3.85	-2.73	0.84
19223	-0.956	-0.187	-0.192	6.44	-4.06	0.63
19242	-0.967	-0.201	-0.188	11.69	-2.03	3.64
19266	-0.994	-0.168	-0.208	18.62	-3.15	7.56
19283	-0.959	-0.128	-0.177	16.8	-0.98	5.88
19307	-0.957	-0.147	-0.198	15.05	8.33	5.11
19326	-0.972	-0.174	-0.212	12.46	4.2	6.44
19347	-0.963	-0.219	-0.223	15.47	5.74	12.32
19367	-0.994	-0.116	-0.222	9.87	2.03	10.5
19382	-0.989	-0.085	-0.206	-16.1	2.38	5.81
19402	-0.953	-0.152	-0.237	-5.04	1.75	7.63
19427	-0.958	-0.117	-0.243	4.41	-0.91	5.53
19447	-0.977	-0.103	-0.231	4.27	-5.74	2.1
19467	-0.961	-0.097	-0.212	2.73	-6.58	-1.61
19483	-0.994	-0.085	-0.209	4.55	-6.86	-4.41
19502	-0.974	-0.143	-0.202	-0.7	-3.71	-5.88
19522	-0.961	-0.143	-0.212	-9.38	-3.92	-5.88
19542	-0.961	-0.165	-0.215	-1.12	-3.57	-2.87
19567	-0.958	-0.155	-0.231	0.7	-3.22	-1.75
19587	-0.979	-0.124	-0.214	3.99	-8.75	-2.52
19606	-0.971	-0.124	-0.181	4.27	-7.7	-4.34
19629	-0.978	-0.091	-0.197	7.28	-3.29	-5.18
19648	-0.99	-0.106	-0.209	2.31	-9.87	-5.39
19667	-0.957	-0.163	-0.235	-7.28	-17.43	-8.54
19690	-1.04	-0.07	-0.174	-27.09	-29.33	-8.75
19713	-0.933	-0.187	-0.227	-11.06	-5.11	-9.1
19737	-0.983	-0.129	-0.21	-5.04	-9.52	-10.15
19752	-0.964	-0.152	-0.208	-16.87	-6.65	-15.4
19772	-0.959	-0.178	-0.185	-5.81	-5.6	-14.21
19793	-0.968	-0.159	-0.191	-3.08	-4.9	-13.58
19817	-0.969	-0.164	-0.187	0.91	-6.44	-12.11
19837	-0.974	-0.181	-0.196	2.38	-5.74	-10.78
19857	-0.964	-0.195	-0.191	3.29	-7.98	-8.75
19879	-0.988	-0.186	-0.191	1.82	-8.12	-5.6
19898	-0.96	-0.181	-0.213	0.28	-7.84	-2.24
19922	-0.992	-0.163	-0.205	-2.31	-15.12	-1.12
19942	-0.968	-0.163	-0.184	-7.91	-15.96	-0.21
19961	-0.969	-0.195	-0.166	-7.0	-16.1	0.98
19985	-0.98	-0.183	-0.17	-4.41	-14.42	2.31
20000	-0.971	-0.137	-0.17	-1.61	-12.39	2.31
20020	-0.993	-0.098	-0.149	-6.86	-15.96	-1.47
20045	-0.973	-0.165	-0.16	-12.53	-11.27	-4.69
20065	-0.978	-0.197	-0.151	-7.63	-10.36	-3.08
20085	-1.007	-0.165	-0.169	-3.36	-12.39	-2.24
20102	-0.949	-0.191	-0.17	-2.66	-12.95	-0.56
20126	-1.015	-0.153	-0.154	-1.4	-13.16	1.26
20142	-0.968	-0.138	-0.141	-4.83	-14.7	1.26
20162	-0.972	-0.17	-0.14	-5.04	-9.73	1.47
20184	-0.99	-0.176	-0.15	-3.64	-11.9	2.38
20203	-0.984	-0.145	-0.138	-0.7	-13.09	2.59
20228	-1.011	-0.09	-0.105	-5.88	-15.4	0.21
20248	-0.992	-0.187	-0.152	-9.1	-11.97	-1.82
20268	-0.966	-0.219	-0.197	0.0	-11.2	1.54
20288	-0.972	-0.174	-0.098	5.88	-11.41	4.34
20308	-1.005	-0.106	-0.109	-4.06	-12.39	1.82
20332	-1.014	-0.096	-0.106	-3.99	-14.07	1.4
20349	-1.009	-0.128	-0.101	-6.44	-17.01	-2.03
20373	-0.976	-0.19	-0.112	0.14	-13.79	-0.63
20393	-1.0	-0.13	-0.095	5.25	-11.97	1.05
20413	-0.978	-0.089	-0.079	-0.91	-9.87	0.56
20429	-0.977	-0.147	-0.096	-5.25	-9.24	0.63
20449	-0.978	-0.199	-0.07	6.72	-5.67	1.68
20473	-0.987	-0.1	-0.062	7.84	-2.94	-1.26
20495	-1.015	-0.077	-0.115	3.57	-6.37	-5.11
20514	-0.997	-0.117	-0.1	-1.33	-7.07	-5.25
20538	-0.979	-0.129	-0.06	-4.2	-7.7	-5.53
20556	-0.931	-0.193	-0.072	-10.29	0.77	-5.32
20576	-0.995	-0.204	-0.076	-5.32	-1.61	-1.82
20596	-0.988	-0.188	-0.091	-0.14	3.15	1.05
20620	-1.041	-0.146	-0.122	0.0	-2.59	0.98
20636	-0.976	-0.102	-0.075	-0.49	-4.2	1.61
20658	-1.001	-0.163	-0.114	-1.05	-1.75	0.28
20681	-0.998	-0.131	-0.096	0.14	-4.69	1.26
20702	-0.976	-0.149	-0.085	-2.66	-2.17	1.47
20720	-0.972	-0.142	-0.081	-3.43	1.47	1.33
20739	-0.996	-0.153	-0.085	-1.05	1.05	1.12
20758	-1.124	-0.161	-0.1	1.54	1.19	1.68
20782	-0.974	-0.127	-0.097	1.61	0.63	1.75
20801	-0.992	-0.111	-0.108	-1.68	1.4	1.68
20824	-1.04	-0.159	-0.109	-5.53	-3.5	0.7
20844	-0.967	-0.172	-0.073	-3.15	-0.07	3.01
20868	-0.992	-0.135	-0.074	-0.28	-1.19	3.29
20888	-0.965	-0.195	-0.106	2.8	3.15	4.27
20908	-0.996	-0.177	-0.039	0.84	-7.0	6.58
20928	-1.102	-0.069	-0.135	36.12	-2.52	5.25
20948	-0.989	-0.091	-0.091	29.12	13.23	7.28
20971	-1.008	-0.049	-0.097	16.31	17.99	4.76
20992	-1.009	-0.048	-0.132	11.9	17.57	-0.35
21012	-0.991	-0.052	-0.103	-8.4	18.55	-5.46
21032	-1.033	-0.113	-0.184	4.2	8.61	-4.97
21051	-0.973	-0.122	-0.126	3.01	7.35	-6.23
21076	-1.001	-0.15	-0.106	5.32	7.35	-4.48
21094	-0.969	-0.111	-0.168	10.01	11.34	-2.31
21116	-0.981	-0.15	-0.15	10.36	10.15	-0.63
21136	-0.984	-0.099	-0.142	9.66	9.8	-0.42
21156	-1.023	-0.057	-0.126	4.2	7.98	-5.32
21175	-0.966	-0.116	-0.148	-0.91	15.96	-5.81
21199	-0.989	-0.166	-0.169	1.19	10.29	-6.09
21219	-0.951	-0.159	-0.22	0.77	12.95	-5.11
21239	-0.982	-0.128	-0.12	7.84	6.93	-5.11
21263	-1.008	-0.063	-0.147	7.63	13.86	-6.58
21283	-0.988	-0.108	-0.171	3.36	12.88	-11.27
21303	-0.996	-0.171	-0.214	2.73	14.56	-11.76
21323	-0.968	-0.186	-0.211	3.71	14.21	-5.6
21340	-0.953	-0.187	-0.183	8.26	12.81	0.14
21359	-0.95	-0.18	-0.245	7.98	17.78	3.57
21379	-0.997	-0.17	-0.227	12.6	7.91	7.07
21402	-0.997	-0.055	-0.23	1.12	5.39	2.31
21426	-0.962	-0.14	-0.218	-18.13	6.86	-0.28
21445	-0.997	-0.216	-0.248	-4.97	2.45	9.94
21464	-0.976	-0.23	-0.228	5.81	-0.63	18.55
21488	-0.952	-0.125	-0.276	15.96	-4.83	22.33
21508	-0.942	-0.087	-0.257	13.93	-4.55	21.07
21526	-0.986	-0.073	-0.247	2.38	-9.66	14.07
21548	-0.965	-0.103	-0.251	3.29	-6.44	10.01
21568	-0.981	-0.067	-0.188	-7.28	-11.34	7.14
21592	-1.001	-0.057	-0.188	-5.39	-4.97	3.92
21610	-0.999	-0.069	-0.239	-1.05	-6.23	1.54
21628	-0.981	-0.102	-0.214	-4.41	-3.78	-2.31
21648	-0.969	-0.129	-0.212	-2.59	-3.99	-2.8
21668	-0.968	-0.116	-0.224	0.63	-3.85	-3.92
21689	-0.974	-0.104	-0.223	1.26	-5.32	-3.71
21709	-0.96	-0.131	-0.206	2.38	-6.72	-3.71
21731	-0.979	-0.06	-0.213	5.67	-7.77	-4.83
21754	-0.978	-0.076	-0.22	-2.94	-5.67	-10.43
21774	-0.981	-0.073	-0.212	-8.75	-5.88	-12.81
21793	-0.984	-0.132	-0.201	-10.99	-4.34	-12.95
21812	-0.976	-0.119	-0.226	-8.4	-7.77	-10.01
21837	-0.982	-0.088	-0.231	-9.03	-10.57	-11.34
21854	-0.979	-0.134	-0.21	-9.73	-12.53	-11.9
21875	-0.959	-0.157	-0.182	-5.53	-9.03	-10.01
21898	-0.97	-0.152	-0.209	-3.01	-7.98	-8.4
21919	-0.96	-0.155	-0.193	-1.96	-9.87	-7.91
21937	-0.976	-0.167	-0.181	-5.39	-8.68	-7.35
21961	-0.982	-0.118	-0.194	-1.54	-8.33	-4.27
21976	-0.976	-0.156	-0.205	-3.15	-8.75	-1.75
21996	-0.983	-0.149	-0.197	-4.55	-11.76	0.42
22016	-1.003	-0.079	-0.23	-3.22	-13.51	1.96
22041	-0.985	-0.128	-0.164	-9.73	-15.47	2.1
22061	-0.989	-0.093	-0.183	-7.56	-14.0	1.75
22081	-0.992	-0.089	-0.17	-12.81	-14.0	0.14
22096	-0.985	-0.069	-0.162	-14.63	-15.05	-2.1
22121	-0.977	-0.118	-0.176	-15.33	-13.65	-6.16
22144	-0.99	-0.132	-0.171	-18.76	-17.85	-5.39
22165	-0.959	-0.183	-0.162	-13.72	-14.7	1.12
22184	-1.002	-0.122	-0.183	0.56	-24.29	5.95
22203	-0.984	-0.064	-0.174	-13.23	-25.9	4.27
22226	-0.973	-0.16	-0.132	-14.77	-23.38	4.62
22242	-0.989	-0.114	-0.165	-12.18	-23.73	6.51
22267	-0.998	-0.097	-0.151	-19.6	-25.97	4.69
22287	-0.984	-0.105	-0.089	-15.82	-21.98	3.08
22307	-0.99	-0.076	-0.119	-19.25	-21.35	-0.63
22326	-0.98	-0.105	-0.1	-21.77	-17.64	-1.75
22342	-0.988	-0.099	-0.103	-13.79	-15.89	-0.77
22367	-0.969	-0.137	-0.099	-8.05	-12.32	-1.75
22387	-1.015	-0.1	-0.076	-5.67	-11.13	-1.54
22407	-1.0	-0.094	-0.111	-2.87	-7.91	-1.05
22431	-0.995	-0.077	-0.1	-4.97	-10.01	-2.38
22450	-0.994	-0.114	-0.083	-4.69	-7.63	-2.66
22471	-0.999	-0.081	-0.081	-1.89	-3.36	-2.31
22491	-0.984	-0.095	-0.105	-4.13	-1.96	-1.68
22511	-1.017	-0.066	-0.068	-6.93	-5.88	-0.49
22531	-0.964	-0.12	-0.039	-11.62	1.47	0.84
22550	-0.959	-0.162	-0.094	10.29	8.4	4.41
22570	-0.996	-0.126	-0.093	9.94	2.03	3.57
22594	-0.984	-0.065	-0.127	-2.8	8.61	1.33
22613	-1.023	-0.045	-0.124	-4.41	1.68	-1.19
22637	-0.989	-0.061	-0.122	-5.04	0.35	-4.9
22657	-1.0	-0.103	-0.103	-1.61	-2.24	-3.36
22677	-1.006	-0.04	-0.132	-8.89	-4.41	-3.57
22697	-1.008	0.0	-0.096	-11.13	-7.7	-8.12
22716	-0.977	-0.247	-0.062	-10.85	-0.84	-7.7
22735	-0.927	-0.227	-0.085	-15.61	6.23	-7.63
22760	-0.995	-0.081	-0.169	21.07	5.88	0.77
22777	-1.002	-0.114	-0.137	15.47	3.36	2.94
22796	-0.985	-0.091	-0.118	8.4	2.8	6.23
22817	-0.978	-0.066	-0.13	9.24	2.8	6.02
22838	-1.014	-0.029	-0.143	2.52	0.7	2.59
22859	-1.001	-0.115	-0.12	-6.09	-1.68	0.42
22881	-1.005	-0.082	-0.115	-10.43	-2.66	-0.07
22905	-0.984	-0.035	-0.152	-10.36	-7.42	-1.4
22925	-0.991	-0.098	-0.003	-8.19	-7.98	-3.29
22945	-0.996	-0.109	-0.114	-5.53	-6.16	2.59
22961	-0.993	-0.201	-0.08	-11.34	-8.82	8.82
22981	-1.036	-0.201	-0.013	6.3	5.32	20.93
23004	-0.923	-0.134	-0.054	4.27	17.15	28.14
23025	-1.031	0.034	-0.213	8.26	8.4	28.07
23041	-0.993	-0.066	-0.175	-0.07	0.0	21.0
23065	-1.01	0.022	-0.204	-1.96	-11.41	18.2
23082	-1.024	-0.109	-0.143	4.97	-10.43	13.79
23105	-0.998	0.033	-0.145	-4.9	0.21	14.77
23129	-0.992	-0.024	-0.114	-1.26	1.61	7.84
23149	-0.994	-0.015	-0.144	0.63	0.07	6.09
23169	-1.005	0.004	-0.146	0.49	0.77	4.2
23188	-0.998	0.033	-0.155	-7.84	-2.24	1.54
23209	-1.018	0.017	-0.126	-5.53	-1.54	-0.35
23232	-0.981	-0.053	-0.061	-11.27	3.85	-2.24
23251	-1.027	-0.004	-0.159	8.26	6.86	-2.52
23271	-0.996	-0.048	-0.151	1.05	2.94	-4.2
23296	-1.014	-0.047	-0.153	10.01	0.35	1.68
23315	-0.958	-0.08	-0.128	0.63	4.83	4.97
23339	-0.978	-0.043	-0.146	7.56	8.12	13.23
23363	-0.985	-0.072	-0.111	9.66	11.06	22.82
23381	-1.024	0.035	-0.147	11.41	10.85	26.25
23405	-0.995	0.009	-0.166	7.14	11.2	26.88
23423	-0.972	0.106	-0.203	6.93	8.89	20.3
23441	-0.982	0.098	-0.145	-4.34	7.42	10.15
23460	-0.963	0.019	-0.12	-12.39	9.38	2.59
23485	-0.962	-0.073	-0.191	17.36	12.88	7.84
23502	-1.004	0.061	-0.231	2.31	1.68	7.28
23526	-1.026	0.12	-0.188	-4.41	-4.48	-0.35
23546	-1.03	0.053	-0.183	-4.34	-3.57	-2.38
23565	-1.002	0.019	-0.173	-2.24	1.26	1.96
23584	-0.984	0.037	-0.254	6.3	-2.17	-6.93
23606	-1.012	0.005	-0.177	-6.09	-7.77	-7.14
23626	-1.011	0.027	-0.181	1.05	-5.6	-3.92
23650	-0.962	0.001	-0.174	-3.78	-2.03	-5.32
23670	-1.019	0.135	-0.239	-15.05	-9.1	-11.83
23690	-1.086	-0.102	-0.116	-3.92	-27.23	-14.84
23705	-1.004	0.147	-0.265	27.86	-17.15	-34.44
23730	-1.006	-0.153	-0.125	1.89	0.0	-15.4
23749	-0.896	0.093	-0.217	-17.36	-10.43	3.92
23770	-0.963	-0.005	-0.12	-19.95	-4.62	10.78
23788	-1.036	-0.07	-0.141	8.75	-0.77	16.24
23808	-0.928	0.209	-0.199	3.99	-9.87	-5.6
23832	-1.02	0.025	-0.163	-5.46	-12.6	-10.43
23852	-0.963	-0.01	-0.135	-7.63	-9.38	-9.73
23872	-0.999	0.0	-0.162	-0.98	-11.34	-7.28
23895	-0.982	0.061	-0.148	-9.03	-12.6	-11.41
23919	-1.011	0.03	-0.15	-8.61	-10.85	-14.63
23939	-0.997	0.024	-0.163	-16.24	-10.36	-12.11
23956	-1.007	0.004	-0.151	-12.81	-18.48	-12.18
23980	-0.996	-0.012	-0.13	-10.71	-15.96	-12.81
23999	-1.001	-0.006	-0.135	-12.81	-19.6	-12.6
24019	-1.02	-0.035	-0.111	-2.52	-19.32	-12.39
24039	-0.972	0.021	-0.151	-15.61	-20.02	-13.3
24059	-1.004	-0.043	-0.111	-4.41	-19.53	-15.75
24083	-0.989	-0.048	-0.088	-6.37	-24.71	-18.69
24100	-0.923	-0.047	-0.128	-2.59	-11.27	-4.69
24124	-0.989	-0.086	-0.089	-0.91	-16.38	-10.92
24143	-0.983	-0.085	-0.09	9.66	-6.86	-9.03
24163	-1.005	0.041	-0.109	2.52	-16.31	-10.08
24182	-0.986	-0.035	-0.053	-3.43	-7.84	-13.3
24205	-0.996	-0.032	-0.081	-0.91	-6.23	-11.41
24229	-1.005	-0.057	-0.083	1.54	-2.8	-10.22
24248	-1.009	-0.033	-0.098	0.56	-5.11	-10.92
24266	-1.005	-0.062	-0.086	-0.98	-3.43	-10.22
24290	-1.031	-0.043	-0.093	1.12	-4.06	-7.14
24310	-0.972	-0.137	-0.061	4.34	-0.56	-2.94
24330	-1.003	-0.085	-0.092	12.11	-1.4	-0.77
24349	-1.0	-0.094	-0.078	10.64	-0.56	0.28
24370	-1.01	-0.035	-0.098	10.71	-1.47	0.77
24389	-1.021	-0.016	-0.102	7.7	-1.47	-0.28
24407	-0.979	-0.044	-0.084	0.28	-1.19	0.49
24426	-0.99	-0.095	-0.059	5.74	1.26	3.08
24451	-0.994	-0.06	-0.069	2.03	2.38	4.76
24470	-0.983	-0.04	-0.065	7.63	7.49	6.16
24489	-0.996	-0.003	-0.084	1.05	6.3	2.94
24513	-0.999	-0.035	-0.077	4.13	7.91	-2.03
24533	-0.998	-0.015	-0.097	-5.6	6.51	-3.29
24557	-0.998	-0.062	-0.112	2.94	10.22	-1.82
24572	-0.985	-0.061	-0.113	-0.56	7.77	-0.98
24597	-0.963	-0.153	-0.086	-0.91	12.32	0.63
24617	-1.027	-0.036	-0.141	12.04	8.96	3.92
24637	-0.997	-0.094	-0.094	12.74	13.51	8.26
24657	-0.999	-0.044	-0.133	20.51	15.75	12.67
24677	-0.989	-0.01	-0.142	25.48	16.45	13.37
24695	-0.997	0.041	-0.178	20.93	14.91	11.41
24715	-0.995	0.02	-0.152	11.27	7.49	4.13
24739	-1.014	-0.059	-0.111	17.92	7.35	5.32
24759	-0.988	-0.019	-0.142	16.87	10.15	6.58
24779	-1.002	0.007	-0.169	11.97	9.73	5.18
24797	-0.983	-0.006	-0.168	12.39	9.66	2.38
24819	-0.998	0.012	-0.204	7.7	4.27	-1.33
24836	-0.997	-0.017	-0.191	4.27	-0.7	-3.29
24860	-0.999	-0.008	-0.183	-11.55	-2.87	-7.42
24879	-0.992	-0.114	-0.161	-33.25	-1.75	-13.58
24898	-0.969	-0.031	-0.21	-19.39	-7.7	-6.02
24918	-1.01	-0.021	-0.185	-3.92	-8.54	-2.52
24942	-0.976	-0.041	-0.163	0.07	-7.07	0.63
24958	-1.01	-0.017	-0.163	2.45	-6.02	5.74
24979	-0.974	-0.003	-0.143	-2.45	-2.24	-0.49
25002	-0.972	-0.015	-0.148	1.89	-3.99	-2.03
25021	-0.991	-0.003	-0.171	-4.55	-7.35	-4.2
25043	-0.992	-0.059	-0.173	-2.31	-9.1	-3.92
25067	-1.005	-0.034	-0.176	-7.7	-14.77	-2.45
25084	-0.997	-0.023	-0.161	-7.49	-18.06	-1.05
25108	-0.982	-0.052	-0.144	-9.24	-18.2	-0.98
25128	-1.001	-0.026	-0.126	-8.4	-18.69	0.49
25147	-1.01	-0.018	-0.141	-6.23	-18.62	1.12
25167	-0.985	-0.018	-0.127	-5.88	-18.62	1.68
25191	-0.967	-0.056	-0.092	-3.36	-14.35	1.4
25211	-0.995	0.004	-0.095	-2.87	-10.29	1.61
25230	-1.025	-0.041	-0.072	0.84	-6.44	0.35
25255	-0.996	0.032	-0.101	-3.29	-3.36	-0.77
25275	-0.988	-0.024	-0.116	-1.75	-2.1	-2.66
25294	-0.987	-0.025	-0.101	-2.59	-1.26	-2.1
25315	-0.983	-0.068	-0.069	0.35	1.26	-0.84
25334	-0.988	0.001	-0.136	5.53	6.09	0.21
25352	-0.993	-0.057	-0.087	-7.77	5.67	0.21
25372	-0.999	-0.026	-0.158	7.77	9.8	3.78
25395	-1.007	0.039	-0.139	-2.03	2.8	4.34
25416	-1.016	-0.024	-0.139	3.64	6.16	5.18
25437	-0.987	-0.066	-0.12	-1.75	8.26	8.68
25459	-1.053	0.025	-0.185	9.38	4.55	15.4
25483	-0.994	-0.002	-0.148	0.14	7.28	17.85
25503	-1.003	0.042	-0.17	1.61	3.22	17.36
25521	-0.993	0.032	-0.133	-0.98	0.7	17.71
25540	-1.03	0.05	-0.15	1.4	-0.49	17.85
25563	-1.007	0.077	-0.132	-0.98	-0.7	15.26
25584	-1.038	0.117	-0.16	1.47	-0.21	8.89
25603	-0.976	0.041	-0.103	-4.9	3.15	5.46
25623	-0.965	-0.052	-0.122	-4.62	5.67	5.11
25645	-0.997	0.052	-0.199	4.69	0.77	9.17
25667	-0.999	0.116	-0.185	1.96	-5.32	7.14
25687	-1.016	0.116	-0.16	-9.73	-6.02	-0.49
25705	-0.945	0.036	-0.139	-2.66	-1.47	-2.31
25729	-0.979	0.074	-0.173	-8.33	-7.21	-4.34
25749	-1.019	0.098	-0.178	-8.61	-11.62	-8.4
25768	-1.012	0.073	-0.168	-10.29	-15.54	-16.8
25792	-1.032	-0.038	-0.152	-19.39	-12.25	-18.41
25812	-1.175	0.285	0.017	2.24	-26.6	-5.32
25828	-1.081	0.042	-0.15	-9.59	-14.49	-2.59
25849	-0.97	0.09	-0.156	-25.76	-10.01	5.18
25872	-0.993	0.002	-0.073	-3.64	-17.5	-5.32
25893	-0.966	-0.066	-0.13	2.94	-17.64	-2.45
25913	-1.006	0.087	-0.136	7.14	-14.0	-3.43
25937	-0.994	0.075	-0.094	-1.26	-12.32	-3.15
25955	-1.011	0.025	-0.086	-2.52	-14.0	-5.67
25975	-0.977	0.034	-0.084	0.91	-9.03	-5.53
25995	-0.991	0.005	-0.101	-0.63	-9.8	-7.14
26019	-1.023	0.045	-0.082	0.07	-14.98	-9.31
26036	-0.988	0.046	-0.097	0.77	-10.36	-9.38
26054	-1.007	0.063	-0.082	-2.45	-14.21	-10.71
26079	-0.996	0.03	-0.1	-2.59	-11.06	-13.3
26099	-0.996	0.019	-0.083	-5.88	-12.88	-16.73
26119	-1.046	0.047	-0.099	-1.61	-16.24	-15.75
26137	-0.974	-0.027	-0.061	-3.57	-12.53	-15.33
26157	-1.018	0.024	-0.065	-10.15	-15.47	-19.18
26181	-0.974	-0.038	-0.024	-3.99	-14.56	-16.59
26201	-0.986	-0.013	-0.051	-1.61	-11.9	-17.57
26219	-1.045	0.056	-0.058	-0.28	-15.54	-20.3
26241	-0.996	0.004	-0.02	-6.37	-7.0	-28.91
26263	-1.017	-0.022	-0.044	-9.24	-3.71	-27.86
26287	-0.972	-0.118	-0.026	-6.44	-0.49	-22.54
26307	-1.007	-0.062	-0.029	1.96	3.01	-20.3
26326	-1.061	0.066	-0.102	-5.18	-2.66	-19.11
26345	-0.955	-0.159	-0.024	-8.54	7.63	-16.03
26364	-1.039	-0.093	-0.088	0.49	2.66	-14.07
26388	-0.982	-0.071	-0.047	3.22	0.91	-11.69
26408	-0.974	-0.097	-0.045	-3.85	5.39	-11.41
26428	-0.997	-0.084	-0.045	1.96	6.51	-9.73
26444	-0.915	-0.186	-0.044	1.33	14.98	-7.98
26468	-0.964	-0.148	-0.075	18.34	18.27	-7.98
26488	-1.046	-0.044	-0.13	20.02	3.99	-3.85
26503	-1.064	0.039	-0.078	26.32	6.09	-0.63
26527	-0.964	-0.124	-0.033	12.6	12.39	1.19
26548	-0.978	-0.118	-0.028	18.62	19.74	4.06
26568	-1.015	-0.04	-0.106	25.83	28.49	3.64
26588	-0.999	-0.05	-0.129	15.82	26.46	0.91
26607	-0.995	-0.089	-0.138	10.29	24.36	-0.21
26625	-1.019	-0.06	-0.162	13.44	22.05	-0.35
26649	-1.0	-0.019	-0.163	-5.53	14.63	0.98
26666	-0.962	-0.139	-0.117	8.05	19.32	2.73
26686	-0.876	-0.081	-0.187	6.51	10.99	3.01
26710	-1.014	-0.061	-0.182	6.65	7.28	4.62
26730	-0.981	-0.091	-0.159	7.28	1.54	5.67
26750	-0.985	-0.032	-0.162	6.02	1.05	6.79
26770	-0.987	-0.06	-0.166	2.8	3.15	4.41
26785	-0.984	-0.037	-0.183	-1.54	1.4	2.52
26805	-0.988	-0.102	-0.158	1.54	0.0	3.43
26830	-0.99	-0.087	-0.159	3.99	-1.75	5.53
26850	-0.972	-0.059	-0.167	3.85	-1.75	2.66
26869	-0.978	-0.047	-0.171	1.89	-2.1	0.28
26888	-0.997	-0.085	-0.173	4.27	-3.57	-1.47
26912	-1.006	-0.091	-0.141	-0.28	-5.74	-3.43
26930	-1.021	0.016	-0.202	5.25	-9.17	-1.89
26953	-0.994	-0.084	-0.166	-6.44	-10.57	-3.15
26974	-0.998	-0.023	-0.156	-8.26	-16.03	-5.04
26993	-1.001	-0.11	-0.111	-0.56	-13.3	-4.48
27017	-0.971	-0.038	-0.154	3.43	-10.08	-2.03
27037	-0.996	-0.103	-0.124	7.35	-10.99	-1.54
27057	-1.0	-0.034	-0.167	9.52	-9.45	-1.12
27076	-0.97	-0.047	-0.122	4.27	-8.68	-1.68
27095	-0.999	0.017	-0.156	1.47	-8.47	-7.63
27118	-0.995	-0.125	-0.053	5.46	-1.4	-10.99
27137	-0.995	-0.015	-0.161	1.54	4.97	-9.31
27158	-0.991	-0.1	-0.131	-7.7	3.08	-7.77
27182	-0.987	-0.119	-0.182	-3.36	-0.91	-3.22
27202	-0.975	-0.162	-0.162	2.45	-0.07	3.22
27222	-0.971	-0.087	-0.174	-5.39	-0.77	6.86
27241	-0.995	-0.071	-0.128	-0.07	-4.55	6.3
27264	-1.008	-0.042	-0.102	3.57	0.77	6.16
27281	-0.976	-0.063	-0.114	12.25	9.73	8.05
27300	-0.991	0.009	-0.125	-32.9	12.74	3.5
27320	-1.041	-0.053	-0.152	-14.28	7.14	7.07
27345	-0.99	-0.03	-0.193	-14.21	8.68	7.07
27364	-0.969	-0.069	-0.155	-12.81	9.38	9.17
27385	-0.999	0.003	-0.162	-9.66	5.25	8.89
27402	-1.018	0.018	-0.149	-7.07	2.8	5.39
27425	-0.996	-0.071	-0.191	-4.48	9.1	10.78
27448	-0.99	-0.082	-0.163	0.28	10.36	17.71
27469	-0.956	-0.04	-0.177	0.63	9.73	21.49
27489	-1.031	-0.016	-0.231	5.81	0.42	16.52
27509	-0.978	-0.012	-0.14	-0.98	1.75	10.99
27526	-0.955	-0.071	-0.183	17.36	5.95	1.4
27550	-0.877	-0.045	-0.185	-5.95	15.26	-11.34
27570	-1.057	0.017	-0.247	-1.19	-7.14	-10.15
27590	-1.057	-0.092	-0.203	13.02	-4.34	0.49
27610	-0.819	-0.327	-0.295	84.07	-22.47	-18.69
27628	-0.719	0.257	-0.459	63.98	-49.77	-66.15
27646	-1.144	-0.132	-0.185	-74.27	7.14	-40.18
27668	-0.996	-0.084	-0.149	11.13	-7.63	31.78
27688	-1.036	-0.061	-0.235	-14.0	-3.43	46.48
27707	-1.005	-0.084	-0.158	7.63	-8.75	28.14
27732	-0.972	0.141	-0.232	-15.47	-10.01	8.47
27751	-0.972	-0.049	-0.142	-11.27	-7.56	3.71
27771	-1.021	-0.041	-0.186	-7.7	-11.2	2.03
27792	-1.009	0.02	-0.195	8.47	-21.56	5.18
27811	-0.981	0.012	-0.171	3.5	-18.34	2.87
27830	-0.996	0.033	-0.157	-12.46	-19.11	0.42
27853	-1.004	-0.013	-0.158	-11.48	-19.32	-1.26
27874	-0.99	0.013	-0.138	-10.43	-17.43	-1.47
27892	-0.99	0.016	-0.157	-14.63	-16.45	-20.72
27911	-1.035	-0.028	-0.136	-15.4	-21.07	-5.74
27936	-0.993	0.029	-0.13	-14.49	-21.28	-7.7
27956	-0.999	-0.021	-0.128	-8.47	-22.54	-8.89
27974	-1.007	0.002	-0.121	-8.82	-23.31	-10.36
27993	-1.005	0.017	-0.118	-8.19	-22.12	-13.86
28014	-1.006	0.006	-0.114	-16.59	-22.68	-14.28
28038	-0.97	-0.01	-0.12	-28.28	-16.66	-59.08
28056	-1.057	-0.038	-0.121	-11.62	-17.01	-18.55
28077	-0.995	-0.039	-0.067	-6.44	-24.99	-17.85
28094	-0.965	-0.088	-0.073	-6.44	-18.97	-15.54
28118	-0.974	-0.092	-0.059	0.56	-16.94	-11.27
28135	-0.974	-0.101	-0.044	6.16	-14.7	-6.58
28158	-1.001	-0.055	-0.074	4.76	-16.66	-7.49
28180	-0.956	-0.106	-0.038	2.38	-6.16	-7.56
28202	-1.006	-0.096	-0.062	8.4	-4.69	-6.93
28220	-1.017	-0.041	-0.049	13.23	-4.55	-5.11
28240	-1.016	0.001	-0.037	8.19	-4.34	-6.65
28264	-1.017	0.003	-0.034	-0.77	-3.29	-7.14
28288	-1.017	-0.001	-0.045	-6.58	-2.38	-8.54
28307	-1.017	-0.081	-0.03	-9.87	-3.08	-9.8
28326	-0.989	-0.086	-0.086	-9.03	-0.91	-9.17
28348	-0.974	-0.141	-0.061	-3.36	-4.76	-6.65
28371	-0.965	-0.122	-0.079	3.08	-1.33	-3.22
28388	-0.982	-0.085	-0.067	7.0	-3.08	-1.96
28412	-0.992	-0.082	-0.044	5.25	1.33	-0.42
28429	-1.013	-0.097	-0.034	5.25	0.98	0.84
28448	-0.982	-0.16	-0.01	0.28	4.34	3.71
28472	-0.984	-0.105	-0.045	3.85	8.47	12.11
28491	-0.947	-0.134	-0.045	2.52	17.08	11.76
28515	-1.159	-0.036	-0.104	19.81	-1.96	8.19
28535	-0.849	-0.091	-0.103	17.29	22.12	9.73
28554	-0.977	-0.078	-0.078	3.43	23.45	5.6
28571	-1.072	0.002	-0.109	19.95	13.51	1.33
28595	-0.993	-0.01	-0.108	11.97	10.43	-1.12
28615	-0.996	0.011	-0.094	3.08	8.82	-1.96
28632	-0.988	-0.057	-0.103	-2.38	11.76	-3.5
28655	-1.017	-0.022	-0.141	4.34	2.38	-3.92
28676	-0.968	-0.108	-0.118	-4.13	1.96	-5.25
28692	-0.994	-0.08	-0.124	2.87	0.77	-2.94
28716	-0.983	-0.041	-0.111	1.26	0.56	-3.92
28736	-0.996	-0.041	-0.131	-0.07	-0.21	-6.44
28756	-1.024	-0.027	-0.136	-0.28	-5.6	-6.93
28776	-0.992	-0.083	-0.113	-3.92	-5.53	-6.79
28793	-0.984	-0.07	-0.113	-1.89	-7.28	-5.74
28813	-0.993	-0.081	-0.11	0.35	-7.49	-4.83
28837	-0.987	-0.063	-0.107	-3.01	-7.21	-4.48
28855	-0.99	-0.104	-0.098	-0.63	-6.58	-2.59
28876	-1.001	-0.089	-0.113	-0.77	-7.35	-0.21
28897	-1.031	-0.042	-0.169	4.76	-11.27	1.47
28917	-0.986	-0.033	-0.122	-8.05	-19.46	2.17
28941	-0.996	-0.098	-0.095	-2.03	-20.37	1.4
28961	-1.009	-0.051	-0.056	-4.27	-19.46	2.1
28981	-0.98	-0.026	-0.058	-7.42	-13.65	1.33
29005	-1.009	-0.047	-0.069	-7.28	-14.21	-1.26
29024	-1.005	0.013	-0.069	-10.57	-14.77	-7.14
29043	-1.014	-0.032	-0.047	-9.03	-11.97	-9.59
29063	-0.992	-0.046	-0.061	-15.12	-8.68	-8.82
29087	-0.997	-0.055	-0.061	-17.78	-8.96	-3.71
29107	-1.0	-0.132	-0.069	-15.12	-10.99	-1.96
29122	-0.948	-0.194	-0.061	-6.3	-4.55	1.75
29142	-1.041	-0.078	-0.057	3.43	-8.4	3.64
29168	-1.015	-0.067	-0.076	1.33	-4.97	5.95
29185	-0.99	-0.1	-0.062	5.18	-3.92	8.4
29209	-0.982	-0.109	-0.062	10.01	0.35	9.45
29225	-0.998	-0.073	-0.049	14.35	0.14	10.92
29248	-1.012	0.03	-0.041	11.9	1.47	12.81
29269	-0.995	-0.022	-0.049	5.67	9.38	13.65
29288	-1.006	-0.052	-0.045	7.42	13.51	13.09
29308	-0.985	-0.048	-0.107	2.38	15.75	14.63
29325	-1.038	0.037	-0.076	3.92	7.49	11.55
29345	-0.994	0.047	-0.046	-0.84	11.06	4.76
29366	-0.976	-0.033	-0.102	1.05	14.98	-0.35
29390	-1.02	-0.045	-0.107	-5.46	7.14	5.11
29408	-1.011	-0.05	-0.005	-5.18	3.15	8.68
29429	-1.02	0.01	-0.143	-4.76	-2.31	10.01
29450	-1.016	-0.031	-0.096	-5.88	-3.08	12.81
29471	-0.996	-0.01	-0.104	1.82	-3.43	16.17
29495	-0.995	0.042	-0.102	-7.98	-2.17	14.07
29512	-0.985	0.019	-0.067	-12.39	0.56	13.16
29536	-0.98	0.002	-0.109	-3.85	-0.91	9.17
29553	-1.012	0.003	-0.089	-3.08	-2.38	7.42
29573	-1.01	0.032	-0.123	4.27	-5.39	5.04
29597	-1.01	0.058	-0.089	5.81	-9.03	1.68
29616	-1.017	0.085	-0.123	0.28	-8.61	0.14
29637	-0.988	0.059	-0.091	-14.98	-6.65	-2.45
29657	-1.132	0.17	-0.03	-30.38	-14.14	-14.14
29679	-1.149	0.148	-0.271	-43.05	-45.43	-14.21
29699	-1.111	-0.022	-0.118	-8.54	-20.79	-4.41
29720	-1.012	-0.019	-0.073	-16.87	-25.83	-3.08
29742	-0.975	0.009	-0.068	-0.7	-20.16	2.03
29761	-1.002	0.017	-0.05	5.81	-16.59	1.61
29785	-1.013	0.012	-0.072	2.73	-14.91	1.68
29805	-0.996	0.027	-0.08	6.23	-15.33	0.42
29825	-1.021	0.134	-0.059	5.74	-15.4	-3.71
29843	-1.026	0.126	-0.041	-6.02	-15.47	-7.0
29863	-1.02	0.046	-0.072	-8.68	-13.79	-8.33
29888	-1.025	0.055	-0.047	-3.22	-20.72	-11.13
29906	-0.989	0.041	-0.035	-4.62	-21.28	-13.37
29923	-0.998	0.033	-0.04	-8.75	-17.99	-12.74
29942	-1.03	-0.004	-0.014	-5.18	-21.77	-13.09
29967	-0.987	-0.021	-0.002	-6.23	-20.79	-12.81
29983	-0.996	-0.013	0.003	-2.59	-19.18	-12.6
30007	-1.008	0.014	0.026	-2.52	-18.48	-13.37
30026	-0.988	0.007	-0.005	-3.5	-15.75	-12.74
30043	-1.002	0.011	0.004	-5.39	-14.98	-14.21
30067	-0.987	-0.03	0.031	-6.16	-13.02	-14.42
30086	-0.981	-0.037	0.023	-0.98	-7.77	-13.65
30107	-1.017	-0.022	0.021	1.19	-8.05	-13.37
30125	-1.024	-0.012	0.047	2.24	-9.17	-12.32
30147	-0.991	-0.001	0.049	-2.45	-4.27	-11.55
30167	-0.993	-0.02	0.036	-4.34	-2.45	-11.06
30184	-0.994	-0.059	0.035	-6.02	-0.14	-11.62
30208	-1.0	-0.046	0.043	-0.84	2.45	-10.71
30228	-1.006	-0.037	0.03	-3.85	4.48	-11.55
30247	-0.994	-0.033	0.024	-0.28	6.72	-11.62
30269	-0.991	-0.075	0.02	0.7	7.49	-11.69
30289	-0.994	-0.046	0.025	4.27	8.89	-10.36
30312	-1.014	-0.01	0.007	0.35	9.45	-10.01
30333	-0.995	-0.082	0.014	-0.77	8.89	-9.1
30357	-0.956	-0.125	-0.001	4.9	13.16	-6.65
30377	-0.97	-0.122	-0.01	8.75	16.94	-2.87
30396	-0.963	-0.103	-0.007	11.06	19.39	1.68
30421	-0.971	-0.094	-0.023	11.06	25.55	8.05
30441	-1.103	-0.013	-0.061	5.95	21.14	12.04
30461	-1.065	-0.019	-0.058	5.04	14.77	13.09
30476	-0.966	-0.015	-0.052	5.74	15.26	9.52
30501	-1.122	0.036	-0.066	-2.66	20.79	2.66
30519	-1.052	-0.055	-0.15	15.47	7.21	-9.38
30538	-0.995	-0.022	-0.089	6.16	-1.82	-13.02
30558	-1.013	-0.078	-0.074	15.26	-5.04	-12.11
30581	-0.972	-0.102	-0.075	5.95	3.71	-9.24
30602	-1.084	-0.113	-0.09	17.36	3.01	-2.1
30622	-0.979	-0.066	-0.066	7.21	5.81	-1.33
30642	-0.99	-0.027	-0.099	5.46	1.68	-2.38
30666	-1.007	-0.049	-0.088	1.4	0.77	-2.31
30686	-1.007	-0.045	-0.083	-5.74	-1.19	-2.87
30705	-1.037	-0.029	-0.091	-3.5	-5.11	-2.31
30724	-1.006	-0.024	-0.081	-3.64	-6.44	-0.07
30748	-0.995	-0.081	-0.057	-2.59	-3.71	2.17
30768	-0.997	-0.05	-0.083	3.22	-4.83	2.31
30788	-1.014	-0.049	-0.088	-4.34	-8.82	-0.35
30808	-1.014	-0.017	-0.088	-7.07	-12.53	-0.14
30828	-1.004	-0.059	-0.079	-4.27	-12.74	-1.96
30852	-0.999	-0.01	-0.075	-7.63	-15.54	-2.38
30868	-1.005	-0.042	-0.031	-10.92	-17.78	-3.85
30893	-1.019	-0.072	-0.034	-5.25	-12.74	1.47
30912	-1.005	-0.031	-0.052	-1.96	-10.36	3.57
30932	-0.999	-0.002	-0.074	-6.09	-11.97	4.9
30951	-0.987	-0.099	-0.046	-6.58	-9.66	7.63
30967	-0.998	-0.057	-0.019	1.26	-10.01	7.28
30987	-0.938	-0.102	-0.031	0.77	-5.95	10.43
31012	-0.987	-0.066	-0.06	3.71	-4.13	11.34
31030	-0.984	-0.035	0.015	-0.42	-6.09	15.05
31052	-1.066	-0.072	0.032	15.4	-4.62	22.54
31075	-0.932	-0.001	-0.029	11.62	16.66	14.91
31096	-0.97	-0.071	-0.041	-1.33	20.44	10.22
31116	-0.983	0.047	-0.055	-7.42	13.02	9.1
31132	-0.989	-0.071	-0.031	-5.32	14.63	6.93
31156	-0.959	-0.075	-0.026	-2.94	17.29	4.55
31176	-1.011	-0.063	-0.065	15.82	23.52	4.34
31195	-1.032	0.129	-0.161	-3.08	16.8	10.85
31215	-1.118	0.016	-0.12	15.89	15.33	15.12
31240	-1.007	0.004	-0.104	6.65	12.67	19.39
31259	-0.914	-0.065	-0.136	11.55	15.12	18.55
31277	-0.941	0.006	-0.129	9.1	15.12	15.96
31295	-0.99	0.257	-0.102	3.85	1.19	15.19
31319	-1.093	0.068	-0.108	2.45	5.67	7.14
31339	-1.004	0.035	-0.131	-1.54	10.78	4.48
31359	-0.955	-0.009	-0.093	-6.09	12.18	5.67
31379	-0.963	-0.01	-0.113	3.92	13.93	8.33
31397	-1.004	0.08	-0.166	7.63	9.8	7.56
31418	-0.989	0.114	-0.159	0.63	6.37	1.54
31437	-0.969	-0.011	-0.083	-1.54	10.43	0.35
31462	-0.995	0.093	-0.175	6.37	10.15	-0.84
31482	-1.017	0.074	-0.185	3.71	4.69	-2.38
31500	-1.001	-0.005	-0.158	5.32	4.97	-5.39
31524	-0.988	0.108	-0.155	10.43	1.05	-3.57
31544	-1.006	0.084	-0.198	6.16	-1.54	-3.36
31564	-0.996	0.017	-0.177	1.26	-9.45	-2.94
31579	-1.011	0.046	-0.186	5.25	-10.64	-2.31
31602	-1.011	0.058	-0.119	3.99	-12.81	1.68
31624	-1.01	-0.015	-0.145	14.56	-12.6	8.26
31643	-0.993	0.088	-0.149	10.92	-13.16	8.05
31662	-0.994	0.069	-0.146	11.9	-9.94	4.62
31682	-1.012	0.069	-0.156	5.81	-12.6	5.39
31707	-1.008	0.093	-0.118	-0.28	-14.91	4.97
31727	-0.986	0.107	-0.136	-2.1	-11.9	1.54
31745	-1.007	0.096	-0.132	-4.06	-14.84	0.14
31765	-1.003	0.078	-0.123	-4.9	-15.26	-2.03
31789	-0.99	0.077	-0.127	-6.09	-16.38	-5.04
31809	-0.992	0.089	-0.11	-9.52	-17.64	-7.49
31824	-0.994	0.069	-0.122	-10.5	-15.4	-8.26
31844	-1.002	0.081	-0.102	-18.13	-15.75	-16.73
31869	-1.001	0.083	-0.102	-22.19	-19.32	-19.74
31888	-1.033	0.11	-0.078	-23.52	-22.89	-20.02
31908	-1.03	0.049	-0.099	-22.47	-22.75	-19.88
31932	-1.007	0.033	-0.102	-10.08	-20.37	-18.55
31947	-1.005	0.051	-0.042	-13.02	-20.72	-30.87
31972	-0.984	0.018	-0.085	-1.82	-15.12	-17.15
31992	-1.018	0.026	-0.048	-8.05	-20.3	-21.21
32012	-0.983	0.023	-0.034	-5.25	-16.87	-22.33
32032	-0.985	0.0	-0.033	-8.26	-15.05	-21.49
32050	-0.99	-0.031	-0.041	-5.95	-5.88	-16.66
32070	-1.026	-0.009	-0.031	-2.8	-7.77	-14.63
32094	-1.017	0.001	-0.039	-3.99	-6.23	-12.81
32114	-0.875	-0.048	-0.022	-3.99	-6.79	-12.81
32129	-0.982	-0.041	-0.011	-2.17	-4.2	-12.39
32154	-0.99	-0.058	-0.008	3.01	4.2	-13.02
32174	-1.006	-0.036	-0.062	6.37	3.78	-14.07
32194	-1.017	-0.013	-0.045	7.77	3.71	-13.44
32214	-0.992	-0.056	-0.037	4.83	5.53	-12.32
32232	-1.015	0.041	-0.048	0.42	6.79	-11.2
32252	-1.028	-0.02	-0.038	-6.58	3.36	-13.51
32271	-0.972	-0.061	-0.041	-3.64	5.04	-11.9
32295	-0.991	-0.076	-0.039	-0.91	7.42	-9.1
32316	-0.976	-0.088	-0.058	2.94	10.78	-5.88
32336	-0.999	-0.1	-0.052	5.39	11.55	-3.92
32354	-0.982	-0.053	-0.067	5.04	15.12	-0.35
32374	-1.001	-0.034	-0.089	0.7	14.63	0.56
32396	-0.996	-0.087	-0.059	2.73	15.12	1.05
32415	-0.999	-0.087	-0.158	16.8	23.66	-2.8
32433	-1.057	0.006	-0.131	11.69	0.21	-2.73
32457	-0.986	-0.029	-0.091	9.8	15.12	-6.37
32475	-1.009	0.003	-0.123	3.5	14.49	-8.68
32497	-0.989	-0.086	-0.112	-12.6	16.94	-10.15
32516	-1.007	-0.083	-0.129	8.61	4.69	-11.9
32541	-1.012	-0.102	-0.123	11.41	4.76	-6.65
32556	-0.984	-0.102	-0.137	15.47	5.39	-1.82
32581	-0.997	-0.096	-0.137	17.22	5.46	2.1
32599	-0.998	-0.034	-0.143	9.66	6.58	4.34
32618	-1.017	-0.035	-0.155	1.05	4.2	4.34
32643	-0.989	-0.098	-0.12	1.47	5.18	6.02
32663	-0.984	-0.075	-0.168	4.83	5.39	5.6
32678	-1.01	-0.035	-0.158	4.97	3.43	6.16
32703	-0.989	-0.092	-0.15	6.3	0.7	10.78
32721	-1.004	-0.036	-0.165	11.34	-5.39	13.51
32740	-1.002	0.007	-0.137	-3.15	-6.02	12.53
32764	-1.036	-0.079	-0.206	-5.53	-12.32	11.34
32784	-1.015	-0.024	-0.165	-8.26	-10.57	8.33
32802	-1.007	-0.024	-0.151	-9.03	-13.02	9.17
32824	-1.007	-0.027	-0.151	-6.23	-14.14	11.27
32844	-0.976	-0.03	-0.146	-7.7	-17.29	9.59
32864	-0.996	0.011	-0.15	-3.78	-22.68	5.18
32881	-0.998	-0.022	-0.105	-6.51	-23.38	3.29
32905	-0.982	0.025	-0.097	-16.24	-18.55	-2.87
32922	-0.999	-0.007	-0.062	-5.11	-18.48	-2.59
32945	-0.989	-0.012	-0.036	-4.41	-8.89	-8.26
32965	-0.994	0.049	-0.07	1.12	-4.62	-12.67
32989	-1.005	0.029	-0.064	-8.82	-1.54	-19.04
33009	-0.996	-0.065	-0.114	-5.32	1.26	-14.56
33028	-1.014	-0.043	-0.136	-10.57	-1.05	-7.49
33052	-1.024	-0.091	-0.119	1.54	-0.98	3.36
33072	-1.014	-0.068	-0.147	-0.42	-2.17	7.98
33089	-1.006	-0.087	-0.094	-3.92	-4.83	12.67
33109	-1.004	-0.02	-0.098	4.83	0.42	18.76
33133	-1.019	-0.002	-0.065	1.19	5.67	20.79
33152	-0.97	-0.095	-0.077	6.16	14.84	24.08
33172	-1.055	0.03	-0.125	20.09	7.56	29.33
33193	-1.005	0.037	-0.092	12.04	17.78	28.14
33217	-0.993	0.063	-0.113	7.14	20.3	21.35
33237	-0.967	0.008	-0.115	5.04	19.46	13.79
33254	-1.016	0.016	-0.148	11.34	15.54	14.35
33278	-0.988	-0.021	-0.134	17.36	14.0	19.18
33296	-0.996	0.0	-0.158	32.69	20.51	23.24
33315	-0.994	0.041	-0.17	21.63	11.69	23.24
33340	-0.98	0.058	-0.192	14.42	18.48	24.64
33364	-0.982	0.031	-0.176	10.01	17.22	26.81
33384	-0.977	0.072	-0.233	13.09	11.76	25.2
33399	-0.986	0.155	-0.209	10.57	7.56	18.2
33422	-0.956	0.143	-0.195	2.66	8.33	11.34
33442	-0.998	0.151	-0.198	2.03	4.48	3.15
33463	-0.986	0.116	-0.206	1.96	5.81	-0.49
33485	-0.984	0.102	-0.242	2.45	1.68	-2.24
33509	-1.018	0.162	-0.165	10.57	-7.14	2.38
33529	-0.991	-0.102	-0.263	6.02	-7.98	3.01
33548	-0.968	0.15	-0.225	-12.81	-6.51	2.17
33566	-0.974	0.121	-0.219	-8.19	-17.99	3.5
33586	-0.98	0.152	-0.191	-12.25	-20.02	2.1
33610	-0.99	0.147	-0.177	-14.7	-19.81	-3.64
33628	-1.005	0.117	-0.165	-17.85	-20.44	-6.44
33648	-0.999	0.124	-0.167	-16.38	-19.04	-8.61
33672	-0.968	0.116	-0.17	-17.99	-17.43	-14.7
33692	-0.992	0.124	-0.152	-21.0	-20.3	-17.92
33712	-1.002	0.124	-0.153	-24.01	-20.44	-26.81
33729	-0.974	0.092	-0.169	-22.75	-22.4	-20.86
33753	-1.007	0.137	-0.164	-27.72	-24.57	-18.34
33771	-1.022	0.102	-0.153	-24.29	-31.64	-24.15
33792	-0.998	0.061	-0.144	-22.75	-28.35	-25.06
33809	-1.052	-0.015	-0.109	-14.63	-29.4	-24.5
33829	-0.875	0.074	-0.117	-3.36	-34.51	-19.18
33848	-0.983	0.087	-0.108	-1.61	-30.24	-20.51
33872	-0.878	0.087	-0.079	-5.11	-34.3	-24.64
33888	-0.98	0.054	-0.056	-8.4	-32.41	-27.44
33912	-1.019	0.005	-0.03	-11.62	-31.78	-28.77
33929	-0.979	-0.016	0.009	-8.89	-30.59	-25.55
33948	-0.98	-0.015	-0.016	-7.42	-18.48	-20.65
33968	-1.013	-0.01	-0.028	-4.06	-18.9	-17.85
33988	-1.007	-0.001	-0.006	-4.69	-18.41	-22.05
34013	-0.939	-0.057	0.023	-0.98	-7.63	-16.73
34029	-0.991	-0.047	-0.003	-4.55	-4.41	-18.55
34053	-0.98	-0.103	-0.001	-0.21	5.81	-14.56
34077	-1.044	-0.037	-0.004	8.96	1.33	-8.96
34097	-1.024	0.003	0.023	6.79	0.28	-8.61
34115	-0.974	0.013	0.025	0.28	3.92	-8.4
34136	-0.998	-0.025	-0.01	-2.59	10.99	-8.82
34160	-1.005	-0.109	-0.001	5.39	8.82	-9.03
34178	-0.956	-0.11	-0.026	14.84	15.12	-5.6
34202	-0.988	-0.058	-0.05	18.97	14.98	-1.75
34221	-0.966	0.005	-0.071	12.95	14.42	-1.61
34242	-0.977	0.019	-0.092	4.13	16.87	-4.2
34266	-0.981	-0.041	-0.071	-1.54	15.89	-6.72
34283	-1.006	-0.071	-0.083	-4.27	19.11	-10.15
34303	-1.038	-0.043	-0.113	1.82	20.37	-7.07
34325	-1.046	-0.042	-0.081	-0.42	8.19	-5.74
34344	-1.005	-0.04	-0.095	0.7	9.24	-4.06
34369	-1.016	-0.031	-0.125	3.71	5.32	-9.52
34388	-0.994	-0.07	-0.066	5.32	1.4	-10.92
34411	-1.007	-0.08	-0.134	10.57	7.35	-7.14
34432	-0.995	-0.064	-0.118	-0.91	10.5	-6.79
34451	-1.012	-0.084	-0.12	5.39	2.31	-8.26
34471	-0.989	-0.077	-0.106	14.35	1.47	-6.44
34490	-1.011	-0.038	-0.114	14.14	-0.21	-7.98
34514	-0.98	-0.061	-0.113	7.42	5.95	-5.04
34535	-0.99	-0.091	-0.114	4.69	8.26	-2.52
34554	-1.007	-0.068	-0.135	6.51	5.04	-1.75
34575	-0.997	-0.089	-0.126	6.09	3.85	-1.4
34595	-1.011	-0.063	-0.142	5.25	-0.98	-0.63
34614	-0.999	-0.102	-0.132	5.6	-0.63	2.45
34639	-0.99	-0.055	-0.146	3.99	-3.43	4.69
34655	-1.013	-0.04	-0.138	2.87	-7.42	3.99
34679	-0.997	-0.065	-0.113	0.0	-7.0	2.87
34695	-0.993	-0.059	-0.123	-2.73	-6.23	3.01
34716	-1.016	-0.039	-0.133	-1.33	-10.29	2.59
34740	-0.995	-0.067	-0.114	-6.37	-9.45	2.38
34760	-0.989	-0.061	-0.112	-7.49	-8.89	3.22
34778	-0.996	-0.048	-0.127	-8.75	-9.73	2.45
34801	-1.002	-0.06	-0.087	-9.87	-10.64	3.36
34822	-0.994	-0.042	-0.101	-6.58	-4.48	5.88
34842	-0.997	-0.028	-0.082	-12.81	-3.15	6.51
34861	-1.005	-0.087	-0.096	2.17	0.0	8.54
34885	-0.993	-0.081	-0.071	1.68	3.36	12.04
34902	-1.02	-0.0	-0.118	6.93	5.81	13.51
34922	-1.002	-0.025	-0.113	-1.19	7.63	12.46
34944	-0.991	-0.061	-0.175	8.96	6.58	21.98
34964	-1.004	-0.046	-0.118	-0.21	-3.29	27.79
34988	-0.922	0.037	-0.083	19.81	9.38	33.81
35007	-1.014	-0.003	-0.056	12.81	8.47	30.17
35031	-0.989	0.028	-0.118	20.09	17.29	30.38
35050	-1.009	0.076	-0.133	18.41	18.76	30.66
35071	-0.951	0.099	-0.138	-16.8	22.05	20.02
35090	-0.993	0.043	-0.151	-0.84	19.39	21.56
35106	-1.015	0.018	-0.157	5.39	17.08	25.06
35130	-0.997	0.063	-0.179	20.65	8.12	25.97
35149	-0.984	0.102	-0.175	8.54	13.37	20.16
35169	-1.025	0.043	-0.138	16.31	13.86	20.37
35193	-0.993	0.063	-0.198	21.42	13.86	28.42
35213	-0.986	0.109	-0.224	22.75	7.07	27.44
35231	-0.982	0.13	-0.192	15.05	5.32	19.53
35255	-0.976	0.164	-0.201	2.45	4.9	10.15
35270	-0.978	0.111	-0.226	5.18	6.02	7.14
35295	-0.979	0.191	-0.252	-15.68	-0.84	-2.31
35311	-0.994	0.065	-0.222	-44.45	-6.65	-10.92
35335	-0.985	0.183	-0.213	-20.02	-8.05	-8.33
35355	-0.974	0.062	-0.153	-8.61	-6.93	-5.67
35375	-0.978	0.075	-0.209	-4.13	-7.98	-1.19
35399	-0.975	0.067	-0.198	5.04	-13.72	5.6
35415	-0.987	0.118	-0.201	3.92	-13.65	4.06
35439	-0.927	-0.028	-0.324	-7.35	-10.01	14.77
35458	-0.947	0.051	-0.278	-9.38	-22.33	8.33
35483	-0.981	0.091	-0.189	-9.73	-18.97	-0.42
35503	-0.953	0.136	-0.188	-12.6	-18.34	-6.51
35522	-0.987	0.211	-0.15	-13.58	-20.02	-6.65
35541	-0.99	0.123	-0.142	-26.25	-12.39	-17.71
35562	-0.991	0.1	-0.134	-14.77	-19.81	-17.43
35585	-0.964	0.076	-0.148	-16.38	-19.46	-13.65
35609	-1.013	0.105	-0.111	-12.88	-22.4	-12.25
35628	-0.972	0.128	-0.114	-12.6	-17.36	-12.18
35646	-1.006	0.136	-0.117	-17.22	-18.69	-13.79
35665	-0.971	0.14	-0.12	-12.32	-16.31	-16.03
35690	-1.01	0.119	-0.121	-15.4	-20.58	-22.12
35710	-0.988	0.129	-0.115	-14.7	-16.17	-30.66
35729	-1.011	0.086	-0.11	-23.52	-10.5	-31.78
35748	-1.006	0.051	-0.091	-18.48	-13.44	-30.38
35772	-1.009	0.084	-0.098	-10.36	-19.04	-32.9
35792	-0.998	0.059	-0.081	-15.54	-19.46	-32.48
35809	-0.987	0.007	-0.055	-18.83	-16.8	-33.18
35833	-0.995	0.068	-0.061	-17.22	-21.21	-55.37
35853	-0.97	-0.033	-0.026	-7.21	-13.02	-24.01
35872	-1.006	-0.006	-0.04	-4.13	-7.77	-16.38
35893	-1.01	-0.017	-0.039	-5.18	-8.54	-14.21
35913	-0.965	-0.02	-0.024	1.68	-3.99	-11.62
35933	-1.013	0.005	-0.03	1.89	-3.78	-11.55
35953	-0.992	0.033	-0.051	1.4	0.56	-11.41
35972	-1.03	0.011	-0.047	-0.91	3.01	-12.95
35995	-1.02	0.026	-0.084	-1.75	-1.33	-14.49
36016	-0.991	-0.02	-0.051	-5.53	-0.77	-13.72
36032	-0.997	-0.072	-0.047	-2.38	2.38	-11.41
36052	-1.003	-0.068	-0.065	2.17	2.66	-8.68
36076	-0.995	-0.04	-0.061	6.16	0.91	-7.84
36095	-0.972	-0.022	-0.054	5.88	4.27	-9.1
36116	-0.995	-0.037	-0.044	4.41	9.59	-6.93
36139	-1.008	-0.056	-0.042	4.41	9.94	-4.48
36160	-1.0	-0.071	-0.077	9.94	12.32	-0.84
36180	-1.009	-0.03	-0.109	13.72	11.2	-0.63
36198	-1.003	-0.013	-0.09	11.97	9.66	-0.77
36219	-0.992	-0.008	-0.097	5.04	10.36	-0.28
36243	-1.042	-0.027	-0.096	1.26	7.0	0.14
36263	-0.983	-0.018	-0.112	-3.01	10.43	0.14
36283	-1.03	-0.04	-0.105	-3.01	7.49	0.28
36302	-1.011	0.017	-0.105	-7.49	7.28	0.14
36323	-1.008	0.041	-0.113	-15.47	4.34	-2.31
36341	-0.946	-0.073	-0.122	-12.6	4.34	-4.2
36365	-0.991	-0.101	-0.181	-1.61	3.36	-5.53
36385	-1.015	-0.02	-0.139	9.1	-6.72	-7.35
36401	-1.003	-0.039	-0.102	7.35	-5.32	-8.61
36422	-0.975	-0.052	-0.105	10.85	-1.47	-5.74
36441	-1.023	-0.034	-0.13	9.38	-5.95	-3.22
36466	-0.973	-0.126	-0.071	21.14	-0.63	-3.57
36486	-1.027	0.111	-0.164	23.17	-5.25	-2.73
36506	-0.997	0.014	-0.134	7.49	-6.3	-2.45
36526	-0.991	-0.066	-0.113	6.02	-5.18	-0.91
36546	-0.996	-0.067	-0.113	10.99	-4.62	1.89
36566	-0.997	-0.042	-0.139	4.2	-4.9	4.62
36585	-0.997	-0.034	-0.125	1.33	-5.18	8.19
36604	-0.99	-0.032	-0.116	-4.76	-6.51	7.98
36626	-0.996	-0.008	-0.118	-2.8	-9.1	11.9
36647	-1.005	-0.02	-0.117	-4.41	-10.78	11.83
36667	-1.01	-0.029	-0.11	-4.97	-12.81	11.76
36688	-0.998	0.017	-0.127	-3.99	-15.12	10.78
36709	-1.032	0.01	-0.102	-12.95	-19.25	2.59
36730	-1.059	-0.037	-0.065	-2.31	-15.47	0.7
36753	-0.985	0.06	-0.072	-25.97	-20.79	-3.71
36772	-1.023	0.054	-0.046	-7.7	-22.05	0.14
36788	-0.998	0.033	-0.07	-13.72	-17.15	-2.52
36813	-0.989	-0.066	-0.01	-5.11	-16.03	-4.2
36833	-1.056	0.087	-0.072	-10.22	-15.68	-1.61
36852	-1.019	-0.04	-0.015	-0.84	-9.52	-0.49
36868	-0.996	-0.011	-0.062	0.49	-5.32	1.82
36893	-1.006	-0.072	-0.038	3.99	1.61	-0.42
36913	-1.023	-0.114	-0.048	9.66	-1.61	5.81
36933	-1.015	0.041	-0.096	12.25	0.0	10.57
36951	-0.992	-0.04	-0.048	6.93	6.02	15.05
36974	-1.008	-0.039	-0.048	10.5	14.42	25.62
36995	-1.038	0.02	-0.085	14.42	14.77	34.86
37015	-0.989	-0.003	-0.071	17.43	14.0	36.89
37035	-1.023	0.074	-0.114	24.92	-0.77	36.12
37054	-0.915	0.079	-0.122	16.38	10.78	35.98
37078	-0.99	0.181	-0.11	6.93	-0.21	23.66
37097	-0.975	0.073	-0.028	-0.7	7.49	17.15
37118	-1.007	0.083	-0.088	3.99	8.75	15.33
37138	-0.985	0.067	-0.096	5.6	11.55	14.14
37162	-1.006	0.142	-0.149	4.34	4.2	7.14
37182	-1.0	0.13	-0.117	-0.42	0.63	3.57
37202	-1.0	0.114	-0.106	-3.57	0.77	2.45
37220	-0.99	0.05	-0.11	2.66	3.57	5.25
37237	-0.995	0.131	-0.163	-0.63	0.21	5.11
37259	-0.994	0.132	-0.088	-7.28	-2.52	0.28
37278	-0.958	0.136	-0.143	-5.25	-0.21	-9.38
37302	-0.671	-0.184	0.113	9.87	9.59	-4.83
37322	-0.582	-0.04	-0.079	-14.91	19.95	-11.34
37342	-0.973	0.112	-0.126	-10.36	-3.57	-7.07
37362	-1.033	0.042	-0.145	-10.22	-6.93	2.03
37378	-0.986	0.063	-0.102	-2.8	-8.26	2.17
37399	-0.977	0.152	-0.133	-1.26	-9.17	0.0
37421	-1.016	0.129	-0.102	-10.29	-12.53	-5.67
37443	-0.957	0.136	-0.098	-9.87	-11.34	-8.4
37463	-0.949	0.129	-0.088	-7.35	-10.36	-11.62
37485	-1.017	0.138	-0.09	-13.02	-8.4	-16.24
37509	-0.992	0.154	-0.113	-15.89	-9.66	-21.28
37529	-1.006	0.161	-0.095	-23.31	-7.21	-23.8
37548	-1.023	0.042	-0.081	-23.8	-17.22	-25.76
37569	-1.001	-0.003	-0.077	-12.46	-7.42	-20.65
37584	-1.041	0.038	-0.096	-0.91	-11.41	-16.87
37609	-1.037	0.067	-0.094	1.96	-21.49	-21.7
37627	-0.969	0.089	-0.065	0.35	-21.63	-23.52
37648	-1.008	0.102	-0.048	-6.16	-17.71	-25.34
37668	-1.019	0.057	-0.036	-13.09	-15.4	-24.15
37692	-0.939	-0.029	-0.104	-11.9	-14.21	-19.88
37716	-0.984	-0.041	-0.023	-12.39	-15.89	-21.84
37736	-0.967	-0.049	0.003	-7.77	-10.92	-19.04
37752	-0.994	-0.013	-0.033	-6.93	-5.6	-16.94
37773	-0.991	-0.043	-0.004	-6.37	-6.86	-15.89
37793	-0.992	-0.031	-0.022	-2.45	-2.1	-14.28
37817	-0.994	-0.036	-0.024	-0.07	1.89	-13.09
37837	-1.004	-0.023	-0.041	0.28	4.62	-13.79
37853	-1.022	-0.033	-0.044	3.15	3.85	-12.53
37876	-1.01	-0.007	-0.059	2.8	3.71	-10.92
37895	-1.017	-0.018	-0.037	3.01	-0.42	-8.89
37912	-0.992	-0.011	-0.028	2.1	1.61	-9.94
37934	-1.012	0.003	-0.039	1.26	4.06	-10.5
37955	-0.975	-0.037	-0.03	-2.17	4.41	-11.27
37976	-0.997	-0.061	-0.037	-1.54	7.0	-10.36
37997	-0.989	-0.074	-0.043	1.82	7.14	-7.77
38021	-1.004	-0.042	-0.058	2.52	9.73	-5.6
38037	-0.995	-0.062	-0.059	1.05	8.89	-4.2
38057	-0.991	-0.068	-0.08	3.01	11.55	-2.17
38080	-1.005	-0.038	-0.107	3.71	9.38	-1.05
38100	-1.013	-0.089	-0.081	1.4	7.21	-1.47
38119	-0.989	-0.077	-0.074	4.69	10.5	1.82
38141	-1.01	-0.048	-0.085	2.1	10.43	5.25
38165	-1.011	-0.022	-0.1	-0.21	10.71	7.42
38185	-1.005	-0.029	-0.09	0.14	8.68	5.39
38203	-0.955	-0.049	-0.105	1.96	11.9	4.62
38225	-1.026	-0.055	-0.153	5.95	11.62	3.36
38245	-1.029	-0.064	-0.112	22.96	-3.43	-3.92
38264	-1.017	-0.042	-0.148	21.49	1.96	-1.89
38288	-0.996	-0.012	-0.126	20.02	-1.89	2.45
38311	-0.991	-0.021	-0.107	9.73	-0.42	5.53
38332	-0.996	-0.03	-0.102	10.64	5.04	4.9
38350	-0.998	-0.037	-0.113	11.62	4.9	5.18
38370	-1.006	-0.037	-0.132	9.03	2.73	6.23
38393	-0.995	0.001	-0.15	7.42	1.82	5.25
38417	-0.998	-0.004	-0.124	1.54	-0.77	3.78
38437	-1.01	-0.024	-0.138	3.36	-1.61	5.04
38456	-0.992	-0.024	-0.13	2.17	-4.2	5.39
38479	-1.01	-0.002	-0.138	2.45	-7.35	6.58
38497	-1.002	0.014	-0.146	-4.34	-9.59	4.2
38521	-1.012	0.011	-0.125	-7.91	-11.76	1.96
38541	-0.991	-0.003	-0.109	-15.4	-11.62	-0.98
38560	-0.996	-0.018	-0.126	-14.28	-13.16	-4.06
38584	-0.973	-0.09	-0.165	-13.72	-10.85	-7.77
38600	-0.975	-0.095	-0.102	-18.2	-17.43	-7.28
38620	-0.97	0.012	-0.13	-12.81	-19.67	-11.06
38639	-0.986	-0.038	-0.086	-1.96	-14.35	-2.8
38664	-0.955	0.007	-0.106	-6.02	-9.52	6.58
38684	-1.013	-0.088	-0.027	0.56	-8.96	5.81
38701	-0.98	0.051	-0.124	-1.33	-3.29	6.58
38721	-1.046	0.101	-0.064	-8.4	-6.16	2.73
38741	-1.032	-0.032	-0.055	-14.28	-5.46	-3.64
38765	-0.995	-0.001	-0.067	-13.72	-5.25	1.68
38785	-1.025	0.022	-0.078	0.42	-4.06	2.8
38805	-0.979	-0.004	-0.044	-11.41	-0.77	1.47
38823	-1.028	0.051	-0.079	4.62	-3.57	-0.28
38843	-1.008	-0.106	-0.06	2.31	2.66	1.68
38862	-0.976	-0.028	-0.081	6.72	7.28	8.68
38887	-0.989	-0.059	-0.029	9.52	9.31	16.1
38906	-1.009	0.032	-0.114	21.07	14.42	17.71
38927	-0.969	-0.07	-0.083	19.74	22.4	31.85
38946	-0.972	-0.032	-0.146	33.25	22.82	40.25
38966	-1.075	-0.01	-0.185	28.07	4.2	35.7
38987	-1.023	0.166	-0.149	21.84	13.51	34.58
39006	-0.981	0.1	-0.112	16.8	13.16	27.65
39031	-1.007	0.1	-0.15	19.81	11.41	24.43
39051	-0.98	0.103	-0.174	5.81	13.09	14.91
39070	-0.993	0.133	-0.195	-2.66	7.56	11.2
39094	-0.97	0.07	-0.164	3.71	4.34	14.98
39114	-1.014	0.148	-0.183	5.11	-0.07	17.78
39134	-0.98	0.145	-0.164	-1.82	-2.38	11.06
39158	-0.989	0.089	-0.134	-0.49	-4.06	6.23
39178	-0.983	0.17	-0.168	1.12	-5.18	-2.45
39198	-0.995	0.115	-0.106	6.44	-4.2	-3.64
39217	-1.037	0.347	-0.097	2.31	-9.94	0.07
39237	-1.025	0.246	-0.305	-38.99	-7.42	-6.93
39257	-0.999	-0.169	0.017	-22.26	19.6	-20.23
39277	-0.976	0.201	-0.162	-5.67	-26.11	-1.89
39296	-1.083	0.012	-0.186	-6.23	-11.55	-0.35
39321	-0.922	-0.007	-0.148	31.71	9.66	9.73
39340	-0.936	0.164	-0.154	0.49	-7.49	2.03
39360	-0.973	0.124	-0.136	-1.19	-10.15	-5.6
39380	-0.983	0.123	-0.131	-3.15	-7.14	-3.08
39404	-0.993	0.147	-0.161	-5.88	-12.74	-6.86
39422	-0.972	0.132	-0.121	-4.97	-11.69	-11.9
39444	-0.986	0.12	-0.119	-6.3	-10.57	-15.54
39460	-0.996	0.135	-0.125	-8.68	-7.91	-16.31
39479	-0.996	0.152	-0.131	-12.32	-8.19	-18.27
39504	-0.99	0.1	-0.116	-12.18	-9.87	-21.42
39524	-0.998	0.09	-0.107	-14.42	-10.01	-25.2
39544	-0.993	0.077	-0.112	-10.08	-8.47	-24.99
39564	-1.008	0.12	-0.137	-20.23	-9.03	-31.43
39588	-1.017	0.062	-0.122	-20.3	-17.92	-34.65
39606	-1.006	0.068	-0.112	-15.68	-16.52	-30.31
39627	-1.002	0.045	-0.103	-10.08	-9.52	-28.77
39646	-1.017	0.038	-0.095	-10.85	-14.21	-30.03
39665	-0.985	-0.017	-0.116	-1.47	-14.14	-29.26
39690	-1.046	-0.081	-0.12	-5.67	-7.21	-27.02
39710	-1.004	-0.042	-0.067	-10.78	-10.99	-22.68
39734	-0.961	-0.102	-0.093	-5.74	-6.16	-17.22
39754	-0.978	-0.092	-0.088	3.57	-2.31	-14.35
39773	-0.971	-0.107	-0.093	3.22	2.94	-12.81
39793	-1.037	0.124	-0.078	10.92	-3.15	-10.57
39813	-0.994	0.023	-0.055	6.79	-2.66	-9.59
39832	-0.993	0.011	-0.062	2.38	0.77	-10.57
39856	-1.015	0.009	-0.09	-2.38	3.29	-9.52
39880	-1.023	-0.046	-0.06	-2.31	3.15	-9.94
39897	-0.986	-0.039	-0.1	0.49	3.01	-9.03
39917	-1.009	-0.028	-0.08	-0.98	3.57	-10.08
39941	-0.988	0.019	-0.11	-0.63	1.12	-12.67
39961	-0.981	-0.068	-0.073	-2.8	2.17	-11.97
39981	-0.986	-0.059	-0.107	-0.56	1.47	-10.22
39999	-0.982	-0.08	-0.101	4.06	4.06	-8.61
40021	-1.018	-0.066	-0.112	6.44	2.38	-8.54
40038	-1.021	-0.069	-0.102	6.09	0.56	-5.88
40058	-0.989	-0.067	-0.087	3.43	-0.21	-3.29
40082	-1.006	-0.098	-0.09	2.66	1.05	0.49
40100	-0.998	-0.116	-0.11	6.37	2.03	3.85
40120	-1.003	-0.108	-0.116	11.13	4.83	10.22
40139	-1.028	-0.055	-0.12	11.48	2.1	16.38
40163	-0.921	-0.067	-0.12	3.85	8.89	9.17
40183	-1.11	0.001	-0.127	20.23	-9.17	2.8
40206	-0.989	-0.016	-0.105	14.35	5.32	-0.07
40225	-1.003	0.011	-0.06	-17.64	-10.85	-3.29
40245	-1.057	0.01	-0.101	16.87	-11.55	-0.49
40270	-1.022	0.021	-0.102	10.92	-1.05	3.64
40289	-1.011	-0.012	-0.128	13.86	-1.19	0.77
40309	-1.007	-0.03	-0.121	16.94	-5.46	-2.8
40330	-0.976	-0.028	-0.105	8.54	-3.15	-3.43
40350	-1.005	-0.057	-0.108	7.56	-2.24	-0.77
40370	-0.991	-0.038	-0.104	10.5	-2.66	0.84
40394	-0.994	-0.025	-0.117	2.59	-3.64	-0.56
40414	-0.991	-0.028	-0.095	3.29	-4.13	-3.43
40434	-1.024	-0.029	-0.103	-2.45	-6.79	-4.13
40454	-1.002	-0.047	-0.102	-3.43	-4.41	-1.33
40474	-0.994	-0.076	-0.092	-3.15	-4.2	0.49
40494	-1.022	-0.046	-0.104	0.56	-3.92	3.5
40514	-1.009	-0.029	-0.113	0.84	-3.85	5.32
40538	-0.998	-0.036	-0.121	-7.0	-5.81	7.35
40558	-0.996	-0.062	-0.113	-5.67	-7.91	9.1
40578	-1.012	-0.054	-0.131	0.56	-9.24	11.41
40598	-0.996	-0.012	-0.082	-9.52	-14.21	9.38
40616	-1.033	-0.017	-0.086	7.49	-15.89	13.16
40636	-0.977	-0.045	-0.077	1.47	-3.57	17.43
40656	-0.98	-0.012	-0.041	1.68	1.61	18.69
40677	-1.025	-0.054	-0.061	9.52	1.33	20.51
40700	-0.996	0.018	-0.126	-0.28	6.93	24.22
40720	-1.025	0.043	-0.122	4.69	3.01	26.18
40740	-1.002	0.078	-0.117	1.82	-2.31	16.38
40757	-1.093	0.056	-0.111	-1.54	-8.05	19.18
40781	-1.015	0.125	-0.114	6.72	2.31	5.53
40800	-0.994	0.085	-0.068	-5.39	1.68	-4.27
40821	-0.983	0.041	-0.09	2.03	4.55	-7.49
40841	-1.006	0.053	-0.109	-10.01	0.21	-10.36
40857	-0.995	-0.035	-0.098	2.03	4.13	-5.25
40876	-1.009	0.027	-0.124	-0.77	1.19	-1.05
40901	-1.03	0.033	-0.126	3.71	0.56	6.79
40921	-1.005	0.009	-0.121	5.74	1.61	13.44
40936	-1.007	0.012	-0.091	7.56	6.23	16.52
40961	-0.988	0.042	-0.11	15.75	5.53	18.76
40977	-0.986	0.07	-0.124	13.93	3.92	16.94
40999	-0.983	0.044	-0.079	1.82	9.1	8.47
41020	-1.039	0.02	-0.128	16.17	10.71	10.78
41041	-1.016	0.037	-0.168	10.71	13.79	16.52
41064	-0.973	0.102	-0.179	14.0	7.7	15.68
41083	-0.991	0.169	-0.154	4.9	3.01	6.51
41101	-0.975	0.133	-0.146	2.66	3.08	-2.87
41121	-0.987	0.11	-0.159	0.28	2.59	-6.86
41140	-1.011	0.141	-0.162	-3.15	-2.94	-7.56
41165	-0.958	0.002	-0.157	-16.03	0.7	-12.53
41185	-0.996	-0.01	-0.13	2.52	0.42	-7.07
41203	-1.01	0.122	-0.127	-5.11	-4.55	-4.41
41223	-1.043	0.055	-0.178	6.72	-5.32	-1.47
41247	-0.992	0.062	-0.163	-0.14	-4.06	-2.59
41267	-0.996	0.08	-0.162	-0.84	-5.53	-0.49
41287	-1.006	0.058	-0.16	3.15	-6.23	0.14
41304	-1.013	0.094	-0.176	-1.54	-9.94	-0.28
41324	-0.997	0.081	-0.159	-1.89	-10.29	1.19
41344	-0.987	0.073	-0.157	-5.6	-11.55	0.63
41364	-1.001	0.113	-0.134	-2.73	-12.95	-1.26
41383	-0.986	0.104	-0.129	-4.27	-10.36	-3.22
41407	-0.989	0.077	-0.119	-7.14	-8.05	-7.91
41424	-0.994	0.091	-0.142	0.91	-7.28	-8.47
41444	-0.983	0.064	-0.122	2.45	-6.16	-9.66
41468	-0.981	0.026	-0.113	4.2	-4.27	-10.78
41488	-0.99	-0.007	-0.088	21.21	-0.07	-8.61
41508	-0.997	0.044	-0.107	24.57	2.24	-9.45
41531	-1.006	0.093	-0.106	26.6	2.03	-13.02
41548	-0.975	0.082	-0.125	24.08	6.23	-16.24
41570	-0.982	0.085	-0.145	15.4	6.51	-19.81
41590	-0.989	0.038	-0.118	13.51	4.06	-21.91
41610	-0.993	-0.018	-0.115	13.02	8.68	-21.63
41634	-0.992	0.042	-0.155	18.41	10.36	-19.11
41653	-0.993	0.026	-0.166	20.86	7.77	-18.97
41677	-0.995	0.024	-0.137	16.03	8.54	-19.74
41697	-0.961	-0.013	-0.154	17.57	13.58	-20.16
41717	-0.976	-0.034	-0.161	22.12	15.05	-19.04
41736	-0.998	0.004	-0.195	19.39	12.74	-18.34
41757	-0.983	-0.05	-0.161	16.17	9.59	-15.61
41777	-0.998	0.002	-0.208	18.97	10.29	-15.54
41792	-0.996	-0.061	-0.19	20.16	11.2	-13.93
41817	-0.997	-0.087	-0.18	22.96	10.29	-11.69
41837	-0.98	-0.039	-0.177	14.77	7.98	-13.16
41857	-0.998	0.022	-0.247	16.8	3.22	-14.49
41877	-0.984	-0.046	-0.215	7.07	-1.82	-17.78
41897	-0.97	-0.033	-0.201	2.03	-3.29	-19.81
41921	-0.996	-0.056	-0.194	0.77	-4.2	-17.99
41941	-0.979	-0.062	-0.201	-7.42	-3.22	-22.12
41961	-1.007	-0.093	-0.237	0.21	-5.6	-14.42
41981	-0.965	-0.056	-0.2	-8.19	-6.23	-17.92
42000	-0.955	0.017	-0.204	-18.27	-2.45	-27.44
42025	-1.111	-0.226	-0.221	-2.24	-15.75	-8.26
42043	-0.929	-0.123	-0.198	-12.25	-3.43	-5.81
42063	-1.004	-0.125	-0.215	-3.01	-10.15	-0.84
42087	-0.962	-0.094	-0.197	-1.89	-8.75	0.56
42107	-0.989	-0.051	-0.165	-1.05	-9.45	-0.98
42125	-0.982	-0.07	-0.193	-5.25	-9.45	-3.92
42146	-1.006	-0.092	-0.206	-5.6	-14.07	-1.47
42170	-1.033	-0.106	-0.195	-14.77	-18.83	6.79
42190	-0.977	-0.129	-0.177	-14.42	-21.77	8.19
42210	-1.017	-0.082	-0.192	-15.12	-19.88	9.94
42230	-0.963	-0.072	-0.186	-16.24	-19.32	11.76
42250	-0.996	-0.084	-0.161	-22.26	-14.14	14.28
42268	-0.98	-0.059	-0.137	-24.01	-15.47	14.91
42292	-0.993	-0.1	-0.147	-24.57	-14.07	15.89
42312	-1.017	-0.057	-0.187	-21.42	-14.7	15.4
42332	-1.018	-0.011	-0.163	-25.69	-14.21	10.99
42350	-1.023	-0.083	-0.115	-27.86	-16.73	9.31
42371	-0.971	0.049	-0.096	-24.99	-19.6	13.86
42395	-0.976	-0.106	-0.053	-25.76	-9.38	17.29
42415	-0.97	-0.076	-0.083	-18.83	-3.36	20.23
42435	-1.003	-0.029	-0.103	-13.51	3.85	21.07
42455	-1.022	0.012	-0.107	-11.41	5.46	18.13
42475	-1.011	0.031	-0.087	-17.36	11.9	18.34
42495	-1.072	0.04	-0.083	-21.0	15.05	14.35
42515	-1.201	-0.049	0.005	-21.98	-1.05	12.88
42535	-1.096	0.138	-0.028	-18.13	-4.34	16.87
42555	-1.068	0.207	-0.071	-16.45	-1.54	19.88
42573	-1.017	0.089	-0.055	-8.61	-6.65	22.26
42595	-0.991	-0.131	0.116	16.66	0.56	13.16
42615	-1.028	0.061	-0.088	25.83	-33.46	6.37
42635	-1.023	0.188	0.179	-0.21	-41.3	-3.29
42655	-0.939	0.149	0.04	-30.17	-52.36	-13.09
42675	-0.931	0.041	0.017	-58.94	-50.68	-21.91
42694	-0.91	-0.135	-0.014	-44.24	-45.15	-24.08
42714	-0.952	-0.12	-0.021	-18.34	-40.25	-20.44
42733	-1.045	0.176	-0.139	-8.4	-32.9	-12.88
42758	-1.029	0.053	-0.218	-24.15	-48.51	-21.84
42775	-0.873	-0.202	-0.14	1.4	-26.67	-16.8
42798	-0.891	-0.08	-0.217	7.63	-22.96	-20.51
42819	-0.932	-0.063	-0.252	5.25	-19.11	-22.61
42839	-0.882	-0.11	-0.245	2.59	-12.81	-21.07
42859	-0.937	0.04	-0.222	-1.33	-11.48	-24.01
42883	-0.869	-0.046	-0.142	-15.33	-1.26	-26.88
42902	-0.893	-0.077	-0.123	-17.85	0.98	-28.91
42921	-0.914	0.023	-0.116	-12.11	4.55	-29.19
42946	-1.433	0.029	0.165	-18.41	-20.72	-10.36
42966	-1.242	0.66	0.543	48.09	-1.19	-13.79
42986	-0.359	-1.046	-0.608	1.05	8.75	-13.86
43005	-1.632	0.629	0.433	58.31	56.42	-0.21
43026	-1.276	0.343	-0.271	-80.78	-24.08	-16.59
43046	-0.732	-0.151	-0.102	23.52	61.67	-4.69
43064	-1.203	0.088	-0.244	-7.91	13.72	-8.12
43085	-1.0	-0.142	0.064	-7.77	18.27	-8.47
43106	-0.917	-0.058	-0.284	14.63	20.65	-7.0
43126	-0.996	0.015	-0.062	7.84	12.46	-10.64
43150	-1.08	-0.06	-0.175	3.57	21.84	-28.21
43170	-0.961	-0.106	-0.007	28.56	8.19	-21.07
43190	-1.055	-0.21	-0.224	36.54	7.7	-14.63
43210	-1.018	-0.095	-0.107	14.84	3.64	-3.57
43226	-1.011	-0.113	-0.157	11.13	1.05	1.89
43249	-0.986	-0.094	-0.135	11.48	5.67	4.34
43265	-1.028	-0.006	-0.085	8.61	2.24	1.75
43288	-0.965	-0.079	-0.098	4.2	9.1	-3.22
43308	-0.983	-0.071	-0.123	1.68	3.92	-3.29
43332	-0.976	-0.122	-0.102	6.3	2.03	16.45
43352	-0.996	-0.136	-0.111	2.31	-0.42	4.27
43372	-0.997	-0.109	-0.125	10.71	-3.15	4.41
43390	-1.016	-0.056	-0.096	15.4	-7.0	5.25
43414	-1.001	-0.092	-0.119	10.78	-6.09	9.45
43433	-1.024	-0.145	-0.118	1.12	-6.93	14.77
43454	-1.027	0.031	-0.127	14.42	-7.35	19.25
43474	-0.951	-0.061	-0.094	-9.45	-5.46	19.46
43495	-1.014	-0.026	-0.123	-6.37	-9.66	21.28
43517	-1.052	-0.068	-0.101	-5.39	-10.36	19.25
43541	-1.052	-0.01	-0.077	-14.14	-17.78	20.02
43561	-0.991	-0.097	-0.054	-15.33	-14.63	30.31
43576	-0.977	-0.014	-0.07	-16.31	-8.89	33.88
43601	-1.02	0.011	-0.117	-27.51	-7.14	32.83
43621	-1.104	-0.142	0.012	-27.16	4.76	28.91
43642	-1.014	-0.04	-0.027	-25.48	21.84	28.14
43662	-1.118	0.224	0.061	-7.98	38.15	34.58
43686	-1.247	0.449	0.134	-16.94	27.86	36.05
43706	-1.318	0.525	0.275	-56.0	-2.73	12.25
43724	-1.019	-0.065	-0.073	-38.64	-28.7	-8.96
43746	-1.14	-0.461	-0.512	89.18	-23.1	16.31
43765	-0.736	0.211	0.435	40.74	-107.59	7.14
43785	-0.002	-0.437	-0.503	34.23	-17.08	-3.92
43807	-2.121	0.539	-0.079	-42.98	-218.47	-29.19
43825	0.384	-0.191	0.367	37.45	105.98	-23.45
43844	-0.661	-0.123	-1.073	-75.88	113.19	6.86
43865	-1.637	-2.282	-0.538	38.85	-26.39	-24.5
43889	0.551	-0.066	0.36	-10.01	44.31	65.66
43913	-1.9	0.141	-0.272	-17.43	89.95	19.25
43933	-0.873	0.305	-0.423	37.87	23.8	27.72
43953	-1.311	0.457	-0.121	-40.18	0.7	14.98
43971	-0.719	0.136	0.04	-19.53	33.11	9.8
43992	-1.1	-0.054	-0.205	-5.46	19.11	19.18
44012	-0.975	-0.08	-0.086	20.72	63.14	43.19
44032	-0.996	0.198	-0.254	31.43	69.02	54.25
44056	-1.007	0.237	-0.183	18.13	48.16	41.72
44075	-0.743	0.109	-0.1	36.96	69.37	41.65
44094	-0.885	0.141	-0.3	11.62	44.66	24.71
44114	-0.947	0.158	-0.35	15.26	37.94	27.79
44138	-1.021	0.258	-0.299	2.45	45.92	38.92
44158	-1.016	0.162	-0.285	33.6	42.63	28.42
44181	-0.954	0.248	-0.435	21.35	40.46	19.18
44205	-0.947	0.308	-0.409	10.99	27.16	23.38
44223	-1.025	0.304	-0.428	7.63	17.85	21.77
44241	-0.856	0.298	-0.353	10.43	21.42	22.61
44261	-0.882	0.208	-0.411	6.3	16.24	25.2
44285	-0.932	0.225	-0.432	-2.1	8.12	25.48
44305	-0.947	0.262	-0.411	-3.5	1.4	24.5
44320	-0.966	0.343	-0.429	-0.21	0.91	21.84
44341	-0.897	0.214	-0.355	-8.33	-2.31	20.3
44360	-0.912	0.258	-0.371	-11.27	-1.89	20.93
44382	-0.86	0.248	-0.396	-7.84	0.77	20.79
44401	-0.903	0.325	-0.421	-3.29	-3.5	18.34
44420	-0.885	0.32	-0.418	-8.05	-11.06	14.63
44440	-0.901	0.275	-0.499	-11.9	-10.92	15.68
44465	-0.865	0.194	-0.345	2.31	-9.31	20.93
44485	-0.901	0.313	-0.338	-7.07	-7.0	17.22
44502	-0.91	0.421	-0.342	-14.63	-4.06	16.52
44522	-0.836	0.303	-0.39	-10.08	-4.97	15.47
44542	-0.862	0.342	-0.325	-10.29	-7.56	14.63
44563	-0.863	0.328	-0.356	-6.79	-6.65	13.86
44585	-0.834	0.396	-0.33	-6.09	0.77	14.77
44610	-0.864	0.329	-0.38	-2.66	-10.92	9.87
44628	-0.907	0.338	-0.311	-5.04	-10.01	9.03
44648	-0.842	0.359	-0.333	-2.59	-4.83	8.26
44668	-0.844	0.505	-0.291	-36.68	-4.06	-2.24
44692	-0.929	0.596	-0.299	-20.44	-6.16	3.36
44712	-0.811	0.384	-0.33	-0.98	0.0	7.42
44732	-0.876	0.337	-0.306	-2.73	1.4	6.65
44747	-0.999	0.396	-0.346	-2.73	6.86	8.96
44768	-0.853	0.407	-0.325	-6.93	7.63	10.64
44790	-0.855	0.355	-0.345	0.49	9.66	16.59
44814	-0.86	0.431	-0.321	-2.73	11.69	16.38
44832	-0.851	0.459	-0.31	1.19	13.3	12.81
44856	-0.863	0.451	-0.326	1.68	16.03	11.27
44872	-0.881	0.4	-0.362	6.37	11.9	12.04
44895	-0.866	0.453	-0.349	10.92	11.69	12.04
44916	-0.869	0.423	-0.414	15.54	6.37	11.41
44940	-0.789	0.417	-0.371	16.17	14.28	5.04
44956	-0.807	0.474	-0.358	13.23	17.15	0.7
44975	-0.821	0.459	-0.364	12.88	15.47	-6.79
44999	-0.821	0.617	-0.435	4.55	5.25	-12.11
45020	-0.835	0.444	-0.45	15.19	2.17	-13.79
45040	-0.847	0.424	-0.452	16.73	-1.68	-15.19
45060	-0.813	0.407	-0.484	16.8	-0.63	-18.83
45080	-0.844	0.42	-0.463	3.43	-6.86	-26.25
45100	-0.82	0.492	-0.447	0.7	-9.59	-29.4
45115	-0.856	0.419	-0.472	-3.71	-12.67	-32.41
45140	-0.891	0.231	-0.501	-2.45	-21.84	-30.73
45158	-0.867	0.44	-0.419	-9.66	-18.48	-26.88
45182	-0.879	0.373	-0.468	-14.56	-23.59	-31.15
45202	-0.88	0.49	-0.363	-26.39	-32.76	-32.06
45220	-0.87	0.354	-0.385	-25.48	-39.06	-33.11
45244	-0.856	0.293	-0.34	-29.33	-33.46	-31.99
45261	-0.902	0.236	-0.366	-20.09	-37.87	-31.92
45282	-0.892	0.287	-0.362	-10.71	-38.71	-32.62
45304	-0.867	0.374	-0.381	-15.05	-50.89	-31.43
45323	-0.894	0.325	-0.277	-32.97	-58.38	-41.93
45348	-0.889	0.153	-0.294	-24.15	-57.12	-51.31
45363	-0.805	-0.066	-0.183	-0.21	-49.14	-53.76
45388	-1.088	0.502	-0.348	4.27	-52.08	-56.42
45407	-0.949	0.334	-0.237	-16.94	-52.64	-57.68
45427	-1.024	0.342	-0.23	-5.18	-71.05	-67.9
45448	-0.998	0.177	-0.142	-32.13	-71.68	-69.3
45467	-0.691	-0.127	-0.0	1.82	-64.82	-73.85
45491	-1.058	0.278	-0.201	0.28	-43.96	-77.07
45511	-1.135	0.355	-0.271	-56.98	-71.61	-78.4
45531	-0.898	0.181	-0.103	-13.37	-20.51	-59.57
45555	-1.152	-0.181	0.04	-32.76	-51.94	-50.26
45573	-1.092	-0.163	0.032	-18.69	-62.65	-36.61
45595	-0.889	-0.088	-0.067	5.95	-56.56	-26.81
45610	-0.899	0.004	-0.063	20.3	-53.41	-22.4
45635	-0.896	0.127	0.08	1.4	-15.82	-28.14
45655	-0.939	-0.062	0.151	-17.78	-4.83	-20.58
45675	-0.999	-0.05	0.032	-11.76	4.2	-11.27
45694	-1.059	-0.055	0.052	-12.25	-8.54	-1.89
45715	-0.953	-0.128	0.003	-5.04	1.12	8.75
45734	-1.001	-0.013	-0.053	0.77	0.42	14.28
45754	-1.008	-0.105	0.041	-4.97	5.74	16.17
45772	-0.959	-0.085	0.017	-2.87	2.94	21.98
45792	-0.927	-0.039	0.028	9.59	15.61	27.16
45816	-0.979	-0.019	0.003	23.03	18.34	25.55
45836	-0.971	0.009	-0.016	34.51	22.12	22.19
45856	-0.99	0.096	-0.072	35.07	26.18	22.68
45875	-1.017	0.009	0.081	24.57	36.05	24.15
45894	-1.181	0.464	-0.159	101.57	14.77	28.0
45914	-0.921	0.203	-0.017	41.3	39.9	34.79
45938	-1.027	0.05	-0.032	28.7	38.64	35.84
45958	-0.925	0.026	0.0	12.32	56.35	32.9
45978	-0.925	-0.057	-0.092	47.04	79.59	60.76
45998	-0.931	0.363	-0.213	29.33	57.12	69.65
46017	-0.875	0.052	-0.171	-0.56	86.38	60.13
46041	-1.035	0.176	-0.155	29.12	64.47	65.8
46061	-0.832	0.128	-0.304	39.83	87.08	58.03
46080	-0.992	0.281	-0.318	32.2	79.31	56.84
46100	-0.863	0.23	-0.258	18.62	76.51	40.04
46121	-0.908	0.28	-0.364	43.26	72.52	33.67
46138	-0.92	0.264	-0.43	23.59	62.86	34.02
46157	-0.787	0.241	-0.456	23.52	66.36	26.53
46182	-0.852	0.317	-0.451	6.23	54.74	21.91
46202	-0.792	0.259	-0.413	20.02	47.53	18.13
46220	-0.905	0.363	-0.458	12.53	36.33	14.63
46240	-0.846	0.301	-0.498	17.22	38.57	11.13
46264	-0.861	0.27	-0.485	16.73	35.49	16.1
46284	-0.837	0.128	-0.482	15.26	36.61	17.29
46304	-0.828	0.309	-0.503	18.9	29.82	22.96
46324	-0.846	0.3	-0.547	10.78	22.54	20.16
46345	-0.793	0.305	-0.555	7.0	19.04	20.02
46366	-0.795	0.296	-0.578	0.7	17.99	18.55
46385	-0.74	0.277	-0.548	0.42	12.6	20.44
46410	-0.803	0.298	-0.521	2.59	11.34	21.14
46430	-0.777	0.313	-0.563	-5.39	5.11	19.04
46449	-0.793	0.366	-0.569	-10.22	6.44	14.35
46465	-0.773	0.347	-0.558	-5.46	5.53	12.39
46490	-0.757	0.36	-0.549	-4.27	2.24	10.5
46510	-0.756	0.326	-0.566	-4.48	-2.87	11.2
46530	-0.774	0.351	-0.539	-8.89	-3.99	8.47
46549	-0.799	0.33	-0.533	-15.82	-4.2	10.99
46569	-0.813	0.371	-0.55	-8.82	-3.99	13.37
46593	-0.725	0.371	-0.571	-12.04	-5.67	12.11
46616	-0.747	0.295	-0.526	-8.33	-8.05	14.49
46637	-0.748	0.328	-0.529	-12.32	-12.39	15.96
46657	-0.758	0.352	-0.462	-14.49	-8.54	17.99
46678	-0.817	0.18	-0.372	-16.17	-8.12	18.9
46700	-0.804	0.353	-0.53	-22.47	-6.86	19.74
46724	-0.732	0.5	-0.494	-11.97	-9.24	17.64
46744	-0.718	0.463	-0.459	-3.08	-6.93	17.92
46763	-0.773	0.446	-0.51	-4.69	-5.88	16.38
46784	-0.768	0.457	-0.462	-9.31	-2.59	15.05
46804	-0.771	0.458	-0.474	-3.15	0.0	15.54
46823	-0.737	0.493	-0.472	-0.14	1.68	12.25
46846	-0.775	0.425	-0.476	3.92	3.43	8.47
46866	-0.742	0.386	-0.472	4.97	6.79	4.2
46890	-0.742	0.454	-0.478	15.54	8.61	0.84
46910	-0.772	0.408	-0.533	15.05	8.33	0.0
46930	-0.75	0.472	-0.505	17.64	8.54	-0.7
46950	-0.74	0.447	-0.54	20.23	8.05	-2.8
46969	-0.725	0.469	-0.523	20.02	7.49	-4.69
46989	-0.721	0.455	-0.546	19.11	6.65	-7.42
47013	-0.734	0.447	-0.554	26.04	5.39	-8.54
47032	-0.752	0.415	-0.544	15.68	-2.87	-12.18
47053	-0.77	0.384	-0.599	15.4	-5.39	-13.23
47073	-0.743	0.417	-0.591	13.51	-8.82	-11.97
47088	-0.745	0.448	-0.59	9.24	-13.79	-12.53
47112	-0.742	0.471	-0.615	-0.77	-20.65	-15.68
47132	-0.752	0.406	-0.576	-7.98	-26.11	-18.27
47156	-0.736	0.504	-0.556	-8.89	-31.36	-20.93
47176	-0.758	0.414	-0.569	-17.15	-34.79	-25.62
47195	-0.789	0.378	-0.589	-19.46	-39.27	-31.78
47216	-0.808	0.425	-0.554	-31.36	-46.34	-36.68
47236	-0.779	0.503	-0.482	-71.12	-43.05	-40.74
47256	-0.799	0.389	-0.482	-62.58	-53.41	-43.05
47274	-0.792	0.357	-0.467	-52.22	-58.31	-38.71
47295	-0.882	0.364	-0.469	-48.72	-79.24	-44.8
47318	-0.848	0.209	-0.442	-44.87	-101.22	-51.94
47337	-0.858	0.245	-0.346	-37.66	-111.3	-50.4
47358	-0.702	0.181	-0.42	-11.34	-79.31	-58.73
47376	-0.93	0.363	-0.29	-18.06	-70.98	-63.7
47395	-0.954	0.203	-0.165	-6.51	-85.68	-68.74
47420	-0.892	0.285	-0.265	-3.5	-74.41	-71.12
47439	-0.933	0.336	-0.215	-2.52	-64.75	-74.55
47460	-0.95	0.298	-0.127	-15.4	-77.21	-71.54
47477	-0.887	0.271	-0.128	-19.46	-65.66	-66.71
47496	-0.924	0.207	-0.094	-21.98	-55.09	-59.99
47520	-0.97	0.173	-0.038	-30.94	-58.45	-55.79
47541	-1.075	0.282	-0.144	-32.9	-36.89	-47.53
47560	-1.055	-0.065	-0.224	-50.75	-58.8	-39.27
47583	-0.9	-0.029	0.034	-27.86	-63.28	-52.15
47601	-0.889	-0.081	0.043	-14.98	-35.21	-35.63
47625	-1.002	-0.037	0.013	17.15	-27.16	-19.46
47645	-0.969	0.081	0.077	6.65	-22.26	-12.46
47665	-0.933	0.075	0.14	-3.92	-7.35	-9.03
47685	-0.99	0.065	-0.013	-9.73	5.88	-2.31
47710	-1.003	0.003	0.004	-7.91	1.12	5.04
47725	-0.996	-0.023	0.02	-3.71	5.39	8.82
47744	-0.996	0.086	-0.096	1.4	6.23	10.29
47769	-1.044	0.084	0.028	4.76	3.57	12.39
47789	-0.982	-0.002	0.018	7.91	6.51	16.1
47805	-0.964	0.004	0.044	13.44	14.14	21.77
47825	-0.973	0.063	-0.016	14.42	17.08	25.76
47844	-0.986	0.152	-0.014	18.83	19.88	27.16
47869	-0.962	0.132	-0.023	15.96	20.16	21.91
47888	-0.928	0.096	0.065	21.98	35.14	14.98
47907	-0.989	0.142	-0.036	21.49	46.55	18.9
47927	-0.98	0.148	-0.269	29.61	46.06	21.14
47951	-1.111	0.36	-0.135	41.58	12.88	13.09
47974	-0.87	0.163	-0.03	52.29	40.88	16.45
47995	-1.032	0.125	-0.191	42.63	47.11	25.2
48011	-1.014	0.151	-0.076	32.27	31.15	33.46
48031	-0.861	0.11	-0.137	43.54	65.66	41.65
48050	-0.956	0.217	-0.278	56.91	51.52	39.13
48071	-0.961	0.171	-0.196	1.12	48.93	33.39
48094	-0.943	0.083	-0.291	38.85	57.47	47.32
48115	-0.926	0.177	-0.231	47.88	44.87	65.8
48131	-0.815	0.33	-0.287	47.25	58.8	52.99
48155	-1.115	0.39	-0.262	-10.71	36.82	28.42
48175	-0.864	0.367	-0.306	3.15	37.03	27.51
48190	-0.878	0.353	-0.342	3.64	51.8	25.48
48210	-0.792	0.244	-0.324	24.08	65.38	20.65
48234	-0.969	0.308	-0.425	3.78	40.04	5.95
48253	-0.84	0.334	-0.396	10.5	40.04	2.52
48273	-0.873	0.289	-0.381	5.04	44.38	-4.2
48293	-0.873	0.247	-0.472	-1.96	36.19	-6.37
48317	-0.756	0.337	-0.503	4.97	38.43	-2.45
48337	-0.826	0.285	-0.442	7.63	28.84	-3.29
48355	-0.84	0.256	-0.453	6.86	26.25	-2.73
48372	-0.833	0.314	-0.491	12.04	26.6	1.12
48397	-0.921	0.266	-0.513	4.83	18.76	3.43
48415	-0.815	0.279	-0.525	5.81	21.28	7.98
48437	-0.815	0.295	-0.528	7.49	14.7	5.67
48455	-0.829	0.261	-0.514	4.27	8.4	4.69
48474	-0.812	0.286	-0.519	7.7	7.49	8.47
48499	-0.815	0.222	-0.534	3.57	4.27	12.32
48519	-0.828	0.265	-0.51	3.29	2.73	12.95
48539	-0.832	0.258	-0.516	-4.97	0.35	14.91
48556	-0.834	0.248	-0.53	-5.6	-2.87	18.83
48580	-0.808	0.339	-0.545	-11.69	-6.58	20.44
48600	-0.81	0.351	-0.492	-12.04	-10.85	21.28
48620	-0.835	0.319	-0.53	-17.01	-11.55	23.8
48638	-0.807	0.33	-0.489	-15.12	-13.37	24.01
48658	-0.814	0.38	-0.489	-19.81	-17.22	22.54
48682	-0.791	0.39	-0.455	-14.42	-19.32	20.44
48702	-0.789	0.34	-0.45	-12.81	-16.87	18.13
48721	-0.844	0.423	-0.627	-24.36	-18.41	10.36
48740	-0.821	0.504	-0.488	6.58	-14.84	11.9
48764	-0.775	0.205	-0.462	2.03	-7.14	11.9
48784	-0.753	0.416	-0.464	-7.91	-4.48	5.32
48803	-0.828	0.445	-0.407	1.89	-9.03	6.02
48827	-0.781	0.432	-0.44	-10.85	-2.31	4.34
48846	-0.766	0.408	-0.408	-6.44	3.29	5.88
48864	-0.754	0.403	-0.434	-3.71	5.04	6.72
48887	-0.829	0.416	-0.447	2.1	2.24	4.69
48907	-0.789	0.405	-0.436	4.13	5.6	1.33
48931	-0.789	0.441	-0.419	11.41	9.87	-3.78
48947	-0.78	0.4	-0.45	14.49	10.22	-6.09
48971	-0.774	0.419	-0.451	17.36	11.55	-9.03
48987	-0.787	0.452	-0.463	20.72	11.69	-13.16
49011	-0.771	0.416	-0.487	21.84	13.16	-17.22
49029	-0.828	0.294	-0.58	53.69	10.92	-14.49
49053	-0.793	0.367	-0.5	40.04	9.45	-21.14
49073	-0.794	0.367	-0.539	34.37	9.52	-23.59
49093	-0.815	0.316	-0.549	30.52	0.28	-21.49
49111	-0.798	0.36	-0.582	26.39	16.94	-25.55
49134	-0.794	0.339	-0.576	13.58	-5.46	-24.85
49155	-0.806	0.37	-0.587	6.09	-11.83	-25.06
49170	-0.834	0.324	-0.581	1.82	-21.49	-21.91
49193	-0.835	0.34	-0.565	-2.8	-28.7	-18.06
49214	-0.844	0.279	-0.58	-17.29	-41.65	-13.16
49238	-0.863	0.359	-0.523	-40.32	-56.35	-15.12
49258	-0.837	1.172	0.153	-87.64	-71.61	2.03
49277	-0.447	-0.459	-1.145	26.11	11.69	-11.34
49302	-1.243	0.502	-0.301	-20.23	-39.76	-30.8
49321	-0.744	0.222	-0.424	-14.98	-49.91	-28.49
49340	-0.884	0.316	-0.383	-17.15	-50.68	-37.1
49360	-0.797	0.208	-0.409	-12.11	-51.17	-27.51
49379	-0.943	0.302	-0.338	-8.4	-64.33	-41.86
49402	-0.92	0.323	-0.338	-12.25	-55.51	-43.19
49426	-0.919	0.281	-0.289	-6.58	-63.91	-44.38
49445	-0.913	0.257	-0.284	-3.78	-68.95	-45.5
49466	-0.909	0.218	-0.203	0.98	-66.08	-47.6
49483	-0.933	0.187	-0.206	-0.49	-65.17	-52.43
49506	-0.973	0.234	-0.212	-7.84	-59.85	-49.56
49526	-0.912	0.239	-0.276	-9.59	-59.64	-53.34
49550	-1.052	0.261	-0.232	-13.3	-54.11	-58.87
49569	-1.064	0.178	-0.177	-29.61	-66.01	-62.09
49589	-1.073	0.072	-0.07	-25.41	-62.58	-36.4
49608	-0.971	0.043	-0.134	-27.44	-63.84	-34.86
49633	-1.067	0.032	-0.05	-10.01	-73.22	-27.44
49652	-0.925	0.056	-0.073	12.95	-79.03	-27.72
49674	-0.955	0.217	0.048	20.65	-71.54	-34.3
49698	-0.933	0.278	0.133	-3.29	-54.32	-38.99
49718	-0.92	0.1	0.17	-32.9	-31.01	-40.6
49738	-0.927	-0.053	0.101	-36.05	-17.78	-33.74
49756	-0.973	-0.128	0.02	-24.57	-9.1	-24.57
49775	-1.01	-0.1	0.019	-13.58	-7.91	-15.19
49798	-0.986	-0.101	0.023	-3.99	-8.61	-9.24
49820	-0.974	-0.067	0.02	-3.71	0.91	-5.04
49840	-1.05	-0.072	0.077	13.93	5.6	2.94
49859	-1.052	0.095	0.04	0.21	-10.71	4.76
49884	-0.97	0.059	0.074	-3.15	-4.48	5.18
49901	-1.0	0.046	0.051	0.21	-1.05	4.13
49920	-1.007	0.034	0.024	-1.19	-0.63	1.26
49945	-0.992	0.025	0.022	-6.86	3.29	-1.96
49965	-0.994	-0.012	0.018	-5.46	2.45	-0.07
49984	-0.988	-0.003	0.061	2.59	0.63	6.02
50005	-0.971	-0.053	0.078	9.45	6.02	11.9
50021	-0.981	-0.062	0.097	17.29	8.26	15.68
50044	-0.958	-0.066	0.105	25.62	16.87	20.02
50064	-0.973	-0.038	0.105	37.94	29.26	24.43
50084	-0.983	0.078	0.054	39.55	38.99	26.46
50104	-0.962	0.048	0.059	41.93	44.73	23.66
50128	-0.931	0.216	-0.024	45.08	46.34	15.4
50148	-0.938	0.329	-0.058	22.61	58.87	8.82
50163	-1.022	0.129	-0.088	12.11	97.51	-0.28
50188	-0.65	0.018	0.147	-63.7	14.14	25.69
50208	-0.931	-0.128	-0.373	44.24	133.49	37.94
50226	-1.679	0.377	-0.252	31.43	-58.59	8.89
50249	-0.563	0.013	0.06	4.9	70.21	33.39
50270	-1.87	0.315	-0.363	13.65	-51.38	20.86
50290	-0.272	-0.171	0.025	0.21	79.52	41.3
50309	-1.232	0.171	-0.383	29.19	18.13	30.94
50329	-1.042	0.323	-0.305	30.87	47.53	27.79
50348	-1.009	0.363	-0.266	5.18	38.43	19.46
50372	-0.989	0.256	-0.23	5.53	36.61	22.89
50391	-0.87	0.083	-0.314	6.93	51.17	26.88
50409	-0.856	0.113	-0.346	18.2	46.27	27.58
50429	-0.876	0.257	-0.327	21.42	41.02	22.19
50449	-0.939	0.254	-0.278	3.85	28.21	6.72
50473	-0.918	0.232	-0.385	7.35	37.24	6.86
50493	-0.874	0.209	-0.381	7.91	33.04	3.5
50513	-0.929	0.121	-0.393	15.61	19.46	0.0
50532	-0.916	0.224	-0.366	16.31	20.3	1.47
50553	-0.877	0.186	-0.415	6.51	31.22	7.7
50570	-0.961	0.203	-0.422	3.43	25.9	9.94
50590	-0.902	0.211	-0.389	5.04	23.87	8.82
50609	-0.928	0.245	-0.415	3.99	22.26	6.23
50634	-0.861	0.244	-0.398	16.17	23.8	14.56
50654	-0.826	0.173	-0.49	1.47	16.31	9.59
50674	-0.937	0.246	-0.467	-5.32	5.25	7.07
50694	-0.878	0.135	-0.459	-2.87	1.54	5.67
50712	-0.865	0.286	-0.445	-2.66	3.64	7.98
50734	-0.933	0.233	-0.467	-1.19	-3.43	5.39
50752	-0.9	0.271	-0.468	0.21	-9.45	3.01
50776	-0.922	0.148	-0.436	-2.94	-10.5	5.32
50794	-0.856	0.286	-0.421	-11.34	-7.42	7.35
50815	-0.823	0.283	-0.39	-2.59	-7.14	9.94
50838	-0.902	0.26	-0.455	-10.78	-13.72	8.54
50860	-0.875	0.21	-0.381	-4.34	-13.65	8.05
50879	-0.916	0.227	-0.422	-7.28	-13.79	9.87
50898	-0.902	0.277	-0.414	-3.78	-19.88	9.94
50918	-0.862	0.097	-0.349	-6.65	-13.37	9.94
50942	-0.996	0.272	-0.415	-12.39	-17.5	7.77
50962	-0.829	0.369	-0.352	-9.24	-7.14	9.1
50982	-0.94	0.217	-0.367	-2.24	-8.82	10.43
51001	-0.844	0.299	-0.386	-1.68	-5.88	12.46
51022	-0.905	0.278	-0.352	-4.48	-5.88	13.65
51042	-0.89	0.295	-0.373	2.73	0.07	15.26
51062	-0.889	0.306	-0.363	-2.24	3.22	12.25
51086	-0.874	0.34	-0.372	-0.63	5.11	7.28
51106	-0.862	0.326	-0.38	3.08	7.0	4.34
51126	-0.865	0.339	-0.402	6.23	7.28	0.21
51147	-0.852	0.335	-0.407	10.08	6.51	-3.71
51171	-0.851	0.319	-0.405	12.6	5.88	-7.77
51191	-0.865	0.313	-0.405	14.56	5.53	-10.22
51211	-0.872	0.193	-0.547	38.22	13.72	-11.55
51229	-0.947	0.154	-0.427	24.43	-3.29	-18.48
51248	-0.9	0.346	-0.443	12.6	2.73	-20.02
51271	-0.753	0.26	-0.451	15.54	-0.14	-19.53
51292	-0.891	0.294	-0.481	14.91	-4.27	-18.62
51310	-0.875	0.285	-0.469	5.53	-7.28	-20.23
51333	-0.897	0.254	-0.477	-7.07	-13.44	-19.46
51357	-0.891	0.266	-0.462	-8.05	-18.41	-19.18
51376	-0.877	0.298	-0.466	-8.19	-24.99	-19.88
51396	-0.915	0.287	-0.451	-10.99	-29.33	-21.14
51416	-0.91	0.265	-0.415	-16.66	-32.55	-21.77
51435	-0.879	0.255	-0.455	-13.51	-34.3	-20.37
51455	-0.91	0.265	-0.397	-19.53	-39.06	-22.89
51478	-0.954	0.193	-0.423	-6.86	-46.06	-23.8
51499	-0.875	0.276	-0.377	-9.73	-38.29	-24.01
51519	-0.853	0.166	-0.386	3.36	-41.79	-23.87
51538	-0.961	0.054	-0.306	-8.12	-61.18	-31.57
51558	-0.874	0.196	-0.326	6.02	-70.07	-31.08
51582	-0.956	0.284	-0.189	-4.27	-70.42	-38.57
51600	-0.918	0.176	-0.21	0.56	-76.16	-40.95
51621	-0.927	0.181	-0.232	2.38	-73.57	-45.08
51642	-1.004	0.156	-0.159	2.8	-79.31	-46.2
51662	-0.942	0.047	-0.133	-2.24	-84.63	-47.67
51681	-1.051	0.211	-0.157	-10.57	-68.25	-48.72
51705	-1.019	0.204	-0.067	-5.39	-63.28	-35.7
51723	-0.839	0.113	-0.152	-11.62	-24.43	-28.35
51743	-1.144	0.049	0.079	-29.05	-40.04	-27.44
51767	-0.97	-0.047	-0.047	-30.66	-56.56	-12.25
51787	-0.99	-0.089	0.052	-0.98	-39.34	-10.78
51807	-0.94	-0.012	-0.002	10.57	-36.75	-9.45
51826	-1.0	0.153	0.02	12.53	-21.42	-10.36
51845	-0.998	0.129	0.073	-6.93	-20.23	-10.92
51865	-0.954	0.028	0.024	-15.05	-6.65	-8.61
51889	-1.014	0.029	-0.017	-10.64	-2.03	-4.83
51909	-1.03	-0.009	-0.023	-9.31	-7.49	-2.45
51929	-1.02	0.046	-0.028	-1.4	-5.25	-0.77
51949	-1.02	0.026	0.063	-5.74	-11.13	2.31
51969	-0.928	0.078	-0.025	-4.13	-0.56	6.51
51988	-1.021	0.097	0.018	-5.81	-4.69	4.41
52013	-0.967	-0.022	0.073	-6.72	-1.89	5.81
52032	-0.926	-0.159	0.139	0.35	13.02	12.39
52053	-0.948	-0.123	0.109	22.82	31.08	18.27
52070	-0.919	-0.085	0.017	35.35	42.56	21.7
52089	-0.962	0.242	-0.123	50.19	50.82	20.86
52113	-1.779	0.729	-0.32	119.91	-9.52	-17.29
52134	-0.822	0.093	0.096	23.52	49.0	-8.4
52154	-0.832	-0.111	0.029	57.54	87.64	17.85
52172	-1.127	0.16	-0.254	61.25	67.27	25.83
52194	-0.924	0.019	0.022	31.29	65.59	32.76
52213	-1.023	-0.02	-0.099	67.2	68.39	44.59
52237	-0.934	0.131	-0.232	38.43	96.95	41.23
52254	-1.064	0.053	-0.268	50.47	71.4	44.24
52278	-0.924	0.155	-0.273	38.08	82.67	45.85
52298	-0.836	0.27	-0.375	50.61	77.56	46.83
52317	-0.956	0.275	-0.268	17.22	80.22	32.55
52342	-0.915	0.139	-0.352	28.84	83.51	25.83
52362	-0.932	0.173	-0.427	23.73	77.21	17.78
52379	-0.905	0.201	-0.43	15.05	72.17	16.59
52402	-0.819	0.23	-0.478	16.73	65.1	20.02
52425	-0.867	0.235	-0.477	21.28	59.85	10.08
52444	-0.859	0.231	-0.512	25.97	56.77	3.92
52463	-0.837	0.187	-0.56	22.12	53.27	0.84
52488	-0.869	0.172	-0.533	11.48	46.34	0.14
52506	-0.841	0.196	-0.554	19.18	39.83	-0.91
52527	-0.904	0.25	-0.546	2.59	18.13	-8.82
52549	-0.727	0.227	-0.568	-0.7	29.4	-6.44
52568	-0.772	0.153	-0.598	-9.59	21.98	-6.93
52593	-0.763	0.161	-0.659	-14.28	11.27	-6.93
52613	-0.813	0.237	-0.649	-10.22	7.28	-3.01
52628	-0.826	0.102	-0.614	-9.59	7.98	3.29
52653	-0.832	0.248	-0.637	-11.83	3.36	5.74
52673	-0.775	0.217	-0.604	-15.54	-4.27	6.23
52692	-0.796	0.133	-0.609	-5.74	-6.02	10.01
52716	-0.813	0.088	-0.615	0.77	-9.87	12.46
52736	-0.825	0.207	-0.591	-12.25	-6.23	5.32
52759	-0.845	0.146	-0.594	-16.24	-14.49	11.13
52779	-0.826	0.16	-0.613	-12.67	-15.4	10.36
52799	-0.817	0.152	-0.598	-6.93	-19.6	14.7
52819	-0.834	0.208	-0.564	-17.71	-17.78	6.58
52839	-0.783	0.308	-0.537	-18.9	-18.9	3.08
52858	-0.775	0.242	-0.547	-16.38	-18.48	-0.28
52881	-0.766	0.213	-0.573	-11.76	-20.16	5.6
52900	-0.801	0.377	-0.72	-10.29	-32.34	3.85
52925	-0.749	0.2	-0.635	2.17	-20.37	11.62
52945	-0.809	0.134	-0.505	-3.85	-18.83	12.11
52965	-0.824	0.305	-0.494	-10.36	-16.38	9.73
52985	-0.831	0.245	-0.496	-9.66	-15.12	9.8
53009	-0.837	0.336	-0.469	-11.34	-11.2	8.82
53027	-0.858	0.199	-0.471	-2.31	-6.44	10.92
53049	-0.827	0.293	-0.486	-3.5	-4.48	8.96
53073	-0.826	0.276	-0.482	-5.11	-1.61	10.57
53093	-0.834	0.301	-0.48	1.54	2.87	6.02
53111	-0.826	0.292	-0.491	9.31	4.83	4.97
53135	-0.773	0.308	-0.497	7.42	8.89	-0.91
53154	-0.812	0.307	-0.498	10.08	7.14	-5.46
53173	-0.797	0.351	-0.503	13.09	8.33	-9.87
53192	-0.824	0.101	-0.486	34.79	10.64	-9.17
53216	-0.82	0.11	-0.467	18.55	4.34	-11.62
53233	-0.831	0.359	-0.556	17.78	3.43	-15.54
53256	-0.804	0.289	-0.552	11.62	-0.07	-17.22
53272	-0.838	0.268	-0.566	12.88	-3.08	-16.87
53296	-0.806	0.298	-0.582	10.15	-7.77	-16.17
53320	-0.826	0.264	-0.578	1.4	-13.72	-17.99
53340	-0.839	0.289	-0.599	-5.67	-21.0	-18.76
53356	-0.812	0.208	-0.576	-6.16	-25.9	-17.22
53375	-0.856	0.217	-0.567	-6.3	-32.13	-12.88
53400	-0.849	0.258	-0.524	-15.61	-41.23	-8.61
53420	-0.824	0.344	-0.532	-40.74	-39.2	-13.09
53440	-0.872	0.241	-0.499	-36.68	-47.04	-18.06
53464	-0.849	0.239	-0.507	-31.85	-57.19	-18.62
53484	-0.88	0.237	-0.448	-34.37	-59.92	-32.62
53503	-0.835	0.171	-0.386	-25.83	-66.78	-24.43
53522	-0.874	0.208	-0.399	-11.9	-76.72	-23.52
53541	-0.859	0.166	-0.384	-9.31	-73.15	-22.96
53565	-0.916	0.225	-0.312	-11.69	-79.38	-30.31
53585	-0.906	0.174	-0.316	-9.31	-75.88	-32.69
53605	-0.907	0.256	-0.278	-10.99	-83.65	-34.79
53629	-0.962	0.229	-0.178	-35.63	-84.63	-43.75
53647	-0.958	0.129	-0.243	-15.89	-85.19	-46.76
53667	-1.009	0.185	-0.236	-27.3	-83.16	-49.56
53687	-0.936	0.124	-0.254	-31.5	-82.74	-52.36
53711	-1.001	0.158	-0.214	-20.23	-67.27	-34.79
53730	-1.037	0.133	-0.056	-24.29	-66.57	-26.46
53750	-1.028	0.073	-0.065	-22.05	-67.27	-18.41
53769	-1.011	0.027	-0.03	-13.23	-58.38	-11.76
53792	-1.004	0.065	-0.058	5.11	-71.68	-10.64
53811	-0.957	0.164	0.034	6.72	-57.05	-19.88
53830	-0.942	0.185	0.139	-0.98	-45.85	-24.08
53855	-0.841	0.069	0.152	-24.57	-1.26	-21.14
53870	-0.945	-0.004	0.088	-26.6	2.94	-15.96
53895	-1.029	-0.024	0.049	-15.19	-4.06	-8.33
53915	-0.993	-0.001	-0.119	-10.01	4.83	-1.89
53939	-1.033	0.04	-0.032	-5.11	6.79	3.36
53959	-1.009	-0.04	0.01	-4.48	-0.49	8.47
53983	-0.97	-0.02	0.031	6.58	8.68	13.02
54002	-1.019	0.098	-0.019	15.82	6.93	13.02
54022	-1.044	0.204	0.001	16.17	3.08	9.66
54042	-0.987	0.137	0.072	6.16	2.59	7.28
54062	-0.936	0.011	0.096	4.55	16.73	13.37
54085	-0.964	-0.053	0.059	14.49	26.53	16.1
54104	-0.951	0.08	-0.073	27.93	29.96	12.11
54129	-0.984	0.209	-0.05	25.69	38.43	2.94
54147	-0.989	0.18	0.026	14.77	38.92	-2.66
54171	-1.056	0.119	-0.186	15.33	37.17	2.17
54191	-1.185	0.271	-0.188	70.35	20.93	3.36
54210	-0.939	0.016	0.007	62.44	19.25	5.18
54230	-0.855	0.024	0.047	51.94	81.55	20.02
54254	-1.201	-0.027	-0.29	47.88	32.06	48.72
54272	-0.752	0.305	-0.112	12.32	57.82	30.03
54292	-0.953	-0.042	-0.175	23.52	75.04	45.01
54316	-0.981	0.125	-0.215	47.53	68.25	46.55
54336	-0.93	0.215	-0.267	45.64	67.2	41.23
54355	-0.913	0.26	-0.263	36.4	82.18	35.98
54371	-0.954	0.155	-0.284	27.86	85.61	39.2
54395	-0.865	0.175	-0.385	23.17	74.2	31.15
54414	-0.839	0.211	-0.356	8.75	67.34	25.76
54434	-0.932	0.202	-0.37	17.57	62.65	22.54
54453	-0.896	0.291	-0.482	26.95	70.07	16.03
54478	-0.902	0.227	-0.443	19.04	55.3	6.09
54497	-0.888	0.17	-0.463	12.81	54.95	2.73
54516	-0.842	0.253	-0.508	7.7	48.02	2.73
54540	-0.853	0.23	-0.498	5.04	45.57	1.96
54561	-0.858	0.166	-0.565	14.35	32.76	6.79
54585	-0.841	0.206	-0.559	6.65	29.61	12.67
54605	-0.826	0.286	-0.616	-8.68	21.63	10.22
54623	-0.781	0.241	-0.543	-21.0	13.93	7.0
54643	-0.813	0.253	-0.581	-18.97	11.76	5.67
54667	-0.829	0.214	-0.568	-21.14	6.02	6.58
54687	-0.848	0.256	-0.574	-27.58	3.22	4.69
54707	-0.799	0.234	-0.561	-24.71	-2.1	8.47
54725	-0.824	0.283	-0.579	-21.98	-8.19	9.24
54742	-0.816	0.255	-0.568	-18.2	-9.8	8.12
54765	-0.837	0.286	-0.519	-16.52	-13.44	7.56
54789	-0.779	0.289	-0.534	-23.8	-12.95	9.59
54809	-0.821	0.245	-0.503	-15.82	-18.48	14.14
54828	-0.828	0.274	-0.533	-16.52	-17.36	15.68
54849	-0.82	0.281	-0.528	-23.8	-17.29	15.61
54867	-0.787	0.267	-0.499	-26.6	-17.78	14.98
54888	-0.849	0.287	-0.473	-21.98	-20.58	12.88
54907	-0.798	0.384	-0.45	-15.33	-18.76	9.24
54928	-0.803	0.297	-0.471	-11.76	-14.56	3.36
54950	-0.82	0.348	-0.449	-12.39	-11.83	-3.36
54970	-0.813	0.42	-0.467	-12.81	-13.44	-3.43
54994	-0.824	0.267	-0.454	-7.21	-8.54	1.33
55015	-0.839	0.386	-0.452	-3.92	-10.08	5.95
55032	-0.825	0.329	-0.427	3.57	-8.89	5.67
55056	-0.85	0.313	-0.433	3.85	-2.24	6.02
55076	-0.801	0.358	-0.43	7.56	0.35	6.51
55096	-0.848	0.392	-0.443	3.92	1.75	-0.98
55115	-0.797	0.366	-0.416	10.08	6.79	-4.27
55139	-0.823	0.356	-0.448	16.94	8.26	-9.38
55157	-0.83	0.338	-0.453	20.23	10.36	-8.54
55177	-0.825	0.338	-0.48	23.31	12.18	-7.49
55201	-0.818	0.348	-0.492	29.26	10.99	-6.44
55221	-0.815	0.305	-0.498	25.27	10.5	-6.72
55239	-0.823	0.272	-0.495	22.61	10.71	-8.19
55263	-0.825	0.357	-0.51	24.85	8.75	-9.94
55283	-0.804	0.24	-0.53	30.87	6.86	-9.17
55301	-0.821	0.333	-0.545	35.35	2.73	-7.0
55324	-0.809	0.321	-0.573	23.73	-0.7	-5.67
55344	-0.818	0.338	-0.584	10.71	-6.44	-7.21
55365	-0.811	0.287	-0.559	5.32	-12.88	-8.26
55385	-0.827	0.292	-0.539	0.91	-17.43	-10.01
55402	-0.817	0.286	-0.571	4.83	-21.0	-9.66
55421	-0.829	0.319	-0.556	-0.07	-30.03	-9.8
55446	-0.843	0.303	-0.529	-26.39	-32.48	-17.29
55466	-0.809	0.337	-0.543	-30.38	-34.23	-22.75
55481	-0.863	0.262	-0.491	-31.78	-40.6	-24.08
55505	-0.829	0.304	-0.473	-33.6	-41.93	-25.2
55523	-0.87	0.238	-0.478	-28.28	-45.29	-25.2
55543	-0.881	0.264	-0.457	-28.0	-56.21	-27.23
55567	-0.902	0.286	-0.429	-28.07	-63.77	-25.97
55587	-0.856	0.257	-0.412	-24.64	-63.0	-27.58
55604	-0.909	0.179	-0.386	-19.18	-69.37	-30.17
55627	-0.917	0.225	-0.305	-25.13	-72.45	-40.04
55650	-0.949	0.251	-0.392	-17.5	-71.33	-37.87
55671	-0.896	0.141	-0.235	-22.61	-83.02	-38.57
55690	-0.926	0.061	-0.23	-4.13	-71.54	-44.52
55709	-1.003	0.316	-0.235	1.61	-88.41	-46.13
55734	-0.91	0.21	-0.158	-0.21	-80.22	-50.82
55752	-0.965	0.208	-0.23	-17.85	-72.1	-51.73
55771	-0.925	0.133	-0.087	-10.71	-60.55	-46.55
55790	-0.931	0.237	-0.038	-66.43	-59.57	-108.36
55815	-1.066	0.169	-0.115	-19.46	-47.88	-37.8
55831	-0.995	0.124	-0.053	-20.86	-41.65	-32.27
55853	-0.977	-0.003	-0.02	-23.38	-40.11	-26.11
55873	-0.991	0.048	-0.068	-5.74	-39.62	-28.49
55897	-0.982	0.077	0.032	-1.96	-29.12	-22.89
55921	-1.028	0.1	-0.078	0.77	-17.15	-19.53
55940	-1.047	0.146	0.056	-12.39	-24.36	-19.18
55964	-0.951	-0.005	0.058	-25.06	-17.92	-9.8
55980	-0.954	-0.054	-0.042	-14.56	-2.1	-7.63
56004	-1.01	-0.032	0.008	-4.48	-1.82	-5.46
56024	-0.97	-0.035	0.007	-0.14	2.17	-2.52
56044	-0.983	0.057	-0.079	1.89	6.93	2.24
56064	-1.058	0.114	-0.053	3.99	0.21	-0.07
56085	-1.024	0.04	-0.023	-6.51	-1.89	-4.48
56109	-0.984	0.008	0.0	0.21	-1.68	2.24
56128	-0.961	0.019	0.001	1.12	2.87	7.91
56148	-0.99	0.003	0.032	1.54	-2.8	15.33
56167	-0.895	-0.001	0.033	3.99	17.22	18.13
56188	-1.574	0.291	-0.131	79.59	-12.39	-1.89
56212	-0.867	0.062	-0.059	47.46	18.55	-2.73
56227	-1.017	0.017	0.028	-28.56	28.7	-3.85
56250	-0.342	-1.131	-0.239	-248.71	123.62	-15.26
56272	-0.91	-0.128	-0.189	-12.53	80.57	40.6
56292	-1.144	0.171	-0.247	62.93	73.36	33.81
56316	-0.952	0.29	-0.03	-8.47	82.32	46.55
56336	-0.813	-0.033	-0.118	24.92	99.96	46.13
56356	-1.102	0.275	-0.265	40.81	70.84	53.9
56375	-0.85	0.149	-0.282	-6.79	96.46	44.24
56396	-1.057	0.051	-0.255	14.84	73.57	47.18
56416	-0.919	0.191	-0.349	15.68	81.27	60.97
56435	-0.903	0.088	-0.341	28.49	83.3	52.64
56454	-0.895	0.454	-0.388	33.67	59.43	45.36
56475	-0.83	0.121	-0.332	12.11	74.41	26.95
56495	-0.883	0.368	-0.485	35.14	65.45	23.31
56514	-0.846	0.218	-0.455	5.74	70.14	12.6
56534	-0.85	0.224	-0.535	29.96	56.28	7.35
