Millis	AccelX	AccelY	AccelZ	GyroX	GyroY	GyroZ
0	-0.968	0.234	-0.036	4.55	0.28	-2.59
24	-0.968	0.231	-0.035	6.02	0.91	-2.87
43	-0.979	0.242	-0.034	7.28	0.77	-3.15
64	-0.982	0.262	-0.026	6.72	0.42	-3.71
83	-0.979	0.267	-0.028	4.9	0.28	-4.06
104	-0.968	0.265	-0.028	2.17	0.49	-4.27
128	-0.969	0.276	-0.029	0.14	0.98	-5.04
148	-0.976	0.28	-0.031	-1.96	2.03	-5.46
164	-0.985	0.274	-0.036	-3.5	0.77	-5.18
188	-0.977	0.28	-0.038	-5.53	0.91	-3.71
208	-0.984	0.268	-0.021	-7.98	0.7	-1.96
227	-0.981	0.263	-0.01	-8.19	0.84	-0.63
251	-0.982	0.237	-0.017	-6.58	-0.21	0.7
269	-0.98	0.224	-0.017	-2.8	-0.98	1.4
290	-0.982	0.23	-0.007	0.49	-2.17	1.68
310	-0.982	0.232	-0.008	1.75	-2.8	1.61
334	-0.979	0.23	-0.011	2.24	-3.08	1.05
354	-0.977	0.234	-0.012	1.47	-3.01	0.49
372	-0.974	0.24	-0.013	0.07	-2.73	-0.07
392	-0.975	0.243	-0.018	-1.26	-2.17	-0.49
412	-0.977	0.244	-0.018	-2.87	-3.22	-0.84
436	-0.972	0.236	-0.025	-3.15	-2.24	-0.7
456	-0.983	0.226	-0.039	-0.84	-3.71	-0.42
480	-0.973	0.239	-0.039	1.89	-3.78	-0.35
500	-0.976	0.246	-0.041	2.38	-3.64	-0.63
520	-0.972	0.259	-0.037	1.89	-3.99	-0.56
540	-0.968	0.262	-0.045	-0.35	-3.85	-0.28
560	-0.963	0.26	-0.048	-1.68	-3.36	0.28
579	-0.968	0.261	-0.047	-2.94	-2.59	0.7
602	-0.973	0.259	-0.049	-3.92	-2.17	0.84
618	-0.974	0.263	-0.049	-4.97	-2.03	0.91
643	-0.973	0.256	-0.048	-6.51	-1.4	1.4
663	-0.976	0.243	-0.053	-6.44	-1.47	1.82
683	-0.972	0.237	-0.048	-5.32	-1.26	1.96
703	-0.974	0.238	-0.042	-4.2	-0.63	1.75
723	-0.975	0.244	-0.031	-4.34	-0.63	1.47
747	-0.979	0.245	-0.025	-5.95	-0.98	1.4
768	-0.985	0.235	-0.015	-6.44	-1.47	1.47
787	-0.998	0.222	0.001	-4.97	-2.87	1.96
811	-1.003	0.215	0.028	-1.26	-4.48	3.29
831	-1.005	0.215	0.042	2.45	-6.51	4.06
855	-1.003	0.228	0.054	5.81	-10.15	4.69
870	-0.996	0.252	0.079	5.6	-10.29	4.34
890	-1.016	0.264	0.108	4.06	-14.21	3.5
910	-1.02	0.261	0.107	2.45	-17.08	3.22
935	-1.022	0.258	0.083	1.19	-24.92	2.38
954	-0.984	0.224	0.042	5.39	-28.28	1.33
974	-0.984	0.205	0.027	13.65	-30.8	1.82
992	-0.976	0.207	0.019	21.98	-29.96	1.89
1012	-0.999	0.218	-0.01	27.72	-29.75	2.59
1035	-0.992	0.25	-0.012	30.31	-30.8	3.71
1055	-0.977	0.243	0.017	32.76	-28.63	4.76
1075	-0.98	0.259	0.012	33.67	-25.13	6.37
1099	-0.971	0.245	0.016	32.27	-23.31	8.26
1116	-0.955	0.22	-0.016	35.21	-20.93	9.1
1140	-0.952	0.236	-0.042	35.91	-19.32	9.73
1160	-0.948	0.241	-0.036	35.0	-19.95	9.1
1178	-0.936	0.26	-0.021	32.9	-19.25	8.12
1201	-0.927	0.279	-0.009	24.43	-17.5	5.11
1221	-0.917	0.284	0.005	15.96	-14.56	1.68
1238	-0.924	0.292	0.0	10.36	-11.97	-1.12
1262	-0.934	0.289	-0.001	5.11	-9.38	-4.41
1282	-0.939	0.293	0.004	-0.77	-6.16	-6.16
1301	-0.946	0.292	0.015	-4.06	-4.62	-6.44
1320	-0.953	0.294	0.027	-6.44	-3.71	-6.16
1343	-0.943	0.279	0.021	-5.74	-2.59	-4.69
1367	-0.954	0.285	0.016	-3.99	-1.19	-2.94
1386	-0.962	0.277	0.03	-2.8	-0.77	-1.33
1411	-0.967	0.277	0.045	-0.28	0.42	0.77
1431	-0.966	0.273	0.04	2.03	1.33	2.1
1450	-0.965	0.282	0.045	2.87	1.75	2.8
1469	-0.966	0.281	0.047	1.96	2.52	2.8
1490	-0.97	0.291	0.046	-0.56	3.01	2.38
1514	-0.974	0.285	0.064	-3.92	2.66	1.19
1534	-0.969	0.278	0.077	-5.46	1.96	0.63
1554	-0.97	0.275	0.075	-6.37	4.06	0.7
1573	-0.986	0.271	0.082	-7.35	2.73	0.63
1593	-0.973	0.268	0.083	-8.19	2.8	0.49
1617	-0.971	0.264	0.074	-7.21	2.94	-0.21
1637	-0.973	0.264	0.072	-7.07	1.75	-0.91
1657	-0.974	0.26	0.085	-5.81	1.05	-1.12
1677	-0.977	0.259	0.08	-4.76	-0.28	-0.56
1695	-0.975	0.251	0.071	-3.29	-1.26	-0.07
1717	-0.967	0.245	0.064	-0.91	-1.26	-0.07
1741	-0.974	0.258	0.059	0.07	-1.89	-0.7
1765	-0.964	0.256	0.052	0.0	-2.17	-1.82
1785	-0.975	0.255	0.042	-0.56	-2.38	-2.66
1808	-0.974	0.242	0.02	-1.26	-2.31	-3.71
1832	-0.966	0.241	-0.013	-0.49	-1.75	-4.62
1848	-0.953	0.221	-0.02	1.33	-1.96	-4.9
1867	-0.932	0.22	-0.024	3.78	-1.19	-4.34
1893	-0.919	0.208	-0.049	7.0	-0.07	-2.52
1912	-0.908	0.2	-0.083	9.52	-0.14	-1.05
1936	-0.9	0.19	-0.143	12.81	-2.1	-1.26
1954	-0.891	0.192	-0.163	14.42	-2.03	-3.71
1972	-0.925	0.181	-0.161	15.19	-3.08	-6.37
1996	-0.91	0.187	-0.142	19.25	3.22	-7.7
2018	-0.906	0.18	-0.093	20.58	12.39	-9.8
2040	-0.876	0.241	-0.011	6.09	28.84	-12.88
2064	-0.911	0.259	-0.023	-24.08	50.33	-18.83
2083	-0.924	0.188	-0.066	-32.83	62.02	-23.8
2103	-0.937	0.147	-0.098	-27.16	78.82	-23.94
2127	-0.98	0.137	-0.019	-11.97	92.05	-21.56
2146	-1.024	0.162	0.129	3.22	104.51	-17.22
2166	-1.177	0.049	0.263	-6.02	92.89	-9.38
2187	-1.202	-0.29	0.447	181.79	69.51	26.6
2207	-1.366	0.577	0.368	178.22	27.02	38.64
2227	-1.149	0.789	0.247	80.29	-45.22	23.31
2250	-0.79	0.355	0.247	9.8	-24.78	7.63
2272	-0.973	0.213	0.148	8.61	-19.32	-4.97
2294	-0.933	0.059	0.171	22.96	-18.9	-14.49
2314	-0.94	0.119	0.139	29.61	-25.97	-20.58
2330	-0.932	0.091	0.03	44.1	-31.36	-23.17
2354	-0.906	0.12	-0.04	54.04	-43.05	-26.67
2372	-0.838	0.084	-0.067	53.9	-47.18	-28.98
2396	-0.849	0.046	-0.055	57.05	-51.17	-29.47
2416	-0.806	0.072	-0.025	70.42	-46.62	-27.86
2436	-0.766	0.122	-0.081	80.36	-34.65	-26.95
2460	-0.756	0.122	-0.161	78.54	-32.69	-28.56
2480	-0.702	0.124	-0.207	68.6	-24.78	-29.82
2500	-0.733	0.146	-0.253	60.13	-22.75	-31.78
2519	-0.74	0.085	-0.301	47.39	-19.04	-33.25
2540	-0.76	0.043	-0.332	44.73	-15.47	-32.06
2558	-0.786	0.002	-0.37	42.77	-11.83	-31.29
2581	-0.758	-0.06	-0.385	45.43	-10.29	-30.38
2602	-0.735	-0.101	-0.399	59.08	-3.71	-29.89
2617	-0.778	-0.03	-0.379	62.16	0.07	-31.36
2641	-0.793	-0.017	-0.378	59.36	4.06	-30.8
2665	-0.778	-0.045	-0.353	51.87	10.71	-29.47
2685	-0.815	-0.061	-0.353	43.4	13.09	-27.65
2705	-0.811	-0.068	-0.349	31.29	17.92	-27.72
2722	-0.893	-0.011	-0.33	16.87	18.9	-30.87
2741	-0.971	-0.03	-0.268	-2.94	15.89	-33.25
2760	-0.937	-0.156	-0.274	-11.55	13.93	-32.41
2785	-0.902	-0.233	-0.241	-4.27	20.86	-29.82
2803	-0.995	-0.199	-0.211	-4.27	28.49	-29.75
2827	-1.074	-0.167	-0.255	-8.26	22.68	-32.06
2843	-1.075	-0.142	-0.278	-10.99	19.11	-32.69
2866	-1.052	-0.259	-0.3	-11.2	15.26	-32.97
2885	-1.052	-0.281	-0.268	0.77	15.33	-29.89
2909	-1.05	-0.198	-0.183	1.54	17.71	-29.33
2929	-1.091	-0.175	-0.207	-3.92	15.68	-31.78
2946	-1.065	-0.211	-0.373	0.91	15.82	-29.75
2970	-1.053	-0.233	-0.274	9.73	15.33	-24.92
2989	-1.126	-0.193	-0.203	9.03	14.63	-22.75
3009	-1.151	-0.235	-0.241	9.17	14.56	-19.95
3027	-1.137	-0.218	-0.276	13.37	11.76	-16.24
3050	-1.139	-0.176	-0.248	12.53	14.07	-14.49
3069	-1.198	-0.189	-0.232	3.64	13.3	-12.88
3090	-1.143	-0.242	-0.216	8.82	10.36	-10.22
3114	-1.038	-0.234	-0.213	15.47	17.01	-7.07
3134	-1.087	-0.255	-0.244	21.07	17.92	-5.32
3158	-1.107	-0.179	-0.244	23.66	15.75	-3.22
3178	-1.176	-0.1	-0.22	2.94	10.71	-7.28
3198	-1.141	-0.174	-0.244	-11.48	3.85	-7.7
3214	-1.085	-0.227	-0.254	-17.71	6.86	-7.07
3236	-1.095	-0.319	-0.259	-10.78	12.88	-2.66
3253	-1.109	-0.317	-0.305	10.22	12.53	2.03
3278	-1.082	-0.197	-0.346	28.28	16.24	6.09
3297	-1.06	-0.162	-0.389	29.33	20.44	5.46
3313	-1.128	-0.01	-0.266	9.17	21.98	1.05
3338	-1.137	-0.117	-0.244	-23.1	19.95	-1.26
3356	-1.1	-0.218	-0.331	-19.95	24.99	1.96
3376	-1.19	-0.281	-0.401	-11.97	34.37	7.07
3398	-1.391	-0.491	-0.08	24.43	-26.11	2.66
3420	-1.125	-0.279	0.033	20.93	-17.08	-0.28
3444	-1.229	-0.157	-0.065	27.58	-9.8	1.4
3464	-1.2	-0.06	-0.115	0.07	-1.47	0.49
3480	-1.332	-0.125	-0.172	-16.38	-1.47	-2.31
3504	-1.409	-0.181	-0.224	-31.78	-6.09	-5.11
3523	-1.443	-0.226	-0.27	-19.18	-14.56	3.08
3543	-1.411	-0.217	-0.22	-5.67	-26.53	9.52
3567	-1.451	-0.217	-0.111	9.03	-26.46	17.15
3587	-1.518	-0.143	-0.058	12.6	-35.07	23.8
3608	-1.47	-0.203	-0.016	4.27	-38.85	27.72
3629	-1.421	-0.18	-0.012	-5.81	-37.45	30.1
3651	-1.406	-0.171	-0.064	-11.55	-36.96	28.77
3670	-1.393	-0.106	-0.101	-17.01	-40.53	25.9
3690	-1.404	-0.081	-0.114	-28.7	-42.98	21.28
3713	-1.361	-0.224	-0.203	-28.56	-49.56	21.98
3732	-1.289	-0.341	-0.278	-10.15	-51.17	25.69
3756	-1.232	-0.298	-0.327	19.95	-50.12	30.17
3774	-1.175	-0.171	-0.374	25.62	-49.63	30.03
3795	-1.132	-0.076	-0.386	10.43	-48.86	25.97
3812	-1.093	-0.068	-0.393	-14.77	-49.0	22.05
3836	-0.973	-0.19	-0.391	-37.45	-46.48	18.27
3854	-0.915	-0.213	-0.41	-41.02	-38.71	19.11
3877	-0.888	-0.191	-0.481	-40.25	-29.89	20.65
3897	-0.843	-0.153	-0.486	-37.87	-21.7	20.51
3918	-0.8	-0.051	-0.399	-61.04	-19.67	15.89
3942	-0.728	-0.142	-0.352	-85.75	-13.93	8.75
3963	-0.721	-0.201	-0.297	-90.44	-11.41	5.81
3978	-0.685	-0.178	-0.268	-84.98	-16.31	4.06
4002	-0.585	-0.253	-0.35	-50.4	-17.08	6.44
4020	-0.567	-0.228	-0.387	-21.07	-16.1	7.63
4042	-0.579	-0.183	-0.396	5.04	-15.61	9.94
4061	-0.575	-0.09	-0.365	11.62	-17.36	8.33
4086	-0.568	-0.049	-0.282	5.95	-13.02	4.06
4106	-0.581	-0.073	-0.224	2.03	-12.95	2.1
4124	-0.491	-0.103	-0.187	5.74	-5.11	0.84
4143	-0.488	-0.039	-0.207	7.42	10.43	-2.66
4168	-0.582	0.047	-0.218	-1.54	16.59	-11.13
4188	-0.595	0.079	-0.198	-16.52	21.0	-17.29
4208	-0.634	-0.032	-0.161	-21.07	25.76	-18.48
4228	-0.645	-0.055	-0.128	-10.85	32.06	-15.89
4247	-0.663	0.016	-0.08	1.96	42.21	-13.86
4268	-0.742	0.196	-0.049	-4.83	49.49	-12.32
4283	-0.804	0.273	-0.022	-21.91	50.89	-12.18
4303	-0.847	0.151	-0.045	-42.91	56.0	-8.12
4328	-0.888	-0.08	-0.031	-24.64	64.19	3.78
4346	-0.999	-0.059	0.058	-16.31	71.12	11.9
4367	-1.018	-0.076	0.081	-5.53	63.7	16.8
4390	-0.98	-0.026	0.073	1.33	57.54	16.52
4411	-1.002	-0.004	0.029	-8.12	54.18	8.26
4431	-1.061	-0.177	0.112	-15.19	55.02	1.61
4450	-1.18	-0.441	0.188	22.82	30.24	5.32
4475	-1.198	-0.17	0.323	73.29	7.84	16.52
4495	-0.958	-0.054	0.29	52.43	-18.34	1.47
4518	-0.923	-0.085	0.157	36.89	8.96	-3.15
4539	-0.966	0.037	0.058	31.78	-3.71	-7.28
4554	-0.961	0.061	-0.048	23.52	-2.03	-10.08
4579	-0.993	-0.056	-0.12	30.87	-13.16	-11.41
4596	-0.933	-0.029	-0.101	38.22	-25.55	-13.44
4619	-0.863	0.013	-0.046	32.62	-27.16	-14.91
4643	-0.816	-0.022	0.013	31.29	-31.57	-14.56
4663	-0.726	-0.032	0.018	34.3	-27.37	-11.27
4682	-0.689	-0.02	-0.035	41.37	-23.31	-7.56
4701	-0.67	-0.013	-0.066	43.82	-23.59	-5.88
4724	-0.608	-0.0	-0.099	47.67	-21.98	-3.15
4742	-0.626	-0.002	-0.13	47.25	-19.88	-1.96
4764	-0.636	-0.073	-0.198	52.85	-23.03	0.28
4788	-0.608	-0.112	-0.247	65.73	-20.09	6.65
4806	-0.627	-0.151	-0.27	74.69	-17.43	9.59
4830	-0.706	-0.163	-0.292	74.48	-14.63	9.73
4850	-0.749	-0.167	-0.33	68.88	-16.24	7.28
4869	-0.764	-0.091	-0.346	55.09	-15.19	4.27
4889	-0.78	-0.171	-0.319	34.58	-12.46	1.12
4908	-0.807	-0.298	-0.289	30.03	-7.07	1.75
4933	-0.855	-0.313	-0.293	25.83	-2.03	-0.7
4953	-0.945	-0.24	-0.305	15.54	-1.12	-4.41
4974	-0.956	-0.265	-0.349	4.13	-3.99	-7.77
4997	-1.009	-0.291	-0.339	-5.88	-4.13	-11.62
5016	-1.054	-0.344	-0.3	-9.38	-4.06	-13.3
5033	-1.08	-0.372	-0.291	-2.87	-3.08	-11.69
5057	-1.046	-0.36	-0.273	6.37	-2.03	-10.85
5075	-1.066	-0.294	-0.279	5.74	4.62	-12.25
5096	-1.144	-0.264	-0.272	-4.97	2.52	-16.59
5116	-1.21	-0.213	-0.26	-25.69	-1.47	-23.1
5140	-1.161	-0.34	-0.283	-27.23	-3.15	-23.52
5160	-1.175	-0.341	-0.276	-16.94	-2.38	-22.61
5180	-1.118	-0.244	-0.284	-21.0	3.85	-23.87
5199	-1.173	-0.18	-0.261	-37.38	3.29	-27.37
5215	-1.173	-0.24	-0.268	-45.92	3.57	-28.49
5240	-1.117	-0.285	-0.29	-45.22	6.65	-24.85
5260	-1.078	-0.303	-0.31	-24.29	17.64	-19.32
5280	-1.098	-0.254	-0.292	-16.03	23.38	-14.42
5304	-1.121	-0.251	-0.297	-4.9	27.23	-7.63
5323	-1.094	-0.257	-0.302	1.61	29.47	-4.83
5341	-1.143	-0.144	-0.386	1.68	35.77	-3.99
5360	-1.171	-0.155	-0.415	-11.06	32.62	-6.44
5385	-1.174	-0.161	-0.308	-28.42	45.15	-8.68
5405	-1.256	-0.228	-0.325	-32.2	48.23	-7.56
5421	-1.258	-0.152	-0.316	-35.21	45.5	-8.12
5444	-1.377	-0.328	-0.36	-32.06	38.29	-0.63
5461	-1.494	-0.554	0.008	1.54	-23.45	-10.22
5485	-1.374	-0.421	0.15	38.78	-4.41	5.81
5505	-1.426	-0.349	0.152	88.27	-15.4	14.56
5525	-1.273	0.042	0.112	49.07	3.01	8.26
5543	-1.499	-0.003	0.006	12.46	0.49	0.28
5562	-1.55	-0.05	-0.105	-29.54	-10.57	-8.82
5586	-1.513	-0.374	-0.304	-56.35	-10.71	-15.54
5603	-1.479	-0.403	-0.312	-32.69	-16.94	-7.63
5622	-1.424	-0.415	-0.229	-8.89	-23.52	-0.91
5645	-1.4	-0.429	-0.164	18.97	-29.12	7.84
5665	-1.343	-0.377	-0.175	34.09	-30.73	10.22
5685	-1.334	-0.311	-0.215	32.97	-31.99	8.33
5707	-1.305	-0.23	-0.254	18.55	-33.32	3.92
5724	-1.299	-0.22	-0.218	4.62	-32.41	0.63
5744	-1.309	-0.241	-0.252	-6.93	-35.49	-0.07
5768	-1.233	-0.338	-0.289	-1.26	-37.03	4.62
5789	-1.196	-0.252	-0.316	4.41	-37.59	10.15
5807	-1.13	-0.193	-0.331	5.39	-39.27	14.84
5830	-1.089	-0.272	-0.296	3.71	-38.78	20.16
5851	-1.078	-0.33	-0.278	16.1	-37.31	26.32
5871	-1.026	-0.239	-0.288	17.71	-38.99	28.77
5891	-0.948	-0.189	-0.286	10.92	-34.79	28.0
5911	-0.912	-0.235	-0.295	3.22	-36.68	27.86
5926	-0.852	-0.256	-0.298	4.69	-36.05	29.33
5948	-0.808	-0.197	-0.268	3.5	-34.02	30.59
5971	-0.794	-0.145	-0.27	-0.7	-29.54	31.43
5991	-0.774	-0.135	-0.264	-6.93	-26.81	30.73
6008	-0.756	-0.106	-0.235	-15.05	-24.71	28.84
6032	-0.761	-0.096	-0.214	-29.26	-21.91	26.74
6052	-0.714	-0.134	-0.233	-36.4	-21.49	26.11
6067	-0.716	-0.124	-0.244	-31.85	-18.2	26.25
6092	-0.72	-0.102	-0.266	-26.81	-16.66	25.13
6112	-0.717	-0.044	-0.205	-32.48	-17.5	23.73
6136	-0.71	-0.046	-0.162	-44.38	-14.07	22.89
6156	-0.683	-0.149	-0.203	-28.0	-14.49	26.18
6176	-0.618	-0.145	-0.202	-4.83	-8.96	29.82
6196	-0.612	-0.059	-0.175	4.41	-3.15	31.78
6216	-0.639	0.022	-0.083	-3.01	-0.21	30.87
6236	-0.608	-0.024	-0.081	-7.07	-0.28	30.17
6254	-0.576	-0.049	-0.097	-3.36	4.41	28.07
6277	-0.581	0.002	-0.119	-3.01	14.0	24.36
6297	-0.678	0.054	-0.108	-17.99	20.72	17.64
6314	-0.754	0.053	-0.082	-28.49	21.84	11.9
6335	-0.778	0.03	-0.073	-36.68	24.85	5.6
6356	-0.805	0.073	-0.068	-41.3	34.44	-0.77
6380	-0.873	0.219	0.02	-74.2	39.76	-10.71
6398	-0.969	0.191	0.096	-103.18	45.85	-16.59
6422	-0.964	0.004	0.042	-108.64	37.38	-15.4
6442	-0.904	0.08	0.083	-100.17	38.36	-13.44
6465	-0.939	0.081	0.137	-102.83	38.36	-8.61
6483	-0.98	-0.134	0.135	-88.83	29.96	-2.87
6503	-0.932	-0.285	0.201	-41.65	17.57	7.84
6523	-0.927	-0.255	0.198	-6.16	9.45	13.44
6547	-0.964	-0.255	0.152	24.99	-0.63	15.89
6567	-0.898	-0.185	0.156	37.73	-11.69	13.44
6587	-0.872	-0.225	0.103	46.62	-9.66	12.67
6607	-0.866	-0.241	0.095	66.29	-11.62	13.44
6631	-0.865	-0.115	0.058	81.2	-11.62	12.88
6651	-0.845	-0.081	0.022	88.76	-11.2	10.15
6669	-0.857	-0.005	-0.013	90.51	-10.64	7.98
6691	-0.84	0.001	-0.048	91.14	-11.83	6.3
6711	-0.81	-0.019	-0.043	90.93	-12.18	4.41
6732	-0.817	0.021	-0.042	83.51	-6.86	2.31
6756	-0.828	0.012	-0.051	78.82	-9.03	-0.7
6776	-0.78	0.024	-0.085	75.67	-11.06	-2.45
6795	-0.799	0.054	-0.139	66.08	-9.94	-5.67
6812	-0.823	0.04	-0.161	63.14	-14.77	-6.51
6836	-0.837	0.023	-0.203	58.24	-15.47	-4.83
6854	-0.852	-0.025	-0.226	57.33	-17.29	-1.61
6873	-0.854	-0.076	-0.246	60.76	-15.12	0.0
6898	-0.877	-0.124	-0.272	65.52	-11.41	0.63
6918	-0.855	-0.145	-0.281	75.25	-13.23	-0.56
6936	-0.739	-0.069	-0.231	68.25	-10.99	-4.27
6960	-0.662	-0.031	-0.193	40.67	1.68	-13.93
6980	-0.72	-0.046	-0.262	22.61	3.92	-20.72
6998	-0.718	-0.183	-0.272	20.16	0.91	-24.71
7019	-0.748	-0.184	-0.256	21.0	2.45	-28.0
7043	-0.773	-0.091	-0.276	15.05	-0.91	-30.03
7067	-0.761	-0.028	-0.306	3.22	-1.54	-34.65
7087	-0.766	-0.059	-0.284	-11.9	2.38	-39.62
7111	-0.886	-0.017	-0.26	-36.4	5.11	-41.93
7131	-0.983	-0.089	-0.288	-48.09	8.4	-42.07
7151	-1.107	-0.153	-0.38	-40.6	1.47	-38.78
7170	-1.009	-0.103	-0.352	-28.49	-3.08	-36.26
7191	-1.04	0.018	-0.253	-47.32	2.17	-37.03
7210	-1.241	-0.108	-0.239	-62.16	8.33	-32.83
7234	-1.138	-0.239	-0.315	-56.84	6.86	-21.7
7253	-1.149	-0.273	-0.355	-27.58	10.08	-9.94
7273	-1.154	-0.295	-0.338	-11.48	6.23	-5.32
7298	-1.159	-0.261	-0.232	1.61	3.64	-4.55
7315	-1.16	-0.227	-0.187	-3.08	3.15	-7.21
7339	-1.087	-0.319	-0.168	-2.94	8.26	-9.31
7357	-1.142	-0.213	-0.219	-6.65	11.34	-10.01
7377	-1.152	-0.262	-0.195	-16.87	8.26	-13.37
7401	-1.158	-0.344	-0.228	-6.93	7.0	-10.29
7420	-1.137	-0.339	-0.22	8.54	9.03	-11.27
7441	-1.19	-0.245	-0.188	8.26	15.54	-13.51
7461	-1.174	-0.189	-0.237	-4.62	6.3	-17.5
7480	-1.12	-0.318	-0.282	-5.53	17.36	-16.17
7505	-1.193	-0.352	-0.334	13.58	13.37	-12.46
7523	-1.153	-0.265	-0.329	24.85	19.81	-10.29
7545	-1.226	-0.201	-0.299	26.25	28.42	-10.5
7566	-1.3	-0.121	-0.24	4.2	28.56	-14.77
7584	-1.325	-0.17	-0.168	-31.64	39.97	-20.58
7609	-1.643	-0.007	-0.076	-2.38	-16.17	-6.79
7628	-1.391	-0.335	0.082	15.61	-12.81	0.56
7649	-1.534	-0.278	0.054	41.37	-13.79	4.48
7669	-1.481	-0.029	0.069	23.52	-2.1	-0.07
7689	-1.606	-0.108	0.04	-14.42	5.04	-9.66
7713	-1.571	-0.289	-0.065	-29.75	-5.18	-19.74
7730	-1.554	-0.371	-0.08	-0.21	-0.49	-11.76
7752	-1.626	-0.234	-0.116	0.0	-16.52	-7.7
7773	-1.535	-0.259	-0.114	0.84	-24.01	-1.19
7796	-1.5	-0.251	-0.062	1.89	-28.35	2.52
7817	-1.404	-0.238	-0.155	0.42	-26.39	4.9
7836	-1.354	-0.237	-0.214	2.1	-25.62	4.62
7861	-1.318	-0.179	-0.248	-8.54	-23.17	4.2
7881	-1.322	-0.162	-0.243	-24.08	-24.57	5.88
7899	-1.301	-0.203	-0.192	-37.94	-38.08	6.16
7920	-1.134	-0.342	-0.228	-31.92	-41.86	12.11
7942	-1.047	-0.382	-0.302	-4.48	-42.42	18.9
7959	-1.008	-0.3	-0.289	14.49	-40.46	22.82
7984	-0.998	-0.274	-0.28	16.59	-41.44	26.53
8002	-0.97	-0.332	-0.25	10.85	-49.14	28.0
8026	-0.853	-0.32	-0.225	4.97	-51.03	29.05
8044	-0.824	-0.306	-0.233	0.98	-47.81	27.58
8061	-0.789	-0.231	-0.235	-5.46	-44.31	25.9
8086	-0.781	-0.316	-0.28	-6.16	-43.12	24.36
8106	-0.75	-0.266	-0.27	-0.91	-39.76	24.99
8122	-0.75	-0.204	-0.261	-6.16	-38.99	24.64
8146	-0.726	-0.151	-0.249	-16.03	-38.5	22.33
8166	-0.711	-0.221	-0.238	-20.93	-33.53	21.77
8182	-0.735	-0.249	-0.324	-13.37	-29.75	21.63
8202	-0.757	-0.242	-0.286	-3.22	-28.42	22.4
8221	-0.718	-0.192	-0.22	2.17	-29.12	21.28
8246	-0.671	-0.14	-0.205	3.36	-27.79	17.5
8266	-0.625	-0.119	-0.21	7.0	-24.01	15.96
8286	-0.642	-0.093	-0.207	7.98	-20.79	14.91
8306	-0.607	-0.051	-0.167	6.93	-17.92	16.45
8325	-0.613	-0.031	-0.114	3.57	-12.81	17.22
8342	-0.597	-0.126	-0.113	9.8	-11.48	18.13
8361	-0.561	-0.119	-0.092	25.2	-4.97	18.48
8386	-0.578	0.015	-0.098	24.36	2.45	13.09
8404	-0.61	0.037	-0.12	13.86	9.31	8.47
8428	-0.672	-0.042	-0.105	7.49	14.14	2.8
8447	-0.703	0.007	-0.11	5.88	19.81	-1.26
8466	-0.739	0.037	-0.044	0.56	26.6	-7.49
8491	-0.79	0.128	0.027	-9.03	31.15	-15.33
8511	-0.802	0.16	0.052	-25.9	34.72	-19.11
8531	-0.833	0.183	0.081	-38.01	41.58	-20.23
8549	-0.94	0.2	0.169	-49.7	42.63	-18.69
8571	-1.009	0.155	0.26	-59.08	39.76	-11.9
8593	-0.996	0.026	0.339	-51.8	33.53	-2.66
8613	-0.998	-0.033	0.325	-31.36	29.26	5.53
8629	-0.972	0.003	0.308	-17.43	24.5	10.08
8653	-0.989	-0.019	0.316	-2.17	17.08	15.89
8673	-1.003	-0.047	0.334	9.38	6.58	20.65
8693	-0.963	-0.135	0.285	29.47	-0.21	25.41
8712	-0.918	-0.126	0.258	48.16	-3.78	26.25
8732	-0.918	-0.015	0.209	54.88	-4.06	25.34
8756	-0.912	0.027	0.173	49.28	-8.33	22.47
8775	-0.849	-0.058	0.116	48.37	-10.08	20.86
8797	-0.805	-0.07	0.08	55.3	-8.68	19.95
8817	-0.76	-0.052	0.043	61.04	-8.75	17.57
8837	-0.727	-0.004	-0.001	64.68	-6.79	14.98
8861	-0.693	0.021	-0.023	57.05	-4.48	11.69
8876	-0.676	-0.032	-0.045	51.17	-5.81	10.92
8900	-0.621	-0.041	-0.056	49.84	-5.18	11.27
8921	-0.628	-0.028	-0.053	45.01	-2.45	10.43
8941	-0.684	-0.042	-0.144	39.34	-1.96	9.31
8961	-0.732	-0.144	-0.217	38.08	-0.98	7.7
8985	-0.797	-0.164	-0.259	39.69	-1.82	4.06
9005	-0.834	-0.171	-0.28	33.25	-0.35	-1.68
9024	-0.872	-0.151	-0.292	29.33	-0.56	-7.28
9044	-0.836	-0.136	-0.309	23.73	-0.35	-10.85
9063	-0.786	-0.131	-0.246	17.64	5.39	-16.66
9087	-0.8	-0.087	-0.186	-4.41	13.65	-24.99
9107	-0.856	-0.165	-0.226	-10.29	12.53	-29.26
9127	-0.858	-0.178	-0.216	-12.18	9.24	-30.17
9147	-0.807	-0.236	-0.215	-5.04	9.87	-30.03
9165	-0.851	-0.11	-0.172	-6.37	12.25	-31.08
9186	-0.95	-0.095	-0.211	-21.84	10.01	-36.96
9207	-1.023	-0.118	-0.264	-30.66	5.88	-39.55
9230	-1.0	-0.163	-0.285	-39.48	3.01	-39.48
9251	-1.017	-0.228	-0.248	-33.39	6.09	-33.6
9269	-1.057	-0.203	-0.241	-35.35	14.7	-30.66
9288	-1.218	-0.142	-0.297	-34.37	10.36	-27.23
9310	-1.125	-0.154	-0.305	-41.09	2.73	-27.65
9329	-1.114	-0.191	-0.289	-46.69	8.19	-28.42
9354	-1.211	-0.213	-0.267	-42.56	11.13	-27.58
9372	-1.283	-0.175	-0.236	-43.61	8.33	-25.97
9393	-1.19	-0.246	-0.27	-39.34	6.02	-21.14
9417	-1.143	-0.281	-0.289	-33.32	7.49	-17.99
9436	-1.178	-0.315	-0.26	-15.33	10.08	-16.87
9458	-1.261	-0.247	-0.252	-7.63	13.86	-17.43
9477	-1.298	-0.303	-0.276	-0.63	13.02	-16.66
9497	-1.278	-0.295	-0.287	-1.61	16.94	-16.17
9520	-1.275	-0.24	-0.275	-4.27	21.0	-17.85
9541	-1.275	-0.213	-0.249	-13.65	30.52	-20.65
9561	-1.407	-0.188	-0.199	-25.97	36.89	-22.12
9581	-1.402	-0.236	-0.234	-25.41	26.53	-21.07
9601	-1.41	-0.48	-0.153	-33.88	41.79	-19.88
9621	-1.6	-0.144	-0.016	-8.4	3.64	-5.11
9641	-1.446	-0.327	0.129	14.77	-8.75	2.38
9661	-1.436	-0.166	0.045	52.99	-11.76	5.95
9676	-1.475	0.068	-0.002	30.45	-1.82	1.26
9701	-1.588	-0.074	-0.089	-14.21	-8.26	-10.57
9721	-1.507	-0.229	-0.14	-26.11	-7.07	-15.75
9745	-1.526	-0.259	-0.178	-27.58	-7.56	-14.63
9761	-1.478	-0.281	-0.174	-34.44	-15.61	-13.65
9785	-1.396	-0.322	-0.169	-42.98	-18.97	-10.99
9804	-1.362	-0.395	-0.219	-33.67	-21.98	-7.63
9828	-1.314	-0.455	-0.24	-3.64	-22.68	-1.26
9848	-1.3	-0.366	-0.25	13.65	-18.27	3.92
9867	-1.31	-0.302	-0.222	21.21	-17.99	4.76
9888	-1.274	-0.244	-0.204	7.35	-25.27	2.45
9912	-1.163	-0.26	-0.238	-4.9	-23.66	1.26
9932	-1.166	-0.276	-0.28	-5.95	-25.69	2.52
9955	-1.096	-0.366	-0.319	5.32	-32.62	6.72
9974	-0.987	-0.36	-0.315	14.0	-33.04	9.1
9996	-0.972	-0.265	-0.315	14.63	-35.7	8.68
10015	-0.928	-0.183	-0.277	2.52	-40.32	7.28
10031	-0.832	-0.22	-0.285	-1.89	-38.92	8.33
10051	-0.772	-0.253	-0.333	5.88	-36.61	12.67
10076	-0.728	-0.192	-0.275	7.07	-31.08	15.96
10095	-0.727	-0.133	-0.231	0.77	-28.56	17.15
10117	-0.71	-0.109	-0.242	-7.98	-29.61	16.59
10141	-0.651	-0.138	-0.246	-8.47	-30.52	15.89
10157	-0.614	-0.164	-0.23	-7.28	-25.69	14.7
10181	-0.627	-0.17	-0.205	-3.15	-17.22	13.65
10199	-0.702	-0.098	-0.17	-3.71	-14.84	12.46
10221	-0.653	-0.141	-0.138	-3.08	-17.36	11.69
10241	-0.592	-0.137	-0.124	2.66	-14.21	11.76
10259	-0.589	-0.07	-0.152	1.75	-9.52	10.71
10282	-0.626	-0.07	-0.102	-5.67	-7.84	8.47
10303	-0.66	-0.169	-0.072	-7.28	-10.29	8.61
10321	-0.603	-0.19	-0.062	6.3	-6.86	11.06
10342	-0.635	-0.098	-0.042	12.88	-2.59	11.06
10366	-0.666	-0.032	-0.036	5.67	-0.63	6.23
10386	-0.726	-0.067	0.016	-18.34	0.63	1.19
10401	-0.765	-0.161	0.024	-21.21	-0.28	-1.4
10425	-0.786	-0.14	0.055	-12.81	-0.42	-3.99
10443	-0.81	-0.067	0.091	-14.98	1.89	-7.77
10467	-0.83	-0.008	0.071	-22.33	-1.33	-12.46
10489	-0.831	-0.025	0.124	-33.04	0.7	-15.19
10509	-0.874	-0.082	0.141	-30.17	2.45	-12.95
10530	-0.89	-0.145	0.137	-17.71	1.26	-8.68
10554	-0.912	-0.125	0.122	2.1	0.77	-4.2
10574	-0.901	-0.057	0.085	10.71	-2.66	-2.31
10593	-0.854	-0.028	0.085	10.22	-2.8	-1.82
10612	-0.848	-0.038	0.085	7.35	-2.94	-2.38
10636	-0.834	-0.058	0.076	8.12	-1.12	-1.19
10656	-0.827	-0.103	0.068	18.76	2.03	1.05
10675	-0.812	-0.075	0.022	31.92	1.82	3.29
10694	-0.749	-0.027	-0.002	37.73	3.64	3.92
10712	-0.719	0.02	-0.018	35.28	4.83	3.57
10732	-0.681	0.018	-0.024	23.73	5.88	2.31
10756	-0.682	-0.059	-0.005	13.65	10.43	1.12
10773	-0.668	-0.153	-0.014	16.38	12.46	1.61
10797	-0.611	-0.171	-0.047	26.74	13.79	1.96
10816	-0.609	-0.095	-0.041	27.44	17.5	-1.19
10837	-0.657	-0.111	-0.066	11.97	15.12	-5.95
10861	-0.673	-0.247	-0.103	11.69	12.67	-7.84
10881	-0.692	-0.309	-0.141	24.99	13.3	-6.65
10898	-0.702	-0.353	-0.166	39.27	13.37	-5.74
10922	-0.71	-0.303	-0.199	49.14	15.47	-7.56
10941	-0.791	-0.23	-0.21	36.26	17.78	-14.0
10965	-0.87	-0.214	-0.235	14.49	10.08	-20.16
10985	-0.81	-0.247	-0.23	-2.38	12.74	-20.65
11003	-0.854	-0.35	-0.234	-10.01	18.2	-19.88
11026	-0.926	-0.459	-0.305	2.24	19.32	-15.4
11050	-0.947	-0.319	-0.3	10.08	16.87	-15.05
11069	-0.922	-0.264	-0.249	-4.48	11.2	-19.46
11087	-0.885	-0.323	-0.218	-19.11	12.18	-24.01
11111	-0.984	-0.375	-0.23	-19.32	13.65	-23.94
11131	-1.04	-0.291	-0.232	-24.36	17.08	-21.91
11150	-1.153	-0.354	-0.301	-29.75	13.23	-19.74
11173	-1.148	-0.405	-0.319	-22.47	3.64	-16.87
11193	-1.148	-0.35	-0.285	-22.33	9.17	-15.61
11213	-1.19	-0.356	-0.275	-22.75	3.57	-15.54
11232	-1.168	-0.35	-0.289	-20.72	9.03	-13.37
11253	-1.166	-0.358	-0.325	-14.7	9.38	-11.69
11277	-1.165	-0.308	-0.3	-14.07	11.48	-12.18
11295	-1.205	-0.25	-0.282	-20.09	9.73	-13.23
11316	-1.161	-0.268	-0.246	-17.36	11.13	-12.39
11340	-1.172	-0.323	-0.262	1.19	11.27	-6.3
11358	-1.142	-0.191	-0.261	-3.57	15.4	-4.41
11378	-1.146	-0.206	-0.247	-10.99	17.29	-1.82
11402	-1.223	-0.255	-0.235	-13.37	18.06	2.03
11421	-1.255	-0.282	-0.227	-8.05	14.84	5.04
11442	-1.275	-0.234	-0.244	-6.86	15.26	8.05
11460	-1.278	-0.366	-0.281	-5.04	13.72	10.36
11484	-1.262	-0.396	-0.266	5.67	16.38	15.75
11504	-1.458	-0.465	-0.168	13.3	-16.87	2.45
11520	-1.371	-0.408	-0.072	16.66	-13.72	0.63
11543	-1.456	-0.321	-0.101	11.41	-24.29	-3.64
11564	-1.364	-0.168	-0.207	-20.72	0.84	-4.97
11584	-1.537	-0.322	-0.268	-33.81	-2.17	-6.79
11601	-1.533	-0.411	-0.296	-32.83	-9.8	-8.05
11625	-1.455	-0.36	-0.291	-23.52	-15.12	-3.99
11640	-1.424	-0.286	-0.264	-26.39	-14.42	-4.48
11664	-1.436	-0.386	-0.253	-15.82	-20.58	-2.52
11688	-1.4	-0.414	-0.252	4.9	-22.12	4.27
11706	-1.366	-0.344	-0.27	15.82	-22.61	8.47
11726	-1.298	-0.315	-0.257	16.31	-20.51	12.67
11746	-1.257	-0.346	-0.27	20.37	-17.22	15.05
11770	-1.24	-0.295	-0.287	19.6	-13.65	14.77
11789	-1.267	-0.186	-0.281	6.86	-17.22	11.27
11813	-1.212	-0.267	-0.329	-8.26	-23.17	9.1
11838	-1.077	-0.332	-0.312	-9.03	-27.58	14.42
11854	-0.972	-0.422	-0.311	2.59	-26.6	18.9
11878	-0.93	-0.357	-0.318	20.58	-22.26	23.87
11898	-0.94	-0.177	-0.278	9.52	-24.5	21.7
11918	-0.916	-0.211	-0.277	-8.05	-31.43	18.2
11938	-0.815	-0.277	-0.314	-12.25	-32.69	0.14
11956	-0.766	-0.268	-0.286	-13.23	-29.33	16.73
11979	-0.767	-0.224	-0.244	-13.86	-28.77	15.96
11998	-0.761	-0.2	-0.253	-15.75	-27.58	16.59
12019	-0.736	-0.241	-0.297	-8.4	-28.7	18.76
12042	-0.691	-0.2	-0.275	-3.08	-28.84	22.19
12062	-0.698	-0.168	-0.24	-10.64	-23.73	22.05
12082	-0.717	-0.177	-0.249	-3.85	-24.29	22.47
12101	-0.739	-0.15	-0.257	0.21	-24.43	22.12
12118	-0.71	-0.112	-0.236	2.59	-25.55	23.73
12142	-0.668	-0.139	-0.234	7.91	-20.23	26.46
12161	-0.685	-0.122	-0.165	10.43	-17.15	26.67
12181	-0.674	-0.132	-0.168	17.29	-14.0	27.37
12204	-0.654	-0.053	-0.122	23.03	-13.23	27.86
12224	-0.618	-0.019	-0.097	17.5	-7.77	25.55
12245	-0.635	-0.026	-0.099	9.73	-5.88	22.19
12261	-0.642	-0.041	-0.041	1.4	-2.8	20.02
12285	-0.66	-0.091	-0.042	1.68	-2.8	17.22
12305	-0.651	-0.054	-0.033	4.41	4.2	13.16
12324	-0.709	0.002	-0.011	-3.43	7.7	7.56
12345	-0.799	0.026	-0.016	-20.02	9.1	0.91
12361	-0.802	-0.033	-0.008	-23.38	9.03	-2.8
12385	-0.819	0.035	0.071	-31.99	14.77	-8.4
12402	-0.892	0.091	0.118	-44.03	14.98	-12.39
12424	-0.903	0.081	0.128	-71.26	12.74	-14.56
12446	-0.918	0.027	0.15	-52.57	12.74	-12.39
12466	-0.936	-0.015	0.142	-45.22	10.57	-8.96
12486	-0.955	-0.062	0.159	-37.17	7.42	-2.24
12506	-0.964	-0.09	0.178	-13.93	0.14	5.46
12524	-0.9	-0.083	0.21	-0.21	-0.77	11.41
12545	-0.913	-0.093	0.212	10.01	-1.82	13.3
12569	-0.91	-0.129	0.15	26.46	-7.91	14.0
12589	-0.883	-0.102	0.111	42.42	-9.1	15.33
12609	-0.9	-0.04	0.084	53.34	-10.78	15.33
12627	-0.873	-0.038	0.045	61.25	-12.39	15.82
12650	-0.856	-0.007	0.029	66.01	-9.31	16.94
12671	-0.853	0.021	0.015	64.96	-9.1	16.38
12690	-0.807	0.036	-0.013	60.06	-7.21	15.05
12707	-0.748	0.002	-0.021	55.44	-5.25	13.44
12726	-0.721	-0.009	-0.016	54.11	-2.24	10.43
12751	-0.683	-0.017	-0.025	48.09	0.21	6.58
12769	-0.645	-0.067	-0.063	50.26	0.28	4.83
12793	-0.611	-0.023	-0.071	45.36	-0.77	1.4
12813	-0.616	-0.08	-0.066	31.08	0.84	-1.61
12833	-0.624	-0.165	-0.138	30.52	-0.63	-3.57
12853	-0.647	-0.201	-0.192	35.14	0.56	-5.25
12877	-0.696	-0.219	-0.205	38.29	-0.35	-9.59
12896	-0.735	-0.286	-0.227	41.37	-1.05	-13.23
12915	-0.762	-0.337	-0.299	55.65	0.35	-15.12
12935	-0.779	-0.236	-0.348	59.15	-3.01	-17.29
12954	-0.77	-0.101	-0.333	44.03	-0.42	-19.11
12979	-0.796	-0.161	-0.259	18.97	0.56	-24.29
12998	-0.838	-0.189	-0.24	-3.01	5.25	-26.81
13022	-0.933	-0.214	-0.282	-14.63	9.66	-29.4
13042	-0.962	-0.347	-0.321	-16.24	6.79	-32.41
13062	-0.989	-0.294	-0.302	-5.11	5.88	-33.04
13082	-1.028	-0.17	-0.256	-18.13	6.3	-38.64
13101	-1.104	-0.147	-0.228	-30.17	9.52	-42.56
13123	-1.169	-0.167	-0.296	-47.53	2.59	-44.1
13142	-1.125	-0.226	-0.286	-46.06	4.2	-41.79
13166	-1.209	-0.134	-0.196	-52.78	6.79	-40.53
13186	-1.243	-0.154	-0.205	-64.12	4.27	-39.06
13206	-1.279	-0.213	-0.305	-63.63	-4.06	-34.37
13226	-1.161	-0.315	-0.288	-52.43	-8.89	-29.47
13243	-1.13	-0.261	-0.264	-41.79	-0.91	-25.27
13263	-1.194	-0.268	-0.241	-35.42	4.69	-23.45
13286	-1.198	-0.189	-0.194	-30.31	8.54	-16.45
13306	-1.198	-0.121	-0.168	-43.19	16.94	-13.37
13326	-1.219	-0.323	-0.217	-47.88	15.4	-10.57
13349	-1.22	-0.326	-0.225	-30.1	10.92	-5.25
13365	-1.221	-0.244	-0.193	-15.89	15.82	-2.31
13387	-1.235	-0.26	-0.204	-12.95	10.22	-0.35
13410	-1.191	-0.232	-0.164	-9.31	16.52	1.26
13430	-1.234	-0.197	-0.102	-16.45	22.19	0.98
13454	-1.322	-0.165	-0.109	-28.28	24.15	-1.33
13474	-1.37	-0.132	-0.141	-44.73	28.91	0.21
13491	-1.645	-0.397	-0.142	-19.25	0.91	-0.7
13515	-1.456	-0.407	0.145	50.47	-34.02	6.16
13535	-1.384	-0.18	-0.033	47.04	-8.68	4.9
13555	-1.453	-0.114	-0.135	15.05	-7.07	-1.33
13579	-1.514	-0.097	-0.117	-26.74	-2.1	-14.35
13599	-1.553	-0.267	-0.254	-58.52	-2.45	-19.11
13616	-1.651	-0.27	-0.294	-59.01	-7.91	-20.72
13640	-1.579	-0.38	-0.339	-58.59	-22.05	-27.23
13656	-1.482	-0.548	-0.233	-26.67	-24.99	-24.22
13676	-1.457	-0.562	-0.208	3.22	-22.4	-15.12
13700	-1.433	-0.504	-0.212	27.16	-21.84	-4.55
13720	-1.392	-0.412	-0.203	33.32	-18.27	1.26
13740	-1.315	-0.4	-0.26	38.71	-13.93	1.82
13760	-1.319	-0.406	-0.3	46.97	-13.02	2.45
13775	-1.224	-0.333	-0.271	48.16	-14.21	0.91
13796	-1.13	-0.376	-0.32	41.86	-12.81	-1.82
13815	-1.088	-0.362	-0.315	41.02	-13.72	-1.47
13839	-0.979	-0.245	-0.261	36.61	-21.07	-0.7
13860	-0.852	-0.192	-0.194	18.83	-19.25	-0.56
13880	-0.783	-0.251	-0.257	0.63	-19.11	-0.42
13896	-0.715	-0.309	-0.249	6.09	-18.69	1.82
13919	-0.711	-0.247	-0.212	7.07	-11.48	2.45
13936	-0.741	-0.182	-0.173	-5.46	-16.66	-0.35
13958	-0.665	-0.198	-0.214	-15.47	-19.81	-2.1
13981	-0.63	-0.26	-0.254	-7.49	-18.62	-1.33
13999	-0.617	-0.254	-0.27	0.0	-15.61	-1.26
14018	-0.664	-0.195	-0.224	1.26	-16.03	-1.05
14043	-0.639	-0.154	-0.19	0.49	-20.65	-1.05
14067	-0.567	-0.183	-0.213	6.58	-17.43	3.5
14087	-0.576	-0.079	-0.203	14.0	-12.6	6.86
14103	-0.592	-0.051	-0.209	7.0	-11.2	8.89
14127	-0.567	-0.12	-0.175	0.56	-12.74	12.74
14147	-0.532	-0.136	-0.189	9.24	-4.97	17.92
14167	-0.536	-0.147	-0.211	18.34	1.26	21.28
14187	-0.591	-0.134	-0.199	24.43	8.82	23.24
14207	-0.652	-0.097	-0.166	16.24	7.21	22.19
14229	-0.592	-0.101	-0.15	4.62	13.44	18.76
14251	-0.63	-0.097	-0.131	-5.39	21.63	14.84
14273	-0.719	-0.145	-0.076	-10.64	26.25	11.2
14293	-0.762	-0.193	-0.022	-8.19	23.87	9.45
14311	-0.768	-0.108	0.01	-5.25	23.38	8.05
14335	-0.797	0.039	0.007	-18.62	30.17	2.73
14352	-0.924	-0.032	0.053	-42.98	29.26	-2.03
14372	-1.001	-0.088	0.204	-58.66	22.26	-4.48
14396	-0.977	-0.159	0.284	-62.16	26.53	-5.81
14416	-1.038	-0.209	0.232	-43.89	22.68	-4.55
14436	-1.022	-0.305	0.279	-0.84	16.66	0.21
14460	-1.016	-0.112	0.218	7.7	-1.75	-3.64
14477	-0.963	0.01	0.162	-24.64	-14.7	-10.78
14501	-0.921	-0.178	0.115	-31.15	-27.93	-7.91
14520	-0.815	-0.257	0.064	-4.13	-32.06	-0.42
14540	-0.794	-0.226	0.025	40.67	-31.43	11.97
14561	-0.773	-0.035	0.039	61.53	-31.29	18.83
14580	-0.737	-0.067	0.032	67.83	-27.51	22.47
14596	-0.721	-0.031	0.033	62.93	-25.62	24.22
14621	-0.671	-0.051	-0.047	56.21	-19.74	26.11
14641	-0.639	-0.119	-0.076	54.95	-17.15	26.81
14661	-0.616	-0.089	-0.02	43.89	-12.18	25.41
14677	-0.598	-0.156	-0.063	36.54	-9.52	23.31
14697	-0.573	-0.272	-0.198	41.58	-6.79	22.05
14720	-0.665	-0.233	-0.201	35.21	-1.89	18.41
14741	-0.761	-0.269	-0.181	9.52	-6.51	11.41
14759	-0.746	-0.472	-0.222	11.48	-11.9	8.05
14783	-0.691	-0.452	-0.285	29.61	-7.98	4.62
14803	-0.718	-0.443	-0.425	45.36	-1.26	-0.21
14822	-0.803	-0.309	-0.428	38.36	-3.71	-4.9
14843	-0.849	-0.239	-0.301	12.18	-3.57	-12.46
14863	-0.81	-0.332	-0.26	-1.33	-1.82	-15.05
14883	-0.836	-0.294	-0.312	2.17	12.81	-17.08
14907	-0.969	-0.156	-0.3	-10.92	15.75	-20.02
14927	-0.993	-0.241	-0.355	-20.58	9.24	-20.02
14945	-0.956	-0.42	-0.357	-11.48	11.97	-13.79
14963	-0.941	-0.407	-0.259	8.05	19.53	-10.92
14987	-1.025	-0.266	-0.185	16.52	23.17	-10.85
15007	-1.09	-0.158	-0.187	4.2	20.58	-17.43
15026	-1.033	-0.226	-0.158	-3.08	15.05	-22.4
15046	-1.069	-0.208	-0.166	-15.19	20.16	-24.99
15070	-1.119	-0.209	-0.18	-19.53	10.85	-24.15
15090	-1.062	-0.158	-0.168	-24.71	11.97	-21.84
15110	-1.094	-0.193	-0.19	-26.74	9.73	-19.6
15129	-1.107	-0.225	-0.217	-20.65	10.43	-16.94
15149	-1.16	-0.163	-0.238	-24.5	12.18	-14.91
15168	-1.191	-0.221	-0.261	-24.22	11.13	-12.32
15193	-1.245	-0.252	-0.283	-20.09	15.47	-5.67
15209	-1.287	-0.283	-0.356	-6.37	14.07	-0.14
15233	-1.242	-0.203	-0.334	1.75	13.72	2.52
15253	-1.23	-0.096	-0.327	-9.52	21.42	3.92
15271	-1.231	-0.027	-0.346	-19.46	21.91	4.76
15295	-1.311	-0.089	-0.319	-29.19	31.78	9.94
15314	-1.402	-0.22	-0.339	-27.51	24.01	16.24
15332	-1.381	-0.371	-0.249	-29.89	33.04	20.65
15351	-1.559	-0.603	-0.224	6.02	-9.17	9.52
15376	-1.274	-0.316	0.072	32.97	3.08	13.37
15396	-1.523	-0.251	-0.0	28.77	-8.68	5.18
15416	-1.45	-0.227	0.022	5.46	-14.21	-1.75
15436	-1.401	-0.293	-0.063	-0.07	-0.28	-4.48
15456	-1.541	-0.247	-0.092	-0.63	-9.38	-8.47
15475	-1.518	-0.163	-0.169	-13.44	-9.59	-7.63
15496	-1.47	-0.15	-0.276	-25.2	-12.6	-6.09
15514	-1.477	-0.191	-0.308	-26.67	-12.67	-3.36
15534	-1.489	-0.282	-0.248	-22.61	-20.51	0.0
15558	-1.42	-0.386	-0.207	-9.24	-21.42	6.58
15578	-1.347	-0.396	-0.231	8.82	-17.43	10.64
15598	-1.331	-0.277	-0.246	17.92	-14.07	8.82
15616	-1.336	-0.089	-0.224	-0.14	-15.4	3.71
15639	-1.265	-0.178	-0.217	-26.6	-21.14	-0.63
15663	-1.214	-0.294	-0.29	-25.62	-22.75	5.46
15681	-1.127	-0.388	-0.323	-7.63	-21.77	11.06
15705	-1.064	-0.293	-0.374	14.14	-22.26	17.5
15723	-1.034	-0.245	-0.356	17.29	-18.55	18.34
15743	-1.003	-0.182	-0.309	8.05	-19.32	14.77
15767	-0.964	-0.203	-0.34	-5.95	-18.06	9.17
15787	-0.925	-0.19	-0.328	-14.42	-22.05	5.53
15805	-0.839	-0.134	-0.296	-23.03	-21.49	2.8
15828	-0.802	-0.138	-0.314	-35.56	-22.12	1.05
15851	-0.749	-0.183	-0.349	-33.32	-20.23	2.17
15867	-0.732	-0.196	-0.337	-31.78	-18.97	4.13
15892	-0.707	-0.177	-0.306	-26.25	-17.22	6.93
15911	-0.694	-0.171	-0.306	-21.49	-14.91	6.44
15931	-0.712	-0.12	-0.308	-22.75	-13.09	4.48
15952	-0.736	-0.139	-0.276	-25.69	-15.54	2.17
15972	-0.757	-0.176	-0.264	-26.18	-16.1	1.68
15992	-0.721	-0.264	-0.313	-3.78	-14.56	4.13
16010	-0.714	-0.194	-0.31	15.05	-16.59	7.21
16029	-0.662	-0.092	-0.274	23.03	-11.83	8.54
16054	-0.658	0.011	-0.228	17.36	-9.03	8.61
16074	-0.614	-0.0	-0.192	0.0	-8.05	6.86
16094	-0.598	-0.023	-0.173	-8.19	-0.49	6.09
16114	-0.611	0.0	-0.154	-14.35	4.27	5.39
16129	-0.678	0.009	-0.187	-18.2	7.49	5.25
16149	-0.669	-0.051	-0.153	-15.05	5.74	6.58
16169	-0.681	-0.06	-0.128	-9.66	9.1	7.42
16191	-0.716	-0.061	-0.116	1.33	13.58	7.63
16215	-0.763	0.042	-0.117	3.43	18.83	6.02
16235	-0.854	0.129	-0.09	-17.78	15.19	2.17
16255	-0.858	0.092	0.001	-52.71	12.11	-1.54
16274	-0.849	0.012	0.081	-69.44	14.49	-4.27
16293	-0.862	-0.072	0.136	-69.93	20.65	-7.84
16316	-0.972	-0.249	0.248	-72.24	14.84	-6.79
16340	-1.002	-0.628	0.388	14.77	19.25	10.92
16360	-1.118	-0.142	0.435	34.09	5.67	13.93
16379	-1.066	-0.111	0.262	-5.53	-13.58	0.0
16399	-1.001	-0.12	0.092	-8.54	-21.84	-10.08
16423	-0.946	-0.08	-0.01	-19.39	-14.07	-11.2
16441	-0.966	-0.187	-0.069	-12.88	-21.84	-8.12
16461	-0.817	-0.228	-0.082	15.05	-23.73	-0.77
16482	-0.799	-0.23	-0.145	45.78	-15.89	5.11
16505	-0.839	-0.096	-0.124	57.82	-16.52	9.38
16526	-0.857	-0.033	-0.02	45.29	-15.96	9.45
16545	-0.82	-0.1	-0.005	41.09	-18.62	8.05
16561	-0.753	-0.088	-0.024	47.95	-14.7	6.51
16586	-0.748	-0.033	-0.175	51.24	-4.9	4.13
16603	-0.822	-0.012	-0.166	49.77	-6.72	3.22
16623	-0.809	0.019	-0.062	31.85	-6.86	1.19
16642	-0.777	-0.073	-0.052	26.6	-4.62	1.05
16667	-0.673	-0.109	-0.121	37.38	-1.47	2.73
16686	-0.633	-0.079	-0.209	43.89	7.35	3.71
16707	-0.689	-0.039	-0.146	34.02	7.56	3.5
16731	-0.711	-0.082	-0.14	19.32	9.38	3.43
16751	-0.682	-0.218	-0.19	26.11	9.52	4.97
16769	-0.699	-0.158	-0.224	34.72	10.99	6.72
16790	-0.727	-0.153	-0.299	35.07	14.0	6.23
16813	-0.806	-0.145	-0.222	28.28	9.24	5.32
16833	-0.834	-0.312	-0.206	26.04	9.59	5.53
16853	-0.802	-0.453	-0.267	58.03	7.0	9.73
16873	-0.763	-0.382	-0.309	90.16	9.17	11.41
16893	-0.783	-0.189	-0.318	92.61	9.17	6.72
16913	-0.862	-0.108	-0.264	61.11	5.88	-3.92
16935	-0.87	-0.146	-0.258	30.1	0.63	-14.14
16959	-0.811	-0.269	-0.261	13.02	4.55	-18.48
16979	-0.825	-0.288	-0.251	13.86	11.34	-20.16
16998	-0.942	-0.183	-0.266	11.55	12.46	-22.33
17017	-0.969	-0.195	-0.297	2.8	7.77	-27.51
17042	-1.011	-0.149	-0.291	-10.5	3.71	-30.38
17057	-0.997	-0.14	-0.242	-20.44	1.54	-31.85
17077	-0.985	-0.003	-0.246	-30.38	3.92	-29.47
17102	-1.031	-0.149	-0.296	-42.49	8.54	-26.46
17121	-1.098	-0.31	-0.36	-24.01	8.47	-19.39
17142	-1.118	-0.254	-0.303	-13.58	6.09	-13.86
17162	-1.19	-0.19	-0.339	-13.86	6.3	-12.81
17178	-1.161	-0.128	-0.326	-27.23	-3.01	-14.42
17202	-1.08	-0.183	-0.335	-42.7	-2.45	-18.06
17221	-1.107	-0.173	-0.312	-40.46	1.89	-17.64
17242	-1.173	-0.103	-0.285	-45.64	4.97	-17.36
17266	-1.209	-0.157	-0.331	-46.69	6.09	-10.5
17286	-1.186	-0.205	-0.304	-29.82	-5.67	-4.13
17303	-1.087	-0.201	-0.224	-21.7	0.77	-2.94
17327	-1.146	-0.15	-0.176	-22.54	3.99	0.0
17346	-1.205	-0.146	-0.224	-27.16	1.47	-1.33
17367	-1.195	-0.245	-0.246	-24.85	1.26	-2.8
17387	-1.324	-0.256	-0.248	-12.46	1.54	-1.75
17406	-1.379	-0.18	-0.219	-16.03	4.69	-2.45
17429	-1.448	-0.226	-0.224	-28.21	11.55	-3.5
17453	-1.401	-0.346	-0.267	-19.25	17.01	-3.36
17473	-1.479	-0.302	-0.302	-6.09	26.18	0.42
17493	-1.695	-0.303	-0.103	3.36	-27.44	-4.69
17517	-1.409	-0.283	-0.057	18.9	-33.6	0.0
17537	-1.412	-0.21	-0.072	14.56	-5.88	-0.28
17556	-1.509	-0.235	-0.148	-5.39	-12.39	-8.12
17576	-1.486	-0.259	-0.2	-16.1	-10.43	-7.07
17596	-1.464	-0.297	-0.245	-20.58	-13.93	-7.56
17620	-1.426	-0.376	-0.243	-13.02	-20.37	-8.47
17640	-1.413	-0.267	-0.216	-15.05	-23.03	-10.5
17660	-1.369	-0.246	-0.211	-20.58	-24.5	-12.04
17680	-1.338	-0.308	-0.195	-24.36	-21.91	-10.01
17700	-1.31	-0.383	-0.271	-12.6	-20.58	-5.6
17724	-1.261	-0.366	-0.287	3.22	-17.29	0.0
17744	-1.246	-0.186	-0.285	7.49	-15.96	1.05
17759	-1.239	-0.119	-0.289	-8.33	-19.11	-1.68
17783	-1.158	-0.274	-0.368	-14.91	-25.48	-2.66
17804	-1.048	-0.411	-0.38	6.09	-21.77	3.92
17823	-1.006	-0.377	-0.34	25.13	-18.27	7.91
17842	-0.984	-0.215	-0.328	24.29	-8.82	9.1
17867	-0.976	-0.106	-0.31	-2.8	-12.46	4.97
17887	-0.886	-0.097	-0.346	-51.1	-13.93	3.22
17911	-0.792	-0.252	-0.334	-44.66	-16.8	4.48
17931	-0.762	-0.197	-0.265	-44.52	-7.84	5.67
17951	-0.812	-0.165	-0.242	-49.77	-11.83	5.18
17971	-0.719	-0.226	-0.275	-37.45	-12.04	7.7
17991	-0.69	-0.232	-0.284	-24.92	-9.24	10.43
18013	-0.67	-0.183	-0.274	-8.47	-3.99	13.02
18036	-0.777	-0.063	-0.159	-14.56	-5.39	12.18
18055	-0.759	-0.062	-0.115	-20.65	-14.84	10.92
18080	-0.695	-0.062	-0.101	-18.76	-14.07	12.74
18100	-0.689	-0.071	-0.097	-19.11	-17.92	12.74
18118	-0.6	-0.132	-0.14	-13.3	-16.8	13.79
18140	-0.65	-0.169	-0.142	-0.07	-11.48	17.92
18159	-0.73	-0.068	-0.134	5.81	-11.13	19.46
18179	-0.75	-0.099	-0.124	3.15	-12.67	20.3
18197	-0.696	-0.189	-0.123	13.44	-11.48	22.82
18216	-0.667	-0.081	-0.139	19.6	-7.63	24.29
18241	-0.648	0.004	-0.171	11.55	-7.14	22.26
18261	-0.633	0.011	-0.196	8.68	-2.1	21.35
18285	-0.701	-0.041	-0.194	12.11	0.77	23.66
18302	-0.704	-0.031	-0.185	18.97	0.63	25.69
18325	-0.691	0.062	-0.162	17.08	5.67	26.32
18346	-0.713	0.172	-0.136	-5.32	7.91	23.94
18366	-0.765	0.148	-0.08	-38.71	12.95	16.59
18384	-0.798	0.099	-0.034	-59.57	15.47	8.96
18404	-0.877	0.04	-0.046	-85.68	25.55	1.33
18428	-0.949	0.023	-0.075	-101.64	31.01	-7.21
18448	-0.995	-0.038	-0.07	-107.1	33.32	-10.57
18467	-1.037	-0.297	-0.02	-87.43	23.31	-10.08
18483	-0.984	-0.796	0.164	-23.24	19.11	-1.47
18503	-1.071	-0.383	0.206	67.55	14.21	17.99
18528	-0.981	-0.102	0.213	53.69	-1.33	7.21
18548	-1.017	0.011	0.045	25.69	-10.15	2.1
18568	-0.898	-0.118	-0.023	23.1	-4.2	2.17
18588	-0.885	-0.102	-0.029	30.8	-3.15	0.35
18607	-0.87	-0.07	0.009	34.09	-3.92	-1.4
18626	-0.849	-0.012	-0.041	47.25	-5.6	-3.43
18645	-0.842	0.049	-0.119	52.01	-11.83	-5.53
18669	-0.795	0.064	-0.125	49.98	-20.58	-11.76
18689	-0.781	0.103	-0.121	42.0	-22.19	-16.66
18709	-0.792	0.042	-0.1	39.48	-22.33	-18.41
18729	-0.805	0.061	-0.068	38.99	-18.69	-17.64
18747	-0.758	0.002	-0.07	42.91	-14.28	-14.14
18769	-0.75	0.063	-0.143	47.11	-1.54	-7.91
18789	-0.763	-0.0	-0.186	42.14	0.35	-6.65
18808	-0.73	-0.008	-0.143	35.7	3.22	-6.16
18832	-0.657	-0.139	-0.242	35.28	12.53	-4.9
18852	-0.589	-0.252	-0.297	54.74	14.14	-4.62
18872	-0.538	-0.228	-0.301	49.35	28.07	-10.71
18895	-0.637	-0.244	-0.243	27.09	32.48	-25.97
18919	-0.748	-0.024	-0.176	-25.13	28.56	-45.5
18938	-0.715	-0.143	-0.204	-55.93	17.57	-53.2
18963	-0.608	-0.334	-0.242	-39.62	11.9	-49.91
18987	-0.61	-0.279	-0.276	-20.58	16.03	-41.51
19007	-0.736	-0.336	-0.342	4.41	11.97	-31.08
19027	-0.775	-0.332	-0.312	22.4	12.18	-21.0
19042	-0.86	-0.313	-0.271	30.17	9.38	-16.03
19067	-0.881	-0.229	-0.221	37.94	3.85	-10.64
19091	-0.958	-0.206	-0.306	31.15	6.44	-10.43
19111	-1.027	-0.216	-0.344	28.77	-4.9	-11.9
19131	-1.048	-0.183	-0.31	12.25	-10.71	-14.7
19149	-1.07	-0.384	-0.293	18.69	-12.81	-12.81
19171	-1.072	-0.303	-0.269	30.17	-10.78	-9.52
19187	-1.128	-0.196	-0.289	23.66	-10.85	-7.0
19206	-1.097	-0.25	-0.291	15.33	-14.42	-5.6
19231	-1.088	-0.196	-0.264	8.05	-14.0	0.56
19250	-1.06	-0.235	-0.211	-4.55	-11.55	2.1
19272	-1.111	-0.29	-0.212	-12.46	-8.47	1.54
19291	-1.186	-0.349	-0.265	-13.58	-2.66	-0.21
19312	-1.223	-0.306	-0.304	-13.37	-11.27	-2.1
19331	-1.161	-0.153	-0.281	-19.39	-13.86	-3.08
19355	-1.117	-0.146	-0.216	-56.56	-16.24	-11.62
19375	-1.091	-0.282	-0.236	-54.53	-3.5	-11.41
19395	-1.234	-0.377	-0.338	-38.64	1.61	-5.6
19415	-1.221	-0.41	-0.413	-17.64	0.7	5.53
19432	-1.128	-0.417	-0.406	7.7	0.98	8.12
19450	-1.102	-0.277	-0.354	9.17	5.32	6.86
19472	-1.121	-0.061	-0.345	-12.74	10.08	-0.07
19492	-1.2	-0.046	-0.264	-51.59	15.33	-7.63
19516	-1.265	-0.325	-0.313	-70.77	20.02	-6.37
19531	-1.236	-0.526	-0.433	-41.51	11.62	0.84
19556	-1.179	-0.406	-0.396	-1.96	13.72	11.2
19576	-1.249	-0.148	-0.333	-3.5	14.77	7.7
19596	-1.312	-0.158	-0.251	-24.5	7.77	1.54
19616	-1.383	-0.382	-0.171	-15.26	-4.55	0.42
19636	-1.416	-0.464	-0.143	21.07	-11.06	5.6
19656	-1.341	-0.355	-0.164	22.82	-17.85	3.22
19676	-1.414	-0.24	-0.14	13.93	-3.78	-4.55
19695	-1.54	-0.252	-0.194	-6.02	-14.35	-6.58
19716	-1.469	-0.361	-0.294	-0.07	-11.97	-4.06
19735	-1.52	-0.31	-0.32	6.79	-12.25	-1.75
19756	-1.497	-0.335	-0.297	12.11	-16.1	-1.54
19776	-1.454	-0.392	-0.286	16.31	-19.95	-3.71
19794	-1.397	-0.366	-0.261	16.17	-17.99	-5.95
19816	-1.367	-0.301	-0.265	4.76	-13.44	-6.93
19831	-1.377	-0.313	-0.281	-3.64	-13.16	-8.4
19856	-1.325	-0.334	-0.331	-11.83	-12.81	-8.47
19875	-1.251	-0.381	-0.341	-4.83	-10.29	-5.11
19892	-1.19	-0.375	-0.36	4.55	-6.37	-1.4
19916	-1.144	-0.332	-0.366	11.97	-2.59	3.22
19936	-1.098	-0.214	-0.354	-4.9	-5.53	3.15
19956	-1.039	-0.235	-0.337	-16.17	-4.83	6.58
19976	-0.921	-0.277	-0.333	-22.4	-10.57	7.84
19994	-0.813	-0.301	-0.316	-20.23	-5.25	10.15
20013	-0.844	-0.145	-0.241	-29.12	-5.32	10.22
20038	-0.761	-0.176	-0.269	-47.18	-10.15	7.49
20057	-0.65	-0.245	-0.309	-48.02	-9.8	8.96
20077	-0.63	-0.231	-0.305	-45.85	-2.94	11.69
20097	-0.704	-0.137	-0.242	-50.61	-2.59	14.07
20117	-0.688	-0.262	-0.263	-53.13	-10.85	16.87
20137	-0.614	-0.281	-0.274	-32.62	-10.78	22.54
20160	-0.613	-0.228	-0.308	-15.4	-6.3	25.34
20180	-0.678	-0.224	-0.234	-7.0	-11.48	21.7
20199	-0.709	-0.146	-0.222	-7.77	-15.47	20.37
20224	-0.68	-0.157	-0.283	5.88	-24.43	21.35
20241	-0.661	-0.147	-0.296	14.14	-23.66	23.31
20264	-0.699	-0.133	-0.175	30.45	-26.11	27.44
20284	-0.759	-0.072	-0.123	33.25	-29.68	29.19
20303	-0.745	-0.161	-0.156	51.45	-38.08	35.07
20328	-0.565	-0.153	-0.217	99.33	-46.34	39.55
20347	-0.449	0.049	-0.201	95.83	-25.97	36.33
20364	-0.587	0.192	-0.116	64.89	-13.23	25.2
20384	-0.725	0.143	-0.026	15.68	-10.85	14.21
20405	-0.733	-0.076	-0.023	-11.41	-7.98	5.95
20428	-0.705	-0.117	-0.062	-16.66	4.48	2.24
20452	-0.773	-0.03	-0.089	-25.69	11.41	-2.17
20471	-0.796	0.003	-0.137	-32.27	13.72	-5.18
20492	-0.858	0.109	-0.143	-51.38	16.52	-6.72
20510	-0.809	0.014	-0.114	-60.34	22.12	-0.63
20530	-0.87	-0.051	0.024	-54.25	29.19	7.21
20550	-0.977	-0.273	0.199	-33.81	37.87	20.72
20569	-1.05	-0.388	0.226	44.03	32.55	37.03
20594	-1.137	0.011	0.208	30.03	-2.66	15.89
20614	-1.071	0.146	0.087	10.01	-18.9	-1.19
20630	-0.936	0.005	-0.049	-17.78	-15.19	-4.48
20650	-0.964	-0.015	-0.147	-24.5	-4.97	-1.26
20670	-0.89	-0.179	-0.13	-4.13	-6.09	7.0
20694	-0.823	-0.188	-0.124	17.08	0.49	12.39
20714	-0.821	-0.084	-0.115	19.04	-0.49	11.55
20734	-0.804	-0.046	-0.095	13.65	-5.88	6.16
20754	-0.732	-0.089	-0.187	14.63	-0.14	3.08
20773	-0.831	-0.108	-0.21	21.91	-3.92	2.38
20794	-0.8	-0.022	-0.135	24.29	-6.51	-3.01
20813	-0.859	-0.062	-0.052	24.08	-5.81	-5.95
20836	-0.784	-0.041	0.012	34.3	-7.63	-5.95
20857	-0.773	-0.003	-0.042	42.77	4.76	-5.88
20873	-0.79	0.039	-0.089	43.47	5.88	-6.02
20897	-0.796	0.023	-0.092	41.58	6.58	-7.14
20917	-0.791	0.018	-0.084	36.96	6.65	-7.77
20937	-0.764	0.035	-0.083	34.09	5.25	-5.88
20957	-0.701	0.027	-0.107	30.59	6.51	-4.9
20977	-0.685	0.029	-0.088	22.12	5.67	-4.69
21001	-0.679	-0.048	-0.039	13.3	4.48	-4.62
21019	-0.69	-0.105	-0.042	13.23	-0.77	-4.69
21039	-0.671	-0.17	-0.154	26.11	-0.7	-2.87
21063	-0.719	-0.254	-0.325	42.07	-3.08	-1.33
21083	-0.773	-0.281	-0.292	56.7	-13.79	-2.94
21099	-0.794	-0.306	-0.244	60.13	-11.34	-4.34
21122	-0.811	-0.368	-0.257	67.97	-11.97	-6.44
21142	-0.789	-0.333	-0.326	77.07	-7.21	-9.66
21166	-0.855	-0.261	-0.346	66.64	-3.85	-16.66
21185	-0.891	-0.253	-0.314	45.92	-6.65	-23.03
21205	-0.88	-0.216	-0.282	15.33	-9.52	-27.02
21224	-0.843	-0.112	-0.228	-3.71	-5.39	-28.0
21244	-0.91	-0.133	-0.271	-30.59	-2.87	-31.99
21263	-0.977	-0.248	-0.333	-38.92	-4.34	-31.36
21288	-1.036	-0.214	-0.361	-34.58	-3.43	-25.83
21308	-1.089	-0.259	-0.348	-19.25	-3.99	-20.93
21330	-1.128	-0.228	-0.306	-8.05	-2.94	-16.38
21352	-1.209	-0.145	-0.274	-3.08	1.54	-12.46
21372	-1.189	-0.073	-0.309	-10.15	-6.65	-12.04
21389	-1.093	-0.117	-0.339	-19.11	-3.78	-11.76
21410	-1.105	-0.147	-0.343	-25.27	2.87	-11.9
21429	-1.209	-0.156	-0.299	-26.6	3.36	-11.27
21453	-1.2	-0.266	-0.285	-19.95	4.41	-8.82
21473	-1.186	-0.25	-0.298	-11.69	7.0	-4.83
21490	-1.113	-0.198	-0.319	-18.69	3.57	-7.07
21514	-1.051	-0.226	-0.315	-33.04	7.77	-11.2
21534	-1.179	-0.339	-0.335	-38.36	16.59	-11.62
21554	-1.204	-0.311	-0.323	-27.51	13.93	-9.17
21574	-1.172	-0.257	-0.297	-30.52	13.02	-7.49
21594	-1.141	-0.175	-0.315	-33.32	14.56	-4.34
21609	-1.115	-0.237	-0.325	-54.04	20.02	-5.95
21634	-1.279	-0.314	-0.324	-49.7	34.51	-2.52
21654	-1.296	-0.28	-0.282	-33.81	18.41	2.94
21678	-1.212	-0.275	-0.195	-27.44	25.55	5.25
21698	-1.5	-0.226	-0.199	-14.42	24.22	0.77
21718	-1.487	-0.308	0.015	15.75	-12.18	2.52
21733	-1.552	-0.349	0.107	7.63	-9.73	0.56
21758	-1.534	-0.311	-0.021	24.43	-24.99	-0.63
21777	-1.439	-0.237	-0.035	27.02	-9.31	-0.42
21797	-1.567	-0.131	-0.124	2.94	-4.62	-7.91
21817	-1.559	0.003	-0.264	-31.29	-14.98	-11.2
21836	-1.532	-0.067	-0.368	-54.46	-18.83	-15.33
21857	-1.559	-0.092	-0.36	-67.69	-32.34	-18.06
21881	-1.503	-0.201	-0.301	-51.1	-37.03	-9.8
21899	-1.457	-0.214	-0.271	-31.64	-32.97	1.19
21921	-1.407	-0.233	-0.316	-14.7	-26.88	13.23
21941	-1.374	-0.257	-0.355	6.09	-17.08	23.17
21961	-1.333	-0.238	-0.418	20.72	-3.71	29.12
21978	-1.319	-0.134	-0.428	18.97	1.47	30.38
21997	-1.256	-0.064	-0.427	1.68	3.78	27.93
22022	-1.202	-0.069	-0.466	-29.54	6.44	19.25
22042	-1.204	-0.113	-0.365	-55.93	9.1	12.74
22062	-1.164	-0.176	-0.401	-73.43	-5.25	10.71
22082	-1.011	-0.236	-0.418	-68.6	-12.95	14.84
22106	-0.825	-0.21	-0.489	-53.27	-12.46	18.13
22125	-0.789	-0.23	-0.488	-42.07	-9.03	20.37
22142	-0.765	-0.146	-0.39	-35.77	-11.97	20.65
22166	-0.724	-0.058	-0.31	-48.37	-13.44	19.95
22186	-0.605	-0.091	-0.309	-61.74	-16.1	18.13
22206	-0.518	-0.135	-0.336	-64.33	-12.39	15.68
22222	-0.484	-0.051	-0.316	-65.66	-15.33	14.35
22241	-0.47	0.083	-0.314	-83.23	-13.51	10.29
22266	-0.533	0.075	-0.374	-99.4	-11.76	6.23
22286	-0.602	0.097	-0.397	-102.97	-18.2	7.35
22306	-0.636	0.08	-0.367	-99.89	-21.56	8.82
22330	-0.649	-0.06	-0.301	-74.48	-30.38	15.68
22350	-0.528	-0.097	-0.249	-37.94	-25.06	22.4
22368	-0.513	-0.053	-0.232	-8.82	-18.48	25.83
22387	-0.508	0.022	-0.204	10.57	-13.86	27.02
22412	-0.559	0.091	-0.244	21.28	-7.28	23.87
22431	-0.606	0.11	-0.269	20.51	-3.36	19.6
22451	-0.697	0.158	-0.274	11.69	-4.83	12.81
22475	-0.715	0.122	-0.19	-10.5	1.05	5.11
22494	-0.751	0.143	-0.146	-23.31	11.55	0.28
22515	-0.815	0.209	-0.179	-52.01	22.61	-6.65
22535	-0.93	0.277	-0.202	-81.2	20.86	-14.42
22554	-1.012	0.232	-0.159	-123.41	14.77	-23.17
22575	-1.027	0.136	-0.086	-150.57	12.53	-31.15
22590	-1.13	0.118	-0.031	-183.96	-1.4	-37.24
22612	-1.432	-0.477	0.355	-132.79	-68.18	-55.51
22631	-1.013	-0.326	0.486	-83.93	-64.12	-27.93
22655	-1.059	-0.289	0.123	-56.91	-34.93	-13.58
22674	-1.064	-0.087	-0.037	-27.51	-23.38	-4.13
22695	-1.153	0.069	-0.129	-50.75	-28.7	-0.42
22712	-1.125	-0.021	-0.14	-59.08	-32.27	0.07
22732	-1.098	-0.171	-0.162	-59.99	-38.78	-3.5
22752	-1.106	-0.299	-0.203	-38.57	-43.61	-5.04
22776	-1.036	-0.34	-0.183	-9.45	-47.88	-11.55
22796	-1.034	-0.27	-0.166	6.72	-44.31	-17.29
22815	-1.017	-0.23	-0.171	15.89	-43.19	-24.43
22836	-0.989	-0.276	-0.153	19.67	-40.18	-33.39
22853	-0.98	-0.195	-0.16	17.78	-33.53	-41.93
22877	-1.059	-0.093	-0.141	-4.62	-30.66	-55.86
22897	-1.059	-0.122	-0.132	-17.64	-28.49	-68.46
22917	-1.033	-0.201	-0.132	-24.5	-33.39	-78.19
22937	-0.927	-0.236	-0.122	-22.19	-22.89	-88.41
22952	-0.901	-0.178	-0.126	-21.84	-17.85	-96.32
22972	-0.947	-0.133	-0.072	-25.2	-11.06	-107.52
22997	-0.927	-0.226	0.033	-31.01	-6.3	-121.87
23017	-0.871	-0.254	0.058	-21.35	10.15	-128.38
23037	-0.895	-0.248	0.049	-12.25	10.36	-135.1
23057	-0.873	-0.094	0.02	-13.79	9.24	-141.96
23072	-0.874	-0.064	-0.021	-21.63	5.39	-145.88
23097	-0.876	-0.165	-0.074	-31.15	3.43	-144.06
23117	-0.882	-0.336	-0.06	-21.77	-4.13	-136.78
23141	-0.831	-0.452	-0.009	2.8	-3.15	-122.08
23161	-0.871	-0.414	0.001	21.07	0.0	-110.81
23181	-0.896	-0.433	-0.015	31.01	-2.03	-104.58
23201	-0.878	-0.539	-0.015	35.84	-0.7	-98.28
23220	-0.835	-0.563	0.003	44.38	-3.22	-94.99
23240	-0.774	-0.594	0.063	43.47	-1.05	-94.92
23263	-0.752	-0.53	0.057	37.66	6.86	-96.74
23287	-0.788	-0.586	0.053	28.42	3.08	-99.4
23307	-0.734	-0.679	0.051	26.11	0.14	-101.01
23325	-0.668	-0.695	-0.005	31.01	4.97	-98.49
23349	-0.722	-0.635	-0.024	32.76	1.68	-94.78
23369	-0.67	-0.668	0.022	25.83	-6.93	-89.74
23389	-0.612	-0.773	0.079	22.4	-2.87	-81.34
23408	-0.628	-0.872	0.062	31.85	-4.9	-71.61
23428	-0.58	-0.899	0.015	52.57	-4.2	-59.99
23452	-0.508	-0.83	0.029	68.46	-4.41	-49.56
23471	-0.452	-0.741	0.102	60.97	-1.33	-45.43
23496	-0.422	-0.779	0.157	48.23	4.97	-43.89
23515	-0.424	-0.787	0.154	46.13	14.56	-44.66
23536	-0.48	-0.742	0.115	43.96	11.83	-43.61
23555	-0.421	-0.696	0.173	28.98	9.03	-43.82
23577	-0.409	-0.775	0.213	6.23	14.56	-41.72
23596	-0.386	-0.939	0.234	3.5	13.79	-35.98
23621	-0.37	-0.954	0.261	9.38	22.75	-29.26
23639	-0.402	-0.898	0.261	12.32	24.43	-24.36
23659	-0.395	-0.88	0.265	10.01	20.86	-17.99
23678	-0.372	-0.923	0.262	4.97	20.09	-11.83
23703	-0.341	-0.98	0.275	7.84	20.58	-2.87
23723	-0.365	-0.968	0.246	10.85	23.73	5.67
23747	-0.414	-0.909	0.244	7.91	21.42	10.5
23767	-0.467	-0.844	0.253	-3.85	18.27	14.07
23786	-0.461	-0.913	0.303	-16.52	14.42	20.02
23806	-0.435	-1.007	0.328	-21.21	16.66	28.21
23824	-0.429	-1.04	0.297	-11.48	17.29	39.41
23846	-0.424	-0.923	0.226	-4.76	19.6	50.05
23870	-0.438	-0.821	0.177	-10.36	19.88	59.57
23889	-0.452	-0.743	0.163	-18.76	23.03	66.57
23913	-0.482	-0.762	0.165	-24.78	21.14	74.69
23933	-0.492	-0.668	0.144	-27.86	26.95	81.13
23950	-0.544	-0.599	0.112	-32.27	28.0	86.1
23973	-0.591	-0.513	0.096	-43.19	26.81	91.84
23993	-0.653	-0.477	0.073	-53.83	26.46	96.46
24016	-0.695	-0.488	0.067	-58.38	18.13	101.92
24037	-0.691	-0.521	0.061	-54.39	13.09	105.7
24057	-0.724	-0.41	-0.003	-52.5	13.51	109.83
24078	-0.817	-0.384	-0.047	-50.68	7.63	114.66
24097	-0.828	-0.367	-0.09	-43.96	-3.92	119.77
24117	-0.846	-0.427	-0.093	-31.57	-9.17	124.39
24142	-0.831	-0.404	-0.097	-12.39	-13.3	128.94
24161	-0.864	-0.347	-0.129	-0.56	-7.14	133.07
24181	-0.938	-0.258	-0.151	9.8	-8.96	136.36
24205	-0.984	-0.217	-0.157	11.48	-11.34	136.64
24229	-0.997	-0.283	-0.159	18.83	-2.52	136.43
24249	-1.077	-0.239	-0.155	27.93	-7.35	134.75
24269	-1.011	-0.182	-0.096	31.01	0.07	133.0
24292	-0.996	-0.17	-0.069	24.99	12.18	129.22
24315	-0.978	-0.157	-0.083	24.15	21.49	125.65
24336	-0.955	-0.122	-0.074	16.24	25.2	117.74
24356	-0.917	-0.062	-0.066	11.27	29.26	108.64
24375	-0.946	0.026	-0.075	3.36	31.01	100.45
24391	-0.998	0.053	-0.118	-3.43	28.84	93.38
24416	-1.056	0.031	-0.153	-6.16	25.83	85.12
24436	-1.121	0.052	-0.183	-7.35	14.49	81.06
24453	-1.094	0.025	-0.148	-3.71	9.87	77.77
24473	-1.088	0.009	-0.17	-0.63	4.76	73.78
24497	-1.102	0.025	-0.19	2.8	8.26	70.21
24516	-1.16	0.038	-0.21	8.47	7.56	68.18
24532	-1.16	0.054	-0.205	14.84	6.72	67.48
24557	-1.147	0.092	-0.195	17.36	8.19	65.59
24581	-1.145	0.032	-0.191	18.13	8.82	62.51
24605	-1.115	0.039	-0.183	22.61	14.07	57.89
24625	-1.116	0.113	-0.162	18.69	16.38	50.33
24644	-1.101	0.161	-0.136	8.33	17.64	40.74
24662	-1.104	0.201	-0.124	-5.81	18.69	30.94
24686	-1.134	0.188	-0.104	-29.89	15.4	18.48
24701	-1.149	0.154	-0.096	-44.17	13.79	9.59
24726	-1.147	0.106	-0.094	-53.76	6.93	-0.7
24746	-1.12	0.087	-0.107	-52.71	5.04	-6.09
24766	-1.127	0.084	-0.136	-47.11	1.75	-12.25
24786	-1.141	0.088	-0.14	-41.79	-1.89	-19.04
24806	-1.159	0.102	-0.129	-38.08	-6.23	-24.22
24821	-1.193	0.093	-0.133	-34.3	-13.23	-28.21
24841	-1.154	0.076	-0.128	-26.32	-20.86	-30.87
24866	-1.106	0.09	-0.133	-18.55	-23.38	-34.65
24886	-1.121	0.092	-0.145	-8.61	-26.18	-37.03
24905	-1.107	0.096	-0.137	-3.43	-28.63	-39.27
24925	-1.106	0.084	-0.122	-1.26	-30.17	-42.35
24948	-1.11	0.102	-0.115	-1.75	-29.89	-47.32
24968	-1.114	0.095	-0.128	-4.76	-30.8	-52.43
24984	-1.112	0.093	-0.137	-6.02	-30.38	-57.12
25004	-1.129	0.069	-0.134	-10.01	-31.01	-63.77
25029	-1.124	0.053	-0.123	-14.7	-32.62	-72.38
25048	-1.126	-0.015	-0.127	-13.86	-32.83	-79.24
25067	-1.112	-0.047	-0.124	-7.91	-32.62	-86.52
25087	-1.079	-0.09	-0.126	2.31	-32.76	-92.19
25107	-1.045	-0.09	-0.122	10.99	-31.08	-98.91
25131	-1.004	-0.085	-0.061	15.26	-31.43	-108.5
25149	-0.968	-0.134	-0.017	14.91	-27.65	-118.16
25171	-0.956	-0.217	0.034	14.14	-24.36	-131.11
25195	-0.882	-0.338	0.053	23.94	-24.57	-148.19
25215	-0.793	-0.139	0.077	40.25	-15.96	-161.49
25235	-0.809	-0.052	0.102	29.89	-4.76	-171.85
25254	-0.923	0.19	0.101	-9.38	-5.18	-182.63
25273	-1.02	0.19	0.076	-56.77	-11.62	-191.87
25292	-1.007	-0.082	0.048	-93.17	-19.32	-193.97
25312	-0.948	-0.277	-0.026	-95.34	-18.62	-185.78
25338	-0.931	-0.406	-0.082	-73.08	-13.86	-166.18
25357	-0.909	-0.548	-0.078	-47.6	-16.8	-146.79
25376	-0.782	-0.618	0.119	0.28	-12.95	-124.74
25396	-0.739	-0.578	0.042	22.26	-0.91	-104.93
25416	-0.747	-0.545	0.079	32.69	-2.45	-95.13
25440	-0.701	-0.554	0.114	33.04	-7.56	-83.79
25458	-0.573	-0.597	0.13	38.36	-11.55	-79.03
25482	-0.446	-0.661	0.124	47.25	-7.07	-67.34
25501	-0.37	-0.632	0.114	57.82	-0.56	-59.85
25522	-0.401	-0.625	0.04	60.9	11.34	-50.4
25542	-0.533	-0.725	-0.054	67.13	2.8	-45.01
25557	-0.581	-0.756	-0.027	69.79	-10.92	-44.87
25577	-0.501	-0.66	0.052	66.85	-14.35	-44.1
25602	-0.528	-0.558	0.149	40.18	-6.72	-43.75
25622	-0.638	-0.666	0.218	12.18	-9.94	-40.74
25645	-0.543	-0.833	0.224	7.28	-14.91	-32.27
25666	-0.481	-1.005	0.202	19.46	4.55	-22.82
25682	-0.504	-0.984	0.152	30.66	8.33	-17.71
25702	-0.461	-0.991	0.222	30.87	9.24	-15.54
25721	-0.383	-0.941	0.294	28.49	23.73	-13.58
25746	-0.459	-0.919	0.323	18.69	32.69	-12.18
25766	-0.463	-0.882	0.329	12.18	30.45	-13.16
25786	-0.465	-0.943	0.32	1.26	24.22	-13.44
25803	-0.388	-0.954	0.33	-3.64	24.5	-11.97
25822	-0.43	-0.95	0.271	-4.27	29.05	-7.28
25847	-0.478	-0.895	0.223	-15.54	20.72	-0.63
25867	-0.483	-0.88	0.215	-29.19	17.5	8.33
25882	-0.469	-0.972	0.23	-29.82	14.07	18.62
25907	-0.464	-0.955	0.199	-18.27	17.15	38.43
25924	-0.492	-0.896	0.157	-10.92	16.24	51.17
25947	-0.513	-0.809	0.105	-1.82	18.76	67.27
25966	-0.528	-0.706	0.109	-1.19	21.35	77.21
25991	-0.587	-0.612	0.111	-10.22	26.74	86.73
26009	-0.677	-0.553	0.074	-13.79	27.86	93.94
26032	-0.731	-0.529	0.055	-20.86	22.96	100.31
26056	-0.749	-0.516	0.052	-23.17	22.61	105.84
26076	-0.797	-0.498	0.022	-26.39	24.64	108.71
26096	-0.839	-0.459	-0.011	-26.95	22.89	112.49
26116	-0.867	-0.431	-0.038	-26.18	20.02	116.2
26136	-0.855	-0.418	-0.042	-22.54	16.52	120.19
26154	-0.819	-0.409	-0.022	-17.08	14.63	122.85
26179	-0.8	-0.362	-0.006	-13.16	17.01	125.72
26195	-0.815	-0.288	-0.002	-9.17	17.36	125.16
26217	-0.843	-0.215	-0.02	-8.96	15.47	123.83
26239	-0.857	-0.268	-0.044	-1.75	7.84	120.12
26260	-0.812	-0.205	-0.08	13.65	7.56	117.95
26279	-0.827	-0.124	-0.091	21.21	8.61	116.2
26304	-0.847	-0.103	-0.061	23.8	6.37	110.95
26324	-0.857	-0.072	-0.074	26.32	14.91	109.34
26344	-0.982	-0.047	-0.131	25.97	16.24	108.08
26364	-1.019	-0.091	-0.123	30.66	8.19	105.21
26383	-0.985	-0.076	-0.085	30.31	11.13	102.55
26408	-0.997	-0.032	-0.085	24.99	23.24	99.96
26428	-1.062	-0.005	-0.12	23.03	30.1	97.86
26447	-1.128	0.03	-0.137	19.88	29.12	96.25
26468	-1.112	-0.012	-0.099	6.51	28.49	94.01
26487	-1.086	-0.082	-0.091	0.28	31.36	92.75
26510	-1.097	-0.112	-0.125	3.5	36.68	89.81
26530	-1.153	-0.093	-0.169	8.47	41.72	85.26
26554	-1.205	-0.042	-0.192	14.14	35.7	77.63
26573	-1.192	-0.089	-0.107	8.82	29.75	69.23
26593	-1.178	-0.023	-0.063	-2.8	30.87	59.57
26612	-1.216	-0.023	-0.063	-12.95	24.5	50.12
26637	-1.197	0.021	-0.087	-23.31	19.88	36.96
26657	-1.247	0.078	-0.119	-35.35	14.14	27.65
26675	-1.283	-0.003	-0.104	-42.84	3.08	18.13
26699	-1.267	-0.046	-0.101	-41.44	-3.85	8.12
26717	-1.28	-0.11	-0.118	-30.8	-8.33	1.54
26739	-1.268	-0.095	-0.139	-16.59	-10.71	-5.25
26759	-1.289	-0.08	-0.147	0.91	-18.2	-12.25
26777	-1.237	-0.093	-0.118	9.31	-23.8	-19.81
26796	-1.206	-0.031	-0.092	12.32	-25.48	-28.21
26820	-1.194	0.016	-0.086	7.42	-29.33	-42.14
26840	-1.212	-0.01	-0.099	0.21	-32.9	-71.12
26858	-1.185	-0.027	-0.109	-1.61	-36.19	-63.84
26882	-1.197	-0.037	-0.122	-6.58	-36.54	-78.68
26902	-1.21	-0.071	-0.134	-5.81	-40.32	-92.54
26920	-1.225	-0.022	-0.114	-8.26	-40.6	-104.79
26939	-1.238	0.005	-0.102	-17.22	-44.38	-116.76
26964	-1.192	-0.003	-0.105	-28.35	-47.32	-129.22
26984	-1.106	-0.066	-0.102	-32.13	-47.81	-135.17
27001	-1.052	-0.126	-0.089	-32.69	-47.11	-140.14
27024	-0.989	-0.146	-0.085	-23.8	-39.27	-144.48
27042	-1.013	-0.11	-0.074	-18.83	-36.33	-146.86
27066	-0.984	-0.134	-0.055	-17.15	-37.45	-151.97
27082	-0.967	-0.146	-0.056	-15.12	-33.88	-154.35
27103	-0.967	-0.171	-0.076	-12.88	-32.69	-156.45
27124	-0.963	-0.206	-0.075	-7.7	-33.81	-157.71
27146	-0.927	-0.242	-0.066	1.05	-34.58	-155.68
27165	-0.917	-0.271	-0.054	6.37	-31.43	-152.04
27187	-0.925	-0.305	-0.035	12.81	-31.57	-146.58
27206	-0.904	-0.313	-0.018	16.1	-33.53	-140.49
27230	-0.838	-0.331	0.013	16.66	-36.54	-131.39
27249	-0.772	-0.366	0.075	13.51	-30.66	-124.25
27268	-0.774	-0.359	0.1	5.53	-23.59	-115.22
27285	-0.815	-0.438	0.106	3.92	-26.81	-104.72
27305	-0.736	-0.659	0.133	10.85	-36.96	-93.38
27329	-0.58	-0.759	0.154	39.27	-33.39	-76.3
27349	-0.521	-0.717	0.173	60.13	-26.81	-66.29
27369	-0.468	-0.527	0.201	57.12	-19.46	-64.05
27389	-0.444	-0.539	0.237	49.0	-24.92	-60.62
27410	-0.359	-0.456	0.278	41.58	-21.0	-58.1
27434	-0.347	-0.468	0.296	23.8	-18.62	-55.23
27454	-0.305	-0.498	0.324	11.76	-17.85	-52.29
27473	-0.288	-0.512	0.289	1.47	-11.34	-48.02
27493	-0.33	-0.571	0.241	-7.84	-9.17	-41.51
27512	-0.337	-0.64	0.234	-13.79	-9.87	-34.16
27536	-0.32	-0.762	0.249	-12.46	-6.58	-21.49
27555	-0.35	-0.764	0.234	-4.55	4.13	-10.08
27576	-0.438	-0.787	0.231	1.47	3.64	2.59
27596	-0.428	-0.875	0.286	2.52	4.34	13.16
27620	-0.419	-0.934	0.307	6.3	15.54	23.94
27639	-0.464	-0.941	0.294	9.31	21.35	31.57
27660	-0.504	-0.994	0.314	10.15	23.31	38.71
27678	-0.508	-1.018	0.343	10.99	27.86	42.14
27700	-0.552	-0.962	0.354	2.87	37.24	42.56
27720	-0.656	-1.05	0.377	-3.64	33.67	39.69
27740	-0.664	-1.012	0.385	-8.19	28.63	35.7
27757	-0.638	-0.979	0.386	-14.21	23.31	33.32
27780	-0.592	-0.943	0.373	-25.34	22.68	31.85
27800	-0.616	-0.962	0.285	-33.95	20.3	35.0
27824	-0.596	-1.022	0.239	-26.95	14.42	42.84
27844	-0.57	-0.928	0.175	-17.85	18.76	50.75
27863	-0.613	-0.82	0.145	-15.61	18.48	56.98
27884	-0.618	-0.657	0.149	-21.77	19.74	62.51
27908	-0.631	-0.631	0.156	-31.64	19.6	70.21
27928	-0.629	-0.615	0.166	-34.16	21.63	76.23
27946	-0.647	-0.561	0.124	-32.48	23.94	80.64
27967	-0.66	-0.439	0.057	-31.29	29.61	86.52
27989	-0.747	-0.341	-0.011	-38.15	30.94	90.93
28013	-0.801	-0.349	-0.035	-41.37	24.22	96.39
28029	-0.809	-0.372	-0.026	-39.76	17.85	99.75
28049	-0.786	-0.316	-0.002	-39.34	15.82	103.67
28073	-0.804	-0.266	0.012	-39.9	15.96	108.71
28093	-0.823	-0.236	-0.022	-38.22	14.91	112.7
28113	-0.85	-0.234	-0.063	-29.96	13.58	118.3
28133	-0.88	-0.244	-0.098	-16.03	6.3	122.08
28150	-0.866	-0.225	-0.1	-7.49	3.08	124.81
28174	-0.866	-0.164	-0.129	2.73	7.56	130.69
28194	-0.97	-0.133	-0.165	13.72	16.24	131.18
28214	-1.09	-0.081	-0.197	13.02	16.66	127.89
28234	-1.228	-0.027	-0.188	7.49	18.27	123.34
28252	-1.35	0.021	-0.142	-2.31	3.64	118.37
28271	-1.239	0.062	-0.018	-21.28	-4.48	116.34
28296	-1.057	-0.024	0.081	-39.27	2.45	117.81
28316	-0.985	-0.034	0.074	-53.41	16.66	119.98
28336	-1.043	-0.043	-0.05	-56.14	21.84	119.84
28356	-1.07	-0.063	-0.142	-39.41	14.56	120.47
28375	-1.066	-0.057	-0.201	-22.33	4.97	119.42
28392	-1.046	-0.044	-0.232	-5.74	-1.68	117.39
28414	-1.035	-0.044	-0.235	9.45	-9.24	114.1
28436	-1.038	-0.008	-0.23	27.09	-13.09	111.02
28455	-1.048	0.037	-0.232	36.54	-15.19	105.28
28480	-1.062	0.082	-0.215	40.6	-16.66	93.59
28498	-1.054	0.122	-0.17	38.99	-16.03	85.05
28517	-1.021	0.161	-0.002	33.04	-9.59	73.99
28540	-0.992	0.223	-0.074	18.2	0.42	59.01
28563	-0.983	0.268	-0.029	-2.03	10.92	41.65
28584	-1.017	0.288	-0.035	-34.09	21.14	22.61
28603	-1.062	0.285	-0.051	-54.04	24.71	8.54
28623	-1.145	0.281	-0.08	-72.45	25.41	-10.15
28643	-1.201	0.26	-0.104	-82.46	20.37	-28.0
28663	-1.222	0.255	-0.105	-87.08	14.0	-41.79
28687	-1.213	0.25	-0.1	-87.99	7.63	-55.16
28707	-1.179	0.23	-0.081	-86.17	3.5	-60.83
28727	-1.169	0.164	-0.089	-80.64	-1.4	-61.6
28747	-1.138	0.131	-0.084	-71.75	-5.18	-61.04
28771	-1.108	0.073	-0.079	-59.08	-6.44	-60.76
28790	-1.12	0.038	-0.082	-42.91	-8.26	-60.69
28810	-1.119	0.042	-0.075	-27.3	-9.24	-61.81
28830	-1.14	0.051	-0.069	-12.25	-11.55	-64.89
28854	-1.13	0.055	-0.057	1.19	-14.84	-71.26
28873	-1.099	0.027	-0.041	6.37	-18.41	-78.33
28891	-1.045	-0.03	-0.061	14.14	-20.93	-86.31
28915	-0.975	-0.057	-0.051	24.57	-18.55	-95.76
28935	-0.925	-0.015	-0.055	35.63	-15.12	-101.57
28955	-0.909	0.04	-0.041	35.14	-10.99	-107.24
28975	-0.935	0.093	-0.027	20.51	-10.08	-112.7
28993	-0.924	0.031	-0.027	5.18	-11.97	-117.11
29010	-0.865	-0.064	-0.037	-3.78	-10.64	-120.61
29030	-0.86	-0.095	-0.067	-6.3	0.35	-122.71
29054	-0.965	-0.087	-0.108	-7.84	5.11	-124.74
29075	-1.021	-0.11	-0.106	-8.54	2.94	-124.25
29095	-0.954	-0.189	-0.108	-0.98	7.91	-119.07
29115	-0.952	-0.243	-0.1	9.87	17.99	-110.46
29135	-0.962	-0.229	-0.116	17.29	22.4	-101.78
29151	-0.964	-0.285	-0.13	22.89	25.13	-96.53
29170	-0.928	-0.5	-0.144	30.17	27.51	-87.92
29190	-0.861	-0.482	-0.114	51.8	23.8	-80.36
29215	-0.812	-0.398	-0.061	62.16	27.51	-78.61
29235	-0.88	-0.384	0.039	63.28	22.4	-81.2
29250	-0.918	-0.395	0.08	66.99	11.69	-81.48
29270	-0.928	-0.394	0.101	61.53	6.37	-80.92
29290	-0.951	-0.508	0.153	74.41	-14.21	-80.57
29315	-0.958	-0.399	0.21	82.81	-24.36	-76.44
29334	-1.023	-0.206	0.209	50.75	-34.09	-83.02
29354	-0.986	-0.311	0.219	23.24	-40.67	-90.02
29374	-0.873	-0.438	0.228	7.14	-40.74	-92.05
29398	-0.748	-0.465	0.187	-9.59	-29.68	-91.42
29418	-0.726	-0.585	0.148	-9.52	-24.92	-86.52
29438	-0.67	-0.665	0.128	4.13	-20.72	-79.52
29458	-0.638	-0.691	0.111	16.1	-20.79	-69.93
29477	-0.572	-0.671	0.112	25.34	-19.39	-60.69
29502	-0.602	-0.627	0.087	23.45	-15.4	-48.02
29522	-0.594	-0.685	0.086	21.21	-18.41	-38.85
29540	-0.542	-0.74	0.076	21.07	-13.72	-30.94
29560	-0.522	-0.73	0.069	21.7	-7.91	-24.15
29584	-0.5	-0.73	0.105	14.63	1.54	-19.25
29604	-0.52	-0.719	0.17	-1.4	11.41	-19.11
29620	-0.583	-0.795	0.208	-13.44	12.53	-18.2
29643	-0.552	-0.887	0.248	-19.67	15.68	-15.47
29662	-0.622	-0.898	0.203	-24.15	24.29	-11.13
29680	-0.686	-0.949	0.173	-23.38	20.37	-6.09
29704	-0.683	-0.987	0.215	-22.4	18.13	4.48
29724	-0.656	-0.939	0.215	-23.17	19.74	11.76
29739	-0.654	-0.879	0.183	-27.65	20.72	19.18
29764	-0.628	-0.903	0.131	-22.26	15.12	34.37
29784	-0.604	-0.853	0.078	-15.82	13.23	47.25
29803	-0.59	-0.791	0.029	-14.49	13.51	59.36
29825	-0.555	-0.787	-0.001	-6.51	14.98	71.82
29847	-0.546	-0.667	-0.007	0.28	22.68	82.88
29869	-0.628	-0.591	-0.021	-0.42	29.82	87.85
29887	-0.721	-0.461	-0.033	-5.74	29.75	89.25
29911	-0.75	-0.395	-0.033	-17.99	28.42	89.88
29931	-0.759	-0.337	-0.052	-34.23	27.72	90.37
29947	-0.748	-0.314	-0.066	-44.45	29.33	92.12
29967	-0.753	-0.392	-0.055	-52.64	27.93	94.36
29991	-0.749	-0.395	-0.08	-48.79	30.24	99.26
30007	-0.783	-0.386	-0.125	-42.21	29.19	103.6
30031	-0.802	-0.32	-0.151	-27.51	23.59	108.36
30046	-0.813	-0.274	-0.164	-24.43	21.77	110.18
30066	-0.832	-0.238	-0.196	-22.05	21.98	112.35
30091	-0.903	-0.198	-0.225	-16.8	17.01	114.1
30108	-0.922	-0.151	-0.213	-19.81	10.78	114.03
30128	-0.947	-0.116	-0.224	-23.52	7.63	109.83
30152	-0.99	-0.151	-0.201	-29.05	1.47	105.84
30171	-1.004	-0.136	-0.189	-35.07	-5.95	97.72
30194	-0.98	-0.135	-0.181	-35.14	-11.97	91.28
30212	-0.987	-0.149	-0.135	-29.82	-9.94	86.66
30234	-1.026	-0.04	-0.1	-28.0	-12.32	83.16
30256	-1.012	-0.071	-0.111	-33.18	-11.55	80.08
30276	-0.98	-0.036	-0.141	-44.03	-7.14	79.94
30295	-0.997	0.02	-0.192	-53.48	-9.03	75.53
30315	-1.03	-0.006	-0.217	-62.44	-13.37	64.05
30336	-1.017	-0.116	-0.22	-53.76	-15.19	59.57
30359	-0.988	-0.171	-0.178	-21.56	-6.02	64.54
30383	-1.082	0.008	-0.169	-6.79	-2.8	67.69
30402	-1.058	-0.025	-0.219	10.36	4.55	67.55
30422	-1.115	-0.041	-0.237	26.67	1.05	64.26
30443	-1.138	-0.04	-0.266	39.55	4.76	62.58
30463	-1.171	-0.009	-0.263	49.49	4.76	62.09
30483	-1.19	0.033	-0.183	48.86	5.11	62.51
30503	-1.226	0.097	-0.168	36.12	5.74	60.13
30527	-1.284	0.029	-0.255	23.38	4.76	56.42
30547	-1.311	-0.037	-0.29	25.83	-5.81	53.9
30565	-1.232	-0.06	-0.217	19.39	-5.39	49.07
30587	-1.188	-0.15	-0.117	16.66	-8.68	37.24
30603	-1.139	-0.135	-0.068	17.36	-7.84	28.56
30627	-1.11	-0.115	-0.036	19.04	-0.91	12.11
30646	-1.159	-0.043	-0.061	15.75	3.64	-3.36
30664	-1.223	0.012	-0.082	8.19	-4.9	-22.82
30686	-1.209	0.031	-0.107	-2.94	-13.23	-42.0
30705	-1.26	0.028	-0.165	-6.65	-19.95	-57.54
30729	-1.3	0.04	-0.179	-4.55	-37.03	-72.59
30745	-1.241	-0.036	-0.15	5.11	-42.91	-75.74
30765	-1.28	0.035	-0.091	21.98	-50.68	-73.85
30785	-1.282	0.057	-0.069	27.09	-62.3	-77.49
30809	-1.283	0.13	-0.041	25.83	-67.41	-88.62
30830	-1.24	0.087	-0.084	16.52	-66.71	-100.45
30850	-1.216	0.076	-0.133	11.41	-67.27	-108.15
30870	-1.157	0.044	-0.134	-2.8	-67.62	-121.24
30887	-1.117	0.016	-0.11	-11.83	-65.1	-128.24
30910	-1.073	-0.015	-0.09	-19.04	-60.06	-137.34
30931	-1.048	-0.053	-0.077	-15.33	-57.19	-142.52
30951	-1.015	-0.021	-0.063	-6.44	-54.04	-147.35
30968	-1.004	0.014	-0.054	-0.77	-52.99	-149.87
30992	-0.996	-0.009	-0.043	2.8	-53.83	-153.23
31012	-0.931	0.005	-0.02	4.41	-58.1	-152.81
31036	-0.844	-0.0	0.028	2.31	-52.85	-150.29
31054	-0.795	-0.024	0.092	-1.33	-48.37	-147.63
31076	-0.7	-0.055	0.163	-11.2	-41.86	-142.94
31095	-0.652	-0.094	0.182	-15.82	-33.11	-138.95
31114	-0.645	-0.134	0.189	-19.04	-18.34	-134.05
31138	-0.677	-0.122	0.18	-21.42	-12.32	-127.82
31158	-0.733	-0.142	0.16	-27.23	-8.19	-121.87
31175	-0.752	-0.206	0.165	-32.83	-13.72	-115.57
31197	-0.657	-0.355	0.221	-32.13	-17.22	-103.32
31221	-0.599	-0.542	0.225	-16.66	-12.11	-85.4
31240	-0.586	-0.596	0.199	-5.95	-9.8	-69.79
31259	-0.625	-0.692	0.166	5.32	-7.91	-54.6
31283	-0.597	-0.789	0.188	26.39	-23.8	-36.47
31303	-0.469	-0.857	0.216	41.23	-14.91	-26.04
31321	-0.469	-0.842	0.201	46.06	-4.83	-15.26
31343	-0.514	-0.781	0.218	46.41	-7.7	-10.43
31363	-0.478	-0.758	0.278	45.64	-8.05	-11.9
31383	-0.459	-0.832	0.294	41.37	-5.88	-14.84
31403	-0.489	-0.774	0.267	42.98	-4.2	-21.0
31422	-0.498	-0.729	0.277	31.99	-9.8	-29.19
31442	-0.429	-0.695	0.303	10.71	-8.89	-36.12
31466	-0.405	-0.772	0.278	-17.71	-0.28	-43.26
31489	-0.462	-0.842	0.229	-27.58	4.55	-42.98
31513	-0.496	-0.886	0.223	-32.48	4.13	-38.43
31533	-0.437	-1.009	0.241	-30.17	7.0	-29.33
31553	-0.418	-1.035	0.198	-17.5	20.16	-16.31
31572	-0.482	-1.123	0.184	-6.3	15.05	-3.99
31593	-0.418	-1.115	0.231	5.81	23.73	7.77
31613	-0.446	-1.14	0.267	17.22	27.23	16.94
31629	-0.515	-1.085	0.27	17.29	28.91	21.84
31653	-0.551	-1.03	0.274	12.18	17.15	27.79
31671	-0.449	-0.996	0.325	6.93	17.64	31.85
31690	-0.469	-0.944	0.287	-5.88	19.88	34.44
31715	-0.448	-0.96	0.274	-11.2	18.48	41.09
31731	-0.438	-0.903	0.247	-12.81	24.78	45.85
31752	-0.509	-0.8	0.187	-15.05	27.02	52.29
31776	-0.541	-0.681	0.17	-23.03	27.02	61.81
31796	-0.585	-0.614	0.17	-35.98	29.75	67.34
31815	-0.597	-0.61	0.19	-46.27	26.25	73.99
31831	-0.592	-0.541	0.177	-50.05	29.26	79.38
31853	-0.628	-0.469	0.122	-51.24	31.08	87.99
31873	-0.657	-0.403	0.099	-53.06	29.82	95.55
31897	-0.705	-0.396	0.077	-57.61	27.51	101.78
31917	-0.7	-0.391	0.065	-52.08	22.61	107.59
31937	-0.723	-0.32	0.034	-47.04	25.62	111.44
31957	-0.807	-0.261	-0.037	-41.37	18.9	115.64
31977	-0.835	-0.196	-0.064	-35.21	11.62	119.7
31997	-0.861	-0.165	-0.062	-33.6	5.18	122.64
32017	-0.88	-0.12	-0.045	-31.99	-1.54	124.53
32032	-0.897	-0.081	-0.027	-34.37	-4.2	125.23
32057	-0.917	-0.051	-0.049	-36.26	-9.94	127.61
32077	-0.946	-0.03	-0.068	-35.63	-11.97	128.87
32097	-0.987	-0.015	-0.089	-32.9	-11.62	130.55
32117	-1.038	-0.018	-0.12	-27.65	-12.88	132.44
32141	-1.047	0.015	-0.126	-22.4	-14.28	135.94
32161	-1.05	0.0	-0.137	-7.21	-10.71	142.45
32180	-1.125	0.046	-0.15	-1.4	-12.39	142.31
32204	-1.095	0.073	-0.132	4.83	-7.35	144.55
32221	-1.102	0.083	-0.127	7.56	-3.64	146.44
32240	-1.097	0.107	-0.123	9.73	0.98	145.53
32265	-1.081	0.139	-0.144	9.03	7.63	141.96
32285	-1.107	0.145	-0.175	8.12	10.85	136.5
32305	-1.114	0.155	-0.187	8.4	11.13	128.59
32329	-1.109	0.167	-0.182	7.63	11.13	118.02
32349	-1.079	0.184	-0.16	4.27	10.01	107.38
32368	-1.051	0.193	-0.149	-0.28	11.83	95.97
32387	-1.064	0.203	-0.154	-4.62	12.39	86.31
32411	-1.183	0.208	-0.172	-8.96	14.7	70.63
32431	-1.23	0.212	-0.175	-12.95	7.07	58.73
32446	-1.218	0.212	-0.165	-19.39	4.13	51.87
32471	-1.236	0.212	-0.15	-28.56	0.07	40.81
32491	-1.221	0.206	-0.123	-36.61	-1.19	32.69
32510	-1.221	0.187	-0.116	-41.44	-1.05	26.88
32530	-1.204	0.16	-0.103	-42.0	-1.4	21.77
32549	-1.163	0.134	-0.089	-39.76	-0.84	16.03
32574	-1.134	0.126	-0.07	-35.91	2.8	7.84
32589	-1.123	0.125	-0.047	-32.76	3.71	0.7
32614	-1.11	0.134	-0.025	-30.73	3.92	-13.58
32634	-1.083	0.126	-0.001	-28.28	4.13	-25.2
32653	-1.071	0.125	0.002	-27.65	4.9	-39.9
32672	-1.086	0.122	-0.008	-26.11	4.97	-53.48
32696	-1.118	0.112	-0.034	-19.88	1.05	-70.42
32716	-1.131	0.124	-0.054	-14.84	-2.17	-85.61
32736	-1.162	0.126	-0.06	-11.62	-6.23	-98.77
32755	-1.188	0.122	-0.058	-10.08	-9.8	-110.95
32773	-1.203	0.127	-0.049	-10.29	-12.25	-122.15
32794	-1.231	0.123	-0.042	-11.2	-14.0	-133.35
32813	-1.226	0.119	-0.033	-11.9	-15.19	-141.75
32837	-1.191	0.126	-0.021	-11.76	-13.65	-152.04
32857	-1.17	0.144	-0.011	-14.56	-10.71	-159.95
32876	-1.14	0.167	0.006	-18.13	-7.0	-166.6
32896	-1.161	0.181	0.011	-22.47	-2.45	-172.13
32916	-1.16	0.168	0.008	-26.88	-4.76	-174.09
32940	-1.057	0.113	-0.015	-22.89	-3.5	-170.31
32960	-1.006	-0.007	-0.017	-20.51	-2.66	-167.65
32980	-0.911	-0.102	-0.05	-10.22	1.4	-161.28
33000	-0.902	-0.214	-0.082	4.97	13.93	-152.95
33019	-0.915	-0.311	-0.102	25.83	14.49	-145.53
33043	-0.898	-0.393	-0.074	49.63	16.31	-143.78
33064	-0.928	-0.321	-0.041	64.26	23.17	-146.44
33082	-1.019	-0.19	-0.043	61.6	20.37	-149.17
33101	-1.022	-0.122	-0.026	54.6	8.05	-151.2
33120	-0.9	-0.17	0.022	38.01	-1.54	-152.46
33140	-0.768	-0.256	0.081	22.05	-1.82	-151.55
33160	-0.739	-0.334	0.076	5.39	2.94	-146.02
33183	-0.733	-0.42	0.038	4.55	2.17	-137.34
33207	-0.68	-0.489	0.041	10.85	-2.8	-122.99
33225	-0.573	-0.583	0.059	20.3	-4.41	-110.25
33247	-0.489	-0.585	0.08	36.12	3.29	-94.22
33267	-0.51	-0.577	0.081	34.65	6.86	-80.64
33287	-0.52	-0.573	0.073	33.6	5.95	-69.72
33302	-0.466	-0.631	0.073	32.97	-2.38	-57.89
33322	-0.369	-0.738	0.089	39.76	-6.65	-44.17
33347	-0.295	-0.792	0.096	50.82	9.1	-28.7
33367	-0.309	-0.773	0.102	53.06	14.84	-15.05
33387	-0.323	-0.839	0.105	56.14	16.94	-5.25
33404	-0.302	-0.809	0.111	59.99	21.0	-2.03
33427	-0.346	-0.63	0.129	51.31	30.94	2.73
33447	-0.412	-0.763	0.203	26.6	28.49	1.96
33467	-0.387	-0.85	0.297	7.77	34.58	4.13
33486	-0.491	-0.874	0.269	-9.31	42.91	5.6
33511	-0.585	-0.98	0.219	-16.1	33.11	10.43
33530	-0.57	-1.111	0.162	-11.55	26.46	15.89
33553	-0.547	-1.108	0.157	-13.16	23.45	23.1
33574	-0.573	-1.16	0.135	-20.37	18.97	27.93
33593	-0.537	-1.254	0.136	-7.98	18.83	38.15
33617	-0.58	-1.19	0.115	5.74	20.44	52.71
33637	-0.607	-1.053	0.094	16.24	15.05	60.34
33655	-0.582	-0.979	0.12	16.17	13.44	64.61
33679	-0.559	-0.771	0.133	5.67	15.4	67.69
33699	-0.556	-0.698	0.131	-8.19	15.47	68.81
33723	-0.566	-0.59	0.082	-23.59	16.8	71.61
33742	-0.586	-0.565	0.05	-30.31	14.91	75.46
33767	-0.614	-0.488	0.007	-34.3	17.36	81.34
33786	-0.659	-0.451	-0.017	-38.92	17.08	85.33
33810	-0.691	-0.408	-0.024	-43.33	14.07	90.3
33830	-0.688	-0.388	-0.025	-44.03	12.25	96.11
33850	-0.675	-0.369	-0.051	-35.28	14.98	102.76
33868	-0.705	-0.273	-0.072	-31.22	18.41	106.75
33889	-0.778	-0.216	-0.088	-31.57	22.82	110.53
33908	-0.867	-0.142	-0.093	-32.41	18.34	112.91
33933	-0.909	-0.143	-0.1	-32.97	8.61	116.69
33953	-0.901	-0.122	-0.09	-30.8	2.73	120.4
33972	-0.858	-0.098	-0.08	-27.58	4.13	122.85
33993	-0.911	-0.051	-0.12	-24.57	7.14	125.3
34010	-0.961	-0.054	-0.143	-23.31	3.64	125.37
34030	-1.0	-0.053	-0.176	-15.19	-0.07	125.16
34051	-1.028	-0.082	-0.214	-3.29	-4.55	125.79
34075	-1.033	-0.063	-0.238	13.58	-6.79	125.65
34095	-1.037	-0.027	-0.251	27.86	-6.23	125.02
34115	-1.052	0.002	-0.231	35.91	-5.74	123.97
34134	-1.043	0.045	-0.178	35.77	-2.03	122.15
34158	-1.053	0.056	-0.182	33.81	4.41	120.05
34174	-1.102	0.057	-0.206	33.18	6.09	117.88
34198	-1.079	0.064	-0.209	30.66	6.16	112.07
34218	-1.045	0.033	-0.238	31.85	8.54	105.98
34238	-1.066	0.004	-0.283	36.4	12.25	98.21
34258	-1.076	0.021	-0.292	45.99	14.07	89.88
34277	-1.137	0.098	-0.264	42.42	16.52	79.8
34293	-1.17	0.121	-0.252	34.51	14.42	68.67
34313	-1.187	0.126	-0.238	21.35	14.21	58.73
34337	-1.21	0.061	-0.258	11.62	10.57	46.13
34357	-1.153	0.069	-0.239	5.67	13.65	37.87
34381	-1.145	0.119	-0.198	-1.12	17.99	27.3
34400	-1.152	0.128	-0.148	-14.14	20.3	19.67
34421	-1.14	0.148	-0.093	-28.7	20.09	11.55
34440	-1.135	0.127	-0.056	-49.28	17.85	3.64
34461	-1.107	0.085	-0.055	-58.38	15.89	-6.23
34481	-1.149	0.054	-0.094	-55.79	15.75	-16.45
34500	-1.182	0.043	-0.112	-47.67	11.9	-25.83
34519	-1.225	0.01	-0.116	-38.22	2.73	-34.93
34543	-1.209	-0.124	-0.1	-28.07	-5.39	-44.38
34563	-1.215	-0.007	-0.123	-14.7	-10.71	-49.56
34583	-1.246	-0.019	-0.133	3.29	-23.24	-53.41
34602	-1.246	-0.024	-0.132	11.13	-28.56	-57.68
34626	-1.252	-0.055	-0.14	24.43	-38.64	-59.92
34646	-1.232	-0.081	-0.117	43.82	-43.4	-59.29
34663	-1.252	-0.019	-0.09	52.08	-45.99	-60.41
34687	-1.27	0.004	-0.067	56.84	-50.75	-66.36
34707	-1.238	0.017	-0.057	60.27	-54.74	-71.05
34726	-1.221	0.03	-0.064	56.07	-55.79	-80.5
34746	-1.176	0.043	-0.054	42.63	-58.31	-94.01
34763	-1.146	0.029	-0.054	23.87	-60.41	-105.35
34787	-1.097	-0.062	-0.09	11.48	-60.41	-122.99
34807	-1.065	-0.044	-0.106	-1.68	-55.16	-137.34
34827	-1.097	-0.092	-0.127	-13.58	-57.05	-155.4
34847	-1.055	-0.165	-0.146	-13.16	-55.51	-168.98
34870	-1.023	-0.128	-0.16	-5.6	-52.92	-177.59
34891	-1.058	-0.05	-0.146	-6.09	-49.56	-183.68
34911	-1.056	-0.043	-0.094	-13.02	-52.85	-186.06
34931	-0.99	-0.186	-0.052	-10.99	-47.67	-183.61
34951	-0.97	-0.277	-0.077	0.21	-46.83	-177.24
34968	-0.914	-0.239	-0.083	17.08	-42.77	-171.08
34987	-0.897	-0.136	-0.044	19.88	-40.6	-164.64
35012	-0.854	-0.137	0.016	15.75	-41.16	-156.1
35027	-0.803	-0.199	0.099	9.66	-46.62	-147.49
35052	-0.627	-0.271	0.164	6.44	-47.6	-126.98
35072	-0.494	-0.402	0.16	18.27	-30.8	-111.86
35092	-0.477	-0.389	0.14	31.85	-20.02	-96.25
35112	-0.51	-0.312	0.167	29.68	-16.45	-84.98
35136	-0.507	-0.323	0.251	16.24	-19.11	-71.4
35156	-0.447	-0.355	0.32	-0.21	-17.64	-59.57
35175	-0.39	-0.534	0.382	-10.78	-10.43	-41.93
35194	-0.355	-0.632	0.387	-6.72	-3.08	-27.02
35213	-0.355	-0.706	0.372	-2.87	3.99	-12.18
35238	-0.34	-0.746	0.331	17.5	9.87	4.83
35258	-0.367	-0.75	0.31	28.63	12.88	12.04
35274	-0.386	-0.788	0.322	34.23	14.91	17.64
35293	-0.474	-0.8	0.307	30.59	17.43	21.84
35318	-0.512	-0.835	0.307	27.37	9.03	23.17
35338	-0.534	-0.696	0.393	2.73	5.39	18.13
35358	-0.533	-0.775	0.429	-38.22	7.56	-4.48
35373	-0.562	-1.019	0.404	-54.18	2.1	-11.34
35396	-0.509	-1.092	0.334	-34.58	15.75	-4.06
35416	-0.682	-0.984	0.246	-25.06	12.32	0.14
35436	-0.715	-1.057	0.194	-28.84	4.55	3.01
35460	-0.61	-1.158	0.176	-15.26	-0.49	19.74
35480	-0.569	-1.149	0.148	-1.82	3.99	29.96
35498	-0.594	-1.191	0.11	12.04	0.0	39.13
35517	-0.539	-1.166	0.099	29.75	-2.73	49.7
35541	-0.511	-1.013	0.124	42.98	4.55	61.81
35561	-0.546	-0.839	0.162	35.0	6.86	66.01
35585	-0.495	-0.73	0.229	15.12	14.91	68.53
35605	-0.479	-0.651	0.258	-0.35	28.07	70.28
35623	-0.508	-0.558	0.251	-11.27	35.98	70.0
35642	-0.546	-0.424	0.228	-24.85	43.54	67.48
35662	-0.593	-0.322	0.194	-48.65	47.04	63.35
35681	-0.641	-0.296	0.177	-69.93	45.08	60.55
35706	-0.666	-0.263	0.116	-86.66	45.85	60.69
35725	-0.733	-0.28	0.064	-91.7	39.13	63.7
35744	-0.777	-0.245	0.045	-98.21	32.83	66.01
35763	-0.802	-0.258	0.033	-98.7	23.31	71.96
35787	-0.837	-0.209	-0.01	-100.03	19.67	79.94
35807	-0.907	-0.245	-0.081	-86.94	7.7	88.2
35827	-0.927	-0.22	-0.093	-71.68	-5.11	97.3
35847	-0.917	-0.215	-0.058	-60.97	-14.91	102.76
35865	-0.875	-0.246	-0.038	-42.28	-18.62	109.9
35889	-0.893	-0.196	-0.08	-21.35	-12.25	122.5
35909	-0.989	-0.167	-0.139	11.13	-12.74	130.83
35929	-0.962	-0.164	-0.129	33.74	-19.67	134.96
35949	-0.928	-0.091	-0.109	46.55	-10.5	139.51
35972	-1.109	0.032	-0.102	52.64	6.51	142.73
35993	-1.094	0.073	-0.14	50.96	0.63	142.1
36017	-1.078	0.045	-0.166	44.03	-0.98	139.23
36037	-1.052	0.06	-0.171	38.78	3.78	135.87
36052	-1.053	0.061	-0.163	35.07	6.16	132.65
36072	-1.033	0.127	-0.152	29.26	11.9	126.7
36097	-1.061	0.18	-0.163	15.4	21.56	120.26
36117	-1.138	0.159	-0.204	5.25	20.79	114.31
36134	-1.126	0.129	-0.204	-0.14	19.6	108.08
36158	-1.113	0.155	-0.183	-7.49	23.66	100.03
36178	-1.133	0.186	-0.164	-19.67	28.0	91.21
36197	-1.153	0.2	-0.163	-26.88	30.03	83.09
36216	-1.226	0.196	-0.189	-35.84	31.78	74.2
36240	-1.261	0.179	-0.214	-41.3	22.82	64.05
36259	-1.22	0.123	-0.191	-41.37	18.69	56.49
36278	-1.203	0.129	-0.179	-38.85	15.75	49.42
36303	-1.193	0.144	-0.161	-36.33	13.23	41.86
36323	-1.217	0.143	-0.15	-35.7	9.31	36.54
36342	-1.201	0.13	-0.146	-34.86	4.9	31.01
36363	-1.168	0.084	-0.143	-31.08	0.77	26.32
36382	-1.127	0.059	-0.136	-23.73	-0.91	21.77
36402	-1.118	0.064	-0.128	-14.98	0.77	15.89
36425	-1.15	0.087	-0.122	-10.36	0.77	5.32
36445	-1.175	0.097	-0.103	-10.36	-3.29	-6.51
36466	-1.157	0.096	-0.081	-14.21	-8.26	-19.6
36486	-1.114	0.084	-0.074	-15.26	-10.85	-33.39
36503	-1.098	0.092	-0.077	-16.94	-10.85	-44.24
36523	-1.14	0.087	-0.092	-18.13	-12.88	-56.7
36547	-1.157	0.08	-0.092	-18.9	-18.2	-73.64
36567	-1.168	0.074	-0.087	-18.34	-21.77	-86.73
36587	-1.186	0.083	-0.089	-18.62	-24.85	-97.23
36607	-1.211	0.064	-0.109	-16.73	-28.14	-107.17
36631	-1.212	0.036	-0.13	-8.82	-31.85	-115.22
36651	-1.202	0.03	-0.129	-1.82	-33.18	-120.75
36671	-1.215	-0.005	-0.133	3.99	-32.97	-125.79
36695	-1.213	-0.052	-0.151	14.63	-33.95	-131.81
36715	-1.187	-0.067	-0.155	23.52	-31.36	-136.71
36735	-1.195	-0.034	-0.142	32.34	-27.86	-142.73
36755	-1.209	0.006	-0.123	34.02	-27.44	-151.55
36773	-1.181	-0.006	-0.133	33.11	-27.09	-159.46
36793	-1.122	-0.005	-0.126	30.94	-24.92	-167.16
36812	-1.109	0.02	-0.106	24.92	-20.09	-175.49
36832	-1.124	0.023	-0.078	15.82	-17.22	-183.4
36856	-1.104	0.012	-0.046	3.71	-15.19	-187.6
36874	-1.036	-0.038	-0.023	-1.26	-13.86	-187.46
36891	-0.966	-0.092	-0.013	-4.9	-6.72	-184.59
36916	-0.944	-0.17	-0.016	4.55	-0.98	-178.64
36936	-0.923	-0.215	-0.012	15.47	-0.56	-171.71
36955	-0.85	-0.249	0.124	29.05	-3.92	-162.89
36980	-0.735	-0.422	0.062	46.9	-5.46	-150.99
37000	-0.697	-0.87	0.15	73.36	-8.61	-142.1
37019	-0.658	-0.796	0.093	146.79	5.11	-114.94
37036	-0.611	-0.929	-0.083	242.97	-7.63	-81.48
37056	-0.44	-0.519	-0.196	343.42	-17.08	-56.63
37075	-0.446	0.042	-0.038	313.74	-24.57	-59.78
37100	-0.556	0.501	0.251	163.59	-42.63	-78.54
37116	-0.478	0.41	0.528	6.02	-43.61	-86.66
37140	-0.447	0.009	0.568	-69.65	-16.8	-86.38
37160	-0.515	-0.221	0.519	-88.83	-21.63	-79.1
37184	-0.36	-0.463	0.476	-92.4	-16.31	-61.95
37204	-0.273	-0.739	0.442	-83.58	2.59	-47.39
37222	-0.24	-0.922	0.445	-63.56	8.75	-37.59
37244	-0.189	-1.061	0.437	-38.22	21.56	-19.53
37264	-0.253	-1.032	0.386	-4.2	37.45	-0.98
37283	-0.367	-0.923	0.346	8.75	34.72	7.35
37301	-0.347	-0.921	0.423	7.77	27.58	12.18
37321	-0.455	-0.65	0.486	-21.0	27.16	11.48
37340	-0.513	-0.944	0.486	-54.25	14.49	-2.38
37364	-0.468	-1.121	0.38	-51.73	-1.4	2.94
37387	-0.361	-1.191	0.314	-31.36	16.38	24.08
37408	-0.42	-1.158	0.262	-12.04	13.37	41.37
37426	-0.36	-1.102	0.253	0.21	19.25	53.06
37445	-0.324	-0.985	0.26	12.67	24.22	67.62
37470	-0.359	-0.824	0.225	14.49	35.98	78.61
37489	-0.427	-0.597	0.206	1.75	37.45	82.67
37512	-0.441	-0.432	0.197	-22.82	41.65	86.8
37533	-0.494	-0.367	0.144	-53.55	42.42	89.88
37550	-0.534	-0.447	0.135	-65.31	39.2	91.42
37572	-0.592	-0.372	0.072	-72.31	51.31	95.83
37592	-0.731	-0.316	0.033	-80.29	45.57	98.7
37616	-0.761	-0.258	-0.004	-88.55	38.57	100.52
37635	-0.8	-0.302	-0.025	-84.42	33.53	103.18
37659	-0.796	-0.3	-0.069	-73.92	28.7	106.96
37679	-0.883	-0.168	-0.12	-68.95	37.73	109.27
37698	-1.006	-0.207	-0.185	-67.13	31.15	111.58
37717	-1.052	-0.272	-0.218	-48.65	7.56	113.82
37741	-0.956	-0.295	-0.199	-29.33	0.63	117.81
37761	-0.928	-0.239	-0.241	-11.48	11.97	123.06
37779	-1.037	-0.178	-0.283	-2.1	17.99	124.11
37803	-1.113	-0.175	-0.306	3.64	8.4	125.72
37823	-1.082	-0.17	-0.264	7.0	4.76	125.51
37843	-1.059	-0.145	-0.224	10.08	14.91	124.53
37863	-1.08	-0.187	-0.288	12.67	37.38	120.68
37883	-1.203	-0.194	-0.359	18.9	22.05	118.86
37902	-1.103	-0.106	-0.3	18.34	28.49	113.4
37926	-1.153	-0.009	-0.252	2.1	38.22	103.11
37946	-1.159	-0.039	-0.209	-20.79	36.19	97.16
37966	-1.163	-0.119	-0.256	-26.95	41.37	91.84
37982	-1.172	-0.121	-0.268	-26.53	41.37	90.23
38006	-1.144	-0.084	-0.268	-24.5	42.07	88.69
38026	-1.156	-0.099	-0.205	-26.39	36.05	86.24
38046	-1.089	-0.112	-0.2	-29.26	33.95	82.95
38065	-1.109	-0.145	-0.24	-24.92	34.51	77.63
38090	-1.132	-0.117	-0.265	-9.94	28.56	70.35
38108	-1.169	-0.016	-0.268	-4.69	26.39	62.86
38130	-1.183	-0.043	-0.227	-7.07	10.99	52.43
38149	-1.118	-0.01	-0.193	-8.68	7.7	44.31
38169	-1.134	-0.016	-0.207	-13.72	5.18	35.91
38190	-1.17	0.119	-0.228	-8.89	0.49	26.53
38209	-1.177	0.045	-0.233	-7.49	-4.13	19.74
38233	-1.179	0.079	-0.228	-13.3	-9.24	12.53
38251	-1.194	0.041	-0.221	-17.29	-14.49	7.21
38274	-1.161	-0.027	-0.214	-17.57	-19.81	0.84
38293	-1.147	-0.044	-0.211	-7.35	-19.25	-4.62
38314	-1.165	0.031	-0.202	-1.12	-21.0	-12.32
38333	-1.178	0.07	-0.2	-0.35	-23.66	-20.3
38358	-1.206	0.016	-0.201	-4.27	-33.25	-31.5
38377	-1.173	-0.025	-0.202	-2.59	-37.38	-39.76
38397	-1.2	0.015	-0.225	-1.82	-40.32	-49.0
38416	-1.24	0.02	-0.228	-1.26	-46.06	-57.54
38440	-1.235	0.012	-0.22	-1.05	-52.92	-66.71
38460	-1.22	-0.046	-0.227	4.69	-56.84	-71.68
38478	-1.218	-0.091	-0.24	8.33	-59.43	-77.84
38501	-1.232	-0.078	-0.243	18.83	-58.87	-85.82
38522	-1.277	0.009	-0.234	23.17	-62.02	-93.94
38541	-1.276	0.058	-0.2	13.23	-67.69	-101.92
38564	-1.202	-0.032	-0.161	2.59	-71.75	-111.3
38582	-1.143	-0.084	-0.133	-1.61	-70.7	-118.65
38603	-1.123	-0.073	-0.13	-1.61	-66.5	-127.54
38621	-1.144	-0.027	-0.131	-0.21	-63.91	-136.15
38645	-1.174	0.005	-0.126	-3.01	-69.44	-145.88
38666	-1.005	-0.08	-0.099	-1.61	-75.04	-153.16
38685	-0.936	-0.126	-0.055	-2.1	-66.92	-159.25
38709	-0.908	-0.094	-0.045	5.6	-60.41	-165.76
38727	-0.925	-0.051	-0.029	8.89	-52.85	-169.82
38747	-0.891	-0.026	-0.002	8.19	-52.92	-174.02
38767	-0.799	-0.02	0.03	2.94	-48.3	-176.47
38790	-0.756	-0.052	0.077	-4.55	-40.32	-176.61
38814	-0.755	-0.06	0.158	-14.28	-28.63	-171.92
38834	-0.725	-0.117	0.243	-27.51	-29.05	-165.34
38852	-0.548	-0.215	0.274	-31.78	-16.8	-158.41
38876	-0.472	-0.255	0.32	-39.27	-3.08	-146.86
38894	-0.444	-0.255	0.317	-41.65	8.54	-133.63
38916	-0.473	-0.392	0.256	-33.18	8.54	-117.88
38934	-0.418	-0.562	0.19	-15.89	0.77	-99.61
38958	-0.324	-0.637	0.156	14.07	-2.24	-75.6
38976	-0.283	-0.619	0.1	37.73	-0.98	-59.15
38999	-0.312	-0.638	0.058	42.21	-1.68	-39.83
39019	-0.367	-0.714	0.031	40.88	-9.24	-24.29
39038	-0.32	-0.878	0.088	49.07	-23.38	-7.49
39063	-0.23	-0.906	0.138	64.26	-5.18	10.29
39080	-0.352	-0.884	0.192	64.12	6.23	19.39
39098	-0.444	-0.908	0.256	65.17	1.54	23.1
39118	-0.393	-0.877	0.334	63.35	6.93	25.27
39142	-0.399	-0.904	0.411	52.29	14.14	17.64
39158	-0.395	-0.864	0.447	38.43	22.68	10.57
39182	-0.472	-0.828	0.424	11.62	28.84	-6.09
39200	-0.465	-0.877	0.405	-14.56	22.96	-13.58
39221	-0.419	-0.996	0.386	-34.86	26.88	-19.25
39245	-0.445	-1.071	0.32	-42.28	28.49	-19.32
39265	-0.429	-1.102	0.285	-36.05	24.99	-13.79
39285	-0.427	-1.097	0.248	-29.96	27.65	-3.85
39305	-0.464	-1.119	0.246	-22.26	23.94	8.05
39324	-0.471	-1.065	0.239	-14.14	21.77	18.55
39346	-0.495	-1.037	0.245	-9.8	18.34	29.47
39369	-0.484	-1.005	0.247	-4.06	15.26	43.12
39389	-0.458	-0.978	0.23	3.5	15.61	53.2
39409	-0.459	-0.897	0.204	4.9	18.13	62.44
39433	-0.447	-0.846	0.205	3.29	20.3	68.74
39453	-0.489	-0.69	0.176	-4.27	28.84	72.73
39471	-0.567	-0.593	0.163	-19.04	29.05	74.9
39491	-0.619	-0.509	0.174	-37.52	26.32	76.86
39515	-0.63	-0.458	0.171	-55.65	25.13	79.38
39532	-0.628	-0.521	0.134	-64.12	25.62	82.95
39554	-0.694	-0.474	0.075	-67.62	30.17	87.99
39573	-0.756	-0.415	0.015	-69.3	23.03	92.68
39597	-0.773	-0.379	-0.013	-70.28	19.39	98.28
39618	-0.813	-0.376	-0.055	-65.87	14.21	103.95
39636	-0.817	-0.352	-0.093	-56.14	14.07	111.37
39660	-0.885	-0.306	-0.117	-42.7	8.54	120.4
39680	-0.911	-0.25	-0.096	-38.29	0.49	124.39
39698	-0.915	-0.203	-0.104	-33.74	-2.45	128.03
39720	-0.943	-0.231	-0.12	-29.12	1.4	132.65
39740	-1.0	-0.218	-0.146	-18.27	-2.03	138.18
39757	-1.001	-0.18	-0.154	-8.19	-1.75	141.47
39782	-1.028	-0.115	-0.151	-0.42	-2.66	144.41
39799	-1.022	-0.026	-0.133	-0.7	-2.66	144.48
39821	-1.037	-0.006	-0.156	-3.43	3.99	143.36
39840	-1.087	-0.016	-0.18	-2.66	5.25	143.43
39862	-1.106	0.01	-0.169	2.24	3.5	143.22
39883	-1.088	0.061	-0.14	0.0	5.95	141.96
39906	-1.087	0.082	-0.126	-4.27	7.56	139.23
39925	-1.054	0.079	-0.117	-10.36	12.81	135.45
39946	-1.088	0.078	-0.133	-14.21	16.24	129.36
39969	-1.123	0.081	-0.146	-15.05	16.17	122.15
39989	-1.126	0.086	-0.142	-11.69	14.63	114.03
40010	-1.118	0.093	-0.138	-9.03	15.47	103.81
40027	-1.149	0.105	-0.148	-9.73	18.13	95.97
40046	-1.175	0.088	-0.153	-11.13	16.31	87.15
40066	-1.164	0.068	-0.134	-10.99	15.12	78.82
40087	-1.117	0.083	-0.102	-11.97	17.71	69.44
40105	-1.11	0.084	-0.085	-14.35	18.62	59.22
40130	-1.088	0.113	-0.055	-20.93	19.67	44.94
40149	-1.13	0.13	-0.029	-30.59	21.91	30.17
40170	-1.205	0.12	-0.054	-40.88	13.37	16.1
40188	-1.178	0.103	-0.061	-43.47	7.0	5.95
40211	-1.142	0.063	-0.091	-40.32	-1.26	-6.44
40235	-1.106	0.041	-0.103	-29.68	-7.56	-18.2
40255	-1.072	0.039	-0.1	-11.97	-10.64	-26.25
40273	-1.077	0.048	-0.102	-2.59	-14.14	-33.81
40294	-1.075	0.088	-0.094	11.13	-19.25	-42.35
40317	-1.057	0.12	-0.1	19.53	-24.01	-53.2
40339	-1.069	0.157	-0.111	25.13	-25.62	-63.49
40357	-1.112	0.164	-0.135	29.19	-28.56	-72.66
40381	-1.145	0.173	-0.173	32.9	-30.1	-84.42
40400	-1.194	0.185	-0.2	36.54	-32.97	-92.33
40419	-1.206	0.216	-0.203	35.14	-37.03	-99.61
40436	-1.219	0.243	-0.179	29.33	-37.31	-104.51
40458	-1.248	0.257	-0.163	17.22	-36.82	-109.34
40482	-1.312	0.227	-0.183	2.66	-38.78	-111.51
40499	-1.239	0.173	-0.129	-7.63	-41.37	-111.58
40519	-1.175	0.123	-0.097	-14.63	-33.74	-110.11
40542	-1.177	0.076	-0.095	-19.11	-31.57	-108.57
40558	-1.127	0.0	-0.086	-14.77	-31.15	-108.43
40583	-1.094	-0.022	-0.077	-8.33	-28.35	-109.97
40601	-1.066	-0.073	-0.086	2.66	-31.99	-111.02
40623	-0.944	-0.098	-0.073	17.01	-30.24	-112.07
40643	-0.906	-0.085	-0.055	25.27	-24.36	-114.66
40667	-0.914	-0.066	-0.01	24.64	-24.5	-120.47
40686	-0.892	-0.128	0.064	13.79	-23.31	-128.73
40710	-0.874	-0.149	0.099	5.18	-13.72	-138.74
40730	-0.886	-0.13	0.097	-4.34	-7.07	-144.13
40748	-0.873	-0.085	0.077	-14.42	-2.38	-149.17
40770	-0.83	-0.171	0.049	-27.51	4.34	-154.35
40793	-0.789	-0.319	0.067	-31.71	5.46	-162.68
40814	-0.738	-0.317	0.112	-35.21	26.25	-167.65
40832	-0.871	-0.258	0.068	-35.14	27.09	-168.28
40856	-0.827	-0.164	0.038	-34.3	15.68	-160.51
40875	-0.735	-0.107	0.042	-49.21	14.63	-148.61
40894	-0.664	-0.403	0.028	-55.3	-0.28	-135.94
40914	-0.544	-0.606	-0.002	-42.63	-7.49	-113.05
40938	-0.477	-0.706	-0.057	-0.98	-1.12	-81.41
40956	-0.479	-0.755	-0.079	21.42	-6.65	-58.52
40974	-0.38	-0.861	-0.098	51.94	-18.41	-39.2
40994	-0.256	-0.974	-0.073	78.61	-17.43	-21.77
41013	-0.233	-0.874	-0.045	87.64	-4.9	-7.63
41038	-0.324	-0.813	-0.009	84.49	9.66	6.58
41057	-0.502	-0.683	0.001	85.33	8.19	15.19
41077	-0.534	-0.678	0.066	80.43	-6.86	11.27
41096	-0.496	-0.627	0.168	62.58	-6.93	6.79
41120	-0.51	-0.638	0.229	14.84	-3.57	-4.2
41139	-0.485	-0.812	0.26	-18.2	-3.64	-15.05
41159	-0.473	-0.953	0.258	-38.78	3.99	-20.16
41183	-0.513	-1.042	0.255	-45.71	7.49	-23.03
41203	-0.52	-1.093	0.218	-38.08	7.28	-18.48
41222	-0.488	-1.183	0.187	-24.36	9.87	-13.44
41242	-0.475	-1.118	0.107	-4.27	15.05	-5.6
41266	-0.503	-1.03	0.066	0.77	18.06	4.69
41286	-0.563	-1.0	0.04	3.71	17.36	14.91
41305	-0.607	-0.974	0.041	3.43	15.82	24.29
41328	-0.618	-0.982	0.047	5.74	10.85	36.12
41346	-0.603	-0.948	0.038	5.25	10.43	44.73
41370	-0.58	-0.913	0.051	2.1	9.87	54.88
41390	-0.582	-0.879	0.039	-2.66	9.52	61.25
41410	-0.577	-0.817	0.048	-4.06	7.7	69.09
41430	-0.588	-0.752	0.043	-7.21	9.87	76.3
41454	-0.642	-0.705	-0.022	-4.76	10.71	88.41
41474	-0.695	-0.679	-0.067	-0.14	9.94	95.34
41498	-0.718	-0.616	-0.073	4.13	8.82	102.62
41517	-0.731	-0.54	-0.054	1.89	9.45	105.28
41540	-0.755	-0.493	-0.01	-5.04	12.6	107.03
41562	-0.789	-0.41	0.01	-8.75	12.11	107.8
41583	-0.816	-0.35	0.011	-16.45	11.69	106.54
41607	-0.837	-0.322	-0.026	-20.16	12.74	106.33
41625	-0.917	-0.259	-0.056	-23.1	13.51	105.28
41645	-0.971	-0.203	-0.059	-32.06	7.21	103.32
41664	-0.994	-0.275	-0.033	-38.29	-3.92	102.2
41689	-0.967	-0.264	0.004	-37.45	-11.48	102.9
41709	-0.989	-0.219	0.012	-37.87	-12.95	106.75
41729	-1.025	-0.214	0.026	-35.35	-24.78	108.08
41747	-0.972	-0.264	0.033	-26.18	-27.72	109.97
41766	-0.964	-0.19	0.078	-13.51	-26.88	112.7
41789	-1.017	-0.107	0.08	-6.23	-29.96	114.31
41810	-1.039	-0.075	0.088	-2.03	-39.76	113.26
41829	-1.019	-0.069	0.082	4.97	-42.42	112.56
41850	-1.004	-0.06	0.078	15.33	-47.46	111.3
41868	-0.992	-0.01	0.102	22.89	-47.88	111.3
41885	-1.007	0.036	0.145	30.1	-46.06	111.86
41910	-1.041	0.09	0.171	32.97	-46.83	111.3
41930	-1.019	0.108	0.151	35.98	-45.85	113.33
41949	-0.994	0.11	0.109	41.51	-42.7	115.71
41972	-0.988	0.126	0.101	47.46	-39.83	118.65
41993	-0.972	0.139	0.11	52.36	-30.38	119.35
42013	-0.98	0.156	0.124	53.97	-23.66	118.79
42032	-0.975	0.183	0.127	53.83	-15.82	115.99
42056	-0.968	0.211	0.12	51.31	-6.16	109.2
42076	-0.976	0.23	0.119	40.25	7.35	101.01
42096	-1.028	0.256	0.14	23.24	15.47	89.25
42116	-1.066	0.269	0.183	1.19	20.93	74.76
42131	-1.058	0.253	0.222	-19.88	25.83	64.75
42156	-1.07	0.22	0.253	-48.16	32.27	46.06
42174	-1.039	0.163	0.249	-57.26	37.1	33.81
42195	-1.028	0.143	0.217	-65.8	41.3	21.0
42216	-1.02	0.103	0.161	-63.63	44.45	8.26
42233	-1.027	0.107	0.127	-58.87	44.03	-1.33
42257	-1.015	0.136	0.11	-52.85	40.67	-13.23
42276	-0.981	0.157	0.103	-46.48	33.6	-22.26
42297	-0.912	0.155	0.103	-39.34	29.05	-28.63
42312	-0.891	0.164	0.098	-32.9	29.47	-31.01
42337	-0.883	0.163	0.079	-21.91	27.58	-34.02
42356	-0.877	0.159	0.044	-7.21	28.7	-36.05
42377	-0.912	0.185	0.013	4.9	29.26	-37.8
42401	-0.933	0.199	-0.003	11.34	27.16	-44.52
42420	-0.964	0.202	-0.006	21.21	28.98	-46.97
42441	-1.006	0.23	0.003	30.73	30.24	-52.15
42465	-1.062	0.298	-0.003	34.23	26.81	-55.23
42485	-1.057	0.333	-0.016	31.57	20.44	-56.07
42505	-1.038	0.353	-0.039	24.43	19.32	-55.16
42529	-1.068	0.334	-0.07	14.98	15.61	-52.43
42548	-1.1	0.283	-0.115	9.66	9.73	-49.35
42571	-1.093	0.238	-0.146	14.84	0.35	-44.94
42590	-1.039	0.198	-0.208	29.68	-23.24	-25.83
42614	-1.063	0.213	-0.19	47.04	-8.4	-34.79
42634	-1.015	0.233	-0.188	65.38	-9.03	-29.96
42650	-1.02	0.246	-0.207	79.31	-8.33	-27.58
42673	-1.036	0.269	-0.236	94.29	-10.08	-25.06
42693	-1.02	0.308	-0.255	106.54	-14.56	-23.52
42714	-0.97	0.371	-0.273	111.72	-15.96	-22.68
42738	-0.952	0.41	-0.274	107.87	-16.73	-22.96
42758	-0.929	0.47	-0.248	95.97	-20.23	-23.1
42774	-0.934	0.516	-0.219	67.48	-14.07	-25.9
42795	-0.958	0.537	-0.202	39.76	-13.58	-27.65
42818	-0.969	0.539	-0.201	2.24	-10.85	-28.63
42837	-1.005	0.518	-0.207	-25.83	-7.84	-27.3
42857	-1.058	0.476	-0.203	-49.14	-7.14	-21.28
42881	-1.051	0.414	-0.205	-63.0	-4.9	-9.24
42901	-1.066	0.323	-0.233	-66.5	-4.13	5.95
42920	-1.075	0.224	-0.259	-60.13	-5.11	20.79
42941	-1.041	0.097	-0.235	-42.63	-6.86	37.31
42961	-0.996	0.006	-0.25	-12.6	-1.47	50.82
42981	-1.045	-0.102	-0.305	22.12	1.68	59.15
43001	-1.089	-0.226	-0.299	62.09	2.66	62.37
43019	-1.078	-0.275	-0.255	93.59	10.36	60.48
43039	-1.116	-0.06	-0.186	118.09	26.95	50.82
43063	-1.193	0.17	-0.14	116.83	7.49	30.87
43083	-1.14	0.353	-0.089	83.93	-2.45	12.46
43103	-1.103	0.475	-0.032	40.25	-14.56	-0.07
43122	-1.041	0.523	0.04	-26.53	-27.16	-9.73
43143	-0.976	0.479	0.092	-110.88	-39.34	-15.89
43162	-0.903	0.277	0.083	-140.91	-37.8	-11.48
43186	-0.916	0.078	0.093	-127.19	-36.68	7.7
43206	-1.025	0.08	0.173	-109.06	-32.69	12.04
43226	-1.065	-0.033	0.282	-87.71	-41.65	7.77
43245	-1.008	0.009	0.353	-55.37	-33.74	5.74
43264	-0.954	0.018	0.341	-43.33	-29.54	0.42
43289	-0.809	0.021	0.362	-28.28	-22.05	8.05
43306	-0.81	0.17	0.352	-25.34	-9.66	18.13
43325	-0.896	0.371	0.285	-40.04	-13.16	29.05
43350	-0.898	0.388	0.247	-54.95	-17.5	47.39
43369	-0.913	0.384	0.277	-21.98	-11.48	76.58
43388	-0.875	0.701	0.282	-5.74	-6.79	97.51
43412	-0.904	0.864	0.222	-48.3	-1.89	114.03
43431	-0.865	0.821	0.203	-80.43	-4.55	128.94
43455	-0.868	0.81	0.223	-91.56	-10.64	150.01
43473	-0.814	0.869	0.247	-90.58	-5.18	165.06
43493	-0.911	0.921	0.237	-83.79	-4.34	183.19
43517	-0.991	1.037	0.201	-93.94	-21.84	207.2
43537	-1.022	1.013	0.229	-105.07	-37.45	224.49
43561	-0.907	0.915	0.269	-84.28	-30.1	244.23
43585	-0.828	0.854	0.228	-40.6	-13.16	261.45
43605	-0.803	1.046	0.17	-43.4	-6.02	267.4
43624	-0.859	1.24	0.189	-71.33	-10.08	258.37
43641	-0.817	1.22	0.249	-100.17	-11.34	246.54
43660	-0.752	1.101	0.225	-128.31	-13.44	237.16
43682	-0.669	0.877	0.198	-152.46	-24.64	227.78
43705	-0.522	0.72	0.157	-143.43	-25.34	208.81
43726	-0.433	0.603	0.06	-119.56	-32.55	185.08
43745	-0.286	0.419	0.038	-95.13	-45.29	161.7
43764	-0.167	0.512	0.125	-84.07	-45.29	140.7
43784	-0.175	0.478	0.209	-83.93	-37.31	117.04
43807	-0.161	0.301	0.206	-86.87	-53.62	101.29
43825	-0.08	0.208	0.201	-73.22	-32.13	93.31
43849	-0.086	0.198	0.224	-44.38	-21.84	79.94
43869	-0.027	0.155	0.228	-29.47	-22.26	68.46
43888	-0.065	0.212	0.226	-37.73	-32.9	54.39
43912	-0.011	0.082	0.271	-37.03	-58.59	37.59
43930	0.046	0.118	0.311	-18.76	-47.81	28.56
43954	0.045	0.27	0.462	3.64	-44.17	25.76
43974	0.083	0.48	0.426	-11.55	-19.95	24.43
43992	0.1	0.472	0.359	-31.99	-17.64	17.15
44013	0.175	0.469	0.362	-43.68	-19.74	15.75
44037	0.243	0.391	0.411	-21.42	-2.94	16.52
44057	0.237	0.45	0.553	11.34	7.77	18.13
44072	0.242	0.634	0.637	-11.97	5.67	16.8
44092	0.278	0.645	0.64	-58.24	-0.84	17.5
44117	0.277	0.643	0.562	-65.31	-2.8	17.78
44136	0.313	0.602	0.554	-29.96	0.49	12.67
44160	0.365	0.658	0.635	8.75	12.32	9.03
44175	0.229	0.872	0.685	-0.21	-0.14	11.41
44200	0.256	0.882	0.772	-42.91	-20.86	13.44
44220	0.336	0.777	0.834	-40.18	-0.07	11.62
44238	0.284	0.807	0.772	-20.37	9.52	11.97
44258	0.282	0.904	0.885	-14.77	-1.89	14.77
44282	0.355	0.873	1.031	-31.36	0.91	16.73
44301	0.33	0.798	1.022	-29.82	3.99	19.04
44322	0.358	0.749	0.997	-27.44	8.75	15.75
44342	0.335	0.811	0.978	-11.41	17.15	14.7
44357	0.322	0.882	0.987	-7.21	5.81	16.38
44382	0.327	0.856	0.971	-19.25	-4.62	19.67
44402	0.385	0.71	1.093	-33.74	-2.38	25.2
44417	0.373	0.633	1.127	-41.3	7.49	29.96
44441	0.35	0.58	1.062	-41.72	3.78	28.63
44462	0.416	0.61	0.946	-28.49	6.72	23.03
44479	0.341	0.544	0.927	-15.26	-11.55	20.09
44498	0.389	0.561	0.93	-10.64	-1.05	17.29
44518	0.349	0.557	0.939	-21.42	-3.99	13.23
44542	0.31	0.569	0.951	-15.96	3.01	8.89
44562	0.288	0.626	0.942	-5.88	2.17	11.13
44583	0.312	0.641	1.03	-5.53	12.46	13.72
44603	0.296	0.671	1.122	-29.82	15.54	17.92
44623	0.298	0.6	1.099	-53.62	10.22	18.06
44643	0.359	0.52	1.053	-48.44	12.04	15.82
44667	0.383	0.523	1.029	-29.75	11.76	11.76
44687	0.376	0.571	1.092	-8.89	9.45	6.93
44707	0.336	0.667	1.119	-13.37	-2.8	2.94
44727	0.386	0.682	1.162	-15.82	-7.21	-0.35
44747	0.424	0.635	1.164	-5.25	-10.43	-4.83
44766	0.456	0.612	1.216	20.23	-8.47	-9.66
44786	0.443	0.653	1.285	38.57	-4.69	-13.37
44806	0.432	0.765	1.356	36.12	-7.35	-14.63
44830	0.449	0.807	1.419	14.35	-10.36	-11.34
44850	0.431	0.822	1.389	-5.53	-11.41	-10.57
44874	0.444	0.772	1.287	-2.31	-12.67	-12.67
44893	0.491	0.713	1.193	26.74	-10.57	-14.56
44914	0.491	0.726	1.107	49.7	-5.18	-15.68
44932	0.486	0.812	1.183	42.35	-2.87	-11.9
44951	0.468	0.788	1.229	16.1	-6.02	-4.2
44971	0.417	0.771	1.142	-6.72	-7.42	1.12
44995	0.394	0.7	1.011	-12.95	-16.24	1.96
45015	0.421	0.658	0.911	10.22	-14.77	1.47
45035	0.43	0.651	0.937	20.93	-6.23	-0.42
45054	0.363	0.634	0.954	25.13	-5.39	1.61
45075	0.307	0.644	0.915	11.97	-7.63	5.46
45093	0.278	0.611	0.827	0.56	-9.59	7.49
45117	0.301	0.574	0.685	8.33	-11.62	3.71
45135	0.257	0.521	0.648	30.03	-2.94	-1.89
45159	0.267	0.511	0.625	65.94	-2.59	-8.12
45179	0.213	0.549	0.547	79.87	14.28	-5.32
45197	0.141	0.557	0.509	71.54	-2.45	1.47
45216	0.164	0.528	0.539	50.96	-0.56	3.08
45241	0.168	0.423	0.567	37.45	1.12	0.77
45259	0.162	0.461	0.582	36.54	11.06	-6.65
45281	0.083	0.414	0.469	41.86	17.15	-13.51
45301	0.107	0.268	0.379	61.88	19.81	-21.35
45325	0.108	0.279	0.327	99.26	18.41	-23.52
45345	0.066	0.379	0.379	98.63	3.92	-26.74
45365	0.091	0.446	0.412	87.71	6.58	-32.69
45385	0.053	0.431	0.336	88.34	14.35	-40.53
45404	0.029	0.381	0.275	98.56	15.05	-44.38
45428	0.03	0.411	0.367	102.34	9.38	-47.88
45446	0.064	0.44	0.463	84.49	9.52	-48.93
45466	0.062	0.407	0.462	43.26	2.45	-52.01
45486	0.146	0.369	0.361	26.53	0.35	-60.83
45510	0.105	0.379	0.228	46.97	3.57	-72.59
45530	0.092	0.382	0.203	87.29	-1.68	-81.69
45549	0.133	0.487	0.416	110.6	-0.35	-86.8
45570	0.101	0.717	0.569	86.66	-5.04	-86.03
45589	0.1	0.871	0.575	57.82	-5.67	-81.76
45608	0.132	0.964	0.46	37.59	-18.13	-75.39
45628	0.258	0.966	0.378	40.18	-27.23	-68.95
45653	0.375	1.043	0.463	70.0	-22.12	-55.93
45670	0.359	1.209	0.646	75.32	-7.63	-49.63
45690	0.325	1.409	0.747	46.41	-7.14	-40.6
45715	0.283	1.4	0.636	5.95	-4.27	-20.37
45734	0.238	1.315	0.54	-26.6	-10.92	-5.6
45754	0.239	1.155	0.534	-27.58	-14.35	9.17
45769	0.199	1.095	0.591	-6.93	-3.08	15.47
45794	0.157	1.078	0.609	-4.27	-0.77	24.92
45814	0.148	0.996	0.532	-23.1	0.56	30.66
45834	0.125	0.884	0.427	-42.21	-6.65	36.82
45854	0.124	0.845	0.377	-45.43	-9.03	41.37
45872	0.101	0.775	0.374	-42.49	-8.89	43.4
45891	0.096	0.69	0.368	-35.0	-7.49	47.32
45915	0.084	0.659	0.332	-36.12	-2.94	50.75
45935	0.076	0.626	0.259	-57.12	-6.37	53.41
45955	0.04	0.574	0.191	-67.27	-13.23	55.44
45974	0.081	0.498	0.154	-65.8	-14.63	54.25
45994	0.113	0.416	0.154	-46.97	-5.6	49.35
46017	0.08	0.445	0.16	-27.02	-0.42	45.15
46035	0.102	0.519	0.163	-26.53	-5.81	41.79
46055	0.14	0.558	0.2	-34.09	-8.12	37.24
46074	0.17	0.557	0.219	-34.44	-8.19	32.83
46098	0.187	0.599	0.267	-30.45	3.64	26.32
46117	0.154	0.609	0.351	-21.63	9.52	23.59
46134	0.142	0.65	0.463	-21.07	2.38	25.48
46159	0.154	0.786	0.524	-32.55	-0.63	31.57
46179	0.153	0.752	0.511	-37.73	-12.95	33.81
46199	0.132	0.671	0.554	-20.02	-22.82	31.92
46218	0.314	0.779	0.615	-21.98	-10.22	30.31
46238	0.221	0.787	0.534	-27.16	-3.64	32.62
46262	0.307	0.855	0.577	-40.6	-3.57	30.1
46282	0.237	0.778	0.514	-30.87	-8.4	26.18
46300	0.282	0.82	0.552	-25.69	-5.04	20.79
46320	0.252	0.841	0.575	-20.58	-6.3	17.01
46340	0.244	0.963	0.712	-17.64	-5.74	18.13
46364	0.231	0.96	0.753	-33.32	-3.01	18.2
46384	0.221	0.96	0.698	-23.59	0.77	18.27
46403	0.237	0.968	0.704	-23.87	-1.54	14.77
46424	0.255	0.906	0.725	-7.84	-8.61	14.28
46441	0.293	0.93	0.809	-9.03	5.53	12.04
46461	0.304	0.906	0.814	-14.98	9.1	9.24
46480	0.283	0.86	0.85	-6.93	6.65	10.71
46505	0.295	0.897	0.855	-10.71	8.61	12.74
46523	0.298	0.929	0.867	-16.73	9.87	12.6
46542	0.331	0.838	0.887	-19.6	13.37	11.97
46567	0.324	0.817	0.87	-14.0	17.71	12.95
46587	0.331	0.994	0.857	-17.85	13.58	13.51
46607	0.333	0.884	0.842	-28.35	5.6	13.16
46622	0.343	0.886	0.832	-28.91	4.62	13.79
46647	0.341	0.889	0.88	-29.54	1.12	16.03
46667	0.358	0.827	0.859	-24.5	-3.01	14.35
46687	0.37	0.806	0.831	-15.96	-6.44	12.46
46707	0.391	0.836	0.825	-6.09	-14.63	9.73
46724	0.401	0.896	0.867	2.24	-17.71	6.93
46748	0.425	0.925	0.911	11.55	-20.93	1.19
46768	0.455	0.929	0.962	17.29	-21.84	-5.74
46788	0.452	1.009	1.023	28.63	-22.47	-11.83
46807	0.46	1.084	1.099	30.59	-16.87	-18.13
46830	0.449	1.126	1.172	30.38	-13.23	-20.37
46852	0.484	1.152	1.234	21.63	-11.48	-19.74
46868	0.493	1.153	1.236	13.86	-6.51	-17.43
46891	0.534	1.162	1.179	4.62	-5.32	-13.16
46911	0.51	1.166	1.084	9.8	-1.33	-9.03
46928	0.508	1.149	1.047	14.14	1.61	-6.23
46952	0.48	1.174	1.016	4.41	-3.85	0.35
46971	0.478	1.088	0.949	-10.78	-9.31	5.04
46991	0.457	1.023	0.868	-15.82	-11.55	8.61
47012	0.422	0.948	0.797	-7.0	-10.78	10.78
47030	0.359	0.904	0.762	1.26	-11.62	8.82
47050	0.331	0.892	0.71	6.51	-11.2	5.88
47074	0.262	0.813	0.585	11.55	-9.59	-0.49
47094	0.173	0.791	0.466	9.31	-14.49	-8.89
47114	0.178	0.663	0.408	11.97	-16.45	-20.3
47134	0.146	0.595	0.397	33.53	-5.95	-36.05
47153	0.072	0.532	0.322	73.15	7.14	-50.19
47172	0.109	0.537	0.248	97.86	7.07	-59.64
47192	0.128	0.412	0.192	156.03	19.88	-71.96
47216	0.084	0.465	0.13	229.25	33.39	-80.99
47236	-0.021	0.777	0.165	238.28	2.66	-82.32
47255	0.0	0.786	0.275	210.14	0.7	-82.95
47278	0.072	0.614	0.199	213.15	-7.14	-75.95
47299	0.136	0.528	-0.027	264.25	10.71	-68.46
47317	0.035	0.72	-0.036	293.79	-3.5	-55.86
47337	0.038	0.775	0.111	296.38	-20.09	-53.97
47359	0.023	0.907	0.238	276.64	-26.88	-40.25
47378	0.091	0.754	0.209	272.02	-23.31	-18.06
47403	0.083	0.737	0.148	282.52	-30.59	2.73
47422	0.082	1.009	0.118	259.7	-38.22	26.81
47438	0.04	1.176	0.119	219.45	-61.11	47.32
47463	0.123	1.281	0.06	191.52	-76.09	83.09
47479	0.165	1.213	-0.015	178.22	-68.46	106.26
47503	0.219	1.076	-0.203	186.55	-65.59	145.81
47518	0.102	1.078	-0.389	271.46	-64.89	153.3
47538	0.397	1.125	-0.587	152.53	-44.66	182.98
47563	0.333	1.083	-0.615	74.83	-41.79	206.78
47582	0.32	1.139	-0.593	17.99	-38.22	217.0
47603	0.293	0.881	-0.7	-36.47	-23.31	224.77
47620	0.255	0.711	-0.788	-78.05	-15.68	222.18
47643	0.243	0.427	-0.85	-101.01	-7.14	214.69
47664	0.255	0.189	-0.859	-104.09	-6.02	198.94
47684	0.301	0.055	-0.845	-93.8	-6.3	180.88
47703	0.339	-0.045	-0.788	-86.31	-5.25	155.96
47723	0.382	-0.141	-0.762	-72.24	-2.87	120.68
47747	0.416	-0.137	-0.729	-78.96	-2.52	71.82
47767	0.423	-0.231	-0.696	-85.19	-1.4	25.13
47785	0.425	-0.19	-0.717	-85.26	3.64	-18.41
47805	0.407	-0.11	-0.748	-80.92	12.53	-57.19
47829	0.334	0.183	-0.672	-112.56	18.13	-107.03
47853	0.339	0.324	-0.642	-197.61	24.29	-140.7
47873	0.373	0.395	-0.657	-258.86	44.8	-161.98
47893	0.338	0.649	-0.653	-328.09	73.22	-163.38
47917	0.353	0.692	-0.731	-374.29	79.45	-155.33
47934	0.393	0.708	-0.686	-370.37	112.49	-141.96
47956	0.372	0.521	-0.552	-320.81	136.36	-106.54
47980	0.337	0.428	-0.26	-226.66	181.3	-61.6
47998	0.157	0.574	0.063	-164.22	186.34	-27.3
48016	0.056	0.791	0.219	-176.54	187.18	-11.48
48040	-0.086	1.007	0.423	-204.12	161.77	8.19
48060	-0.077	0.792	0.439	-230.72	116.69	27.3
48080	-0.026	0.63	0.644	-213.78	92.96	43.54
48100	-0.009	0.383	0.748	-192.85	75.25	48.79
48120	0.065	0.015	0.698	-139.44	45.57	62.3
48139	0.102	0.204	0.773	-86.1	39.41	69.02
48159	0.014	0.501	0.783	-79.59	16.24	67.13
48183	0.028	0.247	1.046	-93.1	-17.5	34.86
48203	-0.045	-0.019	1.125	-48.09	-14.0	26.53
48218	-0.41	0.55	1.526	-83.93	-114.94	12.95
48243	0.67	0.475	1.343	-110.67	-125.51	55.65
48266	-0.036	0.605	0.699	-88.48	-89.95	36.47
48285	0.466	0.47	0.75	-105.07	-51.73	19.53
48305	0.394	0.597	0.666	-21.07	-24.08	28.0
48330	0.452	0.645	0.604	-38.08	-9.17	34.86
48350	0.393	0.566	0.565	-46.06	0.91	44.59
48370	0.327	0.496	0.715	-45.78	6.23	47.81
48390	0.358	0.519	0.933	-42.84	5.46	46.9
48410	0.374	0.594	1.011	-41.16	16.94	45.15
48429	0.352	0.618	0.983	-49.49	16.73	44.38
48448	0.448	0.506	0.882	-43.82	21.84	51.73
48471	0.362	0.469	0.899	-45.08	16.52	45.01
48491	0.268	0.497	0.943	-46.06	7.35	42.0
48515	0.346	0.415	1.019	-44.52	16.1	37.8
48535	0.334	0.482	1.184	-35.07	12.18	31.99
48555	0.357	0.452	1.186	-35.42	19.39	27.44
48571	0.355	0.399	1.145	-29.75	16.87	25.97
48595	0.323	0.372	1.11	-27.16	6.65	26.11
48614	0.342	0.368	1.139	-27.86	-0.28	27.51
48634	0.406	0.362	1.226	-34.79	-12.74	27.86
48654	0.495	0.338	1.321	-43.75	-10.5	26.32
48675	0.478	0.263	1.172	-44.94	-9.87	22.05
48695	0.466	0.163	1.1	-35.49	-13.37	19.95
48718	0.458	0.213	1.159	-42.14	-26.88	18.41
48738	0.505	0.194	1.254	-34.93	-31.64	15.05
48762	0.573	0.183	1.317	-32.48	-26.04	6.3
48782	0.596	0.155	1.237	-11.41	-20.3	-2.24
48800	0.584	0.156	1.227	3.01	-17.78	-9.52
48824	0.577	0.193	1.366	11.69	-16.59	-14.63
48844	0.532	0.3	1.501	10.15	-14.14	-14.98
48864	0.532	0.349	1.646	3.85	-15.82	-10.92
48884	0.643	0.292	1.627	-1.33	2.45	-14.7
48905	0.659	0.287	1.516	-1.96	-0.56	-1.26
48925	0.654	0.244	1.442	-5.04	-3.78	5.04
48945	0.642	0.247	1.391	-15.54	-4.27	8.96
48969	0.643	0.221	1.343	-11.55	2.24	11.13
48989	0.63	0.191	1.31	-0.21	4.62	11.2
49009	0.568	0.299	1.312	-6.02	0.7	10.5
49033	0.566	0.235	1.268	-23.38	-6.72	8.4
49053	0.559	0.195	1.206	-23.59	-6.93	7.35
49073	0.525	0.176	1.135	-18.13	-4.13	2.17
49088	0.515	0.195	1.066	-0.21	-4.06	0.49
49108	0.501	0.233	1.07	20.93	3.57	0.42
49132	0.475	0.293	1.106	8.89	-0.56	0.42
49153	0.434	0.233	1.011	-10.99	-0.14	-1.89
49171	0.395	0.18	0.964	-6.86	-2.17	-9.8
49190	0.385	0.25	0.919	8.96	0.42	-19.32
49215	0.42	0.308	0.918	17.92	4.76	-21.07
49235	0.376	0.286	0.839	13.72	9.24	-20.72
49255	0.361	0.244	0.764	2.31	0.77	-17.01
49279	0.278	0.223	0.666	-9.17	-6.51	-19.32
49298	0.292	0.191	0.709	-11.41	-6.02	-17.85
49319	0.276	0.141	0.718	-9.24	4.34	-21.91
49339	0.278	-0.056	0.637	2.8	13.16	-24.57
49359	0.278	-0.1	0.591	23.66	-0.07	-28.63
49379	0.276	0.049	0.574	23.8	6.23	-27.86
49398	0.268	0.121	0.689	7.77	7.98	-24.64
49419	0.25	0.102	0.648	-16.94	1.05	-19.88
49438	0.296	-0.052	0.59	-18.83	10.15	-19.81
49457	0.257	-0.127	0.527	-5.18	15.19	-25.06
49477	0.238	-0.093	0.462	19.95	3.22	-30.1
49496	0.329	0.047	0.37	52.64	28.14	-36.05
49520	0.183	0.396	0.325	53.62	18.41	-30.8
49541	0.275	0.252	0.42	11.83	10.85	-30.87
49560	0.285	0.139	0.478	26.88	8.96	-26.74
49583	0.286	0.178	0.495	59.78	24.01	-28.35
49603	0.26	0.202	0.538	90.37	28.84	-31.01
49623	0.194	0.359	0.518	89.25	18.2	-33.04
49643	0.252	0.308	0.568	76.3	9.03	-32.69
49667	0.254	0.308	0.606	70.14	5.81	-33.81
49687	0.277	0.258	0.61	78.75	6.16	-36.89
49702	0.283	0.234	0.706	93.24	7.91	-40.11
49727	0.331	0.233	0.719	100.24	5.6	-41.65
49746	0.313	0.456	0.775	91.28	1.54	-41.86
49767	0.327	0.604	0.924	62.79	-6.37	-44.1
49787	0.364	0.562	1.014	73.29	4.48	-44.66
49807	0.348	0.639	1.074	111.93	13.16	-39.9
49822	0.331	0.694	1.116	116.34	13.86	-33.6
49846	0.285	0.819	1.17	107.52	16.31	-19.04
49867	0.246	0.877	1.104	61.95	3.71	-12.74
49887	0.285	0.736	1.032	39.83	1.68	-7.91
49905	0.368	0.551	0.934	57.4	12.18	0.98
49928	0.363	0.526	0.873	92.05	27.44	10.85
49949	0.346	0.559	0.853	119.98	37.1	16.31
49968	0.269	0.757	0.804	111.86	29.75	19.74
49988	0.23	0.899	0.785	52.36	14.28	15.75
50009	0.262	0.831	0.714	17.85	3.64	12.11
50033	0.305	0.7	0.672	13.02	-0.77	12.11
50053	0.338	0.646	0.679	24.99	10.43	12.46
50072	0.279	0.649	0.674	30.1	10.22	13.09
50092	0.246	0.696	0.683	11.83	5.6	15.54
50115	0.186	0.685	0.606	-28.98	-8.4	19.95
50136	0.164	0.596	0.462	-69.09	-34.16	21.7
50155	0.237	0.398	0.386	-61.25	-41.44	25.13
50175	0.199	0.297	0.326	-34.02	-39.13	24.01
50199	0.197	0.381	0.285	0.63	-15.82	25.48
50218	0.18	0.401	0.268	20.09	-18.55	22.96
50237	0.191	0.529	0.168	12.25	-10.57	25.62
50262	0.127	0.618	0.142	-44.59	-27.02	26.32
50282	0.247	0.456	0.238	-62.58	-13.93	27.44
50302	0.206	0.327	0.262	-44.38	-14.63	27.37
50322	0.304	0.398	0.283	-27.44	3.64	26.11
50342	0.239	0.501	0.281	-22.54	8.89	19.81
50362	0.274	0.518	0.335	-28.35	12.32	16.38
50382	0.277	0.433	0.461	-25.34	16.94	16.52
50401	0.317	0.535	0.499	-10.5	27.23	18.62
50421	0.298	0.651	0.529	-12.32	35.14	18.06
50445	0.254	0.594	0.729	-37.38	25.69	14.49
50462	0.283	0.575	0.762	-44.73	27.86	17.57
50485	0.216	0.708	0.761	-36.12	18.69	19.81
50509	0.267	0.758	0.771	-44.52	18.41	25.48
50524	0.131	0.648	0.822	-4.69	11.83	24.78
50549	0.308	0.86	1.07	-4.9	-11.41	29.47
50566	0.339	0.86	1.079	-23.17	9.87	28.07
50586	0.304	0.853	0.988	-32.55	-0.84	24.22
50608	0.292	0.744	0.879	-29.82	2.59	21.07
50632	0.328	0.725	0.865	-10.57	9.38	18.27
50652	0.37	0.701	0.905	-1.12	18.06	15.61
50670	0.305	0.778	0.969	-11.55	22.19	14.98
50687	0.285	0.75	0.978	-29.26	22.19	16.66
50708	0.288	0.691	0.981	-44.17	14.49	17.43
50727	0.317	0.634	1.002	-41.86	18.41	16.17
50752	0.339	0.6	1.071	-33.95	18.06	12.74
50772	0.334	0.578	1.114	-29.68	19.95	10.15
50792	0.342	0.6	1.087	-33.11	15.96	10.43
50809	0.353	0.658	1.069	-40.81	11.27	10.78
50832	0.389	0.631	1.058	-47.53	7.49	11.41
50856	0.382	0.626	1.077	-43.33	7.21	10.5
50876	0.358	0.553	1.144	-33.88	3.71	10.43
50895	0.386	0.568	1.162	-26.95	-0.14	10.15
50916	0.398	0.573	1.205	-26.39	-2.52	9.59
50936	0.407	0.565	1.266	-26.25	-13.3	8.19
50954	0.453	0.548	1.34	-26.11	-14.21	4.9
50976	0.426	0.545	1.34	-16.24	-19.6	-1.68
50996	0.439	0.512	1.292	6.16	-21.0	-9.8
51016	0.431	0.632	1.307	19.18	-22.75	-15.61
51036	0.448	0.766	1.37	27.02	-21.56	-17.57
51056	0.444	0.808	1.425	34.93	-15.26	-17.22
51080	0.444	0.814	1.463	31.99	-9.38	-10.43
51099	0.467	0.776	1.439	19.25	-6.86	-4.55
51118	0.493	0.687	1.41	5.11	-0.7	-2.87
51139	0.486	0.649	1.372	1.54	1.26	0.28
51163	0.49	0.624	1.338	-0.07	0.56	-0.98
51182	0.457	0.654	1.254	2.73	-1.47	-2.1
51205	0.438	0.6	1.21	13.65	0.98	-3.15
51226	0.432	0.667	1.165	29.26	1.05	-3.22
51246	0.386	0.753	1.118	16.1	-8.54	17.57
51266	0.366	0.691	1.04	3.08	-10.92	1.82
51286	0.317	0.651	0.993	-6.44	-22.75	1.75
51306	0.303	0.537	0.949	2.38	-21.49	-1.89
51326	0.226	0.548	0.88	32.13	-26.81	-5.74
51346	0.305	0.604	0.775	43.05	-28.35	-8.33
51366	0.239	0.59	0.632	48.72	-24.64	-8.19
51385	0.217	0.533	0.555	51.73	-32.83	-14.56
51409	0.229	0.47	0.548	66.43	-37.17	-28.35
51426	0.219	0.527	0.502	76.3	-34.16	-32.55
51446	0.229	0.448	0.444	80.29	-29.19	-39.55
51466	0.256	0.351	0.465	104.09	-14.28	-42.0
51489	0.224	0.392	0.492	105.84	-2.45	-41.3
51508	0.174	0.472	0.464	84.0	3.29	-42.28
51533	0.16	0.519	0.373	44.31	-5.11	-46.69
51549	0.161	0.448	0.3	36.54	-7.21	-51.31
51568	0.224	0.352	0.308	45.64	-5.81	-56.28
51588	0.264	0.272	0.363	74.2	10.43	-59.01
51609	0.264	0.288	0.352	93.1	16.59	-60.34
51633	0.235	0.423	0.333	83.3	17.15	-55.86
51653	0.173	0.518	0.344	52.92	1.82	-52.29
51670	0.201	0.49	0.367	41.23	-2.31	-50.75
51692	0.208	0.421	0.371	40.39	16.52	-47.95
51712	0.216	0.413	0.363	46.76	7.0	-41.93
51732	0.12	0.447	0.37	48.51	2.24	-36.33
51756	0.194	0.527	0.354	29.12	-9.1	-29.61
51774	0.222	0.555	0.336	22.82	-13.44	-26.88
51794	0.227	0.552	0.346	20.23	-23.52	-23.38
51814	0.278	0.572	0.403	28.49	-21.28	-24.15
51838	0.294	0.66	0.474	45.43	-17.43	-23.66
51858	0.325	0.956	0.546	49.91	-19.67	-25.55
51878	0.323	1.162	0.616	33.53	-20.16	-24.57
51897	0.281	1.17	0.638	33.39	-25.97	-21.91
51917	0.33	1.074	0.666	51.87	-20.02	-14.77
51938	0.287	1.067	0.689	72.24	-4.48	-5.53
51958	0.244	1.081	0.719	54.32	-0.84	2.45
51977	0.222	1.019	0.707	13.72	2.87	8.82
52002	0.198	0.93	0.626	-24.92	1.19	14.7
52021	0.196	0.795	0.559	-52.01	-0.98	15.68
52040	0.19	0.648	0.533	-53.76	1.12	14.42
52060	0.168	0.589	0.475	-48.3	6.44	11.41
52084	0.14	0.571	0.37	-46.48	8.75	9.1
52104	0.15	0.509	0.286	-41.86	10.43	8.68
52122	0.154	0.519	0.269	-39.69	12.39	8.12
52141	0.114	0.527	0.271	-46.13	13.37	7.7
52166	0.131	0.577	0.274	-49.35	17.36	7.49
52185	0.11	0.612	0.281	-47.53	13.79	8.54
52206	0.122	0.65	0.277	-45.29	16.73	11.62
52227	0.102	0.671	0.268	-45.08	15.68	17.5
52247	0.103	0.698	0.342	-42.91	14.28	21.98
52271	0.083	0.763	0.426	-54.46	10.85	23.38
52286	0.087	0.705	0.48	-69.37	6.37	23.66
52306	0.142	0.559	0.428	-62.86	5.11	26.67
52330	0.145	0.598	0.347	-48.02	0.35	31.15
52350	0.172	0.651	0.433	-26.74	-4.69	30.45
52371	0.202	0.722	0.603	-24.5	-2.31	27.65
52390	0.185	0.735	0.679	-35.42	-6.58	26.46
52414	0.224	0.622	0.593	-28.84	-14.42	27.93
52433	0.283	0.712	0.589	-22.47	-18.2	30.38
52458	0.309	0.802	0.725	-15.05	-25.13	32.13
52477	0.355	0.878	0.997	-24.22	-17.5	34.16
52498	0.316	0.874	0.836	-44.31	-15.68	35.49
52518	0.318	0.805	0.655	-43.82	-14.49	36.4
52542	0.288	0.832	0.658	-40.53	-21.98	35.0
52562	0.259	0.773	0.763	-19.32	-30.31	32.76
52581	0.236	0.852	0.849	5.18	-36.4	31.92
52601	0.263	0.908	0.847	6.23	-24.22	31.78
52625	0.219	0.911	0.764	-3.64	-29.26	32.76
52644	0.269	0.894	0.646	-14.77	-28.91	33.39
52664	0.313	0.852	0.637	-15.75	-20.72	33.81
52685	0.339	0.765	0.651	-15.05	-10.99	33.46
52705	0.319	0.756	0.683	-17.29	-8.33	32.2
52724	0.357	0.75	0.745	-22.33	-5.95	27.09
52744	0.463	0.735	0.816	-21.63	9.52	24.29
52763	0.407	0.77	0.844	-21.49	4.76	25.62
52788	0.415	0.789	0.852	-29.75	5.74	24.78
52808	0.416	0.778	0.854	-44.24	6.16	21.77
52828	0.427	0.699	0.858	-41.3	6.86	17.71
52846	0.487	0.693	0.893	-31.78	7.56	18.48
52868	0.49	0.702	0.957	-30.45	14.7	21.35
52892	0.463	0.701	0.991	-43.33	6.02	20.72
52907	0.541	0.691	1.034	-44.38	-6.79	19.46
52932	0.601	0.665	1.05	-35.77	0.07	15.75
52952	0.596	0.63	1.119	-15.12	-2.31	11.62
52970	0.615	0.69	1.199	-5.04	-11.55	6.79
52989	0.604	0.767	1.271	-0.49	-16.94	0.7
53014	0.599	0.894	1.287	5.39	-24.5	-5.04
53029	0.633	0.916	1.291	15.4	-22.68	-8.82
53054	0.668	0.878	1.307	30.1	-22.47	-9.03
53074	0.701	0.894	1.359	26.81	-17.5	-5.46
53094	0.714	0.93	1.402	5.67	-8.68	1.96
53114	0.75	0.86	1.407	-11.55	-9.94	9.24
53133	0.728	0.829	1.39	-23.73	-4.13	13.16
53155	0.704	0.807	1.281	-33.25	-2.66	16.31
53179	0.679	0.746	1.189	-42.28	-3.99	17.57
53198	0.637	0.621	1.091	-34.3	-2.52	15.82
53214	0.6	0.612	1.029	-22.33	1.12	12.95
53239	0.561	0.632	0.958	-8.19	3.36	7.77
53259	0.518	0.63	0.969	-5.32	4.76	7.77
53278	0.416	0.633	0.928	-11.06	-1.68	8.75
53297	0.391	0.611	0.818	-15.47	-8.89	6.65
53316	0.368	0.46	0.736	-13.16	-0.07	-1.12
53341	0.308	0.389	0.671	23.87	0.42	-12.6
53359	0.324	0.448	0.61	41.37	8.05	-18.55
53379	0.262	0.428	0.523	45.92	18.97	-22.47
53402	0.198	0.457	0.45	40.53	13.51	-27.3
53423	0.163	0.45	0.371	37.59	2.73	-37.03
53443	0.225	0.371	0.32	51.24	5.53	-45.92
53462	0.278	0.328	0.348	89.04	23.17	-50.75
53478	0.236	0.309	0.367	103.46	32.55	-54.04
53502	0.286	0.325	0.377	109.34	39.2	-60.9
53523	0.224	0.393	0.325	101.92	34.02	-64.68
53543	0.193	0.523	0.333	76.58	19.95	-66.43
53563	0.247	0.451	0.377	73.36	18.76	-65.73
53583	0.207	0.39	0.384	70.21	14.28	-61.81
53603	0.243	0.26	0.371	81.97	12.32	-59.64
53623	0.196	0.35	0.408	95.97	16.66	-57.19
53647	0.135	0.47	0.394	84.0	3.15	-55.65
53666	0.158	0.514	0.366	66.64	-9.94	-54.32
53685	0.184	0.441	0.343	63.07	-15.54	-53.55
53709	0.168	0.425	0.349	69.23	-17.22	-54.32
53728	0.152	0.417	0.346	78.12	-17.43	-55.09
53752	0.145	0.534	0.325	84.56	-21.07	-50.61
53772	0.116	0.754	0.295	74.34	-33.95	-45.36
53793	0.163	0.829	0.409	76.16	-40.11	-41.23
53811	0.227	0.869	0.469	80.71	-38.92	-36.05
53832	0.282	0.982	0.485	78.96	-40.46	-27.09
53852	0.374	1.103	0.501	61.32	-47.67	-18.48
53876	0.505	1.138	0.58	36.05	-39.69	-9.66
53895	0.599	1.123	0.641	26.46	-27.09	-2.8
53914	0.638	1.172	0.666	18.97	-15.54	5.95
53939	0.567	1.109	0.696	7.56	3.71	11.48
53959	0.433	1.035	0.645	1.68	14.42	17.92
53978	0.311	0.987	0.545	-8.68	18.2	25.48
53997	0.191	0.935	0.449	-20.51	10.78	32.97
54019	0.15	0.871	0.405	-37.03	-0.77	34.65
54043	0.152	0.777	0.365	-38.15	-7.56	30.59
54063	0.183	0.675	0.361	-17.08	3.71	23.17
54083	0.144	0.701	0.335	-8.33	8.96	20.23
54102	0.129	0.694	0.298	-18.69	5.74	19.39
54122	0.132	0.686	0.274	-38.64	-3.85	18.34
54146	0.176	0.645	0.256	-49.42	-2.03	15.89
54168	0.198	0.495	0.274	-27.44	15.05	14.35
54187	0.132	0.583	0.24	-23.38	22.4	17.22
54211	0.107	0.58	0.173	-45.22	11.62	24.43
54231	0.114	0.588	0.174	-69.65	-1.26	25.06
54250	0.223	0.492	0.223	-72.31	0.91	22.61
54266	0.186	0.443	0.273	-56.21	9.17	18.13
54291	0.152	0.453	0.234	-16.31	14.84	14.84
54311	0.187	0.578	0.237	-2.94	11.41	16.31
54335	0.168	0.729	0.261	-19.18	6.23	21.14
54355	0.215	0.713	0.351	-32.69	5.18	22.05
54373	0.279	0.667	0.407	-26.46	15.05	22.54
54397	0.285	0.683	0.407	-15.05	21.14	22.82
54417	0.261	0.731	0.442	-14.14	22.47	22.12
54437	0.192	0.793	0.508	-27.86	15.05	22.68
54456	0.161	0.764	0.554	-30.87	7.07	21.7
54476	0.175	0.854	0.571	-37.31	2.73	21.14
54500	0.187	0.79	0.555	-32.48	0.42	15.12
54517	0.238	0.816	0.518	-23.8	14.35	11.62
54541	0.254	0.859	0.477	-7.98	24.01	9.87
54561	0.211	0.894	0.591	1.82	28.91	8.26
54578	0.206	0.989	0.695	-0.56	24.5	9.1
54596	0.214	1.102	0.76	-25.13	24.71	8.54
54619	0.177	1.092	0.757	-33.11	25.13	9.73
54643	0.154	1.038	0.744	-35.7	18.34	10.43
54667	0.202	0.984	0.755	-35.56	18.69	12.18
54687	0.2	1.026	0.831	-45.36	14.7	13.02
54707	0.239	0.985	0.859	-55.72	21.14	14.21
54727	0.224	0.971	0.842	-60.97	17.08	18.55
54747	0.251	0.919	0.859	-67.2	6.16	19.18
54767	0.288	0.908	0.857	-68.67	3.57	18.9
54786	0.33	0.847	0.867	-71.61	8.68	16.1
54807	0.346	0.746	0.921	-67.69	5.32	17.78
54826	0.336	0.828	0.937	-68.32	9.17	19.95
54848	0.287	0.824	0.913	-71.4	-3.43	18.06
54867	0.298	0.769	0.915	-51.17	-6.58	16.59
54891	0.329	0.711	0.937	-27.3	-3.29	13.65
54911	0.362	0.75	0.977	-27.93	-11.83	13.93
54930	0.343	0.761	1.001	-42.42	-13.09	15.12
54954	0.398	0.713	1.029	-44.52	-24.01	11.69
54974	0.421	0.668	1.05	-29.89	-23.45	4.62
54993	0.424	0.631	1.06	-3.57	-20.02	-3.01
55013	0.404	0.745	1.127	5.95	-22.12	-7.91
55037	0.369	0.826	1.182	-5.04	-26.46	-12.39
55054	0.411	0.808	1.239	-6.09	-28.28	-15.75
55074	0.439	0.78	1.27	17.92	-19.39	-18.27
55093	0.499	0.833	1.281	28.98	-15.26	-17.71
55118	0.538	0.923	1.278	18.27	-15.33	-13.16
55134	0.569	0.92	1.287	4.41	-10.78	-9.8
55158	0.58	0.884	1.27	-6.79	-8.89	-4.48
55178	0.553	0.82	1.227	0.35	-7.56	-1.96
55196	0.519	0.829	1.215	8.75	-8.47	-0.42
55217	0.498	0.875	1.148	9.59	-11.76	1.47
55237	0.463	0.891	1.047	-2.87	-21.7	3.43
55261	0.482	0.767	0.984	-1.33	-22.33	5.32
55280	0.472	0.787	0.983	9.38	-19.25	8.19
55304	0.441	0.777	0.985	35.0	-19.39	11.34
55324	0.379	0.778	0.936	18.48	-24.01	12.18
55341	0.342	0.739	0.865	17.5	-27.09	11.69
55365	0.337	0.736	0.811	14.21	-31.43	9.59
55384	0.335	0.679	0.775	15.54	-29.61	9.31
55403	0.337	0.58	0.753	36.54	-22.12	8.61
55421	0.288	0.526	0.663	70.21	-17.15	6.3
55441	0.251	0.566	0.577	56.49	-13.93	7.14
55465	0.266	0.594	0.618	44.52	-24.22	9.87
55485	0.273	0.477	0.629	21.98	-22.4	8.82
55503	0.268	0.381	0.575	21.63	-18.69	5.32
55524	0.222	0.36	0.46	23.87	-13.72	-2.1
55544	0.18	0.313	0.344	33.67	-17.15	-10.85
55568	0.161	0.288	0.271	48.02	-18.9	-20.93
55588	0.175	0.263	0.236	69.09	-14.84	-28.42
55608	0.168	0.262	0.215	75.25	-15.05	-38.92
55627	0.191	0.251	0.205	73.5	-14.49	-49.84
55647	0.157	0.262	0.228	70.21	-12.39	-59.64
55665	0.148	0.236	0.242	75.11	-10.85	-69.51
55689	0.147	0.237	0.228	87.43	-3.22	-77.7
55709	0.13	0.327	0.212	93.66	-0.56	-82.6
55729	0.113	0.472	0.24	74.69	-8.26	-88.69
55745	0.106	0.466	0.289	59.29	-10.36	-92.96
55764	0.102	0.514	0.301	55.16	-11.48	-96.74
55784	0.115	0.514	0.275	61.88	-8.47	-100.31
55806	0.137	0.524	0.268	75.39	-8.75	-101.64
55827	0.123	0.653	0.317	75.39	-9.94	-101.43
55847	0.126	0.801	0.353	66.08	-16.17	-100.17
55870	0.111	0.91	0.397	55.65	-19.6	-96.88
55888	0.18	0.907	0.417	52.5	-26.04	-92.96
55911	0.279	1.013	0.444	68.11	-24.29	-88.48
55931	0.276	1.292	0.539	76.86	-22.33	-83.93
55951	0.36	1.379	0.622	68.88	-14.56	-74.41
55975	0.367	1.41	0.625	52.85	-4.55	-51.17
55995	0.353	1.455	0.639	24.57	2.03	-22.82
56015	0.344	1.363	0.629	-20.65	4.2	1.61
56035	0.348	1.231	0.563	-49.84	6.37	19.25
56055	0.336	1.081	0.495	-64.12	10.08	33.11
56076	0.306	1.013	0.439	-71.12	10.85	41.65
56096	0.28	0.976	0.395	-72.94	9.1	47.95
56118	0.247	0.958	0.388	-70.0	9.17	53.97
