Millis	AccelX	AccelY	AccelZ	GyroX	GyroY	GyroZ
0	-1.007	0.001	0.158	5.46	-1.54	-2.59
20	-1.005	0.009	0.166	5.25	-0.35	-2.87
40	-1.008	0.002	0.167	5.74	-0.7	-2.66
64	-1.014	-0.001	0.166	6.09	-1.12	-2.52
84	-1.011	0.01	0.17	6.02	-1.12	-2.24
104	-1.006	0.015	0.164	5.88	-0.84	-1.89
125	-1.003	0.014	0.169	5.39	-0.63	-1.75
149	-0.998	0.002	0.17	4.41	-0.98	-1.68
169	-1.001	-0.006	0.172	4.13	-1.54	-1.82
189	-1.003	0.001	0.167	3.99	-1.4	-1.82
207	-1.003	0.004	0.165	3.57	-1.05	-1.89
226	-1.008	0.002	0.165	2.8	-1.12	-1.75
251	-1.012	0.004	0.167	2.03	-1.26	-1.54
270	-1.009	0.007	0.165	1.75	-0.35	-1.19
295	-1.01	0.011	0.167	-0.07	-0.98	-0.77
315	-1.019	0.003	0.162	-0.42	-3.85	-1.05
334	-0.983	0.014	0.198	1.33	-1.19	-0.63
355	-1.001	0.0	0.14	-0.7	-3.71	-0.21
378	-0.996	0.001	0.174	-2.31	-0.42	-0.49
398	-1.005	0.004	0.176	-2.52	0.0	-0.77
417	-1.019	0.012	0.187	-2.52	-0.84	-0.42
442	-1.021	0.006	0.176	-2.1	-2.8	0.0
462	-1.0	0.002	0.171	-1.89	-2.45	0.14
479	-0.999	0.0	0.174	-2.17	-1.68	-0.14
503	-1.001	0.0	0.173	-2.38	-2.17	-0.35
523	-0.998	0.008	0.164	-2.1	-1.54	-0.56
543	-1.004	0.001	0.175	-3.22	-1.68	-0.28
563	-1.003	0.002	0.163	-3.22	-1.61	-0.42
587	-1.007	0.003	0.17	-3.36	-0.91	-0.49
606	-1.003	0.005	0.167	-3.5	-0.56	-0.49
626	-1.005	0.006	0.175	-3.43	0.0	-0.42
647	-1.006	0.002	0.18	-3.43	-0.35	-0.42
667	-1.003	-0.004	0.174	-3.5	-0.28	-0.56
687	-1.0	0.001	0.168	-3.36	0.14	-0.63
711	-0.998	0.004	0.165	-3.57	0.21	-1.05
730	-0.988	0.0	0.16	-3.99	1.26	-1.26
752	-0.998	0.002	0.169	-4.06	2.38	-1.4
772	-1.013	-0.001	0.171	-3.85	1.54	-1.61
796	-1.008	-0.004	0.154	-3.29	0.35	-1.89
816	-0.986	-0.006	0.147	-3.43	3.08	-1.96
836	-0.994	-0.004	0.166	-1.89	5.53	-2.24
854	-1.016	-0.001	0.166	-3.36	5.18	-1.68
877	-1.018	-0.006	0.165	-0.21	2.45	-1.82
898	-1.047	0.005	0.179	-1.4	0.49	-1.05
918	-1.021	-0.006	0.136	-2.87	1.4	-0.63
941	-1.022	-0.007	0.154	-3.71	2.59	-1.12
962	-1.02	-0.012	0.162	-3.29	2.8	-1.47
982	-1.017	-0.01	0.15	-2.94	1.75	-0.98
997	-1.006	-0.007	0.137	-3.43	2.59	-0.63
1019	-0.995	-0.014	0.146	-3.36	2.66	-0.84
1039	-0.995	-0.017	0.154	-3.5	2.1	-1.33
1062	-0.997	-0.01	0.169	-3.5	0.35	-1.68
1083	-1.007	-0.001	0.158	-2.66	-1.75	-1.47
1101	-1.009	-0.008	0.143	-3.43	-2.38	-0.77
1125	-0.996	-0.013	0.13	-3.99	-1.47	-0.77
1145	-1.011	-0.007	0.15	-4.13	-1.05	-0.77
1163	-1.012	-0.008	0.15	-4.48	-1.12	-0.63
1186	-1.018	-0.002	0.151	-3.43	-1.96	-0.07
1207	-1.013	-0.002	0.153	-2.31	-2.38	0.07
1226	-1.016	-0.006	0.153	-1.89	-3.36	0.7
1246	-1.013	-0.007	0.142	-1.54	-3.22	0.91
1267	-0.999	-0.008	0.15	-1.82	-2.24	1.33
1287	-0.997	-0.018	0.156	-1.61	-0.77	1.54
1306	-0.999	-0.015	0.156	-1.05	0.14	1.47
1329	-1.002	-0.019	0.15	-0.77	0.49	0.98
1350	-0.997	-0.021	0.154	-0.84	0.7	0.84
1370	-1.004	-0.015	0.155	-0.49	0.07	0.7
1394	-1.006	-0.011	0.149	0.63	1.26	0.49
1414	-1.015	-0.006	0.146	-1.12	0.21	0.63
1433	-0.998	-0.013	0.14	0.28	-1.26	0.21
1453	-1.02	-0.002	0.17	0.35	-0.84	-0.07
1477	-1.005	-0.005	0.129	-1.19	0.77	0.35
1495	-1.001	0.0	0.151	-1.61	1.19	0.21
1519	-1.014	0.0	0.158	-1.33	0.7	0.0
1543	-1.014	-0.003	0.142	-0.63	0.42	0.42
1561	-1.014	-0.006	0.138	-0.28	0.21	0.42
1583	-1.002	-0.007	0.138	-0.28	1.05	0.56
1600	-1.007	-0.005	0.143	-0.07	1.33	0.28
1624	-1.002	0.001	0.145	0.56	1.4	0.35
1644	-1.01	0.006	0.141	0.84	0.7	0.56
1664	-1.014	-0.006	0.141	0.49	-0.14	0.77
1684	-1.016	0.003	0.153	1.26	-0.91	0.49
1703	-1.02	0.01	0.152	1.54	-2.31	0.56
1727	-1.03	0.006	0.142	2.59	-3.29	0.28
1748	-1.029	0.019	0.141	3.01	-5.32	0.49
1768	-1.022	0.017	0.148	2.66	-7.28	1.33
1788	-1.018	0.004	0.122	3.99	-8.82	2.59
1811	-1.0	-0.005	0.109	3.08	-7.42	3.92
1831	-0.98	-0.013	0.12	1.33	-5.46	4.41
1850	-0.974	-0.008	0.121	1.19	-1.4	4.97
1869	-0.962	-0.008	0.122	1.12	1.05	5.11
1894	-0.945	-0.013	0.136	0.49	5.11	4.83
1914	-0.954	-0.012	0.155	1.75	8.05	5.18
1934	-0.983	-0.022	0.166	3.15	9.66	6.79
1953	-1.004	-0.037	0.17	5.18	11.48	8.47
1977	-1.03	-0.045	0.184	6.65	8.33	10.01
1998	-1.022	-0.046	0.166	11.2	7.42	10.36
2018	-1.027	-0.04	0.158	13.44	7.21	10.99
2038	-1.008	-0.027	0.115	13.65	8.96	11.9
2061	-1.0	-0.029	0.105	14.21	14.21	12.74
2081	-0.988	-0.041	0.083	13.3	20.23	13.51
2099	-0.995	-0.003	0.106	11.69	23.52	15.33
2121	-1.007	0.028	0.126	9.24	23.24	18.55
2143	-0.991	0.049	0.107	9.38	21.7	20.93
2163	-0.976	0.044	0.08	11.55	22.68	23.17
2186	-0.979	0.036	0.079	14.49	25.34	25.9
2207	-0.992	0.059	0.067	17.71	28.56	31.57
2225	-0.993	0.048	0.059	20.3	31.22	35.56
2249	-0.966	0.069	0.034	21.63	34.79	38.71
2268	-0.94	0.091	0.012	21.28	39.13	42.77
2292	-0.939	0.098	0.007	20.16	43.12	49.42
2312	-0.94	0.103	0.033	19.74	44.03	54.6
2332	-0.888	0.146	-0.04	21.35	46.55	58.87
2351	-0.863	0.197	-0.091	20.86	57.54	59.78
2372	-0.864	0.222	-0.088	13.23	67.55	56.63
2388	-0.834	0.281	-0.073	9.45	71.19	57.12
2412	-0.83	0.368	-0.058	11.69	73.29	64.19
2431	-0.843	0.362	-0.094	14.77	76.86	69.93
2450	-0.847	0.364	-0.139	14.56	79.03	74.83
2469	-0.819	0.359	-0.243	10.85	84.21	76.72
2494	-0.772	0.384	-0.25	13.37	89.18	75.53
2518	-0.779	0.404	-0.237	16.1	88.41	74.9
2538	-0.817	0.411	-0.231	10.78	81.83	75.53
2555	-0.749	0.442	-0.325	3.92	80.64	75.81
2577	-0.681	0.515	-0.378	-5.67	87.57	76.44
2599	-0.613	0.512	-0.426	-9.73	92.12	77.14
2617	-0.586	0.515	-0.462	-8.61	93.94	75.95
2642	-0.614	0.555	-0.454	-13.72	93.38	71.61
2658	-0.637	0.577	-0.451	-17.36	94.22	66.78
2678	-0.621	0.651	-0.442	-22.89	94.92	64.96
2697	-0.594	0.672	-0.472	-25.13	94.36	65.87
2720	-0.574	0.634	-0.55	-24.08	94.22	65.31
2738	-0.549	0.616	-0.577	-21.28	95.13	63.84
2760	-0.529	0.601	-0.529	-20.72	90.09	57.61
2780	-0.483	0.614	-0.523	-20.51	84.91	53.34
2801	-0.442	0.612	-0.516	-14.42	79.17	48.79
2824	-0.436	0.669	-0.59	-8.54	75.53	44.87
2845	-0.43	0.871	-0.593	-7.98	74.27	41.02
2861	-0.409	0.789	-0.579	-3.99	72.03	40.81
2881	-0.389	0.791	-0.576	-1.54	70.42	42.28
2905	-0.364	0.772	-0.628	-0.28	67.55	44.1
2925	-0.315	0.786	-0.71	2.38	66.85	42.91
2944	-0.293	0.826	-0.713	2.73	69.16	40.74
2964	-0.299	0.842	-0.674	4.06	66.36	40.25
2987	-0.274	0.808	-0.68	8.4	62.23	39.06
3011	-0.197	0.781	-0.704	13.09	61.32	36.26
3031	-0.202	0.712	-0.672	12.81	59.99	31.15
3049	-0.203	0.752	-0.625	11.83	56.42	28.21
3073	-0.16	0.807	-0.702	15.61	50.96	24.57
3093	-0.065	0.834	-0.846	20.58	52.08	23.94
3110	-0.07	0.842	-0.751	15.47	50.89	22.54
3129	-0.102	0.848	-0.653	13.37	43.26	20.72
3154	-0.115	0.874	-0.693	11.97	37.1	19.39
3174	-0.104	0.841	-0.715	10.99	32.62	17.15
3194	-0.07	0.74	-0.747	5.88	31.78	11.69
3209	-0.028	0.729	-0.745	6.16	29.4	8.19
3232	-0.027	0.746	-0.721	4.83	26.74	3.22
3251	-0.045	0.777	-0.758	6.16	21.28	1.47
3271	-0.034	0.773	-0.793	7.35	15.26	0.56
3295	-0.018	0.787	-0.804	5.74	11.9	-1.19
3312	-0.035	0.815	-0.805	3.43	10.78	-3.85
3335	-0.058	0.814	-0.824	2.24	8.82	-8.96
3350	-0.055	0.8	-0.793	2.59	4.27	-10.85
3375	-0.033	0.797	-0.819	5.67	-2.73	-13.23
3396	-0.026	0.81	-0.82	5.88	-6.65	-15.33
3415	-0.071	0.804	-0.803	4.62	-13.16	-18.2
3439	-0.094	0.814	-0.864	3.92	-22.05	-22.05
3458	-0.112	0.839	-0.954	5.53	-26.53	-25.13
3479	-0.104	0.873	-0.979	9.17	-28.84	-30.03
3497	-0.109	0.924	-0.886	10.85	-33.88	-34.02
3516	-0.165	0.934	-0.811	12.18	-43.54	-36.05
3541	-0.222	0.865	-0.828	11.76	-54.6	-40.53
3561	-0.251	0.776	-0.865	10.85	-60.48	-45.43
3580	-0.244	0.772	-0.816	13.58	-66.57	-51.1
3603	-0.259	0.8	-0.832	14.77	-76.72	-56.28
3622	-0.274	0.796	-0.807	10.57	-81.83	-60.34
3645	-0.326	0.782	-0.787	10.5	-89.81	-66.01
3666	-0.387	0.722	-0.76	15.47	-95.13	-70.84
3686	-0.413	0.668	-0.728	16.45	-98.56	-77.14
3710	-0.406	0.667	-0.715	18.34	-101.22	-81.06
3726	-0.403	0.662	-0.691	19.67	-102.41	-81.76
3750	-0.43	0.63	-0.649	18.13	-106.47	-83.44
3770	-0.483	0.595	-0.603	16.03	-108.43	-87.78
3790	-0.541	0.565	-0.532	17.85	-111.86	-91.35
3809	-0.541	0.5	-0.521	16.24	-112.28	-92.47
3829	-0.541	0.477	-0.514	10.22	-107.24	-94.57
3853	-0.557	0.501	-0.504	7.42	-104.58	-96.53
3871	-0.574	0.502	-0.462	6.44	-103.81	-96.11
3895	-0.609	0.484	-0.387	4.13	-102.06	-93.24
3915	-0.653	0.442	-0.363	-1.61	-103.74	-91.63
3934	-0.672	0.415	-0.384	-7.0	-103.11	-89.95
3955	-0.712	0.446	-0.436	-4.55	-102.2	-84.77
3979	-0.733	0.399	-0.374	-7.0	-93.45	-80.08
4003	-0.732	0.362	-0.302	-12.81	-86.59	-74.55
4022	-0.716	0.333	-0.269	-18.97	-79.8	-69.93
4041	-0.723	0.284	-0.228	-22.26	-76.58	-64.82
4065	-0.733	0.222	-0.271	-20.23	-72.31	-60.83
4085	-0.747	0.182	-0.244	-20.3	-59.15	-58.59
4103	-0.769	0.142	-0.171	-19.88	-55.3	-55.02
4127	-0.81	0.132	-0.175	-18.41	-53.06	-46.76
4150	-0.772	0.068	-0.201	-14.7	-40.18	-38.85
4172	-0.839	0.068	-0.145	-14.14	-31.99	-30.8
4189	-0.846	0.041	-0.171	-11.76	-28.56	-24.92
4208	-0.859	0.013	-0.152	-9.45	-21.7	-21.7
4231	-0.898	-0.008	-0.134	-4.41	-10.64	-16.03
4255	-0.947	-0.01	-0.099	0.91	-4.76	-7.7
4275	-0.964	0.015	-0.084	4.62	-5.46	-0.98
4294	-0.945	0.035	-0.095	7.77	-6.44	4.41
4319	-0.926	0.05	-0.127	8.19	1.61	9.94
4338	-0.962	0.047	-0.124	6.37	8.82	13.23
4355	-0.969	0.07	-0.118	7.07	14.07	15.54
4379	-0.981	0.084	-0.096	8.33	16.03	20.02
4398	-0.983	0.078	-0.115	10.08	16.52	22.68
4418	-0.962	0.088	-0.123	9.66	19.67	24.01
4438	-0.949	0.099	-0.113	8.19	19.95	24.85
4462	-0.957	0.131	-0.136	8.82	21.21	26.67
4482	-0.962	0.148	-0.164	8.05	24.22	30.24
4502	-0.973	0.132	-0.167	4.9	28.14	34.51
4522	-0.966	0.137	-0.169	2.17	29.96	39.55
4546	-0.927	0.164	-0.173	-0.14	33.18	46.9
4565	-0.862	0.204	-0.183	-2.03	37.8	51.8
4584	-0.822	0.221	-0.185	-6.02	40.74	56.42
4601	-0.808	0.243	-0.221	-8.61	42.21	60.97
4625	-0.774	0.266	-0.267	-10.29	48.02	68.11
4646	-0.739	0.26	-0.264	-10.64	55.02	76.58
4666	-0.721	0.214	-0.283	-1.61	61.53	82.67
4686	-0.683	0.231	-0.272	6.16	67.83	86.8
4705	-0.651	0.271	-0.282	5.39	68.67	89.39
4726	-0.603	0.365	-0.236	5.88	65.52	90.93
4741	-0.591	0.378	-0.387	8.19	60.9	90.79
4761	-0.574	0.418	-0.423	8.33	76.51	86.66
4786	-0.601	0.458	-0.367	9.66	76.3	86.31
4806	-0.553	0.515	-0.478	8.12	76.72	87.78
4826	-0.526	0.555	-0.591	5.74	86.8	85.47
4846	-0.54	0.746	-0.565	4.55	97.3	82.25
4866	-0.605	0.663	-0.516	5.67	94.92	82.46
4886	-0.583	0.674	-0.54	4.69	92.96	83.51
4905	-0.573	0.675	-0.521	2.31	94.43	80.78
4923	-0.59	0.666	-0.502	-3.22	93.31	76.02
4943	-0.584	0.686	-0.491	-5.46	86.31	72.73
4967	-0.448	0.721	-0.602	-8.26	79.17	71.47
4985	-0.366	0.732	-0.63	-7.98	78.68	70.28
5008	-0.319	0.741	-0.65	-7.56	74.9	66.71
5028	-0.351	0.784	-0.568	-7.91	67.83	60.62
5048	-0.366	0.829	-0.691	-6.37	59.08	57.05
5067	-0.306	0.847	-0.742	-10.71	59.64	54.46
5091	-0.273	0.813	-0.749	-10.78	58.52	50.12
5111	-0.236	0.808	-0.699	-11.83	53.48	46.13
5129	-0.245	0.801	-0.656	-9.1	45.71	43.68
5149	-0.236	0.806	-0.668	-6.93	37.52	41.02
5172	-0.185	0.805	-0.737	-6.58	32.34	37.87
5195	-0.142	0.808	-0.7	-6.79	29.96	34.3
5212	-0.105	0.81	-0.69	-2.45	26.11	32.9
5236	-0.072	0.79	-0.775	-0.98	23.52	31.64
5255	-0.064	0.821	-0.653	-2.38	22.61	28.28
5278	-0.057	0.877	-0.819	-1.19	21.77	25.55
5298	-0.133	0.939	-0.663	-2.87	16.94	22.96
5318	-0.145	0.9	-0.731	-2.52	11.97	18.48
5341	-0.146	0.905	-0.729	-0.56	7.84	17.01
5365	-0.117	0.903	-0.794	0.56	7.42	13.44
5385	-0.095	0.929	-0.777	0.91	6.51	7.42
5403	-0.074	0.916	-0.796	1.33	4.13	2.45
5423	-0.044	0.925	-0.82	-0.21	3.08	-2.24
5448	-0.052	0.958	-0.823	-0.14	-0.77	-7.21
5466	-0.075	0.98	-0.834	0.07	-3.15	-10.29
5487	-0.102	0.976	-0.828	1.19	-9.03	-14.0
5504	-0.116	0.958	-0.818	3.43	-14.14	-18.41
5528	-0.136	0.957	-0.811	6.16	-21.35	-25.27
5546	-0.145	0.935	-0.782	6.16	-28.56	-31.78
5569	-0.154	0.939	-0.73	4.69	-34.93	-40.88
5585	-0.152	0.943	-0.733	4.69	-39.9	-46.83
5605	-0.163	0.926	-0.724	3.71	-45.64	-52.5
5624	-0.167	0.924	-0.715	2.87	-54.32	-61.25
5649	-0.224	0.904	-0.68	14.42	-67.41	-66.22
5668	-0.216	0.836	-0.721	20.37	-61.81	-77.07
5689	-0.266	0.81	-0.732	30.94	-59.85	-84.77
5705	-0.336	0.842	-0.691	22.61	-70.56	-84.42
5724	-0.323	0.781	-0.674	17.64	-74.34	-89.18
5748	-0.37	0.732	-0.661	10.5	-78.33	-101.08
5767	-0.305	0.717	-0.62	0.21	-64.68	-121.03
5791	-0.472	0.67	-0.593	18.27	-93.17	-98.56
5811	-0.477	0.552	-0.541	25.76	-99.33	-94.43
5827	-0.437	0.537	-0.522	15.47	-102.2	-92.47
5846	-0.529	0.517	-0.518	8.26	-102.62	-102.9
5866	-0.644	0.51	-0.471	1.26	-127.54	-87.92
5886	-0.64	0.552	-0.449	-6.37	-134.61	-83.44
5910	-0.596	0.489	-0.446	14.77	-104.93	-102.27
5930	-0.637	0.475	-0.419	9.73	-99.19	-107.24
5948	-0.644	0.404	-0.39	11.13	-98.77	-106.4
5972	-0.686	0.369	-0.386	10.01	-96.32	-106.47
5992	-0.725	0.38	-0.374	11.34	-94.01	-105.14
6011	-0.761	0.354	-0.309	11.62	-90.58	-104.16
6035	-0.786	0.317	-0.289	12.32	-89.46	-100.59
6055	-0.793	0.295	-0.25	17.01	-90.23	-95.34
6070	-0.816	0.221	-0.218	18.41	-88.34	-93.31
6093	-0.828	0.159	-0.193	20.02	-88.34	-90.79
6115	-0.797	0.123	-0.131	12.39	-83.86	-93.1
6139	-0.778	0.148	-0.171	20.93	-86.31	-82.18
6159	-0.773	0.124	-0.197	21.21	-80.29	-78.89
6177	-0.779	0.095	-0.2	19.04	-69.51	-72.17
6197	-0.835	0.076	-0.111	16.31	-61.18	-67.55
6221	-0.879	0.1	-0.083	11.55	-59.5	-62.02
6241	-0.93	0.065	-0.074	6.72	-55.93	-56.14
6265	-0.975	0.036	-0.09	-0.7	-52.64	-49.14
6284	-0.991	-0.001	-0.087	-2.87	-47.74	-42.35
6301	-0.966	-0.053	-0.072	-5.67	-42.63	-37.45
6320	-0.956	-0.07	-0.065	-3.43	-35.7	-32.2
6344	-0.954	-0.085	-0.014	-1.33	-28.7	-25.62
6366	-0.953	-0.099	0.017	2.45	-25.2	-18.55
6385	-0.935	-0.106	0.003	4.06	-21.28	-13.37
6404	-0.92	-0.113	0.017	5.04	-16.94	-9.17
6424	-0.895	-0.101	0.0	6.02	-11.2	-3.36
6447	-0.904	-0.117	0.003	6.58	-2.31	4.48
6465	-0.937	-0.134	0.048	6.23	3.08	10.92
6489	-0.969	-0.139	0.049	8.12	6.09	20.37
6508	-0.959	-0.133	0.012	7.77	13.72	27.86
6528	-0.97	-0.12	0.043	7.49	17.36	35.35
6548	-0.967	-0.084	0.046	8.47	22.54	43.12
6573	-0.98	-0.043	0.016	11.13	24.99	51.73
6590	-0.928	-0.039	-0.063	10.01	28.28	56.42
6613	-0.845	0.0	-0.03	11.2	42.98	62.86
6634	-0.865	0.019	-0.111	10.64	50.54	68.39
6654	-0.834	0.084	-0.104	9.8	63.28	71.82
6674	-0.937	-0.244	-0.046	45.08	-2.03	100.38
6695	-0.893	0.115	-0.06	123.06	55.51	54.25
6711	-0.921	0.206	-0.104	69.09	62.58	53.48
6730	-0.857	0.253	-0.131	53.2	71.61	53.06
6755	-0.738	0.312	-0.255	46.62	106.47	28.35
6774	-0.802	0.447	-0.258	18.55	114.52	44.73
6795	-0.469	0.382	-0.211	-129.15	97.79	76.93
6810	-1.257	0.035	-0.536	-551.25	-37.24	226.45
6834	-1.072	1.014	-0.098	14.42	120.82	105.84
6855	-0.706	0.258	-0.296	11.55	89.67	75.81
6879	-0.635	0.399	-0.321	11.97	94.57	74.55
6899	-0.698	0.39	-0.356	7.35	102.55	68.88
6919	-0.795	0.473	-0.299	3.99	101.5	67.9
6937	-0.73	0.528	-0.316	5.46	97.79	72.8
6957	-0.648	0.511	-0.381	4.83	97.79	76.16
6981	-0.601	0.478	-0.485	4.83	104.58	78.82
6999	-0.641	0.516	-0.398	-6.16	100.17	81.76
7021	-0.644	0.608	-0.42	-9.17	88.41	82.67
7040	-0.594	0.682	-0.464	-13.02	83.37	82.81
7061	-0.552	0.724	-0.705	-17.22	86.94	80.36
7081	-0.576	0.737	-0.54	-25.97	89.18	80.43
7101	-0.616	0.686	-0.477	-29.82	72.45	78.26
7125	-0.517	0.745	-0.664	-37.31	63.63	78.61
7144	-0.437	0.778	-0.813	-32.13	66.92	78.68
7169	-0.349	0.724	-0.789	-24.08	76.3	76.44
7187	-0.366	0.621	-0.627	-20.65	77.07	71.68
7210	-0.362	0.621	-0.655	-14.98	68.67	63.49
7231	-0.293	0.726	-0.684	-8.54	67.97	57.96
7255	-0.279	0.688	-0.708	-2.17	62.65	52.92
7275	-0.241	0.797	-0.711	-4.69	58.24	52.36
7294	-0.23	0.767	-0.653	1.4	55.3	47.18
7318	-0.192	0.806	-0.735	0.91	57.26	42.84
7336	-0.171	0.795	-0.691	4.48	51.45	41.09
7355	-0.17	0.789	-0.727	7.49	49.14	40.74
7379	-0.182	0.77	-0.712	6.72	45.92	40.88
7398	-0.174	0.812	-0.692	5.46	37.66	35.63
7418	-0.071	0.767	-0.829	10.22	37.38	29.4
7437	-0.077	0.832	-0.745	4.62	36.4	21.98
7462	-0.053	0.844	-0.807	5.46	32.41	16.52
7482	-0.043	0.85	-0.862	7.63	35.42	14.21
7502	-0.035	0.797	-0.853	12.25	32.27	11.41
7521	-0.034	0.813	-0.869	15.89	27.58	8.47
7545	-0.029	0.901	-0.951	17.99	23.94	6.16
7564	-0.061	0.922	-0.882	17.29	20.44	0.14
7584	-0.05	0.954	-0.915	16.45	7.42	-3.99
7605	-0.053	0.948	-0.917	11.41	2.31	-8.89
7625	-0.074	0.91	-0.873	9.03	-6.58	-18.27
7648	-0.105	0.915	-0.895	8.96	-17.15	-27.44
7669	-0.123	0.932	-0.883	9.66	-28.49	-34.86
7685	-0.12	0.929	-0.867	10.08	-37.24	-39.9
7704	-0.139	0.915	-0.838	8.89	-46.76	-46.41
7729	-0.12	0.952	-0.833	7.84	-55.65	-57.26
7750	-0.193	0.874	-0.782	7.14	-70.07	-57.54
7769	-0.186	0.816	-0.842	7.28	-76.37	-64.05
7789	-0.179	0.823	-0.807	7.49	-82.39	-70.14
7812	-0.2	0.815	-0.773	5.67	-88.55	-76.93
7832	-0.241	0.793	-0.748	4.9	-92.05	-83.23
7851	-0.261	0.725	-0.724	5.74	-94.5	-88.13
7874	-0.26	0.668	-0.626	6.93	-98.0	-90.23
7895	-0.339	0.626	-0.644	9.87	-104.16	-93.03
7915	-0.344	0.617	-0.65	5.18	-103.11	-96.6
7932	-0.383	0.602	-0.579	1.68	-103.46	-100.73
7956	-0.403	0.568	-0.555	2.45	-103.88	-102.9
7976	-0.464	0.504	-0.517	2.59	-99.96	-105.14
7996	-0.53	0.475	-0.471	2.03	-97.93	-107.59
8020	-0.556	0.476	-0.469	6.44	-105.14	-103.18
8039	-0.564	0.493	-0.483	6.44	-100.45	-102.55
8059	-0.596	0.496	-0.432	7.0	-97.51	-101.92
8083	-0.627	0.444	-0.413	8.82	-98.56	-98.07
8101	-0.667	0.403	-0.392	9.38	-98.63	-95.9
8124	-0.705	0.372	-0.414	9.87	-95.2	-95.62
8145	-0.753	0.362	-0.353	9.87	-92.4	-91.91
8165	-0.805	0.304	-0.349	9.38	-89.11	-91.56
8181	-0.818	0.303	-0.277	8.4	-88.76	-87.22
8204	-0.832	0.271	-0.198	10.85	-88.76	-84.84
8224	-0.843	0.262	-0.18	12.25	-94.15	-81.41
8243	-0.824	0.237	-0.221	10.22	-91.91	-77.63
8268	-0.782	0.238	-0.211	7.56	-84.21	-70.84
8288	-0.748	0.176	-0.199	5.88	-77.14	-66.36
8307	-0.73	0.114	-0.169	3.22	-68.81	-62.51
8326	-0.776	0.057	-0.159	3.22	-58.59	-57.61
8346	-0.857	0.131	-0.102	-5.32	-54.25	-49.28
8370	-0.932	-0.034	-0.101	-1.05	-50.89	-45.99
8388	-0.99	-0.019	-0.095	-6.72	-48.3	-41.09
8408	-0.971	-0.006	-0.113	-10.57	-42.7	-34.37
8430	-0.953	-0.029	-0.087	-7.07	-36.33	-26.04
8450	-0.96	-0.057	-0.045	-6.72	-34.51	-18.69
8471	-0.945	-0.074	-0.07	-6.37	-31.99	-12.95
8490	-0.939	-0.058	-0.052	-2.31	-20.09	-8.33
8514	-0.936	-0.066	-0.08	-1.89	-11.13	-0.7
8532	-0.912	-0.065	-0.046	-2.59	-0.35	5.04
8557	-0.921	-0.061	-0.01	-2.38	6.44	12.53
8576	-0.948	-0.07	0.018	0.0	9.1	17.08
8596	-0.957	-0.074	-0.01	1.19	12.39	22.47
8621	-0.976	-0.088	-0.009	3.43	16.66	28.63
8640	-0.97	-0.055	-0.015	5.04	20.02	34.3
8658	-0.984	-0.029	-0.008	7.21	22.47	39.48
8681	-0.969	-0.01	-0.059	9.94	24.01	46.9
8698	-0.93	-0.015	-0.07	10.15	30.24	53.13
8718	-0.928	0.012	-0.058	10.15	36.54	59.85
8742	-0.935	0.059	-0.077	10.08	42.63	67.34
8760	-0.914	0.115	-0.074	10.5	47.67	72.8
8782	-0.866	0.163	-0.123	12.95	52.64	80.29
8798	-0.817	0.184	-0.143	15.05	58.73	85.12
8818	-0.771	0.24	-0.139	18.27	60.06	94.01
8842	-0.705	0.272	-0.188	22.75	56.49	101.85
8861	-0.678	0.299	-0.252	29.05	61.88	104.02
8879	-0.694	0.316	-0.175	31.71	66.01	104.23
8903	-0.74	0.219	-0.2	39.2	52.92	99.61
8926	-0.697	0.298	-0.333	43.33	51.8	95.13
8948	-0.658	0.367	-0.407	28.56	72.59	85.96
8965	-0.664	0.459	-0.354	20.23	80.36	82.32
8984	-0.681	0.497	-0.344	16.87	84.42	79.24
9009	-0.654	0.549	-0.418	22.68	82.6	79.59
9027	-0.596	0.581	-0.438	23.87	92.12	81.41
9047	-0.589	0.607	-0.363	20.93	103.88	80.5
9068	-0.608	0.586	-0.407	16.31	99.19	82.6
9089	-0.557	0.622	-0.416	9.45	96.11	82.6
9113	-0.537	0.702	-0.569	2.8	96.25	79.66
9137	-0.59	0.745	-0.504	-3.92	98.7	77.07
9155	-0.533	0.748	-0.573	-8.75	94.43	75.46
9176	-0.428	0.671	-0.643	-17.08	99.19	71.33
9197	-0.39	0.65	-0.63	-17.57	100.17	68.39
9221	-0.418	0.713	-0.64	-14.77	96.67	66.29
9241	-0.41	0.778	-0.601	-14.21	86.94	62.79
9261	-0.345	0.817	-0.753	-12.32	84.21	59.15
9281	-0.307	0.783	-0.809	-7.49	89.6	53.97
9299	-0.263	0.74	-0.732	-2.1	89.39	49.0
9323	-0.236	0.732	-0.642	1.33	82.32	44.87
9343	-0.222	0.746	-0.711	3.78	72.52	38.85
9363	-0.193	0.801	-0.775	5.39	65.45	35.21
9381	-0.118	0.851	-0.818	8.96	59.85	33.04
9405	-0.116	0.799	-0.823	11.2	54.04	29.12
9420	-0.158	0.853	-0.805	9.52	49.63	24.99
9445	-0.181	0.863	-0.682	14.63	28.84	27.44
9465	-0.115	0.875	-0.938	7.63	31.43	12.81
9482	-0.121	0.849	-0.874	9.03	31.99	10.99
9503	-0.114	0.93	-0.894	13.09	26.18	8.05
9520	-0.108	0.962	-0.929	9.24	32.27	3.99
9545	-0.108	0.954	-0.933	2.31	28.14	-0.84
9567	-0.127	0.933	-0.861	4.41	10.01	-9.52
9590	-0.086	0.906	-0.976	2.24	7.7	-12.46
9610	-0.078	0.855	-0.882	-1.26	1.75	-14.7
9634	-0.087	0.87	-0.84	-1.12	-10.64	-22.47
9654	-0.109	0.897	-0.847	2.59	-25.2	-27.51
9669	-0.246	0.909	-0.866	6.16	-39.41	-39.62
9694	-0.09	0.823	-0.887	4.41	-37.31	-45.15
9714	-0.155	0.818	-0.787	9.03	-47.67	-50.19
9733	-0.196	0.852	-0.788	13.09	-58.52	-56.63
9759	-0.227	0.868	-0.756	11.76	-69.58	-61.88
9777	-0.263	0.848	-0.768	9.31	-76.3	-65.52
9797	-0.312	0.797	-0.756	7.42	-83.02	-70.0
9818	-0.338	0.768	-0.751	7.35	-89.88	-75.88
9835	-0.36	0.772	-0.735	6.44	-93.8	-81.34
9854	-0.37	0.777	-0.706	6.16	-101.08	-82.74
9878	-0.395	0.745	-0.691	1.61	-103.25	-87.29
9899	-0.43	0.725	-0.653	-3.15	-104.23	-91.07
9917	-0.484	0.701	-0.603	-4.41	-104.65	-94.43
9941	-0.519	0.624	-0.521	-6.51	-109.55	-96.46
9961	-0.546	0.575	-0.502	-8.26	-112.0	-97.09
9980	-0.57	0.521	-0.491	-11.34	-111.02	-99.12
9998	-0.564	0.555	-0.471	-13.79	-112.63	-97.51
10017	-0.556	0.492	-0.457	-14.42	-109.69	-96.67
10042	-0.608	0.43	-0.369	-17.92	-103.67	-96.88
10059	-0.667	0.357	-0.387	-16.94	-103.67	-95.76
10079	-0.658	0.36	-0.387	-20.44	-96.46	-94.01
10099	-0.705	0.379	-0.346	-18.2	-91.98	-92.26
10122	-0.712	0.375	-0.352	-14.14	-87.43	-89.81
10143	-0.673	0.34	-0.252	-16.31	-82.67	-84.07
10166	-0.682	0.28	-0.243	-16.17	-77.35	-80.08
10184	-0.699	0.265	-0.191	-15.4	-74.2	-75.53
10203	-0.732	0.271	-0.189	-10.5	-73.08	-73.78
10227	-0.728	0.243	-0.234	-6.09	-68.46	-70.77
10248	-0.719	0.155	-0.223	-4.55	-58.87	-67.62
10270	-0.735	0.127	-0.182	-0.7	-52.71	-61.67
10294	-0.768	0.126	-0.166	2.73	-43.68	-55.23
10314	-0.83	0.141	-0.163	5.46	-37.8	-49.21
10332	-0.864	0.13	-0.194	5.32	-30.73	-43.54
10352	-0.893	0.095	-0.155	3.15	-20.79	-39.41
10375	-0.946	0.078	-0.1	2.59	-15.26	-33.81
10397	-0.976	0.059	-0.076	0.07	-10.01	-27.16
10413	-0.994	0.088	-0.035	-1.12	-9.87	-21.56
10437	-1.011	0.118	-0.045	-1.33	-12.67	-12.11
10457	-0.977	0.09	-0.075	0.7	-8.05	-4.41
10476	-0.955	0.027	-0.078	3.5	-3.71	2.94
10495	-0.956	0.01	-0.083	5.11	-0.49	9.59
10519	-0.927	0.021	-0.099	3.99	8.96	15.19
10535	-0.944	0.028	-0.068	2.73	13.93	18.41
10558	-0.971	0.049	-0.061	2.8	17.15	24.43
10578	-0.973	0.078	-0.061	2.66	20.51	31.22
10596	-0.957	0.124	-0.079	3.92	23.45	37.8
10616	-0.932	0.135	-0.122	5.39	25.69	48.16
10640	-0.879	0.115	-0.157	9.1	37.38	59.5
10660	-0.845	0.132	-0.161	8.96	49.35	67.13
10681	-0.825	0.155	-0.19	5.74	59.78	75.81
10699	-0.815	0.192	-0.148	3.08	64.12	80.36
10718	-0.785	0.235	-0.166	4.69	63.7	85.89
10742	-0.751	0.254	-0.244	5.81	67.34	92.33
10762	-0.703	0.308	-0.285	7.21	77.21	97.3
10777	-0.706	0.326	-0.275	9.94	82.74	99.75
10801	-0.689	0.355	-0.267	14.14	89.39	101.92
10822	-0.662	0.329	-0.325	16.52	92.12	102.62
10841	-0.607	0.329	-0.408	13.02	95.62	100.31
10865	-0.602	0.394	-0.428	14.0	101.43	95.13
10885	-0.609	0.495	-0.366	14.42	104.51	90.37
10902	-0.574	0.543	-0.42	14.7	98.56	87.71
10921	-0.485	0.555	-0.561	11.55	100.8	84.07
10946	-0.449	0.563	-0.602	13.86	110.25	79.52
10966	-0.5	0.638	-0.445	15.12	115.92	78.26
10990	-0.544	0.671	-0.427	16.52	103.67	80.08
11009	-0.439	0.67	-0.568	17.22	92.05	81.27
11031	-0.335	0.671	-0.741	16.73	93.66	77.63
11050	-0.314	0.676	-0.763	13.44	100.31	70.84
11068	-0.442	0.788	-0.647	11.97	98.7	61.95
11090	-0.431	0.889	-0.623	12.95	87.15	62.16
11111	-0.325	0.819	-0.704	8.47	82.53	65.03
11128	-0.253	0.758	-0.772	3.92	81.27	63.84
11151	-0.212	0.763	-0.798	2.24	76.79	56.63
11175	-0.228	0.796	-0.768	1.61	67.48	47.39
11195	-0.219	0.712	-0.714	0.63	60.2	39.41
11217	-0.153	0.688	-0.826	0.35	59.78	32.34
11236	-0.078	0.717	-0.809	1.96	58.59	27.93
11260	-0.051	0.73	-0.784	5.88	55.44	23.1
11275	-0.078	0.802	-0.753	5.04	48.02	21.14
11299	-0.091	0.844	-0.775	1.12	40.88	17.71
11320	-0.073	0.85	-0.84	5.39	34.09	17.43
11340	-0.015	0.822	-0.899	9.45	34.72	17.15
11363	-0.003	0.81	-0.881	9.8	31.99	14.7
11381	-0.014	0.819	-0.877	6.23	28.35	10.15
11405	-0.021	0.874	-0.847	0.63	21.63	5.88
11425	-0.032	0.89	-0.928	-0.42	13.51	2.73
11445	-0.003	0.864	-0.967	-1.4	10.08	-0.77
11469	-0.008	0.883	-0.955	-3.15	3.71	-5.6
11489	-0.018	0.917	-0.963	-3.08	-3.78	-11.27
11509	-0.021	0.92	-0.92	-3.64	-8.82	-16.66
11526	-0.035	0.915	-0.874	-2.24	-20.16	-20.02
11549	-0.051	0.865	-0.895	-1.96	-31.01	-24.99
11570	-0.069	0.814	-0.887	1.47	-41.58	-32.13
11589	-0.107	0.832	-0.855	2.17	-51.52	-39.55
11614	-0.136	0.861	-0.813	2.8	-63.35	-48.86
11634	-0.16	0.863	-0.798	2.31	-71.89	-53.83
11654	-0.175	0.812	-0.8	0.7	-78.47	-58.24
11674	-0.2	0.785	-0.788	1.33	-87.78	-63.84
11690	-0.251	0.773	-0.824	2.73	-95.34	-68.74
11714	-0.242	0.756	-0.794	1.47	-96.74	-77.07
11734	-0.298	0.762	-0.72	2.59	-101.43	-82.11
11753	-0.344	0.723	-0.67	-0.49	-102.69	-86.1
11773	-0.396	0.691	-0.626	-3.22	-106.54	-89.6
11794	-0.431	0.657	-0.628	-2.73	-109.69	-90.09
11817	-0.472	0.616	-0.6	-4.06	-108.43	-94.08
11837	-0.516	0.596	-0.551	-4.62	-106.75	-98.0
11861	-0.534	0.564	-0.489	-2.38	-111.23	-97.02
11880	-0.565	0.565	-0.483	-0.56	-112.49	-96.74
11899	-0.584	0.544	-0.49	0.91	-112.63	-95.83
11920	-0.599	0.506	-0.485	-0.49	-110.67	-94.92
11938	-0.608	0.485	-0.455	-0.35	-108.22	-94.08
11961	-0.625	0.429	-0.433	-2.17	-104.3	-95.2
11981	-0.656	0.406	-0.407	0.21	-101.85	-94.71
12001	-0.712	0.369	-0.394	3.22	-99.33	-94.15
12021	-0.87	0.322	-0.361	6.51	-97.3	-92.54
12042	-0.768	0.293	-0.304	7.49	-94.85	-91.7
12066	-0.768	0.226	-0.255	11.97	-93.66	-89.53
12085	-0.796	0.164	-0.232	15.68	-90.65	-90.37
12103	-0.795	0.172	-0.186	17.29	-89.25	-88.06
12125	-0.813	0.155	-0.184	19.67	-87.85	-86.8
12144	-0.803	0.131	-0.233	31.64	-83.86	-84.07
12167	-0.769	0.144	-0.199	22.33	-81.27	-53.97
12186	-0.79	0.112	-0.189	20.65	-72.31	-68.11
12205	-0.803	0.089	-0.18	19.46	-63.28	-63.42
12224	-0.833	0.039	-0.162	17.71	-55.44	-59.71
12248	-0.865	0.008	-0.114	16.87	-47.04	-54.53
12270	-0.927	0.013	-0.083	12.46	-42.21	-47.46
12289	-0.955	-0.011	-0.086	8.61	-40.04	-43.89
12308	-0.949	-0.01	-0.089	7.42	-37.24	-38.57
12333	-0.953	-0.038	-0.029	3.5	-32.9	-29.47
12353	-0.959	-0.088	-0.001	-0.77	-29.33	-24.78
12373	-0.986	-0.058	-0.014	4.13	-26.74	-15.96
12396	-0.989	-0.02	-0.062	5.39	-16.1	-8.05
12417	-0.946	-0.053	-0.036	0.0	-2.52	0.63
12437	-0.948	-0.07	0.037	-0.77	1.47	7.56
12456	-0.972	-0.075	0.048	0.49	2.17	13.02
12476	-0.996	-0.063	0.065	2.8	5.39	19.74
12500	-1.025	-0.058	0.079	5.25	3.43	28.7
12518	-1.012	-0.068	0.044	6.51	-0.91	34.65
12540	-0.933	-0.049	0.013	11.34	11.27	41.16
12559	-0.931	-0.039	-0.033	11.34	16.1	47.6
12579	-0.899	-0.011	-0.035	9.87	28.21	52.43
12599	-0.9	0.03	-0.016	11.2	33.39	57.4
12623	-0.869	0.058	-0.065	11.48	43.26	66.29
12639	-0.846	0.095	-0.109	11.2	56.77	72.03
12664	-0.833	0.128	-0.125	11.9	68.39	79.94
12683	-0.799	0.155	-0.143	12.67	76.58	85.12
12703	-0.625	0.183	-0.161	13.09	83.09	89.46
12723	-0.711	0.22	-0.155	11.9	84.28	91.28
12741	-0.707	0.264	-0.182	16.31	81.69	92.12
12765	-0.718	0.373	-0.272	25.2	85.4	93.24
12783	-0.722	0.389	-0.305	26.67	91.0	99.19
12803	-0.676	0.37	-0.329	26.46	93.17	102.34
12827	-0.623	0.365	-0.409	27.3	96.11	101.22
12845	-0.589	0.382	-0.453	27.72	104.58	98.49
12868	-0.621	0.407	-0.452	24.43	114.94	89.32
12889	-0.617	0.487	-0.42	17.43	121.38	86.1
12908	-0.595	0.484	-0.478	16.52	122.57	79.8
12928	-0.547	0.522	-0.588	23.38	127.12	76.44
12948	-0.564	0.566	-0.474	20.37	136.64	74.41
12972	-0.603	0.62	-0.502	20.44	127.68	73.57
12992	-0.544	0.67	-0.666	18.27	124.32	73.64
13011	-0.517	0.689	-0.684	17.99	125.79	71.26
13031	-0.602	0.729	-0.587	6.58	122.01	63.0
13055	-0.625	0.869	-0.612	-1.12	104.93	61.39
13076	-0.489	0.903	-0.8	-9.31	101.15	63.77
13095	-0.383	0.796	-0.88	-12.46	106.61	60.69
13115	-0.294	0.629	-0.781	-9.73	101.99	57.47
13137	-0.214	0.641	-0.756	-14.35	99.05	50.68
13161	-0.246	0.709	-0.738	-15.75	91.28	46.76
13180	-0.266	0.696	-0.782	-13.79	85.54	43.4
13200	-0.231	0.612	-0.783	-10.43	81.9	39.34
13219	-0.185	0.629	-0.795	-4.97	74.97	32.9
13242	-0.116	0.702	-0.859	2.52	70.21	30.24
13264	-0.029	0.731	-0.858	7.91	65.03	27.58
13283	-0.035	0.718	-0.841	6.79	61.32	25.2
13303	-0.05	0.626	-0.843	3.36	57.82	20.3
13323	-0.073	0.777	-0.811	3.22	51.38	16.38
13347	-0.054	0.758	-0.83	6.51	37.52	12.25
13367	0.002	0.726	-0.891	7.42	33.53	5.04
13387	0.039	0.786	-0.923	8.05	26.39	2.45
13407	0.07	0.831	-0.979	7.91	22.89	-0.35
13431	0.055	0.878	-0.992	7.91	18.62	-4.9
13450	0.033	0.845	-0.989	5.88	12.32	-9.73
13470	0.003	0.829	-0.96	4.27	1.19	-14.91
13490	-0.013	0.817	-0.918	-0.91	-9.24	-19.88
13514	-0.037	0.845	-0.924	-5.6	-27.3	-25.76
13531	-0.049	0.856	-0.971	-5.46	-38.36	-30.24
13555	-0.071	0.849	-0.974	-3.5	-50.54	-38.43
13575	-0.094	0.836	-0.967	-1.33	-58.59	-47.39
13594	-0.118	0.841	-0.914	0.56	-67.97	-54.18
13614	-0.171	0.825	-0.86	2.31	-80.99	-60.27
13634	-0.209	0.814	-0.854	2.66	-94.01	-66.15
13654	-0.234	0.801	-0.853	2.87	-100.52	-73.99
13671	-0.268	0.739	-0.827	4.55	-108.15	-77.91
13695	-0.288	0.696	-0.794	6.3	-115.78	-84.77
13715	-0.344	0.616	-0.765	3.92	-114.73	-94.71
13734	-0.415	0.59	-0.645	6.3	-117.81	-99.68
13758	-0.465	0.534	-0.613	10.5	-125.86	-102.2
13777	-0.48	0.509	-0.607	7.7	-119.84	-105.21
13800	-0.511	0.514	-0.592	7.21	-117.18	-105.14
13821	-0.552	0.49	-0.647	7.35	-117.88	-103.32
13840	-0.535	0.438	-0.565	9.24	-107.17	-105.35
13860	-0.567	0.441	-0.557	8.12	-104.79	-104.51
13884	-0.599	0.408	-0.533	6.51	-102.55	-100.8
13902	-0.627	0.415	-0.485	5.74	-101.99	-97.79
13922	-0.658	0.413	-0.49	8.82	-100.03	-94.99
13946	-0.693	0.373	-0.459	9.31	-93.31	-94.5
13966	-0.699	0.372	-0.414	9.73	-95.34	-87.22
13985	-0.712	0.288	-0.427	8.47	-93.8	-84.21
14009	-0.732	0.243	-0.369	8.96	-91.84	-83.02
14028	-0.745	0.245	-0.366	11.06	-88.69	-81.13
14047	-0.743	0.263	-0.352	9.66	-82.25	-74.34
14071	-0.733	0.181	-0.325	8.75	-79.03	-68.6
14091	-0.72	0.128	-0.339	8.05	-73.08	-67.06
14115	-0.714	0.124	-0.299	8.12	-62.51	-63.35
14131	-0.773	0.11	-0.265	8.82	-54.81	-59.71
14156	-0.822	0.108	-0.256	3.78	-48.93	-48.65
14174	-0.83	0.077	-0.248	10.15	-47.67	-44.52
14195	-0.828	0.043	-0.265	8.05	-40.46	-39.76
14214	-0.83	0.023	-0.247	9.03	-33.53	-35.35
14238	-0.855	0.003	-0.231	14.14	-29.33	-27.16
14258	-0.865	-0.002	-0.246	15.75	-19.74	-21.49
14276	-0.907	0.005	-0.189	7.0	-10.5	-16.87
14298	-0.939	0.039	-0.151	7.7	-8.61	-11.76
14318	-0.967	0.032	-0.175	4.55	-9.31	-6.09
14342	-0.97	-0.004	-0.21	1.75	-2.17	2.24
14361	-0.993	-0.035	-0.175	-2.45	2.45	7.63
14379	-0.978	-0.041	-0.166	-5.81	7.49	12.46
14398	-0.974	-0.009	-0.126	-7.84	11.13	18.06
14418	-0.969	0.009	-0.17	-8.61	10.57	25.69
14444	-0.925	-0.005	-0.206	-13.23	14.42	34.44
14461	-0.875	0.006	-0.166	-15.26	22.75	39.06
14483	-0.89	0.045	-0.175	-17.36	22.05	47.81
14503	-0.856	0.083	-0.2	-20.93	28.98	55.51
14523	-0.862	0.112	-0.184	-18.9	32.62	63.42
14543	-0.832	0.15	-0.233	-18.48	39.13	74.69
14563	-0.814	0.192	-0.237	-22.96	45.08	85.05
14584	-0.798	0.209	-0.232	-27.23	47.95	92.4
14607	-0.782	0.254	-0.245	-27.3	47.88	99.82
14627	-0.753	0.248	-0.301	-20.44	51.94	105.49
14647	-0.753	0.278	-0.325	-10.15	59.08	109.06
14671	-0.712	0.322	-0.354	-8.12	61.81	111.16
14691	-0.593	0.28	-0.42	-3.64	72.66	108.92
14710	-0.57	0.311	-0.386	-0.98	77.7	107.87
14730	-0.582	0.334	-0.446	1.75	85.68	101.5
14752	-0.6	0.465	-0.395	2.1	92.96	94.43
14770	-0.587	0.531	-0.405	4.06	91.14	93.17
14794	-0.581	0.513	-0.448	7.7	90.58	90.86
14813	-0.613	0.481	-0.484	14.35	88.2	86.59
14831	-0.63	0.573	-0.417	19.32	84.0	86.45
14851	-0.623	0.627	-0.438	19.39	79.31	84.7
14876	-0.527	0.663	-0.56	17.01	78.61	80.78
14895	-0.469	0.707	-0.573	15.75	80.43	80.92
14913	-0.483	0.704	-0.523	11.69	73.15	82.04
14933	-0.499	0.75	-0.561	11.13	68.32	77.91
14953	-0.517	0.791	-0.549	3.57	61.18	73.71
14975	-0.427	0.776	-0.666	-4.27	56.91	69.58
14997	-0.348	0.779	-0.693	-5.81	61.11	66.85
15017	-0.3	0.716	-0.689	-5.18	60.97	64.12
15041	-0.297	0.759	-0.545	-6.3	54.04	61.25
15061	-0.315	0.805	-0.678	-8.12	47.11	62.86
15080	-0.3	0.877	-0.676	-10.64	41.44	63.77
15098	-0.285	0.878	-0.775	-7.21	35.35	61.32
15121	-0.238	0.806	-0.808	-3.5	42.35	52.36
15144	-0.199	0.835	-0.751	1.96	39.9	45.36
15163	-0.176	0.847	-0.741	4.34	37.38	40.6
15187	-0.182	0.817	-0.744	11.83	28.77	36.89
15208	-0.138	0.829	-0.807	15.89	24.64	32.41
15231	-0.116	0.837	-0.846	16.8	24.92	23.66
15252	-0.104	0.891	-0.839	16.8	25.97	16.8
15272	-0.119	0.914	-0.838	15.68	22.26	12.53
15291	-0.144	0.955	-0.851	10.78	19.39	9.73
15308	-0.18	0.97	-0.87	10.15	14.0	5.18
15331	-0.183	0.988	-0.867	5.88	9.24	-2.38
15350	-0.176	0.996	-0.822	-0.56	1.61	-8.4
15368	-0.159	0.968	-0.823	-5.53	-8.05	-12.18
15392	-0.113	0.932	-0.87	-7.77	-16.94	-19.46
15412	-0.091	0.9	-0.878	-4.69	-21.91	-25.76
15432	-0.116	0.902	-0.82	-2.31	-28.35	-32.2
15449	-0.151	0.935	-0.783	-0.7	-36.33	-38.01
15473	-0.194	0.95	-0.791	-0.91	-45.71	-45.22
15493	-0.22	0.917	-0.793	-1.82	-53.48	-51.94
15514	-0.26	0.861	-0.76	-3.64	-60.06	-59.92
15533	-0.307	0.819	-0.72	-2.94	-68.25	-67.13
15551	-0.312	0.849	-0.714	-2.59	-78.54	-71.54
15570	-0.294	0.844	-0.674	-7.0	-79.38	-77.35
15595	-0.332	0.842	-0.692	-6.02	-86.8	-82.95
15614	-0.344	0.78	-0.661	-10.01	-85.26	-87.64
15630	-0.389	0.728	-0.583	-10.64	-87.92	-90.93
15654	-0.435	0.684	-0.548	-7.91	-90.79	-95.69
15673	-0.481	0.626	-0.513	-5.67	-90.51	-100.8
15693	-0.496	0.612	-0.488	-1.4	-94.29	-100.31
15717	-0.519	0.572	-0.52	0.91	-93.87	-102.41
15732	-0.535	0.573	-0.481	2.17	-91.98	-103.95
15757	-0.554	0.56	-0.44	3.01	-90.51	-105.35
15777	-0.572	0.545	-0.409	0.98	-90.02	-104.58
15797	-0.617	0.475	-0.434	4.69	-88.27	-106.19
15817	-0.63	0.498	-0.412	2.94	-85.4	-103.95
15841	-0.661	0.506	-0.385	0.21	-78.54	-102.55
15860	-0.704	0.455	-0.378	2.24	-75.32	-102.48
15884	-0.733	0.47	-0.33	2.45	-72.94	-99.19
15903	-0.817	0.408	-0.325	2.45	-67.62	-100.87
15922	-0.878	0.254	-0.244	0.14	-67.9	-99.26
15943	-0.83	0.296	-0.279	3.36	-76.58	-85.05
15967	-0.813	0.282	-0.236	-2.87	-72.59	-83.23
15988	-0.804	0.277	-0.208	-4.34	-73.78	-82.46
16006	-0.789	0.281	-0.209	-4.62	-72.38	-79.1
16026	-0.771	0.238	-0.205	-3.57	-70.63	-73.22
16050	-0.745	0.192	-0.247	-2.31	-62.65	-66.01
16070	-0.756	0.142	-0.193	-5.04	-54.74	-63.14
16088	-0.798	0.117	-0.178	-5.04	-50.61	-61.04
16107	-0.829	0.093	-0.161	-2.03	-43.61	-58.66
16127	-0.84	0.051	-0.163	-0.28	-18.41	-52.85
16147	-0.859	0.004	-0.161	0.84	-31.99	-48.44
16167	-0.874	-0.025	-0.108	3.22	-21.0	-46.41
16192	-0.893	-0.038	-0.118	1.19	-16.17	-43.19
16211	-0.945	-0.007	-0.04	-1.19	-10.5	-39.2
16231	-1.01	-0.011	-0.024	-5.39	-13.23	-33.74
16251	-1.004	0.013	-0.073	-1.68	-14.42	-26.18
16272	-0.992	-0.015	-0.129	-1.96	-13.44	-17.78
16297	-0.965	-0.09	-0.137	-3.64	-3.64	-6.72
16316	-0.965	-0.106	-0.104	-4.06	-0.63	0.0
16336	-0.96	-0.109	-0.09	-4.34	5.04	4.62
16351	-0.956	-0.121	-0.077	-4.97	9.17	8.26
16372	-0.965	-0.147	-0.048	-4.13	9.52	12.18
16397	-0.971	-0.134	-0.082	0.42	10.08	17.29
16416	-0.97	-0.098	-0.076	-1.12	11.41	22.75
16436	-0.949	-0.05	-0.092	0.56	13.51	27.65
16455	-0.944	-0.028	-0.106	3.43	16.1	33.11
16475	-0.939	-0.033	-0.121	5.74	20.3	40.11
16496	-0.945	-0.018	-0.127	7.49	25.06	46.62
16516	-0.932	0.026	-0.117	4.13	29.68	51.45
16536	-0.912	0.097	-0.142	3.64	31.43	56.56
16555	-0.889	0.122	-0.177	3.22	35.91	62.79
16574	-0.86	0.132	-0.208	2.73	40.81	69.23
16596	-0.839	0.156	-0.224	0.14	46.97	75.95
16617	-0.835	0.186	-0.191	-2.59	51.52	80.64
16636	-0.844	0.232	-0.203	0.28	44.73	85.61
16661	-0.821	0.259	-0.253	4.55	48.72	91.84
16680	-0.843	0.277	-0.212	11.41	52.01	96.6
16698	-0.835	0.27	-0.2	19.25	49.14	102.48
16719	-0.772	0.209	-0.243	25.69	42.21	104.44
16743	-0.663	0.308	-0.363	29.61	45.71	98.35
16767	-0.583	0.344	-0.471	26.04	57.47	91.07
16788	-0.579	0.479	-0.367	23.66	79.8	86.8
16806	-0.641	0.537	-0.325	27.37	88.62	86.52
16824	-0.706	0.47	-0.298	31.92	87.15	89.81
16846	-0.666	0.487	-0.407	35.84	87.64	88.69
16871	-0.59	0.548	-0.43	34.44	97.02	85.33
16888	-0.548	0.53	-0.452	33.39	101.22	81.76
16912	-0.536	0.52	-0.506	34.23	95.76	75.95
16932	-0.467	0.515	-0.536	34.16	96.25	72.87
16952	-0.518	0.648	-0.554	34.3	100.24	70.42
16971	-0.519	0.753	-0.61	32.34	103.18	70.42
16992	-0.447	0.697	-0.66	26.6	103.67	71.26
17012	-0.408	0.642	-0.768	24.29	103.04	65.03
17035	-0.414	0.658	-0.712	18.2	102.83	56.77
17054	-0.432	0.784	-0.67	15.12	96.04	54.67
17074	-0.392	0.79	-0.719	10.71	95.13	55.37
17098	-0.332	0.642	-0.803	11.76	96.32	50.19
17116	-0.264	0.59	-0.81	10.85	93.66	43.75
17140	-0.244	0.657	-0.734	7.63	83.79	35.77
17159	-0.24	0.729	-0.741	4.62	77.35	31.01
17175	-0.22	0.727	-0.818	7.14	74.48	27.16
17201	-0.161	0.668	-0.873	13.93	73.92	23.38
17220	-0.102	0.634	-0.814	8.89	73.08	20.65
17241	-0.096	0.669	-0.774	-0.35	61.39	17.64
17260	-0.116	0.764	-0.904	1.05	51.87	15.89
17279	-0.102	0.814	-0.863	-0.35	49.35	15.54
17299	-0.082	0.794	-1.0	0.07	47.11	14.14
17319	-0.022	0.793	-0.967	-0.63	45.15	12.32
17344	-0.013	0.834	-0.943	1.26	33.67	12.18
17361	-0.03	0.8	-0.994	0.98	28.56	7.98
17384	-0.063	0.755	-0.984	3.43	23.52	-17.92
17403	-0.081	0.736	-0.971	5.11	16.1	-6.86
17426	-0.087	0.796	-0.983	5.04	4.13	-10.85
17447	-0.059	0.834	-0.995	4.97	-7.77	-14.07
17466	-0.023	0.811	-0.988	3.78	-18.13	-17.71
17490	-0.002	0.81	-0.987	1.75	-25.2	-22.33
17508	-0.03	0.832	-0.957	-0.35	-35.07	-25.76
17528	-0.066	0.818	-0.927	-1.47	-44.73	-29.75
17548	-0.122	0.783	-0.903	-0.98	-55.58	-33.81
17568	-0.161	0.756	-0.902	-0.63	-65.31	-39.13
17592	-0.174	0.771	-0.867	-2.8	-74.62	-46.27
17611	-0.211	0.773	-0.879	-5.6	-81.97	-52.08
17630	-0.231	0.734	-0.882	-8.05	-89.81	-56.63
17649	-0.249	0.705	-0.854	-9.73	-93.8	-61.74
17672	-0.279	0.685	-0.841	-9.38	-99.12	-67.55
17693	-0.318	0.652	-0.788	-9.24	-100.31	-73.71
17716	-0.357	0.615	-0.721	-7.28	-104.09	-80.01
17741	-0.384	0.584	-0.676	-8.12	-105.91	-84.7
17760	-0.451	0.543	-0.63	-8.47	-105.14	-88.69
17778	-0.502	0.526	-0.598	-5.32	-107.31	-90.65
17797	-0.528	0.477	-0.621	-1.4	-110.67	-91.07
17823	-0.516	0.445	-0.576	1.75	-104.44	-94.57
17840	-0.559	0.427	-0.591	4.2	-102.69	-96.88
17863	-0.572	0.393	-0.569	6.09	-100.38	-96.32
17882	-0.627	0.383	-0.497	4.55	-99.54	-96.6
17902	-0.683	0.342	-0.486	4.97	-98.63	-98.84
17922	-0.73	0.374	-0.469	8.89	-100.87	-96.04
17946	-0.747	0.378	-0.433	9.24	-96.74	-94.64
17964	-0.757	0.314	-0.364	11.41	-97.79	-92.75
17988	-0.796	0.286	-0.364	14.07	-96.25	-91.0
18005	-0.791	0.231	-0.356	11.83	-94.64	-88.62
18023	-0.783	0.22	-0.355	8.4	-90.86	-88.27
18048	-0.788	0.226	-0.341	10.5	-86.45	-85.33
18068	-0.82	0.176	-0.314	15.75	-91.0	-74.13
18083	-0.859	0.206	-0.326	12.32	-86.94	-73.15
18107	-0.864	0.187	-0.274	8.26	-81.55	-69.65
18128	-0.837	0.128	-0.267	9.8	-80.5	-68.04
18147	-0.823	0.099	-0.277	9.03	-74.13	-64.19
18171	-0.833	0.061	-0.213	8.4	-69.23	-60.76
18191	-0.82	0.025	-0.234	7.49	-62.3	-60.41
18211	-0.81	0.045	-0.194	7.0	-56.21	-55.37
18227	-0.828	0.016	-0.177	9.1	-51.94	-51.38
18250	-0.832	-0.018	-0.144	13.51	-49.28	-46.62
18271	-0.798	-0.037	-0.168	17.92	-41.58	-43.26
18295	-0.802	-0.056	-0.097	10.99	-27.37	-38.71
18315	-0.86	-0.093	-0.025	10.5	-25.9	-34.93
18339	-0.927	-0.053	-0.074	13.02	-19.04	-29.75
18357	-0.943	-0.025	-0.129	14.63	-9.45	-24.99
18380	-0.979	-0.053	-0.095	9.87	5.04	-19.81
18401	-1.038	-0.072	-0.039	5.88	3.71	-13.58
18422	-1.033	-0.092	-0.05	2.17	-0.14	-7.77
18441	-0.98	-0.081	-0.023	0.07	5.46	-3.99
18459	-0.991	-0.08	-0.037	-2.38	4.2	0.84
18479	-0.966	-0.081	-0.033	-7.21	10.22	5.6
18503	-0.978	-0.087	0.009	-6.58	8.19	10.71
18522	-0.944	-0.109	-0.055	-5.53	11.97	16.45
18543	-0.948	-0.139	-0.058	-7.21	18.62	20.72
18563	-0.941	-0.126	-0.051	-8.26	22.61	24.99
18588	-0.923	-0.092	-0.063	-8.33	27.44	30.38
18606	-0.919	-0.053	-0.071	-9.31	30.73	35.35
18626	-0.933	-0.033	-0.087	-10.01	32.13	42.49
18646	-0.91	-0.048	-0.13	-9.8	35.49	49.07
18670	-0.894	-0.055	-0.13	-10.64	41.65	56.7
18686	-0.86	-0.005	-0.126	-13.09	44.17	60.2
18709	-0.834	0.085	-0.148	-15.26	47.6	64.54
18728	-0.767	0.165	-0.269	-17.15	67.41	69.02
18752	-0.789	0.197	-0.25	-21.14	86.52	77.14
18772	-0.762	0.21	-0.217	-26.74	89.81	84.56
18792	-0.722	0.206	-0.261	-30.73	85.75	90.86
18812	-0.687	0.191	-0.446	-33.25	89.67	93.94
18831	-0.752	0.203	-0.45	-28.28	100.66	92.4
18849	-0.832	0.24	-0.328	-24.08	99.75	90.65
18873	-0.772	0.281	-0.409	-21.63	99.19	88.27
18893	-0.709	0.303	-0.413	-17.43	112.49	85.47
18912	-0.747	0.325	-0.365	-12.11	114.38	87.57
18936	-0.743	0.329	-0.373	-11.41	107.87	90.86
18953	-0.664	0.392	-0.482	-11.83	104.93	91.07
18977	-0.653	0.465	-0.557	-13.44	109.41	84.07
18997	-0.61	0.555	-0.612	-11.62	112.63	83.3
19014	-0.59	0.547	-0.561	-5.95	115.99	83.58
19038	-0.62	0.545	-0.574	1.96	111.51	82.6
19059	-0.547	0.494	-0.661	2.94	113.68	77.42
19078	-0.454	0.558	-0.715	3.57	114.59	71.26
19098	-0.447	0.644	-0.679	1.47	110.25	69.23
19118	-0.483	0.67	-0.648	3.71	104.16	63.28
19142	-0.422	0.705	-0.654	7.63	96.11	59.71
19162	-0.351	0.626	-0.699	3.99	89.46	58.59
19185	-0.306	0.593	-0.839	1.96	86.03	49.63
19206	-0.295	0.679	-0.802	-3.08	83.51	43.61
19224	-0.282	0.748	-0.738	-1.61	73.15	43.26
19248	-0.228	0.693	-0.785	-3.92	66.36	44.59
19268	-0.213	0.671	-0.868	-5.11	66.71	40.11
19288	-0.167	0.664	-0.886	0.14	61.18	34.23
19305	-0.138	0.675	-0.841	2.73	57.19	30.73
19329	-0.135	0.681	-0.817	5.81	50.33	24.29
19348	-0.111	0.682	-0.823	8.12	45.29	22.26
19367	-0.056	0.685	-0.849	11.2	40.74	22.33
19387	-0.028	0.678	-0.892	11.9	37.8	21.35
19412	0.003	0.697	-0.916	12.11	36.12	19.39
19431	-0.038	0.754	-0.937	13.51	33.11	14.56
19448	-0.022	0.81	-0.91	14.35	30.73	11.06
19472	-0.016	0.777	-0.886	12.18	23.94	7.21
19492	-0.011	0.743	-0.956	8.82	18.83	3.85
19512	-0.011	0.757	-0.984	8.75	14.84	0.28
19535	-0.015	0.757	-0.967	8.89	9.59	-3.78
19556	-0.038	0.757	-0.957	4.34	0.63	-7.42
19576	-0.042	0.778	-1.028	1.19	-5.88	-10.15
19596	-0.051	0.821	-0.918	-2.45	-19.39	-12.25
19614	-0.036	0.815	-1.038	-8.19	-23.24	-15.05
19639	-0.064	0.8	-0.966	-10.36	-31.71	-20.86
19658	-0.086	0.754	-0.972	-7.21	-43.33	-28.7
19676	-0.115	0.757	-0.958	-4.55	-52.36	-34.23
19699	-0.159	0.729	-0.923	-1.54	-62.93	-40.32
19718	-0.189	0.704	-0.912	1.4	-74.83	-44.94
19738	-0.204	0.673	-0.941	3.15	-81.48	-51.45
19759	-0.245	0.68	-0.905	3.57	-106.89	-61.11
19779	-0.283	0.692	-0.869	3.36	-96.74	-68.04
19798	-0.315	0.674	-0.815	4.76	-103.6	-74.06
19822	-0.344	0.635	-0.815	6.86	-109.62	-78.54
19842	-0.353	0.585	-0.815	11.06	-112.14	-80.85
19860	-0.387	0.53	-0.769	14.77	-113.47	-84.21
19882	-0.423	0.498	-0.739	17.15	-114.45	-88.13
19902	-0.456	0.48	-0.665	15.54	-113.82	-90.16
19922	-0.513	0.461	-0.635	15.75	-116.27	-91.14
19942	-0.537	0.431	-0.64	16.17	-116.06	-93.03
19966	-0.537	0.412	-0.616	17.85	-116.2	-93.1
19986	-0.543	0.377	-0.602	17.99	-114.59	-92.68
20004	-0.559	0.365	-0.562	16.73	-112.63	-92.75
20026	-0.588	0.356	-0.555	16.8	-110.25	-92.12
20047	-0.612	0.352	-0.547	17.78	-105.35	-91.14
20062	-0.631	0.364	-0.5	18.27	-103.81	-87.43
20086	-0.7	0.321	-0.467	18.62	-101.85	-84.0
20101	-0.757	0.307	-0.427	17.85	-99.4	-83.72
20124	-0.806	0.274	-0.397	17.43	-100.87	-80.71
20146	-0.854	0.207	-0.434	16.87	-106.19	-77.84
20166	-0.845	0.16	-0.435	17.5	-95.76	-80.43
20187	-0.846	0.203	-0.345	22.05	-98.91	-75.39
20204	-0.817	0.113	-0.351	19.95	-92.96	-73.5
20225	-0.832	0.057	-0.278	15.75	-89.11	-74.97
20241	-0.715	-0.077	-0.246	0.21	-94.78	-65.45
20266	-0.772	0.03	-0.242	28.21	-90.65	-58.31
20286	-0.832	0.035	-0.202	25.13	-84.14	-57.19
20302	-0.837	0.03	-0.203	24.5	-80.5	-55.02
20326	-0.839	0.003	-0.199	22.26	-71.4	-50.68
20345	-0.811	-0.017	-0.191	21.7	-64.82	-44.24
20369	-0.818	-0.042	-0.104	20.51	-55.44	-37.52
20386	-0.872	-0.047	-0.081	17.01	-51.66	-34.09
20410	-0.932	-0.04	-0.066	9.8	-49.14	-27.79
20425	-0.909	-0.033	-0.119	7.21	-42.14	-23.73
20449	-0.904	-0.078	-0.09	2.31	-30.66	-18.62
20468	-0.908	-0.139	-0.02	0.49	-24.43	-15.05
20485	-0.921	-0.149	0.001	2.03	-20.02	-11.13
20510	-0.954	-0.15	-0.018	0.98	-15.26	-5.25
20530	-0.989	-0.102	-0.053	2.03	-10.22	-0.91
20548	-1.029	-0.124	-0.053	-0.56	-4.76	2.66
20573	-1.019	-0.156	0.003	-3.29	-1.26	8.54
20588	-0.988	-0.168	0.019	-2.94	-1.61	11.48
20613	-0.955	-0.157	0.008	-1.68	-0.42	16.31
20630	-0.946	-0.15	0.003	-2.17	2.24	20.02
20652	-0.938	-0.145	0.008	-2.87	3.92	25.41
20671	-0.912	-0.12	-0.006	-2.45	6.3	29.82
20695	-0.907	-0.091	-0.013	-0.28	13.58	35.49
20719	-0.9	-0.099	-0.039	1.68	23.1	42.35
20734	-0.9	-0.107	-0.05	1.89	30.1	47.95
20758	-0.914	-0.091	-0.045	0.28	35.21	55.65
20777	-0.899	-0.045	-0.048	1.26	48.23	59.5
20795	-0.933	0.012	-0.062	-1.47	50.61	63.63
20819	-0.884	0.07	-0.125	-5.74	58.87	66.71
20838	-0.863	0.136	-0.139	-7.77	67.48	71.05
20855	-0.836	0.167	-0.162	-9.17	73.5	76.44
20879	-0.829	0.183	-0.167	-9.8	79.03	84.42
20897	-0.809	0.214	-0.223	-10.08	82.6	88.9
20916	-0.789	0.204	-0.206	-7.42	84.63	91.98
20941	-0.737	0.203	-0.289	2.87	83.86	92.05
20961	-0.687	0.217	-0.354	7.91	88.9	92.47
20980	-0.659	0.265	-0.397	8.89	97.65	91.35
21000	-0.679	0.388	-0.41	4.55	109.13	89.53
21024	-0.701	0.452	-0.395	0.77	116.41	90.09
21039	-0.727	0.492	-0.372	2.03	117.18	95.62
21065	-0.728	0.427	-0.389	6.16	109.97	98.77
21083	-0.693	0.429	-0.475	3.08	112.28	95.62
21103	-0.703	0.46	-0.396	-3.29	110.11	89.81
21123	-0.673	0.505	-0.455	-5.39	103.32	85.05
21146	-0.627	0.503	-0.49	-8.19	100.45	80.29
21167	-0.599	0.608	-0.521	-10.22	98.28	77.21
21191	-0.596	0.665	-0.481	-18.34	88.34	79.45
21210	-0.545	0.751	-0.695	-24.22	78.33	78.54
21230	-0.483	0.794	-0.705	-29.26	80.43	82.32
21251	-0.486	0.71	-0.708	-29.68	79.38	82.95
21271	-0.458	0.64	-0.751	-28.35	78.96	80.71
21296	-0.422	0.657	-0.66	-30.38	78.26	71.89
21315	-0.43	0.673	-0.667	-27.23	68.88	62.65
21335	-0.387	0.72	-0.812	-21.49	65.03	55.23
21353	-0.278	0.782	-0.852	-13.79	67.76	53.41
21372	-0.202	0.764	-0.773	-4.41	69.16	54.11
21395	-0.159	0.715	-0.722	1.05	70.07	50.89
21418	-0.211	0.663	-0.616	6.16	58.94	44.66
21438	-0.213	0.755	-0.706	11.62	52.43	39.13
21455	-0.194	0.804	-0.75	15.96	52.29	35.56
21474	-0.158	0.785	-0.718	19.18	49.91	32.13
21499	-0.109	0.813	-0.768	22.05	43.4	26.74
21517	-0.061	0.829	-0.831	23.31	41.79	23.73
21539	-0.065	0.814	-0.806	20.93	41.72	15.61
21559	-0.097	0.836	-0.734	22.26	39.2	12.25
21578	-0.104	0.82	-0.771	20.79	32.41	9.66
21598	-0.064	0.834	-0.835	17.5	27.37	7.35
21618	-0.025	0.835	-0.937	15.54	24.08	4.27
21642	-0.069	0.887	-0.911	14.21	19.53	-5.18
21662	-0.085	0.922	-0.93	15.05	15.61	-11.48
21682	-0.094	0.933	-0.895	11.69	6.58	-15.54
21702	-0.099	0.885	-0.9	7.84	-2.94	-19.88
21720	-0.097	0.872	-0.882	4.55	-11.69	-24.92
21744	-0.115	0.863	-0.905	4.55	-21.91	-33.11
21764	-0.136	0.853	-0.933	10.22	-33.11	-40.46
21779	-0.168	0.844	-0.917	14.21	-41.23	-45.29
21799	-0.2	0.855	-0.881	16.24	-54.25	-52.43
21819	-0.226	0.85	-0.877	14.35	-62.79	-59.92
21839	-0.286	0.817	-0.833	12.67	-73.64	-67.06
21864	-0.33	0.789	-0.832	10.64	-85.26	-76.58
21883	-0.355	0.773	-0.844	7.28	-94.85	-81.83
21903	-0.35	0.741	-0.872	4.41	-96.46	-88.83
21921	-0.389	0.724	-0.793	7.84	-104.23	-92.47
21942	-0.417	0.676	-0.796	6.86	-106.68	-100.03
21966	-0.479	0.651	-0.7	5.74	-113.05	-106.19
21984	-0.528	0.636	-0.701	8.47	-116.48	-109.55
22005	-0.558	0.612	-0.677	7.42	-117.32	-109.76
22023	-0.565	0.558	-0.646	6.3	-116.76	-110.32
22043	-0.576	0.477	-0.572	2.8	-113.4	-115.15
22067	-0.573	0.454	-0.506	3.22	-116.83	-115.08
22087	-0.583	0.452	-0.469	-0.49	-116.48	-114.8
22106	-0.598	0.495	-0.457	-3.71	-117.6	-114.66
22130	-0.61	0.521	-0.48	-7.35	-116.41	-112.7
22148	-0.607	0.523	-0.427	-11.27	-114.03	-106.05
22168	-0.624	0.428	-0.468	-14.07	-109.55	-104.23
22187	-0.657	0.326	-0.401	-17.85	-103.67	-102.97
22212	-0.687	0.294	-0.353	-19.67	-103.32	-99.4
22232	-0.696	0.202	-0.332	-14.7	-106.4	-88.34
22251	-0.752	0.281	-0.317	-21.42	-100.8	-81.27
22274	-0.777	0.26	-0.255	-22.61	-97.44	-77.21
22293	-0.741	0.207	-0.25	-22.61	-95.2	-71.82
22313	-0.717	0.144	-0.238	-22.68	-88.97	-67.69
22337	-0.729	0.079	-0.226	-24.85	-80.08	-66.92
22356	-0.775	0.083	-0.196	-24.71	-73.85	-66.36
22376	-0.819	0.114	-0.152	-23.59	-67.76	-62.3
22392	-0.834	0.084	-0.148	-23.66	-65.1	-60.48
22418	-0.858	0.095	-0.098	-26.04	-58.87	-54.46
22435	-0.892	0.032	-0.062	-26.18	-53.27	-53.69
22455	-0.916	-0.027	-0.083	-24.43	-48.37	-53.06
22478	-0.92	-0.031	-0.115	-23.31	-43.54	-55.09
22497	-0.935	-0.021	-0.043	-19.74	-35.35	-56.7
22518	-0.941	-0.032	-0.066	-23.52	-31.85	-55.09
22542	-0.953	-0.021	0.013	-27.44	-27.86	-51.94
22562	-0.976	-0.015	0.02	-30.31	-28.42	-50.54
22579	-0.959	-0.063	0.025	-31.78	-26.18	-50.05
22598	-0.924	-0.109	0.023	-32.41	-20.51	-50.26
22623	-0.905	-0.129	0.006	-31.57	-12.67	-49.63
22641	-0.881	-0.17	-0.001	-30.03	-6.93	-49.77
22665	-0.871	-0.212	0.016	-28.63	1.89	-52.36
22685	-0.875	-0.232	0.021	-29.33	7.28	-56.49
22704	-0.88	-0.236	-0.001	-29.12	13.72	-61.39
22722	-0.85	-0.254	-0.018	-28.56	21.84	-66.64
22742	-0.85	-0.274	-0.005	-28.28	31.22	-71.82
22761	-0.871	-0.254	0.01	-26.32	35.98	-75.6
22786	-0.887	-0.279	-0.007	-28.14	40.53	-76.58
22806	-0.887	-0.35	-0.03	-29.82	46.06	-77.0
22826	-0.828	-0.417	-0.036	-28.0	54.11	-80.15
22846	-0.818	-0.391	0.006	-22.47	57.4	-80.01
22871	-0.824	-0.441	-0.044	-30.87	49.77	-72.59
22890	-0.779	-0.484	-0.13	-35.07	56.07	-70.35
22907	-0.745	-0.44	-0.139	-30.8	66.43	-65.17
22931	-0.728	-0.419	-0.231	-31.01	93.8	-63.42
22950	-0.704	-0.451	-0.208	-31.29	101.64	-63.42
22969	-0.611	-0.525	-0.206	-27.79	98.07	-70.0
22988	-0.558	-0.598	-0.324	-17.99	96.25	-71.82
23012	-0.613	-0.614	-0.356	-13.79	109.41	-73.08
23032	-0.715	-0.53	-0.264	-14.28	110.53	-69.51
23052	-0.752	-0.489	-0.294	-11.06	100.73	-68.18
23076	-0.655	-0.56	-0.445	-14.28	97.93	-67.97
23096	-0.572	-0.588	-0.382	-9.52	108.71	-68.18
23116	-0.548	-0.626	-0.431	-14.21	104.3	-68.18
23131	-0.513	-0.64	-0.46	-17.01	103.81	-68.88
23156	-0.514	-0.602	-0.532	-17.22	105.98	-64.33
23175	-0.505	-0.608	-0.442	-11.41	108.71	-59.78
23196	-0.501	-0.691	-0.437	-1.61	104.72	-59.22
23220	-0.49	-0.741	-0.548	3.64	100.73	-56.28
23241	-0.448	-0.775	-0.59	1.68	102.69	-55.72
23259	-0.379	-0.84	-0.593	5.6	96.53	-56.7
23277	-0.349	-0.831	-0.611	11.34	92.47	-55.23
23297	-0.337	-0.794	-0.651	14.28	87.71	-49.91
23321	-0.311	-0.815	-0.57	13.58	80.71	-48.09
23341	-0.314	-0.816	-0.547	24.08	71.19	-45.15
23360	-0.28	-0.817	-0.657	28.28	67.2	-41.72
23380	-0.197	-0.771	-0.756	23.8	69.02	-35.56
23401	-0.152	-0.736	-0.753	16.94	67.2	-31.57
23421	-0.122	-0.759	-0.747	18.2	66.01	-29.33
23441	-0.134	-0.805	-0.701	21.42	64.12	-26.39
23461	-0.138	-0.855	-0.724	10.36	56.91	-25.13
23481	-0.119	-0.866	-0.745	2.52	54.95	-27.23
23497	-0.104	-0.853	-0.706	3.15	54.67	-27.16
23520	-0.083	-0.886	-0.713	6.3	50.47	-21.0
23541	-0.028	-0.901	-0.719	5.11	47.04	-13.37
23565	-0.021	-0.874	-0.695	2.45	42.21	-8.75
23583	-0.039	-0.832	-0.721	4.27	39.41	-4.48
23604	-0.036	-0.876	-0.748	6.09	36.75	2.73
23624	-0.011	-0.932	-0.78	-0.14	29.68	6.72
23645	-0.021	-0.996	-0.792	-0.84	22.54	8.96
23665	-0.041	-0.986	-0.787	0.21	20.02	13.37
23680	-0.075	-0.976	-0.781	-1.26	12.6	17.43
23705	-0.06	-0.996	-0.817	-5.88	4.76	22.26
23725	-0.046	-0.996	-0.774	-6.23	-0.91	25.97
23746	-0.095	-0.969	-0.736	-3.78	-10.78	34.3
23765	-0.128	-0.944	-0.772	-4.27	-24.43	44.24
23785	-0.147	-0.913	-0.76	-8.05	-33.11	53.2
23804	-0.167	-0.898	-0.748	-11.76	-42.28	60.06
23825	-0.183	-0.928	-0.769	-16.52	-52.43	67.69
23845	-0.202	-0.927	-0.755	-22.54	-59.71	72.59
23870	-0.246	-0.908	-0.651	-23.87	-71.54	77.98
23889	-0.297	-0.86	-0.659	-21.14	-78.75	84.56
23907	-0.348	-0.813	-0.66	-19.25	-83.44	89.81
23932	-0.378	-0.775	-0.625	-18.76	-90.44	97.02
23950	-0.388	-0.743	-0.595	-17.99	-94.71	100.87
23970	-0.417	-0.694	-0.561	-15.89	-98.49	103.88
23991	-0.448	-0.652	-0.57	-12.95	-100.38	106.19
24011	-0.482	-0.602	-0.568	-10.85	-101.08	109.27
24030	-0.522	-0.574	-0.526	-10.57	-101.22	112.63
24048	-0.543	-0.572	-0.5	-10.01	-101.01	114.94
24073	-0.587	-0.567	-0.478	-9.03	-102.76	115.36
24090	-0.63	-0.554	-0.495	-8.75	-104.51	113.68
24114	-0.642	-0.55	-0.496	-8.96	-103.67	111.16
24132	-0.648	-0.542	-0.439	-10.43	-100.38	108.85
24152	-0.667	-0.534	-0.403	-7.63	-101.99	105.35
24174	-0.686	-0.439	-0.383	-4.76	-102.48	100.94
24194	-0.678	-0.354	-0.395	-4.55	-99.54	99.61
24219	-0.697	-0.258	-0.324	-2.31	-89.81	100.38
24237	-0.738	-0.197	-0.232	-1.05	-87.99	100.73
24255	-0.787	-0.203	-0.224	-1.4	-90.02	100.87
24279	-0.816	-0.221	-0.24	0.35	-90.58	101.01
24298	-0.803	-0.237	-0.235	2.94	-86.1	99.89
24319	-0.789	-0.235	-0.224	5.46	-83.23	96.95
24342	-0.773	-0.171	-0.219	6.09	-74.2	90.65
24364	-0.793	-0.068	-0.183	3.92	-66.99	85.47
24383	-0.823	-0.022	-0.163	3.64	-60.34	81.55
24402	-0.886	-0.019	-0.109	3.92	-55.23	77.35
24423	-0.912	-0.021	-0.107	6.86	-55.23	72.66
24443	-0.911	-0.006	-0.108	8.47	-52.78	67.2
24467	-0.919	0.01	-0.1	9.24	-49.21	58.03
24483	-0.915	0.046	-0.082	6.37	-43.82	52.08
24502	-0.892	0.069	-0.09	2.94	-37.87	44.87
24526	-0.89	0.089	-0.102	0.35	-29.96	36.54
24547	-0.895	0.115	-0.088	-2.17	-20.86	28.63
24564	-0.899	0.114	-0.066	-0.84	-16.8	23.38
24583	-0.908	0.108	-0.056	1.82	-11.9	17.29
24607	-0.937	0.086	-0.049	3.08	-7.63	9.45
24629	-0.961	0.168	-0.03	4.9	-4.83	4.2
24643	-0.981	0.174	-0.027	5.18	-3.43	0.77
24664	-1.01	0.171	-0.022	5.18	-3.57	-3.99
24683	-1.015	0.167	-0.02	5.95	-5.39	-8.82
24706	-1.013	0.176	-0.031	5.25	-2.73	-15.26
24728	-0.976	0.148	-0.078	1.33	5.32	-22.05
24748	-0.983	0.145	-0.017	0.42	7.77	-28.7
24768	-0.955	0.134	-0.049	2.17	8.47	-33.39
24791	-0.956	0.082	-0.041	3.22	9.73	-39.55
24812	-0.93	0.042	-0.085	3.01	12.88	-45.43
24831	-0.904	0.016	-0.086	2.59	17.5	-51.73
24851	-0.9	0.028	-0.076	3.01	21.49	-57.89
24871	-0.904	0.008	-0.078	4.06	24.64	-63.14
24895	-0.923	-0.032	-0.072	6.02	27.86	-69.93
24915	-0.958	-0.066	-0.059	8.82	28.91	-76.44
24935	-0.963	-0.087	-0.064	8.89	29.68	-83.3
24954	-0.943	-0.104	-0.102	8.05	32.62	-89.53
24978	-0.892	-0.126	-0.102	4.13	45.01	-98.28
24998	-0.839	-0.178	-0.088	2.73	51.66	-104.86
25020	-0.82	-0.202	-0.068	0.77	56.7	-110.67
25042	-0.828	-0.228	-0.065	-1.05	60.76	-114.52
25057	-0.847	-0.246	-0.061	-3.08	60.13	-116.48
25082	-0.827	-0.276	-0.119	-9.45	61.53	-118.58
25100	-0.738	-0.325	-0.177	-17.01	72.24	-121.1
25119	-0.723	-0.348	-0.285	-17.99	76.23	-121.03
25144	-0.638	-0.348	-0.447	-19.11	89.74	-114.17
25163	-0.621	-0.42	-0.367	-25.48	95.13	-107.45
25180	-0.617	-0.482	-0.3	-29.82	91.56	-103.25
25200	-0.624	-0.533	-0.196	-30.1	82.6	-103.6
25223	-0.728	-0.562	-0.237	-24.85	73.08	-102.41
25244	-0.746	-0.682	-0.306	-19.46	79.52	-96.11
25261	-0.743	-0.727	-0.273	-12.53	82.6	-90.3
25285	-0.627	-0.755	-0.332	-5.88	79.31	-87.85
25304	-0.529	-0.664	-0.418	-2.31	80.15	-87.01
25324	-0.503	-0.61	-0.464	-2.73	79.87	-85.96
25341	-0.488	-0.609	-0.492	-0.7	77.14	-82.6
25365	-0.422	-0.71	-0.495	2.52	80.22	-81.55
25381	-0.427	-0.781	-0.494	4.76	79.8	-79.73
25400	-0.414	-0.782	-0.489	2.17	78.75	-75.18
25424	-0.401	-0.716	-0.498	3.99	70.14	-68.81
25445	-0.328	-0.71	-0.552	8.75	64.33	-61.67
25469	-0.28	-0.749	-0.614	8.19	63.35	-53.34
25487	-0.292	-0.823	-0.632	4.34	64.33	-46.9
25510	-0.318	-0.887	-0.632	9.31	58.31	-43.54
25531	-0.33	-0.991	-0.622	22.75	54.6	-42.28
25552	-0.307	-1.025	-0.616	29.68	50.82	-39.34
25571	-0.266	-0.966	-0.633	29.33	50.05	-36.75
25591	-0.211	-0.842	-0.679	23.8	49.7	-34.72
25615	-0.153	-0.805	-0.706	17.99	51.31	-31.36
25635	-0.12	-0.863	-0.661	7.49	45.43	-28.56
25654	-0.11	-0.943	-0.724	3.43	42.35	-26.32
25673	-0.113	-0.967	-0.777	-1.96	44.59	-20.79
25693	-0.16	-0.984	-0.817	-10.36	43.82	-14.56
25716	-0.151	-0.986	-0.734	-10.85	34.51	-7.91
25737	-0.165	-1.013	-0.789	-9.87	28.98	2.52
25756	-0.223	-1.067	-0.764	-7.98	21.56	11.13
25777	-0.275	-1.077	-0.774	-6.09	9.03	24.29
25796	-0.249	-1.064	-0.789	-2.52	-0.77	33.25
25821	-0.24	-1.033	-0.779	0.98	-12.53	45.22
25837	-0.294	-1.014	-0.752	-0.28	-22.33	70.91
25860	-0.334	-0.957	-0.752	-3.92	-39.76	64.75
25880	-0.336	-0.937	-0.773	-9.45	-49.35	71.54
25899	-0.338	-0.96	-0.796	-14.98	-55.44	78.26
25918	-0.373	-0.962	-0.746	-16.31	-61.6	84.56
25938	-0.417	-0.915	-0.689	-13.3	-67.06	91.56
25963	-0.451	-0.859	-0.649	-12.11	-71.68	98.91
25983	-0.492	-0.763	-0.631	-11.41	-74.48	102.48
26003	-0.51	-0.713	-0.606	-11.69	-77.07	106.82
26022	-0.515	-0.67	-0.57	-12.88	-78.89	108.43
26047	-0.532	-0.616	-0.531	-13.23	-80.57	109.83
26064	-0.531	-0.585	-0.515	-13.72	-79.94	110.32
26088	-0.561	-0.522	-0.498	-14.56	-80.15	112.0
26107	-0.572	-0.475	-0.471	-18.2	-76.65	112.98
26126	-0.616	-0.417	-0.399	-21.98	-76.65	112.49
26146	-0.673	-0.37	-0.353	-24.57	-82.46	111.58
26170	-0.721	-0.317	-0.337	-26.04	-92.75	113.68
26189	-0.712	-0.345	-0.429	-27.79	-98.0	114.38
26212	-0.689	-0.365	-0.359	-23.87	-96.67	112.42
26233	-0.701	-0.386	-0.419	-22.68	-96.32	112.91
26253	-0.671	-0.441	-0.295	-25.2	-89.81	110.74
26268	-0.695	-0.39	-0.266	-25.34	-91.49	108.78
26288	-0.723	-0.319	-0.266	-25.13	-90.93	105.98
26312	-0.738	-0.248	-0.279	-20.93	-85.89	101.43
26329	-0.754	-0.195	-0.302	-18.97	-79.1	99.12
26353	-0.76	-0.205	-0.264	-17.99	-73.85	95.97
26372	-0.765	-0.176	-0.242	-15.96	-68.88	92.61
26395	-0.762	-0.162	-0.248	-14.21	-61.32	86.8
26419	-0.767	-0.128	-0.252	-13.02	-51.87	77.21
26438	-0.772	-0.067	-0.252	-11.69	-41.3	70.84
26455	-0.801	-0.042	-0.197	-11.41	-34.86	66.01
26474	-0.844	0.004	-0.146	-10.78	-31.64	60.13
26494	-0.85	0.027	-0.142	-7.91	-30.59	54.25
26519	-0.879	0.051	-0.16	-1.19	-25.06	46.83
26538	-0.901	0.055	-0.196	4.41	-18.27	39.48
26561	-0.904	0.081	-0.176	6.65	-9.17	27.86
26583	-0.917	0.102	-0.106	9.45	-3.01	18.62
26602	-0.96	0.132	-0.076	14.35	-2.73	11.76
26622	-0.991	0.127	-0.088	17.85	-5.67	4.76
26642	-0.996	0.114	-0.154	16.17	-2.87	-3.22
26662	-0.985	0.129	-0.142	12.32	4.48	-12.95
26682	-0.974	0.154	-0.122	9.66	7.7	-22.89
26699	-0.955	0.158	-0.123	10.5	7.21	-30.59
26720	-0.919	0.142	-0.101	12.04	11.76	-39.34
26740	-0.91	0.092	-0.15	11.97	16.17	-46.55
26764	-0.886	0.056	-0.139	10.92	25.97	-56.14
26784	-0.875	0.041	-0.143	11.48	30.45	-63.42
26803	-0.865	0.035	-0.164	12.11	34.37	-71.54
26822	-0.851	0.014	-0.189	11.83	39.48	-80.43
26844	-0.84	-0.041	-0.214	12.04	49.56	-89.46
26864	-0.793	-0.105	-0.221	11.76	59.22	-98.77
26882	-0.735	-0.166	-0.223	12.6	67.06	-108.08
26902	-0.701	-0.185	-0.261	14.28	75.11	-115.85
26922	-0.713	-0.224	-0.268	15.47	82.67	-120.26
26946	-0.739	-0.245	-0.262	17.29	89.25	-121.8
26965	-0.758	-0.279	-0.224	17.64	87.85	-121.94
26985	-0.759	-0.293	-0.24	18.55	83.51	-122.29
27009	-0.75	-0.314	-0.295	19.6	78.89	-121.1
27028	-0.737	-0.354	-0.4	20.23	75.6	-118.16
27048	-0.696	-0.436	-0.469	14.84	80.43	-114.94
27064	-0.644	-0.493	-0.468	13.16	84.28	-113.47
27089	-0.63	-0.535	-0.516	14.35	86.03	-114.03
27105	-0.636	-0.594	-0.503	15.89	89.32	-115.85
27129	-0.64	-0.601	-0.391	21.91	86.8	-114.73
27149	-0.638	-0.604	-0.356	23.24	75.81	-110.53
27169	-0.581	-0.665	-0.587	22.05	73.36	-104.16
27188	-0.532	-0.701	-0.621	23.52	83.86	-95.13
27209	-0.513	-0.823	-0.422	34.86	80.08	-88.9
27225	-0.503	-0.872	-0.419	40.67	64.75	-91.14
27244	-0.432	-0.774	-0.59	30.03	55.51	-97.44
27269	-0.329	-0.641	-0.551	16.59	53.48	-105.98
27289	-0.329	-0.594	-0.642	18.2	49.77	-99.26
27305	-0.349	-0.659	-0.656	12.81	52.5	-85.33
27327	-0.4	-0.802	-0.623	7.28	49.14	-65.94
27347	-0.323	-0.928	-0.64	-0.07	42.14	-59.5
27371	-0.258	-0.896	-0.608	0.14	39.83	-55.51
27390	-0.234	-0.858	-0.602	0.63	35.49	-50.12
27411	-0.232	-0.857	-0.573	-0.49	29.82	-43.61
27428	-0.227	-0.895	-0.573	1.19	25.76	-39.83
27448	-0.22	-0.904	-0.566	2.87	21.21	-34.02
27467	-0.208	-0.927	-0.647	2.94	18.48	-29.47
27492	-0.168	-0.927	-0.658	1.4	20.44	-22.89
27510	-0.146	-0.917	-0.613	0.28	18.9	-19.04
27530	-0.123	-0.956	-0.625	1.82	17.15	-16.1
27554	-0.115	-1.014	-0.682	4.9	16.1	-10.85
27574	-0.118	-1.028	-0.711	4.34	15.89	-7.14
27598	-0.107	-1.015	-0.73	1.82	14.63	-0.98
27618	-0.099	-0.875	-0.772	-3.15	15.89	4.9
27638	-0.117	-0.991	-0.731	-7.63	11.97	9.31
27657	-0.156	-1.015	-0.729	-10.92	6.3	11.48
27681	-0.201	-1.009	-0.741	-12.18	-2.31	17.71
27701	-0.222	-1.025	-0.781	-11.62	-8.68	24.5
27720	-0.247	-1.021	-0.727	-9.1	-18.9	33.53
27740	-0.232	-1.017	-0.805	-11.41	-25.76	42.28
27760	-0.224	-0.979	-0.732	-16.38	-31.22	50.61
27784	-0.264	-0.954	-0.708	-22.12	-43.68	58.52
27800	-0.294	-0.917	-0.726	-24.01	-49.91	62.02
27824	-0.335	-0.895	-0.717	-24.15	-55.3	72.17
27843	-0.362	-0.882	-0.697	-24.71	-61.18	78.33
27860	-0.392	-0.84	-0.662	-25.9	-64.12	85.54
27880	-0.432	-0.789	-0.633	-25.69	-70.21	92.54
27904	-0.455	-0.763	-0.63	-24.57	-74.48	99.4
27922	-0.48	-0.721	-0.632	-25.06	-75.67	103.32
27946	-0.485	-0.658	-0.588	-24.99	-76.02	108.08
27966	-0.494	-0.61	-0.534	-24.29	-78.68	109.62
27986	-0.517	-0.551	-0.514	-23.31	-81.69	109.83
28004	-0.549	-0.513	-0.49	-21.56	-84.0	111.37
28026	-0.575	-0.493	-0.488	-17.43	-87.29	114.24
28045	-0.577	-0.477	-0.49	-16.17	-88.27	115.64
28069	-0.587	-0.455	-0.45	-14.14	-91.28	115.64
28089	-0.635	-0.455	-0.414	-10.5	-98.63	116.34
28109	-0.748	-0.507	-0.38	-13.65	-110.74	117.53
28127	-0.798	-0.542	-0.383	-14.84	-124.53	114.73
28147	-0.789	-0.528	-0.413	-11.55	-130.83	106.61
28171	-0.713	-0.428	-0.377	-8.12	-120.61	95.27
28189	-0.679	-0.254	-0.343	-5.11	-112.63	88.27
28213	-0.67	-0.132	-0.267	5.04	-104.3	80.08
28233	-0.712	-0.049	-0.314	8.75	-95.69	78.54
28254	-0.744	-0.065	-0.253	9.59	-85.4	77.7
28272	-0.759	-0.096	-0.22	7.49	-82.67	77.91
28296	-0.751	-0.087	-0.226	6.44	-77.0	74.41
28316	-0.76	-0.039	-0.209	8.26	-67.69	70.28
28334	-0.794	-0.007	-0.167	5.88	-60.69	66.85
28358	-0.86	-0.013	-0.147	1.47	-59.29	61.6
28377	-0.887	-0.026	-0.149	-2.24	-56.14	56.28
28397	-0.886	0.015	-0.135	-8.05	-48.3	51.03
28420	-0.894	0.054	-0.087	-12.6	-46.62	45.29
28440	-0.875	0.086	-0.077	-22.05	-45.22	40.74
28460	-0.894	0.1	-0.07	-23.52	-40.67	36.19
28479	-0.939	0.113	0.011	-22.26	-31.43	31.43
28503	-0.984	0.07	0.057	-19.95	-34.3	24.01
28524	-1.002	0.068	0.01	-20.65	-34.51	16.24
28549	-0.978	0.069	-0.028	-21.14	-24.08	4.55
28567	-0.962	0.099	-0.02	-20.65	-17.36	-2.94
28586	-0.931	0.084	-0.009	-20.09	-8.61	-10.29
28611	-0.936	0.08	0.027	-19.39	2.24	-20.37
28631	-0.951	0.092	0.061	-19.25	8.12	-27.09
28648	-0.951	0.118	0.076	-18.13	10.29	-33.32
28672	-0.943	0.106	0.058	-17.71	13.58	-40.67
28692	-0.947	0.032	0.053	-15.68	13.16	-45.92
28709	-0.894	0.002	0.021	-12.25	24.43	-51.24
28733	-0.881	-0.049	-0.009	-11.9	37.31	-59.43
28753	-0.868	-0.09	0.01	-11.83	47.67	-69.09
28772	-0.877	-0.085	-0.03	-5.53	55.93	-76.37
28789	-0.859	-0.126	-0.066	-2.87	67.69	-81.83
28813	-0.872	-0.14	-0.046	1.12	77.28	-88.55
28831	-0.866	-0.158	-0.04	0.42	80.99	-91.98
28850	-0.843	-0.19	-0.04	-0.56	79.52	-96.04
28875	-0.797	-0.226	-0.08	-0.21	74.76	-98.21
28895	-0.749	-0.261	-0.16	0.28	72.03	-98.77
28916	-0.686	-0.298	-0.216	2.87	74.06	-100.73
28935	-0.654	-0.339	-0.21	2.38	73.15	-102.48
28950	-0.697	-0.396	-0.246	-0.91	73.43	-105.14
28974	-0.788	-0.46	-0.231	-5.88	76.58	-108.57
28994	-0.799	-0.478	-0.278	-2.17	77.07	-109.55
29018	-0.733	-0.464	-0.348	2.24	77.84	-107.87
29033	-0.718	-0.497	-0.374	-3.43	75.67	-107.38
29057	-0.712	-0.505	-0.35	-10.29	76.58	-106.33
29078	-0.715	-0.483	-0.413	-6.65	80.57	-103.46
29098	-0.649	-0.526	-0.425	-2.59	85.82	-100.1
29116	-0.616	-0.595	-0.4	0.35	81.41	-96.6
29136	-0.616	-0.693	-0.36	-2.45	70.0	-95.27
29159	-0.632	-0.725	-0.359	1.26	61.32	-94.29
29179	-0.611	-0.763	-0.376	15.33	59.36	-92.54
29199	-0.591	-0.79	-0.4	25.41	51.45	-90.02
29223	-0.517	-0.778	-0.478	21.63	41.09	-87.57
29243	-0.511	-0.714	-0.332	14.91	33.6	-84.7
29261	-0.524	-0.67	-0.407	20.02	25.83	-81.06
29283	-0.457	-0.757	-0.585	20.93	28.42	-78.75
29307	-0.405	-0.789	-0.701	13.72	39.34	-73.85
29326	-0.35	-0.814	-0.717	3.22	46.83	-69.16
29345	-0.326	-0.856	-0.636	-4.83	50.26	-66.92
29369	-0.315	-0.9	-0.566	-12.67	49.14	-65.59
29388	-0.327	-0.899	-0.555	-12.32	47.32	-62.09
29408	-0.347	-0.931	-0.549	-9.45	43.89	-56.42
29428	-0.379	-0.986	-0.53	-10.22	38.85	-49.84
29447	-0.341	-0.956	-0.562	-10.85	34.3	-42.49
29470	-0.302	-0.901	-0.632	-11.27	31.92	-30.66
29491	-0.231	-0.932	-0.661	-11.27	32.27	-22.82
29511	-0.213	-0.982	-0.618	-13.72	28.63	-16.38
29528	-0.198	-1.034	-0.633	-15.12	23.17	-14.35
29550	-0.193	-1.03	-0.723	-14.07	20.51	-11.83
29573	-0.172	-1.036	-0.772	-14.98	22.89	-7.35
29592	-0.206	-1.031	-0.743	-16.24	19.88	-1.12
29617	-0.229	-1.042	-0.699	-16.94	13.44	7.21
29636	-0.285	-1.033	-0.722	-15.61	0.98	13.79
29654	-0.321	-1.018	-0.748	-13.23	-6.72	21.84
29678	-0.339	-0.99	-0.663	-7.14	-16.24	33.74
29697	-0.309	-1.0	-0.762	-3.64	-25.48	44.17
29716	-0.327	-0.955	-0.699	-5.88	-34.3	54.25
29736	-0.327	-0.906	-0.752	-8.26	-42.63	62.37
29756	-0.337	-0.865	-0.738	-9.31	-45.43	71.12
29777	-0.366	-0.857	-0.692	-12.04	-51.45	78.47
29801	-0.38	-0.852	-0.648	-14.7	-57.75	83.65
29821	-0.421	-0.827	-0.62	-13.65	-62.44	86.24
29841	-0.451	-0.761	-0.603	-13.02	-65.8	90.3
29860	-0.476	-0.699	-0.586	-12.53	-67.76	93.87
29883	-0.486	-0.637	-0.555	-13.02	-69.79	98.21
29904	-0.474	-0.591	-0.553	-13.3	-72.31	101.92
29923	-0.482	-0.542	-0.521	-12.67	-74.06	104.93
29944	-0.51	-0.507	-0.498	-10.99	-76.09	107.59
29968	-0.551	-0.492	-0.529	-10.85	-78.12	109.55
29985	-0.566	-0.484	-0.518	-12.18	-75.81	109.41
30009	-0.6	-0.478	-0.45	-13.37	-74.9	107.24
30029	-0.648	-0.462	-0.422	-13.58	-78.75	104.86
30049	-0.672	-0.447	-0.452	-13.3	-79.17	103.32
30069	-0.684	-0.424	-0.431	-12.74	-77.0	101.92
30088	-0.698	-0.407	-0.389	-9.66	-76.3	100.1
30109	-0.715	-0.389	-0.343	-7.07	-75.67	97.93
30127	-0.754	-0.322	-0.328	-7.49	-76.51	96.95
30144	-0.773	-0.294	-0.344	-7.84	-79.24	95.34
30169	-0.74	-0.196	-0.333	-4.9	-73.99	94.29
30187	-0.756	-0.152	-0.331	-7.35	-69.16	95.06
30208	-0.759	-0.117	-0.26	-10.08	-65.1	93.66
30226	-0.801	-0.099	-0.238	-12.18	-65.59	90.86
30246	-0.832	-0.095	-0.265	-10.71	-65.38	87.01
30270	-0.832	-0.066	-0.298	-10.08	-57.26	80.78
30290	-0.837	-0.012	-0.278	-15.75	-51.1	73.92
30307	-0.856	0.027	-0.255	-20.72	-46.9	67.27
30331	-0.858	0.056	-0.279	-21.91	-42.56	58.94
30351	-0.858	0.018	-0.271	-18.62	-35.63	54.32
30371	-0.872	-0.009	-0.225	-12.18	-30.66	50.05
30391	-0.907	-0.089	-0.172	-2.1	-25.55	46.34
30415	-0.921	-0.137	-0.118	8.4	-22.96	37.94
30434	-0.917	-0.153	-0.143	16.38	-24.92	29.05
30454	-0.884	-0.124	-0.198	16.87	-15.05	15.19
30474	-0.893	0.0	-0.163	16.24	-8.82	5.18
30495	-0.898	0.094	-0.12	17.64	-1.61	-3.08
30517	-0.944	0.099	-0.076	20.02	1.05	-10.99
30541	-0.955	0.045	-0.088	19.95	1.26	-21.98
30559	-0.958	0.061	-0.105	20.16	3.01	-28.77
30582	-0.95	0.066	-0.098	22.33	3.5	-38.29
30601	-0.935	0.026	-0.122	24.64	4.76	-45.92
30621	-0.926	-0.042	-0.137	25.97	9.38	-54.39
30644	-0.944	-0.061	-0.138	27.3	14.42	-64.4
30664	-0.944	-0.058	-0.135	28.77	18.48	-74.9
30684	-0.94	-0.061	-0.137	27.3	19.25	-83.51
30703	-0.892	-0.11	-0.174	26.88	21.21	-93.17
30728	-0.9	-0.124	-0.168	26.74	30.45	-101.57
30748	-0.882	-0.176	-0.167	27.79	34.79	-106.68
30763	-0.873	-0.197	-0.154	28.84	38.22	-110.88
30784	-0.892	-0.193	-0.137	29.82	43.96	-113.96
30808	-0.897	-0.218	-0.13	24.78	46.9	-116.55
30828	-0.836	-0.264	-0.145	25.55	46.62	-120.26
30845	-0.78	-0.307	-0.157	27.02	47.74	-123.06
30865	-0.758	-0.342	-0.179	25.06	51.03	-124.46
30889	-0.755	-0.37	-0.174	19.81	49.07	-124.39
30908	-0.713	-0.404	-0.157	14.84	49.0	-124.32
30932	-0.683	-0.445	-0.169	13.02	46.55	-123.48
30949	-0.649	-0.48	-0.246	7.84	42.42	-120.47
30969	-0.593	-0.518	-0.257	-3.43	45.99	-116.62
30993	-0.549	-0.529	-0.239	-10.08	51.66	-115.08
31011	-0.508	-0.536	-0.329	-4.34	56.49	-110.6
31035	-0.52	-0.623	-0.312	-6.72	56.98	-104.93
31056	-0.551	-0.74	-0.375	-23.8	55.79	-102.06
31074	-0.576	-0.758	-0.325	-23.94	59.99	-99.82
31095	-0.6	-0.711	-0.325	-16.8	58.38	-91.42
31115	-0.518	-0.834	-0.428	-11.48	58.66	-86.31
31139	-0.455	-0.933	-0.377	-10.43	56.84	-87.57
31159	-0.447	-0.89	-0.386	-6.65	55.51	-86.8
31178	-0.436	-0.863	-0.393	-3.08	53.69	-83.44
31199	-0.377	-0.931	-0.468	-1.68	52.78	-80.22
31222	-0.318	-0.942	-0.52	-2.87	51.8	-76.58
31243	-0.283	-0.894	-0.512	-0.14	52.71	-70.7
31261	-0.237	-0.882	-0.55	-3.78	53.76	-64.26
31285	-0.235	-0.904	-0.487	-8.61	53.13	-56.63
31305	-0.25	-0.894	-0.467	-10.01	47.81	-51.45
31324	-0.224	-0.907	-0.538	-9.52	45.08	-46.41
31340	-0.217	-0.896	-0.577	-10.57	45.92	-40.11
31360	-0.191	-0.925	-0.569	-15.89	44.24	-35.14
31382	-0.122	-0.977	-0.6	-13.3	41.09	-32.41
31402	-0.111	-1.017	-0.592	-9.03	40.74	-29.26
31422	-0.122	-1.039	-0.609	-9.94	39.06	-25.48
31446	-0.107	-1.045	-0.623	-11.06	36.19	-23.1
31462	-0.089	-1.032	-0.669	-6.58	34.44	-18.9
31484	-0.056	-1.056	-0.698	-4.34	36.26	-11.13
31509	-0.045	-1.065	-0.701	-6.93	32.69	-3.15
31528	-0.044	-1.063	-0.727	-7.91	30.1	0.91
31547	-0.052	-1.057	-0.715	-6.44	25.55	4.97
31568	-0.11	-1.046	-0.659	-3.85	17.36	12.67
31592	-0.123	-1.045	-0.685	-2.8	4.62	24.71
31613	-0.138	-1.052	-0.687	-1.82	-4.97	34.3
31631	-0.159	-1.072	-0.718	-2.8	-15.12	42.91
31651	-0.171	-1.09	-0.727	-4.55	-26.04	50.82
31674	-0.195	-1.066	-0.709	-8.68	-37.03	60.97
31694	-0.259	-1.036	-0.666	-13.09	-48.23	69.65
31714	-0.3	-0.995	-0.661	-17.78	-57.89	77.35
31734	-0.296	-0.946	-0.577	-15.96	-67.06	84.0
31758	-0.308	-0.915	-0.641	-15.19	-70.63	92.54
31777	-0.351	-0.854	-0.537	-16.8	-77.21	98.84
31797	-0.394	-0.795	-0.54	-18.2	-84.7	106.19
31821	-0.42	-0.73	-0.557	-19.88	-89.46	110.95
31837	-0.435	-0.681	-0.563	-19.95	-89.95	114.31
31859	-0.461	-0.642	-0.508	-20.86	-88.2	118.37
31884	-0.491	-0.596	-0.481	-21.07	-89.53	121.45
31902	-0.513	-0.56	-0.463	-21.28	-89.32	122.36
31923	-0.554	-0.506	-0.426	-21.14	-90.16	122.71
31943	-0.578	-0.482	-0.447	-20.16	-91.7	122.15
31967	-0.598	-0.463	-0.436	-21.35	-90.44	121.94
31987	-0.624	-0.433	-0.404	-22.54	-88.48	121.73
32004	-0.647	-0.413	-0.369	-21.63	-88.76	121.1
32028	-0.671	-0.405	-0.327	-21.14	-89.18	118.72
32045	-0.719	-0.364	-0.304	-20.44	-90.09	116.83
32069	-0.766	-0.308	-0.305	-22.61	-93.31	113.05
32090	-0.77	-0.291	-0.298	-20.86	-92.96	109.69
32109	-0.787	-0.261	-0.304	-18.06	-89.81	106.75
32128	-0.796	-0.21	-0.272	-17.78	-86.8	105.28
32148	-0.804	-0.148	-0.311	-16.87	-86.17	102.55
32168	-0.753	-0.104	-0.335	-19.74	-75.88	99.82
32188	-0.751	-0.092	-0.278	-19.88	-65.03	96.53
32212	-0.792	-0.065	-0.241	-19.74	-56.63	92.4
32232	-0.829	-0.028	-0.248	-22.75	-50.12	88.34
32247	-0.838	0.017	-0.218	-25.83	-45.08	84.0
32269	-0.879	0.043	-0.187	-26.88	-46.06	78.4
32292	-0.88	0.074	-0.153	-20.86	-36.54	72.38
32314	-0.922	0.052	-0.151	-17.92	-34.79	68.18
32335	-0.956	0.015	-0.081	-14.35	-31.08	61.67
32354	-0.971	0.057	-0.091	-9.94	-30.87	55.51
32378	-0.951	0.053	-0.094	-7.35	-27.65	46.55
32396	-0.922	0.049	-0.095	-6.86	-26.53	36.82
32420	-0.884	0.072	-0.11	-6.23	-18.06	21.56
32437	-0.879	0.088	-0.07	-2.66	-12.6	12.95
32455	-0.897	0.118	-0.026	1.05	-8.19	4.62
32475	-0.91	0.145	0.0	2.73	-3.71	-4.2
32499	-0.949	0.172	-0.006	4.97	-0.49	-13.44
32518	-0.952	0.174	-0.019	4.27	1.96	-20.16
32539	-0.948	0.17	-0.034	4.06	5.88	-27.79
32563	-0.95	0.17	-0.011	6.58	10.15	-36.12
32582	-0.915	0.136	-0.024	8.75	12.6	-44.31
32601	-0.889	0.086	-0.041	9.03	16.24	-52.64
32624	-0.859	0.041	-0.088	10.36	23.52	-64.4
32643	-0.845	-0.001	-0.115	12.04	33.46	-74.69
32662	-0.854	-0.02	-0.1	13.65	43.54	-85.26
32686	-0.887	-0.041	-0.066	15.61	50.33	-96.74
32707	-0.877	-0.057	-0.104	18.41	53.13	-106.4
32726	-0.835	-0.121	-0.148	18.34	59.5	-114.52
32747	-0.81	-0.185	-0.181	17.71	70.77	-123.97
32768	-0.815	-0.219	-0.185	17.36	83.16	-131.53
32788	-0.865	-0.236	-0.222	19.81	96.46	-136.08
32808	-0.938	-0.287	-0.163	22.96	98.42	-135.24
32832	-0.796	-0.356	-0.235	33.46	91.98	-135.59
32851	-0.712	-0.354	-0.265	31.99	79.31	-133.91
32869	-0.657	-0.388	-0.339	17.64	76.37	-135.24
32887	-0.701	-0.327	-0.22	-4.55	74.2	-136.78
32912	-0.681	-0.258	-0.232	-5.32	71.19	-134.75
32932	-0.658	-0.246	-0.309	-3.64	73.5	-129.29
32952	-0.63	-0.428	-0.383	-4.83	69.23	-121.66
32969	-0.604	-0.575	-0.459	-9.73	71.68	-117.39
32989	-0.628	-0.695	-0.393	-10.85	79.03	-116.27
33008	-0.625	-0.705	-0.423	-3.5	78.61	-112.21
33028	-0.567	-0.719	-0.516	2.59	83.72	-108.78
33048	-0.547	-0.695	-0.535	7.49	86.24	-103.46
33069	-0.53	-0.702	-0.429	6.72	87.64	-97.58
33093	-0.53	-0.711	-0.421	19.6	81.9	-93.45
33111	-0.444	-0.783	-0.472	32.13	81.48	-87.22
33134	-0.357	-0.861	-0.539	25.48	80.29	-79.31
33155	-0.252	-0.831	-0.558	16.94	73.08	-77.98
33174	-0.18	-0.838	-0.575	11.83	68.25	-77.35
33193	-0.244	-0.914	-0.514	5.11	60.69	-75.67
33217	-0.333	-0.929	-0.502	1.89	44.59	-68.6
33235	-0.369	-0.875	-0.618	5.81	41.02	-60.69
33259	-0.302	-0.862	-0.644	5.6	41.93	-45.01
33279	-0.227	-0.889	-0.614	3.64	37.94	-34.72
33298	-0.11	-0.933	-0.62	1.26	35.63	-30.94
33318	-0.07	-0.924	-0.666	1.26	34.37	-27.79
33342	-0.101	-0.947	-0.68	-2.45	31.71	-20.72
33361	-0.101	-0.987	-0.794	-8.05	29.4	-16.8
33384	-0.043	-1.02	-0.76	-14.84	30.87	-11.27
33408	-0.096	-1.033	-0.741	-12.18	23.8	-4.2
33427	-0.131	-1.022	-0.765	-6.65	21.84	4.97
33448	-0.138	-1.032	-0.775	-5.46	19.32	12.32
33469	-0.092	-1.064	-0.802	-4.9	15.33	15.82
33486	-0.085	-1.084	-0.82	-2.17	11.2	19.74
33509	-0.09	-1.089	-0.826	-0.49	6.16	27.86
33530	-0.12	-1.085	-0.771	-2.03	-3.5	36.33
33549	-0.177	-1.037	-0.753	-3.29	-12.32	43.89
33570	-0.227	-0.967	-0.757	-5.39	-23.1	53.06
33590	-0.253	-0.924	-0.758	-8.47	-29.96	62.44
33613	-0.254	-0.921	-0.732	-11.69	-39.06	71.82
33633	-0.269	-0.921	-0.684	-12.53	-47.95	77.77
33653	-0.298	-0.909	-0.661	-11.41	-57.47	84.0
33676	-0.327	-0.879	-0.672	-12.18	-63.91	90.58
33695	-0.356	-0.813	-0.649	-15.26	-67.48	95.27
33718	-0.379	-0.749	-0.61	-18.34	-70.14	100.24
33740	-0.417	-0.669	-0.569	-21.84	-74.62	105.21
33759	-0.445	-0.615	-0.576	-26.11	-77.7	108.43
33778	-0.462	-0.585	-0.628	-30.24	-79.38	110.6
33798	-0.47	-0.57	-0.612	-35.84	-77.21	112.42
33821	-0.528	-0.526	-0.53	-36.82	-76.65	113.68
33842	-0.609	-0.471	-0.479	-34.86	-79.31	114.66
33857	-0.628	-0.423	-0.356	-31.71	-82.25	115.29
33880	-0.646	-0.376	-0.498	-30.45	-88.69	118.51
33902	-0.639	-0.346	-0.447	-28.35	-84.0	120.26
33917	-0.676	-0.34	-0.371	-25.69	-84.14	122.01
33942	-0.728	-0.363	-0.352	-22.89	-87.29	121.52
33962	-0.735	-0.353	-0.373	-21.07	-87.99	117.53
33983	-0.739	-0.271	-0.367	-20.3	-83.44	112.63
34001	-0.765	-0.202	-0.348	-21.14	-82.04	110.67
34022	-0.773	-0.176	-0.331	-20.09	-82.04	108.71
34046	-0.778	-0.139	-0.342	-21.91	-82.04	105.0
34066	-0.743	-0.125	-0.3	-22.82	-74.55	99.12
34085	-0.763	-0.085	-0.217	-19.11	-67.62	92.61
34109	-0.813	-0.007	-0.158	-9.8	-65.8	86.17
34128	-0.872	0.021	-0.186	-8.47	-70.84	83.58
34148	-0.865	0.035	-0.288	-8.96	-71.33	80.78
34172	-0.826	0.026	-0.313	-9.59	-62.16	74.76
34192	-0.838	0.009	-0.304	-7.77	-47.25	67.27
34209	-0.879	0.009	-0.263	-7.14	-38.85	61.11
34232	-0.892	0.053	-0.212	-6.3	-30.31	51.03
34251	-0.907	0.09	-0.154	-7.49	-27.58	42.63
34271	-0.921	0.134	-0.126	-7.84	-27.3	34.65
34296	-0.926	0.148	-0.14	-6.65	-24.92	27.86
34316	-0.917	0.146	-0.14	-4.97	-20.79	23.52
34337	-0.902	0.132	-0.119	-4.06	-17.22	16.66
34353	-0.877	0.111	-0.125	-3.15	-14.14	9.94
34372	-0.872	0.102	-0.119	0.07	-6.3	1.05
34397	-0.897	0.097	-0.099	4.41	-1.4	-8.89
34417	-0.92	0.119	-0.095	7.35	-2.03	-15.61
34435	-0.877	0.126	-0.104	12.11	5.32	-23.24
34459	-0.887	0.121	-0.185	12.04	10.29	-31.85
34475	-0.893	0.081	-0.155	12.25	17.71	-39.13
34499	-0.907	0.071	-0.128	16.66	22.54	-51.31
34519	-0.912	0.05	-0.106	20.44	25.41	-59.57
34538	-0.907	0.005	-0.124	21.84	26.88	-68.95
34556	-0.881	-0.057	-0.166	22.82	30.24	-77.14
34575	-0.859	-0.089	-0.193	24.08	36.61	-86.8
34598	-0.844	-0.114	-0.193	25.97	46.55	-98.35
34616	-0.842	-0.134	-0.197	27.79	52.08	-106.4
34636	-0.827	-0.172	-0.202	30.24	56.91	-114.45
34660	-0.814	-0.201	-0.209	32.69	59.99	-121.03
34680	-0.803	-0.226	-0.216	33.18	61.74	-124.67
34698	-0.78	-0.265	-0.242	34.86	65.73	-128.45
34719	-0.78	-0.259	-0.244	35.49	69.86	-131.6
34744	-0.772	-0.324	-0.219	34.09	71.68	-135.03
34762	-0.731	-0.372	-0.243	36.96	67.34	-136.71
34782	-0.702	-0.416	-0.301	36.89	63.77	-138.53
34807	-0.765	-0.429	-0.323	22.05	61.46	-137.62
34826	-0.789	-0.43	-0.258	13.58	61.18	-137.62
34845	-0.681	-0.446	-0.384	17.64	59.15	-136.15
34865	-0.584	-0.524	-0.443	23.03	68.32	-132.72
34884	-0.611	-0.588	-0.369	22.96	68.67	-126.49
34910	-0.646	-0.644	-0.266	14.07	56.77	-119.77
34927	-0.585	-0.651	-0.374	15.82	51.59	-115.71
34949	-0.483	-0.743	-0.436	24.57	57.61	-111.02
34967	-0.444	-0.824	-0.467	20.65	54.95	-107.8
34991	-0.417	-0.895	-0.414	23.38	51.1	-109.13
35011	-0.429	-0.864	-0.515	14.28	51.03	-103.11
35031	-0.46	-0.862	-0.4	13.93	47.11	-95.83
35051	-0.487	-0.92	-0.467	16.73	35.42	-87.22
35071	-0.413	-1.023	-0.562	16.31	31.71	-79.1
35089	-0.384	-1.034	-0.568	13.86	32.62	-71.33
35109	-0.375	-0.967	-0.505	11.83	31.01	-62.09
35133	-0.332	-0.905	-0.466	12.25	29.26	-52.43
35153	-0.288	-0.871	-0.481	9.66	23.24	-46.62
35172	-0.223	-0.93	-0.538	3.01	21.84	-39.9
35194	-0.171	-0.999	-0.539	-5.32	20.86	-33.04
35210	-0.123	-1.025	-0.522	-8.12	21.7	-28.21
35229	-0.11	-1.005	-0.516	-10.64	23.24	-24.29
35254	-0.104	-0.963	-0.567	-11.97	24.43	-20.3
35274	-0.118	-0.963	-0.611	-16.52	25.2	-18.27
35289	-0.122	-0.997	-0.603	-20.72	25.62	-15.4
35314	-0.141	-1.018	-0.573	-18.62	22.4	-9.1
35329	-0.151	-1.026	-0.591	-16.31	22.05	-4.83
35354	-0.146	-1.073	-0.633	-12.53	22.12	-1.12
35372	-0.186	-1.078	-0.62	-7.84	19.74	2.45
35396	-0.219	-1.07	-0.596	-0.07	14.35	11.69
35416	-0.18	-1.103	-0.591	5.32	12.04	17.92
35434	-0.181	-1.16	-0.583	9.94	4.69	22.54
35458	-0.23	-1.115	-0.612	13.51	-10.43	33.32
35477	-0.252	-1.066	-0.631	11.69	-19.25	42.42
35497	-0.285	-1.007	-0.675	4.48	-28.21	52.5
35520	-0.275	-0.979	-0.701	-4.83	-33.74	62.79
35541	-0.325	-0.9	-0.642	-17.57	-41.93	73.64
35560	-0.348	-0.897	-0.59	-25.41	-46.55	82.53
35579	-0.396	-0.894	-0.49	-29.61	-57.05	91.07
35596	-0.439	-0.897	-0.5	-30.17	-63.84	95.62
35621	-0.475	-0.829	-0.511	-28.14	-69.72	102.27
35641	-0.486	-0.765	-0.534	-28.91	-71.61	106.68
35658	-0.622	-0.716	-0.512	-31.22	-71.89	110.39
35682	-0.528	-0.681	-0.471	-31.71	-75.04	113.75
35703	-0.561	-0.641	-0.481	-31.15	-77.49	117.11
35722	-0.576	-0.604	-0.448	-31.08	-76.58	119.35
35742	-0.624	-0.543	-0.43	-31.78	-79.45	120.61
35761	-0.643	-0.489	-0.416	-33.6	-82.18	122.15
35783	-0.677	-0.459	-0.427	-32.55	-85.47	123.48
35802	-0.68	-0.453	-0.425	-32.69	-84.28	124.67
35826	-0.697	-0.42	-0.362	-31.99	-87.5	125.93
35846	-0.741	-0.392	-0.342	-31.22	-89.11	125.23
35866	-0.83	-0.379	-0.316	-30.45	-94.29	123.97
35890	-0.811	-0.362	-0.353	-28.14	-97.65	123.9
35910	-0.748	-0.344	-0.337	-26.67	-91.84	121.94
35929	-0.723	-0.282	-0.276	-23.8	-87.15	119.21
35951	-0.725	-0.232	-0.209	-22.47	-83.93	115.08
35970	-0.735	-0.185	-0.21	-21.28	-81.9	111.37
35990	-0.709	-0.157	-0.247	-20.44	-74.69	105.49
36008	-0.691	-0.117	-0.265	-22.68	-66.64	100.87
36028	-0.673	-0.074	-0.257	-26.88	-57.33	93.8
36048	-0.696	-0.013	-0.224	-27.02	-45.01	85.4
36072	-0.793	0.034	-0.19	-30.17	-36.75	78.54
36092	-0.852	0.041	-0.161	-23.73	-30.8	73.22
36112	-0.922	0.06	-0.197	-23.45	-28.35	66.85
36135	-0.939	0.068	-0.143	-24.5	-17.85	58.59
36156	-1.002	0.126	-0.062	-18.76	-13.65	51.94
36176	-1.04	0.198	-0.04	-17.36	-13.86	51.87
36194	-1.043	0.16	-0.039	-14.14	-15.75	50.33
36215	-1.015	0.119	-0.08	-11.2	-16.59	43.82
36234	-0.961	0.104	-0.118	-9.1	-15.12	32.62
36259	-0.915	0.113	-0.132	-7.7	-9.73	19.88
36277	-0.883	0.157	-0.132	-5.95	-5.32	11.55
36297	-0.864	0.162	-0.098	-1.82	-1.75	2.66
36319	-0.875	0.16	-0.091	3.22	-1.19	-5.88
36337	-0.897	0.164	-0.103	5.6	2.8	-14.35
36356	-0.917	0.171	-0.096	7.49	6.93	-23.8
36376	-0.9	0.201	-0.246	9.45	10.78	-30.52
36396	-0.887	0.18	-0.143	11.76	15.12	-38.43
36419	-0.876	0.15	-0.14	14.98	20.16	-46.76
36439	-0.878	0.096	-0.148	18.41	25.62	-54.32
36463	-0.879	0.027	-0.166	22.19	31.01	-66.36
36483	-0.876	0.008	-0.164	27.72	34.93	-75.6
36503	-0.877	-0.015	-0.17	32.06	37.73	-84.98
36527	-0.856	-0.056	-0.18	34.44	41.79	-95.27
36547	-0.834	-0.125	-0.19	37.31	45.36	-105.42
36563	-0.823	-0.155	-0.197	37.17	48.23	-112.98
36583	-0.821	-0.204	-0.206	36.26	51.59	-120.96
36608	-0.804	-0.234	-0.216	40.25	55.44	-128.73
36627	-0.818	-0.2	-0.226	40.88	56.21	-133.21
36646	-0.853	-0.255	-0.237	40.81	56.63	-137.76
36666	-0.835	-0.284	-0.287	37.24	66.85	-141.61
36686	-0.782	-0.343	-0.305	34.72	74.2	-145.18
36709	-0.777	-0.397	-0.242	35.35	72.94	-147.91
36725	-0.791	-0.452	-0.305	29.96	67.55	-145.81
36749	-0.796	-0.549	-0.277	21.56	66.29	-144.34
36766	-0.772	-0.524	-0.298	21.7	66.64	-142.31
36789	-0.673	-0.53	-0.347	23.94	73.92	-139.44
36811	-0.654	-0.523	-0.341	27.65	76.79	-133.49
36835	-0.652	-0.53	-0.346	23.38	71.19	-125.72
36854	-0.62	-0.584	-0.358	14.42	71.12	-120.4
36875	-0.585	-0.614	-0.422	17.71	69.51	-112.42
36895	-0.508	-0.665	-0.511	12.32	72.8	-105.49
36915	-0.402	-0.724	-0.478	2.24	79.8	-101.15
36932	-0.375	-0.697	-0.442	-4.76	84.0	-97.44
36956	-0.407	-0.72	-0.404	-8.68	81.13	-90.16
36974	-0.412	-0.73	-0.494	-6.72	73.57	-88.13
36994	-0.369	-0.75	-0.568	-6.58	70.28	-85.05
37018	-0.32	-0.907	-0.57	-6.86	58.94	-73.64
37038	-0.284	-1.109	-0.541	5.6	50.75	-67.9
37061	-0.282	-1.115	-0.542	9.66	46.48	-61.32
37079	-0.293	-1.006	-0.548	10.99	45.78	-57.19
37102	-0.275	-0.902	-0.569	8.12	44.17	-50.82
37122	-0.197	-0.886	-0.576	-4.13	38.57	-45.92
37143	-0.076	-0.914	-0.63	-6.93	35.7	-43.26
37162	-0.049	-0.937	-0.62	-10.01	36.19	-36.61
37184	-0.075	-0.983	-0.658	-16.1	34.72	-28.0
37205	-0.054	-0.971	-0.693	-21.07	35.49	-20.3
37224	-0.058	-1.045	-0.745	-25.69	34.72	-14.7
37248	-0.104	-1.128	-0.679	-22.12	26.74	-8.89
37264	-0.146	-1.191	-0.723	-16.59	17.43	-2.73
37286	-0.147	-1.125	-0.755	-13.09	11.97	6.37
37309	-0.132	-1.023	-0.758	-11.9	2.73	18.34
37330	-0.106	-0.997	-0.782	-13.44	-6.79	29.96
37349	-0.101	-1.01	-0.779	-16.17	-16.24	41.09
37374	-0.125	-1.006	-0.762	-20.37	-28.14	53.27
37393	-0.175	-0.99	-0.741	-21.56	-38.43	63.0
37410	-0.229	-0.954	-0.754	-22.61	-46.55	70.98
37431	-0.264	-0.967	-0.743	-24.15	-52.99	80.08
37454	-0.308	-0.934	-0.737	-25.13	-59.85	89.81
37473	-0.349	-0.87	-0.701	-27.44	-68.04	99.82
37491	-0.405	-0.772	-0.678	-31.43	-73.92	108.01
37515	-0.427	-0.702	-0.632	-35.77	-78.26	118.51
37535	-0.443	-0.663	-0.619	-42.98	-83.37	123.13
37552	-0.462	-0.621	-0.587	-47.67	-87.64	124.74
37576	-0.498	-0.589	-0.59	-51.03	-94.15	125.16
37595	-0.522	-0.532	-0.596	-49.84	-93.8	125.79
37614	-0.54	-0.458	-0.567	-50.12	-90.23	129.08
37639	-0.576	-0.404	-0.521	-50.89	-89.74	130.69
37659	-0.614	-0.346	-0.495	-54.95	-91.56	131.32
37675	-0.657	-0.347	-0.471	-55.86	-93.59	131.04
37694	-0.692	-0.361	-0.458	-55.72	-96.67	129.92
37719	-0.717	-0.399	-0.51	-54.6	-100.24	126.7
37739	-0.721	-0.353	-0.457	-49.56	-95.55	121.94
37754	-0.758	-0.316	-0.468	-46.83	-95.13	120.4
37775	-0.783	-0.297	-0.394	-44.87	-90.44	114.66
37798	-0.797	-0.236	-0.305	-41.86	-92.33	107.03
37819	-0.833	-0.144	-0.321	-37.31	-95.62	105.91
37842	-0.83	-0.117	-0.357	-34.72	-93.17	105.0
37863	-0.778	-0.1	-0.389	-31.78	-88.27	99.19
37884	-0.71	-0.081	-0.357	-32.2	-79.52	91.49
37902	-0.701	-0.036	-0.332	-28.84	-70.77	83.02
37922	-0.715	0.02	-0.308	-25.2	-62.23	76.79
37940	-0.752	0.047	-0.258	-20.23	-56.98	69.93
37964	-0.794	0.083	-0.227	-18.62	-50.89	61.53
37983	-0.825	0.11	-0.222	-17.15	-48.02	55.02
38000	-0.859	0.141	-0.212	-13.79	-44.66	49.49
38019	-0.882	0.165	-0.208	-9.87	-39.55	43.54
38041	-0.895	0.192	-0.192	-6.16	-32.48	37.45
38065	-0.907	0.211	-0.183	-3.15	-26.04	31.36
38084	-0.9	0.206	-0.158	-1.33	-20.79	25.97
38101	-0.895	0.21	-0.127	-0.28	-17.5	20.79
38124	-0.912	0.239	-0.122	4.97	-16.17	14.7
38145	-0.929	0.253	-0.118	8.75	-14.63	7.56
38162	-0.925	0.238	-0.129	8.75	-10.92	0.14
38183	-0.921	0.218	-0.128	10.78	-8.19	-9.59
38201	-0.907	0.215	-0.149	12.81	-4.27	-18.06
38225	-0.936	0.242	-0.138	14.42	-1.89	-27.72
38246	-0.925	0.242	-0.146	16.66	0.35	-34.16
38264	-0.913	0.209	-0.151	18.62	4.55	-39.9
38288	-0.916	0.176	-0.139	21.28	9.24	-50.33
38307	-0.929	0.153	-0.139	24.29	8.75	-57.75
38332	-0.908	0.148	-0.168	29.26	13.79	-68.11
38351	-0.927	0.109	-0.167	31.43	13.65	-74.69
38371	-0.888	0.059	-0.203	31.85	18.41	-83.86
38395	-0.891	0.026	-0.202	35.0	22.89	-93.94
38410	-0.882	-0.019	-0.22	36.68	27.65	-100.8
38436	-0.882	-0.088	-0.21	37.59	34.65	-112.63
38454	-0.859	-0.138	-0.245	38.78	42.7	-121.52
38474	-0.829	-0.165	-0.256	39.97	50.96	-130.76
38493	-0.813	-0.183	-0.238	42.98	55.79	-138.81
38517	-0.811	-0.196	-0.232	43.05	63.28	-145.46
38537	-0.821	-0.258	-0.175	44.17	65.73	-147.84
38561	-0.799	-0.291	-0.161	40.46	65.38	-149.1
38580	-0.752	-0.287	-0.213	45.36	62.79	-150.08
38600	-0.699	-0.275	-0.285	45.85	65.8	-150.29
38618	-0.684	-0.379	-0.243	29.54	70.77	-148.12
38638	-0.671	-0.449	-0.208	20.79	69.3	-149.31
38658	-0.59	-0.444	-0.285	19.67	68.39	-146.02
38677	-0.517	-0.502	-0.346	15.75	74.13	-140.0
38701	-0.488	-0.581	-0.399	4.62	77.7	-132.86
38721	-0.468	-0.695	-0.413	-14.56	80.5	-129.01
38744	-0.456	-0.62	-0.439	-22.89	84.28	-125.58
38763	-0.459	-0.606	-0.485	-25.48	89.18	-119.07
38784	-0.438	-0.697	-0.441	-25.55	93.1	-112.63
38802	-0.455	-0.796	-0.488	-27.51	88.9	-103.32
38826	-0.407	-0.867	-0.485	-27.65	86.52	-93.24
38846	-0.377	-0.834	-0.414	-14.63	88.2	-81.97
38871	-0.348	-0.83	-0.518	-4.9	75.88	-70.35
38888	-0.235	-0.844	-0.537	4.06	72.31	-70.0
38912	-0.239	-0.886	-0.636	2.66	67.06	-66.01
38936	-0.258	-0.941	-0.506	1.26	57.82	-59.99
38955	-0.215	-0.993	-0.588	8.68	48.79	-53.62
38975	-0.144	-0.991	-0.681	14.77	48.3	-48.44
38999	-0.096	-0.991	-0.689	11.83	51.31	-42.77
39020	-0.079	-0.944	-0.604	6.72	49.07	-38.71
39036	-0.058	-0.891	-0.617	5.88	45.29	-35.49
39060	-0.051	-0.897	-0.65	0.84	39.13	-31.64
39079	-0.026	-0.929	-0.719	-4.34	38.08	-27.58
39103	0.007	-0.957	-0.727	-7.35	36.26	-22.19
39123	0.024	-0.992	-0.685	-6.51	34.02	-18.97
39147	-0.006	-1.009	-0.736	-7.07	30.17	-12.39
39167	-0.028	-0.99	-0.736	-10.85	23.24	-6.02
39186	0.02	-0.969	-0.753	-10.85	21.98	-1.33
39207	0.022	-0.969	-0.712	-10.29	16.38	5.81
39226	0.005	-0.995	-0.751	-9.45	8.89	12.39
39244	-0.001	-1.012	-0.77	-8.89	2.52	18.9
39268	-0.005	-1.033	-0.779	-8.68	-5.74	25.55
39289	-0.021	-1.038	-0.744	-5.81	-13.65	30.03
39308	-0.075	-0.958	-0.74	-5.46	-23.17	38.57
39326	-0.113	-0.899	-0.76	-6.58	-32.9	48.58
39346	-0.122	-0.891	-0.79	-11.62	-41.3	57.61
39367	-0.107	-0.956	-0.795	-19.39	-46.34	63.98
39392	-0.114	-0.969	-0.73	-24.36	-54.46	68.81
39409	-0.176	-0.92	-0.746	-27.65	-61.04	73.85
39432	-0.222	-0.846	-0.652	-24.85	-67.48	79.03
39453	-0.285	-0.802	-0.729	-25.13	-72.38	84.56
39473	-0.334	-0.751	-0.624	-29.12	-76.23	91.63
39490	-0.386	-0.705	-0.609	-30.38	-83.93	97.79
39514	-0.405	-0.673	-0.637	-30.59	-88.9	105.14
39533	-0.419	-0.674	-0.638	-30.45	-89.67	107.8
39553	-0.442	-0.634	-0.625	-30.17	-89.95	109.34
39573	-0.474	-0.599	-0.601	-30.03	-91.49	110.6
39597	-0.503	-0.568	-0.57	-29.68	-90.65	111.44
39617	-0.573	-0.53	-0.484	-29.12	-94.15	112.42
39636	-0.607	-0.521	-0.473	-28.35	-97.09	112.56
39654	-0.626	-0.501	-0.475	-27.23	-101.85	111.65
39676	-0.627	-0.445	-0.491	-22.26	-102.34	111.09
39695	-0.652	-0.417	-0.48	-15.75	-99.4	111.23
39718	-0.703	-0.42	-0.419	-14.14	-97.86	112.07
39737	-0.715	-0.401	-0.381	-13.37	-100.94	110.81
39761	-0.712	-0.366	-0.375	-12.88	-101.08	107.17
39781	-0.722	-0.336	-0.348	-9.66	-96.25	102.9
39801	-0.747	-0.295	-0.296	-8.61	-93.94	100.52
39821	-0.748	-0.275	-0.271	-8.19	-94.29	96.81
39839	-0.728	-0.24	-0.302	-6.09	-91.91	92.12
39862	-0.698	-0.197	-0.302	0.0	-85.19	86.45
39882	-0.689	-0.16	-0.303	5.74	-77.77	82.67
39903	-0.724	-0.166	-0.262	4.13	-67.9	78.12
39922	-0.775	-0.145	-0.221	1.61	-61.32	72.03
39946	-0.802	-0.102	-0.209	0.98	-55.23	64.12
39966	-0.83	-0.071	-0.224	0.77	-51.66	57.12
39984	-0.823	-0.007	-0.211	3.85	-39.41	51.1
40005	-0.874	0.023	-0.211	0.21	-33.95	46.97
40023	-0.88	0.007	-0.155	-0.98	-24.08	42.14
40047	-0.895	-0.009	-0.121	1.75	-19.46	35.21
40067	-0.914	-0.013	-0.087	5.88	-14.63	28.14
40091	-0.935	0.009	-0.084	6.51	-15.54	19.67
40110	-0.946	0.046	-0.135	7.0	-13.93	12.39
40134	-0.934	0.099	-0.148	7.21	-4.55	1.75
40153	-0.97	0.124	-0.122	7.7	0.42	-3.64
40174	-0.997	0.114	-0.099	7.63	2.73	-9.31
40194	-1.004	0.128	-0.091	7.98	3.15	-14.28
40217	-0.993	0.145	-0.081	6.37	3.5	-19.11
40236	-0.966	0.135	-0.1	8.33	4.48	-22.12
40254	-0.957	0.092	-0.084	10.64	6.37	-25.9
40276	-0.943	0.043	-0.091	11.69	6.02	-31.85
40300	-0.936	0.038	-0.127	11.83	9.52	-41.79
40320	-0.924	0.021	-0.129	11.62	11.34	-48.93
40342	-0.912	-0.02	-0.155	12.11	13.58	-58.1
40363	-0.902	-0.073	-0.166	12.95	18.69	-67.48
40382	-0.9	-0.115	-0.158	15.12	24.99	-76.16
40406	-0.886	-0.128	-0.173	18.55	29.61	-86.8
40427	-0.846	-0.156	-0.219	19.18	37.1	-96.95
40446	-0.788	-0.201	-0.246	20.02	48.72	-104.93
40465	-0.747	-0.273	-0.219	23.24	56.77	-113.89
40484	-0.747	-0.293	-0.225	26.53	59.22	-123.13
40509	-0.72	-0.311	-0.212	32.06	63.0	-131.53
40529	-0.736	-0.327	-0.211	30.45	60.06	-136.08
40549	-0.669	-0.375	-0.262	24.64	57.26	-141.19
40572	-0.649	-0.392	-0.243	14.63	61.88	-144.69
40594	-0.647	-0.339	-0.23	9.03	63.84	-144.76
40611	-0.625	-0.336	-0.219	6.58	63.77	-140.28
40635	-0.594	-0.377	-0.26	-0.91	59.36	-130.62
40655	-0.539	-0.452	-0.418	-15.89	60.41	-124.04
40676	-0.474	-0.459	-0.58	-30.45	74.69	-118.86
40695	-0.44	-0.469	-0.611	-41.37	99.4	-111.79
40716	-0.516	-0.594	-0.469	-40.53	110.53	-107.87
40734	-0.584	-0.671	-0.388	-35.84	116.34	-103.74
40752	-0.619	-0.822	-0.412	-35.84	107.66	-97.72
40771	-0.54	-0.947	-0.478	-34.58	98.7	-101.08
40796	-0.451	-0.898	-0.536	-25.97	91.35	-108.01
40815	-0.36	-0.816	-0.642	-17.15	89.39	-108.99
40839	-0.301	-0.814	-0.651	-6.72	85.89	-102.62
40859	-0.298	-0.871	-0.63	-5.46	77.63	-94.08
40877	-0.28	-0.897	-0.659	-4.27	71.47	-84.49
40902	-0.241	-0.875	-0.652	0.21	71.26	-70.77
40921	-0.209	-0.838	-0.666	5.11	67.69	-60.9
40943	-0.168	-0.851	-0.691	8.19	60.48	-55.65
40967	-0.138	-0.886	-0.625	7.91	50.12	-51.8
40985	-0.157	-0.888	-0.628	9.59	44.52	-47.25
41009	-0.14	-0.882	-0.691	6.23	38.99	-37.73
41027	-0.058	-0.901	-0.607	3.08	33.39	-33.53
41051	-0.004	-0.931	-0.746	-2.31	27.23	-28.0
41071	0.071	-0.966	-0.674	-4.41	27.37	-25.2
41091	0.023	-0.962	-0.645	-5.46	20.51	-22.89
41114	0.004	-0.889	-0.675	-4.06	15.4	-14.84
41135	0.017	-0.856	-0.771	-4.62	15.19	-4.9
41152	0.054	-0.898	-0.787	-7.49	16.94	2.66
41177	0.083	-0.95	-0.76	-9.45	16.52	9.66
41196	0.074	-1.02	-0.761	-7.98	13.16	10.99
41213	0.046	-1.036	-0.744	-4.83	9.52	12.11
41237	0.028	-1.004	-0.761	-1.26	1.68	15.96
41255	0.01	-0.946	-0.8	-1.82	-4.34	18.9
41276	-0.053	-0.907	-0.777	-1.96	-13.86	24.64
41296	-0.099	-0.896	-0.776	-0.42	-24.71	33.53
41320	-0.131	-0.904	-0.784	-0.7	-36.75	45.43
41340	-0.156	-0.893	-0.82	-1.89	-46.83	53.48
41365	-0.159	-0.902	-0.834	-4.97	-55.09	61.53
41383	-0.172	-0.885	-0.799	-7.56	-59.36	66.01
41403	-0.228	-0.837	-0.714	-10.29	-64.05	72.31
41422	-0.318	-0.811	-0.673	-10.22	-70.49	78.82
41448	-0.366	-0.8	-0.717	-10.36	-77.21	88.13
41467	-0.413	-0.763	-0.709	-11.41	-78.47	94.5
41491	-0.448	-0.732	-0.669	-12.32	-83.23	102.34
41511	-0.483	-0.706	-0.707	-14.28	-89.39	108.71
41527	-0.473	-0.715	-0.686	-10.71	-90.09	110.53
41550	-0.499	-0.68	-0.661	-7.84	-89.88	115.22
41570	-0.529	-0.702	-0.622	-5.6	-89.04	116.2
41589	-0.56	-0.682	-0.542	-5.6	-91.49	116.2
41613	-0.585	-0.649	-0.498	-1.96	-94.5	117.11
41633	-0.569	-0.59	-0.461	6.44	-95.2	116.76
41653	-0.579	-0.558	-0.415	12.95	-96.32	118.72
41674	-0.603	-0.59	-0.405	18.97	-97.3	119.7
41692	-0.606	-0.602	-0.398	25.48	-95.55	120.12
41709	-0.611	-0.586	-0.368	31.01	-91.91	119.07
41729	-0.632	-0.547	-0.327	36.19	-92.33	117.88
41748	-0.662	-0.524	-0.315	41.02	-92.75	116.69
41773	-0.68	-0.534	-0.301	44.59	-93.45	111.23
41794	-0.707	-0.488	-0.299	47.88	-89.67	107.17
41812	-0.73	-0.458	-0.234	47.18	-88.55	103.88
41830	-0.74	-0.43	-0.214	45.85	-88.62	99.19
41849	-0.723	-0.386	-0.184	44.38	-85.61	94.36
41874	-0.721	-0.334	-0.158	44.38	-84.07	88.2
41889	-0.716	-0.298	-0.151	43.33	-82.67	85.68
41913	-0.716	-0.27	-0.12	40.53	-77.28	80.29
41936	-0.71	-0.238	-0.125	36.75	-72.87	73.64
41956	-0.712	-0.214	-0.116	28.84	-63.0	67.55
41975	-0.744	-0.175	-0.05	24.92	-57.61	60.34
41999	-0.778	-0.149	-0.036	19.88	-52.92	53.06
42019	-0.825	-0.136	0.018	11.55	-43.68	47.39
42039	-0.893	-0.122	0.071	2.45	-39.48	42.21
42059	-0.956	-0.116	0.072	-2.45	-34.86	36.47
42079	-1.011	-0.14	0.088	-9.59	-33.46	31.15
42098	-1.009	-0.151	0.09	-4.9	-34.37	28.07
42119	-0.993	-0.126	0.055	-6.93	-26.6	25.76
42138	-0.979	-0.121	0.038	-11.55	-16.66	23.1
42157	-1.002	-0.048	0.161	-14.98	-8.05	19.88
42178	-0.988	0.02	0.138	-14.84	-8.05	18.76
42198	-0.967	0.027	0.122	-14.98	-6.72	19.11
42221	-0.932	0.003	0.082	-14.28	-2.1	19.39
42242	-0.923	-0.02	0.096	-11.62	5.6	20.3
42262	-0.939	-0.024	0.115	-9.8	6.23	20.93
42282	-0.976	0.001	0.086	-9.8	8.96	21.7
42301	-0.977	0.076	0.093	-11.34	11.83	21.14
42324	-0.995	0.122	0.105	-15.19	12.46	21.35
42345	-0.979	0.125	0.089	-17.08	11.62	22.12
42362	-0.956	0.112	0.051	-15.61	14.0	21.77
42385	-0.935	0.138	0.007	-13.16	21.56	20.51
42405	-0.928	0.189	0.006	-12.32	24.64	19.39
42428	-0.934	0.252	0.013	-10.71	25.55	18.41
42449	-1.014	0.305	-0.011	-6.93	20.65	19.25
42468	-1.039	0.316	-0.03	-7.42	17.85	19.95
42492	-1.069	0.306	0.014	-7.56	14.07	18.48
42511	-1.076	0.271	0.033	-8.12	10.01	14.98
42532	-1.039	0.256	0.059	-7.42	5.32	11.48
42552	-1.037	0.243	0.034	-5.88	-0.49	8.54
42575	-1.017	0.255	0.011	-4.83	-4.76	5.46
42596	-0.978	0.235	-0.02	-6.37	-4.34	0.42
42615	-0.974	0.242	-0.003	-6.44	-5.67	-4.41
42637	-0.993	0.27	-0.047	-9.8	-8.82	-5.39
42655	-0.996	0.302	0.03	-9.87	-7.28	-5.04
42678	-1.005	0.296	-0.104	-13.86	-11.06	-2.94
42698	-0.943	0.276	-0.07	-18.2	-0.21	-3.5
42722	-0.93	0.261	-0.025	-16.59	1.26	-4.13
42740	-0.946	0.236	-0.013	-14.49	1.68	-4.13
42760	-0.982	0.228	-0.025	-11.34	1.05	-5.11
42782	-0.991	0.263	-0.015	-10.78	3.01	-6.16
42799	-0.956	0.274	0.026	-10.08	2.24	-7.56
42819	-0.929	0.285	0.023	-7.07	2.52	-8.12
42839	-0.988	0.282	0.056	-8.47	1.26	-9.52
42863	-0.967	0.266	0.042	-10.29	-1.26	-13.72
42878	-0.894	0.269	0.017	-11.97	-2.17	-16.87
42903	-0.872	0.292	-0.012	-9.52	10.78	-22.12
42923	-1.044	0.269	0.061	-7.84	16.59	-23.66
42947	-1.134	0.213	0.107	-7.56	15.61	-26.88
42967	-1.158	0.18	0.096	-8.33	9.38	-31.43
42987	-1.124	0.103	0.104	-17.01	2.31	-38.22
43002	-1.023	0.028	-0.009	-19.88	2.66	-46.2
43022	-0.956	-0.027	-0.016	-20.16	12.95	-51.66
43047	-0.943	-0.069	0.049	-6.02	22.19	-48.86
43067	-0.935	-0.204	0.051	9.66	16.03	-42.07
43085	-0.897	-0.318	-0.042	17.5	11.06	-37.66
43108	-0.924	-0.437	-0.082	20.23	10.22	-37.87
43124	-1.045	-0.398	-0.06	18.27	11.76	-39.48
43146	-1.155	-0.264	0.026	13.44	9.94	-40.6
43166	-1.204	-0.101	-0.015	8.12	1.61	-38.15
43190	-1.182	-0.043	0.037	11.06	-2.38	-27.51
43208	-1.148	-0.129	-0.049	6.3	-2.8	-17.29
43229	-1.061	-0.202	0.08	2.66	-2.52	-9.73
43245	-1.013	-0.226	0.1	3.92	-11.27	-6.44
43270	-0.935	-0.236	0.041	1.96	-19.74	-1.61
43290	-0.9	-0.237	-0.044	-1.68	-21.56	0.98
43310	-0.852	-0.238	-0.076	-6.37	-17.5	3.22
43329	-0.892	-0.263	-0.044	-8.33	-15.47	5.95
43349	-0.937	-0.272	-0.076	-6.86	-15.12	9.03
43371	-0.953	-0.258	-0.081	-7.0	-12.04	11.97
43388	-0.951	-0.264	-0.053	-5.74	-7.63	12.88
43409	-0.951	-0.262	-0.002	-7.28	-4.9	14.56
43428	-0.946	-0.267	0.001	-9.17	-6.72	15.26
43452	-0.913	-0.252	-0.005	-10.92	-5.18	15.05
43474	-0.897	-0.234	0.004	-12.67	-3.15	16.17
43492	-0.903	-0.215	0.038	-14.14	-1.82	17.57
43516	-0.996	-0.214	0.042	-11.2	-5.46	19.18
43534	-1.19	-0.186	-0.003	-3.85	-14.14	20.65
43556	-1.139	-0.129	-0.307	10.15	8.33	20.79
43575	-0.891	0.204	-0.111	22.4	55.79	24.99
43594	-0.954	0.224	0.084	19.18	57.82	22.54
43618	-1.007	0.221	0.178	8.61	26.88	12.74
43638	-0.829	0.276	-0.083	9.38	15.82	0.07
43656	-0.814	0.339	-0.133	6.3	20.93	-7.21
43680	-0.881	0.285	-0.159	-2.45	35.35	-12.32
43698	-0.936	0.251	-0.097	-1.75	38.57	-12.67
43719	-0.871	0.261	-0.041	-0.28	35.91	-8.82
43742	-0.746	0.2	-0.059	0.77	45.36	-9.03
43762	-0.654	0.106	0.027	4.55	43.61	-8.61
43786	-0.541	0.046	-0.014	10.29	41.79	-8.54
43806	-0.492	0.051	-0.126	12.88	41.79	-3.99
43826	-0.41	0.057	-0.176	5.81	59.43	1.12
43845	-0.53	0.057	-0.132	-7.21	62.93	4.34
43868	-0.622	0.083	-0.093	-14.98	69.65	2.59
43888	-0.712	0.106	-0.012	-8.96	67.83	1.4
43908	-0.712	0.017	-0.079	-6.72	61.53	-0.56
43928	-0.677	-0.054	-0.145	-9.38	55.93	0.14
43948	-0.619	-0.077	-0.246	-8.4	57.19	1.05
43968	-0.576	-0.049	-0.203	-6.3	62.44	0.91
43988	-0.602	-0.014	-0.189	-3.29	54.67	0.77
44012	-0.669	0.022	-0.253	-6.37	48.79	2.45
44032	-0.772	-0.006	-0.355	-7.42	46.97	2.24
44052	-0.877	-0.024	-0.377	-6.23	45.29	1.75
44073	-1.001	-0.023	-0.4	-3.64	43.82	2.03
44091	-1.098	-0.044	-0.446	-0.07	42.14	0.0
44114	-1.137	-0.107	-0.454	-1.26	42.84	-4.83
44138	-1.114	-0.074	-0.477	2.87	39.27	-9.73
44158	-1.061	0.008	-0.57	4.76	41.65	-10.29
44178	-1.075	0.001	-0.562	3.36	39.48	-11.41
44201	-1.075	-0.021	-0.589	2.87	33.32	-11.9
44222	-1.071	-0.021	-0.595	2.87	31.64	-11.97
44240	-1.119	-0.039	-0.629	-1.4	28.0	-12.04
44259	-1.129	-0.043	-0.606	-2.59	21.56	-10.99
44279	-1.089	-0.02	-0.615	1.54	17.29	-8.47
44299	-1.073	-0.01	-0.58	2.8	16.24	-5.74
44319	-1.072	-0.032	-0.593	2.1	11.41	-4.55
44343	-0.996	-0.03	-0.604	-3.71	12.25	-3.57
44362	-0.991	0.014	-0.557	-5.18	9.45	1.26
44382	-1.012	0.087	-0.623	-5.88	0.28	8.12
44403	-0.961	0.007	-0.685	-4.69	2.94	15.47
44426	-0.928	-0.109	-0.643	-6.72	4.76	12.25
44448	-0.955	-0.165	-0.583	-9.52	5.25	3.85
44467	-0.996	-0.129	-0.51	-7.35	-0.84	-4.62
44491	-0.962	-0.059	-0.518	0.07	-16.45	-11.9
44508	-0.9	-0.034	-0.591	3.22	-19.95	-10.99
44531	-0.893	-0.037	-0.62	0.42	-15.82	-6.16
44552	-1.035	-0.051	-0.561	-4.06	-14.91	-3.71
44572	-1.194	-0.036	-0.745	-7.21	-24.85	-1.75
44591	-1.194	-0.043	-0.745	-6.37	-24.85	-0.91
44611	-1.201	-0.057	-0.777	-1.4	-25.55	0.0
44631	-1.223	-0.028	-0.895	0.7	-20.3	-0.07
44655	-1.315	0.012	-0.907	-1.19	-14.0	-0.35
44673	-1.367	0.001	-0.907	-0.56	-13.37	-2.45
44697	-1.349	-0.001	-0.884	5.11	-8.05	-4.48
44717	-1.357	-0.046	-0.914	6.23	1.75	-0.7
44734	-1.374	-0.031	-0.862	7.42	7.07	0.98
44758	-1.392	0.028	-0.784	11.34	4.27	6.37
44777	-1.348	0.023	-0.819	13.44	1.54	6.58
44798	-1.286	0.0	-0.78	10.43	2.59	4.06
44823	-1.256	-0.029	-0.68	5.53	-1.47	-1.68
44842	-1.204	-0.001	-0.657	6.23	-7.49	-1.47
44866	-1.161	0.008	-0.656	7.14	-13.23	1.4
44891	-1.068	-0.021	-0.662	5.11	-15.33	3.22
44910	-1.014	-0.041	-0.61	1.47	-16.59	3.43
44929	-1.014	-0.039	-0.583	-0.63	-20.93	2.87
44949	-1.027	-0.035	-0.574	1.47	-24.5	2.17
44972	-1.023	-0.016	-0.551	5.18	-27.65	3.57
44991	-0.989	-0.02	-0.505	4.9	-28.56	4.13
45012	-0.983	-0.016	-0.441	0.49	-34.65	4.48
45035	-0.981	0.009	-0.444	-1.19	-42.07	5.32
45056	-0.974	0.019	-0.427	-0.35	-44.8	6.37
45075	-0.912	0.012	-0.395	-1.12	-44.94	8.47
45093	-0.871	-0.037	-0.354	-3.99	-42.91	8.61
45117	-0.858	-0.012	-0.286	-5.74	-45.5	8.75
45137	-0.847	0.037	-0.299	-7.84	-56.21	7.42
45157	-0.794	0.057	-0.226	-5.11	-52.92	8.12
45177	-0.812	0.011	-0.226	-7.49	-55.3	11.41
45192	-0.803	-0.029	-0.142	-6.79	-51.52	12.6
45217	-0.786	-0.006	-0.055	-2.03	-56.91	14.0
45238	-0.794	0.018	-0.102	0.56	-64.47	14.07
45257	-0.784	0.05	-0.229	-1.33	-72.17	14.56
45277	-0.742	0.064	-0.227	-5.67	-66.36	15.47
45297	-0.709	0.042	-0.061	-6.72	-61.6	15.68
45314	-0.692	0.026	0.035	-4.62	-62.93	16.59
45337	-0.664	-0.004	0.05	-4.41	-67.62	15.89
45357	-0.586	-0.005	-0.004	-1.47	-67.97	14.07
45378	-0.523	0.037	-0.017	-0.84	-65.73	12.88
45393	-0.553	0.09	-0.079	-2.73	-64.68	12.88
45418	-0.627	0.107	-0.126	-5.6	-53.41	12.11
45438	-0.669	0.084	0.01	-9.17	-49.21	11.62
45462	-0.613	0.044	0.05	-9.03	-50.89	10.15
45482	-0.574	0.024	0.003	-7.84	-51.24	7.14
45501	-0.592	0.041	-0.093	-5.67	-44.17	5.11
45521	-0.639	0.073	-0.11	-4.2	-32.48	3.92
45544	-0.674	0.078	-0.124	-3.29	-22.68	3.99
45565	-0.712	0.039	-0.086	-2.38	-12.39	3.01
45584	-0.834	0.038	-0.055	0.07	-8.68	1.54
45605	-0.962	0.05	-0.068	1.89	-8.47	-0.42
45625	-1.028	0.095	-0.109	3.64	9.52	-1.89
45649	-1.022	0.081	-0.067	1.47	17.5	-4.55
45668	-0.991	0.058	0.041	2.17	14.91	-7.56
45689	-0.903	0.063	0.01	5.32	14.84	-9.66
45711	-0.85	0.086	-0.025	5.39	13.93	-10.22
45734	-0.804	0.105	-0.068	4.27	15.96	-10.43
45752	-0.769	0.116	-0.066	4.55	20.44	-10.43
45775	-0.739	0.102	-0.038	7.84	27.09	-9.87
45799	-0.666	0.075	0.009	9.17	33.46	-9.73
45816	-0.598	0.067	-0.005	8.61	33.95	-10.29
45840	-0.539	0.067	-0.072	9.31	41.44	-11.48
45855	-0.515	0.065	-0.043	6.58	45.08	-11.97
45880	-0.51	0.078	-0.042	5.81	49.84	-11.9
45900	-0.557	0.138	-0.044	8.47	52.29	-9.66
45920	-0.588	0.161	-0.074	11.76	56.07	-8.4
45939	-0.625	0.163	-0.102	11.62	55.09	-6.58
45957	-0.651	0.135	-0.165	12.32	57.61	-5.74
45980	-0.705	0.072	-0.094	9.17	64.4	-5.95
46000	-0.785	0.086	-0.127	8.61	60.41	-5.67
46024	-0.826	0.084	-0.151	10.71	64.19	-7.56
46043	-0.885	0.099	-0.151	10.29	62.93	-8.05
46067	-0.881	0.081	-0.186	6.65	61.04	-7.49
46087	-0.852	0.095	-0.193	2.17	64.26	-7.84
46105	-0.876	0.053	-0.269	-1.4	61.67	-8.89
46124	-0.894	0.025	-0.252	-5.18	63.21	-10.71
46150	-0.941	0.045	-0.296	-6.72	61.74	-10.99
46169	-0.964	0.048	-0.353	-8.47	59.71	-10.5
46190	-0.916	-0.004	-0.41	-8.12	54.67	-9.59
46208	-0.968	-0.05	-0.46	-8.96	49.49	-10.01
46229	-1.006	-0.087	-0.517	-9.38	46.27	-12.74
46249	-1.069	-0.033	-0.531	-8.26	46.9	-15.61
46268	-1.127	0.057	-0.483	-6.72	45.01	-14.28
46293	-1.172	0.082	-0.478	-4.83	36.12	-9.38
46312	-1.147	0.04	-0.506	-5.74	26.11	-5.81
46331	-1.094	-0.021	-0.591	-5.95	20.86	-4.69
46355	-1.065	-0.043	-0.639	-3.85	19.6	-4.83
46375	-1.053	-0.004	-0.638	-4.48	22.47	-4.34
46397	-1.049	0.02	-0.603	-7.0	18.97	-3.22
46417	-1.028	0.009	-0.591	-6.72	15.05	-3.71
46438	-1.055	-0.005	-0.573	-6.23	10.64	-5.39
46460	-1.069	0.015	-0.573	-7.84	4.69	-5.25
46482	-1.017	0.044	-0.603	-4.55	0.84	-3.43
46502	-0.975	0.048	-0.683	-0.63	-3.15	0.21
46522	-0.941	0.005	-0.732	-4.69	1.96	1.26
46542	-0.963	-0.02	-0.608	-6.16	7.77	-0.84
46560	-1.009	-0.012	-0.539	-4.2	4.06	-2.38
46582	-1.056	0.0	-0.536	-1.05	-5.53	-2.45
46604	-1.06	0.004	-0.784	2.24	-10.01	-0.77
46625	-1.069	-0.035	-0.869	2.03	-4.62	-0.91
46643	-1.124	-0.066	-0.846	1.19	6.44	-2.59
46662	-1.25	-0.066	-0.766	1.4	9.17	-4.41
46686	-1.356	-0.03	-0.773	4.2	0.21	-5.18
46704	-1.353	0.037	-0.9	7.98	-3.78	-3.57
46725	-1.306	0.041	-1.001	10.71	3.15	-2.73
46746	-1.339	-0.015	-0.927	9.87	10.08	-3.08
46765	-1.38	-0.042	-0.782	10.01	7.21	-5.95
46790	-1.378	-0.027	-0.835	11.2	-3.08	-8.61
46809	-1.338	0.026	-0.811	10.43	-6.3	-7.49
46830	-1.262	0.085	-0.809	8.47	-10.5	-3.29
46852	-1.212	0.067	-0.811	3.36	-11.76	-0.21
46871	-1.193	0.011	-0.767	0.21	-12.95	1.26
46895	-1.159	-0.008	-0.718	0.35	-15.4	2.87
46916	-1.118	0.004	-0.684	1.75	-19.39	4.41
46935	-1.082	0.028	-0.639	0.42	-26.6	5.6
46957	-1.075	0.029	-0.623	-1.47	-33.04	7.49
46979	-1.071	0.031	-0.606	0.63	-38.85	7.98
47000	-1.055	0.043	-0.599	-0.28	-46.06	10.08
47018	-1.035	0.012	-0.586	-4.76	-45.22	10.43
47038	-1.027	0.014	-0.482	-4.69	-46.9	9.03
47060	-1.031	0.02	-0.397	-2.73	-52.85	9.03
47081	-1.01	0.01	-0.368	-5.6	-59.57	8.26
47102	-0.993	0.013	-0.362	-7.77	-65.87	6.65
47122	-0.953	0.049	-0.357	-2.03	-65.66	6.86
47139	-0.92	0.086	-0.271	-2.24	-62.3	8.54
47158	-0.881	0.06	-0.199	-3.92	-66.29	9.94
47178	-0.82	0.023	-0.197	-5.25	-70.49	10.92
47202	-0.747	0.032	-0.23	-5.53	-70.28	10.92
47224	-0.707	0.036	-0.126	-8.33	-68.67	9.1
47243	-0.685	0.055	-0.108	-8.89	-70.7	6.79
47260	-0.63	0.052	-0.089	-8.12	-70.7	7.49
47284	-0.558	0.043	-0.092	-4.41	-68.88	9.1
47304	-0.521	0.007	-0.1	0.63	-64.12	8.47
47322	-0.529	0.012	-0.093	0.28	-61.88	7.42
47345	-0.543	-0.003	-0.05	2.1	-60.76	4.9
47363	-0.512	0.033	-0.004	4.2	-59.08	4.9
47386	-0.547	0.02	-0.002	3.22	-64.12	4.9
47406	-0.512	0.063	-0.029	4.69	-62.65	4.27
47430	-0.514	0.106	-0.105	0.21	-62.72	4.13
47448	-0.563	0.115	0.0	2.24	-54.25	6.09
47469	-0.68	0.085	-0.07	2.59	-53.13	8.68
47490	-0.761	0.024	-0.025	2.03	-44.73	7.49
47515	-0.779	0.008	-0.027	0.77	-37.59	3.92
47534	-0.764	0.061	0.008	-1.61	-32.83	2.1
47552	-0.761	0.086	-0.015	-1.61	-28.07	0.14
47573	-0.804	0.11	-0.031	-1.4	-18.9	-0.77
47593	-0.878	0.13	-0.021	-1.54	-9.66	-0.77
47613	-0.972	0.122	0.034	-2.59	-2.45	0.21
47637	-1.002	0.111	0.054	-3.92	1.19	2.59
47655	-1.018	0.099	0.118	-4.9	2.8	3.36
47677	-1.005	0.078	0.097	-5.74	4.2	2.31
47697	-0.983	0.071	0.063	-4.41	6.58	0.28
47717	-0.912	0.069	0.025	-1.89	12.25	-0.98
47737	-0.832	0.077	0.015	1.75	20.79	-1.82
47755	-0.761	0.085	0.006	4.06	25.97	-1.96
47777	-0.699	0.103	-0.037	6.51	32.34	-1.82
47797	-0.669	0.12	-0.05	7.49	41.65	-1.75
47821	-0.697	0.133	-0.034	14.14	51.66	-0.35
47840	-0.711	0.109	-0.078	17.99	55.37	1.12
47861	-0.706	0.069	-0.116	20.58	65.17	1.19
47879	-0.687	0.026	-0.064	23.38	69.16	-0.28
47901	-0.626	-0.009	-0.078	21.91	63.91	-3.29
47918	-0.577	0.008	-0.182	21.91	63.77	-5.39
47938	-0.63	0.063	-0.237	21.07	88.48	-8.82
47961	-0.658	0.142	-0.105	22.26	81.83	-8.96
47978	-0.673	0.158	-0.116	27.65	74.69	-7.84
48002	-0.681	0.099	-0.209	27.79	76.51	-6.65
48022	-0.716	0.071	-0.187	23.73	79.87	-6.16
48040	-0.746	0.142	-0.166	19.32	80.99	-6.58
48065	-0.802	0.187	-0.179	14.42	74.2	-9.38
48081	-0.827	0.176	-0.246	11.2	68.53	-13.02
48101	-0.833	0.105	-0.292	8.26	66.15	-14.49
48125	-0.806	0.024	-0.279	-0.91	65.87	-16.66
48145	-0.836	0.029	-0.307	-11.69	55.44	-18.62
48165	-0.893	0.083	-0.379	-9.17	51.24	-20.23
48182	-0.896	0.132	-0.399	-8.05	52.01	-19.81
48205	-0.93	0.11	-0.402	-10.29	47.81	-14.98
48225	-0.948	0.023	-0.455	-14.56	48.16	-12.11
48246	-0.976	-0.017	-0.418	-14.28	44.24	-10.29
48270	-0.961	-0.011	-0.484	-7.35	41.65	-7.84
48290	-0.955	-0.028	-0.535	-2.1	41.79	-9.03
48308	-0.951	-0.001	-0.513	-1.75	41.86	-10.01
48328	-0.981	0.062	-0.523	0.49	37.17	-9.87
48350	-0.992	0.069	-0.582	-0.7	35.91	-9.45
48372	-1.029	0.052	-0.517	-6.37	31.71	-7.63
48397	-1.03	0.039	-0.586	-6.02	20.37	-6.72
48416	-0.945	0.041	-0.618	-0.77	16.73	-6.23
48435	-0.959	-0.021	-0.776	1.26	18.69	-5.18
48459	-1.0	-0.044	-0.624	-2.59	19.81	-7.77
48479	-1.027	-0.01	-0.614	-2.66	10.01	-9.24
48498	-1.049	0.032	-0.669	-1.75	-17.22	-8.33
48523	-1.03	0.052	-0.724	-0.7	-1.75	-5.95
48543	-0.961	0.019	-0.724	-0.63	-2.1	-5.67
48567	-0.93	0.009	-0.746	-0.21	-0.14	-4.9
48582	-0.933	-0.013	-0.742	-1.19	2.31	-4.76
48607	-0.961	-0.008	-0.66	-1.05	-0.07	-5.11
48625	-1.007	0.0	-0.678	3.08	-4.34	-4.2
48647	-1.087	-0.021	-0.813	3.99	-6.16	-1.96
48667	-1.106	-0.08	-0.804	1.19	-6.51	-2.03
48691	-1.147	-0.062	-0.879	1.68	-4.55	-3.71
48711	-1.228	-0.038	-0.873	2.73	-3.78	-2.24
48731	-1.305	-0.02	-0.929	2.73	-6.09	-1.61
48749	-1.342	-0.013	-0.996	5.11	-5.32	17.78
48771	-1.349	0.011	-1.023	7.14	-3.36	2.17
48788	-1.352	0.01	-1.002	6.16	-0.84	1.89
48812	-1.356	-0.005	-0.917	4.13	-0.42	-0.28
48828	-1.319	0.013	-0.865	1.54	-0.91	-1.4
48849	-1.302	0.027	-0.821	-0.42	-4.48	-0.77
48873	-1.229	0.052	-0.78	5.39	-5.95	2.31
48893	-1.201	0.027	-0.819	5.11	-11.55	5.39
48912	-1.11	-0.003	-0.812	-2.94	-11.76	4.55
48935	-1.108	-0.007	-0.717	-3.5	-14.84	2.87
48957	-1.114	0.008	-0.674	1.89	-21.0	3.22
48978	-1.098	0.041	-0.722	6.02	-28.42	5.46
48996	-1.06	0.047	-0.691	3.64	-29.19	7.14
49020	-1.038	0.036	-0.638	1.12	-37.52	8.75
49040	-1.016	0.036	-0.636	0.07	-39.48	8.33
49060	-1.028	0.037	-0.601	0.21	-41.51	8.12
49079	-1.027	0.051	-0.519	1.61	-50.75	8.68
49103	-1.007	0.061	-0.491	1.61	-58.8	10.71
49123	-0.971	0.021	-0.456	0.49	-63.0	10.01
49143	-0.889	0.008	-0.407	5.74	-62.79	8.33
49163	-0.899	0.041	-0.39	10.15	-67.34	7.49
49183	-0.895	0.079	-0.255	9.87	-69.09	8.33
49206	-0.859	0.072	-0.301	4.55	-73.5	9.59
49227	-0.791	0.085	-0.257	3.43	-74.83	10.15
49246	-0.711	0.06	-0.228	4.13	-76.09	9.52
49267	-0.712	0.041	-0.244	6.37	-75.81	8.19
49287	-0.721	0.074	-0.202	3.01	-73.64	7.14
49304	-0.72	0.078	-0.142	-3.08	-79.31	6.72
49326	-0.595	0.073	-0.127	1.47	-79.52	6.86
49343	-0.573	0.046	-0.165	2.59	-79.94	7.21
49368	-0.546	0.019	-0.074	-1.12	-75.25	5.39
49387	-0.573	0.056	-0.088	-0.56	-79.66	5.18
49408	-0.575	0.073	-0.087	-5.25	-76.44	6.16
49431	-0.595	0.038	-0.101	-6.16	-74.06	3.36
49452	-0.591	0.01	-0.122	-3.15	-66.78	0.84
49472	-0.623	-0.007	-0.089	-0.77	-55.02	-0.7
49492	-0.695	-0.002	-0.01	-2.31	-53.06	-1.47
49509	-0.725	0.022	0.03	-6.3	-51.73	-2.31
49527	-0.711	0.042	0.025	-8.68	-52.29	-2.66
49552	-0.661	0.05	-0.049	-8.12	-49.0	-3.99
49572	-0.632	0.047	-0.078	-9.45	-41.37	-5.11
49592	-0.621	0.05	-0.018	-9.24	-28.56	-5.88
49612	-0.683	0.039	0.024	-6.16	-23.45	-6.37
49631	-0.742	0.059	0.032	-4.69	-19.18	-5.81
49651	-0.819	0.067	0.006	-2.31	-14.56	-3.99
49675	-0.906	0.056	0.051	-1.75	-5.67	-3.15
49695	-0.983	0.069	0.092	-2.17	-3.36	-3.15
49715	-1.031	0.102	0.075	-5.04	-1.12	-3.43
49735	-1.065	0.113	0.117	-2.66	3.64	-3.29
49759	-1.099	0.097	0.124	-3.29	3.57	-1.47
49778	-1.06	0.041	0.119	-4.13	0.42	-2.45
49798	-1.058	0.067	0.146	-2.45	-0.91	-2.31
49814	-1.01	0.027	0.044	-7.49	8.82	-4.2
49840	-1.037	0.035	0.21	-4.2	-0.07	-5.81
49858	-0.994	0.045	0.122	-1.89	-3.71	-5.25
49879	-0.977	0.052	0.097	-3.15	-3.29	-4.69
49899	-0.971	0.067	0.07	-3.85	17.5	-4.83
49919	-0.955	0.071	0.063	-4.48	5.74	-4.76
49935	-0.922	0.062	0.052	-3.15	9.66	-4.69
49954	-0.878	0.057	0.026	-2.1	15.33	-4.62
49979	-0.809	0.052	-0.002	-3.08	24.08	-4.97
50000	-0.72	0.065	-0.018	-1.68	32.62	-4.83
50018	-0.645	0.055	-0.008	-1.05	38.64	-3.5
50037	-0.569	0.045	-0.034	1.54	42.98	-1.82
50057	-0.538	0.041	-0.024	5.81	51.59	-0.7
50082	-0.565	0.039	0.052	7.91	57.82	0.77
50101	-0.578	0.013	0.028	7.14	56.49	0.84
50119	-0.565	-0.0	-0.013	7.28	57.68	-1.47
50143	-0.579	0.003	-0.027	7.49	63.0	-4.48
50163	-0.602	0.047	-0.016	10.08	63.21	-3.92
50183	-0.582	0.051	-0.108	9.38	63.77	-3.29
50202	-0.566	0.051	-0.163	11.69	69.44	-3.22
50222	-0.625	0.027	-0.202	9.87	73.43	-3.36
50241	-0.674	-0.006	-0.188	13.02	77.98	-5.53
50261	-0.748	0.02	-0.24	10.01	81.2	-5.88
50285	-0.74	0.008	-0.193	5.18	86.24	-9.24
50306	-0.829	0.005	-0.097	6.3	68.74	-11.27
50326	-0.867	0.01	-0.249	-0.63	67.48	-12.39
50345	-0.916	0.079	-0.291	-7.42	66.92	-13.16
50369	-0.869	0.12	-0.333	-10.85	62.09	-11.27
50387	-0.823	0.071	-0.411	-9.31	66.22	-8.89
50410	-0.937	0.007	-0.375	-4.97	77.98	-5.81
50429	-1.058	0.006	-0.323	-7.07	69.02	-4.55
50449	-1.04	-0.007	-0.358	-5.81	56.91	-5.53
50468	-1.071	-0.032	-0.436	-2.52	47.04	-8.33
50493	-1.072	-0.047	-0.611	2.45	42.28	-10.08
50513	-1.122	-0.065	-0.591	-0.42	40.81	-10.01
50532	-1.126	-0.014	-0.6	-2.1	39.06	-8.47
50555	-1.094	0.044	-0.568	-0.28	31.5	-2.73
50574	-1.065	0.014	-0.667	4.9	26.6	-0.07
50599	-1.087	-0.031	-0.598	0.63	29.61	0.14
50618	-1.078	0.005	-0.555	1.61	23.8	-0.21
50637	-1.052	0.061	-0.638	4.13	16.52	-0.07
50657	-1.026	0.061	-0.686	4.55	20.72	-0.7
50682	-1.027	0.04	-0.676	-2.73	16.24	0.91
50701	-0.973	0.042	-0.565	-2.52	17.29	2.73
50720	-0.998	0.012	-0.675	1.33	10.22	4.13
50744	-0.987	-0.029	-0.64	-0.98	6.44	3.08
50763	-0.994	-0.018	-0.728	0.91	4.97	1.12
50782	-1.052	-0.025	-0.653	-0.14	5.6	-0.63
50805	-1.057	0.041	-0.641	-1.82	-2.03	-0.28
50825	-1.083	-0.009	-0.727	1.26	-4.34	0.0
50846	-1.106	-0.034	-0.793	2.52	-5.95	-0.56
50866	-1.173	-0.038	-0.893	5.81	-6.44	-0.7
50890	-1.315	-0.058	-0.995	9.03	-2.87	-2.1
50909	-1.353	-0.062	-0.993	7.42	-0.91	-2.03
50929	-1.351	-0.051	-1.049	6.65	-0.07	-4.13
50950	-1.342	-0.011	-1.098	7.21	6.65	-5.46
50970	-1.344	0.02	-1.057	7.56	12.11	-4.13
50990	-1.366	0.004	-0.946	7.84	12.81	-2.8
51014	-1.33	0.006	-0.892	6.02	8.61	-1.75
51034	-1.266	-0.019	-0.867	1.75	6.23	-1.19
51050	-1.201	0.01	-0.856	2.52	3.43	0.49
51074	-1.154	0.001	-0.812	3.5	1.4	3.5
51093	-1.126	0.017	-0.815	3.71	-1.89	5.11
51114	-1.108	0.008	-0.759	2.94	-6.37	6.3
51133	-1.108	0.013	-0.758	-0.84	-14.84	4.97
51152	-1.037	0.064	-0.707	0.07	-14.84	3.57
51172	-1.023	0.046	-0.724	-0.7	-20.02	4.34
51196	-1.011	0.013	-0.627	-6.23	-25.62	5.46
51215	-1.053	0.034	-0.583	-4.34	-33.95	7.49
51234	-1.065	0.033	-0.576	-2.8	-41.09	8.61
51259	-1.006	0.043	-0.588	-3.64	-46.9	8.75
51279	-0.959	0.035	-0.528	-7.14	-48.16	7.77
51299	-0.974	0.032	-0.439	-8.12	-51.31	7.14
51319	-0.978	0.035	-0.405	-4.27	-63.56	7.0
51338	-0.949	0.047	-0.387	-4.41	-67.34	6.79
51356	-0.919	0.061	-0.319	-4.83	-72.17	7.07
51375	-0.847	0.039	-0.326	-2.8	-80.92	7.7
51400	-0.759	0.043	-0.344	-3.78	-78.61	8.4
51415	-0.75	0.058	-0.279	-3.29	-74.48	8.89
51440	-0.735	0.066	-0.184	-2.31	-73.08	9.03
51458	-0.69	0.061	-0.113	-1.26	-77.21	9.45
51479	-0.616	0.034	-0.094	-0.49	-81.9	9.87
51498	-0.554	-0.008	-0.099	-0.28	-85.82	7.98
51521	-0.497	-0.014	-0.107	-0.91	-87.85	6.51
51542	-0.484	-0.005	-0.161	1.05	-87.01	6.23
51566	-0.472	-0.006	-0.114	0.77	-79.38	3.5
51587	-0.466	0.008	-0.087	-2.45	-81.2	1.33
51605	-0.409	-0.003	-0.098	2.38	-71.47	-1.05
51625	-0.469	0.014	-0.101	8.61	-68.81	-0.63
51646	-0.498	0.012	-0.106	10.08	-36.96	-0.35
51668	-0.54	0.042	-0.02	7.35	-48.65	-0.49
51688	-0.567	0.06	-0.06	5.6	-44.45	-2.52
51712	-0.596	0.045	-0.132	2.8	-32.55	-4.62
51732	-0.623	0.014	-0.157	4.41	-21.28	-5.74
51752	-0.742	-0.014	-0.11	3.29	-12.53	-6.93
51772	-0.909	0.018	-0.033	2.52	-3.01	-7.98
51796	-1.033	0.084	-0.032	5.39	0.91	-7.35
51816	-1.078	0.099	-0.058	5.18	4.83	-6.58
51834	-1.075	0.099	-0.05	-0.77	10.29	-4.97
51855	-1.013	0.078	-0.021	-2.94	14.07	-5.04
51879	-0.926	0.046	-0.005	-1.68	16.94	-6.58
51903	-0.869	0.045	-0.031	1.61	21.07	-7.77
51919	-0.835	0.048	-0.049	1.61	25.34	-7.35
51943	-0.804	0.034	-0.078	3.36	32.83	-7.42
51963	-0.75	0.035	-0.078	4.55	39.83	-8.33
51983	-0.65	0.048	-0.137	3.5	46.62	-8.82
52001	-0.586	0.057	-0.172	-1.05	54.81	-9.73
52021	-0.582	0.046	-0.153	-3.71	64.05	-9.66
52044	-0.679	0.044	-0.089	-4.62	71.12	-10.29
52062	-0.694	0.036	-0.142	-5.32	68.67	-10.01
52086	-0.665	0.041	-0.087	-1.12	67.97	-9.87
52103	-0.662	0.008	-0.276	0.98	63.91	-9.03
52127	-0.608	-0.041	-0.224	4.83	73.36	-8.89
52147	-0.593	-0.031	-0.164	8.61	68.81	-8.54
52163	-0.605	0.011	-0.219	8.82	66.22	-7.28
52183	-0.681	0.008	-0.247	7.35	68.11	-7.0
52203	-0.716	0.022	-0.254	9.24	65.31	-7.28
52227	-0.681	0.061	-0.344	8.33	63.21	-6.44
52247	-0.717	0.072	-0.375	2.8	62.86	-5.04
52263	-0.764	0.067	-0.396	-1.75	63.98	-3.71
52285	-0.851	0.038	-0.41	-2.66	65.94	-3.08
52303	-0.901	0.008	-0.366	-6.3	65.1	-3.99
52323	-0.895	0.027	-0.384	-11.69	55.16	-5.46
52346	-0.861	0.036	-0.478	-13.3	50.47	-6.02
52367	-0.84	0.045	-0.562	-10.22	52.64	-1.96
52387	-0.862	0.001	-0.543	-9.24	55.09	1.61
52408	-0.904	-0.047	-0.511	-9.94	53.06	3.15
52432	-0.913	-0.019	-0.491	-9.66	42.14	2.45
52453	-0.9	0.017	-0.56	-3.43	36.54	2.17
52472	-0.891	0.021	-0.592	-0.21	33.6	1.68
52491	-0.89	0.017	-0.62	0.35	28.0	3.01
52511	-0.879	-0.002	-0.631	1.4	29.47	4.83
52530	-0.905	0.007	-0.614	0.42	26.95	5.11
52555	-0.899	0.034	-0.661	4.27	25.9	2.73
52575	-0.908	0.057	-0.651	6.37	19.04	1.05
52595	-0.854	-0.018	-0.757	1.89	22.75	-0.28
52619	-0.871	-0.062	-0.645	-1.82	22.54	-4.2
52639	-0.893	-0.015	-0.637	1.47	16.31	-5.53
52659	-0.948	0.036	-0.692	2.73	9.52	-4.41
52683	-0.949	0.081	-0.712	0.35	4.69	1.4
52703	-0.915	0.027	-0.74	1.96	-0.7	2.38
52727	-0.903	0.023	-0.752	1.47	0.56	0.91
52745	-0.899	0.051	-0.732	0.49	1.05	-0.63
52763	-0.942	0.025	-0.7	-0.77	-0.91	-3.29
52787	-0.973	-0.034	-0.751	-2.24	-6.23	-7.35
52811	-0.996	-0.005	-0.815	0.28	-8.47	-8.19
52830	-1.043	0.033	-0.869	0.49	-7.98	-3.57
52850	-1.129	-0.005	-0.844	0.21	-8.82	-1.68
52874	-1.211	-0.013	-0.913	2.17	-15.47	-2.17
52894	-1.242	-0.041	-1.082	3.99	-14.07	-1.75
52909	-1.273	-0.02	-1.132	6.44	-10.5	-0.07
52933	-1.322	-0.016	-1.127	7.28	-8.33	0.98
52954	-1.362	0.029	-1.126	8.05	-8.75	0.42
52974	-1.347	0.03	-1.077	7.91	-4.34	0.7
52998	-1.347	0.02	-1.015	6.72	-3.85	2.24
53018	-1.305	0.015	-1.026	6.23	-3.78	1.61
53034	-1.249	0.067	-0.896	6.65	-2.52	2.24
53056	-1.209	0.034	-0.874	3.5	-6.37	4.06
53078	-1.177	-0.026	-0.767	-0.07	-10.71	3.92
53098	-1.145	-0.032	-0.745	3.71	-16.31	3.85
53116	-1.137	-0.02	-0.767	9.17	-21.07	5.18
53136	-1.105	0.018	-0.759	11.97	-24.85	6.3
53160	-1.095	0.025	-0.729	10.57	-32.48	7.63
53178	-1.03	0.008	-0.766	7.49	-36.33	5.95
53199	-0.991	0.019	-0.688	1.96	-35.77	3.85
53219	-1.04	0.038	-0.563	-2.17	-43.4	2.24
53239	-1.087	0.064	-0.496	-1.54	-54.88	2.87
53261	-1.06	0.055	-0.463	-3.99	-63.14	4.48
53283	-0.93	0.038	-0.511	0.21	-67.76	5.04
53302	-0.889	0.058	-0.452	3.29	-68.88	6.09
53327	-0.912	0.061	-0.407	0.0	-72.45	5.81
53347	-0.953	0.066	-0.305	-7.91	-78.89	6.16
53366	-0.91	0.015	-0.297	-7.07	-87.71	4.69
53386	-0.821	-0.001	-0.286	-4.41	-94.64	5.53
53406	-0.725	0.033	-0.286	-4.34	-93.52	4.2
53430	-0.689	0.093	-0.24	-6.86	-94.29	4.2
53449	-0.656	0.103	-0.146	-8.89	-92.75	6.58
53470	-0.658	0.07	-0.102	-6.37	-98.07	10.85
53490	-0.537	0.008	-0.11	2.31	-93.1	13.37
53514	-0.507	0.043	-0.104	6.02	-91.28	15.89
53534	-0.462	0.006	-0.116	0.91	-84.0	15.33
53551	-0.466	0.013	-0.042	-0.49	-85.47	14.42
53570	-0.455	0.035	-0.106	0.07	-83.72	12.04
53593	-0.506	0.064	-0.084	-2.38	-72.73	6.58
53617	-0.613	0.112	0.004	-3.5	-66.57	5.32
53636	-0.609	0.117	0.002	-4.34	-62.58	6.23
53659	-0.619	0.084	-0.008	-7.98	-57.05	7.84
53678	-0.612	0.066	-0.001	-12.74	-50.26	5.04
53698	-0.622	0.035	-0.007	-11.9	-45.43	2.87
53722	-0.651	0.018	-0.005	-8.26	-40.32	2.24
53742	-0.684	0.009	-0.026	-6.44	-33.46	2.73
53762	-0.736	0.047	0.012	-4.2	-26.46	2.38
53780	-0.781	0.07	0.002	-4.2	-22.75	0.98
53802	-0.824	0.079	-0.04	-3.43	-15.12	0.14
53823	-0.974	0.091	-0.037	-3.29	-4.06	-0.21
53841	-1.098	0.092	0.053	-2.59	1.33	0.49
53865	-1.098	0.086	0.047	-1.89	3.15	0.91
53885	-0.938	0.054	0.047	-2.03	13.65	-1.33
53905	-0.823	0.061	0.023	-0.49	23.87	-2.52
53925	-0.772	0.052	0.09	0.42	38.92	-4.62
53945	-0.847	0.068	0.143	3.57	42.91	-5.11
53963	-0.901	0.058	0.097	5.39	43.12	-3.57
53983	-0.847	0.073	0.102	8.54	51.94	-2.73
54006	-0.808	0.123	-0.02	6.86	56.35	-3.22
54026	-0.769	0.127	-0.009	1.75	65.94	-4.41
54047	-0.739	0.114	-0.039	1.82	71.68	-6.51
54067	-0.692	0.111	-0.028	1.47	75.74	-8.47
54090	-0.601	0.104	-0.089	1.89	78.12	-7.7
54110	-0.526	0.084	-0.117	3.43	79.31	-7.07
54130	-0.46	0.039	-0.179	5.88	78.54	-7.21
54152	-0.529	-0.013	-0.178	2.17	80.71	-11.41
54172	-0.692	0.021	-0.145	-1.19	79.73	-13.37
54196	-0.705	0.089	-0.12	-2.59	74.69	-15.82
54216	-0.63	0.093	-0.233	-3.29	68.18	-15.26
54235	-0.666	0.032	-0.225	-7.56	71.26	-16.03
54255	-0.729	-0.008	-0.114	-5.81	67.41	-16.1
54277	-0.712	0.013	-0.309	-4.55	59.78	-15.47
54296	-0.683	0.03	-0.446	-7.21	69.72	-18.69
54315	-0.768	0.067	-0.286	-7.63	74.34	-21.42
54340	-0.892	0.04	-0.262	-9.59	63.35	-18.97
54360	-0.911	0.031	-0.318	-11.55	57.82	-15.68
54384	-0.903	0.021	-0.467	-8.96	54.39	-12.46
54404	-0.895	0.028	-0.489	-10.43	56.56	-11.55
54423	-0.93	-0.03	-0.479	-13.37	58.1	-11.69
54444	-1.011	-0.025	-0.451	-8.96	51.87	-12.67
54464	-1.034	0.014	-0.566	-5.04	41.37	-10.43
54488	-0.957	0.01	-0.65	1.47	42.28	-9.94
54508	-0.929	0.017	-0.697	-0.91	44.03	-9.8
54523	-0.966	-0.033	-0.57	-4.69	44.17	-10.64
54543	-1.041	-0.003	-0.556	-2.03	34.51	-8.54
54568	-1.025	0.041	-0.657	-0.07	25.76	-3.36
54588	-1.006	0.027	-0.593	-4.55	22.75	0.28
54608	-1.023	0.002	-0.614	-6.16	11.62	2.59
54627	-0.974	0.021	-0.68	-2.87	6.86	2.73
54647	-0.915	0.018	-0.705	0.77	6.79	2.1
54671	-0.901	-0.0	-0.725	0.84	7.84	3.22
54688	-0.917	0.025	-0.698	2.1	8.47	3.78
54712	-0.964	0.044	-0.666	0.98	3.64	4.34
54731	-0.966	0.055	-0.718	1.12	0.0	4.55
54752	-0.948	0.078	-0.757	2.87	1.96	6.23
54767	-0.945	0.093	-0.737	2.94	0.77	8.47
54791	-0.941	0.02	-0.745	1.82	0.42	5.88
54815	-0.975	-0.024	-0.739	4.2	0.91	0.14
54833	-0.99	-0.02	-0.746	5.67	-0.98	-3.22
54855	-1.035	0.049	-0.802	9.17	-0.84	-2.45
54875	-1.102	0.122	-0.83	11.48	-1.96	1.05
54899	-1.173	0.084	-0.849	8.33	-3.78	3.29
54919	-1.225	0.018	-0.918	8.4	-6.09	2.73
54938	-1.232	0.04	-0.965	9.38	-5.95	3.01
54957	-1.221	0.036	-0.936	10.57	-4.27	1.68
54981	-1.268	0.053	-0.986	12.95	-5.04	0.56
55001	-1.276	0.01	-0.976	10.36	-2.94	-1.82
55022	-1.288	0.039	-0.93	8.68	-2.03	-3.92
55046	-1.319	0.076	-0.873	8.54	-6.51	-4.06
55063	-1.282	0.062	-0.866	6.02	-7.98	-2.66
55087	-1.183	0.028	-0.837	3.15	-9.24	-0.21
55107	-1.135	0.004	-0.827	1.68	-11.41	-0.49
55126	-1.116	-0.006	-0.792	0.28	-13.3	-1.61
55142	-1.118	0.053	-0.772	0.77	-16.45	-0.21
55166	-1.105	0.066	-0.742	1.75	-23.52	5.25
55187	-1.078	0.029	-0.716	-1.68	-26.67	4.34
55206	-1.065	0.016	-0.645	-1.47	-31.22	2.31
55225	-1.067	0.035	-0.655	0.42	-38.57	1.33
55251	-1.055	0.044	-0.618	-3.92	-42.7	1.68
55267	-1.05	0.022	-0.554	-7.21	-46.76	1.82
55291	-1.017	0.009	-0.525	-5.39	-51.59	1.54
55311	-0.991	0.019	-0.473	-2.94	-56.35	0.56
55329	-1.001	0.039	-0.415	-2.94	-64.82	0.35
55350	-0.94	0.044	-0.463	-5.6	-67.41	1.82
55369	-0.914	-0.004	-0.397	-9.1	-64.26	2.31
55393	-0.874	0.015	-0.265	-7.21	-71.05	0.91
55417	-0.866	0.082	-0.27	-8.4	-87.29	0.84
55437	-0.759	0.11	-0.313	-2.24	-81.97	2.17
55456	-0.749	0.085	-0.24	-7.28	-73.78	6.72
55477	-0.758	0.027	-0.169	-9.45	-75.53	9.94
55497	-0.715	-0.023	-0.183	-8.68	-75.25	8.05
55512	-0.708	-0.018	-0.112	-6.37	-75.53	5.18
55537	-0.706	0.019	-0.095	-1.96	-80.29	3.29
55556	-0.691	0.063	-0.093	-0.63	-78.96	4.55
55575	-0.641	0.039	-0.087	1.12	-73.57	7.42
55594	-0.604	0.021	-0.042	1.19	-64.19	8.33
55619	-0.605	0.004	-0.02	2.45	-64.89	6.58
55637	-0.581	0.011	-0.052	6.58	-63.07	4.34
55661	-0.59	0.014	-0.001	4.27	-57.47	1.26
55680	-0.562	0.026	0.022	1.4	-54.39	0.14
55699	-0.525	0.03	0.018	0.49	-51.66	-1.19
55723	-0.541	0.011	-0.057	0.91	-41.93	-3.22
55743	-0.563	0.019	-0.039	-0.56	-30.66	-4.34
55761	-0.573	0.039	-0.039	-2.24	-22.89	-5.11
55781	-0.593	0.024	-0.067	-2.73	-12.81	-6.44
55805	-0.691	0.005	-0.063	-2.31	-4.97	-7.84
55825	-0.795	0.03	-0.093	-0.77	-2.24	-8.33
55842	-0.896	0.007	-0.112	1.75	2.52	-8.61
55860	-1.002	0.002	-0.063	1.89	11.34	-9.87
55884	-1.08	0.041	-0.044	-2.31	8.12	-8.96
55902	-1.094	0.082	-0.001	0.21	9.1	-7.21
55922	-1.052	0.08	-0.103	-2.45	8.54	-3.78
55946	-0.99	0.045	-0.014	-5.32	12.74	-2.8
55966	-0.976	0.054	-0.02	-4.13	8.96	-1.75
55985	-1.01	0.07	-0.026	-5.04	6.79	0.14
