Millis	AccelX	AccelY	AccelZ	GyroX	GyroY	GyroZ
0	-0.886	-0.259	-0.373	-0.49	-2.38	3.85
20	-0.892	-0.261	-0.383	-0.07	-3.01	4.62
40	-0.885	-0.27	-0.394	0.7	-2.73	5.67
58	-0.883	-0.277	-0.398	3.71	-0.35	7.35
77	-0.891	-0.26	-0.407	4.69	0.63	7.84
101	-0.879	-0.26	-0.403	3.22	2.59	7.42
116	-0.878	-0.271	-0.39	3.71	4.62	7.56
141	-0.895	-0.271	-0.401	3.78	6.09	6.16
161	-0.895	-0.282	-0.406	3.29	7.35	4.55
178	-0.889	-0.291	-0.396	5.74	8.89	3.78
198	-0.882	-0.274	-0.379	7.49	11.27	1.89
222	-0.904	-0.274	-0.374	10.64	11.69	0.84
238	-0.929	-0.269	-0.359	12.74	10.08	0.91
262	-0.936	-0.266	-0.333	14.77	7.35	0.84
281	-0.95	-0.244	-0.32	13.23	4.69	0.56
301	-0.947	-0.242	-0.308	9.94	1.68	0.35
320	-0.947	-0.243	-0.309	6.86	-0.35	-0.14
340	-0.951	-0.245	-0.316	4.97	-2.94	-0.42
361	-0.956	-0.251	-0.32	3.22	-5.53	-0.49
382	-0.931	-0.24	-0.34	1.54	-6.65	-1.12
401	-0.928	-0.232	-0.361	-1.75	-7.42	-2.31
423	-0.911	-0.248	-0.365	-3.5	-7.7	-3.15
445	-0.911	-0.258	-0.372	-4.13	-7.98	-3.92
469	-0.905	-0.247	-0.38	-4.34	-8.19	-4.2
484	-0.89	-0.252	-0.382	-6.3	-8.19	-4.48
507	-0.885	-0.254	-0.387	-6.44	-7.84	-4.27
528	-0.878	-0.259	-0.387	-7.21	-7.28	-4.62
552	-0.883	-0.264	-0.392	-6.16	-6.37	-4.97
571	-0.88	-0.267	-0.392	-5.88	-5.67	-5.18
592	-0.884	-0.278	-0.396	-3.36	-5.04	-4.27
612	-0.887	-0.268	-0.396	-2.45	-4.97	-3.99
632	-0.884	-0.266	-0.4	-3.15	-3.99	-4.06
652	-0.887	-0.265	-0.397	-3.64	-3.15	-4.27
672	-0.889	-0.273	-0.39	-3.01	-2.52	-4.76
690	-0.904	-0.27	-0.385	-1.96	-2.94	-5.18
714	-0.909	-0.262	-0.377	-2.73	-2.87	-6.44
729	-0.917	-0.274	-0.354	-3.22	-3.71	-7.49
754	-0.917	-0.263	-0.333	-4.41	-5.25	-9.24
770	-0.948	-0.247	-0.312	-7.7	-6.86	-12.04
789	-0.935	-0.243	-0.304	-14.21	-10.43	-15.47
814	-0.922	-0.251	-0.317	-19.32	-11.9	-17.78
833	-0.931	-0.282	-0.317	-22.05	-14.77	-16.94
853	-0.937	-0.291	-0.333	-20.3	-17.57	-15.68
877	-0.941	-0.294	-0.362	-20.58	-23.8	-14.98
897	-0.928	-0.29	-0.354	-14.21	-28.98	-10.85
915	-0.905	-0.274	-0.305	-12.04	-31.29	-7.77
936	-0.92	-0.251	-0.309	-16.59	-36.19	-8.26
955	-0.905	-0.275	-0.324	-23.87	-33.53	-9.03
974	-0.941	-0.335	-0.298	-23.31	-36.54	-9.03
994	-0.957	-0.306	-0.26	-23.8	-39.41	-10.08
1019	-0.932	-0.235	-0.219	-36.33	-34.23	-14.84
1038	-0.955	-0.241	-0.227	-49.56	-33.11	-22.82
1058	-0.942	-0.246	-0.267	-63.63	-32.62	-30.24
1083	-0.939	-0.266	-0.298	-73.29	-33.67	-36.89
1101	-0.942	-0.306	-0.289	-77.91	-34.44	-41.51
1121	-0.934	-0.359	-0.303	-70.28	-33.32	-40.53
1145	-0.916	-0.338	-0.309	-57.96	-27.02	-36.33
1165	-0.907	-0.375	-0.321	-39.06	-21.35	-27.72
1183	-0.908	-0.355	-0.345	-25.97	-18.27	-22.61
1205	-0.895	-0.361	-0.371	-8.05	-14.84	-13.93
1224	-0.907	-0.325	-0.352	5.04	-14.56	-8.05
1247	-0.886	-0.282	-0.33	11.06	-11.41	-3.22
1267	-0.888	-0.272	-0.322	10.57	-8.68	-1.68
1291	-0.885	-0.28	-0.33	7.84	-6.09	-0.84
1310	-0.878	-0.297	-0.34	7.91	-4.69	0.42
1329	-0.893	-0.295	-0.317	7.98	-5.25	1.54
1349	-0.89	-0.275	-0.296	6.58	-5.88	2.38
1369	-0.891	-0.27	-0.289	2.73	-5.11	2.03
1392	-0.897	-0.287	-0.277	-2.8	-3.36	0.63
1413	-0.895	-0.3	-0.288	-8.68	-1.12	-0.56
1433	-0.903	-0.327	-0.306	-10.29	-0.14	-0.7
1453	-0.91	-0.351	-0.305	-6.44	-0.42	0.77
1473	-0.92	-0.349	-0.279	-2.73	-1.19	2.59
1493	-0.92	-0.34	-0.263	1.05	-0.28	3.64
1513	-0.929	-0.35	-0.266	2.1	0.84	3.64
1533	-0.927	-0.353	-0.247	3.85	1.61	3.36
1553	-0.934	-0.344	-0.244	5.25	1.75	2.45
1577	-0.934	-0.341	-0.245	5.11	1.33	1.61
1601	-0.944	-0.353	-0.242	6.44	-0.07	1.19
1621	-0.943	-0.346	-0.242	7.14	-1.12	0.84
1645	-0.938	-0.337	-0.241	6.86	-1.47	-0.35
1665	-0.945	-0.323	-0.236	5.04	-1.89	-1.26
1682	-0.936	-0.324	-0.244	3.99	-1.4	-1.68
1705	-0.934	-0.33	-0.248	5.53	-1.61	-1.05
1726	-0.928	-0.325	-0.256	6.72	-1.4	-1.05
1746	-0.911	-0.296	-0.285	6.23	0.0	-1.05
1766	-0.906	-0.281	-0.319	5.67	2.38	-1.12
1786	-0.899	-0.266	-0.356	4.62	5.53	-0.91
1806	-0.893	-0.243	-0.408	3.15	8.54	-0.63
1821	-0.867	-0.216	-0.429	1.26	11.2	-0.21
1846	-0.852	-0.22	-0.452	1.68	16.24	3.57
1866	-0.849	-0.235	-0.442	5.67	18.69	9.87
1886	-0.846	-0.272	-0.45	12.04	20.16	15.47
1904	-0.803	-0.234	-0.481	18.41	28.98	22.4
1923	-0.821	-0.259	-0.521	23.94	35.14	29.54
1948	-0.847	-0.289	-0.482	46.55	42.63	47.95
1968	-0.89	-0.27	-0.424	53.69	52.15	57.89
1988	-0.875	-0.27	-0.405	60.06	63.84	63.49
2008	-0.848	-0.179	-0.421	57.4	71.82	65.38
2028	-0.843	-0.238	-0.332	42.21	83.09	64.96
2048	-1.526	-0.149	0.563	14.35	104.58	40.88
2072	-1.967	-0.074	0.143	-82.81	-36.54	-19.04
2092	-0.973	-0.926	-0.164	-33.67	-60.34	3.92
2111	-0.963	-0.612	-0.449	43.61	-20.51	46.48
2132	-0.955	-0.233	-0.474	58.1	-20.93	42.42
2152	-0.927	-0.297	-0.481	69.3	-3.08	41.86
2167	-0.978	-0.245	-0.484	78.61	3.29	45.5
2192	-1.026	-0.148	-0.517	67.97	-9.31	32.69
2209	-0.952	-0.157	-0.488	61.25	-13.37	28.35
2232	-0.938	-0.073	-0.489	38.92	-20.02	24.64
2252	-0.916	-0.083	-0.46	18.76	-25.13	23.59
2274	-0.95	-0.11	-0.448	9.03	-26.74	25.13
2293	-0.943	-0.155	-0.396	9.52	-30.59	31.71
2314	-0.923	-0.099	-0.381	-0.63	-27.86	28.98
2337	-0.9	-0.094	-0.412	-21.14	-25.13	22.89
2358	-0.878	-0.155	-0.433	-17.01	-24.71	30.73
2378	-0.889	-0.148	-0.451	3.92	-26.18	42.77
2398	-0.871	-0.049	-0.427	3.85	-22.89	48.51
2418	-0.858	-0.004	-0.387	-7.42	-20.44	49.42
2437	-0.897	-0.072	-0.358	-1.4	-18.41	53.9
2458	-0.918	-0.023	-0.358	4.06	-17.01	56.14
2477	-0.935	-0.003	-0.387	2.66	-17.92	56.49
2498	-0.969	-0.001	-0.381	4.69	-19.32	58.94
2517	-1.024	-0.182	-0.253	27.72	-33.04	69.44
2539	-1.037	0.227	0.015	30.31	-39.41	73.22
2561	-1.105	0.163	0.153	4.97	-44.1	61.18
2584	-1.177	0.056	0.041	-9.66	-42.56	63.14
2602	-1.178	0.144	-0.081	-23.66	-36.89	60.62
2626	-1.133	0.2	-0.171	-51.45	-34.72	46.76
2645	-1.036	0.066	-0.142	-48.16	-41.79	44.45
2670	-0.979	0.117	-0.084	-29.05	-43.12	50.68
2689	-1.006	0.089	-0.117	-20.72	-43.61	51.52
2708	-1.062	0.109	-0.166	-15.89	-45.5	45.01
2728	-0.99	0.14	-0.201	-23.73	-57.4	38.85
2752	-0.929	0.204	-0.199	-34.23	-61.67	37.66
2771	-0.815	0.281	-0.133	-40.74	-64.54	39.27
2792	-0.769	0.259	-0.089	-48.37	-55.3	40.25
2811	-0.779	0.249	-0.108	-51.45	-46.13	37.8
2827	-0.815	0.238	-0.103	-47.04	-44.31	42.0
2852	-0.77	0.219	-0.062	-33.25	-40.74	55.3
2871	-0.773	0.224	-0.08	-12.6	-26.46	66.08
2891	-0.846	0.305	-0.102	-9.24	-18.34	71.19
2915	-0.869	0.303	-0.057	-6.44	-16.17	73.22
2933	-0.839	0.371	0.003	1.33	-13.16	77.49
2955	-0.791	0.479	0.028	-8.96	-1.54	71.61
2975	-0.858	0.377	-0.044	-20.16	11.69	67.06
2993	-0.892	0.263	-0.056	-7.35	11.13	73.57
3013	-0.886	0.264	-0.008	15.89	12.88	78.05
3037	-0.9	0.446	0.146	32.62	13.51	78.4
3057	-0.898	0.586	0.234	15.89	13.72	67.48
3075	-0.92	0.67	0.3	-19.6	16.17	51.03
3095	-1.034	0.484	0.317	-50.4	2.1	29.47
3119	-1.064	0.191	0.313	7.56	-26.46	47.88
3139	-0.82	0.443	0.187	38.22	-12.67	54.32
3158	-0.781	0.668	0.079	32.62	-1.47	49.7
3179	-0.802	0.724	0.04	0.21	3.29	34.72
3198	-0.818	0.657	0.012	-12.32	3.08	24.08
3223	-0.789	0.596	0.044	-3.36	-2.94	21.84
3242	-0.711	0.636	0.057	13.72	-0.42	24.5
3262	-0.707	0.727	0.026	13.58	0.28	21.35
3281	-0.707	0.731	0.007	2.87	-1.12	14.21
3306	-0.717	0.684	0.009	-6.86	3.85	3.22
3326	-0.758	0.656	0.02	-6.02	4.2	-2.59
3346	-0.79	0.621	0.013	1.82	4.9	-5.04
3366	-0.832	0.672	-0.0	13.23	6.65	-4.83
3386	-0.858	0.721	0.017	11.97	6.23	-8.19
3404	-0.865	0.724	0.026	8.05	6.65	-13.09
3423	-0.894	0.698	0.022	7.14	7.91	-18.2
3448	-0.899	0.71	0.033	9.45	7.91	-23.17
3472	-0.889	0.7	0.033	11.27	8.75	-28.35
3492	-0.899	0.685	-0.006	13.09	10.57	-33.74
3511	-0.891	0.675	-0.059	10.5	12.32	-41.3
3532	-0.918	0.571	-0.081	10.71	16.52	-49.49
3552	-0.92	0.495	-0.066	19.39	17.92	-54.25
3571	-0.928	0.471	-0.005	30.94	18.06	-55.79
3593	-0.863	0.482	0.048	38.36	19.18	-58.45
3615	-0.839	0.525	0.04	41.3	21.14	-60.9
3636	-0.833	0.497	-0.021	33.18	23.59	-66.5
3657	-0.823	0.413	-0.069	31.71	25.62	-70.21
3676	-0.883	0.402	-0.026	36.26	23.87	-70.56
3700	-0.899	0.343	-0.09	35.35	25.2	-74.34
3720	-0.916	0.319	-0.127	33.32	22.54	-74.27
3741	-0.903	0.263	-0.149	23.17	18.34	-78.26
3765	-0.882	0.194	-0.1	26.32	19.39	-79.66
3785	-0.866	0.159	-0.097	33.39	22.82	-79.17
3805	-0.94	0.155	-0.155	44.31	21.91	-75.32
3820	-0.993	0.188	-0.182	47.04	16.38	-76.02
3845	-0.963	0.188	-0.176	36.05	8.96	-79.17
3864	-0.9	0.16	-0.188	25.69	9.59	-79.38
3885	-0.849	0.152	-0.229	19.18	13.16	-80.64
3905	-0.89	0.134	-0.274	12.04	16.17	-83.16
3925	-0.927	0.063	-0.318	13.44	17.43	-84.28
3945	-0.942	0.107	-0.329	12.81	12.46	-82.81
3965	-0.913	0.065	-0.337	10.08	13.79	-80.01
3985	-0.932	0.023	-0.37	19.88	12.32	-71.12
4003	-0.965	-0.019	-0.367	24.5	11.69	-66.99
4022	-1.007	0.004	-0.354	28.28	8.26	-57.26
4047	-1.02	0.009	-0.294	17.29	7.21	-60.69
4065	-1.017	-0.045	-0.285	8.26	9.73	-63.42
4089	-1.021	-0.029	-0.288	1.33	10.01	-63.21
4109	-1.008	-0.033	-0.305	-5.67	8.33	-61.67
4128	-1.002	-0.07	-0.291	-4.69	7.28	-56.63
4151	-1.052	-0.092	-0.292	9.24	8.33	-46.62
4170	-1.103	-0.125	-0.317	21.77	6.86	-39.69
4195	-1.104	-0.13	-0.301	37.24	2.1	-31.08
4219	-1.079	-0.067	-0.298	31.85	2.59	-28.7
4238	-1.064	-0.066	-0.289	18.9	1.26	-28.28
4258	-1.035	-0.101	-0.284	9.59	0.14	-23.59
4282	-0.998	-0.136	-0.274	4.69	3.08	-13.86
4302	-0.976	-0.182	-0.287	9.24	4.76	-0.91
4317	-0.994	-0.197	-0.291	14.63	4.48	7.21
4341	-1.003	-0.155	-0.306	14.98	1.75	16.73
4360	-0.994	-0.143	-0.324	6.16	0.77	17.92
4384	-0.976	-0.173	-0.346	-0.98	-0.63	19.46
4403	-0.961	-0.188	-0.374	-4.06	-0.77	22.47
4424	-0.983	-0.207	-0.396	-5.46	-1.96	25.2
4440	-1.003	-0.219	-0.387	-4.2	-4.76	26.04
4463	-0.996	-0.214	-0.341	-0.49	-7.49	27.44
4483	-1.009	-0.172	-0.307	2.8	-8.05	29.82
4502	-1.084	-0.059	-0.284	0.28	-9.45	32.06
4527	-1.152	0.037	-0.305	-20.79	-13.65	29.61
4547	-1.211	0.004	-0.322	-36.61	-18.41	25.13
4566	-1.22	-0.076	-0.339	-42.63	-24.57	22.12
4591	-1.221	-0.103	-0.331	-32.27	-33.81	24.08
4610	-1.188	-0.045	-0.325	-24.71	-37.87	24.64
4634	-1.155	0.0	-0.325	-27.3	-40.53	21.28
4654	-1.139	-0.045	-0.361	-31.15	-44.24	22.05
4674	-1.106	-0.08	-0.388	-30.1	-47.81	26.74
4690	-1.054	-0.099	-0.377	-29.75	-50.68	30.17
4710	-0.975	-0.128	-0.331	-29.54	-52.64	35.56
4734	-0.895	-0.185	-0.247	-21.07	-50.96	42.42
4753	-0.837	-0.198	-0.218	-8.68	-45.22	48.79
4773	-0.827	-0.254	-0.217	3.85	-42.84	52.85
4793	-0.812	-0.367	-0.246	24.08	-45.01	58.17
4814	-0.788	-0.424	-0.27	49.84	-40.11	60.2
4838	-0.801	-0.438	-0.273	64.4	-37.52	53.83
4858	-0.767	-0.323	-0.244	67.62	-31.92	46.13
4878	-0.753	-0.322	-0.225	77.42	-30.45	38.01
4898	-0.72	-0.307	-0.206	96.11	-25.83	31.99
4918	-0.765	-0.293	-0.142	111.3	-17.92	25.69
4942	-0.787	-0.172	-0.088	113.68	-7.0	13.51
4960	-0.813	0.0	-0.097	97.93	2.73	1.12
4981	-0.822	0.156	-0.137	73.57	15.54	-15.96
5005	-0.844	0.224	-0.168	52.64	24.01	-37.1
5025	-0.847	0.187	-0.189	36.68	31.85	-47.11
5045	-0.889	0.112	-0.199	44.52	37.52	-47.18
5065	-0.913	0.128	-0.203	57.68	40.53	-38.22
5084	-0.935	0.296	-0.162	64.47	46.9	-38.22
5102	-0.941	0.392	-0.131	32.27	46.41	-45.15
5121	-0.95	0.399	-0.147	-4.48	47.95	-55.79
5145	-0.997	0.32	-0.152	-30.1	44.38	-55.65
5165	-1.032	0.192	-0.169	-19.18	31.64	-40.11
5183	-0.981	0.183	-0.135	6.93	25.62	-20.02
5205	-1.011	0.306	-0.129	23.17	24.92	-3.85
5225	-1.067	0.374	-0.136	14.77	19.11	4.83
5243	-1.076	0.352	-0.139	-0.21	11.27	7.28
5263	-1.01	0.248	-0.177	-8.54	11.62	17.57
5283	-1.046	0.169	-0.218	0.7	12.25	31.01
5307	-1.094	0.196	-0.187	2.73	11.48	34.86
5327	-1.083	0.196	-0.204	-2.24	9.66	33.81
5347	-1.078	0.178	-0.264	-10.99	11.34	28.91
5367	-1.084	0.119	-0.307	-18.27	11.34	25.13
5387	-1.149	0.052	-0.336	-17.71	11.34	20.3
5407	-1.176	0.049	-0.366	-17.36	8.68	12.67
5427	-1.146	0.059	-0.399	-14.77	8.19	7.0
5447	-1.107	0.096	-0.398	-11.83	9.94	3.29
5465	-1.108	0.104	-0.401	-8.75	14.56	-0.63
5489	-1.144	0.124	-0.378	-4.48	18.69	-10.01
5509	-1.172	0.134	-0.379	-5.32	22.12	-18.83
5528	-1.17	0.122	-0.379	-2.87	21.49	-25.34
5549	-1.166	0.163	-0.41	-2.24	24.5	-33.6
5569	-1.15	0.138	-0.398	-4.97	19.88	-41.93
5593	-1.125	0.073	-0.36	-3.78	20.44	-52.36
5613	-1.138	-0.014	-0.324	2.17	19.04	-60.9
5632	-1.121	-0.027	-0.285	6.09	17.01	-71.54
5653	-1.019	-0.028	-0.275	4.83	18.13	-83.16
5672	-0.996	-0.071	-0.323	7.84	20.65	-90.65
5695	-0.951	-0.127	-0.358	17.85	18.97	-96.25
5713	-0.911	-0.19	-0.347	30.17	19.53	-97.23
5737	-0.917	-0.216	-0.348	41.16	25.34	-102.06
5756	-0.945	-0.237	-0.379	42.0	23.94	-108.01
5774	-0.896	-0.275	-0.393	38.15	17.57	-114.73
5794	-0.836	-0.253	-0.368	36.26	20.93	-121.24
5814	-0.756	-0.319	-0.37	37.17	22.33	-126.0
5838	-0.74	-0.397	-0.37	38.15	21.7	-129.85
5858	-0.707	-0.505	-0.358	50.33	26.39	-129.22
5877	-0.711	-0.578	-0.361	59.64	22.68	-130.41
5898	-0.662	-0.518	-0.35	62.93	18.27	-133.49
5916	-0.56	-0.475	-0.366	59.29	17.29	-134.33
5939	-0.516	-0.469	-0.342	53.34	18.83	-136.78
5960	-0.497	-0.542	-0.37	44.17	22.19	-138.74
5979	-0.476	-0.595	-0.366	38.92	22.12	-136.15
5998	-0.449	-0.633	-0.354	36.05	23.03	-131.6
6018	-0.405	-0.653	-0.349	34.65	25.83	-127.19
6044	-0.394	-0.681	-0.359	32.41	29.82	-119.07
6060	-0.399	-0.695	-0.357	26.6	28.28	-115.92
6082	-0.366	-0.777	-0.348	22.47	28.35	-111.65
6102	-0.359	-0.834	-0.32	28.0	30.45	-104.72
6122	-0.332	-0.811	-0.281	29.96	29.96	-101.5
6141	-0.307	-0.759	-0.285	24.64	28.49	-101.43
6166	-0.247	-0.78	-0.327	8.82	26.74	-103.32
6186	-0.222	-0.856	-0.341	10.01	25.76	-96.88
6204	-0.196	-0.853	-0.339	13.3	23.45	-87.78
6226	-0.144	-0.86	-0.346	19.88	23.45	-75.6
6241	-0.111	-0.859	-0.36	20.86	25.55	-68.88
6266	-0.132	-0.898	-0.399	21.49	26.32	-57.75
6282	-0.136	-0.949	-0.384	18.48	23.73	-55.44
6301	-0.167	-1.083	-0.407	19.39	18.9	-54.95
6326	-0.169	-1.079	-0.426	25.76	9.38	-47.46
6342	-0.139	-1.054	-0.446	29.54	5.46	-43.12
6363	-0.103	-0.987	-0.458	36.05	1.54	-34.44
6387	-0.066	-0.872	-0.404	32.9	1.33	-25.48
6407	-0.072	-0.84	-0.334	22.26	-1.26	-19.39
6429	-0.053	-0.863	-0.282	10.64	-3.5	-14.21
6451	-0.044	-0.921	-0.264	4.55	-4.48	-4.9
6468	-0.017	-0.945	-0.276	-1.61	-4.34	1.05
6492	-0.001	-1.016	-0.31	-0.21	-1.12	16.87
6511	-0.022	-1.039	-0.323	1.82	-0.77	25.76
6532	-0.042	-1.072	-0.317	6.3	-1.05	38.92
6552	-0.056	-1.064	-0.308	8.26	-1.12	47.74
6572	-0.084	-1.035	-0.298	9.03	-2.03	55.37
6592	-0.086	-1.017	-0.294	6.09	-2.66	60.83
6611	-0.106	-0.986	-0.295	1.61	-4.2	66.01
6630	-0.111	-0.978	-0.267	-2.1	-7.77	69.86
6654	-0.137	-1.008	-0.21	-1.33	-12.81	75.46
6674	-0.072	-0.954	-0.287	-4.48	-14.28	78.89
6690	-0.069	-0.961	-0.31	-3.57	-9.73	82.74
6710	-0.179	-0.894	-0.312	0.49	-5.53	90.51
6729	-0.303	-0.841	-0.24	-1.82	-12.95	92.82
6754	-0.377	-0.867	-0.208	-7.56	-18.62	86.38
6773	-0.425	-0.853	-0.154	-14.35	-31.64	79.45
6794	-0.502	-0.839	-0.102	-18.41	-42.56	71.33
6813	-0.453	-0.81	-0.164	-25.62	-50.68	61.04
6837	-0.42	-0.752	-0.251	-18.27	-57.82	68.18
6857	-0.369	-0.647	-0.286	-15.47	-57.26	69.02
6877	-0.39	-0.617	-0.327	-29.33	-54.88	65.17
6892	-0.409	-0.704	-0.393	-34.65	-52.43	70.98
6917	-0.4	-0.673	-0.394	-39.48	-47.18	76.58
6936	-0.348	-0.644	-0.355	-45.43	-39.34	80.99
6955	-0.356	-0.66	-0.372	-42.63	-24.15	89.11
6975	-0.404	-0.604	-0.41	-40.53	-12.81	96.32
6999	-0.468	-0.521	-0.428	-47.6	-2.87	98.98
7014	-0.499	-0.511	-0.366	-65.59	0.63	96.67
7034	-0.543	-0.634	-0.335	-65.94	4.2	99.68
7059	-0.579	-0.713	-0.328	-39.83	9.1	107.8
7078	-0.662	-0.647	-0.34	-25.13	9.24	108.57
7097	-0.694	-0.647	-0.31	-14.35	2.38	106.89
7115	-0.75	-0.608	-0.244	-4.27	6.93	103.46
7139	-0.922	-0.536	-0.224	-3.43	-3.29	94.92
7156	-0.983	-0.481	-0.201	-4.9	-13.79	87.99
7176	-0.995	-0.468	-0.226	-5.32	-23.59	83.23
7200	-1.049	-0.469	-0.268	-2.45	-32.83	81.83
7217	-1.003	-0.386	-0.274	-3.78	-42.49	80.99
7236	-0.947	-0.299	-0.268	-33.95	-38.36	74.34
7260	-0.939	-0.315	-0.302	-26.53	-35.21	68.88
7280	-0.859	-0.342	-0.289	-28.42	-32.13	68.39
7300	-0.81	-0.354	-0.349	-19.04	-20.58	68.39
7320	-0.773	-0.307	-0.369	-6.51	-10.36	68.53
7340	-0.797	-0.188	-0.373	-6.58	-1.54	63.84
7360	-0.821	-0.143	-0.337	-14.84	2.94	54.67
7375	-0.837	-0.135	-0.339	-21.7	5.53	50.19
7400	-0.949	-0.111	-0.312	-16.8	11.41	47.67
7420	-0.987	-0.038	-0.298	-18.41	9.8	43.4
7440	-1.04	-0.035	-0.3	-17.22	3.29	42.77
7458	-1.039	0.011	-0.314	-21.21	1.47	38.85
7479	-1.059	-0.075	-0.388	-24.92	1.75	32.55
7500	-1.071	-0.115	-0.432	-20.02	1.26	32.41
7516	-1.056	-0.1	-0.453	-14.63	4.83	31.01
7538	-1.088	-0.049	-0.487	-16.52	10.5	25.83
7557	-1.112	0.0	-0.482	-24.22	16.45	18.13
7577	-1.14	0.005	-0.5	-28.98	20.72	9.17
7597	-1.194	-0.052	-0.515	-27.79	26.46	1.68
7619	-1.243	-0.122	-0.527	-18.2	26.32	-4.97
7643	-1.269	-0.14	-0.542	-7.84	24.36	-13.72
7662	-1.263	-0.101	-0.561	1.68	19.88	-23.1
7680	-1.216	-0.05	-0.562	2.52	15.26	-37.87
7704	-1.189	-0.053	-0.541	2.59	11.34	-56.91
7723	-1.108	-0.146	-0.495	6.79	10.85	-68.53
7747	-1.086	-0.199	-0.491	19.46	11.69	-79.31
7765	-1.056	-0.185	-0.49	27.51	12.11	-90.23
7784	-0.988	-0.193	-0.464	36.26	14.35	-98.21
7804	-0.979	-0.143	-0.393	33.18	16.17	-112.84
7828	-0.885	-0.224	-0.369	28.98	22.19	-125.58
7848	-0.876	-0.316	-0.366	31.85	24.57	-132.79
7865	-0.844	-0.433	-0.37	39.69	26.88	-134.82
7884	-0.849	-0.521	-0.407	58.24	28.91	-132.79
7904	-0.813	-0.471	-0.424	69.58	28.35	-134.12
7924	-0.764	-0.4	-0.409	60.62	25.41	-143.5
7945	-0.679	-0.443	-0.371	54.95	26.04	-149.59
7969	-0.659	-0.496	-0.336	51.66	24.85	-154.42
7989	-0.592	-0.573	-0.336	55.02	26.18	-153.51
8008	-0.529	-0.618	-0.344	59.08	19.95	-152.88
8026	-0.425	-0.651	-0.334	66.78	20.72	-149.38
8050	-0.361	-0.606	-0.315	66.5	24.78	-150.08
8070	-0.331	-0.628	-0.279	53.27	31.01	-153.72
8088	-0.356	-0.739	-0.285	50.82	30.31	-152.18
8110	-0.328	-0.792	-0.295	49.07	30.59	-150.08
8131	-0.268	-0.858	-0.313	52.15	31.15	-145.46
8154	-0.242	-0.864	-0.302	59.78	33.46	-138.18
8174	-0.209	-0.881	-0.263	62.44	34.72	-134.12
8194	-0.159	-0.92	-0.251	60.13	32.41	-131.39
8218	-0.119	-0.875	-0.247	53.27	34.58	-130.69
8238	-0.046	-0.906	-0.265	46.2	32.62	-129.22
8258	-0.017	-0.944	-0.263	46.76	34.23	-126.28
8277	0.003	-0.922	-0.213	51.31	33.95	-120.96
8298	0.029	-0.84	-0.154	48.3	34.23	-116.83
8314	0.055	-0.809	-0.141	38.08	30.66	-115.08
8338	0.101	-0.811	-0.154	27.51	28.28	-107.38
8358	0.148	-0.8	-0.196	18.13	24.29	-94.92
8378	0.203	-0.824	-0.229	12.88	21.42	-80.01
8398	0.258	-0.895	-0.246	14.56	25.27	-64.12
8418	0.256	-0.939	-0.245	18.97	23.38	-49.84
8438	0.285	-0.982	-0.22	20.93	19.46	-38.92
8462	0.281	-0.993	-0.215	26.32	17.01	-25.27
8478	0.29	-0.963	-0.222	22.47	7.77	-20.02
8497	0.335	-0.939	-0.213	18.2	1.47	-14.42
8517	0.342	-0.931	-0.172	17.36	-2.52	-6.79
8539	0.347	-0.854	-0.135	15.61	-6.79	1.54
8557	0.386	-0.83	-0.121	5.6	-11.69	5.67
8580	0.416	-0.851	-0.118	-17.64	-13.09	14.14
8602	0.415	-0.868	-0.077	-3.15	-11.76	22.33
8622	0.387	-0.897	-0.069	-6.65	-12.32	28.56
8638	0.401	-0.914	-0.081	-7.21	-14.35	33.95
8662	0.413	-0.946	-0.092	-6.58	-13.37	42.7
8682	0.352	-0.978	-0.135	-2.8	-12.88	51.59
8701	0.33	-0.981	-0.147	-5.32	-14.21	57.89
8724	0.287	-0.998	-0.132	-3.71	-14.28	67.27
8742	0.229	-0.978	-0.118	-2.59	-16.52	74.06
8762	0.183	-0.976	-0.132	-3.5	-21.42	82.39
8784	0.205	-0.923	-0.202	-5.53	-22.47	91.0
8804	0.182	-0.869	-0.216	-10.99	-20.02	98.07
8826	0.12	-0.839	-0.199	-23.24	-19.88	102.55
8845	0.064	-0.868	-0.193	-24.99	-19.39	109.62
8871	0.01	-0.853	-0.198	-23.66	-17.22	116.41
8890	-0.041	-0.826	-0.185	-26.53	-14.91	118.23
8910	-0.086	-0.748	-0.136	-29.82	-11.41	118.86
8929	-0.149	-0.681	-0.132	-37.38	-10.36	117.11
8953	-0.155	-0.715	-0.154	-38.71	-9.52	118.72
8970	-0.188	-0.767	-0.167	-30.73	-5.95	123.62
8991	-0.276	-0.756	-0.187	-25.48	-8.68	129.99
9011	-0.325	-0.732	-0.221	-27.09	-15.05	132.44
9035	-0.402	-0.7	-0.241	-33.46	-19.95	133.77
9054	-0.45	-0.664	-0.276	-39.62	-26.46	133.63
9075	-0.46	-0.631	-0.287	-49.98	-22.75	133.14
9091	-0.534	-0.608	-0.292	-60.69	-20.3	131.6
9113	-0.592	-0.64	-0.278	-68.6	-21.07	128.45
9133	-0.612	-0.732	-0.243	-70.77	-23.87	125.44
9153	-0.601	-0.814	-0.252	-57.54	-19.18	127.89
9172	-0.671	-0.811	-0.296	-36.33	-13.23	130.41
9197	-0.77	-0.691	-0.304	-21.98	-12.39	129.57
9215	-0.802	-0.545	-0.285	-31.15	-21.98	119.35
9235	-0.815	-0.527	-0.278	-46.06	-25.55	105.07
9256	-0.801	-0.629	-0.304	-40.46	-25.69	98.28
9279	-0.868	-0.543	-0.339	-28.21	-23.1	93.38
9298	-0.886	-0.411	-0.357	-31.57	-22.75	83.93
9323	-0.897	-0.313	-0.38	-54.74	-21.49	66.15
9340	-0.89	-0.284	-0.392	-70.14	-17.71	58.03
9361	-0.883	-0.319	-0.388	-75.74	-10.85	53.41
9381	-0.891	-0.303	-0.376	-76.93	-1.33	53.13
9405	-0.925	-0.224	-0.373	-85.4	8.05	46.62
9425	-0.945	-0.182	-0.424	-90.79	8.19	45.01
9445	-0.932	-0.259	-0.453	-81.76	10.85	44.87
9461	-0.985	-0.271	-0.456	-68.53	17.64	46.2
9480	-1.04	-0.253	-0.516	-61.6	22.75	40.95
9504	-1.146	-0.305	-0.559	-50.47	16.38	34.16
9524	-1.181	-0.267	-0.543	-34.86	6.23	29.89
9543	-1.212	-0.106	-0.532	-32.2	3.22	22.96
9568	-1.202	-0.074	-0.595	-45.29	1.4	7.63
9588	-1.2	-0.077	-0.627	-48.58	-2.8	-0.84
9606	-1.155	-0.081	-0.628	-43.89	-2.8	0.35
9627	-1.162	0.018	-0.586	-34.86	-2.24	5.25
9647	-1.195	0.048	-0.493	-37.52	-8.68	4.34
9667	-1.155	-0.03	-0.436	-38.08	-8.54	1.68
9690	-1.161	-0.017	-0.393	-30.8	-22.12	-0.98
9713	-1.066	-0.088	-0.402	-17.08	-28.77	2.17
9732	-0.996	0.058	-0.341	-0.21	-35.28	12.46
9752	-0.935	0.124	-0.246	5.04	-39.34	15.75
9775	-0.898	0.111	-0.219	14.42	-42.91	23.59
9796	-0.965	0.063	-0.264	42.0	-52.5	40.88
9816	-0.948	0.085	-0.268	62.58	-60.2	50.47
9835	-0.844	0.102	-0.276	69.79	-67.48	55.72
9855	-0.754	0.094	-0.331	70.63	-58.1	62.02
9875	-0.743	0.032	-0.452	68.88	-55.79	70.98
9899	-0.726	-0.035	-0.499	75.04	-54.95	76.44
9919	-0.717	0.023	-0.398	42.28	-50.47	68.32
9939	-0.781	-0.092	-0.245	5.74	-47.67	51.94
9958	-0.812	-0.192	-0.223	-14.84	-36.4	35.63
9977	-0.862	-0.203	-0.212	-32.9	-44.17	25.9
10000	-0.781	-0.077	-0.198	-67.41	-41.02	4.2
10021	-0.712	-0.094	-0.217	-128.73	-36.82	-24.64
10040	-0.762	-0.231	-0.244	-148.89	-27.3	-34.51
10059	-0.951	-0.285	-0.296	-138.46	-24.43	-29.89
10078	-0.958	-0.194	-0.328	-126.63	-27.86	-21.49
10100	-0.876	-0.018	-0.381	-130.34	-20.72	-18.76
10124	-0.863	-0.1	-0.434	-139.44	-11.34	-21.14
10140	-0.838	-0.2	-0.443	-124.74	-2.31	-16.24
10164	-0.892	-0.256	-0.444	-98.63	12.11	-10.01
10183	-0.946	-0.166	-0.366	-81.55	19.53	-7.35
10201	-0.934	-0.138	-0.297	-71.82	21.7	-4.06
10220	-0.946	-0.185	-0.261	-54.74	25.69	-0.77
10245	-0.982	-0.218	-0.319	-37.73	28.21	-3.99
10265	-0.978	-0.241	-0.394	-27.44	30.24	-11.97
10284	-0.967	-0.226	-0.427	-22.82	29.05	-13.79
10304	-0.977	-0.097	-0.348	-3.99	31.5	-7.42
10320	-1.036	-0.05	-0.34	3.57	33.6	-12.67
10340	-1.075	-0.02	-0.342	3.57	27.93	-20.37
10365	-1.043	-0.018	-0.345	2.17	27.86	-25.06
10385	-1.057	-0.085	-0.4	7.84	30.73	-26.32
10404	-1.123	-0.09	-0.42	11.69	26.88	-25.83
10425	-1.143	-0.055	-0.371	20.16	22.26	-19.11
10445	-1.119	-0.03	-0.367	31.01	19.67	-13.02
10464	-1.208	-0.099	-0.37	50.4	15.05	-3.57
10482	-1.272	-0.005	-0.359	59.08	2.24	3.15
10502	-1.172	0.163	-0.325	49.14	-6.86	5.6
10526	-1.129	0.179	-0.281	42.98	-8.61	4.69
10546	-1.132	0.187	-0.279	26.53	-9.17	6.79
10562	-1.103	0.155	-0.3	13.65	-9.03	6.16
10584	-1.115	0.122	-0.338	6.51	-7.63	13.02
10604	-1.129	0.126	-0.379	-1.89	-8.82	18.41
10628	-1.124	0.114	-0.406	-9.94	-15.26	23.8
10648	-1.116	0.05	-0.446	-13.3	-19.39	28.7
10668	-1.093	0.066	-0.445	-15.12	-22.68	29.54
10687	-1.066	0.093	-0.405	-22.26	-26.53	30.52
10707	-1.018	0.138	-0.351	-27.37	-30.52	37.17
10727	-1.065	0.116	-0.313	-23.38	-32.83	45.01
10746	-1.044	0.113	-0.303	-26.18	-37.52	48.72
10769	-1.025	0.153	-0.294	-30.73	-42.28	54.53
10788	-0.978	0.111	-0.315	-34.79	-42.84	54.18
10813	-0.991	0.046	-0.329	-25.06	-41.09	61.74
10833	-1.037	0.221	-0.179	-22.12	-49.98	73.5
10853	-0.978	0.317	-0.073	-23.1	-52.71	80.15
10873	-0.889	0.311	-0.083	-32.9	-47.67	81.2
10893	-0.897	0.252	-0.171	-46.69	-47.18	80.85
10912	-0.874	0.158	-0.218	-53.83	-47.04	80.22
10932	-0.851	0.055	-0.222	-43.75	-48.3	84.49
10953	-0.854	0.313	-0.08	-35.0	-59.36	94.64
10970	-0.8	0.348	-0.013	-41.02	-55.37	93.94
10990	-0.847	0.259	-0.076	-49.84	-47.67	90.37
11014	-0.856	0.132	-0.133	-46.06	-50.68	88.13
11033	-0.788	0.148	-0.108	-26.74	-42.84	91.63
11058	-0.764	0.357	0.005	-8.33	-40.46	96.25
11078	-0.713	0.499	0.055	-25.48	-31.22	85.47
11098	-0.781	0.413	0.025	-33.81	-19.04	73.92
11116	-0.847	0.292	-0.032	-31.5	-19.81	68.18
11137	-0.834	0.428	0.145	-13.58	-33.81	70.56
11156	-0.626	0.524	0.228	-11.34	-38.64	63.56
11177	-0.585	0.607	0.192	-24.78	-22.54	47.39
11201	-0.659	0.496	0.042	-33.46	-8.75	30.59
11221	-0.733	0.444	0.038	-21.35	-19.18	28.21
11241	-0.703	0.727	0.239	-10.36	-25.48	27.86
11265	-0.6	0.806	0.286	-28.07	-21.98	14.35
11285	-0.623	0.755	0.212	-34.3	-13.79	9.03
11304	-0.636	0.701	0.175	-36.47	-8.05	8.96
11325	-0.737	0.61	0.195	-19.53	-1.54	13.93
11344	-0.775	0.661	0.226	-5.25	-1.05	21.7
11368	-0.774	0.74	0.261	3.85	3.15	26.74
11388	-0.832	0.751	0.25	8.05	8.33	26.53
11408	-0.86	0.829	0.297	9.66	7.07	24.36
11432	-0.895	0.886	0.304	9.17	6.72	20.3
11448	-0.92	0.934	0.29	8.05	3.36	16.8
11472	-0.88	0.961	0.276	0.35	-3.15	9.1
11492	-0.779	0.884	0.206	-0.21	3.01	2.66
11512	-0.799	0.85	0.166	1.61	8.4	-5.46
11529	-0.804	0.816	0.208	2.8	11.41	-11.27
11549	-0.783	0.778	0.265	6.58	12.53	-18.34
11569	-0.732	0.75	0.249	9.8	16.59	-26.67
11588	-0.688	0.703	0.226	6.51	21.77	-36.61
11613	-0.655	0.624	0.202	15.89	29.33	-44.59
11633	-0.684	0.591	0.21	26.6	33.67	-47.25
11653	-0.708	0.599	0.19	27.51	33.95	-55.16
11672	-0.702	0.553	0.171	22.05	34.23	-64.12
11692	-0.694	0.457	0.135	22.47	38.92	-72.1
11717	-0.728	0.409	0.094	31.01	43.19	-75.39
11737	-0.767	0.432	0.066	38.64	44.66	-75.53
11757	-0.806	0.451	0.041	42.42	43.54	-77.42
11777	-0.83	0.434	-0.007	39.06	43.47	-81.69
11797	-0.871	0.391	-0.012	34.16	41.72	-86.59
11815	-0.889	0.342	-0.016	31.15	38.64	-87.78
11835	-0.911	0.32	-0.037	30.24	34.72	-85.96
11855	-0.919	0.331	-0.049	26.6	30.38	-85.75
11878	-0.891	0.245	-0.096	14.42	25.62	-88.69
11898	-0.87	0.127	-0.147	14.98	25.06	-90.72
11922	-0.895	0.067	-0.163	25.48	25.97	-86.38
11942	-0.901	0.108	-0.158	29.19	20.86	-85.89
11959	-0.897	0.061	-0.189	31.71	22.12	-85.4
11978	-0.897	0.004	-0.246	41.16	21.14	-82.53
12003	-0.888	0.034	-0.254	47.18	23.1	-77.56
12023	-0.92	0.063	-0.276	48.72	26.95	-73.08
12047	-0.899	0.145	-0.289	35.84	27.37	-74.9
12065	-0.924	0.082	-0.325	23.66	31.01	-74.76
12085	-0.965	-0.007	-0.333	31.36	29.96	-66.71
12105	-0.929	0.054	-0.315	37.1	25.69	-55.51
12129	-0.896	0.086	-0.294	33.88	28.49	-49.77
12149	-0.898	0.076	-0.292	28.49	31.78	-45.57
12164	-0.935	0.041	-0.313	23.52	30.38	-41.86
12189	-0.932	0.026	-0.32	25.76	27.3	-34.02
12207	-0.938	0.052	-0.365	24.64	27.23	-28.0
12227	-0.977	0.077	-0.406	18.69	27.86	-24.22
12246	-1.032	0.049	-0.441	8.19	23.87	-23.52
12268	-1.047	0.032	-0.448	3.78	20.51	-19.32
12292	-1.074	-0.011	-0.468	4.48	18.97	-17.08
12311	-1.118	-0.044	-0.454	9.94	13.51	-12.46
12331	-1.129	-0.081	-0.42	20.02	11.76	-8.82
12350	-1.157	-0.055	-0.406	32.48	8.12	-6.51
12373	-1.152	0.022	-0.426	36.33	3.01	-9.1
12393	-1.135	0.059	-0.425	32.34	2.66	-14.42
12417	-1.181	0.055	-0.415	30.24	-2.87	-14.63
12436	-1.175	0.057	-0.39	31.01	-8.4	-11.2
12452	-1.15	0.064	-0.36	26.32	-10.64	-7.98
12477	-1.115	0.053	-0.332	13.51	-10.64	-3.99
12497	-1.09	0.021	-0.334	5.32	-10.78	0.42
12521	-1.089	-0.062	-0.351	6.86	-9.31	9.1
12538	-1.135	-0.006	-0.358	13.58	-12.67	16.73
12561	-1.142	0.01	-0.362	13.3	-17.36	23.87
12577	-1.115	0.009	-0.367	10.57	-23.03	27.23
12600	-1.084	-0.025	-0.383	9.66	-24.08	32.41
12622	-1.122	-0.065	-0.352	13.37	-26.04	38.5
12646	-1.102	-0.018	-0.305	18.97	-29.68	49.49
12666	-1.116	0.081	-0.29	8.89	-34.72	50.54
12686	-1.089	0.116	-0.328	-6.58	-31.15	46.27
12706	-1.03	-0.127	-0.326	-23.38	-45.57	39.06
12725	-1.032	-0.026	-0.301	2.1	-35.0	52.99
12750	-0.979	0.154	-0.234	4.69	-42.49	60.48
12770	-0.946	0.095	-0.181	1.47	-38.36	64.61
12790	-0.954	0.104	-0.168	1.75	-37.8	69.37
12808	-0.909	0.153	-0.147	-3.43	-39.69	74.34
12830	-0.841	0.112	-0.139	-7.14	-37.52	80.92
12846	-0.853	0.124	-0.117	-2.87	-36.47	85.12
12866	-0.888	0.223	-0.1	-12.25	-38.71	87.57
12890	-0.9	0.271	-0.059	-27.72	-44.87	88.97
12910	-0.861	0.193	-0.12	-35.28	-45.15	88.62
12930	-0.835	0.167	-0.19	-36.89	-45.64	88.76
12947	-0.802	0.27	-0.135	-35.35	-49.21	94.57
12965	-0.78	0.318	-0.044	-36.05	-49.28	98.56
12990	-0.86	0.29	-0.003	-31.71	-40.39	97.16
13009	-0.959	0.313	-0.086	-43.12	-43.75	89.81
13026	-0.887	0.317	-0.11	-51.66	-45.36	85.68
13050	-0.833	0.365	-0.059	-46.76	-45.29	88.76
13066	-0.831	0.317	-0.062	-31.64	-32.55	89.25
13086	-0.942	0.339	-0.108	-20.79	-27.51	83.16
13110	-0.954	0.333	-0.122	-22.47	-27.02	65.17
13130	-0.912	0.487	-0.015	-17.99	-29.26	59.15
13145	-0.777	0.684	0.121	-27.44	-31.01	49.14
13170	-0.724	0.613	0.061	-39.9	-6.51	31.29
13190	-0.816	0.534	-0.007	-45.78	-2.38	21.63
13208	-0.801	0.584	0.104	-44.31	-11.97	20.51
13229	-0.617	0.616	0.187	-41.16	-9.59	20.09
13248	-0.606	0.623	0.197	-38.71	1.54	21.91
13274	-0.658	0.592	0.139	-42.35	5.6	24.64
13292	-0.634	0.456	0.092	-44.17	6.37	23.45
13310	-0.66	0.411	0.129	-23.8	11.2	30.94
13330	-0.702	0.537	0.24	5.88	8.05	40.95
13349	-0.703	0.629	0.247	16.52	11.97	41.02
13374	-0.753	0.729	0.191	15.12	13.09	33.25
13392	-0.763	0.759	0.179	4.69	13.86	26.11
13416	-0.749	0.712	0.161	13.86	23.31	21.63
13434	-0.821	0.786	0.188	14.49	23.59	17.92
13455	-0.898	0.752	0.178	24.92	28.21	15.33
13471	-0.933	0.781	0.169	29.68	25.76	11.76
13491	-0.934	0.767	0.154	35.56	24.78	5.88
13516	-0.948	0.864	0.162	41.65	20.16	-2.31
13532	-0.911	0.903	0.166	36.89	15.33	-12.95
13555	-0.828	0.838	0.124	27.58	16.17	-30.03
13575	-0.827	0.717	0.011	29.61	20.16	-40.88
13595	-0.839	0.686	-0.039	31.15	19.18	-52.15
13619	-0.769	0.66	0.012	28.56	20.44	-66.57
13634	-0.728	0.645	0.056	27.37	22.54	-74.27
13658	-0.715	0.541	0.043	32.2	33.74	-80.85
13677	-0.778	0.45	-0.004	36.12	39.34	-84.21
13697	-0.817	0.389	-0.041	37.52	38.01	-87.22
13717	-0.846	0.346	-0.068	38.64	37.24	-88.83
13742	-0.862	0.395	-0.077	36.82	32.48	-92.33
13757	-0.852	0.355	-0.079	36.05	31.85	-92.19
13782	-0.88	0.31	-0.117	35.91	26.88	-92.19
13802	-0.905	0.215	-0.172	37.87	23.87	-87.71
13821	-0.882	0.21	-0.209	42.7	17.71	-82.46
13841	-0.832	0.293	-0.205	36.33	15.68	-78.82
13865	-0.8	0.232	-0.244	26.25	19.46	-78.19
13885	-0.855	0.075	-0.32	30.73	24.92	-74.34
13902	-0.944	0.072	-0.329	40.74	20.51	-67.06
13926	-0.891	0.216	-0.29	38.92	17.64	-63.98
13950	-0.876	0.181	-0.322	28.84	23.24	-69.37
13970	-0.928	0.074	-0.363	22.47	24.22	-66.71
13990	-0.943	0.087	-0.37	22.54	25.13	-63.49
14007	-0.966	0.084	-0.361	23.73	25.97	-60.83
14027	-0.959	0.081	-0.343	29.75	21.42	-48.16
14051	-0.902	0.153	-0.308	40.46	21.28	-34.58
14071	-0.91	0.123	-0.291	44.17	23.59	-28.84
14086	-0.92	0.116	-0.314	46.55	22.82	-24.99
14106	-0.948	0.133	-0.339	44.17	22.96	-24.08
14127	-0.998	0.203	-0.336	29.12	19.95	-26.11
14146	-0.975	0.154	-0.332	13.93	15.89	-30.94
14171	-0.97	0.134	-0.357	6.93	16.52	-32.97
14190	-1.022	0.069	-0.417	6.58	18.48	-31.29
14214	-1.035	0.061	-0.434	7.56	12.67	-27.3
14234	-1.042	0.058	-0.424	13.58	11.9	-23.45
14254	-1.05	0.075	-0.408	17.85	10.01	-20.3
14274	-1.047	0.056	-0.406	21.28	8.4	-16.87
14291	-1.052	0.049	-0.393	31.99	4.55	-8.68
14315	-1.023	0.049	-0.369	39.83	4.76	0.0
14334	-1.081	0.113	-0.371	37.94	3.29	1.82
14355	-1.127	0.147	-0.389	25.69	0.77	2.1
14375	-1.126	0.161	-0.407	10.99	-3.08	0.7
14395	-1.127	0.141	-0.428	-5.18	-4.97	0.07
14412	-1.127	0.11	-0.44	-11.41	-8.68	0.84
14433	-1.098	0.127	-0.433	-19.18	-14.49	0.77
14453	-1.132	0.096	-0.452	-20.37	-18.13	2.52
14477	-1.138	0.107	-0.448	-25.13	-23.31	4.69
14493	-1.128	0.174	-0.42	-35.0	-30.52	6.23
14513	-1.072	0.153	-0.4	-43.68	-33.11	6.65
14534	-1.103	0.116	-0.403	-46.9	-33.32	8.82
14557	-1.123	0.028	-0.392	-42.49	-40.46	15.12
14581	-1.135	0.085	-0.354	-27.44	-44.87	31.22
14601	-1.12	0.146	-0.327	-23.17	-50.75	37.03
14617	-1.127	0.125	-0.335	-26.67	-54.81	36.61
14641	-1.101	0.106	-0.315	-28.42	-58.31	42.56
14656	-1.022	0.113	-0.273	-27.3	-62.23	47.74
14678	-0.979	0.057	-0.258	-17.71	-58.1	54.81
14701	-0.986	0.025	-0.128	-5.95	-56.0	61.46
14720	-0.928	0.148	-0.186	-7.42	-59.71	67.97
14741	-0.834	0.15	-0.156	-13.23	-56.28	69.51
14765	-0.822	0.132	-0.162	-16.59	-54.32	73.85
14785	-0.824	0.197	-0.119	-24.01	-60.9	78.19
14803	-0.76	0.212	-0.085	-34.02	-59.92	84.0
14820	-0.697	0.246	-0.123	-52.5	-58.66	82.25
14845	-0.712	0.084	-0.188	-59.57	-50.19	83.3
14860	-0.829	-0.074	-0.187	-46.9	-47.81	87.01
14882	-0.893	-0.083	-0.095	-15.26	-51.8	98.77
14904	-0.863	0.133	0.004	7.42	-52.5	101.92
14924	-0.795	0.289	0.018	-1.68	-47.81	88.13
14944	-0.767	0.237	-0.041	-15.05	-40.81	72.38
14968	-0.808	0.119	-0.064	-6.51	-31.43	62.3
14984	-0.869	0.277	0.055	12.32	-36.82	60.97
15007	-0.785	0.444	0.117	7.14	-34.16	46.48
15027	-0.805	0.487	0.06	-11.34	-26.88	28.63
15051	-0.824	0.523	0.026	-27.72	-29.82	13.09
15075	-0.807	0.546	0.103	-22.05	-27.23	11.76
15095	-0.795	0.579	0.166	-16.24	-23.31	12.32
15115	-0.821	0.534	0.154	-11.9	-18.76	12.39
15133	-0.877	0.536	0.162	-6.44	-17.01	18.62
15157	-0.855	0.486	0.146	10.43	-14.56	29.82
15177	-0.833	0.625	0.206	25.76	-14.42	42.14
15197	-0.808	0.767	0.24	19.53	-9.1	42.35
15217	-0.767	0.737	0.22	15.75	-4.34	42.0
15237	-0.737	0.726	0.222	12.04	1.75	40.46
15257	-0.772	0.65	0.222	10.15	5.46	35.84
15280	-0.836	0.636	0.22	17.01	4.97	35.91
15301	-0.813	0.661	0.192	17.92	3.99	29.33
15320	-0.803	0.694	0.156	15.05	5.11	19.25
15344	-0.809	0.701	0.128	16.31	6.23	6.86
15361	-0.848	0.669	0.082	28.91	9.94	2.24
15384	-0.893	0.72	0.068	39.34	5.39	-4.97
15402	-0.875	0.818	0.058	50.82	5.25	-8.05
15421	-0.823	0.946	0.062	43.12	5.88	-20.3
15446	-0.79	0.962	0.049	25.41	10.29	-36.89
15465	-0.806	0.872	0.03	16.1	16.8	-43.4
15486	-0.796	0.786	0.067	16.52	19.88	-47.6
15505	-0.783	0.732	0.092	22.82	27.58	-50.12
15523	-0.791	0.732	0.136	13.37	26.67	-58.31
15543	-0.813	0.605	0.116	5.74	28.98	-65.45
15563	-0.834	0.469	0.061	6.79	28.42	-70.49
15587	-0.833	0.428	0.034	10.08	27.23	-78.05
15602	-0.821	0.37	0.033	13.72	27.58	-81.83
15622	-0.826	0.339	0.026	18.48	26.74	-85.75
15642	-0.822	0.38	0.026	21.98	24.5	-85.47
15665	-0.802	0.304	0.008	17.78	28.77	-89.67
15684	-0.858	0.126	-0.042	17.5	28.77	-88.27
15704	-0.862	0.251	-0.058	16.24	26.88	-85.4
15729	-0.802	0.26	-0.049	11.13	24.36	-81.41
15748	-0.811	0.206	-0.065	14.56	27.16	-75.32
15768	-0.842	0.156	-0.076	19.81	26.04	-70.0
15787	-0.841	0.16	-0.079	19.53	22.54	-66.5
15812	-0.837	0.249	-0.084	10.01	24.15	-62.72
15832	-0.822	0.27	-0.166	-17.78	25.76	-70.63
15847	-0.868	0.121	-0.229	-30.73	29.05	-74.34
15870	-0.912	0.001	-0.297	-39.55	30.17	-78.26
15887	-0.971	-0.068	-0.286	-33.32	28.56	-72.87
15907	-0.963	-0.081	-0.251	-16.17	29.4	-62.23
15932	-1.005	-0.008	-0.265	1.47	33.25	-54.32
15952	-1.049	-0.03	-0.288	4.13	34.16	-53.06
15971	-1.096	-0.13	-0.293	13.37	31.5	-49.14
15987	-1.086	-0.007	-0.266	29.68	27.79	-41.93
16011	-1.03	-0.036	-0.221	50.4	24.5	-32.69
16035	-1.018	0.012	-0.23	62.37	22.19	-28.42
16055	-1.001	0.07	-0.233	62.72	18.06	-30.31
16075	-0.984	0.097	-0.236	53.55	17.57	-34.86
16095	-0.998	0.154	-0.271	29.89	18.13	-39.9
16115	-1.004	0.187	-0.289	5.11	17.15	-47.39
16135	-0.989	0.152	-0.299	-17.08	18.41	-52.29
16154	-1.017	0.015	-0.339	-26.18	20.37	-53.2
16173	-1.027	-0.036	-0.369	-26.81	20.58	-51.66
16193	-1.054	-0.126	-0.368	-18.41	19.25	-49.35
16217	-1.032	-0.081	-0.351	0.42	18.13	-39.27
16235	-1.052	-0.028	-0.339	2.59	16.45	-36.4
16254	-1.089	-0.082	-0.369	4.62	15.75	-31.99
16274	-1.112	-0.105	-0.414	3.29	12.81	-28.98
16294	-1.122	-0.139	-0.442	3.15	8.05	-25.55
16314	-1.09	-0.087	-0.428	2.45	0.98	-20.86
16335	-1.061	-0.126	-0.417	3.15	-0.77	-17.43
16357	-1.082	-0.151	-0.413	6.44	-4.55	-14.35
16376	-1.093	-0.16	-0.404	11.2	-8.19	-11.34
16397	-1.063	-0.063	-0.399	12.18	-11.76	-8.82
16418	-1.018	0.022	-0.388	1.26	-14.35	-7.56
16442	-1.0	-0.033	-0.383	-7.07	-14.42	-3.78
16461	-1.038	-0.095	-0.418	-8.33	-15.47	-0.63
16480	-1.074	-0.177	-0.455	-4.34	-19.46	2.73
16497	-1.075	-0.158	-0.423	9.03	-24.15	12.25
16520	-1.039	-0.081	-0.375	14.07	-26.74	21.35
16544	-1.056	-0.102	-0.37	15.75	-26.18	27.93
16564	-1.086	-0.161	-0.362	18.69	-28.0	34.16
16584	-1.077	-0.136	-0.352	24.64	-30.73	42.7
16604	-1.019	0.011	-0.297	31.64	-36.61	52.57
16627	-0.999	0.021	-0.291	28.98	-35.35	57.33
16648	-1.013	0.013	-0.295	19.53	-37.52	58.73
16666	-0.989	-0.011	-0.278	15.47	-36.89	61.39
16686	-1.011	-0.034	-0.274	20.65	-36.12	67.27
16707	-1.023	-0.014	-0.26	27.02	-36.89	71.26
16729	-0.961	0.113	-0.211	24.85	-38.43	75.6
16752	-0.922	0.155	-0.143	17.5	-34.93	78.4
16773	-0.887	0.085	-0.11	11.34	-28.0	80.22
16789	-0.933	0.091	-0.125	8.82	-24.64	82.11
16808	-0.977	0.133	-0.14	-0.7	-24.92	84.42
16830	-0.919	0.213	-0.152	-16.38	-26.74	84.7
16853	-0.921	0.241	-0.158	-31.08	-24.57	85.4
16877	-0.941	0.276	-0.16	-49.28	-24.85	86.73
16893	-0.949	0.296	-0.13	-53.48	-26.88	90.3
16912	-0.868	0.254	-0.116	-61.6	-26.11	89.74
16932	-0.85	0.288	-0.102	-62.37	-19.25	92.68
16952	-0.874	0.292	-0.065	-60.9	-16.66	100.73
16977	-0.893	0.28	-0.046	-51.87	-16.45	109.62
16993	-0.916	0.217	-0.087	-44.38	-14.56	113.89
17017	-0.896	0.24	-0.126	-42.7	-16.38	113.75
17037	-0.83	0.357	-0.056	-39.41	-21.0	117.25
17058	-0.739	0.332	-0.01	-29.19	-11.55	116.9
17080	-0.824	0.362	-0.024	-8.47	-6.23	113.75
17104	-0.892	0.44	-0.058	-6.93	-6.79	100.94
17124	-0.873	0.616	0.009	-12.32	-17.71	91.14
17144	-0.681	0.664	0.073	-32.2	-15.68	76.37
17164	-0.699	0.645	0.025	-42.63	-6.09	61.04
17184	-0.715	0.584	-0.02	-46.97	-6.3	50.96
17206	-0.659	0.614	0.074	-41.58	-8.12	45.78
17229	-0.627	0.661	0.163	-41.09	-4.06	39.34
17247	-0.638	0.668	0.168	-39.48	0.77	35.0
17268	-0.647	0.655	0.158	-41.44	-0.77	31.64
17288	-0.622	0.619	0.156	-38.22	-4.69	29.89
17308	-0.657	0.55	0.128	-17.78	-0.49	33.25
17327	-0.696	0.661	0.142	2.59	-2.8	35.98
17352	-0.668	0.824	0.188	6.23	-3.5	28.42
17372	-0.676	0.886	0.204	3.85	5.67	20.09
17388	-0.775	0.874	0.165	3.57	12.18	13.02
17409	-0.841	0.868	0.156	10.29	12.39	7.91
17429	-0.812	0.971	0.219	11.83	7.35	0.84
17453	-0.745	0.953	0.224	9.73	10.85	-7.14
17473	-0.696	0.877	0.188	12.6	12.6	-12.74
17493	-0.712	0.889	0.157	17.99	13.37	-18.2
17513	-0.699	0.875	0.122	17.57	13.02	-29.96
17533	-0.663	0.863	0.123	15.33	13.02	-41.51
17557	-0.676	0.799	0.105	17.5	15.05	-51.66
17577	-0.688	0.739	0.068	23.38	16.38	-59.08
17597	-0.689	0.749	0.052	23.8	14.35	-68.18
17617	-0.707	0.617	0.031	25.2	19.6	-75.46
17637	-0.765	0.579	0.014	33.67	19.18	-81.2
17658	-0.756	0.611	0.022	35.35	17.29	-87.64
17679	-0.734	0.599	0.02	31.15	18.62	-95.69
17702	-0.745	0.493	-0.031	30.24	24.78	-101.36
17723	-0.792	0.481	-0.098	27.93	25.55	-106.82
17743	-0.806	0.502	-0.066	22.89	22.4	-108.43
17764	-0.747	0.413	-0.059	18.27	24.01	-107.17
17782	-0.765	0.303	-0.108	21.63	26.88	-102.2
17805	-0.827	0.224	-0.165	28.7	30.45	-96.88
17828	-0.844	0.294	-0.152	23.45	22.96	-91.49
17847	-0.777	0.276	-0.147	11.9	22.47	-92.61
17867	-0.817	0.163	-0.186	7.63	29.33	-92.54
17886	-0.862	0.098	-0.233	7.91	28.91	-89.39
17908	-0.878	0.134	-0.237	8.12	23.94	-83.51
17932	-0.863	0.084	-0.261	6.51	30.03	-80.85
17956	-0.93	-0.015	-0.305	7.28	30.59	-76.86
17972	-0.942	-0.041	-0.316	13.86	27.58	-71.19
17996	-0.975	0.019	-0.289	23.94	25.97	-61.95
18016	-0.977	0.023	-0.279	25.41	24.36	-60.06
18035	-0.993	0.031	-0.302	19.04	25.41	-61.32
18054	-0.996	0.02	-0.318	7.84	24.92	-64.89
18074	-1.012	-0.102	-0.347	14.42	24.43	-57.75
18097	-0.989	-0.025	-0.344	53.27	21.91	-43.61
18117	-1.01	0.104	-0.311	43.33	17.01	-35.35
18138	-0.992	0.074	-0.282	37.87	13.3	-37.03
18158	-1.007	0.035	-0.308	32.06	17.78	-38.99
18178	-1.033	0.073	-0.351	21.42	15.4	-38.85
18201	-0.981	0.118	-0.368	6.58	15.12	-41.44
18224	-0.99	0.129	-0.386	-6.65	16.87	-45.85
18242	-1.017	0.079	-0.433	-21.14	18.34	-49.84
18263	-0.992	0.039	-0.433	-33.46	19.88	-56.98
18287	-0.996	-0.073	-0.424	-32.76	17.78	-57.68
18306	-0.973	-0.124	-0.414	-20.58	17.78	-53.76
18324	-0.987	-0.103	-0.465	-5.53	19.32	-47.53
18348	-1.002	0.005	-0.478	1.26	18.2	-38.5
18368	-0.998	0.045	-0.424	6.3	15.68	-32.27
18390	-1.041	0.015	-0.392	11.48	17.71	-22.89
18412	-1.075	-0.016	-0.4	5.81	17.5	-14.84
18432	-1.098	-0.02	-0.422	-3.78	16.31	-10.43
18451	-1.118	-0.071	-0.434	-3.57	14.14	-4.9
18472	-1.122	-0.103	-0.419	7.14	8.12	1.68
18492	-1.107	-0.082	-0.407	18.9	4.41	5.95
18512	-1.091	0.03	-0.391	22.19	-0.91	9.17
18532	-1.082	0.05	-0.368	13.51	-5.46	7.98
18553	-1.07	0.014	-0.352	-0.98	-8.82	7.28
18572	-1.074	-0.008	-0.341	-8.96	-11.2	8.26
18592	-1.086	-0.058	-0.338	-18.62	-15.54	11.55
18607	-1.096	-0.045	-0.331	-20.02	-21.49	16.31
18632	-1.086	-0.06	-0.34	-19.04	-28.0	28.21
18652	-1.127	-0.112	-0.392	-8.68	-32.06	41.93
18672	-1.15	-0.079	-0.408	-2.31	-36.75	50.54
18692	-1.141	-0.016	-0.392	-0.35	-42.63	56.63
18710	-1.099	0.003	-0.375	0.63	-44.45	59.29
18732	-1.067	-0.019	-0.368	4.27	-46.69	58.8
18752	-1.055	0.08	-0.387	3.36	-47.32	58.8
18772	-0.995	0.162	-0.382	-11.48	-47.74	53.2
18795	-0.993	0.11	-0.387	-22.89	-47.18	46.34
18819	-0.996	-0.005	-0.423	-24.92	-46.76	39.76
18838	-1.019	-0.09	-0.453	-17.22	-48.02	38.78
18859	-1.029	0.072	-0.367	-3.99	-56.21	48.23
18882	-0.925	0.244	-0.219	-8.19	-58.31	59.64
18901	-0.854	0.212	-0.184	-33.88	-46.27	60.27
18920	-0.928	0.043	-0.26	-52.64	-42.7	59.15
18944	-0.916	-0.018	-0.204	-54.6	-44.94	68.46
18968	-0.845	0.129	-0.126	-47.46	-46.76	86.45
18988	-0.813	0.176	-0.103	-46.69	-38.43	95.69
19008	-0.951	0.109	-0.19	-54.11	-35.42	98.0
19028	-0.999	0.001	-0.266	-56.28	-36.54	95.83
19047	-0.991	0.028	-0.183	-39.55	-37.73	104.23
19072	-0.887	0.231	-0.056	-24.99	-34.51	109.83
19092	-0.834	0.323	0.016	-25.97	-22.47	105.7
19110	-0.853	0.247	-0.012	-28.98	-13.79	99.89
19130	-0.901	0.21	-0.008	-23.73	-10.5	97.79
19154	-0.878	0.32	0.091	-13.86	-14.07	103.04
19178	-0.809	0.42	0.11	-14.07	-13.16	98.14
19196	-0.76	0.492	0.078	-27.79	-14.56	88.34
19216	-0.713	0.459	0.027	-45.92	-14.7	72.45
19240	-0.725	0.363	-0.02	-42.98	-16.17	61.6
19260	-0.732	0.414	0.008	-23.17	-24.29	59.85
19279	-0.704	0.535	0.075	-19.6	-26.46	54.39
19298	-0.718	0.62	0.094	-19.95	-25.48	42.98
19322	-0.634	0.672	0.069	-35.84	-25.48	25.69
19341	-0.603	0.672	0.085	-39.69	-15.89	17.01
19366	-0.639	0.645	0.118	-37.87	-4.76	16.03
19384	-0.701	0.616	0.166	-28.49	-3.43	18.48
19404	-0.707	0.626	0.244	-12.95	-1.4	26.11
19424	-0.699	0.64	0.27	0.91	4.83	31.57
19448	-0.732	0.583	0.227	20.51	9.17	40.53
19472	-0.792	0.737	0.234	42.84	10.36	46.55
19491	-0.775	0.911	0.26	35.21	7.42	42.28
19511	-0.775	0.979	0.271	19.6	6.37	29.4
19534	-0.8	0.915	0.162	7.42	7.42	13.93
19553	-0.812	0.88	0.123	5.18	3.5	3.92
19578	-0.8	0.867	0.103	10.71	3.08	-4.83
19597	-0.749	0.906	0.083	8.19	1.12	-12.88
19617	-0.702	0.854	0.094	8.61	4.69	-21.35
19638	-0.736	0.807	0.089	15.68	7.91	-27.93
19656	-0.717	0.828	0.097	20.37	8.26	-35.07
19680	-0.718	0.858	0.096	20.23	13.23	-46.48
19704	-0.712	0.798	0.088	13.58	13.51	-59.08
19722	-0.691	0.742	0.082	17.15	17.22	-63.42
19742	-0.662	0.684	0.083	16.87	21.0	-70.28
19762	-0.673	0.605	0.072	19.46	26.74	-75.18
19782	-0.679	0.539	0.064	21.98	28.21	-79.73
19805	-0.685	0.484	0.059	29.4	30.66	-81.34
19826	-0.673	0.459	0.033	28.98	31.57	-84.0
19846	-0.695	0.397	-0.03	28.28	36.19	-86.1
19866	-0.737	0.31	-0.13	28.77	40.11	-88.06
19886	-0.816	0.307	-0.162	32.83	36.82	-86.87
19904	-0.821	0.3	-0.137	32.55	32.62	-84.42
19926	-0.802	0.264	-0.116	32.69	31.29	-82.32
19950	-0.797	0.194	-0.164	33.67	34.09	-81.27
19967	-0.838	0.201	-0.177	33.25	34.02	-79.8
19986	-0.88	0.225	-0.194	25.97	34.02	-81.27
20005	-0.878	0.175	-0.25	15.61	31.01	-84.63
20029	-0.851	0.112	-0.286	13.37	31.01	-83.16
20050	-0.893	0.052	-0.337	22.89	33.18	-78.82
20074	-0.968	0.05	-0.369	43.19	27.23	-70.35
20094	-0.992	0.212	-0.333	50.19	24.15	-64.54
20118	-0.953	0.285	-0.286	28.0	23.03	-68.67
20137	-0.966	0.157	-0.342	17.57	28.0	-69.86
20156	-1.005	0.089	-0.427	16.03	31.08	-64.33
20178	-1.018	0.088	-0.402	17.85	28.07	-57.05
20201	-1.032	0.127	-0.315	29.89	26.18	-45.92
20222	-1.044	0.176	-0.275	38.43	23.94	-38.57
20238	-1.017	0.134	-0.304	33.46	24.15	-40.04
20258	-1.032	0.071	-0.343	27.58	22.4	-40.6
20278	-0.988	0.043	-0.355	23.03	18.83	-40.04
20297	-0.96	0.102	-0.344	22.68	20.16	-36.82
20322	-0.971	0.158	-0.354	12.67	25.34	-40.39
20342	-1.004	0.135	-0.397	-4.13	23.31	-42.7
20361	-1.011	0.035	-0.442	-7.84	22.05	-42.91
20381	-1.008	-0.01	-0.465	0.42	18.76	-33.74
20405	-1.032	-0.012	-0.437	20.58	10.99	-17.85
20425	-1.02	0.024	-0.407	28.91	6.65	-11.13
20445	-1.025	0.064	-0.41	26.18	6.65	-9.8
20462	-1.029	0.076	-0.433	17.08	8.26	-12.6
20485	-1.055	0.043	-0.47	5.53	10.01	-19.74
20506	-1.094	0.057	-0.514	-4.48	8.12	-28.21
20526	-1.056	0.032	-0.49	-10.5	10.43	-32.83
20544	-1.067	0.035	-0.446	-7.0	9.94	-31.08
20567	-1.061	0.019	-0.402	-0.77	7.84	-24.01
20586	-1.055	-0.061	-0.403	4.69	6.44	-17.5
20611	-1.043	-0.128	-0.41	20.51	1.33	-8.68
20631	-1.033	-0.078	-0.401	34.65	-3.85	1.33
20655	-1.031	-0.044	-0.398	39.2	-9.24	9.87
20675	-1.035	0.045	-0.393	30.38	-17.36	13.23
20691	-1.018	0.013	-0.403	20.16	-19.18	12.32
20715	-1.052	-0.051	-0.435	11.97	-21.56	12.88
20734	-1.087	-0.016	-0.442	10.5	-26.67	16.73
20755	-1.074	0.054	-0.403	7.77	-32.48	20.93
20775	-1.108	0.02	-0.392	5.04	-34.44	24.5
20795	-1.113	-0.053	-0.4	3.99	-38.15	27.51
20811	-1.08	-0.183	-0.425	12.53	-35.98	29.89
20831	-1.074	-0.218	-0.485	26.95	-36.68	29.96
20855	-1.078	-0.108	-0.447	42.56	-41.16	34.51
20879	-1.037	-0.02	-0.384	49.56	-43.05	36.4
20899	-1.03	-0.033	-0.368	49.35	-44.03	35.98
20919	-0.948	0.085	-0.354	17.01	-41.09	28.63
20937	-0.769	-0.294	-0.337	29.61	-39.06	28.42
20956	-0.87	-0.213	-0.371	38.08	-37.03	34.09
20976	-0.809	-0.163	-0.314	42.42	-33.88	36.47
21001	-0.753	0.001	-0.219	48.79	-33.53	50.33
21021	-0.723	0.051	-0.144	43.96	-23.1	55.79
21041	-0.792	-0.01	-0.167	43.26	-16.52	60.48
21057	-0.898	-0.08	-0.21	44.87	-13.58	62.37
21080	-0.951	-0.107	-0.262	45.78	-14.42	62.23
21101	-0.94	-0.074	-0.245	59.15	-19.46	67.34
21116	-0.913	-0.025	-0.228	70.0	-20.3	71.05
21141	-0.897	0.036	-0.216	79.31	-20.37	73.01
21160	-0.879	0.062	-0.228	73.99	-19.11	67.97
21181	-0.865	0.083	-0.227	64.05	-17.01	60.83
21201	-0.854	0.102	-0.215	50.26	-15.19	58.31
21217	-0.835	0.319	-0.159	39.97	-20.09	62.58
21237	-0.745	0.433	-0.102	14.91	-18.34	57.4
21257	-0.832	0.31	-0.134	-3.22	-17.43	54.67
21276	-0.947	0.222	-0.202	-7.42	-22.61	57.4
21301	-0.962	0.357	-0.219	-6.3	-30.52	66.01
21320	-0.86	0.532	-0.161	-29.61	-29.82	58.66
21341	-0.865	0.458	-0.165	-40.88	-22.68	51.87
21365	-0.911	0.366	-0.186	-43.05	-18.13	48.72
21385	-0.94	0.322	-0.157	-37.59	-16.24	53.76
21404	-0.895	0.372	-0.085	-32.9	-11.34	56.21
21424	-0.859	0.414	-0.013	-33.6	-4.13	55.37
21446	-0.873	0.346	0.038	-34.02	2.24	50.05
21465	-0.911	0.275	0.068	-26.6	2.94	45.01
21490	-0.891	0.323	0.096	-19.04	2.1	40.67
21510	-0.877	0.349	0.082	-14.77	1.61	38.36
21530	-0.842	0.453	0.064	-16.94	0.7	35.21
21550	-0.817	0.527	0.025	-22.75	3.99	30.94
21570	-0.815	0.545	-0.009	-32.2	9.03	23.03
21590	-0.832	0.511	-0.038	-33.04	11.13	16.38
21609	-0.87	0.498	-0.06	-23.59	14.56	14.84
21627	-0.91	0.529	-0.053	-10.92	12.32	14.28
21647	-0.922	0.611	-0.073	-1.61	11.34	11.55
21671	-0.931	0.626	-0.153	-3.01	13.23	1.12
21690	-0.975	0.589	-0.162	0.42	13.79	-5.46
21710	-1.012	0.57	-0.16	9.03	14.77	-10.57
21729	-1.023	0.608	-0.144	16.45	15.05	-15.61
21754	-1.01	0.719	-0.119	17.43	15.54	-24.08
21774	-0.981	0.705	-0.105	7.7	17.08	-34.44
21794	-1.027	0.626	-0.143	6.86	16.66	-42.42
21813	-0.989	0.601	-0.145	7.7	16.59	-49.63
21833	-0.935	0.571	-0.103	4.27	17.92	-57.33
21854	-0.906	0.503	-0.048	6.16	18.83	-60.9
21873	-0.883	0.455	-0.017	7.49	15.61	-64.19
21893	-0.86	0.374	-0.029	9.8	17.85	-67.97
21917	-0.886	0.323	-0.069	8.05	14.91	-73.22
21936	-0.856	0.311	-0.084	-1.82	11.2	-79.59
21955	-0.834	0.248	-0.096	-8.96	11.69	-84.77
21976	-0.827	0.169	-0.107	-13.86	13.65	-85.19
21996	-0.894	0.113	-0.13	-9.45	11.55	-79.52
22020	-0.895	0.084	-0.132	-8.61	6.02	-75.04
22040	-0.891	0.015	-0.142	-5.95	6.37	-71.47
22059	-0.908	0.003	-0.196	-8.89	7.21	-70.28
22080	-0.942	-0.049	-0.24	-11.41	7.21	-71.26
22100	-0.928	0.029	-0.263	-13.86	4.48	-70.7
22122	-0.87	0.13	-0.284	-26.88	2.24	-75.39
22142	-0.833	0.183	-0.267	-42.49	2.66	-77.63
22166	-0.829	0.046	-0.317	-53.83	8.89	-84.63
22181	-0.929	-0.078	-0.348	-52.64	7.7	-85.61
22201	-0.938	-0.048	-0.368	-47.39	3.22	-82.04
22225	-0.865	0.068	-0.419	-56.07	4.9	-83.72
22249	-0.907	-0.002	-0.388	-58.38	8.54	-88.27
22269	-0.985	-0.095	-0.325	-57.19	7.77	-88.76
22288	-1.063	-0.124	-0.199	-51.38	3.22	-84.35
22312	-0.994	-0.024	-0.136	-56.56	5.81	-80.99
22330	-0.91	0.053	-0.132	-74.13	16.31	-81.97
22352	-0.887	-0.019	-0.189	-91.56	23.31	-83.16
22372	-0.904	-0.22	-0.297	-88.69	26.88	-77.28
22392	-0.929	-0.321	-0.35	-69.23	27.65	-64.89
22412	-0.993	-0.298	-0.348	-40.46	21.07	-48.93
22435	-0.944	-0.08	-0.323	-27.93	20.37	-38.99
22454	-0.966	-0.121	-0.333	-35.63	20.3	-39.83
22476	-0.946	-0.212	-0.4	-37.03	25.48	-37.8
22499	-0.919	-0.219	-0.467	-31.43	33.6	-34.79
22518	-0.884	-0.082	-0.513	-22.4	39.27	-25.48
22543	-0.841	-0.22	-0.554	-15.61	70.0	-9.24
22567	-1.003	-0.235	-0.459	2.52	98.49	-2.24
22585	-1.481	-0.681	0.06	17.22	60.2	-12.04
22602	-1.344	-0.371	0.268	20.23	41.09	-16.03
22626	-0.976	-0.181	-0.045	17.43	23.66	-24.85
22650	-0.862	-0.041	-0.235	-14.42	21.49	-27.37
22665	-0.704	-0.19	-0.293	-13.72	16.45	-20.02
22690	-0.84	-0.107	-0.327	-15.05	11.69	-16.94
22709	-0.779	-0.031	-0.254	-16.94	0.0	-16.94
22729	-0.802	-0.032	-0.238	-36.33	-11.83	-18.2
22750	-0.779	0.008	-0.242	-56.77	-20.58	-19.81
22769	-0.719	-0.044	-0.354	-80.71	-27.79	-17.43
22793	-0.75	-0.113	-0.398	-78.82	-33.18	-8.96
22811	-0.781	-0.093	-0.375	-73.08	-37.8	-5.81
22835	-0.765	-0.001	-0.351	-83.16	-37.17	-10.15
22855	-0.746	0.019	-0.366	-106.68	-35.84	-18.34
22875	-0.699	-0.119	-0.417	-113.54	-32.34	-20.09
22894	-0.733	-0.234	-0.477	-96.11	-33.04	-9.66
22919	-0.752	-0.25	-0.454	-60.69	-35.56	7.63
22936	-0.765	-0.193	-0.476	-46.69	-36.54	15.12
22958	-0.755	-0.145	-0.541	-50.82	-36.54	12.95
22980	-0.707	-0.197	-0.568	-44.73	-36.54	15.61
23004	-0.661	-0.194	-0.554	-27.51	-31.57	21.42
23024	-0.655	-0.162	-0.514	-11.62	-28.07	25.76
23040	-0.646	-0.055	-0.486	-9.17	-20.72	27.86
23064	-0.647	-0.06	-0.513	-19.95	-12.81	25.13
23084	-0.652	-0.174	-0.577	-24.85	-8.61	23.17
23108	-0.714	-0.164	-0.617	-18.48	-11.27	29.47
23128	-0.736	-0.055	-0.543	-5.67	-11.34	33.67
23147	-0.768	0.011	-0.496	-5.74	-12.81	34.72
23163	-0.732	0.091	-0.503	-12.25	-11.13	32.13
23183	-0.761	0.084	-0.558	-26.39	-6.93	28.0
23208	-0.789	-0.009	-0.567	-28.0	-5.53	29.12
23227	-0.881	-0.046	-0.481	-13.72	-1.54	32.06
23248	-0.899	0.165	-0.491	-9.45	0.28	27.79
23268	-0.894	0.178	-0.495	-15.19	6.37	22.05
23292	-0.994	0.057	-0.574	-0.14	14.56	23.45
23312	-1.088	0.042	-0.627	11.34	2.17	21.21
23330	-1.051	0.14	-0.543	14.28	7.56	20.86
23348	-1.082	0.282	-0.599	3.78	10.29	17.92
23367	-1.061	0.236	-0.565	-17.36	8.89	14.42
23387	-1.112	0.203	-0.472	-15.75	11.83	10.99
23407	-1.103	0.043	-0.517	-28.42	8.26	7.42
23432	-0.982	0.066	-0.545	-28.28	15.68	14.84
23452	-1.03	0.126	-0.597	-25.41	15.54	22.05
23471	-1.161	0.102	-0.559	-14.14	7.91	26.6
23491	-1.192	0.022	-0.515	-4.83	2.03	25.27
23510	-1.145	0.135	-0.483	0.84	1.26	18.2
23533	-1.17	0.129	-0.436	-26.81	12.46	0.35
23553	-1.258	0.239	-0.377	-40.67	20.23	-14.7
23577	-1.304	0.065	-0.428	-45.29	5.25	-14.98
23597	-1.231	0.113	-0.41	-47.04	2.87	-21.56
23616	-1.172	0.066	-0.448	-50.61	11.2	-19.46
23640	-1.244	0.018	-0.373	-50.12	21.07	-17.08
23657	-1.413	0.15	-0.379	-31.08	14.56	-14.35
23680	-1.579	-0.014	-0.22	-66.29	-1.61	-26.32
23703	-1.404	-0.13	-0.34	-33.6	-28.42	-3.08
23724	-1.39	-0.156	-0.529	-3.71	-6.93	10.43
23744	-1.496	-0.245	-0.597	44.87	-9.87	27.79
23762	-1.571	0.102	-0.664	65.17	-17.71	27.72
23784	-1.439	0.226	-0.669	51.31	-23.59	21.14
23804	-1.417	0.363	-0.696	25.62	-20.51	8.26
23822	-1.459	0.254	-0.637	3.22	-26.11	-2.94
23846	-1.425	0.153	-0.569	0.91	-23.87	-6.72
23870	-1.43	0.085	-0.517	25.83	-19.46	-3.85
23890	-1.351	0.173	-0.549	45.29	-12.18	-3.5
23908	-1.259	0.258	-0.566	41.65	-9.87	-8.96
23927	-1.179	0.239	-0.608	28.28	-3.29	-15.4
23952	-1.179	0.14	-0.711	19.18	-7.0	-18.13
23972	-1.078	0.057	-0.667	37.8	-11.62	-5.81
23988	-1.023	0.157	-0.56	53.06	-15.26	4.9
24012	-0.961	0.317	-0.457	55.16	-20.16	14.42
24032	-0.838	0.388	-0.43	35.35	-23.52	15.82
24052	-0.722	0.4	-0.416	14.42	-28.84	23.73
24072	-0.643	0.463	-0.399	8.75	-31.36	39.62
24091	-0.597	0.461	-0.428	-1.89	-31.64	46.69
24111	-0.634	0.177	-0.493	-5.25	-33.18	45.85
24130	-0.65	-0.082	-0.563	-3.36	-39.2	37.45
24154	-0.608	-0.02	-0.572	-5.11	-23.1	14.35
24174	-0.655	0.081	-0.553	-15.82	-16.17	-13.86
24194	-0.663	0.112	-0.438	-23.52	-18.97	-34.79
24213	-0.633	0.026	-0.35	-15.19	-10.15	-46.69
24233	-0.646	-0.006	-0.319	7.42	-4.62	-45.99
24253	-0.667	-0.091	-0.339	29.61	-3.71	-41.86
24273	-0.651	-0.143	-0.331	43.19	-6.58	-36.68
24298	-0.633	-0.115	-0.284	56.21	-6.16	-28.49
24316	-0.636	-0.026	-0.255	55.79	-3.43	-25.97
24335	-0.666	-0.009	-0.254	47.32	-6.58	-26.18
24355	-0.651	-0.033	-0.219	37.17	-5.11	-27.09
24380	-0.648	-0.026	-0.2	32.41	0.42	-27.16
24400	-0.704	-0.018	-0.245	32.97	-0.07	-27.3
24420	-0.723	-0.073	-0.279	43.75	0.49	-27.09
24440	-0.717	-0.063	-0.325	38.29	-7.98	-26.46
24460	-0.673	-0.008	-0.245	25.69	-6.93	-19.95
24480	-0.752	0.075	-0.165	1.26	-4.69	-18.62
24504	-0.813	0.028	-0.139	5.39	0.0	-25.55
24524	-0.704	0.079	-0.205	9.52	17.08	-22.54
24544	-0.767	-0.07	-0.286	19.11	28.21	-14.07
24564	-0.88	-0.152	-0.199	49.14	25.34	3.08
24582	-0.846	-0.014	-0.142	56.56	23.45	9.38
24602	-0.891	0.259	-0.091	45.71	27.44	11.06
24626	-0.973	0.145	0.024	34.02	29.26	11.48
24642	-1.153	0.121	0.094	14.28	20.79	-2.31
24663	-1.144	0.06	0.118	5.32	-7.07	1.82
24684	-0.969	-0.001	-0.056	9.38	-6.09	9.45
24704	-0.927	0.05	-0.217	13.37	5.18	14.0
24728	-0.96	0.07	-0.321	3.29	11.41	7.56
24748	-0.937	0.099	-0.376	-35.14	6.23	-2.38
24763	-0.84	0.047	-0.312	-28.91	1.96	-5.32
24788	-0.827	-0.018	-0.261	-23.59	3.85	17.43
24807	-0.797	0.005	-0.211	-19.04	0.42	2.1
24827	-0.771	0.122	-0.23	-21.42	2.73	2.38
24844	-0.812	0.038	-0.258	-34.3	-1.96	0.7
24868	-0.798	0.026	-0.268	-46.27	-3.99	0.07
24883	-0.82	0.005	-0.252	-47.6	-6.65	-0.56
24906	-0.829	-0.014	-0.263	-45.36	-10.22	-1.47
24925	-0.796	-0.038	-0.273	-39.34	-10.71	0.0
24944	-0.778	-0.026	-0.278	-37.66	-11.34	1.68
24966	-0.762	-0.028	-0.274	-37.52	-9.66	3.92
24984	-0.76	-0.022	-0.265	-37.52	-7.42	3.5
25009	-0.734	0.029	-0.274	-43.33	-5.18	-0.84
25029	-0.691	0.061	-0.279	-49.98	-3.29	-3.92
25053	-0.644	0.055	-0.294	-52.5	-1.12	-4.48
25073	-0.622	0.019	-0.344	-55.23	-0.42	-3.57
25088	-0.63	-0.005	-0.357	-50.68	-0.49	-2.03
25113	-0.637	0.028	-0.35	-41.44	-0.42	3.01
25129	-0.645	0.164	-0.333	-38.36	-1.68	7.98
25153	-0.682	0.12	-0.392	-48.44	-4.13	13.02
25172	-0.713	0.001	-0.467	-50.47	-6.3	17.57
25196	-0.744	-0.063	-0.559	-44.52	-3.57	16.87
25216	-0.804	0.011	-0.589	-38.22	-0.28	9.94
25236	-0.821	0.166	-0.618	-38.08	7.14	-5.67
25256	-0.834	0.165	-0.611	-54.95	12.18	-23.03
25276	-0.797	0.111	-0.512	-44.17	14.98	-23.59
25296	-0.751	0.116	-0.406	-27.3	18.48	-16.45
25320	-0.794	0.154	-0.38	-7.77	18.83	-5.81
25340	-0.916	0.203	-0.453	-5.53	15.4	-2.17
25364	-0.888	0.233	-0.447	-10.15	3.78	5.32
25384	-0.866	0.241	-0.471	-14.07	-4.06	7.28
25403	-0.878	0.185	-0.46	-16.59	-2.17	8.82
25424	-0.974	0.143	-0.52	-6.93	1.19	7.07
25444	-1.06	0.184	-0.565	4.13	-0.42	7.07
25468	-1.103	0.203	-0.498	10.08	-4.62	9.03
25486	-1.07	0.362	-0.417	21.63	-7.0	20.16
25509	-1.155	0.345	-0.443	3.78	-6.86	15.33
25529	-1.2	0.197	-0.426	-2.66	-16.73	14.84
25553	-1.127	0.211	-0.418	1.68	-18.97	16.87
25573	-1.145	0.198	-0.401	15.75	-17.5	20.72
25593	-1.157	0.196	-0.411	18.48	-16.8	19.25
25611	-1.13	0.245	-0.415	6.79	-11.76	10.92
25634	-1.162	0.122	-0.508	-11.9	-5.67	3.15
25655	-1.144	0.0	-0.575	-5.88	-3.01	7.0
25675	-1.205	0.151	-0.624	-1.26	2.8	4.9
25695	-1.302	0.244	-0.575	-11.83	6.79	2.03
25715	-1.343	0.2	-0.473	-12.25	20.09	1.75
25734	-1.504	-0.02	-0.59	14.77	12.39	9.59
25755	-1.516	0.05	-0.555	39.76	22.33	13.44
25773	-1.812	0.413	-0.202	-12.88	-20.09	-0.42
25794	-1.648	0.358	-0.234	-51.03	-15.4	-20.79
25818	-1.646	-0.087	-0.548	-72.66	-14.91	-18.83
25838	-1.566	-0.175	-0.585	3.78	-15.61	11.76
25857	-1.576	0.114	-0.607	40.74	-19.53	29.96
25880	-1.606	0.427	-0.504	46.06	-26.39	27.93
25901	-1.601	0.371	-0.487	22.47	-23.24	16.94
25921	-1.523	0.172	-0.53	25.34	-19.04	15.89
25940	-1.447	0.074	-0.546	32.06	-14.07	14.56
25961	-1.326	0.124	-0.512	42.49	-6.16	14.84
25981	-1.278	0.238	-0.461	45.85	-2.8	13.16
26005	-1.189	0.287	-0.525	25.76	-1.75	1.47
26025	-1.119	0.099	-0.543	21.21	-2.87	-1.12
26045	-1.043	0.005	-0.528	37.03	-12.32	4.2
26065	-0.957	0.102	-0.404	53.34	-12.74	6.37
26089	-0.92	0.225	-0.348	44.31	-10.01	-5.67
26109	-0.823	0.317	-0.401	18.41	-9.24	-18.69
26125	-0.728	0.17	-0.449	8.47	-8.61	-27.02
26149	-0.704	0.081	-0.404	25.48	-9.94	-18.83
26169	-0.7	0.1	-0.31	34.44	-12.74	-17.08
26186	-0.675	0.173	-0.287	29.4	-10.29	-19.04
26206	-0.649	0.229	-0.315	10.43	-10.71	-25.2
26230	-0.608	0.0	-0.336	11.06	-11.13	-23.87
26254	-0.631	0.058	-0.363	25.83	-11.48	-22.33
26273	-0.641	0.123	-0.356	29.89	-14.98	-21.84
26296	-0.591	0.24	-0.321	27.09	-17.64	-19.81
26317	-0.547	0.181	-0.322	17.01	-13.65	-21.0
26341	-0.595	0.092	-0.331	17.78	-14.35	-20.72
26361	-0.605	0.155	-0.309	13.16	-16.66	-24.36
26381	-0.527	0.213	-0.308	-2.1	-13.09	-27.65
26401	-0.503	0.149	-0.327	-4.69	-9.73	-25.48
26421	-0.506	0.063	-0.372	5.95	-6.72	-16.94
26440	-0.542	-0.021	-0.403	20.86	-5.88	-6.93
26461	-0.56	-0.045	-0.341	36.47	-3.01	3.71
26481	-0.568	0.101	-0.236	42.49	2.03	11.83
26500	-0.553	0.068	-0.369	44.17	13.37	17.64
26524	-0.643	-0.093	-0.303	58.8	22.54	26.95
26540	-0.761	-0.122	-0.278	68.04	25.06	27.37
26559	-0.801	-0.008	-0.165	65.17	26.32	24.85
26584	-0.783	0.049	-0.048	44.17	22.47	20.72
26604	-0.954	0.093	0.13	39.97	22.05	0.14
26621	-1.315	0.077	0.413	-9.52	15.54	-7.42
26645	-1.244	-0.044	0.249	-45.15	-14.21	-10.64
26665	-0.982	-0.258	0.014	-13.23	-20.02	14.35
26684	-0.976	-0.188	-0.089	36.68	-10.29	26.46
26703	-0.938	-0.016	-0.061	40.67	-13.93	25.48
26728	-0.847	0.131	-0.073	12.53	-14.21	5.46
26746	-0.789	0.025	-0.193	-36.61	-16.8	-7.63
26765	-0.712	-0.034	-0.304	-50.4	-20.16	-10.08
26790	-0.669	-0.067	-0.308	-39.69	-24.01	-3.78
26810	-0.642	-0.094	-0.264	-15.12	-23.8	2.45
26830	-0.657	-0.036	-0.237	1.75	-19.53	6.79
26849	-0.648	-0.016	-0.242	-0.14	-14.0	3.22
26869	-0.647	-0.076	-0.232	-6.02	-5.88	-6.37
26892	-0.671	-0.073	-0.212	-19.95	3.36	-24.5
26912	-0.664	0.044	-0.157	-46.55	10.5	-41.09
26933	-0.552	0.142	-0.188	-72.38	15.05	-51.73
26953	-0.527	-0.018	-0.258	-62.58	14.77	-43.54
26972	-0.549	-0.027	-0.299	-39.48	10.29	-27.02
26995	-0.613	0.097	-0.293	-16.1	1.19	-6.37
27019	-0.662	0.335	-0.292	-9.8	-7.91	11.06
27039	-0.666	0.434	-0.319	-29.54	-13.02	11.48
27058	-0.714	0.352	-0.392	-46.55	-13.51	10.36
27078	-0.729	0.273	-0.413	-48.23	-15.4	11.13
27102	-0.759	0.39	-0.396	-42.84	-10.85	16.45
27117	-0.782	0.435	-0.491	-46.83	-5.95	16.38
27138	-0.838	0.331	-0.512	-40.95	-1.33	19.11
27161	-0.892	0.28	-0.521	-35.7	1.19	17.92
27180	-0.874	0.235	-0.479	-32.27	2.94	15.12
27199	-0.902	0.158	-0.375	-22.61	11.34	14.63
27224	-1.069	0.039	-0.462	-4.55	8.19	10.5
27244	-1.04	0.199	-0.711	-21.0	11.06	-9.59
27268	-0.95	0.491	-0.685	-53.41	14.28	-29.47
27286	-1.102	0.418	-0.542	-67.76	27.16	-37.03
27308	-1.289	0.103	-0.482	-36.82	17.92	-19.04
27325	-1.221	0.161	-0.481	-15.33	12.46	-1.4
27349	-1.176	0.288	-0.506	-2.73	9.1	15.4
27365	-1.209	0.293	-0.47	-8.96	5.32	22.61
27387	-1.275	0.13	-0.428	-11.76	2.52	23.1
27411	-1.283	0.048	-0.466	-4.62	5.95	17.99
27430	-1.252	0.046	-0.486	0.35	12.04	9.73
27451	-1.216	0.141	-0.458	-2.94	18.48	2.45
27470	-1.195	0.197	-0.442	-14.35	29.12	-5.74
27493	-1.158	0.094	-0.438	-11.69	42.21	-5.46
27513	-1.306	-0.155	-0.517	-6.51	22.61	-5.32
27533	-1.29	0.044	-0.271	4.55	21.35	-6.3
27553	-1.15	0.221	-0.341	-13.58	35.42	-1.61
27573	-1.717	0.206	-0.044	-58.73	-7.21	-24.85
27592	-1.604	-0.037	-0.109	-28.0	-52.29	-28.84
27613	-1.247	-0.009	-0.196	-38.29	-50.61	-11.9
27634	-1.352	-0.087	-0.406	-11.83	19.74	17.57
27654	-1.554	-0.026	-0.516	25.83	4.06	21.84
27674	-1.533	-0.035	-0.79	44.31	-18.55	26.18
27694	-1.335	0.159	-0.752	49.28	-21.0	31.36
27718	-1.405	0.262	-0.751	18.62	-13.86	22.61
27733	-1.38	0.196	-0.743	33.04	-23.94	19.46
27753	-1.42	0.207	-0.511	30.1	-24.5	17.22
27777	-1.394	0.388	-0.549	1.82	-28.56	4.2
27798	-1.369	0.305	-0.574	-16.52	-24.43	-4.62
27818	-1.357	0.25	-0.58	-10.99	-21.14	-5.39
27835	-1.347	0.276	-0.598	-7.63	-13.65	-6.09
27859	-1.324	0.25	-0.613	-7.91	-6.86	-9.17
27879	-1.272	0.179	-0.631	-3.08	2.87	-5.11
27899	-1.266	0.109	-0.669	25.13	0.56	4.62
27919	-1.156	0.143	-0.591	44.8	1.05	12.6
27937	-1.085	0.237	-0.534	40.88	0.28	6.58
27959	-0.952	0.277	-0.513	22.19	0.28	-2.8
27981	-0.877	0.208	-0.526	11.27	2.38	-5.32
28000	-0.848	0.093	-0.523	21.49	-1.05	-0.84
28018	-0.794	0.076	-0.447	43.68	-4.13	4.97
28041	-0.717	0.166	-0.431	40.53	-7.0	-1.26
28062	-0.614	0.118	-0.437	36.54	-4.55	-3.78
28080	-0.608	0.098	-0.413	47.18	-2.73	0.98
28099	-0.665	0.146	-0.3	65.31	-10.22	12.88
28123	-0.646	0.089	-0.163	95.76	-19.32	34.3
28143	-0.66	0.145	-0.138	110.04	-24.29	42.14
28163	-0.65	0.171	-0.191	77.91	-25.55	30.66
28187	-0.654	0.102	-0.265	44.73	-28.0	16.24
28207	-0.628	0.117	-0.32	23.94	-32.2	-0.28
28227	-0.564	0.099	-0.313	2.17	-30.38	-17.22
28243	-0.55	0.179	-0.28	-7.21	-27.51	-30.03
28263	-0.53	0.23	-0.24	-16.1	-22.75	-42.91
28282	-0.564	0.084	-0.192	-8.68	-16.59	-43.61
28306	-0.579	0.027	-0.182	9.87	-11.69	-41.58
28327	-0.6	0.097	-0.242	5.6	-2.1	-41.72
28346	-0.62	0.182	-0.24	-3.36	4.2	-40.46
28366	-0.671	0.036	-0.223	3.78	8.4	-31.92
28390	-0.709	-0.006	-0.257	20.58	13.58	-19.18
28410	-0.754	-0.005	-0.266	28.77	18.83	-14.07
28430	-0.793	-0.003	-0.266	34.3	23.03	-7.0
28450	-0.812	0.002	-0.216	44.52	19.88	1.68
28474	-0.773	-0.076	-0.294	79.66	23.94	15.89
28490	-0.835	-0.11	-0.365	103.81	25.9	16.8
28514	-0.904	-0.061	-0.315	104.65	18.9	19.32
28533	-0.936	0.065	-0.094	88.34	-0.56	10.85
28550	-0.967	0.154	0.141	70.63	-15.75	9.31
28569	-1.017	0.265	0.175	24.22	-10.64	-9.31
28594	-1.034	0.152	-0.02	-40.6	-15.75	-36.47
28613	-0.899	0.003	-0.087	-45.08	-6.16	-34.09
28632	-0.907	0.016	-0.136	-44.38	2.1	-27.51
28652	-0.97	0.051	-0.168	-43.12	-2.66	-24.57
28676	-0.898	0.032	-0.213	-49.21	-9.03	-22.47
28696	-0.832	0.006	-0.272	-54.53	-10.57	-19.6
28714	-0.796	-0.046	-0.273	-49.21	-11.69	-12.95
28734	-0.787	-0.029	-0.307	-44.45	-10.29	-8.05
28758	-0.818	-0.029	-0.382	-44.17	-6.16	-6.58
28778	-0.844	-0.033	-0.451	-42.14	-0.91	-6.79
28798	-0.861	0.01	-0.388	-31.01	-0.77	-2.1
28816	-0.775	0.062	-0.314	-26.81	-3.01	-0.98
28839	-0.703	0.0	-0.266	-23.94	8.61	-4.9
28858	-0.673	-0.021	-0.296	-31.92	9.66	-6.3
28882	-0.567	0.112	-0.238	-42.49	9.45	-3.01
28906	-0.526	0.114	-0.204	-49.56	10.22	6.72
28926	-0.554	-0.002	-0.206	-51.73	5.46	13.3
28946	-0.567	-0.046	-0.223	-40.67	-0.77	24.57
28962	-0.541	-0.022	-0.265	-33.6	-2.87	30.87
28986	-0.58	-0.058	-0.338	-17.15	-2.31	38.08
29006	-0.699	-0.106	-0.384	3.92	-6.02	42.35
29026	-0.746	-0.075	-0.37	17.01	-8.05	36.33
29046	-0.746	0.085	-0.429	8.19	-4.2	19.53
29070	-0.782	0.191	-0.484	-3.5	1.4	3.85
29087	-0.817	0.086	-0.502	-5.81	0.63	-2.03
29110	-0.881	0.04	-0.524	6.16	-2.59	-3.57
29127	-0.846	0.226	-0.441	-3.01	-1.68	-6.86
29147	-0.846	0.309	-0.415	-20.51	-2.31	-10.92
29168	-0.872	0.229	-0.459	-34.16	-1.89	-8.54
29192	-0.929	0.09	-0.461	-37.17	-6.65	-1.05
29212	-0.937	0.055	-0.483	-40.25	-21.0	-1.19
29230	-0.812	0.089	-0.481	-41.72	-17.85	-1.89
29251	-0.884	0.113	-0.489	-30.87	-10.92	3.71
29270	-1.061	0.092	-0.49	-11.27	-17.5	10.01
29294	-1.087	0.224	-0.478	-13.44	-24.08	7.84
29314	-1.017	0.316	-0.478	-40.25	-23.59	-4.69
29338	-0.977	0.258	-0.486	-49.0	-12.39	-5.95
29358	-1.17	0.116	-0.448	-32.97	-5.6	4.76
29378	-1.282	0.059	-0.421	-3.64	-7.56	14.35
29398	-1.251	0.145	-0.5	-2.87	1.82	9.31
29416	-1.231	0.198	-0.586	-12.11	7.21	-0.35
29440	-1.29	0.2	-0.547	-12.18	8.19	-8.33
29456	-1.298	0.178	-0.527	-9.38	3.08	-9.94
29476	-1.271	0.167	-0.472	-1.54	7.42	-9.73
29496	-1.279	0.133	-0.44	7.77	11.83	-6.72
29515	-1.253	0.126	-0.391	10.5	23.17	-4.41
29540	-1.327	0.176	-0.34	14.21	28.14	2.45
29558	-1.297	0.037	-0.521	15.89	25.76	4.41
29579	-1.257	-0.135	-0.544	40.25	21.91	17.5
29596	-1.251	-0.059	-0.597	58.17	27.16	28.84
29620	-1.578	0.221	-0.263	47.18	10.5	13.02
29640	-1.556	0.257	-0.297	1.96	-7.56	1.75
29660	-1.441	0.16	-0.545	-36.89	2.38	-15.33
29680	-1.492	-0.023	-0.717	-39.62	-8.61	-17.43
29699	-1.51	-0.021	-0.525	-19.46	-9.31	-10.99
29723	-1.509	0.289	-0.445	1.05	-12.67	4.27
29747	-1.461	0.411	-0.457	-18.9	-15.68	-1.96
29771	-1.345	0.286	-0.517	-34.65	-15.19	-8.96
29791	-1.278	0.259	-0.525	-37.73	-5.53	-9.38
29809	-1.375	0.141	-0.526	-23.45	0.63	-5.04
29826	-1.361	0.085	-0.525	-1.26	-1.75	2.73
29851	-1.172	0.194	-0.492	25.83	-3.64	10.99
29870	-1.028	0.325	-0.513	16.59	-0.49	7.63
29894	-0.945	0.298	-0.546	0.84	1.75	3.71
29914	-0.924	0.233	-0.571	-0.42	3.43	3.01
29934	-0.915	0.175	-0.556	-1.61	-1.54	0.63
29951	-0.83	0.215	-0.481	0.0	-2.31	1.82
29972	-0.76	0.232	-0.451	-3.99	-0.35	-1.19
29995	-0.73	0.167	-0.444	-8.54	1.33	-1.05
30015	-0.725	0.052	-0.464	4.9	4.41	6.58
30035	-0.759	0.022	-0.432	23.17	-0.21	10.85
30054	-0.678	0.148	-0.339	35.14	-4.69	12.18
30075	-0.622	0.247	-0.297	9.87	0.07	-3.57
30098	-0.681	0.035	-0.358	3.64	-1.61	-9.8
30117	-0.612	-0.043	-0.337	21.77	-3.15	-9.31
30141	-0.659	0.141	-0.216	42.35	-1.96	-7.21
30161	-0.652	0.25	-0.19	24.29	-1.4	-15.68
30185	-0.678	0.141	-0.269	10.5	1.19	-23.59
30205	-0.72	0.012	-0.343	7.77	-4.62	-21.84
30225	-0.638	0.014	-0.325	15.89	-9.66	-13.3
30245	-0.658	0.023	-0.212	25.06	-10.71	-8.05
30265	-0.663	0.055	-0.186	18.83	-9.1	-7.28
30284	-0.569	0.088	-0.229	9.24	-1.19	-9.59
30308	-0.592	0.0	-0.266	9.17	3.08	-2.17
30323	-0.657	-0.097	-0.259	29.75	7.07	5.25
30348	-0.669	-0.106	-0.302	78.05	11.9	23.59
30367	-0.877	-0.166	-0.144	101.71	-6.58	25.34
30387	-0.728	-0.056	-0.041	97.79	9.45	31.99
30411	-1.047	0.113	0.071	78.26	-20.86	26.95
30430	-1.023	0.091	0.135	47.53	-25.76	10.22
30449	-0.986	-0.036	0.013	54.46	-21.42	13.02
30469	-0.908	0.146	-0.117	48.93	-15.82	12.46
30493	-0.86	0.139	-0.221	31.36	-11.2	3.36
30508	-0.844	0.107	-0.249	23.59	-10.22	3.36
30533	-0.843	0.189	-0.271	17.57	-20.51	6.93
30553	-0.762	0.177	-0.296	8.4	-22.61	8.05
30573	-0.697	0.084	-0.303	6.37	-22.89	10.92
30597	-0.738	0.059	-0.273	12.39	-19.67	19.32
30617	-0.772	0.044	-0.259	12.81	-19.53	23.87
30641	-0.749	0.029	-0.246	3.43	-20.02	13.79
30661	-0.776	0.052	-0.237	-14.28	-17.36	3.01
30681	-0.76	0.092	-0.242	-30.87	-17.22	-7.49
30701	-0.718	0.008	-0.232	-35.7	-14.42	-16.73
30721	-0.73	-0.013	-0.19	-25.2	-12.67	-18.34
30737	-0.702	0.02	-0.178	-23.59	-10.15	-17.92
30757	-0.682	0.025	-0.195	-23.73	-7.77	-17.99
30776	-0.677	0.069	-0.221	-30.03	-5.25	-18.55
30801	-0.659	0.058	-0.244	-30.52	-1.96	-15.61
30817	-0.694	0.053	-0.279	-24.5	2.03	-10.43
30841	-0.712	0.118	-0.335	-27.44	0.28	-8.75
30860	-0.674	0.13	-0.375	-34.93	-0.7	-8.68
30881	-0.614	0.122	-0.385	-33.67	2.03	-5.46
30901	-0.651	0.104	-0.376	-28.77	4.83	-3.64
30920	-0.699	0.18	-0.375	-28.0	4.34	-2.1
30945	-0.666	0.221	-0.424	-41.37	6.37	-7.49
30961	-0.68	0.171	-0.463	-50.05	9.8	-10.29
30983	-0.799	0.072	-0.477	-37.73	11.06	-3.78
31002	-0.86	0.167	-0.491	-26.67	7.14	0.49
31022	-0.797	0.211	-0.481	-30.38	5.32	-2.03
31046	-0.818	0.228	-0.427	-35.0	9.17	-5.39
31064	-0.851	0.23	-0.486	-43.96	10.08	-8.47
31087	-0.965	0.184	-0.504	-37.59	14.0	-4.34
31105	-1.049	0.214	-0.518	-29.4	7.77	1.89
31125	-1.062	0.186	-0.429	-21.21	4.48	6.3
31149	-1.025	0.286	-0.385	-18.9	6.51	5.88
31169	-1.041	0.252	-0.407	-25.97	7.49	4.06
31189	-1.049	0.179	-0.407	-20.02	7.91	6.79
31208	-1.115	0.177	-0.361	-6.37	2.73	13.72
31229	-1.136	0.165	-0.377	-3.22	0.07	13.44
31253	-1.12	0.239	-0.443	-16.31	-0.35	8.75
31273	-1.217	0.083	-0.505	-20.09	0.7	4.76
31293	-1.173	0.107	-0.479	-2.38	-7.49	12.39
31312	-1.146	0.183	-0.449	2.94	-2.03	11.41
31335	-1.221	0.164	-0.415	-3.22	3.57	10.15
31352	-1.164	0.091	-0.435	-4.9	2.03	7.91
31376	-1.136	0.083	-0.489	0.14	5.88	4.83
31395	-1.174	0.1	-0.498	2.52	0.56	4.13
31414	-1.16	0.162	-0.46	0.42	-0.35	1.4
31434	-1.212	0.232	-0.414	-0.56	2.31	1.82
31459	-1.261	0.141	-0.437	1.26	2.73	4.06
31479	-1.234	0.033	-0.417	15.05	9.87	8.12
31499	-1.241	0.019	-0.454	19.67	9.8	6.58
31518	-1.247	0.024	-0.507	28.21	16.03	9.45
31536	-1.385	0.251	-0.484	36.12	20.02	15.47
31558	-1.539	0.16	-0.427	19.46	-5.46	9.1
31578	-1.41	0.204	-0.428	4.41	-18.97	10.01
31602	-1.371	0.236	-0.504	-25.48	-5.46	0.56
31622	-1.493	0.014	-0.569	-16.94	-12.53	0.07
31642	-1.488	0.225	-0.572	8.75	-5.67	13.72
31660	-1.531	0.302	-0.605	4.41	-8.89	7.7
31684	-1.51	0.341	-0.594	0.28	-12.04	2.59
31704	-1.451	0.418	-0.585	-20.37	-11.55	-5.39
31724	-1.443	0.371	-0.564	-32.41	-5.25	-11.06
31744	-1.5	0.274	-0.525	-28.0	-2.03	-9.03
31764	-1.42	0.252	-0.495	-7.0	-5.74	-4.69
31784	-1.211	0.338	-0.48	-2.52	0.14	-3.08
31808	-1.148	0.302	-0.534	-1.89	5.88	-4.48
31828	-1.095	0.257	-0.582	2.03	3.01	-6.65
31847	-1.052	0.282	-0.586	2.1	3.5	-10.29
31867	-1.001	0.319	-0.532	-7.77	0.35	-14.63
31887	-0.919	0.244	-0.473	-8.33	-0.42	-16.59
31911	-0.835	0.187	-0.458	-3.43	-1.54	-16.73
31928	-0.783	0.155	-0.418	5.04	-0.84	-14.28
31952	-0.725	0.229	-0.38	11.55	-6.02	-10.99
31969	-0.638	0.295	-0.342	2.8	-7.98	-14.14
31989	-0.601	0.136	-0.299	-3.08	-7.84	-16.94
32013	-0.591	0.072	-0.302	3.64	-5.74	-14.63
32031	-0.598	0.128	-0.333	1.96	-8.4	-15.33
32054	-0.551	0.035	-0.295	18.9	-18.62	-9.66
32073	-0.519	-0.071	-0.265	41.3	-14.14	-5.95
32098	-0.644	-0.094	-0.264	71.19	-11.55	0.98
32118	-0.64	0.08	-0.189	82.18	-17.36	0.91
32134	-0.575	0.217	-0.184	65.1	-12.11	-8.47
32154	-0.597	0.103	-0.207	42.35	-5.74	-20.3
32175	-0.669	0.002	-0.239	32.55	-6.51	-25.55
32195	-0.688	0.073	-0.247	35.49	-12.6	-22.61
32216	-0.612	0.185	-0.255	35.7	-13.3	-19.74
32237	-0.706	0.029	-0.264	36.26	-12.46	-18.62
32260	-0.74	-0.05	-0.222	48.23	-9.17	-18.27
32279	-0.751	0.0	-0.226	43.4	-5.11	-22.61
32304	-0.739	0.113	-0.187	35.63	0.63	-16.87
32324	-0.769	0.076	-0.193	30.73	3.99	-10.99
32344	-0.785	0.025	-0.239	26.39	3.99	-6.02
32362	-0.76	-0.129	-0.284	27.3	3.78	1.96
32382	-0.729	-0.172	-0.297	50.54	6.86	14.21
32405	-0.793	-0.129	-0.189	73.15	7.14	29.26
32426	-0.783	-0.08	-0.094	100.59	7.49	36.96
32446	-0.853	0.088	-0.148	99.61	-2.17	30.87
32462	-0.798	0.061	-0.118	90.58	2.38	30.24
32481	-0.99	0.299	-0.045	46.76	-11.55	17.01
32501	-0.914	0.14	-0.086	4.97	-4.06	-3.92
32526	-0.885	0.147	-0.194	-6.3	2.24	-6.72
32544	-0.877	0.07	-0.222	-17.43	6.02	-10.15
32568	-0.876	0.03	-0.204	-17.08	-1.54	-6.72
32587	-0.839	-0.001	-0.159	-21.28	-6.79	-5.39
32606	-0.767	0.037	-0.143	-35.7	-4.41	-8.19
32627	-0.726	0.082	-0.178	-54.6	-3.78	-12.6
32646	-0.678	0.025	-0.209	-61.6	-2.24	-12.67
32667	-0.679	-0.069	-0.236	-55.65	-2.1	-8.68
32691	-0.662	-0.063	-0.238	-45.29	-2.17	-1.26
32710	-0.649	0.006	-0.223	-45.5	-1.33	-2.03
32729	-0.626	0.025	-0.216	-53.69	0.07	-2.66
32751	-0.583	0.035	-0.241	-57.54	2.59	-3.57
32775	-0.543	-0.02	-0.271	-55.23	5.04	-2.03
32795	-0.536	-0.052	-0.283	-45.99	7.14	4.55
32811	-0.565	-0.004	-0.284	-32.55	9.24	10.5
32831	-0.675	0.038	-0.292	-25.2	9.1	17.78
32850	-0.741	0.0	-0.333	-20.16	0.49	24.57
32875	-0.706	0.038	-0.357	-19.25	-6.58	29.75
32895	-0.665	0.059	-0.395	-24.29	-8.89	30.24
32915	-0.641	0.076	-0.425	-27.09	-10.85	25.62
32933	-0.674	0.095	-0.487	-33.25	-5.95	16.94
32953	-0.707	0.026	-0.494	-34.58	-5.6	5.67
32977	-0.692	0.217	-0.487	-39.48	0.0	-12.95
32997	-0.755	0.331	-0.482	-49.28	13.02	-26.11
33017	-0.971	0.279	-0.467	-42.77	16.1	-26.32
33035	-1.003	0.211	-0.49	-36.33	5.67	-23.73
33054	-0.884	0.244	-0.433	-32.55	5.81	-19.81
33079	-0.936	0.326	-0.465	-24.5	7.7	-7.35
33099	-0.993	0.36	-0.492	-19.95	-2.03	0.98
33118	-0.991	0.086	-0.412	-3.43	-5.81	6.3
33142	-1.056	0.07	-0.354	34.23	-7.91	23.94
33163	-1.142	0.56	-0.458	19.32	-2.1	14.35
33179	-1.162	0.565	-0.652	-18.2	-6.44	-1.75
33203	-1.157	0.232	-0.697	-31.22	-8.33	-1.61
33223	-1.248	0.18	-0.517	-16.17	-13.09	6.02
33241	-1.199	0.402	-0.439	-22.26	-7.21	4.13
33262	-1.206	0.28	-0.422	-27.79	-0.35	5.46
33286	-1.299	0.155	-0.461	-13.86	-5.04	14.14
33304	-1.24	0.152	-0.516	-9.03	-2.8	16.17
33321	-1.244	0.201	-0.468	-24.5	-0.28	8.96
33346	-1.232	0.238	-0.472	-46.13	3.08	-1.96
33363	-1.239	0.109	-0.523	-46.76	10.57	-0.21
33386	-1.315	-0.009	-0.563	-26.53	12.25	3.78
33402	-1.367	-0.076	-0.584	-2.8	3.43	6.37
33426	-1.316	0.093	-0.43	11.83	12.46	11.2
33446	-1.296	0.129	-0.518	18.76	22.96	10.78
33466	-1.516	0.106	-0.389	30.31	5.46	9.94
33486	-1.643	-0.074	-0.281	22.19	-3.78	12.04
33505	-1.458	0.137	-0.282	11.97	-17.22	12.18
33523	-1.507	0.267	-0.373	-6.86	-13.58	4.06
33543	-1.518	0.06	-0.565	-20.3	-8.82	-6.02
33567	-1.506	-0.041	-0.68	13.65	-11.76	9.03
33587	-1.536	0.139	-0.556	48.3	-20.72	11.06
33606	-1.483	0.382	-0.455	32.83	-25.97	-1.47
33627	-1.456	0.472	-0.416	-2.24	-25.9	-16.73
33645	-1.41	0.415	-0.424	-30.17	-26.53	-26.88
33665	-1.354	0.297	-0.453	-40.95	-23.31	-34.16
33684	-1.315	0.231	-0.473	-28.98	-22.33	-34.3
33708	-1.277	0.223	-0.448	-4.27	-20.3	-27.37
33729	-1.205	0.315	-0.37	12.74	-18.69	-20.09
33748	-1.012	0.308	-0.411	17.29	-20.86	-18.13
33772	-0.946	0.361	-0.476	-1.4	-17.71	-23.8
33792	-0.901	0.298	-0.504	-11.83	-14.56	-23.52
33809	-0.901	0.241	-0.506	-0.35	-15.54	-14.14
33828	-0.99	-0.002	-0.368	31.22	-17.15	2.59
33853	-1.034	0.084	-0.364	64.89	-23.66	16.31
33873	-0.861	0.419	-0.399	33.6	-22.33	3.71
33893	-0.698	0.339	-0.41	12.81	-16.73	-8.05
33912	-0.657	0.14	-0.44	18.97	-8.12	-4.69
33932	-0.712	0.053	-0.344	49.42	-5.11	0.07
33952	-0.716	0.216	-0.253	58.03	-10.64	2.87
33976	-0.635	0.276	-0.259	44.66	-6.72	-5.95
33996	-0.549	0.159	-0.303	28.84	-5.88	-8.26
34016	-0.592	0.073	-0.288	36.12	-5.25	-4.48
34032	-0.599	0.06	-0.269	45.22	-8.54	-2.8
34055	-0.578	0.135	-0.177	43.96	-9.8	-6.72
34074	-0.571	0.127	-0.222	27.23	-2.38	-15.54
34096	-0.579	0.156	-0.213	13.16	-3.01	-20.51
34116	-0.588	0.061	-0.195	10.36	-0.84	-21.49
34140	-0.578	0.012	-0.15	19.18	0.7	-13.86
34160	-0.589	0.075	-0.147	19.39	7.63	-10.5
34180	-0.617	0.059	-0.175	13.72	11.97	-9.66
34200	-0.646	0.062	-0.175	16.1	14.91	-2.94
34220	-0.699	-0.03	-0.203	24.71	19.39	6.16
34242	-0.774	-0.13	-0.218	51.1	21.42	20.72
34266	-0.829	-0.123	-0.183	75.11	21.84	34.86
34285	-0.864	-0.061	-0.159	81.06	24.92	37.52
34304	-0.86	0.012	-0.14	78.68	28.77	36.12
34323	-0.837	0.053	-0.09	79.8	30.73	39.13
34348	-0.896	-0.056	0.033	88.06	28.0	37.24
34368	-1.055	-0.005	0.081	71.33	20.02	24.5
34383	-1.127	0.281	0.269	-16.87	-6.93	-24.22
34407	-0.979	0.0	0.174	-47.53	-21.77	-27.65
34428	-0.778	-0.045	-0.072	-36.26	-13.58	-18.27
34445	-0.824	-0.149	-0.194	-21.7	-4.2	-9.73
34469	-0.93	-0.146	-0.242	4.13	-9.1	-1.05
34489	-0.815	0.024	-0.185	9.66	-13.16	1.12
34508	-0.754	0.086	-0.182	-6.16	-11.41	-2.1
34528	-0.686	0.056	-0.202	-19.81	-12.81	-5.18
34552	-0.673	0.059	-0.221	-30.45	-9.66	-5.95
34572	-0.673	0.026	-0.23	-31.36	-9.87	-5.25
34592	-0.648	0.023	-0.234	-30.87	-7.98	-6.79
34611	-0.645	0.037	-0.266	-36.19	-3.99	-10.57
34631	-0.635	0.021	-0.289	-43.75	-0.91	-14.0
34650	-0.628	0.038	-0.254	-35.42	1.75	-11.13
34671	-0.613	0.049	-0.239	-28.35	2.66	-8.33
34690	-0.593	0.046	-0.237	-19.6	5.11	-3.64
34712	-0.59	0.099	-0.273	-20.58	5.46	-2.1
34731	-0.575	0.182	-0.278	-24.01	5.25	0.77
34750	-0.569	0.233	-0.329	-30.1	5.39	3.99
34771	-0.63	0.129	-0.39	-28.56	2.87	8.75
34793	-0.601	0.107	-0.383	-17.5	-4.2	15.26
34817	-0.578	0.203	-0.335	-6.93	-2.1	21.91
34835	-0.63	0.359	-0.456	-8.96	6.51	26.39
34856	-0.687	0.406	-0.793	-19.11	8.82	29.82
34877	-0.741	0.198	-0.861	0.35	5.81	40.18
34895	-0.727	0.093	-0.62	42.0	2.45	52.43
34914	-0.798	0.323	-0.43	72.31	17.43	59.15
34939	-0.912	0.543	-0.455	42.21	30.8	46.27
34958	-1.075	0.407	-0.555	11.83	32.13	34.44
34979	-1.048	0.356	-0.567	-0.7	20.37	24.43
34998	-0.931	0.342	-0.553	-31.01	19.67	6.51
35023	-1.149	0.363	-0.485	-65.03	12.53	-14.0
35042	-1.222	0.44	-0.481	-93.8	5.74	-27.37
35058	-1.262	0.411	-0.525	-112.14	2.24	-34.79
35077	-1.272	0.206	-0.528	-113.47	-0.77	-34.3
35101	-1.301	0.073	-0.561	-88.55	-1.12	-25.41
35125	-1.305	0.224	-0.58	-76.51	-2.24	-18.55
35143	-1.333	0.124	-0.635	-62.58	-8.68	-15.26
35166	-1.338	-0.041	-0.52	-22.47	-20.3	2.87
35186	-1.244	0.169	-0.388	-9.66	-22.12	7.42
35206	-1.217	0.252	-0.307	-34.16	-8.4	-10.85
35226	-1.231	0.159	-0.301	-61.88	6.86	-35.49
35251	-1.209	0.11	-0.382	-54.25	12.04	-36.12
35270	-1.085	0.089	-0.461	-39.06	15.89	-35.98
35294	-1.07	-0.049	-0.529	-7.14	18.48	-25.83
35311	-1.135	-0.03	-0.544	39.48	23.38	-12.6
35331	-1.171	0.077	-0.551	45.57	35.21	-3.71
35354	-1.281	0.056	-0.483	56.49	34.23	13.02
35375	-1.14	0.1	-0.609	65.87	28.49	17.29
35395	-1.397	0.334	-0.405	35.84	-4.27	17.5
35415	-1.615	0.326	-0.162	13.02	-36.75	-4.69
35434	-1.444	0.328	-0.174	-30.45	-23.66	-22.12
35455	-1.384	0.256	-0.391	-32.97	-22.47	-21.35
35475	-1.416	0.056	-0.547	-7.21	-12.18	-13.65
35495	-1.563	0.13	-0.638	12.39	-27.23	-3.85
35513	-1.505	0.417	-0.638	5.18	-30.66	-6.93
35533	-1.499	0.487	-0.627	-30.31	-28.98	-24.22
35556	-1.437	0.322	-0.616	-38.22	-26.81	-30.66
35576	-1.425	0.275	-0.504	-24.92	-18.76	-28.7
35596	-1.394	0.28	-0.452	-9.45	-10.99	-21.0
35619	-1.292	0.277	-0.447	7.35	-7.35	-13.16
35643	-1.158	0.268	-0.476	18.41	-3.08	-6.65
35663	-1.11	0.318	-0.51	15.54	1.82	-6.65
35680	-1.077	0.352	-0.525	6.3	0.21	-9.03
35699	-0.997	0.23	-0.521	4.69	-2.66	-10.85
35724	-0.985	0.235	-0.449	28.35	-3.92	1.05
35741	-0.888	0.271	-0.454	26.53	-9.66	-17.85
35762	-0.791	0.225	-0.442	11.83	-4.41	-7.35
35784	-0.825	0.186	-0.465	3.43	-0.07	-11.83
35804	-0.785	0.191	-0.306	0.28	-8.75	-15.4
35823	-0.684	0.14	-0.296	-6.51	-2.03	-20.09
35848	-0.63	0.098	-0.353	-7.77	-4.06	-20.23
35871	-0.609	0.114	-0.338	6.09	-4.27	-10.85
35895	-0.63	-0.004	-0.33	34.93	-6.65	-3.71
35915	-0.69	-0.018	-0.292	41.93	-11.13	-7.35
35933	-0.632	0.096	-0.297	26.88	-14.98	-19.88
35955	-0.512	0.212	-0.22	-11.55	-10.92	-30.24
35975	-0.512	-0.003	-0.239	-13.16	-5.81	-28.91
35990	-0.572	-0.118	-0.244	8.05	-6.93	-22.33
36010	-0.546	-0.154	-0.198	28.21	-14.14	-16.17
36035	-0.492	-0.024	-0.13	45.29	-10.29	-10.78
36054	-0.497	0.102	-0.093	38.64	-6.44	-8.75
36073	-0.558	-0.023	-0.12	35.91	0.0	-7.91
36098	-0.672	-0.059	-0.243	37.03	2.45	-7.84
36113	-0.705	-0.102	-0.335	40.18	4.34	-4.9
36133	-0.806	-0.099	-0.302	60.06	7.56	3.22
36158	-0.834	0.069	-0.229	70.98	9.73	14.56
36178	-0.883	0.05	-0.315	65.45	21.63	16.38
36197	-0.914	0.027	-0.445	48.58	21.35	11.62
36221	-0.871	-0.181	-0.375	63.77	11.27	29.75
36236	-0.854	-0.242	-0.132	103.74	-2.31	45.43
36257	-0.939	0.086	-0.107	125.02	4.34	50.12
36281	-0.938	0.233	0.189	92.19	-12.32	40.88
36297	-1.073	0.314	0.29	33.04	-29.33	17.57
36321	-0.869	0.034	0.022	6.44	-9.31	8.33
36341	-0.878	0.053	-0.052	-2.66	-5.25	4.83
36357	-0.839	0.084	-0.125	-22.54	0.7	-2.94
36377	-0.894	-0.013	-0.204	-40.53	3.01	-12.81
36396	-0.862	-0.054	-0.175	-28.77	-11.69	-6.86
36421	-0.765	0.02	-0.183	-22.12	-12.95	-2.31
36441	-0.743	0.069	-0.25	-34.37	-12.18	-5.81
36464	-0.766	0.107	-0.319	-40.46	-6.72	-7.0
36480	-0.769	0.076	-0.29	-44.17	-8.12	-9.31
36505	-0.729	0.042	-0.191	-36.96	-7.7	-8.26
36521	-0.709	0.046	-0.145	-38.64	-6.51	-7.0
36545	-0.631	0.061	-0.161	-43.61	-3.08	-2.87
36561	-0.605	0.061	-0.18	-47.32	-1.89	0.7
36580	-0.57	0.037	-0.213	-43.05	0.56	6.02
36605	-0.582	0.028	-0.222	-35.63	1.96	11.34
36624	-0.575	0.009	-0.241	-29.68	2.87	11.06
36642	-0.516	0.114	-0.302	-29.89	4.97	9.31
36666	-0.527	0.198	-0.355	-28.63	8.4	13.65
36684	-0.573	0.103	-0.358	-21.7	8.82	17.5
36706	-0.675	0.022	-0.354	-4.62	3.64	24.78
36729	-0.601	0.149	-0.353	-4.06	0.56	25.62
36747	-0.624	0.255	-0.318	-14.42	4.97	23.03
36767	-0.722	0.166	-0.376	-22.12	0.7	23.03
36791	-0.837	0.112	-0.487	-27.65	0.77	17.92
36810	-0.834	0.209	-0.697	-35.0	-4.83	12.53
36829	-0.816	0.347	-0.662	-40.04	-8.26	9.38
36846	-0.839	0.246	-0.548	-24.99	-2.66	11.48
36866	-1.001	0.159	-0.522	-12.53	2.8	11.41
36886	-0.996	0.13	-0.547	-20.23	17.71	0.63
36910	-0.909	0.03	-0.526	-26.81	16.1	-16.94
36929	-1.071	0.102	-0.494	-7.0	23.66	-16.52
36948	-1.161	0.119	-0.442	16.8	15.47	-10.57
36968	-1.083	0.052	-0.416	44.52	6.23	-3.36
36990	-1.039	0.285	-0.356	44.1	5.95	2.38
37012	-1.1	0.469	-0.311	22.4	10.85	2.31
37036	-1.24	0.392	-0.326	14.42	1.89	9.1
37055	-1.215	0.229	-0.361	23.1	-9.1	16.38
37076	-1.148	0.149	-0.457	35.7	-7.21	23.31
37091	-1.243	0.305	-0.472	32.62	-7.63	26.95
37116	-1.3	0.401	-0.423	4.97	-6.86	17.36
37134	-1.301	0.308	-0.426	-5.95	2.66	11.13
37153	-1.32	0.328	-0.528	-15.89	8.26	3.78
37173	-1.24	0.217	-0.617	-33.6	5.11	-6.51
37192	-1.201	0.162	-0.548	-11.13	11.55	6.65
37217	-1.27	0.294	-0.512	3.92	10.99	15.89
37237	-1.426	0.227	-0.577	10.64	20.09	13.09
37255	-1.782	0.225	-0.161	-5.67	-21.35	5.95
37277	-1.411	0.286	-0.12	-48.23	-4.2	-20.79
37297	-1.615	0.393	-0.322	-91.28	-1.61	-43.19
37317	-1.617	0.054	-0.428	-70.56	-7.84	-28.0
37332	-1.535	-0.004	-0.524	-35.42	-1.54	-7.49
37352	-1.61	-0.108	-0.627	10.85	-3.29	11.76
37376	-1.554	0.095	-0.564	41.79	-11.76	23.59
37397	-1.514	0.408	-0.511	28.0	-12.46	17.64
37421	-1.542	0.366	-0.489	-3.57	-9.24	-0.42
37440	-1.568	0.21	-0.518	-4.9	-7.35	-3.78
37461	-1.523	0.138	-0.522	4.69	-11.97	-2.87
37480	-1.385	0.206	-0.509	9.31	-9.59	-6.16
37498	-1.286	0.35	-0.584	-4.13	-5.25	-13.72
37518	-1.245	0.32	-0.636	-19.11	-4.76	-19.67
37538	-1.202	0.228	-0.622	-20.79	-8.54	-19.25
37562	-1.121	0.145	-0.612	-4.83	-9.52	-13.44
37581	-1.036	0.203	-0.565	6.51	-4.9	-12.25
37605	-1.051	0.234	-0.531	1.61	-4.9	-22.54
37621	-0.882	0.254	-0.468	-7.0	-6.65	-30.87
37643	-0.81	0.219	-0.463	-10.29	1.61	-36.82
37667	-0.757	0.168	-0.456	-2.52	0.98	-38.22
37687	-0.71	0.114	-0.419	12.6	-0.63	-38.57
37704	-0.705	0.106	-0.358	30.24	3.08	-35.77
37724	-0.718	0.118	-0.3	33.81	-3.78	-39.55
37743	-0.615	0.194	-0.244	30.66	-4.2	-43.4
37766	-0.583	0.161	-0.264	21.35	-4.76	-49.35
37787	-0.557	0.108	-0.27	17.15	-10.36	-53.62
37807	-0.521	0.091	-0.22	20.3	-15.26	-51.38
37829	-0.483	0.171	-0.171	22.12	-18.83	-43.68
37848	-0.466	0.102	-0.176	22.33	-19.88	-37.31
37872	-0.486	-0.004	-0.228	27.3	-19.25	-27.16
37892	-0.559	-0.004	-0.235	31.64	-19.95	-20.65
37912	-0.521	0.088	-0.142	30.38	-23.8	-15.19
37931	-0.488	0.166	-0.116	17.43	-20.58	-14.7
37950	-0.504	0.049	-0.18	3.78	-13.93	-14.14
37975	-0.591	-0.123	-0.262	10.5	-12.67	-7.28
37995	-0.613	-0.153	-0.214	30.24	-10.78	3.36
38014	-0.63	-0.028	-0.132	39.34	-6.58	13.58
38038	-0.648	0.064	-0.123	33.04	0.91	17.78
38057	-0.715	-0.057	-0.234	35.42	8.75	26.39
38078	-0.796	-0.161	-0.296	53.2	13.58	38.57
38098	-0.9	-0.164	-0.232	66.36	12.25	47.25
38117	-0.886	-0.09	-0.094	69.02	20.58	48.02
38140	-0.935	-0.046	-0.038	59.78	25.27	40.95
38161	-0.996	-0.114	0.039	48.86	26.46	25.41
38177	-1.003	-0.271	-0.039	47.25	33.25	15.12
38201	-1.24	-0.086	0.096	28.0	-10.29	-1.12
38223	-1.046	-0.062	0.15	-9.38	-33.81	-10.71
38243	-0.823	-0.057	0.052	-28.84	-6.16	-15.19
38267	-0.984	-0.046	-0.057	-38.22	-5.18	-23.45
38283	-0.929	-0.153	-0.104	-31.5	-10.78	-23.59
38304	-0.837	-0.135	-0.129	-14.84	-13.79	-13.79
38328	-0.799	-0.078	-0.142	-7.14	-13.65	-6.23
38345	-0.777	-0.016	-0.162	-5.53	-14.07	-3.57
38364	-0.768	0.022	-0.167	-7.98	-14.42	-2.8
38389	-0.724	0.054	-0.167	-17.43	-11.62	-3.29
38407	-0.698	0.095	-0.186	-30.87	-10.99	-5.46
38429	-0.627	0.027	-0.211	-39.9	-6.86	-6.86
38453	-0.659	0.034	-0.226	-33.32	-2.03	-1.47
38471	-0.651	0.064	-0.242	-27.23	-1.12	1.26
38491	-0.61	0.1	-0.233	-18.97	1.19	5.11
38511	-0.574	0.142	-0.226	-19.95	2.52	8.68
38535	-0.54	0.146	-0.22	-24.99	4.34	11.41
38555	-0.604	0.197	-0.184	-35.35	0.98	13.09
38570	-0.608	0.231	-0.164	-44.24	-2.17	12.95
38590	-0.593	0.322	-0.295	-65.24	-3.43	9.73
38615	-0.577	0.36	-0.418	-99.33	-4.62	1.12
38635	-0.597	0.174	-0.526	-90.3	0.07	4.97
38654	-0.716	0.155	-0.587	-65.03	-1.26	16.8
38675	-0.742	0.048	-0.591	-30.52	6.44	26.25
38694	-0.772	-0.095	-0.58	6.65	10.99	34.86
38718	-0.761	-0.047	-0.488	64.33	24.78	51.31
38736	-0.865	0.295	-0.552	83.65	31.78	55.37
38758	-0.948	0.263	-0.606	70.98	30.24	48.65
38778	-1.022	0.261	-0.538	51.24	20.58	46.97
38802	-1.015	0.441	-0.507	4.06	15.54	32.27
38822	-1.072	0.464	-0.52	-27.37	13.02	11.27
38842	-1.149	0.267	-0.587	-61.04	10.15	-4.2
38860	-1.143	0.155	-0.614	-58.03	5.88	-10.22
38882	-1.133	0.38	-0.447	-47.88	7.84	-12.25
38902	-1.118	0.406	-0.366	-59.71	7.63	-14.84
38926	-1.153	0.202	-0.319	-54.88	7.77	-5.18
38945	-1.168	0.06	-0.397	-39.06	3.99	7.28
38969	-1.212	0.217	-0.364	-34.37	1.89	13.16
38989	-1.274	0.242	-0.414	-59.15	0.7	0.49
39007	-1.304	0.12	-0.467	-66.85	-0.35	-4.27
39026	-1.309	0.018	-0.548	-60.34	0.21	-9.31
39051	-1.195	0.071	-0.527	-38.92	-4.9	-11.2
39071	-1.158	0.154	-0.439	-28.84	5.25	-10.92
39091	-1.195	0.113	-0.489	-17.57	15.05	-11.83
39110	-1.175	0.138	-0.554	-15.96	22.05	-16.8
39132	-1.293	-0.052	-0.615	-6.51	22.89	-15.54
39156	-1.038	0.043	-0.799	21.63	40.04	-6.09
39176	-1.684	0.109	-0.222	35.07	-28.21	-7.14
39191	-1.413	0.215	-0.15	43.26	-12.53	-13.44
39216	-1.434	0.527	-0.098	-20.86	-20.86	-17.85
39236	-1.366	0.154	-0.216	-40.18	-8.33	-6.3
39255	-1.406	0.095	-0.311	-40.46	1.47	3.15
39279	-1.461	0.114	-0.484	-26.18	4.27	9.31
39300	-1.557	0.191	-0.692	-12.18	5.67	10.22
39324	-1.328	0.263	-0.762	-6.72	-17.15	9.45
39344	-1.347	0.251	-0.647	-18.55	-16.24	0.77
39364	-1.288	0.348	-0.586	-31.15	-8.82	-10.15
39388	-1.41	0.168	-0.616	-46.48	-7.7	-22.89
39408	-1.399	-0.013	-0.583	-20.79	-1.96	-20.58
39428	-1.385	0.043	-0.562	9.94	5.88	-10.64
39448	-1.323	0.116	-0.57	29.26	11.9	-8.68
39467	-1.193	0.243	-0.553	47.04	20.93	-3.43
39490	-1.19	0.304	-0.534	57.05	26.11	-1.82
39511	-1.129	0.114	-0.519	76.16	21.63	5.04
39529	-1.09	0.155	-0.517	100.24	15.96	15.96
39548	-1.059	0.369	-0.544	99.96	8.33	20.65
39572	-0.96	0.326	-0.463	69.09	8.26	7.49
39588	-0.886	0.219	-0.431	53.41	8.47	2.03
39613	-0.84	0.157	-0.447	59.01	-2.03	8.47
39632	-0.757	0.205	-0.43	65.31	7.56	9.24
39653	-0.786	0.297	-0.407	56.91	3.36	4.34
39673	-0.761	0.201	-0.424	40.39	0.28	-4.06
39690	-0.681	0.182	-0.357	36.82	-8.89	-6.02
39713	-0.616	0.132	-0.33	36.33	-8.33	-5.74
39737	-0.604	0.099	-0.313	51.94	-14.91	1.96
39757	-0.568	0.134	-0.25	53.34	-21.42	2.1
39777	-0.526	0.087	-0.22	46.83	-19.88	0.0
39797	-0.537	0.045	-0.205	43.96	-18.97	-1.19
39816	-0.59	0.02	-0.226	40.74	-18.76	-4.06
39840	-0.613	0.067	-0.287	29.12	-18.13	-15.61
39859	-0.598	0.018	-0.302	7.42	-19.32	-23.24
39883	-0.565	-0.012	-0.276	9.24	-20.93	-20.58
39903	-0.573	-0.033	-0.231	24.64	-21.91	-9.31
39923	-0.59	0.007	-0.253	42.49	-19.95	1.68
39947	-0.635	0.029	-0.324	51.1	-15.12	15.05
39964	-0.635	-0.344	-0.41	89.88	-13.65	32.48
39984	-0.651	-0.653	-0.53	212.03	-18.9	91.35
40003	-0.693	0.024	-0.291	283.36	-19.53	118.44
40024	-0.705	0.572	-0.238	184.73	-8.75	81.41
40043	-0.673	0.679	-0.22	65.52	10.43	30.24
40068	-0.739	0.292	-0.136	-31.78	18.41	-3.5
40087	-0.787	0.138	-0.191	-66.22	16.1	-20.58
40107	-0.875	-0.22	-0.292	-59.64	11.34	-23.17
40131	-0.979	-0.321	-0.152	6.44	-17.92	8.47
40151	-0.907	0.107	-0.103	58.31	-15.19	17.22
40171	-0.912	0.317	-0.194	-13.44	-2.73	-10.15
40190	-0.908	0.187	-0.272	-41.79	6.44	-15.68
40210	-0.904	0.099	-0.358	-49.77	6.93	-14.56
40229	-0.879	-0.02	-0.38	-38.78	3.5	-7.77
40254	-0.869	-0.018	-0.354	-25.2	1.26	-2.38
40274	-0.836	0.061	-0.252	-21.91	-1.05	-4.27
40294	-0.787	0.069	-0.19	-36.47	-0.28	-6.65
40314	-0.775	0.023	-0.186	-45.43	0.42	-6.51
40331	-0.817	-0.031	-0.178	-42.7	-4.06	-2.94
40354	-0.815	-0.054	-0.136	-37.8	-8.61	3.78
40375	-0.8	-0.017	-0.086	-28.56	-9.17	6.72
40394	-0.806	0.095	-0.101	-39.27	-11.62	2.38
40414	-0.758	0.081	-0.142	-56.07	-11.76	-5.67
40437	-0.711	0.028	-0.166	-58.24	-8.82	-9.03
40458	-0.704	-0.013	-0.186	-50.82	-12.53	-8.89
40478	-0.618	0.027	-0.18	-44.1	-11.48	-7.77
40502	-0.563	0.102	-0.206	-44.94	-9.59	-7.49
40518	-0.482	0.176	-0.223	-52.36	-6.58	-9.45
40538	-0.459	0.139	-0.283	-51.52	-1.12	-6.93
40561	-0.46	0.122	-0.315	-43.12	0.98	-0.98
40581	-0.489	0.198	-0.324	-34.02	1.47	7.21
40600	-0.517	0.286	-0.385	-39.48	-1.68	7.91
40625	-0.551	0.201	-0.465	-40.18	-2.52	10.78
40645	-0.598	0.315	-0.592	-35.35	3.36	17.78
40664	-0.705	0.521	-0.693	-40.74	8.19	22.26
40685	-0.813	0.712	-0.783	-53.69	6.86	17.85
40704	-0.893	0.332	-0.745	-72.24	-2.66	10.5
40725	-0.833	0.114	-0.59	-51.66	-1.96	10.99
40745	-0.828	0.116	-0.335	-24.29	6.51	21.28
40760	-0.941	0.259	-0.196	-2.31	20.51	28.0
40780	-1.065	0.262	-0.248	1.47	14.28	20.51
40805	-0.931	0.389	-0.224	8.12	16.66	17.64
40821	-0.986	0.509	-0.268	-2.38	22.26	10.01
40841	-1.212	0.614	-0.32	-34.86	15.96	-2.1
40865	-1.235	0.378	-0.333	-74.2	0.21	-22.61
40885	-1.189	0.158	-0.331	-66.43	3.64	-19.11
40903	-1.221	0.206	-0.462	-62.02	4.13	-20.23
40925	-1.257	0.114	-0.507	-53.76	-0.14	-21.91
40945	-1.291	0.091	-0.58	-39.13	3.43	-19.11
40965	-1.281	0.018	-0.551	-28.63	-7.42	-19.46
40985	-1.179	0.145	-0.578	-7.91	-5.95	-14.49
41009	-1.133	0.214	-0.55	-14.28	3.92	-11.76
41029	-1.184	0.034	-0.603	-6.65	5.18	-9.59
41049	-1.149	-0.067	-0.652	22.26	1.75	4.62
41070	-1.164	0.173	-0.574	58.31	4.55	14.63
41089	-1.164	0.392	-0.489	41.86	11.97	12.04
41107	-1.246	0.379	-0.415	42.35	-9.17	10.85
41127	-1.324	0.221	-0.721	-3.22	34.51	-7.35
41151	-1.397	0.364	-0.458	-18.48	-22.12	-7.21
41169	-1.189	0.287	-0.301	-14.56	-27.58	-6.72
41190	-1.24	0.142	-0.304	-9.94	10.36	1.68
41213	-1.31	0.094	-0.409	0.28	-15.12	-1.26
41237	-1.241	0.099	-0.333	12.88	2.1	2.66
41257	-1.418	0.263	-0.376	13.02	4.48	2.31
41277	-1.434	0.262	-0.398	8.61	6.93	5.67
41293	-1.409	0.355	-0.539	2.24	6.79	7.07
41317	-1.417	0.265	-0.652	-15.96	2.59	0.63
41337	-1.349	0.34	-0.615	-18.97	1.54	6.51
41357	-1.37	0.299	-0.58	6.37	-2.24	17.43
41373	-1.326	0.45	-0.523	14.07	-1.89	16.94
41393	-1.344	0.469	-0.522	0.7	-3.92	11.62
41417	-1.332	0.42	-0.494	-7.98	1.26	10.92
41436	-1.378	0.309	-0.52	-4.83	3.99	13.58
41455	-1.343	0.194	-0.511	11.2	3.29	21.77
41474	-1.217	0.234	-0.469	27.23	5.25	30.1
41499	-1.179	0.188	-0.506	43.26	14.28	36.12
41518	-1.121	0.126	-0.568	57.89	19.46	45.08
41542	-1.041	0.002	-0.593	95.76	9.38	52.92
41561	-1.032	-0.12	-0.558	124.81	9.45	57.89
41580	-0.979	-0.169	-0.519	150.5	1.19	57.05
41604	-0.905	-0.174	-0.446	172.41	6.09	47.88
41623	-0.817	-0.113	-0.405	177.52	9.8	33.53
41643	-0.798	-0.122	-0.398	182.63	-2.87	22.54
41667	-0.727	-0.079	-0.396	184.24	-2.52	6.23
41686	-0.781	-0.127	-0.403	174.3	-7.0	-9.52
41706	-0.77	-0.163	-0.372	156.1	-15.05	-24.92
41730	-0.739	-0.247	-0.351	144.9	-25.48	-35.7
41750	-0.721	-0.24	-0.351	141.47	-30.87	-38.29
41769	-0.709	-0.218	-0.353	133.63	-38.99	-39.34
41793	-0.691	-0.225	-0.351	122.36	-50.4	-37.87
41813	-0.678	-0.233	-0.343	116.69	-58.87	-31.71
41832	-0.686	-0.29	-0.38	117.88	-66.57	-20.86
41853	-0.703	-0.247	-0.358	111.51	-77.14	-15.4
41868	-0.722	-0.281	-0.353	107.31	-82.46	-8.82
41888	-0.733	-0.306	-0.363	103.95	-90.51	-1.05
41912	-0.758	-0.297	-0.394	100.94	-97.3	2.45
41932	-0.79	-0.294	-0.439	90.79	-104.44	3.22
41952	-0.799	-0.293	-0.484	84.77	-108.5	-1.68
41973	-0.814	-0.25	-0.527	69.93	-110.67	-10.99
41997	-0.827	-0.249	-0.582	53.41	-112.35	-26.53
42017	-0.85	-0.211	-0.62	35.56	-109.41	-48.51
42035	-0.806	-0.162	-0.599	15.4	-100.38	-87.22
42055	-0.842	-0.142	-0.617	-5.6	-94.85	-95.2
42075	-0.827	-0.087	-0.62	-25.55	-77.0	-124.95
42094	-0.843	-0.057	-0.636	-50.12	-65.17	-148.96
42117	-0.798	-0.06	-0.625	-75.46	-45.22	-176.47
42138	-0.752	-0.108	-0.597	-92.68	-21.7	-194.88
42160	-0.737	-0.153	-0.581	-96.46	1.89	-204.12
42179	-0.793	-0.148	-0.576	-87.64	21.84	-199.57
42203	-0.824	-0.088	-0.569	-75.88	32.62	-186.55
42223	-0.787	-0.03	-0.491	-60.41	44.87	-164.36
42242	-0.729	0.019	-0.435	-47.18	50.96	-140.28
42266	-0.708	0.02	-0.363	-30.52	55.44	-97.09
42287	-0.634	0.04	-0.193	1.12	50.05	-52.22
42307	-0.629	0.114	-0.032	18.76	38.36	-3.43
42322	-0.565	0.085	0.067	27.44	41.79	28.63
42347	-0.675	-0.068	0.014	25.9	54.67	77.07
42367	-0.944	-0.215	-0.067	16.03	46.62	110.04
42387	-1.023	-0.292	-0.073	8.47	29.61	147.14
42411	-1.003	-0.365	-0.122	26.6	16.8	198.03
42430	-0.998	-0.356	-0.208	71.19	13.16	251.72
42451	-1.098	-0.407	-0.218	142.8	22.47	281.61
42470	-1.17	-0.041	0.013	174.16	0.35	312.13
42494	-1.343	0.326	0.107	85.96	48.02	276.22
42512	-1.435	0.468	0.111	4.41	62.09	236.18
42534	-1.59	0.459	0.068	-84.21	68.25	181.23
42554	-1.75	0.102	0.014	-176.12	37.94	134.05
42574	-1.456	-0.217	-0.363	-204.4	74.27	111.3
42594	-1.745	0.976	0.145	-624.75	3.01	-197.96
42618	-1.707	-2.989	-0.799	-508.13	-55.3	-222.53
42636	-1.353	-2.732	-0.47	-153.09	-118.23	6.3
42657	-0.612	-0.772	-0.15	18.06	-37.94	51.45
42678	-0.859	-0.325	-0.102	-9.73	-39.27	22.75
42693	-0.963	-0.333	-0.127	18.83	-55.93	21.84
42718	-0.785	-0.188	-0.078	51.8	-38.78	35.84
42735	-0.77	-0.14	-0.131	46.2	-12.25	30.66
42758	-0.753	-0.264	-0.227	34.79	-1.33	21.77
42782	-0.788	-0.263	-0.337	24.99	1.05	1.96
42802	-0.803	-0.317	-0.347	24.99	-3.99	-8.4
42822	-0.799	-0.386	-0.348	29.89	11.76	-13.02
42838	-0.864	-0.371	-0.345	32.2	10.64	-20.37
42861	-0.871	-0.317	-0.334	31.85	7.28	-36.4
42882	-0.852	-0.253	-0.299	28.35	12.11	-49.77
42899	-0.813	-0.247	-0.24	27.51	18.06	-56.21
42923	-0.847	-0.209	-0.24	22.89	32.76	-67.97
42944	-0.898	-0.191	-0.263	11.97	36.68	-75.32
42963	-0.895	-0.246	-0.254	9.31	45.5	-73.99
42987	-0.957	-0.284	-0.28	21.07	53.2	-61.25
43007	-0.98	-0.248	-0.299	33.46	53.69	-50.68
43028	-0.947	-0.255	-0.32	40.81	53.55	-42.0
43052	-0.918	-0.285	-0.35	57.12	56.35	-33.6
43070	-0.936	-0.296	-0.38	64.19	56.49	-32.9
43094	-0.942	-0.305	-0.423	65.45	54.95	-34.09
43114	-0.932	-0.38	-0.458	77.07	52.5	-33.32
43134	-0.933	-0.511	-0.475	98.98	51.03	-30.8
43152	-0.967	-0.455	-0.489	110.39	53.34	-31.57
43175	-1.033	-0.381	-0.53	100.45	47.46	-34.37
43199	-0.962	-0.339	-0.503	81.13	39.06	-34.3
43219	-0.857	-0.382	-0.53	49.91	34.93	-35.63
43239	-0.849	-0.528	-0.539	44.31	23.1	-35.49
43257	-0.845	-0.692	-0.529	64.33	12.46	-32.76
43279	-0.85	-0.699	-0.488	76.93	6.16	-38.22
43299	-0.836	-0.626	-0.435	71.47	1.33	-53.13
43319	-0.831	-0.701	-0.37	51.52	-3.5	-74.69
43339	-0.835	-0.878	-0.348	56.0	-14.84	-80.43
43359	-0.754	-0.972	-0.374	77.49	-18.2	-79.59
43377	-0.71	-0.949	-0.412	87.85	-19.81	-85.61
43398	-0.674	-0.952	-0.394	84.77	-25.41	-98.84
43419	-0.634	-1.098	-0.325	87.36	-24.64	-109.27
43440	-0.651	-1.14	-0.285	97.51	-22.12	-119.77
43463	-0.615	-1.133	-0.307	103.25	-17.92	-133.98
43487	-0.589	-1.199	-0.338	115.5	-17.08	-145.74
43506	-0.611	-1.267	-0.302	139.72	-21.49	-147.35
43527	-0.645	-1.237	-0.155	161.07	-21.14	-152.6
43547	-0.633	-1.141	-0.13	158.97	-21.14	-157.57
43563	-0.585	-1.078	-0.184	149.73	-21.7	-160.44
43583	-0.543	-1.08	-0.252	140.0	-25.41	-164.15
43607	-0.459	-1.012	-0.171	139.3	-42.49	-169.61
43626	-0.34	-0.818	0.09	136.57	-50.26	-179.69
43646	-0.224	-0.667	0.259	121.38	-21.49	-192.57
43667	-0.322	-0.658	0.118	112.98	7.56	-192.29
43687	-0.355	-0.551	0.097	129.43	0.07	-176.61
43705	-0.215	-0.451	0.193	132.09	-1.33	-158.83
43725	-0.246	-0.366	0.205	116.13	6.86	-137.83
43744	-0.266	-0.25	0.181	80.71	12.81	-128.17
43768	-0.244	-0.24	0.169	36.75	24.78	-113.12
43789	-0.237	-0.247	0.207	35.56	32.97	-90.3
43808	-0.266	-0.2	0.244	40.32	34.79	-74.41
43832	-0.189	-0.231	0.228	45.71	37.87	-55.23
43848	-0.152	-0.182	0.266	30.24	40.18	-51.87
43867	-0.153	-0.245	0.256	3.64	34.86	-47.46
43890	-0.117	-0.39	0.321	4.27	24.43	-23.45
43909	-0.095	-0.42	0.311	24.29	4.97	-4.97
43934	-0.139	-0.375	0.38	13.37	3.5	-6.65
43954	-0.101	-0.388	0.481	-15.4	-0.56	-11.62
43974	0.012	-0.559	0.529	-26.04	-4.34	-10.64
43993	0.085	-0.713	0.45	-12.04	-3.85	-5.81
44014	0.141	-0.823	0.359	30.31	0.7	10.78
44033	0.139	-0.672	0.447	44.52	7.28	9.52
44051	0.128	-0.686	0.557	38.36	5.67	4.2
44070	0.139	-0.737	0.546	40.39	2.17	2.52
44090	0.195	-0.759	0.513	31.71	1.61	7.21
44110	0.262	-0.816	0.495	25.83	-5.04	6.16
44134	0.198	-0.979	0.526	20.93	-7.14	5.53
44151	0.211	-0.996	0.572	23.24	-9.87	3.15
44175	0.262	-0.993	0.656	8.4	-0.21	-7.49
44194	0.275	-1.084	0.695	0.77	1.61	-14.42
44218	0.275	-1.12	0.752	11.41	10.92	-5.18
44238	0.261	-1.11	0.729	22.47	12.6	-3.5
44253	0.244	-1.14	0.701	32.06	11.2	-3.22
44278	0.267	-1.105	0.732	27.44	13.3	-4.97
44297	0.233	-1.072	0.76	10.22	25.34	-5.74
44315	0.199	-1.048	0.838	0.84	29.89	-4.97
44333	0.166	-1.124	0.897	19.46	32.83	-1.33
44358	0.13	-1.142	0.877	48.93	28.49	6.51
44373	0.185	-1.032	0.82	73.36	23.8	8.05
44399	0.235	-0.885	0.795	62.37	25.76	6.16
44418	0.278	-0.767	0.776	43.19	27.3	5.74
44436	0.257	-0.778	0.777	35.42	21.0	6.58
44458	0.225	-0.764	0.774	37.52	14.21	8.05
44478	0.197	-0.819	0.709	39.62	5.39	6.02
44493	0.175	-0.8	0.676	31.57	5.74	3.5
44517	0.158	-0.78	0.747	7.0	15.75	-3.08
44538	0.108	-0.837	0.835	6.58	16.94	-3.22
44558	0.085	-0.911	0.856	36.61	9.31	1.4
44581	0.132	-0.864	0.81	56.84	2.24	3.71
44602	0.169	-0.802	0.831	37.45	-3.36	-1.61
44623	0.197	-0.848	0.879	9.94	-5.25	-5.95
44643	0.203	-0.884	0.929	-0.14	-10.64	-7.63
44663	0.218	-0.871	0.97	1.61	-15.89	-6.86
44683	0.258	-0.894	1.003	-2.94	-20.93	-8.05
44702	0.245	-0.975	1.055	-19.32	-22.33	-12.11
44725	0.264	-1.048	1.153	-46.55	-19.04	-14.0
44742	0.259	-1.139	1.171	-53.06	-8.82	-14.91
44765	0.251	-1.157	1.166	-32.41	-6.51	-9.31
44785	0.239	-1.161	1.104	-19.04	-3.36	-7.98
44804	0.199	-1.205	1.067	-7.56	-3.36	-9.94
44824	0.174	-1.196	1.068	-6.44	-2.38	-10.64
44849	0.147	-1.111	1.025	-24.08	-1.4	-12.67
44868	0.147	-1.035	0.951	-34.44	-4.97	-12.67
44887	0.18	-1.002	0.877	-36.96	-10.85	-12.67
44912	0.163	-1.055	0.843	-21.35	-16.66	-11.76
44931	0.15	-1.113	0.868	-7.14	-16.45	-11.76
44947	0.123	-1.048	0.885	-5.46	-17.15	-11.48
44972	0.155	-0.963	0.805	-15.4	-18.2	-11.27
44992	0.205	-0.871	0.759	-23.45	-18.55	-10.64
45012	0.203	-0.837	0.758	-25.62	-16.94	-9.73
45029	0.17	-0.865	0.733	-18.13	-17.22	-8.96
45049	0.133	-0.865	0.662	-9.52	-17.01	-7.0
45073	0.134	-0.791	0.516	-29.26	-17.29	-7.07
45091	0.183	-0.697	0.406	-46.34	-20.86	-7.56
45115	0.173	-0.683	0.431	-57.4	-14.7	-4.06
45133	0.136	-0.651	0.523	-54.6	-11.41	-2.31
45152	0.056	-0.622	0.588	-48.51	-9.52	0.84
45177	0.06	-0.621	0.517	-46.55	-10.22	5.32
45197	0.064	-0.588	0.386	-37.38	-17.92	11.06
45213	0.076	-0.525	0.325	-45.36	-20.51	18.48
45236	0.02	-0.478	0.29	-62.02	-29.82	27.37
45259	0.041	-0.436	0.311	-77.7	-35.77	29.68
45275	-0.005	-0.504	0.344	-79.17	-39.55	29.12
45299	0.007	-0.562	0.366	-61.25	-39.9	38.92
45319	0.021	-0.542	0.233	-41.09	-41.79	47.11
45343	0.1	-0.519	0.019	-39.83	-40.88	53.69
45363	0.118	-0.488	0.013	-51.1	-45.99	53.97
45381	0.147	-0.518	0.148	-63.77	-35.28	54.81
45403	0.079	-0.535	0.216	-54.11	-26.04	62.37
45423	0.09	-0.514	0.144	-38.99	-22.19	69.51
45443	0.102	-0.448	0.097	-45.22	-20.86	72.31
45462	0.072	-0.501	0.164	-70.28	-18.41	67.83
45483	0.085	-0.57	0.22	-95.76	-16.31	65.52
45502	0.113	-0.689	0.284	-97.3	-18.9	70.42
45523	0.134	-0.787	0.253	-46.13	-21.42	83.65
45543	0.156	-0.815	0.229	-23.24	-22.12	80.99
45562	0.167	-0.961	0.313	-38.71	-15.19	63.77
45582	0.362	-1.028	0.366	-63.07	-8.68	48.3
45600	0.318	-1.118	0.342	-76.86	-5.46	34.93
45620	0.369	-1.293	0.324	-55.79	3.01	31.64
45639	0.286	-1.38	0.371	-32.55	9.87	24.64
45659	0.221	-1.428	0.446	-6.86	13.37	14.07
45683	0.184	-1.308	0.424	11.27	18.83	-1.61
45704	0.165	-1.142	0.358	10.36	21.91	-17.71
45720	0.141	-1.133	0.317	13.09	22.47	-26.81
45744	0.064	-1.07	0.315	32.76	20.02	-31.08
45762	0.035	-0.966	0.345	43.54	20.09	-34.58
45785	0.009	-0.874	0.283	51.52	17.36	-38.71
45806	0.035	-0.81	0.214	51.38	15.12	-44.38
45826	0.01	-0.807	0.242	51.52	12.25	-48.23
45841	-0.022	-0.751	0.286	50.54	9.31	-50.68
45861	-0.032	-0.673	0.31	51.17	10.92	-52.29
45881	-0.034	-0.602	0.301	51.1	12.81	-53.48
45906	-0.019	-0.578	0.119	58.38	10.15	-53.2
45926	0.01	-0.615	0.082	70.28	8.4	-51.03
45945	-0.02	-0.549	0.159	73.64	7.91	-47.46
45969	-0.012	-0.438	0.199	43.96	11.97	-50.61
45986	-0.001	-0.487	0.184	22.26	14.0	-50.96
46010	-0.002	-0.653	0.164	29.68	14.49	-41.23
46030	-0.0	-0.731	0.194	53.27	9.94	-31.36
46050	0.004	-0.714	0.285	62.58	8.26	-26.88
46069	0.021	-0.634	0.309	42.7	15.89	-27.93
46091	0.039	-0.632	0.317	5.46	20.65	-36.19
46111	0.063	-0.784	0.301	-1.19	23.1	-31.85
46133	-0.01	-0.793	0.36	16.66	14.49	-29.89
46153	-0.015	-0.843	0.451	-0.84	2.59	-40.67
46173	0.07	-0.952	0.478	-10.64	1.26	-42.35
46197	0.104	-0.944	0.459	-2.87	2.24	-31.99
46216	0.132	-0.935	0.438	17.92	3.29	-23.45
46240	0.14	-0.952	0.416	24.99	0.35	-13.93
46259	0.147	-0.988	0.419	14.56	0.07	-8.96
46279	0.156	-1.072	0.411	4.48	3.36	-4.9
46303	0.144	-1.088	0.431	-2.52	-0.56	-1.19
46322	0.163	-1.159	0.507	13.44	-3.57	1.68
46346	0.164	-1.102	0.522	38.08	2.38	10.99
46369	0.249	-1.057	0.472	40.18	5.11	15.61
46389	0.3	-1.086	0.458	30.1	9.94	16.66
46409	0.249	-1.166	0.492	29.54	17.15	19.18
46429	0.216	-1.105	0.562	27.16	21.14	19.81
46449	0.223	-1.073	0.646	34.79	27.44	23.24
46473	0.21	-1.074	0.653	43.33	31.64	27.44
46492	0.205	-1.096	0.627	50.05	32.2	28.91
46516	0.207	-1.07	0.637	48.93	34.23	25.2
46536	0.194	-1.058	0.657	53.13	33.53	23.52
46555	0.188	-0.978	0.658	54.74	31.64	22.33
46575	0.176	-0.959	0.666	49.98	26.25	18.83
46599	0.143	-0.976	0.653	42.77	17.92	10.99
46617	0.153	-0.993	0.654	33.67	13.02	4.97
46640	0.152	-1.018	0.68	28.07	2.94	-0.21
46660	0.178	-1.002	0.7	27.3	-3.64	-2.45
46679	0.171	-0.981	0.735	16.52	-10.78	-6.02
46699	0.164	-1.029	0.755	3.22	-19.39	-10.5
46723	0.187	-1.065	0.793	-11.69	-25.69	-14.56
46743	0.253	-1.14	0.822	-29.82	-31.08	-15.05
46761	0.266	-1.217	0.862	-37.66	-29.54	-13.65
46785	0.235	-1.314	0.942	-52.85	-25.55	-18.83
46805	0.198	-1.47	1.01	-54.6	-19.25	-19.46
46825	0.174	-1.528	1.032	-34.37	-13.09	-14.49
46842	0.174	-1.452	0.962	-14.77	-11.27	-12.81
46862	0.199	-1.405	0.87	-13.72	-10.57	-13.86
46886	0.199	-1.362	0.839	-19.6	-9.17	-15.54
46904	0.16	-1.333	0.846	-17.57	-9.24	-17.01
46928	0.143	-1.261	0.829	-7.07	-12.74	-17.43
46950	0.118	-1.223	0.788	8.05	-16.8	-14.63
46972	0.072	-1.134	0.712	16.1	-21.7	-10.85
46992	0.072	-1.027	0.528	6.02	-27.37	-9.1
47012	0.113	-0.944	0.468	-13.09	-26.81	-7.77
47031	0.104	-0.87	0.45	-27.79	-24.71	-4.62
47050	0.086	-0.87	0.43	-35.28	-26.11	-1.68
47070	0.07	-0.891	0.413	-22.19	-27.23	13.72
47091	0.093	-0.749	0.337	-21.49	-28.14	21.0
47111	0.126	-0.61	0.239	-51.66	-18.34	24.57
47135	0.122	-0.553	0.174	-100.31	-19.32	21.91
47154	0.104	-0.521	0.182	-130.34	-22.12	20.79
47175	0.006	-0.671	0.313	-155.05	-28.14	25.97
47194	0.02	-0.742	0.258	-163.66	-25.2	25.69
47219	0.066	-0.557	0.221	-187.04	-19.18	17.01
47239	0.147	-0.33	-0.001	-245.42	-14.91	-2.24
47259	0.077	-0.318	-0.042	-285.81	-26.74	-20.86
47279	0.021	-0.722	-0.056	-293.51	-49.35	-33.32
47303	0.051	-0.94	0.009	-249.69	-64.12	-28.84
47323	0.036	-0.873	0.14	-210.56	-74.62	-24.57
47342	0.023	-0.791	0.118	-178.57	-74.69	-37.03
47365	0.047	-0.883	-0.006	-156.31	-71.96	-56.49
47386	0.064	-1.089	-0.01	-116.83	-84.63	-66.57
47406	0.12	-1.29	-0.008	-64.68	-86.94	-75.11
47426	0.163	-1.142	-0.035	-20.16	-87.99	-83.02
47446	0.272	-0.951	-0.104	-31.08	-80.71	-108.15
47466	0.315	-1.049	-0.24	-34.16	-65.8	-125.23
47485	0.396	-1.131	-0.318	-0.56	-62.09	-127.82
47506	0.433	-1.113	-0.345	87.92	-53.13	-125.09
47526	0.426	-0.905	-0.352	98.35	-48.37	-128.8
47544	0.479	-0.848	-0.419	107.87	-42.28	-132.93
47568	0.508	-0.724	-0.488	113.89	-34.02	-138.32
47588	0.54	-0.693	-0.493	122.64	-30.03	-128.45
47606	0.546	-0.566	-0.526	126.28	-19.32	-119.7
47627	0.503	-0.416	-0.533	116.83	-18.34	-108.15
47651	0.541	-0.237	-0.448	106.89	-12.74	-89.25
47671	0.521	-0.144	-0.381	74.62	-9.31	-75.25
47686	0.566	-0.136	-0.393	64.05	-5.53	-57.68
47706	0.566	-0.129	-0.398	61.25	-2.17	-30.59
47730	0.539	-0.081	-0.401	52.78	4.27	5.67
47751	0.503	-0.058	-0.408	17.29	11.41	24.5
47775	0.444	-0.126	-0.367	-20.51	20.65	45.78
47795	0.421	-0.239	-0.369	-35.56	29.82	72.52
47815	0.379	-0.29	-0.35	-26.53	33.11	99.05
47832	0.391	-0.075	-0.31	-29.54	44.03	110.88
47851	0.339	0.018	-0.376	-81.13	65.59	115.78
47876	0.272	-0.211	-0.469	-116.41	64.82	128.94
47893	0.27	-0.422	-0.399	-103.18	70.42	144.69
47912	0.204	-0.459	-0.324	-91.35	80.71	158.55
47937	0.184	-0.478	-0.183	-104.58	106.12	151.97
47953	0.147	-0.637	-0.222	-115.29	115.08	144.55
47977	0.203	-0.776	-0.368	-105.35	120.61	141.54
47997	0.14	-0.902	-0.377	-86.24	121.17	139.51
48015	0.146	-0.861	-0.288	-67.06	128.8	124.95
48037	0.054	-0.876	-0.261	-82.67	128.87	90.23
48057	0.103	-1.112	-0.241	-69.65	123.97	73.92
48075	0.09	-1.299	-0.225	-37.87	125.93	67.06
48099	0.02	-1.227	-0.242	-9.38	121.59	48.65
48119	0.028	-1.258	-0.289	-6.3	125.44	10.71
48138	-0.07	-1.209	-0.239	5.39	98.63	5.18
48159	-0.268	-0.839	-0.166	-35.49	96.81	-30.24
48179	-0.438	-1.315	0.273	-56.07	24.43	-48.93
48202	-0.045	-1.623	-0.14	68.74	35.91	-18.34
48220	-0.044	-1.201	-0.383	128.24	29.96	-9.8
48243	0.108	-0.582	-0.47	77.84	23.38	-2.87
48259	0.294	-0.423	-0.432	30.24	32.34	2.45
48283	0.285	-0.762	-0.427	5.6	31.22	8.19
48302	0.136	-1.1	-0.274	37.66	21.98	18.76
48326	0.118	-1.151	-0.247	75.67	16.31	29.61
48346	0.09	-0.986	-0.277	75.11	8.61	28.98
48366	0.215	-0.839	-0.26	40.74	5.18	23.66
48390	0.249	-0.946	-0.287	22.89	5.81	23.94
48410	0.264	-1.002	-0.332	25.41	5.32	24.64
48430	0.264	-1.035	-0.256	34.58	5.46	29.19
48446	0.273	-1.061	-0.167	37.31	4.69	31.57
48469	0.274	-1.137	-0.209	35.28	0.14	30.24
48489	0.279	-1.172	-0.286	32.2	0.7	27.93
48508	0.346	-1.118	-0.274	16.1	4.27	24.22
48528	0.316	-1.2	-0.157	5.32	5.32	22.33
48548	0.296	-1.281	-0.124	9.8	10.36	21.07
48571	0.264	-1.326	-0.1	27.58	10.85	22.33
48590	0.275	-1.237	-0.105	40.18	10.85	24.36
48615	0.317	-1.12	-0.116	35.63	12.11	19.95
48632	0.279	-1.189	-0.05	15.4	11.9	11.83
48653	0.247	-1.339	0.013	21.49	9.03	8.68
48673	0.21	-1.317	0.032	39.55	5.6	8.75
48696	0.23	-1.269	-0.02	52.22	-1.68	6.3
48715	0.253	-1.187	-0.053	35.98	-6.23	-1.54
48740	0.286	-1.273	-0.075	4.55	-11.2	-13.09
48760	0.304	-1.419	-0.098	-3.92	-13.86	-16.03
48779	0.289	-1.491	-0.09	-0.91	-16.59	-15.54
48799	0.264	-1.534	-0.05	0.56	-19.74	-14.42
48823	0.304	-1.568	-0.046	-0.07	-10.57	-11.41
48843	0.34	-1.612	-0.094	-6.23	-3.99	-7.56
48863	0.34	-1.663	-0.053	4.83	3.71	-1.68
48882	0.271	-1.582	-0.017	21.14	5.53	5.32
48907	0.268	-1.459	-0.012	29.19	2.73	4.41
48927	0.26	-1.428	0.017	26.04	3.5	2.31
48947	0.231	-1.425	0.038	29.54	3.64	3.99
48963	0.202	-1.36	0.062	38.36	4.06	4.97
48983	0.175	-1.298	0.044	40.32	0.91	4.34
49003	0.173	-1.296	-0.026	43.05	-8.33	0.84
49023	0.166	-1.246	-0.046	44.38	-15.96	-4.55
49043	0.193	-1.164	0.015	30.59	-16.17	-9.8
49066	0.151	-1.123	0.039	23.52	-12.95	-10.08
49084	0.112	-1.086	0.043	23.52	-16.94	-8.82
49108	0.084	-1.085	0.039	29.12	-21.7	-8.61
49127	0.115	-1.051	0.026	20.44	-26.32	-13.44
49151	0.094	-1.015	0.063	8.19	-27.79	-16.94
49171	0.087	-0.87	0.095	-4.76	-24.5	-22.75
49191	0.063	-0.745	0.039	-15.12	-22.54	-25.9
49210	0.076	-0.775	-0.044	-16.73	-30.52	-28.56
49232	0.094	-0.848	0.001	-3.01	-33.25	-24.15
49251	0.092	-0.819	0.104	13.65	-31.22	-15.89
49270	0.067	-0.866	0.199	26.39	-30.03	-7.14
49295	0.005	-0.748	0.246	45.15	-29.33	11.2
49310	0.049	-0.563	0.21	34.79	-37.8	6.79
49335	0.085	-0.664	0.09	24.85	-40.74	5.25
49355	0.123	-0.764	0.145	51.59	-43.75	16.17
49378	0.05	-0.741	0.27	83.02	-42.42	34.09
49398	0.024	-0.593	0.361	82.46	-40.74	30.59
49419	0.092	-0.383	0.222	49.14	-33.39	27.3
49440	0.17	-0.332	0.097	-5.53	-25.69	11.13
49464	0.197	-0.563	-0.025	7.63	-29.68	11.76
49483	0.136	-0.709	0.094	45.43	-34.37	27.02
49501	0.062	-0.668	0.23	73.5	-39.62	36.4
49525	0.073	-0.579	0.318	55.58	-39.13	28.77
49540	0.124	-0.515	0.238	38.43	-32.06	32.27
49565	0.18	-0.567	0.128	34.09	-33.95	28.98
49585	0.164	-0.643	0.13	68.53	-40.39	42.7
49605	0.201	-0.614	0.17	76.02	-37.03	40.18
49625	0.183	-0.552	0.252	44.73	-32.06	34.65
49649	0.198	-0.547	0.201	-10.36	-21.77	20.51
49669	0.189	-0.63	0.146	-29.89	-22.89	18.62
49688	0.223	-0.782	0.155	-32.9	-23.31	17.01
49709	0.235	-0.931	0.227	-28.63	-23.73	16.17
49729	0.242	-1.039	0.336	-33.04	-16.31	16.45
49744	0.191	-1.083	0.363	-48.44	-10.01	12.04
49769	0.153	-1.242	0.37	-62.16	-14.63	0.56
49789	0.097	-1.424	0.419	-19.74	-18.27	1.68
49809	0.067	-1.344	0.496	5.88	-19.6	8.89
49829	0.112	-1.101	0.516	28.49	-10.92	2.87
49853	0.122	-0.956	0.476	-3.64	-8.89	-20.02
49873	0.17	-1.083	0.432	-9.03	-5.81	-24.78
49893	0.156	-1.139	0.428	10.71	-2.87	-20.02
49913	0.17	-1.036	0.402	37.94	-0.63	-17.99
49937	0.227	-0.94	0.351	46.34	0.28	-15.68
49955	0.238	-0.881	0.336	45.08	0.56	-14.35
49974	0.238	-0.828	0.364	18.48	7.84	-13.23
49999	0.214	-0.853	0.428	26.04	11.69	-15.33
50019	0.141	-0.885	0.476	30.73	9.31	-13.09
50039	0.121	-0.805	0.474	39.83	7.98	-13.86
50058	0.115	-0.706	0.459	48.09	8.47	-13.72
50081	0.087	-0.633	0.372	59.36	7.77	-14.7
50101	0.101	-0.58	0.335	74.34	5.18	-11.06
50125	0.107	-0.487	0.288	76.23	3.99	-7.7
50145	0.118	-0.364	0.267	58.66	3.99	-9.59
50163	0.114	-0.299	0.261	35.07	4.34	-13.79
50181	0.136	-0.355	0.213	17.71	5.81	-19.39
50200	0.114	-0.548	0.207	26.18	4.48	-16.31
50223	0.125	-0.514	0.237	46.13	3.5	-9.87
50247	0.111	-0.441	0.314	18.9	9.87	-10.57
50267	0.15	-0.434	0.325	23.73	12.32	-10.43
50291	0.183	-0.593	0.319	28.91	11.97	-4.55
50309	0.205	-0.582	0.319	39.76	18.83	8.68
50329	0.167	-0.567	0.35	48.44	21.21	14.84
50348	0.156	-0.576	0.439	42.35	21.56	16.1
50370	0.133	-0.656	0.508	19.53	29.26	15.61
50388	-0.009	-0.98	0.574	33.25	20.02	11.13
50408	-0.035	-1.096	0.551	75.32	13.23	18.83
50430	-0.114	-0.992	0.526	77.7	-2.94	6.86
50449	0.053	-0.951	0.582	53.13	-1.4	-0.7
50474	-0.008	-0.882	0.607	25.76	12.81	-14.28
50494	-0.076	-1.138	0.667	37.17	2.8	-16.38
50509	-0.098	-1.111	0.768	63.14	2.52	-5.46
50529	-0.009	-0.834	0.79	64.75	-1.89	0.56
50554	0.099	-0.769	0.738	22.68	7.28	-1.4
50574	0.08	-0.892	0.697	0.7	7.98	-4.83
50592	0.121	-1.0	0.737	3.29	4.76	-2.8
50616	0.153	-1.048	0.811	20.44	8.82	7.77
50636	0.154	-1.014	0.87	36.82	31.22	15.4
50656	0.127	-0.907	0.866	36.61	32.34	12.88
50674	0.153	-0.867	0.894	35.98	34.72	13.51
50694	0.144	-0.86	0.909	30.59	43.26	13.72
50717	0.111	-0.889	0.94	28.07	43.75	12.6
50736	0.056	-0.967	0.971	43.19	42.91	16.17
50758	0.033	-0.898	0.965	50.68	37.73	14.49
50782	0.04	-0.896	0.978	55.79	33.74	14.56
50802	-0.032	-0.84	1.011	50.19	26.6	10.99
50819	-0.015	-0.82	1.01	42.07	21.14	5.46
50843	-0.003	-0.839	1.007	32.41	17.01	-3.15
50864	-0.016	-0.864	1.02	36.47	7.28	-5.39
50883	0.007	-0.859	1.076	42.91	-1.12	-4.62
50903	-0.001	-0.807	1.082	38.64	-9.03	-4.34
50926	0.02	-0.813	1.129	19.81	-14.42	-9.38
50947	-0.04	-0.915	1.161	-11.83	-18.97	-14.07
50971	-0.026	-1.02	1.204	-23.52	-28.98	-14.28
50988	0.03	-1.042	1.211	-22.89	-29.26	-10.64
51008	0.004	-1.062	1.253	-26.04	-25.97	-9.94
51028	-0.023	-1.106	1.293	-27.16	-21.42	-12.46
51048	-0.023	-1.149	1.318	-18.97	-12.74	-13.23
51067	-0.018	-1.11	1.322	-8.12	-8.05	-10.78
51092	0.002	-1.034	1.289	6.44	-4.48	-5.95
51112	-0.0	-0.935	1.233	10.85	-3.29	-2.45
51132	-0.018	-0.911	1.169	6.44	-2.94	0.0
51152	-0.029	-0.88	1.145	-3.78	-7.49	-3.01
51171	-0.011	-0.936	1.129	-6.23	-8.82	-4.41
51188	-0.018	-0.972	1.089	2.38	-8.68	-2.87
51212	-0.039	-0.887	1.058	7.7	-12.95	-0.98
51232	-0.026	-0.873	0.991	2.94	-14.21	-0.28
51251	-0.059	-0.858	0.89	-2.45	-16.66	-0.91
51269	-0.061	-0.823	0.815	-3.99	-25.2	-5.81
51292	-0.015	-0.797	0.794	6.09	-25.69	-6.02
51310	0.007	-0.668	0.724	0.28	-17.85	-4.97
51329	0.016	-0.547	0.637	-16.87	-11.48	-2.1
51349	-0.048	-0.479	0.567	-37.17	-13.37	0.91
51374	-0.029	-0.456	0.561	-60.9	-20.93	5.6
51393	-0.026	-0.503	0.537	-53.9	-25.34	12.81
51414	-0.005	-0.493	0.54	-44.31	-24.57	19.53
51434	0.009	-0.371	0.494	-46.83	-16.73	23.1
51454	0.002	-0.268	0.38	-75.32	-15.61	21.35
51478	0.019	-0.271	0.306	-106.54	-19.95	16.87
51496	0.002	-0.398	0.28	-119.14	-18.62	16.24
51518	-0.012	-0.467	0.276	-113.96	-22.33	17.08
51542	0.051	-0.395	0.248	-108.01	-21.84	16.03
51562	0.097	-0.335	0.193	-115.43	-19.95	10.99
51580	0.12	-0.336	0.208	-126.7	-18.2	4.9
51602	0.073	-0.438	0.342	-134.4	-21.49	-0.42
51621	0.089	-0.519	0.406	-123.06	-24.36	0.63
51645	0.138	-0.543	0.384	-93.38	-25.41	7.63
51663	0.168	-0.525	0.326	-66.78	-29.89	12.74
51683	0.216	-0.475	0.252	-64.89	-30.87	11.34
51704	0.248	-0.43	0.197	-87.29	-22.12	7.35
51723	0.201	-0.603	0.254	-109.55	-21.77	-3.92
51748	0.135	-0.952	0.381	-86.52	-23.52	-7.28
51767	0.174	-1.048	0.386	-58.1	-30.59	-4.69
51786	0.315	-1.026	0.346	-39.27	-29.33	-0.14
51809	0.381	-1.056	0.381	-40.53	-16.38	1.54
51828	0.304	-1.208	0.445	-40.88	-3.29	-0.35
51850	0.202	-1.326	0.498	-18.97	-0.35	-4.2
51871	0.17	-1.308	0.514	10.08	4.41	-3.01
51895	0.148	-1.159	0.475	28.84	12.18	-6.37
51913	0.122	-1.02	0.448	29.4	16.03	-9.66
51937	0.1	-0.926	0.405	30.24	15.68	-13.58
51955	0.093	-0.842	0.384	34.37	14.56	-13.65
51973	0.069	-0.753	0.365	36.4	14.49	-11.34
51993	0.034	-0.672	0.362	30.73	12.6	-9.17
52016	0.015	-0.632	0.311	26.67	6.93	-6.93
52036	0.043	-0.558	0.262	25.83	2.66	-5.25
52057	0.062	-0.587	0.227	35.21	-1.68	-0.42
52077	0.073	-0.585	0.221	44.03	0.98	4.69
52097	0.026	-0.514	0.211	38.29	0.28	5.95
52114	0.031	-0.541	0.187	29.89	-1.89	5.11
52137	0.046	-0.615	0.171	30.45	-1.61	6.86
52154	0.046	-0.65	0.162	38.08	-2.52	8.26
52178	0.091	-0.593	0.181	28.98	5.11	3.5
52198	0.079	-0.664	0.207	19.18	11.55	-2.1
52222	0.05	-0.829	0.196	34.23	7.98	-0.91
52240	0.067	-0.834	0.276	49.98	6.37	2.8
52262	0.112	-0.743	0.355	62.58	11.97	1.26
52279	0.174	-0.682	0.352	51.94	19.81	-3.64
52302	0.172	-0.775	0.325	27.44	26.46	-12.74
52323	0.06	-0.993	0.362	32.34	21.07	-12.39
52347	0.009	-1.032	0.488	54.95	3.71	-7.77
52367	0.06	-0.988	0.627	65.03	-4.34	-11.97
52387	0.115	-0.981	0.664	75.04	1.19	-11.41
52407	0.092	-0.942	0.689	80.36	3.15	-8.82
52427	0.048	-0.868	0.69	65.38	-1.68	-11.06
52445	0.041	-0.944	0.675	53.62	-9.17	-13.02
52465	0.081	-1.001	0.659	63.21	-13.3	-11.62
52486	0.11	-0.907	0.672	78.19	-10.85	-11.83
52504	0.083	-0.903	0.657	70.14	-4.9	-16.38
52524	-0.014	-1.016	0.575	67.55	-7.63	-17.08
52549	-0.023	-1.018	0.564	69.51	-18.48	-13.79
52569	0.08	-0.942	0.568	59.08	-16.17	-19.11
52592	0.102	-0.922	0.582	52.99	-6.3	-24.15
52613	0.086	-0.885	0.608	53.2	-1.89	-25.13
52633	0.068	-0.87	0.651	58.8	0.84	-21.0
52656	0.069	-0.777	0.668	56.42	2.45	-15.96
52678	0.089	-0.771	0.731	42.14	0.35	-14.84
52697	0.129	-0.854	0.793	48.02	5.11	-10.43
52714	0.096	-0.836	0.856	54.53	9.38	-5.11
52738	0.096	-0.749	0.865	49.91	8.68	-2.73
52756	0.155	-0.727	0.872	35.14	13.65	-3.43
52774	0.196	-0.799	0.901	28.42	9.17	-5.04
52798	0.156	-0.844	0.99	35.84	12.32	-2.59
52818	0.126	-0.834	1.048	43.19	10.08	-2.94
52836	0.183	-0.779	1.033	44.87	5.04	-2.31
52856	0.242	-0.742	1.061	37.24	2.94	-2.1
52880	0.272	-0.741	1.101	26.88	0.0	-1.82
52897	0.246	-0.793	1.18	18.55	-0.21	-1.19
52916	0.22	-0.887	1.228	17.08	-6.37	0.77
52941	0.243	-0.886	1.267	9.38	-12.11	-1.05
52959	0.293	-0.911	1.267	1.26	-17.85	-1.61
52980	0.303	-0.939	1.302	-17.85	-19.6	-3.64
53003	0.322	-1.065	1.382	-34.3	-21.14	-10.78
53026	0.334	-1.169	1.449	-20.23	-11.55	-13.23
53050	0.304	-1.139	1.46	3.22	-2.17	-9.45
53070	0.256	-1.012	1.397	22.47	-0.28	-10.71
53087	0.294	-0.918	1.399	27.58	4.69	-13.02
53108	0.265	-0.877	1.386	28.77	10.92	-14.21
53130	0.196	-0.872	1.322	31.22	11.13	-14.28
53151	0.203	-0.815	1.207	31.08	9.52	-12.67
53170	0.157	-0.76	1.034	20.44	8.47	-10.92
53194	0.171	-0.736	0.983	8.54	-5.74	-15.47
53214	0.243	-0.736	0.958	5.74	0.14	-13.79
53233	0.196	-0.694	0.895	4.83	3.5	-12.88
53255	0.162	-0.646	0.745	-8.75	9.24	-8.75
53276	0.059	-0.636	0.732	-28.91	4.13	-7.7
53296	0.037	-0.642	0.737	-32.97	0.0	-2.52
53320	0.067	-0.551	0.643	-32.76	11.41	1.68
53337	0.024	-0.431	0.489	-43.47	18.13	-0.14
53358	0.017	-0.418	0.373	-69.16	13.23	-2.59
53377	-0.074	-0.492	0.549	-78.68	9.45	-0.35
53402	-0.087	-0.527	0.624	-66.85	7.7	9.87
53421	-0.05	-0.357	0.562	-60.48	11.27	15.54
53440	0.008	-0.202	0.422	-82.53	13.09	12.67
53463	0.052	-0.201	0.254	-112.77	11.83	10.99
53483	-0.013	-0.347	0.373	-128.59	7.35	9.73
53506	-0.022	-0.438	0.447	-121.24	0.28	18.06
53525	0.015	-0.455	0.484	-110.46	4.34	23.8
53544	0.014	-0.396	0.432	-101.5	3.22	29.47
53567	0.079	-0.304	0.306	-107.66	-2.45	28.07
53587	0.026	-0.476	0.436	-103.6	-3.99	21.84
53606	0.057	-0.574	0.499	-91.21	-8.75	23.1
53630	0.099	-0.666	0.51	-76.37	-5.25	23.59
53650	0.061	-0.727	0.465	-45.78	-9.73	28.91
53670	0.057	-0.654	0.423	-20.44	-16.03	32.34
53689	0.07	-0.561	0.383	-35.21	-14.77	26.74
53710	0.048	-0.581	0.321	-79.8	-15.26	14.84
53728	0.036	-0.719	0.3	-91.98	-17.92	6.37
53752	-0.005	-0.845	0.425	-81.48	-24.15	-1.12
53772	0.044	-0.928	0.524	-56.28	-34.44	-0.77
53790	0.145	-0.947	0.544	-36.54	-31.78	1.54
53814	0.191	-0.907	0.61	-33.32	-33.81	-2.24
53834	0.289	-0.925	0.634	-40.53	-38.08	-6.86
53852	0.45	-1.029	0.64	-34.3	-32.48	-8.54
53870	0.492	-1.062	0.668	-27.58	-17.15	-8.19
53893	0.31	-1.196	0.644	-10.57	1.19	-8.89
53916	0.212	-1.199	0.596	18.55	1.82	-6.93
53936	0.147	-1.018	0.495	47.18	4.76	-5.25
53954	0.105	-0.855	0.399	52.85	4.62	-4.62
53974	0.063	-0.669	0.344	38.85	-2.17	-6.93
53998	0.063	-0.582	0.348	8.75	-8.47	-9.45
54013	0.07	-0.609	0.36	-1.33	-11.34	-8.68
54033	0.064	-0.669	0.343	-3.43	-13.37	-5.6
54057	0.064	-0.623	0.339	5.46	-15.26	-0.63
54078	0.032	-0.577	0.346	8.4	-17.99	0.42
54095	0.05	-0.56	0.318	11.41	-18.41	0.28
54114	0.056	-0.533	0.28	10.08	-15.12	1.4
54138	0.052	-0.467	0.223	8.96	-14.91	1.26
54158	0.041	-0.436	0.225	5.53	-15.05	-3.01
54178	0.048	-0.544	0.252	18.27	-16.17	-5.32
54202	0.016	-0.626	0.27	37.45	-13.16	2.17
54222	0.042	-0.606	0.186	40.04	-11.69	2.87
54242	0.025	-0.586	0.146	15.89	-9.38	-4.83
54259	0.002	-0.727	0.166	10.71	-12.88	-12.53
54283	0.018	-0.852	0.247	28.77	-12.6	-11.2
54303	0.038	-0.695	0.244	32.2	-9.17	-7.84
54327	0.081	-0.621	0.292	16.94	-10.78	-13.16
54347	0.057	-0.83	0.373	25.9	-15.68	-9.87
54365	0.033	-0.879	0.372	45.64	-15.82	-1.75
54388	0.029	-0.788	0.391	38.92	-23.17	2.73
54411	0.087	-0.821	0.463	16.59	-19.81	-4.2
54432	0.012	-1.071	0.512	23.38	-17.43	-1.12
54450	0.03	-1.104	0.53	43.68	-18.76	1.61
54469	0.101	-1.052	0.518	48.51	-17.15	4.27
54489	0.212	-0.995	0.542	45.01	-8.68	5.95
54510	0.183	-1.031	0.593	41.93	2.38	5.88
54534	0.175	-1.092	0.592	56.49	13.72	11.97
54553	0.135	-1.104	0.632	70.49	18.69	18.06
54573	0.142	-1.07	0.665	80.36	25.69	25.55
54590	0.116	-0.936	0.642	63.0	27.93	21.49
54610	0.105	-1.017	0.668	42.7	28.56	11.2
54634	0.065	-1.166	0.736	44.87	37.03	8.68
54654	0.041	-1.191	0.787	64.33	34.51	11.55
54674	0.036	-1.029	0.748	76.65	38.71	15.75
54694	0.069	-0.859	0.719	69.3	38.71	15.12
54712	0.074	-0.839	0.754	50.68	34.02	6.65
54732	0.112	-0.919	0.816	42.56	39.69	4.9
54755	0.024	-0.943	0.807	46.27	39.2	6.02
54774	-0.017	-0.947	0.811	56.63	25.55	7.49
54799	-0.124	-0.863	0.829	57.4	23.66	1.89
54815	-0.039	-0.801	0.877	32.41	18.97	-7.49
54839	-0.03	-0.86	0.936	8.82	17.78	-14.14
54858	-0.093	-0.96	0.964	27.02	7.35	-10.57
54879	-0.066	-0.893	0.988	35.21	-1.33	-10.57
54900	-0.01	-0.852	0.956	36.89	-6.79	-10.71
54919	0.018	-0.793	0.974	26.25	-10.01	-12.18
54939	0.008	-0.795	1.03	-1.05	-9.03	-15.19
54957	-0.042	-0.948	1.074	-10.01	-16.03	-16.1
54977	-0.042	-1.011	1.136	-10.22	-21.42	-14.21
54997	0.0	-1.013	1.161	-13.3	-22.89	-13.44
55017	0.015	-1.054	1.149	-16.1	-19.11	-11.97
55041	-0.025	-1.128	1.176	-15.54	-18.48	-14.35
55059	-0.007	-1.172	1.216	-17.43	-16.45	-17.5
55080	0.024	-1.155	1.267	-4.2	-8.12	-15.4
55097	0.004	-1.095	1.296	4.97	-4.13	-13.79
55121	-0.017	-1.048	1.26	14.14	-4.62	-10.29
55141	-0.026	-1.054	1.199	19.46	-7.0	-6.86
55161	-0.007	-0.987	1.1	11.48	-10.36	-7.56
55180	0.051	-0.962	1.016	-2.1	-10.08	-11.27
55201	0.053	-1.029	1.02	-11.76	-6.44	-12.67
55220	0.039	-0.999	0.983	-5.67	-6.16	-12.32
55239	-0.006	-0.953	0.959	-2.73	-8.89	-11.69
55261	-0.086	-0.934	0.952	0.35	-22.19	-11.2
55279	-0.023	-0.975	0.947	15.19	-31.29	-9.38
55298	0.001	-0.845	0.895	21.35	-29.61	-5.74
55323	0.004	-0.77	0.77	2.94	-30.59	-5.67
55343	0.005	-0.7	0.737	-11.76	-36.89	-7.63
55361	0.042	-0.786	0.741	-6.51	-37.8	-6.44
55384	0.011	-0.804	0.69	18.83	-35.56	-0.42
55404	-0.019	-0.62	0.58	29.54	-32.27	4.9
55424	0.034	-0.435	0.486	6.72	-38.29	4.06
55444	0.117	-0.275	0.474	-40.11	-35.84	-1.75
55468	0.163	-0.342	0.497	-77.7	-16.94	-6.3
55487	0.112	-0.469	0.46	-71.47	-12.39	-5.25
55506	0.033	-0.518	0.396	-39.2	-14.56	0.56
55528	0.088	-0.342	0.33	-28.63	-11.9	10.99
55552	0.112	-0.203	0.254	-56.49	-7.21	12.04
55568	0.077	-0.172	0.303	-95.48	-10.22	6.23
55592	0.083	-0.325	0.346	-110.04	-12.88	7.7
55611	0.081	-0.438	0.346	-80.78	-16.17	17.85
55635	0.077	-0.395	0.315	-52.92	-19.25	29.89
55655	0.11	-0.254	0.23	-71.61	-20.02	33.53
55675	0.185	-0.163	0.141	-112.35	-11.27	32.13
55695	0.118	-0.265	0.163	-149.17	-10.36	28.63
55715	0.062	-0.498	0.183	-148.19	-18.41	32.48
55739	0.074	-0.597	0.228	-118.02	-22.96	41.58
55759	0.087	-0.603	0.291	-103.53	-24.29	46.06
55778	0.057	-0.633	0.372	-106.12	-28.63	44.94
55803	0.116	-0.702	0.388	-103.46	-33.74	45.64
55820	0.196	-0.765	0.339	-100.73	-33.46	46.13
55840	0.224	-0.914	0.264	-97.51	-32.13	44.73
55864	0.173	-1.149	0.378	-95.55	-32.41	40.18
55884	0.185	-1.333	0.425	-98.91	-33.25	33.81
55904	0.29	-1.516	0.437	-88.06	-24.71	28.35
55924	0.273	-1.591	0.402	-51.1	-12.88	20.93
55944	0.278	-1.491	0.414	-22.75	-1.68	8.75
55968	0.244	-1.373	0.437	-2.17	7.56	-8.19
55988	0.22	-1.253	0.468	19.95	13.37	-18.76
56007	0.223	-1.187	0.44	36.12	16.66	-24.01
56031	0.224	-1.141	0.375	63.0	19.46	-23.87
56051	0.185	-1.066	0.343	78.26	16.38	-24.85
56071	0.174	-0.974	0.345	77.42	14.84	-30.03
56090	0.144	-0.928	0.328	68.11	13.93	-35.91
56110	0.095	-0.947	0.296	63.14	11.55	-40.18
