Millis	AccelX	AccelY	AccelZ	GyroX	GyroY	GyroZ
0	-1.006	-0.089	0.021	0.84	-3.01	-3.22
20	-1.005	-0.088	0.02	1.19	-2.94	-3.15
39	-1.005	-0.08	0.023	-0.63	-3.29	-3.08
64	-1.004	-0.099	0.027	0.28	-3.22	-3.08
84	-1.001	-0.094	0.024	1.05	-3.29	-2.94
102	-1.001	-0.087	0.028	0.98	-3.29	-2.87
125	-1.01	-0.088	0.025	-0.84	-3.29	-3.01
149	-1.005	-0.102	0.028	0.35	-3.29	-2.52
169	-1.0	-0.097	0.025	0.7	-2.8	-2.17
187	-1.006	-0.081	0.027	0.35	-2.87	-2.45
207	-0.999	-0.085	0.022	-0.49	-2.73	-2.52
227	-1.004	-0.102	0.02	0.77	-3.08	-2.31
249	-1.002	-0.096	0.026	0.21	-3.29	-2.24
269	-1.001	-0.096	0.032	0.49	-3.22	-2.03
293	-0.997	-0.087	0.032	-0.14	-2.66	-2.1
313	-1.001	-0.1	0.026	0.56	-2.59	-1.82
331	-0.999	-0.093	0.02	0.7	-2.73	-1.68
349	-1.001	-0.092	0.023	0.91	-3.57	-2.03
368	-1.003	-0.084	0.026	-0.28	-3.85	-2.17
393	-0.997	-0.104	0.028	1.12	-3.78	-1.96
413	-1.004	-0.092	0.027	0.56	-3.78	-1.75
431	-1.003	-0.096	0.031	0.49	-3.71	-1.68
451	-1.001	-0.088	0.028	0.07	-3.57	-1.61
471	-1.003	-0.1	0.033	0.35	-3.64	-1.61
490	-1.0	-0.092	0.031	1.12	-3.36	-1.33
515	-1.003	-0.084	0.027	0.35	-3.5	-1.89
535	-0.999	-0.102	0.03	1.4	-3.57	-1.96
554	-1.001	-0.089	0.032	1.05	-3.43	-1.75
573	-1.004	-0.081	0.027	0.0	-3.99	-1.96
593	-1.001	-0.1	0.028	-0.07	-3.92	-2.03
617	-1.0	-0.096	0.03	1.33	-4.13	-1.89
636	-1.006	-0.093	0.032	0.28	-4.13	-1.75
660	-1.0	-0.094	0.029	0.91	-3.99	-1.82
681	-1.002	-0.095	0.034	-0.14	-4.06	-1.89
701	-0.996	-0.103	0.038	0.77	-3.43	-1.61
724	-1.005	-0.094	0.037	0.42	-3.43	-1.75
748	-1.002	-0.092	0.033	0.98	-3.43	-1.68
768	-1.004	-0.088	0.031	0.42	-3.78	-1.89
788	-0.998	-0.098	0.035	0.7	-3.57	-1.89
808	-0.999	-0.094	0.031	1.54	-3.57	-1.47
828	-0.998	-0.097	0.039	0.98	-3.57	-1.4
852	-1.006	-0.089	0.032	-0.07	-3.64	-1.54
872	-1.005	-0.093	0.035	-0.35	-3.92	-1.47
890	-0.999	-0.094	0.039	-0.07	-3.71	-1.26
914	-1.003	-0.098	0.038	-0.7	-3.71	-1.12
934	-1.0	-0.096	0.039	-0.56	-3.5	-1.33
953	-1.0	-0.099	0.041	0.07	-3.08	-1.26
974	-0.999	-0.097	0.037	0.49	-2.59	-1.05
992	-1.001	-0.091	0.042	0.91	-2.52	-0.98
1011	-0.998	-0.088	0.03	0.28	-2.03	-1.33
1036	-1.004	-0.09	0.031	0.42	-3.22	-1.26
1056	-1.002	-0.089	0.043	0.35	-3.5	-1.26
1076	-0.999	-0.103	0.04	0.56	-2.8	-0.77
1096	-1.004	-0.09	0.041	0.84	-2.8	-0.91
1115	-1.002	-0.084	0.039	0.28	-3.01	-1.05
1135	-1.007	-0.092	0.04	-0.14	-3.5	-1.4
1154	-1.0	-0.104	0.04	1.33	-2.94	-0.91
1179	-0.999	-0.083	0.043	0.42	-2.73	-0.77
1199	-1.001	-0.091	0.046	0.49	-2.45	-0.98
1217	-0.999	-0.091	0.036	0.98	-2.1	-1.12
1239	-1.001	-0.095	0.041	1.68	-2.38	-0.98
1259	-0.999	-0.091	0.042	1.12	-2.1	-0.77
1280	-1.005	-0.078	0.035	-0.14	-1.96	-1.26
1303	-0.999	-0.098	0.04	1.12	-1.96	-1.19
1327	-0.998	-0.087	0.042	1.12	-1.68	-0.98
1346	-0.999	-0.097	0.04	0.42	-1.26	-0.77
1367	-0.994	-0.089	0.042	1.33	-0.63	-0.56
1387	-1.008	-0.084	0.033	0.56	-0.91	-1.19
1407	-1.0	-0.095	0.033	1.61	-1.05	-0.91
1425	-1.0	-0.093	0.032	1.33	-0.98	-0.77
1444	-1.0	-0.086	0.035	1.05	-1.4	-0.63
1464	-0.995	-0.083	0.031	0.49	-0.84	-0.91
1488	-1.003	-0.1	0.035	1.61	-0.98	-0.98
1512	-1.005	-0.084	0.03	1.82	-1.4	-0.84
1532	-1.009	-0.086	0.034	0.7	-1.82	-0.91
1550	-1.004	-0.08	0.03	0.49	-2.17	-0.98
1572	-1.008	-0.089	0.019	0.56	-2.59	-1.12
1592	-1.001	-0.092	0.03	1.4	-3.22	-0.98
1612	-1.0	-0.084	0.037	0.84	-2.8	-0.77
1632	-1.003	-0.082	0.03	0.49	-2.38	-0.91
1650	-1.004	-0.09	0.027	1.26	-2.59	-0.98
1671	-1.003	-0.077	0.026	1.05	-2.8	-1.05
1691	-1.012	-0.09	0.027	-0.28	-3.92	-1.33
1711	-1.005	-0.09	0.022	1.05	-3.99	-1.05
1730	-1.012	-0.086	0.027	1.12	-5.46	-0.91
1753	-1.003	-0.078	0.029	0.0	-6.16	-0.91
1775	-1.003	-0.084	0.031	-0.49	-6.44	-0.7
1795	-1.005	-0.08	0.041	-1.05	-6.58	-0.98
1814	-0.999	-0.071	0.042	-0.56	-5.95	-1.4
1839	-1.006	-0.091	0.027	1.12	-6.51	-1.96
1859	-1.0	-0.082	0.04	1.47	-7.35	-1.68
1878	-0.993	-0.082	0.051	-0.28	-6.72	-1.68
1899	-1.0	-0.088	0.05	1.26	-5.53	-2.17
1919	-1.003	-0.086	0.049	2.38	-4.48	-2.31
1939	-0.993	-0.086	0.054	2.24	-3.43	-2.1
1957	-1.006	-0.075	0.046	1.47	-3.57	-1.82
1980	-1.003	-0.075	0.044	0.21	-4.06	-2.31
2001	-1.001	-0.095	0.043	1.47	-3.64	-2.52
2021	-1.004	-0.09	0.046	2.94	-3.57	-2.45
2041	-0.998	-0.083	0.054	2.03	-3.15	-2.24
2056	-0.997	-0.085	0.05	1.26	-2.52	-2.03
2077	-1.003	-0.073	0.046	0.35	-2.45	-2.24
2100	-1.001	-0.084	0.055	0.14	-2.52	-2.59
2121	-1.0	-0.103	0.031	1.82	-2.38	-2.03
2141	-1.001	-0.085	0.045	2.1	-2.66	-1.47
2161	-0.998	-0.085	0.056	0.07	-2.8	-0.98
2182	-0.997	-0.086	0.056	-0.7	-1.47	-0.7
2203	-0.996	-0.093	0.042	0.14	-0.7	-0.49
2223	-1.019	-0.072	0.032	0.98	-1.68	-0.91
2243	-1.01	-0.09	0.032	0.49	-2.94	-0.77
2266	-1.002	-0.082	0.045	-0.42	-3.99	-0.49
2290	-0.995	-0.091	0.049	-0.56	-3.36	-0.14
2310	-1.002	-0.082	0.054	0.28	-2.38	-0.42
2329	-1.005	-0.096	0.046	2.66	-1.82	-0.21
2348	-1.004	-0.071	0.045	2.24	-1.96	0.07
2368	-1.001	-0.079	0.051	-1.61	-1.05	0.07
2392	-0.989	-0.09	0.053	-0.21	0.56	0.28
2412	-1.002	-0.092	0.044	1.75	1.12	-0.07
2432	-1.005	-0.072	0.028	0.84	0.77	-0.14
2452	-1.007	-0.072	0.038	-0.21	-0.35	-0.07
2471	-0.998	-0.081	0.047	-1.47	0.07	-0.21
2495	-0.995	-0.085	0.044	-0.28	0.91	-0.21
2515	-0.997	-0.071	0.03	0.49	1.96	-0.28
2534	-1.016	-0.054	0.032	-0.28	1.12	-1.19
2553	-1.01	-0.082	0.02	-0.84	0.28	-1.75
2573	-1.0	-0.09	0.029	1.54	0.14	-1.19
2596	-1.006	-0.076	0.041	0.91	-0.14	-1.26
2617	-1.009	-0.079	0.03	-0.21	0.07	-1.54
2641	-1.008	-0.082	0.029	1.75	0.42	-1.47
2661	-1.009	-0.069	0.019	1.05	-0.84	-1.82
2677	-1.011	-0.062	0.009	-0.21	-1.89	-1.96
2696	-1.008	-0.081	0.016	0.14	-3.78	-2.24
2721	-1.001	-0.085	0.029	0.77	-3.92	-2.03
2736	-1.009	-0.081	0.024	0.98	-3.99	-2.24
2761	-1.002	-0.066	0.029	0.07	-4.55	-2.66
2781	-1.006	-0.08	0.027	0.56	-4.62	-2.94
2801	-1.003	-0.076	0.031	0.35	-4.9	-2.87
2821	-0.996	-0.08	0.036	0.7	-4.41	-3.08
2845	-1.0	-0.075	0.028	1.12	-3.36	-3.57
2869	-1.002	-0.086	0.036	2.24	-3.22	-3.57
2889	-0.995	-0.09	0.047	2.31	-2.24	-3.36
2909	-1.001	-0.08	0.046	2.52	-0.7	-3.08
2930	-1.0	-0.091	0.043	3.08	0.49	-2.73
2953	-0.991	-0.087	0.024	2.73	1.12	-2.94
2977	-1.009	-0.083	0.018	3.85	0.28	-2.87
2997	-1.009	-0.076	0.041	2.1	0.0	-2.52
3017	-0.979	-0.09	0.034	2.1	2.45	-1.96
3035	-1.005	-0.08	0.018	1.4	2.52	-2.17
3054	-1.016	-0.084	0.01	1.89	0.49	-2.38
3079	-1.021	-0.08	-0.002	2.17	-0.91	-2.1
3096	-1.0	-0.077	0.032	-0.21	-2.17	-1.89
3116	-0.976	-0.104	0.031	-0.91	-0.49	-1.47
3141	-1.004	-0.081	0.004	0.91	-0.35	-2.03
3159	-1.03	-0.059	0.011	-1.68	-3.08	-2.38
3179	-1.011	-0.097	0.013	-3.43	-4.13	-1.82
3203	-0.983	-0.098	0.037	-4.06	-3.22	-0.49
3218	-0.99	-0.073	0.023	-5.81	-0.56	-0.63
3243	-1.029	-0.085	0.011	-2.52	-1.82	-1.12
3263	-0.981	-0.111	0.026	0.21	-1.05	-0.91
3282	-0.999	-0.099	0.007	1.54	-0.49	-0.14
3301	-1.01	-0.061	0.007	-0.49	-1.82	-0.21
3321	-1.005	-0.086	0.011	-2.03	-3.22	-1.05
3345	-1.01	-0.091	0.018	0.21	-3.43	-0.84
3365	-0.994	-0.084	0.02	1.33	-3.29	-0.7
3381	-0.997	-0.078	0.017	-0.28	-3.43	-0.84
3403	-1.011	-0.077	0.011	-1.4	-4.55	-1.05
3427	-1.006	-0.077	0.012	-1.26	-5.67	-1.05
3447	-1.016	-0.074	0.024	-2.94	-6.51	-1.4
3462	-1.017	-0.063	0.012	-5.67	-7.63	-1.89
3487	-0.995	-0.142	0.01	-2.59	-9.17	-1.54
3506	-1.028	-0.05	0.013	4.34	-11.34	-2.24
3525	-1.008	-0.082	0.017	-1.12	-12.18	-2.87
3546	-1.017	-0.071	0.029	-1.33	-13.93	-3.08
3566	-0.988	-0.103	0.062	0.49	-11.97	-2.73
3590	-0.984	-0.116	0.047	7.63	-8.82	-2.31
3609	-0.992	-0.052	0.055	7.0	-7.98	-2.24
3628	-1.003	-0.073	0.061	0.35	-7.84	-2.31
3648	-0.992	-0.108	0.049	0.7	-6.09	-1.33
3668	-0.996	-0.081	0.056	1.4	-5.46	-0.7
3687	-0.996	-0.087	0.064	-0.28	-4.69	-0.84
3712	-1.002	-0.086	0.042	1.68	-3.22	-0.77
3732	-1.006	-0.074	0.049	2.59	-3.64	-1.19
3756	-0.998	-0.072	0.043	2.38	-2.94	-2.1
3775	-1.01	-0.09	0.039	4.76	-4.34	-2.17
3795	-1.005	-0.068	0.041	2.94	-4.76	-2.24
3814	-0.999	-0.082	0.058	1.47	-5.18	-1.75
3834	-1.011	-0.09	0.041	0.56	-4.9	-1.26
3852	-1.001	-0.076	0.062	0.56	-4.55	-1.33
3876	-1.009	-0.079	0.048	-0.84	-4.62	-1.33
3896	-1.003	-0.07	0.051	-3.15	-4.41	-1.54
3916	-1.0	-0.096	0.064	-1.54	-3.92	-1.4
3936	-1.0	-0.086	0.06	0.49	-2.66	-1.33
3954	-1.002	-0.087	0.056	1.26	-2.45	-1.05
3974	-0.999	-0.073	0.056	0.21	-2.1	-1.33
3994	-0.999	-0.071	0.053	0.49	-1.96	-1.47
4014	-1.009	-0.086	0.048	-0.35	-2.52	-1.89
4038	-0.996	-0.09	0.052	1.26	-2.66	-1.54
4058	-0.999	-0.077	0.057	-0.35	-2.38	-1.26
4077	-0.996	-0.078	0.057	-2.1	-1.68	-1.19
4098	-1.001	-0.083	0.054	-0.91	-1.47	-1.47
4121	-0.997	-0.081	0.053	0.0	-0.84	-1.75
4142	-1.004	-0.085	0.049	1.12	-1.05	-1.68
4161	-1.007	-0.078	0.049	0.21	-1.19	-1.75
4181	-0.999	-0.086	0.059	-0.07	-0.91	-1.82
4204	-1.003	-0.084	0.055	0.35	-0.28	-1.82
4224	-1.008	-0.081	0.05	0.07	0.07	-2.1
4243	-1.002	-0.081	0.044	1.33	-0.07	-2.17
4268	-1.017	-0.076	0.035	-0.14	-1.82	-2.17
4284	-1.001	-0.09	0.036	-0.7	-2.24	-1.75
4304	-1.0	-0.086	0.047	0.07	-2.31	-1.4
4328	-1.009	-0.075	0.041	-0.28	-2.87	-1.75
4345	-1.008	-0.073	0.044	-0.63	-3.08	-2.1
4364	-1.002	-0.093	0.036	0.77	-3.5	-2.24
4389	-1.004	-0.081	0.041	0.56	-4.55	-1.89
4409	-1.005	-0.075	0.048	-0.49	-4.9	-1.75
4428	-0.999	-0.08	0.056	-0.35	-4.55	-2.17
4448	-0.997	-0.086	0.057	17.85	-3.43	-2.17
4469	-0.999	-0.077	0.052	0.7	-2.38	-2.03
4489	-0.997	-0.071	0.062	0.42	-1.96	-2.17
4510	-1.01	-0.1	0.038	0.49	-1.61	-2.1
4528	-0.993	-0.092	0.053	2.73	-0.77	-1.68
4553	-1.002	-0.071	0.045	1.33	-1.19	-1.89
4573	-1.0	-0.092	0.044	1.89	-1.61	-1.75
4597	-1.001	-0.085	0.044	2.8	-1.26	-1.4
4616	-0.996	-0.074	0.056	1.47	-0.98	-1.33
4640	-1.012	-0.09	0.044	0.49	-0.7	-1.05
4658	-0.999	-0.088	0.05	0.98	-0.21	-0.77
4678	-1.003	-0.09	0.044	0.98	-0.07	-0.56
4698	-1.006	-0.08	0.039	1.26	-0.49	-0.07
4717	-1.004	-0.086	0.04	0.56	-1.33	0.0
4740	-1.007	-0.084	0.04	1.47	-1.96	0.07
4764	-1.017	-0.066	0.023	0.56	-3.15	-0.42
4784	-1.019	-0.086	0.027	0.63	-5.11	-0.28
4808	-0.997	-0.077	0.042	-0.14	-5.6	-0.14
4823	-0.997	-0.078	0.044	-0.98	-5.25	-0.35
4848	-1.011	-0.077	0.039	17.5	-5.39	-0.91
4868	-0.998	-0.076	0.049	0.91	-4.48	-1.19
4885	-0.996	-0.081	0.058	1.89	-3.92	-0.91
4905	-1.003	-0.072	0.065	-0.49	-3.08	-0.56
4929	-0.995	-0.069	0.065	-2.03	-0.56	-0.77
4947	-1.001	-0.092	0.041	0.63	1.05	-1.12
4971	-1.006	-0.07	0.043	1.26	0.91	-1.26
4991	-0.999	-0.078	0.045	0.42	1.05	-1.12
5011	-1.013	-0.077	0.033	0.21	0.77	-0.91
5030	-0.989	-0.086	0.057	0.28	1.26	-0.84
5055	-0.992	-0.083	0.041	2.24	3.15	-0.77
5073	-1.017	-0.07	0.019	2.87	2.45	-1.19
5092	-1.018	-0.07	0.017	2.94	0.7	-1.4
5117	-1.015	-0.075	0.013	1.75	-1.47	-1.12
5137	-1.004	-0.074	0.021	1.33	-2.03	-1.12
5157	-1.006	-0.069	0.02	1.54	-3.29	-1.89
5176	-1.005	-0.08	0.023	2.59	-4.13	-1.89
5197	-1.01	-0.068	0.029	1.19	-4.97	-1.54
5213	-1.011	-0.073	0.035	-0.56	-5.74	-1.54
5237	-0.996	-0.085	0.04	-0.14	-4.97	-1.4
5256	-1.006	-0.07	0.042	0.42	-4.48	-1.68
5276	-0.998	-0.081	0.043	1.4	-3.78	-1.82
5296	-1.001	-0.069	0.038	1.47	-3.22	-1.54
5317	-1.124	-0.063	0.039	0.91	-3.36	-2.17
5337	-1.001	-0.079	0.038	1.61	-3.22	-2.59
5361	-1.004	-0.08	0.03	4.13	-2.66	-3.01
5381	-1.007	-0.067	0.043	4.83	-3.01	-3.5
5399	-1.012	-0.074	0.039	2.73	-3.71	-3.64
5421	-0.991	-0.1	0.043	6.37	-2.59	-3.36
5444	-0.997	-0.085	0.045	8.05	-1.61	-2.87
5464	-1.01	-0.083	0.042	7.49	-2.31	-2.31
5484	-1.008	-0.077	0.045	7.0	-3.01	-1.82
5504	-0.994	-0.089	0.032	6.02	-2.1	-2.38
5528	-1.008	-0.091	0.032	7.14	-2.45	-2.52
5548	-1.005	-0.078	0.024	7.63	-3.64	-2.17
5567	-1.011	-0.056	0.033	3.5	-4.97	-2.24
5591	-1.016	-0.07	0.042	-2.66	-6.02	-2.1
5610	-1.0	-0.095	0.032	-0.77	-5.25	-1.61
5629	-1.003	-0.076	0.038	0.28	-5.11	-0.84
5653	-1.011	-0.071	0.036	-2.94	-6.44	-0.7
5671	-1.001	-0.061	0.043	-5.25	-6.44	-0.42
5693	-0.993	-0.067	0.046	-6.37	-7.14	-0.98
5713	-1.012	-0.082	0.037	-4.97	-7.14	-1.47
5730	-1.003	-0.08	0.041	-2.8	-6.79	-1.47
5749	-1.004	-0.067	0.053	-3.36	-6.86	-1.33
5774	-0.993	-0.075	0.055	-6.16	-5.95	-1.47
5794	-0.992	-0.084	0.064	-5.6	-4.34	-1.4
5812	-0.996	-0.086	0.057	-3.99	-4.2	-1.05
5836	-0.999	-0.078	0.06	-2.17	-3.92	-1.75
5853	-1.013	-0.066	0.049	-2.1	-4.13	-2.31
5873	-1.008	-0.078	0.042	-1.4	-4.41	-2.38
5897	-1.007	-0.069	0.054	-2.73	-6.02	-1.89
5917	-1.004	-0.071	0.058	-5.6	-5.67	-2.03
5932	-1.001	-0.086	0.058	-4.27	-5.18	-2.38
5956	-1.005	-0.097	0.062	-1.05	-5.6	-2.94
5977	-0.875	-0.066	0.061	-1.33	-5.11	-3.29
5997	-0.998	-0.074	0.06	-3.99	-4.48	-3.71
6016	-0.992	-0.141	0.061	0.91	-5.53	-3.08
6036	-1.03	-0.057	0.049	7.28	-4.9	-3.08
6060	-1.005	-0.086	0.055	0.21	-5.32	-3.99
6079	-0.996	-0.094	0.061	0.84	-4.97	-2.94
6095	-0.997	-0.082	0.076	0.56	-3.85	-2.31
6120	-0.993	-0.115	0.065	3.99	-2.17	-2.17
6140	-0.999	-0.08	0.061	5.25	-2.1	-1.68
6155	-1.01	-0.05	0.061	-0.77	-3.15	-2.17
6180	-0.996	-0.099	0.066	-1.89	-3.08	-1.75
6199	-0.994	-0.102	0.061	0.91	-1.96	-1.33
6218	-0.996	-0.083	0.066	1.75	-1.54	-1.47
6239	-0.995	-0.073	0.066	1.47	-1.12	-1.82
6263	-1.01	-0.086	0.053	1.33	-2.03	-2.45
6287	-1.004	-0.084	0.057	1.68	-2.17	-2.52
6303	-1.0	-0.086	0.058	0.91	-2.38	-2.45
6326	-1.003	-0.086	0.06	0.49	-2.45	-2.24
6348	-1.001	-0.085	0.071	0.35	-2.38	-2.03
6367	-0.998	-0.084	0.064	-0.07	-2.17	-2.38
6387	-0.987	-0.1	0.068	1.4	-0.7	-1.61
6405	-0.994	-0.09	0.068	0.56	-0.56	-1.47
6422	-1.001	-0.081	0.061	0.14	-0.35	-1.26
6442	-1.007	-0.086	0.053	-0.14	-0.49	-1.89
6462	-1.0	-0.094	0.055	1.96	-0.49	-1.68
6487	-0.996	-0.081	0.061	2.03	-0.28	-1.82
6507	-1.005	-0.081	0.054	1.33	-0.63	-1.89
6525	-1.004	-0.083	0.055	0.07	-0.49	-2.03
6543	-0.996	-0.083	0.057	-0.14	0.21	-1.89
6566	-1.0	-0.096	0.059	0.56	0.7	-2.24
6590	-1.004	-0.079	0.046	1.96	0.7	-2.52
6609	-1.013	-0.083	0.039	1.19	-0.63	-2.45
6629	-1.006	-0.084	0.039	-0.84	-1.61	-2.03
6653	-1.005	-0.079	0.048	-1.68	-2.52	-1.96
6668	-0.997	-0.102	0.047	-0.77	-2.59	-1.75
6693	-1.009	-0.087	0.043	-0.56	-2.66	-1.4
6713	-1.0	-0.091	0.041	-0.7	-3.57	-0.98
6732	-1.002	-0.084	0.04	-1.61	-4.69	-1.05
6751	-1.005	-0.083	0.043	-1.61	-5.67	-1.33
6770	-1.008	-0.093	0.041	-0.77	-6.16	-1.54
6794	-0.996	-0.081	0.064	0.0	-5.81	-1.4
6813	-0.996	-0.08	0.059	-0.56	-4.55	-1.82
6833	-0.991	-0.099	0.056	2.31	-3.5	-2.1
6852	-0.992	-0.081	0.06	2.17	-2.31	-2.03
6877	-0.998	-0.08	0.06	0.63	-2.24	-2.31
6897	-0.994	-0.089	0.062	1.47	-0.49	-2.31
6918	-0.994	-0.095	0.059	3.15	0.63	-2.38
6937	-1.0	-0.096	0.051	4.27	1.33	-1.82
6957	-0.997	-0.08	0.065	3.22	2.45	-1.68
6976	-0.999	-0.094	0.043	1.54	2.38	-1.89
6994	-1.016	-0.095	0.037	4.62	1.12	-1.68
7013	-1.009	-0.074	0.036	3.29	-0.21	-2.38
7038	-1.007	-0.094	0.038	2.59	-0.91	-1.82
7058	-0.996	-0.089	0.043	2.03	-1.33	-0.84
7076	-0.989	-0.081	0.052	0.14	-0.35	-0.35
7098	-1.0	-0.099	0.041	-0.91	0.14	-0.56
7117	-1.006	-0.096	0.036	1.33	-0.49	-0.28
7137	-1.01	-0.067	0.029	0.35	-1.61	-0.7
7161	-1.012	-0.075	0.029	-1.33	-3.78	-1.47
7178	-1.004	-0.113	0.033	0.56	-4.34	-1.4
7197	-1.006	-0.091	0.046	3.78	-4.55	-0.7
7217	-1.004	-0.06	0.048	1.54	-4.48	-1.26
7239	-0.999	-0.086	0.049	-0.91	-3.78	-1.75
7258	-0.988	-0.1	0.06	-0.28	-2.45	-1.61
7283	-0.998	-0.086	0.061	1.12	0.21	-1.54
7301	-1.028	-0.07	0.038	2.17	-0.14	-1.54
7322	-1.012	-0.082	0.04	-0.35	-0.84	-2.31
7346	-0.984	-0.101	0.047	0.49	0.63	-1.82
7366	-1.007	-0.085	0.039	2.31	0.77	-1.75
7386	-1.008	-0.076	0.032	0.49	0.28	-2.1
7409	-0.997	-0.099	0.035	1.19	0.0	-1.89
7426	-1.002	-0.089	0.036	2.66	0.28	-1.33
7450	-1.004	-0.071	0.045	1.33	0.07	-2.1
7470	-1.012	-0.098	0.03	-0.21	-0.7	-2.38
7489	-1.003	-0.099	0.027	4.06	-0.77	-1.82
7513	-1.0	-0.078	0.028	2.31	-1.4	-1.75
7533	-1.013	-0.07	0.025	-0.42	-3.15	-1.68
7551	-1.003	-0.097	0.024	0.28	-3.36	-1.33
7573	-1.004	-0.093	0.033	1.33	-3.64	-1.19
7593	-1.001	-0.086	0.037	1.61	-3.22	-1.12
7617	-1.005	-0.08	0.034	1.26	-3.57	-1.19
7638	-0.996	-0.091	0.041	2.17	-2.94	-1.47
7657	-1.0	-0.088	0.03	2.52	-2.24	-1.4
7677	-1.007	-0.092	0.027	3.85	-3.08	-1.54
7696	-1.011	-0.065	0.033	2.17	-3.36	-2.38
7717	-1.003	-0.091	0.033	2.73	-3.78	-2.8
7741	-0.994	-0.079	0.039	3.43	-3.08	-2.94
7761	-0.998	-0.087	0.037	3.29	-2.52	-2.66
7778	-1.004	-0.08	0.035	1.96	-2.73	-2.24
7801	-1.005	-0.086	0.036	-0.7	-3.01	-2.17
7821	-1.001	-0.095	0.033	0.42	-2.52	-1.61
7845	-1.013	-0.078	0.024	-0.98	-3.99	-1.82
7865	-1.012	-0.081	0.03	-3.36	-5.32	-1.54
7885	-1.007	-0.104	0.027	-3.29	-6.3	-0.77
7905	-1.007	-0.085	0.028	-3.57	-6.93	0.14
7926	-1.008	-0.074	0.041	-6.3	-7.42	0.49
7945	-0.999	-0.102	0.052	-7.28	-6.58	0.35
7963	-0.986	-0.119	0.055	-2.45	-5.11	0.35
7987	-1.01	-0.051	0.054	-1.4	-4.2	-0.07
8007	-1.023	-0.071	0.039	-7.14	-5.25	-0.91
8026	-0.988	-0.114	0.045	-4.2	-4.48	-0.35
8049	-1.005	-0.073	0.045	-2.45	-3.85	-0.21
8070	-1.004	-0.068	0.042	-6.16	-3.99	-1.12
8090	-1.0	-0.095	0.04	-1.68	-3.64	-1.33
8109	-1.012	-0.092	0.038	0.0	-4.41	-1.75
8129	-1.001	-0.074	0.042	0.0	-4.48	-1.89
8150	-1.003	-0.059	0.049	-4.27	-5.18	-2.52
8170	-1.01	-0.122	0.046	-6.37	-6.44	-2.17
8189	-1.001	-0.12	0.055	9.8	-2.17	-0.91
8214	-0.999	-0.057	0.045	4.06	-2.8	-1.54
8230	-1.016	-0.064	0.041	0.98	-3.5	-1.19
8250	-0.991	-0.069	0.049	-0.49	-4.62	-1.54
8271	-1.017	-0.113	0.032	5.04	-5.11	-2.38
8295	-1.008	-0.088	0.051	8.47	-5.53	-1.75
8315	-0.996	-0.047	0.066	1.68	-4.76	-2.24
8334	-0.995	-0.102	0.053	1.89	-4.2	-1.4
8355	-1.001	-0.067	0.053	2.1	-3.85	-1.26
8374	-1.001	-0.083	0.065	0.28	-4.55	-1.82
8398	-1.003	-0.106	0.052	3.08	-3.36	-1.47
8417	-0.997	-0.084	0.054	4.48	-3.5	-1.12
8439	-0.999	-0.066	0.053	2.59	-3.36	-1.05
8463	-1.004	-0.074	0.051	0.49	-4.13	-1.54
8483	-1.003	-0.082	0.05	1.05	-4.48	-2.1
8503	-1.0	-0.088	0.054	2.1	-4.13	-2.17
8518	-0.999	-0.085	0.06	3.15	-3.5	-1.75
8542	-0.995	-0.075	0.068	0.84	-3.15	-1.26
8561	-0.997	-0.094	0.064	1.82	-1.96	-0.77
8581	-0.994	-0.08	0.058	2.03	-1.68	-0.63
8602	-1.011	-0.074	0.06	0.56	-2.52	-1.05
8624	-1.0	-0.105	0.061	-0.7	-2.8	-1.19
8648	-0.992	-0.088	0.061	4.41	-1.26	-0.56
8667	-1.008	-0.068	0.05	3.71	-1.26	-1.26
8687	-1.011	-0.069	0.074	-1.19	-1.89	-2.59
8708	-1.0	-0.091	0.051	-0.14	-1.61	-2.87
8727	-1.008	-0.073	0.047	-0.35	-1.47	-2.94
8751	-1.006	-0.075	0.049	-0.42	-1.61	-2.8
8772	-1.001	-0.082	0.05	0.0	-1.82	-2.24
8793	-1.01	-0.077	0.045	-0.56	-1.89	-1.96
8812	-1.003	-0.084	0.046	-0.35	-2.8	-1.96
8829	-1.005	-0.072	0.051	-0.42	-3.01	-2.31
8849	-1.011	-0.081	0.039	-0.42	-3.71	-3.08
8868	-1.004	-0.098	0.044	3.57	-3.99	-2.66
8890	-1.004	-0.07	0.047	2.8	-5.04	-2.8
8910	-1.01	-0.075	0.044	0.28	-6.23	-2.73
8934	-1.003	-0.091	0.048	-0.84	-7.14	-2.8
8953	-1.004	-0.09	0.053	0.49	-7.7	-2.8
8973	-1.006	-0.085	0.053	-0.07	-8.61	-2.8
8994	-1.006	-0.087	0.058	0.35	-8.96	-2.45
9018	-0.997	-0.077	0.07	-0.42	-8.75	-2.24
9042	-0.992	-0.081	0.079	-2.31	-7.35	-2.73
9062	-0.992	-0.098	0.078	-0.49	-5.81	-2.24
9077	-1.0	-0.093	0.089	-0.28	-5.32	-2.45
9098	-0.983	-0.099	0.093	0.14	-2.8	-1.82
9122	-0.99	-0.094	0.076	1.19	-1.05	-1.47
9140	-0.999	-0.092	0.068	1.12	-0.63	-1.26
9164	-0.996	-0.081	0.072	0.77	-0.28	-1.4
9181	-1.004	-0.082	0.065	-0.56	-0.28	-1.68
9205	-1.002	-0.09	0.06	-0.84	-0.98	-1.61
9225	-0.996	-0.086	0.065	-0.35	-0.91	-1.33
9245	-0.998	-0.084	0.076	-0.84	-1.12	-1.4
9261	-0.995	-0.083	0.074	-0.49	-0.07	-1.47
9284	-1.003	-0.095	0.055	0.63	-0.14	-1.61
9302	-1.005	-0.079	0.059	1.05	-0.91	-1.61
9322	-0.997	-0.078	0.064	-1.96	-1.47	-1.75
9342	-0.994	-0.102	0.06	-2.38	-1.19	-1.4
9365	-1.002	-0.084	0.059	0.28	-0.84	-1.47
9385	-1.012	-0.077	0.055	-0.56	-1.54	-1.96
9405	-1.005	-0.087	0.055	-0.63	-2.03	-2.03
9425	-0.998	-0.083	0.06	-0.77	-1.75	-1.61
9446	-0.994	-0.082	0.064	-0.84	-1.4	-1.82
9470	-1.006	-0.092	0.052	-0.98	-1.05	-1.82
9489	-1.01	-0.09	0.063	-0.28	-2.1	-1.96
9510	-0.989	-0.084	0.061	-1.12	-0.35	-1.82
9530	-0.995	-0.091	0.063	-0.56	-0.21	-2.03
9548	-0.996	-0.098	0.056	1.19	0.56	-2.17
9571	-1.01	-0.081	0.052	1.61	0.0	-2.03
9592	-1.001	-0.089	0.057	0.77	-0.35	-2.31
9612	-1.005	-0.099	0.054	2.17	-0.14	-2.52
9632	-1.004	-0.092	0.056	3.78	0.07	-2.52
9651	-1.0	-0.094	0.053	3.71	0.21	-2.31
9668	-1.0	-0.091	0.049	3.29	0.28	-1.96
9687	-1.002	-0.079	0.042	1.47	0.0	-2.03
9707	-1.001	-0.091	0.039	2.24	-0.98	-1.89
9728	-1.007	-0.092	0.039	2.31	-2.1	-1.68
9752	-1.002	-0.09	0.048	1.68	-2.94	-1.61
9769	-1.004	-0.089	0.044	1.05	-2.66	-1.68
9793	-1.004	-0.089	0.047	2.1	-2.8	-1.75
9813	-1.001	-0.093	0.05	2.38	-2.59	-1.75
9833	-0.994	-0.087	0.058	2.94	-1.75	-1.47
9853	-0.999	-0.084	0.05	0.49	-1.4	-1.96
9873	-1.003	-0.098	0.045	1.96	-1.12	-1.89
9897	-0.998	-0.089	0.056	3.22	-0.91	-1.96
9916	-1.004	-0.088	0.042	2.52	-0.7	-1.75
9937	-0.998	-0.087	0.044	1.4	-1.4	-1.68
9957	-1.0	-0.081	0.041	-0.35	-1.68	-1.47
9976	-1.017	-0.08	0.032	-1.68	-3.01	-1.68
9997	-0.998	-0.093	0.049	-1.33	-3.15	-1.82
10021	-0.995	-0.109	0.046	-0.21	-2.73	-1.12
10036	-1.005	-0.079	0.041	-0.77	-3.01	-0.63
10061	-1.013	-0.066	0.035	-5.11	-5.32	-1.33
10080	-1.007	-0.093	0.046	-4.62	-5.74	-1.4
10101	-0.992	-0.105	0.056	-1.12	-5.11	-0.77
10121	-0.992	-0.078	0.05	-0.98	-4.55	-0.7
10141	-1.009	-0.08	0.051	-2.73	-5.04	-0.63
10161	-0.987	-0.098	0.052	-0.98	-4.13	-0.21
10184	-1.004	-0.089	0.042	-1.12	-4.06	-0.21
10203	-1.005	-0.077	0.054	-1.61	-4.27	-0.63
10223	-1.002	-0.096	0.061	-1.05	-3.43	-1.05
10247	-0.998	-0.099	0.071	-0.07	-2.66	-0.84
10267	-1.002	-0.087	0.057	-1.05	-2.31	-1.05
10283	-1.005	-0.069	0.035	-1.4	-2.38	-0.7
10306	-1.006	-0.059	0.047	-3.01	-2.66	-1.19
10327	-1.016	-0.116	0.048	-5.39	-5.39	-1.47
10347	-1.006	-0.107	0.067	8.68	-3.92	-0.21
10364	-0.987	-0.048	0.052	4.69	-5.46	-1.61
10384	-1.007	-0.07	0.044	2.8	-3.57	-2.59
10406	-1.016	-0.069	0.049	3.29	-4.13	-3.29
10426	-1.008	-0.104	0.041	5.67	-4.34	-3.08
10450	-0.998	-0.097	0.054	9.17	-4.2	-2.17
10470	-0.997	-0.061	0.061	2.8	-3.57	-2.1
10486	-0.99	-0.102	0.054	1.05	-4.06	-1.82
10510	-1.009	-0.115	0.045	4.97	-4.13	-1.33
10529	-1.01	-0.073	0.055	4.27	-3.78	-1.33
10550	-1.0	-0.082	0.058	1.05	-2.45	-1.82
10570	-1.007	-0.086	0.052	1.61	-2.87	-2.17
10594	-1.003	-0.093	0.051	2.66	-2.8	-2.1
10609	-1.005	-0.079	0.049	2.87	-3.5	-1.89
10633	-1.007	-0.076	0.05	0.07	-3.64	-1.82
10651	-1.003	-0.088	0.05	0.91	-3.85	-1.68
10670	-1.013	-0.087	0.052	0.98	-4.83	-1.75
10690	-1.001	-0.086	0.06	1.05	-5.18	-1.47
10715	-1.003	-0.071	0.053	-0.42	-4.62	-1.4
10731	-1.009	-0.081	0.05	-1.12	-4.97	-1.19
10754	-1.0	-0.088	0.063	-1.19	-5.11	-1.05
10772	-0.994	-0.088	0.068	-2.52	-4.55	-1.26
10791	-1.006	-0.098	0.059	-1.82	-3.99	-1.61
10811	-1.005	-0.087	0.06	0.7	-4.06	-1.05
10831	-1.005	-0.072	0.057	-1.47	-3.71	-1.47
10856	-1.001	-0.084	0.06	-2.24	-3.71	-1.4
10876	-1.002	-0.095	0.059	-1.89	-3.85	-0.63
10896	-0.997	-0.081	0.061	0.21	-3.85	0.07
10916	-1.01	-0.068	0.066	-1.89	-5.32	-0.56
10940	-1.001	-0.091	0.062	-2.59	-6.16	-1.33
10960	-0.996	-0.086	0.069	1.05	-6.23	-1.82
10978	-1.006	-0.079	0.056	1.54	-6.23	-2.73
10998	-1.011	-0.09	0.066	1.61	-7.14	-2.73
11017	-0.993	-0.089	0.082	1.12	-5.95	-2.52
11040	-0.986	-0.082	0.088	-0.42	-3.99	-2.45
11057	-1.007	-0.085	0.081	-1.33	-3.36	-2.52
11082	-0.991	-0.102	0.082	1.12	-2.03	-2.45
11097	-0.996	-0.095	0.082	2.8	-0.63	-2.24
11120	-0.991	-0.083	0.077	1.4	1.12	-2.24
11142	-0.996	-0.087	0.07	1.47	1.54	-2.24
11162	-1.006	-0.095	0.06	2.03	1.26	-1.68
11182	-0.998	-0.091	0.065	2.31	1.05	-1.26
11205	-1.003	-0.079	0.062	1.12	1.19	-0.56
11226	-1.011	-0.087	0.059	0.0	0.49	-0.84
11242	-0.999	-0.105	0.061	1.68	0.98	-0.98
11266	-1.005	-0.067	0.051	1.75	0.35	-0.56
11285	-1.011	-0.086	0.067	0.14	-0.91	-0.63
11303	-0.993	-0.096	0.064	0.56	0.98	-0.21
11323	-1.007	-0.091	0.053	2.52	0.91	-0.35
11344	-1.008	-0.055	0.05	1.54	-0.14	-1.33
11368	-1.014	-0.098	0.053	2.45	-0.98	-1.68
11389	-0.969	-0.084	0.072	2.8	1.89	-1.05
11408	-0.998	-0.065	0.06	-2.31	2.59	-1.26
11432	-1.02	-0.067	0.04	-2.94	2.24	-2.66
11452	-1.013	-0.097	0.034	0.7	1.89	-2.59
11467	-1.003	-0.102	0.04	4.27	1.05	-2.03
11492	-1.0	-0.088	0.059	2.17	-0.91	-2.24
11511	-1.005	-0.085	0.085	-3.43	-0.63	-2.1
11534	-0.963	-0.12	0.039	-3.71	1.54	-2.87
11555	-0.99	-0.081	0.059	6.16	7.49	-2.45
11575	-1.0	-0.074	0.065	2.87	9.52	-2.31
11591	-0.962	-0.127	0.026	0.63	10.43	-2.31
11611	-0.999	-0.125	0.014	9.38	11.83	-0.35
11635	-1.027	-0.09	-0.002	13.86	10.85	-0.35
11654	-1.023	-0.062	-0.012	12.18	10.36	-0.21
11675	-1.012	-0.076	0.005	9.87	8.4	-0.42
11693	-1.013	-0.071	-0.015	7.0	6.65	-0.77
11717	-1.019	-0.054	-0.013	3.43	4.62	-1.19
11734	-1.008	-0.084	-0.006	2.59	2.8	-1.12
11758	-1.007	-0.092	-0.004	5.39	0.42	-0.84
11776	-1.007	-0.083	-0.009	4.48	-0.56	-0.56
11796	-1.013	-0.084	-0.017	4.06	-1.68	-0.28
11816	-1.014	-0.078	-0.005	4.62	-2.8	-0.14
11840	-1.009	-0.064	-0.005	2.66	-3.78	-0.84
11859	-1.005	-0.071	0.007	2.24	-4.69	-1.47
11883	-1.006	-0.076	0.008	1.26	-4.55	-1.89
11900	-1.005	-0.082	0.012	1.33	-4.48	-1.75
11924	-0.999	-0.074	0.01	1.19	-4.55	-2.03
11944	-1.0	-0.083	0.005	0.56	-4.83	-2.24
11961	-1.004	-0.086	0.006	1.89	-4.97	-2.24
11984	-1.011	-0.068	0.009	2.52	-6.16	-2.52
12008	-0.999	-0.078	0.013	0.56	-7.07	-2.87
12028	-1.0	-0.072	0.014	-1.68	-7.21	-2.8
12047	-1.01	-0.083	0.022	-2.17	-7.0	-2.24
12068	-0.989	-0.067	0.032	-3.01	-6.16	-1.47
12086	-0.988	-0.091	0.038	-5.32	-5.11	-1.33
12110	-0.996	-0.098	0.027	-2.73	-5.25	-0.42
12130	-1.018	-0.076	0.016	-0.98	-6.3	0.07
12149	-1.009	-0.1	-0.014	-3.22	-6.3	17.85
12170	-0.878	-0.077	0.025	-2.24	-7.07	0.28
12190	-0.999	-0.054	0.037	-3.71	-7.28	0.07
12213	-1.002	-0.097	0.021	-2.66	-6.65	-1.12
12234	-1.021	-0.086	0.02	3.15	-8.12	-0.63
12253	-1.023	-0.069	-0.003	1.33	-9.52	0.49
12277	-1.005	-0.097	0.024	0.21	-9.94	1.05
12297	-0.998	-0.058	0.052	-3.57	-8.75	1.19
12317	-0.981	-0.065	0.048	-5.6	-7.63	0.42
12337	-1.006	-0.089	0.024	-6.3	-8.4	-1.33
12361	-0.989	-0.157	0.017	6.02	-8.4	-0.42
12381	-1.024	-0.077	0.019	12.88	-10.5	-0.07
12401	-0.998	0.026	0.041	0.35	-10.85	-2.17
12420	-1.003	-0.041	0.054	-12.04	-13.02	-3.71
12437	-0.981	-0.16	0.058	-6.37	-10.15	-4.2
12461	-0.976	-0.134	0.081	10.01	-6.44	-2.87
12480	-0.998	-0.045	0.067	4.76	-3.99	-2.03
12498	-0.997	-0.068	0.063	0.49	-3.5	-2.17
12518	-0.991	-0.074	0.051	-1.61	-2.8	-1.96
12542	-1.019	-0.094	0.052	-0.21	-5.18	-0.91
12562	-0.993	-0.089	0.061	0.35	-4.13	-0.63
12582	-1.009	-0.073	0.066	-0.21	-2.87	-0.84
12602	-0.995	-0.076	0.062	-0.63	-1.75	-1.47
12622	-0.995	-0.067	0.055	-1.54	-0.91	-1.75
12641	-1.017	-0.086	0.042	-0.28	-2.24	-2.03
12661	-1.004	-0.077	0.048	0.63	-2.66	-2.17
12682	-1.02	-0.075	0.052	-0.42	-4.13	-2.03
12701	-1.009	-0.065	0.057	-1.47	-5.04	-1.75
12725	-0.993	-0.065	0.061	-4.48	-4.34	-1.75
12745	-1.006	-0.082	0.061	-4.13	-4.2	-2.03
12769	-0.998	-0.09	0.059	-1.61	-3.64	-2.03
12789	-0.986	-0.079	0.067	-2.38	-2.03	-2.24
12813	-1.011	-0.072	0.059	-3.22	-1.75	-1.89
12833	-1.001	-0.074	0.053	-3.64	-3.99	-2.73
12857	-1.014	-0.085	0.042	-2.59	-4.41	-2.31
12874	-1.001	-0.094	0.053	-0.42	-5.32	-1.96
12898	-1.004	-0.069	0.054	-2.24	-6.58	-1.68
12918	-1.01	-0.056	0.046	-6.44	-8.68	-1.47
12936	-1.015	-0.091	0.056	-4.9	-9.8	-1.75
12956	-1.002	-0.089	0.06	-1.33	-9.59	-1.61
12976	-1.002	-0.071	0.067	-0.14	-10.43	-2.31
12995	-1.008	-0.081	0.068	-1.12	-10.01	-2.94
13020	-0.987	-0.091	0.081	0.56	-8.61	-2.8
13040	-1.0	-0.07	0.091	-0.28	-7.49	-2.66
13060	-0.996	-0.076	0.092	-2.73	-5.74	-3.01
13075	-0.992	-0.108	0.093	-3.01	-4.62	-3.08
13100	-0.987	-0.097	0.088	0.42	-2.66	-2.03
13120	-0.998	-0.07	0.076	0.56	-2.17	-2.45
13140	-1.01	-0.083	0.065	-1.19	-2.66	-2.87
13160	-0.994	-0.096	0.074	2.03	-2.66	-3.01
13180	-1.004	-0.081	0.066	2.94	-2.38	-3.22
13196	-1.01	-0.069	0.071	2.24	-3.57	-3.78
13220	-1.003	-0.1	0.067	2.31	-4.2	-3.78
13239	-1.01	-0.08	0.076	2.59	-4.34	-3.5
13263	-0.996	-0.065	0.081	0.0	-4.27	-3.64
13283	-1.004	-0.088	0.078	-1.33	-4.13	-3.85
13301	-0.998	-0.09	0.08	-0.7	-3.22	-3.71
13322	-1.004	-0.103	0.075	1.19	-4.41	-3.43
13346	-0.996	-0.091	0.084	0.84	-4.2	-2.87
13366	-0.992	-0.088	0.081	-0.35	-3.99	-2.66
13386	-1.006	-0.094	0.074	-1.26	-4.13	-2.52
13406	-0.986	-0.102	0.089	0.91	-3.92	-2.31
13430	-0.999	-0.08	0.083	-0.98	-2.45	-2.17
13446	-0.998	-0.09	0.081	-1.4	-2.24	-2.03
13466	-0.99	-0.101	0.088	-2.17	-1.19	-1.82
13490	-0.997	-0.104	0.088	-0.63	0.14	-1.33
13510	-0.988	-0.092	0.085	-1.26	1.05	-0.63
13529	-0.999	-0.101	0.074	17.5	1.54	-0.84
13550	-1.008	-0.075	0.071	-0.14	1.61	-1.4
13572	-1.002	-0.099	0.069	0.7	0.7	-1.33
13592	-1.0	-0.083	0.078	0.98	0.49	-0.56
13616	-0.996	-0.096	0.081	-1.54	1.19	0.28
13636	-0.989	-0.088	0.069	-0.56	2.94	0.49
13652	-1.013	-0.084	0.059	-1.19	2.73	0.14
13672	-1.009	-0.1	0.062	-0.35	1.4	-0.42
13695	-0.999	-0.092	0.062	1.68	1.05	-0.21
13716	-0.996	-0.086	0.063	1.12	1.4	0.14
13736	-0.995	-0.087	0.063	0.77	1.33	0.28
13754	-1.002	-0.08	0.054	0.21	1.05	0.07
13775	-1.011	-0.074	0.048	0.63	-0.14	-0.49
13795	-1.012	-0.086	0.047	-0.35	-1.61	-1.19
13819	-1.004	-0.094	0.054	2.45	-1.89	-1.26
13843	-1.001	-0.09	0.061	3.43	-1.96	-1.05
13863	-1.008	-0.075	0.056	2.1	-1.96	-0.56
13887	-1.007	-0.084	0.052	-0.21	-2.59	0.21
13907	-1.004	-0.074	0.058	-2.94	-2.87	0.0
13926	-1.006	-0.091	0.059	-2.8	-3.08	0.35
13946	-0.995	-0.087	0.06	-0.98	-2.31	0.49
13967	-0.996	-0.09	0.06	-0.49	-2.1	0.77
13987	-1.001	-0.081	0.057	-0.28	-1.89	0.7
14007	-1.0	-0.056	0.062	0.28	-1.4	0.21
14030	-1.005	-0.067	0.051	-0.63	-1.47	-0.84
14051	-1.002	-0.089	0.051	0.56	-2.52	-1.19
14068	-1.004	-0.091	0.061	1.05	-2.52	-0.98
14088	-0.996	-0.068	0.062	2.17	-1.61	-1.12
14111	-1.014	-0.07	0.05	0.42	-1.89	-1.61
14131	-0.996	-0.107	0.044	3.29	-2.31	-1.05
14152	-1.005	-0.062	0.046	2.94	-3.01	-1.26
14172	-1.007	-0.066	0.054	0.7	-3.78	-1.89
14193	-1.005	-0.087	0.055	0.14	-4.13	-2.45
14217	-1.003	-0.055	0.057	1.61	-3.92	-2.87
14237	-1.01	-0.095	0.031	-6.23	-6.37	-1.54
14257	-1.01	-0.094	0.048	9.66	-4.13	0.07
14276	-1.006	-0.035	0.061	2.87	-7.35	-1.4
14295	-1.009	-0.055	0.057	-2.52	-7.35	-1.26
14316	-0.993	-0.096	0.07	-2.1	-7.7	-1.54
14336	-1.002	-0.105	0.064	5.11	-5.6	-1.54
14360	-1.008	-0.064	0.059	5.74	-6.37	-0.98
14378	-0.995	-0.056	0.069	0.42	-6.58	-1.33
14398	-0.99	-0.098	0.074	-0.14	-5.67	-0.91
14417	-0.995	-0.096	0.078	2.38	-4.27	-0.07
14439	-0.991	-0.073	0.077	3.29	-2.59	-0.07
14463	-1.004	-0.063	0.065	2.52	-2.38	-1.19
14481	-1.008	-0.077	0.066	2.17	-2.87	-1.4
14504	-1.0	-0.08	0.061	2.52	-3.15	-1.68
14523	-1.006	-0.064	0.061	1.4	-3.43	-1.89
14547	-1.012	-0.065	0.06	0.63	-4.34	-1.54
14562	-1.009	-0.088	0.065	0.49	-5.32	-1.4
14587	-0.995	-0.078	0.077	0.56	-4.27	-1.12
14603	-0.989	-0.067	0.08	-0.35	-2.8	-1.4
14625	-0.993	-0.08	0.077	-0.7	-2.03	-1.33
14649	-0.997	-0.081	0.068	0.91	-1.26	-1.4
14669	-1.001	-0.073	0.07	1.12	-1.19	-1.26
14684	-1.002	-0.079	0.074	1.19	-0.91	-1.4
14709	-0.995	-0.078	0.071	1.61	0.35	-1.75
14727	-1.008	-0.078	0.065	3.36	0.35	-2.1
14749	-1.006	-0.078	0.066	3.22	0.28	-2.17
14769	-0.998	-0.069	0.066	2.1	0.42	-2.03
14793	-1.001	-0.067	0.059	-0.21	0.42	-2.03
14817	-1.005	-0.072	0.056	-0.7	-0.21	-1.96
14836	-1.005	-0.074	0.059	-1.89	-1.47	-1.61
14856	-1.005	-0.069	0.06	-3.85	-2.03	-1.19
14873	-0.999	-0.072	0.065	-4.69	-2.1	-1.61
14896	-1.001	-0.082	0.054	-2.52	-1.75	-2.24
14917	-1.014	-0.087	0.043	1.26	-3.01	-2.66
14938	-1.013	-0.066	0.051	1.19	-4.55	-2.38
14962	-1.001	-0.056	0.053	-3.36	-5.74	-2.45
14981	-1.012	-0.077	0.059	-5.46	-7.21	-2.66
15001	-1.004	-0.093	0.063	-2.38	-7.63	-2.73
15020	-1.006	-0.078	0.06	0.56	-7.49	-2.73
15044	-1.01	-0.066	0.067	-0.07	-8.47	-2.73
15064	-0.997	-0.08	0.075	-1.05	-7.84	-2.73
15079	-0.985	-0.074	0.079	-1.33	-6.65	-3.15
15102	-1.009	-0.082	0.079	-0.56	-6.37	-3.57
15121	-0.994	-0.096	0.086	2.24	-5.11	-3.43
15145	-0.993	-0.088	0.088	4.13	-3.15	-2.59
15163	-0.999	-0.079	0.082	2.17	-2.24	-2.24
15187	-0.997	-0.085	0.073	1.75	-2.1	-1.96
15207	-1.005	-0.073	0.07	2.24	-2.17	-1.96
15227	-1.004	-0.079	0.072	1.54	-2.31	-2.52
15251	-0.995	-0.094	0.072	3.92	-1.89	-2.31
15271	-0.999	-0.08	0.076	4.13	-1.89	-2.1
15291	-1.004	-0.07	0.068	1.75	-1.96	-2.45
15307	-1.001	-0.074	0.069	-0.14	-2.59	-2.87
15329	-1.005	-0.094	0.071	2.45	-2.94	-2.73
15349	-1.002	-0.076	0.074	2.73	-2.66	-2.66
15368	-1.004	-0.083	0.069	1.12	-2.66	-2.52
15393	-0.994	-0.094	0.078	1.96	-2.1	-1.82
15413	-0.999	-0.078	0.075	1.47	-2.1	-1.75
15429	-1.002	-0.072	0.07	-0.28	-1.82	-1.96
15448	-1.006	-0.094	0.066	1.33	-2.38	-2.17
15468	-1.003	-0.087	0.073	1.96	-2.38	-1.75
15489	-0.991	-0.078	0.076	-0.21	-2.24	-1.05
15513	-0.997	-0.078	0.081	-0.84	-1.4	-1.26
15533	-1.004	-0.092	0.074	0.49	-0.56	-1.75
15549	-0.996	-0.084	0.074	0.98	0.0	-1.82
15573	-1.003	-0.083	0.066	0.35	-0.42	-1.33
15597	-1.004	-0.076	0.058	-1.54	-0.98	-0.98
15615	-1.004	-0.08	0.066	-2.38	-2.38	-1.12
15635	-1.007	-0.085	0.061	-2.52	-2.24	-1.33
15656	-0.999	-0.094	0.066	-0.35	-2.87	-1.05
15676	-1.003	-0.07	0.068	-0.91	-3.15	-0.98
15696	-1.001	-0.093	0.069	-2.38	-3.36	-0.91
15720	-0.998	-0.087	0.069	-0.77	-2.73	-0.35
15740	-0.998	-0.078	0.079	-1.96	-2.52	-0.77
15759	-0.996	-0.089	0.074	-1.4	-1.82	-0.63
15779	-0.996	-0.09	0.071	0.49	-0.84	-0.56
15803	-0.99	-0.069	0.074	1.05	0.07	-1.26
15823	-1.002	-0.081	0.063	0.56	0.07	-1.54
15843	-0.998	-0.082	0.063	1.47	0.21	-1.75
15859	-1.002	-0.08	0.066	1.47	0.56	-2.1
15880	-0.999	-0.082	0.069	1.33	0.63	-2.17
15902	-0.999	-0.081	0.061	2.52	1.26	-1.75
15926	-0.999	-0.081	0.061	0.98	1.4	-1.33
15946	-0.996	-0.094	0.06	1.12	1.96	-0.42
15966	-1.001	-0.077	0.052	0.14	1.68	-0.21
15986	-1.009	-0.073	0.053	-2.52	0.56	-0.28
16006	-1.01	-0.085	0.045	-1.47	0.84	0.07
16026	-1.01	-0.078	0.045	-1.47	-0.35	-0.42
16048	-1.014	-0.085	0.043	-0.77	-0.91	0.14
16072	-1.007	-0.076	0.042	-1.4	-1.75	0.98
16088	-1.008	-0.068	0.036	-4.76	-3.57	0.56
16109	-1.016	-0.065	0.044	-5.18	-5.18	-0.28
16133	-1.006	-0.086	0.044	-1.89	-5.95	-0.91
16153	-1.005	-0.076	0.05	0.0	-6.16	-0.98
16171	-1.007	-0.063	0.059	-1.33	-6.3	-1.26
16193	-0.989	-0.078	0.071	-1.05	-4.62	-1.89
16212	-0.992	-0.088	0.069	1.75	-2.52	-2.31
16237	-1.003	-0.079	0.061	3.64	-0.98	-2.66
16257	-1.017	-0.036	0.044	-5.74	-2.87	-3.57
16275	-0.984	-0.181	0.047	10.92	-1.19	-0.56
16293	-1.017	-0.042	0.052	7.0	-1.12	-0.77
16317	-1.013	-0.043	0.037	0.35	-3.92	-1.75
16336	-1.004	-0.09	0.052	-2.8	-5.6	-1.75
16357	-0.995	-0.099	0.056	4.55	-4.34	-2.17
16377	-1.01	-0.085	0.059	7.56	-4.9	-2.87
16395	-1.009	-0.056	0.06	3.78	-5.46	-3.92
16417	-0.994	-0.086	0.061	4.76	-4.69	-3.64
16435	-1.002	-0.08	0.063	7.07	-3.78	-3.36
16454	-1.001	-0.069	0.065	5.25	-3.43	-3.08
16475	-0.988	-0.074	0.062	4.97	-2.03	-3.36
16497	-1.015	-0.075	0.049	3.22	-2.52	-3.71
16521	-1.003	-0.092	0.057	3.57	-3.08	-2.94
16541	-0.995	-0.071	0.064	2.94	-2.8	-3.08
16560	-1.006	-0.067	0.067	-2.1	-3.22	-3.64
16581	-0.996	-0.099	0.057	1.05	-2.52	-3.43
16601	-1.0	-0.087	0.058	3.15	-2.38	-3.43
16620	-1.002	-0.068	0.058	1.54	-2.66	-3.36
16641	-0.999	-0.088	0.061	0.98	-3.01	-3.15
16661	-1.004	-0.082	0.059	0.91	-3.01	-3.01
16680	-1.003	-0.084	0.057	0.84	-2.38	-2.59
16698	-0.999	-0.086	0.061	1.19	-2.38	-2.31
16721	-1.001	-0.084	0.064	1.47	-1.75	-2.31
16742	-0.999	-0.074	0.056	0.63	-1.05	-2.59
16762	-1.007	-0.095	0.057	0.14	-1.4	-2.73
16782	-1.002	-0.103	0.056	2.17	-1.61	-2.59
16801	-0.999	-0.074	0.061	2.1	-1.47	-2.38
16822	-1.015	-0.089	0.049	0.42	-2.52	-2.45
16842	-1.01	-0.09	0.056	0.35	-3.22	-1.96
16866	-0.997	-0.087	0.06	-2.73	-3.36	-1.61
16886	-1.008	-0.099	0.046	-1.12	-3.92	-1.33
16905	-1.014	-0.069	0.047	-1.05	-6.02	-1.61
16928	-1.012	-0.066	0.047	-5.74	-7.91	-2.1
16947	-1.005	-0.108	0.049	-3.08	-8.33	-1.68
16970	-0.998	-0.082	0.062	-2.38	-8.75	-1.54
16990	-1.003	-0.083	0.067	-2.73	-9.03	-1.96
17009	-1.001	-0.075	0.066	-1.75	-9.03	-2.52
17031	-1.0	-0.105	0.073	-1.75	-8.68	-2.66
17055	-0.985	-0.101	0.085	-0.07	-6.65	-2.17
17073	-0.992	-0.088	0.097	-0.49	-5.11	-1.96
17091	-0.984	-0.096	0.095	0.0	-3.01	-1.89
17115	-0.989	-0.111	0.081	0.49	-1.47	-1.47
17132	-0.984	-0.098	0.08	3.22	0.07	-0.63
17155	-1.002	-0.078	0.064	1.47	0.35	-0.49
17176	-1.007	-0.083	0.062	-0.21	-0.84	-0.42
17194	-0.998	-0.096	0.07	-2.17	-1.4	-0.84
17218	-1.009	-0.096	0.071	0.56	-0.91	-0.21
17238	-0.998	-0.068	0.065	0.84	-0.35	-0.91
17257	-1.011	-0.083	0.056	-0.56	-2.17	-1.61
17276	-1.011	-0.077	0.054	-0.35	-3.71	-2.24
17296	-1.006	-0.087	0.063	-0.98	-5.04	-2.66
17316	-0.994	-0.096	0.071	-0.63	-4.34	-2.8
17340	-0.996	-0.088	0.068	2.59	-3.85	-2.66
17360	-1.004	-0.085	0.071	2.87	-2.8	-3.15
17379	-0.991	-0.097	0.078	3.08	-1.75	-2.66
17395	-0.994	-0.079	0.068	2.87	-1.05	-2.45
17417	-1.011	-0.084	0.065	0.84	-1.82	-2.94
17436	-1.001	-0.089	0.06	0.91	-1.96	-3.15
17460	-1.005	-0.088	0.063	1.47	-2.8	-3.43
17477	-0.999	-0.085	0.062	0.91	-3.15	-3.29
17498	-1.013	-0.081	0.062	-0.35	-3.99	-3.85
17521	-1.003	-0.107	0.069	0.14	-4.06	-3.71
17545	-0.998	-0.099	0.083	2.24	-3.71	-3.15
17565	-0.998	-0.096	0.078	0.7	-2.73	-2.66
17583	-0.996	-0.102	0.077	1.19	-2.45	-2.24
17603	-1.005	-0.102	0.076	1.4	-2.24	-1.54
17623	-0.996	-0.095	0.066	0.63	-1.61	-1.33
17645	-1.001	-0.091	0.066	0.77	-2.38	-1.19
17668	-1.003	-0.102	0.065	1.05	-2.8	-1.26
17689	-0.995	-0.094	0.068	1.68	-2.87	-1.26
17709	-1.007	-0.078	0.065	-0.98	-3.57	-1.33
17729	-1.0	-0.092	0.073	-0.56	-3.29	-1.26
17749	-0.999	-0.102	0.076	-1.05	-2.52	-1.19
17765	-0.992	-0.09	0.077	-0.49	-1.61	-1.12
17789	-0.997	-0.092	0.068	-0.42	-1.47	-0.91
17807	-0.999	-0.093	0.069	-0.91	-1.61	-1.12
17827	-1.003	-0.093	0.066	0.21	-1.47	-1.26
17851	-1.001	-0.091	0.064	-0.63	-1.26	-1.26
17870	-0.994	-0.09	0.067	-1.26	-1.47	-0.77
17894	-1.005	-0.087	0.062	-3.15	-1.61	-0.77
17912	-0.996	-0.097	0.069	-2.31	-2.1	-1.05
17936	-1.01	-0.087	0.06	-1.82	-1.68	-1.33
17956	-0.995	-0.093	0.066	-1.12	-1.68	-1.4
17974	-0.998	-0.093	0.061	-2.1	-2.17	-1.05
17995	-1.002	-0.081	0.059	-3.22	-2.59	-0.77
18019	-1.005	-0.079	0.064	-5.04	-3.5	-1.54
18039	-0.993	-0.12	0.077	-0.42	-3.01	-1.89
18057	-0.994	-0.1	0.076	1.68	-0.98	-1.54
18081	-0.998	-0.091	0.068	1.54	17.85	-0.98
18101	-1.001	-0.079	0.071	-0.77	-0.63	-1.19
18121	-1.003	-0.087	0.065	-1.96	0.21	-1.33
18141	-0.997	-0.095	0.062	-1.4	1.12	-1.4
18161	-1.007	-0.094	0.058	1.82	-0.21	-0.98
18180	-0.994	-0.161	0.046	9.52	-0.14	0.56
18204	-1.03	-0.016	0.049	3.01	-2.24	-0.28
18223	-1.012	-0.086	0.049	-3.15	-4.48	-0.56
18244	-0.998	-0.108	0.065	1.68	-2.59	-1.33
18264	-1.002	-0.081	0.055	7.98	-0.42	-2.17
18288	-1.014	-0.065	0.052	4.76	-3.36	-3.08
18306	-1.009	-0.088	0.055	-0.07	-4.2	-2.52
18330	-1.003	-0.109	0.06	-1.12	-4.13	-1.05
18350	-0.989	-0.092	0.07	0.0	-3.01	-0.28
18370	-0.996	-0.101	0.061	-0.07	-2.38	-0.49
18385	-0.997	-0.089	0.066	3.5	-1.68	-0.84
18411	-1.016	-0.08	0.047	1.82	-3.29	-1.19
18430	-1.005	-0.079	0.061	-0.63	-3.92	-1.19
18452	-1.001	-0.085	0.063	-0.35	-3.64	-1.12
18472	-0.995	-0.086	0.06	1.89	-3.29	-1.33
18496	-1.004	-0.095	0.06	3.08	-2.94	-1.75
18516	-1.001	-0.088	0.063	3.01	-2.24	-1.33
18536	-1.002	-0.078	0.065	-0.91	-2.31	-0.84
18554	-0.997	-0.091	0.064	-2.03	-1.68	-0.63
18578	-1.0	-0.098	0.064	-0.14	-0.84	-0.21
18598	-1.004	-0.092	0.067	1.82	-0.07	-0.56
18618	-1.007	-0.081	0.056	2.03	-0.14	-0.77
18638	-1.002	-0.081	0.051	1.12	-0.56	-1.19
18658	-1.003	-0.08	0.051	1.05	-1.47	-1.26
18676	-1.002	-0.083	0.057	1.26	-1.54	-1.33
18697	-1.005	-0.081	0.052	1.12	-1.75	-1.68
18720	-1.003	-0.083	0.056	1.89	-1.54	-1.61
18739	-1.001	-0.092	0.057	1.4	-1.54	-1.47
18761	-1.004	-0.08	0.058	1.12	-1.54	-1.12
18778	-1.006	-0.079	0.05	-1.12	-1.61	-1.05
18803	-1.002	-0.08	0.056	-1.4	-1.96	-1.61
18823	-1.001	-0.09	0.049	0.42	-2.17	-1.75
18843	-1.007	-0.088	0.045	1.26	-2.73	-1.61
18863	-1.007	-0.078	0.049	0.28	-3.85	-1.4
18881	-1.003	-0.089	0.049	-0.28	-4.55	-1.54
18901	-1.01	-0.087	0.038	0.63	-5.46	-1.47
18924	-1.014	-0.076	0.046	0.7	-6.93	-1.96
18945	-1.013	-0.066	0.045	-1.96	-8.54	-2.59
18965	-1.004	-0.092	0.05	-0.91	-9.45	-2.87
18981	-1.001	-0.096	0.059	0.63	-9.45	-2.73
19003	-0.996	-0.083	0.075	0.98	-8.89	-2.59
19022	-0.99	-0.088	0.075	0.77	-7.35	-2.38
19046	-0.988	-0.086	0.077	1.4	-6.09	-2.45
19066	-0.994	-0.093	0.077	1.12	-4.34	-2.8
19084	-0.996	-0.096	0.076	2.66	-3.29	-2.45
19105	-1.0	-0.083	0.078	1.96	-2.38	-1.75
19127	-0.989	-0.09	0.073	0.63	-1.19	-1.89
19145	-0.996	-0.093	0.072	1.4	-0.42	-1.54
19165	-0.998	-0.1	0.067	3.78	0.21	-1.61
19185	-1.0	-0.079	0.066	3.99	0.42	-1.54
19209	-0.996	-0.093	0.066	3.71	0.0	-1.33
19227	-1.0	-0.076	0.062	2.24	0.28	-1.05
19248	-1.005	-0.097	0.057	1.61	-0.14	-1.12
19266	-1.004	-0.082	0.059	1.96	-0.35	-1.12
19285	-1.007	-0.081	0.053	0.84	-0.91	-1.26
19310	-1.007	-0.082	0.064	-0.63	-1.68	-0.91
19330	-0.997	-0.086	0.064	-1.96	-1.33	-0.42
19345	-0.993	-0.096	0.067	-1.82	-0.63	0.07
19370	-1.004	-0.083	0.06	-1.54	-0.28	0.14
19390	-1.01	-0.077	0.044	-2.24	-1.47	-0.7
19410	-1.006	-0.083	0.048	-2.24	-3.08	-1.12
19428	-1.002	-0.093	0.059	-1.05	-3.5	-0.98
19447	-0.999	-0.087	0.063	-0.84	-2.73	-0.7
19471	-0.993	-0.078	0.061	-1.54	-2.45	-0.84
19489	-1.003	-0.081	0.057	-2.24	-2.8	-1.33
19510	-1.003	-0.08	0.058	-0.35	-2.52	-1.89
19533	-0.997	-0.095	0.061	2.17	-1.82	-1.75
19551	-1.002	-0.086	0.066	3.08	-0.77	-1.82
19573	-0.994	-0.083	0.064	2.52	0.63	-1.61
19592	-1.009	-0.078	0.052	2.94	0.63	-1.96
19617	-1.005	-0.066	0.05	1.68	0.0	-2.38
19635	-1.008	-0.093	0.041	1.4	-1.26	-2.66
19656	-1.012	-0.086	0.038	2.24	-2.03	-2.24
19675	-1.008	-0.076	0.054	0.28	-3.08	-2.45
19694	-0.997	-0.092	0.054	0.35	-3.08	-2.52
19719	-1.003	-0.081	0.049	0.49	-3.71	-2.24
19734	-1.004	-0.074	0.054	-1.33	-4.62	-2.03
19754	-0.998	-0.082	0.059	-2.45	-4.2	-2.38
19779	-0.996	-0.101	0.064	0.84	-3.15	-2.17
19799	-0.988	-0.094	0.075	2.38	-0.91	-1.89
19819	-0.991	-0.081	0.058	1.61	0.21	-1.68
19843	-0.999	-0.075	0.052	1.68	-0.07	-1.89
19861	-1.002	-0.085	0.048	0.35	-0.49	-2.17
19885	-0.998	-0.099	0.052	1.82	0.14	-2.24
19904	-1.0	-0.077	0.057	2.73	0.84	-2.17
19922	-1.004	-0.092	0.05	1.05	0.42	-2.17
19946	-1.004	-0.074	0.041	0.77	0.49	-2.1
19966	-1.016	-0.069	0.042	-1.26	-0.56	-2.1
19983	-1.007	-0.098	0.046	-2.31	-1.19	-2.03
20007	-0.988	-0.103	0.046	-0.7	0.21	-0.84
20025	-1.016	-0.061	0.042	-2.52	-1.12	-0.98
20047	-1.002	-0.097	0.041	-2.94	-1.33	-1.33
20063	-0.996	-0.087	0.041	-1.05	-0.84	-0.91
20082	-1.009	-0.077	0.04	-2.17	-1.89	-1.4
20107	-1.009	-0.087	0.031	-1.75	-3.22	-1.12
20127	-1.003	-0.088	0.044	-2.1	-3.29	-0.91
20146	-0.994	-0.071	0.049	-3.36	-2.87	-1.26
20166	-1.002	-0.09	0.045	-1.89	-2.73	-1.89
20185	-1.007	-0.096	0.035	0.35	-3.15	-1.75
20210	-1.014	-0.077	0.029	-2.59	-4.76	-0.98
20230	-1.008	-0.077	0.039	-5.25	-5.6	-1.12
20248	-1.01	-0.09	0.044	-4.9	-5.74	-1.19
20268	-1.0	-0.122	0.048	-8.12	-5.81	-1.33
20292	-0.994	-0.131	0.035	9.8	-3.92	0.7
20312	-1.011	-0.071	0.039	2.8	-5.11	0.07
20332	-0.996	-0.07	0.041	-0.84	-6.79	0.35
20351	-1.002	-0.061	0.051	-2.03	-7.0	-0.77
20370	-1.0	-0.11	0.05	3.5	-6.58	-2.45
20394	-1.007	-0.091	0.05	10.57	-5.11	-2.52
20414	-1.0	-0.05	0.052	4.34	-6.09	-2.94
20434	-1.004	-0.085	0.055	1.54	-6.79	-2.38
20451	-0.991	-0.095	0.065	0.91	-5.95	-1.47
20474	-0.986	-0.091	0.072	1.26	-4.2	-0.91
20494	-1.002	-0.078	0.061	0.77	-3.01	-0.7
20514	-0.996	-0.088	0.058	1.05	-2.73	-0.7
20534	-1.005	-0.072	0.055	0.49	-2.94	-0.56
20555	-1.007	-0.076	0.04	-0.28	-3.99	-0.84
20574	-1.009	-0.082	0.05	-0.98	-5.53	-1.26
20598	-0.999	-0.089	0.057	0.35	-5.95	-1.26
20618	-0.993	-0.087	0.07	1.12	-5.18	-1.05
20638	-0.993	-0.081	0.069	0.07	-4.27	-0.63
20656	-0.994	-0.087	0.071	0.07	-3.36	-0.35
20680	-1.005	-0.077	0.065	-1.89	-2.73	-0.56
20700	-0.998	-0.083	0.065	-1.19	-1.89	-0.63
20719	-0.998	-0.087	0.065	0.42	-1.19	-0.56
20739	-0.997	-0.072	0.06	0.91	-0.56	-1.12
20763	-1.002	-0.079	0.055	1.19	-0.56	-1.54
20780	-1.007	-0.074	0.054	1.4	-0.91	-1.75
20798	-1.01	-0.07	0.054	-0.21	-1.54	-1.89
20822	-1.001	-0.081	0.055	0.21	-2.17	-1.89
20841	-1.011	-0.08	0.055	-0.21	-2.66	-1.96
20866	-1.0	-0.089	0.062	0.98	-2.45	-1.54
20881	-0.998	-0.079	0.061	1.12	-1.68	-1.4
20906	-1.002	-0.079	0.064	-0.07	-1.96	-1.61
20926	-1.005	-0.081	0.059	1.19	-1.96	-1.54
20946	-1.002	-0.08	0.057	-0.07	-1.68	-1.54
20964	-0.998	-0.086	0.058	0.56	-1.54	-1.47
20983	-1.004	-0.066	0.055	0.42	-1.82	-1.75
21007	-1.007	-0.083	0.058	0.07	-1.82	-1.82
21026	-0.996	-0.083	0.065	0.28	-1.12	-1.4
21046	-0.996	-0.077	0.059	-0.63	0.56	-1.33
21070	-1.005	-0.083	0.05	1.33	0.14	-1.4
21086	-1.001	-0.075	0.05	0.14	0.28	-1.61
21110	-1.009	-0.08	0.044	-0.21	-1.19	-1.75
21129	-1.004	-0.08	0.049	0.56	-1.33	-1.4
21150	-1.002	-0.085	0.047	1.19	-1.4	-1.61
21170	-1.005	-0.074	0.051	0.98	-1.26	-1.89
21194	-1.003	-0.081	0.049	0.98	-1.33	-1.75
21210	-0.998	-0.079	0.05	0.56	-1.12	-1.68
21234	-1.002	-0.076	0.052	-0.07	-0.98	-1.75
21254	-1.006	-0.081	0.045	0.77	-0.98	-1.82
21274	-0.999	-0.082	0.053	1.75	-0.63	-1.89
21294	-1.0	-0.076	0.041	0.63	-0.84	-1.96
21314	-1.013	-0.088	0.035	1.05	-1.68	-1.47
21332	-1.005	-0.077	0.041	0.14	-2.87	-1.26
21353	-1.009	-0.079	0.037	-0.91	-4.06	-1.68
21375	-1.016	-0.074	0.026	0.21	-5.53	-1.89
21395	-1.014	-0.085	0.035	1.4	-7.07	-1.75
21415	-1.01	-0.075	0.042	0.7	-8.47	-1.54
21439	-1.009	-0.077	0.046	-0.28	-9.17	-1.4
21459	-1.007	-0.074	0.054	-1.19	-10.22	-1.4
21479	-0.999	-0.065	0.047	-1.82	-10.5	-1.19
21499	-0.999	-0.067	0.057	-2.87	-10.78	-1.19
21522	-0.999	-0.087	0.063	-1.82	-11.27	-1.75
21543	-1.007	-0.081	0.085	-1.19	-10.43	-1.26
21563	-0.998	-0.089	0.094	-1.75	-7.14	-0.21
21587	-0.973	-0.097	0.087	-0.07	-3.36	0.07
21606	-1.006	-0.072	0.073	0.91	-2.31	0.07
21626	-0.999	-0.084	0.073	2.24	-2.1	-0.14
21646	-1.004	-0.087	0.069	3.29	-1.54	-0.42
21662	-0.998	-0.078	0.07	4.27	-1.47	-0.21
21687	-0.994	-0.069	0.069	3.71	-1.19	-0.49
21707	-1.002	-0.067	0.068	2.59	-0.91	-0.84
21726	-0.996	-0.075	0.074	2.73	-0.35	-1.19
21747	-0.998	-0.059	0.077	0.07	0.84	-1.05
21767	-0.983	-0.084	0.074	-1.47	1.96	-0.91
21790	-1.006	-0.074	0.057	-0.14	2.52	-0.14
21814	-1.002	-0.063	0.053	-0.91	1.75	-0.7
21831	-1.004	-0.08	0.05	-2.31	1.12	-1.26
21851	-1.004	-0.08	0.052	0.7	0.63	-1.26
21870	-1.001	-0.07	0.058	-0.63	0.35	-1.26
21895	-1.002	-0.077	0.052	-0.7	0.28	-1.4
21915	-1.008	-0.077	0.053	0.98	0.0	-1.33
21935	-1.005	-0.074	0.057	0.63	0.28	-1.75
21950	-0.998	-0.072	0.047	1.05	0.77	-1.47
21975	-1.011	-0.076	0.042	0.98	-0.63	-1.61
21994	-1.001	-0.077	0.054	0.77	-0.7	-1.47
22014	-0.998	-0.076	0.046	0.91	-0.07	-1.4
22038	-1.007	-0.072	0.042	0.56	-1.19	-0.91
22056	-1.007	-0.065	0.041	0.14	-1.4	-0.77
22077	-1.011	-0.075	0.041	0.0	-2.59	-0.98
22098	-0.999	-0.075	0.05	0.56	-2.45	-0.98
22118	-1.005	-0.075	0.045	1.12	-2.45	-0.98
22136	-1.001	-0.074	0.048	1.47	-2.94	-0.98
22156	-1.006	-0.064	0.041	1.05	-3.29	-1.26
22175	-1.008	-0.069	0.046	0.35	-3.85	-1.26
22199	-0.998	-0.071	0.055	0.91	-3.57	-1.61
22219	-0.996	-0.077	0.056	1.75	-2.17	-1.54
22239	-1.006	-0.069	0.05	2.24	-2.17	-1.82
22259	-1.0	-0.07	0.051	1.75	-2.31	-2.1
22283	-1.005	-0.067	0.051	0.84	-2.24	-2.03
22303	-1.002	-0.076	0.049	0.49	-2.17	-2.1
22318	-1.002	-0.064	0.044	1.47	-2.17	-2.45
22341	-1.004	-0.076	0.041	1.75	-2.52	-2.52
22363	-1.004	-0.072	0.052	2.24	-2.66	-2.1
22387	-0.991	-0.071	0.055	0.56	-1.33	-1.89
22407	-0.999	-0.086	0.057	1.12	-0.98	-1.54
22427	-1.008	-0.073	0.026	1.54	-1.47	-1.4
22449	-1.007	-0.05	0.034	-0.63	-3.08	-1.89
22469	-1.009	-0.08	0.041	-2.1	-4.69	-1.82
22489	-1.001	-0.081	0.046	-1.47	-4.76	-0.7
22509	-1.005	-0.071	0.045	-1.61	-4.62	-0.42
22534	-1.002	-0.065	0.04	-3.57	-5.25	-0.49
22553	-1.008	-0.069	0.047	-4.83	-5.88	-0.84
22568	-0.999	-0.086	0.062	-3.92	-5.39	-0.7
22588	-1.003	-0.085	0.045	-1.61	-5.11	-0.91
22613	-1.009	-0.063	0.056	0.14	-4.97	-1.05
22631	-0.999	-0.071	0.057	-2.38	-5.04	-1.19
22652	-0.99	-0.082	0.061	-2.1	-3.99	-0.91
22675	-1.003	-0.071	0.056	-0.7	-3.57	-0.98
22695	-1.009	-0.064	0.058	-0.77	-3.43	-1.33
22713	-1.006	-0.087	0.06	1.05	-3.36	-1.33
22738	-1.005	-0.044	0.053	-1.68	-3.01	-0.91
22757	-1.002	-0.087	0.044	6.16	-3.08	0.56
22774	-1.021	-0.034	0.05	3.57	-5.67	0.35
22793	-1.011	-0.061	0.042	-2.24	-5.74	-0.42
22813	-0.996	-0.054	0.06	-2.03	-6.93	-1.05
22835	-0.985	-0.096	0.075	3.5	-4.34	-2.17
22858	-1.014	-0.09	0.054	12.6	-2.03	-3.01
22882	-1.011	-0.022	0.058	7.84	-3.99	-2.24
22902	-1.012	-0.055	0.06	-0.42	-4.48	-2.52
22920	-1.0	-0.086	0.055	-0.63	-4.48	-1.33
22941	-1.002	-0.072	0.061	-0.84	-4.83	-1.19
22959	-0.99	-0.093	0.067	0.91	-3.85	-0.84
22977	-1.008	-0.058	0.067	3.22	-3.36	-0.7
23002	-1.004	-0.049	0.062	-1.61	-2.94	-2.24
23021	-0.995	-0.087	0.062	2.94	-1.82	-2.1
23040	-1.005	-0.064	0.06	5.53	-1.54	-2.24
23064	-1.013	-0.061	0.05	4.69	-2.73	-2.87
23088	-1.005	-0.075	0.061	4.69	-3.43	-2.45
23108	-1.003	-0.057	0.08	1.4	-4.13	-2.31
23124	-0.996	-0.068	0.075	-0.91	-3.36	-2.52
23144	-0.993	-0.081	0.072	0.14	-1.75	-1.82
23167	-0.996	-0.079	0.067	0.84	-1.12	-1.47
23184	-1.002	-0.07	0.064	0.84	-0.98	-1.68
23207	-1.009	-0.069	0.06	2.38	-1.19	-1.61
23228	-1.003	-0.078	0.06	-0.07	-2.59	-3.15
23248	-0.999	-0.075	0.048	3.57	-1.82	-1.54
23266	-1.001	-0.064	0.054	4.13	-0.98	-1.19
23290	-1.017	-0.065	0.054	2.52	-1.54	-1.26
23310	-1.01	-0.072	0.051	2.73	-2.17	-0.35
23331	-1.002	-0.069	0.053	2.03	-1.82	0.07
23349	-1.001	-0.065	0.056	2.38	-2.1	0.35
23369	-1.002	-0.069	0.06	2.17	-2.38	0.56
23389	-1.004	-0.066	0.062	1.26	-2.38	0.63
23410	-1.003	-0.07	0.063	1.47	-1.61	0.42
23432	-1.006	-0.061	0.053	2.38	-1.33	0.35
23452	-1.007	-0.071	0.058	2.94	-1.61	0.21
23474	-1.007	-0.061	0.052	1.75	-1.96	0.49
23494	-1.012	-0.059	0.056	0.84	-2.8	0.63
23518	-1.006	-0.059	0.061	-0.42	-3.08	0.42
23538	-1.005	-0.068	0.058	-0.56	-2.45	0.07
23554	-1.002	-0.063	0.06	0.56	-2.1	0.14
23577	-1.002	-0.062	0.06	0.0	-1.68	-0.28
23598	-1.004	-0.06	0.057	-0.56	-1.68	-0.35
23618	-0.998	-0.057	0.059	-1.33	-1.26	-0.77
23636	-1.005	-0.06	0.058	-1.05	-1.33	-0.7
23660	-1.004	-0.057	0.056	-1.54	-1.26	-0.98
23675	-1.005	-0.069	0.057	-1.05	-0.77	-1.12
23700	-0.999	-0.064	0.056	0.21	0.0	-0.7
23719	-1.002	-0.056	0.054	-0.35	0.35	-0.63
23740	-1.001	-0.058	0.056	-1.26	0.63	-0.63
23760	-0.997	-0.063	0.053	-0.63	1.12	-0.77
23783	-0.998	-0.06	0.049	-0.21	1.47	-0.63
23804	-1.008	-0.061	0.047	0.0	1.61	-1.12
23823	-1.003	-0.062	0.047	0.91	1.47	-0.91
23843	-1.006	-0.057	0.038	0.14	1.26	-1.12
23867	-1.007	-0.056	0.035	0.42	0.21	-1.26
23886	-1.01	-0.054	0.036	0.21	-0.28	-1.19
23907	-1.002	-0.064	0.041	-0.21	-0.49	-1.12
23926	-1.007	-0.06	0.038	0.63	-0.35	-1.4
23943	-1.005	-0.061	0.042	1.68	-0.91	-1.26
23967	-1.002	-0.06	0.033	1.68	-0.28	-1.33
23988	-1.005	-0.056	0.038	1.89	-0.42	-1.54
24006	-1.02	-0.054	0.037	2.94	-2.17	-1.82
24028	-1.011	-0.056	0.037	2.03	-0.7	-1.61
24047	-0.997	-0.058	0.032	1.82	-0.28	-1.47
24069	-1.018	-0.061	0.033	0.91	-1.54	-1.54
24094	-1.011	-0.051	0.029	0.14	-0.77	-1.47
24111	-1.004	-0.057	0.032	0.14	-0.7	-1.61
24133	-1.01	-0.06	0.028	0.56	-1.26	-1.54
24151	-1.006	-0.05	0.028	0.56	-1.33	-1.82
24173	-1.004	-0.059	0.03	0.07	-1.68	-1.68
24195	-1.001	-0.053	0.031	0.07	-1.54	-1.68
24215	-1.004	-0.059	0.034	0.07	-1.26	-1.47
24234	-1.005	-0.061	0.03	0.49	-1.26	-1.61
24253	-1.007	-0.056	0.026	0.91	-1.26	-1.68
24272	-1.007	-0.056	0.027	0.91	-1.4	-1.75
24296	-1.012	-0.055	0.026	0.35	-1.82	-1.75
24316	-1.007	-0.056	0.029	0.42	-1.54	-1.89
24337	-1.007	-0.057	0.027	0.7	-1.54	-2.03
24360	-1.005	-0.054	0.026	0.98	-1.47	-1.82
24379	-1.001	-0.058	0.024	0.63	-1.75	-1.82
24399	-0.999	-0.057	0.028	0.77	-1.47	-1.89
24419	-1.006	-0.059	0.027	0.7	-1.19	-2.03
24436	-1.005	-0.057	0.021	0.98	-1.19	-2.03
24460	-1.004	-0.06	0.026	0.98	-1.26	-2.17
24478	-1.005	-0.054	0.023	0.91	-0.98	-2.17
24500	-1.002	-0.06	0.027	0.84	-0.98	-2.03
24519	-1.009	-0.056	0.02	1.05	-1.4	-2.38
24539	-1.004	-0.06	0.02	0.84	-1.4	-2.17
24561	-1.004	-0.055	0.022	0.77	-1.4	-2.31
24577	-1.006	-0.059	0.021	1.12	-1.47	-2.24
24598	-1.005	-0.06	0.02	1.4	-1.82	-2.45
24621	-1.006	-0.057	0.019	0.84	-1.82	-2.38
24645	-1.003	-0.061	0.02	0.84	-1.89	-2.38
24660	-1.004	-0.059	0.022	1.19	-1.75	-2.45
24682	-1.003	-0.062	0.019	1.05	-1.61	-2.38
24704	-1.007	-0.059	0.018	0.91	-1.82	-2.45
24724	-1.006	-0.062	0.015	0.98	-1.68	-2.38
24748	-1.004	-0.059	0.02	0.7	-1.89	-2.45
24768	-1.003	-0.064	0.02	0.77	-1.89	-2.38
24785	-1.006	-0.06	0.016	1.05	-1.89	-2.24
24809	-1.008	-0.059	0.022	0.84	-1.89	-2.38
24824	-1.003	-0.062	0.018	1.12	-1.4	-2.38
24849	-1.004	-0.064	0.018	1.12	-1.89	-2.31
24869	-1.014	-0.058	0.015	0.91	-2.31	-2.45
24888	-1.008	-0.063	0.013	0.98	-2.59	-2.45
24909	-1.005	-0.062	0.017	0.77	-2.73	-2.31
24928	-1.002	-0.065	0.018	0.7	-2.38	-2.31
24948	-1.003	-0.061	0.019	0.7	-2.31	-2.31
24968	-1.005	-0.061	0.015	1.12	-2.24	-2.38
24988	-1.006	-0.058	0.014	0.84	-2.52	-2.38
25012	-1.009	-0.059	0.011	0.14	-3.15	-2.73
25032	-1.005	-0.071	0.023	0.49	-2.87	-2.38
25051	-0.991	-0.052	0.029	1.4	-1.33	-2.24
25072	-1.018	-0.071	0.015	-0.35	-0.84	-2.38
25091	-0.99	-0.06	0.027	0.7	0.35	-1.75
25116	-0.996	-0.047	0.012	-4.27	0.14	-1.82
25135	-1.023	-0.081	0.023	-4.62	-1.05	-1.61
25155	-0.993	-0.089	0.024	-1.89	2.1	0.21
25174	-0.999	-0.067	0.02	-2.66	4.06	1.12
25199	-1.003	-0.062	0.011	-3.5	4.76	1.89
25219	-0.991	-0.07	0.019	-4.48	5.46	2.45
25237	-0.999	-0.071	0.004	-2.52	6.72	2.45
25257	-1.001	-0.053	-0.003	-3.57	6.86	2.38
25281	-1.006	-0.077	-0.016	-2.87	6.44	3.08
25301	-1.019	-0.07	-0.017	-2.24	5.95	3.78
25321	-1.019	-0.059	-0.022	-0.56	4.34	4.13
25339	-1.016	-0.049	-0.011	-1.96	3.85	4.13
25358	-1.021	-0.061	-0.016	-0.91	3.92	4.69
25378	-1.008	-0.043	-0.006	1.54	4.48	6.02
25401	-1.007	-0.027	0.003	-0.49	6.51	6.58
25424	-1.022	-0.029	-0.007	-2.45	8.12	6.72
25445	-1.021	-0.033	-0.027	-0.42	9.31	7.63
25463	-0.995	-0.004	-0.037	-3.08	11.97	7.21
25483	-0.982	-0.011	-0.025	-14.28	11.62	5.11
25507	-1.02	-0.043	-0.041	-17.01	10.92	3.01
25525	-1.024	-0.019	-0.039	-15.05	10.5	1.12
25546	-1.014	0.042	-0.068	-20.02	10.57	-1.96
25570	-1.008	-0.004	-0.071	-31.01	7.56	-3.43
25590	-1.0	-0.068	-0.103	-26.18	7.98	-3.99
25609	-1.017	-0.108	-0.141	-37.03	2.8	-9.87
25627	-1.006	-0.025	-0.132	-52.08	2.87	-14.07
25650	-1.077	-0.038	-0.374	-80.5	9.03	-20.44
25672	-1.051	-0.176	-0.392	-83.16	18.48	-25.83
25693	-0.871	-0.111	-0.376	-61.6	31.22	-20.72
25712	-0.929	-0.007	-0.376	-54.67	52.22	-16.52
25734	-0.967	-0.089	-0.385	-44.8	59.57	-18.62
25755	-0.973	0.007	-0.31	-33.46	70.77	-16.31
25779	-0.996	-0.106	-0.181	-21.14	70.21	-15.96
25799	-0.981	-0.108	0.017	-5.18	56.84	-12.04
25819	-0.965	-0.095	0.202	21.77	23.94	-8.26
25839	-0.956	0.037	0.282	21.07	-9.38	-8.82
25857	-0.985	-0.009	0.305	17.36	-42.0	-9.38
25877	-0.937	-0.011	0.169	18.97	-55.86	-3.36
25901	-1.093	-0.252	0.008	22.54	-67.69	-27.65
25920	-0.752	-0.235	-0.219	79.66	-43.54	5.04
25941	-0.855	-0.186	-0.683	18.76	-39.41	-18.55
25961	-0.994	0.225	-0.211	10.36	-18.69	-1.61
25984	-1.039	0.326	-0.074	-43.82	-39.69	-10.15
26004	-1.029	-0.266	-0.04	-16.17	3.08	-19.88
26023	-1.114	-0.269	-0.05	40.88	-9.52	-19.67
26048	-0.977	-0.082	-0.043	29.61	-6.65	-17.15
26068	-0.957	-0.161	-0.151	-0.77	-5.11	-13.09
26088	-1.007	-0.108	-0.136	6.72	-2.03	-13.02
26107	-1.069	-0.081	-0.15	6.86	-7.63	-18.13
26127	-0.984	-0.082	-0.142	2.1	-8.26	-17.08
26148	-0.962	-0.153	-0.104	5.39	-4.9	-12.11
26168	-0.985	-0.204	-0.016	6.86	-1.4	-15.54
26191	-1.005	-0.179	-0.113	16.73	3.71	-11.2
26207	-0.941	-0.086	-0.099	9.52	5.6	-9.24
26231	-0.982	-0.151	-0.097	9.03	6.58	-6.58
26252	-0.942	-0.171	-0.059	8.75	14.28	-5.6
26268	-0.98	-0.247	-0.11	9.59	15.47	-4.83
26292	-0.988	-0.14	-0.091	12.6	18.13	-2.87
26312	-1.037	-0.067	-0.065	-2.66	18.69	-7.14
26331	-0.944	-0.191	-0.111	-12.11	23.87	-4.62
26351	-0.933	-0.21	-0.128	-3.99	28.07	-2.66
26372	-0.967	-0.12	-0.202	-2.24	22.82	-3.36
26391	-1.014	-0.163	-0.175	-6.37	17.36	-3.43
26411	-0.973	-0.199	-0.201	-3.29	17.85	-1.26
26435	-0.934	-0.136	-0.223	-13.51	16.17	-4.9
26455	-0.981	-0.155	-0.223	-9.38	12.74	-4.62
26475	-0.982	-0.165	-0.194	-2.8	14.77	-2.52
26494	-0.951	-0.152	-0.183	1.05	19.04	-1.12
26518	-0.948	-0.165	-0.229	-8.26	18.97	-3.57
26538	-0.927	-0.226	-0.237	2.03	23.52	0.21
26558	-0.953	-0.213	-0.173	10.43	27.93	4.9
26578	-0.917	-0.251	-0.179	17.08	33.6	7.42
26598	-0.955	0.038	-0.263	9.52	34.16	2.52
26617	-0.991	-0.123	-0.26	-6.16	31.78	-5.04
26640	-0.915	-0.221	-0.233	-10.92	36.75	-3.08
26660	-0.885	-0.197	-0.299	-6.58	40.95	0.98
26681	-0.968	-0.148	-0.292	0.35	42.28	0.49
26703	-0.966	-0.164	-0.347	-1.33	42.56	-1.47
26722	-0.922	-0.171	-0.4	1.26	43.47	1.75
26747	-0.902	-0.155	-0.35	-2.52	40.95	2.8
26767	-0.904	-0.13	-0.413	-7.98	39.2	2.73
26787	-0.877	-0.141	-0.373	-2.73	40.81	5.04
26807	-0.93	-0.184	-0.353	-2.59	43.96	4.27
26827	-0.905	-0.11	-0.43	-3.36	49.49	3.99
26851	-0.876	-0.09	-0.461	-9.94	44.94	1.75
26871	-0.876	-0.192	-0.487	-9.52	44.17	3.99
26888	-0.819	-0.131	-0.497	-11.55	35.77	3.71
26912	-0.881	-0.118	-0.505	-15.54	31.29	4.55
26931	-0.83	-0.175	-0.49	-14.56	29.82	9.17
26952	-0.854	-0.147	-0.501	-4.69	32.48	14.84
26972	-0.836	-0.09	-0.529	-5.11	33.25	17.99
26992	-0.853	-0.11	-0.51	-5.88	33.25	19.74
27012	-0.878	-0.127	-0.538	-5.74	31.01	23.66
27036	-0.968	-0.047	-0.557	-10.85	26.25	25.55
27057	-0.832	-0.013	-0.569	-15.61	28.07	24.71
27075	-0.875	-0.091	-0.55	-15.75	29.89	24.36
27096	-0.957	-0.063	-0.564	-11.97	30.03	25.83
27115	-0.962	-0.025	-0.528	-13.02	26.32	23.17
27139	-1.057	-0.03	-0.532	-20.51	31.99	17.36
27163	-0.89	0.096	-0.555	-27.3	48.51	21.21
27183	-0.935	0.085	-0.511	-36.26	54.39	16.8
27202	-0.764	0.122	-0.574	-28.77	58.24	19.32
27223	-0.805	0.082	-0.65	-23.59	58.66	19.46
27243	-0.734	0.103	-0.738	-11.2	52.15	22.47
27261	-0.683	0.065	-0.826	-4.13	42.63	22.26
27283	-0.603	0.098	-0.786	11.27	30.59	30.38
27301	-0.671	0.016	-0.785	10.71	24.01	30.66
27320	-0.599	0.013	-0.712	22.26	25.55	33.18
27340	-0.704	-0.029	-0.66	31.92	26.04	29.96
27364	-0.64	-0.006	-0.617	14.21	34.65	22.82
27380	-0.612	-0.096	-0.645	-8.05	43.96	18.83
27400	-0.575	-0.326	-0.875	-35.49	62.58	11.27
27420	-0.559	-0.157	-0.939	-58.52	96.67	10.43
27444	-0.508	-0.132	-0.854	-86.73	118.79	2.73
27460	-0.445	0.174	-0.521	-79.03	111.44	4.69
27480	-0.263	-0.018	-0.336	-27.16	91.91	10.78
27504	-0.395	0.226	-0.162	32.9	46.48	10.57
27524	-0.15	0.553	-1.213	25.34	47.88	13.37
27545	-0.739	0.528	-0.831	33.11	71.75	31.57
27564	-0.395	0.32	-0.773	24.71	64.19	25.41
27588	-0.509	0.2	-1.016	53.13	75.88	32.55
27606	-0.549	0.137	-0.847	65.38	79.87	31.85
27628	-0.5	0.113	-0.913	56.56	88.69	22.96
27648	-0.45	-0.003	-0.863	46.76	85.47	14.42
27668	-0.266	-0.113	-0.96	37.73	86.66	14.42
27688	-0.191	-0.077	-0.983	27.09	82.18	7.07
27708	-0.255	-0.057	-1.022	11.62	67.13	0.42
27727	-0.404	-0.041	-1.01	-5.53	76.51	-1.12
27749	-0.398	-0.055	-1.015	-7.14	76.65	-3.64
27770	-0.407	-0.037	-1.017	-9.17	77.07	-10.01
27789	-0.25	0.053	-0.963	-34.16	78.47	-14.98
27814	-0.167	0.02	-1.033	-29.19	79.45	-18.06
27834	-0.115	-0.011	-1.073	-28.56	76.3	-16.45
27853	-0.017	0.032	-1.004	-24.22	65.66	-14.14
27869	0.114	0.157	-1.01	-24.43	58.73	-10.57
27892	0.089	0.185	-0.99	-15.33	43.82	-7.98
27911	0.105	0.26	-1.119	-7.77	34.23	-5.32
27931	-0.027	0.163	-1.073	-0.42	30.73	-2.03
27951	-0.081	0.106	-1.019	3.43	30.66	-2.38
27976	-0.002	0.127	-0.945	0.56	33.11	-4.41
27994	0.024	0.123	-1.02	-6.37	32.97	-5.6
28014	-0.103	-0.01	-1.016	-6.16	40.18	-3.78
28038	-0.078	-0.071	-0.956	-13.02	44.59	-7.7
28058	0.142	-0.019	-1.011	-24.85	38.64	-12.11
28078	0.174	-0.007	-1.035	-24.36	34.16	-8.05
28098	0.202	0.082	-0.97	-13.37	25.62	-1.96
28117	0.238	0.149	-0.937	-7.84	13.86	3.78
28141	0.369	0.241	-0.974	-3.71	-16.8	9.38
28161	0.422	0.303	-0.988	1.26	-11.34	13.09
28181	0.315	0.275	-0.988	12.18	-26.67	14.49
28201	0.167	0.186	-1.039	13.86	-34.16	10.5
28221	0.018	0.013	-1.051	12.81	-40.25	0.7
28241	0.04	0.013	-0.993	3.78	-43.61	-9.45
28265	0.197	0.107	-0.941	-11.41	-56.7	-20.86
28285	0.261	0.187	-1.001	-16.59	-66.57	-24.08
28304	0.2	0.142	-1.018	-24.36	-78.05	-24.22
28323	0.172	0.114	-0.929	-17.01	-83.16	-25.06
28347	0.073	0.096	-0.923	-10.99	-90.79	-26.32
28367	0.009	0.182	-0.975	-12.95	-93.45	-26.18
28386	-0.13	0.116	-0.907	-7.35	-95.62	-23.66
28405	-0.119	0.048	-1.055	5.25	-97.16	-20.51
28430	-0.1	0.289	-0.855	13.86	-99.33	-19.11
28448	-0.183	0.215	-0.89	13.72	-106.33	-18.34
28468	-0.296	0.356	-0.858	0.63	-102.06	-11.41
28491	-0.217	-0.078	-1.569	-14.56	-95.83	-18.69
28512	-0.5	-0.145	-0.737	45.78	-103.74	-25.2
28532	-0.082	-0.008	-0.901	42.21	-87.15	-29.61
28552	-0.326	0.312	-0.826	11.34	-91.49	-25.06
28571	-0.437	0.107	-0.891	-52.01	-87.57	-26.25
28596	-0.511	-0.074	-0.833	-19.67	-68.81	-27.72
28616	-0.55	0.037	-0.819	19.11	-63.28	-21.84
28640	-0.438	0.106	-0.794	43.33	-56.91	-8.75
28659	-0.464	0.369	-0.792	13.23	-52.5	-8.4
28678	-0.478	0.122	-0.842	-13.09	-49.35	-12.46
28698	-0.635	-0.052	-0.794	-4.83	-46.13	-21.07
28717	-0.643	0.045	-0.733	4.34	-41.23	-21.63
28740	-0.431	-0.116	-0.737	17.5	-40.74	-22.82
28759	-0.209	-0.021	-0.879	30.03	-47.67	-25.2
28780	-0.297	0.019	-0.867	12.81	-59.36	-24.29
28802	-0.427	0.091	-0.844	-15.54	-59.78	-21.84
28822	-0.831	0.081	-0.721	-17.5	-65.87	-17.08
28841	-0.897	0.041	-0.61	12.95	-52.29	-11.27
28866	-0.779	0.063	-0.708	36.12	-44.17	-20.72
28883	-0.798	0.113	-0.72	33.53	-38.01	-25.06
28905	-0.769	0.111	-0.789	24.64	-44.38	-26.25
28929	-0.667	0.104	-0.852	4.13	-51.1	-26.67
28949	-0.641	0.147	-0.724	4.62	-51.94	-24.99
28969	-0.647	0.104	-0.841	24.29	-57.61	-24.71
28989	-0.807	-0.07	-0.664	32.06	-55.23	-26.74
29013	-0.85	-0.193	-0.567	28.28	-64.89	-28.21
29033	-0.795	-0.285	-0.554	2.1	-78.96	-19.6
29053	-0.59	-0.107	-0.659	18.48	-74.34	-1.96
29073	-0.797	-0.145	-0.624	37.66	-61.18	10.99
29093	-0.991	0.055	-0.51	53.2	-42.7	11.55
29109	-1.147	0.168	-0.46	42.56	-40.11	0.28
29130	-0.917	-0.061	-0.562	35.49	-41.16	-10.92
29150	-0.822	-0.017	-0.504	16.8	-31.29	-14.0
29170	-0.809	-0.175	-0.567	10.64	-25.55	-10.36
29194	-0.745	-0.198	-0.528	17.36	-21.63	-5.11
29214	-0.909	0.019	-0.588	20.37	-28.49	-7.21
29230	-0.893	-0.033	-0.547	15.05	-29.19	-5.95
29253	-0.8	-0.161	-0.525	15.96	-30.38	-4.69
29273	-0.866	-0.091	-0.596	19.32	-32.83	-6.86
29292	-0.887	-0.122	-0.593	14.28	-40.53	-4.76
29312	-0.917	-0.105	-0.491	12.67	-41.72	-6.23
29336	-0.948	-0.061	-0.483	3.64	-41.44	-6.37
29351	-0.864	-0.156	-0.504	6.37	-38.92	-1.68
29374	-0.802	-0.138	-0.47	7.77	-34.23	3.92
29393	-0.812	-0.159	-0.436	10.78	-32.69	4.13
29417	-0.807	-0.142	-0.471	14.42	-36.12	11.55
29437	-0.8	-0.13	-0.419	13.16	-40.25	9.87
29457	-0.888	-0.136	-0.465	14.07	-43.61	9.17
29476	-0.836	-0.049	-0.486	18.34	-44.45	9.66
29497	-0.887	-0.155	-0.349	18.27	-42.63	9.31
29521	-1.011	-0.152	-0.338	13.16	-43.47	11.41
29541	-0.944	-0.077	-0.332	8.4	-43.54	10.85
29560	-0.948	-0.101	-0.341	5.67	-40.74	9.94
29581	-0.879	-0.188	-0.347	9.45	-41.86	11.06
29597	-0.769	-0.155	-0.338	14.7	-43.19	13.58
29621	-1.058	-0.07	-0.134	7.0	-33.67	12.04
29641	-1.043	-0.006	-0.243	-0.49	-25.62	9.66
29661	-0.925	-0.108	-0.306	-4.83	-24.36	6.44
29681	-0.952	-0.031	-0.304	-18.83	-25.9	6.02
29701	-0.971	-0.097	-0.321	-20.02	-30.45	4.83
29716	-0.952	-0.087	-0.279	-16.66	-31.64	6.02
29741	-0.989	-0.068	-0.28	-14.21	-30.59	2.03
29761	-1.039	-0.044	-0.264	-14.07	-36.26	0.77
29780	-0.923	-0.006	-0.231	-17.92	-35.56	-0.07
29797	-0.927	-0.085	-0.189	-24.15	-29.89	0.14
29820	-0.953	-0.136	-0.167	-15.75	-27.65	0.14
29840	-0.955	-0.095	-0.211	-4.83	-27.16	0.49
29859	-0.938	-0.014	-0.213	-5.81	-27.51	0.07
29878	-0.988	0.024	-0.181	-13.72	-34.65	-0.35
29897	-0.902	-0.026	-0.212	-23.1	-15.89	-0.84
29917	-1.023	-0.063	-0.144	-28.98	-14.98	-4.27
29942	-1.013	-0.105	-0.157	-26.53	-13.72	-2.38
29957	-1.015	-0.221	-0.132	-3.99	-9.17	-1.47
29978	-0.991	-0.085	-0.181	14.49	-9.38	0.0
30000	-0.983	0.011	-0.151	5.32	-10.22	-0.42
30020	-0.98	-0.048	-0.175	0.07	-8.82	-1.05
30040	-0.981	0.008	-0.18	-2.24	-10.5	-1.26
30064	-1.02	-0.03	-0.178	-11.55	-10.57	-1.89
30083	-0.971	-0.129	-0.153	-11.06	-10.5	0.14
30102	-0.976	-0.131	-0.149	-1.82	-9.38	3.36
30124	-1.072	-0.002	-0.116	-20.23	-15.68	-0.21
30144	-0.945	-0.017	-0.098	-34.16	-17.71	-1.47
30168	-0.856	-0.037	-0.102	-24.08	-4.06	3.5
30188	-0.955	-0.04	-0.11	-17.57	6.09	4.27
30205	-1.03	-0.092	-0.103	-3.36	10.5	4.27
30229	-0.938	-0.101	-0.074	0.84	19.39	6.23
30249	-0.913	-0.071	-0.061	3.29	36.26	10.92
30269	-0.929	-0.089	0.038	9.73	52.5	12.74
30292	-0.978	-0.156	-0.029	13.93	81.48	14.77
30312	-1.147	-0.103	-0.054	19.88	113.05	19.74
30336	-1.302	0.093	-0.196	20.3	117.39	26.46
30356	-1.436	0.032	-0.129	-37.59	120.96	30.1
30374	-1.432	-0.117	-0.224	-34.37	132.44	34.44
30395	-1.363	-0.156	-0.255	-6.65	145.18	42.77
30414	-1.367	-0.156	-0.408	8.68	136.99	45.71
30439	-1.253	-0.119	-0.535	33.53	122.22	54.6
30458	-1.177	-0.021	-0.459	38.64	101.71	47.32
30482	-0.925	-0.007	-0.486	20.58	70.21	34.51
30501	-0.8	0.247	0.137	28.21	56.0	39.55
30522	-0.758	-0.227	0.352	10.22	8.33	19.25
30545	-0.87	-0.407	0.125	86.1	-66.22	4.76
30568	-0.918	-0.099	0.091	123.2	-87.5	2.31
30589	-0.885	0.056	0.113	105.63	-116.2	-3.01
30605	-0.863	0.101	0.009	83.37	-144.27	-5.04
30625	-0.966	0.136	-0.087	63.91	-167.65	-3.5
30649	-1.017	0.114	-0.169	41.58	-189.28	-1.47
30669	-1.112	0.049	-0.262	30.66	-204.12	-1.05
30689	-1.167	-0.095	-0.298	39.83	-208.11	17.64
30705	-1.191	-0.087	-0.273	52.78	-211.96	2.1
30728	-1.202	-0.004	-0.265	55.09	-217.98	5.46
30749	-1.158	0.08	-0.211	44.45	-217.91	10.43
30769	-1.239	0.047	-0.219	29.61	-218.54	12.67
30787	-1.241	-0.061	-0.247	29.89	-221.41	17.36
30805	-1.229	-0.036	-0.399	40.11	-212.59	27.23
30829	-1.049	-0.177	-0.482	31.36	-188.93	18.13
30849	-1.119	0.062	-0.252	18.41	-155.19	17.08
30869	-1.111	0.092	-0.086	-4.2	-139.65	10.15
30888	-0.847	0.013	-0.012	-9.8	-121.59	9.73
30913	-0.811	-0.044	0.066	-29.19	-88.69	9.45
30932	-0.7	-0.149	-0.306	18.2	-64.4	6.02
30952	-0.757	-0.141	-0.078	40.67	-38.29	-1.82
30971	-0.695	-0.106	0.092	48.79	-12.25	-1.89
30992	-0.65	-0.188	-0.265	71.96	17.08	-1.68
31016	-0.664	-0.102	-0.162	86.45	50.33	-12.18
31036	-0.714	0.032	0.57	50.82	98.63	-22.12
31056	-1.387	0.869	1.973	22.82	75.18	-23.66
31075	-0.85	0.338	-0.453	-21.0	40.39	-14.07
31096	-1.599	0.058	0.871	-45.36	141.96	-16.59
31115	-1.329	0.031	-0.15	29.75	142.31	-18.83
31134	-1.806	0.146	-0.004	13.09	107.94	-38.08
31155	-0.716	-0.041	-0.031	3.64	88.97	-44.03
31176	-1.088	-0.034	0.012	-8.89	127.12	-37.03
31198	-1.011	-0.066	-0.044	-19.32	120.26	-43.96
31219	-0.75	-0.18	0.138	14.49	125.65	-33.25
31238	-0.962	-0.018	-0.221	-14.77	77.07	-30.73
31263	-1.244	0.238	0.002	-12.46	97.44	-26.18
31283	-0.966	-0.086	-0.099	-6.09	100.31	-29.75
31303	-1.049	-0.009	0.295	4.2	99.12	-29.96
31322	-0.777	-0.359	-0.225	9.45	120.89	-31.57
31341	-1.064	0.045	-0.232	25.27	96.6	-24.57
31366	-0.954	-0.23	-0.049	9.87	92.12	-15.4
31382	-0.879	-0.179	-0.109	38.99	107.38	-13.37
31406	-0.762	-0.053	-0.297	33.81	102.06	-15.33
31425	-1.194	-0.095	-0.39	15.75	94.64	-15.54
31442	-1.266	0.081	-0.379	-10.43	85.54	-25.9
31462	-0.9	-0.228	-0.384	2.03	76.58	-29.19
31485	-0.877	-0.247	-0.407	7.7	81.97	-20.51
31508	-0.751	-0.097	-0.572	13.86	67.83	-12.81
31528	-0.872	0.098	-0.344	27.65	79.87	-9.24
31549	-1.036	-0.284	-0.257	20.09	75.46	-12.88
31568	-0.935	-0.23	-0.446	10.22	75.6	-11.2
31592	-0.866	-0.074	-0.465	13.58	62.09	-11.27
31612	-0.712	-0.087	-0.585	-3.78	64.82	-6.09
31631	-0.588	-0.225	-0.563	0.63	54.67	-6.72
31650	-0.742	-0.012	-0.709	-8.54	41.93	-10.29
31670	-1.211	0.109	-0.722	-19.25	34.3	-14.07
31694	-0.926	-0.176	-0.628	-13.44	26.67	-22.89
31714	-0.631	-0.223	-0.61	-2.52	12.88	-23.38
31738	-0.495	-0.32	-0.524	1.26	11.83	-23.94
31757	-0.67	-0.098	-0.724	-0.07	32.97	-26.25
31778	-1.237	-0.143	-0.651	-3.99	30.59	-27.79
31797	-0.898	-0.24	-0.657	-1.12	2.66	-21.56
31820	-0.84	-0.244	-0.595	-7.21	-3.01	-14.07
31841	-0.614	-0.262	-0.551	-3.43	3.99	-12.46
31860	-0.755	-0.217	-0.635	-5.39	5.18	-14.07
31880	-0.935	-0.162	-0.688	0.14	-2.45	-13.3
31900	-0.819	-0.283	-0.641	1.96	3.15	-6.86
31920	-0.708	-0.239	-0.575	4.55	-0.91	-7.63
31945	-0.718	-0.23	-0.578	-4.34	-12.88	-6.86
31964	-0.711	-0.284	-0.603	-5.04	-19.25	-3.57
31983	-0.83	-0.224	-0.656	-3.43	-20.86	-1.68
32002	-0.89	-0.12	-0.635	-12.25	-28.35	1.19
32026	-0.794	-0.225	-0.633	-14.91	-31.64	1.05
32046	-0.876	-0.126	-0.57	-13.44	-32.06	-1.68
32069	-0.71	-0.223	-0.607	-18.76	-35.77	-3.5
32090	-0.809	-0.18	-0.605	-14.84	-40.95	-2.31
32109	-0.76	-0.196	-0.569	-12.88	-41.72	-1.4
32129	-0.785	-0.242	-0.506	-9.38	-38.5	-1.47
32149	-0.949	-0.151	-0.601	-15.68	-47.32	1.61
32168	-0.889	-0.144	-0.567	-20.72	-52.57	7.56
32193	-0.646	-0.403	-0.488	-15.26	-49.0	9.31
32213	-0.835	-0.245	-0.549	4.34	-52.15	15.82
32234	-0.996	-0.079	-0.541	9.8	-49.7	18.97
32255	-1.0	-0.222	-0.48	2.87	-56.0	23.24
32275	-0.806	-0.173	-0.479	1.33	-64.26	24.5
32295	-0.819	-0.244	-0.458	10.78	-65.45	22.26
32319	-0.877	-0.086	-0.539	1.54	-84.84	20.58
32338	-0.863	-0.164	-0.509	-12.74	-97.51	13.79
32358	-1.015	-0.007	-0.443	-14.7	-95.41	14.63
32382	-0.991	-0.103	-0.432	-13.58	-110.46	22.33
32401	-0.911	-0.144	-0.358	-9.03	-107.8	28.63
32422	-1.053	-0.163	-0.308	-12.11	-124.39	28.7
32443	-1.09	-0.061	-0.413	5.46	-152.32	32.48
32466	-1.098	0.122	-0.264	-21.91	-177.38	24.99
32487	-1.172	0.196	-0.064	-52.57	-196.0	23.8
32505	-1.278	0.099	-0.101	-46.41	-203.77	29.26
32525	-1.426	0.125	0.21	-40.25	-212.24	36.33
32545	-1.654	0.218	0.362	-48.16	-237.86	36.89
32570	-1.349	0.537	0.067	-83.16	-258.44	32.83
32589	-0.878	0.207	-0.549	-162.05	-214.9	0.84
32609	-0.859	-0.608	-2.632	-162.33	-46.2	-45.43
32627	-0.881	-1.777	-0.922	49.49	-47.67	-17.78
32646	0.158	0.537	-0.42	124.88	59.71	31.29
32665	-0.545	0.466	-0.762	30.03	195.93	24.85
32687	-1.257	0.209	-0.515	-17.43	210.14	20.02
32707	-0.888	0.066	-0.44	-42.84	231.84	21.14
32727	-1.153	-0.194	-0.403	-10.92	271.04	18.06
32751	-1.358	0.076	-0.184	17.22	220.15	16.1
32771	-0.879	0.188	-0.4	-15.82	241.01	20.09
32791	-1.132	-0.003	-0.329	-50.19	226.52	8.82
32806	-1.157	-0.06	-0.256	-67.69	209.23	-8.47
32831	-1.102	-0.116	-0.112	-85.26	205.59	-24.85
32848	-1.109	-0.262	0.026	-71.4	184.87	-26.74
32869	-1.168	-0.086	0.179	-43.12	157.64	-19.32
32888	-1.023	0.019	0.099	-41.93	123.06	-15.19
32913	-1.081	-0.094	0.234	-33.74	71.33	-23.31
32931	-0.88	-0.025	0.138	-15.61	51.8	-24.29
32955	-0.979	0.02	-0.035	-18.76	24.71	-24.15
32974	-1.364	-0.105	-0.025	-42.49	-5.88	-40.95
32995	-1.28	-0.07	0.086	-52.22	-33.25	-46.41
33015	-1.109	0.127	0.175	-86.52	-33.74	-38.99
33035	-1.139	-0.005	0.038	-100.03	-41.44	-33.67
33058	-1.147	-0.397	-0.036	-71.82	-57.19	-47.95
33078	-1.397	-0.303	0.624	21.56	-86.66	-43.61
33097	-1.053	-0.064	0.792	25.69	-108.15	-29.61
33117	-0.989	-0.868	-0.966	48.3	-102.34	-43.4
33142	-1.695	-0.37	0.148	54.46	-110.67	-26.04
33162	-0.867	0.207	-0.113	14.14	-98.07	-22.61
33179	-1.134	0.201	-0.129	-26.67	-75.95	-12.53
33203	-1.279	-0.022	-0.181	21.98	-47.74	-8.26
33227	-1.191	-0.037	-0.139	49.07	-56.0	-12.74
33247	-0.953	0.202	-0.139	10.36	-29.19	-18.48
33267	-0.9	-0.133	-0.209	-7.42	-20.58	-15.82
33285	-1.008	-0.164	-0.163	3.57	-21.7	-13.72
33308	-1.037	-0.079	-0.162	11.13	-19.95	-13.37
33327	-1.026	-0.141	-0.185	10.08	-14.14	-14.21
33347	-0.94	0.011	-0.087	10.5	-6.65	-13.02
33371	-0.914	-0.114	-0.202	3.08	-2.24	-11.13
33390	-0.981	-0.162	-0.226	15.33	0.63	-10.85
33410	-0.947	-0.107	-0.193	20.02	2.73	-11.55
33434	-1.009	-0.027	-0.149	1.82	5.81	-13.93
33454	-0.935	-0.206	-0.251	5.25	14.91	-9.17
33474	-0.971	-0.138	-0.182	13.3	13.93	-5.18
33493	-0.935	-0.177	-0.18	8.19	16.52	-6.3
33517	-0.873	-0.364	-0.304	24.08	21.28	1.4
33537	-1.05	0.123	-0.192	22.05	19.88	4.69
33556	-1.054	-0.008	-0.258	-7.49	16.31	-6.23
33580	-0.96	-0.221	-0.235	6.79	19.46	1.47
33600	-0.941	-0.18	-0.285	-4.34	10.78	0.14
33620	-1.0	-0.072	-0.289	-9.03	8.47	0.42
33640	-0.948	-0.177	-0.241	-5.74	12.6	-0.07
33660	-0.916	-0.166	-0.248	4.41	16.03	1.33
33675	-0.949	-0.069	-0.218	4.83	20.79	2.17
33700	-0.952	-0.11	-0.271	0.91	25.97	0.84
33720	-0.932	-0.106	-0.267	14.63	28.91	1.68
33740	-0.951	0.001	-0.304	3.64	29.54	-1.68
33760	-0.978	-0.029	-0.239	-6.23	34.09	-2.24
33783	-0.886	-0.188	-0.254	-25.48	50.05	-1.54
33803	-0.888	-0.24	-0.409	-12.95	54.39	4.9
33824	-0.895	-0.145	-0.461	7.07	51.17	6.51
33840	-0.953	-0.114	-0.383	0.7	48.93	5.53
33864	-0.981	-0.077	-0.36	-12.81	50.96	5.81
33882	-0.896	-0.122	-0.501	-10.01	46.83	3.92
33902	-0.924	-0.012	-0.467	-9.38	50.82	4.13
33924	-1.004	-0.065	-0.453	-18.41	41.44	1.54
33944	-0.868	-0.127	-0.462	-21.77	47.46	5.39
33964	-0.865	-0.097	-0.484	-24.5	46.97	6.79
33984	-0.909	-0.044	-0.554	-26.18	45.22	10.43
34003	-0.9	-0.091	-0.55	-21.56	36.89	15.33
34023	-0.884	-0.106	-0.556	-16.8	25.41	15.54
34048	-0.849	-0.036	-0.524	-24.43	37.24	21.77
34068	-0.917	-0.047	-0.579	-32.62	36.96	24.29
34088	-0.699	-0.044	-0.594	-19.53	44.31	30.66
34108	-0.676	-0.094	-0.556	-6.79	62.23	34.79
34127	-0.942	-0.095	-0.612	-1.05	54.32	32.83
34148	-0.885	0.038	-0.593	-25.83	47.04	22.33
34167	-0.868	0.048	-0.581	-41.23	57.4	19.95
34186	-0.796	0.008	-0.582	-35.49	62.86	17.78
34210	-0.91	-0.048	-0.582	-18.55	79.8	15.47
34229	-0.991	-0.034	-0.591	-13.93	85.4	6.23
34249	-0.854	-0.026	-0.679	-25.76	98.14	-6.86
34273	-0.725	-0.005	-0.696	-46.06	105.21	-9.59
34290	-0.447	0.239	-0.717	-62.44	106.33	-3.92
34310	-0.371	-0.101	-0.695	-44.24	108.99	-0.98
34334	-0.367	0.262	-0.741	-26.18	94.85	1.82
34352	-0.33	0.386	-0.732	-20.79	87.71	9.8
34374	-0.188	0.423	-0.701	-14.28	88.9	26.39
34394	-0.325	0.357	-0.77	2.1	87.57	32.48
34415	-0.533	0.298	-0.896	31.15	100.52	34.02
34434	-0.604	0.154	-0.837	35.77	103.88	27.86
34452	-0.448	0.028	-0.915	22.12	100.94	16.38
34474	-0.269	0.021	-0.957	1.4	99.26	1.61
34494	-0.24	0.051	-0.937	-12.88	96.18	-9.94
34514	-0.243	0.141	-0.934	-12.39	86.87	-15.05
34537	-0.206	0.262	-0.952	-10.64	79.94	-13.16
34557	-0.12	0.252	-0.985	-10.29	73.85	-7.28
34577	-0.084	0.215	-0.977	2.1	70.49	-3.29
34597	-0.189	0.153	-0.957	7.28	66.08	-4.2
34621	-0.152	0.144	-1.039	3.85	62.58	-7.63
34641	-0.157	0.152	-1.035	-2.24	56.42	-10.71
34661	-0.12	0.138	-1.036	-5.04	52.78	-16.31
34681	-0.116	0.168	-1.052	-5.95	48.51	-17.01
34701	-0.121	0.16	-0.985	-8.19	48.16	-13.79
34721	-0.116	0.116	-0.995	-5.18	53.41	-12.6
34740	-0.053	0.108	-0.959	-11.55	56.56	-11.41
34759	0.044	0.09	-1.002	-11.13	45.29	-9.8
34784	0.118	0.15	-1.012	-13.37	37.45	-7.91
34804	0.085	0.154	-0.972	-13.16	35.0	-5.39
34823	0.086	0.166	-0.953	-14.77	32.76	-6.09
34843	0.103	0.162	-0.997	-8.19	28.84	-4.69
34863	0.142	0.165	-1.002	-6.23	21.0	-5.18
34887	0.038	0.102	-1.064	-5.74	17.29	-5.95
34907	0.018	0.095	-1.023	-2.52	14.35	-0.56
34925	0.081	0.074	-1.007	-5.53	12.25	0.28
34947	0.103	0.011	-0.969	-10.92	5.81	-0.28
34966	0.281	0.136	-0.952	-8.33	-5.81	4.69
34990	0.241	0.229	-0.952	-4.97	-15.54	13.3
35010	0.109	0.224	-0.999	6.58	-22.68	21.7
35034	0.005	0.163	-1.085	14.84	-29.61	31.43
35053	-0.081	0.046	-1.083	17.71	-38.43	31.78
35070	0.149	0.069	-1.092	16.66	-42.7	26.95
35094	0.157	0.073	-1.066	4.9	-51.87	17.92
35113	0.179	0.147	-1.059	0.84	-63.14	13.44
35135	0.023	0.135	-1.05	5.04	-73.64	10.99
35159	-0.058	0.162	-1.084	3.01	-81.83	11.62
35178	-0.101	0.227	-1.017	8.61	-84.91	10.08
35198	-0.097	0.195	-1.015	5.25	-88.83	9.03
35217	-0.09	0.167	-1.018	10.08	-93.94	2.24
35242	-0.061	0.228	-0.964	11.97	-99.47	-5.74
35260	-0.064	0.099	-0.964	3.71	-107.38	-10.92
35284	-0.089	-0.27	-0.891	43.82	-121.03	-18.76
35303	0.061	0.531	-0.888	56.84	-113.05	-2.52
35327	-0.066	0.238	-0.803	23.73	-118.79	-10.71
35347	-0.032	0.204	-0.923	2.45	-137.13	-16.17
35366	-0.135	-0.007	-0.948	35.77	-140.07	-15.26
35386	-0.264	0.074	-0.831	91.49	-148.26	-2.8
35410	-0.398	0.099	-0.904	100.87	-142.8	6.72
35428	-0.742	-0.105	-0.62	55.93	-157.15	0.07
35447	-0.575	-0.333	-0.606	34.72	-164.78	-17.99
35472	-0.388	-0.136	-0.843	14.28	-168.63	-27.09
35490	-0.752	0.15	-0.642	-19.74	-160.09	-26.74
35509	-1.17	0.16	-0.666	-28.42	-142.59	-28.63
35533	-1.403	0.2	-0.351	14.56	-135.66	-38.22
35552	-1.163	0.156	-0.468	22.75	-107.73	-48.02
35573	-0.877	0.156	-0.652	10.08	-100.94	-43.4
35593	-0.702	-0.112	-0.628	-20.23	-96.95	-36.82
35613	-0.702	-0.569	-0.515	-33.39	-91.21	-21.07
35637	-1.323	-0.316	-0.603	-43.12	-148.54	-28.49
35657	-0.567	0.244	-0.375	-5.25	-86.31	-10.43
35676	-0.824	0.134	-0.423	-9.8	-90.23	-16.45
35697	-0.869	-0.013	-0.533	-33.04	-93.31	-15.96
35713	-0.784	-0.047	-0.467	-32.76	-92.54	-12.11
35733	-0.919	-0.023	-0.359	-29.82	-81.27	-15.75
35757	-1.007	0.035	-0.095	-28.14	-67.9	-20.72
35776	-0.927	-0.084	-0.183	-26.32	-56.56	-17.64
35797	-0.9	-0.166	-0.211	-26.32	-49.49	-17.64
35813	-0.889	-0.125	-0.265	-32.13	-43.12	-13.3
35833	-0.917	-0.172	-0.248	-24.22	-38.78	-4.83
35852	-0.975	-0.122	-0.234	-12.81	-38.57	-4.2
35876	-0.971	-0.008	-0.167	-13.16	-36.82	-6.79
35894	-1.02	-0.144	-0.228	-15.96	-40.46	-8.82
35918	-0.948	-0.27	-0.159	-4.2	-36.19	-7.0
35937	-0.934	-0.079	-0.243	9.87	-28.42	-5.04
35956	-1.039	-0.071	-0.221	19.18	-39.69	-3.99
35980	-0.987	-0.143	-0.195	24.08	-41.72	-3.01
36000	-0.98	-0.103	-0.215	17.36	-42.49	3.57
36020	-0.961	0.068	-0.076	8.68	-36.96	-1.4
36040	-0.996	-0.078	-0.089	-4.62	-31.15	-4.62
36060	-0.947	-0.239	-0.021	-2.1	-28.63	0.49
36079	-0.88	-0.26	0.024	3.71	-17.22	7.98
36098	-0.912	-0.353	0.009	17.92	-10.43	11.62
36118	-0.87	-0.02	-0.066	40.81	6.23	11.48
36138	-1.1	-0.015	-0.104	35.7	4.83	10.85
36162	-0.963	-0.174	-0.062	38.92	4.83	10.99
36182	-0.952	-0.146	0.025	38.08	18.62	19.53
36202	-0.934	0.023	0.051	43.05	42.35	23.59
36222	-1.048	0.152	0.038	28.63	67.41	28.77
36246	-1.085	-0.047	-0.123	26.53	76.58	35.14
36265	-1.207	-0.166	-0.282	36.4	72.17	45.01
36289	-1.362	-0.006	-0.23	29.4	76.79	58.38
36309	-1.376	-0.543	-0.314	35.91	74.62	48.79
36325	-1.236	-0.448	-0.104	86.66	83.44	44.31
36349	-1.274	-0.224	0.072	111.93	86.87	26.95
36369	-1.155	-0.083	0.234	112.42	61.53	8.12
36389	-1.042	0.146	0.438	84.7	29.4	-3.5
36409	-1.007	0.22	0.554	50.89	0.84	-6.16
36429	-1.019	0.13	0.514	28.77	-35.42	-7.42
36452	-1.011	0.133	0.458	29.33	-73.43	-4.83
36471	-1.091	0.144	0.412	36.47	-100.73	-4.13
36495	-1.132	0.095	0.272	46.83	-123.62	2.52
36516	-1.166	0.126	0.218	64.47	-150.78	9.17
36534	-1.139	0.189	0.169	63.63	-164.08	15.96
36556	-1.173	0.135	0.086	64.82	-173.81	24.15
36575	-1.201	0.006	-0.01	50.4	-177.8	24.64
36595	-1.194	-0.086	-0.028	52.43	-180.67	23.8
36615	-1.109	0.001	0.022	44.87	-184.59	22.05
36639	-1.096	0.01	0.035	18.83	-178.99	15.89
36656	-1.128	0.037	-0.025	12.39	-176.33	34.86
36675	-1.134	-0.048	-0.034	12.95	-172.69	22.54
36698	-0.928	-0.225	-0.265	-3.85	-151.97	20.23
36717	-1.069	-0.27	-0.125	42.07	-130.69	23.31
36742	-0.98	0.132	0.09	43.19	-126.42	27.02
36762	-0.873	-0.012	0.083	-1.12	-109.9	16.73
36782	-0.757	-0.179	0.017	13.09	-78.4	11.41
36800	-0.906	-0.113	-0.108	15.68	-66.5	1.05
36822	-0.699	-0.019	-0.118	14.77	-29.89	-8.54
36839	-0.592	-0.225	-0.174	6.23	-10.85	-9.52
36862	-0.376	-0.342	-0.763	56.63	38.43	-14.63
36882	-0.641	-0.102	-0.461	76.23	80.99	-13.16
36902	-0.673	-0.105	1.734	160.79	189.7	21.98
36920	-2.246	0.722	0.286	-93.03	-37.24	-26.81
36942	0.547	-0.265	1.555	95.13	328.93	-42.84
36966	-2.322	-0.093	-0.688	77.49	101.08	-36.26
36986	-2.751	0.73	-0.54	41.58	230.23	-50.75
37006	-0.841	0.414	0.455	-30.73	55.79	-59.78
37024	-0.075	-0.14	-0.228	-126.77	135.31	-36.47
37046	-0.941	-0.764	-0.422	50.19	235.2	-64.26
37070	-2.221	0.475	-0.429	-57.19	27.93	-66.15
37090	-1.338	0.017	0.199	0.49	93.8	-38.99
37110	-0.645	-0.55	-0.301	12.46	105.0	-35.49
37130	-0.932	0.181	-0.27	49.0	121.73	-32.76
37149	-1.222	0.088	0.015	12.81	98.56	-28.7
37170	-0.969	-0.059	-0.16	8.82	109.9	-29.05
37194	-0.995	-0.2	-0.057	7.35	82.74	-33.67
37214	-0.771	-0.348	-0.225	24.99	121.17	-24.5
37238	-1.04	-0.029	-0.341	22.26	91.84	-25.9
37255	-1.258	0.149	-0.306	25.69	107.03	-23.24
37275	-0.76	-0.018	-0.617	4.76	103.04	-26.88
37295	-0.793	-0.101	-0.575	-5.32	51.73	-23.94
37319	-0.696	-0.369	-0.342	10.71	116.27	-11.48
37339	-1.343	-0.205	-0.552	26.95	59.64	-12.53
37357	-1.088	-0.2	-0.445	24.99	87.08	-10.99
37378	-0.956	-0.224	-0.4	-0.14	45.64	-20.86
37398	-0.578	-0.316	-0.66	4.9	51.24	-15.12
37419	-0.776	-0.012	-0.642	25.9	79.24	-4.83
37443	-1.259	-0.081	-0.634	13.23	49.35	-0.63
37463	-0.974	-0.005	-0.596	-7.07	46.2	-4.34
37483	-0.748	-0.047	-0.642	-11.34	30.8	-8.12
37501	-0.663	0.017	-0.675	-12.81	29.4	-8.4
37520	-0.651	-0.08	-0.71	-8.54	27.51	-6.23
37544	-0.678	-0.243	-0.693	-6.23	16.73	-10.08
37560	-0.755	-0.274	-0.516	4.48	24.01	-13.3
37582	-0.814	-0.136	-0.742	7.42	15.61	-16.59
37601	-1.02	-0.107	-0.694	-2.73	-0.84	-13.3
37626	-0.834	-0.203	-0.596	1.54	-6.65	-7.28
37644	-0.769	-0.278	-0.561	6.93	-3.71	-6.86
37666	-0.865	-0.069	-0.687	-4.9	-6.65	-7.28
37686	-0.855	-0.181	-0.617	-2.87	1.19	-0.63
37710	-0.874	-0.206	-0.636	-1.89	-4.48	8.96
37730	-0.726	-0.254	-0.629	12.6	3.57	15.68
37749	-0.689	-0.164	-0.602	20.86	2.66	14.63
37768	-0.803	-0.148	-0.615	5.39	-4.83	11.27
37790	-0.877	-0.097	-0.714	1.19	-19.88	8.75
37814	-0.836	-0.082	-0.698	2.66	-37.31	8.82
37834	-0.76	-0.162	-0.674	1.12	-44.45	11.62
37852	-0.844	-0.05	-0.673	-5.53	-56.14	5.18
37874	-0.925	-0.095	-0.607	-18.06	-60.34	-0.07
37894	-0.953	-0.107	-0.616	-10.5	-64.19	-0.77
37914	-0.886	-0.012	-0.565	-8.89	-67.83	-1.4
37933	-0.743	-0.08	-0.617	-26.32	-75.81	-0.42
37954	-0.836	-0.09	-0.59	-23.38	-80.08	1.89
37973	-0.962	-0.222	-0.558	-19.81	-83.58	3.71
37997	-0.831	-0.151	-0.478	-13.51	-75.18	4.9
38017	-0.843	-0.097	-0.434	-13.02	-86.31	8.05
38041	-0.979	-0.201	-0.575	-34.72	-111.02	9.38
38057	-0.993	-0.213	-0.456	-30.03	-101.01	11.13
38077	-0.965	-0.153	-0.427	-10.92	-106.33	33.18
38101	-0.934	-0.12	-0.355	-10.78	-108.29	30.03
38121	-1.006	-0.125	-0.384	-13.02	-125.23	38.71
38141	-0.962	-0.156	-0.375	-16.73	-144.62	42.14
38161	-1.048	-0.065	-0.111	-39.62	-162.61	48.44
38181	-0.923	-0.069	-0.25	-48.44	-178.36	49.7
38201	-1.053	-0.022	-0.29	-46.97	-192.99	48.44
38221	-1.159	0.027	-0.691	-33.39	-213.5	48.09
38245	-1.018	-0.015	-0.957	-33.04	-175.07	26.46
38265	-1.688	-0.332	-0.151	11.13	-189.7	15.96
38285	-1.227	-0.088	0.176	57.89	-217.49	26.6
38309	-0.978	0.103	0.142	50.33	-159.67	22.68
38327	-0.875	0.322	0.203	-3.71	-110.11	1.61
38348	-0.572	0.17	0.148	-59.43	-74.9	-9.1
38369	-0.368	-0.022	-0.3	-76.65	77.07	-22.96
38388	-0.645	-0.088	-0.476	-37.8	139.58	1.47
38412	-0.873	-0.079	-0.5	-39.76	196.21	18.69
38432	-1.114	-0.44	-0.719	17.36	239.12	12.39
38452	-1.342	0.036	-0.297	46.41	205.03	-9.24
38470	-0.995	0.029	-0.217	21.7	208.95	-16.38
38494	-0.853	0.086	-0.285	1.33	214.9	-20.93
38514	-0.865	0.109	-0.314	-51.17	201.88	-25.34
38534	-0.958	-0.001	-0.211	-53.06	184.87	-38.36
38554	-0.855	0.087	-0.132	-69.09	175.91	-47.39
38569	-0.894	0.111	-0.075	-83.93	168.56	-48.37
38594	-0.924	0.184	-0.159	-93.1	155.89	-41.37
38609	-0.93	0.008	-0.198	-83.86	139.79	-38.43
38633	-1.004	0.188	-0.01	-74.48	116.2	-29.54
38654	-1.154	0.111	-0.05	-106.75	91.63	-33.39
38674	-1.14	-0.091	-0.03	-96.11	76.37	-29.96
38694	-1.094	-0.037	-0.036	-89.88	63.84	-25.48
38714	-1.211	-0.103	-0.005	-68.53	42.63	-22.12
38738	-1.234	-0.168	0.199	-60.34	7.77	-36.61
38756	-1.283	-0.224	0.229	-48.37	-10.01	-41.58
38775	-1.209	-0.132	0.308	-35.14	-25.2	-41.09
38795	-1.288	-0.12	0.167	-19.6	-54.46	-34.37
38820	-1.486	-0.362	0.19	-26.95	-74.06	-52.64
38840	-1.416	-0.239	0.266	-34.51	-101.64	-58.03
38860	-1.227	-0.088	0.303	-53.41	-108.5	-54.95
38875	-1.392	-1.0	-0.43	-6.23	-116.83	-60.9
38899	-0.979	-0.171	-0.614	13.09	-82.04	-42.49
38920	-1.163	0.005	-0.079	-3.78	-70.7	-24.08
38940	-1.083	-0.286	-0.016	-9.94	-59.85	-26.32
38960	-1.086	0.081	-0.278	41.93	-46.55	-4.13
38979	-1.118	0.162	0.009	30.52	-27.93	-11.97
39004	-0.956	0.001	-0.206	24.85	-7.49	-15.26
39024	-0.859	-0.23	-0.179	20.23	-3.57	-19.67
39044	-0.776	-0.37	-0.321	55.65	-7.14	-11.06
39064	-1.015	0.423	-0.07	13.02	4.83	-16.03
39084	-1.006	-0.079	-0.165	-15.68	-2.59	-26.74
39104	-0.901	-0.325	-0.293	-2.24	3.85	-15.19
39124	-0.936	-0.307	-0.272	36.96	6.65	-1.89
39144	-0.941	-0.007	-0.251	29.05	3.36	-0.28
39164	-1.092	0.062	-0.209	1.33	-6.51	-5.6
39184	-0.878	-0.234	-0.29	-8.4	11.13	-6.72
39202	-0.951	-0.134	-0.258	-10.15	8.33	-0.14
39220	-0.964	-0.186	-0.263	-3.99	9.03	6.44
39244	-0.971	-0.103	-0.248	5.32	13.93	7.91
39263	-0.942	-0.102	-0.23	6.23	17.99	7.56
39287	-0.935	-0.171	-0.284	7.07	21.84	8.4
39305	-0.932	-0.134	-0.267	11.06	23.59	7.0
39329	-0.959	0.039	-0.267	7.91	29.26	6.65
39345	-0.955	-0.103	-0.281	3.22	26.18	6.65
39369	-0.931	-0.127	-0.235	2.38	36.19	6.44
39384	-0.877	-0.074	-0.205	-1.54	49.07	5.95
39408	-0.905	-0.146	-0.381	-0.07	54.25	4.62
39429	-0.905	-0.077	-0.406	3.15	53.83	5.74
39450	-0.998	-0.075	-0.359	-11.41	51.17	3.22
39474	-0.923	-0.024	-0.403	-14.35	57.05	3.29
39494	-0.829	-0.113	-0.504	-11.34	58.38	-2.24
39518	-0.976	-0.064	-0.508	-7.7	61.25	-1.68
39538	-0.946	-0.107	-0.551	-10.99	55.23	2.59
39556	-0.934	-0.11	-0.513	-12.95	44.38	5.74
39576	-0.843	-0.042	-0.529	-8.05	50.47	15.4
39598	-1.033	-0.051	-0.473	-9.59	49.28	15.12
39620	-0.993	-0.045	-0.52	-9.1	53.41	15.68
39640	-0.901	-0.054	-0.537	-9.38	56.56	16.73
39660	-0.841	-0.009	-0.545	-15.68	66.85	19.67
39679	-0.901	-0.073	-0.562	-14.91	64.54	20.93
39703	-0.898	0.087	-0.594	-12.04	71.19	26.18
39724	-0.943	0.067	-0.6	-16.73	69.72	28.07
39744	-0.924	-0.073	-0.584	-13.02	70.98	26.67
39759	-0.998	-0.05	-0.58	-18.13	76.37	27.72
39783	-0.903	-0.06	-0.493	-40.88	78.05	15.4
39803	-0.87	-0.135	-0.616	-30.24	91.56	15.4
39823	-0.842	0.069	-0.69	-17.08	91.42	11.62
39847	-0.778	0.132	-0.756	-29.68	72.66	8.82
39867	-0.394	0.169	-0.909	-38.57	51.87	11.62
39886	-0.149	0.152	-0.927	-38.92	56.56	14.49
39909	-0.194	0.162	-0.952	-39.48	37.45	12.11
39930	-0.288	0.218	-0.941	-35.21	4.13	19.18
39950	-0.292	0.092	-0.853	-25.27	-2.73	23.52
39969	-0.371	0.135	-0.768	-7.35	-12.53	20.65
39989	-0.394	0.159	-0.757	-12.18	-11.83	16.03
40013	-0.516	0.164	-0.719	-15.19	-1.89	13.86
40033	-0.591	0.1	-0.689	-20.3	9.66	13.16
40053	-0.655	0.024	-0.705	-6.09	20.44	12.67
40072	-0.618	0.075	-0.661	-1.75	23.87	11.34
40096	-0.546	0.058	-0.773	-1.82	37.66	5.67
40114	-0.52	0.203	-0.837	0.42	37.52	5.74
40138	-0.431	0.246	-0.789	2.59	38.85	9.03
40158	-0.367	0.292	-0.821	8.96	27.37	9.94
40176	-0.217	0.353	-0.88	14.07	25.76	9.17
40195	-0.345	0.406	-0.839	9.8	29.68	10.92
40216	-0.485	0.213	-0.81	13.44	27.09	14.91
40240	-0.494	0.203	-0.753	14.91	28.49	15.19
40260	-0.365	0.233	-0.767	27.23	38.22	16.24
40278	-0.342	0.188	-0.824	29.19	34.93	17.5
40296	-0.415	0.172	-0.848	31.01	39.34	18.06
40320	-0.358	0.169	-0.82	24.36	34.86	21.49
40340	-0.292	0.128	-0.939	28.07	45.01	18.48
40360	-0.368	0.162	-0.843	20.16	41.09	21.42
40380	-0.231	0.026	-0.986	24.08	36.19	19.53
40400	-0.299	0.097	-0.97	35.91	35.35	14.63
40420	-0.397	0.043	-0.987	15.33	33.95	11.76
40444	-0.503	-0.028	-0.922	7.63	42.28	8.68
40464	-0.428	-0.11	-0.913	4.48	44.52	-3.08
40483	-0.398	-0.051	-1.029	6.3	38.78	-6.51
40501	-0.333	0.135	-1.028	5.32	35.98	-8.26
40525	-0.296	0.159	-1.049	-5.32	32.06	-1.82
40545	-0.373	0.159	-1.039	7.07	16.73	-1.33
40565	-0.28	0.366	-1.08	10.64	6.02	-1.61
40583	-0.24	0.34	-1.077	0.07	-6.3	-2.03
40607	-0.26	0.213	-1.047	2.73	-17.01	-4.48
40627	-0.301	0.139	-1.027	11.27	-25.2	-7.77
40647	-0.327	0.17	-0.976	9.52	-33.25	-7.98
40667	-0.286	0.083	-1.036	2.59	-37.38	-7.21
40683	-0.31	0.037	-0.986	5.88	-43.68	-9.8
40707	-0.256	0.125	-0.973	-3.15	-50.82	-9.73
40723	-0.286	0.038	-0.946	-12.25	-52.15	-9.8
40743	-0.323	-0.058	-0.943	-4.34	-52.43	-12.88
40762	-0.354	0.078	-0.885	1.54	-50.05	-13.16
40787	-0.358	0.136	-0.913	-7.0	-52.64	-13.3
40806	-0.382	0.111	-0.933	-8.26	-52.22	-14.84
40828	-0.411	0.091	-0.885	-3.64	-50.82	-17.01
40848	-0.38	0.112	-0.917	-0.42	-56.42	-18.55
40872	-0.368	0.115	-0.871	3.22	-60.06	-18.55
40892	-0.267	0.071	-0.902	14.63	-73.71	-20.51
40912	-0.214	0.035	-0.907	26.88	-78.4	-21.7
40932	-0.239	0.102	-0.852	40.32	-87.85	-18.55
40949	-0.425	0.073	-0.84	25.48	-98.77	-18.55
40967	-0.43	-0.056	-0.84	17.57	-100.31	-20.58
40990	-0.535	-0.133	-0.802	9.03	-98.35	-27.86
41010	-0.701	-0.13	-0.774	13.86	-100.8	-31.57
41030	-0.623	0.217	-0.79	11.27	-106.05	-26.88
41049	-0.75	0.506	-0.767	-24.29	-117.04	-32.2
41073	-0.751	0.254	-0.532	-18.13	-108.92	-34.72
41092	-0.884	-0.388	-0.564	3.15	-91.56	-36.82
41115	-0.882	-0.414	-0.532	44.52	-109.55	-31.99
41134	-0.845	-0.048	-0.556	37.73	-108.15	-23.1
41154	-0.768	0.238	-0.597	37.87	-98.77	-12.11
41179	-1.133	0.107	-0.475	50.96	-83.09	-2.94
41198	-1.248	-0.007	-0.311	61.88	-63.7	-9.03
41218	-1.041	-0.09	-0.42	52.22	-51.73	-9.8
41242	-0.865	-0.073	-0.45	32.48	-45.01	-2.24
41262	-0.837	-0.08	-0.576	21.07	-42.49	3.85
41282	-0.863	-0.003	-0.526	20.3	-49.49	5.18
41302	-0.921	-0.064	-0.524	21.35	-56.7	6.16
41323	-0.827	-0.015	-0.441	20.02	-59.01	4.9
41347	-0.818	-0.034	-0.378	12.11	-56.42	1.33
41367	-0.843	-0.136	-0.404	17.71	-53.2	-1.68
41387	-0.874	-0.044	-0.403	24.29	-53.62	-3.22
41405	-0.915	-0.144	-0.299	24.15	-49.77	-3.01
41429	-0.981	-0.123	-0.237	19.25	-46.97	-3.71
41445	-0.962	0.076	-0.323	15.54	-41.16	-2.03
41467	-0.955	-0.14	-0.419	-16.1	-34.16	-14.14
41488	-0.976	-0.107	-0.336	-6.58	-38.29	-6.37
41512	-0.958	-0.05	-0.265	-10.78	-39.97	-1.61
41532	-0.954	-0.128	-0.23	-0.07	-36.61	0.07
41552	-0.98	-0.167	-0.218	12.39	-35.07	0.28
41572	-0.957	-0.135	-0.268	21.56	-33.67	3.36
41592	-0.977	-0.016	-0.272	10.92	-36.82	2.59
41612	-1.004	0.016	-0.221	-8.89	-40.46	2.31
41632	-0.964	-0.104	-0.194	-12.46	-38.36	1.89
41656	-0.981	-0.136	-0.186	-9.8	-37.45	5.81
41675	-0.99	-0.176	-0.181	-5.25	-32.76	9.38
41696	-0.958	0.021	-0.165	9.94	-29.61	12.18
41720	-0.988	-0.061	-0.138	-4.41	-29.61	5.74
41744	-0.929	-0.078	-0.081	0.7	-20.86	8.75
41760	-0.94	-0.05	-0.015	-11.97	-6.3	12.39
41779	-0.865	-0.05	0.038	-22.26	10.01	15.82
41804	-0.871	-0.031	0.062	-27.16	40.39	18.55
41820	-0.954	-0.079	0.018	-17.08	57.96	18.41
41844	-1.033	-0.083	0.002	-13.86	78.26	18.2
41864	-1.11	0.104	-0.001	-2.94	87.5	18.62
41880	-1.218	0.143	-0.149	-11.34	91.77	22.54
41900	-1.359	0.136	-0.212	-33.6	100.59	24.01
41920	-1.356	-0.13	-0.248	-24.64	103.46	25.97
41944	-1.39	-0.137	-0.179	4.48	98.14	39.41
41964	-1.431	-0.248	0.096	43.26	75.04	36.61
41984	-1.017	-0.145	0.207	72.31	54.6	35.35
42002	-1.06	-0.107	0.309	74.76	25.34	24.92
42023	-1.038	-0.041	0.364	68.18	-8.61	13.65
42044	-1.078	0.026	0.366	47.04	-42.07	-2.8
42060	-1.111	0.068	0.308	29.61	-63.7	-8.89
42080	-1.09	0.104	0.249	14.35	-85.26	-12.11
42104	-1.098	0.088	0.086	-6.09	-110.88	-10.71
42124	-1.096	0.084	0.009	-6.58	-128.31	-10.01
42144	-1.233	0.077	0.007	-3.85	-149.38	-10.5
42162	-1.194	0.053	0.022	0.7	-163.24	-7.07
42185	-1.112	-0.012	-0.019	21.14	-175.63	-0.14
42204	-1.09	0.055	-0.027	26.32	-181.72	1.89
42228	-1.121	0.081	-0.267	1.75	-187.81	2.24
42248	-1.108	0.046	-0.161	-7.42	-181.44	3.08
42266	-1.191	-0.072	-0.113	-1.96	-194.53	5.74
42285	-1.069	-0.1	-0.157	11.41	-190.47	12.11
42306	-1.096	-0.093	-0.111	30.52	-183.89	13.51
42330	-1.119	-0.03	-0.067	26.11	-176.26	14.98
42350	-1.03	-0.079	-0.262	23.17	-163.94	16.66
42370	-0.969	0.0	-0.216	32.2	-135.03	16.38
42390	-0.988	-0.029	-0.02	26.11	-132.72	7.21
42410	-0.794	-0.034	-0.039	35.07	-109.27	2.66
42433	-0.7	0.17	-0.025	11.27	-69.44	5.25
42451	-0.636	-0.085	-0.201	-0.7	-43.26	2.73
42470	-0.658	-0.12	-0.124	25.62	-9.59	-3.99
42495	-0.636	-0.051	-0.123	40.46	33.25	-5.11
42513	-0.59	-0.084	-0.224	49.0	65.66	-5.04
42537	-0.61	-0.085	-0.187	46.62	115.64	-9.17
42557	-1.496	0.4	3.707	76.93	177.38	-4.69
42581	-1.434	-0.64	-1.342	-11.83	-38.01	-21.77
42600	0.115	-0.409	0.464	150.15	221.9	-33.74
42621	-2.148	0.239	-0.427	167.09	117.53	-10.71
42641	-1.883	1.338	-0.121	54.81	191.66	-35.84
42661	-1.103	0.564	0.494	-66.92	96.25	-63.84
42685	-0.04	-0.367	-0.051	-105.63	127.19	-36.19
42703	-1.057	-1.182	-0.83	-42.63	215.67	-64.19
42722	-2.099	0.331	0.139	126.28	162.68	-23.8
42747	-0.945	0.071	-0.207	63.91	111.51	-45.64
42767	-0.558	0.273	-0.204	46.97	133.21	-29.33
42783	-1.037	0.036	-0.24	24.85	136.22	-31.85
42806	-1.052	0.033	0.046	12.95	111.23	-45.29
42826	-0.706	-0.337	-0.181	-1.96	102.69	-55.23
42849	-1.207	-0.057	-0.397	30.59	107.24	-42.91
42870	-0.976	0.048	-0.461	0.84	75.04	-45.64
42894	-0.597	-0.037	-0.665	-6.58	69.65	-41.72
42914	-0.5	-0.174	-0.559	-2.1	57.33	-39.06
42931	-0.677	-0.394	-0.197	-5.95	89.18	-38.29
42949	-1.757	-0.091	-0.387	15.12	81.06	-30.59
42974	-0.478	-0.168	-0.284	21.42	72.66	-24.99
42994	-0.776	-0.283	-0.327	-1.47	66.5	-24.92
43014	-1.062	-0.193	-0.463	-4.69	56.07	-21.42
43030	-0.917	-0.25	-0.513	3.15	60.62	-17.64
43053	-0.779	-0.279	-0.549	12.18	57.47	-22.47
43073	-0.797	-0.044	-0.569	23.31	57.61	-23.45
43093	-1.081	-0.097	-0.595	4.27	45.57	-26.74
43112	-0.902	-0.166	-0.615	-3.36	46.41	-26.6
43135	-0.793	-0.136	-0.65	-18.76	21.91	-25.27
43159	-0.736	-0.327	-0.564	-3.5	20.51	-25.2
43175	-0.593	-0.4	-0.486	7.7	39.9	-18.69
43199	-0.805	-0.277	-0.623	4.83	31.15	-19.81
43219	-0.956	-0.14	-0.663	12.18	38.15	-15.26
43239	-0.864	-0.424	-0.543	8.61	7.49	-17.15
43254	-0.388	-0.497	-0.569	16.73	17.64	-9.03
43274	-0.332	-0.364	-0.541	23.1	7.77	-7.84
43299	-0.848	0.144	-0.768	-12.39	27.23	1.61
43318	-1.188	-0.078	-0.792	-18.2	1.75	2.94
43337	-0.923	-0.081	-0.755	-16.31	-9.31	8.54
43357	-0.581	-0.19	-0.707	-25.13	-24.08	9.73
43378	-0.61	-0.277	-0.654	-23.66	-26.39	2.59
43401	-0.91	-0.113	-0.729	-31.64	-42.56	-4.97
43425	-0.953	-0.294	-0.718	-23.45	-43.33	-8.47
43445	-0.835	-0.074	-0.629	-13.51	-45.71	-5.95
43465	-0.657	-0.347	-0.598	-10.78	-52.64	-6.16
43483	-0.738	-0.298	-0.584	-1.96	-55.02	-11.48
43507	-0.845	-0.168	-0.596	-2.94	-57.26	-4.34
43526	-0.888	-0.167	-0.591	-21.56	-73.01	1.89
43550	-0.77	-0.28	-0.554	-18.2	-75.67	9.59
43570	-0.859	-0.199	-0.573	-16.17	-82.46	10.78
43588	-0.896	-0.145	-0.47	-25.41	-86.45	15.75
43612	-0.818	-0.202	-0.476	-27.93	-93.73	15.75
43632	-0.929	-0.194	-0.473	-22.54	-96.6	15.33
43650	-1.025	-0.146	-0.454	-14.35	-100.1	19.88
43672	-0.917	-0.142	-0.499	-16.52	-113.82	25.27
43692	-0.895	-0.169	-0.462	-34.23	-127.33	21.84
43712	-0.936	-0.164	-0.35	-45.22	-134.96	23.17
43731	-1.059	-0.162	-0.53	-67.55	-145.39	23.94
43751	-1.031	-0.12	-0.296	-55.3	-149.94	38.43
43772	-1.085	-0.035	-0.369	-41.79	-173.39	53.69
43787	-1.068	0.142	-0.608	-30.24	-184.45	58.66
43807	-1.165	0.091	-0.529	-35.07	-203.0	56.56
43827	-1.006	-0.472	-0.532	-39.97	-177.59	26.11
43847	-1.196	-0.964	-0.44	11.27	-197.05	-2.45
43872	-1.162	-0.186	-0.078	89.46	-190.61	23.1
43892	-1.183	0.134	0.134	56.07	-157.36	29.89
43908	-1.226	-0.008	-0.055	34.58	-149.03	22.19
43928	-0.762	-0.358	0.246	71.19	-111.37	9.8
43951	-0.771	0.102	-0.295	91.84	-57.82	5.81
43972	-0.769	0.089	-0.514	0.35	56.84	-19.74
43990	-0.656	0.293	-0.407	-53.9	89.53	-2.38
44014	-0.568	-0.39	-0.574	-55.79	150.5	0.28
44034	-1.078	-0.396	-0.615	44.66	169.26	-4.06
44054	-1.186	0.386	-0.16	48.65	156.87	-12.39
44072	-1.047	0.428	-0.242	3.01	160.72	-24.85
44095	-0.976	0.213	-0.256	-74.62	181.3	-26.53
44119	-1.083	-0.217	-0.282	-72.52	184.17	-33.53
44139	-1.058	-0.027	-0.243	-64.96	185.29	-39.48
44155	-1.146	0.139	-0.122	-93.94	180.95	-44.73
44175	-0.976	0.122	-0.044	-99.47	175.77	-31.15
44199	-1.079	0.081	0.023	-83.16	161.35	-17.92
44219	-1.119	0.081	0.033	-63.84	140.49	-8.96
44239	-1.071	0.048	0.099	-53.62	108.22	-12.74
44258	-0.986	-0.018	0.105	-41.79	86.66	-17.85
44277	-1.076	0.053	0.086	-34.93	65.24	-18.27
44296	-1.126	0.179	0.045	-58.03	43.68	-24.78
44316	-1.236	0.028	0.049	-88.48	24.29	-29.68
44341	-1.247	-0.089	0.074	-90.86	4.55	-26.88
44359	-1.207	-0.211	0.048	-80.22	-4.55	-29.4
44379	-1.195	-0.188	0.049	-60.13	-15.47	-28.91
44403	-1.141	-0.067	0.042	-53.34	-21.63	-33.32
44421	-1.205	-0.035	0.058	-63.98	-33.88	-44.45
44445	-1.293	-0.15	0.087	-83.58	-37.8	-54.18
44465	-1.247	-0.237	0.049	-75.46	-47.88	-50.05
44485	-1.176	-0.315	0.182	-48.02	-53.83	-37.03
44501	-1.118	-0.135	0.254	-44.94	-56.42	-31.78
44524	-1.075	-0.264	0.148	-38.5	-89.18	-38.08
44545	-1.009	-0.301	0.086	15.33	-86.38	-39.9
44565	-1.042	-0.824	-0.915	37.45	-88.34	-39.97
44585	-0.567	-0.072	-1.078	96.74	-11.76	-19.46
44603	-1.426	0.101	0.342	15.68	-52.36	-19.39
44626	-0.944	0.393	-0.125	-49.49	-6.09	-24.71
44647	-1.161	-0.062	-0.267	-33.95	-1.89	-20.93
44667	-0.916	-0.341	-0.157	37.45	4.62	-17.01
44686	-0.771	-0.248	-0.198	54.95	5.53	-13.16
44706	-0.952	0.176	-0.178	9.87	16.8	-17.43
44727	-1.072	0.023	-0.128	-9.59	17.08	-22.33
44749	-0.93	-0.359	-0.357	16.17	31.92	-13.65
44771	-0.893	-0.277	-0.375	55.23	29.26	-1.19
44790	-1.025	0.001	-0.341	38.64	24.92	5.46
44815	-1.061	0.072	-0.287	0.56	18.48	-0.42
44834	-0.994	-0.053	-0.271	7.49	21.77	-1.96
44855	-0.973	-0.064	-0.237	-8.47	30.31	-4.13
44874	-0.886	-0.163	-0.396	-19.04	34.44	-4.55
44898	-0.981	-0.148	-0.368	-11.13	24.43	-5.04
44917	-0.975	-0.029	-0.332	-27.65	25.83	-7.42
44937	-0.929	-0.159	-0.348	-28.42	25.76	-7.28
44957	-0.941	-0.164	-0.264	-41.65	31.22	-11.76
44977	-0.854	-0.132	-0.457	-23.66	28.42	-4.27
45001	-0.831	-0.084	-0.386	-16.87	34.02	-2.73
45021	-0.839	-0.133	-0.392	-23.66	31.85	-3.15
45041	-0.961	-0.146	-0.393	-19.18	38.57	-2.73
45060	-0.896	0.008	-0.38	-22.82	44.94	-2.45
45080	-0.781	-0.086	-0.518	-19.95	46.48	-0.98
45104	-0.793	-0.114	-0.523	-8.26	52.5	4.83
45123	-0.867	-0.069	-0.48	-12.11	52.15	5.6
45144	-0.959	-0.079	-0.515	-9.87	54.74	10.08
45164	-0.899	-0.011	-0.525	-8.61	54.18	10.5
45180	-0.857	-0.041	-0.577	-5.25	63.77	16.24
45199	-0.831	-0.091	-0.564	3.22	69.16	20.72
45224	-0.954	-0.103	-0.529	-0.7	69.16	22.47
45244	-0.773	-0.096	-0.67	0.77	66.36	24.57
45261	-0.73	0.003	-0.654	6.02	63.21	27.72
45285	-0.716	0.029	-0.652	5.46	69.58	33.04
45304	-0.965	-0.07	-0.683	-12.39	57.96	31.99
45325	-0.897	-0.073	-0.648	-7.84	53.34	30.87
45343	-0.947	0.079	-0.601	-28.07	67.41	33.6
45363	-0.868	0.044	-0.701	-32.13	54.95	39.76
45384	-0.832	-0.023	-0.673	-26.53	77.98	45.71
45408	-0.943	0.006	-0.602	-28.63	91.91	36.89
45426	-0.913	-0.114	-0.727	-12.67	96.11	42.56
45446	-0.652	0.065	-0.673	-3.85	96.46	44.66
45465	-0.525	0.125	-0.784	-10.71	89.67	39.34
45490	-0.657	0.276	-0.709	-42.63	89.04	27.51
45505	-0.381	0.042	-0.987	-27.86	62.65	33.74
45530	-0.117	0.122	-0.866	-4.97	73.64	31.71
45550	-0.441	0.097	-0.978	1.75	75.67	32.27
45570	-0.458	0.148	-0.992	21.98	63.42	37.24
45591	-0.436	0.154	-0.829	17.01	59.29	37.66
45615	-0.433	0.077	-0.762	13.23	58.24	37.52
45631	-0.277	-0.003	-0.863	10.92	40.39	35.56
45655	-0.026	0.006	-0.956	4.55	37.66	28.56
45674	-0.036	0.033	-0.878	3.29	45.99	19.67
45695	-0.194	0.131	-0.832	-13.16	42.91	6.86
45715	-0.205	0.092	-0.93	-21.21	38.99	-4.62
45733	-0.235	0.202	-0.891	-32.41	45.43	-6.09
45756	-0.185	0.247	-0.781	-42.63	49.91	-3.43
45776	-0.122	0.215	-0.739	-31.36	52.99	0.84
45800	-0.078	0.257	-0.776	-1.54	54.6	9.66
45820	-0.113	0.406	-0.95	13.44	50.54	22.26
45840	-0.048	0.432	-1.002	27.58	43.4	34.65
45860	-0.033	0.424	-0.902	36.89	46.2	48.93
45875	-0.046	0.283	-0.817	45.85	35.7	56.56
45895	0.06	0.17	-1.006	80.64	37.59	56.49
45920	-0.04	0.268	-0.98	78.89	34.23	54.81
45940	-0.172	0.137	-1.024	57.54	31.57	49.14
45960	-0.199	0.098	-1.052	33.81	33.46	42.56
45980	-0.314	-0.108	-0.987	26.81	48.02	37.66
46003	-0.259	-0.089	-0.885	43.4	49.42	26.53
46024	-0.066	0.053	-1.129	36.12	51.87	31.15
46044	-0.031	0.041	-1.035	45.22	44.87	35.63
46064	0.147	0.153	-0.962	41.16	35.21	40.11
46083	0.055	0.024	-1.035	40.67	25.62	45.01
46103	-0.104	0.022	-0.97	55.3	18.83	48.58
46127	0.033	0.041	-0.978	68.53	15.68	57.33
46146	0.137	-0.012	-1.074	73.85	11.97	58.8
46165	0.096	-0.095	-1.021	76.86	7.35	56.14
46190	0.102	-0.126	-1.081	71.75	-9.45	58.03
46205	-0.002	-0.23	-1.135	63.77	-14.21	57.19
46228	-0.092	-0.445	-1.153	42.7	-29.89	43.19
46250	-0.0	-0.616	-1.155	21.7	-32.69	20.65
46270	0.087	-0.522	-1.192	-0.77	-38.85	4.41
46287	0.078	-0.507	-1.057	-19.88	-43.96	-4.34
46307	0.122	-0.568	-1.085	-33.32	-56.91	-11.06
46327	0.131	-0.4	-1.051	-39.9	-62.51	-19.18
46347	0.056	-0.392	-0.979	-55.02	-71.47	-26.88
46366	-0.02	-0.361	-0.977	-67.55	-78.75	-35.56
46391	-0.059	-0.282	-0.931	-70.7	-78.33	-44.38
46411	-0.087	-0.182	-0.888	-72.38	-81.48	-49.91
46431	-0.07	-0.042	-0.87	-71.75	-85.05	-54.6
46451	-0.164	0.096	-0.832	-81.97	-89.88	-54.46
46471	-0.182	0.087	-0.856	-76.93	-95.34	-51.59
46495	-0.043	0.001	-0.854	-41.79	-104.58	-49.35
46514	-0.166	0.08	-0.828	-28.7	-109.55	-46.2
46535	-0.122	0.08	-0.866	-25.55	-119.14	-43.54
46559	-0.082	0.057	-0.79	-17.78	-125.93	-42.14
46579	-0.224	0.152	-0.805	-33.67	-145.67	-41.93
46598	-0.216	0.175	-0.904	-32.76	-152.04	-38.36
46616	-0.365	0.13	-1.052	-22.33	-164.64	-42.84
46640	-0.484	0.09	-0.787	-5.25	-154.14	-45.71
46660	-0.745	0.341	-0.644	-28.84	-145.32	-46.9
46684	-0.899	0.493	-0.625	-49.42	-159.46	-40.32
46702	-0.777	0.123	-0.37	-30.03	-134.4	-30.45
46721	-0.829	-0.65	-0.395	39.34	-121.03	-34.37
46740	-1.169	-0.587	-0.576	74.69	-136.08	-29.12
46765	-0.96	0.282	-0.508	51.45	-142.38	-21.21
46784	-1.023	0.519	-0.524	32.62	-112.42	-1.26
46805	-1.381	0.105	-0.208	75.81	-80.99	0.07
46825	-1.366	-0.056	-0.322	87.01	-72.87	-23.52
46845	-0.823	0.044	-0.285	36.82	-45.01	-13.58
46863	-0.7	-0.176	-0.447	17.43	-34.86	-2.24
46883	-0.978	-0.062	-0.471	10.08	-34.44	2.31
46907	-0.979	-0.14	-0.529	26.81	-35.0	3.64
46925	-0.942	-0.001	-0.536	27.58	-51.1	3.22
46947	-0.84	-0.048	-0.381	21.56	-49.35	2.1
46967	-0.896	-0.066	-0.391	19.88	-43.12	-0.21
46991	-0.866	-0.052	-0.41	33.04	-40.74	-2.38
47009	-0.944	-0.022	-0.307	18.34	-40.25	-3.43
47033	-0.946	-0.133	-0.325	4.55	-36.4	-0.42
47052	-0.938	-0.082	-0.305	8.47	-30.24	3.99
47072	-0.978	-0.025	-0.386	3.43	-36.47	4.2
47096	-0.906	-0.054	-0.354	1.68	-35.49	1.68
47115	-0.962	-0.163	-0.423	7.21	-42.21	2.87
47138	-1.029	-0.047	-0.327	7.77	-53.55	5.32
47159	-0.971	-0.068	-0.323	-15.19	-53.48	3.22
47179	-0.9	-0.083	-0.234	-13.44	-48.86	4.62
47198	-0.979	-0.109	-0.185	-9.24	-46.69	7.28
47218	-1.004	-0.116	-0.193	-1.26	-45.01	9.24
47238	-0.978	0.009	-0.207	8.61	-44.45	8.4
47257	-0.954	0.065	-0.153	3.64	-42.49	4.69
47282	-0.94	-0.07	-0.163	2.73	-38.29	0.35
47300	-0.935	-0.04	-0.116	-6.51	-32.83	0.21
47322	-0.953	-0.03	-0.119	-23.87	-24.92	3.5
47339	-0.999	-0.052	-0.142	-26.25	-24.85	5.81
47362	-1.005	-0.028	-0.085	-29.68	-23.31	5.25
47382	-0.922	-0.081	-0.123	-27.93	-17.22	3.92
47401	-0.901	0.004	-0.045	-26.18	-4.97	3.57
47421	-0.935	-0.029	-0.048	-30.94	6.58	4.9
47444	-0.931	-0.129	-0.021	-27.3	20.86	6.79
47465	-0.945	-0.101	0.056	-24.99	35.91	8.61
47482	-0.886	-0.039	0.031	-21.98	56.84	10.15
47505	-0.917	0.006	0.135	-23.52	94.29	13.3
47525	-1.154	-0.093	0.002	-21.42	113.47	17.01
47545	-1.338	-0.128	-0.186	9.59	127.96	27.3
47565	-1.727	0.136	-0.152	-18.76	134.4	24.71
47585	-1.604	-0.107	-0.13	-48.02	138.88	29.82
47609	-1.415	-0.431	-0.285	-23.59	148.54	41.72
47628	-1.444	-0.467	-0.014	52.71	134.19	42.98
47652	-1.53	-0.009	0.245	58.1	59.64	17.5
47672	-1.234	-0.005	0.626	22.33	15.54	-6.72
47691	-0.991	-0.089	0.58	18.55	-24.08	-27.16
47716	-0.99	-0.058	0.443	21.35	-85.68	-36.47
47734	-1.051	-0.049	0.341	34.02	-121.94	-34.65
47754	-1.094	0.073	0.188	36.75	-152.04	-32.55
47773	-1.167	0.076	0.032	34.44	-195.93	-30.03
47796	-1.156	0.05	-0.103	37.73	-198.38	-23.94
47817	-1.184	0.126	-0.211	52.08	-209.72	-16.24
47836	-1.156	0.079	-0.261	55.58	-214.83	-8.4
47860	-1.161	0.062	-0.318	63.49	-217.0	0.14
47880	-1.181	0.061	-0.487	55.3	-217.56	7.63
47899	-1.124	0.126	-0.346	54.74	-221.9	22.05
47922	-1.093	-0.011	-0.384	33.88	-216.93	27.16
47942	-1.159	-0.24	-0.322	32.34	-207.69	15.26
47962	-1.152	-0.046	-0.268	30.1	-203.28	14.7
47984	-1.056	-0.083	-0.281	12.74	-184.52	15.05
48004	-1.151	-0.136	-0.309	19.74	-166.67	6.02
48024	-0.818	0.133	-0.216	-0.77	-129.78	19.11
48047	-0.836	-0.172	-0.318	-12.18	-101.57	10.22
48067	-0.735	-0.336	-0.102	37.17	-69.3	-2.24
48087	-0.672	0.09	0.094	23.8	-29.47	-5.11
48111	-0.586	-0.142	-0.058	20.44	8.47	-4.48
48129	-0.687	-0.192	-0.154	48.3	29.26	-7.14
48153	-0.555	-0.164	-0.347	78.61	62.23	-13.44
48172	-0.615	-0.04	-0.334	76.44	104.44	-19.53
48191	-1.219	0.831	5.452	128.17	213.57	-16.1
48211	-1.687	-0.751	-1.848	-13.16	-158.69	-38.29
48232	1.009	-0.095	1.404	158.48	271.39	-6.79
48256	-3.077	-0.246	-0.542	51.45	62.16	-12.81
48275	-1.536	0.828	-0.241	68.53	227.5	-46.13
48296	-1.445	0.393	0.24	-37.8	81.48	-53.76
48313	-0.278	-0.122	0.447	-67.62	112.63	-33.53
48337	-0.405	-0.791	-0.429	-29.47	148.19	-34.79
48360	-1.586	-0.048	-0.312	55.93	194.74	-37.31
48380	-1.499	0.402	-0.06	-3.57	92.19	-21.0
48400	-0.902	0.004	0.165	-42.14	101.29	-17.99
48424	-0.438	-0.374	-0.295	6.65	130.48	-3.29
48445	-1.242	-0.127	-0.123	32.69	91.56	-4.97
48463	-1.046	0.098	-0.255	35.7	73.5	-6.44
48483	-0.996	0.276	0.411	9.31	94.99	-13.3
48502	-0.735	-0.396	-0.349	-6.72	68.32	-29.82
48524	-1.226	0.045	-0.163	17.08	94.01	-20.72
48548	-1.054	-0.114	-0.417	10.36	62.09	-28.14
48568	-1.146	0.112	-0.166	-0.7	82.18	-24.57
48588	-0.872	-0.181	-0.276	8.12	74.9	-20.23
48607	-0.672	-0.362	-0.089	18.27	88.13	-16.8
48628	-0.828	-0.331	-0.298	43.82	96.74	-13.58
48648	-1.188	0.07	-0.59	14.14	67.97	-17.08
48668	-1.14	0.123	-0.452	-9.59	75.39	-21.0
48688	-0.644	-0.048	-0.423	6.51	75.67	-22.05
48712	-0.863	-0.175	-0.605	8.26	69.51	-24.36
48727	-0.943	-0.062	-0.541	16.03	63.28	-21.07
48751	-0.818	-0.134	-0.509	2.31	44.1	-26.39
48767	-0.662	-0.217	-0.376	11.69	64.68	-18.48
48791	-0.71	-0.228	-0.538	15.26	56.91	-16.8
48811	-1.282	-0.153	-0.518	17.22	41.58	-14.56
48835	-0.64	-0.386	-0.531	25.48	62.09	-1.89
48851	-0.802	-0.358	-0.46	35.0	54.18	-3.99
48874	-0.622	-0.325	-0.507	31.36	39.69	-8.75
48895	-1.071	0.314	-0.723	4.13	50.05	-2.66
48912	-1.043	-0.041	-0.775	-13.37	19.95	-4.62
48932	-0.732	-0.145	-0.576	-4.13	15.61	-5.18
48952	-0.51	-0.412	-0.631	5.11	20.86	-1.05
48972	-0.793	-0.109	-0.631	1.05	27.44	0.49
48992	-0.66	-0.204	-0.667	-12.53	-2.73	-2.52
49016	-0.719	-0.153	-0.745	-1.68	-0.91	1.54
49035	-0.752	-0.213	-0.689	13.37	-5.95	3.92
49056	-1.022	-0.064	-0.631	-13.37	-16.52	-0.28
49075	-0.686	-0.208	-0.665	-13.02	-25.69	1.61
49094	-0.795	-0.215	-0.653	-6.37	-31.78	1.05
49119	-0.858	-0.226	-0.649	11.06	-36.68	2.59
49139	-0.817	-0.182	-0.593	13.72	-41.93	5.53
49159	-0.877	-0.201	-0.632	5.6	-52.08	5.39
49183	-0.856	-0.122	-0.629	0.28	-58.8	6.58
49203	-0.851	-0.113	-0.625	-7.42	-67.76	7.7
49223	-0.956	-0.176	-0.581	-20.72	-77.91	7.84
49241	-0.905	-0.142	-0.568	-14.0	-78.75	10.5
49264	-0.85	-0.095	-0.582	-21.98	-90.23	9.59
49284	-0.832	-0.096	-0.473	-26.95	-85.75	8.47
49305	-0.997	-0.102	-0.497	-22.19	-94.36	5.74
49329	-0.915	-0.11	-0.515	-32.55	-105.0	10.08
49344	-0.921	-0.251	-0.488	-36.82	-117.81	14.0
49364	-0.884	-0.234	-0.41	-34.58	-121.73	18.97
49389	-0.854	-0.099	-0.445	-36.54	-134.61	22.61
49409	-1.059	0.024	-0.199	-80.01	-149.17	27.93
49429	-1.105	-0.27	-0.424	-91.0	-179.41	26.32
49447	-0.968	-0.193	-0.293	-70.84	-172.69	42.63
49469	-1.14	-0.203	-0.538	-62.23	-189.7	51.1
49489	-1.059	-0.023	-0.593	-17.36	-193.27	59.43
49509	-0.982	-0.591	-0.879	-17.01	-202.44	24.15
49529	-1.531	-0.389	-0.428	30.17	-202.86	-1.54
49549	-1.129	0.434	0.036	52.99	-203.35	11.76
49568	-1.246	0.618	0.147	-15.89	-185.36	6.93
49588	-1.09	-0.163	0.007	-25.83	-153.58	-16.8
49607	-0.787	-0.042	0.226	10.22	-117.04	-2.1
49632	-0.602	-0.042	-0.519	-47.32	-11.41	-18.48
49651	-0.647	0.213	-0.335	-74.76	67.69	-2.87
49668	-0.341	0.11	-0.22	-129.78	116.48	13.23
49692	-0.57	-0.468	-1.181	-84.42	187.11	34.16
49709	-1.153	-0.414	-0.311	15.33	260.68	28.56
49732	-1.525	-0.181	-0.153	92.89	178.85	13.65
49752	-0.696	0.257	-0.297	52.43	229.11	11.55
49770	-0.988	0.148	-0.35	11.69	233.73	0.42
49794	-1.089	0.066	-0.248	-17.57	219.66	-8.68
49813	-1.084	-0.018	-0.1	-31.36	201.74	-16.87
49830	-0.989	0.085	-0.127	-45.29	197.61	-26.11
49853	-1.065	0.131	-0.097	-85.12	179.9	-29.47
49874	-0.965	0.121	-0.083	-98.7	167.23	-23.45
49890	-0.92	0.152	-0.135	-112.28	152.95	-19.67
49910	-1.149	0.051	-0.04	-122.71	126.49	-18.69
49934	-1.226	-0.016	0.057	-123.41	96.18	-23.8
49954	-1.185	-0.166	0.088	-95.55	62.72	-22.96
49973	-1.019	-0.152	0.052	-47.18	36.68	-17.92
49990	-1.125	-0.069	0.093	-33.32	15.26	-17.71
50010	-1.367	-0.077	0.304	-56.35	-15.61	-37.94
50030	-1.334	-0.206	0.123	-47.88	-43.26	-48.09
50054	-1.39	-0.308	0.195	-23.24	-80.64	-41.93
50070	-1.371	-0.021	0.164	-31.64	-86.52	-42.63
50094	-1.489	-0.582	0.613	26.88	-107.8	-27.65
50114	-1.282	-0.893	-0.49	108.01	-102.48	-31.01
50133	-1.293	-0.565	-0.053	127.96	-89.18	-27.44
50151	-1.341	0.014	0.077	67.34	-108.43	-26.11
50171	-0.935	0.839	-0.424	-38.36	-73.92	-16.59
50195	-1.201	-0.135	-0.08	-47.18	-33.53	-18.9
50212	-1.2	-0.442	-0.173	24.92	-34.37	-21.42
50236	-0.935	-0.188	-0.231	45.78	-32.83	-19.25
50254	-0.746	0.104	-0.235	-1.12	-17.64	-18.9
50275	-0.99	-0.184	-0.214	-18.55	-10.43	-14.63
50291	-1.056	-0.165	-0.294	16.73	-19.25	-8.54
50316	-0.92	-0.083	-0.271	48.58	-21.21	-13.23
50333	-0.939	0.116	-0.122	22.12	-10.99	-16.8
50357	-0.94	-0.134	-0.18	3.99	-5.18	-12.46
50376	-0.955	-0.258	-0.257	25.97	-1.61	-8.47
50397	-0.928	-0.021	-0.263	29.47	5.39	-9.38
50416	-1.031	0.014	-0.142	4.62	5.53	-15.19
50436	-0.955	-0.075	-0.195	-9.03	9.24	-15.82
50460	-0.954	-0.173	-0.261	-3.15	7.98	-9.66
50478	-0.971	-0.135	-0.233	-2.73	7.07	-7.28
50498	-0.971	-0.127	-0.238	-12.74	8.54	-7.0
50519	-0.991	-0.115	-0.265	-17.29	10.99	-5.46
50538	-0.996	-0.032	-0.213	-32.27	11.76	-6.79
50563	-0.923	-0.1	-0.278	-31.78	16.03	-7.56
50582	-0.92	-0.224	-0.274	-21.42	20.37	-4.2
50601	-0.913	-0.222	-0.269	-5.67	24.71	0.7
50620	-0.961	-0.1	-0.265	-6.72	26.95	1.89
50640	-0.924	-0.088	-0.292	-7.07	30.87	2.52
50660	-0.877	-0.157	-0.295	-0.77	38.64	2.8
50684	-0.887	-0.216	-0.298	11.34	44.73	2.17
50704	-0.957	-0.05	-0.262	5.6	54.95	5.11
50723	-0.961	-0.181	-0.389	-2.52	54.18	5.39
50742	-0.876	-0.137	-0.44	12.18	61.32	9.31
50767	-0.8	-0.114	-0.473	23.38	56.84	10.29
50786	-0.859	0.009	-0.468	18.41	57.12	13.79
50806	-1.026	-0.011	-0.459	-5.53	50.4	5.32
50830	-0.962	-0.057	-0.5	-12.53	47.18	3.71
50848	-0.867	-0.063	-0.51	-5.81	48.72	4.34
50869	-0.884	-0.125	-0.547	-7.49	48.51	5.11
50889	-0.931	-0.119	-0.524	-13.65	45.85	8.05
50913	-0.901	-0.099	-0.555	-17.99	42.21	9.94
50929	-0.898	-0.006	-0.551	-14.98	48.02	14.14
50953	-0.926	-0.049	-0.588	-18.83	48.44	16.31
50973	-0.908	-0.018	-0.589	-18.76	49.28	20.72
50993	-0.939	-0.01	-0.552	-27.58	48.51	24.29
51010	-0.97	-0.059	-0.57	-30.45	46.27	31.29
51030	-0.848	-0.072	-0.56	-11.69	45.01	35.14
51053	-0.658	-0.08	-0.553	-10.29	62.09	38.15
51070	-0.693	-0.108	-0.532	-19.39	71.54	37.38
51094	-0.747	-0.172	-0.651	-13.37	73.15	34.86
51114	-0.64	-0.149	-0.648	3.08	72.24	30.66
51132	-0.604	0.039	-0.729	-13.79	69.51	24.78
51151	-0.736	0.049	-0.723	-25.2	66.22	21.63
51172	-0.686	0.038	-0.744	-11.9	76.44	19.04
51192	-0.669	0.031	-0.84	-6.02	59.64	9.38
51214	-0.423	0.21	-0.746	-16.87	59.43	9.31
51238	-0.448	0.093	-0.796	-37.66	56.7	9.38
51258	-0.559	-0.023	-0.771	-28.0	56.7	8.33
51277	-0.577	0.026	-0.731	-14.77	56.84	9.59
51295	-0.506	0.087	-0.819	-1.68	59.08	12.04
51318	-0.484	0.129	-0.854	-5.46	58.17	8.68
51337	-0.457	0.157	-0.823	-9.66	55.02	7.63
51362	-0.31	0.177	-0.883	-16.31	54.53	0.7
51381	-0.405	0.237	-0.868	-30.87	52.85	-0.21
51399	-0.433	0.136	-0.91	-35.98	48.86	-3.15
51423	-0.376	0.14	-0.907	-37.73	42.14	-7.14
51442	-0.397	0.179	-0.895	-40.18	37.1	-8.68
51467	-0.418	0.228	-0.861	-46.62	38.78	-7.84
51486	-0.406	0.271	-0.845	-36.12	42.0	-4.55
51505	-0.33	0.24	-0.933	-0.21	34.93	1.47
51525	-0.302	0.304	-0.971	-11.48	34.58	6.23
51550	-0.392	0.297	-0.907	-12.95	28.84	5.95
51570	-0.38	0.305	-0.899	-8.61	31.85	6.09
51594	-0.378	0.312	-0.904	-2.24	33.46	9.66
51614	-0.306	0.304	-0.964	2.52	32.41	15.89
51634	-0.28	0.205	-0.948	12.32	30.45	18.41
51654	-0.32	0.155	-0.954	17.5	29.19	18.48
51678	-0.353	0.201	-0.993	15.89	24.57	16.24
51693	-0.306	0.183	-1.0	9.03	19.18	13.93
51718	-0.158	0.196	-0.979	1.12	6.93	7.07
51738	-0.2	0.132	-1.031	-6.72	-6.23	0.28
51757	-0.24	0.135	-0.998	-6.44	-12.53	-3.64
51775	-0.294	0.185	-0.971	-4.34	-15.89	-5.88
51799	-0.277	0.266	-0.96	-3.29	-22.4	-7.21
51819	-0.222	0.288	-0.985	-4.97	-28.91	-10.15
51839	-0.25	0.294	-0.947	-4.48	-35.28	-12.04
51858	-0.286	0.303	-0.96	-5.11	-37.87	-12.32
51882	-0.309	0.281	-0.965	-0.42	-41.93	-9.17
51901	-0.275	0.251	-0.903	10.99	-43.12	-4.83
51921	-0.263	0.37	-0.907	14.14	-47.25	-3.36
51937	-0.301	0.308	-0.935	5.6	-52.64	-2.1
51962	-0.323	0.184	-0.918	8.47	-57.82	-6.86
51982	-0.313	0.179	-0.854	11.76	-55.65	-9.17
52001	-0.323	0.159	-0.885	12.67	-59.57	-8.68
52021	-0.367	0.247	-0.842	13.44	-60.2	-10.29
52044	-0.375	0.229	-0.905	-2.8	-64.26	-14.49
52061	-0.428	0.139	-0.877	-6.44	-64.68	-17.22
52082	-0.39	0.204	-0.79	0.14	-62.65	-18.48
52101	-0.396	0.199	-0.83	3.64	-65.31	-19.18
52120	-0.472	0.195	-0.832	8.61	-64.54	-17.78
52145	-0.508	0.167	-0.801	10.99	-70.84	-17.15
52160	-0.479	0.077	-0.794	17.5	-73.01	-18.55
52185	-0.474	0.026	-0.773	30.03	-78.33	-24.22
52205	-0.445	0.092	-0.799	25.48	-84.35	-31.01
52224	-0.508	0.125	-0.823	2.8	-86.45	-36.89
52243	-0.64	0.203	-0.836	-18.62	-86.31	-38.92
52262	-0.739	0.213	-0.755	-31.08	-88.69	-40.32
52287	-0.808	0.075	-0.626	-14.21	-82.46	-42.49
52307	-0.83	0.085	-0.649	4.9	-90.65	-44.1
52327	-0.755	0.121	-0.646	21.14	-99.75	-46.34
52350	-0.662	0.258	-0.616	14.35	-101.92	-44.59
52370	-0.697	0.102	-0.43	-2.31	-87.78	-45.57
52391	-0.879	-0.275	-0.428	29.33	-72.1	-41.86
52411	-1.041	-0.122	-0.474	46.83	-65.17	-35.21
52434	-1.268	0.13	-0.496	41.37	-74.27	-28.98
52454	-1.052	-0.002	-0.41	48.79	-66.85	-26.18
52474	-0.927	-0.146	-0.313	47.67	-43.82	-23.1
52498	-0.876	-0.074	-0.436	32.27	-30.8	-16.94
52518	-0.873	0.12	-0.582	13.09	-33.25	-13.3
52536	-0.953	-0.068	-0.593	9.87	-48.58	-12.6
52560	-0.904	0.032	-0.497	-7.28	-54.81	-12.32
52579	-0.935	0.005	-0.445	-14.42	-56.98	-10.22
52598	-0.89	-0.164	-0.382	-7.7	-55.37	-7.91
52617	-0.885	-0.178	-0.349	7.7	-47.04	-6.37
52641	-0.878	-0.078	-0.309	18.76	-42.0	-4.06
52657	-0.932	-0.107	-0.346	19.25	-33.67	-3.01
52682	-0.921	-0.086	-0.367	28.35	-32.69	-0.21
52700	-0.909	-0.06	-0.355	33.81	-31.57	0.7
52721	-0.946	-0.052	-0.292	25.06	-28.35	0.0
52741	-0.991	-0.086	-0.317	21.56	-28.91	1.05
52760	-0.943	0.035	-0.335	24.15	-26.95	2.1
52784	-0.963	-0.109	-0.343	25.97	-27.44	-0.56
52803	-0.991	-0.051	-0.293	26.04	-27.65	2.1
52827	-1.013	-0.101	-0.351	18.69	-35.35	4.2
52847	-0.977	-0.087	-0.218	4.76	-39.48	5.32
52865	-0.936	-0.094	-0.229	6.93	-32.2	7.56
52885	-0.952	-0.1	-0.24	10.08	-27.3	8.33
52909	-0.967	-0.025	-0.199	15.05	-24.15	10.36
52928	-0.978	-0.008	-0.192	8.89	-19.32	11.2
52948	-0.971	-0.05	-0.189	3.64	-16.8	14.28
52967	-0.948	-0.079	-0.128	-7.35	-9.87	14.84
52990	-0.915	-0.057	-0.114	-1.12	3.15	19.25
53014	-0.91	0.075	-0.074	-13.09	19.53	21.84
53032	-0.951	0.029	-0.047	-27.44	37.52	20.93
53052	-0.949	-0.094	-0.051	-23.03	58.73	23.03
53075	-1.04	-0.065	-0.095	-17.57	75.39	21.91
53096	-1.171	-0.105	-0.175	-21.98	83.09	17.36
53114	-1.401	0.073	-0.145	-63.98	89.53	5.18
53135	-1.421	-0.077	-0.237	-61.81	91.28	9.17
53159	-1.162	-0.075	-0.309	-45.71	107.45	28.07
53179	-1.343	0.026	-0.296	-3.99	110.32	37.8
53197	-1.434	-0.267	-0.025	4.27	81.55	17.57
53217	-1.073	-0.145	0.048	48.3	55.3	12.53
53241	-1.035	-0.112	0.111	61.46	24.92	-1.33
53261	-0.963	-0.062	0.163	76.3	-12.04	-7.84
53276	-0.928	0.055	0.203	63.35	-33.6	-11.48
53301	-0.986	0.018	0.086	51.87	-70.28	-14.0
53320	-1.005	0.031	0.003	39.41	-93.87	-13.65
53344	-1.059	0.01	0.003	30.03	-119.35	-10.92
53364	-1.075	0.004	-0.016	30.1	-136.57	-8.12
53379	-1.078	-0.048	-0.105	34.02	-148.47	-7.21
53404	-1.09	-0.069	-0.126	42.91	-166.25	-3.64
53428	-1.09	-0.083	-0.251	42.21	-174.3	0.21
53443	-1.072	-0.183	-0.396	61.25	-180.67	4.27
53468	-1.131	-0.064	-0.171	59.85	-185.5	5.53
53488	-1.051	0.031	-0.143	45.99	-184.45	5.74
53508	-1.064	0.107	-0.09	21.14	-180.04	6.79
53526	-1.124	-0.033	-0.065	13.93	-182.49	6.51
53546	-1.117	-0.091	-0.206	35.63	-186.34	15.33
53566	-0.973	-0.115	-0.241	33.04	-175.84	10.64
53590	-0.958	-0.147	-0.43	71.12	-148.33	17.71
53610	-1.139	0.097	-0.122	57.54	-145.32	5.46
53626	-0.928	0.098	0.027	40.46	-142.24	2.31
53650	-0.795	0.058	-0.064	19.46	-108.29	5.6
53670	-0.921	0.079	0.035	15.12	-79.17	11.55
53690	-0.849	0.003	0.092	-0.49	-60.27	9.17
53708	-0.791	-0.019	0.023	1.12	-40.95	0.21
53727	-0.725	-0.001	-0.04	0.98	-18.55	-4.9
53751	-0.801	-0.012	0.083	4.62	15.4	-9.45
53771	-0.994	-0.144	-0.188	-24.5	26.18	-17.57
53791	-0.568	-0.128	0.352	14.49	127.61	-9.1
53811	-1.651	0.039	0.359	-21.77	72.73	-12.11
53835	-1.024	-0.094	0.4	18.83	168.0	-12.67
53854	-1.545	-0.231	-0.086	48.93	160.93	-27.79
53879	-1.497	0.362	0.163	88.41	156.73	-8.68
53896	-0.685	0.514	0.105	36.82	74.48	-19.95
53920	-0.906	0.045	-0.204	-66.01	158.9	-39.48
53937	-1.321	-0.204	-0.215	-61.11	146.72	-50.05
53961	-1.131	-0.142	-0.095	-11.27	129.15	-31.99
53979	-0.944	-0.375	-0.209	-18.27	99.61	-23.8
54000	-0.862	-0.098	-0.057	31.08	122.99	-19.39
54024	-1.051	0.045	-0.175	17.15	115.08	-10.29
54044	-1.117	0.04	0.155	4.69	107.17	-5.81
54064	-0.664	-0.254	-0.377	0.0	102.9	-15.47
54083	-0.994	0.011	-0.246	18.69	110.32	-7.14
54103	-0.979	0.043	-0.334	7.14	84.35	-21.7
54122	-0.935	0.115	-0.111	-25.83	100.17	-26.04
54142	-0.898	-0.17	-0.283	6.02	90.51	-26.46
54167	-1.059	-0.251	-0.344	19.46	76.44	-18.97
54185	-0.936	-0.009	-0.476	-3.43	73.85	-21.42
54209	-0.967	0.003	-0.362	-1.61	71.47	-20.44
54228	-0.827	-0.19	-0.486	-3.57	69.23	-17.85
54249	-0.895	-0.247	-0.436	7.28	69.79	-11.06
54269	-0.876	-0.224	-0.407	26.25	78.19	-10.78
54286	-0.894	-0.161	-0.312	24.36	80.85	-14.63
54305	-0.682	-0.442	-0.316	39.97	92.33	-16.94
54328	-0.962	0.191	-0.691	31.85	96.46	-6.16
54349	-1.118	-0.115	-0.66	-6.44	53.13	-3.43
54369	-0.636	-0.196	-0.758	0.84	62.65	-4.06
54386	-0.866	0.019	-0.614	6.3	74.9	-4.69
54405	-0.909	-0.204	-0.595	9.31	53.97	-6.72
54425	-0.876	-0.144	-0.677	5.6	67.34	-5.67
54450	-0.761	-0.041	-0.734	2.8	61.18	-0.42
54474	-0.691	-0.128	-0.733	2.31	46.34	-2.17
54494	-0.654	-0.117	-0.764	5.46	41.72	-7.42
54510	-0.719	-0.053	-0.786	6.58	32.83	-12.95
54529	-0.821	-0.045	-0.798	-2.59	15.12	-15.96
54553	-0.773	-0.131	-0.756	-12.81	8.54	-12.6
54570	-0.62	-0.254	-0.728	-8.47	17.64	-8.54
54594	-0.66	-0.155	-0.638	0.21	9.45	-10.85
54611	-0.509	-0.298	-0.667	-1.75	-2.03	-18.13
54635	-0.704	-0.225	-0.75	7.14	3.29	-22.96
54652	-0.795	-0.164	-0.787	-1.89	-6.72	-20.65
54672	-0.474	-0.361	-0.689	-5.18	-26.81	-14.7
54692	-0.494	-0.343	-0.724	8.96	-10.08	-13.65
54712	-0.794	-0.12	-0.768	4.34	-15.68	-11.97
54735	-0.779	-0.117	-0.754	-10.15	-35.56	-6.72
54757	-0.688	-0.233	-0.712	-10.71	-38.5	-1.4
54776	-0.562	-0.304	-0.691	2.38	-39.9	0.0
54796	-0.626	-0.257	-0.645	4.48	-40.6	-2.73
54820	-0.883	-0.035	-0.747	-0.77	-47.81	-5.81
54844	-0.868	-0.089	-0.706	-9.24	-58.59	-3.57
54864	-0.691	-0.252	-0.571	-18.62	-63.84	-2.31
54880	-0.695	-0.225	-0.63	-12.88	-62.72	-7.28
54903	-0.852	-0.154	-0.641	-2.17	-68.46	-3.78
54924	-0.882	-0.135	-0.619	-10.57	-78.4	-2.24
54943	-0.878	-0.085	-0.64	-13.93	-76.02	-1.19
54963	-0.972	-0.126	-0.618	-15.54	-86.8	1.12
54987	-0.658	-0.27	-0.529	-13.51	-88.9	1.4
55006	-0.829	-0.255	-0.483	-5.18	-82.6	-3.71
55026	-1.18	-0.044	-0.58	-0.7	-88.48	2.31
55045	-1.033	0.086	-0.472	-17.36	-90.86	6.51
55070	-0.79	-0.285	-0.455	-31.92	-111.37	12.53
55090	-0.618	-0.328	-0.379	-22.75	-110.04	5.95
55109	-1.049	-0.081	-0.414	-25.27	-108.01	5.04
55130	-1.171	-0.006	-0.49	-36.47	-132.37	6.86
55150	-1.007	-0.182	-0.317	-49.77	-159.25	9.1
55174	-0.914	-0.284	-0.262	-27.44	-144.13	11.76
55193	-1.168	-0.186	-0.364	-20.16	-178.22	19.04
55214	-1.102	-0.264	-0.38	-9.8	-200.13	24.99
55238	-1.161	-0.096	0.027	7.56	-211.89	35.35
55258	-1.622	0.324	0.293	-33.04	-208.18	29.54
55274	-1.718	0.305	0.429	-70.35	-241.08	30.52
55295	-1.257	0.476	0.061	-117.53	-276.64	-12.32
55318	-1.017	0.452	-0.691	-101.5	-275.24	-9.17
55339	-0.476	-0.529	-2.562	-215.88	-86.52	-9.52
55359	0.199	-2.175	-1.233	52.85	92.89	2.8
55383	-0.608	0.434	-0.489	55.09	135.87	9.1
55402	-0.42	0.203	-0.904	-29.96	256.97	24.29
55420	-1.347	-0.058	-0.537	-8.26	260.75	29.4
55444	-1.373	0.063	-0.322	14.49	246.33	54.39
55464	-1.49	0.114	-0.132	35.21	251.86	52.57
55482	-1.6	0.18	-0.005	75.46	221.48	56.0
55506	-1.194	0.083	-0.334	76.93	225.4	65.73
55526	-1.126	0.062	-0.286	87.71	210.77	54.74
55550	-1.042	0.081	-0.093	60.27	186.83	30.8
55570	-0.938	0.226	-0.07	8.26	186.06	18.62
55589	-1.013	0.185	-0.105	-28.91	165.2	10.36
55614	-0.993	0.119	-0.146	-67.48	142.45	-0.77
55631	-1.102	0.094	-0.084	-82.67	123.76	-6.09
55653	-0.993	0.039	-0.043	-78.61	99.19	-6.16
55671	-0.947	-0.066	0.019	-66.01	77.35	-5.81
55692	-0.837	-0.041	-0.023	-37.52	52.57	-9.24
55714	-0.918	0.036	-0.14	-29.05	26.18	-16.87
55734	-1.109	-0.036	0.0	-38.99	-5.32	-28.84
55757	-1.02	-0.044	-0.035	-49.77	-31.08	-31.29
55777	-1.005	-0.083	-0.177	-51.1	-49.98	-32.9
55797	-1.135	-0.079	-0.191	-55.65	-62.93	-28.49
55816	-1.333	-0.198	-0.086	-36.05	-81.69	-35.35
55841	-1.266	-0.152	-0.145	-19.67	-94.43	-47.32
55861	-1.28	-0.281	-0.052	9.87	-98.28	-49.77
55880	-1.228	-0.164	-0.02	42.35	-105.49	-47.88
55904	-1.232	0.083	-0.166	65.66	-112.28	-11.9
55924	-1.611	0.002	-0.489	-61.88	-125.72	-46.76
55944	-1.292	-0.288	-0.352	-34.72	-100.03	-37.8
55964	-1.062	0.107	-0.265	4.62	-85.4	-29.12
55983	-1.058	0.206	0.021	-0.49	-74.69	-26.11
56003	-1.126	-0.533	-0.058	-18.55	-54.67	-39.97
56024	-1.184	-0.071	-0.11	27.72	-49.56	-32.83
56046	-0.81	-0.033	-0.237	-15.75	-24.92	-22.54
56067	-1.066	-0.279	-0.362	-1.75	-25.2	-21.91
56088	-1.003	0.191	-0.24	33.88	-27.09	-18.62
56112	-1.043	0.39	-0.117	-19.88	-23.59	-31.85
56132	-0.912	-0.027	-0.168	-54.67	-8.61	-32.34
56152	-0.937	-0.437	-0.165	-5.74	-11.83	-27.44
56171	-1.006	-0.182	-0.1	-3.85	-8.82	-24.92
56191	-0.935	-0.044	-0.159	0.77	0.63	-18.97
56215	-1.023	-0.152	-0.164	-4.97	1.89	-17.92
56235	-0.972	-0.21	-0.252	-0.49	6.23	-12.11
56254	-0.945	-0.191	-0.221	0.84	5.67	-7.14
56275	-0.964	-0.106	-0.224	6.37	6.58	-3.78
56295	-1.002	0.07	-0.146	-7.14	8.96	-6.51
56319	-0.96	-0.09	-0.148	-22.05	10.22	-8.61
56339	-0.95	-0.188	-0.13	-15.96	14.28	-5.53
56358	-0.83	-0.214	-0.315	-15.68	24.01	-2.03
56378	-0.938	-0.155	-0.22	-2.66	22.54	-2.94
56399	-0.942	-0.163	-0.196	0.63	27.93	-2.03
56419	-0.933	-0.213	-0.213	9.94	35.63	4.2
56439	-0.886	-0.297	-0.226	21.21	38.99	5.11
56454	-0.848	-0.266	-0.219	36.05	45.85	7.0
56474	-0.978	0.003	-0.253	37.31	61.46	12.32
56498	-0.97	0.053	-0.166	29.68	72.94	16.31
