Millis	AccelX	AccelY	AccelZ	GyroX	GyroY	GyroZ
0	-0.995	-0.259	0.054	9.24	-9.52	-10.71
18	-0.987	-0.26	0.061	9.24	-9.8	-9.87
38	-0.976	-0.248	0.061	7.91	-9.59	-9.45
62	-0.971	-0.254	0.061	5.67	-9.31	-7.49
82	-0.971	-0.263	0.06	4.34	-8.4	-5.04
101	-0.966	-0.264	0.062	3.15	-7.07	-2.94
120	-0.962	-0.264	0.059	2.17	-5.25	-1.4
145	-0.973	-0.269	0.061	1.61	-3.15	-0.14
165	-0.975	-0.272	0.059	0.7	-2.38	0.21
185	-0.981	-0.275	0.058	-1.05	-1.19	-0.07
205	-0.988	-0.28	0.07	-2.38	-0.77	-0.63
225	-0.984	-0.286	0.069	-2.59	-1.05	-1.47
242	-0.985	-0.289	0.068	-2.52	-1.19	-1.89
266	-0.979	-0.286	0.073	-2.59	-1.54	-2.03
285	-0.977	-0.289	0.077	-2.87	-1.54	-2.24
306	-0.978	-0.296	0.076	-2.45	-1.61	-2.1
326	-0.978	-0.301	0.071	-0.63	-1.54	-1.54
345	-0.981	-0.301	0.07	1.54	-1.75	-1.33
366	-0.986	-0.292	0.072	3.15	-1.96	-1.4
386	-0.979	-0.287	0.068	3.22	-1.96	-1.47
404	-0.976	-0.282	0.069	3.01	-1.68	-1.75
428	-0.978	-0.279	0.067	2.17	-1.47	-1.61
448	-0.983	-0.281	0.065	1.33	-1.61	-1.68
463	-0.983	-0.28	0.065	0.56	-1.61	-1.68
487	-0.977	-0.288	0.061	-0.63	-1.05	-1.61
511	-0.981	-0.286	0.068	-0.56	-0.56	-1.54
531	-0.985	-0.286	0.067	-0.21	-0.63	-1.4
551	-0.981	-0.284	0.067	-1.26	-0.98	-1.68
567	-0.984	-0.292	0.069	-1.19	-0.63	-1.75
591	-0.987	-0.291	0.074	0.42	-0.49	-1.05
615	-0.983	-0.284	0.071	1.05	-1.12	-1.19
633	-0.984	-0.278	0.068	0.07	-1.68	-1.19
657	-0.983	-0.285	0.074	-0.77	-1.89	-0.56
677	-0.983	-0.293	0.068	0.0	-1.75	0.0
696	-0.987	-0.293	0.065	0.42	-1.96	0.07
716	-0.986	-0.293	0.065	0.7	-2.24	-0.21
740	-0.981	-0.29	0.065	1.12	-2.45	-0.84
760	-0.983	-0.29	0.063	0.77	-2.24	-1.33
780	-0.983	-0.29	0.066	1.05	-2.03	-0.98
800	-0.982	-0.289	0.066	1.47	-1.82	-0.77
820	-0.983	-0.285	0.065	1.26	-1.96	-0.7
840	-0.981	-0.282	0.063	0.77	-2.1	-0.49
858	-0.979	-0.284	0.066	0.63	-2.1	-0.42
882	-0.976	-0.288	0.064	1.05	-2.03	0.0
906	-0.978	-0.285	0.064	0.7	-1.82	0.21
926	-0.98	-0.286	0.063	0.21	-1.82	0.0
946	-0.979	-0.29	0.061	-0.28	-1.54	-0.56
966	-0.984	-0.289	0.065	-0.49	-1.26	-0.84
982	-0.982	-0.292	0.065	-0.35	-1.12	-0.63
1006	-0.991	-0.288	0.064	-0.28	-0.98	-0.77
1024	-0.987	-0.277	0.067	-1.4	-1.89	-1.26
1044	-0.982	-0.282	0.074	-2.59	-2.31	-1.82
1068	-0.981	-0.285	0.072	-1.89	-2.73	-1.19
1088	-0.976	-0.29	0.075	-1.75	-2.59	-0.91
1103	-0.975	-0.301	0.076	-0.56	-2.38	-0.35
1128	-0.981	-0.307	0.077	2.52	-2.31	0.56
1152	-0.979	-0.296	0.071	4.27	-2.73	0.49
1171	-0.984	-0.304	0.061	4.97	-1.96	-0.14
1192	-0.986	-0.291	0.064	5.39	-1.33	-0.84
1209	-0.98	-0.267	0.068	4.13	-1.47	-1.82
1231	-0.978	-0.262	0.073	0.84	-2.45	-2.1
1255	-0.974	-0.273	0.076	-0.42	-2.8	-0.14
1273	-0.973	-0.282	0.081	-0.49	-2.8	0.84
1294	-0.978	-0.291	0.077	-0.14	-2.66	1.05
1314	-0.986	-0.296	0.062	0.98	-2.24	1.82
1338	-0.985	-0.285	0.06	0.91	-1.96	1.68
1353	-0.986	-0.281	0.06	0.63	-1.61	0.98
1373	-0.996	-0.281	0.06	0.56	-1.82	0.7
1397	-0.998	-0.287	0.067	1.61	-2.8	0.7
1418	-0.988	-0.277	0.067	1.96	-3.5	0.91
1437	-0.976	-0.264	0.076	0.35	-3.85	1.19
1457	-0.976	-0.276	0.071	0.63	-3.64	2.66
1477	-0.978	-0.277	0.061	2.24	-3.15	4.69
1500	-0.979	-0.265	0.052	1.47	-1.82	5.67
1519	-0.967	-0.258	0.053	-0.28	-0.49	5.74
1538	-0.976	-0.258	0.056	-1.33	0.56	5.95
1563	-0.978	-0.254	0.072	-1.47	1.26	6.3
1583	-0.998	-0.264	0.078	1.05	1.05	8.19
1603	-1.001	-0.239	0.076	0.49	-0.84	11.41
1623	-1.038	-0.079	0.176	-10.99	-10.43	16.87
1643	-0.964	-0.166	0.119	-9.73	-12.39	22.61
1667	-0.947	-0.201	0.137	-8.61	-6.3	27.93
1687	-1.131	-0.111	0.373	2.59	-19.39	38.57
1704	-1.248	0.057	0.451	12.81	-36.54	47.88
1728	-1.292	0.146	0.589	-12.53	-49.77	52.15
1743	-1.351	0.213	0.619	-40.67	-66.15	54.74
1768	-1.497	0.266	0.631	-72.1	-107.17	44.1
1788	-1.484	0.236	0.609	-120.05	-120.19	33.25
1805	-1.469	0.238	0.652	-138.53	-137.13	31.01
1829	-1.405	0.178	0.708	-140.14	-149.31	19.18
1847	-1.473	0.11	0.698	-139.65	-159.04	24.92
1867	-1.667	0.001	0.638	-136.78	-180.18	28.98
1891	-1.706	-0.063	0.61	-137.83	-219.8	21.21
1911	-1.559	-0.088	0.712	-158.27	-228.9	7.56
1930	-1.549	-0.223	0.693	-134.05	-237.65	-2.03
1950	-1.473	-0.339	0.674	-100.24	-243.67	-1.47
1974	-1.471	-0.477	0.641	-73.92	-254.03	-6.51
1993	-1.364	-0.486	0.692	-40.04	-264.11	-6.93
2013	-1.26	-0.401	0.726	-10.22	-262.01	-4.41
2033	-1.272	-0.328	0.74	5.32	-262.92	-4.06
2057	-1.286	-0.403	0.723	3.92	-273.98	-13.58
2077	-1.304	-0.493	0.743	16.94	-285.46	-22.75
2093	-1.287	-0.506	0.698	25.55	-301.49	-28.98
2117	-1.149	-0.608	0.61	30.1	-323.75	-33.67
2136	-1.021	-0.498	0.563	51.8	-324.31	-40.53
2156	-0.757	-0.497	0.508	71.05	-320.46	-36.96
2180	-0.903	-0.593	0.478	104.23	-323.75	-29.19
2200	-0.88	-0.468	0.268	137.62	-336.91	-27.23
2215	-0.643	-0.275	0.276	124.18	-346.71	-32.27
2240	-0.428	-0.124	0.247	93.73	-337.89	-44.73
2259	-0.141	-0.206	0.22	96.95	-318.15	-45.99
2278	-0.253	-0.314	0.274	126.14	-312.2	-35.35
2297	-0.163	-0.1	0.075	125.23	-313.25	-34.65
2322	0.298	0.041	-0.193	124.95	-309.96	-10.85
2342	1.046	0.254	-0.663	122.43	-291.27	35.07
2362	1.217	0.272	-0.685	111.93	-256.48	47.53
2382	1.086	0.073	-0.586	120.33	-151.62	33.46
2400	0.974	0.23	-0.368	87.36	-125.44	37.24
2422	1.167	0.219	-0.222	44.45	-76.02	42.56
2442	0.979	0.047	-0.075	22.96	-53.62	33.11
2457	0.916	-0.122	-0.072	16.03	-49.7	22.12
2483	0.868	-0.193	0.112	3.36	-47.88	9.38
2501	0.928	-0.287	0.152	5.81	-29.89	3.5
2523	0.92	-0.266	0.162	23.45	-41.09	1.75
2544	1.017	-0.169	0.118	40.11	-47.25	-3.29
2565	1.068	-0.056	0.136	19.32	-45.15	-12.46
2580	1.106	0.054	0.106	-13.09	-44.52	-23.17
2605	1.116	-0.124	0.073	-52.22	-41.65	-36.82
2625	1.03	-0.099	0.047	-26.04	-44.1	-35.91
2645	1.056	-0.049	0.061	11.76	-49.07	-26.95
2662	1.098	0.068	0.016	28.56	-45.43	-18.83
2680	1.051	0.233	-0.122	24.43	-36.33	-12.11
2705	1.116	0.19	-0.263	7.35	-19.6	-14.28
2729	1.061	0.188	-0.257	-16.73	7.84	-18.2
2747	0.986	0.119	-0.315	-27.37	25.13	-18.62
2769	0.931	0.076	-0.314	-32.34	44.03	-19.81
2792	0.911	0.068	-0.311	-33.04	73.01	-29.68
2813	0.906	0.104	-0.276	-44.24	99.68	-40.81
2830	0.895	0.129	-0.321	-59.71	121.38	-45.85
2850	0.758	0.176	-0.338	-64.19	139.79	-47.46
2872	0.778	0.0	-0.228	-59.78	176.89	-41.72
2894	0.814	-0.036	-0.083	-26.95	195.51	-40.81
2914	0.749	0.049	-0.044	-19.18	223.09	-44.73
2934	0.569	0.073	-0.033	-47.25	246.75	-53.69
2956	0.351	0.037	-0.06	-84.98	268.31	-53.9
2977	0.306	-0.055	0.061	-93.87	286.72	-52.92
2997	0.166	-0.204	0.044	-92.89	306.74	-48.79
3017	0.03	-0.183	0.026	-85.12	339.22	-46.55
3041	-0.209	-0.237	0.015	-103.46	376.6	-51.59
3061	-0.365	-0.236	0.142	-115.01	386.68	-45.36
3081	-0.456	-0.358	0.234	-114.52	431.62	-58.03
3101	-0.774	-0.766	0.073	-77.35	496.16	-89.95
3120	-1.33	-0.914	0.037	-15.19	521.78	-97.58
3141	-1.704	-0.522	0.226	44.38	464.66	-72.45
3160	-1.561	-0.185	0.643	51.17	421.54	-52.15
3185	-1.664	-0.361	0.465	101.5	447.86	-58.24
3200	-2.054	-0.051	0.806	151.55	436.45	-54.81
3224	-2.27	0.635	0.154	145.39	366.73	-42.84
3245	-2.101	0.329	0.015	25.27	295.12	-51.17
3264	-2.086	0.242	0.205	-9.31	248.22	-49.0
3288	-2.03	0.56	0.834	-15.47	191.87	-75.18
3308	-2.076	0.536	0.69	-20.3	159.04	-90.23
3328	-1.849	0.29	0.426	-56.77	121.8	-94.57
3346	-1.669	0.057	0.298	-76.65	114.17	-88.06
3364	-1.62	-0.119	0.33	-93.03	104.02	-75.81
3385	-1.592	0.24	0.653	-82.32	67.69	-48.44
3404	-1.343	0.365	0.464	-110.18	48.51	-57.75
3424	-1.215	0.106	0.442	-146.72	56.35	-65.94
3445	-1.346	-0.31	0.46	-133.84	59.64	-69.23
3465	-1.211	-0.244	0.446	-101.01	86.87	-100.24
3489	-1.2	-0.453	0.254	-54.39	71.26	-78.12
3509	-1.369	-0.261	0.409	53.13	72.38	-52.43
3529	-1.111	0.461	0.728	81.97	71.12	-33.95
3549	-1.43	0.265	0.588	76.93	18.97	-8.19
3565	-1.322	0.017	0.331	78.96	6.79	18.9
3585	-1.158	-0.077	0.107	76.23	-4.48	40.53
3607	-1.109	-0.143	-0.034	79.24	-8.89	45.64
3628	-0.983	-0.216	-0.144	80.01	-9.45	35.84
3648	-0.899	-0.191	-0.158	67.55	-8.54	26.32
3668	-0.835	-0.162	-0.16	48.86	-5.11	18.9
3691	-0.88	-0.146	-0.134	18.13	-2.45	10.01
3711	-0.885	-0.195	-0.12	-0.77	-1.47	3.64
3731	-0.898	-0.275	-0.125	-5.18	0.56	-0.35
3751	-0.918	-0.286	-0.122	-0.35	6.3	-4.2
3772	-0.984	-0.283	-0.117	6.44	9.45	-7.14
3795	-1.061	-0.238	-0.127	12.39	11.76	-10.99
3819	-1.026	-0.124	-0.072	12.18	11.62	-15.82
3838	-1.03	-0.042	-0.042	6.44	10.5	-15.33
3856	-1.05	0.01	-0.001	-2.8	5.04	-11.97
3877	-1.055	-0.027	-0.023	-10.22	-1.05	-3.15
3898	-1.052	-0.139	-0.078	-9.45	-3.15	4.2
3917	-1.01	-0.157	-0.1	-8.68	-1.47	5.39
3941	-1.003	-0.184	-0.09	-9.45	-1.82	1.96
3962	-0.991	-0.195	-0.064	-10.08	-4.2	-1.47
3981	-0.968	-0.208	-0.057	-9.8	-5.04	-2.59
4002	-0.967	-0.233	-0.024	-6.09	-5.95	-0.56
4022	-0.994	-0.249	-0.033	2.73	-8.47	3.08
4042	-1.034	-0.283	-0.077	13.44	-8.54	4.76
4059	-1.024	-0.27	-0.136	19.04	-6.16	0.84
4082	-0.999	-0.172	-0.14	15.33	-0.77	-5.18
4102	-0.983	-0.116	-0.088	6.58	3.29	-7.35
4122	-0.971	-0.074	-0.051	-1.19	3.08	-2.45
4141	-1.043	-0.072	-0.012	-4.55	-2.17	1.75
4162	-1.068	-0.115	0.011	-5.53	-10.29	8.19
4177	-1.041	-0.061	0.057	-6.86	-15.4	13.09
4202	-1.033	-0.002	0.042	-13.37	-22.4	20.09
4222	-1.046	-0.022	0.197	-12.04	-18.62	30.59
4239	-1.227	0.175	0.281	-4.48	-34.72	39.69
4258	-1.253	0.242	0.388	-6.65	-22.82	45.78
4277	-1.375	0.149	0.371	-8.19	-37.38	47.18
4302	-1.478	0.158	0.388	-29.96	-75.39	59.78
4320	-1.511	0.373	0.525	-49.14	-101.99	54.6
4341	-1.606	0.549	0.557	-86.17	-129.57	46.41
4361	-1.63	0.586	0.61	-133.91	-152.74	34.86
4385	-1.709	0.599	0.65	-189.84	-172.27	16.38
4402	-1.707	0.41	0.544	-231.28	-205.52	6.79
4423	-1.763	0.242	0.501	-241.36	-231.14	-6.79
4445	-1.84	0.053	0.495	-246.54	-258.79	-22.54
4469	-1.876	-0.325	0.508	-220.71	-286.37	-39.97
4490	-1.91	-0.699	0.42	-111.93	-331.38	-56.07
4509	-1.632	-0.534	0.541	-49.7	-339.57	-70.35
4528	-1.787	-0.39	0.604	-35.35	-385.77	-70.49
4548	-1.852	-0.481	0.522	-18.97	-395.64	-83.65
4569	-1.744	-0.67	0.417	10.01	-404.04	-89.88
4589	-1.687	-0.721	0.575	64.54	-415.24	-85.26
4604	-1.684	-0.71	0.646	88.9	-425.04	-81.13
4629	-1.644	-0.618	0.439	125.23	-451.08	-77.91
4649	-1.312	-0.41	0.378	120.54	-457.1	-72.94
4669	-0.743	-0.137	0.308	98.91	-442.19	-71.54
4689	-0.5	-0.148	0.285	66.64	-419.86	-75.46
4709	-0.415	-0.171	0.158	61.95	-392.98	-72.38
4728	-0.345	-0.203	-0.015	74.9	-379.89	-64.61
4752	0.02	-0.126	-0.257	84.84	-353.5	-55.44
4772	0.164	-0.262	-0.284	126.0	-325.29	-37.66
4795	0.272	-0.202	-0.343	138.81	-282.66	-29.82
4819	0.236	-0.082	-0.446	118.58	-255.15	-37.1
4839	0.477	0.011	-0.495	91.0	-231.0	-37.1
4859	0.802	0.063	-0.588	76.51	-182.28	-31.99
4878	0.87	0.116	-0.663	75.32	-146.51	-27.72
4899	0.864	0.181	-0.674	74.06	-112.84	-23.17
4916	1.035	0.224	-0.595	64.33	-84.63	-22.33
4940	1.139	0.252	-0.416	19.6	-26.53	-17.78
4960	1.047	0.181	-0.37	0.84	-6.23	-8.12
4984	1.083	0.212	-0.288	0.28	8.33	-3.15
5004	1.111	0.211	-0.208	-8.75	28.07	-2.1
5024	1.129	0.228	-0.128	-29.89	43.47	1.96
5040	1.078	0.119	0.005	-41.51	42.49	-1.68
5060	1.017	0.115	0.102	-44.31	44.24	-1.26
5080	0.967	0.116	0.175	-39.69	38.22	1.68
5104	1.055	0.096	0.179	-10.57	29.26	4.41
5124	1.01	0.096	0.184	-0.63	36.54	-0.63
5144	0.982	0.17	0.216	-17.78	32.27	-6.51
5164	0.93	0.18	0.264	-25.9	31.22	-3.99
5184	0.878	0.16	0.256	-17.57	28.21	3.08
5204	0.924	0.152	0.235	-8.33	27.09	4.83
5222	0.985	0.166	0.26	-8.47	24.57	1.89
5242	0.961	0.157	0.259	-18.83	27.23	-6.51
5262	0.963	0.019	0.175	-25.34	30.52	-15.89
5285	0.928	-0.029	0.1	-37.17	42.84	-28.98
5305	0.901	-0.006	0.061	-43.19	53.2	-32.55
5329	0.832	-0.018	-0.046	-46.62	66.71	-38.64
5348	0.84	0.029	-0.201	-70.35	94.85	-46.2
5368	0.916	0.093	-0.39	-93.87	135.38	-47.46
5392	0.958	0.082	-0.39	-125.3	182.42	-50.19
5408	0.854	-0.024	-0.346	-121.03	215.39	-52.43
5432	0.653	-0.104	-0.327	-109.9	252.77	-50.12
5452	0.509	-0.076	-0.181	-110.95	273.77	-35.63
5471	0.399	-0.001	-0.008	-118.09	297.36	-30.52
5491	0.192	-0.091	0.175	-104.93	308.28	-27.02
5511	0.055	-0.12	0.27	-112.63	339.15	-5.88
5535	-0.093	-0.24	0.403	-124.6	363.72	49.0
5555	-0.484	-0.219	0.543	-63.56	362.04	44.66
5574	-0.464	-0.135	0.56	-0.42	346.43	49.07
5595	-0.468	-0.374	0.451	5.6	387.8	25.69
5615	-0.694	-0.292	0.407	34.51	445.27	6.02
5635	-1.358	-0.192	0.427	63.14	457.87	-27.93
5650	-1.603	-0.156	0.399	91.42	428.47	-33.74
5673	-1.627	-0.12	0.397	84.14	400.54	-37.59
5695	-1.886	0.126	0.592	88.41	384.23	-30.31
5715	-1.94	0.151	0.625	102.62	346.71	-21.7
5739	-1.785	-0.032	0.414	98.35	310.24	-37.94
5759	-1.809	-0.07	0.121	103.18	260.61	-33.88
5779	-1.662	0.056	0.23	119.21	200.41	-44.94
5801	-1.55	0.33	0.26	106.54	175.35	-72.59
5820	-1.653	0.36	0.189	52.01	155.75	-90.44
5839	-1.699	0.434	0.165	-6.09	118.44	-82.39
5864	-1.401	0.65	0.513	-74.55	95.13	-95.41
5884	-1.359	0.393	0.632	-100.59	108.85	-97.44
5901	-1.533	0.12	0.667	-86.24	103.6	-84.28
5924	-1.56	-0.202	0.423	-24.15	94.71	-69.72
5948	-1.489	-0.246	0.274	42.49	69.65	-52.64
5967	-1.348	-0.129	0.252	63.21	45.36	-44.87
5986	-1.3	0.155	0.213	61.88	28.28	-45.01
6004	-1.29	0.304	0.232	49.0	17.43	-79.52
6028	-0.933	0.102	0.453	25.76	66.01	-108.92
6052	-1.278	0.163	0.257	13.09	21.28	-29.26
6072	-1.266	0.484	0.264	-20.72	-3.78	-21.91
6092	-1.179	0.331	0.212	-48.72	-4.76	-11.41
6112	-1.164	0.22	0.133	-58.52	-14.98	-5.39
6128	-1.077	-0.015	0.063	-63.56	-18.62	3.5
6147	-1.037	-0.16	-0.018	-66.43	-16.17	7.98
6172	-1.027	-0.293	-0.064	-53.9	-11.41	7.91
6189	-1.001	-0.353	-0.091	-34.72	-13.58	9.66
6213	-0.928	-0.349	-0.105	-19.53	-13.37	5.46
6232	-0.861	-0.291	-0.052	-11.69	-9.45	-0.91
6252	-0.876	-0.282	-0.039	-2.03	-0.35	-6.58
6276	-0.894	-0.27	-0.029	-5.46	6.86	-9.45
6295	-0.917	-0.257	-0.028	-7.7	8.19	-12.53
6315	-0.982	-0.253	-0.012	-2.1	8.68	-10.71
6335	-1.052	-0.251	-0.027	3.85	7.35	-5.81
6359	-1.07	-0.232	-0.048	10.29	7.21	-2.94
6379	-1.039	-0.176	-0.051	13.37	5.88	-1.75
6394	-1.027	-0.101	-0.018	13.09	5.88	-5.95
6415	-1.045	-0.052	-0.001	11.06	2.03	-2.66
6435	-1.051	-0.105	-0.029	7.98	-0.84	3.43
6459	-1.016	-0.13	-0.02	4.55	-3.43	9.31
6479	-1.002	-0.157	-0.02	4.9	-5.53	9.8
6498	-0.981	-0.17	-0.019	5.11	-4.69	9.8
6516	-1.022	-0.191	-0.037	-0.42	-3.99	8.4
6540	-1.04	-0.127	-0.001	-0.42	-9.73	11.48
6560	-0.984	-0.131	0.012	-5.11	-12.04	13.58
6580	-0.987	-0.089	0.079	-4.97	-8.33	13.02
6599	-1.032	0.04	0.193	4.9	-8.89	32.41
6620	-1.205	0.187	0.275	8.4	-25.13	48.58
6638	-1.211	0.285	0.293	2.94	-28.84	63.77
6657	-1.487	0.268	0.44	-4.9	-41.93	59.57
6682	-1.676	0.289	0.651	10.43	-67.55	76.37
6702	-1.774	0.661	0.663	-26.81	-105.35	78.33
6722	-1.749	0.788	0.665	-105.7	-138.67	64.26
6740	-1.831	0.756	0.631	-150.08	-162.47	54.67
6760	-1.872	0.758	0.574	-194.74	-209.44	42.7
6785	-1.977	0.561	0.49	-237.02	-236.67	21.98
6804	-2.022	0.071	0.439	-223.44	-256.83	13.51
6823	-1.896	-0.162	0.31	-180.11	-279.23	14.56
6842	-1.805	-0.109	0.395	-135.59	-292.32	16.31
6862	-1.926	-0.135	0.438	-104.23	-311.15	18.55
6886	-1.973	-0.293	0.247	-73.5	-350.91	14.0
6904	-1.941	-0.258	0.312	-58.31	-379.12	0.63
6928	-1.86	-0.3	0.394	-44.38	-407.82	-25.06
6947	-1.816	-0.448	0.457	-36.33	-427.56	-37.1
6967	-1.766	-0.618	0.426	13.02	-438.34	-33.67
6991	-1.603	-0.61	0.344	51.17	-446.67	-19.95
7006	-1.271	-0.341	0.306	73.08	-466.76	-13.23
7028	-0.742	-0.122	0.361	51.24	-449.12	-27.79
7048	-0.514	-0.146	0.28	31.36	-423.5	-33.95
7072	-0.522	-0.391	0.213	29.61	-401.94	-38.92
7092	-0.381	-0.35	-0.025	56.63	-385.49	-32.13
7112	0.014	-0.171	-0.202	58.59	-368.2	-29.75
7136	0.316	-0.107	-0.419	63.98	-327.53	-18.69
7161	0.266	-0.234	-0.382	91.56	-278.04	-13.93
7180	0.397	-0.113	-0.501	104.58	-252.56	-12.25
7200	0.651	-0.018	-0.593	105.84	-219.17	-13.16
7224	0.849	0.043	-0.639	102.2	-166.67	-7.28
7244	0.947	0.116	-0.526	75.18	-121.94	-11.97
7262	0.972	0.09	-0.475	52.71	-86.94	-19.39
7286	1.074	0.115	-0.4	6.51	-39.06	-22.12
7302	1.121	0.035	-0.379	-11.76	-19.18	-21.14
7322	1.151	0.024	-0.299	-18.76	4.69	-19.18
7346	1.19	0.036	-0.179	-14.91	24.43	-19.39
7366	1.159	0.13	-0.056	-19.74	37.73	-19.46
7389	1.119	0.185	0.05	-30.94	41.86	-20.72
7410	1.157	0.142	0.121	-31.5	49.98	-17.08
7434	1.078	0.155	0.145	-35.7	50.68	-13.86
7453	0.983	0.122	0.243	-39.76	52.5	-11.41
7473	0.97	0.147	0.328	-39.48	49.63	-4.48
7489	0.945	0.12	0.324	-37.94	52.15	-3.01
7509	0.904	0.096	0.285	-34.02	55.72	-3.71
7534	0.94	0.125	0.285	-35.07	56.21	-10.64
7554	0.928	0.123	0.291	-36.82	62.44	-13.3
7574	0.862	0.142	0.205	-49.07	73.15	-14.07
7591	0.814	0.048	0.111	-57.4	83.02	-14.98
7611	0.763	-0.045	0.055	-68.81	102.97	-21.0
7631	0.705	-0.124	-0.033	-73.01	130.13	-25.76
7650	0.636	-0.127	-0.119	-77.28	157.36	-32.62
7671	0.584	-0.022	-0.144	-93.24	179.06	-46.48
7694	0.552	-0.057	-0.175	-115.22	220.36	-58.87
7715	0.368	-0.161	-0.24	-133.63	272.16	-63.14
7734	0.283	-0.271	-0.286	-133.77	313.88	-57.4
7753	0.087	-0.339	-0.211	-121.24	341.04	-48.86
7777	0.011	-0.361	-0.046	-88.55	372.75	-42.14
7798	-0.208	-0.386	0.205	-32.06	406.49	-37.38
7818	-0.473	-0.356	0.292	-28.14	436.45	-33.39
7837	-0.727	-0.555	0.15	-33.81	466.41	-23.31
7855	-1.025	-0.522	0.091	24.08	453.53	-14.42
7874	-1.139	-0.61	0.259	69.72	491.26	-33.18
7894	-1.319	-0.36	0.051	54.04	456.54	-42.7
7914	-1.74	-0.222	0.108	56.98	488.53	-51.59
7939	-2.316	0.09	0.427	47.95	437.43	-36.05
7957	-2.438	0.085	0.45	51.31	387.38	-19.04
7981	-2.249	-0.086	0.179	43.82	354.13	-13.93
7996	-2.316	-0.214	-0.013	65.45	328.79	-17.71
8018	-2.329	0.105	0.269	92.54	236.81	-1.82
8036	-2.185	0.632	0.393	80.92	183.54	-23.24
8061	-1.988	0.799	0.391	-2.94	134.61	-78.4
8081	-1.754	0.379	0.274	-84.91	122.29	-104.51
8099	-1.687	-0.083	0.222	-96.6	105.91	-109.69
8123	-1.764	0.029	0.459	-96.81	65.38	-76.09
8143	-1.516	0.127	0.281	-95.13	18.9	-70.7
8163	-1.142	0.454	0.351	-128.17	38.57	-118.16
8187	-0.862	0.025	0.365	-178.85	80.15	-148.68
8207	-1.187	-0.064	0.495	-175.42	124.88	-70.35
8227	-1.596	0.175	0.626	-141.75	13.79	-36.54
8242	-1.347	-0.002	0.515	-217.0	12.88	-33.6
8267	-1.413	-0.114	0.546	-121.17	-33.11	-24.71
8287	-1.151	-0.586	0.275	-17.71	-26.6	14.56
8305	-1.087	-0.62	0.081	38.5	-18.06	30.24
8324	-1.021	-0.58	-0.034	104.79	-9.94	42.98
8348	-0.945	-0.38	-0.12	149.59	-9.1	49.07
8365	-0.917	-0.215	-0.178	160.02	-9.1	49.77
8389	-0.87	-0.08	-0.141	134.54	-1.68	43.54
8409	-0.919	-0.094	-0.122	93.87	2.03	30.45
8425	-0.887	-0.09	-0.118	65.52	1.12	18.76
8445	-0.877	-0.121	-0.184	25.41	-0.28	8.68
8465	-0.93	-0.253	-0.224	3.85	-1.12	-3.01
8484	-0.944	-0.321	-0.226	2.17	-3.78	-6.58
8509	-0.932	-0.363	-0.206	18.83	-4.34	-6.02
8526	-0.921	-0.297	-0.204	29.4	-4.06	-3.57
8546	-0.963	-0.282	-0.198	39.27	2.1	-2.73
8566	-0.986	-0.261	-0.173	59.22	4.62	1.75
8585	-0.983	-0.132	-0.121	75.11	10.85	1.4
8606	-1.011	0.018	-0.115	72.17	13.23	-4.13
8626	-1.044	0.091	-0.084	49.42	12.53	-11.13
8649	-1.082	0.091	-0.075	21.07	8.19	-9.1
8670	-1.069	0.031	-0.061	2.03	2.31	-4.76
8690	-1.063	-0.041	-0.073	-6.65	0.21	0.07
8714	-1.03	-0.07	-0.073	-13.16	-1.96	6.37
8729	-1.022	-0.139	-0.068	-14.77	-2.17	7.42
8754	-0.985	-0.152	-0.034	-10.43	0.0	7.07
8772	-1.009	-0.108	0.082	-6.09	0.63	9.87
8794	-1.181	-0.021	0.293	15.47	-6.16	23.24
8814	-1.216	0.102	0.221	27.16	-20.93	39.69
8834	-1.148	0.158	0.234	29.33	-28.14	46.62
8853	-1.345	0.303	0.357	30.59	-43.33	59.15
8873	-1.535	0.312	0.55	28.91	-65.17	77.14
8897	-1.566	0.57	0.736	22.19	-77.28	88.48
8917	-1.773	0.768	0.639	-9.03	-117.46	107.03
8936	-1.69	0.889	0.571	-64.96	-131.6	103.18
8956	-1.923	0.976	0.489	-126.49	-158.55	96.95
8980	-1.874	0.881	0.498	-214.48	-182.63	84.49
9000	-2.066	0.617	0.447	-267.12	-215.39	53.62
9018	-2.136	0.145	0.353	-267.05	-250.67	22.89
9042	-2.253	-0.11	0.387	-202.3	-307.37	26.46
9066	-2.35	-0.315	0.241	-119.07	-356.72	26.74
9085	-2.31	-0.306	0.065	-68.53	-403.69	24.01
9109	-2.227	-0.227	0.113	-62.58	-445.9	9.66
9129	-2.061	-0.13	0.164	-72.52	-464.17	-3.78
9148	-1.966	-0.233	0.115	-73.29	-471.66	-12.95
9169	-1.822	-0.544	-0.038	-12.95	-475.23	-0.56
9184	-1.547	-0.442	-0.087	20.86	-481.95	7.56
9209	-1.149	-0.282	-0.015	33.25	-467.46	2.31
9228	-0.874	-0.129	-0.059	30.38	-455.77	-6.02
9249	-0.543	-0.106	-0.128	10.57	-427.77	-18.9
9268	-0.17	-0.122	-0.222	-2.38	-403.9	-28.77
9293	0.118	-0.168	-0.227	5.53	-365.96	-34.16
9313	0.268	-0.201	-0.249	20.44	-332.64	-34.86
9333	0.348	-0.155	-0.351	39.2	-292.32	-34.23
9352	0.526	-0.121	-0.436	52.15	-261.1	-28.07
9376	0.706	-0.055	-0.475	56.91	-229.67	-21.21
9396	0.881	0.007	-0.464	68.53	-182.49	-17.01
9416	1.033	0.089	-0.404	64.33	-140.91	-18.48
9436	1.114	0.136	-0.291	60.69	-101.5	-19.6
9455	1.223	0.242	-0.391	41.44	-58.66	-13.58
9475	1.291	0.24	-0.415	9.52	-18.97	-15.82
9500	1.262	0.138	-0.378	-18.06	13.93	-13.09
9520	1.224	0.122	-0.265	-27.09	40.11	-15.54
9539	1.156	0.088	-0.128	-32.13	55.09	-8.82
9563	1.107	0.043	-0.022	-27.72	66.57	-7.07
9583	1.04	0.039	0.089	-29.96	76.65	-1.89
9600	1.028	0.029	0.188	-27.93	80.57	-0.63
9624	0.923	0.022	0.219	-36.96	83.16	-5.81
9644	0.927	0.04	0.185	-59.01	100.87	-9.1
9664	0.895	-0.038	0.171	-70.91	118.02	-10.64
9681	0.817	-0.048	0.197	-66.64	120.05	-7.28
9701	0.803	-0.08	0.266	-31.71	131.88	-0.35
9724	0.79	0.01	0.101	-11.06	150.57	6.44
9743	0.822	0.075	-0.109	-22.96	183.89	7.21
9763	0.757	0.11	-0.056	-57.33	225.26	-4.76
9783	0.586	0.096	0.162	-83.3	242.76	-4.69
9806	0.427	-0.081	0.205	-67.2	280.56	-11.41
9826	0.257	-0.202	0.144	-49.14	316.89	-9.24
9850	0.031	-0.313	0.061	-38.43	356.3	-4.9
9870	-0.307	-0.305	0.197	-17.99	370.44	7.63
9885	-0.608	-0.316	0.383	-11.69	362.53	7.77
9910	-0.682	-0.627	0.256	59.71	384.37	5.25
9930	-0.881	-0.526	0.08	117.81	384.3	-0.77
9947	-0.996	-0.294	0.258	156.73	381.43	-2.52
9967	-1.207	-0.048	0.218	163.73	353.29	-6.02
9990	-1.212	0.071	0.211	145.25	325.43	-11.27
10011	-1.254	0.047	0.203	84.63	336.0	-36.96
10026	-1.409	0.079	0.293	56.14	339.22	-49.14
10048	-1.782	-0.006	0.257	69.16	325.5	-73.22
10072	-1.936	-0.042	0.205	70.7	283.57	-82.53
10089	-1.881	0.106	0.266	77.84	224.21	-88.55
10113	-1.819	0.283	0.275	77.84	195.02	-108.29
10133	-1.799	0.196	0.217	53.62	175.98	-119.21
10153	-1.84	0.342	0.35	39.34	140.84	-106.33
10170	-1.624	0.569	0.539	33.18	122.57	-106.05
10190	-1.577	0.545	0.502	6.02	125.93	-109.83
10210	-1.655	0.294	0.353	-33.6	129.29	-106.75
10232	-1.587	-0.01	0.285	-33.95	132.93	-90.79
10256	-1.514	0.077	0.584	30.94	109.9	-59.22
10276	-1.535	0.259	0.571	63.35	94.92	-53.48
10295	-1.493	0.228	0.425	59.36	82.6	-44.94
10315	-1.38	0.157	0.33	64.26	73.85	-45.43
10339	-1.295	0.243	0.245	90.02	69.72	-64.75
10358	-1.055	0.091	0.487	62.72	78.12	-42.77
10379	-1.422	0.416	0.358	20.51	50.54	-5.67
10398	-1.351	0.149	0.359	-24.99	-2.87	-10.22
10419	-1.21	0.048	0.244	-34.23	-8.61	-7.14
10443	-1.084	-0.138	0.047	-16.66	-5.11	3.36
10462	-1.086	-0.139	-0.036	-0.35	-5.46	2.73
10486	-0.998	-0.131	-0.05	15.33	-7.0	5.81
10503	-0.942	-0.158	-0.063	26.04	-5.6	8.4
10525	-0.914	-0.155	-0.069	26.25	-1.47	7.14
10545	-0.922	-0.132	-0.061	19.67	-0.07	3.85
10566	-0.945	-0.141	-0.051	11.69	-0.35	0.21
10589	-0.967	-0.195	-0.092	7.56	-1.54	0.77
10609	-0.973	-0.219	-0.107	7.7	1.75	1.33
10628	-1.012	-0.204	-0.09	10.22	2.87	2.17
10644	-1.006	-0.158	-0.071	12.46	3.71	2.1
10669	-1.027	-0.144	-0.078	13.86	3.99	0.56
10689	-1.058	-0.117	-0.106	13.3	3.22	1.12
10708	-1.041	-0.051	-0.09	5.46	0.56	-0.28
10732	-0.994	-0.058	-0.062	-3.71	-0.21	-0.49
10752	-0.994	-0.104	-0.018	-6.16	1.19	1.33
10776	-1.005	-0.108	0.054	-0.49	3.22	3.15
10793	-1.078	0.06	0.238	5.81	-1.47	13.37
10811	-1.199	0.109	0.315	21.42	-6.23	30.24
10836	-1.226	0.261	0.337	12.67	-26.32	51.66
10853	-1.181	0.357	0.361	-19.04	-21.49	40.53
10871	-1.36	0.284	0.327	-31.5	-51.17	50.68
10895	-1.367	0.359	0.488	-44.1	-60.62	56.84
10911	-1.574	0.378	0.502	-50.89	-82.32	70.28
10936	-1.636	0.526	0.522	-48.79	-106.75	86.52
10952	-1.735	0.688	0.476	-56.14	-131.88	95.34
10971	-1.843	0.968	0.544	-94.36	-155.05	101.15
10991	-2.274	1.249	0.705	-175.7	-197.12	93.24
11013	-2.602	1.078	0.451	-275.24	-270.62	57.68
11034	-2.622	0.488	0.29	-319.62	-350.63	19.53
11054	-2.525	0.172	0.324	-319.27	-410.69	-17.01
11075	-2.527	-0.008	0.238	-305.9	-462.42	-36.19
11096	-2.506	-0.45	0.173	-226.94	-481.18	-44.59
11118	-2.398	-0.889	0.019	-104.93	-499.59	-35.42
11142	-2.159	-0.842	0.045	17.01	-514.64	-3.92
11162	-1.828	-0.437	0.005	61.46	-524.23	-6.58
11182	-1.553	-0.313	0.133	31.57	-504.21	-28.21
11197	-1.363	-0.45	0.029	45.15	-487.62	-38.15
11217	-0.858	-0.373	-0.079	53.76	-470.33	-44.1
11237	-0.453	-0.269	-0.115	54.88	-448.28	-44.17
11262	-0.092	-0.222	-0.219	50.82	-403.27	-42.56
11282	-0.01	-0.25	-0.309	55.72	-363.65	-33.74
11298	0.079	-0.237	-0.407	66.29	-335.51	-23.94
11322	0.319	-0.212	-0.497	80.15	-291.69	-7.49
11340	0.451	-0.143	-0.639	97.58	-253.54	8.54
11362	0.652	-0.05	-0.872	90.58	-210.42	9.73
11382	0.738	-0.092	-0.683	70.21	-153.3	4.97
11401	0.714	-0.071	-0.561	35.98	-105.42	-2.45
11425	0.766	-0.019	-0.453	-3.5	-63.63	-15.82
11445	0.853	-0.05	-0.31	-25.9	-31.99	-24.5
11465	0.949	-0.092	-0.174	-14.21	-13.51	-16.59
11487	0.999	-0.029	0.012	-4.06	-3.29	-6.51
11511	1.116	0.009	0.105	-3.15	17.57	-3.43
11531	1.131	0.049	0.232	-16.52	21.56	-2.03
11549	1.127	0.059	0.294	-28.91	24.36	-5.04
11572	1.103	0.065	0.332	-32.41	21.42	-5.95
11588	1.106	0.043	0.31	-36.68	27.51	-6.72
11608	1.096	-0.027	0.301	-28.42	27.16	-4.97
11628	1.06	-0.077	0.305	-10.15	28.91	-4.69
11653	0.984	-0.032	0.283	-2.03	32.06	-8.33
11672	0.961	0.081	0.343	-6.3	35.0	-7.77
11691	0.942	0.076	0.322	-11.62	38.99	-9.94
11711	0.882	0.011	0.235	-18.06	33.74	-17.99
11735	0.888	-0.077	0.077	-33.39	51.45	-25.9
11755	0.903	-0.158	-0.133	-44.59	92.47	-29.47
11773	0.806	-0.113	-0.114	-45.29	117.6	-28.28
11792	0.825	-0.139	-0.056	-27.79	145.18	-30.31
11815	0.82	-0.165	-0.112	-3.71	182.91	-42.42
11832	0.764	-0.138	-0.172	8.19	209.79	-51.45
11851	0.679	-0.086	-0.282	5.25	247.8	-56.98
11871	0.597	-0.146	-0.193	-12.46	284.13	-66.08
11896	0.447	-0.252	-0.139	-11.27	332.99	-73.29
11916	0.167	-0.351	-0.094	-3.78	366.66	-81.2
11936	-0.123	-0.334	0.154	-8.75	389.55	-86.24
11956	-0.457	-0.22	0.356	-25.55	407.47	-70.28
11976	-0.658	-0.461	0.148	-8.26	410.41	-64.54
11996	-0.668	-0.317	-0.074	32.2	422.52	-73.5
12020	-0.791	-0.117	-0.042	52.92	433.79	-80.5
12038	-1.032	-0.035	-0.057	55.86	469.56	-55.02
12056	-1.422	-0.02	-0.326	58.66	492.24	-66.92
12075	-1.751	-0.156	-0.51	43.61	500.01	-54.04
12096	-2.277	-0.09	-0.318	69.58	501.34	-36.47
12120	-2.726	0.011	0.118	103.53	448.28	-20.79
12139	-2.798	0.298	0.022	144.76	347.9	-9.94
12156	-2.561	0.56	-0.109	118.44	263.41	-31.57
12176	-2.139	0.505	-0.173	55.3	183.75	-70.35
12196	-1.95	0.545	0.031	-1.89	140.42	-104.37
12216	-1.861	0.692	0.438	-15.68	121.38	-129.01
12235	-1.908	0.622	0.653	-16.1	115.29	-129.71
12260	-1.816	0.408	0.588	-25.2	98.28	-112.84
12280	-1.603	0.076	0.439	-21.28	103.32	-100.52
12295	-1.58	-0.213	0.289	11.27	92.4	-78.47
12320	-1.464	-0.078	0.246	64.33	63.7	-48.86
12339	-1.36	0.181	0.179	70.28	46.34	-68.18
12365	-1.204	0.341	0.464	72.59	44.87	-102.34
12384	-1.123	0.877	0.349	-67.34	41.65	-77.63
12402	-1.525	0.79	0.264	-100.73	-9.73	-41.93
12425	-1.301	0.309	0.154	-159.18	-28.35	-31.15
12445	-1.204	0.041	0.092	-126.28	-30.03	-23.03
12465	-1.058	-0.225	0.019	-85.68	-21.98	-12.81
12488	-0.992	-0.31	-0.019	-41.72	-14.63	3.29
12507	-0.993	-0.362	-0.067	1.82	-8.47	12.39
12527	-1.037	-0.38	-0.126	31.92	-10.08	15.47
12551	-1.04	-0.355	-0.169	57.33	-19.81	17.01
12571	-0.945	-0.248	-0.114	61.81	-22.82	15.96
12591	-0.932	-0.191	-0.102	49.49	-21.77	7.84
12614	-0.965	-0.183	-0.123	30.8	-22.26	-1.96
12635	-0.935	-0.213	-0.114	24.57	-22.75	-5.46
12659	-0.928	-0.202	-0.098	32.48	-17.78	-0.56
12678	-0.922	-0.149	-0.087	38.92	-12.32	3.99
12702	-0.941	-0.097	-0.078	45.01	0.21	11.55
12720	-1.001	-0.043	-0.1	42.42	5.25	14.07
12741	-1.04	-0.037	-0.136	32.41	7.0	12.74
12765	-1.051	0.022	-0.128	23.17	6.44	8.82
12785	-1.04	0.129	0.027	10.71	5.81	9.24
12802	-1.106	0.23	0.177	8.89	3.36	24.01
12825	-1.355	0.511	0.282	21.42	-4.97	57.82
12849	-1.568	0.859	0.339	-57.26	-30.1	71.05
12869	-1.529	0.738	0.479	-96.25	-76.72	50.4
12889	-1.963	0.736	0.86	-108.5	-108.08	46.34
12906	-2.259	0.536	0.789	-127.75	-168.0	52.36
12929	-2.003	0.344	0.671	-108.15	-228.2	76.23
12953	-2.15	0.612	0.722	-119.7	-267.82	71.61
12973	-2.276	0.528	0.61	-164.43	-308.91	74.41
12991	-2.136	0.132	0.392	-180.95	-333.76	51.31
13009	-1.996	-0.172	0.34	-156.94	-349.93	52.08
13032	-1.946	-0.239	0.353	-119.91	-353.36	49.21
13052	-2.049	-0.161	0.383	-74.41	-375.83	49.35
13072	-1.936	-0.321	0.297	-49.42	-387.17	46.13
13095	-1.693	-0.468	0.243	-1.96	-387.24	56.28
13115	-1.448	-0.244	0.359	12.46	-388.22	55.3
13135	-1.445	-0.124	0.468	4.62	-386.75	43.75
13159	-1.345	-0.125	0.309	5.11	-383.46	41.23
13179	-1.029	-0.156	0.353	11.13	-381.08	42.7
13198	-0.739	-0.178	0.473	24.85	-368.83	42.63
13219	-0.692	-0.227	0.61	28.49	-349.79	36.26
13239	-0.705	-0.237	0.324	62.44	-348.67	46.06
13263	-0.389	-0.241	0.237	106.19	-352.38	66.78
13283	-0.154	-0.089	0.088	113.82	-347.13	83.72
13307	0.12	0.058	-0.117	88.2	-335.65	92.4
13327	0.372	-0.052	-0.259	45.92	-296.59	89.11
13347	0.447	-0.078	-0.311	30.87	-253.47	74.83
13367	0.577	-0.251	-0.423	37.87	-186.55	63.28
13387	0.655	-0.226	-0.478	37.17	-151.83	43.54
13404	0.781	-0.298	-0.403	32.48	-121.45	28.77
13424	0.862	-0.334	-0.279	24.01	-87.85	11.06
13444	0.903	-0.33	-0.19	21.91	-57.47	-1.68
13464	0.91	-0.224	-0.114	13.51	-34.51	-10.5
13488	1.014	-0.115	0.025	9.8	-18.27	-16.24
13504	1.076	-0.084	0.092	0.7	-21.91	-13.58
13524	1.126	-0.124	0.109	-4.41	-5.67	-17.36
13548	1.119	0.053	0.238	-3.01	-1.33	-13.72
13568	1.09	0.025	0.26	-4.97	-2.87	-5.88
13585	1.124	0.016	0.254	-3.78	-2.45	-0.35
13610	1.19	0.042	0.241	-7.21	2.24	4.34
13625	1.11	0.076	0.215	-16.8	10.43	0.14
13645	1.032	-0.091	0.104	-29.47	27.37	-13.79
13667	0.991	-0.222	-0.053	-56.49	50.68	-40.53
13689	0.954	-0.192	-0.231	-81.06	90.51	-59.92
13713	0.802	-0.253	-0.301	-91.35	132.65	-76.65
13732	0.666	-0.282	-0.28	-80.99	163.03	-87.78
13752	0.593	-0.331	-0.339	-64.54	196.98	-100.73
13771	0.52	-0.226	-0.436	-60.76	236.53	-101.08
13792	0.411	-0.182	-0.377	-76.37	277.83	-105.42
13811	0.336	-0.175	-0.244	-97.02	319.69	-108.29
13831	0.27	-0.155	-0.16	-109.62	368.9	-107.03
13854	0.081	-0.262	-0.096	-108.5	419.37	-106.82
13874	-0.247	-0.33	0.0	-89.11	448.84	-100.73
13893	-0.418	-0.529	0.035	-90.23	496.09	-84.35
13918	-0.814	-0.462	0.055	11.34	527.03	-58.59
13937	-1.091	-0.501	-0.057	161.77	511.07	-51.73
13957	-1.086	-0.127	-0.403	148.26	546.28	-49.49
13980	-1.388	0.085	-0.569	130.69	612.22	-54.25
14001	-2.814	0.742	-0.774	89.11	603.26	-0.49
14021	-3.53	0.951	-0.641	-30.52	503.93	10.43
14045	-3.219	0.195	-0.351	-161.98	425.67	0.77
14064	-3.649	-1.642	0.842	-269.85	394.52	-106.75
14089	-1.924	0.269	-0.681	230.37	118.02	-4.55
14106	-1.891	0.912	-0.256	168.42	116.55	-116.13
14125	-2.29	0.841	0.072	138.67	32.62	-150.15
14148	-1.82	0.896	0.486	22.4	-15.47	-141.54
14164	-1.396	0.549	0.448	-102.97	40.67	-146.23
14189	-1.476	0.212	0.157	-135.66	79.59	-156.8
14208	-1.311	0.06	0.339	-113.96	110.88	-117.39
14232	-1.273	0.186	0.471	-45.08	96.11	-125.16
14252	-1.218	-0.096	0.361	-8.12	102.41	-47.74
14268	-1.489	0.205	0.369	4.69	31.57	-13.58
14287	-1.58	0.933	0.954	-121.24	58.38	-12.53
14312	-1.616	-0.124	0.438	-249.13	-23.8	-53.2
14330	-1.211	-0.568	0.315	-169.19	-22.89	-23.1
14354	-1.155	-0.615	0.103	-66.5	-17.85	3.5
14374	-1.154	-0.783	0.016	32.76	-17.78	27.02
14392	-1.094	-0.713	-0.086	117.88	-13.3	38.64
14416	-1.046	-0.484	-0.147	167.44	-19.74	38.29
14436	-0.987	-0.326	-0.175	189.98	-23.17	36.75
14456	-0.943	-0.223	-0.154	191.59	-27.72	30.59
14480	-0.933	-0.082	-0.132	158.97	-32.41	17.92
14498	-0.925	-0.004	-0.093	111.65	-36.82	4.06
14521	-0.922	-0.094	-0.086	58.73	-33.81	-9.03
14540	-0.9	-0.226	-0.102	41.86	-31.01	-6.51
14560	-0.986	-0.298	-0.18	45.29	-39.41	2.45
14585	-0.984	-0.304	-0.244	62.09	-30.8	6.93
14604	-0.962	-0.18	-0.194	61.04	-27.58	-0.42
14624	-0.97	-0.124	-0.15	59.92	-22.26	-4.27
14644	-0.989	-0.022	-0.108	52.85	-20.51	-10.71
14668	-0.953	-0.144	-0.133	64.33	-6.93	-4.41
14686	-0.979	-0.055	-0.116	75.25	-1.54	3.92
14706	-0.976	0.066	-0.098	58.17	6.86	4.97
14730	-1.014	0.108	-0.058	13.23	5.88	0.98
14748	-1.014	0.027	-0.024	-15.61	0.28	0.84
14770	-0.984	-0.082	0.031	-29.61	0.0	1.54
14793	-0.978	-0.165	0.047	-27.86	4.13	3.85
14814	-0.988	-0.199	0.073	-19.88	8.47	3.85
14830	-0.99	-0.179	0.134	-12.6	13.86	2.17
14850	-1.083	-0.042	0.301	1.54	16.45	11.48
14872	-1.265	0.106	0.358	10.99	7.77	41.3
14894	-1.257	0.285	0.42	-7.7	-10.85	54.81
14914	-1.34	0.243	0.46	-24.99	-19.6	54.04
14934	-1.462	0.485	0.621	-72.17	-38.85	35.7
14952	-1.777	0.337	0.62	-88.62	-82.46	40.18
14972	-2.104	0.102	0.771	-63.28	-151.2	52.85
14992	-2.175	0.213	0.904	-54.53	-203.91	54.95
15016	-2.468	0.247	0.75	-77.14	-290.85	32.41
15037	-2.343	0.235	0.684	-126.42	-339.5	1.96
15054	-2.393	0.11	0.6	-150.15	-394.17	-24.01
15078	-2.456	-0.3	0.496	-143.71	-436.8	-34.23
15095	-2.294	-0.585	0.495	-81.55	-450.17	-26.81
15115	-2.247	-0.625	0.498	9.03	-465.71	-0.21
15134	-2.103	-0.412	0.418	83.23	-479.78	25.76
15159	-1.742	-0.294	0.285	108.43	-480.06	49.49
15183	-1.581	-0.211	0.332	108.78	-472.85	68.81
15203	-1.394	-0.245	0.278	106.61	-461.79	81.62
15223	-1.001	-0.212	0.13	106.82	-448.28	87.99
15242	-0.76	-0.248	0.084	101.43	-426.02	95.55
15266	-0.709	-0.204	0.126	81.97	-407.47	91.42
15281	-0.689	-0.295	0.113	79.24	-388.57	85.82
15306	-0.511	-0.276	0.031	76.23	-375.62	83.58
15321	-0.159	-0.241	-0.078	62.79	-365.33	78.89
15345	0.065	-0.284	-0.239	45.01	-343.14	74.34
15366	0.275	-0.332	-0.353	31.15	-306.25	66.08
15385	0.422	-0.272	-0.401	40.74	-263.76	60.13
15411	0.549	-0.234	-0.532	50.89	-208.11	42.0
15430	0.8	-0.171	-0.634	51.45	-175.07	36.4
15454	0.954	-0.189	-0.672	53.9	-137.69	23.87
15474	1.097	-0.14	-0.601	33.74	-79.94	14.7
15494	1.119	-0.063	-0.544	-3.5	-37.17	2.1
15513	1.09	-0.062	-0.446	-33.39	-3.78	-5.81
15538	1.105	-0.128	-0.315	-34.93	23.1	-1.19
15553	1.118	-0.126	-0.207	-27.02	36.61	3.43
15573	1.006	-0.129	-0.121	-17.08	44.31	9.31
15598	1.008	-0.073	-0.034	-24.78	47.81	4.97
15617	1.034	-0.111	-0.024	-36.61	55.09	3.01
15638	1.092	-0.099	-0.057	-32.06	63.63	11.13
15655	1.098	-0.039	-0.062	-21.56	71.96	16.03
15678	1.064	-0.055	-0.054	-10.01	87.29	13.37
15699	1.052	-0.121	-0.161	-15.4	112.21	7.42
15719	1.121	-0.15	-0.465	-27.23	152.53	3.85
15737	1.209	-0.235	-0.647	-32.62	195.37	0.28
15760	0.946	-0.345	-0.541	4.69	262.57	-9.03
15784	0.54	-0.402	-0.415	68.95	301.21	-24.64
15802	0.419	-0.366	-0.211	78.54	340.41	-49.7
15826	0.142	-0.397	-0.096	81.76	369.04	-74.13
15846	-0.154	-0.349	-0.021	74.34	390.53	-110.25
15866	-0.428	-0.243	-0.041	36.89	419.51	-134.05
15886	-0.69	-0.271	-0.143	-10.57	433.37	-153.02
15903	-0.865	-0.187	-0.062	-39.9	444.22	-148.4
15927	-1.084	-0.192	-0.091	-41.09	444.43	-144.13
15947	-1.124	-0.444	-0.334	-14.98	445.34	-143.78
15966	-1.154	-0.595	-0.344	24.22	469.07	-133.98
15986	-1.518	-0.552	-0.344	101.43	509.81	-114.94
16010	-2.283	-0.229	-0.027	160.16	484.47	-54.11
16029	-2.318	0.054	0.056	216.3	413.77	-24.08
16053	-2.239	0.346	-0.05	216.86	381.29	-21.77
16071	-2.532	0.509	-0.115	201.74	357.98	-38.22
16090	-2.579	0.677	0.027	170.66	291.76	-41.51
16115	-2.491	1.287	-0.171	40.95	139.37	-66.29
16135	-1.699	1.1	-0.046	-76.02	118.79	-131.6
16150	-1.701	0.774	-0.048	-177.8	132.58	-179.34
16170	-1.978	0.235	-0.026	-243.46	121.66	-200.62
16190	-1.7	0.134	0.318	-270.34	98.7	-172.97
16215	-1.626	-0.01	0.808	-224.07	121.38	-120.19
16235	-1.647	-0.261	0.601	-107.1	109.76	-78.75
16255	-1.414	-0.283	0.446	-18.2	105.77	-51.59
16275	-1.373	-0.373	0.275	102.27	102.62	-39.48
16293	-1.688	-0.149	0.503	88.06	57.19	22.61
16311	-1.355	0.414	0.425	144.34	40.67	10.08
16331	-1.432	0.66	0.489	26.04	8.12	-32.27
16355	-1.464	0.261	0.416	-59.57	-17.22	-38.78
16375	-1.265	-0.233	0.193	-71.33	-43.05	-33.95
16390	-1.07	-0.372	0.068	-35.63	-33.74	-29.26
16415	-0.984	-0.481	-0.004	24.43	-26.67	-13.02
16435	-0.935	-0.441	-0.04	65.87	-23.31	5.25
16452	-0.836	-0.263	-0.017	83.3	-14.35	11.62
16471	-0.878	-0.218	-0.028	87.36	-10.92	15.68
16496	-0.894	-0.233	-0.044	84.56	-7.84	14.56
16511	-0.978	-0.261	-0.103	78.4	-3.99	14.63
16536	-1.001	-0.274	-0.141	76.02	-5.11	10.5
16555	-0.981	-0.263	-0.147	83.86	-6.51	6.72
16574	-0.95	-0.211	-0.141	95.13	-7.91	6.44
16599	-0.969	-0.191	-0.148	105.56	-6.79	11.13
16619	-0.981	-0.114	-0.181	115.22	-5.04	13.51
16638	-0.998	0.077	-0.16	98.35	-4.62	15.05
16659	-1.004	0.128	-0.15	66.92	-1.47	11.62
16682	-1.003	0.116	-0.136	34.44	1.33	6.02
16702	-1.01	0.021	-0.109	9.45	2.73	4.41
16722	-1.003	-0.051	-0.071	-8.75	1.82	3.92
16738	-0.986	-0.119	-0.036	-11.69	0.77	4.9
16757	-0.988	-0.165	-0.025	-10.29	1.54	3.99
16782	-1.011	-0.158	0.011	-8.33	4.06	0.0
16802	-1.075	-0.014	0.132	-6.93	-1.12	5.67
16822	-1.159	0.123	0.25	1.75	-9.38	27.93
16840	-1.246	0.361	0.315	-13.44	-30.66	45.64
16857	-1.274	0.723	0.496	-74.97	-22.82	32.69
16882	-1.702	0.459	0.428	-130.41	-76.37	34.44
16906	-1.979	0.314	0.593	-130.06	-136.15	5.32
16924	-2.066	0.213	0.599	-106.33	-197.4	14.14
16945	-2.112	0.306	0.602	-101.78	-261.8	29.68
16965	-2.155	0.41	0.704	-128.38	-316.61	35.0
16989	-2.208	0.058	0.703	-126.49	-356.44	30.03
17007	-2.504	-0.113	0.592	-104.51	-420.07	37.8
17027	-2.611	-0.332	0.521	-68.95	-447.65	37.31
17047	-2.107	-0.318	0.651	-44.03	-466.55	32.2
17067	-2.249	-0.438	0.539	-8.75	-488.95	51.87
17086	-2.126	-0.611	0.471	48.65	-512.26	63.84
17108	-1.662	-0.567	0.305	107.8	-519.75	90.86
17132	-1.224	-0.227	0.236	100.94	-499.94	106.47
17149	-1.124	-0.208	0.156	97.02	-485.94	112.63
17173	-1.051	-0.35	0.013	88.27	-465.29	121.17
17191	-0.721	-0.275	-0.032	89.67	-448.49	125.02
17210	-0.591	-0.214	-0.133	83.16	-431.55	128.45
17232	-0.231	-0.024	-0.267	40.6	-402.43	118.58
17255	0.042	-0.053	-0.296	-28.28	-357.77	91.07
17273	0.248	-0.231	-0.374	-48.3	-306.32	66.29
17291	0.277	-0.203	-0.388	-36.33	-266.7	49.0
17315	0.465	-0.356	-0.384	16.73	-220.99	38.57
17335	0.621	-0.392	-0.403	52.71	-167.72	28.91
17355	0.76	-0.333	-0.346	83.16	-124.88	21.49
17379	0.868	-0.211	-0.267	79.66	-75.04	8.05
17399	0.965	-0.132	-0.139	49.91	-45.01	-12.11
17419	0.99	-0.117	-0.08	29.68	-14.0	-23.03
17438	1.033	-0.044	-0.035	8.05	2.31	-31.57
17457	1.062	-0.035	0.01	-6.93	19.18	-33.6
17482	1.117	-0.062	0.004	-19.74	30.87	-29.05
17499	1.199	-0.074	-0.036	-22.33	35.98	-22.26
17518	1.202	-0.049	-0.037	-22.68	42.42	-14.35
17538	1.24	-0.01	0.037	-19.04	45.64	-6.02
17562	1.283	0.018	0.081	-18.97	54.74	0.98
17582	1.3	0.056	0.003	-19.81	66.36	7.42
17598	1.305	0.066	-0.145	-29.75	90.09	8.96
17618	1.26	0.069	-0.132	-50.68	121.17	-2.03
17641	1.076	-0.024	-0.109	-78.75	149.73	-19.74
17660	0.877	-0.099	-0.151	-103.39	183.12	-27.79
17684	0.875	0.02	-0.261	-126.0	227.64	-31.85
17702	0.708	-0.107	-0.3	-138.18	260.4	-25.27
17721	0.528	-0.231	-0.328	-130.06	302.19	-19.81
17742	0.333	-0.427	-0.355	-110.18	346.71	-8.89
17763	0.027	-0.507	-0.207	-75.95	381.5	4.2
17787	-0.343	-0.482	-0.176	-39.27	428.12	-0.42
17807	-0.66	-0.578	-0.247	-14.56	459.48	-14.28
17825	-0.771	-0.661	-0.53	9.38	498.26	-27.37
17846	-1.481	-1.075	-0.488	80.08	509.67	-31.08
17864	-1.895	-0.871	-0.264	180.25	475.51	-17.92
17888	-1.768	-0.395	-0.121	202.44	445.27	-52.08
17909	-1.985	0.138	0.238	184.52	410.97	-59.5
17933	-1.83	0.179	0.199	167.09	364.35	-46.55
17952	-1.754	-0.04	-0.168	175.0	358.26	-43.68
17972	-1.89	0.141	-0.089	173.95	342.16	-42.63
17996	-2.145	0.342	0.065	196.28	298.69	-54.6
18016	-2.218	0.602	0.019	154.77	262.29	-74.34
18036	-2.149	0.656	-0.045	98.56	210.28	-95.55
18055	-1.794	0.693	0.043	38.43	194.74	-114.45
18079	-1.758	0.74	0.204	-43.61	185.85	-140.14
18099	-2.04	0.289	0.251	-72.1	175.49	-125.37
18114	-2.084	0.247	0.31	-67.34	158.2	-114.87
18139	-1.865	0.175	0.267	-37.31	132.37	-105.63
18159	-1.553	0.436	0.125	77.14	115.08	-150.85
18177	-1.785	0.9	0.613	-51.59	162.05	-121.31
18196	-2.165	2.683	1.091	-270.76	-5.88	-140.84
18220	-1.302	-0.417	0.519	-379.61	-80.64	-138.95
18244	-1.22	-0.459	0.3	-201.74	-47.46	-46.55
18263	-1.223	-0.706	0.198	-104.51	-56.42	-16.38
18280	-1.06	-0.83	-0.001	-11.69	-52.15	8.75
18299	-0.902	-0.63	-0.044	70.21	-36.82	44.8
18324	-0.837	-0.493	-0.081	131.81	-27.65	61.88
18344	-0.788	-0.297	-0.112	134.75	-15.96	58.17
18365	-0.842	-0.248	-0.144	104.58	-4.27	38.01
18382	-0.872	-0.229	-0.147	84.21	-4.2	25.06
18406	-0.883	-0.198	-0.152	62.72	-6.09	7.63
18426	-0.896	-0.238	-0.147	35.7	-4.62	-3.43
18445	-0.899	-0.307	-0.176	38.01	-7.49	-8.54
18464	-0.909	-0.3	-0.179	41.93	-7.35	-6.51
18489	-0.915	-0.283	-0.2	49.28	-6.37	1.19
18509	-0.955	-0.208	-0.184	54.25	-2.17	4.97
18528	-1.027	-0.152	-0.176	64.75	1.47	1.33
18553	-1.085	-0.061	-0.165	74.34	-3.92	-2.94
18573	-1.085	0.068	-0.161	65.8	-0.77	-3.22
18592	-1.094	0.157	-0.153	48.44	0.7	-3.36
18616	-1.071	0.196	-0.104	-2.87	1.19	-5.11
18635	-1.052	0.016	-0.101	-22.05	-1.19	0.14
18660	-1.013	-0.096	-0.088	-33.6	-3.57	0.35
18679	-0.968	-0.212	-0.084	-31.22	-1.89	0.07
18700	-0.951	-0.252	-0.061	-23.59	0.28	-1.68
18720	-0.968	-0.278	-0.039	-15.47	3.5	-3.85
18739	-0.998	-0.277	0.001	-6.23	3.85	-2.45
18763	-1.088	-0.266	0.043	11.76	0.07	-0.84
18783	-1.139	-0.237	0.058	33.32	-8.47	8.12
18807	-1.166	-0.084	0.175	60.97	-28.56	21.84
18827	-1.136	0.012	0.2	76.86	-43.89	41.23
18845	-1.301	0.311	0.419	59.5	-58.66	50.75
18863	-1.6	0.445	0.563	22.96	-85.82	58.17
18882	-1.853	0.568	0.775	-31.29	-108.71	51.38
18902	-2.155	0.358	0.379	-70.77	-187.53	58.59
18927	-2.272	0.732	0.727	-87.5	-296.17	53.41
18947	-2.404	0.813	0.918	-166.81	-356.93	29.47
18966	-2.252	0.397	0.844	-234.64	-383.74	12.11
18986	-2.301	0.048	0.641	-240.17	-418.04	13.37
19010	-2.223	-0.424	0.664	-170.24	-456.12	24.57
19030	-2.134	-0.597	0.657	-40.25	-476.98	43.47
19048	-1.771	-0.416	0.586	1.89	-471.66	55.58
19069	-1.701	-0.364	0.652	41.65	-470.96	59.01
19093	-1.555	-0.394	0.52	78.75	-469.84	82.81
19110	-1.259	-0.433	0.301	106.33	-460.32	93.45
19134	-0.964	-0.357	0.179	94.99	-441.07	94.01
19154	-0.628	-0.129	0.202	35.35	-404.53	70.91
19174	-0.42	-0.056	0.232	-7.21	-368.83	50.61
19193	-0.428	-0.31	0.188	-14.14	-343.28	27.86
19213	-0.164	-0.307	0.109	0.14	-319.55	17.5
19237	0.075	-0.35	0.098	9.38	-288.61	11.13
19256	0.215	-0.324	0.09	25.9	-255.43	11.34
19281	0.197	-0.263	0.056	46.76	-222.32	17.85
19299	0.27	-0.163	0.03	59.36	-197.82	19.18
19318	0.422	-0.118	0.03	58.87	-182.14	17.71
19343	0.552	-0.161	-0.034	54.81	-156.31	19.53
19362	0.643	-0.118	-0.095	51.8	-132.58	20.02
19381	0.719	-0.115	-0.124	60.34	-110.74	17.71
19406	0.822	-0.05	-0.134	64.19	-83.58	22.26
19424	0.864	-0.076	-0.11	63.56	-56.91	22.12
19445	0.845	-0.066	-0.09	49.49	-40.18	20.23
19465	0.901	-0.032	-0.06	18.62	-30.03	14.28
19489	0.951	-0.096	-0.035	-19.39	-7.63	2.45
19508	0.984	-0.11	0.004	-44.94	3.01	-2.03
19532	1.16	-0.192	0.081	-54.39	14.77	-7.42
19550	1.219	-0.165	0.141	-50.12	26.88	-5.25
19570	1.206	-0.115	0.175	-40.11	27.16	-0.98
19590	1.26	-0.1	0.241	-34.65	33.04	-1.68
19614	1.261	-0.131	0.256	-33.67	36.12	-2.8
19634	1.207	-0.196	0.213	-29.47	49.56	-4.06
19652	1.07	-0.152	0.083	-31.99	58.45	-7.42
19674	1.165	-0.113	0.203	-25.9	69.79	-5.74
19693	1.083	-0.168	0.214	-7.0	85.68	-2.8
19711	1.023	-0.087	0.07	8.96	101.36	4.34
19735	1.041	0.004	-0.213	5.81	133.28	8.12
19754	0.994	0.051	-0.18	-14.77	174.02	-4.55
19772	0.768	-0.116	-0.124	-26.81	211.26	-16.1
19792	0.584	-0.221	-0.105	-35.84	244.3	-32.2
19811	0.376	-0.289	-0.118	-46.27	283.85	-42.28
19836	0.088	-0.327	-0.132	-57.75	322.42	-47.88
19851	-0.101	-0.323	-0.187	-60.34	343.35	-47.81
19875	-0.275	-0.385	-0.215	-45.78	381.99	-47.74
19896	-0.547	-0.397	-0.15	-17.36	408.59	-45.78
19915	-0.774	-0.377	-0.15	28.42	418.53	-38.08
19940	-0.801	-0.377	-0.11	52.78	432.74	-38.08
19960	-0.915	-0.285	-0.148	90.58	418.81	-28.42
19980	-1.004	-0.279	-0.254	96.81	453.18	-40.67
19999	-1.427	-0.234	-0.233	107.66	482.09	-33.6
20023	-2.036	-0.08	-0.079	150.99	470.82	1.96
20047	-2.076	-0.199	-0.088	196.35	453.46	15.05
20066	-2.293	-0.195	-0.325	227.01	408.66	10.57
20087	-2.359	0.09	-0.13	283.99	339.15	14.63
20107	-2.339	0.201	-0.258	314.16	274.75	-10.99
20127	-2.465	0.924	-0.44	213.78	171.57	-46.13
20147	-2.108	0.945	-0.32	86.1	130.13	-93.94
20164	-1.851	1.178	0.002	-25.62	111.72	-140.7
20188	-1.664	0.994	0.327	-128.73	127.05	-185.78
20205	-1.708	0.731	0.426	-148.12	121.03	-191.31
20228	-1.837	0.242	0.361	-123.48	123.9	-159.67
20249	-1.743	-0.049	0.297	-79.59	129.36	-112.84
20269	-1.731	-0.189	0.234	59.71	120.4	-99.05
20285	-1.674	0.129	0.339	147.63	90.65	-63.63
20309	-2.009	0.695	0.483	118.23	28.07	-16.38
20329	-1.502	1.993	0.779	-241.15	-9.87	-106.89
20346	-1.289	-0.088	0.348	-221.41	-56.91	-68.53
20370	-1.131	-0.108	0.257	-110.6	-41.16	-14.63
20390	-1.08	-0.34	0.153	-58.94	-38.92	6.3
20409	-0.972	-0.424	0.076	5.25	-30.59	20.3
20433	-0.925	-0.313	-0.016	44.03	-22.4	28.49
20452	-0.91	-0.338	-0.067	44.17	-19.11	27.93
20476	-0.925	-0.319	-0.118	40.88	-17.85	15.4
20495	-0.922	-0.359	-0.143	35.49	-17.5	7.77
20519	-0.963	-0.382	-0.176	36.19	-21.63	1.47
20539	-0.935	-0.372	-0.133	34.93	-22.4	-6.23
20559	-0.924	-0.397	-0.122	53.55	-23.87	-8.47
20583	-0.954	-0.382	-0.213	72.94	-18.48	-6.02
20603	-0.968	-0.397	-0.243	76.65	-12.53	-0.63
20622	-1.002	-0.319	-0.291	110.25	-12.46	-5.88
20643	-0.955	-0.067	-0.186	118.58	-12.04	-10.01
20667	-0.994	0.127	-0.164	116.69	-9.73	-14.0
20687	-1.02	0.245	-0.157	111.86	-4.62	-0.63
20707	-1.05	0.445	-0.124	64.54	3.64	2.73
20722	-1.093	0.401	-0.127	15.89	3.5	3.36
20747	-1.057	0.162	-0.121	-39.62	0.84	3.64
20768	-1.029	0.024	-0.105	-70.63	-0.77	2.66
20785	-0.998	-0.128	-0.103	-76.65	-1.19	0.42
20809	-0.995	-0.248	-0.107	-71.54	0.63	-5.81
20829	-0.988	-0.302	-0.094	-59.29	2.87	-8.54
20846	-0.983	-0.313	-0.067	-44.24	2.1	-10.92
20867	-0.963	-0.298	-0.042	-26.53	1.4	-9.1
20887	-0.963	-0.269	-0.044	-18.76	1.12	-8.75
20906	-0.972	-0.252	-0.041	-14.63	1.82	-10.85
20931	-0.997	-0.242	-0.029	-1.05	1.61	-9.52
20950	-1.016	-0.2	-0.024	5.32	1.47	-6.79
20970	-1.031	-0.159	-0.016	13.44	0.21	-3.36
20988	-1.051	-0.116	-0.018	17.22	-3.57	0.35
21008	-1.031	-0.112	-0.053	17.43	-6.16	4.97
21028	-1.031	-0.126	-0.09	16.87	-5.32	6.3
21048	-1.009	-0.123	-0.086	14.98	-3.71	5.81
21071	-1.008	-0.141	-0.085	12.18	-2.8	4.27
21092	-0.991	-0.151	-0.089	10.78	-3.57	3.36
21111	-0.994	-0.145	-0.082	5.95	-3.36	1.12
21129	-0.993	-0.132	-0.066	2.66	-3.71	0.28
21149	-0.984	-0.145	-0.055	-0.28	-3.92	1.12
21168	-1.011	-0.171	-0.065	-2.17	-3.01	0.0
21193	-1.003	-0.186	-0.042	1.19	-2.52	-1.12
21213	-1.031	-0.126	0.0	6.58	-3.01	-0.56
21237	-1.065	-0.106	0.023	12.04	-6.37	7.84
21257	-1.082	-0.102	0.004	13.79	-11.41	13.44
21276	-1.041	-0.137	0.01	18.34	-10.08	17.22
21294	-0.952	0.004	0.171	30.8	-4.13	24.64
21317	-1.162	0.179	0.238	67.76	-3.15	57.26
21338	-1.511	0.443	0.419	80.36	-20.16	82.6
21358	-1.645	0.738	0.667	56.07	-71.82	96.32
21377	-1.888	1.025	0.811	3.99	-114.17	87.43
21397	-2.263	1.025	0.643	-72.17	-188.37	94.71
21416	-2.316	1.048	0.684	-131.39	-259.56	85.05
21440	-2.369	1.103	0.884	-228.97	-314.86	55.72
21464	-2.551	0.76	0.763	-281.61	-368.41	39.34
21484	-2.43	-0.052	0.548	-245.35	-396.41	51.59
21504	-2.481	-0.237	0.686	-170.17	-431.83	52.71
21524	-2.708	-0.499	0.763	-94.15	-460.18	62.58
21548	-3.022	-0.7	0.592	-9.59	-504.21	77.91
21566	-2.816	-0.819	0.186	45.36	-551.25	89.74
21583	-2.244	-0.53	0.025	26.18	-553.42	75.67
21607	-1.791	-0.516	-0.1	-6.02	-552.86	38.92
21627	-1.394	-0.332	-0.083	-27.51	-513.73	5.74
21651	-1.012	-0.128	-0.288	-42.49	-474.53	-28.98
21669	-0.704	-0.174	-0.379	-35.77	-444.57	-53.34
21686	-0.478	-0.244	-0.457	-20.93	-425.46	-60.62
21711	-0.251	-0.371	-0.503	15.75	-396.13	-50.4
21731	-0.062	-0.432	-0.501	89.25	-346.78	-31.99
21751	0.062	-0.246	-0.497	105.98	-312.76	-18.13
21771	0.206	-0.18	-0.591	109.48	-287.07	-3.78
21790	0.456	-0.068	-0.711	113.68	-251.09	17.29
21809	0.647	0.049	-0.736	115.22	-213.92	29.82
21830	0.658	0.024	-0.713	105.42	-175.42	25.41
21854	0.858	0.076	-0.575	84.7	-123.13	15.61
21873	0.987	0.062	-0.509	64.61	-78.12	10.36
21893	0.981	0.011	-0.487	44.52	-38.5	5.18
21913	1.004	-0.067	-0.407	35.91	-19.39	6.23
21937	1.071	-0.071	-0.32	42.35	2.52	8.82
21956	1.145	-0.022	-0.247	47.53	16.73	13.37
21976	1.216	0.064	-0.151	50.68	31.57	15.33
22001	1.186	0.162	-0.116	46.9	38.5	19.6
22021	1.235	0.161	-0.08	29.68	57.26	12.6
22041	1.307	0.132	-0.136	17.5	71.89	9.87
22060	1.299	0.124	-0.164	1.4	85.4	7.07
22077	1.282	0.103	-0.125	-7.49	95.34	9.73
22099	1.211	0.045	-0.049	-6.65	107.59	14.35
22119	1.152	0.042	-0.11	-4.13	123.2	20.58
22139	1.146	0.072	-0.239	-11.9	144.48	22.47
22163	1.033	0.076	-0.204	-25.41	179.48	15.05
22183	0.822	-0.077	-0.134	-36.26	203.84	4.69
22203	0.748	-0.151	-0.066	-35.35	222.6	-3.78
22223	0.669	-0.211	-0.045	-23.66	256.48	-5.67
22243	0.479	-0.263	-0.028	-3.92	275.45	-9.17
22263	0.212	-0.345	0.052	23.87	298.62	-21.98
22283	-0.016	-0.397	0.114	36.47	308.63	-43.75
22303	-0.098	-0.402	0.03	40.25	332.43	-61.11
22322	-0.127	-0.333	-0.115	43.96	351.96	-67.06
22342	-0.337	-0.357	-0.031	41.93	380.03	-82.04
22359	-0.603	-0.316	0.083	48.23	399.35	-94.92
22383	-0.849	-0.331	0.076	62.23	416.99	-92.4
22403	-1.046	-0.186	-0.02	81.2	397.39	-72.94
22422	-1.071	-0.173	-0.104	116.41	396.13	-73.01
22443	-1.387	-0.141	0.033	141.96	383.18	-67.62
22463	-1.596	0.406	0.392	145.88	353.22	-37.59
22481	-1.616	0.528	0.322	107.31	322.77	-33.18
22501	-1.428	0.451	0.156	33.81	324.24	-62.02
22522	-1.657	0.237	-0.119	-64.19	348.53	-93.59
22545	-1.964	0.198	0.247	-133.28	337.19	-89.46
22569	-2.387	-0.037	0.427	-49.91	315.28	-87.71
22589	-2.239	-0.045	0.149	33.81	248.57	-81.13
22608	-2.076	-0.019	0.021	43.47	193.97	-88.27
22629	-1.902	-0.007	0.127	45.85	172.55	-91.84
22648	-1.816	0.246	0.549	62.37	150.15	-86.1
22668	-1.772	0.168	0.545	116.34	148.82	-87.08
22692	-1.851	0.023	0.341	150.29	133.35	-67.83
22712	-1.696	0.099	0.224	186.34	121.8	-36.61
22732	-1.741	0.292	0.186	208.25	105.91	-60.06
22751	-1.428	0.506	0.355	167.86	107.03	-77.14
22771	-1.524	0.791	0.352	194.88	91.56	-81.97
22789	-2.481	3.038	1.568	-112.91	-50.33	-92.75
22813	-1.283	0.215	0.513	-180.81	-50.75	-35.21
22829	-1.393	0.029	0.238	-130.83	-67.2	7.35
22848	-1.064	-0.218	0.244	-77.21	-44.59	8.4
22868	-1.034	-0.447	0.058	-19.46	-20.3	29.47
22892	-1.001	-0.233	-0.04	16.45	-9.94	35.35
22913	-0.885	-0.354	-0.097	39.97	-13.93	37.17
22933	-0.823	-0.277	-0.113	48.51	-6.58	43.19
22953	-0.856	-0.196	-0.121	38.78	-1.82	37.8
22977	-0.859	-0.183	-0.152	25.83	3.01	23.24
22997	-0.942	-0.266	-0.203	17.92	8.12	13.3
23017	-0.996	-0.31	-0.164	22.4	5.25	9.94
23037	-0.989	-0.325	-0.152	31.92	2.38	9.59
23055	-0.974	-0.231	-0.169	39.2	-1.33	6.09
23079	-0.978	-0.159	-0.13	31.71	-2.03	-5.67
23099	-1.005	-0.117	-0.081	20.3	-4.41	-12.6
23117	-1.027	-0.11	-0.062	10.5	-8.47	-18.06
23139	-1.018	-0.141	-0.05	2.45	-11.97	-22.89
23159	-1.012	-0.164	-0.045	7.14	-14.21	-26.6
23183	-0.991	-0.177	-0.08	17.78	-12.32	-16.59
23203	-1.034	-0.125	-0.074	37.45	-8.89	-6.16
23221	-1.042	-0.074	-0.049	48.16	-6.23	-1.68
23241	-1.032	-0.008	-0.041	54.88	-1.47	2.66
23262	-1.032	0.017	-0.081	56.49	0.63	4.2
23286	-1.031	0.064	-0.086	45.99	4.48	6.3
23303	-1.033	0.054	-0.073	28.56	4.41	6.02
23325	-1.017	0.005	-0.063	11.76	2.45	6.37
23349	-1.013	-0.039	-0.045	2.31	0.77	6.3
23368	-1.015	-0.09	-0.048	0.42	-0.49	6.16
23389	-1.02	-0.127	-0.067	-3.22	-0.56	2.8
23406	-1.007	-0.157	-0.079	-3.99	-0.14	-0.21
23426	-0.997	-0.173	-0.076	-2.03	0.42	-2.24
23446	-0.989	-0.163	-0.063	1.82	1.26	-3.01
23466	-0.998	-0.144	-0.056	4.41	1.82	-3.57
23485	-1.012	-0.124	-0.063	4.76	1.75	-2.73
23510	-1.034	-0.112	-0.055	3.43	0.28	-3.01
23530	-1.022	-0.102	-0.045	2.87	-0.7	-3.92
23550	-1.023	-0.113	-0.044	3.71	-0.42	-5.18
23569	-1.007	-0.098	-0.051	7.42	-0.84	-3.5
23590	-1.012	-0.074	-0.049	8.05	0.35	-1.75
23610	-1.025	-0.07	-0.05	5.18	0.14	0.42
23628	-1.019	-0.079	-0.045	2.1	0.14	1.19
23646	-1.024	-0.098	-0.042	1.4	-0.84	1.61
23670	-1.023	-0.093	-0.042	1.19	-1.82	2.45
23690	-1.024	-0.116	-0.052	2.1	-2.66	2.38
23714	-1.015	-0.122	-0.051	3.36	-2.73	2.03
23734	-1.02	-0.131	-0.058	3.85	-2.8	1.12
23753	-1.02	-0.131	-0.051	4.06	-3.22	0.14
23772	-1.013	-0.132	-0.052	6.65	-4.27	-0.35
23789	-0.995	-0.119	-0.055	7.77	-3.36	-0.14
23814	-1.013	-0.116	-0.057	8.68	-2.03	0.77
23834	-0.997	-0.101	-0.053	8.19	-1.33	1.68
23858	-1.005	-0.102	-0.049	8.33	-0.98	2.73
23874	-1.009	-0.108	-0.056	9.38	-1.54	3.36
23895	-1.007	-0.103	-0.066	9.66	-0.98	2.94
23915	-1.007	-0.094	-0.064	8.12	-0.35	1.61
23935	-1.003	-0.079	-0.063	4.62	-0.56	0.42
23956	-0.995	-0.081	-0.061	1.33	-0.56	-1.12
23975	-1.001	-0.103	-0.061	1.05	-0.42	-0.98
24000	-1.011	-0.11	-0.065	2.59	-0.84	0.07
24019	-1.017	-0.096	-0.072	2.1	-1.61	-0.28
24038	-1.02	-0.102	-0.071	0.07	-1.33	-1.4
24058	-1.023	-0.124	-0.067	1.82	-1.12	-1.54
24078	-1.024	-0.116	-0.063	5.81	-1.82	-1.68
24102	-1.014	-0.09	-0.074	7.91	-3.43	-1.54
24122	-1.005	-0.07	-0.074	4.34	-3.08	-1.19
24142	-1.005	-0.083	-0.07	3.71	-2.31	0.91
24161	-1.0	-0.089	-0.083	2.59	-1.82	2.17
24185	-1.013	-0.087	-0.078	1.26	-1.75	1.05
24205	-1.016	-0.093	-0.082	0.35	-2.24	0.63
24224	-1.004	-0.086	-0.081	-2.8	-1.26	-0.14
24247	-1.018	-0.108	-0.077	-3.78	-0.49	-0.84
24268	-1.016	-0.112	-0.069	-2.03	-0.77	-0.63
24289	-1.015	-0.111	-0.07	-0.63	-1.68	-1.68
24309	-1.009	-0.096	-0.071	-1.19	-1.96	-2.24
24325	-1.007	-0.096	-0.065	-2.38	-1.61	-2.17
24346	-1.004	-0.1	-0.067	-1.96	-1.68	-1.4
24366	-1.012	-0.092	-0.066	-3.85	-1.89	-2.31
24385	-1.017	-0.096	-0.068	-4.97	-2.31	-2.94
24410	-1.017	-0.106	-0.068	-3.22	-2.03	-2.38
24427	-1.018	-0.109	-0.067	-1.61	-1.96	-2.1
24451	-1.009	-0.098	-0.069	-0.56	-1.96	-1.82
24471	-1.014	-0.105	-0.068	-0.84	-1.61	-1.96
24490	-1.013	-0.102	-0.066	-0.49	-1.75	-1.54
24514	-1.014	-0.106	-0.063	0.0	-1.82	-1.47
24530	-1.016	-0.105	-0.07	0.42	-2.17	-1.05
24551	-1.01	-0.105	-0.066	-0.35	-1.54	-1.26
24574	-1.017	-0.109	-0.064	1.26	-1.61	-0.77
24594	-1.016	-0.098	-0.064	1.96	-2.31	-1.33
24614	-1.016	-0.095	-0.071	0.98	-2.8	-1.68
24633	-1.006	-0.096	-0.067	-0.56	-2.38	-1.26
24650	-1.012	-0.102	-0.069	-0.7	-2.1	-0.56
24673	-1.013	-0.104	-0.071	-1.12	-2.45	-0.63
24694	-1.019	-0.117	-0.073	0.21	-3.15	-1.61
24714	-1.009	-0.099	-0.077	0.42	-3.36	-2.17
24731	-1.013	-0.105	-0.075	-0.49	-2.94	-2.8
24755	-1.012	-0.11	-0.072	-0.14	-2.45	-1.75
24771	-1.014	-0.118	-0.063	1.47	-2.52	-1.75
24790	-1.016	-0.107	-0.07	3.01	-3.08	-1.82
24814	-1.011	-0.098	-0.064	1.47	-3.08	-2.31
24831	-1.006	-0.105	-0.07	1.4	-3.15	-1.54
24855	-1.002	-0.107	-0.071	1.54	-3.01	-1.05
24875	-1.007	-0.107	-0.072	1.33	-3.22	-1.19
24891	-1.012	-0.112	-0.072	1.26	-3.22	-1.75
24915	-1.014	-0.107	-0.076	0.98	-3.57	-2.52
24935	-1.008	-0.106	-0.073	-0.63	-3.08	-3.01
24955	-1.004	-0.109	-0.072	-0.56	-2.73	-2.24
24971	-1.0	-0.106	-0.067	-0.84	-1.96	-2.31
24992	-1.008	-0.105	-0.069	-0.91	-2.17	-2.03
25016	-1.013	-0.11	-0.073	-1.12	-2.03	-1.96
25034	-1.014	-0.116	-0.072	-0.77	-2.03	-1.33
25058	-1.015	-0.114	-0.074	-1.33	-2.03	-2.17
25078	-1.022	-0.124	-0.077	-2.03	-2.52	-2.73
25096	-1.026	-0.137	-0.063	0.14	-2.66	-2.94
25116	-1.021	-0.124	-0.07	3.78	-3.57	-1.33
25136	-1.019	-0.123	-0.074	3.64	-4.55	-0.14
25158	-1.009	-0.129	-0.067	2.73	-4.9	0.28
25182	-1.023	-0.135	-0.075	3.22	-5.95	-0.35
25202	-1.027	-0.14	-0.077	2.59	-6.72	-0.91
25220	-1.032	-0.154	-0.089	3.71	-7.63	-0.21
25239	-1.032	-0.158	-0.092	6.58	-8.96	0.42
25263	-1.022	-0.152	-0.093	8.89	-10.78	0.56
25287	-1.026	-0.155	-0.082	11.34	-12.25	0.49
25307	-1.044	-0.136	-0.08	11.97	-14.35	0.98
25327	-1.044	-0.129	-0.087	11.2	-17.5	1.19
25347	-1.028	-0.118	-0.093	7.63	-20.72	1.05
25366	-1.014	-0.113	-0.095	0.7	-22.68	0.28
25387	-1.002	-0.112	-0.09	-4.48	-20.86	-1.96
25402	-1.0	-0.105	-0.085	-6.93	-19.18	-1.75
25422	-1.006	-0.118	-0.09	-7.28	-16.94	1.47
25446	-0.992	-0.132	-0.095	-1.96	-14.28	6.93
25465	-0.989	-0.123	-0.097	2.8	-9.73	10.78
25490	-1.013	-0.077	-0.096	8.75	-6.72	16.66
25507	-1.008	-0.041	-0.079	10.01	-5.04	19.88
25525	-1.0	0.004	-0.056	9.87	-4.97	21.49
25545	-1.003	0.048	-0.048	1.96	-4.9	20.09
25570	-0.995	0.079	-0.033	-13.72	-5.95	14.63
25590	-0.986	0.091	-0.013	-35.98	-5.11	8.19
25607	-0.985	0.057	-0.005	-55.3	-1.75	2.73
25628	-1.022	0.053	0.017	-77.14	-0.42	-4.06
25651	-1.03	0.018	0.032	-98.14	1.61	-11.69
25671	-1.029	-0.028	0.04	-106.54	1.33	-14.21
25691	-1.009	-0.053	0.066	-110.04	0.77	-17.29
25711	-0.998	-0.115	0.067	-105.63	1.54	-20.23
25731	-1.004	-0.145	0.055	-97.37	2.38	-19.6
25747	-1.006	-0.174	0.055	-86.87	2.87	-17.78
25770	-1.012	-0.206	0.061	-69.93	2.87	-10.36
25791	-1.005	-0.224	0.055	-43.05	1.61	-5.6
25811	-1.013	-0.179	0.048	-24.99	1.96	-3.36
25826	-0.999	-0.189	0.065	-15.89	2.8	-4.48
25846	-0.997	-0.085	0.043	-3.57	4.83	-6.65
25871	-1.018	-0.053	0.013	-10.57	3.71	-11.2
25890	-1.024	-0.112	0.009	-7.84	0.63	-13.02
25910	-1.004	-0.099	-0.006	-2.31	1.26	-13.02
25930	-1.006	-0.108	-0.024	4.06	1.75	-13.3
25954	-1.017	-0.097	-0.035	10.5	0.56	-14.21
25974	-1.017	-0.061	-0.046	19.81	1.05	-16.38
25992	-1.045	-0.025	-0.078	18.55	6.16	-19.04
26012	-1.046	-0.082	-0.076	8.75	5.04	-35.56
26036	-1.002	-0.257	-0.113	14.07	-0.91	-19.81
26056	-1.018	-0.21	-0.11	23.24	5.53	-33.25
26075	-1.052	-0.107	-0.062	28.98	10.08	-31.15
26096	-1.075	-0.16	-0.025	18.48	5.95	-29.12
26112	-0.946	-0.135	-0.06	19.88	6.86	-19.67
26132	-0.85	0.025	-0.065	2.31	13.86	-14.56
26153	-0.873	-0.008	-0.038	-34.65	18.69	-17.5
26175	-0.924	-0.256	0.017	-48.58	8.89	-9.59
26195	-0.861	-0.378	0.025	-18.13	9.45	9.45
26215	-0.807	-0.274	-0.041	27.3	18.13	30.8
26239	-0.919	-0.17	-0.002	37.24	19.6	40.88
26259	-1.003	-0.087	0.021	30.94	19.74	42.35
26283	-1.11	-0.018	-0.092	-14.42	20.65	31.85
26304	-1.182	-0.057	-0.154	-41.16	14.35	22.82
26325	-1.188	-0.219	-0.102	-56.35	0.98	16.94
26349	-1.167	-0.213	-0.13	-38.01	-10.57	12.53
26365	-1.109	-0.168	-0.107	-33.81	-15.82	5.74
26388	-1.111	-0.213	-0.101	-31.08	-20.23	-6.44
26409	-1.073	-0.189	-0.085	-30.24	-22.68	-14.42
26430	-0.962	-0.204	-0.043	-36.89	-22.54	-21.49
26450	-0.905	-0.241	-0.012	-31.57	-19.32	-21.0
26471	-0.856	-0.264	0.013	-20.44	-15.26	-16.1
26489	-0.846	-0.263	0.021	-6.09	-8.61	-9.8
26514	-0.898	-0.255	0.024	5.53	-1.26	0.42
26530	-0.952	-0.237	0.032	9.38	0.63	5.95
26550	-0.968	-0.217	0.03	8.89	-0.14	9.31
26570	-0.969	-0.205	0.016	7.28	-2.03	8.47
26590	-1.002	-0.214	0.001	4.62	-5.04	4.76
26614	-1.095	-0.224	-0.039	2.94	-12.6	1.19
26634	-1.081	-0.217	-0.049	-0.07	-19.18	-4.06
26650	-1.028	-0.234	-0.056	0.21	-21.7	-9.45
26670	-1.006	-0.227	-0.064	5.46	-23.59	-14.49
26692	-0.993	-0.211	-0.053	10.71	-23.31	-15.61
26714	-1.028	-0.167	-0.063	15.82	-25.97	-9.66
26733	-0.972	-0.124	-0.062	12.53	-27.44	-8.33
26757	-0.932	-0.088	-0.07	0.49	-22.33	-7.7
26777	-1.005	-0.064	-0.005	-20.37	-25.9	-14.42
26796	-0.972	-0.126	0.001	-36.05	-19.88	-28.14
26816	-0.968	-0.3	0.026	-38.64	-15.26	-34.16
26835	-0.929	-0.339	-0.008	-33.81	-7.0	-29.19
26858	-0.923	-0.326	0.003	-18.48	-5.6	-14.28
26880	-0.884	-0.384	0.04	9.45	10.43	-9.17
26898	-0.867	-0.359	0.099	27.44	19.53	2.73
26920	-0.918	-0.237	0.122	19.25	34.09	7.7
26939	-0.97	-0.264	0.092	17.43	36.26	12.46
26963	-1.03	-0.208	0.095	13.58	33.74	17.08
26982	-1.109	-0.178	0.072	0.14	31.5	17.92
27005	-1.143	-0.205	0.044	-9.17	26.67	15.96
27024	-1.059	-0.158	0.051	-20.58	23.1	10.43
27044	-1.022	-0.152	0.03	-31.15	23.17	5.95
27068	-1.011	-0.177	0.023	-40.74	22.26	5.6
27092	-1.033	-0.22	-0.03	-39.2	22.75	11.13
27108	-1.006	-0.251	-0.051	-39.69	24.29	17.36
27127	-0.979	-0.324	-0.1	-30.31	24.99	19.32
27151	-0.916	-0.367	-0.129	-14.77	30.03	20.65
27171	-0.914	-0.426	-0.151	20.09	36.26	25.55
27190	-0.975	-0.366	-0.201	62.37	34.37	40.25
27210	-0.957	-0.312	-0.262	101.43	40.04	53.62
27232	-0.904	-0.152	-0.295	138.39	47.18	64.05
27256	-0.918	-0.077	-0.302	157.92	50.82	66.78
27274	-0.979	0.031	-0.34	142.87	49.7	59.71
27294	-0.99	0.045	-0.37	135.17	38.43	52.43
27318	-0.922	0.116	-0.356	118.3	33.53	29.61
27338	-0.923	0.105	-0.361	62.72	14.77	12.32
27358	-0.841	-0.074	-0.399	40.04	5.25	13.86
27377	-0.731	-0.069	-0.478	75.67	-10.43	19.74
27394	-0.701	0.164	-0.342	67.2	-6.51	17.71
27418	-0.804	0.119	-0.289	44.03	-10.71	13.79
27438	-0.842	0.061	-0.261	50.75	-20.93	16.52
27457	-0.742	0.154	-0.315	47.25	-13.37	22.82
27480	-0.684	0.051	-0.313	42.42	-2.03	18.06
27501	-0.726	-0.027	-0.342	23.59	-1.33	8.96
27521	-0.706	0.024	-0.277	9.66	1.19	-1.61
27540	-0.701	0.004	-0.278	4.41	-4.55	-4.06
27560	-0.648	0.052	-0.26	-6.79	-6.86	-11.34
27580	-0.664	0.016	-0.249	-34.3	-6.16	-21.21
27604	-0.721	-0.001	-0.258	-63.35	-12.74	-25.55
27623	-0.803	-0.098	-0.305	-72.03	-12.81	-27.93
27642	-0.848	-0.142	-0.37	-82.95	-12.81	-29.05
27667	-0.988	-0.238	-0.403	-74.13	-19.18	-27.79
27687	-1.063	-0.247	-0.374	-42.7	-21.21	-25.06
27705	-1.114	-0.155	-0.329	-25.41	-18.62	-25.97
27729	-1.146	-0.104	-0.265	-0.21	-18.97	-32.06
27749	-1.118	-0.001	-0.213	9.03	-16.03	-39.27
27767	-1.197	0.062	-0.181	6.3	-15.75	-43.19
27788	-1.212	-0.081	-0.222	19.25	-15.82	-34.93
27812	-1.293	-0.179	-0.298	25.2	-20.51	-20.3
27832	-1.317	-0.214	-0.357	40.81	-31.85	-2.52
27851	-1.263	-0.194	-0.337	50.61	-37.17	9.52
27872	-1.301	-0.123	-0.303	57.4	-37.94	15.19
27892	-1.341	-0.037	-0.272	51.52	-33.6	14.7
27912	-1.321	-0.021	-0.246	42.14	-30.94	16.45
27932	-1.227	-0.026	-0.216	33.39	-28.84	13.51
27952	-1.164	-0.079	-0.228	26.53	-27.79	10.5
27971	-1.125	-0.093	-0.237	19.04	-26.25	5.81
27991	-1.094	-0.11	-0.199	10.36	-26.67	5.32
28012	-1.042	-0.177	-0.186	7.0	-24.5	10.43
28031	-1.009	-0.216	-0.182	12.74	-20.51	16.8
28049	-1.017	-0.283	-0.214	25.06	-16.52	22.96
28069	-1.059	-0.286	-0.252	40.74	-8.68	27.93
28093	-1.102	-0.264	-0.269	51.8	-0.7	28.28
28113	-1.167	-0.229	-0.286	59.57	10.92	22.96
28132	-1.164	-0.195	-0.284	63.77	21.56	11.9
28151	-1.365	-0.155	-0.314	77.98	22.96	17.92
28176	-1.157	-0.165	-0.285	76.86	35.0	2.31
28196	-1.222	-0.035	-0.285	57.61	38.71	-11.55
28215	-1.199	-0.114	-0.29	44.17	34.02	-16.17
28239	-1.26	-0.072	-0.288	31.92	32.2	-19.25
28258	-1.278	-0.088	-0.293	25.34	26.18	-14.56
28283	-1.231	-0.102	-0.273	18.76	18.55	-5.74
28302	-1.171	-0.097	-0.247	13.86	13.44	-3.43
28323	-1.15	-0.084	-0.228	7.42	7.84	-1.61
28343	-1.141	-0.119	-0.231	3.92	-1.61	2.59
28361	-1.121	-0.127	-0.224	4.76	-9.66	4.83
28381	-1.117	-0.141	-0.214	6.37	-18.34	8.33
28405	-1.092	-0.14	-0.202	8.47	-24.01	12.18
28425	-1.054	-0.072	-0.173	1.19	-28.98	9.1
28445	-1.056	-0.122	-0.182	-6.09	-39.2	6.44
28460	-1.015	-0.113	-0.171	-5.53	-45.15	5.67
28480	-1.012	-0.121	-0.168	-11.06	-51.17	5.11
28505	-0.98	-0.104	-0.155	-12.53	-55.72	3.64
28522	-1.004	-0.075	-0.154	-20.65	-56.91	0.14
28545	-1.0	-0.068	-0.156	-32.83	-63.63	-3.36
28565	-0.958	-0.073	-0.144	-41.44	-68.46	-6.79
28589	-0.902	-0.076	-0.145	-47.25	-69.02	-12.46
28609	-0.858	-0.132	-0.136	-40.6	-69.09	-12.53
28629	-0.847	-0.162	-0.103	-31.15	-68.39	-9.17
28648	-0.828	-0.143	-0.062	-18.13	-62.16	-7.84
28667	-0.841	-0.118	-0.049	-8.68	-53.9	-5.53
28689	-0.861	-0.095	-0.046	-2.59	-44.66	-1.54
28712	-0.834	0.012	-0.018	-8.89	-34.09	-2.73
28732	-0.795	0.037	-0.003	-26.18	-29.12	-9.24
28751	-0.764	0.06	0.014	-49.98	-21.91	-17.08
28776	-0.802	0.05	0.015	-70.42	-15.61	-26.88
28796	-0.831	0.0	0.005	-93.87	-8.89	-28.77
28816	-0.895	-0.103	-0.021	-97.3	-7.91	-21.56
28836	-0.9	-0.131	-0.032	-94.64	-6.65	-14.77
28855	-0.942	-0.147	-0.057	-92.33	-1.26	-11.83
28875	-1.035	-0.199	-0.074	-86.38	1.89	-4.06
28899	-1.072	-0.201	-0.059	-82.39	10.01	0.91
28919	-1.112	-0.245	-0.066	-76.79	14.0	6.09
28940	-1.123	-0.327	-0.116	-50.19	12.04	10.15
28956	-1.098	-0.321	-0.111	-27.44	13.86	8.75
28979	-1.101	-0.238	-0.066	-14.42	21.56	2.87
28999	-1.083	-0.215	-0.015	-12.53	24.85	-0.98
29018	-1.004	-0.21	-0.0	-12.04	26.67	-5.18
29041	-0.926	-0.217	0.01	-8.05	25.69	-8.26
29062	-0.847	-0.216	0.019	-3.57	26.32	-8.61
29082	-0.787	-0.206	0.045	-3.78	29.68	-8.75
29102	-0.769	-0.2	0.108	-7.77	37.03	-6.23
29120	-0.785	-0.258	0.126	-3.99	40.88	0.7
29141	-0.838	-0.235	0.117	7.28	44.66	11.69
29160	-0.913	-0.208	0.095	6.58	47.11	17.43
29179	-1.016	-0.171	0.058	-6.3	43.89	18.34
29204	-1.118	0.009	0.169	-66.92	21.63	-6.65
29222	-1.199	-0.073	0.221	-113.26	17.43	-33.25
29246	-1.291	-0.117	0.224	-161.7	-4.69	-51.73
29266	-1.174	-0.349	0.16	-186.48	-20.65	-61.67
29286	-1.155	-0.455	0.123	-166.74	-27.37	-55.51
29302	-1.099	-0.54	0.144	-137.06	-30.66	-45.71
29324	-1.053	-0.642	0.105	-78.96	-29.12	-24.29
29346	-0.984	-0.569	0.049	0.77	-22.4	4.13
29366	-0.915	-0.487	0.065	37.59	-10.92	20.86
29382	-0.949	-0.43	0.044	51.52	-7.07	28.21
29406	-0.941	-0.404	0.037	68.11	-3.92	33.74
29426	-0.901	-0.293	0.043	74.9	-0.28	32.13
29443	-0.935	-0.284	0.015	74.34	0.63	29.26
29467	-0.931	-0.282	-0.005	69.37	1.61	24.64
29487	-0.939	-0.276	-0.063	61.39	-0.49	22.54
29503	-0.936	-0.258	-0.066	55.16	-2.24	20.09
29522	-0.933	-0.233	-0.05	44.1	-4.41	14.63
29547	-0.953	-0.218	-0.052	28.84	-7.98	5.67
29567	-0.969	-0.219	-0.061	14.14	-11.13	-3.01
29587	-0.972	-0.247	-0.064	-3.36	-11.34	-7.77
29607	-0.956	-0.301	-0.046	-7.35	-10.92	-7.49
29627	-0.918	-0.315	-0.02	-1.05	-10.85	-5.18
29648	-0.915	-0.3	-0.025	9.94	-11.69	-4.41
29667	-0.938	-0.268	-0.045	15.12	-13.02	-6.23
29683	-0.971	-0.247	-0.064	13.51	-14.98	-7.77
29703	-0.979	-0.22	-0.056	5.88	-16.31	-10.01
29724	-0.985	-0.214	-0.061	-3.43	-15.75	-12.18
29746	-1.0	-0.237	-0.074	-13.51	-14.07	-14.28
29770	-0.977	-0.201	-0.061	-19.88	-5.6	-23.94
29790	-0.989	-0.263	-0.069	-16.8	-0.91	-26.81
29810	-1.014	-0.307	-0.059	-0.49	4.62	-25.34
29830	-1.03	-0.285	-0.011	25.76	10.43	-20.51
29850	-1.008	-0.237	0.038	68.25	16.52	-17.29
29870	-1.016	-0.178	0.02	98.56	17.71	-8.61
29890	-1.006	-0.123	0.034	124.67	16.24	4.69
29914	-0.881	-0.004	0.022	138.53	10.01	24.5
29929	-1.006	0.06	-0.018	122.22	4.27	32.83
29952	-0.956	0.069	-0.017	81.06	3.36	32.27
29971	-0.93	0.07	0.024	47.53	3.71	26.95
29991	-0.935	0.001	0.032	13.58	5.18	24.15
30016	-0.956	-0.129	0.004	1.61	8.61	28.14
30036	-0.982	-0.156	-0.03	-4.48	11.27	27.58
30053	-1.014	-0.198	-0.041	-7.56	11.48	25.69
30075	-1.006	-0.229	-0.043	-9.52	11.76	22.61
30095	-1.0	-0.257	-0.03	-6.44	12.53	18.69
30119	-0.989	-0.251	-0.009	-0.42	13.79	13.93
30139	-1.001	-0.253	-0.006	5.67	14.91	10.08
30158	-1.021	-0.27	-0.017	11.34	14.07	6.37
30175	-1.028	-0.257	-0.023	15.4	13.02	2.59
30195	-1.047	-0.16	0.006	17.29	9.1	-0.91
30215	-1.058	-0.07	0.025	7.21	-1.47	-2.52
30239	-1.044	-0.112	0.044	-14.49	-11.83	-6.72
30259	-1.015	-0.131	0.046	-31.29	-18.55	-10.71
30279	-1.026	-0.138	0.045	-37.45	-21.63	-14.91
30298	-1.053	-0.174	0.063	-34.23	-23.94	-16.45
30319	-1.072	-0.189	0.068	-23.17	-26.74	-13.16
30339	-1.055	-0.216	0.056	-8.47	-28.07	-5.18
30357	-1.006	-0.19	0.031	5.32	-30.66	1.89
30377	-0.986	-0.139	0.006	14.14	-35.14	10.15
30398	-1.024	-0.154	0.002	17.57	-41.09	17.29
30416	-1.029	-0.111	0.001	35.35	-41.58	24.36
30436	-1.063	-0.031	0.005	9.38	-43.54	28.56
30456	-1.037	0.034	0.057	2.66	-45.99	26.95
30480	-0.972	-0.012	0.042	-6.09	-38.36	8.4
30501	-0.931	-0.117	-0.016	-14.28	-25.9	-6.09
30518	-0.918	-0.142	0.018	-16.94	-21.42	-12.81
30542	-0.953	-0.207	-0.005	-7.35	-9.94	-13.16
30562	-0.895	-0.051	-0.024	-14.84	-7.91	-8.61
30586	-1.077	-0.168	-0.043	-0.98	4.13	-6.79
30606	-1.113	-0.026	0.226	-39.2	-10.15	-11.34
30626	-1.164	0.055	0.272	-60.06	-21.56	-18.2
30644	-1.077	0.033	0.25	-98.49	-29.68	-34.93
30668	-1.041	-0.137	0.2	-116.34	-31.99	-46.55
30685	-1.022	-0.291	0.257	-94.57	-35.98	-35.28
30705	-0.925	-0.393	0.298	-48.93	-31.57	-9.17
30729	-0.835	-0.407	0.187	18.27	-18.27	13.51
30747	-0.851	0.003	0.096	7.42	-18.27	18.48
30768	-0.861	-0.219	0.143	17.29	-11.62	9.87
30788	-0.86	-0.139	0.153	23.52	-8.75	12.39
30806	-0.837	-0.077	0.135	7.98	-0.07	7.98
30829	-0.846	-0.081	0.174	-7.77	7.84	1.4
30848	-0.896	-0.194	0.251	-20.51	13.09	-2.66
30869	-0.969	-0.279	0.251	-14.42	9.03	2.38
30890	-0.932	-0.282	0.255	0.0	5.6	5.04
30910	-0.936	-0.196	0.263	3.01	1.68	3.5
30929	-0.979	-0.227	0.32	-5.6	-3.15	-3.92
30949	-1.055	-0.259	0.384	-11.9	-9.52	-8.54
30974	-1.102	-0.24	0.456	-10.15	-27.72	-9.24
30994	-1.05	-0.158	0.439	-12.32	-39.83	-9.03
31014	-0.958	-0.234	0.425	-12.46	-44.38	-9.17
31035	-1.115	-0.345	0.445	-11.27	-53.62	-7.98
31059	-1.231	-0.329	0.459	3.78	-76.86	0.7
31083	-1.175	-0.234	0.508	10.78	-101.71	2.38
31102	-1.072	-0.142	0.522	2.73	-109.2	-5.39
31122	-1.011	-0.128	0.495	-10.15	-107.31	-14.28
31141	-1.018	-0.224	0.476	-15.75	-102.76	-21.0
31165	-1.086	-0.318	0.386	0.07	-101.64	-20.44
31184	-1.094	-0.323	0.337	16.73	-102.41	-22.47
31209	-1.023	-0.285	0.273	25.41	-97.86	-30.52
31229	-0.903	-0.251	0.212	27.72	-88.27	-42.42
31248	-0.768	-0.189	0.138	25.2	-76.65	-50.33
31268	-0.657	-0.222	0.113	28.49	-63.56	-52.36
31292	-0.614	-0.263	0.135	45.78	-50.75	-43.26
31312	-0.573	-0.224	0.128	50.82	-38.15	-36.61
31332	-0.55	-0.209	0.086	45.43	-26.88	-32.55
31347	-0.54	-0.242	0.058	36.4	-19.18	-35.28
31367	-0.516	-0.221	0.066	25.97	-10.5	-44.38
31387	-0.487	-0.207	0.092	18.62	0.14	-56.56
31408	-0.523	-0.226	0.081	15.89	14.28	-61.53
31432	-0.569	-0.265	0.092	21.84	35.0	-54.88
31450	-0.637	-0.337	0.061	33.81	47.11	-43.61
31471	-0.65	-0.33	0.055	34.65	61.6	-37.1
31493	-0.752	-0.318	0.069	36.26	82.25	-27.93
31513	-0.912	-0.179	0.167	43.33	86.31	-11.13
31534	-1.027	-0.115	0.228	38.36	82.53	-0.14
31554	-0.998	-0.116	0.254	15.26	77.35	-0.07
31578	-1.005	-0.172	0.276	-19.53	79.52	-10.5
31598	-1.06	-0.162	0.277	-33.95	79.59	-19.81
31618	-0.975	0.098	0.539	-106.26	94.57	-26.74
31635	-1.09	-0.211	0.28	-93.66	120.96	-37.8
31658	-1.113	0.043	0.526	-137.41	112.63	-42.21
31674	-1.472	-0.09	0.569	-212.24	76.72	-67.76
31698	-1.425	-0.838	0.031	-185.64	42.0	-77.21
31716	-1.221	-1.289	0.122	-51.87	24.99	-31.29
31735	-1.311	-0.852	0.365	26.53	9.87	-1.89
31760	-1.628	-0.619	0.401	15.68	-33.88	3.71
31779	-1.57	-0.782	0.202	34.16	-81.2	-1.96
31798	-1.25	-0.715	0.227	-4.06	-84.77	-40.39
31819	-1.055	-0.478	0.301	-70.07	-90.44	-65.59
31843	-0.768	-0.519	0.264	-98.42	-74.76	-80.15
31863	-0.609	-0.624	0.209	-73.15	-55.3	-60.34
31883	-0.631	-0.68	0.095	-27.79	-30.38	-36.82
31903	-0.642	-0.785	0.024	20.58	-9.8	-4.41
31922	-0.852	-0.88	0.072	63.98	6.51	26.74
31941	-1.042	-0.814	0.07	116.9	11.13	55.72
31961	-1.086	-0.606	-0.013	144.97	13.86	71.47
31981	-1.145	-0.385	0.123	135.87	17.99	67.9
32006	-1.133	-0.227	0.205	76.51	27.51	46.27
32023	-1.092	-0.262	0.175	28.91	38.01	36.89
32046	-1.085	-0.322	0.14	4.06	48.86	37.94
32065	-1.011	-0.318	0.008	-13.09	76.09	46.55
32086	-1.172	-0.289	-0.185	-24.85	77.91	66.78
32106	-1.547	-0.447	0.061	-24.36	63.91	74.06
32126	-1.42	-0.461	0.248	8.12	51.03	82.32
32143	-1.32	-0.433	0.114	23.38	45.01	87.01
32167	-1.218	-0.218	0.132	29.26	45.64	82.25
32185	-1.243	-0.105	0.086	-12.39	53.06	64.26
32209	-1.554	-0.386	0.041	-30.8	41.3	45.22
32227	-1.594	-0.503	0.124	-14.21	15.26	34.02
32247	-1.451	-0.439	0.186	-0.56	-15.33	16.87
32267	-1.287	-0.442	0.191	5.95	-35.84	-2.31
32291	-1.127	-0.372	0.157	13.51	-40.67	-15.33
32310	-1.043	-0.361	0.163	14.07	-40.74	-21.21
32334	-0.933	-0.357	0.114	18.83	-37.8	-22.75
32354	-0.891	-0.318	0.111	23.59	-36.05	-19.53
32374	-0.975	-0.364	0.069	30.8	-38.64	-10.99
32394	-0.934	-0.314	0.043	26.25	-38.15	-5.11
32418	-0.861	-0.291	-0.125	27.93	-30.03	-1.89
32438	-0.95	-0.321	-0.133	31.01	-43.96	7.21
32458	-0.986	-0.259	-0.061	22.4	-44.31	8.96
32476	-0.958	-0.218	-0.076	11.9	-42.21	3.57
32500	-0.951	-0.245	-0.091	3.57	-38.15	-3.01
32516	-0.915	-0.273	-0.113	5.32	-32.76	-4.06
32536	-0.847	-0.277	-0.096	13.86	-25.34	-3.92
32560	-0.751	-0.272	-0.019	30.59	-17.43	-1.96
32584	-0.674	-0.227	0.03	50.47	-10.36	-2.03
32604	-0.642	-0.168	0.097	60.83	-1.54	-3.29
32622	-0.632	-0.102	0.134	62.09	6.51	-5.25
32642	-0.583	-0.045	0.077	59.85	16.45	-7.0
32666	-0.619	0.043	0.222	43.96	16.73	-4.76
32683	-0.604	0.045	0.257	40.04	16.87	3.71
32702	-0.58	0.09	0.262	15.61	28.7	10.01
32722	-0.613	0.064	0.21	-6.93	41.93	19.81
32741	-0.698	0.001	0.096	-17.57	61.32	32.06
32766	-0.84	-0.013	0.105	-28.63	79.38	45.15
32784	-1.02	0.012	0.09	-53.69	98.14	43.68
32806	-1.08	0.173	0.124	-83.09	120.89	25.13
32826	-1.142	0.027	0.113	-107.66	121.73	16.38
32846	-1.051	0.006	0.19	-102.9	123.27	12.46
32866	-1.037	-0.078	0.177	-97.79	110.67	10.78
32890	-1.066	-0.136	0.149	-80.15	91.56	3.57
32909	-1.046	-0.29	0.115	-59.71	56.28	11.48
32934	-1.078	-0.102	0.201	-54.11	39.62	14.35
32951	-0.998	-0.244	0.117	-39.27	43.61	10.22
32971	-1.071	-0.203	0.06	-32.83	47.04	13.23
32990	-1.138	-0.192	0.091	-35.56	38.01	17.29
33011	-1.081	-0.254	0.102	-40.04	29.54	22.19
33031	-0.999	-0.12	0.17	-58.59	31.43	13.37
33054	-1.057	-0.19	0.176	-78.96	28.98	-17.08
33075	-1.109	-0.312	0.117	-67.76	21.49	-1.82
33095	-1.067	-0.363	0.113	-46.69	12.6	-5.11
33115	-1.037	-0.39	0.115	-19.53	1.89	-3.15
33133	-0.99	-0.398	0.106	1.33	-3.36	-8.75
33154	-1.03	-0.388	0.06	45.22	-17.5	-6.16
33171	-1.042	-0.336	0.037	75.32	-25.27	-2.94
33191	-1.094	-0.302	0.035	99.33	-26.04	0.14
33211	-1.152	-0.209	0.008	117.18	-26.67	8.75
33231	-1.162	-0.171	-0.008	116.41	-28.98	11.76
33253	-1.129	-0.138	-0.023	120.82	-34.65	5.88
33273	-1.169	-0.065	-0.037	117.25	-40.53	-1.47
33297	-1.147	-0.016	-0.003	91.35	-50.12	-9.94
33315	-1.065	-0.073	-0.003	80.15	-55.37	-11.2
33339	-0.997	-0.115	-0.032	72.94	-62.65	-8.61
33361	-0.939	-0.109	-0.031	74.83	-64.96	-5.6
33381	-0.921	-0.062	-0.021	64.12	-62.3	-5.46
33405	-0.878	-0.054	-0.008	42.91	-49.14	-5.39
33425	-0.845	-0.049	0.022	24.08	-38.85	-5.32
33445	-0.79	-0.058	0.027	8.12	-25.34	-6.37
33465	-0.788	-0.087	0.033	-6.37	-12.53	-9.73
33485	-0.803	-0.142	-0.01	-15.33	-2.31	-11.2
33504	-0.907	-0.172	0.002	-12.74	3.36	-9.45
33525	-0.975	-0.179	0.028	-15.75	10.08	-9.03
33549	-1.029	-0.232	0.015	-14.98	12.39	-6.65
33565	-1.025	-0.236	0.029	-9.31	13.09	-4.48
33588	-1.027	-0.185	0.064	-4.97	16.87	-7.42
33612	-1.072	-0.166	0.077	-14.56	20.44	-12.46
33629	-1.051	-0.152	0.072	-21.07	23.17	-15.19
33649	-1.008	-0.149	0.025	-25.76	26.88	-20.37
33668	-1.055	-0.122	0.049	-31.99	19.04	-21.07
33692	-1.123	-0.114	0.172	-41.3	8.4	-18.27
33713	-1.116	-0.121	0.263	-56.35	-12.74	-19.81
33733	-1.014	-0.111	0.217	-59.99	-23.24	-23.52
33756	-1.195	-0.086	0.323	-75.32	-49.42	-27.3
33774	-1.241	-0.211	0.319	-76.44	-70.98	-27.16
33793	-1.163	-0.329	0.292	-82.53	-91.0	-23.45
33814	-1.053	-0.39	0.306	-72.52	-101.78	-18.48
33835	-0.966	-0.357	0.345	-54.81	-102.41	-17.5
33859	-0.954	-0.309	0.427	-30.94	-100.1	-6.79
33879	-0.978	-0.498	0.283	12.11	-87.64	-1.89
33894	-0.957	-0.477	0.293	22.12	-84.28	-0.84
33919	-0.902	-0.38	0.332	18.9	-75.81	-10.64
33939	-0.866	-0.335	0.368	12.25	-73.01	-17.29
33963	-0.855	-0.328	0.362	-6.37	-64.47	-26.04
33979	-0.89	-0.572	0.331	6.51	-68.04	-20.3
34002	-0.87	-0.501	0.419	26.53	-67.55	-9.94
34020	-0.817	-0.427	0.406	35.63	-66.85	-4.76
34039	-0.805	-0.381	0.452	39.76	-62.23	-4.13
34064	-0.899	-0.425	0.433	46.34	-61.67	-1.19
34084	-0.863	-0.443	0.42	58.31	-63.91	5.6
34102	-0.792	-0.379	0.402	63.77	-59.5	12.74
34123	-0.716	-0.271	0.375	57.19	-49.49	15.26
34143	-0.623	-0.196	0.362	45.36	-35.63	10.22
34164	-0.597	-0.094	0.372	21.35	-17.36	-0.56
34184	-0.598	-0.102	0.348	7.42	-3.36	-8.89
34208	-0.571	-0.142	0.329	8.12	12.46	-9.38
34228	-0.565	-0.201	0.244	21.14	29.05	-3.57
34247	-0.538	-0.15	0.105	38.29	50.4	-4.06
34266	-0.696	-0.119	0.125	44.73	59.29	1.47
34287	-0.88	-0.094	0.151	49.35	61.88	8.75
34311	-0.932	-0.086	0.121	47.81	59.29	14.0
34331	-0.888	-0.058	0.099	34.65	52.71	8.19
34351	-0.854	-0.045	0.097	21.77	45.43	-6.58
34367	-0.842	-0.04	0.12	14.98	43.96	-19.88
34391	-0.829	-0.053	0.164	11.97	45.43	-35.98
34411	-0.883	-0.035	0.147	12.88	46.48	-38.71
34428	-0.855	-0.058	0.12	15.19	45.29	-34.37
34452	-0.84	-0.121	0.077	17.22	42.98	-18.27
34472	-0.918	-0.154	0.065	20.65	40.53	-4.06
34491	-1.012	-0.082	0.103	15.19	46.69	6.16
34515	-1.148	-0.009	0.056	-9.73	53.27	5.81
34535	-1.157	-0.031	-0.007	-29.47	50.47	-3.29
34553	-1.207	-0.073	0.013	-41.16	45.5	-11.48
34575	-1.207	-0.068	0.023	-54.6	43.47	-17.15
34595	-1.191	-0.096	0.003	-61.11	46.62	-21.77
34610	-1.158	-0.112	0.01	-64.47	50.4	-22.26
34635	-1.11	-0.186	-0.062	-59.64	54.74	-14.56
34655	-1.188	-0.216	-0.058	-51.73	51.31	-1.4
34673	-1.199	-0.203	-0.036	-48.51	47.25	7.0
34694	-1.139	-0.181	-0.01	-47.11	45.29	15.47
34713	-1.154	-0.143	-0.057	-50.54	45.78	18.34
34737	-1.193	-0.151	-0.09	-56.35	45.92	23.94
34758	-1.38	-0.385	-0.167	-38.71	24.71	26.46
34782	-1.262	-0.247	-0.035	-43.96	3.36	29.68
34802	-1.177	-0.217	-0.014	-42.14	-6.16	21.7
34820	-1.159	-0.203	-0.003	-44.66	-13.09	14.63
34840	-1.076	-0.202	0.001	-48.09	-14.49	6.02
34862	-1.008	-0.29	-0.029	-41.86	-13.23	-0.63
34883	-1.031	-0.331	-0.011	-24.01	-8.89	2.1
34908	-1.124	-0.332	-0.058	2.73	-2.8	15.05
34927	-1.139	-0.382	-0.09	34.02	3.71	28.07
34946	-1.156	-0.363	-0.13	63.42	13.09	41.44
34966	-1.348	-0.281	-0.218	74.83	21.35	49.84
34990	-1.49	-0.219	-0.236	68.81	17.36	46.34
35010	-1.513	-0.185	-0.257	59.29	10.57	34.37
35029	-1.504	-0.123	-0.239	42.98	2.03	17.15
35049	-1.469	-0.127	-0.236	24.78	-6.44	-4.06
35072	-1.411	-0.146	-0.228	12.81	-8.47	-20.3
35092	-1.388	-0.192	-0.24	10.36	-7.84	-25.2
35109	-1.421	-0.224	-0.207	15.47	-7.84	-23.73
35130	-1.38	-0.188	-0.198	21.91	-7.0	-20.58
35148	-1.375	-0.183	-0.19	25.48	-6.23	-18.27
35173	-1.389	-0.173	-0.195	31.22	-9.66	-15.12
35192	-1.378	-0.143	-0.182	32.41	-14.91	-14.28
35212	-1.326	-0.116	-0.16	31.57	-20.23	-15.68
35233	-1.276	-0.106	-0.134	28.7	-26.11	-18.34
35253	-1.23	-0.107	-0.116	28.98	-31.99	-21.21
35273	-1.178	-0.121	-0.111	32.27	-38.64	-22.19
35297	-1.108	-0.122	-0.11	37.17	-45.22	-20.93
35317	-1.085	-0.12	-0.12	38.29	-51.31	-19.95
35337	-1.049	-0.124	-0.092	42.49	-58.24	-15.61
35354	-1.008	-0.114	-0.082	46.27	-64.33	-11.97
35377	-0.953	-0.091	-0.067	48.86	-72.52	-7.98
35397	-0.883	-0.081	-0.086	46.76	-77.63	-6.09
35419	-0.812	-0.004	-0.042	27.37	-77.42	-9.1
35443	-0.764	-0.031	-0.029	11.83	-77.21	-15.54
35463	-0.722	-0.066	-0.021	2.24	-67.48	-17.78
35483	-0.686	-0.049	-0.011	-8.89	-51.31	-20.09
35503	-0.664	-0.152	-0.078	-14.21	-30.94	-15.75
35521	-0.659	-0.164	-0.09	-11.41	-17.78	-10.5
35540	-0.646	-0.173	-0.035	-14.56	-2.59	-8.75
35565	-0.626	-0.15	0.018	-14.56	10.43	-5.88
35585	-0.547	-0.139	0.095	-15.61	23.59	-2.03
35605	-0.534	-0.112	0.167	-13.3	31.99	2.45
35621	-0.539	-0.095	0.179	-12.81	42.14	6.02
35640	-0.55	-0.113	0.112	-8.26	54.25	11.97
35665	-0.647	-0.154	0.072	-7.07	67.76	23.38
35685	-0.778	-0.125	0.04	-14.35	79.66	33.46
35704	-0.835	-0.083	0.059	-34.72	90.86	38.15
35725	-0.852	-0.046	0.065	-58.31	101.29	37.66
35743	-0.839	-0.081	-0.015	-79.73	108.71	36.96
35767	-0.922	-0.14	0.034	-101.99	105.07	40.11
35788	-0.989	-0.137	0.069	-120.68	101.29	39.06
35805	-1.037	-0.17	0.073	-133.56	95.97	32.55
35825	-1.123	-0.239	0.058	-145.39	86.8	22.96
35849	-1.169	-0.292	0.055	-147.35	72.8	6.72
35868	-1.181	-0.362	-0.012	-135.52	62.3	-4.62
35884	-1.213	-0.446	-0.056	-120.33	50.12	-12.32
35909	-1.218	-0.495	-0.038	-79.73	26.6	-15.75
35929	-1.139	-0.441	-0.012	-53.76	13.09	-18.34
35949	-1.061	-0.397	0.004	-38.22	3.85	-22.4
35973	-0.964	-0.306	0.022	-30.94	5.11	-26.25
35992	-0.997	-0.323	0.003	-30.87	1.05	-26.11
36012	-0.983	-0.323	0.019	-28.0	2.66	-24.5
36031	-0.997	-0.249	0.024	-38.57	2.59	-23.31
36055	-0.959	-0.229	0.047	-52.57	4.34	-26.95
36074	-0.927	-0.238	0.053	-66.43	6.3	-31.01
36095	-0.922	-0.29	0.063	-66.92	7.42	-28.63
36115	-0.929	-0.424	0.029	-46.76	1.82	-20.02
36135	-0.905	-0.457	0.016	-13.37	0.07	-4.9
36152	-0.922	-0.47	-0.006	9.03	0.84	3.36
36172	-1.007	-0.468	-0.052	48.93	-5.6	18.41
36191	-1.066	-0.391	-0.097	74.55	-9.52	25.2
36216	-1.339	-0.241	-0.179	72.87	-11.13	17.29
36240	-1.311	-0.251	-0.142	72.59	-29.4	10.36
36260	-1.221	-0.294	-0.137	89.18	-42.28	14.21
36279	-1.111	-0.245	-0.113	98.77	-48.72	9.87
36298	-1.068	-0.141	-0.098	95.62	-50.82	0.0
36321	-1.094	-0.154	-0.106	95.48	-49.56	-14.7
36342	-1.146	-0.138	-0.122	97.65	-46.13	-16.03
36362	-1.166	-0.067	-0.111	88.41	-40.18	-16.1
36382	-1.121	-0.037	-0.061	76.86	-36.12	-12.88
36401	-1.05	0.013	0.013	61.04	-29.54	-10.99
36419	-1.049	0.074	0.049	38.85	-25.76	-8.68
36442	-1.045	0.038	0.071	23.17	-26.81	-5.74
36461	-1.019	-0.008	0.067	14.14	-30.17	-0.28
36480	-0.996	-0.057	0.078	12.88	-31.71	10.64
36505	-0.898	-0.044	0.047	18.97	-29.54	20.02
36525	-0.956	0.092	0.039	-2.52	-39.27	17.92
36544	-0.804	-0.065	0.042	-10.99	-38.15	16.38
36567	-0.744	-0.113	0.066	-10.15	-29.47	24.5
36591	-0.785	-0.056	0.13	-8.33	-21.56	30.66
36610	-0.852	-0.07	0.101	-12.04	-16.38	32.69
36634	-0.832	-0.117	0.099	-12.18	-11.48	35.35
36653	-0.852	-0.141	0.105	-17.01	-11.97	34.58
36673	-0.906	-0.111	0.204	-16.59	-14.42	32.2
36694	-0.979	-0.095	0.25	-30.87	-19.53	16.94
36718	-0.989	-0.155	0.234	-46.48	-26.67	0.21
36738	-0.945	-0.207	0.244	-54.67	-30.8	-11.69
36758	-0.889	-0.236	0.258	-52.22	-28.35	-17.36
36776	-0.881	-0.266	0.267	-41.65	-23.59	-16.03
36795	-0.91	-0.346	0.246	-12.32	-22.26	-0.35
36820	-0.886	-0.228	0.261	12.74	-14.63	16.94
36835	-0.874	-0.169	0.264	10.01	-9.31	17.78
36860	-0.881	-0.106	0.252	3.43	0.07	12.6
36882	-0.937	-0.134	0.272	2.94	6.44	11.48
36900	-0.971	-0.14	0.248	5.88	12.11	10.01
36919	-1.006	-0.115	0.197	7.91	13.79	7.98
36943	-1.001	-0.083	0.192	10.99	13.65	3.08
36960	-1.034	-0.094	0.163	17.64	14.49	1.89
36984	-1.073	-0.09	0.152	30.03	11.55	5.32
37004	-1.123	-0.081	0.099	40.81	8.26	9.59
37024	-1.157	-0.073	0.029	47.25	0.77	13.65
37044	-1.042	-0.041	0.033	44.31	-7.35	9.38
37064	-0.98	0.021	0.039	26.32	-12.88	-2.52
37079	-0.998	0.021	0.015	11.55	-14.98	-16.66
37103	-0.985	-0.066	-0.074	3.5	-14.35	-29.26
37123	-0.94	-0.184	-0.092	19.04	-15.26	-23.8
37143	-0.829	-0.121	-0.018	28.35	-14.7	-16.24
37166	-0.763	-0.072	-0.004	33.88	-15.89	-13.65
37186	-0.771	-0.054	-0.032	35.21	-10.71	-8.96
37205	-0.901	-0.048	-0.06	33.11	-12.39	-4.41
37230	-0.9	-0.032	-0.055	30.87	-24.78	-1.26
37249	-0.865	-0.026	-0.023	24.5	-35.7	-3.29
37269	-0.854	0.018	-0.033	16.24	-45.36	-6.58
37293	-0.956	0.032	-0.074	4.97	-51.17	-6.72
37313	-1.023	-0.033	-0.101	-6.09	-55.16	-1.05
37333	-0.989	-0.057	-0.095	-8.47	-53.34	4.55
37352	-0.952	-0.03	-0.062	-9.03	-46.2	4.41
37373	-0.995	0.062	-0.061	-16.8	-31.15	0.35
37397	-1.063	-0.049	-0.136	-7.84	-19.25	9.52
37417	-1.128	-0.118	-0.122	3.15	-18.06	23.8
37436	-1.188	0.075	-0.081	0.0	-9.45	25.34
37454	-1.187	0.115	-0.056	-21.49	-3.78	11.41
37477	-1.151	-0.028	-0.105	-22.4	9.73	-0.49
37497	-1.151	-0.035	-0.108	-19.67	25.76	-9.52
37517	-1.057	-0.055	-0.089	-17.43	37.1	-15.33
37541	-1.008	-0.1	-0.045	-9.03	49.7	-12.18
37561	-1.039	-0.103	-0.045	4.69	63.77	-2.24
37576	-1.029	-0.135	-0.052	14.0	71.05	4.48
37601	-1.02	-0.176	-0.08	30.73	85.26	22.26
37625	-1.077	-0.129	-0.068	38.36	95.76	32.13
37644	-1.285	0.119	-0.081	33.88	97.72	34.23
37668	-1.375	-0.013	-0.122	23.38	89.81	32.76
37688	-1.37	-0.026	-0.156	3.29	75.39	28.91
37705	-1.384	-0.037	-0.148	-12.18	63.14	23.1
37729	-1.425	-0.037	-0.121	-21.84	47.74	7.63
37749	-1.433	-0.042	-0.104	-24.22	33.81	-4.2
37765	-1.422	-0.108	-0.146	-22.4	24.22	-11.27
37784	-1.44	-0.149	-0.161	-12.53	12.74	-14.49
37809	-1.434	-0.133	-0.189	0.63	5.04	-14.21
37825	-1.412	-0.103	-0.143	8.05	-1.96	-13.16
37849	-1.371	-0.027	-0.117	10.29	-9.66	-11.83
37869	-1.323	-0.029	-0.097	8.96	-17.29	-10.64
37888	-1.287	-0.035	-0.126	1.26	-21.7	-7.42
37908	-1.289	-0.02	-0.079	-4.69	-26.25	-4.41
37927	-1.246	-0.008	-0.063	-9.94	-25.48	-6.86
37952	-1.229	-0.082	-0.076	-5.39	-24.43	-7.63
37972	-1.225	-0.122	-0.101	7.49	-27.3	-1.4
37993	-1.248	-0.09	-0.075	15.61	-33.04	4.69
38014	-1.281	-0.038	-0.091	17.08	-38.64	0.98
38038	-1.296	-0.089	-0.122	14.35	-47.39	-6.02
38062	-1.285	-0.125	-0.155	15.68	-53.34	-8.54
38080	-1.291	-0.146	-0.177	21.56	-61.11	-9.73
38101	-1.288	-0.134	-0.176	28.42	-68.88	-10.64
38122	-1.253	-0.117	-0.171	33.46	-78.12	-12.18
38142	-1.204	-0.112	-0.18	33.18	-85.05	-13.58
38166	-1.17	-0.099	-0.171	29.89	-89.11	-17.64
38186	-1.132	-0.102	-0.176	28.91	-92.96	-21.42
38206	-1.118	-0.101	-0.17	29.82	-96.46	-22.82
38230	-1.093	-0.122	-0.183	33.18	-97.86	-19.18
38248	-1.075	-0.12	-0.174	34.93	-95.83	-15.54
38268	-1.037	-0.12	-0.173	37.45	-91.07	-13.37
38291	-0.923	-0.1	-0.126	40.11	-87.15	-13.65
38312	-0.735	-0.055	0.007	46.97	-84.56	-18.69
38332	-0.587	-0.028	0.051	50.26	-81.2	-21.42
38352	-0.463	0.022	0.093	54.25	-75.95	-20.79
38375	-0.364	0.065	0.208	55.72	-63.42	-15.26
38396	-0.268	0.095	0.265	56.14	-42.56	-2.8
38416	-0.254	0.094	0.278	50.82	-13.23	8.4
38440	-0.259	0.122	0.279	38.22	22.33	20.58
38457	-0.283	0.132	0.244	8.47	63.35	22.12
38481	-0.438	0.142	0.214	-20.3	107.8	24.5
38498	-0.604	0.14	0.205	-36.68	136.43	27.72
38518	-0.824	0.109	0.105	-50.26	160.37	36.54
38541	-1.034	0.083	0.044	-55.79	179.76	49.63
38562	-1.13	0.07	0.061	-56.56	191.94	54.74
38579	-1.163	0.046	0.069	-52.85	192.92	54.18
38602	-1.239	-0.024	0.06	-42.49	173.88	51.45
38622	-1.228	0.004	0.122	-39.69	145.18	35.07
38641	-1.186	-0.063	0.203	-33.95	119.0	12.46
38666	-1.105	-0.004	0.252	-19.67	86.52	-13.65
38690	-1.042	-0.184	0.166	12.32	60.48	-32.69
38710	-1.035	-0.16	0.185	39.34	41.37	-29.12
38730	-1.037	-0.095	0.204	57.05	19.74	-26.04
38750	-1.055	0.044	0.2	40.04	14.91	-28.56
38770	-1.09	0.06	0.178	18.62	14.42	-31.71
38790	-1.112	-0.032	0.149	18.55	10.57	-23.8
38809	-1.139	-0.02	0.141	27.16	4.2	-12.11
38828	-1.188	-0.022	0.108	38.08	-2.45	-7.07
38850	-1.174	0.006	0.109	73.36	-9.45	1.54
38870	-1.223	0.138	0.04	76.16	-13.86	9.87
38890	-1.13	0.096	0.039	78.05	-18.55	15.68
38908	-1.099	0.099	0.015	85.19	-24.36	18.76
38932	-1.038	0.147	0.026	77.28	-31.29	15.61
38947	-0.993	0.177	0.043	52.15	-40.95	13.16
38972	-0.964	0.159	0.028	28.84	-50.68	6.58
38988	-0.933	0.112	0.013	4.13	-53.48	4.41
39008	-0.941	0.065	-0.017	-9.8	-52.29	-0.35
39029	-0.94	0.21	0.029	-38.08	-40.6	-16.59
39049	-0.95	0.057	-0.026	-65.31	-40.6	-20.86
39068	-0.849	0.027	-0.017	-65.31	-40.46	-17.64
39093	-0.867	0.013	-0.009	-78.96	-38.08	-19.53
39113	-0.909	-0.01	-0.018	-86.73	-34.09	-20.65
39133	-0.947	-0.051	-0.037	-94.08	-27.37	-19.39
39153	-0.951	-0.102	-0.054	-98.0	-15.61	-17.36
39173	-0.911	-0.102	-0.028	-101.99	-4.06	-17.5
39193	-0.883	-0.126	-0.005	-102.9	6.44	-19.81
39210	-0.89	-0.145	0.003	-101.64	16.59	-22.12
39232	-0.9	-0.201	-0.028	-91.56	30.87	-20.09
39256	-0.943	-0.274	-0.066	-77.0	41.65	-13.44
39276	-1.031	-0.289	-0.024	-56.84	49.07	-5.81
39296	-1.097	-0.19	0.012	-58.87	50.82	-6.3
39316	-1.066	-0.159	0.022	-62.65	48.79	-15.96
39336	-0.974	-0.185	0.005	-62.65	41.16	-24.43
39355	-1.0	-0.221	0.048	-58.03	27.09	-32.48
39376	-1.02	-0.201	0.119	-53.27	15.61	-36.96
39394	-1.039	-0.167	0.102	-54.88	4.76	-36.4
39414	-1.029	-0.221	0.069	-55.3	-9.03	-32.13
39434	-1.008	-0.221	0.062	-59.99	-20.16	-27.72
39456	-1.003	-0.179	0.082	-73.92	-20.58	-32.48
39480	-1.0	-0.24	0.063	-77.7	-21.98	-32.2
39500	-1.0	-0.291	0.043	-72.94	-19.32	-28.98
39519	-1.001	-0.318	0.069	-59.36	-20.65	-22.82
39540	-1.007	-0.308	0.098	-41.23	-22.89	-16.38
39563	-1.058	-0.331	0.055	-29.12	-24.85	-5.25
39583	-1.107	-0.305	0.06	-21.84	-28.07	2.1
39603	-1.056	-0.296	0.071	-19.25	-28.56	5.46
39623	-1.007	-0.323	0.065	-12.81	-25.97	9.45
39642	-0.98	-0.338	0.033	0.42	-18.9	16.03
39667	-1.005	-0.371	-0.125	14.77	-15.19	26.39
39687	-1.003	-0.31	-0.002	28.14	-9.52	34.16
39706	-0.988	-0.255	0.006	30.31	-1.61	38.29
39727	-0.983	-0.231	0.009	29.82	2.1	41.16
39746	-1.056	-0.16	-0.002	22.54	7.0	40.25
39771	-1.133	-0.217	-0.038	14.42	6.65	39.2
39789	-1.165	-0.122	-0.083	6.44	4.48	35.21
39806	-1.131	-0.132	-0.074	1.26	1.47	31.15
39830	-1.138	-0.128	-0.091	-5.04	3.85	22.61
39854	-1.167	-0.144	-0.115	-0.98	4.27	15.75
39874	-1.199	-0.221	-0.15	16.8	-0.84	17.64
39894	-1.033	-0.192	-0.209	57.54	5.04	25.48
39914	-0.879	-0.102	-0.234	92.68	10.22	31.64
39933	-0.793	0.113	-0.174	101.78	18.69	30.94
39953	-0.849	0.158	-0.19	111.93	21.84	25.62
39973	-0.838	0.109	-0.221	109.13	16.52	20.37
39991	-0.727	0.135	-0.223	99.75	14.84	14.49
40014	-0.687	0.148	-0.225	85.47	10.71	11.76
40037	-0.689	0.181	-0.225	64.68	17.64	8.96
40061	-0.702	0.208	-0.267	31.43	27.23	5.6
40076	-0.734	0.167	-0.271	12.74	34.86	4.2
40096	-0.894	0.079	-0.315	-3.01	44.38	3.01
40121	-1.027	-0.051	-0.363	6.86	37.66	8.19
40140	-1.099	-0.034	-0.386	28.77	28.21	12.25
40159	-1.145	-0.007	-0.377	52.99	13.86	12.74
40181	-1.122	0.022	-0.331	64.54	-1.68	7.42
40202	-0.981	0.138	-0.215	51.87	-11.34	-8.82
40222	-0.854	0.142	-0.187	35.84	-23.59	-18.83
40242	-0.764	0.105	-0.186	21.0	-30.73	-21.77
40265	-0.785	0.013	-0.187	17.78	-41.3	-17.43
40286	-0.733	-0.051	-0.159	22.89	-36.75	-10.08
40305	-0.724	-0.062	-0.098	27.23	-30.38	-3.5
40325	-0.816	-0.068	-0.1	33.74	-24.85	1.82
40349	-0.949	-0.069	-0.147	39.41	-29.05	3.64
40369	-1.013	-0.048	-0.189	36.75	-34.93	0.28
40389	-1.085	-0.044	-0.217	24.71	-40.67	-4.2
40409	-1.109	-0.052	-0.235	14.14	-49.0	-11.48
40429	-1.1	-0.079	-0.219	13.02	-50.12	-19.95
40448	-1.168	-0.084	-0.241	7.7	-50.19	-23.59
40467	-1.281	-0.125	-0.291	11.69	-51.59	-23.94
40486	-1.33	-0.12	-0.333	15.33	-52.29	-21.91
40511	-1.37	-0.135	-0.368	17.36	-52.15	-21.98
40535	-1.417	-0.166	-0.385	29.47	-46.97	-16.94
40550	-1.468	-0.126	-0.384	44.66	-42.0	-15.26
40575	-1.459	-0.085	-0.36	54.32	-32.2	-8.82
40595	-1.373	0.023	-0.302	51.59	-17.99	-14.91
40615	-1.3	0.106	-0.225	28.98	-3.71	-23.24
40635	-1.289	0.134	-0.204	0.35	7.77	-29.96
40655	-1.286	0.086	-0.203	-27.37	10.64	-28.77
40673	-1.224	0.006	-0.196	-45.08	15.19	-24.5
40694	-1.209	-0.056	-0.182	-56.49	17.99	-16.1
40714	-1.22	-0.116	-0.183	-58.24	20.16	-6.23
40738	-1.239	-0.151	-0.182	-53.34	19.88	3.99
40757	-1.273	-0.188	-0.197	-46.27	14.49	11.41
40782	-1.261	-0.194	-0.206	-32.69	4.83	15.61
40800	-1.293	-0.17	-0.226	-27.23	-4.34	14.14
40820	-1.307	-0.166	-0.227	-22.89	-13.86	12.11
40843	-1.305	-0.165	-0.226	-21.98	-25.83	7.84
40863	-1.273	-0.165	-0.21	-19.32	-40.25	2.17
40884	-1.242	-0.139	-0.196	-16.87	-53.06	-4.55
40903	-1.202	-0.105	-0.179	-16.31	-65.1	-12.67
40927	-1.189	-0.089	-0.173	-19.6	-74.83	-20.51
40946	-1.126	-0.082	-0.148	-22.33	-85.33	-23.31
40969	-1.04	-0.078	-0.117	-21.21	-91.91	-23.94
40990	-0.929	-0.076	-0.075	-16.66	-95.9	-23.17
41010	-0.805	-0.102	-0.065	-10.29	-92.33	-20.86
41029	-0.718	-0.127	-0.057	-5.04	-82.46	-15.12
41050	-0.638	-0.143	-0.02	4.55	-58.59	-6.72
41069	-0.602	-0.156	0.009	7.07	-27.86	-0.98
41094	-0.589	-0.125	0.073	11.76	13.09	-1.4
41114	-0.57	-0.036	0.129	-0.98	40.39	-7.91
41134	-0.612	-0.066	0.152	-4.62	48.93	-11.9
41153	-0.586	-0.083	0.167	-10.15	57.12	-14.42
41177	-0.579	-0.112	0.2	-12.81	62.86	-9.24
41197	-0.601	-0.157	0.217	-10.15	69.3	4.76
41217	-0.591	-0.168	0.232	-5.18	81.76	14.91
41236	-0.679	-0.165	0.193	-0.98	102.34	25.06
41261	-0.916	-0.151	0.089	-5.88	122.5	39.55
41281	-1.184	-0.095	0.043	-26.67	130.62	53.41
41298	-1.231	-0.157	0.034	-31.22	125.51	58.73
41321	-1.183	-0.247	0.039	-28.07	112.35	58.38
41345	-1.199	-0.296	0.043	-11.34	87.43	52.57
41363	-1.229	-0.223	0.075	5.53	65.8	45.71
41383	-1.218	-0.147	0.126	15.68	38.99	28.91
41407	-1.177	-0.11	0.096	15.68	14.56	2.31
41423	-1.094	-0.133	0.078	4.34	1.75	-8.19
41446	-1.042	-0.154	0.074	-10.22	-9.17	-13.93
41463	-0.969	-0.129	0.088	-29.68	-13.65	-16.66
41482	-0.957	-0.171	0.076	-46.9	-14.07	-19.67
41502	-0.95	-0.217	0.049	-53.83	-11.27	-20.44
41522	-0.978	-0.267	0.02	-55.58	-8.05	-17.85
41545	-0.987	-0.277	0.012	-56.56	-3.78	-15.54
41569	-0.966	-0.215	0.042	-55.86	3.5	-29.89
41588	-0.991	-0.24	0.059	-47.32	10.15	-38.29
41609	-1.038	-0.318	0.07	-30.03	8.05	-33.11
41628	-1.043	-0.318	0.05	-17.43	3.71	-24.57
41648	-1.043	-0.308	0.045	3.71	-3.5	-16.03
41673	-1.023	-0.257	0.059	18.13	-10.43	-13.09
41693	-1.011	-0.233	0.074	25.48	-17.01	-12.81
41713	-1.005	-0.233	0.059	40.81	-24.5	-9.52
41732	-1.014	-0.233	0.034	52.08	-30.17	-1.96
41752	-1.002	-0.264	-0.025	64.33	-31.92	8.75
41776	-1.033	-0.242	-0.059	72.17	-30.17	18.41
41792	-1.115	-0.231	-0.087	76.09	-29.75	24.08
41816	-1.171	-0.224	-0.093	86.87	-28.98	29.4
41836	-1.139	-0.209	-0.11	96.18	-30.8	33.32
41856	-1.064	-0.17	-0.079	113.33	-27.37	33.6
41880	-1.131	-0.093	-0.065	124.39	-31.15	32.62
41900	-1.092	-0.008	-0.051	129.15	-37.87	28.28
41919	-1.03	0.034	-0.064	122.22	-42.28	23.73
41939	-0.985	0.086	-0.07	107.8	-46.41	18.48
41963	-0.961	0.183	-0.059	90.65	-49.0	15.75
41983	-0.935	0.268	-0.058	46.69	-47.95	11.06
42003	-0.903	0.296	-0.019	-3.71	-43.61	3.43
42022	-0.943	0.132	0.068	-49.91	-39.48	-4.48
42046	-0.918	0.153	0.096	-81.62	-37.59	-6.3
42066	-0.858	0.061	0.016	-88.83	-24.5	-4.55
42090	-0.922	0.005	0.101	-88.34	-20.16	3.22
42110	-0.975	-0.011	0.198	-84.28	-21.7	8.96
42130	-0.953	0.01	0.154	-79.66	-18.76	10.36
42150	-0.887	-0.014	0.126	-74.13	-13.65	7.77
42168	-0.883	-0.06	0.113	-65.24	-10.5	4.13
42186	-0.869	-0.067	0.135	-52.92	-7.35	0.49
42206	-0.849	-0.081	0.138	-41.79	0.7	1.54
42230	-0.838	-0.123	0.08	-26.32	7.56	7.84
42250	-0.845	-0.156	0.082	-14.77	10.85	12.39
42270	-0.826	-0.101	0.105	-7.49	13.44	13.09
42288	-0.827	-0.065	0.111	-9.66	15.4	11.13
42312	-0.869	-0.051	0.125	-19.67	19.18	5.39
42331	-0.915	0.037	0.158	-42.49	25.27	-5.39
42350	-0.941	0.041	0.146	-75.25	30.03	-20.44
42375	-0.947	-0.02	0.175	-95.06	27.79	-32.69
42394	-0.934	-0.09	0.21	-104.02	27.37	-33.04
42415	-0.951	-0.147	0.244	-106.54	29.12	-26.11
42435	-1.024	-0.212	0.282	-90.3	30.17	-18.83
42454	-1.072	-0.243	0.266	-72.8	30.24	-5.81
42475	-1.129	-0.286	0.237	-48.23	28.07	6.65
42499	-1.169	-0.273	0.235	-33.18	22.96	14.28
42517	-1.218	-0.232	0.28	-22.33	17.71	11.34
42535	-1.191	-0.21	0.279	-7.63	11.55	7.98
42555	-1.149	-0.217	0.272	9.24	0.42	4.48
42574	-1.105	-0.216	0.246	24.64	-8.61	3.43
42599	-1.077	-0.184	0.22	49.49	-16.87	4.34
42619	-1.159	-0.177	0.149	64.89	-20.23	6.72
42639	-1.149	-0.2	0.087	86.45	-23.38	14.63
42658	-1.123	-0.152	0.029	97.58	-22.05	19.32
42677	-1.102	-0.055	-0.002	94.57	-25.76	18.97
42702	-1.072	-0.023	0.004	84.0	-33.39	-0.98
42722	-0.932	-0.017	0.016	65.31	-40.11	-9.73
42741	1.233	-0.346	-0.196	74.97	104.3	-11.41
42762	-1.065	0.054	-0.014	49.77	-48.16	-17.5
42781	-0.792	-0.067	0.009	69.23	-41.65	-14.28
42801	-0.824	-0.039	-0.007	55.72	-34.44	-12.95
42820	-0.851	-0.077	0.108	41.23	-31.78	-10.36
42840	-0.949	-0.151	-0.122	20.16	-35.91	-5.39
42859	-0.919	-0.058	-0.122	12.6	-37.45	-14.56
42883	-0.79	-0.086	-0.157	1.82	-37.45	-32.48
42904	-0.869	-0.13	-0.151	4.48	-39.34	-31.78
42923	-0.979	-0.121	-0.09	8.47	-42.07	-21.91
42942	-1.027	-0.208	-0.119	26.67	-47.88	-3.22
42966	-0.903	-0.143	-0.156	38.57	-36.05	12.95
42987	-0.978	-0.045	-0.157	19.11	-28.35	7.0
43007	-1.122	-0.016	-0.151	0.7	-34.58	4.34
43028	-1.065	-0.014	-0.127	-17.57	-39.69	-8.96
43052	-1.026	-0.066	-0.142	-31.92	-37.8	-24.22
43071	-0.972	-0.116	-0.131	-31.08	-29.75	-28.42
43090	-0.941	-0.147	-0.163	-16.38	-24.85	-25.55
43108	-0.951	-0.132	-0.103	-1.33	-24.29	-14.0
43127	-0.943	-0.103	-0.092	8.19	-19.81	-2.1
43151	-0.96	-0.063	-0.085	5.95	-3.85	11.69
43171	-1.047	-0.058	-0.146	-1.75	11.13	17.85
43192	-1.115	-0.049	-0.159	-15.05	16.17	19.74
43212	-1.147	-0.025	-0.088	-32.34	19.88	10.64
43232	-1.359	-0.052	-0.036	-51.1	-8.68	9.45
43252	-1.48	-0.13	0.009	-46.2	-5.32	10.57
43271	-1.558	-0.27	0.039	-40.53	-22.82	31.71
43290	-1.461	-0.17	0.183	-32.06	-32.55	18.83
43311	-1.24	-0.012	0.192	-50.26	-30.31	0.21
43330	-1.174	-0.078	0.241	-61.46	-22.19	-13.86
43355	-1.07	-0.186	0.241	-52.15	2.52	-19.11
43374	-0.999	-0.252	0.222	-34.3	25.06	-6.02
43397	-0.947	-0.261	0.15	-14.0	52.71	1.26
43417	-0.929	-0.278	0.045	-5.74	77.0	4.62
43437	-0.933	-0.341	-0.141	4.55	115.64	9.24
43457	-1.055	-0.389	-0.165	23.45	134.33	25.9
43477	-1.289	-0.366	-0.092	49.84	152.32	48.86
43497	-1.458	-0.232	-0.061	66.15	158.34	69.86
43516	-1.706	-0.16	-0.116	71.89	157.85	82.25
43540	-1.757	-0.196	-0.424	81.2	128.66	84.49
43561	-1.846	-0.135	-0.413	77.42	78.33	76.93
43581	-1.809	-0.005	-0.185	54.11	8.68	54.11
43601	-1.642	0.173	-0.098	12.74	-33.39	8.4
43625	-1.544	0.134	-0.122	-31.71	-71.12	-41.37
43640	-1.442	0.057	-0.139	-50.61	-85.4	-65.59
43665	-1.346	-0.117	-0.193	-55.02	-96.04	-76.44
43681	-1.262	-0.181	-0.274	-42.63	-98.0	-68.53
43704	-1.162	-0.249	-0.192	-24.36	-104.16	-47.11
43725	-1.102	-0.199	-0.086	-1.19	-102.2	-32.34
43741	-1.024	-0.135	-0.056	5.53	-96.53	-26.04
43764	-1.076	-0.07	-0.085	12.18	-91.77	-18.97
43780	-1.088	-0.081	-0.098	13.58	-90.58	-16.03
43805	-1.007	-0.084	-0.132	5.11	-90.02	-11.97
43825	-0.932	-0.142	-0.144	5.04	-85.4	-14.63
43841	-0.897	-0.182	-0.165	6.86	-81.34	-16.73
43862	-0.858	-0.169	-0.141	16.03	-73.64	-15.05
43884	-0.764	-0.163	-0.081	28.21	-65.1	-11.34
43908	-0.656	-0.128	-0.004	35.21	-60.9	-5.74
43928	-0.523	-0.102	0.054	39.27	-58.66	-5.53
43947	-0.403	-0.077	0.088	43.75	-52.36	-8.82
43964	-0.338	-0.056	0.12	48.58	-43.75	-13.02
43988	-0.336	-0.036	0.173	53.06	-24.08	-11.13
44008	-0.351	0.032	0.208	52.57	-7.0	-1.26
44027	-0.381	0.055	0.223	44.59	17.78	10.78
44048	-0.458	0.059	0.197	18.2	59.78	24.01
44068	-0.586	0.086	0.201	-4.62	89.11	37.31
44088	-0.748	0.154	0.194	-28.91	110.67	45.64
44106	-0.811	0.082	0.163	-44.8	119.56	47.04
44129	-0.965	0.044	0.123	-57.4	126.35	47.95
44146	-1.011	-0.118	0.092	-58.03	130.2	45.85
44170	-1.091	-0.027	0.083	-49.14	127.54	41.65
44189	-1.139	-0.039	0.079	-39.76	118.79	37.52
44213	-1.167	-0.068	0.067	-27.16	102.27	28.28
44233	-1.192	-0.082	0.082	-4.62	81.62	20.93
44250	-1.173	-0.086	0.079	10.29	65.1	11.69
44269	-1.153	-0.051	0.055	21.21	48.79	6.09
44294	-1.14	-0.015	0.057	18.41	36.89	-3.15
44310	-1.131	0.002	0.07	16.31	27.65	-5.6
44329	-1.064	0.067	0.118	2.38	26.11	-7.84
44349	-1.0	0.07	0.139	-10.01	28.7	-7.91
44372	-0.959	0.075	0.141	-22.54	35.91	-14.49
44392	-1.0	-0.01	0.12	-28.0	41.44	-15.75
44416	-1.048	-0.066	0.103	-21.49	41.44	-7.7
44436	-1.073	-0.069	0.117	-3.29	38.22	-8.33
44456	-1.056	-0.027	0.131	8.75	31.78	-4.41
44476	-1.086	0.02	0.082	13.16	18.06	-1.19
44491	-1.072	0.036	0.061	14.35	10.36	-1.54
44516	-1.089	0.015	0.04	13.02	-3.71	0.28
44536	-1.078	0.063	0.041	1.96	-9.1	0.0
44560	-1.073	0.012	0.046	-4.83	-17.85	0.84
44580	-0.998	-0.011	0.054	-0.14	-22.12	-0.7
44600	-0.957	-0.017	0.026	3.22	-22.12	-4.9
44620	-0.947	0.0	0.039	11.9	-22.54	-9.03
44640	-0.977	-0.004	0.027	14.63	-20.37	-13.44
44663	-1.011	-0.057	-0.002	14.42	-15.89	-16.17
44687	-1.065	-0.031	-0.021	12.46	-12.25	-15.54
44707	-1.047	0.003	-0.036	2.17	-15.33	-13.44
44725	-0.985	-0.004	0.002	-5.18	-24.71	-12.39
44742	-0.915	0.001	0.043	-11.34	-31.01	-13.23
44766	-0.856	0.01	0.063	-19.81	-31.15	-16.45
44787	-0.914	-0.025	0.013	-31.71	-26.46	-17.01
44807	-0.974	-0.081	-0.008	-37.03	-21.42	-12.46
44825	-1.004	-0.09	-0.014	-38.36	-15.61	-5.18
44849	-1.025	-0.104	-0.024	-42.77	-8.05	-0.56
44868	-1.048	-0.137	-0.044	-49.21	-1.75	-1.89
44887	-1.065	-0.184	-0.052	-50.26	2.17	-2.38
44912	-1.074	-0.209	-0.035	-42.63	4.06	-5.74
44930	-1.056	-0.203	-0.018	-31.01	1.54	-0.98
44949	-1.049	-0.201	-0.016	-0.98	-5.11	-3.15
44974	-1.027	-0.174	0.004	-7.7	-15.47	-8.05
44993	-1.02	-0.157	0.023	-6.79	-20.79	-11.13
45016	-1.024	-0.16	0.01	-2.59	-28.14	-11.9
45037	-0.966	-0.163	0.063	16.45	-24.92	-23.17
45057	-0.939	-0.147	0.02	0.14	-32.48	-10.22
45074	-0.922	-0.164	0.067	-1.89	-27.09	-11.41
45093	-0.977	-0.124	0.061	-4.27	-30.31	-8.12
45118	-0.627	-0.249	0.165	5.67	-21.98	-2.17
45137	-0.981	-0.103	0.083	-15.4	-26.25	-8.75
45157	-1.005	-0.152	0.095	-21.77	-25.69	-12.25
45181	-1.328	-0.06	0.102	-14.07	-30.45	-10.5
45200	-1.098	-0.201	0.142	-7.7	-36.26	-12.39
45221	-1.096	-0.159	0.169	-10.08	-42.84	-20.37
45236	-1.067	-0.172	0.162	-14.35	-43.47	-27.16
45257	-0.998	-0.18	0.138	-18.27	-40.11	-29.96
45276	-1.041	-0.29	0.219	-25.13	-40.53	-27.65
45301	-1.053	-0.28	0.246	-32.34	-45.22	-22.68
45321	-1.023	-0.338	0.281	-38.64	-48.16	-21.91
45340	-0.968	-0.331	0.298	-38.57	-45.22	-22.96
45357	-0.915	-0.343	0.297	-35.56	-36.61	-24.99
45381	-0.862	-0.351	0.265	-31.01	-20.93	-27.65
45401	-0.775	-0.378	0.178	-21.56	-8.68	-26.74
45417	-0.763	-0.412	0.101	-7.91	4.9	-24.43
45441	-0.848	-0.504	0.128	22.05	8.75	-6.58
45461	-0.897	-0.331	0.117	56.14	12.67	7.07
45485	-0.879	-0.294	0.114	75.81	15.33	12.32
45505	-0.819	-0.219	0.129	81.76	19.81	11.13
45524	-0.788	-0.176	0.087	90.86	23.17	7.63
45545	-0.811	-0.166	-0.015	99.33	31.57	3.92
45565	-0.919	-0.157	-0.045	107.03	35.7	3.71
45589	-1.008	-0.124	-0.067	104.51	38.5	6.72
45608	-1.024	-0.059	-0.083	98.77	38.64	6.37
45632	-1.054	-0.02	-0.084	88.62	34.23	1.12
45652	-1.055	-0.036	-0.092	81.83	27.51	-0.7
45671	-1.123	-0.081	-0.151	83.51	14.07	4.2
45695	-1.097	-0.048	-0.157	96.39	0.0	5.6
45715	-1.012	-0.001	-0.154	93.8	-14.07	2.38
45732	-0.931	0.03	-0.136	87.22	-18.62	-0.98
45755	-0.984	0.051	-0.142	79.59	-26.81	-3.5
45775	-0.99	0.044	-0.15	63.21	-30.1	4.83
45794	-0.93	0.016	-0.155	44.94	-35.91	9.94
45817	-0.922	0.041	-0.156	26.53	-38.92	9.31
45838	-0.874	-0.009	-0.149	14.07	-34.86	6.44
45856	-0.825	-0.025	-0.117	9.59	-31.15	5.25
45876	-0.821	-0.034	-0.1	-2.52	-23.38	3.01
45900	-0.874	-0.022	-0.102	-15.89	-13.65	-0.14
45919	-1.018	-0.045	-0.157	-28.28	-8.89	-2.03
45938	-1.015	-0.097	-0.2	-46.2	-8.33	0.84
45957	-1.05	-0.167	-0.227	-54.88	-8.05	5.6
45980	-1.017	-0.175	-0.19	-54.6	-5.25	7.14
45999	-0.961	-0.163	-0.149	-50.96	1.75	3.01
46018	-0.908	-0.152	-0.12	-50.33	14.7	-6.51
46043	-0.956	-0.162	-0.113	-50.54	31.71	-15.96
46062	-1.027	-0.212	-0.154	-44.87	50.4	-15.4
46081	-1.06	-0.257	-0.179	-37.1	66.78	-9.45
46106	-1.057	-0.28	-0.156	-25.55	86.87	1.82
46130	-1.079	-0.302	-0.155	-7.7	99.26	7.63
46148	-1.155	-0.321	-0.179	13.65	107.94	13.02
46170	-1.373	-0.294	-0.225	33.95	114.38	20.3
46193	-1.719	-0.276	-0.323	43.4	111.72	28.77
46217	-1.838	-0.268	-0.364	40.25	86.31	34.79
46241	-1.805	-0.345	-0.372	31.99	55.02	34.93
46259	-1.81	-0.357	-0.374	33.46	25.69	27.65
46278	-1.936	-0.187	-0.392	31.78	-9.73	7.0
46298	-1.867	-0.023	-0.397	11.9	-54.6	-21.14
46318	-1.672	0.014	-0.35	-17.57	-81.69	-59.99
46342	-1.507	-0.083	-0.33	-42.35	-96.81	-84.7
46363	-1.427	-0.185	-0.321	-44.31	-102.27	-86.8
46380	-1.397	-0.203	-0.308	-38.64	-103.74	-78.75
46399	-1.201	-0.169	-0.323	-32.06	-102.62	-60.69
46419	-1.027	-0.132	-0.267	-28.98	-91.21	-49.91
46439	-0.972	-0.133	-0.234	-21.84	-76.16	-42.28
46464	-1.079	-0.176	-0.27	-7.21	-66.43	-24.92
46482	-1.097	-0.219	-0.298	8.33	-64.4	-11.27
46505	-1.097	-0.205	-0.288	24.15	-69.37	4.48
46525	-1.088	-0.177	-0.28	35.14	-76.09	8.26
46544	-1.09	-0.11	-0.268	33.18	-81.41	8.47
46563	-1.06	-0.065	-0.234	20.72	-85.05	5.25
46588	-0.956	-0.089	-0.178	-0.63	-82.67	1.4
46610	-0.854	-0.15	-0.136	-8.4	-71.19	1.4
46634	-0.776	-0.185	-0.094	-5.32	-58.45	8.47
46654	-0.714	-0.197	-0.055	3.78	-36.47	17.71
46674	-0.66	-0.202	-0.016	9.59	-20.02	25.34
46691	-0.59	-0.174	0.016	11.41	-4.13	27.3
46712	-0.518	-0.144	0.057	11.83	12.74	24.01
46735	-0.517	-0.084	0.097	11.06	19.6	17.78
46755	-0.52	-0.084	0.123	12.46	19.53	20.65
46773	-0.462	-0.032	0.162	7.7	24.43	21.07
46794	-0.479	-0.016	0.165	-9.87	31.92	26.11
46814	-0.43	-0.014	0.195	-31.92	47.53	19.88
46838	-0.462	-0.007	0.215	-59.29	66.64	13.65
46858	-0.608	-0.057	0.167	-80.78	91.14	14.56
46878	-0.814	-0.102	0.057	-106.89	116.41	24.22
46898	-1.057	-0.243	0.009	-118.23	129.99	43.68
46917	-1.086	-0.317	0.033	-111.65	129.15	57.75
46941	-1.064	-0.359	0.045	-94.01	129.15	58.59
46960	-1.156	-0.421	0.114	-67.62	117.18	51.45
46984	-1.324	-0.573	0.236	-27.16	74.41	31.08
47004	-1.181	-0.488	0.165	29.26	45.08	30.52
47024	-1.052	-0.167	0.078	32.62	23.1	9.73
47043	-1.036	-0.105	0.106	14.49	5.67	-13.44
47065	-1.033	-0.055	0.115	-31.36	2.03	-31.99
47085	-1.05	-0.138	0.044	-72.94	-0.42	-38.01
47109	-1.051	-0.125	-0.019	-100.59	2.94	-44.66
47128	-1.071	-0.203	-0.033	-110.6	3.85	-43.75
47146	-1.043	-0.288	-0.046	-113.89	7.56	-38.22
47169	-1.047	-0.28	-0.046	-106.68	12.81	-35.28
47189	-1.073	-0.308	-0.035	-104.3	15.61	-28.77
47205	-1.048	-0.315	-0.018	-97.86	14.49	-22.05
47226	-0.97	-0.333	0.044	-82.18	15.47	-17.36
47250	-0.932	-0.354	0.078	-52.22	11.9	-12.32
47268	-0.9	-0.357	0.085	-29.26	11.97	-3.29
47289	-0.958	-0.363	0.054	-1.12	15.19	4.2
47309	-1.057	-0.369	-0.026	15.82	11.69	15.75
47328	-1.076	-0.329	-0.044	25.9	5.95	26.04
47352	-1.156	-0.234	-0.066	18.34	3.43	20.23
47371	-1.178	-0.323	-0.093	11.06	-1.96	12.39
47396	-1.057	-0.38	-0.05	41.51	-5.67	14.7
47416	-1.033	-0.371	-0.034	73.36	-7.91	20.51
47436	-0.987	-0.334	-0.041	119.63	-10.15	26.53
47456	-0.987	-0.258	-0.051	141.61	-11.48	33.95
47472	-1.032	-0.17	-0.061	150.71	-15.12	38.71
47492	-1.073	-0.036	-0.052	145.18	-20.37	39.69
47512	-1.073	0.057	-0.057	117.39	-29.19	31.43
47533	-1.077	0.102	-0.055	70.63	-42.49	15.82
47553	-1.052	0.055	-0.04	32.83	-54.39	3.92
47572	-0.988	0.071	-0.05	14.07	-66.36	-3.78
47597	-0.907	0.059	-0.111	-20.3	-70.7	-7.98
47616	-0.867	0.038	-0.13	-33.32	-62.79	-10.71
47636	-0.879	-0.061	-0.119	-31.43	-56.42	-8.68
47655	-0.931	-0.061	-0.137	-29.4	-46.13	-5.04
47675	-0.952	-0.101	-0.121	-15.75	-37.45	-2.59
47695	-0.95	-0.035	-0.103	-18.2	-25.41	-6.79
47720	-0.988	-0.075	-0.101	-21.77	-17.85	-15.61
47740	-1.071	-0.071	-0.035	-29.68	-16.38	-19.74
47760	-1.009	-0.069	0.032	-33.04	-16.31	-22.33
47778	-0.824	-0.107	0.157	-44.8	-32.9	-49.0
47802	-0.829	-0.208	0.033	-18.69	-13.93	-15.12
47821	-0.879	-0.146	0.106	-17.99	-17.29	-10.5
47842	-0.866	-0.064	0.152	-22.47	-16.31	-8.75
47858	-0.855	-0.103	0.109	-27.44	-12.88	-9.52
47877	-0.862	-0.187	0.075	-19.25	-12.32	-5.25
47898	-0.473	-0.258	0.083	-5.25	-7.77	-3.64
47919	-0.841	-0.125	0.138	-14.98	-0.49	3.43
47938	-0.855	-0.145	0.142	-18.48	6.02	2.87
47963	-0.888	-0.176	0.121	-22.82	13.72	4.69
47983	-0.933	-0.197	0.118	-22.47	18.9	7.56
48003	-0.983	-0.203	0.132	-19.32	20.37	12.25
48021	-1.002	-0.209	0.139	-14.07	20.44	14.98
48040	-1.058	-0.208	0.155	-15.4	21.35	14.42
48061	-1.112	-0.237	0.133	-16.87	21.21	14.0
48085	-1.155	-0.248	0.134	-15.61	15.61	9.73
48101	-1.031	-0.384	-0.041	11.48	13.16	0.21
48125	-1.157	-0.301	0.117	12.18	2.24	-0.77
48144	-1.146	-0.284	0.085	31.5	-1.75	-0.91
48168	-1.125	-0.244	0.053	56.07	-3.71	-2.8
48188	-1.086	-0.155	0.061	57.33	-3.57	-7.7
48207	-1.009	-0.099	0.079	51.17	-2.52	-11.69
48227	-0.994	-0.231	0.096	36.61	-21.35	-67.34
48248	-1.102	-0.123	0.035	40.04	-1.82	-9.24
48268	-1.091	-0.187	-0.024	66.71	-6.93	6.09
48291	-1.047	-0.19	-0.056	87.01	-10.78	9.73
48312	-1.042	-0.094	-0.03	95.13	-11.62	29.47
48332	-1.048	0.044	-0.08	78.68	-10.08	22.68
48355	-1.014	0.081	-0.07	51.94	-6.37	8.26
48376	-0.984	-0.07	-0.11	33.88	-13.23	5.32
48396	-0.915	-0.006	-0.134	14.77	-5.32	-0.63
48416	-0.98	-0.133	-0.158	12.25	-4.41	1.54
48436	-0.935	-0.035	-0.136	-2.31	3.92	-3.64
48452	-0.922	-0.175	-0.121	4.2	-4.41	2.66
48475	-0.828	-0.031	-0.25	-15.05	-3.99	-9.1
48496	-1.051	-0.133	-0.221	-17.99	-13.3	3.22
48516	-0.9	-0.124	-0.125	0.56	-31.85	-6.79
48537	-0.789	-0.113	-0.075	-2.94	-38.22	-11.41
48556	-0.809	-0.13	-0.089	-2.17	-47.81	-17.01
48576	-0.832	-0.144	-0.084	2.52	-53.06	-22.54
48591	-0.885	-0.142	-0.135	7.63	-56.49	-22.61
48615	-0.885	-0.165	-0.172	7.84	-54.95	-25.62
48636	-0.793	-0.173	-0.151	3.57	-60.76	-27.79
48654	-0.716	-0.125	-0.125	-3.43	-58.59	-32.34
48678	-0.632	-0.115	-0.218	-0.14	-39.97	-40.25
48698	-0.831	-0.187	-0.261	5.67	-35.0	-31.22
48717	-1.111	-0.215	-0.231	11.27	-32.69	-11.62
48736	-1.066	-0.127	-0.198	12.67	-31.64	0.07
48753	-0.999	-0.092	-0.179	7.28	-26.18	-2.03
48773	-0.949	-0.13	-0.215	6.23	-15.19	-6.09
48793	-1.056	-0.143	-0.255	8.4	-7.07	-4.2
48815	-1.174	-0.142	-0.179	10.99	-4.41	3.71
48839	-1.127	-0.082	-0.098	7.63	2.94	4.2
48859	-1.057	-0.073	-0.081	6.37	12.32	2.17
48879	-1.042	-0.095	-0.139	11.55	26.04	1.82
48897	-1.128	-0.103	-0.166	12.32	32.62	7.42
48921	-1.111	-0.105	-0.132	15.33	40.11	21.07
48938	-1.098	-0.106	-0.073	30.31	47.25	29.96
48958	-1.068	-0.067	-0.039	37.66	53.69	39.06
48981	-1.081	-0.029	-0.032	37.31	63.63	40.46
49002	-1.179	0.011	-0.043	23.17	75.53	35.56
49026	-1.235	0.019	-0.076	1.12	91.21	32.13
49044	-1.333	-0.044	-0.142	-10.5	98.14	30.8
49064	-1.403	-0.083	-0.158	-21.84	98.77	29.26
49081	-1.473	-0.109	-0.163	-30.94	96.46	28.07
49101	-1.547	-0.161	-0.193	-29.68	89.18	29.33
49126	-1.594	-0.208	-0.243	-22.4	76.23	27.16
49145	-1.682	-0.229	-0.131	-14.42	60.83	25.76
49165	-1.696	-0.22	-0.233	0.84	34.44	23.24
49188	-1.62	-0.163	-0.206	2.24	2.45	11.13
49209	-1.545	-0.136	-0.262	-4.76	-23.52	-4.2
49233	-1.484	-0.154	-0.258	-7.49	-44.59	-19.39
49256	-1.371	-0.152	-0.231	-2.38	-60.27	-25.13
49277	-1.318	-0.106	-0.209	3.22	-69.93	-27.09
49297	-1.219	-0.109	-0.217	5.95	-70.91	-25.41
49316	-1.18	-0.122	-0.237	7.07	-72.73	-22.05
49335	-1.198	-0.138	-0.24	9.38	-76.16	-18.9
49360	-1.206	-0.166	-0.244	15.82	-80.99	-16.94
49380	-1.192	-0.162	-0.229	21.91	-83.44	-17.01
49400	-1.182	-0.163	-0.22	27.09	-84.49	-18.27
49418	-1.179	-0.153	-0.222	31.99	-84.42	-19.25
49440	-1.161	-0.152	-0.221	35.35	-85.05	-21.0
49456	-1.112	-0.149	-0.203	37.73	-84.28	-22.33
49476	-1.066	-0.151	-0.193	40.46	-82.53	-22.4
49496	-1.015	-0.142	-0.17	43.33	-80.5	-20.93
49520	-0.974	-0.105	-0.136	44.87	-79.03	-16.94
49540	-0.91	-0.082	-0.111	40.88	-75.81	-14.14
49556	-0.81	-0.082	-0.097	36.61	-73.29	-12.39
49577	-0.689	-0.074	-0.036	30.17	-69.72	-11.13
49601	-0.557	-0.065	0.012	26.6	-66.57	-15.68
49619	-0.439	-0.054	0.07	26.6	-58.1	-22.4
49637	-0.371	-0.062	0.089	29.05	-43.12	-26.6
49661	-0.352	-0.012	0.112	29.54	-24.57	-24.15
49680	-0.342	0.037	0.171	23.59	-4.13	-18.62
49699	-0.35	0.049	0.234	12.18	22.12	-9.59
49721	-0.379	0.016	0.211	7.07	70.07	4.55
49740	-0.468	0.049	0.192	8.96	80.36	18.76
49765	-0.631	0.067	0.131	8.05	105.7	38.43
49784	-0.835	0.057	0.129	5.67	115.29	52.29
49803	-0.955	0.122	0.072	-10.08	125.16	59.85
49828	-1.039	0.152	0.035	-31.01	131.88	53.83
49848	-1.079	0.173	0.046	-53.06	135.1	40.95
49868	-1.112	0.097	0.039	-76.23	130.97	24.99
49888	-1.198	0.117	0.081	-92.61	126.21	16.31
49908	-1.236	0.048	0.088	-96.67	111.51	-10.78
49928	-1.181	-0.089	0.117	-93.59	98.91	-16.8
49946	-1.158	-0.214	0.118	-58.94	77.21	-18.83
49970	-1.123	-0.217	0.083	-22.19	57.96	-12.46
49990	-1.159	-0.139	0.118	-5.67	35.7	-6.44
50010	-1.1	-0.061	0.129	-10.43	22.12	-3.22
50028	-1.064	0.053	0.155	-37.87	21.42	-10.78
50050	-1.051	-0.017	0.14	-73.08	21.56	-24.78
50073	-1.079	-0.128	0.089	-85.89	20.58	-30.1
50094	-1.087	-0.329	0.042	-58.8	12.53	-18.69
50113	-1.112	-0.332	0.038	-25.06	8.12	-6.51
50137	-1.12	-0.306	0.074	20.02	-1.26	4.2
50156	-1.109	-0.215	0.035	46.83	-7.14	6.51
50176	-1.12	-0.16	0.002	67.06	-17.57	3.85
50200	-1.113	-0.123	-0.016	75.46	-27.09	0.49
50219	-1.093	-0.03	-0.007	73.92	-32.48	-4.48
50242	-1.077	-0.009	-0.015	62.44	-37.45	-6.72
50266	-1.036	-0.013	-0.057	44.73	-42.56	-9.31
50282	-0.999	-0.014	-0.079	30.73	-46.27	-13.3
50307	-0.957	-0.032	-0.068	15.54	-49.21	-17.43
50326	-0.943	-0.055	-0.072	6.58	-51.38	-15.33
50345	-0.909	-0.073	-0.065	3.36	-51.87	-12.67
50366	-0.849	-0.054	-0.049	-5.04	-42.21	-13.65
50390	-0.858	-0.047	-0.081	-21.07	-28.14	-14.98
50410	-0.907	-0.041	-0.064	-37.45	-21.07	-16.8
50429	-0.905	-0.013	-0.027	-46.41	-18.13	-17.29
50448	-0.869	-0.049	-0.007	-54.67	-14.14	-14.84
50468	-0.864	-0.097	-0.002	-57.19	-9.87	-11.41
50492	-0.842	-0.122	-0.006	-55.02	-0.35	-8.61
50516	-0.854	-0.168	-0.035	-44.17	10.36	1.68
50536	-0.934	-0.231	-0.038	-25.97	19.04	10.29
50560	-1.021	-0.232	-0.084	-7.28	27.58	30.66
50576	-1.027	-0.215	-0.043	-4.69	27.51	38.08
50596	-0.991	-0.162	-0.018	-8.75	27.79	39.9
50616	-0.975	-0.132	0.022	-18.97	25.83	27.51
50637	-1.004	-0.12	0.022	-32.55	24.5	10.64
50657	-1.04	-0.202	0.004	-37.38	20.02	-0.35
50679	-1.019	-0.291	-0.043	-31.08	11.48	-6.93
50703	-1.008	-0.311	-0.035	-15.96	2.1	-8.05
50723	-1.041	-0.243	-0.011	-10.08	-2.59	-13.58
50742	-1.084	-0.204	-0.028	-14.42	-7.84	-22.96
50761	-1.056	-0.197	-0.043	-22.05	-10.78	-30.87
50786	-1.045	-0.201	-0.042	-34.16	-15.82	-42.07
50805	-1.01	-0.202	-0.034	-40.25	-19.25	-45.71
50823	-0.97	-0.217	-0.039	-41.23	-17.29	-47.25
50842	-0.966	-0.215	-0.013	-41.44	-14.14	-45.15
50862	-0.956	-0.219	0.016	-40.04	-7.28	-38.5
50886	-0.961	-0.249	0.008	-35.7	2.1	-24.29
50906	-0.979	-0.279	0.006	-21.56	11.83	-10.78
50925	-1.019	-0.274	-0.008	-11.9	18.2	2.03
50945	-1.079	-0.242	-0.02	-3.99	24.57	11.06
50966	-1.118	-0.208	-0.015	-2.17	26.67	16.03
50985	-1.111	-0.205	-0.009	0.14	26.81	18.76
51010	-1.071	-0.186	-0.047	1.89	23.03	23.66
51029	-1.023	-0.176	-0.033	-4.27	20.79	25.83
51050	-1.016	-0.179	-0.035	-9.87	20.37	28.28
51069	-1.047	-0.171	-0.049	-18.34	19.67	28.42
51088	-1.057	-0.16	-0.072	-32.97	16.1	26.25
51112	-1.001	-0.213	-0.087	-38.99	11.06	22.4
51132	-0.899	-0.226	-0.126	-31.92	5.32	22.19
51151	-0.797	-0.125	-0.111	-34.58	8.33	15.19
51171	-0.741	-0.106	-0.103	-33.53	15.12	7.0
51193	-0.754	-0.244	-0.172	-31.29	22.47	9.1
51213	-0.738	-0.148	-0.203	-6.44	25.41	15.89
51237	-0.697	-0.113	-0.24	39.13	27.02	31.64
51254	-0.859	-0.055	-0.252	55.51	20.09	37.73
51274	-0.867	0.053	-0.287	63.28	10.64	40.53
51294	-0.791	0.168	-0.276	60.27	2.59	34.09
51316	-0.818	0.186	-0.309	35.35	-3.99	20.09
51335	-0.913	0.081	-0.359	16.87	-11.97	8.33
51359	-0.943	0.068	-0.406	11.97	-13.3	6.51
51380	-0.947	0.007	-0.429	14.77	-14.84	11.97
51399	-0.945	-0.054	-0.426	33.25	-14.98	17.08
51423	-0.996	-0.016	-0.421	50.61	-16.73	16.94
51443	-1.071	-0.043	-0.429	65.03	-25.34	10.92
51463	-1.085	-0.021	-0.489	82.46	-36.96	10.71
51481	-1.007	0.081	-0.444	86.52	-38.22	6.37
51505	-1.091	0.101	-0.468	75.46	-41.02	1.89
51524	-1.063	0.103	-0.458	63.14	-42.98	1.61
51545	-0.989	0.084	-0.456	55.65	-43.33	2.52
51565	-0.984	0.084	-0.392	54.25	-36.75	1.47
51590	-1.037	0.09	-0.388	47.74	-28.21	0.84
51609	-1.064	0.063	-0.386	44.59	-23.59	0.84
51629	-1.046	0.042	-0.378	38.92	-19.39	0.14
51649	-1.078	0.0	-0.358	37.03	-13.65	-0.07
51669	-1.15	-0.02	-0.35	37.38	-6.09	-0.91
51689	-1.26	-0.058	-0.371	40.46	0.28	2.73
51713	-1.271	-0.064	-0.364	48.23	4.27	3.92
51733	-1.247	0.003	-0.337	44.38	6.65	-3.36
51752	-1.364	0.068	-0.314	30.31	10.71	-13.93
51772	-1.285	0.019	-0.317	15.05	8.05	-17.57
51796	-1.302	-0.019	-0.335	13.79	2.1	-13.02
51816	-1.251	-0.045	-0.342	14.91	-1.4	-6.09
51837	-1.179	-0.042	-0.324	17.36	-3.36	-0.28
51856	-1.164	-0.006	-0.322	17.71	-2.8	0.42
51874	-1.181	-0.017	-0.324	13.58	-2.1	1.33
51893	-1.173	-0.01	-0.33	11.97	-5.53	3.5
51918	-1.126	-0.005	-0.327	3.64	-9.24	0.35
51933	-1.112	-0.006	-0.332	-3.71	-11.97	-1.96
51958	-1.119	-0.009	-0.322	-13.37	-17.29	-5.18
51982	-1.088	-0.021	-0.332	-20.16	-20.72	-4.55
52002	-1.053	-0.032	-0.316	-22.54	-22.75	-4.48
52022	-1.071	-0.03	-0.305	-24.01	-24.29	-6.58
52044	-1.096	-0.049	-0.299	-20.44	-28.56	-7.7
52066	-1.106	-0.052	-0.284	-15.26	-35.77	-5.95
52082	-1.108	-0.036	-0.273	-13.51	-40.67	-5.18
52102	-1.108	-0.065	-0.267	-11.62	-48.65	-4.34
52122	-1.13	-0.058	-0.244	-7.49	-56.98	-4.13
52146	-1.145	-0.076	-0.234	-1.54	-65.66	-2.73
52166	-1.097	-0.088	-0.221	9.59	-77.35	0.56
52185	-1.066	-0.107	-0.229	24.29	-83.3	4.62
52202	-1.036	-0.067	-0.208	29.61	-83.93	7.7
52225	-0.99	-0.009	-0.196	24.5	-78.4	7.63
52246	-0.936	0.033	-0.143	12.39	-67.48	1.47
52266	-0.848	0.03	-0.102	0.56	-53.55	-7.07
52286	-0.789	-0.003	-0.074	-9.73	-36.12	-18.27
52306	-0.76	-0.041	-0.055	-12.95	-20.09	-28.07
52325	-0.759	-0.067	-0.038	-15.05	-2.8	-35.07
52349	-0.732	-0.095	-0.009	-12.18	22.89	-38.5
52369	-0.745	-0.116	0.039	-11.27	37.38	-35.14
52389	-0.764	-0.112	0.083	-5.11	43.75	-32.83
52405	-0.774	0.014	0.15	-13.37	39.13	-31.43
52424	-0.757	-0.008	0.19	-21.84	28.63	-25.34
52449	-0.727	-0.104	0.191	-14.21	16.87	-8.68
52466	-0.747	-0.107	0.179	-20.72	13.58	7.35
52486	-0.821	-0.055	0.162	-42.7	20.44	18.27
52510	-0.901	-0.036	0.123	-72.52	38.99	16.31
52530	-1.026	-0.089	0.061	-103.46	52.22	9.38
52550	-1.124	-0.163	0.02	-124.25	63.49	1.19
52569	-1.094	-0.244	0.018	-134.61	67.41	-6.09
52590	-1.037	-0.342	0.032	-107.66	64.61	-6.02
52610	-1.037	-0.453	0.037	-67.34	59.08	1.75
52629	-1.051	-0.481	0.047	-19.04	50.54	10.64
52649	-1.053	-0.413	0.052	22.47	38.78	24.57
52669	-1.022	-0.348	0.082	54.88	30.52	30.94
52690	-0.972	-0.182	0.102	57.75	24.08	27.93
52710	-0.947	-0.136	0.092	47.53	15.68	17.99
52729	-0.973	-0.111	0.07	26.81	9.03	7.91
52748	-0.993	-0.102	0.052	-0.07	2.59	-2.31
52769	-0.999	-0.139	0.033	-28.49	0.84	-9.45
52793	-1.008	-0.213	0.011	-45.92	1.4	-13.79
52813	-1.026	-0.262	-0.001	-48.79	3.01	-16.03
52833	-1.051	-0.251	-0.001	-46.2	7.7	-23.52
52857	-1.036	-0.241	0.006	-45.92	13.16	-36.05
52875	-1.133	-0.334	-0.036	-42.7	8.19	-34.3
52894	-1.032	-0.296	0.012	-35.49	6.72	-33.6
52914	-1.013	-0.249	0.041	-26.74	8.12	-30.24
52934	-1.012	-0.328	0.039	-6.09	9.17	-19.88
52953	-1.019	-0.333	0.02	17.5	7.77	-6.44
52978	-1.026	-0.303	0.009	38.01	4.97	6.79
52996	-1.048	-0.229	0.003	42.91	1.19	11.76
53016	-1.047	-0.21	0.01	41.37	-3.78	15.12
53040	-1.029	-0.214	0.02	41.23	-9.17	18.97
53060	-1.086	-0.273	-0.036	55.44	-23.1	26.39
53080	-1.085	-0.242	-0.072	71.68	-34.37	33.53
53095	-1.072	-0.205	-0.087	79.17	-39.97	36.33
53120	-1.046	-0.175	-0.079	83.65	-47.53	34.09
53135	-1.03	-0.122	-0.065	88.41	-52.29	30.1
53160	-1.04	-0.055	-0.084	89.25	-58.8	24.64
53178	-1.038	-0.056	-0.122	87.57	-60.41	22.26
53197	-1.065	0.012	-0.09	73.78	-61.18	21.0
53217	-1.116	0.08	-0.073	53.76	-62.65	15.89
53237	-1.035	0.119	-0.037	28.14	-64.19	6.79
53262	-0.979	0.075	-0.053	9.38	-58.94	-2.87
53286	-0.941	0.079	-0.02	-7.98	-55.23	-11.55
53306	-0.886	0.095	-0.006	-22.68	-42.07	-13.23
53321	-0.9	0.107	0.038	-30.87	-39.83	-12.46
53346	-0.867	0.054	0.057	-36.68	-28.98	-14.21
53366	-0.917	0.006	0.087	-47.04	-17.92	1.68
53383	-0.851	0.027	0.152	-53.27	-15.96	4.34
53402	-0.86	0.05	0.17	-62.51	-11.62	5.81
53427	-0.851	-0.009	0.122	-64.33	-4.34	3.85
53447	-0.889	-0.061	0.117	-60.76	-2.17	4.48
53467	-0.882	-0.092	0.126	-50.05	-0.63	6.51
53487	-0.869	-0.08	0.116	-46.55	3.36	7.21
53511	-0.875	-0.084	0.115	-43.89	9.73	3.5
53531	-0.869	-0.078	0.122	-43.75	15.68	2.31
53551	-0.855	-0.132	0.121	-42.0	19.11	3.08
53571	-0.874	-0.159	0.127	-38.15	18.9	5.74
53590	-0.919	-0.088	0.179	-45.71	21.49	2.59
53614	-0.939	-0.108	0.202	-53.34	22.75	-5.18
53634	-0.94	-0.143	0.206	-55.58	23.66	-8.82
53652	-0.954	-0.204	0.216	-54.88	24.22	-7.7
53674	-1.016	-0.229	0.227	-46.13	25.48	-2.45
53693	-1.084	-0.247	0.235	-34.72	25.76	3.92
53712	-1.086	-0.237	0.219	-25.13	24.85	6.79
53732	-1.077	-0.235	0.225	-15.75	22.61	5.6
53757	-1.112	-0.263	0.203	-1.96	18.9	-7.7
53781	-1.152	-0.296	0.128	23.66	16.03	5.11
53801	-1.18	-0.239	0.128	41.3	11.9	4.41
53819	-1.178	-0.2	0.097	50.47	7.91	1.19
53843	-1.198	-0.183	0.075	64.19	-0.35	-3.08
53862	-1.176	-0.114	0.067	68.18	-7.21	-5.6
53886	-1.126	-0.092	0.053	74.55	-14.7	-7.98
53906	-1.112	-0.074	0.027	84.91	-21.21	-5.46
53925	-1.019	-0.004	0.047	84.42	-22.89	-2.8
53945	-0.937	0.017	0.008	70.0	-22.68	-4.06
53964	-0.943	0.01	0.003	50.26	-27.51	-6.3
53989	-0.936	0.036	0.015	25.27	-31.15	-14.21
54009	-0.902	-0.021	0.002	3.92	-25.34	-16.8
54027	-0.931	-0.071	-0.009	-5.46	-22.54	-19.74
54049	-0.909	-0.068	-0.012	-9.03	-21.56	-16.45
54069	-0.959	-0.091	-0.107	-13.3	-29.12	-7.14
54093	-0.933	-0.148	-0.146	1.61	-49.7	-14.49
54113	-0.802	-0.104	-0.117	-6.58	-56.28	-15.26
54133	-0.907	-0.083	-0.088	-10.99	-61.18	-17.92
54153	-0.961	-0.03	-0.11	-20.37	-61.81	-17.08
54173	-0.965	-0.077	-0.147	-29.54	-64.96	-15.05
54196	-0.883	-0.095	-0.134	-38.64	-67.27	-12.81
54217	-0.815	-0.102	-0.112	-45.15	-63.98	-15.61
54237	-0.807	-0.126	-0.122	-44.66	-55.3	-16.17
54258	-0.856	-0.178	-0.169	-38.85	-43.4	-11.55
54282	-0.938	-0.221	-0.202	-32.62	-37.03	-0.28
54302	-0.953	-0.184	-0.132	-32.41	-30.73	5.46
54320	-0.89	-0.157	-0.124	-33.32	-22.54	5.67
54341	-0.854	-0.118	-0.111	-35.7	-9.17	1.61
54365	-0.836	-0.159	-0.151	-34.72	4.27	1.82
54385	-0.862	-0.206	-0.065	-23.94	19.25	6.79
54404	-0.887	-0.17	-0.031	-23.45	27.16	17.57
54425	-0.895	-0.156	-0.043	-19.39	45.43	21.91
54449	-0.994	-0.142	-0.109	-12.67	62.72	24.64
54469	-1.053	-0.16	-0.153	-9.87	69.51	35.63
54489	-1.116	-0.153	-0.041	-1.54	77.42	43.05
54509	-1.11	-0.108	0.018	2.31	87.43	45.5
54529	-1.152	-0.079	-0.01	2.31	97.86	42.56
54549	-1.181	-0.136	-0.111	4.97	100.66	39.62
54569	-1.23	-0.215	-0.1	12.95	95.2	42.49
54589	-1.362	-0.17	-0.087	21.56	86.8	42.56
54608	-1.43	-0.166	-0.091	27.79	76.58	35.42
54632	-1.44	-0.157	-0.132	33.18	64.26	25.13
54651	-1.474	-0.159	-0.151	31.08	47.74	19.88
54671	-1.51	-0.146	-0.124	30.1	28.77	17.01
54694	-1.569	-0.101	-0.159	16.8	5.32	6.58
54718	-1.553	-0.068	-0.168	-1.96	-12.6	-14.14
54738	-1.469	-0.078	-0.244	-16.73	-23.38	-28.84
54754	-1.434	-0.136	-0.206	-16.87	-32.2	-30.17
54778	-1.375	-0.129	-0.16	-3.64	-43.61	-25.34
54795	-1.278	-0.091	-0.152	3.64	-43.4	-20.93
54815	-1.217	-0.064	-0.154	6.44	-38.29	-16.45
54835	-1.17	-0.059	-0.159	6.16	-29.89	-14.49
54856	-1.146	-0.064	-0.133	4.48	-17.43	-14.63
54878	-1.132	-0.115	-0.202	9.17	-3.71	-10.08
54900	-1.194	-0.141	-0.126	17.29	-1.47	0.7
54923	-1.234	-0.095	-0.117	20.93	-1.89	4.83
54941	-1.258	-0.09	-0.126	14.56	-3.71	3.08
54965	-1.275	-0.119	-0.091	7.49	-9.03	-0.98
54984	-1.299	-0.127	-0.084	3.57	-15.12	-3.92
55008	-1.312	-0.097	-0.096	2.94	-22.26	-7.28
55028	-1.268	-0.107	-0.164	1.61	-24.64	-14.28
55052	-1.203	-0.163	-0.192	6.72	-38.22	-17.15
55070	-1.215	-0.24	-0.222	13.79	-48.16	-14.49
55092	-1.212	-0.241	-0.249	30.45	-56.14	-6.93
55111	-1.198	-0.164	-0.238	38.22	-67.9	-3.78
55132	-1.048	-0.14	-0.24	34.72	-73.71	-8.33
55156	-1.135	-0.132	-0.232	30.1	-82.53	-13.72
55174	-1.249	-0.143	-0.241	25.55	-96.53	-12.46
55195	-1.107	-0.092	-0.207	16.87	-107.73	-11.48
55215	-1.003	-0.056	-0.182	10.99	-108.15	-17.85
55239	-0.973	-0.077	-0.181	2.1	-102.13	-24.43
55257	-0.92	-0.124	-0.151	-1.47	-95.13	-24.5
55281	-0.827	-0.122	-0.112	-1.05	-87.15	-21.56
55299	-0.679	-0.134	-0.101	8.4	-73.78	-18.41
55320	-0.581	-0.083	0.021	23.45	-67.62	-15.19
55336	-0.531	-0.068	0.066	33.46	-65.73	-10.99
55361	-0.464	-0.079	0.163	46.62	-64.12	-5.81
55381	-0.392	-0.02	0.185	51.87	-57.12	-3.43
