Millis,AccelX,AccelY,AccelZ,GyroX,GyroY,GyroZ
10801193,-1.006,-0.089,0.021,0.840,-3.010,-3.220
10801213,-1.005,-0.088,0.020,1.190,-2.940,-3.150
10801232,-1.005,-0.080,0.023,-0.630,-3.290,-3.080
10801257,-1.004,-0.099,0.027,0.280,-3.220,-3.080
10801277,-1.001,-0.094,0.024,1.050,-3.290,-2.940
10801295,-1.001,-0.087,0.028,0.980,-3.290,-2.870
10801318,-1.010,-0.088,0.025,-0.840,-3.290,-3.010
10801342,-1.005,-0.102,0.028,0.350,-3.290,-2.520
10801362,-1.000,-0.097,0.025,0.700,-2.800,-2.170
10801380,-1.006,-0.081,0.027,0.350,-2.870,-2.450
10801400,-0.999,-0.085,0.022,-0.490,-2.730,-2.520
10801420,-1.004,-0.102,0.020,0.770,-3.080,-2.310
10801442,-1.002,-0.096,0.026,0.210,-3.290,-2.240
10801462,-1.001,-0.096,0.032,0.490,-3.220,-2.030
10801486,-0.997,-0.087,0.032,-0.140,-2.660,-2.100
10801506,-1.001,-0.100,0.026,0.560,-2.590,-1.820
10801524,-0.999,-0.093,0.020,0.700,-2.730,-1.680
10801542,-1.001,-0.092,0.023,0.910,-3.570,-2.030
10801561,-1.003,-0.084,0.026,-0.280,-3.850,-2.170
10801586,-0.997,-0.104,0.028,1.120,-3.780,-1.960
10801606,-1.004,-0.092,0.027,0.560,-3.780,-1.750
10801624,-1.003,-0.096,0.031,0.490,-3.710,-1.680
10801644,-1.001,-0.088,0.028,0.070,-3.570,-1.610
10801664,-1.003,-0.100,0.033,0.350,-3.640,-1.610
10801683,-1.000,-0.092,0.031,1.120,-3.360,-1.330
10801708,-1.003,-0.084,0.027,0.350,-3.500,-1.890
10801728,-0.999,-0.102,0.030,1.400,-3.570,-1.960
10801747,-1.001,-0.089,0.032,1.050,-3.430,-1.750
10801766,-1.004,-0.081,0.027,0.000,-3.990,-1.960
10801786,-1.001,-0.100,0.028,-0.070,-3.920,-2.030
10801810,-1.000,-0.096,0.030,1.330,-4.130,-1.890
10801829,-1.006,-0.093,0.032,0.280,-4.130,-1.750
10801853,-1.000,-0.094,0.029,0.910,-3.990,-1.820
10801874,-1.002,-0.095,0.034,-0.140,-4.060,-1.890
10801894,-0.996,-0.103,0.038,0.770,-3.430,-1.610
10801917,-1.005,-0.094,0.037,0.420,-3.430,-1.750
10801941,-1.002,-0.092,0.033,0.980,-3.430,-1.680
10801961,-1.004,-0.088,0.031,0.420,-3.780,-1.890
10801981,-0.998,-0.098,0.035,0.700,-3.570,-1.890
10802001,-0.999,-0.094,0.031,1.540,-3.570,-1.470
10802021,-0.998,-0.097,0.039,0.980,-3.570,-1.400
10802045,-1.006,-0.089,0.032,-0.070,-3.640,-1.540
10802065,-1.005,-0.093,0.035,-0.350,-3.920,-1.470
10802083,-0.999,-0.094,0.039,-0.070,-3.710,-1.260
10802107,-1.003,-0.098,0.038,-0.700,-3.710,-1.120
10802127,-1.000,-0.096,0.039,-0.560,-3.500,-1.330
10802146,-1.000,-0.099,0.041,0.070,-3.080,-1.260
10802167,-0.999,-0.097,0.037,0.490,-2.590,-1.050
10802185,-1.001,-0.091,0.042,0.910,-2.520,-0.980
10802204,-0.998,-0.088,0.030,0.280,-2.030,-1.330
10802229,-1.004,-0.090,0.031,0.420,-3.220,-1.260
10802249,-1.002,-0.089,0.043,0.350,-3.500,-1.260
10802269,-0.999,-0.103,0.040,0.560,-2.800,-0.770
10802289,-1.004,-0.090,0.041,0.840,-2.800,-0.910
10802308,-1.002,-0.084,0.039,0.280,-3.010,-1.050
10802328,-1.007,-0.092,0.040,-0.140,-3.500,-1.400
10802347,-1.000,-0.104,0.040,1.330,-2.940,-0.910
10802372,-0.999,-0.083,0.043,0.420,-2.730,-0.770
10802392,-1.001,-0.091,0.046,0.490,-2.450,-0.980
10802410,-0.999,-0.091,0.036,0.980,-2.100,-1.120
10802432,-1.001,-0.095,0.041,1.680,-2.380,-0.980
10802452,-0.999,-0.091,0.042,1.120,-2.100,-0.770
10802473,-1.005,-0.078,0.035,-0.140,-1.960,-1.260
10802496,-0.999,-0.098,0.040,1.120,-1.960,-1.190
10802520,-0.998,-0.087,0.042,1.120,-1.680,-0.980
10802539,-0.999,-0.097,0.040,0.420,-1.260,-0.770
10802560,-0.994,-0.089,0.042,1.330,-0.630,-0.560
10802580,-1.008,-0.084,0.033,0.560,-0.910,-1.190
10802600,-1.000,-0.095,0.033,1.610,-1.050,-0.910
10802618,-1.000,-0.093,0.032,1.330,-0.980,-0.770
10802637,-1.000,-0.086,0.035,1.050,-1.400,-0.630
10802657,-0.995,-0.083,0.031,0.490,-0.840,-0.910
10802681,-1.003,-0.100,0.035,1.610,-0.980,-0.980
10802705,-1.005,-0.084,0.030,1.820,-1.400,-0.840
10802725,-1.009,-0.086,0.034,0.700,-1.820,-0.910
10802743,-1.004,-0.080,0.030,0.490,-2.170,-0.980
10802765,-1.008,-0.089,0.019,0.560,-2.590,-1.120
10802785,-1.001,-0.092,0.030,1.400,-3.220,-0.980
10802805,-1.000,-0.084,0.037,0.840,-2.800,-0.770
10802825,-1.003,-0.082,0.030,0.490,-2.380,-0.910
10802843,-1.004,-0.090,0.027,1.260,-2.590,-0.980
10802864,-1.003,-0.077,0.026,1.050,-2.800,-1.050
10802884,-1.012,-0.090,0.027,-0.280,-3.920,-1.330
10802904,-1.005,-0.090,0.022,1.050,-3.990,-1.050
10802923,-1.012,-0.086,0.027,1.120,-5.460,-0.910
10802946,-1.003,-0.078,0.029,0.000,-6.160,-0.910
10802968,-1.003,-0.084,0.031,-0.490,-6.440,-0.700
10802988,-1.005,-0.080,0.041,-1.050,-6.580,-0.980
10803007,-0.999,-0.071,0.042,-0.560,-5.950,-1.400
10803032,-1.006,-0.091,0.027,1.120,-6.510,-1.960
10803052,-1.000,-0.082,0.040,1.470,-7.350,-1.680
10803071,-0.993,-0.082,0.051,-0.280,-6.720,-1.680
10803092,-1.000,-0.088,0.050,1.260,-5.530,-2.170
10803112,-1.003,-0.086,0.049,2.380,-4.480,-2.310
10803132,-0.993,-0.086,0.054,2.240,-3.430,-2.100
10803150,-1.006,-0.075,0.046,1.470,-3.570,-1.820
10803173,-1.003,-0.075,0.044,0.210,-4.060,-2.310
10803194,-1.001,-0.095,0.043,1.470,-3.640,-2.520
10803214,-1.004,-0.090,0.046,2.940,-3.570,-2.450
10803234,-0.998,-0.083,0.054,2.030,-3.150,-2.240
10803249,-0.997,-0.085,0.050,1.260,-2.520,-2.030
10803270,-1.003,-0.073,0.046,0.350,-2.450,-2.240
10803293,-1.001,-0.084,0.055,0.140,-2.520,-2.590
10803314,-1.000,-0.103,0.031,1.820,-2.380,-2.030
10803334,-1.001,-0.085,0.045,2.100,-2.660,-1.470
10803354,-0.998,-0.085,0.056,0.070,-2.800,-0.980
10803375,-0.997,-0.086,0.056,-0.700,-1.470,-0.700
10803396,-0.996,-0.093,0.042,0.140,-0.700,-0.490
10803416,-1.019,-0.072,0.032,0.980,-1.680,-0.910
10803436,-1.010,-0.090,0.032,0.490,-2.940,-0.770
10803459,-1.002,-0.082,0.045,-0.420,-3.990,-0.490
10803483,-0.995,-0.091,0.049,-0.560,-3.360,-0.140
10803503,-1.002,-0.082,0.054,0.280,-2.380,-0.420
10803522,-1.005,-0.096,0.046,2.660,-1.820,-0.210
10803541,-1.004,-0.071,0.045,2.240,-1.960,0.070
10803561,-1.001,-0.079,0.051,-1.610,-1.050,0.070
10803585,-0.989,-0.090,0.053,-0.210,0.560,0.280
10803605,-1.002,-0.092,0.044,1.750,1.120,-0.070
10803625,-1.005,-0.072,0.028,0.840,0.770,-0.140
10803645,-1.007,-0.072,0.038,-0.210,-0.350,-0.070
10803664,-0.998,-0.081,0.047,-1.470,0.070,-0.210
10803688,-0.995,-0.085,0.044,-0.280,0.910,-0.210
10803708,-0.997,-0.071,0.030,0.490,1.960,-0.280
10803727,-1.016,-0.054,0.032,-0.280,1.120,-1.190
10803746,-1.010,-0.082,0.020,-0.840,0.280,-1.750
10803766,-1.000,-0.090,0.029,1.540,0.140,-1.190
10803789,-1.006,-0.076,0.041,0.910,-0.140,-1.260
10803810,-1.009,-0.079,0.030,-0.210,0.070,-1.540
10803834,-1.008,-0.082,0.029,1.750,0.420,-1.470
10803854,-1.009,-0.069,0.019,1.050,-0.840,-1.820
10803870,-1.011,-0.062,0.009,-0.210,-1.890,-1.960
10803889,-1.008,-0.081,0.016,0.140,-3.780,-2.240
10803914,-1.001,-0.085,0.029,0.770,-3.920,-2.030
10803929,-1.009,-0.081,0.024,0.980,-3.990,-2.240
10803954,-1.002,-0.066,0.029,0.070,-4.550,-2.660
10803974,-1.006,-0.080,0.027,0.560,-4.620,-2.940
10803994,-1.003,-0.076,0.031,0.350,-4.900,-2.870
10804014,-0.996,-0.080,0.036,0.700,-4.410,-3.080
10804038,-1.000,-0.075,0.028,1.120,-3.360,-3.570
10804062,-1.002,-0.086,0.036,2.240,-3.220,-3.570
10804082,-0.995,-0.090,0.047,2.310,-2.240,-3.360
10804102,-1.001,-0.080,0.046,2.520,-0.700,-3.080
10804123,-1.000,-0.091,0.043,3.080,0.490,-2.730
10804146,-0.991,-0.087,0.024,2.730,1.120,-2.940
10804170,-1.009,-0.083,0.018,3.850,0.280,-2.870
10804190,-1.009,-0.076,0.041,2.100,0.000,-2.520
10804210,-0.979,-0.090,0.034,2.100,2.450,-1.960
10804228,-1.005,-0.080,0.018,1.400,2.520,-2.170
10804247,-1.016,-0.084,0.010,1.890,0.490,-2.380
10804272,-1.021,-0.080,-0.002,2.170,-0.910,-2.100
10804289,-1.000,-0.077,0.032,-0.210,-2.170,-1.890
10804309,-0.976,-0.104,0.031,-0.910,-0.490,-1.470
10804334,-1.004,-0.081,0.004,0.910,-0.350,-2.030
10804352,-1.030,-0.059,0.011,-1.680,-3.080,-2.380
10804372,-1.011,-0.097,0.013,-3.430,-4.130,-1.820
10804396,-0.983,-0.098,0.037,-4.060,-3.220,-0.490
10804411,-0.990,-0.073,0.023,-5.810,-0.560,-0.630
10804436,-1.029,-0.085,0.011,-2.520,-1.820,-1.120
10804456,-0.981,-0.111,0.026,0.210,-1.050,-0.910
10804475,-0.999,-0.099,0.007,1.540,-0.490,-0.140
10804494,-1.010,-0.061,0.007,-0.490,-1.820,-0.210
10804514,-1.005,-0.086,0.011,-2.030,-3.220,-1.050
10804538,-1.010,-0.091,0.018,0.210,-3.430,-0.840
10804558,-0.994,-0.084,0.020,1.330,-3.290,-0.700
10804574,-0.997,-0.078,0.017,-0.280,-3.430,-0.840
10804596,-1.011,-0.077,0.011,-1.400,-4.550,-1.050
10804620,-1.006,-0.077,0.012,-1.260,-5.670,-1.050
10804640,-1.016,-0.074,0.024,-2.940,-6.510,-1.400
10804655,-1.017,-0.063,0.012,-5.670,-7.630,-1.890
10804680,-0.995,-0.142,0.010,-2.590,-9.170,-1.540
10804699,-1.028,-0.050,0.013,4.340,-11.340,-2.240
10804718,-1.008,-0.082,0.017,-1.120,-12.180,-2.870
10804739,-1.017,-0.071,0.029,-1.330,-13.930,-3.080
10804759,-0.988,-0.103,0.062,0.490,-11.970,-2.730
10804783,-0.984,-0.116,0.047,7.630,-8.820,-2.310
10804802,-0.992,-0.052,0.055,7.000,-7.980,-2.240
10804821,-1.003,-0.073,0.061,0.350,-7.840,-2.310
10804841,-0.992,-0.108,0.049,0.700,-6.090,-1.330
10804861,-0.996,-0.081,0.056,1.400,-5.460,-0.700
10804880,-0.996,-0.087,0.064,-0.280,-4.690,-0.840
10804905,-1.002,-0.086,0.042,1.680,-3.220,-0.770
10804925,-1.006,-0.074,0.049,2.590,-3.640,-1.190
10804949,-0.998,-0.072,0.043,2.380,-2.940,-2.100
10804968,-1.010,-0.090,0.039,4.760,-4.340,-2.170
10804988,-1.005,-0.068,0.041,2.940,-4.760,-2.240
10805007,-0.999,-0.082,0.058,1.470,-5.180,-1.750
10805027,-1.011,-0.090,0.041,0.560,-4.900,-1.260
10805045,-1.001,-0.076,0.062,0.560,-4.550,-1.330
10805069,-1.009,-0.079,0.048,-0.840,-4.620,-1.330
10805089,-1.003,-0.070,0.051,-3.150,-4.410,-1.540
10805109,-1.000,-0.096,0.064,-1.540,-3.920,-1.400
10805129,-1.000,-0.086,0.060,0.490,-2.660,-1.330
10805147,-1.002,-0.087,0.056,1.260,-2.450,-1.050
10805167,-0.999,-0.073,0.056,0.210,-2.100,-1.330
10805187,-0.999,-0.071,0.053,0.490,-1.960,-1.470
10805207,-1.009,-0.086,0.048,-0.350,-2.520,-1.890
10805231,-0.996,-0.090,0.052,1.260,-2.660,-1.540
10805251,-0.999,-0.077,0.057,-0.350,-2.380,-1.260
10805270,-0.996,-0.078,0.057,-2.100,-1.680,-1.190
10805291,-1.001,-0.083,0.054,-0.910,-1.470,-1.470
10805314,-0.997,-0.081,0.053,0.000,-0.840,-1.750
10805335,-1.004,-0.085,0.049,1.120,-1.050,-1.680
10805354,-1.007,-0.078,0.049,0.210,-1.190,-1.750
10805374,-0.999,-0.086,0.059,-0.070,-0.910,-1.820
10805397,-1.003,-0.084,0.055,0.350,-0.280,-1.820
10805417,-1.008,-0.081,0.050,0.070,0.070,-2.100
10805436,-1.002,-0.081,0.044,1.330,-0.070,-2.170
10805461,-1.017,-0.076,0.035,-0.140,-1.820,-2.170
10805477,-1.001,-0.090,0.036,-0.700,-2.240,-1.750
10805497,-1.000,-0.086,0.047,0.070,-2.310,-1.400
10805521,-1.009,-0.075,0.041,-0.280,-2.870,-1.750
10805538,-1.008,-0.073,0.044,-0.630,-3.080,-2.100
10805557,-1.002,-0.093,0.036,0.770,-3.500,-2.240
10805582,-1.004,-0.081,0.041,0.560,-4.550,-1.890
10805602,-1.005,-0.075,0.048,-0.490,-4.900,-1.750
10805621,-0.999,-0.080,0.056,-0.350,-4.550,-2.170
10805641,-0.997,-0.086,0.057,17.850,-3.430,-2.170
10805662,-0.999,-0.077,0.052,0.700,-2.380,-2.030
10805682,-0.997,-0.071,0.062,0.420,-1.960,-2.170
10805703,-1.010,-0.100,0.038,0.490,-1.610,-2.100
10805721,-0.993,-0.092,0.053,2.730,-0.770,-1.680
10805746,-1.002,-0.071,0.045,1.330,-1.190,-1.890
10805766,-1.000,-0.092,0.044,1.890,-1.610,-1.750
10805790,-1.001,-0.085,0.044,2.800,-1.260,-1.400
10805809,-0.996,-0.074,0.056,1.470,-0.980,-1.330
10805833,-1.012,-0.090,0.044,0.490,-0.700,-1.050
10805851,-0.999,-0.088,0.050,0.980,-0.210,-0.770
10805871,-1.003,-0.090,0.044,0.980,-0.070,-0.560
10805891,-1.006,-0.080,0.039,1.260,-0.490,-0.070
10805910,-1.004,-0.086,0.040,0.560,-1.330,0.000
10805933,-1.007,-0.084,0.040,1.470,-1.960,0.070
10805957,-1.017,-0.066,0.023,0.560,-3.150,-0.420
10805977,-1.019,-0.086,0.027,0.630,-5.110,-0.280
10806001,-0.997,-0.077,0.042,-0.140,-5.600,-0.140
10806016,-0.997,-0.078,0.044,-0.980,-5.250,-0.350
10806041,-1.011,-0.077,0.039,17.500,-5.390,-0.910
10806061,-0.998,-0.076,0.049,0.910,-4.480,-1.190
10806078,-0.996,-0.081,0.058,1.890,-3.920,-0.910
10806098,-1.003,-0.072,0.065,-0.490,-3.080,-0.560
10806122,-0.995,-0.069,0.065,-2.030,-0.560,-0.770
10806140,-1.001,-0.092,0.041,0.630,1.050,-1.120
10806164,-1.006,-0.070,0.043,1.260,0.910,-1.260
10806184,-0.999,-0.078,0.045,0.420,1.050,-1.120
10806204,-1.013,-0.077,0.033,0.210,0.770,-0.910
10806223,-0.989,-0.086,0.057,0.280,1.260,-0.840
10806248,-0.992,-0.083,0.041,2.240,3.150,-0.770
10806266,-1.017,-0.070,0.019,2.870,2.450,-1.190
10806285,-1.018,-0.070,0.017,2.940,0.700,-1.400
10806310,-1.015,-0.075,0.013,1.750,-1.470,-1.120
10806330,-1.004,-0.074,0.021,1.330,-2.030,-1.120
10806350,-1.006,-0.069,0.020,1.540,-3.290,-1.890
10806369,-1.005,-0.080,0.023,2.590,-4.130,-1.890
10806390,-1.010,-0.068,0.029,1.190,-4.970,-1.540
10806406,-1.011,-0.073,0.035,-0.560,-5.740,-1.540
10806430,-0.996,-0.085,0.040,-0.140,-4.970,-1.400
10806449,-1.006,-0.070,0.042,0.420,-4.480,-1.680
10806469,-0.998,-0.081,0.043,1.400,-3.780,-1.820
10806489,-1.001,-0.069,0.038,1.470,-3.220,-1.540
10806510,-1.124,-0.063,0.039,0.910,-3.360,-2.170
10806530,-1.001,-0.079,0.038,1.610,-3.220,-2.590
10806554,-1.004,-0.080,0.030,4.130,-2.660,-3.010
10806574,-1.007,-0.067,0.043,4.830,-3.010,-3.500
10806592,-1.012,-0.074,0.039,2.730,-3.710,-3.640
10806614,-0.991,-0.100,0.043,6.370,-2.590,-3.360
10806637,-0.997,-0.085,0.045,8.050,-1.610,-2.870
10806657,-1.010,-0.083,0.042,7.490,-2.310,-2.310
10806677,-1.008,-0.077,0.045,7.000,-3.010,-1.820
10806697,-0.994,-0.089,0.032,6.020,-2.100,-2.380
10806721,-1.008,-0.091,0.032,7.140,-2.450,-2.520
10806741,-1.005,-0.078,0.024,7.630,-3.640,-2.170
10806760,-1.011,-0.056,0.033,3.500,-4.970,-2.240
10806784,-1.016,-0.070,0.042,-2.660,-6.020,-2.100
10806803,-1.000,-0.095,0.032,-0.770,-5.250,-1.610
10806822,-1.003,-0.076,0.038,0.280,-5.110,-0.840
10806846,-1.011,-0.071,0.036,-2.940,-6.440,-0.700
10806864,-1.001,-0.061,0.043,-5.250,-6.440,-0.420
10806886,-0.993,-0.067,0.046,-6.370,-7.140,-0.980
10806906,-1.012,-0.082,0.037,-4.970,-7.140,-1.470
10806923,-1.003,-0.080,0.041,-2.800,-6.790,-1.470
10806942,-1.004,-0.067,0.053,-3.360,-6.860,-1.330
10806967,-0.993,-0.075,0.055,-6.160,-5.950,-1.470
10806987,-0.992,-0.084,0.064,-5.600,-4.340,-1.400
10807005,-0.996,-0.086,0.057,-3.990,-4.200,-1.050
10807029,-0.999,-0.078,0.060,-2.170,-3.920,-1.750
10807046,-1.013,-0.066,0.049,-2.100,-4.130,-2.310
10807066,-1.008,-0.078,0.042,-1.400,-4.410,-2.380
10807090,-1.007,-0.069,0.054,-2.730,-6.020,-1.890
10807110,-1.004,-0.071,0.058,-5.600,-5.670,-2.030
10807125,-1.001,-0.086,0.058,-4.270,-5.180,-2.380
10807149,-1.005,-0.097,0.062,-1.050,-5.600,-2.940
10807170,-0.875,-0.066,0.061,-1.330,-5.110,-3.290
10807190,-0.998,-0.074,0.060,-3.990,-4.480,-3.710
10807209,-0.992,-0.141,0.061,0.910,-5.530,-3.080
10807229,-1.030,-0.057,0.049,7.280,-4.900,-3.080
10807253,-1.005,-0.086,0.055,0.210,-5.320,-3.990
10807272,-0.996,-0.094,0.061,0.840,-4.970,-2.940
10807288,-0.997,-0.082,0.076,0.560,-3.850,-2.310
10807313,-0.993,-0.115,0.065,3.990,-2.170,-2.170
10807333,-0.999,-0.080,0.061,5.250,-2.100,-1.680
10807348,-1.010,-0.050,0.061,-0.770,-3.150,-2.170
10807373,-0.996,-0.099,0.066,-1.890,-3.080,-1.750
10807392,-0.994,-0.102,0.061,0.910,-1.960,-1.330
10807411,-0.996,-0.083,0.066,1.750,-1.540,-1.470
10807432,-0.995,-0.073,0.066,1.470,-1.120,-1.820
10807456,-1.010,-0.086,0.053,1.330,-2.030,-2.450
10807480,-1.004,-0.084,0.057,1.680,-2.170,-2.520
10807496,-1.000,-0.086,0.058,0.910,-2.380,-2.450
10807519,-1.003,-0.086,0.060,0.490,-2.450,-2.240
10807541,-1.001,-0.085,0.071,0.350,-2.380,-2.030
10807560,-0.998,-0.084,0.064,-0.070,-2.170,-2.380
10807580,-0.987,-0.100,0.068,1.400,-0.700,-1.610
10807598,-0.994,-0.090,0.068,0.560,-0.560,-1.470
10807615,-1.001,-0.081,0.061,0.140,-0.350,-1.260
10807635,-1.007,-0.086,0.053,-0.140,-0.490,-1.890
10807655,-1.000,-0.094,0.055,1.960,-0.490,-1.680
10807680,-0.996,-0.081,0.061,2.030,-0.280,-1.820
10807700,-1.005,-0.081,0.054,1.330,-0.630,-1.890
10807718,-1.004,-0.083,0.055,0.070,-0.490,-2.030
10807736,-0.996,-0.083,0.057,-0.140,0.210,-1.890
10807759,-1.000,-0.096,0.059,0.560,0.700,-2.240
10807783,-1.004,-0.079,0.046,1.960,0.700,-2.520
10807802,-1.013,-0.083,0.039,1.190,-0.630,-2.450
10807822,-1.006,-0.084,0.039,-0.840,-1.610,-2.030
10807846,-1.005,-0.079,0.048,-1.680,-2.520,-1.960
10807861,-0.997,-0.102,0.047,-0.770,-2.590,-1.750
10807886,-1.009,-0.087,0.043,-0.560,-2.660,-1.400
10807906,-1.000,-0.091,0.041,-0.700,-3.570,-0.980
10807925,-1.002,-0.084,0.040,-1.610,-4.690,-1.050
10807944,-1.005,-0.083,0.043,-1.610,-5.670,-1.330
10807963,-1.008,-0.093,0.041,-0.770,-6.160,-1.540
10807987,-0.996,-0.081,0.064,0.000,-5.810,-1.400
10808006,-0.996,-0.080,0.059,-0.560,-4.550,-1.820
10808026,-0.991,-0.099,0.056,2.310,-3.500,-2.100
10808045,-0.992,-0.081,0.060,2.170,-2.310,-2.030
10808070,-0.998,-0.080,0.060,0.630,-2.240,-2.310
10808090,-0.994,-0.089,0.062,1.470,-0.490,-2.310
10808111,-0.994,-0.095,0.059,3.150,0.630,-2.380
10808130,-1.000,-0.096,0.051,4.270,1.330,-1.820
10808150,-0.997,-0.080,0.065,3.220,2.450,-1.680
10808169,-0.999,-0.094,0.043,1.540,2.380,-1.890
10808187,-1.016,-0.095,0.037,4.620,1.120,-1.680
10808206,-1.009,-0.074,0.036,3.290,-0.210,-2.380
10808231,-1.007,-0.094,0.038,2.590,-0.910,-1.820
10808251,-0.996,-0.089,0.043,2.030,-1.330,-0.840
10808269,-0.989,-0.081,0.052,0.140,-0.350,-0.350
10808291,-1.000,-0.099,0.041,-0.910,0.140,-0.560
10808310,-1.006,-0.096,0.036,1.330,-0.490,-0.280
10808330,-1.010,-0.067,0.029,0.350,-1.610,-0.700
10808354,-1.012,-0.075,0.029,-1.330,-3.780,-1.470
10808371,-1.004,-0.113,0.033,0.560,-4.340,-1.400
10808390,-1.006,-0.091,0.046,3.780,-4.550,-0.700
10808410,-1.004,-0.060,0.048,1.540,-4.480,-1.260
10808432,-0.999,-0.086,0.049,-0.910,-3.780,-1.750
10808451,-0.988,-0.100,0.060,-0.280,-2.450,-1.610
10808476,-0.998,-0.086,0.061,1.120,0.210,-1.540
10808494,-1.028,-0.070,0.038,2.170,-0.140,-1.540
10808515,-1.012,-0.082,0.040,-0.350,-0.840,-2.310
10808539,-0.984,-0.101,0.047,0.490,0.630,-1.820
10808559,-1.007,-0.085,0.039,2.310,0.770,-1.750
10808579,-1.008,-0.076,0.032,0.490,0.280,-2.100
10808602,-0.997,-0.099,0.035,1.190,0.000,-1.890
10808619,-1.002,-0.089,0.036,2.660,0.280,-1.330
10808643,-1.004,-0.071,0.045,1.330,0.070,-2.100
10808663,-1.012,-0.098,0.030,-0.210,-0.700,-2.380
10808682,-1.003,-0.099,0.027,4.060,-0.770,-1.820
10808706,-1.000,-0.078,0.028,2.310,-1.400,-1.750
10808726,-1.013,-0.070,0.025,-0.420,-3.150,-1.680
10808744,-1.003,-0.097,0.024,0.280,-3.360,-1.330
10808766,-1.004,-0.093,0.033,1.330,-3.640,-1.190
10808786,-1.001,-0.086,0.037,1.610,-3.220,-1.120
10808810,-1.005,-0.080,0.034,1.260,-3.570,-1.190
10808831,-0.996,-0.091,0.041,2.170,-2.940,-1.470
10808850,-1.000,-0.088,0.030,2.520,-2.240,-1.400
10808870,-1.007,-0.092,0.027,3.850,-3.080,-1.540
10808889,-1.011,-0.065,0.033,2.170,-3.360,-2.380
10808910,-1.003,-0.091,0.033,2.730,-3.780,-2.800
10808934,-0.994,-0.079,0.039,3.430,-3.080,-2.940
10808954,-0.998,-0.087,0.037,3.290,-2.520,-2.660
10808971,-1.004,-0.080,0.035,1.960,-2.730,-2.240
10808994,-1.005,-0.086,0.036,-0.700,-3.010,-2.170
10809014,-1.001,-0.095,0.033,0.420,-2.520,-1.610
10809038,-1.013,-0.078,0.024,-0.980,-3.990,-1.820
10809058,-1.012,-0.081,0.030,-3.360,-5.320,-1.540
10809078,-1.007,-0.104,0.027,-3.290,-6.300,-0.770
10809098,-1.007,-0.085,0.028,-3.570,-6.930,0.140
10809119,-1.008,-0.074,0.041,-6.300,-7.420,0.490
10809138,-0.999,-0.102,0.052,-7.280,-6.580,0.350
10809156,-0.986,-0.119,0.055,-2.450,-5.110,0.350
10809180,-1.010,-0.051,0.054,-1.400,-4.200,-0.070
10809200,-1.023,-0.071,0.039,-7.140,-5.250,-0.910
10809219,-0.988,-0.114,0.045,-4.200,-4.480,-0.350
10809242,-1.005,-0.073,0.045,-2.450,-3.850,-0.210
10809263,-1.004,-0.068,0.042,-6.160,-3.990,-1.120
10809283,-1.000,-0.095,0.040,-1.680,-3.640,-1.330
10809302,-1.012,-0.092,0.038,0.000,-4.410,-1.750
10809322,-1.001,-0.074,0.042,0.000,-4.480,-1.890
10809343,-1.003,-0.059,0.049,-4.270,-5.180,-2.520
10809363,-1.010,-0.122,0.046,-6.370,-6.440,-2.170
10809382,-1.001,-0.120,0.055,9.800,-2.170,-0.910
10809407,-0.999,-0.057,0.045,4.060,-2.800,-1.540
10809423,-1.016,-0.064,0.041,0.980,-3.500,-1.190
10809443,-0.991,-0.069,0.049,-0.490,-4.620,-1.540
10809464,-1.017,-0.113,0.032,5.040,-5.110,-2.380
10809488,-1.008,-0.088,0.051,8.470,-5.530,-1.750
10809508,-0.996,-0.047,0.066,1.680,-4.760,-2.240
10809527,-0.995,-0.102,0.053,1.890,-4.200,-1.400
10809548,-1.001,-0.067,0.053,2.100,-3.850,-1.260
10809567,-1.001,-0.083,0.065,0.280,-4.550,-1.820
10809591,-1.003,-0.106,0.052,3.080,-3.360,-1.470
10809610,-0.997,-0.084,0.054,4.480,-3.500,-1.120
10809632,-0.999,-0.066,0.053,2.590,-3.360,-1.050
10809656,-1.004,-0.074,0.051,0.490,-4.130,-1.540
10809676,-1.003,-0.082,0.050,1.050,-4.480,-2.100
10809696,-1.000,-0.088,0.054,2.100,-4.130,-2.170
10809711,-0.999,-0.085,0.060,3.150,-3.500,-1.750
10809735,-0.995,-0.075,0.068,0.840,-3.150,-1.260
10809754,-0.997,-0.094,0.064,1.820,-1.960,-0.770
10809774,-0.994,-0.080,0.058,2.030,-1.680,-0.630
10809795,-1.011,-0.074,0.060,0.560,-2.520,-1.050
10809817,-1.000,-0.105,0.061,-0.700,-2.800,-1.190
10809841,-0.992,-0.088,0.061,4.410,-1.260,-0.560
10809860,-1.008,-0.068,0.050,3.710,-1.260,-1.260
10809880,-1.011,-0.069,0.074,-1.190,-1.890,-2.590
10809901,-1.000,-0.091,0.051,-0.140,-1.610,-2.870
10809920,-1.008,-0.073,0.047,-0.350,-1.470,-2.940
10809944,-1.006,-0.075,0.049,-0.420,-1.610,-2.800
10809965,-1.001,-0.082,0.050,0.000,-1.820,-2.240
10809986,-1.010,-0.077,0.045,-0.560,-1.890,-1.960
10810005,-1.003,-0.084,0.046,-0.350,-2.800,-1.960
10810022,-1.005,-0.072,0.051,-0.420,-3.010,-2.310
10810042,-1.011,-0.081,0.039,-0.420,-3.710,-3.080
10810061,-1.004,-0.098,0.044,3.570,-3.990,-2.660
10810083,-1.004,-0.070,0.047,2.800,-5.040,-2.800
10810103,-1.010,-0.075,0.044,0.280,-6.230,-2.730
10810127,-1.003,-0.091,0.048,-0.840,-7.140,-2.800
10810146,-1.004,-0.090,0.053,0.490,-7.700,-2.800
10810166,-1.006,-0.085,0.053,-0.070,-8.610,-2.800
10810187,-1.006,-0.087,0.058,0.350,-8.960,-2.450
10810211,-0.997,-0.077,0.070,-0.420,-8.750,-2.240
10810235,-0.992,-0.081,0.079,-2.310,-7.350,-2.730
10810255,-0.992,-0.098,0.078,-0.490,-5.810,-2.240
10810270,-1.000,-0.093,0.089,-0.280,-5.320,-2.450
10810291,-0.983,-0.099,0.093,0.140,-2.800,-1.820
10810315,-0.990,-0.094,0.076,1.190,-1.050,-1.470
10810333,-0.999,-0.092,0.068,1.120,-0.630,-1.260
10810357,-0.996,-0.081,0.072,0.770,-0.280,-1.400
10810374,-1.004,-0.082,0.065,-0.560,-0.280,-1.680
10810398,-1.002,-0.090,0.060,-0.840,-0.980,-1.610
10810418,-0.996,-0.086,0.065,-0.350,-0.910,-1.330
10810438,-0.998,-0.084,0.076,-0.840,-1.120,-1.400
10810454,-0.995,-0.083,0.074,-0.490,-0.070,-1.470
10810477,-1.003,-0.095,0.055,0.630,-0.140,-1.610
10810495,-1.005,-0.079,0.059,1.050,-0.910,-1.610
10810515,-0.997,-0.078,0.064,-1.960,-1.470,-1.750
10810535,-0.994,-0.102,0.060,-2.380,-1.190,-1.400
10810558,-1.002,-0.084,0.059,0.280,-0.840,-1.470
10810578,-1.012,-0.077,0.055,-0.560,-1.540,-1.960
10810598,-1.005,-0.087,0.055,-0.630,-2.030,-2.030
10810618,-0.998,-0.083,0.060,-0.770,-1.750,-1.610
10810639,-0.994,-0.082,0.064,-0.840,-1.400,-1.820
10810663,-1.006,-0.092,0.052,-0.980,-1.050,-1.820
10810682,-1.010,-0.090,0.063,-0.280,-2.100,-1.960
10810703,-0.989,-0.084,0.061,-1.120,-0.350,-1.820
10810723,-0.995,-0.091,0.063,-0.560,-0.210,-2.030
10810741,-0.996,-0.098,0.056,1.190,0.560,-2.170
10810764,-1.010,-0.081,0.052,1.610,0.000,-2.030
10810785,-1.001,-0.089,0.057,0.770,-0.350,-2.310
10810805,-1.005,-0.099,0.054,2.170,-0.140,-2.520
10810825,-1.004,-0.092,0.056,3.780,0.070,-2.520
10810844,-1.000,-0.094,0.053,3.710,0.210,-2.310
10810861,-1.000,-0.091,0.049,3.290,0.280,-1.960
10810880,-1.002,-0.079,0.042,1.470,0.000,-2.030
10810900,-1.001,-0.091,0.039,2.240,-0.980,-1.890
10810921,-1.007,-0.092,0.039,2.310,-2.100,-1.680
10810945,-1.002,-0.090,0.048,1.680,-2.940,-1.610
10810962,-1.004,-0.089,0.044,1.050,-2.660,-1.680
10810986,-1.004,-0.089,0.047,2.100,-2.800,-1.750
10811006,-1.001,-0.093,0.050,2.380,-2.590,-1.750
10811026,-0.994,-0.087,0.058,2.940,-1.750,-1.470
10811046,-0.999,-0.084,0.050,0.490,-1.400,-1.960
10811066,-1.003,-0.098,0.045,1.960,-1.120,-1.890
10811090,-0.998,-0.089,0.056,3.220,-0.910,-1.960
10811109,-1.004,-0.088,0.042,2.520,-0.700,-1.750
10811130,-0.998,-0.087,0.044,1.400,-1.400,-1.680
10811150,-1.000,-0.081,0.041,-0.350,-1.680,-1.470
10811169,-1.017,-0.080,0.032,-1.680,-3.010,-1.680
10811190,-0.998,-0.093,0.049,-1.330,-3.150,-1.820
10811214,-0.995,-0.109,0.046,-0.210,-2.730,-1.120
10811229,-1.005,-0.079,0.041,-0.770,-3.010,-0.630
10811254,-1.013,-0.066,0.035,-5.110,-5.320,-1.330
10811273,-1.007,-0.093,0.046,-4.620,-5.740,-1.400
10811294,-0.992,-0.105,0.056,-1.120,-5.110,-0.770
10811314,-0.992,-0.078,0.050,-0.980,-4.550,-0.700
10811334,-1.009,-0.080,0.051,-2.730,-5.040,-0.630
10811354,-0.987,-0.098,0.052,-0.980,-4.130,-0.210
10811377,-1.004,-0.089,0.042,-1.120,-4.060,-0.210
10811396,-1.005,-0.077,0.054,-1.610,-4.270,-0.630
10811416,-1.002,-0.096,0.061,-1.050,-3.430,-1.050
10811440,-0.998,-0.099,0.071,-0.070,-2.660,-0.840
10811460,-1.002,-0.087,0.057,-1.050,-2.310,-1.050
10811476,-1.005,-0.069,0.035,-1.400,-2.380,-0.700
10811499,-1.006,-0.059,0.047,-3.010,-2.660,-1.190
10811520,-1.016,-0.116,0.048,-5.390,-5.390,-1.470
10811540,-1.006,-0.107,0.067,8.680,-3.920,-0.210
10811557,-0.987,-0.048,0.052,4.690,-5.460,-1.610
10811577,-1.007,-0.070,0.044,2.800,-3.570,-2.590
10811599,-1.016,-0.069,0.049,3.290,-4.130,-3.290
10811619,-1.008,-0.104,0.041,5.670,-4.340,-3.080
10811643,-0.998,-0.097,0.054,9.170,-4.200,-2.170
10811663,-0.997,-0.061,0.061,2.800,-3.570,-2.100
10811679,-0.990,-0.102,0.054,1.050,-4.060,-1.820
10811703,-1.009,-0.115,0.045,4.970,-4.130,-1.330
10811722,-1.010,-0.073,0.055,4.270,-3.780,-1.330
10811743,-1.000,-0.082,0.058,1.050,-2.450,-1.820
10811763,-1.007,-0.086,0.052,1.610,-2.870,-2.170
10811787,-1.003,-0.093,0.051,2.660,-2.800,-2.100
10811802,-1.005,-0.079,0.049,2.870,-3.500,-1.890
10811826,-1.007,-0.076,0.050,0.070,-3.640,-1.820
10811844,-1.003,-0.088,0.050,0.910,-3.850,-1.680
10811863,-1.013,-0.087,0.052,0.980,-4.830,-1.750
10811883,-1.001,-0.086,0.060,1.050,-5.180,-1.470
10811908,-1.003,-0.071,0.053,-0.420,-4.620,-1.400
10811924,-1.009,-0.081,0.050,-1.120,-4.970,-1.190
10811947,-1.000,-0.088,0.063,-1.190,-5.110,-1.050
10811965,-0.994,-0.088,0.068,-2.520,-4.550,-1.260
10811984,-1.006,-0.098,0.059,-1.820,-3.990,-1.610
10812004,-1.005,-0.087,0.060,0.700,-4.060,-1.050
10812024,-1.005,-0.072,0.057,-1.470,-3.710,-1.470
10812049,-1.001,-0.084,0.060,-2.240,-3.710,-1.400
10812069,-1.002,-0.095,0.059,-1.890,-3.850,-0.630
10812089,-0.997,-0.081,0.061,0.210,-3.850,0.070
10812109,-1.010,-0.068,0.066,-1.890,-5.320,-0.560
10812133,-1.001,-0.091,0.062,-2.590,-6.160,-1.330
10812153,-0.996,-0.086,0.069,1.050,-6.230,-1.820
10812171,-1.006,-0.079,0.056,1.540,-6.230,-2.730
10812191,-1.011,-0.090,0.066,1.610,-7.140,-2.730
10812210,-0.993,-0.089,0.082,1.120,-5.950,-2.520
10812233,-0.986,-0.082,0.088,-0.420,-3.990,-2.450
10812250,-1.007,-0.085,0.081,-1.330,-3.360,-2.520
10812275,-0.991,-0.102,0.082,1.120,-2.030,-2.450
10812290,-0.996,-0.095,0.082,2.800,-0.630,-2.240
10812313,-0.991,-0.083,0.077,1.400,1.120,-2.240
10812335,-0.996,-0.087,0.070,1.470,1.540,-2.240
10812355,-1.006,-0.095,0.060,2.030,1.260,-1.680
10812375,-0.998,-0.091,0.065,2.310,1.050,-1.260
10812398,-1.003,-0.079,0.062,1.120,1.190,-0.560
10812419,-1.011,-0.087,0.059,0.000,0.490,-0.840
10812435,-0.999,-0.105,0.061,1.680,0.980,-0.980
10812459,-1.005,-0.067,0.051,1.750,0.350,-0.560
10812478,-1.011,-0.086,0.067,0.140,-0.910,-0.630
10812496,-0.993,-0.096,0.064,0.560,0.980,-0.210
10812516,-1.007,-0.091,0.053,2.520,0.910,-0.350
10812537,-1.008,-0.055,0.050,1.540,-0.140,-1.330
10812561,-1.014,-0.098,0.053,2.450,-0.980,-1.680
10812582,-0.969,-0.084,0.072,2.800,1.890,-1.050
10812601,-0.998,-0.065,0.060,-2.310,2.590,-1.260
10812625,-1.020,-0.067,0.040,-2.940,2.240,-2.660
10812645,-1.013,-0.097,0.034,0.700,1.890,-2.590
10812660,-1.003,-0.102,0.040,4.270,1.050,-2.030
10812685,-1.000,-0.088,0.059,2.170,-0.910,-2.240
10812704,-1.005,-0.085,0.085,-3.430,-0.630,-2.100
10812727,-0.963,-0.120,0.039,-3.710,1.540,-2.870
10812748,-0.990,-0.081,0.059,6.160,7.490,-2.450
10812768,-1.000,-0.074,0.065,2.870,9.520,-2.310
10812784,-0.962,-0.127,0.026,0.630,10.430,-2.310
10812804,-0.999,-0.125,0.014,9.380,11.830,-0.350
10812828,-1.027,-0.090,-0.002,13.860,10.850,-0.350
10812847,-1.023,-0.062,-0.012,12.180,10.360,-0.210
10812868,-1.012,-0.076,0.005,9.870,8.400,-0.420
10812886,-1.013,-0.071,-0.015,7.000,6.650,-0.770
10812910,-1.019,-0.054,-0.013,3.430,4.620,-1.190
10812927,-1.008,-0.084,-0.006,2.590,2.800,-1.120
10812951,-1.007,-0.092,-0.004,5.390,0.420,-0.840
10812969,-1.007,-0.083,-0.009,4.480,-0.560,-0.560
10812989,-1.013,-0.084,-0.017,4.060,-1.680,-0.280
10813009,-1.014,-0.078,-0.005,4.620,-2.800,-0.140
10813033,-1.009,-0.064,-0.005,2.660,-3.780,-0.840
10813052,-1.005,-0.071,0.007,2.240,-4.690,-1.470
10813076,-1.006,-0.076,0.008,1.260,-4.550,-1.890
10813093,-1.005,-0.082,0.012,1.330,-4.480,-1.750
10813117,-0.999,-0.074,0.010,1.190,-4.550,-2.030
10813137,-1.000,-0.083,0.005,0.560,-4.830,-2.240
10813154,-1.004,-0.086,0.006,1.890,-4.970,-2.240
10813177,-1.011,-0.068,0.009,2.520,-6.160,-2.520
10813201,-0.999,-0.078,0.013,0.560,-7.070,-2.870
10813221,-1.000,-0.072,0.014,-1.680,-7.210,-2.800
10813240,-1.010,-0.083,0.022,-2.170,-7.000,-2.240
10813261,-0.989,-0.067,0.032,-3.010,-6.160,-1.470
10813279,-0.988,-0.091,0.038,-5.320,-5.110,-1.330
10813303,-0.996,-0.098,0.027,-2.730,-5.250,-0.420
10813323,-1.018,-0.076,0.016,-0.980,-6.300,0.070
10813342,-1.009,-0.100,-0.014,-3.220,-6.300,17.850
10813363,-0.878,-0.077,0.025,-2.240,-7.070,0.280
10813383,-0.999,-0.054,0.037,-3.710,-7.280,0.070
10813406,-1.002,-0.097,0.021,-2.660,-6.650,-1.120
10813427,-1.021,-0.086,0.020,3.150,-8.120,-0.630
10813446,-1.023,-0.069,-0.003,1.330,-9.520,0.490
10813470,-1.005,-0.097,0.024,0.210,-9.940,1.050
10813490,-0.998,-0.058,0.052,-3.570,-8.750,1.190
10813510,-0.981,-0.065,0.048,-5.600,-7.630,0.420
10813530,-1.006,-0.089,0.024,-6.300,-8.400,-1.330
10813554,-0.989,-0.157,0.017,6.020,-8.400,-0.420
10813574,-1.024,-0.077,0.019,12.880,-10.500,-0.070
10813594,-0.998,0.026,0.041,0.350,-10.850,-2.170
10813613,-1.003,-0.041,0.054,-12.040,-13.020,-3.710
10813630,-0.981,-0.160,0.058,-6.370,-10.150,-4.200
10813654,-0.976,-0.134,0.081,10.010,-6.440,-2.870
10813673,-0.998,-0.045,0.067,4.760,-3.990,-2.030
10813691,-0.997,-0.068,0.063,0.490,-3.500,-2.170
10813711,-0.991,-0.074,0.051,-1.610,-2.800,-1.960
10813735,-1.019,-0.094,0.052,-0.210,-5.180,-0.910
10813755,-0.993,-0.089,0.061,0.350,-4.130,-0.630
10813775,-1.009,-0.073,0.066,-0.210,-2.870,-0.840
10813795,-0.995,-0.076,0.062,-0.630,-1.750,-1.470
10813815,-0.995,-0.067,0.055,-1.540,-0.910,-1.750
10813834,-1.017,-0.086,0.042,-0.280,-2.240,-2.030
10813854,-1.004,-0.077,0.048,0.630,-2.660,-2.170
10813875,-1.020,-0.075,0.052,-0.420,-4.130,-2.030
10813894,-1.009,-0.065,0.057,-1.470,-5.040,-1.750
10813918,-0.993,-0.065,0.061,-4.480,-4.340,-1.750
10813938,-1.006,-0.082,0.061,-4.130,-4.200,-2.030
10813962,-0.998,-0.090,0.059,-1.610,-3.640,-2.030
10813982,-0.986,-0.079,0.067,-2.380,-2.030,-2.240
10814006,-1.011,-0.072,0.059,-3.220,-1.750,-1.890
10814026,-1.001,-0.074,0.053,-3.640,-3.990,-2.730
10814050,-1.014,-0.085,0.042,-2.590,-4.410,-2.310
10814067,-1.001,-0.094,0.053,-0.420,-5.320,-1.960
10814091,-1.004,-0.069,0.054,-2.240,-6.580,-1.680
10814111,-1.010,-0.056,0.046,-6.440,-8.680,-1.470
10814129,-1.015,-0.091,0.056,-4.900,-9.800,-1.750
10814149,-1.002,-0.089,0.060,-1.330,-9.590,-1.610
10814169,-1.002,-0.071,0.067,-0.140,-10.430,-2.310
10814188,-1.008,-0.081,0.068,-1.120,-10.010,-2.940
10814213,-0.987,-0.091,0.081,0.560,-8.610,-2.800
10814233,-1.000,-0.070,0.091,-0.280,-7.490,-2.660
10814253,-0.996,-0.076,0.092,-2.730,-5.740,-3.010
10814268,-0.992,-0.108,0.093,-3.010,-4.620,-3.080
10814293,-0.987,-0.097,0.088,0.420,-2.660,-2.030
10814313,-0.998,-0.070,0.076,0.560,-2.170,-2.450
10814333,-1.010,-0.083,0.065,-1.190,-2.660,-2.870
10814353,-0.994,-0.096,0.074,2.030,-2.660,-3.010
10814373,-1.004,-0.081,0.066,2.940,-2.380,-3.220
10814389,-1.010,-0.069,0.071,2.240,-3.570,-3.780
10814413,-1.003,-0.100,0.067,2.310,-4.200,-3.780
10814432,-1.010,-0.080,0.076,2.590,-4.340,-3.500
10814456,-0.996,-0.065,0.081,0.000,-4.270,-3.640
10814476,-1.004,-0.088,0.078,-1.330,-4.130,-3.850
10814494,-0.998,-0.090,0.080,-0.700,-3.220,-3.710
10814515,-1.004,-0.103,0.075,1.190,-4.410,-3.430
10814539,-0.996,-0.091,0.084,0.840,-4.200,-2.870
10814559,-0.992,-0.088,0.081,-0.350,-3.990,-2.660
10814579,-1.006,-0.094,0.074,-1.260,-4.130,-2.520
10814599,-0.986,-0.102,0.089,0.910,-3.920,-2.310
10814623,-0.999,-0.080,0.083,-0.980,-2.450,-2.170
10814639,-0.998,-0.090,0.081,-1.400,-2.240,-2.030
10814659,-0.990,-0.101,0.088,-2.170,-1.190,-1.820
10814683,-0.997,-0.104,0.088,-0.630,0.140,-1.330
10814703,-0.988,-0.092,0.085,-1.260,1.050,-0.630
10814722,-0.999,-0.101,0.074,17.500,1.540,-0.840
10814743,-1.008,-0.075,0.071,-0.140,1.610,-1.400
10814765,-1.002,-0.099,0.069,0.700,0.700,-1.330
10814785,-1.000,-0.083,0.078,0.980,0.490,-0.560
10814809,-0.996,-0.096,0.081,-1.540,1.190,0.280
10814829,-0.989,-0.088,0.069,-0.560,2.940,0.490
10814845,-1.013,-0.084,0.059,-1.190,2.730,0.140
10814865,-1.009,-0.100,0.062,-0.350,1.400,-0.420
10814888,-0.999,-0.092,0.062,1.680,1.050,-0.210
10814909,-0.996,-0.086,0.063,1.120,1.400,0.140
10814929,-0.995,-0.087,0.063,0.770,1.330,0.280
10814947,-1.002,-0.080,0.054,0.210,1.050,0.070
10814968,-1.011,-0.074,0.048,0.630,-0.140,-0.490
10814988,-1.012,-0.086,0.047,-0.350,-1.610,-1.190
10815012,-1.004,-0.094,0.054,2.450,-1.890,-1.260
10815036,-1.001,-0.090,0.061,3.430,-1.960,-1.050
10815056,-1.008,-0.075,0.056,2.100,-1.960,-0.560
10815080,-1.007,-0.084,0.052,-0.210,-2.590,0.210
10815100,-1.004,-0.074,0.058,-2.940,-2.870,0.000
10815119,-1.006,-0.091,0.059,-2.800,-3.080,0.350
10815139,-0.995,-0.087,0.060,-0.980,-2.310,0.490
10815160,-0.996,-0.090,0.060,-0.490,-2.100,0.770
10815180,-1.001,-0.081,0.057,-0.280,-1.890,0.700
10815200,-1.000,-0.056,0.062,0.280,-1.400,0.210
10815223,-1.005,-0.067,0.051,-0.630,-1.470,-0.840
10815244,-1.002,-0.089,0.051,0.560,-2.520,-1.190
10815261,-1.004,-0.091,0.061,1.050,-2.520,-0.980
10815281,-0.996,-0.068,0.062,2.170,-1.610,-1.120
10815304,-1.014,-0.070,0.050,0.420,-1.890,-1.610
10815324,-0.996,-0.107,0.044,3.290,-2.310,-1.050
10815345,-1.005,-0.062,0.046,2.940,-3.010,-1.260
10815365,-1.007,-0.066,0.054,0.700,-3.780,-1.890
10815386,-1.005,-0.087,0.055,0.140,-4.130,-2.450
10815410,-1.003,-0.055,0.057,1.610,-3.920,-2.870
10815430,-1.010,-0.095,0.031,-6.230,-6.370,-1.540
10815450,-1.010,-0.094,0.048,9.660,-4.130,0.070
10815469,-1.006,-0.035,0.061,2.870,-7.350,-1.400
10815488,-1.009,-0.055,0.057,-2.520,-7.350,-1.260
10815509,-0.993,-0.096,0.070,-2.100,-7.700,-1.540
10815529,-1.002,-0.105,0.064,5.110,-5.600,-1.540
10815553,-1.008,-0.064,0.059,5.740,-6.370,-0.980
10815571,-0.995,-0.056,0.069,0.420,-6.580,-1.330
10815591,-0.990,-0.098,0.074,-0.140,-5.670,-0.910
10815610,-0.995,-0.096,0.078,2.380,-4.270,-0.070
10815632,-0.991,-0.073,0.077,3.290,-2.590,-0.070
10815656,-1.004,-0.063,0.065,2.520,-2.380,-1.190
10815674,-1.008,-0.077,0.066,2.170,-2.870,-1.400
10815697,-1.000,-0.080,0.061,2.520,-3.150,-1.680
10815716,-1.006,-0.064,0.061,1.400,-3.430,-1.890
10815740,-1.012,-0.065,0.060,0.630,-4.340,-1.540
10815755,-1.009,-0.088,0.065,0.490,-5.320,-1.400
10815780,-0.995,-0.078,0.077,0.560,-4.270,-1.120
10815796,-0.989,-0.067,0.080,-0.350,-2.800,-1.400
10815818,-0.993,-0.080,0.077,-0.700,-2.030,-1.330
10815842,-0.997,-0.081,0.068,0.910,-1.260,-1.400
10815862,-1.001,-0.073,0.070,1.120,-1.190,-1.260
10815877,-1.002,-0.079,0.074,1.190,-0.910,-1.400
10815902,-0.995,-0.078,0.071,1.610,0.350,-1.750
10815920,-1.008,-0.078,0.065,3.360,0.350,-2.100
10815942,-1.006,-0.078,0.066,3.220,0.280,-2.170
10815962,-0.998,-0.069,0.066,2.100,0.420,-2.030
10815986,-1.001,-0.067,0.059,-0.210,0.420,-2.030
10816010,-1.005,-0.072,0.056,-0.700,-0.210,-1.960
10816029,-1.005,-0.074,0.059,-1.890,-1.470,-1.610
10816049,-1.005,-0.069,0.060,-3.850,-2.030,-1.190
10816066,-0.999,-0.072,0.065,-4.690,-2.100,-1.610
10816089,-1.001,-0.082,0.054,-2.520,-1.750,-2.240
10816110,-1.014,-0.087,0.043,1.260,-3.010,-2.660
10816131,-1.013,-0.066,0.051,1.190,-4.550,-2.380
10816155,-1.001,-0.056,0.053,-3.360,-5.740,-2.450
10816174,-1.012,-0.077,0.059,-5.460,-7.210,-2.660
10816194,-1.004,-0.093,0.063,-2.380,-7.630,-2.730
10816213,-1.006,-0.078,0.060,0.560,-7.490,-2.730
10816237,-1.010,-0.066,0.067,-0.070,-8.470,-2.730
10816257,-0.997,-0.080,0.075,-1.050,-7.840,-2.730
10816272,-0.985,-0.074,0.079,-1.330,-6.650,-3.150
10816295,-1.009,-0.082,0.079,-0.560,-6.370,-3.570
10816314,-0.994,-0.096,0.086,2.240,-5.110,-3.430
10816338,-0.993,-0.088,0.088,4.130,-3.150,-2.590
10816356,-0.999,-0.079,0.082,2.170,-2.240,-2.240
10816380,-0.997,-0.085,0.073,1.750,-2.100,-1.960
10816400,-1.005,-0.073,0.070,2.240,-2.170,-1.960
10816420,-1.004,-0.079,0.072,1.540,-2.310,-2.520
10816444,-0.995,-0.094,0.072,3.920,-1.890,-2.310
10816464,-0.999,-0.080,0.076,4.130,-1.890,-2.100
10816484,-1.004,-0.070,0.068,1.750,-1.960,-2.450
10816500,-1.001,-0.074,0.069,-0.140,-2.590,-2.870
10816522,-1.005,-0.094,0.071,2.450,-2.940,-2.730
10816542,-1.002,-0.076,0.074,2.730,-2.660,-2.660
10816561,-1.004,-0.083,0.069,1.120,-2.660,-2.520
10816586,-0.994,-0.094,0.078,1.960,-2.100,-1.820
10816606,-0.999,-0.078,0.075,1.470,-2.100,-1.750
10816622,-1.002,-0.072,0.070,-0.280,-1.820,-1.960
10816641,-1.006,-0.094,0.066,1.330,-2.380,-2.170
10816661,-1.003,-0.087,0.073,1.960,-2.380,-1.750
10816682,-0.991,-0.078,0.076,-0.210,-2.240,-1.050
10816706,-0.997,-0.078,0.081,-0.840,-1.400,-1.260
10816726,-1.004,-0.092,0.074,0.490,-0.560,-1.750
10816742,-0.996,-0.084,0.074,0.980,0.000,-1.820
10816766,-1.003,-0.083,0.066,0.350,-0.420,-1.330
10816790,-1.004,-0.076,0.058,-1.540,-0.980,-0.980
10816808,-1.004,-0.080,0.066,-2.380,-2.380,-1.120
10816828,-1.007,-0.085,0.061,-2.520,-2.240,-1.330
10816849,-0.999,-0.094,0.066,-0.350,-2.870,-1.050
10816869,-1.003,-0.070,0.068,-0.910,-3.150,-0.980
10816889,-1.001,-0.093,0.069,-2.380,-3.360,-0.910
10816913,-0.998,-0.087,0.069,-0.770,-2.730,-0.350
10816933,-0.998,-0.078,0.079,-1.960,-2.520,-0.770
10816952,-0.996,-0.089,0.074,-1.400,-1.820,-0.630
10816972,-0.996,-0.090,0.071,0.490,-0.840,-0.560
10816996,-0.990,-0.069,0.074,1.050,0.070,-1.260
10817016,-1.002,-0.081,0.063,0.560,0.070,-1.540
10817036,-0.998,-0.082,0.063,1.470,0.210,-1.750
10817052,-1.002,-0.080,0.066,1.470,0.560,-2.100
10817073,-0.999,-0.082,0.069,1.330,0.630,-2.170
10817095,-0.999,-0.081,0.061,2.520,1.260,-1.750
10817119,-0.999,-0.081,0.061,0.980,1.400,-1.330
10817139,-0.996,-0.094,0.060,1.120,1.960,-0.420
10817159,-1.001,-0.077,0.052,0.140,1.680,-0.210
10817179,-1.009,-0.073,0.053,-2.520,0.560,-0.280
10817199,-1.010,-0.085,0.045,-1.470,0.840,0.070
10817219,-1.010,-0.078,0.045,-1.470,-0.350,-0.420
10817241,-1.014,-0.085,0.043,-0.770,-0.910,0.140
10817265,-1.007,-0.076,0.042,-1.400,-1.750,0.980
10817281,-1.008,-0.068,0.036,-4.760,-3.570,0.560
10817302,-1.016,-0.065,0.044,-5.180,-5.180,-0.280
10817326,-1.006,-0.086,0.044,-1.890,-5.950,-0.910
10817346,-1.005,-0.076,0.050,0.000,-6.160,-0.980
10817364,-1.007,-0.063,0.059,-1.330,-6.300,-1.260
10817386,-0.989,-0.078,0.071,-1.050,-4.620,-1.890
10817405,-0.992,-0.088,0.069,1.750,-2.520,-2.310
10817430,-1.003,-0.079,0.061,3.640,-0.980,-2.660
10817450,-1.017,-0.036,0.044,-5.740,-2.870,-3.570
10817468,-0.984,-0.181,0.047,10.920,-1.190,-0.560
10817486,-1.017,-0.042,0.052,7.000,-1.120,-0.770
10817510,-1.013,-0.043,0.037,0.350,-3.920,-1.750
10817529,-1.004,-0.090,0.052,-2.800,-5.600,-1.750
10817550,-0.995,-0.099,0.056,4.550,-4.340,-2.170
10817570,-1.010,-0.085,0.059,7.560,-4.900,-2.870
10817588,-1.009,-0.056,0.060,3.780,-5.460,-3.920
10817610,-0.994,-0.086,0.061,4.760,-4.690,-3.640
10817628,-1.002,-0.080,0.063,7.070,-3.780,-3.360
10817647,-1.001,-0.069,0.065,5.250,-3.430,-3.080
10817668,-0.988,-0.074,0.062,4.970,-2.030,-3.360
10817690,-1.015,-0.075,0.049,3.220,-2.520,-3.710
10817714,-1.003,-0.092,0.057,3.570,-3.080,-2.940
10817734,-0.995,-0.071,0.064,2.940,-2.800,-3.080
10817753,-1.006,-0.067,0.067,-2.100,-3.220,-3.640
10817774,-0.996,-0.099,0.057,1.050,-2.520,-3.430
10817794,-1.000,-0.087,0.058,3.150,-2.380,-3.430
10817813,-1.002,-0.068,0.058,1.540,-2.660,-3.360
10817834,-0.999,-0.088,0.061,0.980,-3.010,-3.150
10817854,-1.004,-0.082,0.059,0.910,-3.010,-3.010
10817873,-1.003,-0.084,0.057,0.840,-2.380,-2.590
10817891,-0.999,-0.086,0.061,1.190,-2.380,-2.310
10817914,-1.001,-0.084,0.064,1.470,-1.750,-2.310
10817935,-0.999,-0.074,0.056,0.630,-1.050,-2.590
10817955,-1.007,-0.095,0.057,0.140,-1.400,-2.730
10817975,-1.002,-0.103,0.056,2.170,-1.610,-2.590
10817994,-0.999,-0.074,0.061,2.100,-1.470,-2.380
10818015,-1.015,-0.089,0.049,0.420,-2.520,-2.450
10818035,-1.010,-0.090,0.056,0.350,-3.220,-1.960
10818059,-0.997,-0.087,0.060,-2.730,-3.360,-1.610
10818079,-1.008,-0.099,0.046,-1.120,-3.920,-1.330
10818098,-1.014,-0.069,0.047,-1.050,-6.020,-1.610
10818121,-1.012,-0.066,0.047,-5.740,-7.910,-2.100
10818140,-1.005,-0.108,0.049,-3.080,-8.330,-1.680
10818163,-0.998,-0.082,0.062,-2.380,-8.750,-1.540
10818183,-1.003,-0.083,0.067,-2.730,-9.030,-1.960
10818202,-1.001,-0.075,0.066,-1.750,-9.030,-2.520
10818224,-1.000,-0.105,0.073,-1.750,-8.680,-2.660
10818248,-0.985,-0.101,0.085,-0.070,-6.650,-2.170
10818266,-0.992,-0.088,0.097,-0.490,-5.110,-1.960
10818284,-0.984,-0.096,0.095,0.000,-3.010,-1.890
10818308,-0.989,-0.111,0.081,0.490,-1.470,-1.470
10818325,-0.984,-0.098,0.080,3.220,0.070,-0.630
10818348,-1.002,-0.078,0.064,1.470,0.350,-0.490
10818369,-1.007,-0.083,0.062,-0.210,-0.840,-0.420
10818387,-0.998,-0.096,0.070,-2.170,-1.400,-0.840
10818411,-1.009,-0.096,0.071,0.560,-0.910,-0.210
10818431,-0.998,-0.068,0.065,0.840,-0.350,-0.910
10818450,-1.011,-0.083,0.056,-0.560,-2.170,-1.610
10818469,-1.011,-0.077,0.054,-0.350,-3.710,-2.240
10818489,-1.006,-0.087,0.063,-0.980,-5.040,-2.660
10818509,-0.994,-0.096,0.071,-0.630,-4.340,-2.800
10818533,-0.996,-0.088,0.068,2.590,-3.850,-2.660
10818553,-1.004,-0.085,0.071,2.870,-2.800,-3.150
10818572,-0.991,-0.097,0.078,3.080,-1.750,-2.660
10818588,-0.994,-0.079,0.068,2.870,-1.050,-2.450
10818610,-1.011,-0.084,0.065,0.840,-1.820,-2.940
10818629,-1.001,-0.089,0.060,0.910,-1.960,-3.150
10818653,-1.005,-0.088,0.063,1.470,-2.800,-3.430
10818670,-0.999,-0.085,0.062,0.910,-3.150,-3.290
10818691,-1.013,-0.081,0.062,-0.350,-3.990,-3.850
10818714,-1.003,-0.107,0.069,0.140,-4.060,-3.710
10818738,-0.998,-0.099,0.083,2.240,-3.710,-3.150
10818758,-0.998,-0.096,0.078,0.700,-2.730,-2.660
10818776,-0.996,-0.102,0.077,1.190,-2.450,-2.240
10818796,-1.005,-0.102,0.076,1.400,-2.240,-1.540
10818816,-0.996,-0.095,0.066,0.630,-1.610,-1.330
10818838,-1.001,-0.091,0.066,0.770,-2.380,-1.190
10818861,-1.003,-0.102,0.065,1.050,-2.800,-1.260
10818882,-0.995,-0.094,0.068,1.680,-2.870,-1.260
10818902,-1.007,-0.078,0.065,-0.980,-3.570,-1.330
10818922,-1.000,-0.092,0.073,-0.560,-3.290,-1.260
10818942,-0.999,-0.102,0.076,-1.050,-2.520,-1.190
10818958,-0.992,-0.090,0.077,-0.490,-1.610,-1.120
10818982,-0.997,-0.092,0.068,-0.420,-1.470,-0.910
10819000,-0.999,-0.093,0.069,-0.910,-1.610,-1.120
10819020,-1.003,-0.093,0.066,0.210,-1.470,-1.260
10819044,-1.001,-0.091,0.064,-0.630,-1.260,-1.260
10819063,-0.994,-0.090,0.067,-1.260,-1.470,-0.770
10819087,-1.005,-0.087,0.062,-3.150,-1.610,-0.770
10819105,-0.996,-0.097,0.069,-2.310,-2.100,-1.050
10819129,-1.010,-0.087,0.060,-1.820,-1.680,-1.330
10819149,-0.995,-0.093,0.066,-1.120,-1.680,-1.400
10819167,-0.998,-0.093,0.061,-2.100,-2.170,-1.050
10819188,-1.002,-0.081,0.059,-3.220,-2.590,-0.770
10819212,-1.005,-0.079,0.064,-5.040,-3.500,-1.540
10819232,-0.993,-0.120,0.077,-0.420,-3.010,-1.890
10819250,-0.994,-0.100,0.076,1.680,-0.980,-1.540
10819274,-0.998,-0.091,0.068,1.540,17.850,-0.980
10819294,-1.001,-0.079,0.071,-0.770,-0.630,-1.190
10819314,-1.003,-0.087,0.065,-1.960,0.210,-1.330
10819334,-0.997,-0.095,0.062,-1.400,1.120,-1.400
10819354,-1.007,-0.094,0.058,1.820,-0.210,-0.980
10819373,-0.994,-0.161,0.046,9.520,-0.140,0.560
10819397,-1.030,-0.016,0.049,3.010,-2.240,-0.280
10819416,-1.012,-0.086,0.049,-3.150,-4.480,-0.560
10819437,-0.998,-0.108,0.065,1.680,-2.590,-1.330
10819457,-1.002,-0.081,0.055,7.980,-0.420,-2.170
10819481,-1.014,-0.065,0.052,4.760,-3.360,-3.080
10819499,-1.009,-0.088,0.055,-0.070,-4.200,-2.520
10819523,-1.003,-0.109,0.060,-1.120,-4.130,-1.050
10819543,-0.989,-0.092,0.070,0.000,-3.010,-0.280
10819563,-0.996,-0.101,0.061,-0.070,-2.380,-0.490
10819578,-0.997,-0.089,0.066,3.500,-1.680,-0.840
10819604,-1.016,-0.080,0.047,1.820,-3.290,-1.190
10819623,-1.005,-0.079,0.061,-0.630,-3.920,-1.190
10819645,-1.001,-0.085,0.063,-0.350,-3.640,-1.120
10819665,-0.995,-0.086,0.060,1.890,-3.290,-1.330
10819689,-1.004,-0.095,0.060,3.080,-2.940,-1.750
10819709,-1.001,-0.088,0.063,3.010,-2.240,-1.330
10819729,-1.002,-0.078,0.065,-0.910,-2.310,-0.840
10819747,-0.997,-0.091,0.064,-2.030,-1.680,-0.630
10819771,-1.000,-0.098,0.064,-0.140,-0.840,-0.210
10819791,-1.004,-0.092,0.067,1.820,-0.070,-0.560
10819811,-1.007,-0.081,0.056,2.030,-0.140,-0.770
10819831,-1.002,-0.081,0.051,1.120,-0.560,-1.190
10819851,-1.003,-0.080,0.051,1.050,-1.470,-1.260
10819869,-1.002,-0.083,0.057,1.260,-1.540,-1.330
10819890,-1.005,-0.081,0.052,1.120,-1.750,-1.680
10819913,-1.003,-0.083,0.056,1.890,-1.540,-1.610
10819932,-1.001,-0.092,0.057,1.400,-1.540,-1.470
10819954,-1.004,-0.080,0.058,1.120,-1.540,-1.120
10819971,-1.006,-0.079,0.050,-1.120,-1.610,-1.050
10819996,-1.002,-0.080,0.056,-1.400,-1.960,-1.610
10820016,-1.001,-0.090,0.049,0.420,-2.170,-1.750
10820036,-1.007,-0.088,0.045,1.260,-2.730,-1.610
10820056,-1.007,-0.078,0.049,0.280,-3.850,-1.400
10820074,-1.003,-0.089,0.049,-0.280,-4.550,-1.540
10820094,-1.010,-0.087,0.038,0.630,-5.460,-1.470
10820117,-1.014,-0.076,0.046,0.700,-6.930,-1.960
10820138,-1.013,-0.066,0.045,-1.960,-8.540,-2.590
10820158,-1.004,-0.092,0.050,-0.910,-9.450,-2.870
10820174,-1.001,-0.096,0.059,0.630,-9.450,-2.730
10820196,-0.996,-0.083,0.075,0.980,-8.890,-2.590
10820215,-0.990,-0.088,0.075,0.770,-7.350,-2.380
10820239,-0.988,-0.086,0.077,1.400,-6.090,-2.450
10820259,-0.994,-0.093,0.077,1.120,-4.340,-2.800
10820277,-0.996,-0.096,0.076,2.660,-3.290,-2.450
10820298,-1.000,-0.083,0.078,1.960,-2.380,-1.750
10820320,-0.989,-0.090,0.073,0.630,-1.190,-1.890
10820338,-0.996,-0.093,0.072,1.400,-0.420,-1.540
10820358,-0.998,-0.100,0.067,3.780,0.210,-1.610
10820378,-1.000,-0.079,0.066,3.990,0.420,-1.540
10820402,-0.996,-0.093,0.066,3.710,0.000,-1.330
10820420,-1.000,-0.076,0.062,2.240,0.280,-1.050
10820441,-1.005,-0.097,0.057,1.610,-0.140,-1.120
10820459,-1.004,-0.082,0.059,1.960,-0.350,-1.120
10820478,-1.007,-0.081,0.053,0.840,-0.910,-1.260
10820503,-1.007,-0.082,0.064,-0.630,-1.680,-0.910
10820523,-0.997,-0.086,0.064,-1.960,-1.330,-0.420
10820538,-0.993,-0.096,0.067,-1.820,-0.630,0.070
10820563,-1.004,-0.083,0.060,-1.540,-0.280,0.140
10820583,-1.010,-0.077,0.044,-2.240,-1.470,-0.700
10820603,-1.006,-0.083,0.048,-2.240,-3.080,-1.120
10820621,-1.002,-0.093,0.059,-1.050,-3.500,-0.980
10820640,-0.999,-0.087,0.063,-0.840,-2.730,-0.700
10820664,-0.993,-0.078,0.061,-1.540,-2.450,-0.840
10820682,-1.003,-0.081,0.057,-2.240,-2.800,-1.330
10820703,-1.003,-0.080,0.058,-0.350,-2.520,-1.890
10820726,-0.997,-0.095,0.061,2.170,-1.820,-1.750
10820744,-1.002,-0.086,0.066,3.080,-0.770,-1.820
10820766,-0.994,-0.083,0.064,2.520,0.630,-1.610
10820785,-1.009,-0.078,0.052,2.940,0.630,-1.960
10820810,-1.005,-0.066,0.050,1.680,0.000,-2.380
10820828,-1.008,-0.093,0.041,1.400,-1.260,-2.660
10820849,-1.012,-0.086,0.038,2.240,-2.030,-2.240
10820868,-1.008,-0.076,0.054,0.280,-3.080,-2.450
10820887,-0.997,-0.092,0.054,0.350,-3.080,-2.520
10820912,-1.003,-0.081,0.049,0.490,-3.710,-2.240
10820927,-1.004,-0.074,0.054,-1.330,-4.620,-2.030
10820947,-0.998,-0.082,0.059,-2.450,-4.200,-2.380
10820972,-0.996,-0.101,0.064,0.840,-3.150,-2.170
10820992,-0.988,-0.094,0.075,2.380,-0.910,-1.890
10821012,-0.991,-0.081,0.058,1.610,0.210,-1.680
10821036,-0.999,-0.075,0.052,1.680,-0.070,-1.890
10821054,-1.002,-0.085,0.048,0.350,-0.490,-2.170
10821078,-0.998,-0.099,0.052,1.820,0.140,-2.240
10821097,-1.000,-0.077,0.057,2.730,0.840,-2.170
10821115,-1.004,-0.092,0.050,1.050,0.420,-2.170
10821139,-1.004,-0.074,0.041,0.770,0.490,-2.100
10821159,-1.016,-0.069,0.042,-1.260,-0.560,-2.100
10821176,-1.007,-0.098,0.046,-2.310,-1.190,-2.030
10821200,-0.988,-0.103,0.046,-0.700,0.210,-0.840
10821218,-1.016,-0.061,0.042,-2.520,-1.120,-0.980
10821240,-1.002,-0.097,0.041,-2.940,-1.330,-1.330
10821256,-0.996,-0.087,0.041,-1.050,-0.840,-0.910
10821275,-1.009,-0.077,0.040,-2.170,-1.890,-1.400
10821300,-1.009,-0.087,0.031,-1.750,-3.220,-1.120
10821320,-1.003,-0.088,0.044,-2.100,-3.290,-0.910
10821339,-0.994,-0.071,0.049,-3.360,-2.870,-1.260
10821359,-1.002,-0.090,0.045,-1.890,-2.730,-1.890
10821378,-1.007,-0.096,0.035,0.350,-3.150,-1.750
10821403,-1.014,-0.077,0.029,-2.590,-4.760,-0.980
10821423,-1.008,-0.077,0.039,-5.250,-5.600,-1.120
10821441,-1.010,-0.090,0.044,-4.900,-5.740,-1.190
10821461,-1.000,-0.122,0.048,-8.120,-5.810,-1.330
10821485,-0.994,-0.131,0.035,9.800,-3.920,0.700
10821505,-1.011,-0.071,0.039,2.800,-5.110,0.070
10821525,-0.996,-0.070,0.041,-0.840,-6.790,0.350
10821544,-1.002,-0.061,0.051,-2.030,-7.000,-0.770
10821563,-1.000,-0.110,0.050,3.500,-6.580,-2.450
10821587,-1.007,-0.091,0.050,10.570,-5.110,-2.520
10821607,-1.000,-0.050,0.052,4.340,-6.090,-2.940
10821627,-1.004,-0.085,0.055,1.540,-6.790,-2.380
10821644,-0.991,-0.095,0.065,0.910,-5.950,-1.470
10821667,-0.986,-0.091,0.072,1.260,-4.200,-0.910
10821687,-1.002,-0.078,0.061,0.770,-3.010,-0.700
10821707,-0.996,-0.088,0.058,1.050,-2.730,-0.700
10821727,-1.005,-0.072,0.055,0.490,-2.940,-0.560
10821748,-1.007,-0.076,0.040,-0.280,-3.990,-0.840
10821767,-1.009,-0.082,0.050,-0.980,-5.530,-1.260
10821791,-0.999,-0.089,0.057,0.350,-5.950,-1.260
10821811,-0.993,-0.087,0.070,1.120,-5.180,-1.050
10821831,-0.993,-0.081,0.069,0.070,-4.270,-0.630
10821849,-0.994,-0.087,0.071,0.070,-3.360,-0.350
10821873,-1.005,-0.077,0.065,-1.890,-2.730,-0.560
10821893,-0.998,-0.083,0.065,-1.190,-1.890,-0.630
10821912,-0.998,-0.087,0.065,0.420,-1.190,-0.560
10821932,-0.997,-0.072,0.060,0.910,-0.560,-1.120
10821956,-1.002,-0.079,0.055,1.190,-0.560,-1.540
10821973,-1.007,-0.074,0.054,1.400,-0.910,-1.750
10821991,-1.010,-0.070,0.054,-0.210,-1.540,-1.890
10822015,-1.001,-0.081,0.055,0.210,-2.170,-1.890
10822034,-1.011,-0.080,0.055,-0.210,-2.660,-1.960
10822059,-1.000,-0.089,0.062,0.980,-2.450,-1.540
10822074,-0.998,-0.079,0.061,1.120,-1.680,-1.400
10822099,-1.002,-0.079,0.064,-0.070,-1.960,-1.610
10822119,-1.005,-0.081,0.059,1.190,-1.960,-1.540
10822139,-1.002,-0.080,0.057,-0.070,-1.680,-1.540
10822157,-0.998,-0.086,0.058,0.560,-1.540,-1.470
10822176,-1.004,-0.066,0.055,0.420,-1.820,-1.750
10822200,-1.007,-0.083,0.058,0.070,-1.820,-1.820
10822219,-0.996,-0.083,0.065,0.280,-1.120,-1.400
10822239,-0.996,-0.077,0.059,-0.630,0.560,-1.330
10822263,-1.005,-0.083,0.050,1.330,0.140,-1.400
10822279,-1.001,-0.075,0.050,0.140,0.280,-1.610
10822303,-1.009,-0.080,0.044,-0.210,-1.190,-1.750
10822322,-1.004,-0.080,0.049,0.560,-1.330,-1.400
10822343,-1.002,-0.085,0.047,1.190,-1.400,-1.610
10822363,-1.005,-0.074,0.051,0.980,-1.260,-1.890
10822387,-1.003,-0.081,0.049,0.980,-1.330,-1.750
10822403,-0.998,-0.079,0.050,0.560,-1.120,-1.680
10822427,-1.002,-0.076,0.052,-0.070,-0.980,-1.750
10822447,-1.006,-0.081,0.045,0.770,-0.980,-1.820
10822467,-0.999,-0.082,0.053,1.750,-0.630,-1.890
10822487,-1.000,-0.076,0.041,0.630,-0.840,-1.960
10822507,-1.013,-0.088,0.035,1.050,-1.680,-1.470
10822525,-1.005,-0.077,0.041,0.140,-2.870,-1.260
10822546,-1.009,-0.079,0.037,-0.910,-4.060,-1.680
10822568,-1.016,-0.074,0.026,0.210,-5.530,-1.890
10822588,-1.014,-0.085,0.035,1.400,-7.070,-1.750
10822608,-1.010,-0.075,0.042,0.700,-8.470,-1.540
10822632,-1.009,-0.077,0.046,-0.280,-9.170,-1.400
10822652,-1.007,-0.074,0.054,-1.190,-10.220,-1.400
10822672,-0.999,-0.065,0.047,-1.820,-10.500,-1.190
10822692,-0.999,-0.067,0.057,-2.870,-10.780,-1.190
10822715,-0.999,-0.087,0.063,-1.820,-11.270,-1.750
10822736,-1.007,-0.081,0.085,-1.190,-10.430,-1.260
10822756,-0.998,-0.089,0.094,-1.750,-7.140,-0.210
10822780,-0.973,-0.097,0.087,-0.070,-3.360,0.070
10822799,-1.006,-0.072,0.073,0.910,-2.310,0.070
10822819,-0.999,-0.084,0.073,2.240,-2.100,-0.140
10822839,-1.004,-0.087,0.069,3.290,-1.540,-0.420
10822855,-0.998,-0.078,0.070,4.270,-1.470,-0.210
10822880,-0.994,-0.069,0.069,3.710,-1.190,-0.490
10822900,-1.002,-0.067,0.068,2.590,-0.910,-0.840
10822919,-0.996,-0.075,0.074,2.730,-0.350,-1.190
10822940,-0.998,-0.059,0.077,0.070,0.840,-1.050
10822960,-0.983,-0.084,0.074,-1.470,1.960,-0.910
10822983,-1.006,-0.074,0.057,-0.140,2.520,-0.140
10823007,-1.002,-0.063,0.053,-0.910,1.750,-0.700
10823024,-1.004,-0.080,0.050,-2.310,1.120,-1.260
10823044,-1.004,-0.080,0.052,0.700,0.630,-1.260
10823063,-1.001,-0.070,0.058,-0.630,0.350,-1.260
10823088,-1.002,-0.077,0.052,-0.700,0.280,-1.400
10823108,-1.008,-0.077,0.053,0.980,0.000,-1.330
10823128,-1.005,-0.074,0.057,0.630,0.280,-1.750
10823143,-0.998,-0.072,0.047,1.050,0.770,-1.470
10823168,-1.011,-0.076,0.042,0.980,-0.630,-1.610
10823187,-1.001,-0.077,0.054,0.770,-0.700,-1.470
10823207,-0.998,-0.076,0.046,0.910,-0.070,-1.400
10823231,-1.007,-0.072,0.042,0.560,-1.190,-0.910
10823249,-1.007,-0.065,0.041,0.140,-1.400,-0.770
10823270,-1.011,-0.075,0.041,0.000,-2.590,-0.980
10823291,-0.999,-0.075,0.050,0.560,-2.450,-0.980
10823311,-1.005,-0.075,0.045,1.120,-2.450,-0.980
10823329,-1.001,-0.074,0.048,1.470,-2.940,-0.980
10823349,-1.006,-0.064,0.041,1.050,-3.290,-1.260
10823368,-1.008,-0.069,0.046,0.350,-3.850,-1.260
10823392,-0.998,-0.071,0.055,0.910,-3.570,-1.610
10823412,-0.996,-0.077,0.056,1.750,-2.170,-1.540
10823432,-1.006,-0.069,0.050,2.240,-2.170,-1.820
10823452,-1.000,-0.070,0.051,1.750,-2.310,-2.100
10823476,-1.005,-0.067,0.051,0.840,-2.240,-2.030
10823496,-1.002,-0.076,0.049,0.490,-2.170,-2.100
10823511,-1.002,-0.064,0.044,1.470,-2.170,-2.450
10823534,-1.004,-0.076,0.041,1.750,-2.520,-2.520
10823556,-1.004,-0.072,0.052,2.240,-2.660,-2.100
10823580,-0.991,-0.071,0.055,0.560,-1.330,-1.890
10823600,-0.999,-0.086,0.057,1.120,-0.980,-1.540
10823620,-1.008,-0.073,0.026,1.540,-1.470,-1.400
10823642,-1.007,-0.050,0.034,-0.630,-3.080,-1.890
10823662,-1.009,-0.080,0.041,-2.100,-4.690,-1.820
10823682,-1.001,-0.081,0.046,-1.470,-4.760,-0.700
10823702,-1.005,-0.071,0.045,-1.610,-4.620,-0.420
10823727,-1.002,-0.065,0.040,-3.570,-5.250,-0.490
10823746,-1.008,-0.069,0.047,-4.830,-5.880,-0.840
10823761,-0.999,-0.086,0.062,-3.920,-5.390,-0.700
10823781,-1.003,-0.085,0.045,-1.610,-5.110,-0.910
10823806,-1.009,-0.063,0.056,0.140,-4.970,-1.050
10823824,-0.999,-0.071,0.057,-2.380,-5.040,-1.190
10823845,-0.990,-0.082,0.061,-2.100,-3.990,-0.910
10823868,-1.003,-0.071,0.056,-0.700,-3.570,-0.980
10823888,-1.009,-0.064,0.058,-0.770,-3.430,-1.330
10823906,-1.006,-0.087,0.060,1.050,-3.360,-1.330
10823931,-1.005,-0.044,0.053,-1.680,-3.010,-0.910
10823950,-1.002,-0.087,0.044,6.160,-3.080,0.560
10823967,-1.021,-0.034,0.050,3.570,-5.670,0.350
10823986,-1.011,-0.061,0.042,-2.240,-5.740,-0.420
10824006,-0.996,-0.054,0.060,-2.030,-6.930,-1.050
10824028,-0.985,-0.096,0.075,3.500,-4.340,-2.170
10824051,-1.014,-0.090,0.054,12.600,-2.030,-3.010
10824075,-1.011,-0.022,0.058,7.840,-3.990,-2.240
10824095,-1.012,-0.055,0.060,-0.420,-4.480,-2.520
10824113,-1.000,-0.086,0.055,-0.630,-4.480,-1.330
10824134,-1.002,-0.072,0.061,-0.840,-4.830,-1.190
10824152,-0.990,-0.093,0.067,0.910,-3.850,-0.840
10824170,-1.008,-0.058,0.067,3.220,-3.360,-0.700
10824195,-1.004,-0.049,0.062,-1.610,-2.940,-2.240
10824214,-0.995,-0.087,0.062,2.940,-1.820,-2.100
10824233,-1.005,-0.064,0.060,5.530,-1.540,-2.240
10824257,-1.013,-0.061,0.050,4.690,-2.730,-2.870
10824281,-1.005,-0.075,0.061,4.690,-3.430,-2.450
10824301,-1.003,-0.057,0.080,1.400,-4.130,-2.310
10824317,-0.996,-0.068,0.075,-0.910,-3.360,-2.520
10824337,-0.993,-0.081,0.072,0.140,-1.750,-1.820
10824360,-0.996,-0.079,0.067,0.840,-1.120,-1.470
10824377,-1.002,-0.070,0.064,0.840,-0.980,-1.680
10824400,-1.009,-0.069,0.060,2.380,-1.190,-1.610
10824421,-1.003,-0.078,0.060,-0.070,-2.590,-3.150
10824441,-0.999,-0.075,0.048,3.570,-1.820,-1.540
10824459,-1.001,-0.064,0.054,4.130,-0.980,-1.190
10824483,-1.017,-0.065,0.054,2.520,-1.540,-1.260
10824503,-1.010,-0.072,0.051,2.730,-2.170,-0.350
10824524,-1.002,-0.069,0.053,2.030,-1.820,0.070
10824542,-1.001,-0.065,0.056,2.380,-2.100,0.350
10824562,-1.002,-0.069,0.060,2.170,-2.380,0.560
10824582,-1.004,-0.066,0.062,1.260,-2.380,0.630
10824603,-1.003,-0.070,0.063,1.470,-1.610,0.420
10824625,-1.006,-0.061,0.053,2.380,-1.330,0.350
10824645,-1.007,-0.071,0.058,2.940,-1.610,0.210
10824667,-1.007,-0.061,0.052,1.750,-1.960,0.490
10824687,-1.012,-0.059,0.056,0.840,-2.800,0.630
10824711,-1.006,-0.059,0.061,-0.420,-3.080,0.420
10824731,-1.005,-0.068,0.058,-0.560,-2.450,0.070
10824747,-1.002,-0.063,0.060,0.560,-2.100,0.140
10824770,-1.002,-0.062,0.060,0.000,-1.680,-0.280
10824791,-1.004,-0.060,0.057,-0.560,-1.680,-0.350
10824811,-0.998,-0.057,0.059,-1.330,-1.260,-0.770
10824829,-1.005,-0.060,0.058,-1.050,-1.330,-0.700
10824853,-1.004,-0.057,0.056,-1.540,-1.260,-0.980
10824868,-1.005,-0.069,0.057,-1.050,-0.770,-1.120
10824893,-0.999,-0.064,0.056,0.210,0.000,-0.700
10824912,-1.002,-0.056,0.054,-0.350,0.350,-0.630
10824933,-1.001,-0.058,0.056,-1.260,0.630,-0.630
10824953,-0.997,-0.063,0.053,-0.630,1.120,-0.770
10824976,-0.998,-0.060,0.049,-0.210,1.470,-0.630
10824997,-1.008,-0.061,0.047,0.000,1.610,-1.120
10825016,-1.003,-0.062,0.047,0.910,1.470,-0.910
10825036,-1.006,-0.057,0.038,0.140,1.260,-1.120
10825060,-1.007,-0.056,0.035,0.420,0.210,-1.260
10825079,-1.010,-0.054,0.036,0.210,-0.280,-1.190
10825100,-1.002,-0.064,0.041,-0.210,-0.490,-1.120
10825119,-1.007,-0.060,0.038,0.630,-0.350,-1.400
10825136,-1.005,-0.061,0.042,1.680,-0.910,-1.260
10825160,-1.002,-0.060,0.033,1.680,-0.280,-1.330
10825181,-1.005,-0.056,0.038,1.890,-0.420,-1.540
10825199,-1.020,-0.054,0.037,2.940,-2.170,-1.820
10825221,-1.011,-0.056,0.037,2.030,-0.700,-1.610
10825240,-0.997,-0.058,0.032,1.820,-0.280,-1.470
10825262,-1.018,-0.061,0.033,0.910,-1.540,-1.540
10825287,-1.011,-0.051,0.029,0.140,-0.770,-1.470
10825304,-1.004,-0.057,0.032,0.140,-0.700,-1.610
10825326,-1.010,-0.060,0.028,0.560,-1.260,-1.540
10825344,-1.006,-0.050,0.028,0.560,-1.330,-1.820
10825366,-1.004,-0.059,0.030,0.070,-1.680,-1.680
10825388,-1.001,-0.053,0.031,0.070,-1.540,-1.680
10825408,-1.004,-0.059,0.034,0.070,-1.260,-1.470
10825427,-1.005,-0.061,0.030,0.490,-1.260,-1.610
10825446,-1.007,-0.056,0.026,0.910,-1.260,-1.680
10825465,-1.007,-0.056,0.027,0.910,-1.400,-1.750
10825489,-1.012,-0.055,0.026,0.350,-1.820,-1.750
10825509,-1.007,-0.056,0.029,0.420,-1.540,-1.890
10825530,-1.007,-0.057,0.027,0.700,-1.540,-2.030
10825553,-1.005,-0.054,0.026,0.980,-1.470,-1.820
10825572,-1.001,-0.058,0.024,0.630,-1.750,-1.820
10825592,-0.999,-0.057,0.028,0.770,-1.470,-1.890
10825612,-1.006,-0.059,0.027,0.700,-1.190,-2.030
10825629,-1.005,-0.057,0.021,0.980,-1.190,-2.030
10825653,-1.004,-0.060,0.026,0.980,-1.260,-2.170
10825671,-1.005,-0.054,0.023,0.910,-0.980,-2.170
10825693,-1.002,-0.060,0.027,0.840,-0.980,-2.030
10825712,-1.009,-0.056,0.020,1.050,-1.400,-2.380
10825732,-1.004,-0.060,0.020,0.840,-1.400,-2.170
10825754,-1.004,-0.055,0.022,0.770,-1.400,-2.310
10825770,-1.006,-0.059,0.021,1.120,-1.470,-2.240
10825791,-1.005,-0.060,0.020,1.400,-1.820,-2.450
10825814,-1.006,-0.057,0.019,0.840,-1.820,-2.380
10825838,-1.003,-0.061,0.020,0.840,-1.890,-2.380
10825853,-1.004,-0.059,0.022,1.190,-1.750,-2.450
10825875,-1.003,-0.062,0.019,1.050,-1.610,-2.380
10825897,-1.007,-0.059,0.018,0.910,-1.820,-2.450
10825917,-1.006,-0.062,0.015,0.980,-1.680,-2.380
10825941,-1.004,-0.059,0.020,0.700,-1.890,-2.450
10825961,-1.003,-0.064,0.020,0.770,-1.890,-2.380
10825978,-1.006,-0.060,0.016,1.050,-1.890,-2.240
10826002,-1.008,-0.059,0.022,0.840,-1.890,-2.380
10826017,-1.003,-0.062,0.018,1.120,-1.400,-2.380
10826042,-1.004,-0.064,0.018,1.120,-1.890,-2.310
10826062,-1.014,-0.058,0.015,0.910,-2.310,-2.450
10826081,-1.008,-0.063,0.013,0.980,-2.590,-2.450
10826102,-1.005,-0.062,0.017,0.770,-2.730,-2.310
10826121,-1.002,-0.065,0.018,0.700,-2.380,-2.310
10826141,-1.003,-0.061,0.019,0.700,-2.310,-2.310
10826161,-1.005,-0.061,0.015,1.120,-2.240,-2.380
10826181,-1.006,-0.058,0.014,0.840,-2.520,-2.380
10826205,-1.009,-0.059,0.011,0.140,-3.150,-2.730
10826225,-1.005,-0.071,0.023,0.490,-2.870,-2.380
10826244,-0.991,-0.052,0.029,1.400,-1.330,-2.240
10826265,-1.018,-0.071,0.015,-0.350,-0.840,-2.380
10826284,-0.990,-0.060,0.027,0.700,0.350,-1.750
10826309,-0.996,-0.047,0.012,-4.270,0.140,-1.820
10826328,-1.023,-0.081,0.023,-4.620,-1.050,-1.610
10826348,-0.993,-0.089,0.024,-1.890,2.100,0.210
10826367,-0.999,-0.067,0.020,-2.660,4.060,1.120
10826392,-1.003,-0.062,0.011,-3.500,4.760,1.890
10826412,-0.991,-0.070,0.019,-4.480,5.460,2.450
10826430,-0.999,-0.071,0.004,-2.520,6.720,2.450
10826450,-1.001,-0.053,-0.003,-3.570,6.860,2.380
10826474,-1.006,-0.077,-0.016,-2.870,6.440,3.080
10826494,-1.019,-0.070,-0.017,-2.240,5.950,3.780
10826514,-1.019,-0.059,-0.022,-0.560,4.340,4.130
10826532,-1.016,-0.049,-0.011,-1.960,3.850,4.130
10826551,-1.021,-0.061,-0.016,-0.910,3.920,4.690
10826571,-1.008,-0.043,-0.006,1.540,4.480,6.020
10826594,-1.007,-0.027,0.003,-0.490,6.510,6.580
10826617,-1.022,-0.029,-0.007,-2.450,8.120,6.720
10826638,-1.021,-0.033,-0.027,-0.420,9.310,7.630
10826656,-0.995,-0.004,-0.037,-3.080,11.970,7.210
10826676,-0.982,-0.011,-0.025,-14.280,11.620,5.110
10826700,-1.020,-0.043,-0.041,-17.010,10.920,3.010
10826718,-1.024,-0.019,-0.039,-15.050,10.500,1.120
10826739,-1.014,0.042,-0.068,-20.020,10.570,-1.960
10826763,-1.008,-0.004,-0.071,-31.010,7.560,-3.430
10826783,-1.000,-0.068,-0.103,-26.180,7.980,-3.990
10826802,-1.017,-0.108,-0.141,-37.030,2.800,-9.870
10826820,-1.006,-0.025,-0.132,-52.080,2.870,-14.070
10826843,-1.077,-0.038,-0.374,-80.500,9.030,-20.440
10826865,-1.051,-0.176,-0.392,-83.160,18.480,-25.830
10826886,-0.871,-0.111,-0.376,-61.600,31.220,-20.720
10826905,-0.929,-0.007,-0.376,-54.670,52.220,-16.520
10826927,-0.967,-0.089,-0.385,-44.800,59.570,-18.620
10826948,-0.973,0.007,-0.310,-33.460,70.770,-16.310
10826972,-0.996,-0.106,-0.181,-21.140,70.210,-15.960
10826992,-0.981,-0.108,0.017,-5.180,56.840,-12.040
10827012,-0.965,-0.095,0.202,21.770,23.940,-8.260
10827032,-0.956,0.037,0.282,21.070,-9.380,-8.820
10827050,-0.985,-0.009,0.305,17.360,-42.000,-9.380
10827070,-0.937,-0.011,0.169,18.970,-55.860,-3.360
10827094,-1.093,-0.252,0.008,22.540,-67.690,-27.650
10827113,-0.752,-0.235,-0.219,79.660,-43.540,5.040
10827134,-0.855,-0.186,-0.683,18.760,-39.410,-18.550
10827154,-0.994,0.225,-0.211,10.360,-18.690,-1.610
10827177,-1.039,0.326,-0.074,-43.820,-39.690,-10.150
10827197,-1.029,-0.266,-0.040,-16.170,3.080,-19.880
10827216,-1.114,-0.269,-0.050,40.880,-9.520,-19.670
10827241,-0.977,-0.082,-0.043,29.610,-6.650,-17.150
10827261,-0.957,-0.161,-0.151,-0.770,-5.110,-13.090
10827281,-1.007,-0.108,-0.136,6.720,-2.030,-13.020
10827300,-1.069,-0.081,-0.150,6.860,-7.630,-18.130
10827320,-0.984,-0.082,-0.142,2.100,-8.260,-17.080
10827341,-0.962,-0.153,-0.104,5.390,-4.900,-12.110
10827361,-0.985,-0.204,-0.016,6.860,-1.400,-15.540
10827384,-1.005,-0.179,-0.113,16.730,3.710,-11.200
10827400,-0.941,-0.086,-0.099,9.520,5.600,-9.240
10827424,-0.982,-0.151,-0.097,9.030,6.580,-6.580
10827445,-0.942,-0.171,-0.059,8.750,14.280,-5.600
10827461,-0.980,-0.247,-0.110,9.590,15.470,-4.830
10827485,-0.988,-0.140,-0.091,12.600,18.130,-2.870
10827505,-1.037,-0.067,-0.065,-2.660,18.690,-7.140
10827524,-0.944,-0.191,-0.111,-12.110,23.870,-4.620
10827544,-0.933,-0.210,-0.128,-3.990,28.070,-2.660
10827565,-0.967,-0.120,-0.202,-2.240,22.820,-3.360
10827584,-1.014,-0.163,-0.175,-6.370,17.360,-3.430
10827604,-0.973,-0.199,-0.201,-3.290,17.850,-1.260
10827628,-0.934,-0.136,-0.223,-13.510,16.170,-4.900
10827648,-0.981,-0.155,-0.223,-9.380,12.740,-4.620
10827668,-0.982,-0.165,-0.194,-2.800,14.770,-2.520
10827687,-0.951,-0.152,-0.183,1.050,19.040,-1.120
10827711,-0.948,-0.165,-0.229,-8.260,18.970,-3.570
10827731,-0.927,-0.226,-0.237,2.030,23.520,0.210
10827751,-0.953,-0.213,-0.173,10.430,27.930,4.900
10827771,-0.917,-0.251,-0.179,17.080,33.600,7.420
10827791,-0.955,0.038,-0.263,9.520,34.160,2.520
10827810,-0.991,-0.123,-0.260,-6.160,31.780,-5.040
10827833,-0.915,-0.221,-0.233,-10.920,36.750,-3.080
10827853,-0.885,-0.197,-0.299,-6.580,40.950,0.980
10827874,-0.968,-0.148,-0.292,0.350,42.280,0.490
10827896,-0.966,-0.164,-0.347,-1.330,42.560,-1.470
10827915,-0.922,-0.171,-0.400,1.260,43.470,1.750
10827940,-0.902,-0.155,-0.350,-2.520,40.950,2.800
10827960,-0.904,-0.130,-0.413,-7.980,39.200,2.730
10827980,-0.877,-0.141,-0.373,-2.730,40.810,5.040
10828000,-0.930,-0.184,-0.353,-2.590,43.960,4.270
10828020,-0.905,-0.110,-0.430,-3.360,49.490,3.990
10828044,-0.876,-0.090,-0.461,-9.940,44.940,1.750
10828064,-0.876,-0.192,-0.487,-9.520,44.170,3.990
10828081,-0.819,-0.131,-0.497,-11.550,35.770,3.710
10828105,-0.881,-0.118,-0.505,-15.540,31.290,4.550
10828124,-0.830,-0.175,-0.490,-14.560,29.820,9.170
10828145,-0.854,-0.147,-0.501,-4.690,32.480,14.840
10828165,-0.836,-0.090,-0.529,-5.110,33.250,17.990
10828185,-0.853,-0.110,-0.510,-5.880,33.250,19.740
10828205,-0.878,-0.127,-0.538,-5.740,31.010,23.660
10828229,-0.968,-0.047,-0.557,-10.850,26.250,25.550
10828250,-0.832,-0.013,-0.569,-15.610,28.070,24.710
10828268,-0.875,-0.091,-0.550,-15.750,29.890,24.360
10828289,-0.957,-0.063,-0.564,-11.970,30.030,25.830
10828308,-0.962,-0.025,-0.528,-13.020,26.320,23.170
10828332,-1.057,-0.030,-0.532,-20.510,31.990,17.360
10828356,-0.890,0.096,-0.555,-27.300,48.510,21.210
10828376,-0.935,0.085,-0.511,-36.260,54.390,16.800
10828395,-0.764,0.122,-0.574,-28.770,58.240,19.320
10828416,-0.805,0.082,-0.650,-23.590,58.660,19.460
10828436,-0.734,0.103,-0.738,-11.200,52.150,22.470
10828454,-0.683,0.065,-0.826,-4.130,42.630,22.260
10828476,-0.603,0.098,-0.786,11.270,30.590,30.380
10828494,-0.671,0.016,-0.785,10.710,24.010,30.660
10828513,-0.599,0.013,-0.712,22.260,25.550,33.180
10828533,-0.704,-0.029,-0.660,31.920,26.040,29.960
10828557,-0.640,-0.006,-0.617,14.210,34.650,22.820
10828573,-0.612,-0.096,-0.645,-8.050,43.960,18.830
10828593,-0.575,-0.326,-0.875,-35.490,62.580,11.270
10828613,-0.559,-0.157,-0.939,-58.520,96.670,10.430
10828637,-0.508,-0.132,-0.854,-86.730,118.790,2.730
10828653,-0.445,0.174,-0.521,-79.030,111.440,4.690
10828673,-0.263,-0.018,-0.336,-27.160,91.910,10.780
10828697,-0.395,0.226,-0.162,32.900,46.480,10.570
10828717,-0.150,0.553,-1.213,25.340,47.880,13.370
10828738,-0.739,0.528,-0.831,33.110,71.750,31.570
10828757,-0.395,0.320,-0.773,24.710,64.190,25.410
10828781,-0.509,0.200,-1.016,53.130,75.880,32.550
10828799,-0.549,0.137,-0.847,65.380,79.870,31.850
10828821,-0.500,0.113,-0.913,56.560,88.690,22.960
10828841,-0.450,-0.003,-0.863,46.760,85.470,14.420
10828861,-0.266,-0.113,-0.960,37.730,86.660,14.420
10828881,-0.191,-0.077,-0.983,27.090,82.180,7.070
10828901,-0.255,-0.057,-1.022,11.620,67.130,0.420
10828920,-0.404,-0.041,-1.010,-5.530,76.510,-1.120
10828942,-0.398,-0.055,-1.015,-7.140,76.650,-3.640
10828963,-0.407,-0.037,-1.017,-9.170,77.070,-10.010
10828982,-0.250,0.053,-0.963,-34.160,78.470,-14.980
10829007,-0.167,0.020,-1.033,-29.190,79.450,-18.060
10829027,-0.115,-0.011,-1.073,-28.560,76.300,-16.450
10829046,-0.017,0.032,-1.004,-24.220,65.660,-14.140
10829062,0.114,0.157,-1.010,-24.430,58.730,-10.570
10829085,0.089,0.185,-0.990,-15.330,43.820,-7.980
10829104,0.105,0.260,-1.119,-7.770,34.230,-5.320
10829124,-0.027,0.163,-1.073,-0.420,30.730,-2.030
10829144,-0.081,0.106,-1.019,3.430,30.660,-2.380
10829169,-0.002,0.127,-0.945,0.560,33.110,-4.410
10829187,0.024,0.123,-1.020,-6.370,32.970,-5.600
10829207,-0.103,-0.010,-1.016,-6.160,40.180,-3.780
10829231,-0.078,-0.071,-0.956,-13.020,44.590,-7.700
10829251,0.142,-0.019,-1.011,-24.850,38.640,-12.110
10829271,0.174,-0.007,-1.035,-24.360,34.160,-8.050
10829291,0.202,0.082,-0.970,-13.370,25.620,-1.960
10829310,0.238,0.149,-0.937,-7.840,13.860,3.780
10829334,0.369,0.241,-0.974,-3.710,-16.800,9.380
10829354,0.422,0.303,-0.988,1.260,-11.340,13.090
10829374,0.315,0.275,-0.988,12.180,-26.670,14.490
10829394,0.167,0.186,-1.039,13.860,-34.160,10.500
10829414,0.018,0.013,-1.051,12.810,-40.250,0.700
10829434,0.040,0.013,-0.993,3.780,-43.610,-9.450
10829458,0.197,0.107,-0.941,-11.410,-56.700,-20.860
10829478,0.261,0.187,-1.001,-16.590,-66.570,-24.080
10829497,0.200,0.142,-1.018,-24.360,-78.050,-24.220
10829516,0.172,0.114,-0.929,-17.010,-83.160,-25.060
10829540,0.073,0.096,-0.923,-10.990,-90.790,-26.320
10829560,0.009,0.182,-0.975,-12.950,-93.450,-26.180
10829579,-0.130,0.116,-0.907,-7.350,-95.620,-23.660
10829598,-0.119,0.048,-1.055,5.250,-97.160,-20.510
10829623,-0.100,0.289,-0.855,13.860,-99.330,-19.110
10829641,-0.183,0.215,-0.890,13.720,-106.330,-18.340
10829661,-0.296,0.356,-0.858,0.630,-102.060,-11.410
10829684,-0.217,-0.078,-1.569,-14.560,-95.830,-18.690
10829705,-0.500,-0.145,-0.737,45.780,-103.740,-25.200
10829725,-0.082,-0.008,-0.901,42.210,-87.150,-29.610
10829745,-0.326,0.312,-0.826,11.340,-91.490,-25.060
10829764,-0.437,0.107,-0.891,-52.010,-87.570,-26.250
10829789,-0.511,-0.074,-0.833,-19.670,-68.810,-27.720
10829809,-0.550,0.037,-0.819,19.110,-63.280,-21.840
10829833,-0.438,0.106,-0.794,43.330,-56.910,-8.750
10829852,-0.464,0.369,-0.792,13.230,-52.500,-8.400
10829871,-0.478,0.122,-0.842,-13.090,-49.350,-12.460
10829891,-0.635,-0.052,-0.794,-4.830,-46.130,-21.070
10829910,-0.643,0.045,-0.733,4.340,-41.230,-21.630
10829933,-0.431,-0.116,-0.737,17.500,-40.740,-22.820
10829952,-0.209,-0.021,-0.879,30.030,-47.670,-25.200
10829973,-0.297,0.019,-0.867,12.810,-59.360,-24.290
10829995,-0.427,0.091,-0.844,-15.540,-59.780,-21.840
10830015,-0.831,0.081,-0.721,-17.500,-65.870,-17.080
10830034,-0.897,0.041,-0.610,12.950,-52.290,-11.270
10830059,-0.779,0.063,-0.708,36.120,-44.170,-20.720
10830076,-0.798,0.113,-0.720,33.530,-38.010,-25.060
10830098,-0.769,0.111,-0.789,24.640,-44.380,-26.250
10830122,-0.667,0.104,-0.852,4.130,-51.100,-26.670
10830142,-0.641,0.147,-0.724,4.620,-51.940,-24.990
10830162,-0.647,0.104,-0.841,24.290,-57.610,-24.710
10830182,-0.807,-0.070,-0.664,32.060,-55.230,-26.740
10830206,-0.850,-0.193,-0.567,28.280,-64.890,-28.210
10830226,-0.795,-0.285,-0.554,2.100,-78.960,-19.600
10830246,-0.590,-0.107,-0.659,18.480,-74.340,-1.960
10830266,-0.797,-0.145,-0.624,37.660,-61.180,10.990
10830286,-0.991,0.055,-0.510,53.200,-42.700,11.550
10830302,-1.147,0.168,-0.460,42.560,-40.110,0.280
10830323,-0.917,-0.061,-0.562,35.490,-41.160,-10.920
10830343,-0.822,-0.017,-0.504,16.800,-31.290,-14.000
10830363,-0.809,-0.175,-0.567,10.640,-25.550,-10.360
10830387,-0.745,-0.198,-0.528,17.360,-21.630,-5.110
10830407,-0.909,0.019,-0.588,20.370,-28.490,-7.210
10830423,-0.893,-0.033,-0.547,15.050,-29.190,-5.950
10830446,-0.800,-0.161,-0.525,15.960,-30.380,-4.690
10830466,-0.866,-0.091,-0.596,19.320,-32.830,-6.860
10830485,-0.887,-0.122,-0.593,14.280,-40.530,-4.760
10830505,-0.917,-0.105,-0.491,12.670,-41.720,-6.230
10830529,-0.948,-0.061,-0.483,3.640,-41.440,-6.370
10830544,-0.864,-0.156,-0.504,6.370,-38.920,-1.680
10830567,-0.802,-0.138,-0.470,7.770,-34.230,3.920
10830586,-0.812,-0.159,-0.436,10.780,-32.690,4.130
10830610,-0.807,-0.142,-0.471,14.420,-36.120,11.550
10830630,-0.800,-0.130,-0.419,13.160,-40.250,9.870
10830650,-0.888,-0.136,-0.465,14.070,-43.610,9.170
10830669,-0.836,-0.049,-0.486,18.340,-44.450,9.660
10830690,-0.887,-0.155,-0.349,18.270,-42.630,9.310
10830714,-1.011,-0.152,-0.338,13.160,-43.470,11.410
10830734,-0.944,-0.077,-0.332,8.400,-43.540,10.850
10830753,-0.948,-0.101,-0.341,5.670,-40.740,9.940
10830774,-0.879,-0.188,-0.347,9.450,-41.860,11.060
10830790,-0.769,-0.155,-0.338,14.700,-43.190,13.580
10830814,-1.058,-0.070,-0.134,7.000,-33.670,12.040
10830834,-1.043,-0.006,-0.243,-0.490,-25.620,9.660
10830854,-0.925,-0.108,-0.306,-4.830,-24.360,6.440
10830874,-0.952,-0.031,-0.304,-18.830,-25.900,6.020
10830894,-0.971,-0.097,-0.321,-20.020,-30.450,4.830
10830909,-0.952,-0.087,-0.279,-16.660,-31.640,6.020
10830934,-0.989,-0.068,-0.280,-14.210,-30.590,2.030
10830954,-1.039,-0.044,-0.264,-14.070,-36.260,0.770
10830973,-0.923,-0.006,-0.231,-17.920,-35.560,-0.070
10830990,-0.927,-0.085,-0.189,-24.150,-29.890,0.140
10831013,-0.953,-0.136,-0.167,-15.750,-27.650,0.140
10831033,-0.955,-0.095,-0.211,-4.830,-27.160,0.490
10831052,-0.938,-0.014,-0.213,-5.810,-27.510,0.070
10831071,-0.988,0.024,-0.181,-13.720,-34.650,-0.350
10831090,-0.902,-0.026,-0.212,-23.100,-15.890,-0.840
10831110,-1.023,-0.063,-0.144,-28.980,-14.980,-4.270
10831135,-1.013,-0.105,-0.157,-26.530,-13.720,-2.380
10831150,-1.015,-0.221,-0.132,-3.990,-9.170,-1.470
10831171,-0.991,-0.085,-0.181,14.490,-9.380,0.000
10831193,-0.983,0.011,-0.151,5.320,-10.220,-0.420
10831213,-0.980,-0.048,-0.175,0.070,-8.820,-1.050
10831233,-0.981,0.008,-0.180,-2.240,-10.500,-1.260
10831257,-1.020,-0.030,-0.178,-11.550,-10.570,-1.890
10831276,-0.971,-0.129,-0.153,-11.060,-10.500,0.140
10831295,-0.976,-0.131,-0.149,-1.820,-9.380,3.360
10831317,-1.072,-0.002,-0.116,-20.230,-15.680,-0.210
10831337,-0.945,-0.017,-0.098,-34.160,-17.710,-1.470
10831361,-0.856,-0.037,-0.102,-24.080,-4.060,3.500
10831381,-0.955,-0.040,-0.110,-17.570,6.090,4.270
10831398,-1.030,-0.092,-0.103,-3.360,10.500,4.270
10831422,-0.938,-0.101,-0.074,0.840,19.390,6.230
10831442,-0.913,-0.071,-0.061,3.290,36.260,10.920
10831462,-0.929,-0.089,0.038,9.730,52.500,12.740
10831485,-0.978,-0.156,-0.029,13.930,81.480,14.770
10831505,-1.147,-0.103,-0.054,19.880,113.050,19.740
10831529,-1.302,0.093,-0.196,20.300,117.390,26.460
10831549,-1.436,0.032,-0.129,-37.590,120.960,30.100
10831567,-1.432,-0.117,-0.224,-34.370,132.440,34.440
10831588,-1.363,-0.156,-0.255,-6.650,145.180,42.770
10831607,-1.367,-0.156,-0.408,8.680,136.990,45.710
10831632,-1.253,-0.119,-0.535,33.530,122.220,54.600
10831651,-1.177,-0.021,-0.459,38.640,101.710,47.320
10831675,-0.925,-0.007,-0.486,20.580,70.210,34.510
10831694,-0.800,0.247,0.137,28.210,56.000,39.550
10831715,-0.758,-0.227,0.352,10.220,8.330,19.250
10831738,-0.870,-0.407,0.125,86.100,-66.220,4.760
10831761,-0.918,-0.099,0.091,123.200,-87.500,2.310
10831782,-0.885,0.056,0.113,105.630,-116.200,-3.010
10831798,-0.863,0.101,0.009,83.370,-144.270,-5.040
10831818,-0.966,0.136,-0.087,63.910,-167.650,-3.500
10831842,-1.017,0.114,-0.169,41.580,-189.280,-1.470
10831862,-1.112,0.049,-0.262,30.660,-204.120,-1.050
10831882,-1.167,-0.095,-0.298,39.830,-208.110,17.640
10831898,-1.191,-0.087,-0.273,52.780,-211.960,2.100
10831921,-1.202,-0.004,-0.265,55.090,-217.980,5.460
10831942,-1.158,0.080,-0.211,44.450,-217.910,10.430
10831962,-1.239,0.047,-0.219,29.610,-218.540,12.670
10831980,-1.241,-0.061,-0.247,29.890,-221.410,17.360
10831998,-1.229,-0.036,-0.399,40.110,-212.590,27.230
10832022,-1.049,-0.177,-0.482,31.360,-188.930,18.130
10832042,-1.119,0.062,-0.252,18.410,-155.190,17.080
10832062,-1.111,0.092,-0.086,-4.200,-139.650,10.150
10832081,-0.847,0.013,-0.012,-9.800,-121.590,9.730
10832106,-0.811,-0.044,0.066,-29.190,-88.690,9.450
10832125,-0.700,-0.149,-0.306,18.200,-64.400,6.020
10832145,-0.757,-0.141,-0.078,40.670,-38.290,-1.820
10832164,-0.695,-0.106,0.092,48.790,-12.250,-1.890
10832185,-0.650,-0.188,-0.265,71.960,17.080,-1.680
10832209,-0.664,-0.102,-0.162,86.450,50.330,-12.180
10832229,-0.714,0.032,0.570,50.820,98.630,-22.120
10832249,-1.387,0.869,1.973,22.820,75.180,-23.660
10832268,-0.850,0.338,-0.453,-21.000,40.390,-14.070
10832289,-1.599,0.058,0.871,-45.360,141.960,-16.590
10832308,-1.329,0.031,-0.150,29.750,142.310,-18.830
10832327,-1.806,0.146,-0.004,13.090,107.940,-38.080
10832348,-0.716,-0.041,-0.031,3.640,88.970,-44.030
10832369,-1.088,-0.034,0.012,-8.890,127.120,-37.030
10832391,-1.011,-0.066,-0.044,-19.320,120.260,-43.960
10832412,-0.750,-0.180,0.138,14.490,125.650,-33.250
10832431,-0.962,-0.018,-0.221,-14.770,77.070,-30.730
10832456,-1.244,0.238,0.002,-12.460,97.440,-26.180
10832476,-0.966,-0.086,-0.099,-6.090,100.310,-29.750
10832496,-1.049,-0.009,0.295,4.200,99.120,-29.960
10832515,-0.777,-0.359,-0.225,9.450,120.890,-31.570
10832534,-1.064,0.045,-0.232,25.270,96.600,-24.570
10832559,-0.954,-0.230,-0.049,9.870,92.120,-15.400
10832575,-0.879,-0.179,-0.109,38.990,107.380,-13.370
10832599,-0.762,-0.053,-0.297,33.810,102.060,-15.330
10832618,-1.194,-0.095,-0.390,15.750,94.640,-15.540
10832635,-1.266,0.081,-0.379,-10.430,85.540,-25.900
10832655,-0.900,-0.228,-0.384,2.030,76.580,-29.190
10832678,-0.877,-0.247,-0.407,7.700,81.970,-20.510
10832701,-0.751,-0.097,-0.572,13.860,67.830,-12.810
10832721,-0.872,0.098,-0.344,27.650,79.870,-9.240
10832742,-1.036,-0.284,-0.257,20.090,75.460,-12.880
10832761,-0.935,-0.230,-0.446,10.220,75.600,-11.200
10832785,-0.866,-0.074,-0.465,13.580,62.090,-11.270
10832805,-0.712,-0.087,-0.585,-3.780,64.820,-6.090
10832824,-0.588,-0.225,-0.563,0.630,54.670,-6.720
10832843,-0.742,-0.012,-0.709,-8.540,41.930,-10.290
10832863,-1.211,0.109,-0.722,-19.250,34.300,-14.070
10832887,-0.926,-0.176,-0.628,-13.440,26.670,-22.890
10832907,-0.631,-0.223,-0.610,-2.520,12.880,-23.380
10832931,-0.495,-0.320,-0.524,1.260,11.830,-23.940
10832950,-0.670,-0.098,-0.724,-0.070,32.970,-26.250
10832971,-1.237,-0.143,-0.651,-3.990,30.590,-27.790
10832990,-0.898,-0.240,-0.657,-1.120,2.660,-21.560
10833013,-0.840,-0.244,-0.595,-7.210,-3.010,-14.070
10833034,-0.614,-0.262,-0.551,-3.430,3.990,-12.460
10833053,-0.755,-0.217,-0.635,-5.390,5.180,-14.070
10833073,-0.935,-0.162,-0.688,0.140,-2.450,-13.300
10833093,-0.819,-0.283,-0.641,1.960,3.150,-6.860
10833113,-0.708,-0.239,-0.575,4.550,-0.910,-7.630
10833138,-0.718,-0.230,-0.578,-4.340,-12.880,-6.860
10833157,-0.711,-0.284,-0.603,-5.040,-19.250,-3.570
10833176,-0.830,-0.224,-0.656,-3.430,-20.860,-1.680
10833195,-0.890,-0.120,-0.635,-12.250,-28.350,1.190
10833219,-0.794,-0.225,-0.633,-14.910,-31.640,1.050
10833239,-0.876,-0.126,-0.570,-13.440,-32.060,-1.680
10833262,-0.710,-0.223,-0.607,-18.760,-35.770,-3.500
10833283,-0.809,-0.180,-0.605,-14.840,-40.950,-2.310
10833302,-0.760,-0.196,-0.569,-12.880,-41.720,-1.400
10833322,-0.785,-0.242,-0.506,-9.380,-38.500,-1.470
10833342,-0.949,-0.151,-0.601,-15.680,-47.320,1.610
10833361,-0.889,-0.144,-0.567,-20.720,-52.570,7.560
10833386,-0.646,-0.403,-0.488,-15.260,-49.000,9.310
10833406,-0.835,-0.245,-0.549,4.340,-52.150,15.820
10833427,-0.996,-0.079,-0.541,9.800,-49.700,18.970
10833448,-1.000,-0.222,-0.480,2.870,-56.000,23.240
10833468,-0.806,-0.173,-0.479,1.330,-64.260,24.500
10833488,-0.819,-0.244,-0.458,10.780,-65.450,22.260
10833512,-0.877,-0.086,-0.539,1.540,-84.840,20.580
10833531,-0.863,-0.164,-0.509,-12.740,-97.510,13.790
10833551,-1.015,-0.007,-0.443,-14.700,-95.410,14.630
10833575,-0.991,-0.103,-0.432,-13.580,-110.460,22.330
10833594,-0.911,-0.144,-0.358,-9.030,-107.800,28.630
10833615,-1.053,-0.163,-0.308,-12.110,-124.390,28.700
10833636,-1.090,-0.061,-0.413,5.460,-152.320,32.480
10833659,-1.098,0.122,-0.264,-21.910,-177.380,24.990
10833680,-1.172,0.196,-0.064,-52.570,-196.000,23.800
10833698,-1.278,0.099,-0.101,-46.410,-203.770,29.260
10833718,-1.426,0.125,0.210,-40.250,-212.240,36.330
10833738,-1.654,0.218,0.362,-48.160,-237.860,36.890
10833763,-1.349,0.537,0.067,-83.160,-258.440,32.830
10833782,-0.878,0.207,-0.549,-162.050,-214.900,0.840
10833802,-0.859,-0.608,-2.632,-162.330,-46.200,-45.430
10833820,-0.881,-1.777,-0.922,49.490,-47.670,-17.780
10833839,0.158,0.537,-0.420,124.880,59.710,31.290
10833858,-0.545,0.466,-0.762,30.030,195.930,24.850
10833880,-1.257,0.209,-0.515,-17.430,210.140,20.020
10833900,-0.888,0.066,-0.440,-42.840,231.840,21.140
10833920,-1.153,-0.194,-0.403,-10.920,271.040,18.060
10833944,-1.358,0.076,-0.184,17.220,220.150,16.100
10833964,-0.879,0.188,-0.400,-15.820,241.010,20.090
10833984,-1.132,-0.003,-0.329,-50.190,226.520,8.820
10833999,-1.157,-0.060,-0.256,-67.690,209.230,-8.470
10834024,-1.102,-0.116,-0.112,-85.260,205.590,-24.850
10834041,-1.109,-0.262,0.026,-71.400,184.870,-26.740
10834062,-1.168,-0.086,0.179,-43.120,157.640,-19.320
10834081,-1.023,0.019,0.099,-41.930,123.060,-15.190
10834106,-1.081,-0.094,0.234,-33.740,71.330,-23.310
10834124,-0.880,-0.025,0.138,-15.610,51.800,-24.290
10834148,-0.979,0.020,-0.035,-18.760,24.710,-24.150
10834167,-1.364,-0.105,-0.025,-42.490,-5.880,-40.950
10834188,-1.280,-0.070,0.086,-52.220,-33.250,-46.410
10834208,-1.109,0.127,0.175,-86.520,-33.740,-38.990
10834228,-1.139,-0.005,0.038,-100.030,-41.440,-33.670
10834251,-1.147,-0.397,-0.036,-71.820,-57.190,-47.950
10834271,-1.397,-0.303,0.624,21.560,-86.660,-43.610
10834290,-1.053,-0.064,0.792,25.690,-108.150,-29.610
10834310,-0.989,-0.868,-0.966,48.300,-102.340,-43.400
10834335,-1.695,-0.370,0.148,54.460,-110.670,-26.040
10834355,-0.867,0.207,-0.113,14.140,-98.070,-22.610
10834372,-1.134,0.201,-0.129,-26.670,-75.950,-12.530
10834396,-1.279,-0.022,-0.181,21.980,-47.740,-8.260
10834420,-1.191,-0.037,-0.139,49.070,-56.000,-12.740
10834440,-0.953,0.202,-0.139,10.360,-29.190,-18.480
10834460,-0.900,-0.133,-0.209,-7.420,-20.580,-15.820
10834478,-1.008,-0.164,-0.163,3.570,-21.700,-13.720
10834501,-1.037,-0.079,-0.162,11.130,-19.950,-13.370
10834520,-1.026,-0.141,-0.185,10.080,-14.140,-14.210
10834540,-0.940,0.011,-0.087,10.500,-6.650,-13.020
10834564,-0.914,-0.114,-0.202,3.080,-2.240,-11.130
10834583,-0.981,-0.162,-0.226,15.330,0.630,-10.850
10834603,-0.947,-0.107,-0.193,20.020,2.730,-11.550
10834627,-1.009,-0.027,-0.149,1.820,5.810,-13.930
10834647,-0.935,-0.206,-0.251,5.250,14.910,-9.170
10834667,-0.971,-0.138,-0.182,13.300,13.930,-5.180
10834686,-0.935,-0.177,-0.180,8.190,16.520,-6.300
10834710,-0.873,-0.364,-0.304,24.080,21.280,1.400
10834730,-1.050,0.123,-0.192,22.050,19.880,4.690
10834749,-1.054,-0.008,-0.258,-7.490,16.310,-6.230
10834773,-0.960,-0.221,-0.235,6.790,19.460,1.470
10834793,-0.941,-0.180,-0.285,-4.340,10.780,0.140
10834813,-1.000,-0.072,-0.289,-9.030,8.470,0.420
10834833,-0.948,-0.177,-0.241,-5.740,12.600,-0.070
10834853,-0.916,-0.166,-0.248,4.410,16.030,1.330
10834868,-0.949,-0.069,-0.218,4.830,20.790,2.170
10834893,-0.952,-0.110,-0.271,0.910,25.970,0.840
10834913,-0.932,-0.106,-0.267,14.630,28.910,1.680
10834933,-0.951,0.001,-0.304,3.640,29.540,-1.680
10834953,-0.978,-0.029,-0.239,-6.230,34.090,-2.240
10834976,-0.886,-0.188,-0.254,-25.480,50.050,-1.540
10834996,-0.888,-0.240,-0.409,-12.950,54.390,4.900
10835017,-0.895,-0.145,-0.461,7.070,51.170,6.510
10835033,-0.953,-0.114,-0.383,0.700,48.930,5.530
10835057,-0.981,-0.077,-0.360,-12.810,50.960,5.810
10835075,-0.896,-0.122,-0.501,-10.010,46.830,3.920
10835095,-0.924,-0.012,-0.467,-9.380,50.820,4.130
10835117,-1.004,-0.065,-0.453,-18.410,41.440,1.540
10835137,-0.868,-0.127,-0.462,-21.770,47.460,5.390
10835157,-0.865,-0.097,-0.484,-24.500,46.970,6.790
10835177,-0.909,-0.044,-0.554,-26.180,45.220,10.430
10835196,-0.900,-0.091,-0.550,-21.560,36.890,15.330
10835216,-0.884,-0.106,-0.556,-16.800,25.410,15.540
10835241,-0.849,-0.036,-0.524,-24.430,37.240,21.770
10835261,-0.917,-0.047,-0.579,-32.620,36.960,24.290
10835281,-0.699,-0.044,-0.594,-19.530,44.310,30.660
10835301,-0.676,-0.094,-0.556,-6.790,62.230,34.790
10835320,-0.942,-0.095,-0.612,-1.050,54.320,32.830
10835341,-0.885,0.038,-0.593,-25.830,47.040,22.330
10835360,-0.868,0.048,-0.581,-41.230,57.400,19.950
10835379,-0.796,0.008,-0.582,-35.490,62.860,17.780
10835403,-0.910,-0.048,-0.582,-18.550,79.800,15.470
10835422,-0.991,-0.034,-0.591,-13.930,85.400,6.230
10835442,-0.854,-0.026,-0.679,-25.760,98.140,-6.860
10835466,-0.725,-0.005,-0.696,-46.060,105.210,-9.590
10835483,-0.447,0.239,-0.717,-62.440,106.330,-3.920
10835503,-0.371,-0.101,-0.695,-44.240,108.990,-0.980
10835527,-0.367,0.262,-0.741,-26.180,94.850,1.820
10835545,-0.330,0.386,-0.732,-20.790,87.710,9.800
10835567,-0.188,0.423,-0.701,-14.280,88.900,26.390
10835587,-0.325,0.357,-0.770,2.100,87.570,32.480
10835608,-0.533,0.298,-0.896,31.150,100.520,34.020
10835627,-0.604,0.154,-0.837,35.770,103.880,27.860
10835645,-0.448,0.028,-0.915,22.120,100.940,16.380
10835667,-0.269,0.021,-0.957,1.400,99.260,1.610
10835687,-0.240,0.051,-0.937,-12.880,96.180,-9.940
10835707,-0.243,0.141,-0.934,-12.390,86.870,-15.050
10835730,-0.206,0.262,-0.952,-10.640,79.940,-13.160
10835750,-0.120,0.252,-0.985,-10.290,73.850,-7.280
10835770,-0.084,0.215,-0.977,2.100,70.490,-3.290
10835790,-0.189,0.153,-0.957,7.280,66.080,-4.200
10835814,-0.152,0.144,-1.039,3.850,62.580,-7.630
10835834,-0.157,0.152,-1.035,-2.240,56.420,-10.710
10835854,-0.120,0.138,-1.036,-5.040,52.780,-16.310
10835874,-0.116,0.168,-1.052,-5.950,48.510,-17.010
10835894,-0.121,0.160,-0.985,-8.190,48.160,-13.790
10835914,-0.116,0.116,-0.995,-5.180,53.410,-12.600
10835933,-0.053,0.108,-0.959,-11.550,56.560,-11.410
10835952,0.044,0.090,-1.002,-11.130,45.290,-9.800
10835977,0.118,0.150,-1.012,-13.370,37.450,-7.910
10835997,0.085,0.154,-0.972,-13.160,35.000,-5.390
10836016,0.086,0.166,-0.953,-14.770,32.760,-6.090
10836036,0.103,0.162,-0.997,-8.190,28.840,-4.690
10836056,0.142,0.165,-1.002,-6.230,21.000,-5.180
10836080,0.038,0.102,-1.064,-5.740,17.290,-5.950
10836100,0.018,0.095,-1.023,-2.520,14.350,-0.560
10836118,0.081,0.074,-1.007,-5.530,12.250,0.280
10836140,0.103,0.011,-0.969,-10.920,5.810,-0.280
10836159,0.281,0.136,-0.952,-8.330,-5.810,4.690
10836183,0.241,0.229,-0.952,-4.970,-15.540,13.300
10836203,0.109,0.224,-0.999,6.580,-22.680,21.700
10836227,0.005,0.163,-1.085,14.840,-29.610,31.430
10836246,-0.081,0.046,-1.083,17.710,-38.430,31.780
10836263,0.149,0.069,-1.092,16.660,-42.700,26.950
10836287,0.157,0.073,-1.066,4.900,-51.870,17.920
10836306,0.179,0.147,-1.059,0.840,-63.140,13.440
10836328,0.023,0.135,-1.050,5.040,-73.640,10.990
10836352,-0.058,0.162,-1.084,3.010,-81.830,11.620
10836371,-0.101,0.227,-1.017,8.610,-84.910,10.080
10836391,-0.097,0.195,-1.015,5.250,-88.830,9.030
10836410,-0.090,0.167,-1.018,10.080,-93.940,2.240
10836435,-0.061,0.228,-0.964,11.970,-99.470,-5.740
10836453,-0.064,0.099,-0.964,3.710,-107.380,-10.920
10836477,-0.089,-0.270,-0.891,43.820,-121.030,-18.760
10836496,0.061,0.531,-0.888,56.840,-113.050,-2.520
10836520,-0.066,0.238,-0.803,23.730,-118.790,-10.710
10836540,-0.032,0.204,-0.923,2.450,-137.130,-16.170
10836559,-0.135,-0.007,-0.948,35.770,-140.070,-15.260
10836579,-0.264,0.074,-0.831,91.490,-148.260,-2.800
10836603,-0.398,0.099,-0.904,100.870,-142.800,6.720
10836621,-0.742,-0.105,-0.620,55.930,-157.150,0.070
10836640,-0.575,-0.333,-0.606,34.720,-164.780,-17.990
10836665,-0.388,-0.136,-0.843,14.280,-168.630,-27.090
10836683,-0.752,0.150,-0.642,-19.740,-160.090,-26.740
10836702,-1.170,0.160,-0.666,-28.420,-142.590,-28.630
10836726,-1.403,0.200,-0.351,14.560,-135.660,-38.220
10836745,-1.163,0.156,-0.468,22.750,-107.730,-48.020
10836766,-0.877,0.156,-0.652,10.080,-100.940,-43.400
10836786,-0.702,-0.112,-0.628,-20.230,-96.950,-36.820
10836806,-0.702,-0.569,-0.515,-33.390,-91.210,-21.070
10836830,-1.323,-0.316,-0.603,-43.120,-148.540,-28.490
10836850,-0.567,0.244,-0.375,-5.250,-86.310,-10.430
10836869,-0.824,0.134,-0.423,-9.800,-90.230,-16.450
10836890,-0.869,-0.013,-0.533,-33.040,-93.310,-15.960
10836906,-0.784,-0.047,-0.467,-32.760,-92.540,-12.110
10836926,-0.919,-0.023,-0.359,-29.820,-81.270,-15.750
10836950,-1.007,0.035,-0.095,-28.140,-67.900,-20.720
10836969,-0.927,-0.084,-0.183,-26.320,-56.560,-17.640
10836990,-0.900,-0.166,-0.211,-26.320,-49.490,-17.640
10837006,-0.889,-0.125,-0.265,-32.130,-43.120,-13.300
10837026,-0.917,-0.172,-0.248,-24.220,-38.780,-4.830
10837045,-0.975,-0.122,-0.234,-12.810,-38.570,-4.200
10837069,-0.971,-0.008,-0.167,-13.160,-36.820,-6.790
10837087,-1.020,-0.144,-0.228,-15.960,-40.460,-8.820
10837111,-0.948,-0.270,-0.159,-4.200,-36.190,-7.000
10837130,-0.934,-0.079,-0.243,9.870,-28.420,-5.040
10837149,-1.039,-0.071,-0.221,19.180,-39.690,-3.990
10837173,-0.987,-0.143,-0.195,24.080,-41.720,-3.010
10837193,-0.980,-0.103,-0.215,17.360,-42.490,3.570
10837213,-0.961,0.068,-0.076,8.680,-36.960,-1.400
10837233,-0.996,-0.078,-0.089,-4.620,-31.150,-4.620
10837253,-0.947,-0.239,-0.021,-2.100,-28.630,0.490
10837272,-0.880,-0.260,0.024,3.710,-17.220,7.980
10837291,-0.912,-0.353,0.009,17.920,-10.430,11.620
10837311,-0.870,-0.020,-0.066,40.810,6.230,11.480
10837331,-1.100,-0.015,-0.104,35.700,4.830,10.850
10837355,-0.963,-0.174,-0.062,38.920,4.830,10.990
10837375,-0.952,-0.146,0.025,38.080,18.620,19.530
10837395,-0.934,0.023,0.051,43.050,42.350,23.590
10837415,-1.048,0.152,0.038,28.630,67.410,28.770
10837439,-1.085,-0.047,-0.123,26.530,76.580,35.140
10837458,-1.207,-0.166,-0.282,36.400,72.170,45.010
10837482,-1.362,-0.006,-0.230,29.400,76.790,58.380
10837502,-1.376,-0.543,-0.314,35.910,74.620,48.790
10837518,-1.236,-0.448,-0.104,86.660,83.440,44.310
10837542,-1.274,-0.224,0.072,111.930,86.870,26.950
10837562,-1.155,-0.083,0.234,112.420,61.530,8.120
10837582,-1.042,0.146,0.438,84.700,29.400,-3.500
10837602,-1.007,0.220,0.554,50.890,0.840,-6.160
10837622,-1.019,0.130,0.514,28.770,-35.420,-7.420
10837645,-1.011,0.133,0.458,29.330,-73.430,-4.830
10837664,-1.091,0.144,0.412,36.470,-100.730,-4.130
10837688,-1.132,0.095,0.272,46.830,-123.620,2.520
10837709,-1.166,0.126,0.218,64.470,-150.780,9.170
10837727,-1.139,0.189,0.169,63.630,-164.080,15.960
10837749,-1.173,0.135,0.086,64.820,-173.810,24.150
10837768,-1.201,0.006,-0.010,50.400,-177.800,24.640
10837788,-1.194,-0.086,-0.028,52.430,-180.670,23.800
10837808,-1.109,0.001,0.022,44.870,-184.590,22.050
10837832,-1.096,0.010,0.035,18.830,-178.990,15.890
10837849,-1.128,0.037,-0.025,12.390,-176.330,34.860
10837868,-1.134,-0.048,-0.034,12.950,-172.690,22.540
10837891,-0.928,-0.225,-0.265,-3.850,-151.970,20.230
10837910,-1.069,-0.270,-0.125,42.070,-130.690,23.310
10837935,-0.980,0.132,0.090,43.190,-126.420,27.020
10837955,-0.873,-0.012,0.083,-1.120,-109.900,16.730
10837975,-0.757,-0.179,0.017,13.090,-78.400,11.410
10837993,-0.906,-0.113,-0.108,15.680,-66.500,1.050
10838015,-0.699,-0.019,-0.118,14.770,-29.890,-8.540
10838032,-0.592,-0.225,-0.174,6.230,-10.850,-9.520
10838055,-0.376,-0.342,-0.763,56.630,38.430,-14.630
10838075,-0.641,-0.102,-0.461,76.230,80.990,-13.160
10838095,-0.673,-0.105,1.734,160.790,189.700,21.980
10838113,-2.246,0.722,0.286,-93.030,-37.240,-26.810
10838135,0.547,-0.265,1.555,95.130,328.930,-42.840
10838159,-2.322,-0.093,-0.688,77.490,101.080,-36.260
10838179,-2.751,0.730,-0.540,41.580,230.230,-50.750
10838199,-0.841,0.414,0.455,-30.730,55.790,-59.780
10838217,-0.075,-0.140,-0.228,-126.770,135.310,-36.470
10838239,-0.941,-0.764,-0.422,50.190,235.200,-64.260
10838263,-2.221,0.475,-0.429,-57.190,27.930,-66.150
10838283,-1.338,0.017,0.199,0.490,93.800,-38.990
10838303,-0.645,-0.550,-0.301,12.460,105.000,-35.490
10838323,-0.932,0.181,-0.270,49.000,121.730,-32.760
10838342,-1.222,0.088,0.015,12.810,98.560,-28.700
10838363,-0.969,-0.059,-0.160,8.820,109.900,-29.050
10838387,-0.995,-0.200,-0.057,7.350,82.740,-33.670
10838407,-0.771,-0.348,-0.225,24.990,121.170,-24.500
10838431,-1.040,-0.029,-0.341,22.260,91.840,-25.900
10838448,-1.258,0.149,-0.306,25.690,107.030,-23.240
10838468,-0.760,-0.018,-0.617,4.760,103.040,-26.880
10838488,-0.793,-0.101,-0.575,-5.320,51.730,-23.940
10838512,-0.696,-0.369,-0.342,10.710,116.270,-11.480
10838532,-1.343,-0.205,-0.552,26.950,59.640,-12.530
10838550,-1.088,-0.200,-0.445,24.990,87.080,-10.990
10838571,-0.956,-0.224,-0.400,-0.140,45.640,-20.860
10838591,-0.578,-0.316,-0.660,4.900,51.240,-15.120
10838612,-0.776,-0.012,-0.642,25.900,79.240,-4.830
10838636,-1.259,-0.081,-0.634,13.230,49.350,-0.630
10838656,-0.974,-0.005,-0.596,-7.070,46.200,-4.340
10838676,-0.748,-0.047,-0.642,-11.340,30.800,-8.120
10838694,-0.663,0.017,-0.675,-12.810,29.400,-8.400
10838713,-0.651,-0.080,-0.710,-8.540,27.510,-6.230
10838737,-0.678,-0.243,-0.693,-6.230,16.730,-10.080
10838753,-0.755,-0.274,-0.516,4.480,24.010,-13.300
10838775,-0.814,-0.136,-0.742,7.420,15.610,-16.590
10838794,-1.020,-0.107,-0.694,-2.730,-0.840,-13.300
10838819,-0.834,-0.203,-0.596,1.540,-6.650,-7.280
10838837,-0.769,-0.278,-0.561,6.930,-3.710,-6.860
10838859,-0.865,-0.069,-0.687,-4.900,-6.650,-7.280
10838879,-0.855,-0.181,-0.617,-2.870,1.190,-0.630
10838903,-0.874,-0.206,-0.636,-1.890,-4.480,8.960
10838923,-0.726,-0.254,-0.629,12.600,3.570,15.680
10838942,-0.689,-0.164,-0.602,20.860,2.660,14.630
10838961,-0.803,-0.148,-0.615,5.390,-4.830,11.270
10838983,-0.877,-0.097,-0.714,1.190,-19.880,8.750
10839007,-0.836,-0.082,-0.698,2.660,-37.310,8.820
10839027,-0.760,-0.162,-0.674,1.120,-44.450,11.620
10839045,-0.844,-0.050,-0.673,-5.530,-56.140,5.180
10839067,-0.925,-0.095,-0.607,-18.060,-60.340,-0.070
10839087,-0.953,-0.107,-0.616,-10.500,-64.190,-0.770
10839107,-0.886,-0.012,-0.565,-8.890,-67.830,-1.400
10839126,-0.743,-0.080,-0.617,-26.320,-75.810,-0.420
10839147,-0.836,-0.090,-0.590,-23.380,-80.080,1.890
10839166,-0.962,-0.222,-0.558,-19.810,-83.580,3.710
10839190,-0.831,-0.151,-0.478,-13.510,-75.180,4.900
10839210,-0.843,-0.097,-0.434,-13.020,-86.310,8.050
10839234,-0.979,-0.201,-0.575,-34.720,-111.020,9.380
10839250,-0.993,-0.213,-0.456,-30.030,-101.010,11.130
10839270,-0.965,-0.153,-0.427,-10.920,-106.330,33.180
10839294,-0.934,-0.120,-0.355,-10.780,-108.290,30.030
10839314,-1.006,-0.125,-0.384,-13.020,-125.230,38.710
10839334,-0.962,-0.156,-0.375,-16.730,-144.620,42.140
10839354,-1.048,-0.065,-0.111,-39.620,-162.610,48.440
10839374,-0.923,-0.069,-0.250,-48.440,-178.360,49.700
10839394,-1.053,-0.022,-0.290,-46.970,-192.990,48.440
10839414,-1.159,0.027,-0.691,-33.390,-213.500,48.090
10839438,-1.018,-0.015,-0.957,-33.040,-175.070,26.460
10839458,-1.688,-0.332,-0.151,11.130,-189.700,15.960
10839478,-1.227,-0.088,0.176,57.890,-217.490,26.600
10839502,-0.978,0.103,0.142,50.330,-159.670,22.680
10839520,-0.875,0.322,0.203,-3.710,-110.110,1.610
10839541,-0.572,0.170,0.148,-59.430,-74.900,-9.100
10839562,-0.368,-0.022,-0.300,-76.650,77.070,-22.960
10839581,-0.645,-0.088,-0.476,-37.800,139.580,1.470
10839605,-0.873,-0.079,-0.500,-39.760,196.210,18.690
10839625,-1.114,-0.440,-0.719,17.360,239.120,12.390
10839645,-1.342,0.036,-0.297,46.410,205.030,-9.240
10839663,-0.995,0.029,-0.217,21.700,208.950,-16.380
10839687,-0.853,0.086,-0.285,1.330,214.900,-20.930
10839707,-0.865,0.109,-0.314,-51.170,201.880,-25.340
10839727,-0.958,-0.001,-0.211,-53.060,184.870,-38.360
10839747,-0.855,0.087,-0.132,-69.090,175.910,-47.390
10839762,-0.894,0.111,-0.075,-83.930,168.560,-48.370
10839787,-0.924,0.184,-0.159,-93.100,155.890,-41.370
10839802,-0.930,0.008,-0.198,-83.860,139.790,-38.430
10839826,-1.004,0.188,-0.010,-74.480,116.200,-29.540
10839847,-1.154,0.111,-0.050,-106.750,91.630,-33.390
10839867,-1.140,-0.091,-0.030,-96.110,76.370,-29.960
10839887,-1.094,-0.037,-0.036,-89.880,63.840,-25.480
10839907,-1.211,-0.103,-0.005,-68.530,42.630,-22.120
10839931,-1.234,-0.168,0.199,-60.340,7.770,-36.610
10839949,-1.283,-0.224,0.229,-48.370,-10.010,-41.580
10839968,-1.209,-0.132,0.308,-35.140,-25.200,-41.090
10839988,-1.288,-0.120,0.167,-19.600,-54.460,-34.370
10840013,-1.486,-0.362,0.190,-26.950,-74.060,-52.640
10840033,-1.416,-0.239,0.266,-34.510,-101.640,-58.030
10840053,-1.227,-0.088,0.303,-53.410,-108.500,-54.950
10840068,-1.392,-1.000,-0.430,-6.230,-116.830,-60.900
10840092,-0.979,-0.171,-0.614,13.090,-82.040,-42.490
10840113,-1.163,0.005,-0.079,-3.780,-70.700,-24.080
10840133,-1.083,-0.286,-0.016,-9.940,-59.850,-26.320
10840153,-1.086,0.081,-0.278,41.930,-46.550,-4.130
10840172,-1.118,0.162,0.009,30.520,-27.930,-11.970
10840197,-0.956,0.001,-0.206,24.850,-7.490,-15.260
10840217,-0.859,-0.230,-0.179,20.230,-3.570,-19.670
10840237,-0.776,-0.370,-0.321,55.650,-7.140,-11.060
10840257,-1.015,0.423,-0.070,13.020,4.830,-16.030
10840277,-1.006,-0.079,-0.165,-15.680,-2.590,-26.740
10840297,-0.901,-0.325,-0.293,-2.240,3.850,-15.190
10840317,-0.936,-0.307,-0.272,36.960,6.650,-1.890
10840337,-0.941,-0.007,-0.251,29.050,3.360,-0.280
10840357,-1.092,0.062,-0.209,1.330,-6.510,-5.600
10840377,-0.878,-0.234,-0.290,-8.400,11.130,-6.720
10840395,-0.951,-0.134,-0.258,-10.150,8.330,-0.140
10840413,-0.964,-0.186,-0.263,-3.990,9.030,6.440
10840437,-0.971,-0.103,-0.248,5.320,13.930,7.910
10840456,-0.942,-0.102,-0.230,6.230,17.990,7.560
10840480,-0.935,-0.171,-0.284,7.070,21.840,8.400
10840498,-0.932,-0.134,-0.267,11.060,23.590,7.000
10840522,-0.959,0.039,-0.267,7.910,29.260,6.650
10840538,-0.955,-0.103,-0.281,3.220,26.180,6.650
10840562,-0.931,-0.127,-0.235,2.380,36.190,6.440
10840577,-0.877,-0.074,-0.205,-1.540,49.070,5.950
10840601,-0.905,-0.146,-0.381,-0.070,54.250,4.620
10840622,-0.905,-0.077,-0.406,3.150,53.830,5.740
10840643,-0.998,-0.075,-0.359,-11.410,51.170,3.220
10840667,-0.923,-0.024,-0.403,-14.350,57.050,3.290
10840687,-0.829,-0.113,-0.504,-11.340,58.380,-2.240
10840711,-0.976,-0.064,-0.508,-7.700,61.250,-1.680
10840731,-0.946,-0.107,-0.551,-10.990,55.230,2.590
10840749,-0.934,-0.110,-0.513,-12.950,44.380,5.740
10840769,-0.843,-0.042,-0.529,-8.050,50.470,15.400
10840791,-1.033,-0.051,-0.473,-9.590,49.280,15.120
10840813,-0.993,-0.045,-0.520,-9.100,53.410,15.680
10840833,-0.901,-0.054,-0.537,-9.380,56.560,16.730
10840853,-0.841,-0.009,-0.545,-15.680,66.850,19.670
10840872,-0.901,-0.073,-0.562,-14.910,64.540,20.930
10840896,-0.898,0.087,-0.594,-12.040,71.190,26.180
10840917,-0.943,0.067,-0.600,-16.730,69.720,28.070
10840937,-0.924,-0.073,-0.584,-13.020,70.980,26.670
10840952,-0.998,-0.050,-0.580,-18.130,76.370,27.720
10840976,-0.903,-0.060,-0.493,-40.880,78.050,15.400
10840996,-0.870,-0.135,-0.616,-30.240,91.560,15.400
10841016,-0.842,0.069,-0.690,-17.080,91.420,11.620
10841040,-0.778,0.132,-0.756,-29.680,72.660,8.820
10841060,-0.394,0.169,-0.909,-38.570,51.870,11.620
10841079,-0.149,0.152,-0.927,-38.920,56.560,14.490
10841102,-0.194,0.162,-0.952,-39.480,37.450,12.110
10841123,-0.288,0.218,-0.941,-35.210,4.130,19.180
10841143,-0.292,0.092,-0.853,-25.270,-2.730,23.520
10841162,-0.371,0.135,-0.768,-7.350,-12.530,20.650
10841182,-0.394,0.159,-0.757,-12.180,-11.830,16.030
10841206,-0.516,0.164,-0.719,-15.190,-1.890,13.860
10841226,-0.591,0.100,-0.689,-20.300,9.660,13.160
10841246,-0.655,0.024,-0.705,-6.090,20.440,12.670
10841265,-0.618,0.075,-0.661,-1.750,23.870,11.340
10841289,-0.546,0.058,-0.773,-1.820,37.660,5.670
10841307,-0.520,0.203,-0.837,0.420,37.520,5.740
10841331,-0.431,0.246,-0.789,2.590,38.850,9.030
10841351,-0.367,0.292,-0.821,8.960,27.370,9.940
10841369,-0.217,0.353,-0.880,14.070,25.760,9.170
10841388,-0.345,0.406,-0.839,9.800,29.680,10.920
10841409,-0.485,0.213,-0.810,13.440,27.090,14.910
10841433,-0.494,0.203,-0.753,14.910,28.490,15.190
10841453,-0.365,0.233,-0.767,27.230,38.220,16.240
10841471,-0.342,0.188,-0.824,29.190,34.930,17.500
10841489,-0.415,0.172,-0.848,31.010,39.340,18.060
10841513,-0.358,0.169,-0.820,24.360,34.860,21.490
10841533,-0.292,0.128,-0.939,28.070,45.010,18.480
10841553,-0.368,0.162,-0.843,20.160,41.090,21.420
10841573,-0.231,0.026,-0.986,24.080,36.190,19.530
10841593,-0.299,0.097,-0.970,35.910,35.350,14.630
10841613,-0.397,0.043,-0.987,15.330,33.950,11.760
10841637,-0.503,-0.028,-0.922,7.630,42.280,8.680
10841657,-0.428,-0.110,-0.913,4.480,44.520,-3.080
10841676,-0.398,-0.051,-1.029,6.300,38.780,-6.510
10841694,-0.333,0.135,-1.028,5.320,35.980,-8.260
10841718,-0.296,0.159,-1.049,-5.320,32.060,-1.820
10841738,-0.373,0.159,-1.039,7.070,16.730,-1.330
10841758,-0.280,0.366,-1.080,10.640,6.020,-1.610
10841776,-0.240,0.340,-1.077,0.070,-6.300,-2.030
10841800,-0.260,0.213,-1.047,2.730,-17.010,-4.480
10841820,-0.301,0.139,-1.027,11.270,-25.200,-7.770
10841840,-0.327,0.170,-0.976,9.520,-33.250,-7.980
10841860,-0.286,0.083,-1.036,2.590,-37.380,-7.210
10841876,-0.310,0.037,-0.986,5.880,-43.680,-9.800
10841900,-0.256,0.125,-0.973,-3.150,-50.820,-9.730
10841916,-0.286,0.038,-0.946,-12.250,-52.150,-9.800
10841936,-0.323,-0.058,-0.943,-4.340,-52.430,-12.880
10841955,-0.354,0.078,-0.885,1.540,-50.050,-13.160
10841980,-0.358,0.136,-0.913,-7.000,-52.640,-13.300
10841999,-0.382,0.111,-0.933,-8.260,-52.220,-14.840
10842021,-0.411,0.091,-0.885,-3.640,-50.820,-17.010
10842041,-0.380,0.112,-0.917,-0.420,-56.420,-18.550
10842065,-0.368,0.115,-0.871,3.220,-60.060,-18.550
10842085,-0.267,0.071,-0.902,14.630,-73.710,-20.510
10842105,-0.214,0.035,-0.907,26.880,-78.400,-21.700
10842125,-0.239,0.102,-0.852,40.320,-87.850,-18.550
10842142,-0.425,0.073,-0.840,25.480,-98.770,-18.550
10842160,-0.430,-0.056,-0.840,17.570,-100.310,-20.580
10842183,-0.535,-0.133,-0.802,9.030,-98.350,-27.860
10842203,-0.701,-0.130,-0.774,13.860,-100.800,-31.570
10842223,-0.623,0.217,-0.790,11.270,-106.050,-26.880
10842242,-0.750,0.506,-0.767,-24.290,-117.040,-32.200
10842266,-0.751,0.254,-0.532,-18.130,-108.920,-34.720
10842285,-0.884,-0.388,-0.564,3.150,-91.560,-36.820
10842308,-0.882,-0.414,-0.532,44.520,-109.550,-31.990
10842327,-0.845,-0.048,-0.556,37.730,-108.150,-23.100
10842347,-0.768,0.238,-0.597,37.870,-98.770,-12.110
10842372,-1.133,0.107,-0.475,50.960,-83.090,-2.940
10842391,-1.248,-0.007,-0.311,61.880,-63.700,-9.030
10842411,-1.041,-0.090,-0.420,52.220,-51.730,-9.800
10842435,-0.865,-0.073,-0.450,32.480,-45.010,-2.240
10842455,-0.837,-0.080,-0.576,21.070,-42.490,3.850
10842475,-0.863,-0.003,-0.526,20.300,-49.490,5.180
10842495,-0.921,-0.064,-0.524,21.350,-56.700,6.160
10842516,-0.827,-0.015,-0.441,20.020,-59.010,4.900
10842540,-0.818,-0.034,-0.378,12.110,-56.420,1.330
10842560,-0.843,-0.136,-0.404,17.710,-53.200,-1.680
10842580,-0.874,-0.044,-0.403,24.290,-53.620,-3.220
10842598,-0.915,-0.144,-0.299,24.150,-49.770,-3.010
10842622,-0.981,-0.123,-0.237,19.250,-46.970,-3.710
10842638,-0.962,0.076,-0.323,15.540,-41.160,-2.030
10842660,-0.955,-0.140,-0.419,-16.100,-34.160,-14.140
10842681,-0.976,-0.107,-0.336,-6.580,-38.290,-6.370
10842705,-0.958,-0.050,-0.265,-10.780,-39.970,-1.610
10842725,-0.954,-0.128,-0.230,-0.070,-36.610,0.070
10842745,-0.980,-0.167,-0.218,12.390,-35.070,0.280
10842765,-0.957,-0.135,-0.268,21.560,-33.670,3.360
10842785,-0.977,-0.016,-0.272,10.920,-36.820,2.590
10842805,-1.004,0.016,-0.221,-8.890,-40.460,2.310
10842825,-0.964,-0.104,-0.194,-12.460,-38.360,1.890
10842849,-0.981,-0.136,-0.186,-9.800,-37.450,5.810
10842868,-0.990,-0.176,-0.181,-5.250,-32.760,9.380
10842889,-0.958,0.021,-0.165,9.940,-29.610,12.180
10842913,-0.988,-0.061,-0.138,-4.410,-29.610,5.740
10842937,-0.929,-0.078,-0.081,0.700,-20.860,8.750
10842953,-0.940,-0.050,-0.015,-11.970,-6.300,12.390
10842972,-0.865,-0.050,0.038,-22.260,10.010,15.820
10842997,-0.871,-0.031,0.062,-27.160,40.390,18.550
10843013,-0.954,-0.079,0.018,-17.080,57.960,18.410
10843037,-1.033,-0.083,0.002,-13.860,78.260,18.200
10843057,-1.110,0.104,-0.001,-2.940,87.500,18.620
10843073,-1.218,0.143,-0.149,-11.340,91.770,22.540
10843093,-1.359,0.136,-0.212,-33.600,100.590,24.010
10843113,-1.356,-0.130,-0.248,-24.640,103.460,25.970
10843137,-1.390,-0.137,-0.179,4.480,98.140,39.410
10843157,-1.431,-0.248,0.096,43.260,75.040,36.610
10843177,-1.017,-0.145,0.207,72.310,54.600,35.350
10843195,-1.060,-0.107,0.309,74.760,25.340,24.920
10843216,-1.038,-0.041,0.364,68.180,-8.610,13.650
10843237,-1.078,0.026,0.366,47.040,-42.070,-2.800
10843253,-1.111,0.068,0.308,29.610,-63.700,-8.890
10843273,-1.090,0.104,0.249,14.350,-85.260,-12.110
10843297,-1.098,0.088,0.086,-6.090,-110.880,-10.710
10843317,-1.096,0.084,0.009,-6.580,-128.310,-10.010
10843337,-1.233,0.077,0.007,-3.850,-149.380,-10.500
10843355,-1.194,0.053,0.022,0.700,-163.240,-7.070
10843378,-1.112,-0.012,-0.019,21.140,-175.630,-0.140
10843397,-1.090,0.055,-0.027,26.320,-181.720,1.890
10843421,-1.121,0.081,-0.267,1.750,-187.810,2.240
10843441,-1.108,0.046,-0.161,-7.420,-181.440,3.080
10843459,-1.191,-0.072,-0.113,-1.960,-194.530,5.740
10843478,-1.069,-0.100,-0.157,11.410,-190.470,12.110
10843499,-1.096,-0.093,-0.111,30.520,-183.890,13.510
10843523,-1.119,-0.030,-0.067,26.110,-176.260,14.980
10843543,-1.030,-0.079,-0.262,23.170,-163.940,16.660
10843563,-0.969,0.000,-0.216,32.200,-135.030,16.380
10843583,-0.988,-0.029,-0.020,26.110,-132.720,7.210
10843603,-0.794,-0.034,-0.039,35.070,-109.270,2.660
10843626,-0.700,0.170,-0.025,11.270,-69.440,5.250
10843644,-0.636,-0.085,-0.201,-0.700,-43.260,2.730
10843663,-0.658,-0.120,-0.124,25.620,-9.590,-3.990
10843688,-0.636,-0.051,-0.123,40.460,33.250,-5.110
10843706,-0.590,-0.084,-0.224,49.000,65.660,-5.040
10843730,-0.610,-0.085,-0.187,46.620,115.640,-9.170
10843750,-1.496,0.400,3.707,76.930,177.380,-4.690
10843774,-1.434,-0.640,-1.342,-11.830,-38.010,-21.770
10843793,0.115,-0.409,0.464,150.150,221.900,-33.740
10843814,-2.148,0.239,-0.427,167.090,117.530,-10.710
10843834,-1.883,1.338,-0.121,54.810,191.660,-35.840
10843854,-1.103,0.564,0.494,-66.920,96.250,-63.840
10843878,-0.040,-0.367,-0.051,-105.630,127.190,-36.190
10843896,-1.057,-1.182,-0.830,-42.630,215.670,-64.190
10843915,-2.099,0.331,0.139,126.280,162.680,-23.800
10843940,-0.945,0.071,-0.207,63.910,111.510,-45.640
10843960,-0.558,0.273,-0.204,46.970,133.210,-29.330
10843976,-1.037,0.036,-0.240,24.850,136.220,-31.850
10843999,-1.052,0.033,0.046,12.950,111.230,-45.290
10844019,-0.706,-0.337,-0.181,-1.960,102.690,-55.230
10844042,-1.207,-0.057,-0.397,30.590,107.240,-42.910
10844063,-0.976,0.048,-0.461,0.840,75.040,-45.640
10844087,-0.597,-0.037,-0.665,-6.580,69.650,-41.720
10844107,-0.500,-0.174,-0.559,-2.100,57.330,-39.060
10844124,-0.677,-0.394,-0.197,-5.950,89.180,-38.290
10844142,-1.757,-0.091,-0.387,15.120,81.060,-30.590
10844167,-0.478,-0.168,-0.284,21.420,72.660,-24.990
10844187,-0.776,-0.283,-0.327,-1.470,66.500,-24.920
10844207,-1.062,-0.193,-0.463,-4.690,56.070,-21.420
10844223,-0.917,-0.250,-0.513,3.150,60.620,-17.640
10844246,-0.779,-0.279,-0.549,12.180,57.470,-22.470
10844266,-0.797,-0.044,-0.569,23.310,57.610,-23.450
10844286,-1.081,-0.097,-0.595,4.270,45.570,-26.740
10844305,-0.902,-0.166,-0.615,-3.360,46.410,-26.600
10844328,-0.793,-0.136,-0.650,-18.760,21.910,-25.270
10844352,-0.736,-0.327,-0.564,-3.500,20.510,-25.200
10844368,-0.593,-0.400,-0.486,7.700,39.900,-18.690
10844392,-0.805,-0.277,-0.623,4.830,31.150,-19.810
10844412,-0.956,-0.140,-0.663,12.180,38.150,-15.260
10844432,-0.864,-0.424,-0.543,8.610,7.490,-17.150
10844447,-0.388,-0.497,-0.569,16.730,17.640,-9.030
10844467,-0.332,-0.364,-0.541,23.100,7.770,-7.840
10844492,-0.848,0.144,-0.768,-12.390,27.230,1.610
10844511,-1.188,-0.078,-0.792,-18.200,1.750,2.940
10844530,-0.923,-0.081,-0.755,-16.310,-9.310,8.540
10844550,-0.581,-0.190,-0.707,-25.130,-24.080,9.730
10844571,-0.610,-0.277,-0.654,-23.660,-26.390,2.590
10844594,-0.910,-0.113,-0.729,-31.640,-42.560,-4.970
10844618,-0.953,-0.294,-0.718,-23.450,-43.330,-8.470
10844638,-0.835,-0.074,-0.629,-13.510,-45.710,-5.950
10844658,-0.657,-0.347,-0.598,-10.780,-52.640,-6.160
10844676,-0.738,-0.298,-0.584,-1.960,-55.020,-11.480
10844700,-0.845,-0.168,-0.596,-2.940,-57.260,-4.340
10844719,-0.888,-0.167,-0.591,-21.560,-73.010,1.890
10844743,-0.770,-0.280,-0.554,-18.200,-75.670,9.590
10844763,-0.859,-0.199,-0.573,-16.170,-82.460,10.780
10844781,-0.896,-0.145,-0.470,-25.410,-86.450,15.750
10844805,-0.818,-0.202,-0.476,-27.930,-93.730,15.750
10844825,-0.929,-0.194,-0.473,-22.540,-96.600,15.330
10844843,-1.025,-0.146,-0.454,-14.350,-100.100,19.880
10844865,-0.917,-0.142,-0.499,-16.520,-113.820,25.270
10844885,-0.895,-0.169,-0.462,-34.230,-127.330,21.840
10844905,-0.936,-0.164,-0.350,-45.220,-134.960,23.170
10844924,-1.059,-0.162,-0.530,-67.550,-145.390,23.940
10844944,-1.031,-0.120,-0.296,-55.300,-149.940,38.430
10844965,-1.085,-0.035,-0.369,-41.790,-173.390,53.690
10844980,-1.068,0.142,-0.608,-30.240,-184.450,58.660
10845000,-1.165,0.091,-0.529,-35.070,-203.000,56.560
10845020,-1.006,-0.472,-0.532,-39.970,-177.590,26.110
10845040,-1.196,-0.964,-0.440,11.270,-197.050,-2.450
10845065,-1.162,-0.186,-0.078,89.460,-190.610,23.100
10845085,-1.183,0.134,0.134,56.070,-157.360,29.890
10845101,-1.226,-0.008,-0.055,34.580,-149.030,22.190
10845121,-0.762,-0.358,0.246,71.190,-111.370,9.800
10845144,-0.771,0.102,-0.295,91.840,-57.820,5.810
10845165,-0.769,0.089,-0.514,0.350,56.840,-19.740
10845183,-0.656,0.293,-0.407,-53.900,89.530,-2.380
10845207,-0.568,-0.390,-0.574,-55.790,150.500,0.280
10845227,-1.078,-0.396,-0.615,44.660,169.260,-4.060
10845247,-1.186,0.386,-0.160,48.650,156.870,-12.390
10845265,-1.047,0.428,-0.242,3.010,160.720,-24.850
10845288,-0.976,0.213,-0.256,-74.620,181.300,-26.530
10845312,-1.083,-0.217,-0.282,-72.520,184.170,-33.530
10845332,-1.058,-0.027,-0.243,-64.960,185.290,-39.480
10845348,-1.146,0.139,-0.122,-93.940,180.950,-44.730
10845368,-0.976,0.122,-0.044,-99.470,175.770,-31.150
10845392,-1.079,0.081,0.023,-83.160,161.350,-17.920
10845412,-1.119,0.081,0.033,-63.840,140.490,-8.960
10845432,-1.071,0.048,0.099,-53.620,108.220,-12.740
10845451,-0.986,-0.018,0.105,-41.790,86.660,-17.850
10845470,-1.076,0.053,0.086,-34.930,65.240,-18.270
10845489,-1.126,0.179,0.045,-58.030,43.680,-24.780
10845509,-1.236,0.028,0.049,-88.480,24.290,-29.680
10845534,-1.247,-0.089,0.074,-90.860,4.550,-26.880
10845552,-1.207,-0.211,0.048,-80.220,-4.550,-29.400
10845572,-1.195,-0.188,0.049,-60.130,-15.470,-28.910
10845596,-1.141,-0.067,0.042,-53.340,-21.630,-33.320
10845614,-1.205,-0.035,0.058,-63.980,-33.880,-44.450
10845638,-1.293,-0.150,0.087,-83.580,-37.800,-54.180
10845658,-1.247,-0.237,0.049,-75.460,-47.880,-50.050
10845678,-1.176,-0.315,0.182,-48.020,-53.830,-37.030
10845694,-1.118,-0.135,0.254,-44.940,-56.420,-31.780
10845717,-1.075,-0.264,0.148,-38.500,-89.180,-38.080
10845738,-1.009,-0.301,0.086,15.330,-86.380,-39.900
10845758,-1.042,-0.824,-0.915,37.450,-88.340,-39.970
10845778,-0.567,-0.072,-1.078,96.740,-11.760,-19.460
10845796,-1.426,0.101,0.342,15.680,-52.360,-19.390
10845819,-0.944,0.393,-0.125,-49.490,-6.090,-24.710
10845840,-1.161,-0.062,-0.267,-33.950,-1.890,-20.930
10845860,-0.916,-0.341,-0.157,37.450,4.620,-17.010
10845879,-0.771,-0.248,-0.198,54.950,5.530,-13.160
10845899,-0.952,0.176,-0.178,9.870,16.800,-17.430
10845920,-1.072,0.023,-0.128,-9.590,17.080,-22.330
10845942,-0.930,-0.359,-0.357,16.170,31.920,-13.650
10845964,-0.893,-0.277,-0.375,55.230,29.260,-1.190
10845983,-1.025,0.001,-0.341,38.640,24.920,5.460
10846008,-1.061,0.072,-0.287,0.560,18.480,-0.420
10846027,-0.994,-0.053,-0.271,7.490,21.770,-1.960
10846048,-0.973,-0.064,-0.237,-8.470,30.310,-4.130
10846067,-0.886,-0.163,-0.396,-19.040,34.440,-4.550
10846091,-0.981,-0.148,-0.368,-11.130,24.430,-5.040
10846110,-0.975,-0.029,-0.332,-27.650,25.830,-7.420
10846130,-0.929,-0.159,-0.348,-28.420,25.760,-7.280
10846150,-0.941,-0.164,-0.264,-41.650,31.220,-11.760
10846170,-0.854,-0.132,-0.457,-23.660,28.420,-4.270
10846194,-0.831,-0.084,-0.386,-16.870,34.020,-2.730
10846214,-0.839,-0.133,-0.392,-23.660,31.850,-3.150
10846234,-0.961,-0.146,-0.393,-19.180,38.570,-2.730
10846253,-0.896,0.008,-0.380,-22.820,44.940,-2.450
10846273,-0.781,-0.086,-0.518,-19.950,46.480,-0.980
10846297,-0.793,-0.114,-0.523,-8.260,52.500,4.830
10846316,-0.867,-0.069,-0.480,-12.110,52.150,5.600
10846337,-0.959,-0.079,-0.515,-9.870,54.740,10.080
10846357,-0.899,-0.011,-0.525,-8.610,54.180,10.500
10846373,-0.857,-0.041,-0.577,-5.250,63.770,16.240
10846392,-0.831,-0.091,-0.564,3.220,69.160,20.720
10846417,-0.954,-0.103,-0.529,-0.700,69.160,22.470
10846437,-0.773,-0.096,-0.670,0.770,66.360,24.570
10846454,-0.730,0.003,-0.654,6.020,63.210,27.720
10846478,-0.716,0.029,-0.652,5.460,69.580,33.040
10846497,-0.965,-0.070,-0.683,-12.390,57.960,31.990
10846518,-0.897,-0.073,-0.648,-7.840,53.340,30.870
10846536,-0.947,0.079,-0.601,-28.070,67.410,33.600
10846556,-0.868,0.044,-0.701,-32.130,54.950,39.760
10846577,-0.832,-0.023,-0.673,-26.530,77.980,45.710
10846601,-0.943,0.006,-0.602,-28.630,91.910,36.890
10846619,-0.913,-0.114,-0.727,-12.670,96.110,42.560
10846639,-0.652,0.065,-0.673,-3.850,96.460,44.660
10846658,-0.525,0.125,-0.784,-10.710,89.670,39.340
10846683,-0.657,0.276,-0.709,-42.630,89.040,27.510
10846698,-0.381,0.042,-0.987,-27.860,62.650,33.740
10846723,-0.117,0.122,-0.866,-4.970,73.640,31.710
10846743,-0.441,0.097,-0.978,1.750,75.670,32.270
10846763,-0.458,0.148,-0.992,21.980,63.420,37.240
10846784,-0.436,0.154,-0.829,17.010,59.290,37.660
10846808,-0.433,0.077,-0.762,13.230,58.240,37.520
10846824,-0.277,-0.003,-0.863,10.920,40.390,35.560
10846848,-0.026,0.006,-0.956,4.550,37.660,28.560
10846867,-0.036,0.033,-0.878,3.290,45.990,19.670
10846888,-0.194,0.131,-0.832,-13.160,42.910,6.860
10846908,-0.205,0.092,-0.930,-21.210,38.990,-4.620
10846926,-0.235,0.202,-0.891,-32.410,45.430,-6.090
10846949,-0.185,0.247,-0.781,-42.630,49.910,-3.430
10846969,-0.122,0.215,-0.739,-31.360,52.990,0.840
10846993,-0.078,0.257,-0.776,-1.540,54.600,9.660
10847013,-0.113,0.406,-0.950,13.440,50.540,22.260
10847033,-0.048,0.432,-1.002,27.580,43.400,34.650
10847053,-0.033,0.424,-0.902,36.890,46.200,48.930
10847068,-0.046,0.283,-0.817,45.850,35.700,56.560
10847088,0.060,0.170,-1.006,80.640,37.590,56.490
10847113,-0.040,0.268,-0.980,78.890,34.230,54.810
10847133,-0.172,0.137,-1.024,57.540,31.570,49.140
10847153,-0.199,0.098,-1.052,33.810,33.460,42.560
10847173,-0.314,-0.108,-0.987,26.810,48.020,37.660
10847196,-0.259,-0.089,-0.885,43.400,49.420,26.530
10847217,-0.066,0.053,-1.129,36.120,51.870,31.150
10847237,-0.031,0.041,-1.035,45.220,44.870,35.630
10847257,0.147,0.153,-0.962,41.160,35.210,40.110
10847276,0.055,0.024,-1.035,40.670,25.620,45.010
10847296,-0.104,0.022,-0.970,55.300,18.830,48.580
10847320,0.033,0.041,-0.978,68.530,15.680,57.330
10847339,0.137,-0.012,-1.074,73.850,11.970,58.800
10847358,0.096,-0.095,-1.021,76.860,7.350,56.140
10847383,0.102,-0.126,-1.081,71.750,-9.450,58.030
10847398,-0.002,-0.230,-1.135,63.770,-14.210,57.190
10847421,-0.092,-0.445,-1.153,42.700,-29.890,43.190
10847443,-0.000,-0.616,-1.155,21.700,-32.690,20.650
10847463,0.087,-0.522,-1.192,-0.770,-38.850,4.410
10847480,0.078,-0.507,-1.057,-19.880,-43.960,-4.340
10847500,0.122,-0.568,-1.085,-33.320,-56.910,-11.060
10847520,0.131,-0.400,-1.051,-39.900,-62.510,-19.180
10847540,0.056,-0.392,-0.979,-55.020,-71.470,-26.880
10847559,-0.020,-0.361,-0.977,-67.550,-78.750,-35.560
10847584,-0.059,-0.282,-0.931,-70.700,-78.330,-44.380
10847604,-0.087,-0.182,-0.888,-72.380,-81.480,-49.910
10847624,-0.070,-0.042,-0.870,-71.750,-85.050,-54.600
10847644,-0.164,0.096,-0.832,-81.970,-89.880,-54.460
10847664,-0.182,0.087,-0.856,-76.930,-95.340,-51.590
10847688,-0.043,0.001,-0.854,-41.790,-104.580,-49.350
10847707,-0.166,0.080,-0.828,-28.700,-109.550,-46.200
10847728,-0.122,0.080,-0.866,-25.550,-119.140,-43.540
10847752,-0.082,0.057,-0.790,-17.780,-125.930,-42.140
10847772,-0.224,0.152,-0.805,-33.670,-145.670,-41.930
10847791,-0.216,0.175,-0.904,-32.760,-152.040,-38.360
10847809,-0.365,0.130,-1.052,-22.330,-164.640,-42.840
10847833,-0.484,0.090,-0.787,-5.250,-154.140,-45.710
10847853,-0.745,0.341,-0.644,-28.840,-145.320,-46.900
10847877,-0.899,0.493,-0.625,-49.420,-159.460,-40.320
10847895,-0.777,0.123,-0.370,-30.030,-134.400,-30.450
10847914,-0.829,-0.650,-0.395,39.340,-121.030,-34.370
10847933,-1.169,-0.587,-0.576,74.690,-136.080,-29.120
10847958,-0.960,0.282,-0.508,51.450,-142.380,-21.210
10847977,-1.023,0.519,-0.524,32.620,-112.420,-1.260
10847998,-1.381,0.105,-0.208,75.810,-80.990,0.070
10848018,-1.366,-0.056,-0.322,87.010,-72.870,-23.520
10848038,-0.823,0.044,-0.285,36.820,-45.010,-13.580
10848056,-0.700,-0.176,-0.447,17.430,-34.860,-2.240
10848076,-0.978,-0.062,-0.471,10.080,-34.440,2.310
10848100,-0.979,-0.140,-0.529,26.810,-35.000,3.640
10848118,-0.942,-0.001,-0.536,27.580,-51.100,3.220
10848140,-0.840,-0.048,-0.381,21.560,-49.350,2.100
10848160,-0.896,-0.066,-0.391,19.880,-43.120,-0.210
10848184,-0.866,-0.052,-0.410,33.040,-40.740,-2.380
10848202,-0.944,-0.022,-0.307,18.340,-40.250,-3.430
10848226,-0.946,-0.133,-0.325,4.550,-36.400,-0.420
10848245,-0.938,-0.082,-0.305,8.470,-30.240,3.990
10848265,-0.978,-0.025,-0.386,3.430,-36.470,4.200
10848289,-0.906,-0.054,-0.354,1.680,-35.490,1.680
10848308,-0.962,-0.163,-0.423,7.210,-42.210,2.870
10848331,-1.029,-0.047,-0.327,7.770,-53.550,5.320
10848352,-0.971,-0.068,-0.323,-15.190,-53.480,3.220
10848372,-0.900,-0.083,-0.234,-13.440,-48.860,4.620
10848391,-0.979,-0.109,-0.185,-9.240,-46.690,7.280
10848411,-1.004,-0.116,-0.193,-1.260,-45.010,9.240
10848431,-0.978,0.009,-0.207,8.610,-44.450,8.400
10848450,-0.954,0.065,-0.153,3.640,-42.490,4.690
10848475,-0.940,-0.070,-0.163,2.730,-38.290,0.350
10848493,-0.935,-0.040,-0.116,-6.510,-32.830,0.210
10848515,-0.953,-0.030,-0.119,-23.870,-24.920,3.500
10848532,-0.999,-0.052,-0.142,-26.250,-24.850,5.810
10848555,-1.005,-0.028,-0.085,-29.680,-23.310,5.250
10848575,-0.922,-0.081,-0.123,-27.930,-17.220,3.920
10848594,-0.901,0.004,-0.045,-26.180,-4.970,3.570
10848614,-0.935,-0.029,-0.048,-30.940,6.580,4.900
10848637,-0.931,-0.129,-0.021,-27.300,20.860,6.790
10848658,-0.945,-0.101,0.056,-24.990,35.910,8.610
10848675,-0.886,-0.039,0.031,-21.980,56.840,10.150
10848698,-0.917,0.006,0.135,-23.520,94.290,13.300
10848718,-1.154,-0.093,0.002,-21.420,113.470,17.010
10848738,-1.338,-0.128,-0.186,9.590,127.960,27.300
10848758,-1.727,0.136,-0.152,-18.760,134.400,24.710
10848778,-1.604,-0.107,-0.130,-48.020,138.880,29.820
10848802,-1.415,-0.431,-0.285,-23.590,148.540,41.720
10848821,-1.444,-0.467,-0.014,52.710,134.190,42.980
10848845,-1.530,-0.009,0.245,58.100,59.640,17.500
10848865,-1.234,-0.005,0.626,22.330,15.540,-6.720
10848884,-0.991,-0.089,0.580,18.550,-24.080,-27.160
10848909,-0.990,-0.058,0.443,21.350,-85.680,-36.470
10848927,-1.051,-0.049,0.341,34.020,-121.940,-34.650
10848947,-1.094,0.073,0.188,36.750,-152.040,-32.550
10848966,-1.167,0.076,0.032,34.440,-195.930,-30.030
10848989,-1.156,0.050,-0.103,37.730,-198.380,-23.940
10849010,-1.184,0.126,-0.211,52.080,-209.720,-16.240
10849029,-1.156,0.079,-0.261,55.580,-214.830,-8.400
10849053,-1.161,0.062,-0.318,63.490,-217.000,0.140
10849073,-1.181,0.061,-0.487,55.300,-217.560,7.630
10849092,-1.124,0.126,-0.346,54.740,-221.900,22.050
10849115,-1.093,-0.011,-0.384,33.880,-216.930,27.160
10849135,-1.159,-0.240,-0.322,32.340,-207.690,15.260
10849155,-1.152,-0.046,-0.268,30.100,-203.280,14.700
10849177,-1.056,-0.083,-0.281,12.740,-184.520,15.050
10849197,-1.151,-0.136,-0.309,19.740,-166.670,6.020
10849217,-0.818,0.133,-0.216,-0.770,-129.780,19.110
10849240,-0.836,-0.172,-0.318,-12.180,-101.570,10.220
10849260,-0.735,-0.336,-0.102,37.170,-69.300,-2.240
10849280,-0.672,0.090,0.094,23.800,-29.470,-5.110
10849304,-0.586,-0.142,-0.058,20.440,8.470,-4.480
10849322,-0.687,-0.192,-0.154,48.300,29.260,-7.140
10849346,-0.555,-0.164,-0.347,78.610,62.230,-13.440
10849365,-0.615,-0.040,-0.334,76.440,104.440,-19.530
10849384,-1.219,0.831,5.452,128.170,213.570,-16.100
10849404,-1.687,-0.751,-1.848,-13.160,-158.690,-38.290
10849425,1.009,-0.095,1.404,158.480,271.390,-6.790
10849449,-3.077,-0.246,-0.542,51.450,62.160,-12.810
10849468,-1.536,0.828,-0.241,68.530,227.500,-46.130
10849489,-1.445,0.393,0.240,-37.800,81.480,-53.760
10849506,-0.278,-0.122,0.447,-67.620,112.630,-33.530
10849530,-0.405,-0.791,-0.429,-29.470,148.190,-34.790
10849553,-1.586,-0.048,-0.312,55.930,194.740,-37.310
10849573,-1.499,0.402,-0.060,-3.570,92.190,-21.000
10849593,-0.902,0.004,0.165,-42.140,101.290,-17.990
10849617,-0.438,-0.374,-0.295,6.650,130.480,-3.290
10849638,-1.242,-0.127,-0.123,32.690,91.560,-4.970
10849656,-1.046,0.098,-0.255,35.700,73.500,-6.440
10849676,-0.996,0.276,0.411,9.310,94.990,-13.300
10849695,-0.735,-0.396,-0.349,-6.720,68.320,-29.820
10849717,-1.226,0.045,-0.163,17.080,94.010,-20.720
10849741,-1.054,-0.114,-0.417,10.360,62.090,-28.140
10849761,-1.146,0.112,-0.166,-0.700,82.180,-24.570
10849781,-0.872,-0.181,-0.276,8.120,74.900,-20.230
10849800,-0.672,-0.362,-0.089,18.270,88.130,-16.800
10849821,-0.828,-0.331,-0.298,43.820,96.740,-13.580
10849841,-1.188,0.070,-0.590,14.140,67.970,-17.080
10849861,-1.140,0.123,-0.452,-9.590,75.390,-21.000
10849881,-0.644,-0.048,-0.423,6.510,75.670,-22.050
10849905,-0.863,-0.175,-0.605,8.260,69.510,-24.360
10849920,-0.943,-0.062,-0.541,16.030,63.280,-21.070
10849944,-0.818,-0.134,-0.509,2.310,44.100,-26.390
10849960,-0.662,-0.217,-0.376,11.690,64.680,-18.480
10849984,-0.710,-0.228,-0.538,15.260,56.910,-16.800
10850004,-1.282,-0.153,-0.518,17.220,41.580,-14.560
10850028,-0.640,-0.386,-0.531,25.480,62.090,-1.890
10850044,-0.802,-0.358,-0.460,35.000,54.180,-3.990
10850067,-0.622,-0.325,-0.507,31.360,39.690,-8.750
10850088,-1.071,0.314,-0.723,4.130,50.050,-2.660
10850105,-1.043,-0.041,-0.775,-13.370,19.950,-4.620
10850125,-0.732,-0.145,-0.576,-4.130,15.610,-5.180
10850145,-0.510,-0.412,-0.631,5.110,20.860,-1.050
10850165,-0.793,-0.109,-0.631,1.050,27.440,0.490
10850185,-0.660,-0.204,-0.667,-12.530,-2.730,-2.520
10850209,-0.719,-0.153,-0.745,-1.680,-0.910,1.540
