Millis,AccelX,AccelY,AccelZ,GyroX,GyroY,GyroZ
159311582,-0.965,0.226,0.213,0.000,-3.640,0.280
159311607,-0.966,0.220,0.205,0.210,-4.200,0.700
159311624,-0.966,0.214,0.200,1.050,-3.850,0.700
159311647,-0.970,0.222,0.200,1.260,-3.570,0.350
159311665,-0.966,0.221,0.196,0.280,-3.500,0.420
159311686,-0.961,0.219,0.194,0.070,-2.520,0.420
159311709,-0.968,0.216,0.202,0.280,-2.590,0.350
159311729,-0.963,0.219,0.212,0.490,-2.240,0.350
159311752,-0.963,0.214,0.211,0.560,-3.080,0.140
159311773,-0.958,0.215,0.210,1.400,-3.080,0.210
159311791,-0.962,0.209,0.207,-0.630,-3.920,-0.140
159311813,-0.964,0.218,0.211,0.490,-3.080,-0.350
159311833,-0.971,0.217,0.212,0.490,-3.220,-0.420
159311853,-0.969,0.217,0.206,1.260,-3.220,-0.420
159311872,-0.971,0.220,0.208,1.190,-3.010,-0.420
159311893,-0.966,0.222,0.208,-0.210,-2.800,-0.560
159311912,-0.965,0.218,0.206,-0.770,-2.380,-0.560
159311932,-0.964,0.216,0.208,-0.910,-2.380,-0.770
159311955,-0.965,0.213,0.208,-1.540,-2.310,-1.120
159311975,-0.966,0.215,0.210,-1.470,-2.240,-1.330
159311997,-0.963,0.218,0.212,-1.400,-2.170,-1.470
159312020,-0.967,0.217,0.209,-1.890,-2.450,-1.330
159312040,-0.961,0.216,0.208,-2.030,-2.310,-1.120
159312061,-0.958,0.213,0.211,-2.100,-2.100,-0.980
159312083,-0.971,0.213,0.204,-1.680,-1.750,-1.400
159312103,-0.963,0.218,0.207,-1.050,-1.750,-1.820
159312127,-0.960,0.224,0.208,-1.120,-1.540,-1.750
159312147,-0.956,0.227,0.212,-2.590,-1.610,-1.610
159312165,-0.960,0.224,0.214,-3.640,-1.610,-1.330
159312187,-0.960,0.218,0.213,-3.780,-1.960,-0.980
159312203,-0.961,0.210,0.212,-2.170,-2.170,-0.770
159312223,-0.966,0.214,0.208,-0.770,-2.380,-0.630
159312243,-0.961,0.214,0.210,-1.120,-2.660,-0.630
159312263,-0.963,0.216,0.205,-1.610,-2.030,-0.700
159312287,-0.968,0.213,0.207,-1.750,-2.170,-0.700
159312307,-0.964,0.212,0.209,-1.400,-2.030,-0.700
159312325,-0.964,0.214,0.210,-1.330,-1.680,-0.770
159312345,-0.964,0.212,0.210,-1.470,-1.960,-0.700
159312364,-0.962,0.210,0.213,-1.330,-2.030,-0.700
159312389,-0.967,0.209,0.212,-0.630,-2.170,-0.770
159312409,-0.965,0.207,0.210,-0.280,-2.240,-0.980
159312433,-0.965,0.212,0.209,-0.700,-2.170,-0.910
159312453,-0.960,0.214,0.209,-1.470,-2.030,-0.980
159312477,-0.966,0.212,0.209,-1.820,-2.100,-0.910
159312496,-0.968,0.210,0.209,-1.750,-1.960,-0.700
159312515,-0.968,0.211,0.206,-1.190,-2.030,-0.350
159312534,-0.969,0.207,0.206,-0.560,-2.170,-0.070
159312559,-0.966,0.211,0.210,0.210,-2.100,0.420
159312577,-0.963,0.220,0.213,-0.700,-1.890,0.700
159312601,-0.960,0.216,0.224,-2.240,-2.240,0.910
159312621,-0.959,0.209,0.214,-3.220,-3.010,0.560
159312640,-0.959,0.201,0.213,-1.540,-2.660,0.350
159312664,-0.953,0.201,0.211,0.490,-3.010,-0.280
159312684,-0.969,0.207,0.210,1.260,-3.290,-0.980
159312708,-0.963,0.209,0.212,2.310,-3.500,-1.330
159312732,-0.955,0.215,0.219,1.260,-4.480,-2.520
159312750,-0.956,0.212,0.227,0.420,-4.480,-2.030
159312770,-0.953,0.203,0.224,2.310,-4.550,-1.960
159312789,-0.961,0.203,0.212,4.130,-4.130,-1.890
159312814,-0.976,0.215,0.211,5.740,-4.550,-1.330
159312831,-0.975,0.225,0.212,5.390,-4.690,-0.630
159312850,-0.969,0.216,0.205,4.690,-4.760,0.560
159312874,-0.965,0.214,0.195,5.040,-4.410,1.820
159312894,-0.965,0.209,0.205,4.130,-3.430,3.010
159312914,-0.973,0.213,0.204,2.800,-3.080,3.220
159312934,-0.961,0.197,0.224,2.170,-2.940,2.660
159312956,-0.963,0.206,0.249,3.430,-3.640,2.380
159312975,-0.959,0.205,0.243,4.340,-4.900,1.890
159312995,-0.950,0.199,0.233,8.330,-4.620,0.490
159313019,-0.965,0.218,0.223,10.150,-6.720,-0.910
159313037,-0.964,0.237,0.213,12.110,-5.950,-0.840
159313056,-0.950,0.226,0.225,11.060,-7.140,-0.560
159313081,-0.953,0.207,0.231,14.980,-7.000,1.820
159313101,-0.957,0.226,0.233,18.480,-8.400,3.220
159313121,-0.971,0.237,0.250,20.580,-10.220,4.200
159313138,-0.968,0.226,0.285,26.180,-12.950,5.180
159313161,-0.935,0.173,0.308,54.320,-13.300,10.500
159313181,-0.960,0.213,0.328,63.560,-14.420,12.180
159313201,-0.974,0.268,0.471,75.600,-18.620,16.030
159313221,-0.962,0.359,0.593,77.840,-34.720,22.050
159313241,-1.031,0.357,0.663,86.310,-49.000,28.630
159313260,-1.062,0.419,0.747,94.780,-55.930,36.750
159313281,-1.087,0.496,0.736,106.050,-78.680,49.280
159313305,-1.067,0.553,0.742,104.020,-98.140,57.750
159313324,-1.082,0.604,0.889,88.900,-117.460,66.010
159313344,-1.114,0.583,0.945,78.890,-128.030,75.390
159313364,-1.215,0.646,0.975,85.750,-148.120,99.470
159313384,-1.140,0.703,0.921,92.400,-158.690,122.010
159313408,-1.102,0.788,1.012,97.580,-165.550,147.560
159313428,-1.118,0.972,1.031,58.310,-182.560,157.010
159313443,-1.205,1.031,1.084,20.160,-203.210,159.950
159313464,-1.203,0.967,0.970,-1.960,-218.680,157.990
159313488,-1.167,1.008,0.766,-32.900,-223.720,162.610
159313508,-1.147,0.948,0.801,-35.630,-237.020,165.760
159313528,-1.054,0.878,0.922,-28.840,-248.010,163.030
159313546,-1.021,0.796,0.842,-11.340,-244.230,162.260
159313565,-0.965,0.831,0.750,8.120,-253.330,169.260
159313589,-0.881,1.064,0.571,-3.220,-259.630,179.760
159313612,-0.835,0.999,0.605,-31.990,-260.120,187.530
159313633,-0.730,0.836,0.619,-40.250,-258.860,191.100
159313652,-0.575,0.651,0.506,-38.290,-262.500,184.450
159313670,-0.504,0.670,0.374,-16.660,-259.420,185.220
159313690,-0.507,0.800,0.263,-25.970,-251.440,192.360
159313714,-0.486,0.757,0.326,-37.590,-250.810,209.230
159313734,-0.331,0.497,0.241,-1.820,-247.240,211.960
159313751,-0.043,0.396,0.134,17.640,-226.520,213.430
159313770,0.040,0.360,0.166,3.850,-190.610,218.330
159313789,-0.035,0.413,0.111,5.950,-185.080,221.900
159313814,0.078,0.326,0.011,-6.650,-239.680,220.220
159313834,0.203,0.000,-0.072,-30.590,-209.300,189.280
159313854,0.639,-0.197,-0.350,-43.890,-173.320,170.660
159313871,0.922,-0.470,-0.212,-43.050,-139.790,147.280
159313891,0.825,-0.393,-0.268,-28.490,-74.340,130.830
159313914,0.753,-0.395,-0.472,-28.280,-109.900,106.260
159313935,0.882,-0.376,-0.437,-25.270,-92.330,76.020
159313953,0.798,-0.355,-0.456,-30.660,-63.420,63.070
159313977,0.804,-0.243,-0.517,-12.110,-56.420,48.020
159313997,0.887,-0.247,-0.478,-3.220,-33.250,33.320
159314016,0.968,-0.127,-0.335,-5.390,-12.460,28.000
159314036,0.970,-0.177,-0.260,-3.080,-7.630,22.470
159314055,0.969,-0.122,-0.204,12.390,-11.970,22.120
159314080,0.984,-0.064,-0.126,20.370,-13.230,22.540
159314100,0.994,-0.077,-0.149,9.800,-14.910,24.150
159314120,1.076,-0.140,-0.142,6.720,-15.190,25.690
159314140,1.009,-0.095,-0.151,8.400,-14.210,33.040
159314160,1.015,-0.091,-0.189,9.660,-23.660,35.560
159314177,0.978,-0.177,-0.143,-0.980,-5.600,35.770
159314197,0.904,-0.345,-0.127,3.010,-20.650,27.160
159314221,0.939,-0.380,-0.182,5.180,-7.070,15.890
159314241,0.956,-0.414,-0.304,6.720,1.750,6.230
159314260,0.961,-0.509,-0.398,7.070,19.810,-10.500
159314280,0.932,-0.534,-0.344,18.130,51.520,-26.810
159314303,0.881,-0.475,-0.213,22.960,61.810,-46.200
159314323,0.833,-0.398,-0.212,24.150,71.190,-60.480
159314343,0.960,-0.433,-0.452,34.160,112.980,-80.500
159314363,0.774,-0.355,-0.497,45.430,135.660,-92.750
159314387,0.814,-0.258,-0.307,48.860,146.440,-102.760
159314407,0.779,-0.156,-0.254,64.540,173.250,-108.920
159314422,0.579,-0.056,-0.294,78.820,179.480,-113.400
159314444,0.540,0.057,-0.266,90.790,207.130,-123.060
159314464,0.342,0.105,-0.208,81.060,207.830,-135.450
159314485,0.406,0.167,-0.067,58.870,204.680,-146.580
159314509,0.402,0.174,-0.075,46.200,218.050,-157.220
159314529,0.279,0.186,-0.141,45.990,253.330,-168.070
159314547,0.026,0.253,-0.097,53.970,264.110,-183.820
159314567,-0.113,0.360,0.035,29.120,297.850,-197.470
159314590,-0.331,0.443,0.232,43.890,327.600,-195.440
159314611,-0.525,0.690,0.320,19.600,299.600,-184.170
159314631,-0.623,0.476,0.578,-16.870,295.890,-183.680
159314651,-0.646,0.380,0.630,-38.220,279.020,-187.110
159314674,-0.912,0.578,0.759,-3.710,274.960,-187.110
159314694,-1.106,0.596,0.488,33.670,328.090,-179.130
159314713,-1.351,0.673,0.586,37.940,339.150,-163.940
159314738,-1.398,0.669,1.037,8.750,270.550,-140.140
159314755,-1.369,0.590,0.963,-2.940,253.610,-136.990
159314779,-1.344,0.509,0.645,2.730,287.560,-144.060
159314799,-1.548,0.649,0.808,-19.390,245.070,-128.310
159314819,-1.475,0.641,1.066,-43.050,218.820,-113.890
159314837,-1.440,0.472,1.084,-50.260,237.580,-95.130
159314859,-1.570,0.346,0.885,-35.490,251.370,-82.950
159314883,-1.392,0.369,0.858,-34.860,221.830,-85.260
159314903,-1.360,0.378,0.978,-14.350,183.120,-85.050
159314919,-1.297,0.232,0.954,26.320,175.490,-83.440
159314942,-1.438,0.379,0.888,44.170,168.000,-83.160
159314963,-1.422,0.300,0.736,61.740,155.050,-64.120
159314983,-1.539,0.399,0.642,40.110,93.520,-64.400
159315003,-1.219,-0.490,1.630,140.350,-14.770,-54.180
159315022,-1.223,0.722,1.843,393.820,76.860,-0.840
159315041,-1.295,0.841,0.907,145.950,-0.490,-13.440
159315064,-0.949,0.796,0.645,77.980,11.620,-11.060
159315085,-1.068,0.697,0.205,-40.110,-17.640,-10.780
159315105,-0.972,0.439,-0.010,-81.480,-22.680,2.240
159315125,-0.923,0.273,-0.148,-96.250,-23.940,6.440
159315144,-0.876,0.068,-0.145,-87.500,-18.620,9.380
159315164,-0.880,0.069,-0.096,-69.160,-10.290,11.270
159315185,-0.929,0.066,-0.039,-58.660,-4.480,8.820
159315204,-0.973,0.049,0.001,-54.670,-3.080,4.550
159315228,-0.991,-0.015,0.018,-35.840,-0.980,-0.770
159315249,-1.006,0.000,0.070,-6.020,0.560,-3.430
159315269,-0.988,0.067,0.130,8.260,3.780,-2.520
159315287,-0.982,0.174,0.175,5.600,2.100,-1.960
159315311,-0.984,0.193,0.204,2.590,3.360,-1.190
159315331,-0.993,0.178,0.197,0.910,-0.770,-2.030
159315350,-0.998,0.180,0.188,5.460,-4.060,-2.520
159315370,-0.976,0.191,0.184,7.350,-5.530,-2.660
159315390,-0.966,0.203,0.162,2.730,-7.000,-3.640
159315414,-0.977,0.204,0.104,-2.520,-5.180,-4.130
159315433,-0.994,0.185,0.075,-5.460,-4.550,-3.220
159315452,-0.974,0.147,0.083,-1.470,-4.690,-1.330
159315477,-0.954,0.143,0.111,8.680,-0.980,-0.070
159315497,-0.964,0.183,0.137,10.640,-0.840,0.980
159315516,-0.964,0.227,0.164,6.650,-1.960,2.310
159315532,-0.962,0.245,0.194,-2.730,-2.800,2.870
159315552,-0.965,0.237,0.194,-11.550,-4.830,2.170
159315572,-1.021,0.211,0.132,-14.000,-5.600,1.540
159315592,-1.042,0.181,0.098,-16.800,-11.270,1.540
159315616,-0.983,0.128,0.161,-13.580,-13.510,3.430
159315637,-0.952,0.111,0.183,-0.280,-14.280,4.690
159315653,-0.960,0.123,0.203,7.210,-11.550,2.870
159315676,-0.972,0.123,0.270,12.460,-16.800,0.770
159315696,-0.967,0.161,0.309,18.830,-19.600,0.350
159315715,-0.983,0.171,0.356,18.060,-36.960,-0.840
159315739,-0.976,0.175,0.596,21.840,-43.610,0.770
159315763,-1.091,0.230,0.750,28.910,-68.040,5.740
159315778,-1.068,0.180,0.772,42.420,-75.320,8.750
159315803,-1.179,0.294,0.791,57.960,-84.140,19.250
159315823,-1.249,0.246,0.847,66.640,-111.440,38.010
159315842,-1.266,0.302,0.963,97.020,-128.520,53.200
159315860,-1.185,0.315,1.001,120.120,-143.360,68.110
159315879,-1.180,0.412,1.075,134.470,-148.330,84.840
159315900,-1.311,0.568,1.143,124.740,-173.320,101.990
159315922,-1.302,0.504,1.078,98.420,-184.030,116.970
159315939,-1.381,0.601,0.992,98.280,-206.080,130.340
159315964,-1.444,0.798,1.002,80.010,-228.410,150.920
159315984,-1.462,0.751,0.925,45.360,-240.170,161.000
159316004,-1.519,0.718,0.834,42.770,-252.000,177.730
159316028,-1.418,0.690,0.751,61.180,-263.130,202.020
159316048,-1.351,0.776,0.790,55.370,-268.800,216.440
159316068,-1.240,0.827,0.706,38.710,-282.940,226.310
159316088,-1.172,0.836,0.753,11.480,-290.220,230.720
159316112,-1.045,0.798,0.638,-3.360,-299.950,231.700
159316130,-0.788,0.755,0.570,-2.240,-294.000,232.050
159316154,-0.759,0.756,0.512,0.560,-288.190,233.800
159316171,-0.718,0.657,0.500,11.550,-291.550,238.560
159316191,-0.592,0.640,0.450,37.240,-296.100,246.540
159316211,-0.566,0.799,0.341,42.980,-281.050,266.560
159316235,-0.504,0.555,0.114,48.580,-275.450,285.880
159316254,-0.173,0.414,0.042,23.030,-267.820,273.910
159316273,-0.030,0.244,-0.073,4.200,-249.340,270.690
159316293,0.020,0.104,-0.381,-39.130,-218.330,259.490
159316313,0.095,-0.101,-0.516,-56.630,-194.740,242.900
159316337,0.308,-0.336,-0.534,-72.870,-136.080,203.000
159316356,0.488,-0.673,-0.663,-52.360,-135.030,175.070
159316380,0.808,-0.516,-0.535,-17.290,-69.930,131.880
159316402,0.648,-0.594,-0.603,-26.950,-75.040,90.650
159316426,0.818,-0.481,-0.519,-22.890,-19.740,65.310
159316443,0.887,-0.456,-0.423,-17.150,-4.620,45.570
159316467,0.941,-0.447,-0.350,-4.270,5.390,21.630
159316487,0.993,-0.409,-0.316,3.780,10.990,4.410
159316505,1.056,-0.380,-0.248,12.460,14.630,-9.100
159316529,1.075,-0.339,-0.182,21.490,19.320,-22.540
159316548,1.078,-0.284,-0.140,31.360,21.770,-28.770
159316567,1.034,-0.178,-0.036,37.730,20.510,-33.390
159316591,1.017,-0.079,0.056,24.290,10.010,-36.680
159316614,1.069,-0.042,-0.000,12.670,12.460,-36.120
159316636,1.032,-0.055,0.003,9.380,20.230,-34.930
159316656,0.951,-0.015,0.114,9.940,14.840,-31.430
159316676,0.950,-0.020,0.108,9.170,9.030,-31.500
159316700,0.920,-0.003,0.109,10.360,6.300,-31.220
159316719,0.969,0.014,0.060,8.190,7.980,-30.310
159316740,0.963,0.000,0.071,11.620,16.520,-28.070
159316760,0.993,0.039,0.030,18.480,17.780,-23.310
159316780,0.969,0.044,-0.072,21.490,26.740,-20.580
159316804,0.949,0.049,-0.192,34.300,39.130,-22.610
159316824,0.904,-0.003,-0.289,41.440,53.340,-27.300
159316843,0.971,-0.154,-0.315,37.380,67.480,-39.130
159316863,1.027,-0.218,-0.374,51.730,89.670,-46.760
159316887,0.949,-0.144,-0.423,71.050,123.200,-57.610
159316902,0.846,-0.141,-0.480,79.520,158.410,-73.850
159316927,0.710,-0.122,-0.430,90.720,182.070,-98.630
159316945,0.555,-0.048,-0.345,105.630,196.980,-115.990
159316967,0.513,0.064,-0.316,115.360,216.650,-138.250
159316991,0.431,0.184,-0.215,109.200,239.330,-158.620
159317011,0.310,0.243,-0.058,87.080,257.250,-196.630
159317031,0.103,0.338,0.093,71.540,265.930,-204.330
159317051,-0.097,0.565,0.164,33.740,255.640,-215.740
159317070,-0.213,0.655,0.268,-3.290,254.730,-228.200
159317089,-0.377,0.670,0.653,-34.090,240.660,-219.940
159317113,-0.407,0.482,0.608,-32.970,254.100,-214.340
159317133,-0.630,0.460,0.553,-24.710,273.770,-226.800
159317153,-0.762,0.502,0.509,-49.770,289.450,-231.560
159317173,-0.929,0.487,0.586,-66.640,304.570,-229.390
159317191,-1.260,0.500,1.004,-65.660,305.200,-207.410
159317213,-1.464,0.323,1.111,-37.590,254.800,-183.680
159317235,-1.316,0.356,0.759,-7.490,241.500,-185.150
159317257,-1.396,0.354,0.501,28.770,258.090,-191.380
159317275,-1.490,0.720,0.606,19.040,212.940,-176.680
159317294,-1.294,0.631,0.748,-17.850,182.420,-164.780
159317317,-1.429,0.440,0.900,-28.000,188.510,-138.040
159317339,-1.335,0.274,1.053,-14.630,162.330,-117.530
159317363,-1.204,0.371,0.958,13.300,169.470,-108.080
159317380,-1.353,0.452,0.786,32.340,171.080,-104.020
159317403,-1.490,0.566,0.876,4.690,131.040,-73.640
159317423,-1.311,0.676,1.052,-38.640,101.220,-39.550
159317439,-1.040,0.377,1.050,-52.080,108.640,-14.700
159317463,-1.226,0.440,0.912,-79.240,108.360,10.640
159317480,-1.145,0.150,0.855,-57.750,126.980,24.010
159317499,-1.328,-0.026,0.545,-78.610,100.940,17.570
159317524,-0.806,0.088,1.169,12.530,68.320,28.490
159317544,-1.132,0.237,0.833,-37.730,-9.450,12.040
159317564,-0.834,0.056,0.550,13.790,10.430,1.890
159317584,-0.912,0.210,0.375,18.690,-2.730,-4.480
159317604,-0.878,0.264,0.232,20.160,0.280,-8.470
159317624,-0.905,0.324,0.176,3.360,-6.440,-8.890
159317646,-0.914,0.308,0.087,-20.930,-6.650,-6.510
159317670,-0.924,0.257,0.043,-30.030,-2.940,-2.940
159317690,-0.978,0.216,0.053,-32.410,-0.910,-1.120
159317710,-0.977,0.157,0.099,-28.280,0.840,0.070
159317728,-0.965,0.100,0.132,-11.340,0.560,-0.210
159317752,-0.962,0.116,0.164,8.190,1.890,0.840
159317772,-0.964,0.157,0.186,13.160,4.830,-0.840
159317791,-0.977,0.198,0.217,9.730,3.010,-0.980
159317812,-0.998,0.188,0.260,3.220,-0.700,-1.120
159317829,-0.960,0.177,0.260,4.130,1.400,-0.980
159317852,-0.990,0.169,0.233,7.770,-0.560,-2.100
159317873,-0.977,0.178,0.222,9.940,-3.640,-4.340
159317889,-0.978,0.203,0.228,8.470,-5.390,-4.760
159317913,-0.950,0.211,0.210,5.040,-7.700,-3.220
159317933,-0.935,0.214,0.180,2.030,-4.900,-2.170
159317953,-0.968,0.201,0.164,0.210,-4.270,-1.470
159317972,-0.972,0.188,0.175,0.840,-3.990,-1.120
159317996,-0.983,0.175,0.214,2.940,-4.970,-0.980
159318016,-0.987,0.166,0.233,6.860,-7.000,-1.470
159318036,-0.961,0.153,0.254,11.900,-10.150,-3.010
159318056,-0.959,0.143,0.282,18.340,-12.040,-4.200
159318074,-0.942,0.146,0.325,20.090,-14.000,-3.990
159318093,-0.932,0.146,0.446,18.480,-18.690,-2.030
159318117,-1.008,0.145,0.519,23.940,-22.610,1.680
159318132,-1.047,0.136,0.557,30.940,-35.490,6.440
159318157,-1.098,0.203,0.675,25.130,-52.570,10.430
159318177,-1.168,0.333,1.040,-0.910,-80.500,15.750
159318195,-1.248,0.254,1.160,-19.460,-92.890,25.060
159318213,-1.368,0.243,1.089,-3.710,-129.990,40.740
159318233,-1.311,0.286,1.185,3.850,-155.330,52.710
159318257,-1.378,0.162,1.229,30.660,-197.750,66.570
159318276,-1.377,0.105,1.293,48.860,-231.980,73.780
159318299,-1.340,0.200,1.272,75.460,-234.080,82.600
159318323,-1.397,0.359,1.202,71.400,-249.760,87.360
159318342,-1.444,0.427,1.162,52.640,-274.190,83.790
159318363,-1.499,0.524,1.085,40.180,-299.040,84.280
159318383,-1.479,0.534,0.982,31.710,-313.040,89.250
159318403,-1.411,0.600,0.915,19.180,-325.080,93.520
159318421,-1.437,0.553,0.850,24.710,-330.820,109.830
159318443,-1.308,0.553,0.845,43.050,-337.120,126.770
159318462,-1.143,0.604,0.633,69.090,-331.030,139.020
159318487,-1.038,0.731,0.595,64.540,-329.000,157.500
159318504,-0.917,0.754,0.590,61.250,-344.260,171.990
159318522,-0.720,0.792,0.643,31.990,-352.310,180.320
159318542,-0.671,0.603,0.589,31.990,-348.110,191.310
159318567,-0.476,0.383,0.307,32.130,-343.280,192.990
159318586,-0.344,0.499,0.131,37.240,-317.030,195.510
159318607,-0.338,0.384,0.106,35.980,-313.810,193.970
159318627,-0.041,0.196,-0.132,45.570,-315.140,189.630
159318651,0.062,0.170,-0.149,13.510,-250.320,174.580
159318671,0.232,-0.028,-0.386,-48.720,-209.090,154.490
159318691,0.391,-0.288,-0.593,-40.810,-202.440,132.580
159318711,0.566,-0.256,-0.636,-26.810,-141.330,109.270
159318732,0.468,-0.221,-0.635,-17.360,-141.750,86.030
159318756,0.660,-0.199,-0.587,-14.000,-120.330,64.540
159318775,0.812,-0.165,-0.636,-6.790,-32.130,53.480
159318799,0.994,-0.207,-0.494,-9.030,-16.590,32.060
159318815,1.020,-0.155,-0.453,-2.660,-4.410,34.370
159318834,1.085,-0.132,-0.429,4.900,16.170,15.680
159318860,1.053,-0.068,-0.382,15.190,13.580,4.270
159318874,1.098,-0.106,-0.236,28.070,36.680,-2.170
159318899,1.092,-0.007,-0.122,32.830,40.670,-7.350
159318919,1.073,-0.022,-0.042,36.540,42.350,-10.570
159318939,1.065,-0.006,0.009,39.480,34.510,-13.930
159318958,1.102,-0.018,0.021,36.610,38.780,-18.690
159318978,0.974,0.060,0.064,32.270,35.280,-19.950
159319001,0.968,0.085,0.151,27.300,35.000,-21.490
159319020,0.947,0.078,0.172,30.170,31.150,-18.130
159319040,0.999,-0.040,0.103,33.670,33.460,-20.370
159319062,0.935,0.019,0.006,59.360,52.990,-23.030
159319086,0.824,0.084,-0.151,96.250,86.870,-30.450
159319105,0.759,0.128,-0.180,98.140,92.750,-31.150
159319129,0.742,0.106,-0.169,75.250,111.160,-42.070
159319144,0.720,0.057,-0.231,59.500,128.100,-49.280
159319169,0.606,0.020,-0.218,56.140,160.020,-67.550
159319189,0.556,-0.100,-0.304,60.060,176.540,-87.220
159319209,0.532,-0.093,-0.285,65.660,196.910,-112.490
159319228,0.509,-0.021,-0.239,65.450,225.890,-134.190
159319249,0.400,0.070,-0.144,59.360,254.590,-157.220
159319273,0.242,0.156,0.005,45.430,268.310,-177.870
159319293,0.134,0.272,0.080,33.950,296.660,-197.120
159319312,-0.062,0.340,-0.002,35.700,328.370,-225.190
159319330,-0.452,0.506,0.066,-0.770,334.600,-244.160
159319354,-0.578,0.559,0.088,-46.620,335.580,-249.200
159319370,-0.844,0.613,0.322,-77.140,355.880,-242.270
159319389,-1.123,0.500,0.369,-81.830,361.410,-226.940
159319412,-1.198,0.350,0.436,-108.220,368.900,-223.090
159319432,-1.441,0.320,0.604,-128.030,379.680,-219.730
159319456,-1.553,0.245,0.742,-133.700,367.710,-205.590
159319476,-1.884,0.104,0.828,-116.550,359.380,-190.190
159319496,-2.395,0.068,1.394,-113.470,237.370,-171.570
159319516,-1.873,-0.404,1.185,-23.450,206.640,-138.460
159319536,-1.696,-0.427,0.651,95.410,237.510,-123.900
159319555,-1.785,-0.075,0.490,179.830,179.900,-94.290
159319580,-1.527,0.271,0.826,182.980,147.140,-59.500
159319600,-1.476,0.517,1.091,137.830,117.320,-50.400
159319617,-1.339,0.351,1.006,116.970,144.760,-29.050
159319636,-1.330,0.359,0.679,109.620,167.160,-15.890
159319656,-1.333,0.483,0.451,110.390,174.300,-24.220
159319681,-1.312,0.607,0.416,104.790,125.370,-33.740
159319701,-1.249,0.537,0.612,72.450,89.530,-24.570
159319720,-0.997,0.283,1.179,119.140,56.770,-4.970
159319744,-1.028,0.317,1.101,150.570,16.730,-11.410
159319762,-1.087,0.725,0.964,122.500,11.480,-16.520
159319782,-0.988,0.842,0.756,90.160,34.370,-2.240
159319806,-1.069,0.676,0.414,39.550,-19.670,1.400
159319825,-1.032,0.569,0.176,-35.910,-17.080,3.710
159319843,-1.023,0.405,0.027,-67.900,-27.930,8.960
159319862,-0.990,0.380,-0.017,-89.390,-20.440,18.130
159319886,-1.004,0.257,-0.022,-101.080,-22.610,24.570
159319906,-0.983,0.000,-0.015,-89.600,-18.830,24.220
159319926,-0.933,0.102,-0.035,-69.440,-14.840,26.390
159319947,-0.925,0.119,-0.060,-51.240,-11.690,25.130
159319967,-0.945,0.160,-0.061,-41.650,-8.330,21.980
159319989,-0.984,0.218,-0.053,-47.530,-10.080,20.160
159320009,-0.958,0.187,-0.016,-62.020,-11.760,16.590
159320033,-0.941,0.249,-0.032,-55.440,-3.780,11.620
159320053,-0.940,0.082,-0.017,-55.720,0.350,7.560
159320072,-0.966,0.067,0.056,-54.600,2.170,5.460
159320092,-0.998,0.116,0.132,-55.510,2.870,3.010
159320116,-0.963,0.044,0.188,-48.930,3.920,2.310
159320135,-0.985,0.097,0.271,-43.260,2.590,-4.200
159320154,-0.990,0.027,0.275,-22.120,2.870,-4.620
159320173,-0.997,0.057,0.286,2.590,0.700,-4.830
159320197,-0.990,0.153,0.267,13.580,-4.060,-5.320
159320216,-0.958,0.229,0.237,7.210,-6.790,-5.250
159320232,-0.969,0.255,0.210,0.980,-7.490,-4.620
159320256,-0.943,0.268,0.263,-8.750,-13.090,-2.380
159320275,-0.960,0.266,0.343,-15.680,-16.870,0.140
159320295,-0.986,0.261,0.435,-18.480,-23.380,3.150
159320319,-1.008,0.225,0.501,-27.090,-25.480,3.920
159320338,-1.067,0.245,0.720,-37.520,-46.900,8.470
159320354,-1.072,0.261,0.870,-44.380,-65.870,12.670
159320374,-1.211,0.194,0.976,-44.380,-81.690,17.850
159320398,-1.292,0.257,1.066,-38.290,-122.010,28.630
159320419,-1.247,0.247,1.252,-9.520,-132.160,45.780
159320438,-1.341,0.344,1.358,2.450,-167.300,59.500
159320461,-1.443,0.285,1.380,3.010,-190.190,60.830
159320484,-1.560,0.294,1.310,2.100,-236.530,69.510
159320503,-1.533,0.338,1.346,-5.810,-261.170,75.320
159320527,-1.660,0.221,1.233,8.190,-282.170,87.080
159320545,-1.595,0.203,1.226,34.160,-305.060,84.630
159320567,-1.727,0.319,1.111,43.750,-328.930,89.600
159320586,-1.662,0.315,0.889,52.710,-335.510,86.940
159320606,-1.491,0.361,0.651,59.780,-333.410,84.700
159320630,-1.440,0.505,0.532,68.880,-338.100,91.140
159320648,-1.387,0.442,0.549,71.470,-364.070,104.930
159320670,-1.242,0.539,0.439,72.940,-380.240,130.410
159320687,-0.981,0.571,0.443,68.810,-378.770,142.380
159320711,-0.739,0.457,0.366,64.680,-350.490,150.850
159320728,-0.689,0.512,0.346,67.200,-342.090,161.210
159320752,-0.542,0.536,0.220,58.590,-335.580,169.120
159320770,-0.338,0.463,0.143,44.100,-330.750,171.010
159320790,-0.078,0.351,0.029,37.590,-310.100,170.170
159320811,0.094,0.216,-0.061,16.520,-274.330,165.060
159320835,0.130,0.129,-0.167,-8.190,-241.290,145.390
159320855,0.120,0.054,-0.284,-8.680,-228.480,129.990
159320875,0.433,0.027,-0.268,-11.830,-214.060,111.370
159320894,0.675,-0.009,-0.391,-33.810,-179.200,96.950
159320915,0.714,-0.063,-0.405,-27.510,-141.540,81.620
159320932,0.729,-0.123,-0.437,-23.100,-139.930,67.480
159320956,1.187,-0.117,-0.442,-24.850,-94.570,52.150
159320976,0.960,-0.091,-0.522,-39.620,-119.630,37.730
159320996,1.262,-0.219,-0.583,3.360,-20.510,26.810
159321016,1.456,-0.181,-0.535,26.950,61.950,18.620
159321036,0.936,-0.092,-0.532,34.580,16.450,6.160
159321056,1.059,-0.048,-0.487,44.450,56.070,2.380
159321074,1.076,0.005,-0.345,44.870,69.090,-3.640
159321094,0.997,0.050,-0.208,42.070,80.710,-10.710
159321115,0.963,0.052,-0.052,49.630,77.140,-18.340
159321134,0.952,0.123,0.017,48.860,70.070,-19.670
159321159,1.006,0.158,-0.091,45.360,90.090,-26.390
159321178,0.914,0.143,0.018,38.010,98.560,-27.930
159321196,0.868,0.064,0.112,30.590,94.640,-31.640
159321220,0.853,0.046,0.008,37.590,105.140,-41.370
159321238,0.841,0.002,-0.179,44.730,138.530,-54.040
159321260,0.810,-0.020,-0.209,44.730,185.570,-71.960
159321275,0.738,-0.099,-0.103,45.570,176.260,-84.840
159321299,0.765,0.028,-0.068,33.600,223.160,-98.560
159321319,0.592,0.124,-0.114,24.080,240.590,-116.550
159321339,0.446,0.172,-0.105,7.140,269.640,-129.290
159321360,0.163,0.260,0.019,-31.710,323.540,-143.080
159321380,-0.180,0.280,0.247,-25.340,320.040,-144.830
159321403,-0.383,0.608,0.534,-34.510,287.140,-135.730
159321424,-0.358,0.527,0.453,-52.220,272.930,-121.660
159321443,-0.368,0.468,0.226,-63.420,297.850,-123.830
159321467,-0.536,0.397,0.315,-82.600,317.870,-134.330
159321487,-0.794,0.484,0.585,-93.240,312.830,-117.180
159321507,-0.976,0.390,0.655,-62.230,306.950,-98.840
159321530,-1.248,0.468,0.533,-32.970,314.860,-87.710
159321554,-1.273,0.429,0.712,-25.900,276.360,-66.640
159321572,-1.276,0.331,0.744,-10.010,259.280,-57.330
159321594,-1.344,0.283,0.676,21.560,252.910,-50.540
159321614,-1.469,0.274,0.782,35.350,231.490,-51.380
159321634,-1.347,0.230,1.043,30.590,194.390,-50.610
159321654,-1.285,0.051,1.066,63.560,190.750,-56.210
159321673,-1.343,0.092,0.869,106.470,194.250,-66.640
159321693,-1.437,0.155,0.656,133.280,188.510,-88.200
159321716,-1.347,0.446,0.792,130.900,172.200,-94.360
159321737,-1.421,0.764,0.980,80.780,155.960,-88.410
159321757,-1.419,0.585,1.105,3.500,154.980,-73.850
159321776,-1.388,0.126,0.957,0.140,144.830,-66.640
159321795,-1.147,-0.014,0.623,56.630,177.100,-78.190
159321815,-1.381,0.325,0.495,119.490,100.100,-86.240
159321834,-0.877,-0.048,0.982,141.960,79.590,-92.820
159321859,-1.605,0.711,1.471,180.530,7.280,-38.010
159321878,-1.001,0.804,1.241,125.230,-9.730,-30.940
159321897,-1.197,0.625,0.798,84.770,3.360,-6.230
159321916,-0.977,0.785,0.584,20.230,6.230,1.260
159321935,-1.063,0.504,0.269,-24.150,-17.850,5.110
159321960,-1.005,0.442,0.070,-67.830,-24.430,3.570
159321979,-0.911,0.317,0.045,-77.700,-23.660,5.950
159322000,-0.911,0.237,-0.034,-79.450,-23.310,11.480
159322020,-0.880,0.183,-0.045,-77.770,-15.190,14.700
159322040,-0.880,0.140,-0.035,-70.000,-9.030,14.000
159322064,-0.916,0.124,-0.024,-61.950,-2.870,12.040
159322079,-0.955,0.115,-0.020,-56.000,0.210,9.940
159322101,-0.969,0.133,0.014,-55.510,1.260,5.250
159322124,-0.977,0.150,0.060,-56.700,0.630,4.130
159322148,-0.876,0.131,0.122,-55.720,-2.660,3.500
159322168,-0.981,0.101,0.178,-44.030,-0.630,1.890
159322188,-0.920,0.010,0.208,-25.970,9.940,3.920
159322208,-0.985,0.033,0.320,-17.990,-1.610,-0.840
159322225,-0.962,0.028,0.361,3.780,-0.490,-1.820
159322245,-0.969,0.129,0.332,10.080,-1.610,-1.540
159322265,-0.907,0.228,0.375,-4.340,-4.480,-0.770
159322284,-0.979,0.248,0.466,-12.950,-20.300,4.340
159322309,-0.992,0.232,0.519,-17.360,-30.240,5.530
159322329,-0.952,0.187,0.511,-14.140,-26.810,2.660
159322347,-0.979,0.190,0.544,-12.250,-35.700,4.480
159322369,-1.060,0.288,0.810,-15.120,-59.640,8.820
159322389,-1.121,0.292,0.915,-16.380,-87.710,15.820
159322412,-1.159,0.122,0.954,-12.740,-92.960,22.890
159322435,-1.269,0.175,1.040,16.520,-115.570,39.270
159322455,-1.314,0.270,1.145,20.930,-158.480,50.050
159322476,-1.356,0.306,1.567,21.420,-198.100,67.060
159322493,-1.608,0.378,1.771,-4.830,-252.980,77.210
159322514,-1.709,0.254,1.710,-29.050,-280.280,91.630
159322537,-1.987,0.083,1.517,-15.610,-328.300,106.400
159322557,-1.862,0.028,1.380,38.220,-372.820,116.760
159322578,-1.800,0.201,1.398,89.950,-380.800,111.440
159322598,-1.885,0.346,1.226,112.910,-400.330,119.210
159322622,-1.858,0.701,0.845,99.330,-418.250,137.480
159322640,-1.629,0.925,0.568,52.290,-430.290,150.150
159322660,-1.315,0.688,0.643,30.450,-445.620,165.200
159322684,-1.119,0.621,0.675,29.050,-427.980,185.360
159322699,-1.078,0.724,0.610,28.910,-414.750,193.620
159322724,-0.805,0.607,0.285,9.240,-402.080,193.970
159322739,-0.550,0.477,0.105,11.130,-389.830,192.920
159322759,-0.363,0.333,-0.029,5.320,-374.850,182.280
159322784,-0.184,0.155,-0.171,-0.630,-336.770,154.980
159322804,-0.004,0.024,-0.261,-4.060,-304.080,133.070
159322820,-0.041,-0.028,-0.342,-12.250,-254.100,112.210
159322840,0.082,-0.118,-0.502,-19.950,-255.640,93.240
159322863,0.283,-0.032,-0.610,-20.370,-192.500,73.080
159322886,0.282,-0.177,-0.687,-27.860,-158.830,58.170
159322905,0.337,-0.108,-0.674,-36.120,-169.260,41.930
159322928,0.499,-0.117,-0.723,-2.100,-122.430,33.250
159322948,0.757,-0.007,-0.677,-4.410,-85.400,25.620
159322967,0.859,-0.012,-0.647,-7.000,-35.560,18.340
159322989,0.956,-0.039,-0.584,1.540,5.110,5.180
159323009,1.044,-0.036,-0.462,15.750,2.590,-3.780
159323033,1.060,0.033,-0.303,18.550,16.030,-1.820
159323052,1.110,0.093,-0.209,23.310,33.040,-6.650
159323071,1.192,0.085,-0.181,15.400,34.440,-3.780
159323093,1.100,0.113,-0.183,18.620,41.720,-5.320
159323113,1.034,0.164,-0.084,22.680,40.460,-4.060
159323133,1.042,0.140,-0.037,26.180,38.430,-2.730
159323152,1.029,0.141,-0.029,25.200,36.470,0.070
159323168,1.015,0.137,-0.019,19.880,35.770,0.770
159323192,0.997,0.056,-0.109,23.450,37.030,-0.210
159323211,0.976,0.016,-0.175,28.420,46.340,-7.140
159323231,0.897,0.052,-0.207,36.680,62.510,-6.370
159323255,0.818,0.088,-0.267,47.110,80.640,-12.040
159323274,0.763,0.096,-0.273,42.070,97.230,-17.570
159323294,0.790,0.004,-0.326,40.180,117.110,-28.140
159323318,0.789,-0.042,-0.371,44.310,159.390,-40.390
159323342,0.728,-0.067,-0.403,51.450,189.000,-56.140
159323362,0.610,-0.018,-0.381,57.260,218.540,-70.350
159323381,0.553,0.032,-0.371,56.280,239.960,-85.050
159323399,0.526,0.100,-0.325,51.100,272.160,-100.870
159323423,0.382,0.169,-0.300,45.290,304.640,-122.010
159323438,0.148,0.196,-0.252,43.050,340.550,-136.570
159323463,-0.008,0.252,-0.152,28.910,373.100,-159.390
159323483,-0.294,0.351,0.114,-5.740,414.190,-173.810
159323503,-0.591,0.558,0.062,-33.530,409.500,-184.660
159323521,-0.769,0.524,0.096,-75.460,427.840,-188.160
159323540,-1.056,0.285,0.282,-116.970,440.370,-186.060
159323564,-1.354,0.076,0.462,-123.970,432.390,-187.810
159323585,-1.684,-0.032,0.462,-87.360,443.730,-197.050
159323605,-1.994,-0.016,0.739,-70.630,406.840,-200.200
159323628,-2.151,-0.059,0.982,-40.740,332.080,-194.110
159323647,-2.147,-0.201,0.743,31.290,301.910,-189.210
159323665,-2.513,-0.248,0.465,131.530,243.040,-162.750
159323690,-1.826,0.452,0.925,122.710,201.040,-118.230
159323707,-1.847,0.416,1.264,91.910,160.930,-75.110
159323731,-1.499,0.183,1.446,73.920,125.090,-20.160
159323750,-1.444,0.032,1.152,109.480,171.360,-14.350
159323770,-1.454,0.203,0.841,140.910,178.220,-15.610
159323790,-1.357,0.470,0.722,150.710,173.110,-29.260
159323810,-1.464,0.724,0.578,109.620,159.670,-22.470
159323832,-1.338,1.031,0.595,19.950,104.860,-14.840
159323851,-1.114,0.338,0.859,-76.370,60.340,-13.440
159323876,-1.183,0.064,0.873,-29.050,9.660,-7.630
159323894,-0.911,-0.261,1.540,53.970,39.060,13.650
159323912,-0.824,0.318,1.205,100.800,40.040,0.840
159323933,-1.098,0.352,0.551,90.580,-10.990,-4.970
159323956,-0.963,0.453,0.343,64.190,-3.010,-11.480
159323976,-0.972,0.481,0.211,-2.590,-12.180,-3.430
159323996,-0.956,0.441,0.062,-48.370,-17.710,1.750
159324016,-0.946,0.292,-0.000,-67.130,-14.560,8.190
159324035,-0.936,0.227,-0.019,-72.380,-7.700,10.010
159324054,-0.993,0.180,-0.011,-74.340,-4.060,10.640
159324080,-1.007,0.146,-0.014,-72.520,-5.670,10.990
159324098,-0.964,0.089,-0.028,-56.350,-4.760,11.410
159324119,-0.929,0.050,-0.021,-33.950,-0.560,10.220
159324137,-0.930,0.064,0.024,-17.360,1.750,8.750
159324161,-0.959,0.112,0.095,-10.430,1.260,5.880
159324181,-0.959,0.135,0.163,-6.090,0.350,4.340
159324201,-0.985,0.197,0.266,-8.260,-1.330,0.980
159324217,-0.991,0.139,0.291,-3.990,-0.350,0.420
159324241,-1.016,0.219,0.320,-3.500,-5.390,0.770
159324261,-1.027,0.232,0.322,-20.650,-13.720,0.630
159324277,-0.999,0.261,0.403,-37.310,-23.030,3.150
159324301,-0.982,0.186,0.514,-42.630,-38.710,5.460
159324318,-1.052,0.221,0.688,-44.590,-38.150,10.430
159324342,-1.099,0.248,0.915,-62.090,-49.700,18.760
159324362,-1.286,0.274,0.995,-68.600,-97.300,37.940
159324382,-1.338,0.205,1.142,-60.410,-124.530,53.480
159324401,-1.387,0.150,1.188,-37.170,-130.760,70.560
159324422,-1.437,0.347,1.285,5.950,-170.800,97.510
159324441,-1.475,0.439,1.419,16.100,-219.450,110.180
159324461,-1.540,0.465,1.416,-4.060,-245.840,115.570
159324485,-1.556,0.419,1.225,-12.320,-276.080,118.300
159324509,-1.483,0.622,1.150,-42.070,-303.240,90.650
159324530,-1.391,0.380,1.033,-65.170,-322.280,89.670
159324545,-1.406,0.322,0.915,-47.180,-319.830,76.720
159324567,-1.369,0.485,0.849,-36.890,-325.710,77.210
159324587,-1.253,0.435,0.808,-25.270,-331.940,74.760
159324611,-1.272,0.394,0.742,6.020,-337.190,78.680
159324631,-1.095,0.361,0.712,41.930,-347.830,83.160
159324650,-1.018,0.473,0.797,66.430,-356.300,89.810
159324671,-0.888,0.583,0.697,69.860,-363.300,99.540
159324690,-0.693,0.570,0.630,60.130,-358.400,110.600
159324709,-0.555,0.553,0.796,46.130,-363.930,122.640
159324728,-0.406,0.431,0.714,39.130,-364.420,129.780
159324752,-0.189,0.394,0.481,27.860,-353.500,128.800
159324772,-0.162,0.329,0.231,8.540,-336.700,120.750
159324790,-0.088,0.186,0.170,-1.610,-320.600,112.280
159324809,0.091,0.061,0.066,-3.010,-319.270,98.700
159324834,0.259,0.024,-0.253,15.680,-274.820,91.280
159324853,0.237,0.252,-0.451,-20.720,-213.850,81.410
159324877,0.333,-0.016,-0.649,-65.240,-175.840,65.660
159324897,0.388,-0.032,-0.621,-33.880,-150.780,51.660
159324916,0.767,-0.014,-0.697,-35.280,-120.610,31.010
159324936,0.650,0.080,-0.713,-22.050,-99.610,30.450
159324960,0.780,0.057,-0.689,-21.210,-38.920,27.650
159324979,0.859,0.139,-0.522,-10.150,-20.860,20.650
159324998,0.869,0.099,-0.328,8.890,-14.000,13.580
159325023,0.983,0.110,-0.269,-4.410,-19.950,14.210
159325038,1.150,0.087,-0.294,-7.350,-11.550,15.260
159325060,1.093,0.130,-0.275,-0.770,12.530,14.490
159325084,1.052,0.086,-0.147,1.050,8.330,6.090
159325103,1.120,0.045,-0.097,15.750,10.920,4.830
159325127,1.148,0.037,-0.124,39.970,14.140,0.700
159325145,1.069,0.062,-0.193,53.690,26.250,-2.800
159325167,0.963,0.110,-0.318,65.380,47.950,-6.160
159325187,0.752,0.139,-0.419,54.670,69.790,-9.520
159325205,0.730,0.025,-0.494,46.550,95.760,-15.750
159325225,0.654,-0.066,-0.554,46.130,135.660,-30.450
159325248,0.550,-0.144,-0.558,52.290,181.650,-48.020
159325271,0.421,-0.116,-0.557,68.530,227.850,-66.850
159325291,0.304,-0.085,-0.541,76.860,261.590,-94.920
159325311,0.242,0.040,-0.428,77.770,298.480,-118.440
159325330,0.197,0.172,-0.305,65.380,335.930,-139.370
159325355,0.075,0.189,-0.211,38.010,382.060,-156.940
159325375,-0.121,0.144,-0.184,39.270,420.420,-168.630
159325395,-0.327,0.269,-0.106,25.970,450.870,-196.840
159325417,-0.719,0.480,0.110,-33.040,474.390,-214.550
159325441,-0.878,0.466,0.266,-98.840,466.550,-216.230
159325461,-1.269,0.366,0.491,-153.720,456.260,-213.080
159325478,-1.425,-0.040,0.408,-142.590,444.150,-219.030
159325502,-1.700,-0.132,0.285,-114.660,485.590,-252.840
159325522,-2.339,-0.131,0.461,-99.120,493.360,-274.120
159325540,-3.252,-0.006,1.427,-54.320,343.350,-260.540
159325564,-2.739,-0.244,1.158,-17.920,238.210,-203.350
159325584,-2.219,-0.332,0.421,164.710,203.210,-143.010
159325603,-1.673,0.217,0.910,178.080,134.470,-83.860
159325627,-1.831,-0.094,0.868,174.510,142.660,-15.960
159325647,-1.608,-0.156,1.014,177.240,150.010,23.940
159325662,-1.268,0.148,1.099,189.770,163.030,31.710
159325686,-1.198,0.472,1.004,197.610,192.710,7.630
159325707,-1.446,0.701,0.659,131.110,202.300,1.190
159325725,-1.416,0.920,0.482,89.740,143.710,-11.270
159325749,-1.183,0.919,0.560,-23.660,71.750,-27.300
159325768,-1.060,0.258,0.895,-8.260,50.540,-23.590
159325789,-0.916,-0.002,1.259,45.640,29.960,-17.150
159325808,-0.863,0.342,0.833,135.870,22.050,-13.090
159325825,-1.038,0.532,0.513,136.920,2.170,-12.460
159325845,-1.035,0.644,0.304,73.920,-6.860,-10.570
159325865,-0.983,0.627,0.142,22.190,-14.140,-7.000
159325886,-0.976,0.549,0.038,-36.050,-20.510,-1.820
159325910,-0.929,0.423,0.005,-87.570,-17.710,6.160
159325927,-0.936,0.291,0.015,-105.350,-17.500,12.390
159325951,-0.939,0.247,-0.004,-111.160,-11.690,17.920
159325971,-0.963,0.185,-0.012,-102.270,-10.220,17.220
159325991,-1.003,0.140,-0.004,-87.570,-10.500,16.240
159326009,-1.021,0.149,-0.001,-83.020,-13.790,16.940
159326033,-0.972,0.128,0.006,-63.350,-13.230,17.290
159326053,-0.970,0.118,0.008,-50.540,-9.520,17.850
159326071,-0.992,0.125,0.019,-42.980,-5.250,17.710
159326093,-1.028,0.134,0.056,-41.090,-4.410,17.500
159326117,-1.017,0.135,0.084,-48.860,-6.930,17.780
159326136,-0.962,0.074,0.123,-52.290,-4.900,16.030
159326157,-0.984,0.055,0.165,-51.590,-4.620,14.350
159326177,-0.986,-0.061,0.218,-37.100,-1.050,7.770
159326197,-1.025,-0.016,0.255,-17.500,-3.430,4.270
159326216,-0.968,0.003,0.252,1.330,-3.290,-0.070
159326237,-0.977,0.108,0.216,11.270,-4.760,-3.220
159326255,-0.969,0.172,0.230,14.840,-2.310,-4.620
159326275,-0.954,0.242,0.237,11.760,-4.830,-4.340
159326294,-0.924,0.301,0.264,3.990,-6.790,-4.130
159326319,-0.886,0.349,0.360,-9.660,-8.890,-2.240
159326339,-1.015,0.342,0.537,-4.340,-22.120,1.330
159326360,-1.036,0.329,0.590,-17.640,-41.650,-0.140
159326379,-1.054,0.335,0.586,-14.070,-47.040,6.300
159326395,-1.118,0.410,0.704,-12.880,-55.300,18.480
159326419,-1.223,0.524,0.804,-29.050,-88.130,38.640
159326437,-1.276,0.362,0.878,-42.490,-107.660,58.100
159326461,-1.387,0.481,1.038,-10.430,-119.490,99.890
159326481,-1.501,0.545,1.130,12.880,-165.130,133.420
159326498,-1.576,0.508,1.143,29.820,-196.490,159.880
159326520,-1.599,0.711,1.199,29.680,-238.140,189.210
159326541,-1.717,0.798,1.257,-14.210,-264.390,205.100
159326560,-1.632,0.612,1.186,-34.510,-288.750,210.840
159326585,-1.575,0.601,1.037,-40.110,-318.780,205.450
159326605,-1.331,0.522,1.062,-52.850,-336.560,191.730
159326628,-1.338,0.579,0.998,-57.820,-337.680,177.800
159326648,-1.252,0.511,0.933,-58.240,-350.910,164.150
159326666,-1.192,0.500,0.898,-51.030,-365.610,147.000
159326690,-1.057,0.506,0.756,-24.920,-394.170,138.810
159326709,-0.874,0.468,0.513,-14.700,-394.800,127.120
159326729,-0.716,0.471,0.495,21.140,-387.940,124.110
159326749,-0.604,0.503,0.469,49.910,-380.870,129.150
159326771,-0.575,0.548,0.533,73.430,-352.870,145.670
159326790,-0.586,0.599,0.270,46.130,-359.870,161.560
159326810,-0.407,0.546,-0.006,24.780,-367.990,171.360
159326834,-0.005,0.337,-0.164,-13.720,-328.440,161.000
159326855,0.138,0.100,-0.323,-51.800,-284.480,138.110
159326874,0.285,-0.114,-0.447,-20.370,-241.010,110.320
159326894,0.076,-0.224,-0.467,-14.000,-241.990,92.330
159326914,0.448,-0.124,-0.679,-25.270,-203.980,72.940
159326938,0.540,-0.088,-0.839,-27.440,-154.490,52.920
159326958,0.813,-0.072,-0.886,-21.280,-98.350,37.940
159326978,0.824,-0.107,-0.765,-14.280,-63.210,22.330
159326995,0.819,-0.031,-0.601,-5.040,-35.560,10.920
159327019,0.801,0.083,-0.508,4.900,-12.390,4.760
159327039,0.978,0.065,-0.501,8.050,0.350,1.680
159327056,0.968,0.083,-0.448,13.230,4.830,-2.380
159327076,0.982,0.099,-0.352,19.670,13.160,-3.150
159327100,0.993,0.119,-0.271,27.090,9.450,-7.560
159327119,0.959,0.140,-0.170,32.200,2.730,-6.160
159327139,1.042,0.104,-0.211,28.140,5.180,-10.010
159327163,1.091,0.045,-0.321,20.160,20.300,-15.890
159327183,1.109,-0.010,-0.307,17.220,52.640,-24.500
159327207,1.046,-0.029,-0.214,31.990,52.080,-29.610
159327226,0.990,-0.128,-0.424,50.400,80.570,-42.840
159327245,0.978,-0.327,-0.697,59.150,125.160,-76.160
159327267,0.934,-0.475,-0.725,52.850,160.440,-116.690
159327286,0.854,-0.453,-0.642,62.650,204.680,-146.720
159327306,0.623,-0.136,-0.577,52.500,236.810,-171.850
159327330,0.202,0.047,-0.654,15.890,286.720,-199.080
159327350,0.180,0.160,-0.371,-21.560,301.840,-218.190
159327368,-0.059,0.312,-0.205,-42.980,339.780,-223.230
159327390,-0.384,0.431,-0.003,-67.970,366.730,-197.260
159327410,-0.608,0.403,-0.036,-114.450,373.380,-210.630
159327428,-0.634,0.397,-0.157,-161.630,396.970,-208.880
159327451,-0.791,0.225,-0.194,-219.940,429.590,-207.830
159327472,-1.043,0.180,-0.158,-236.600,465.990,-205.030
159327492,-1.342,0.323,-0.080,-279.860,486.430,-194.320
159327512,-1.825,0.423,0.177,-311.850,469.560,-158.760
159327532,-2.101,0.174,0.741,-361.900,349.230,-97.720
159327552,-2.098,-0.126,0.855,-327.880,311.500,-44.520
159327570,-1.979,-0.408,0.790,-266.140,280.350,-10.010
159327594,-1.939,-0.661,0.908,-192.780,220.710,23.870
159327614,-1.597,-1.098,0.906,-59.360,181.930,47.600
159327629,-1.524,-1.152,0.861,72.100,179.480,52.850
159327654,-1.492,-0.945,0.767,205.590,222.950,44.520
159327673,-1.639,-0.612,0.707,341.040,230.440,41.160
159327692,-1.637,0.374,1.189,372.750,191.800,15.330
159327711,-1.660,0.665,1.178,344.750,168.280,-2.520
159327730,-1.368,0.643,1.127,288.470,169.540,-15.890
159327750,-1.396,0.774,0.827,258.580,169.610,-21.700
159327770,-1.343,0.875,0.610,149.870,145.530,-29.750
159327794,-0.998,0.773,0.772,48.440,152.880,-22.680
159327815,-0.962,0.224,0.829,34.020,93.030,-26.810
159327834,-1.353,0.070,1.167,85.470,6.860,-13.720
159327853,-0.761,0.212,1.039,113.750,9.520,-13.160
159327875,-0.922,0.394,0.779,98.070,-1.050,-14.980
159327896,-1.016,0.570,0.463,75.740,-16.240,-16.240
159327919,-0.978,0.616,0.318,30.380,-17.220,-13.580
159327938,-0.980,0.457,0.111,-38.570,-18.900,-5.880
159327962,-0.971,0.337,0.035,-62.230,-23.030,1.750
159327982,-0.928,0.289,0.022,-74.550,-19.950,9.520
159328002,-0.941,0.259,0.014,-77.630,-18.410,12.320
159328021,-0.985,0.225,-0.019,-83.230,-9.240,11.480
159328042,-1.029,0.188,-0.023,-83.090,-10.150,12.040
159328062,-0.985,0.170,-0.012,-75.460,-11.340,14.630
159328080,-0.951,0.142,0.004,-65.730,-9.380,18.620
159328103,-0.914,0.136,0.029,-58.450,-5.600,20.790
159328123,-0.933,0.126,0.069,-55.930,-2.380,19.320
159328144,-0.980,0.092,0.144,-53.130,-1.540,16.660
159328164,-1.007,0.090,0.186,-55.860,-6.720,12.460
159328184,-0.976,0.003,0.222,-44.870,-5.250,8.680
159328208,-0.995,-0.033,0.288,-19.950,-4.970,4.900
159328224,-1.012,0.060,0.307,-12.600,-7.840,4.200
159328247,-1.012,0.147,0.304,-15.540,-14.770,3.990
159328267,-0.964,0.196,0.297,-27.020,-12.390,5.110
159328287,-0.942,0.196,0.386,-37.660,-8.190,5.950
159328306,-1.019,0.234,0.463,-42.840,-10.920,11.130
159328331,-1.029,0.208,0.527,-34.860,-19.670,17.360
159328351,-1.069,0.177,0.682,-30.590,-35.840,21.420
159328369,-1.081,0.249,0.741,-31.780,-58.730,31.360
159328392,-1.234,0.389,0.987,-27.300,-86.380,57.260
159328411,-1.371,0.482,1.029,-21.000,-103.600,81.410
159328436,-1.450,0.351,1.129,24.360,-138.250,122.500
159328455,-1.608,0.540,1.109,48.090,-178.990,156.450
159328478,-1.622,0.652,1.167,59.780,-222.880,185.640
159328499,-1.639,0.795,1.207,49.350,-248.010,207.970
159328518,-1.699,0.858,1.177,33.670,-282.170,221.340
159328539,-1.653,0.958,1.059,-28.700,-327.530,232.330
159328556,-1.449,0.837,0.922,-63.350,-344.050,228.970
159328576,-1.441,0.879,0.862,-91.840,-354.130,219.310
159328600,-1.265,0.602,0.741,-67.480,-383.880,205.100
159328620,-1.055,0.599,0.696,-22.960,-374.920,202.160
159328639,-1.079,0.667,0.574,-14.910,-376.810,196.980
159328663,-0.835,0.584,0.362,7.350,-379.260,200.900
159328682,-0.604,0.476,0.332,15.820,-369.180,189.140
159328706,-0.613,0.532,0.220,-0.980,-362.740,185.290
159328726,-0.595,0.368,0.079,-34.020,-377.090,177.940
159328746,-0.411,0.228,-0.073,-50.470,-357.630,155.750
159328765,-0.179,-0.038,-0.191,-63.350,-341.180,129.780
159328784,0.041,-0.006,-0.226,-63.560,-307.440,102.340
159328807,0.178,-0.012,-0.336,-72.240,-264.390,80.220
159328828,0.231,0.042,-0.357,-86.940,-243.740,48.160
159328848,0.475,-0.015,-0.469,-71.330,-251.580,16.240
159328871,0.787,0.118,-0.494,-64.260,-162.260,13.720
159328890,0.921,0.089,-0.552,-50.470,-110.810,6.160
159328913,0.910,0.194,-0.453,-29.190,-69.930,3.360
159328932,0.986,0.215,-0.418,-15.890,-42.910,4.760
159328957,1.006,0.260,-0.400,-24.500,-11.690,8.400
159328975,1.021,0.194,-0.460,-18.550,6.860,13.720
159328997,1.104,0.143,-0.466,-4.270,30.660,14.420
159329017,1.111,0.107,-0.399,4.830,37.240,14.070
159329037,1.118,0.075,-0.376,20.510,46.060,12.180
159329057,1.108,0.091,-0.269,22.050,56.420,4.970
159329073,1.114,0.019,-0.241,18.270,50.470,-2.590
159329095,1.117,-0.053,-0.232,18.690,63.700,-17.990
159329119,1.094,-0.115,-0.303,34.580,96.530,-32.200
159329139,0.980,-0.163,-0.417,49.210,120.820,-52.220
159329159,0.917,-0.237,-0.491,59.150,159.880,-75.110
159329177,0.793,-0.223,-0.488,61.250,191.240,-100.240
159329197,0.641,-0.132,-0.391,63.490,221.410,-125.510
159329221,0.399,0.070,-0.348,56.840,243.390,-152.390
159329238,0.302,0.148,-0.313,40.880,260.190,-175.210
159329261,0.087,0.226,-0.215,14.070,288.470,-205.730
159329281,-0.121,0.302,-0.090,-15.470,309.610,-225.750
159329304,-0.371,0.431,-0.030,-45.710,347.270,-237.720
159329325,-0.672,0.470,0.131,-71.120,377.230,-226.170
159329343,-0.911,0.511,0.001,-93.380,367.150,-215.880
159329367,-0.906,0.485,0.060,-121.030,376.740,-206.500
159329387,-1.187,0.428,0.136,-136.920,403.550,-191.940
159329407,-1.445,0.440,0.539,-156.520,415.940,-189.420
159329425,-1.870,0.344,0.911,-187.460,337.750,-168.420
159329449,-1.626,0.228,0.882,-176.050,282.380,-138.740
159329469,-1.490,0.060,0.619,-128.240,310.030,-133.350
159329484,-1.747,0.039,0.564,-100.030,345.100,-127.820
159329504,-1.829,0.060,0.718,-92.610,227.850,-104.020
159329524,-1.893,-0.133,0.773,-43.050,204.820,-54.040
159329549,-1.544,-0.357,1.002,27.440,183.120,-22.750
159329568,-1.407,-0.414,0.912,119.910,189.490,-15.820
159329591,-1.512,-0.030,0.780,211.680,227.780,-25.200
159329612,-1.745,0.461,0.796,226.450,198.940,-41.510
159329632,-1.570,0.596,0.937,191.450,146.090,-36.890
159329650,-1.435,0.947,0.948,103.110,145.460,-29.750
159329674,-1.421,0.779,0.708,3.080,83.440,-27.580
159329692,-0.896,-0.012,0.734,-15.820,73.780,-35.420
159329714,-0.985,-0.408,1.850,110.600,-39.200,-27.370
159329738,-1.245,0.749,0.782,219.520,23.030,-10.850
159329757,-1.077,0.974,0.812,102.760,17.010,-12.950
159329775,-0.870,0.773,0.593,47.950,-11.620,-8.820
159329799,-1.037,0.569,0.308,-5.950,-24.710,1.540
159329819,-1.013,0.455,0.173,-43.820,-34.790,4.760
159329839,-0.932,0.392,0.025,-75.880,-31.150,9.450
159329854,-0.897,0.313,-0.010,-86.310,-24.150,10.920
159329879,-0.957,0.245,-0.034,-85.960,-18.060,13.790
159329898,-0.967,0.173,-0.046,-71.330,-17.500,15.470
159329917,-0.975,0.148,-0.060,-56.210,-13.090,15.890
159329941,-0.977,0.161,-0.051,-45.780,-8.680,17.080
159329961,-0.975,0.173,-0.034,-36.470,-5.810,18.340
159329980,-0.964,0.181,-0.023,-34.860,-4.270,0.140
159330003,-0.964,0.168,0.008,-36.190,-2.590,16.100
159330023,-0.953,0.150,0.081,-36.330,2.030,15.540
159330041,-0.974,0.149,0.135,-37.310,1.050,14.210
159330065,-0.993,0.209,0.225,-54.390,1.890,9.870
159330080,-1.029,0.137,0.232,-40.670,-2.310,8.750
159330100,-0.998,0.224,0.339,-34.930,-4.200,3.220
159330120,-0.967,-0.065,0.327,-12.250,-4.410,2.380
159330144,-0.982,0.044,0.330,6.790,-2.240,0.630
159330164,-0.976,0.119,0.262,11.340,-2.450,-0.700
159330188,-0.975,0.161,0.222,13.580,-4.830,-0.070
159330207,-0.976,0.203,0.206,11.130,-7.700,0.840
159330226,-0.952,0.214,0.196,10.220,-6.650,0.980
159330248,-0.960,0.221,0.257,13.090,-8.890,1.680
159330268,-0.976,0.234,0.305,16.800,-10.080,5.320
159330287,-0.962,0.265,0.349,17.640,-16.660,8.610
159330311,-0.974,0.268,0.424,6.020,-25.200,10.780
159330330,-1.022,0.205,0.604,3.010,-36.680,15.820
159330354,-1.051,0.255,0.728,25.690,-59.640,29.330
159330373,-1.078,0.358,0.857,46.270,-69.160,40.740
159330397,-1.312,0.462,1.054,59.150,-103.530,66.080
159330414,-1.503,0.571,1.085,100.380,-137.480,113.540
159330433,-1.603,0.657,1.169,124.390,-167.160,158.130
159330458,-1.769,0.845,1.153,144.480,-232.120,217.210
159330474,-1.629,1.104,1.329,131.460,-264.180,249.480
159330493,-1.613,1.215,1.423,78.960,-304.150,267.820
159330517,-1.420,1.150,1.340,7.420,-323.890,276.080
159330538,-1.363,1.072,0.996,-47.250,-342.580,276.360
159330558,-1.345,1.136,0.878,-84.140,-367.920,273.350
159330577,-1.066,0.863,0.784,-86.870,-387.450,264.040
159330597,-0.996,0.768,0.696,-64.470,-371.070,260.890
159330622,-0.931,0.806,0.579,-58.590,-355.040,250.460
159330642,-0.731,0.712,0.417,-67.690,-347.620,231.770
159330662,-0.427,0.501,0.249,-45.710,-314.650,213.920
159330679,-0.302,0.497,0.234,-43.820,-301.280,202.650
159330700,-0.273,0.564,0.215,-65.870,-295.960,188.160
159330723,-0.020,0.488,0.161,-86.170,-269.290,174.580
159330747,-0.011,0.385,0.073,-102.970,-249.480,154.280
159330767,0.000,0.376,0.055,-114.100,-240.870,132.160
159330787,0.005,0.222,-0.048,-107.520,-225.470,108.430
159330811,0.437,0.045,-0.043,-68.110,-193.130,72.310
159330829,0.297,0.168,-0.080,-64.680,-203.210,62.510
159330852,0.421,-0.027,-0.174,-25.690,-177.660,55.370
159330873,0.609,-0.009,-0.237,-32.900,-149.170,47.110
159330891,0.473,0.040,-0.353,-35.630,-131.880,40.110
159330910,0.606,0.056,-0.449,-44.590,-109.970,32.340
159330935,0.665,0.016,-0.529,-33.390,-78.400,19.950
159330959,0.712,0.012,-0.681,-4.690,-52.570,15.260
159330979,0.638,0.106,-0.561,4.970,-39.900,-2.310
159330999,0.826,-0.037,-0.384,10.010,-40.040,-2.730
159331019,1.120,-0.034,-0.461,26.670,-24.920,-7.700
159331038,1.095,0.019,-0.508,14.700,-9.310,-11.900
159331062,1.330,-0.019,-0.378,17.360,35.910,-15.820
159331081,1.214,0.000,-0.348,25.760,17.150,-15.960
159331102,1.235,0.048,-0.248,38.850,18.480,-15.190
159331122,1.249,0.088,-0.261,47.740,34.160,-13.930
159331141,1.146,0.096,-0.293,50.890,35.560,-14.000
159331165,1.033,0.005,-0.183,46.550,39.760,-17.290
159331186,1.108,0.043,-0.189,33.390,38.150,-23.170
159331208,1.037,0.046,-0.300,24.850,66.780,-28.840
159331230,0.912,-0.043,-0.430,33.880,114.170,-43.260
159331250,0.818,-0.230,-0.470,51.660,142.940,-60.270
159331269,0.661,-0.221,-0.439,62.160,167.230,-81.060
159331292,0.558,-0.121,-0.411,65.240,197.260,-108.640
159331311,0.405,-0.023,-0.367,55.020,218.050,-133.070
159331336,0.219,0.052,-0.303,34.300,245.700,-159.670
159331353,0.047,0.107,-0.250,20.090,260.610,-175.140
159331377,-0.076,0.183,-0.114,9.800,276.990,-198.520
159331397,-0.212,0.252,0.037,-18.760,285.040,-207.410
159331415,-0.236,0.377,0.088,-61.880,318.360,-211.400
159331435,-0.451,0.355,0.041,-60.060,336.210,-209.720
159331459,-0.689,0.437,0.115,-83.930,339.290,-201.460
159331479,-0.736,0.341,0.112,-93.870,345.030,-196.420
159331499,-0.846,0.272,0.081,-102.410,397.110,-206.920
159331515,-1.154,0.269,0.243,-127.190,432.040,-219.100
159331539,-1.590,0.236,0.567,-152.670,423.010,-226.170
159331557,-1.959,0.347,0.752,-164.500,392.980,-218.820
159331581,-2.154,0.347,1.151,-187.460,349.230,-174.160
159331598,-2.042,0.175,1.291,-200.830,249.410,-135.940
159331621,-1.829,-0.135,0.953,-173.600,248.010,-90.510
159331640,-1.777,-0.475,0.570,-110.040,282.800,-59.500
159331665,-1.640,-0.484,0.992,3.780,210.560,-25.270
159331685,-1.609,-0.499,1.123,73.570,217.000,-12.950
159331705,-1.600,-0.454,1.037,135.170,228.130,-3.920
159331725,-1.870,-0.256,0.915,230.860,217.210,-14.000
159331745,-1.550,0.548,1.308,239.960,164.850,-44.730
159331765,-1.443,0.769,1.140,280.910,170.380,-43.680
159331784,-1.346,0.987,1.000,196.210,141.190,-58.030
159331809,-1.346,0.676,0.723,116.200,76.020,-62.230
159331833,-1.155,0.105,0.912,165.270,25.690,-37.800
159331852,-0.972,0.803,0.769,173.880,16.730,-25.550
159331873,-0.945,0.691,0.601,91.560,31.710,-10.220
159331893,-1.132,0.702,0.483,44.030,-5.390,-0.630
159331913,-0.902,0.603,0.374,1.050,7.140,10.080
159331933,-1.014,0.504,0.223,-38.220,-4.270,21.560
159331952,-1.017,0.436,0.075,-77.000,-1.050,26.040
159331976,-1.004,0.326,-0.020,-108.500,-12.670,30.380
159331996,-0.981,0.183,-0.059,-113.540,-7.350,34.090
159332019,-0.957,0.089,-0.036,-105.070,-3.920,35.070
159332039,-0.970,0.081,-0.042,-85.610,0.420,33.880
159332059,-0.996,0.107,-0.050,-67.550,-0.630,32.200
159332078,-1.036,0.188,-0.059,-68.740,-1.680,24.570
159332101,-1.005,0.117,-0.050,-77.700,-6.510,17.500
159332123,-0.968,0.072,-0.040,-79.870,-6.720,13.160
159332143,-0.933,0.023,0.014,-72.870,-3.080,7.980
159332163,-0.935,-0.110,0.152,-33.810,-0.210,6.510
159332178,-0.877,-0.135,0.209,-14.980,-5.880,1.820
159332200,-1.058,-0.082,0.327,15.470,-1.890,-4.900
159332223,-0.967,-0.020,0.290,36.470,5.530,-5.250
159332243,-1.033,0.142,0.203,38.010,-1.540,-7.560
159332267,-1.035,0.203,0.186,28.070,0.000,-6.020
159332287,-1.018,0.211,0.165,17.640,-2.730,-1.680
159332307,-0.996,0.235,0.114,9.800,-5.180,1.610
159332326,-0.972,0.256,0.084,1.960,-3.640,1.820
159332344,-0.985,0.236,0.067,-5.390,-6.090,2.310
159332368,-0.943,0.205,0.062,-6.510,-4.900,2.730
159332386,-0.939,0.191,0.064,-2.660,-3.710,1.750
159332406,-0.946,0.201,0.079,-2.170,-3.010,0.840
159332430,-0.966,0.220,0.076,-6.090,-0.420,0.560
159332449,-0.994,0.216,0.091,-9.100,0.070,0.980
159332470,-1.001,0.185,0.127,-9.940,-1.470,2.590
159332488,-0.973,0.183,0.137,-10.570,0.420,3.220
159332512,-0.958,0.235,0.186,-26.880,3.010,2.520
159332532,-0.998,0.266,0.245,-44.380,7.980,4.900
159332552,-0.977,0.243,0.217,-47.880,3.850,5.880
159332576,-1.002,0.180,0.109,-48.510,-2.170,4.480
159332596,-1.025,0.169,0.072,-47.740,-6.020,0.980
159332614,-0.976,0.170,0.098,-44.590,-4.130,1.260
159332638,-0.977,0.163,0.115,-40.040,-4.830,1.330
159332658,-0.962,0.153,0.144,-33.530,-6.510,2.450
159332677,-0.963,0.147,0.161,-28.000,-8.120,3.150
159332696,-0.951,0.180,0.171,-25.130,-9.520,4.130
159332719,-0.956,0.237,0.240,-24.640,-8.960,7.000
159332743,-1.042,0.266,0.361,-32.900,-14.210,11.970
159332761,-1.058,0.252,0.414,-41.020,-25.550,16.940
159332780,-1.002,0.204,0.389,-51.100,-30.660,16.170
159332805,-1.016,0.181,0.461,-51.240,-37.520,19.460
159332825,-1.129,0.212,0.714,-46.340,-57.260,26.880
159332845,-1.225,0.137,0.941,-48.650,-82.110,45.150
159332864,-1.344,0.250,1.033,-23.870,-121.310,65.380
159332885,-1.449,0.184,1.115,40.180,-136.010,107.170
159332903,-1.690,0.395,1.206,77.840,-174.860,139.370
159332927,-1.654,0.405,1.335,122.220,-210.210,184.800
159332947,-1.740,0.691,1.637,121.450,-278.460,212.450
159332963,-1.783,0.965,1.643,50.960,-335.650,217.560
159332985,-1.550,0.876,1.508,-13.930,-331.800,218.890
159333005,-1.604,1.134,1.404,-57.540,-379.610,206.920
159333029,-1.728,1.057,1.467,-143.850,-430.290,198.380
159333048,-1.855,1.133,1.116,-145.810,-457.380,199.010
159333067,-1.779,0.846,0.806,-115.780,-462.490,189.350
159333091,-1.307,0.503,0.460,16.100,-440.300,171.640
159333110,-0.958,0.629,0.318,112.980,-419.370,188.720
159333130,-0.904,0.769,0.304,87.780,-412.860,191.730
159333150,-0.748,0.590,0.196,40.460,-387.310,190.330
159333170,-0.678,0.529,-0.050,0.420,-391.510,195.860
159333193,-0.532,0.458,-0.209,-33.530,-376.950,192.850
159333214,-0.280,0.236,-0.339,-49.980,-339.710,182.560
159333238,-0.175,0.110,-0.327,-57.610,-282.100,158.130
159333255,-0.021,0.068,-0.357,-50.540,-245.770,144.270
159333278,0.043,0.009,-0.519,-32.200,-207.830,121.100
159333298,0.314,-0.086,-0.651,-41.090,-168.350,100.800
159333317,0.335,-0.072,-0.595,-48.720,-152.880,86.310
159333337,0.498,-0.180,-0.626,-55.370,-140.630,65.800
159333358,0.679,-0.266,-0.683,-32.480,-88.130,56.770
159333382,0.689,-0.233,-0.717,-13.510,-37.870,35.980
159333402,0.854,-0.156,-0.622,-1.400,-20.020,22.610
159333420,0.893,-0.069,-0.517,-3.290,-3.080,10.220
159333444,0.962,-0.072,-0.386,-10.360,7.210,1.050
159333459,1.063,-0.199,-0.337,-8.680,19.320,-6.160
159333484,1.115,-0.164,-0.224,-0.280,18.340,-12.180
159333504,1.128,-0.121,-0.191,6.650,22.540,-14.070
159333524,1.149,-0.061,-0.280,7.420,25.620,-14.210
159333547,1.149,-0.092,-0.368,-1.960,47.180,-24.290
159333566,1.117,-0.170,-0.284,-2.730,54.110,-29.540
159333588,1.101,-0.142,-0.264,8.610,63.140,-34.790
159333608,1.034,-0.067,-0.236,13.580,73.430,-39.130
159333627,1.002,-0.063,-0.233,10.500,83.720,-45.500
159333651,0.990,-0.117,-0.344,11.130,98.490,-59.990
159333670,0.918,-0.144,-0.458,21.420,131.320,-71.470
159333691,0.828,-0.126,-0.315,34.370,150.220,-84.140
159333708,0.829,-0.014,-0.192,38.920,155.400,-93.240
159333732,0.778,0.089,-0.219,22.820,189.700,-110.040
159333747,0.728,0.117,-0.292,9.380,225.260,-121.100
159333772,0.454,0.118,-0.266,13.510,242.690,-129.290
159333792,0.317,0.175,-0.115,13.650,256.480,-135.310
159333811,0.204,0.261,-0.032,9.940,271.180,-140.700
159333832,0.099,0.224,-0.080,-30.520,315.910,-155.680
159333852,-0.218,0.238,-0.036,-36.260,326.690,-149.310
159333872,-0.443,0.447,0.168,-23.030,344.330,-149.310
159333891,-0.665,0.673,0.441,-39.690,324.310,-143.990
159333910,-0.615,0.505,0.380,-51.590,302.890,-139.020
159333935,-0.558,0.402,0.173,-60.690,348.740,-147.700
159333950,-0.872,0.397,0.322,-59.710,356.930,-143.710
159333971,-1.144,0.425,0.618,-53.340,329.840,-126.910
159333991,-1.251,0.389,0.616,-44.240,304.360,-113.260
159334010,-1.266,0.355,0.595,-24.080,312.830,-112.000
159334031,-1.432,0.303,0.818,-22.050,304.220,-118.230
159334055,-1.562,0.302,0.995,28.420,271.390,-112.490
159334072,-1.648,0.352,0.895,50.890,249.340,-110.180
159334093,-1.639,0.271,0.668,72.590,269.780,-103.810
159334113,-1.646,0.447,0.693,84.210,239.470,-89.740
159334138,-1.748,0.426,0.750,72.100,224.280,-62.020
159334157,-1.847,0.346,0.934,65.380,196.700,-36.680
159334177,-1.553,0.152,0.847,95.130,171.990,-31.850
159334192,-1.237,0.289,0.599,124.460,169.750,-54.950
159334216,-1.385,0.224,0.512,207.480,193.970,-80.710
159334237,-1.401,0.925,0.753,120.610,113.260,-108.850
159334256,-1.762,1.008,0.703,-3.220,15.820,-115.920
159334280,-1.185,-0.908,2.033,131.670,-36.190,-48.020
159334299,-1.365,1.463,1.578,441.420,125.370,-35.840
159334320,-1.456,1.251,0.813,202.860,-64.330,-30.240
159334340,-1.015,1.263,0.584,63.840,-11.270,-13.440
159334357,-1.100,0.912,0.348,-85.050,-21.210,-2.240
159334378,-0.986,0.613,0.063,-134.890,-36.260,10.990
159334398,-0.967,0.267,-0.116,-147.560,-27.160,18.410
159334420,-0.911,0.164,-0.075,-137.340,-35.980,18.480
159334441,-0.867,0.085,-0.090,-89.950,-22.120,15.680
159334461,-0.876,0.095,-0.101,-79.940,-14.910,11.270
159334481,-0.922,0.133,-0.104,-52.570,-15.400,7.350
159334505,-0.966,0.126,-0.071,-37.730,-15.820,3.920
159334525,-0.941,0.180,-0.024,-30.310,-14.140,6.020
159334545,-0.940,0.197,0.015,-26.530,-7.070,9.030
159334560,-0.966,0.187,0.026,-24.780,-3.990,8.960
159334585,-0.992,0.179,0.047,-24.710,-4.200,7.840
159334605,-0.988,0.197,0.089,-34.580,-4.830,6.090
159334623,-0.976,0.197,0.120,-42.490,-3.500,6.300
159334641,-0.967,0.161,0.162,-44.520,-0.770,5.600
159334665,-0.971,0.148,0.231,-41.230,-0.140,3.500
159334685,-0.981,0.160,0.249,-29.890,-1.050,3.290
159334709,-0.987,0.147,0.234,-16.100,-2.380,2.940
159334728,-0.969,0.177,0.241,-4.480,-1.540,1.120
159334752,-0.983,0.199,0.224,1.610,-1.470,-0.280
159334771,-0.972,0.209,0.205,3.360,-1.470,-1.890
159334792,-0.982,0.240,0.200,5.250,-3.290,-3.010
159334815,-0.979,0.253,0.208,0.420,-5.600,-2.870
159334836,-0.961,0.250,0.209,-8.400,-4.200,-0.840
159334856,-0.964,0.210,0.190,-12.320,-4.200,-0.140
159334874,-0.965,0.178,0.178,-10.220,-3.500,0.490
159334898,-0.963,0.162,0.169,-2.100,-2.380,-0.350
159334917,-0.968,0.169,0.178,1.540,-1.680,-2.380
159334938,-0.961,0.182,0.177,5.390,-0.770,-3.570
159334956,-0.964,0.207,0.184,7.420,-0.490,-4.270
159334978,-0.965,0.233,0.178,8.120,-1.120,-4.550
159334998,-0.972,0.252,0.192,5.460,-1.190,-4.340
159335016,-0.960,0.252,0.193,3.010,-1.750,-3.010
159335035,-0.950,0.244,0.188,0.490,-0.910,-1.610
159335056,-0.966,0.233,0.181,1.330,-1.890,-0.980
159335080,-0.965,0.224,0.178,2.380,-1.960,-0.490
159335100,-0.969,0.227,0.181,3.430,-2.800,-0.070
159335118,-0.961,0.233,0.183,2.240,-2.030,0.140
159335140,-0.964,0.229,0.181,-0.070,-1.050,1.470
159335159,-0.966,0.214,0.178,0.980,-1.400,1.470
159335184,-0.967,0.210,0.174,2.380,-1.960,1.820
159335204,-0.975,0.211,0.179,2.380,-2.240,1.960
159335228,-0.969,0.204,0.172,2.940,-2.310,1.610
159335248,-0.974,0.199,0.173,5.250,-2.240,1.610
159335272,-0.973,0.209,0.175,6.510,-2.660,1.680
159335292,-0.973,0.221,0.176,5.040,-2.380,1.330
159335310,-0.970,0.228,0.179,3.570,-1.680,2.030
159335334,-0.973,0.220,0.175,2.380,-2.310,2.450
159335358,-0.966,0.213,0.167,3.290,-2.310,2.380
159335378,-0.968,0.213,0.160,4.200,-2.660,1.890
159335397,-0.974,0.212,0.163,4.690,-2.030,1.260
159335415,-0.971,0.213,0.171,5.530,-2.030,-0.210
159335439,-0.971,0.216,0.178,5.950,-2.240,-0.910
159335459,-0.959,0.216,0.182,5.740,-2.310,-1.470
159335478,-0.969,0.224,0.182,5.110,-2.450,-2.030
159335503,-0.973,0.220,0.178,3.360,-2.030,-2.450
159335522,-0.979,0.228,0.174,1.750,-1.890,-2.660
159335541,-0.978,0.233,0.170,0.070,-2.240,-2.870
159335560,-0.980,0.231,0.163,0.000,-1.960,-2.380
159335585,-0.975,0.228,0.159,0.280,-2.100,-2.100
159335605,-0.972,0.229,0.163,1.120,-2.450,-0.980
159335624,-0.960,0.239,0.168,-0.140,-2.170,-0.280
159335644,-0.961,0.225,0.168,-1.190,-1.680,-0.280
159335667,-0.969,0.216,0.162,0.140,-2.030,-0.350
159335688,-0.972,0.214,0.166,1.540,-2.450,-0.770
159335708,-0.976,0.221,0.167,0.840,-2.030,-0.770
159335728,-0.976,0.223,0.168,0.210,-2.100,-0.560
159335752,-0.978,0.211,0.168,-0.280,-2.030,-0.350
159335770,-0.977,0.213,0.170,-0.070,-2.310,-0.770
159335792,-0.972,0.214,0.171,-0.770,-2.030,-0.910
159335815,-0.971,0.215,0.168,-1.540,-2.030,-1.400
159335839,-0.970,0.218,0.167,-2.030,-2.520,-1.120
159335859,-0.972,0.218,0.166,-2.380,-2.450,-1.050
159335879,-0.969,0.214,0.160,-2.240,-2.520,-0.840
159335903,-0.974,0.214,0.163,-0.910,-2.730,-0.840
159335921,-0.972,0.212,0.162,-0.420,-2.660,-0.910
159335941,-0.973,0.214,0.160,0.070,-2.240,-0.840
159335963,-0.976,0.215,0.163,0.210,-2.310,-0.770
159335983,-0.971,0.215,0.168,0.210,-2.310,-0.630
159336007,-0.974,0.215,0.173,-0.560,-2.380,-0.490
159336026,-0.965,0.212,0.177,-1.540,-2.590,-0.070
159336046,-0.970,0.206,0.169,-2.030,-2.450,0.140
159336067,-0.979,0.200,0.161,-0.280,-2.450,-0.420
159336090,-0.977,0.209,0.166,1.120,-3.010,-1.050
159336110,-0.967,0.221,0.174,0.840,-2.800,-0.770
159336130,-0.966,0.216,0.170,-0.770,-2.450,-0.210
159336150,-0.966,0.208,0.169,-1.470,-2.380,-0.280
159336174,-0.971,0.202,0.165,0.070,-3.220,-0.210
159336192,-0.970,0.203,0.163,1.610,-2.940,-0.140
159336212,-0.974,0.211,0.164,2.310,-3.010,0.140
159336236,-0.976,0.215,0.166,2.450,-2.870,0.700
159336256,-0.977,0.217,0.162,1.960,-2.310,0.420
159336276,-0.977,0.216,0.170,0.840,-2.660,0.420
159336295,-0.974,0.214,0.178,0.000,-2.380,0.210
159336316,-0.973,0.215,0.182,-0.560,-3.010,0.420
159336335,-0.971,0.210,0.173,-0.980,-3.290,0.280
159336355,-0.967,0.207,0.164,-0.490,-3.290,0.070
159336374,-0.969,0.205,0.162,0.350,-3.010,-0.140
159336399,-0.969,0.209,0.167,1.260,-2.520,-0.560
159336419,-0.969,0.211,0.168,0.980,-2.450,-0.560
159336439,-0.973,0.213,0.171,1.120,-2.660,-0.630
159336459,-0.971,0.216,0.171,0.490,-2.590,-0.420
159336477,-0.974,0.215,0.172,0.350,-2.590,-0.420
159336496,-0.970,0.211,0.172,0.140,-2.660,-0.210
159336521,-0.974,0.212,0.168,0.560,-2.590,-0.140
159336540,-0.975,0.213,0.170,0.490,-2.800,-0.140
159336561,-0.972,0.212,0.175,0.490,-3.290,0.350
159336576,-0.969,0.210,0.177,0.210,-2.520,0.700
159336601,-0.978,0.209,0.170,0.070,-2.870,0.070
159336619,-0.977,0.202,0.174,1.190,-3.010,0.070
159336641,-0.969,0.216,0.182,1.540,-3.360,0.560
159336661,-0.971,0.221,0.178,-0.560,-2.380,0.490
159336685,-0.982,0.214,0.188,-2.590,-2.520,0.980
159336705,-0.984,0.211,0.199,-4.200,-2.520,1.470
159336723,-0.977,0.203,0.204,-6.650,-2.240,1.960
159336743,-0.976,0.200,0.214,-8.820,-2.030,2.380
159336762,-0.970,0.202,0.201,-11.550,-2.450,2.520
159336787,-0.973,0.191,0.202,-12.320,-2.380,2.170
159336802,-0.974,0.190,0.193,-12.320,-2.660,1.540
159336826,-0.972,0.193,0.190,-14.560,-1.890,0.910
159336842,-0.964,0.191,0.190,-17.430,-0.840,0.560
159336867,-0.967,0.178,0.174,-20.230,1.330,0.420
159336887,-0.968,0.173,0.170,-22.330,3.500,0.420
159336907,-0.970,0.161,0.149,-21.420,6.020,0.070
159336927,-0.958,0.173,0.154,-21.770,8.680,-0.630
159336946,-0.952,0.176,0.157,-21.350,11.900,-0.350
159336970,-0.941,0.167,0.142,-18.970,13.580,-0.840
159336990,-0.922,0.163,0.146,-19.600,16.940,-0.910
159337010,-0.914,0.192,0.138,-18.340,18.900,-2.170
159337030,-0.909,0.208,0.130,-18.410,18.550,-3.500
159337053,-0.900,0.217,0.133,-19.530,18.480,-5.180
159337074,-0.911,0.228,0.143,-22.120,18.130,-9.170
159337094,-0.935,0.237,0.158,-27.650,16.870,-12.460
159337115,-0.977,0.219,0.156,-26.880,15.400,-14.980
159337134,-1.007,0.212,0.143,-22.750,14.700,-17.500
159337158,-1.054,0.244,0.124,-17.780,15.330,-19.530
159337178,-1.085,0.244,0.109,-12.530,10.640,-17.710
159337198,-1.095,0.202,0.104,-7.210,7.910,-14.280
159337217,-1.058,0.208,0.089,1.890,3.850,-9.660
159337238,-1.039,0.244,0.088,-3.360,3.010,-4.900
159337262,-1.031,0.229,0.083,-6.230,2.100,1.330
159337282,-1.020,0.219,0.079,-6.720,0.350,5.040
159337302,-1.014,0.222,0.073,-7.350,-2.800,6.300
159337322,-0.979,0.188,0.074,-8.680,-4.340,5.040
159337342,-0.965,0.175,0.078,-8.330,-3.990,2.310
159337366,-0.968,0.169,0.082,-6.860,-4.480,-2.240
159337386,-0.966,0.158,0.078,-2.730,-3.920,-6.160
159337406,-0.982,0.149,0.082,3.150,-3.290,-8.120
159337423,-0.986,0.165,0.084,9.450,-3.360,-8.960
159337443,-0.985,0.203,0.090,12.600,-4.060,-7.770
159337467,-0.987,0.249,0.096,10.570,-5.320,-3.990
159337487,-0.978,0.244,0.099,6.370,-6.370,-1.890
159337505,-0.960,0.230,0.095,4.200,-8.470,0.350
159337524,-0.929,0.223,0.104,3.500,-10.290,1.960
159337548,-0.942,0.221,0.093,1.120,-11.130,1.330
159337567,-1.018,0.201,0.091,-0.980,-10.220,-1.960
159337587,-1.064,0.161,0.091,0.490,-9.170,-4.620
159337609,-1.057,0.156,0.109,6.930,-12.390,-3.080
159337629,-1.003,0.157,0.100,8.750,-11.340,1.190
159337649,-0.958,0.160,0.110,6.230,-7.490,7.980
159337670,-0.914,0.138,0.140,-5.180,-7.420,12.110
159337691,-0.908,0.049,0.176,-17.990,-2.450,12.670
159337710,-0.948,0.065,0.228,-9.520,1.190,15.540
159337731,-0.951,-0.020,0.226,-7.210,11.130,19.460
159337755,-0.959,-0.102,0.175,18.760,8.680,19.110
159337775,-0.988,0.042,0.184,40.810,5.530,13.790
159337791,-1.094,0.095,0.202,48.300,-4.690,14.000
159337811,-1.109,0.143,0.240,52.010,-9.310,7.280
159337835,-1.015,0.084,0.240,66.570,-7.070,6.790
159337855,-0.986,0.203,0.178,60.340,-5.180,10.430
159337871,-0.963,0.256,0.171,54.950,-11.690,9.730
159337891,-0.934,0.259,0.172,41.790,-8.820,5.530
159337912,-0.975,0.338,0.196,25.970,-13.720,4.760
159337931,-0.921,0.343,0.170,13.580,-13.580,3.920
159337956,-0.881,0.327,0.143,-3.290,-15.750,4.970
159337976,-0.919,0.264,0.150,5.530,-16.240,9.520
159337996,-0.968,0.353,0.138,23.170,-23.520,21.070
159338016,-0.997,0.361,0.109,36.540,-30.240,27.580
159338040,-0.986,0.476,0.124,58.030,-32.760,35.420
159338059,-0.959,0.564,0.223,21.070,-40.600,40.600
159338083,-0.882,0.508,0.294,-11.900,-45.780,45.710
159338102,-0.814,0.507,0.270,-44.240,-37.590,42.980
159338122,-0.819,0.428,0.263,-52.710,-38.780,37.380
159338140,-0.811,0.410,0.276,-48.160,-36.190,36.680
159338163,-0.810,0.359,0.338,-46.270,-33.740,33.600
159338182,-0.856,0.363,0.365,-40.740,-36.540,32.270
159338206,-0.820,0.343,0.352,-31.990,-32.340,29.750
159338224,-0.816,0.388,0.318,-23.940,-25.270,29.050
159338243,-0.822,0.474,0.271,-23.030,-24.290,29.540
159338268,-0.828,0.541,0.294,-29.120,-18.970,37.170
159338288,-0.817,0.504,0.265,-29.960,-8.050,42.350
159338308,-0.792,0.526,0.323,-48.440,-5.040,43.680
159338324,-0.743,0.518,0.354,-61.670,-3.640,49.490
159338344,-0.755,0.623,0.368,-86.170,-5.740,48.650
159338363,-0.748,0.481,0.452,-111.020,-4.830,44.800
159338388,-0.778,0.359,0.433,-93.030,-10.640,44.380
159338403,-0.724,0.442,0.479,-89.320,-10.430,44.730
159338427,-0.765,0.496,0.506,-93.240,-8.400,43.820
159338451,-0.769,0.427,0.555,-89.530,-8.470,49.420
159338467,-0.695,0.389,0.622,-71.890,-0.490,59.080
159338491,-0.757,0.507,0.520,-42.910,-5.950,57.260
159338511,-0.644,0.639,0.468,-73.150,-3.010,49.560
159338526,-0.666,0.446,0.370,-90.370,0.070,46.760
159338550,-0.674,0.456,0.452,-88.270,0.070,45.710
159338568,-0.755,0.459,0.380,-102.970,0.630,49.210
159338591,-0.671,0.229,0.348,-110.110,-2.240,35.420
159338612,-0.793,0.418,0.224,-81.060,46.340,30.030
159338631,-0.801,0.256,0.370,-63.420,8.120,33.740
159338654,-0.764,0.252,0.393,-59.080,28.140,30.380
159338673,-0.863,0.284,0.389,-46.340,31.010,33.530
159338692,-0.943,0.301,0.439,-28.140,22.190,38.290
159338715,-1.048,0.272,0.632,-66.500,-11.340,33.460
159338731,-0.855,0.193,0.663,-6.230,0.560,39.690
159338752,-0.935,0.479,0.579,-17.360,-11.130,50.330
159338774,-0.722,0.377,0.320,-33.670,-8.190,51.590
159338798,-0.694,0.374,0.285,-35.070,13.300,45.570
159338818,-0.668,0.379,0.269,-22.610,30.380,42.980
159338838,-0.771,0.415,0.287,-21.840,28.630,40.670
159338858,-0.827,0.446,0.291,-21.980,20.020,37.660
159338877,-0.831,0.499,0.316,-28.210,11.690,39.270
159338895,-0.897,0.535,0.308,-24.010,5.110,44.310
159338919,-0.972,0.546,0.330,-26.460,-10.430,52.570
159338938,-0.919,0.402,0.346,-1.120,-22.540,53.690
159338958,-0.870,0.324,0.376,4.690,-29.470,47.250
159338979,-0.874,0.385,0.465,5.670,-42.490,40.740
159339002,-0.839,0.371,0.438,12.250,-56.840,41.580
159339022,-0.689,0.380,0.438,17.990,-57.890,36.820
159339043,-0.632,0.457,0.428,16.170,-59.920,28.910
159339063,-0.594,0.521,0.511,5.880,-59.080,20.440
159339083,-0.677,0.517,0.556,13.020,-62.230,22.120
159339101,-0.602,0.535,0.467,17.570,-68.670,28.070
159339121,-0.513,0.567,0.360,22.260,-64.750,31.080
159339145,-0.460,0.600,0.332,13.720,-52.080,32.200
159339161,-0.474,0.601,0.400,3.780,-44.380,31.220
159339185,-0.589,0.710,0.528,-6.230,-38.920,37.520
159339205,-0.582,0.630,0.538,-28.980,-33.530,37.240
159339225,-0.663,0.561,0.571,-23.030,-34.650,32.200
159339244,-0.554,0.476,0.651,-10.640,-39.060,22.890
159339265,-0.666,0.561,0.792,4.060,-48.930,10.500
159339284,-0.561,0.543,0.923,34.160,-46.830,8.120
159339308,-0.476,0.669,0.851,72.450,-68.180,10.290
159339328,-0.304,0.771,0.836,74.760,-65.310,0.910
159339348,-0.366,0.836,0.776,51.170,-68.460,-0.910
159339372,-0.309,0.731,0.664,30.380,-64.120,-5.250
159339391,-0.386,0.771,0.582,25.340,-56.490,-6.370
159339411,-0.430,0.822,0.605,26.950,-41.860,-11.970
159339431,-0.572,0.826,0.702,26.740,-41.650,-8.610
159339451,-0.613,0.963,0.667,31.500,-36.960,-6.090
159339475,-0.563,0.939,0.610,14.700,-40.320,-4.900
159339495,-0.512,0.769,0.518,-0.070,-32.200,-9.660
159339515,-0.541,0.652,0.569,30.800,-25.550,-11.270
159339535,-0.473,0.907,0.750,39.760,-25.200,-5.250
159339555,-0.349,0.772,0.630,19.740,-25.830,-5.180
159339572,-0.372,0.728,0.560,30.870,-11.690,-9.870
159339591,-0.477,0.867,0.687,51.590,-12.950,-7.000
159339616,-0.466,1.030,0.803,63.910,-17.640,0.280
159339636,-0.402,1.022,0.645,51.450,-17.710,2.450
159339656,-0.383,0.840,0.532,26.880,-11.480,-4.130
159339674,-0.475,0.886,0.745,32.830,-5.530,-7.420
159339693,-0.485,0.921,0.639,26.950,-8.540,-6.930
159339714,-0.363,0.887,0.589,26.180,-6.930,-11.270
159339733,-0.393,0.897,0.631,25.550,-2.100,-17.920
159339758,-0.411,0.805,0.727,48.230,5.810,-24.290
159339778,-0.516,0.889,0.708,66.850,3.290,-28.000
159339796,-0.542,0.932,0.651,65.380,-7.490,-34.930
159339816,-0.494,0.819,0.624,44.800,-12.810,-48.580
159339840,-0.482,1.054,0.720,-3.430,-9.870,-54.670
159339860,-0.482,0.630,0.658,-42.630,-11.480,-69.720
159339884,-0.585,0.639,0.570,-25.760,-10.150,-76.020
159339902,-0.561,0.781,0.579,-14.630,-8.330,-76.790
159339926,-0.538,0.856,0.467,-38.220,17.430,-87.080
159339945,-0.621,0.648,0.376,-44.450,21.700,-92.890
159339966,-0.643,0.552,0.421,-46.830,29.260,-94.990
159339988,-0.644,0.547,0.459,-46.550,42.490,-99.890
159340010,-0.629,0.473,0.419,-32.900,50.190,-104.020
159340030,-0.624,0.418,0.363,-6.370,58.380,-109.900
159340050,-0.612,0.344,0.326,20.440,70.840,-117.040
159340069,-0.665,0.345,0.294,40.880,78.890,-121.450
159340087,-0.700,0.288,0.281,54.810,90.370,-127.330
159340110,-0.768,0.232,0.203,87.080,103.110,-137.550
159340132,-0.856,0.142,0.081,106.190,115.500,-148.820
159340151,-0.883,0.264,0.083,85.260,110.810,-161.910
159340171,-1.077,0.181,-0.032,83.230,100.100,-162.680
159340195,-1.078,0.231,-0.037,62.230,88.900,-163.730
159340216,-1.213,0.269,-0.023,43.050,56.700,-154.000
159340235,-1.145,0.431,0.027,7.700,36.750,-147.840
159340259,-1.133,0.300,0.066,-17.220,20.370,-130.480
159340276,-1.110,0.272,0.084,-29.680,20.160,-115.290
159340296,-1.102,0.194,0.066,-29.890,15.050,-96.460
159340320,-1.061,0.186,0.078,-21.980,9.730,-76.020
159340340,-1.027,0.146,0.071,-4.550,18.410,-55.230
159340358,-1.028,0.129,0.044,28.420,17.710,-36.330
159340377,-1.057,0.168,0.055,50.120,18.900,-22.820
159340401,-1.161,0.280,0.089,56.140,12.250,-8.470
159340421,-1.155,0.274,0.090,53.690,11.900,2.940
159340441,-1.144,0.269,0.047,46.130,11.760,10.570
159340464,-1.122,0.253,0.039,40.180,5.250,17.640
159340484,-1.067,0.249,0.101,38.500,-0.280,23.520
159340508,-1.031,0.241,0.183,33.740,-4.480,30.170
159340527,-1.006,0.228,0.160,31.990,-8.260,34.160
159340550,-0.945,0.183,0.125,40.460,-12.600,36.890
159340571,-0.882,0.179,0.144,54.460,-13.860,38.850
159340591,-0.817,0.211,0.263,57.050,-17.010,40.460
159340609,-0.680,0.159,0.337,64.330,-18.340,39.340
159340630,-0.630,0.228,0.318,76.160,-8.680,39.410
159340651,-0.641,0.305,0.301,71.610,1.750,34.020
159340671,-0.766,0.446,0.339,47.880,4.060,26.530
159340690,-0.876,0.516,0.393,6.860,0.070,15.050
159340715,-0.869,0.461,0.401,-32.130,-5.530,0.770
159340735,-0.917,0.366,0.336,-45.290,-5.250,-7.140
159340760,-0.955,0.336,0.346,-42.980,-9.590,-12.460
159340779,-0.964,0.345,0.352,-47.040,-9.940,-12.670
159340799,-0.995,0.319,0.321,-48.230,-7.420,-10.990
159340817,-1.051,0.251,0.315,-41.230,-9.170,-7.840
159340837,-1.055,0.175,0.275,-25.830,-13.230,-4.410
159340860,-1.035,0.152,0.239,-2.030,-15.960,1.960
159340884,-1.002,0.178,0.258,20.020,-17.150,8.400
159340904,-0.969,0.209,0.297,37.030,-17.780,13.300
159340923,-0.912,0.223,0.295,39.620,-17.150,15.330
159340943,-0.874,0.258,0.289,33.320,-16.730,15.610
159340966,-0.843,0.275,0.268,20.440,-14.700,10.710
159340987,-0.861,0.260,0.256,5.880,-14.770,1.260
159341007,-0.849,0.218,0.250,-1.610,-15.820,-7.070
159341031,-0.813,0.170,0.238,-4.830,-12.950,-14.910
159341050,-0.841,0.151,0.201,-4.340,-10.150,-20.020
159341074,-0.878,0.179,0.202,-7.910,-5.670,-31.780
159341092,-0.942,0.171,0.212,-14.350,-3.990,-38.010
159341114,-0.929,0.123,0.214,-7.280,-0.630,-42.140
159341138,-0.879,0.122,0.217,9.170,5.670,-39.480
159341156,-0.830,0.156,0.210,17.990,9.310,-33.390
159341180,-0.849,0.208,0.217,14.560,17.080,-31.640
159341199,-0.939,0.239,0.225,1.960,19.810,-33.530
159341220,-0.976,0.316,0.227,-17.710,19.390,-35.700
159341244,-1.027,0.256,0.212,-41.860,17.220,-33.250
159341268,-1.046,0.242,0.215,-53.340,16.590,-28.910
159341287,-1.101,0.171,0.220,-58.100,11.690,-19.040
159341311,-1.141,0.152,0.207,-49.910,8.260,-2.800
159341331,-1.108,0.127,0.154,-27.790,-2.520,12.040
159341350,-1.038,0.116,0.132,-9.100,-9.590,26.390
159341369,-0.932,0.160,0.142,10.220,-12.600,39.410
159341393,-0.906,0.202,0.142,16.030,-14.420,52.080
159341413,-0.903,0.223,0.132,17.360,-16.100,58.870
159341433,-0.915,0.216,0.104,19.530,-17.010,60.550
159341453,-0.941,0.220,0.098,20.860,-18.480,57.260
159341477,-0.932,0.234,0.061,15.680,-21.840,50.680
159341497,-0.909,0.180,0.123,25.410,-11.760,43.260
159341517,-0.962,0.248,0.119,27.020,-8.470,38.010
159341541,-0.969,0.253,0.122,24.990,-6.440,34.090
159341560,-0.975,0.250,0.119,16.310,-6.790,30.450
159341585,-0.954,0.205,0.120,4.480,-1.120,30.660
159341604,-0.959,0.230,0.149,-8.680,2.520,32.270
159341623,-0.974,0.188,0.156,-18.200,6.160,32.900
159341646,-0.987,0.150,0.201,-24.430,8.820,31.150
159341667,-0.978,0.100,0.185,-17.500,6.720,27.230
159341686,-0.956,0.095,0.162,-7.560,5.390,21.070
159341707,-0.968,0.151,0.224,3.850,-2.590,15.470
159341728,-0.958,0.247,0.260,-3.220,-17.850,8.820
159341748,-0.920,0.274,0.328,-18.480,-29.470,7.420
159341768,-0.892,0.227,0.357,-22.960,-30.310,6.090
159341791,-0.900,0.180,0.358,-15.540,-21.910,1.050
159341812,-0.915,0.168,0.323,17.150,-14.420,-3.640
159341832,-0.877,0.173,0.279,36.120,-8.330,-7.070
159341852,-0.843,0.197,0.235,46.130,-3.570,-9.940
159341869,-0.814,0.249,0.209,47.180,0.280,-11.830
159341893,-0.811,0.282,0.202,39.550,6.790,-17.360
159341911,-0.846,0.282,0.182,33.810,11.620,-24.080
159341935,-0.899,0.285,0.161,28.000,14.770,-35.910
159341951,-0.947,0.273,0.149,24.570,13.020,-43.120
159341973,-0.946,0.261,0.141,27.650,10.990,-49.560
159341997,-0.930,0.272,0.122,28.350,12.040,-55.230
159342015,-0.966,0.274,0.097,25.900,14.140,-59.220
159342039,-1.040,0.266,0.068,23.660,14.280,-63.280
159342058,-1.106,0.258,0.042,24.850,11.200,-67.480
159342082,-1.087,0.264,0.050,28.070,8.050,-70.560
159342102,-1.045,0.286,0.084,28.700,7.000,-69.230
159342122,-0.980,0.311,0.128,23.380,8.960,-63.350
159342140,-0.974,0.342,0.153,14.280,13.090,-57.260
159342160,-1.006,0.354,0.153,2.100,13.370,-47.670
159342184,-1.007,0.347,0.143,-12.530,9.170,-36.470
159342204,-1.008,0.331,0.163,-18.970,6.580,-25.550
159342222,-0.992,0.291,0.183,-19.600,-0.910,-16.310
159342246,-0.941,0.244,0.176,-9.100,-4.550,-2.310
159342265,-0.968,0.241,0.139,8.750,-7.140,6.160
159342289,-0.967,0.274,0.155,17.640,-9.800,16.170
159342307,-0.978,0.314,0.176,19.670,-14.770,23.660
159342328,-0.971,0.315,0.190,23.660,-19.250,32.620
159342352,-0.972,0.332,0.172,26.670,-22.050,41.230
159342372,-0.966,0.351,0.197,28.210,-27.790,46.200
159342392,-0.957,0.371,0.206,28.420,-32.620,55.510
159342408,-0.988,0.405,0.160,25.620,-34.440,61.740
159342432,-1.045,0.463,0.094,16.940,-35.000,73.080
159342451,-1.143,0.623,0.128,-10.920,-49.560,84.910
159342472,-1.073,0.593,0.253,-35.910,-57.680,96.670
159342490,-1.008,0.483,0.331,-36.260,-56.770,105.910
159342510,-0.986,0.430,0.324,-15.470,-47.040,112.420
159342534,-1.035,0.574,0.275,3.780,-49.000,142.170
159342553,-1.028,0.795,0.294,2.870,-64.680,135.030
159342571,-0.983,0.808,0.377,-17.640,-71.680,135.520
159342590,-0.948,0.758,0.414,-40.460,-74.200,141.260
159342613,-0.905,0.644,0.415,-49.210,-68.950,150.850
159342631,-0.795,0.571,0.373,-31.500,-55.370,145.950
159342655,-0.732,0.528,0.357,-23.590,-51.310,131.950
159342674,-0.709,0.505,0.362,-18.480,-40.880,118.300
159342695,-0.688,0.479,0.293,-29.260,-32.690,101.780
159342714,-0.559,0.382,0.281,-29.680,-24.920,87.430
159342733,-0.486,0.374,0.271,-42.210,-17.080,76.650
159342752,-0.422,0.285,0.210,-47.670,-3.990,65.590
159342775,-0.460,0.294,0.158,-46.480,17.360,59.990
159342799,-0.512,0.347,0.167,-47.110,21.560,56.000
159342817,-0.547,0.397,0.191,-60.200,19.950,49.700
159342838,-0.527,0.341,0.233,-65.450,22.960,46.760
159342861,-0.546,0.310,0.210,-59.850,16.310,48.580
159342881,-0.510,0.306,0.157,-39.410,10.360,54.040
159342900,-0.509,0.338,0.125,-19.740,7.210,56.840
159342920,-0.562,0.399,0.154,8.820,3.710,53.340
159342945,-0.611,0.436,0.234,18.410,1.960,46.970
159342963,-0.697,0.479,0.255,13.230,7.210,38.220
159342987,-0.749,0.467,0.281,-0.210,8.750,31.640
159343005,-0.825,0.543,0.294,-1.890,7.210,27.370
159343024,-0.807,0.504,0.313,-4.060,3.010,18.340
159343049,-0.751,0.490,0.382,3.430,8.890,17.360
159343069,-0.787,0.585,0.441,17.080,6.020,20.580
159343087,-0.669,0.581,0.435,29.960,7.980,15.190
159343105,-0.604,0.612,0.467,38.010,19.250,5.110
159343129,-0.632,0.764,0.552,40.180,21.700,-4.480
159343149,-0.644,0.747,0.509,26.600,18.900,-15.190
159343166,-0.635,0.742,0.411,15.190,13.230,-16.100
159343186,-0.621,0.772,0.380,8.960,10.780,-13.650
159343209,-0.669,0.945,0.420,5.810,19.530,-15.400
159343233,-0.787,0.956,0.443,-11.760,31.850,-23.800
159343251,-0.798,0.839,0.386,-17.220,40.390,-27.230
159343271,-0.928,0.930,0.449,-3.780,42.210,-14.770
159343291,-0.866,0.894,0.487,14.630,37.380,2.450
159343314,-0.862,0.876,0.480,47.040,42.840,12.250
159343334,-0.887,0.966,0.470,59.290,33.390,6.790
159343358,-0.818,0.964,0.422,46.200,24.500,-10.430
159343378,-0.788,0.949,0.335,21.210,22.330,-17.360
159343398,-0.825,1.030,0.457,-0.490,13.580,-23.380
159343418,-0.822,1.022,0.580,-11.550,11.550,-26.250
159343437,-0.867,1.023,0.589,-23.100,13.440,-24.430
159343454,-0.893,1.032,0.555,-34.020,9.380,-25.550
159343477,-0.901,1.079,0.538,-56.840,10.080,-22.120
159343493,-0.961,0.999,0.513,-61.810,-3.570,-17.220
159343516,-0.957,0.935,0.514,-75.460,-9.940,-13.090
159343533,-0.909,0.879,0.493,-50.890,-8.820,-6.930
159343558,-0.873,0.794,0.448,-12.460,-5.110,-4.410
159343582,-0.841,0.806,0.445,1.890,3.990,-12.880
159343602,-0.882,0.804,0.419,-3.010,-2.590,-11.760
159343618,-1.021,0.902,0.447,-23.240,-19.320,-9.660
159343642,-0.940,0.814,0.443,-41.510,-33.250,-6.790
159343660,-0.832,0.669,0.424,-29.610,-33.530,-9.170
159343684,-0.779,0.594,0.384,-3.220,-28.000,-5.600
159343704,-0.821,0.659,0.388,22.330,-29.050,-4.130
159343721,-0.827,0.746,0.439,19.950,-30.870,0.140
159343745,-0.876,0.712,0.443,3.010,-40.530,8.330
159343764,-0.844,0.659,0.407,-5.460,-52.220,13.930
159343785,-0.775,0.584,0.374,-2.240,-52.290,15.890
159343805,-0.794,0.558,0.329,6.930,-51.800,20.510
159343829,-0.813,0.559,0.331,27.790,-53.690,23.520
159343848,-0.744,0.538,0.335,37.660,-55.370,23.870
159343871,-0.691,0.573,0.328,41.720,-57.960,24.220
159343894,-0.636,0.643,0.361,26.810,-60.970,20.020
159343918,-0.535,0.535,0.363,6.230,-50.750,3.150
159343938,-0.521,0.410,0.298,2.660,-34.510,-3.220
159343957,-0.631,0.553,0.294,3.500,-29.960,-3.920
159343978,-0.652,0.616,0.321,-0.630,-27.860,-4.340
159344002,-0.622,0.587,0.342,-3.430,-24.430,-10.080
159344020,-0.500,0.473,0.297,-8.330,-13.090,-23.450
159344039,-0.515,0.472,0.334,-16.940,-7.980,-29.680
159344064,-0.482,0.488,0.374,-18.830,0.490,-29.120
159344084,-0.422,0.443,0.335,-0.910,6.090,-29.820
159344101,-0.416,0.465,0.302,8.820,5.110,-31.990
159344125,-0.371,0.493,0.308,8.120,5.670,-34.930
159344141,-0.320,0.497,0.345,5.460,9.170,-37.870
159344160,-0.336,0.528,0.412,2.100,12.390,-40.320
159344185,-0.324,0.483,0.433,2.450,26.460,-49.280
159344204,-0.420,0.492,0.372,20.160,30.170,-60.620
159344227,-0.499,0.526,0.340,31.360,30.940,-81.060
159344243,-0.533,0.540,0.388,37.030,32.550,-93.520
159344266,-0.558,0.536,0.460,36.960,38.360,-104.510
159344287,-0.582,0.523,0.441,45.360,50.190,-118.230
159344307,-0.637,0.463,0.384,53.200,59.640,-132.440
159344331,-0.682,0.496,0.359,65.030,60.130,-147.910
159344351,-0.733,0.519,0.329,62.650,52.640,-154.980
159344367,-0.744,0.470,0.318,66.850,44.380,-157.780
159344390,-0.798,0.478,0.285,70.210,42.630,-161.140
159344410,-0.895,0.505,0.274,67.970,36.050,-167.440
159344434,-0.984,0.441,0.235,61.670,30.660,-173.040
159344454,-1.079,0.467,0.237,51.100,21.350,-175.350
159344473,-1.146,0.406,0.212,49.140,22.050,-172.340
159344497,-1.234,0.436,0.185,50.470,13.300,-157.360
159344516,-1.169,0.449,0.212,48.160,6.860,-133.630
159344536,-1.163,0.452,0.221,49.420,-5.670,-102.410
159344555,-1.145,0.447,0.197,50.610,-10.080,-71.890
159344580,-1.115,0.373,0.158,49.770,-1.960,-33.810
159344600,-1.100,0.345,0.118,49.840,-2.940,-7.840
159344619,-0.952,0.353,0.147,49.630,-4.690,11.480
159344639,-0.848,0.385,0.208,46.620,-0.910,28.210
159344663,-0.888,0.252,0.234,40.320,-3.360,42.770
159344683,-0.859,0.343,0.161,35.000,-6.580,46.620
159344702,-0.891,0.363,0.089,31.570,-4.270,42.210
159344722,-0.963,0.433,0.109,20.230,-9.800,31.920
159344742,-0.969,0.411,0.139,5.180,-14.630,21.000
159344763,-0.983,0.351,0.157,-3.640,-9.170,11.830
159344782,-1.011,0.351,0.147,-5.320,-3.710,6.300
159344802,-0.999,0.370,0.155,-14.350,-1.260,4.550
159344821,-0.926,0.356,0.178,-25.200,1.680,9.240
159344845,-0.875,0.325,0.222,-36.820,10.080,20.580
159344866,-0.895,0.359,0.258,-46.970,10.080,34.300
159344886,-0.917,0.312,0.255,-59.290,9.590,44.870
159344906,-0.996,0.279,0.286,-67.270,9.660,51.030
159344924,-0.964,0.182,0.225,-68.180,8.260,51.870
159344947,-0.969,0.183,0.192,-64.470,2.170,54.950
159344967,-0.954,0.219,0.226,-53.550,-4.200,59.220
159344988,-0.984,0.296,0.369,-48.650,-13.020,64.050
159345008,-0.946,0.245,0.349,-47.530,-15.120,70.280
159345026,-0.972,0.244,0.314,-38.570,-15.890,72.450
159345046,-0.962,0.309,0.302,-33.320,-20.370,69.580
159345065,-0.908,0.319,0.332,-36.890,-22.960,61.320
159345089,-0.833,0.314,0.377,-43.050,-15.540,48.580
159345110,-0.852,0.308,0.366,-43.960,-10.640,37.170
159345130,-0.866,0.290,0.338,-37.940,-4.830,23.730
159345150,-0.830,0.219,0.331,-25.550,-6.440,8.120
159345169,-0.829,0.291,0.335,-9.800,-11.480,1.610
159345193,-0.802,0.320,0.310,4.410,-11.480,3.220
159345212,-0.820,0.366,0.309,22.120,-15.470,9.170
159345233,-0.819,0.422,0.346,32.970,-21.140,16.660
159345249,-0.853,0.520,0.446,37.380,-28.910,25.690
159345272,-0.752,0.534,0.389,37.520,-26.390,35.770
159345293,-0.838,0.596,0.386,58.730,-20.650,52.080
159345313,-0.866,0.686,0.385,60.270,-17.220,62.650
159345336,-0.783,0.681,0.429,65.450,-17.570,68.950
159345357,-0.701,0.718,0.431,46.340,-21.420,70.000
159345377,-0.595,0.739,0.364,24.290,-11.830,61.950
159345396,-0.556,0.737,0.312,7.210,-5.950,55.230
159345417,-0.593,0.724,0.344,-20.300,-3.010,49.280
159345436,-0.564,0.641,0.377,-33.740,-3.850,44.100
159345460,-0.550,0.665,0.329,-42.000,1.260,36.400
159345479,-0.618,0.691,0.241,-58.590,4.130,33.180
159345495,-0.725,0.745,0.287,-76.580,-0.560,35.140
159345515,-0.740,0.698,0.382,-86.380,-7.210,43.540
159345540,-0.608,0.598,0.418,-73.430,6.160,50.610
159345559,-0.619,0.557,0.342,-56.490,17.010,52.570
159345584,-0.648,0.549,0.346,-39.200,21.140,50.400
159345601,-0.657,0.526,0.395,-32.130,23.240,46.410
159345624,-0.633,0.488,0.415,-30.520,20.440,40.460
159345644,-0.563,0.441,0.363,-31.850,21.140,34.930
159345667,-0.569,0.411,0.276,-31.500,22.050,29.960
159345688,-0.695,0.365,0.242,-22.190,18.130,24.850
159345707,-0.748,0.324,0.257,-11.410,15.680,18.060
159345732,-0.755,0.289,0.228,1.750,12.390,7.560
159345751,-0.739,0.313,0.171,16.310,11.340,-1.260
159345770,-0.783,0.361,0.172,19.810,8.050,-3.500
159345790,-0.813,0.438,0.183,15.960,4.830,-1.400
159345811,-0.783,0.454,0.160,9.170,3.570,0.560
159345835,-0.742,0.449,0.155,3.640,1.330,4.970
159345855,-0.706,0.407,0.199,0.490,6.790,7.490
159345875,-0.746,0.365,0.185,6.440,11.270,7.070
159345894,-0.778,0.380,0.152,7.350,11.970,2.660
159345914,-0.794,0.406,0.122,7.070,8.400,-2.030
159345939,-0.778,0.392,0.135,8.960,4.130,-2.520
159345959,-0.778,0.399,0.183,13.790,2.450,-0.700
159345978,-0.866,0.491,0.206,12.110,0.700,-1.190
159346002,-0.906,0.532,0.193,6.230,-1.680,-10.290
159346019,-0.912,0.522,0.183,2.100,-5.040,-16.590
159346042,-0.872,0.551,0.194,6.860,-1.820,-20.090
159346062,-0.877,0.562,0.193,10.570,4.130,-20.230
159346081,-0.906,0.572,0.207,10.220,8.890,-20.860
159346107,-0.910,0.532,0.175,8.120,14.630,-26.880
159346126,-0.907,0.525,0.179,6.580,19.390,-32.270
159346145,-0.935,0.540,0.184,2.100,19.460,-34.930
159346164,-0.956,0.550,0.184,2.730,18.130,-35.350
159346186,-1.011,0.564,0.180,3.500,14.910,-36.680
159346210,-1.028,0.562,0.189,7.210,13.300,-39.760
159346229,-1.131,0.606,0.209,7.560,10.780,-41.440
159346250,-1.184,0.584,0.220,8.750,5.040,-37.030
159346270,-1.140,0.535,0.216,14.980,-1.960,-26.950
159346289,-1.059,0.540,0.245,24.080,-7.070,-15.120
159346308,-1.019,0.604,0.287,26.040,-9.170,-7.560
159346333,-0.977,0.590,0.278,19.040,-8.680,-6.720
159346349,-0.977,0.581,0.249,11.060,-7.140,-7.630
159346373,-1.009,0.600,0.243,1.330,-6.020,-7.980
159346393,-1.083,0.630,0.280,-3.850,-5.110,-8.400
159346413,-1.147,0.602,0.269,-9.450,-6.510,-9.520
159346433,-1.177,0.580,0.234,-7.980,-6.790,-12.320
159346454,-1.204,0.612,0.245,-7.000,-8.260,-15.400
159346476,-1.211,0.590,0.249,-7.910,-9.800,-15.330
159346495,-1.217,0.574,0.269,-3.780,-12.110,-12.460
159346516,-1.206,0.567,0.271,2.520,-14.420,-11.200
159346535,-1.169,0.574,0.277,6.020,-17.080,-12.250
159346559,-1.157,0.584,0.274,9.520,-16.940,-14.560
159346579,-1.200,0.633,0.303,9.660,-17.640,-15.470
159346598,-1.231,0.646,0.297,8.750,-17.430,-14.140
159346617,-1.243,0.638,0.294,7.490,-18.550,-10.080
159346641,-1.187,0.625,0.294,10.010,-19.600,-2.310
159346662,-1.121,0.645,0.298,11.900,-18.900,2.870
159346682,-1.065,0.621,0.299,11.480,-15.890,5.810
159346700,-1.068,0.598,0.285,10.360,-13.650,7.840
159346723,-1.042,0.538,0.247,9.450,-11.130,8.960
159346743,-1.000,0.501,0.231,12.600,-9.520,10.640
159346767,-0.935,0.479,0.221,15.120,-7.140,11.830
159346787,-0.906,0.444,0.225,14.700,-2.730,11.760
159346807,-0.896,0.386,0.185,11.480,-0.420,11.200
159346826,-0.885,0.337,0.140,6.790,-1.260,10.010
159346843,-0.862,0.303,0.095,5.110,-2.730,9.520
159346865,-0.804,0.271,0.048,5.740,-3.990,6.720
159346884,-0.788,0.233,0.042,8.890,-2.380,5.670
159346909,-0.785,0.221,0.039,13.510,-3.150,6.720
159346929,-0.793,0.226,0.052,13.230,-1.890,6.090
159346947,-0.825,0.224,0.068,9.940,-2.520,2.660
159346966,-0.908,0.227,0.069,7.210,-4.480,-3.360
159346990,-0.930,0.190,0.008,5.460,-9.030,-17.710
159347009,-0.985,0.239,0.039,4.760,-8.470,-31.990
159347030,-0.988,0.305,0.182,3.010,-20.650,-44.380
159347054,-0.734,0.226,0.268,3.780,-20.720,-56.490
159347073,-0.597,0.234,0.324,14.560,-8.680,-60.760
159347089,-0.537,0.283,0.344,12.880,1.400,-58.450
159347114,-0.548,0.352,0.416,4.620,13.370,-54.740
159347131,-0.597,0.434,0.415,-9.590,19.320,-57.820
159347150,-0.691,0.446,0.381,-30.240,19.670,-66.010
159347170,-0.783,0.417,0.362,-46.130,22.120,-80.010
159347193,-0.825,0.371,0.345,-56.770,24.570,-94.920
159347214,-0.857,0.318,0.326,-52.570,27.720,-101.360
159347234,-0.849,0.264,0.314,-39.200,25.200,-102.690
159347251,-0.798,0.220,0.296,-17.290,26.180,-96.110
159347272,-0.755,0.253,0.289,-9.660,25.200,-84.840
159347291,-0.722,0.294,0.270,-7.070,30.380,-75.320
159347316,-0.760,0.319,0.256,-14.350,31.500,-71.610
159347334,-0.844,0.335,0.263,-19.950,26.670,-72.170
159347354,-0.878,0.281,0.293,-27.090,20.860,-74.970
159347375,-0.940,0.229,0.316,-11.900,18.550,-74.970
159347399,-0.913,0.203,0.281,-0.210,13.580,-70.210
159347418,-0.945,0.199,0.257,23.730,11.690,-65.380
159347439,-0.953,0.253,0.290,37.240,10.430,-58.030
159347460,-0.964,0.296,0.332,37.240,8.400,-44.800
159347483,-0.959,0.287,0.361,34.790,7.210,-26.390
159347503,-0.980,0.297,0.350,30.100,4.970,-8.610
159347523,-0.996,0.322,0.336,9.100,5.320,4.270
159347542,-1.048,0.364,0.359,-12.460,1.820,17.010
159347562,-1.026,0.264,0.347,-26.250,-7.910,26.670
159347586,-0.951,0.235,0.314,-34.440,-10.080,41.160
159347605,-0.939,0.195,0.293,-41.160,-10.010,53.480
159347625,-0.954,0.165,0.293,-42.420,-7.980,63.420
159347644,-0.983,0.165,0.287,-43.190,-8.960,71.260
159347669,-0.977,0.163,0.244,-46.130,-10.570,76.230
159347689,-0.967,0.163,0.206,-47.180,-10.500,75.740
159347705,-0.993,0.134,0.193,-44.240,-10.080,72.800
159347729,-1.029,0.145,0.184,-46.550,-10.010,61.810
159347747,-1.037,0.103,0.173,-38.080,-18.340,53.760
159347766,-0.928,0.105,0.198,-25.060,-23.800,47.740
159347789,-0.825,0.061,0.168,-2.240,-28.070,44.590
159347810,-0.734,0.091,0.141,18.480,-25.410,43.890
159347827,-0.695,0.114,0.129,28.840,-18.970,40.460
159347849,-0.778,0.154,0.129,38.710,-12.390,28.910
159347868,-0.862,0.198,0.133,42.700,-12.320,13.020
159347887,-0.929,0.201,0.107,46.900,-15.330,-6.580
159347907,-0.906,0.198,0.103,57.260,-16.450,-24.640
159347932,-0.875,0.201,0.104,66.360,-12.250,-38.290
159347947,-0.836,0.216,0.117,72.800,-6.370,-42.630
159347972,-0.811,0.229,0.131,77.910,3.010,-43.190
159347992,-0.811,0.245,0.141,78.400,8.750,-41.230
159348010,-0.823,0.271,0.133,73.220,12.320,-39.620
159348034,-0.854,0.289,0.119,62.230,16.660,-38.010
159348052,-0.890,0.298,0.131,50.820,16.660,-37.590
159348075,-0.922,0.317,0.148,38.570,17.360,-38.570
159348094,-0.945,0.288,0.150,37.100,15.610,-39.130
159348114,-1.014,0.340,0.153,44.870,12.880,-35.560
159348134,-1.121,0.389,0.244,55.020,3.360,-27.230
159348155,-1.058,0.349,0.216,68.600,-3.570,-12.250
159348179,-1.045,0.439,0.166,77.980,-9.030,11.690
159348195,-0.974,0.517,0.212,80.150,-14.490,23.240
159348218,-0.920,0.566,0.250,68.950,-14.420,33.600
159348238,-0.935,0.553,0.215,55.090,-15.610,38.290
159348262,-0.923,0.549,0.169,47.530,-16.590,35.910
159348282,-0.915,0.576,0.141,38.920,-16.520,28.980
159348302,-0.946,0.571,0.150,27.440,-17.990,19.110
159348321,-0.907,0.508,0.138,22.330,-16.870,11.970
159348345,-0.908,0.561,0.132,18.970,-8.680,4.130
159348364,-0.975,0.586,0.113,23.380,-5.530,-0.700
159348385,-1.002,0.573,0.129,20.160,-5.320,-3.780
159348405,-1.004,0.494,0.123,10.430,-7.770,-3.360
159348424,-0.995,0.486,0.148,0.630,-8.820,-1.050
159348445,-0.967,0.512,0.170,-7.840,-10.080,6.300
159348464,-0.976,0.415,0.136,-17.640,-3.990,12.600
159348487,-1.068,0.359,0.134,-27.510,-4.760,18.760
159348508,-1.074,0.244,0.121,-18.480,1.470,27.300
159348525,-1.036,0.278,0.106,-22.330,-1.120,29.610
159348549,-0.905,0.262,0.112,-33.810,-1.190,35.630
159348567,-0.735,0.229,0.109,-43.120,2.590,37.660
159348587,-0.715,0.195,0.097,-56.350,16.380,38.080
159348611,-0.813,0.219,0.070,-79.100,18.830,30.940
159348635,-0.862,0.148,0.012,-87.990,18.270,21.700
159348655,-0.787,0.022,-0.016,-79.100,17.080,17.220
159348674,-0.787,0.070,0.017,-71.610,18.270,16.730
159348695,-0.864,0.061,0.074,-67.410,19.460,20.300
159348713,-0.899,0.014,0.049,-61.040,13.160,25.130
159348733,-0.834,0.031,0.054,-58.030,1.680,33.040
159348757,-0.737,0.033,0.041,-52.780,-10.850,43.190
159348777,-0.760,0.048,0.076,-38.360,-1.680,47.810
159348797,-0.819,0.065,0.111,-24.220,1.470,43.050
159348812,-1.017,0.102,0.150,-21.490,12.250,35.140
159348837,-1.083,0.096,0.109,-32.970,4.480,19.880
159348861,-1.036,0.130,0.115,-40.390,7.000,14.000
159348881,-0.979,0.073,0.085,-43.050,-0.280,7.490
159348901,-0.932,0.059,0.087,-27.370,10.570,6.440
159348920,-0.891,0.098,0.129,-18.550,0.840,1.960
159348941,-0.887,0.189,0.158,-9.310,16.310,-7.840
159348961,-1.045,0.131,0.128,-23.310,4.970,-17.920
159348980,-0.996,0.206,0.159,-20.370,6.300,-30.240
159349000,-1.229,0.237,0.130,-25.270,14.840,-35.980
159349019,-1.294,0.180,0.115,-26.040,10.710,-41.650
159349044,-1.285,0.208,0.093,-29.260,25.340,-46.340
159349060,-1.378,0.193,0.080,-31.010,17.640,-47.740
159349084,-1.429,0.150,0.021,-23.170,14.420,-35.840
159349104,-1.330,0.159,0.096,-9.730,5.600,-26.180
159349124,-1.249,0.071,0.122,2.730,4.130,-14.070
159349144,-1.174,0.121,0.175,14.280,7.700,-4.480
159349164,-1.180,0.167,0.152,14.560,6.650,-0.840
159349179,-1.167,0.201,0.140,12.880,6.510,-1.190
159349204,-1.192,0.224,0.124,5.600,10.360,-8.960
159349223,-1.243,0.228,0.123,-4.200,13.650,-15.120
159349242,-1.263,0.198,0.104,-11.970,13.090,-19.390
159349266,-1.208,0.167,0.088,-8.190,6.160,-24.780
159349286,-1.194,0.191,0.109,0.980,7.420,-26.670
159349306,-1.235,0.201,0.119,5.180,9.590,-29.470
159349326,-1.286,0.189,0.097,3.500,15.470,-30.730
159349350,-1.335,0.219,0.094,-4.200,5.600,-29.820
159349369,-1.308,0.186,0.083,-4.200,3.010,-26.110
159349389,-1.329,0.192,0.112,-2.030,7.630,-21.070
159349407,-1.415,0.172,0.095,4.620,3.850,-16.940
159349426,-1.411,0.138,0.097,11.200,-3.640,-10.920
159349446,-1.403,0.142,0.090,10.150,-10.500,2.100
159349468,-1.340,0.139,0.095,13.860,-10.080,14.910
159349491,-1.332,0.120,0.081,19.670,-17.710,29.820
159349511,-1.263,0.114,0.066,19.180,-19.600,42.770
159349531,-1.278,0.196,0.071,19.110,-34.370,53.760
159349551,-1.207,0.122,0.078,13.440,-22.820,61.880
159349569,-1.185,0.118,0.073,13.790,-26.950,68.180
159349593,-1.122,0.111,0.054,16.450,-30.030,72.730
159349613,-1.071,0.106,0.052,20.930,-31.920,75.670
159349633,-1.029,0.123,0.056,23.940,-33.670,77.980
159349652,-1.001,0.116,0.030,26.740,-31.290,79.870
159349676,-0.912,0.118,0.036,34.020,-33.180,79.660
159349694,-0.895,0.118,0.015,36.330,-34.440,78.330
159349718,-0.820,0.113,0.023,41.860,-33.670,74.620
159349737,-0.773,0.139,0.019,44.870,-30.240,69.370
159349756,-0.742,0.185,0.036,41.860,-26.250,57.960
159349781,-0.704,0.214,0.050,31.290,-22.400,38.150
159349800,-0.619,0.249,0.094,23.030,-16.800,26.950
159349820,-0.535,0.212,0.121,21.000,-9.940,17.640
159349844,-0.482,0.217,0.154,24.220,-4.200,17.290
159349864,-0.427,0.254,0.198,33.180,2.170,19.670
159349884,-0.509,0.366,0.186,28.560,7.350,15.330
159349900,-0.592,0.354,0.195,27.020,4.200,4.690
159349923,-0.625,0.349,0.196,36.470,-3.500,-20.440
159349943,-0.658,0.388,0.129,46.270,-4.480,-43.680
159349967,-0.709,0.448,0.094,50.680,-12.740,-74.550
159349987,-0.738,0.428,0.104,62.790,-13.160,-96.390
159350005,-0.835,0.420,0.110,71.190,-13.580,-116.340
159350026,-0.890,0.411,0.110,80.570,-13.580,-138.740
159350048,-0.997,0.431,0.090,87.290,-10.500,-160.650
159350072,-1.090,0.423,0.073,95.550,-3.290,-173.950
159350092,-1.175,0.464,0.054,91.280,-10.500,-174.860
159350110,-1.075,0.435,0.068,87.430,-18.200,-166.110
159350129,-1.109,0.414,0.015,85.750,-19.950,-140.420
159350154,-1.037,0.433,-0.009,77.140,-22.540,-103.810
159350171,-0.979,0.405,-0.013,62.580,-17.920,-79.100
159350192,-0.912,0.416,-0.007,36.120,-16.660,-49.840
159350213,-0.866,0.323,-0.067,18.340,-10.780,-24.570
159350237,-0.824,0.367,-0.058,6.370,-1.470,1.260
159350257,-0.867,0.359,-0.052,-0.350,5.880,11.130
159350277,-0.947,0.411,-0.032,-11.620,4.900,12.390
159350296,-0.998,0.346,-0.010,-12.390,6.440,8.120
159350319,-0.996,0.347,0.007,-7.980,7.000,-0.280
159350339,-1.014,0.334,-0.031,-0.840,-1.330,-10.290
159350358,-1.004,0.331,-0.048,15.050,6.720,-23.660
159350383,-0.974,0.354,0.029,15.540,6.370,-39.550
159350402,-1.039,0.397,0.061,15.960,0.420,-44.100
159350422,-0.997,0.415,0.071,7.350,-4.130,-43.470
159350442,-0.889,0.391,0.062,-2.310,-3.850,-38.780
159350462,-0.819,0.378,0.087,-8.050,-0.560,-30.100
159350486,-0.865,0.425,0.123,-21.490,2.800,-10.570
159350506,-0.950,0.404,0.122,-45.640,4.900,4.620
159350524,-1.034,0.364,0.080,-69.650,3.570,17.990
159350544,-1.086,0.320,0.038,-82.320,-4.410,29.960
159350566,-1.007,0.277,0.077,-89.670,-2.100,42.840
159350582,-0.958,0.262,0.102,-92.470,-1.610,49.910
159350602,-0.956,0.238,0.111,-93.660,1.820,60.270
159350626,-1.024,0.228,0.088,-91.840,3.080,67.760
159350646,-1.110,0.231,0.094,-91.770,1.820,69.720
159350666,-1.149,0.193,0.083,-84.210,-5.950,70.910
159350685,-1.100,0.147,0.062,-74.480,-11.900,72.520
159350703,-1.042,0.136,0.035,-62.090,-15.890,73.570
159350727,-1.015,0.112,0.047,-48.580,-12.180,73.080
159350747,-1.006,0.135,0.089,-30.870,-9.730,70.840
159350767,-1.010,0.135,0.125,-22.260,-9.660,66.360
159350785,-0.963,0.197,0.136,-14.210,-10.010,56.630
159350805,-0.922,0.193,0.123,-14.210,-8.960,47.110
159350827,-0.824,0.222,0.151,-19.530,-6.160,38.290
159350851,-0.796,0.225,0.186,-31.430,-6.020,28.070
159350871,-0.766,0.203,0.186,-32.690,-7.560,21.490
159350891,-0.773,0.211,0.182,-29.470,-8.190,13.300
159350915,-0.801,0.217,0.190,-22.190,-8.610,3.780
159350930,-0.827,0.241,0.204,-17.080,-9.520,-2.870
159350954,-0.823,0.261,0.253,-12.740,-10.920,-12.040
159350975,-0.814,0.258,0.226,-9.170,-11.550,-17.640
159350994,-0.842,0.304,0.231,-4.130,-12.670,-22.260
159351019,-0.861,0.370,0.274,-2.940,-12.740,-29.960
159351038,-0.884,0.386,0.298,-4.200,-11.690,-32.340
159351059,-0.881,0.353,0.280,2.800,-6.860,-29.190
159351078,-0.960,0.377,0.284,12.530,-9.030,-24.080
159351097,-0.967,0.435,0.289,17.220,-7.490,-20.020
159351122,-0.908,0.468,0.310,10.640,-4.410,-17.150
159351140,-0.866,0.459,0.308,0.210,-2.520,-17.430
159351162,-0.884,0.466,0.305,-11.480,-5.460,-17.430
159351182,-0.879,0.440,0.281,-17.500,-2.170,-17.780
159351206,-0.875,0.386,0.249,-13.370,0.000,-17.010
159351226,-0.857,0.354,0.222,-4.270,3.010,-15.260
159351246,-0.791,0.377,0.233,-4.760,14.980,-13.300
159351265,-0.890,0.386,0.228,-16.380,21.700,-13.720
159351282,-0.980,0.377,0.214,-27.160,15.680,-13.300
159351306,-0.954,0.246,0.139,-36.960,21.000,-9.940
159351330,-0.950,0.158,0.061,-25.410,22.960,-1.470
159351350,-0.970,0.103,0.039,-10.710,23.940,-1.400
159351370,-0.976,0.087,0.053,1.050,27.090,-5.320
159351390,-1.002,0.072,0.036,6.440,28.420,-10.080
159351414,-0.960,0.028,-0.031,6.440,28.630,-16.940
159351433,-0.955,0.032,-0.046,3.710,28.350,-20.440
159351457,-0.978,0.002,-0.054,-7.490,25.270,-23.170
159351477,-0.951,-0.039,-0.065,-11.480,20.930,-22.330
159351496,-0.906,-0.071,-0.092,-9.450,16.940,-19.250
159351515,-0.845,-0.136,-0.094,2.240,17.990,-15.400
159351540,-0.795,-0.142,-0.089,10.850,21.280,-10.640
159351564,-0.820,-0.118,-0.059,20.790,23.030,-5.530
159351584,-0.863,-0.021,-0.063,13.650,20.300,-4.690
159351604,-0.843,0.046,-0.077,4.480,20.860,-5.390
159351623,-0.953,0.101,-0.100,-21.000,19.740,-7.000
159351644,-1.061,0.071,-0.105,-31.780,12.530,-6.720
159351664,-1.081,0.103,-0.074,-54.250,14.140,-9.380
159351684,-1.159,0.052,-0.102,-53.690,16.030,-7.210
159351704,-1.198,-0.076,-0.162,-33.180,4.760,0.070
159351719,-1.117,-0.135,-0.183,-11.550,-1.120,7.350
159351743,-0.958,-0.141,-0.140,13.720,-0.070,19.880
159351764,-0.982,-0.095,-0.121,32.200,4.900,29.540
159351784,-1.075,-0.082,-0.140,38.010,0.840,31.220
159351804,-1.051,-0.087,-0.124,37.730,-4.200,28.000
159351825,-0.999,-0.078,-0.103,36.260,-9.170,20.650
159351846,-0.988,-0.040,-0.090,29.470,-4.760,11.970
159351868,-1.036,-0.013,-0.091,21.910,-8.470,2.450
159351889,-1.075,-0.039,-0.089,12.670,-10.010,-4.970
159351909,-1.087,-0.013,-0.075,6.650,-9.520,-8.330
159351927,-1.116,-0.018,-0.081,1.960,-11.200,-10.080
159351946,-1.098,-0.032,-0.069,4.480,-10.640,-9.450
159351970,-1.100,-0.011,-0.068,12.320,-10.640,-7.840
159351994,-1.123,0.024,-0.078,17.990,-10.080,-10.150
159352014,-1.160,0.108,-0.076,15.400,-11.340,-15.190
159352031,-1.191,0.190,-0.058,4.550,-10.220,-20.790
159352055,-1.255,0.209,-0.050,-14.420,-9.240,-28.490
159352075,-1.377,0.192,-0.059,-30.870,-2.730,-30.240
159352095,-1.495,0.168,-0.113,-31.640,-7.140,-30.450
159352114,-1.470,0.074,-0.134,-24.360,-12.670,-26.250
159352135,-1.500,0.032,-0.129,-9.730,-11.270,-17.640
159352155,-1.506,0.027,-0.109,1.400,-10.570,-7.490
159352175,-1.498,0.017,-0.092,12.110,-9.380,4.550
159352195,-1.460,0.020,-0.083,14.980,-7.560,16.660
159352219,-1.405,0.024,-0.076,13.440,-4.410,29.050
159352238,-1.360,0.000,-0.066,8.750,-2.520,36.540
159352259,-1.304,-0.010,-0.068,3.710,-0.770,40.600
159352279,-1.225,-0.032,-0.060,-2.170,0.490,41.300
159352298,-1.184,-0.033,-0.074,-5.250,0.210,40.460
159352318,-1.117,0.000,-0.072,-6.580,0.420,38.500
159352337,-1.077,0.008,-0.072,-9.310,0.280,36.190
159352362,-1.051,0.003,-0.081,-12.530,-0.350,33.180
159352379,-1.055,-0.033,-0.098,-15.120,-6.580,29.330
159352402,-1.028,0.010,-0.090,-13.790,-3.640,22.820
159352422,-1.038,0.044,-0.098,-13.860,-7.560,17.780
159352442,-1.053,0.046,-0.112,-14.560,-8.820,17.780
159352462,-1.005,-0.023,-0.122,-12.950,-20.510,20.020
159352480,-0.956,-0.019,-0.115,-0.910,-20.580,24.780
159352503,-0.978,-0.012,-0.100,18.480,-23.170,30.940
159352520,-1.065,0.021,-0.068,31.360,-26.950,35.140
159352539,-1.138,0.078,-0.071,37.660,-31.010,39.760
159352559,-1.140,0.112,-0.081,34.090,-41.930,40.390
159352584,-1.070,0.163,-0.053,28.560,-50.750,40.180
159352604,-0.916,0.187,0.048,24.990,-56.070,40.950
159352627,-0.729,0.186,0.154,26.530,-55.020,42.000
159352644,-0.542,0.191,0.214,38.430,-53.760,44.240
159352663,-0.414,0.267,0.250,45.920,-36.610,44.730
159352684,-0.388,0.362,0.239,44.590,-28.700,38.850
159352708,-0.397,0.418,0.245,37.170,-24.780,24.430
159352724,-0.478,0.489,0.237,23.520,-20.580,12.460
159352743,-0.622,0.568,0.203,-1.750,-20.510,-10.080
159352768,-0.823,0.554,0.178,-30.310,-20.160,-38.080
159352787,-0.921,0.491,0.179,-38.710,-22.750,-54.950
159352811,-0.854,0.392,0.206,-27.160,-23.660,-58.240
159352829,-0.787,0.378,0.250,-14.350,-13.300,-49.490
159352852,-0.838,0.363,0.275,-13.020,-9.870,-33.040
159352873,-0.831,0.338,0.304,-0.210,-0.840,-19.670
159352893,-0.874,0.369,0.303,3.290,-5.180,-10.780
159352913,-0.825,0.344,0.318,7.420,-9.940,-4.410
159352933,-0.777,0.335,0.305,17.570,-13.230,-3.640
159352953,-0.713,0.346,0.287,26.250,-10.010,-6.300
159352973,-0.736,0.492,0.241,28.980,-10.780,-12.810
159352997,-0.741,0.391,0.221,26.180,-6.860,-24.780
159353017,-0.785,0.382,0.183,22.610,-3.570,-37.100
159353037,-0.856,0.398,0.180,16.660,-0.630,-50.050
159353057,-0.918,0.416,0.184,1.820,2.170,-59.500
159353077,-0.927,0.385,0.222,-10.430,6.160,-63.280
159353095,-0.926,0.334,0.212,-15.400,8.050,-60.480
159353115,-0.954,0.297,0.181,-13.300,11.550,-53.620
159353135,-0.979,0.265,0.148,-4.480,11.340,-44.030
159353155,-0.912,0.257,0.200,6.510,13.230,-34.230
159353176,-0.932,0.268,0.199,15.890,13.160,-22.260
159353197,-0.891,0.277,0.197,19.600,16.730,-15.540
159353216,-0.925,0.308,0.189,17.220,15.960,-0.910
159353240,-0.927,0.301,0.197,12.810,17.920,6.300
159353261,-0.982,0.302,0.216,8.470,17.850,9.520
159353281,-1.026,0.314,0.210,1.470,16.940,11.340
159353298,-1.036,0.307,0.179,-8.260,13.720,11.200
159353318,-1.065,0.268,0.162,-12.950,8.680,10.710
159353341,-1.006,0.224,0.157,-8.330,5.320,11.060
159353362,-0.928,0.188,0.139,2.310,5.320,15.120
159353379,-0.878,0.190,0.113,10.570,7.070,17.570
159353400,-0.863,0.218,0.105,17.150,5.740,18.480
159353421,-0.837,0.238,0.121,20.720,4.830,15.960
159353441,-0.842,0.276,0.096,20.300,3.640,11.690
159353464,-0.854,0.296,0.076,15.400,2.310,3.010
159353485,-0.902,0.295,0.070,11.410,0.000,-6.790
159353505,-0.976,0.306,0.071,8.890,-2.800,-20.720
159353525,-1.040,0.257,0.067,11.760,-5.180,-29.330
159353544,-1.043,0.223,0.046,25.550,-8.330,-33.950
159353565,-0.974,0.230,0.038,36.260,-6.160,-29.540
159353585,-0.961,0.263,0.023,44.240,-3.430,-26.180
159353609,-0.944,0.289,0.064,42.420,0.700,-18.130
159353628,-0.943,0.318,0.092,32.620,4.340,-11.970
159353647,-0.903,0.345,0.096,21.140,6.370,-5.740
159353667,-0.873,0.353,0.087,3.850,8.610,-0.770
159353687,-0.910,0.343,0.083,-10.710,8.610,1.890
159353712,-0.936,0.300,0.086,-14.910,6.790,3.010
159353732,-0.947,0.269,0.072,-7.840,4.130,1.750
159353749,-0.941,0.222,0.066,1.260,-0.980,0.770
159353769,-0.921,0.257,0.101,11.970,-1.610,-0.070
159353793,-0.897,0.283,0.105,18.340,-5.320,0.980
159353813,-0.918,0.321,0.091,17.710,-7.280,1.680
159353832,-0.962,0.337,0.081,16.310,-10.500,0.770
159353853,-0.984,0.361,0.096,16.100,-16.380,-0.490
159353870,-0.945,0.360,0.123,15.330,-17.640,0.000
159353890,-0.944,0.360,0.117,14.420,-15.400,1.890
159353910,-0.989,0.367,0.092,11.340,-16.380,2.800
159353929,-1.007,0.360,0.067,14.070,-15.750,2.870
159353954,-1.007,0.377,0.084,14.350,-19.040,-0.560
159353973,-0.965,0.404,0.110,11.410,-19.040,-0.910
159353994,-0.995,0.433,0.121,5.320,-20.160,-2.590
159354018,-1.021,0.404,0.117,3.430,-19.530,-3.570
159354038,-1.051,0.399,0.104,4.340,-20.580,-4.480
159354058,-1.033,0.373,0.093,3.710,-20.440,-4.130
159354076,-0.994,0.374,0.103,3.430,-18.830,-2.800
159354100,-0.951,0.371,0.131,1.260,-16.450,-0.280
159354120,-0.970,0.371,0.101,-2.870,-8.820,-2.030
159354140,-1.024,0.365,0.098,-13.510,-9.310,-6.650
159354160,-0.969,0.319,0.099,-19.460,-3.710,-8.750
159354180,-0.972,0.317,0.067,-24.920,0.630,-10.290
159354199,-0.857,0.277,0.064,-32.690,3.780,-9.450
159354216,-0.725,0.241,0.082,-41.160,9.730,-6.720
159354240,-0.705,0.232,0.087,-54.600,18.690,-3.570
159354259,-0.781,0.211,0.080,-70.560,17.430,-0.770
159354282,-0.765,0.101,0.038,-76.580,15.330,3.920
159354302,-0.762,0.000,-0.026,-65.030,15.050,8.260
159354326,-0.789,-0.035,-0.026,-42.630,13.510,14.490
159354344,-0.839,-0.015,0.033,-34.510,11.480,17.990
159354365,-0.895,-0.010,0.062,-36.820,8.330,22.890
159354384,-0.952,-0.058,-0.011,-38.780,4.900,29.120
159354409,-0.984,-0.102,-0.100,-30.030,0.560,42.280
159354429,-0.992,-0.171,-0.098,-13.650,4.900,48.790
159354449,-1.078,-0.107,-0.021,-2.800,8.960,52.010
159354469,-1.207,-0.018,0.053,-7.350,4.830,55.930
159354489,-1.154,-0.010,0.110,-27.300,2.380,61.320
159354509,-1.127,-0.016,0.046,-36.050,8.680,72.170
159354526,-1.055,0.045,0.048,-46.830,2.380,80.360
159354545,-1.012,0.073,0.077,-50.260,3.850,85.470
159354567,-1.049,0.054,0.089,-48.790,2.030,81.900
159354587,-1.013,0.048,0.074,-46.060,1.400,74.270
159354612,-0.933,0.013,0.037,-39.060,3.150,61.740
159354631,-0.932,0.081,0.052,-32.480,-1.540,52.010
159354650,-0.913,0.163,0.067,-33.180,2.590,39.200
159354670,-1.016,0.200,0.067,-49.490,8.330,21.770
159354689,-1.076,0.194,0.066,-64.470,1.750,6.230
159354709,-1.085,0.232,0.173,-70.910,-5.880,1.680
159354734,-0.946,0.187,0.140,-53.200,7.210,-4.130
159354751,-1.055,0.290,0.136,-41.930,9.870,-2.940
159354771,-1.198,0.397,0.247,-26.320,-5.460,10.430
159354795,-1.160,0.482,0.275,-20.930,-12.040,18.270
159354815,-1.082,0.530,0.234,-29.470,-2.170,23.800
159354835,-1.139,0.569,0.266,-27.930,2.940,19.460
159354853,-1.209,0.394,0.130,-29.330,8.400,6.370
159354877,-1.362,0.473,0.114,-31.570,-6.510,4.060
159354896,-1.389,0.512,0.161,-34.650,-12.670,0.280
159354917,-1.477,0.407,0.185,-28.350,-13.510,-3.150
159354937,-1.578,0.422,0.234,-14.560,-13.160,-8.890
159354961,-1.591,0.371,0.235,-4.970,-8.610,-13.650
159354979,-1.500,0.250,0.131,2.590,-8.680,-14.700
159354998,-1.362,0.174,0.040,18.060,-15.890,-17.500
159355023,-1.265,0.084,-0.014,20.090,-2.520,-19.040
159355043,-1.283,0.162,0.034,10.080,4.620,-24.990
159355061,-1.282,0.275,0.105,-3.500,4.130,-28.000
159355084,-1.270,0.292,0.201,-22.890,3.430,-36.400
159355103,-1.249,0.288,0.237,-29.400,2.310,-42.980
159355125,-1.265,0.243,0.221,-34.930,-3.220,-46.270
159355144,-1.221,0.123,0.198,-37.800,-4.410,-47.670
159355167,-1.151,0.115,0.135,-27.440,-12.250,-38.920
159355183,-1.148,0.052,0.114,-13.510,-9.870,-28.000
159355203,-1.086,0.058,0.115,6.300,-14.070,-12.390
159355228,-1.067,0.109,0.149,25.900,-26.740,5.880
159355246,-0.964,0.169,0.161,35.350,-30.590,18.900
159355266,-0.971,0.198,0.184,32.130,-33.530,27.160
159355286,-0.955,0.139,0.152,34.370,-39.620,33.040
159355306,-0.915,0.137,0.131,42.910,-43.400,35.840
159355326,-0.854,0.145,0.093,51.870,-45.430,35.910
159355350,-0.814,0.142,0.061,55.370,-47.600,35.000
159355369,-0.774,0.150,0.049,57.960,-41.370,33.530
159355390,-0.701,0.195,0.078,54.600,-38.500,31.010
159355410,-0.577,0.212,0.099,48.370,-34.020,27.580
159355430,-0.492,0.251,0.130,40.460,-27.090,23.520
159355448,-0.418,0.273,0.186,29.400,-21.980,18.830
159355472,-0.433,0.320,0.232,7.560,-14.490,12.040
159355491,-0.484,0.314,0.233,-9.170,-14.210,6.580
159355515,-0.533,0.225,0.190,-3.710,-12.460,-2.380
159355539,-0.637,0.242,0.106,26.880,-6.090,-22.330
159355559,-0.737,0.277,0.150,54.880,-5.320,-46.480
159355579,-0.751,0.337,0.216,73.290,4.900,-68.320
159355603,-0.781,0.442,0.256,78.890,9.660,-93.380
159355623,-0.793,0.483,0.269,66.990,12.810,-106.470
159355643,-0.848,0.459,0.250,56.840,15.540,-113.680
159355663,-0.905,0.436,0.227,42.560,15.470,-115.640
159355683,-0.915,0.362,0.187,38.920,14.280,-109.830
159355707,-0.907,0.357,0.142,33.600,10.780,-103.600
159355723,-0.850,0.309,0.122,37.240,14.770,-94.640
159355742,-0.891,0.368,0.180,35.490,20.160,-87.290
159355766,-1.004,0.425,0.221,14.210,19.250,-79.380
159355790,-1.041,0.398,0.217,1.050,19.250,-71.680
159355810,-1.077,0.377,0.206,-4.620,16.310,-67.480
159355830,-1.069,0.327,0.160,-1.120,11.060,-59.710
159355850,-1.025,0.269,0.126,10.290,5.810,-52.010
159355868,-0.977,0.232,0.095,32.620,6.720,-44.240
159355890,-1.007,0.253,0.083,59.570,7.700,-35.560
159355909,-1.020,0.292,0.083,70.140,8.470,-30.030
159355933,-1.032,0.311,0.093,74.690,8.400,-28.280
159355953,-1.010,0.368,0.101,73.430,8.540,-27.300
159355972,-1.013,0.394,0.128,61.600,7.630,-27.230
159355990,-0.984,0.394,0.141,44.240,7.000,-26.040
159356010,-0.983,0.387,0.123,30.940,9.870,-24.990
159356030,-0.996,0.389,0.121,17.500,13.370,-24.990
159356050,-1.056,0.371,0.158,3.850,11.270,-24.710
159356074,-1.060,0.359,0.151,-7.350,-17.430,-18.620
159356093,-0.944,0.343,0.156,-19.600,0.560,-9.940
159356114,-0.860,0.332,0.166,-27.020,0.910,1.120
159356134,-0.838,0.340,0.182,-43.330,5.320,12.460
159356154,-0.930,0.339,0.182,-59.570,4.480,21.840
159356174,-0.983,0.316,0.170,-73.150,0.000,29.470
159356192,-1.046,0.271,0.147,-76.370,-5.460,34.720
159356209,-1.077,0.201,0.121,-70.770,-15.890,39.480
159356234,-0.994,0.137,0.113,-57.890,-23.030,49.980
159356253,-0.917,0.113,0.128,-34.650,-22.260,58.520
159356274,-0.947,0.137,0.157,-21.630,-14.490,66.990
159356294,-1.039,0.138,0.160,-17.850,-11.760,68.530
159356312,-1.097,0.132,0.148,-19.110,-12.530,66.360
159356336,-1.076,0.113,0.137,-18.550,-20.790,63.560
159356355,-1.030,0.130,0.142,-16.730,-21.560,62.650
159356378,-1.004,0.144,0.141,-15.400,-15.680,59.010
159356399,-1.013,0.161,0.168,-20.160,-12.320,56.910
159356418,-1.011,0.167,0.170,-26.880,-10.640,53.200
159356434,-0.992,0.187,0.203,-33.810,-14.490,49.070
159356459,-0.928,0.216,0.245,-35.420,-14.560,43.890
159356474,-0.870,0.196,0.239,-35.910,-14.420,40.250
159356494,-0.823,0.197,0.240,-34.160,-14.910,34.370
159356519,-0.826,0.211,0.241,-27.440,-16.310,24.430
159356539,-0.820,0.218,0.292,-21.700,-20.370,16.730
159356559,-0.769,0.203,0.315,-18.830,-13.720,10.920
159356579,-0.821,0.286,0.352,-19.740,-15.610,8.890
159356598,-0.839,0.318,0.369,-27.650,-10.080,5.670
159356619,-0.872,0.317,0.342,-35.840,-4.690,6.160
159356638,-0.910,0.331,0.342,-40.110,-6.160,10.360
159356658,-0.895,0.305,0.375,-33.600,-11.130,14.980
159356683,-0.867,0.330,0.412,-26.110,-15.260,18.970
159356703,-0.848,0.376,0.431,-25.410,-16.660,16.450
159356722,-0.831,0.357,0.426,-24.990,-17.710,16.100
159356740,-0.817,0.366,0.438,-20.160,-20.580,15.260
159356764,-0.813,0.403,0.463,-10.500,-22.330,14.210
159356784,-0.896,0.494,0.435,-6.020,-26.180,24.080
159356804,-0.907,0.494,0.380,6.370,-28.700,45.360
159356824,-0.896,0.495,0.363,30.240,-29.470,61.670
159356842,-0.839,0.574,0.410,57.260,-26.180,88.900
159356864,-0.785,0.624,0.418,59.500,-19.180,70.350
159356883,-0.700,0.599,0.359,44.100,-8.330,64.820
159356907,-0.651,0.573,0.283,22.120,-3.710,57.750
159356927,-0.685,0.571,0.267,6.860,-1.120,55.020
159356950,-0.714,0.471,0.254,-2.940,1.190,51.730
159356969,-0.689,0.445,0.239,-3.990,2.030,49.280
159356992,-0.607,0.349,0.213,-1.120,5.040,45.500
159357011,-0.539,0.308,0.211,9.030,13.020,41.440
159357031,-0.547,0.272,0.197,15.680,23.450,32.410
159357051,-0.588,0.233,0.109,13.650,27.510,21.910
159357075,-0.679,0.329,0.128,1.260,21.490,4.060
159357093,-0.735,0.330,0.126,-5.740,22.540,-13.090
159357113,-0.810,0.294,0.101,-11.270,24.500,-30.590
159357132,-0.857,0.267,0.085,-12.110,31.570,-49.350
159357155,-0.887,0.190,0.005,-14.420,45.290,-65.310
159357179,-0.944,0.125,-0.039,-1.400,51.800,-66.150
159357199,-0.992,0.142,-0.032,16.170,48.300,-62.650
159357217,-1.003,0.203,0.009,16.590,47.670,-56.980
159357236,-1.065,0.211,0.010,15.330,50.050,-48.930
159357260,-1.088,0.193,-0.003,-0.560,49.560,-40.670
159357280,-1.128,0.183,-0.043,-19.460,49.630,-33.460
159357300,-1.169,0.190,-0.061,-41.860,36.120,-25.620
159357316,-1.134,0.160,-0.058,-45.150,29.190,-17.570
159357340,-1.146,0.123,-0.029,-39.200,27.370,-6.510
159357359,-1.166,0.098,-0.040,-29.400,26.880,-2.310
159357383,-1.156,0.060,-0.074,-17.290,23.450,0.840
159357403,-1.127,0.090,-0.082,-2.520,14.700,-1.400
159357422,-1.057,0.147,-0.057,4.130,7.910,-3.220
159357443,-1.020,0.162,-0.014,6.300,7.770,-7.910
159357463,-1.035,0.178,0.012,4.760,8.820,-14.000
159357482,-1.047,0.155,0.022,3.150,9.450,-18.690
159357506,-1.106,0.233,0.011,-3.430,11.690,-22.960
159357526,-1.164,0.218,0.016,-20.300,4.830,-30.310
159357546,-1.247,0.203,0.028,-25.760,2.380,-35.350
159357567,-1.332,0.173,0.024,-28.770,-2.100,-40.810
159357591,-1.338,0.149,0.024,-25.970,-4.760,-42.630
159357611,-1.394,0.098,0.035,-21.350,-9.030,-38.920
159357635,-1.444,0.089,0.056,-9.100,-6.090,-25.830
159357654,-1.555,0.058,0.033,1.820,-6.020,-16.380
159357675,-1.577,0.042,0.006,26.880,-19.600,-13.650
159357692,-1.560,0.083,0.020,36.400,-22.960,-13.790
159357716,-1.476,0.127,0.041,46.480,-25.690,-19.040
159357734,-1.301,0.135,0.095,57.190,-22.260,-27.020
159357756,-1.310,0.226,0.103,48.230,-14.070,-35.630
159357775,-1.281,0.292,0.109,28.980,-10.990,-44.520
159357799,-1.320,0.293,0.094,-1.050,-9.730,-58.450
159357818,-1.295,0.265,0.073,-16.660,-11.900,-64.680
159357838,-1.213,0.221,0.077,-25.620,-16.660,-63.840
159357858,-1.174,0.193,0.061,-26.880,-17.360,-57.330
159357882,-1.181,0.123,0.045,-10.640,-20.090,-43.820
159357906,-1.177,0.111,0.038,8.540,-24.850,-24.430
159357926,-1.145,0.125,0.008,27.300,-32.270,-8.610
159357942,-1.083,0.123,-0.006,36.820,-32.060,5.810
159357962,-1.118,0.127,-0.026,43.960,-30.800,22.890
159357981,-1.128,0.110,-0.019,48.370,-32.760,36.820
159358006,-1.040,0.094,-0.007,53.690,-28.840,51.380
159358026,-0.988,0.081,0.000,54.320,-21.350,57.120
159358045,-0.998,0.076,0.009,48.370,-16.310,59.640
159358068,-1.003,0.091,0.007,37.450,-12.110,60.130
159358088,-0.979,0.098,0.013,24.220,-8.540,58.870
159358109,-1.000,0.093,0.006,8.610,-5.740,57.960
159358130,-1.032,0.081,0.001,-6.090,-5.040,59.150
159358154,-1.040,0.074,0.033,-15.750,-6.790,63.000
159358174,-1.046,0.094,0.059,-22.190,-13.230,66.080
159358191,-0.976,0.099,0.071,-22.610,-21.490,68.530
159358215,-0.819,0.101,0.085,-17.640,-29.050,69.930
159358235,-0.647,0.135,0.136,-7.420,-29.470,67.690
159358253,-0.508,0.163,0.196,-0.420,-30.450,64.820
159358274,-0.366,0.235,0.329,-2.310,-23.940,57.890
159358298,-0.341,0.256,0.352,-6.720,-11.060,44.450
159358313,-0.366,0.287,0.333,-9.100,-3.010,33.250
159358338,-0.442,0.352,0.295,-8.260,6.790,12.740
159358354,-0.634,0.437,0.243,-16.030,12.320,-7.840
159358378,-0.815,0.469,0.230,-22.680,11.550,-44.730
159358398,-0.939,0.460,0.287,-35.560,4.480,-67.410
159358417,-0.910,0.378,0.319,-35.350,-0.630,-81.620
159358437,-0.791,0.319,0.343,-19.180,7.420,-82.110
159358461,-0.811,0.380,0.351,-16.800,7.910,-69.510
159358481,-0.764,0.277,0.369,-6.930,11.970,-55.860
159358501,-0.810,0.287,0.354,0.910,12.390,-40.110
159358524,-0.826,0.289,0.331,4.480,10.500,-29.540
159358545,-0.834,0.266,0.305,11.690,12.810,-25.690
159358564,-0.872,0.257,0.283,21.910,11.130,-26.880
159358585,-0.906,0.277,0.304,32.410,13.510,-30.520
159358605,-0.934,0.327,0.276,27.790,10.080,-36.750
159358628,-0.874,0.326,0.253,21.560,11.340,-48.370
159358647,-0.877,0.338,0.257,11.340,13.300,-55.860
159358668,-0.895,0.332,0.271,6.160,19.180,-61.950
159358692,-0.942,0.337,0.276,-0.910,24.920,-66.990
159358712,-0.947,0.334,0.268,-6.230,25.900,-66.780
159358736,-0.897,0.324,0.258,-13.300,26.740,-61.460
159358756,-0.870,0.298,0.244,-17.290,25.900,-50.190
159358775,-0.880,0.285,0.230,-20.930,29.540,-36.820
159358795,-0.976,0.266,0.208,-29.120,26.040,-25.270
159358819,-1.033,0.244,0.200,-34.930,23.800,-13.860
159358839,-1.066,0.253,0.194,-36.120,19.110,-6.300
159358859,-1.103,0.212,0.183,-31.990,13.300,-1.190
159358879,-1.113,0.160,0.163,-20.160,5.670,5.530
159358899,-1.029,0.117,0.144,0.350,-3.850,13.650
159358923,-0.915,0.102,0.133,22.610,-6.930,27.090
159358943,-0.881,0.121,0.123,44.520,-6.720,35.630
159358963,-0.921,0.170,0.117,57.330,-7.770,40.880
159358983,-0.946,0.211,0.102,60.130,-9.590,39.900
159359003,-0.945,0.240,0.085,57.750,-12.530,35.140
159359027,-0.927,0.253,0.081,52.640,-11.900,26.600
159359045,-0.923,0.252,0.084,45.710,-10.640,19.950
159359067,-0.856,0.245,0.105,39.130,-7.980,14.980
159359086,-0.807,0.256,0.122,31.710,-3.640,11.830
159359111,-0.798,0.287,0.130,19.250,3.850,8.190
159359131,-0.852,0.297,0.107,2.240,7.000,2.730
159359151,-1.000,0.250,0.083,-4.340,6.090,-3.150
159359171,-1.026,0.212,0.074,0.560,0.700,-8.610
159359194,-0.994,0.202,0.084,12.670,-0.420,-11.760
159359214,-0.994,0.225,0.089,20.160,-0.210,-11.410
159359235,-1.006,0.235,0.081,24.360,-0.210,-9.870
159359255,-1.026,0.263,0.104,30.030,-2.310,-8.400
159359274,-0.976,0.261,0.115,32.760,-3.780,-5.950
159359292,-0.922,0.247,0.112,33.460,-3.570,-1.190
159359316,-0.895,0.253,0.108,31.640,-2.730,8.680
159359336,-0.915,0.284,0.115,28.210,-5.530,15.470
159359356,-0.915,0.301,0.123,23.660,-10.010,18.340
159359378,-0.909,0.289,0.120,20.720,-12.040,0.420
159359400,-0.855,0.271,0.119,18.830,-15.260,17.010
159359419,-0.851,0.280,0.102,16.730,-15.190,15.400
159359440,-0.856,0.302,0.097,18.620,-15.820,11.200
159359460,-0.916,0.351,0.089,19.320,-19.740,6.440
159359478,-0.941,0.381,0.123,20.930,-23.170,4.340
159359502,-0.932,0.385,0.155,22.050,-18.200,3.780
159359521,-0.975,0.400,0.134,24.430,-17.570,6.020
159359540,-1.027,0.409,0.086,29.120,-17.710,8.190
159359562,-1.074,0.428,0.095,32.830,-20.300,7.280
159359582,-1.031,0.471,0.137,32.130,-20.230,4.830
159359602,-1.004,0.472,0.140,19.250,-19.250,2.450
159359621,-0.993,0.456,0.115,7.700,-15.120,1.540
159359638,-0.997,0.405,0.097,4.970,-10.430,-1.610
159359662,-1.009,0.407,0.122,4.270,-8.050,-9.170
159359681,-1.000,0.391,0.149,-1.050,-6.440,-14.280
159359702,-0.976,0.361,0.151,-4.410,-2.870,-18.690
159359723,-0.992,0.310,0.123,-4.620,-4.830,-21.420
159359747,-1.000,0.290,0.146,0.070,-4.410,-22.260
159359766,-1.087,0.276,0.126,5.880,-10.360,-25.480
