Millis,AccelX,AccelY,AccelZ,GyroX,GyroY,GyroZ
10975841,-0.997,0.149,-0.118,0.280,-3.360,0.210
10975860,-0.996,0.146,-0.119,0.420,-3.570,0.140
10975884,-0.996,0.148,-0.119,0.280,-3.360,0.280
10975904,-0.995,0.147,-0.119,0.000,-3.360,0.350
10975923,-0.995,0.146,-0.117,-0.210,-3.010,0.420
10975948,-0.876,0.141,-0.121,0.210,-3.360,0.770
10975968,-0.995,0.144,-0.116,-0.070,-3.080,0.770
10975984,-0.999,0.148,-0.120,0.210,-3.360,0.840
10976003,-0.996,0.147,-0.118,-0.140,-2.940,0.420
10976023,-0.996,0.148,-0.116,-0.350,-3.010,0.350
10976048,-0.993,0.144,-0.117,-0.140,-3.010,0.630
10976068,-0.998,0.142,-0.116,0.140,-3.010,0.770
10976092,-0.995,0.147,-0.111,-0.070,-2.940,0.630
10976112,-0.996,0.145,-0.114,-0.280,-2.730,0.560
10976132,-0.996,0.141,-0.114,0.070,-2.940,0.840
10976152,-0.998,0.140,-0.114,0.140,-2.940,1.260
10976170,-0.996,0.146,-0.114,-0.280,-2.730,1.330
10976194,-0.997,0.145,-0.117,-0.350,-2.730,1.400
10976214,-0.995,0.142,-0.114,-0.140,-2.940,1.540
10976233,-0.998,0.145,-0.112,-0.210,-2.870,1.540
10976253,-0.996,0.145,-0.114,-0.070,-2.940,1.750
10976272,-0.996,0.144,-0.113,-0.210,-2.800,1.820
10976297,-0.997,0.143,-0.114,0.070,-3.010,2.030
10976317,-0.994,0.145,-0.115,0.140,-2.800,2.100
10976337,-0.999,0.146,-0.113,-0.140,-2.800,2.310
10976356,-0.996,0.148,-0.115,-0.210,-2.940,2.380
10976375,-0.996,0.144,-0.115,-0.140,-2.870,2.450
10976397,-0.997,0.142,-0.112,-0.140,-2.870,2.450
10976421,-0.995,0.150,-0.113,-0.490,-2.660,2.520
10976441,-0.999,0.150,-0.114,-0.420,-3.010,2.380
10976461,-0.996,0.152,-0.110,-0.140,-3.010,2.520
10976480,-0.996,0.153,-0.110,-0.490,-2.870,2.380
10976505,-0.996,0.152,-0.112,-0.560,-2.730,2.520
10976525,-0.998,0.148,-0.114,-0.420,-2.660,2.520
10976545,-0.998,0.146,-0.111,-0.140,-3.010,2.800
10976565,-0.994,0.150,-0.111,-0.070,-2.870,2.590
10976583,-0.996,0.154,-0.114,0.000,-2.660,2.520
10976601,-0.996,0.152,-0.110,-0.210,-2.870,2.170
10976625,-0.993,0.153,-0.111,-0.560,-2.450,1.890
10976641,-0.997,0.154,-0.110,-0.700,-2.520,1.960
10976665,-0.996,0.153,-0.112,-0.770,-2.380,1.890
10976683,-0.996,0.153,-0.110,-0.840,-2.590,2.030
10976704,-0.998,0.147,-0.113,-0.490,-2.450,2.310
10976725,-0.997,0.152,-0.108,-0.490,-2.660,2.380
10976745,-0.994,0.154,-0.108,-0.630,-2.520,2.310
10976765,-0.997,0.156,-0.110,-0.560,-2.310,2.310
10976784,-0.997,0.154,-0.111,-0.630,-2.310,2.310
10976808,-0.995,0.155,-0.110,-0.700,-2.450,2.380
10976823,-0.993,0.162,-0.110,-0.700,-2.170,2.380
10976848,-0.997,0.155,-0.110,-0.490,-2.450,2.450
10976864,-0.996,0.157,-0.109,-0.490,-2.170,2.310
10976888,-0.994,0.161,-0.110,-0.700,-2.310,2.170
10976908,-0.995,0.158,-0.110,-0.560,-2.170,2.030
10976927,-0.994,0.159,-0.110,-0.350,-2.240,1.890
10976948,-0.996,0.162,-0.109,-0.630,-1.890,1.750
10976968,-0.992,0.157,-0.113,-0.560,-2.030,1.960
10976992,-0.996,0.157,-0.110,-0.420,-1.820,2.170
10977013,-0.995,0.160,-0.111,-0.210,-2.100,2.170
10977033,-0.992,0.163,-0.114,-0.420,-2.030,1.890
10977053,-0.998,0.159,-0.112,-0.490,-2.030,1.750
10977077,-0.993,0.160,-0.111,-0.140,-1.890,1.890
10977097,-0.995,0.161,-0.112,-0.350,-1.750,1.820
10977117,-0.991,0.159,-0.112,-0.420,-1.610,1.820
10977137,-0.994,0.165,-0.109,0.070,-1.890,1.540
10977155,-1.001,0.160,-0.110,0.140,-1.960,1.680
10977179,-0.993,0.168,-0.110,-0.210,-1.820,1.120
10977194,-0.993,0.163,-0.117,-0.420,-1.680,0.910
10977219,-0.994,0.161,-0.109,0.070,-1.540,0.700
10977239,-0.994,0.163,-0.112,-0.350,-1.330,0.700
10977257,-0.994,0.163,-0.107,-0.840,-1.190,0.560
10977279,-0.996,0.157,-0.114,-0.840,-0.980,0.840
10977299,-0.996,0.158,-0.114,-0.350,-1.260,0.910
10977323,-0.994,0.160,-0.115,-0.630,-1.190,1.190
10977343,-0.995,0.158,-0.114,-0.560,-1.330,1.470
10977367,-0.995,0.158,-0.114,0.070,-1.540,1.540
10977387,-0.997,0.160,-0.116,0.350,-1.750,1.820
10977407,-0.994,0.160,-0.113,0.070,-1.610,1.960
10977427,-0.995,0.158,-0.118,0.420,-1.820,2.030
10977447,-0.992,0.163,-0.116,0.070,-1.610,2.030
10977472,-0.994,0.159,-0.116,0.210,-1.820,2.240
10977491,-0.997,0.164,-0.117,0.490,-2.170,2.380
10977510,-0.995,0.164,-0.114,-0.420,-1.820,2.240
10977534,-0.991,0.161,-0.114,-0.490,-1.400,2.520
10977554,-1.002,0.172,-0.116,-1.260,-1.750,2.450
10977574,-0.988,0.163,-0.121,-1.540,-1.470,2.100
10977594,-0.995,0.163,-0.118,-0.910,-1.470,2.590
10977614,-0.997,0.160,-0.115,-0.560,-2.030,3.290
10977634,-0.992,0.168,-0.119,-1.330,-1.470,3.080
10977654,-0.991,0.164,-0.122,-1.890,-1.820,3.570
10977673,-1.002,0.163,-0.122,-0.980,-2.870,3.850
10977697,-0.989,0.167,-0.117,-0.210,-2.940,3.850
10977717,-0.991,0.172,-0.119,-1.050,-2.310,3.710
10977737,-0.997,0.176,-0.119,-1.330,-2.520,3.500
10977757,-0.988,0.177,-0.116,-1.540,-2.520,3.010
10977777,-0.992,0.172,-0.118,-1.050,-2.450,3.010
10977801,-0.997,0.171,-0.120,-0.490,-3.220,2.800
10977821,-0.998,0.174,-0.120,0.140,-3.430,2.660
10977841,-0.992,0.175,-0.117,0.560,-3.990,2.450
10977865,-0.993,0.171,-0.118,0.280,-3.990,2.450
10977885,-0.993,0.169,-0.118,0.630,-4.340,2.940
10977904,-0.993,0.168,-0.119,1.330,-4.340,3.150
10977925,-0.987,0.177,-0.112,0.840,-4.060,3.150
10977949,-0.996,0.180,-0.109,0.140,-3.990,2.800
10977969,-0.990,0.183,-0.111,0.070,-3.780,2.240
10977988,-0.986,0.186,-0.109,0.210,-3.360,1.470
10978008,-0.992,0.171,-0.109,-0.490,-2.170,1.120
10978027,-0.995,0.176,-0.110,-0.140,-2.730,1.820
10978052,-0.989,0.187,-0.112,-0.350,-2.310,0.980
10978072,-0.988,0.181,-0.110,-0.630,-1.680,0.490
10978092,-0.994,0.171,-0.109,-0.420,-1.120,0.630
10978108,-0.988,0.175,-0.105,-0.560,-0.840,0.770
10978127,-0.995,0.180,-0.108,-1.190,-0.560,0.910
10978151,-0.989,0.180,-0.116,-0.840,-0.560,0.560
10978175,-0.988,0.176,-0.118,-0.210,-0.420,0.630
10978195,-0.992,0.170,-0.108,0.280,-0.490,0.910
10978214,-0.994,0.176,-0.114,0.000,-0.350,1.890
10978233,-1.000,0.184,-0.111,-0.280,-0.630,1.890
10978252,-0.985,0.196,-0.124,0.350,-0.560,1.050
10978272,-0.988,0.193,-0.121,-0.070,-0.280,-0.630
10978296,-0.984,0.187,-0.119,0.000,0.490,-2.800
10978316,-0.996,0.174,-0.116,0.210,-0.350,-2.940
10978336,-0.993,0.170,-0.116,0.210,0.280,-2.660
10978355,-0.992,0.170,-0.122,0.140,0.210,-2.590
10978376,-0.983,0.178,-0.132,-0.420,0.280,-2.590
10978392,-1.000,0.164,-0.131,0.210,-0.490,-2.310
10978413,-1.005,0.158,-0.124,1.400,-1.190,-1.960
10978434,-0.989,0.164,-0.123,1.960,-1.190,-1.610
10978453,-0.985,0.172,-0.119,0.630,-0.910,-1.610
10978477,-0.995,0.164,-0.130,-0.350,-1.120,-0.910
10978497,-0.999,0.158,-0.131,0.490,-1.820,0.000
10978518,-0.996,0.166,-0.129,0.630,-2.380,0.420
10978542,-0.988,0.169,-0.124,-0.280,-2.310,0.350
10978558,-0.989,0.162,-0.124,-1.050,-2.030,0.700
10978581,-0.998,0.156,-0.126,-0.910,-2.590,1.330
10978600,-0.996,0.159,-0.129,-0.140,-2.730,1.610
10978621,-0.992,0.164,-0.126,0.070,-2.660,1.470
10978645,-0.988,0.169,-0.124,-0.490,-2.660,1.050
10978665,-0.992,0.164,-0.128,-0.490,-2.800,0.910
10978683,-0.994,0.166,-0.126,-0.070,-3.220,0.490
10978704,-0.993,0.170,-0.133,0.350,-3.780,-0.070
10978728,-0.991,0.161,-0.127,0.770,-3.780,-0.350
10978748,-0.993,0.156,-0.121,0.910,-3.780,0.000
10978765,-0.997,0.165,-0.122,0.770,-3.710,0.210
10978785,-0.996,0.164,-0.125,0.630,-3.920,0.070
10978809,-0.993,0.157,-0.125,1.960,-4.480,-0.350
10978827,-0.985,0.152,-0.120,2.730,-4.550,0.210
10978852,-0.999,0.155,-0.113,2.240,-3.990,1.330
10978868,-0.997,0.158,-0.122,1.960,-3.990,1.610
10978891,-0.992,0.168,-0.116,1.540,-3.430,1.260
10978909,-0.991,0.172,-0.117,1.050,-3.990,0.280
10978933,-0.987,0.158,-0.118,0.840,-2.940,-0.210
10978953,-1.003,0.150,-0.116,0.490,-2.940,0.700
10978973,-0.998,0.163,-0.120,-0.070,-2.870,0.910
10978991,-0.984,0.169,-0.122,0.140,-3.150,0.070
10979015,-0.987,0.161,-0.114,-0.140,-2.940,-0.280
10979034,-1.005,0.147,-0.116,-0.560,-2.590,0.490
10979056,-0.994,0.157,-0.113,-0.490,-2.520,0.840
10979074,-0.978,0.172,-0.116,-0.910,-1.890,-0.210
10979093,-0.994,0.162,-0.112,-2.310,-0.910,-0.770
10979118,-1.009,0.146,-0.111,-2.450,-1.470,0.000
10979138,-0.991,0.147,-0.117,-1.400,-1.260,1.120
10979158,-0.982,0.154,-0.105,-2.170,-0.070,1.470
10979178,-0.997,0.164,-0.124,-4.410,0.420,1.960
10979196,-1.002,0.150,-0.132,-3.850,-0.490,2.730
10979220,-1.000,0.159,-0.115,-2.100,-1.330,2.310
10979240,-0.996,0.164,-0.122,-1.330,-1.680,1.890
10979260,-0.980,0.161,-0.118,-2.240,-0.630,1.540
10979280,-0.997,0.165,-0.126,-2.800,-0.840,1.260
10979299,-0.995,0.161,-0.130,-2.310,-1.190,1.050
10979323,-0.993,0.169,-0.125,-2.380,-2.310,0.560
10979339,-0.987,0.147,-0.126,-3.430,-2.660,1.750
10979360,-1.019,0.127,-0.130,1.470,-5.320,6.160
10979384,-1.008,0.155,-0.132,3.710,-7.280,4.480
10979404,-1.037,0.175,-0.108,-4.410,-6.930,3.710
10979419,-0.960,0.165,-0.086,-3.920,-4.900,4.060
10979444,-0.997,0.148,-0.123,-1.680,-2.520,5.250
10979464,-1.012,0.149,-0.129,-0.350,-4.130,7.700
10979483,-0.995,0.142,-0.120,3.990,-5.530,8.470
10979504,-0.995,0.182,-0.119,3.220,-5.320,8.890
10979527,-0.997,0.183,-0.115,1.400,-4.830,8.540
10979544,-0.982,0.189,-0.118,0.840,-4.410,7.490
10979565,-0.987,0.199,-0.114,-0.140,-4.410,5.950
10979589,-0.985,0.186,-0.116,-0.980,-3.570,4.760
10979609,-0.993,0.179,-0.111,0.840,-3.990,4.060
10979627,-0.989,0.190,-0.104,0.770,-3.500,3.430
10979644,-0.996,0.180,-0.112,0.140,-3.220,3.430
10979665,-0.994,0.177,-0.110,-0.140,-3.500,3.710
10979688,-0.992,0.180,-0.114,1.050,-3.780,3.710
10979709,-0.987,0.195,-0.109,1.820,-3.850,2.870
10979729,-0.984,0.196,-0.105,1.120,-3.220,2.380
10979748,-0.989,0.185,-0.105,0.350,-2.660,2.450
10979767,-0.998,0.180,-0.106,-0.140,-2.870,3.010
10979792,-0.988,0.197,-0.112,-0.210,-3.080,2.940
10979808,-0.990,0.198,-0.107,-0.210,-2.380,2.310
10979829,-0.999,0.189,-0.110,-0.490,-2.310,1.820
10979850,-0.989,0.198,-0.111,-0.420,-1.820,0.980
10979869,-0.987,0.191,-0.113,-0.910,-1.400,0.280
10979894,-0.987,0.184,-0.114,-0.840,-1.400,0.070
10979913,-0.996,0.182,-0.112,-0.280,-1.820,0.420
10979937,-0.993,0.187,-0.111,0.070,-1.960,0.350
10979955,-0.990,0.192,-0.110,0.000,-1.890,-0.420
10979975,-0.985,0.193,-0.113,-0.420,-1.190,-1.470
10979996,-0.982,0.185,-0.111,-0.280,-1.190,-1.610
10980016,-0.989,0.180,-0.115,-0.210,-0.910,-1.470
10980040,-0.994,0.185,-0.117,0.070,-1.330,-1.400
10980058,-0.984,0.192,-0.109,-0.630,-0.980,-1.680
10980077,-0.994,0.179,-0.113,-1.120,-1.050,-1.680
10980101,-0.989,0.175,-0.115,-0.490,-1.260,-1.190
10980122,-0.995,0.170,-0.117,0.280,-1.680,-0.490
10980142,-0.997,0.172,-0.115,1.540,-1.960,0.070
10980162,-1.002,0.186,-0.118,0.910,-2.590,0.210
10980184,-0.983,0.176,-0.117,-1.400,-1.820,-0.070
10980204,-0.997,0.167,-0.115,0.140,-2.590,1.120
10980228,-0.991,0.177,-0.117,0.070,-2.660,1.190
10980248,-0.983,0.181,-0.113,-0.980,-1.960,1.260
10980264,-0.995,0.174,-0.116,-1.050,-2.380,1.680
10980285,-0.991,0.175,-0.115,-0.700,-2.520,2.100
10980308,-0.993,0.183,-0.110,-1.120,-2.520,2.170
10980329,-0.996,0.183,-0.114,-0.980,-2.940,2.380
10980346,-0.997,0.187,-0.119,-0.770,-2.730,1.750
10980366,-0.984,0.186,-0.113,-0.070,-2.940,0.980
10980390,-0.995,0.180,-0.112,0.280,-2.870,0.630
10980407,-0.989,0.183,-0.113,0.000,-2.730,0.700
10980431,-0.989,0.181,-0.113,-0.490,-2.380,0.560
10980451,-0.990,0.175,-0.116,-0.140,-2.450,0.840
10980472,-0.990,0.174,-0.110,0.280,-2.660,1.260
10980489,-0.993,0.179,-0.111,-0.210,-2.240,1.540
10980507,-0.994,0.185,-0.112,-0.280,-2.030,1.330
10980532,-0.995,0.171,-0.112,0.000,-2.100,1.050
10980551,-0.994,0.178,-0.120,0.910,-2.310,1.260
10980571,-0.990,0.177,-0.108,0.140,-2.170,1.120
10980589,-0.989,0.181,-0.112,-0.420,-1.540,1.260
10980611,-0.988,0.185,-0.118,-0.840,-1.190,0.560
10980630,-0.992,0.168,-0.122,-0.980,-1.120,0.560
10980650,-0.994,0.171,-0.108,-0.630,-1.610,1.260
10980671,-0.987,0.176,-0.110,-1.120,-0.700,2.030
10980687,-0.984,0.180,-0.117,-1.470,-0.490,2.380
10980707,-0.990,0.178,-0.120,-1.050,-0.280,2.590
10980727,-0.997,0.184,-0.118,-0.280,-0.840,2.520
10980746,-0.986,0.185,-0.116,-0.770,-0.770,2.030
10980770,-0.984,0.183,-0.118,-0.070,-0.700,1.540
10980791,-0.993,0.188,-0.118,-0.700,-0.980,0.700
10980808,-0.987,0.186,-0.119,-0.280,-0.770,-0.420
10980827,-0.988,0.185,-0.124,0.350,-1.190,-1.330
10980851,-0.988,0.180,-0.120,0.350,-0.840,-2.030
10980870,-0.995,0.172,-0.115,0.350,-0.910,-1.610
10980895,-0.989,0.180,-0.122,0.000,-1.260,-1.120
10980914,-0.994,0.179,-0.124,0.140,-1.260,-1.190
10980938,-0.998,0.167,-0.124,1.260,-2.170,-0.980
10980958,-0.988,0.166,-0.119,1.330,-2.030,0.070
10980977,-0.995,0.171,-0.126,0.560,-2.380,1.260
10980997,-0.986,0.172,-0.123,0.280,-2.730,2.170
10981019,-0.998,0.167,-0.122,0.980,-3.010,3.010
10981039,-0.990,0.173,-0.122,0.840,-3.290,3.570
10981058,-0.983,0.177,-0.123,0.490,-3.010,3.920
10981082,-0.993,0.181,-0.116,-0.070,-3.010,3.780
10981103,-0.985,0.182,-0.117,-1.050,-2.660,3.360
10981121,-0.992,0.183,-0.120,-1.190,-2.310,3.290
10981139,-0.995,0.181,-0.125,-1.050,-3.220,3.010
10981158,-0.982,0.186,-0.123,-0.280,-3.150,2.450
10981183,-0.990,0.184,-0.116,-0.070,-3.360,1.960
10981203,-0.990,0.185,-0.115,-0.420,-2.940,1.540
10981223,-0.993,0.181,-0.123,-1.260,-2.940,1.680
10981243,-0.992,0.180,-0.122,-0.840,-3.150,1.470
10981263,-0.989,0.182,-0.111,-0.770,-3.080,0.980
10981283,-0.992,0.182,-0.121,-0.770,-3.640,1.260
10981303,-0.984,0.184,-0.115,-1.330,-3.080,1.330
10981321,-0.999,0.180,-0.115,-1.890,-3.640,2.170
10981340,-1.011,0.217,-0.156,-4.900,-3.850,5.110
10981362,-0.953,0.179,-0.112,-7.070,-2.730,4.830
10981385,-0.994,0.179,-0.103,-5.880,-3.990,5.250
10981403,-1.005,0.187,-0.130,-4.900,-5.670,6.370
10981424,-0.966,0.163,-0.113,-3.220,-4.550,5.670
10981444,-0.984,0.180,-0.108,-0.140,-5.250,4.830
10981468,-1.002,0.210,-0.123,-1.190,-5.950,4.830
10981488,-0.973,0.194,-0.096,-1.330,-5.460,4.340
10981505,-0.981,0.191,-0.099,-0.910,-3.570,3.360
10981529,-0.989,0.194,-0.103,0.140,-3.360,2.590
10981549,-0.984,0.203,-0.105,-0.280,-2.380,1.960
10981569,-0.979,0.205,-0.102,-1.330,-0.840,1.260
10981589,-0.982,0.202,-0.103,-1.890,-0.140,1.120
10981609,-0.994,0.191,-0.109,-1.540,0.210,0.910
10981627,-0.988,0.200,-0.109,-0.700,-0.280,0.630
10981646,-0.976,0.211,-0.110,-1.120,0.210,-0.350
10981671,-0.986,0.195,-0.111,-2.380,1.330,-0.420
10981691,-0.990,0.201,-0.104,-2.870,1.750,-0.420
10981709,-0.998,0.183,-0.123,-1.050,-0.140,-0.140
10981730,-0.991,0.184,-0.108,-0.070,0.070,-0.420
10981754,-0.994,0.189,-0.113,0.070,-17.780,-0.070
10981774,-0.984,0.212,-0.118,-0.700,-0.980,-0.490
10981794,-0.985,0.205,-0.117,-0.910,-1.470,-1.400
10981813,-1.001,0.188,-0.128,0.210,-2.940,-1.400
10981833,-0.992,0.191,-0.126,-1.120,-3.010,-0.280
10981856,-0.998,0.174,-0.124,1.610,-3.920,-0.140
10981875,-0.970,0.206,-0.121,1.120,-4.690,-0.490
10981900,-0.989,0.192,-0.109,0.910,-5.390,-0.070
10981920,-0.998,0.179,-0.106,1.890,-5.320,0.210
10981940,-0.979,0.175,-0.108,3.850,-5.250,1.050
10981959,-0.992,0.190,-0.106,2.800,-3.920,1.820
10981980,-0.987,0.175,-0.109,2.730,-4.130,2.240
10981998,-0.991,0.189,-0.111,3.150,-3.920,2.800
10982022,-0.988,0.184,-0.108,2.380,-3.570,3.220
10982039,-0.996,0.197,-0.107,1.820,-3.710,3.430
10982062,-0.986,0.198,-0.112,1.470,-3.220,2.520
10982080,-0.986,0.201,-0.109,1.050,-3.010,1.680
10982101,-0.987,0.191,-0.110,0.560,-2.450,0.350
10982125,-0.992,0.193,-0.106,0.420,-2.940,0.140
10982149,-0.987,0.197,-0.110,0.140,-2.450,-0.280
10982169,-0.991,0.193,-0.105,0.070,-2.730,-0.560
10982186,-0.986,0.189,-0.108,0.280,-2.380,-0.700
10982206,-0.997,0.189,-0.106,0.910,-2.870,-0.560
10982226,-0.989,0.190,-0.102,1.120,-2.590,-0.910
10982250,-0.988,0.196,-0.107,0.420,-1.820,-1.260
10982267,-0.990,0.181,-0.109,0.280,-1.820,-1.050
10982291,-0.992,0.182,-0.109,0.490,-2.100,-0.350
10982311,-0.996,0.182,-0.107,1.050,-2.170,0.140
10982331,-0.989,0.183,-0.108,1.120,-2.030,0.000
10982350,-0.987,0.190,-0.107,0.840,-1.820,-0.210
10982371,-0.990,0.191,-0.106,0.070,-1.400,-0.770
10982391,-0.994,0.182,-0.111,0.490,-1.610,-1.190
10982411,-0.988,0.184,-0.107,1.190,-1.820,-1.540
10982434,-0.995,0.186,-0.108,0.630,-1.540,-2.030
10982453,-0.987,0.178,-0.112,-0.210,-1.260,-1.750
10982477,-0.991,0.171,-0.112,0.420,-1.190,-1.610
10982497,-0.984,0.176,-0.109,-0.490,-0.980,-0.910
10982517,-1.001,0.169,-0.110,-0.420,-1.050,-0.420
10982533,-0.999,0.175,-0.115,-0.350,-1.260,-0.140
10982555,-0.986,0.193,-0.113,-1.190,-1.610,-0.280
10982575,-0.990,0.168,-0.110,-2.030,-1.470,-0.280
10982595,-0.991,0.168,-0.110,-0.700,-1.470,0.350
10982617,-0.992,0.172,-0.115,-0.700,-1.890,1.400
10982637,-0.996,0.171,-0.110,-1.190,-2.030,2.310
10982661,-0.997,0.171,-0.115,-1.120,-2.310,3.640
10982680,-0.997,0.170,-0.115,-1.190,-2.730,3.710
10982699,-0.996,0.175,-0.116,-0.420,-3.360,3.920
10982724,-0.991,0.188,-0.107,0.140,-3.430,2.870
10982742,-0.993,0.194,-0.105,-0.280,-3.080,1.680
10982766,-0.990,0.193,-0.111,-0.700,-2.870,0.140
10982786,-0.988,0.183,-0.111,-0.560,-2.730,-0.350
10982806,-0.994,0.174,-0.111,-0.140,-3.010,-0.070
10982825,-0.993,0.172,-0.112,0.420,-3.290,0.420
10982846,-0.995,0.178,-0.112,0.770,-3.640,0.770
10982869,-0.989,0.181,-0.110,0.490,-3.430,0.560
10982888,-0.990,0.174,-0.109,0.210,-3.150,0.910
10982912,-0.991,0.175,-0.102,-0.140,-2.310,1.190
10982931,-0.991,0.183,-0.113,-0.560,-2.450,1.330
10982954,-0.993,0.180,-0.108,-0.700,-2.240,1.050
10982975,-0.987,0.180,-0.106,-0.490,-2.590,0.700
10982993,-0.987,0.185,-0.106,-0.840,-1.890,0.560
10983012,-0.993,0.179,-0.108,-1.330,-1.120,0.560
10983032,-0.991,0.175,-0.108,-1.330,-1.120,1.050
10983057,-0.988,0.181,-0.102,-1.610,-0.980,0.980
10983077,-1.003,0.164,-0.114,-0.770,-1.050,1.400
10983097,-0.998,0.179,-0.114,-0.840,-1.120,1.680
10983116,-0.988,0.183,-0.112,-0.700,-1.120,0.980
10983136,-0.986,0.179,-0.107,-0.420,-0.910,0.210
10983155,-0.991,0.183,-0.112,-0.280,-0.770,-0.560
10983175,-1.001,0.179,-0.120,-0.700,-1.050,-0.980
10983200,-0.986,0.177,-0.116,0.420,-1.260,-1.260
10983220,-0.988,0.182,-0.111,0.910,-1.540,-1.190
10983243,-0.994,0.167,-0.116,-0.140,-1.400,-0.910
10983263,-0.993,0.161,-0.118,0.350,-1.400,-0.350
10983283,-0.997,0.169,-0.118,1.470,-2.240,0.350
10983307,-0.993,0.170,-0.115,1.190,-2.520,0.910
10983325,-0.992,0.171,-0.110,0.560,-2.310,1.190
10983349,-0.993,0.174,-0.119,0.070,-2.030,1.330
10983369,-0.993,0.173,-0.122,0.280,-2.730,1.120
10983389,-0.988,0.175,-0.112,0.630,-2.660,0.910
10983407,-0.999,0.168,-0.113,0.630,-3.010,1.610
10983429,-0.991,0.173,-0.110,0.000,-2.800,2.240
10983449,-0.992,0.170,-0.119,0.490,-3.080,2.520
10983469,-0.994,0.171,-0.115,0.280,-2.940,2.800
10983487,-0.999,0.173,-0.117,0.350,-3.290,2.800
10983511,-0.981,0.185,-0.112,0.700,-3.150,1.960
10983532,-0.995,0.169,-0.108,0.980,-3.360,2.450
10983551,-1.000,0.163,-0.111,1.190,-3.220,3.220
10983570,-0.996,0.173,-0.111,0.980,-3.360,3.640
10983590,-0.987,0.180,-0.123,1.050,-3.710,3.220
10983614,-0.992,0.180,-0.114,1.540,-4.130,2.800
10983632,-0.990,0.183,-0.106,1.190,-3.850,2.380
10983654,-0.991,0.181,-0.105,0.140,-3.080,2.170
10983674,-0.993,0.175,-0.112,-0.700,-2.380,1.750
10983694,-0.986,0.174,-0.105,-0.980,-2.450,1.820
10983718,-0.994,0.177,-0.108,-0.140,-2.590,1.820
10983734,-0.986,0.187,-0.102,-0.980,-1.960,1.610
10983756,-0.991,0.176,-0.102,-1.820,-0.980,1.750
10983776,-0.987,0.184,-0.108,-2.380,-0.210,1.890
10983799,-0.990,0.176,-0.117,-2.310,0.210,1.750
10983823,-0.993,0.179,-0.112,-1.400,-0.210,1.400
10983843,-0.978,0.192,-0.110,-2.380,0.840,0.770
10983863,-1.003,0.183,-0.116,-2.800,0.420,0.700
10983882,-0.992,0.179,-0.118,-1.260,-0.560,-0.210
10983903,-0.984,0.185,-0.116,-1.260,0.000,-0.700
10983922,-0.996,0.193,-0.117,-2.030,-0.490,-1.400
10983947,-0.989,0.179,-0.124,-2.240,-0.560,-1.540
10983966,-1.007,0.164,-0.122,-1.330,-1.470,-0.980
10983990,-0.986,0.175,-0.119,-0.350,-2.030,-0.560
10984009,-0.995,0.174,-0.124,-0.490,-2.030,-0.280
10984028,-0.986,0.168,-0.122,0.210,-2.730,0.000
10984048,-0.995,0.146,-0.117,0.980,-3.220,1.610
10984072,-1.017,0.111,-0.133,7.630,-6.300,4.340
10984092,-0.972,0.207,-0.124,1.820,-3.570,1.470
10984112,-1.024,0.169,-0.094,0.350,-6.020,3.150
10984131,-0.983,0.192,-0.086,-1.050,-2.030,2.730
10984149,-0.990,0.175,-0.125,-4.200,-1.120,2.800
10984169,-1.002,0.150,-0.134,-1.750,-3.710,4.970
10984193,-0.993,0.153,-0.115,2.100,-4.760,6.860
10984213,-0.997,0.179,-0.111,3.780,-4.970,7.630
10984230,-0.987,0.204,-0.111,2.170,-4.620,6.370
10984254,-0.980,0.194,-0.118,2.660,-4.900,4.690
10984274,-0.986,0.200,-0.109,1.540,-4.690,3.850
10984294,-0.981,0.194,-0.110,-0.210,-4.060,3.500
10984313,-0.991,0.190,-0.103,-0.980,-3.850,3.570
10984334,-0.991,0.180,-0.106,-0.910,-3.290,3.780
10984351,-0.996,0.183,-0.112,-0.420,-3.640,4.410
10984371,-0.987,0.185,-0.106,0.000,-3.360,4.200
10984395,-0.988,0.193,-0.107,0.420,-3.150,4.060
10984415,-0.990,0.204,-0.106,-0.490,-3.500,3.500
10984435,-0.988,0.202,-0.115,-0.910,-3.220,2.870
10984455,-0.997,0.208,-0.143,-1.400,-3.710,3.080
10984474,-0.975,0.204,-0.095,-1.820,-5.250,3.640
10984498,-0.997,0.209,-0.100,-1.680,-4.760,2.940
10984514,-0.985,0.200,-0.102,-1.260,-2.940,1.890
10984533,-0.988,0.192,-0.103,-0.770,-3.080,1.680
10984553,-0.993,0.210,-0.117,-1.050,-3.150,1.750
10984578,-0.982,0.195,-0.101,-1.400,-3.010,1.330
10984598,-0.987,0.195,-0.099,-0.700,-2.730,0.700
10984618,-0.984,0.198,-0.106,-1.120,-2.170,0.070
10984634,-0.991,0.196,-0.103,-1.330,-2.030,-0.210
10984654,-0.989,0.186,-0.104,-0.070,-2.030,-0.280
10984674,-0.993,0.196,-0.103,0.070,-2.100,-0.420
10984694,-0.984,0.187,-0.105,0.210,-1.750,-0.280
10984716,-0.990,0.187,-0.095,0.490,-1.400,0.350
10984740,-0.998,0.198,-0.105,-0.280,-2.380,0.770
10984759,-0.996,0.192,-0.105,-0.420,-2.310,1.820
10984778,-0.995,0.178,-0.102,-1.260,-2.170,2.100
10984798,-0.981,0.200,-0.106,0.140,-3.080,2.380
10984822,-0.997,0.197,-0.105,-0.420,-2.940,2.800
10984841,-0.991,0.189,-0.102,0.000,-3.150,3.220
10984860,-0.992,0.194,-0.098,0.140,-3.080,3.990
10984885,-0.994,0.194,-0.102,-0.420,-3.850,5.250
10984905,-0.986,0.207,-0.106,-0.630,-4.130,5.180
10984925,-0.987,0.211,-0.099,-0.210,-4.060,4.620
10984945,-0.994,0.207,-0.102,1.120,-4.340,3.360
10984964,-0.978,0.227,-0.101,0.420,-3.780,1.890
10984983,-0.980,0.220,-0.097,0.000,-2.660,0.000
10985001,-0.983,0.210,-0.097,0.140,-2.380,-1.120
10985020,-0.987,0.212,-0.100,-0.420,-1.890,-1.960
10985045,-0.991,0.207,-0.098,-0.490,-1.750,-2.450
10985065,-0.988,0.196,-0.101,0.630,-1.890,-2.380
10985081,-0.987,0.199,-0.098,0.980,-1.540,-2.660
10985100,-0.989,0.199,-0.097,0.350,-1.050,-2.660
10985125,-0.988,0.198,-0.103,0.140,-1.050,-2.310
10985145,-0.994,0.197,-0.101,0.420,-1.050,-2.380
10985164,-0.995,0.197,-0.105,0.210,-1.190,-2.660
10985182,-0.988,0.191,-0.104,0.140,-1.190,-2.520
10985206,-0.984,0.193,-0.097,-0.980,-0.210,-2.450
10985225,-0.995,0.192,-0.105,-1.400,-0.630,-1.890
10985246,-0.999,0.180,-0.109,-1.190,-0.630,-1.540
10985270,-0.986,0.193,-0.106,-0.070,-0.910,-2.240
10985290,-0.992,0.183,-0.107,-0.140,-1.330,-1.680
10985309,-0.992,0.186,-0.101,-0.910,-1.190,-1.330
10985330,-0.991,0.184,-0.104,-1.330,-1.190,-1.050
10985350,-0.998,0.180,-0.111,-1.470,-1.260,-0.630
10985365,-0.995,0.178,-0.111,-0.210,-1.890,-0.490
10985390,-0.986,0.187,-0.108,0.210,-1.960,-1.120
10985410,-0.989,0.189,-0.105,-0.070,-1.610,-1.470
10985430,-0.990,0.176,-0.109,0.490,-1.820,-1.120
10985445,-0.992,0.169,-0.108,0.770,-1.610,-0.630
10985465,-0.995,0.175,-0.107,1.470,-2.240,0.280
10985490,-0.997,0.172,-0.110,1.820,-2.590,1.050
10985509,-0.994,0.182,-0.110,1.610,-2.660,0.980
10985530,-0.992,0.183,-0.111,1.960,-3.080,0.420
10985550,-0.988,0.184,-0.105,0.910,-2.730,-0.140
10985565,-0.994,0.189,-0.109,0.420,-3.290,-0.210
10985585,-1.001,0.171,-0.109,0.910,-3.010,0.350
10985610,-1.001,0.170,-0.113,1.330,-3.430,1.260
10985630,-0.988,0.172,-0.107,1.330,-3.010,2.030
10985650,-0.989,0.172,-0.104,0.700,-2.800,2.800
10985669,-1.000,0.175,-0.104,0.630,-2.870,3.710
10985690,-0.996,0.180,-0.112,0.840,-3.360,3.640
10985709,-0.991,0.184,-0.108,1.050,-3.430,2.940
10985734,-0.984,0.192,-0.103,0.700,-2.940,1.820
10985752,-0.990,0.186,-0.103,0.000,-2.240,1.190
10985772,-0.996,0.181,-0.112,-0.490,-2.100,1.050
10985796,-0.997,0.179,-0.107,-0.070,-2.800,0.770
10985815,-0.991,0.183,-0.107,0.210,-2.940,0.210
10985839,-0.990,0.180,-0.103,-0.490,-2.240,0.350
10985859,-0.993,0.167,-0.105,-0.700,-2.100,1.750
10985879,-0.997,0.175,-0.107,-0.490,-2.310,2.520
10985899,-0.986,0.182,-0.108,-0.070,-2.240,2.590
10985919,-0.994,0.188,-0.102,-1.260,-1.330,2.100
10985935,-0.996,0.189,-0.106,-2.100,-1.680,1.750
10985955,-0.989,0.186,-0.106,-2.310,-1.330,1.540
10985975,-0.994,0.182,-0.104,-1.540,-1.400,1.260
10985999,-0.989,0.181,-0.106,-1.610,-0.980,1.260
10986019,-0.991,0.178,-0.108,-1.120,-1.470,1.820
10986039,-0.989,0.177,-0.104,-0.560,-1.190,2.100
10986062,-0.996,0.187,-0.105,-0.980,-0.910,2.170
10986083,-0.994,0.192,-0.115,-1.890,-0.910,1.330
10986102,-0.995,0.181,-0.119,-0.490,-2.100,0.910
10986126,-0.987,0.187,-0.105,0.420,-2.100,0.700
10986146,-0.989,0.185,-0.101,-0.770,-1.540,0.840
10986164,-0.997,0.207,-0.116,-3.500,-2.590,2.520
10986187,-1.029,0.128,-0.126,-2.940,-2.940,2.310
10986208,-0.980,0.191,-0.122,5.880,-5.180,4.340
10986228,-0.984,0.219,-0.106,0.280,-3.990,2.030
10986248,-1.004,0.183,-0.085,-0.140,-6.020,5.180
10986268,-0.956,0.219,-0.097,-1.890,-2.660,4.550
10986287,-1.007,0.184,-0.118,-3.990,-4.690,6.300
10986312,-1.007,0.154,-0.107,1.890,-6.090,7.140
10986330,-0.992,0.187,-0.105,3.570,-6.160,7.280
10986350,-0.982,0.201,-0.104,2.870,-4.760,6.860
10986375,-0.985,0.202,-0.100,1.190,-4.620,6.090
10986394,-0.990,0.204,-0.106,0.210,-4.550,5.600
10986414,-0.980,0.205,-0.100,-0.490,-3.710,4.900
10986430,-0.986,0.211,-0.093,-0.490,-3.780,4.340
10986454,-0.991,0.207,-0.096,-1.190,-3.150,3.430
10986474,-0.989,0.211,-0.097,-1.400,-2.520,2.730
10986493,-0.988,0.202,-0.096,-1.330,-2.310,2.170
10986513,-0.988,0.205,-0.098,-0.980,-2.240,1.820
10986533,-0.990,0.204,-0.103,-0.700,-2.170,1.470
10986556,-0.984,0.211,-0.103,0.000,-2.660,0.910
10986577,-0.985,0.209,-0.099,0.000,-2.380,0.420
10986597,-0.987,0.207,-0.099,-0.630,-2.170,0.280
10986617,-0.990,0.201,-0.094,-0.980,-2.240,0.420
10986637,-0.989,0.197,-0.103,-0.700,-2.170,0.420
10986653,-0.981,0.200,-0.099,-0.140,-1.750,0.490
10986672,-0.988,0.201,-0.100,0.140,-1.820,0.630
10986697,-0.987,0.195,-0.097,0.910,-1.610,0.840
10986716,-0.993,0.203,-0.099,0.140,-1.540,0.910
10986736,-0.987,0.207,-0.100,0.000,-2.030,1.190
10986760,-0.996,0.196,-0.098,0.770,-2.100,1.750
10986779,-0.991,0.202,-0.104,0.280,-2.310,2.100
10986799,-0.991,0.201,-0.102,-1.050,-2.170,2.520
10986823,-0.984,0.201,-0.100,-0.560,-2.380,2.520
10986843,-0.985,0.200,-0.098,-0.980,-2.030,2.870
10986861,-0.993,0.197,-0.104,-0.840,-2.590,3.290
10986885,-1.000,0.196,-0.101,0.280,-3.500,3.780
10986904,-0.993,0.209,-0.099,0.910,-4.130,2.940
10986921,-0.982,0.226,-0.100,0.700,-3.920,2.170
10986945,-0.987,0.216,-0.102,-0.350,-3.780,1.190
10986964,-0.993,0.206,-0.097,0.140,-3.710,0.840
10986985,-0.986,0.220,-0.096,-0.070,-3.500,-0.280
10987003,-0.976,0.225,-0.090,-1.120,-2.730,-1.680
10987023,-0.988,0.201,-0.095,-1.050,-2.100,-2.030
10987044,-0.988,0.207,-0.092,-0.910,-1.400,-2.240
10987063,-0.992,0.204,-0.099,-1.190,-1.330,-2.310
10987083,-0.987,0.205,-0.097,-1.190,-0.770,-2.730
10987102,-0.990,0.197,-0.100,-0.630,-1.120,-2.730
10987122,-0.997,0.189,-0.097,-0.210,-0.630,-2.100
10987147,-0.993,0.192,-0.098,-0.210,-0.840,-1.330
10987164,-0.983,0.198,-0.108,0.350,-0.700,-1.120
10987187,-0.997,0.194,-0.094,0.630,-1.050,-1.120
10987208,-0.993,0.202,-0.100,-0.070,-0.770,-0.980
10987226,-0.981,0.198,-0.102,-0.910,0.000,-0.770
10987245,-0.983,0.190,-0.098,-0.840,0.840,-0.980
10987270,-0.989,0.206,-0.100,-1.330,0.770,-1.750
10987289,-0.994,0.205,-0.116,-3.500,0.770,-2.730
10987313,-0.991,0.177,-0.121,-2.310,0.280,-3.430
10987333,-0.992,0.185,-0.104,-0.070,-1.330,-2.940
10987353,-0.988,0.188,-0.113,-0.280,-1.120,-2.520
10987368,-0.996,0.183,-0.111,-0.770,-1.680,-1.680
10987388,-1.000,0.167,-0.103,0.910,-2.100,-0.770
10987409,-1.000,0.177,-0.116,2.240,-3.220,0.490
10987428,-0.987,0.182,-0.105,2.170,-3.710,1.610
10987451,-0.995,0.179,-0.114,1.330,-4.340,1.960
10987473,-0.993,0.185,-0.109,1.540,-4.900,2.520
10987493,-0.999,0.180,-0.109,1.540,-5.040,2.590
10987508,-0.991,0.182,-0.102,1.610,-5.110,3.290
10987528,-0.984,0.185,-0.097,1.750,-4.550,3.570
10987553,-0.996,0.185,-0.099,1.190,-4.410,4.130
10987573,-0.995,0.188,-0.101,1.260,-4.690,4.270
10987593,-0.990,0.195,-0.098,0.490,-4.270,4.200
10987613,-0.987,0.197,-0.097,-0.070,-4.130,3.570
10987632,-0.984,0.197,-0.102,-1.050,-3.150,2.940
10987653,-0.988,0.192,-0.098,-1.400,-2.730,2.800
10987677,-1.002,0.196,-0.099,-1.680,-3.850,3.710
10987695,-0.991,0.204,-0.092,-3.290,-3.010,4.060
10987715,-0.994,0.209,-0.099,-5.460,-2.170,4.760
10987739,-0.991,0.195,-0.113,-5.250,-3.290,5.600
10987757,-0.985,0.224,-0.117,-6.300,-3.710,5.600
10987778,-0.972,0.181,-0.090,-5.880,-2.520,3.920
10987797,-0.990,0.189,-0.079,-5.180,-2.170,3.080
10987822,-0.984,0.202,-0.095,-4.970,-2.100,3.360
10987842,-0.992,0.199,-0.101,-4.200,-2.380,2.940
10987860,-0.995,0.190,-0.102,-2.170,-2.240,2.800
10987884,-0.985,0.198,-0.094,-0.210,-3.640,2.800
10987901,-0.982,0.221,-0.093,-0.560,-3.220,2.450
10987925,-0.975,0.221,-0.088,-2.240,-1.260,1.680
10987945,-0.998,0.207,-0.091,-2.730,-1.470,0.770
10987969,-0.973,0.216,-0.089,-2.170,-0.350,-0.700
10987989,-0.982,0.208,-0.095,-1.050,0.350,-1.190
10988009,-0.991,0.193,-0.088,-0.980,1.050,-0.770
10988029,-0.995,0.201,-0.095,-0.840,1.260,-0.140
10988049,-0.996,0.206,-0.103,-0.910,1.260,-0.420
10988069,-0.985,0.197,-0.115,0.630,0.000,-0.490
10988093,-0.990,0.195,-0.096,1.820,-0.490,0.140
10988113,-0.999,0.197,-0.098,2.170,-0.630,0.980
10988131,-0.991,0.213,-0.104,-0.140,-0.280,0.490
10988152,-0.991,0.205,-0.112,-0.070,0.070,-0.350
10988173,-0.987,0.220,-0.116,6.580,-1.400,-0.280
10988193,-0.990,0.175,-0.124,-0.140,0.210,-0.350
10988212,-1.001,0.110,-0.118,4.060,-4.060,2.520
10988236,-0.968,0.289,-0.100,-0.070,0.280,-0.840
10988256,-1.014,0.143,-0.104,0.350,-2.380,2.520
10988280,-0.974,0.241,-0.088,1.820,-1.260,1.330
10988299,-0.979,0.204,-0.104,-1.260,-2.310,1.680
10988319,-0.989,0.189,-0.103,-0.350,-2.240,1.540
10988340,-0.996,0.163,-0.100,3.920,-2.800,2.660
10988364,-0.990,0.176,-0.108,6.440,-2.940,3.990
10988384,-0.992,0.215,-0.107,4.410,-3.010,3.780
10988404,-0.996,0.198,-0.116,4.970,-4.130,2.660
10988423,-0.987,0.221,-0.110,4.130,-4.340,1.680
10988444,-0.973,0.230,-0.095,0.350,-2.310,0.350
10988463,-0.989,0.206,-0.102,-1.890,-0.770,-0.210
10988488,-0.990,0.201,-0.107,-2.310,-1.050,-0.350
10988507,-0.988,0.192,-0.104,-1.120,-1.190,-0.280
10988528,-0.993,0.201,-0.107,-0.630,-1.540,-0.210
10988548,-0.987,0.201,-0.107,-1.260,-1.260,-0.070
10988568,-0.991,0.190,-0.112,-0.070,-1.750,0.070
10988587,-0.994,0.201,-0.111,0.770,-2.590,0.210
10988606,-0.994,0.200,-0.105,1.120,-2.730,-0.140
10988626,-0.987,0.202,-0.102,0.700,-2.450,-0.350
10988648,-0.984,0.201,-0.106,-0.910,-1.750,-0.490
10988668,-0.991,0.195,-0.108,-0.980,-1.820,0.420
10988687,-0.997,0.185,-0.109,0.000,-2.590,1.120
10988712,-0.979,0.199,-0.107,0.490,-2.730,1.470
10988728,-0.995,0.181,-0.103,0.000,-2.520,1.890
10988747,-0.996,0.204,-0.108,0.140,-3.500,2.660
10988771,-0.983,0.201,-0.108,-1.820,-3.150,2.800
10988789,-0.997,0.189,-0.107,-0.210,-4.270,3.220
10988808,-0.993,0.198,-0.108,0.420,-4.690,4.060
10988832,-0.988,0.192,-0.104,-0.280,-5.180,5.320
10988851,-0.989,0.203,-0.104,-0.070,-5.040,5.950
10988873,-0.982,0.207,-0.099,-0.350,-4.550,6.020
10988895,-0.990,0.214,-0.099,-0.490,-4.690,5.040
10988914,-0.979,0.231,-0.100,-1.120,-3.780,3.010
10988934,-0.990,0.220,-0.103,-0.420,-4.060,1.120
10988954,-0.985,0.215,-0.100,0.000,-3.780,-0.700
10988978,-0.986,0.209,-0.101,0.490,-3.710,-1.050
10988998,-0.983,0.210,-0.087,-0.770,-2.800,-1.400
10989014,-0.987,0.207,-0.099,-1.120,-2.660,-1.330
10989038,-0.987,0.205,-0.102,-1.190,-2.940,-1.470
10989057,-0.991,0.193,-0.104,0.770,-3.080,-1.120
10989078,-1.000,0.195,-0.097,2.870,-4.620,-0.350
10989098,-0.990,0.199,-0.095,2.940,-4.270,-0.070
10989118,-0.986,0.206,-0.092,2.520,-4.200,-0.070
10989138,-0.995,0.205,-0.093,1.820,-4.270,0.210
10989158,-0.986,0.199,-0.100,0.000,-3.290,0.350
10989182,-0.992,0.192,-0.097,0.840,-3.850,0.910
10989202,-0.988,0.191,-0.098,2.240,-4.060,0.910
10989222,-0.991,0.197,-0.085,1.610,-3.990,1.330
10989242,-0.984,0.205,-0.085,0.770,-2.800,1.050
10989266,-0.985,0.207,-0.087,-0.770,-1.820,0.700
10989286,-0.981,0.206,-0.088,-1.190,-0.910,0.140
10989304,-0.991,0.209,-0.087,-0.910,-1.050,-0.210
10989324,-0.990,0.208,-0.089,-1.120,-0.210,-1.260
10989348,-0.987,0.201,-0.097,-0.560,-0.140,-2.170
10989367,-0.984,0.200,-0.102,0.350,-0.140,-2.800
10989387,-0.991,0.199,-0.095,1.120,-0.560,-3.080
10989411,-0.990,0.195,-0.101,0.560,-0.070,-3.360
10989431,-0.997,0.191,-0.102,0.630,-0.910,-3.150
10989450,-0.990,0.183,-0.099,1.120,-0.630,-2.940
10989470,-0.998,0.182,-0.100,1.540,-0.980,-1.750
10989494,-0.994,0.186,-0.099,0.560,-1.120,-1.400
10989514,-0.996,0.189,-0.099,0.420,-1.330,-1.190
10989533,-0.993,0.194,-0.094,0.000,-1.330,-1.470
10989552,-0.987,0.191,-0.096,-0.560,-0.700,-1.820
10989576,-0.992,0.185,-0.101,-1.470,-0.140,-1.820
10989595,-0.985,0.182,-0.104,-1.820,0.000,-1.120
10989619,-0.997,0.169,-0.107,-1.050,-0.420,0.070
10989639,-0.994,0.172,-0.105,0.140,-0.840,1.260
10989656,-1.003,0.170,-0.102,0.280,-1.050,2.310
10989676,-0.996,0.180,-0.105,0.280,-1.330,3.430
10989700,-0.992,0.183,-0.108,0.840,-2.030,3.360
10989720,-0.984,0.193,-0.106,1.190,-2.100,3.010
10989744,-0.992,0.190,-0.102,-0.210,-1.400,2.310
10989762,-0.997,0.187,-0.098,0.140,-0.840,2.450
10989784,-0.978,0.203,-0.110,-1.470,-0.140,1.610
10989804,-0.992,0.189,-0.110,-1.610,-0.210,1.470
10989827,-0.991,0.180,-0.110,-0.350,-0.840,1.610
10989848,-0.986,0.183,-0.103,-0.420,-0.420,2.380
10989867,-1.002,0.184,-0.100,-0.770,-0.420,3.010
10989883,-0.992,0.198,-0.111,-1.330,-0.490,2.940
10989903,-0.997,0.198,-0.119,-2.170,0.000,2.240
10989924,-0.978,0.202,-0.111,-1.610,-0.560,0.980
10989948,-0.998,0.203,-0.111,-2.730,-0.770,0.000
10989967,-0.989,0.178,-0.128,-2.520,-0.490,0.210
10989985,-1.002,0.165,-0.123,-0.560,-1.820,1.050
10990008,-0.989,0.179,-0.118,1.190,-3.220,2.450
10990028,-0.987,0.204,-0.112,0.420,-4.480,3.500
10990052,-0.996,0.189,-0.116,-0.280,-4.060,3.780
10990072,-0.973,0.215,-0.114,-0.980,-3.570,2.940
10990092,-1.008,0.150,-0.108,1.820,-3.360,2.240
10990112,-1.009,0.170,-0.134,5.320,-6.930,5.320
10990136,-0.959,0.221,-0.110,-0.980,-1.330,1.400
10990156,-1.000,0.198,-0.079,-1.260,-2.940,3.640
10990175,-0.988,0.191,-0.104,-0.700,-2.660,4.620
10990196,-0.993,0.189,-0.109,-4.690,-1.610,5.670
10990215,-0.995,0.175,-0.115,-3.500,-2.520,6.510
10990235,-0.998,0.170,-0.112,1.680,-4.900,8.120
10990259,-0.986,0.209,-0.107,2.310,-4.270,7.770
10990280,-0.993,0.206,-0.114,2.660,-4.130,6.860
10990302,-0.976,0.229,-0.102,1.400,-4.270,4.970
10990324,-0.978,0.238,-0.104,0.000,-3.220,2.800
10990343,-0.984,0.216,-0.104,-1.190,-2.660,1.890
10990366,-0.985,0.208,-0.105,-1.750,-2.100,1.260
10990387,-0.983,0.205,-0.110,-1.050,-2.240,1.330
10990411,-0.990,0.204,-0.106,-0.770,-2.590,1.680
10990431,-0.994,0.202,-0.104,-0.700,-2.520,2.170
10990451,-0.984,0.212,-0.099,-0.910,-2.450,2.170
10990475,-0.981,0.218,-0.105,-0.910,-1.890,1.190
10990495,-0.986,0.215,-0.106,-0.560,-2.100,0.700
10990512,-0.985,0.209,-0.104,-0.560,-2.100,0.490
10990531,-0.990,0.206,-0.107,-0.210,-2.170,0.560
10990555,-0.985,0.209,-0.102,0.420,-2.030,0.350
10990572,-0.986,0.211,-0.106,0.560,-2.100,0.140
10990596,-0.988,0.210,-0.100,0.420,-1.820,-0.070
10990614,-0.988,0.207,-0.105,0.560,-1.470,-0.210
10990634,-0.982,0.210,-0.105,0.700,-1.400,-0.280
10990655,-0.989,0.207,-0.108,0.770,-1.680,-0.210
10990674,-0.982,0.208,-0.103,0.560,-1.540,-0.210
10990694,-0.992,0.208,-0.107,-0.350,-1.470,-0.140
10990719,-0.988,0.205,-0.110,-0.280,-1.610,-0.210
10990739,-0.990,0.211,-0.107,-0.140,-1.960,-0.350
10990759,-0.982,0.206,-0.106,0.140,-1.750,-0.420
10990778,-0.986,0.204,-0.106,-1.120,-1.190,-0.350
10990801,-0.992,0.199,-0.104,-1.750,-1.750,0.910
10990822,-0.978,0.202,-0.100,-2.170,-1.540,1.470
10990841,-0.995,0.196,-0.115,-0.840,-2.800,2.450
10990862,-0.994,0.198,-0.113,-0.350,-3.570,2.730
10990883,-0.990,0.204,-0.112,0.630,-4.480,3.220
10990903,-0.993,0.189,-0.105,0.910,-4.550,4.060
10990927,-0.992,0.217,-0.109,-0.560,-4.340,4.060
10990947,-0.980,0.211,-0.111,-0.980,-3.920,3.500
10990967,-0.988,0.207,-0.106,0.350,-4.340,2.870
10990987,-0.985,0.212,-0.102,1.890,-4.550,1.680
10991008,-0.980,0.224,-0.098,0.770,-3.290,0.420
10991027,-0.987,0.218,-0.096,-0.280,-2.870,-0.560
10991051,-0.981,0.216,-0.102,-0.630,-2.240,-1.750
10991071,-0.988,0.207,-0.108,0.000,-2.240,-2.100
10991091,-0.992,0.198,-0.103,0.560,-2.800,-1.820
10991112,-0.994,0.195,-0.107,1.540,-3.290,-1.260
10991134,-0.987,0.205,-0.105,1.750,-3.360,-0.630
10991154,-0.994,0.191,-0.107,1.820,-3.570,-0.210
10991178,-0.989,0.204,-0.105,1.750,-4.060,0.350
10991198,-0.985,0.202,-0.099,1.890,-3.920,0.630
10991217,-0.985,0.200,-0.095,0.770,-3.150,0.700
10991240,-0.984,0.198,-0.092,-0.490,-2.520,1.400
10991261,-0.994,0.198,-0.103,-0.280,-2.870,1.890
10991280,-0.990,0.203,-0.104,0.420,-2.730,1.610
10991300,-0.995,0.194,-0.100,0.420,-2.800,1.470
10991320,-0.985,0.204,-0.090,-0.630,-1.750,1.190
10991339,-0.989,0.211,-0.098,-0.700,-1.820,0.980
10991364,-0.986,0.205,-0.101,-0.700,-1.540,0.420
10991384,-0.989,0.203,-0.096,-0.770,-1.050,0.140
10991403,-0.989,0.209,-0.098,-1.190,-0.840,-0.210
10991423,-0.983,0.208,-0.102,-1.260,-0.630,-0.910
10991442,-0.989,0.200,-0.106,-1.120,-0.700,-1.330
10991467,-0.994,0.196,-0.097,-0.350,-1.260,-0.980
10991490,-0.988,0.196,-0.101,-0.210,-1.190,-0.630
10991506,-0.991,0.193,-0.103,-0.420,-0.630,-0.280
10991531,-0.993,0.193,-0.105,-0.350,-1.330,0.630
10991547,-0.991,0.198,-0.108,0.000,-1.330,0.630
10991567,-0.986,0.202,-0.103,0.210,-1.750,0.210
10991591,-0.985,0.206,-0.101,-0.280,-1.400,-0.070
10991610,-0.996,0.203,-0.104,-1.190,-1.400,-0.350
10991626,-0.986,0.204,-0.107,-1.470,-1.190,-0.630
10991651,-0.985,0.192,-0.116,-0.280,-1.470,-0.980
10991667,-0.996,0.184,-0.112,0.140,-1.820,-0.910
10991691,-0.986,0.189,-0.105,1.680,-2.240,-0.700
10991711,-0.987,0.194,-0.106,1.680,-2.100,-0.910
10991731,-0.990,0.193,-0.107,1.540,-2.100,-0.910
10991752,-0.984,0.197,-0.111,2.590,-2.590,-1.050
10991776,-0.990,0.185,-0.101,1.400,-1.890,-0.350
10991796,-0.994,0.185,-0.102,1.610,-2.100,0.770
10991812,-0.980,0.191,-0.104,1.330,-1.400,0.980
10991835,-0.997,0.189,-0.107,1.470,-1.260,0.980
10991855,-0.991,0.196,-0.107,1.400,-1.610,0.770
10991879,-0.983,0.193,-0.103,0.210,-0.070,0.280
10991899,-0.996,0.187,-0.103,-0.560,0.350,0.770
10991919,-0.987,0.199,-0.108,-1.750,1.890,0.700
10991938,-0.876,0.199,-0.111,-1.400,1.330,0.420
10991959,-0.990,0.203,-0.115,-2.450,1.330,-0.980
10991982,-0.985,0.184,-0.129,-2.870,1.470,-1.260
10992003,-0.992,0.168,-0.116,-2.030,0.210,0.420
10992018,-1.008,0.170,-0.123,-1.680,-0.350,1.610
10992040,-0.998,0.185,-0.117,-1.050,-1.610,2.870
10992061,-0.986,0.203,-0.123,-0.420,-2.730,2.450
10992085,-0.999,0.191,-0.119,0.000,-3.430,2.100
10992104,-0.988,0.192,-0.119,0.350,-3.920,1.890
10992122,-0.976,0.160,-0.120,3.010,-3.850,1.960
10992142,-0.992,0.190,-0.101,-1.260,-3.850,0.910
10992163,-1.012,0.119,-0.112,2.240,-5.320,4.830
10992183,-0.985,0.228,-0.127,6.650,-6.720,4.060
10992207,-0.987,0.200,-0.110,-1.890,-3.080,3.640
10992227,-1.016,0.195,-0.098,-0.560,-5.320,4.270
10992247,-0.976,0.203,-0.116,-1.260,-2.170,4.060
10992263,-1.002,0.203,-0.132,-2.590,-4.760,4.410
10992282,-0.992,0.176,-0.110,-1.470,-3.780,4.410
10992306,-0.988,0.180,-0.106,2.030,-4.830,4.620
10992326,-0.987,0.206,-0.114,1.470,-5.320,4.690
10992346,-0.976,0.211,-0.115,0.910,-4.620,3.990
10992368,-0.996,0.201,-0.103,0.700,-5.740,2.940
10992387,-0.979,0.219,-0.105,-0.420,-5.040,1.750
10992411,-0.986,0.206,-0.105,-0.840,-4.060,0.630
10992429,-0.983,0.200,-0.102,-0.770,-3.920,0.140
10992452,-0.982,0.202,-0.100,-0.840,-3.570,-0.140
10992473,-0.983,0.203,-0.098,-1.260,-2.870,0.000
10992491,-0.996,0.190,-0.104,-0.840,-2.590,0.210
10992510,-0.988,0.199,-0.104,-0.070,-2.800,0.420
10992535,-0.988,0.200,-0.101,0.350,-2.380,-0.140
10992555,-0.986,0.207,-0.104,0.280,-2.310,-0.770
10992575,-0.990,0.199,-0.105,0.350,-2.100,-1.120
10992595,-0.983,0.198,-0.105,-0.070,-1.470,-1.750
10992613,-0.987,0.197,-0.105,-0.070,-1.960,-1.680
10992633,-0.994,0.185,-0.104,0.280,-2.310,-1.050
10992653,-0.990,0.190,-0.101,0.420,-2.450,-0.490
10992673,-0.991,0.190,-0.105,0.140,-2.100,-0.140
10992694,-0.994,0.189,-0.108,-0.070,-2.170,0.280
10992718,-0.987,0.195,-0.109,0.840,-2.940,0.490
10992738,-0.982,0.202,-0.103,0.140,-2.450,0.280
10992757,-1.001,0.185,-0.104,-0.560,-2.660,1.120
10992778,-0.999,0.185,-0.104,-0.070,-3.290,2.380
10992798,-0.979,0.192,-0.102,-1.680,-2.800,2.450
10992822,-0.983,0.197,-0.101,-0.980,-3.500,3.150
10992839,-0.994,0.184,-0.104,-0.980,-3.640,3.990
10992861,-0.994,0.189,-0.101,-1.190,-3.920,5.390
10992884,-0.996,0.196,-0.101,-1.470,-4.060,6.090
10992900,-0.990,0.202,-0.101,-1.330,-4.130,5.740
10992925,-0.989,0.206,-0.102,0.140,-4.480,4.620
10992942,-0.980,0.225,-0.099,0.630,-4.200,2.660
10992966,-0.985,0.219,-0.095,0.070,-3.290,0.000
10992981,-0.985,0.208,-0.086,-0.210,-3.080,-0.910
10993005,-0.987,0.211,-0.093,-1.750,-1.960,-1.750
10993029,-0.997,0.195,-0.097,-1.120,-1.820,-2.030
10993049,-0.994,0.191,-0.101,-0.280,-2.030,-1.960
10993069,-0.990,0.203,-0.101,0.070,-2.100,-1.890
10993093,-0.985,0.195,-0.100,-0.070,-1.890,-1.680
10993113,-0.991,0.193,-0.096,-0.560,-1.960,-1.120
10993131,-0.988,0.185,-0.089,-1.470,-0.980,-0.560
10993153,-1.000,0.181,-0.104,-1.330,-1.820,0.910
10993173,-0.994,0.182,-0.106,-0.280,-2.240,1.680
10993191,-0.989,0.200,-0.100,0.280,-2.310,1.610
10993210,-0.988,0.202,-0.098,0.700,-2.380,1.470
10993232,-0.995,0.197,-0.098,-0.210,-2.380,0.910
10993252,-0.990,0.196,-0.100,-0.560,-2.030,0.280
10993272,-0.993,0.194,-0.102,0.000,-2.450,-0.070
10993296,-0.990,0.197,-0.102,0.490,-2.800,-0.560
10993316,-0.989,0.196,-0.099,-0.140,-2.590,-0.980
10993332,-0.994,0.196,-0.089,-0.140,-2.520,-0.910
10993356,-0.988,0.193,-0.094,-0.560,-2.170,-0.630
10993376,-0.997,0.183,-0.099,-0.140,-2.380,-0.140
10993396,-0.992,0.185,-0.101,0.000,-2.450,0.840
10993415,-0.996,0.191,-0.102,0.000,-2.660,0.840
10993436,-0.992,0.189,-0.099,0.210,-2.730,0.770
10993455,-0.995,0.188,-0.100,0.420,-3.010,0.840
10993476,-0.990,0.194,-0.100,0.350,-3.080,0.910
10993495,-0.995,0.185,-0.101,0.350,-3.150,1.120
10993516,-0.996,0.183,-0.102,1.120,-3.780,1.540
10993536,-0.990,0.185,-0.093,1.330,-3.780,1.890
10993554,-0.992,0.185,-0.097,1.190,-3.500,2.310
10993577,-0.984,0.185,-0.095,0.840,-3.010,2.870
10993598,-0.995,0.186,-0.096,0.840,-3.430,3.360
10993618,-0.988,0.202,-0.095,0.350,-3.150,2.800
10993636,-0.987,0.206,-0.095,0.210,-2.940,1.820
10993656,-0.990,0.200,-0.097,0.420,-2.870,0.770
10993680,-0.986,0.194,-0.092,0.000,-2.310,0.210
10993699,-0.991,0.183,-0.093,-0.070,-1.820,0.630
10993716,-0.987,0.193,-0.098,0.420,-1.820,1.050
10993740,-0.999,0.183,-0.097,-17.780,-2.100,1.330
10993759,-0.993,0.185,-0.098,0.140,-1.750,1.330
10993778,-0.987,0.196,-0.097,0.140,-1.820,1.120
10993798,-0.985,0.196,-0.095,-0.490,-1.190,0.490
10993822,-0.989,0.191,-0.097,-0.770,-1.050,0.490
10993842,-0.987,0.192,-0.099,-0.630,-0.840,0.280
10993861,-0.987,0.192,-0.097,-0.700,-0.700,0.070
10993886,-0.998,0.186,-0.098,-1.190,-0.420,0.280
10993906,-0.993,0.191,-0.102,-0.560,-1.050,-0.210
10993926,-0.983,0.190,-0.100,-0.560,-0.280,-0.490
10993945,-0.993,0.185,-0.093,-0.560,-0.210,-0.560
10993969,-1.001,0.193,-0.102,-0.350,-0.910,-0.910
10993987,-0.984,0.201,-0.107,-0.280,-0.770,-1.960
10994007,-0.992,0.156,-0.108,1.820,-1.050,-2.940
10994027,-0.986,0.176,-0.093,3.290,-2.170,-2.240
10994051,-1.000,0.142,-0.103,-3.920,-3.360,-0.630
10994071,-1.038,0.204,-0.100,0.490,-3.150,1.050
10994090,-0.974,0.219,-0.090,3.430,-3.850,-0.210
10994114,-0.972,0.189,-0.090,-5.600,1.680,2.660
10994132,-1.004,0.206,-0.079,1.330,-1.820,3.710
10994152,-0.988,0.205,-0.104,-2.170,-1.890,2.660
10994175,-1.005,0.203,-0.112,-1.820,-1.750,1.680
10994194,-0.999,0.172,-0.111,-0.980,-2.310,2.310
10994214,-0.989,0.183,-0.109,1.120,-2.800,2.660
10994235,-0.981,0.205,-0.109,0.420,-3.360,1.960
10994252,-0.989,0.202,-0.101,-0.490,-2.660,0.700
10994272,-0.995,0.181,-0.104,-1.890,-2.590,0.560
10994293,-0.989,0.179,-0.104,-0.910,-2.380,1.260
10994314,-0.989,0.186,-0.100,-0.770,-2.380,1.470
10994338,-0.990,0.185,-0.099,-1.050,-2.240,1.820
10994357,-0.991,0.184,-0.100,-1.400,-1.890,1.960
10994378,-0.992,0.185,-0.109,-0.630,-2.240,2.100
10994394,-0.995,0.184,-0.106,0.140,-2.590,2.100
10994414,-0.986,0.192,-0.106,0.840,-2.800,1.890
10994433,-0.989,0.196,-0.101,0.490,-2.520,1.260
10994456,-0.996,0.183,-0.104,0.420,-2.450,1.050
10994475,-0.992,0.189,-0.100,0.910,-2.520,1.260
10994500,-0.996,0.201,-0.096,-0.210,-2.380,1.050
10994520,-0.999,0.189,-0.106,0.280,-2.170,1.260
10994539,-0.992,0.183,-0.100,-0.070,-1.470,1.190
10994559,-0.986,0.191,-0.106,-0.420,-1.330,1.190
10994582,-0.994,0.183,-0.106,0.070,-1.540,1.260
10994602,-0.991,0.187,-0.110,0.560,-1.960,1.190
10994626,-0.994,0.186,-0.112,1.050,-2.660,1.120
10994647,-0.992,0.187,-0.103,1.260,-2.800,0.980
10994666,-0.993,0.197,-0.100,0.210,-2.310,0.700
10994684,-0.982,0.192,-0.105,-0.210,-1.750,0.560
10994705,-0.989,0.185,-0.106,-0.980,-1.260,0.840
10994726,-1.123,0.174,-0.106,-0.980,-1.540,2.030
10994744,-0.993,0.186,-0.111,0.070,-2.240,2.870
10994768,-0.996,0.187,-0.107,-0.840,-2.590,3.080
10994788,-0.992,0.173,-0.110,-0.210,-2.380,3.850
10994808,-1.003,0.186,-0.109,-0.560,-3.430,4.900
10994831,-0.989,0.187,-0.113,-0.770,-3.920,5.110
10994849,-0.987,0.195,-0.106,-0.490,-4.060,5.320
10994873,-0.993,0.201,-0.105,-0.840,-4.550,5.250
10994893,-0.990,0.199,-0.103,-1.050,-4.270,4.900
10994910,-0.988,0.202,-0.102,-1.050,-4.270,4.270
10994930,-0.990,0.205,-0.100,-0.910,-3.990,3.500
10994954,-0.986,0.206,-0.098,-0.280,-3.710,2.170
10994973,-0.994,0.201,-0.104,-0.350,-4.060,1.540
10994992,-0.988,0.201,-0.097,0.630,-4.200,1.260
10995016,-0.989,0.211,-0.098,1.050,-3.920,0.280
10995037,-0.985,0.200,-0.094,0.490,-2.940,-0.140
10995054,-0.992,0.192,-0.088,0.210,-3.010,0.280
10995073,-0.989,0.194,-0.095,0.000,-2.310,0.980
10995098,-0.990,0.198,-0.099,0.000,-2.240,1.330
10995118,-0.990,0.200,-0.096,0.420,-2.030,0.630
10995136,-0.986,0.198,-0.101,0.280,-1.820,0.420
10995157,-0.991,0.201,-0.093,-0.210,-1.330,0.070
10995177,-0.994,0.201,-0.103,-0.070,-1.470,-0.140
10995200,-0.986,0.201,-0.098,-0.070,-1.190,-0.630
10995220,-0.991,0.195,-0.097,-0.350,-0.840,-0.840
10995244,-0.994,0.200,-0.101,-0.910,-0.770,-0.630
10995264,-0.987,0.199,-0.102,-1.190,-0.560,-0.840
10995284,-0.995,0.198,-0.107,-0.980,-0.910,-1.260
10995303,-0.985,0.197,-0.102,-0.980,-0.280,-1.190
10995324,-0.994,0.193,-0.102,-1.330,-0.350,-0.980
10995344,-0.984,0.192,-0.103,-1.330,0.070,-0.700
10995364,-0.993,0.184,-0.106,-0.770,-0.490,-0.140
10995382,-0.996,0.186,-0.112,0.280,-1.050,0.000
10995404,-0.994,0.183,-0.103,1.330,-1.470,0.560
10995428,-0.997,0.188,-0.109,1.820,-1.610,0.840
10995446,-0.985,0.197,-0.111,1.050,-2.030,0.770
10995465,-0.998,0.185,-0.109,1.610,-2.380,0.700
10995490,-0.995,0.194,-0.106,1.820,-2.870,0.630
10995509,-0.985,0.201,-0.103,0.700,-2.730,0.000
10995529,-0.989,0.188,-0.103,0.070,-2.170,0.210
10995548,-0.998,0.186,-0.106,0.140,-2.730,0.560
10995572,-0.988,0.192,-0.103,0.280,-2.520,0.490
10995590,-0.991,0.192,-0.102,0.140,-1.960,-0.210
10995614,-0.991,0.187,-0.106,0.000,-1.750,-0.560
10995632,-0.993,0.185,-0.104,0.490,-2.030,-0.630
10995654,-0.992,0.185,-0.105,1.260,-2.310,-0.980
10995678,-0.988,0.187,-0.105,1.820,-2.520,-1.120
10995701,-0.990,0.181,-0.102,1.260,-2.310,-0.770
10995721,-0.994,0.176,-0.107,0.910,-2.170,0.000
10995741,-0.996,0.177,-0.111,1.050,-2.520,0.700
10995765,-0.990,0.183,-0.111,1.330,-2.870,0.630
10995783,-0.994,0.185,-0.104,1.190,-2.870,0.420
10995805,-0.981,0.190,-0.102,0.910,-2.520,-0.490
10995829,-0.992,0.178,-0.101,0.000,-1.120,-0.350
10995849,-0.998,0.183,-0.105,-0.210,-1.190,-0.280
10995868,-0.987,0.188,-0.100,0.280,-0.770,-0.980
10995888,-0.993,0.191,-0.105,-0.560,0.070,-1.820
10995912,-0.983,0.196,-0.109,-1.470,0.350,-3.990
10995932,-0.982,0.181,-0.113,-1.470,0.630,-4.270
10995947,-0.996,0.165,-0.112,-1.540,0.140,-3.920
10995970,-0.996,0.154,-0.111,-1.890,0.280,-2.030
10995990,-1.005,0.165,-0.115,-1.610,0.000,-0.770
10996010,-1.003,0.175,-0.119,-1.680,-1.050,-0.490
10996034,-0.989,0.163,-0.128,-1.540,-1.120,0.070
10996054,-0.987,0.168,-0.112,-0.350,-1.330,-0.070
10996074,-0.993,0.170,-0.105,-0.980,-1.050,0.280
10996092,-0.992,0.188,-0.113,-2.240,-1.120,-0.490
10996112,-0.989,0.178,-0.122,-3.080,-1.260,-0.420
10996136,-1.001,0.145,-0.121,-1.470,-2.660,0.280
10996156,-1.004,0.150,-0.119,1.050,-3.850,2.030
10996176,-1.011,0.141,-0.121,3.360,-3.990,3.780
10996195,-0.977,0.205,-0.117,0.770,-2.730,2.870
10996219,-0.996,0.148,-0.110,-1.470,-3.360,4.620
10996239,-0.987,0.162,-0.103,0.490,-3.290,5.950
10996259,-0.995,0.178,-0.110,1.120,-3.570,6.790
10996278,-0.990,0.170,-0.119,-2.030,-3.780,7.420
10996297,-0.999,0.161,-0.116,-0.420,-3.990,8.540
10996321,-0.994,0.175,-0.107,2.170,-4.760,8.610
10996341,-0.984,0.203,-0.107,1.540,-4.830,8.050
10996362,-0.996,0.214,-0.107,0.840,-4.550,6.090
10996382,-0.976,0.209,-0.109,-1.400,-3.920,3.500
10996402,-0.982,0.201,-0.106,-2.170,-2.940,1.750
10996425,-0.990,0.186,-0.102,-1.540,-3.150,2.030
10996446,-0.996,0.183,-0.104,-1.680,-2.800,2.660
10996465,-0.997,0.180,-0.106,-1.330,-2.730,3.500
10996489,-0.985,0.200,-0.108,-1.750,-2.170,2.940
10996508,-0.987,0.193,-0.103,-1.610,-2.170,2.940
10996532,-0.990,0.181,-0.106,-0.420,-2.170,3.080
10996552,-0.990,0.199,-0.103,-0.140,-1.610,2.590
10996569,-0.984,0.201,-0.108,0.280,-1.680,1.820
10996591,-0.993,0.207,-0.107,-0.070,-1.680,0.560
10996615,-0.990,0.197,-0.110,-0.560,-1.400,-0.210
10996635,-0.991,0.186,-0.108,-0.140,-1.540,0.000
10996654,-0.988,0.185,-0.111,0.420,-1.470,0.350
10996672,-0.992,0.185,-0.112,0.350,-1.680,0.560
10996692,-0.992,0.189,-0.115,0.770,-2.170,1.050
10996711,-0.988,0.192,-0.110,0.770,-2.730,0.770
10996736,-0.983,0.196,-0.108,0.280,-2.310,0.420
10996755,-0.991,0.194,-0.108,-0.280,-2.170,0.350
10996777,-0.991,0.190,-0.109,0.070,-2.310,0.630
10996795,-0.992,0.190,-0.107,0.070,-2.310,0.560
10996819,-0.986,0.193,-0.106,-0.420,-1.890,0.210
10996838,-0.990,0.193,-0.112,-0.490,-1.890,0.070
10996862,-0.992,0.187,-0.113,-0.280,-1.890,-0.280
10996881,-0.984,0.189,-0.115,-0.140,-1.540,-0.280
10996899,-0.991,0.187,-0.104,-0.140,-1.540,-0.140
10996923,-0.994,0.188,-0.112,-0.630,-1.610,-0.350
10996944,-0.992,0.187,-0.111,0.560,-2.100,-0.280
10996963,-0.995,0.188,-0.117,0.840,-1.890,-0.560
10996982,-0.981,0.185,-0.110,-0.420,-1.120,-1.050
10997002,-0.989,0.178,-0.110,-0.350,-1.750,-0.700
10997027,-0.992,0.177,-0.111,0.000,-1.750,0.070
10997047,-0.994,0.182,-0.112,0.280,-1.820,0.560
10997066,-0.990,0.189,-0.112,0.070,-1.470,0.420
10997086,-0.989,0.188,-0.113,-0.070,-1.540,0.070
10997105,-0.993,0.181,-0.110,0.140,-1.540,-0.210
10997129,-0.994,0.184,-0.111,0.560,-1.890,-0.280
10997150,-0.989,0.182,-0.115,0.630,-1.680,-0.490
10997170,-0.984,0.184,-0.109,0.140,-1.400,-0.140
10997189,-0.998,0.173,-0.111,-0.700,-1.260,0.630
10997213,-0.993,0.172,-0.119,-0.420,-1.470,1.960
10997233,-0.996,0.187,-0.116,-1.400,-2.100,2.380
10997253,-0.994,0.162,-0.110,-1.680,-2.030,2.870
10997273,-0.990,0.184,-0.117,-1.330,-2.450,3.780
10997297,-0.994,0.184,-0.119,-2.310,-2.800,4.900
10997315,-1.000,0.169,-0.111,-2.310,-3.150,6.300
10997339,-0.997,0.184,-0.112,-1.890,-3.710,7.560
10997358,-0.984,0.199,-0.119,-2.800,-3.780,7.210
10997378,-0.986,0.183,-0.109,-2.100,-3.920,7.140
10997396,-0.996,0.195,-0.108,-1.540,-4.200,7.210
10997420,-0.994,0.209,-0.106,-0.980,-4.550,6.160
10997440,-0.978,0.221,-0.107,-0.140,-3.850,3.990
10997460,-0.980,0.220,-0.101,-0.560,-2.940,1.400
10997480,-0.988,0.203,-0.102,-1.120,-2.310,0.980
10997500,-1.001,0.187,-0.111,0.280,-3.080,1.260
10997519,-0.987,0.194,-0.113,1.470,-3.150,1.190
10997539,-0.983,0.201,-0.106,1.820,-2.940,1.120
10997560,-0.980,0.207,-0.105,1.750,-2.030,0.980
10997580,-0.991,0.203,-0.105,0.770,-1.400,0.630
10997600,-0.988,0.203,-0.106,1.540,-1.470,0.140
10997623,-0.979,0.215,-0.103,1.260,-0.700,-1.540
10997646,-0.991,0.208,-0.110,1.120,-0.700,-3.290
10997666,-0.981,0.203,-0.114,0.560,0.070,-4.690
10997687,-0.992,0.197,-0.113,-0.210,0.280,-4.830
10997707,-0.995,0.183,-0.113,-0.490,0.000,-3.850
10997727,-0.994,0.176,-0.116,-0.490,0.140,-2.660
10997746,-0.989,0.176,-0.118,0.140,-0.350,-1.610
10997766,-0.989,0.177,-0.120,0.770,-0.700,-0.700
10997787,-0.993,0.178,-0.114,1.540,-1.190,0.140
10997809,-0.988,0.191,-0.114,0.980,-1.120,0.420
10997830,-0.992,0.186,-0.119,0.630,-1.330,0.770
10997849,-0.996,0.183,-0.116,0.910,-1.540,0.700
10997874,-0.990,0.191,-0.117,0.210,-1.400,0.980
10997892,-0.994,0.186,-0.120,-0.420,-1.610,0.980
10997913,-0.990,0.185,-0.116,-0.210,-1.820,1.120
10997937,-0.996,0.183,-0.119,-0.280,-1.750,1.260
10997957,-0.987,0.186,-0.119,-0.630,-1.470,1.540
10997976,-0.990,0.182,-0.122,-0.560,-1.750,2.030
10998000,-0.991,0.183,-0.122,-0.140,-2.100,2.170
10998020,-0.988,0.186,-0.118,0.000,-2.520,2.450
10998040,-0.984,0.187,-0.116,-0.350,-1.890,2.520
10998059,-0.994,0.192,-0.120,-0.770,-2.240,2.520
10998078,-0.987,0.188,-0.128,-0.350,-2.660,2.240
10998098,-0.992,0.190,-0.118,0.210,-3.220,2.170
10998120,-0.992,0.187,-0.115,-0.070,-3.290,2.240
10998144,-0.988,0.187,-0.119,-0.350,-3.150,2.520
10998163,-0.989,0.193,-0.122,-0.280,-3.360,2.520
10998183,-0.993,0.186,-0.119,-0.140,-3.780,2.940
10998200,-0.993,0.186,-0.118,0.280,-3.850,3.220
10998220,-0.989,0.184,-0.119,0.630,-3.710,3.710
10998242,-0.992,0.195,-0.113,0.910,-3.850,3.360
10998266,-0.982,0.202,-0.111,0.350,-2.870,2.380
10998285,-0.985,0.201,-0.114,-1.050,-2.310,1.750
10998305,-0.987,0.193,-0.122,-0.770,-2.520,1.680
10998325,-0.989,0.192,-0.118,-0.210,-2.660,1.610
10998348,-0.982,0.204,-0.106,-0.560,-2.100,0.980
10998369,-0.980,0.206,-0.101,-2.660,-0.490,0.420
10998388,-0.988,0.199,-0.118,-2.940,-0.560,0.490
10998406,-0.991,0.192,-0.118,-3.640,0.210,0.140
10998426,-0.984,0.186,-0.116,-3.080,-0.490,0.280
10998450,-0.987,0.198,-0.117,-3.150,-0.280,0.420
10998470,-0.992,0.198,-0.127,-3.150,-0.560,0.420
10998487,-0.991,0.185,-0.126,-1.890,-1.050,0.840
10998508,-0.992,0.187,-0.124,-0.070,-2.520,1.120
10998528,-0.978,0.198,-0.116,-0.350,-1.400,0.630
10998552,-0.987,0.193,-0.118,-0.980,-1.540,0.840
10998570,-0.986,0.193,-0.117,-0.840,-1.190,0.910
10998590,-0.992,0.184,-0.127,0.280,-2.240,0.630
10998614,-0.994,0.197,-0.122,-0.560,-3.010,2.590
10998632,-1.009,0.152,-0.144,1.400,-4.760,3.640
10998654,-1.001,0.182,-0.120,2.660,-5.180,4.200
10998678,-0.969,0.257,-0.113,-2.100,-5.390,2.870
10998698,-1.029,0.156,-0.102,1.470,-4.830,5.180
10998722,-0.949,0.199,-0.100,0.490,-2.030,3.990
10998742,-0.974,0.224,-0.122,-3.360,-1.680,4.200
10998762,-1.001,0.135,-0.129,-2.030,-1.610,5.530
10998780,-1.003,0.196,-0.137,5.180,-4.760,7.700
10998800,-0.984,0.245,-0.128,3.570,-7.560,6.440
10998819,-0.965,0.232,-0.103,0.000,-4.620,4.270
10998844,-0.981,0.223,-0.107,-3.150,-3.570,2.240
10998864,-0.989,0.191,-0.107,-3.220,-2.590,1.680
10998884,-0.982,0.204,-0.107,-1.330,-2.310,1.610
10998903,-0.989,0.199,-0.114,-1.260,-1.820,1.890
10998924,-0.986,0.206,-0.112,-1.750,-2.940,2.660
10998944,-0.983,0.211,-0.105,-3.500,-2.030,2.940
10998964,-0.990,0.203,-0.111,-2.380,-2.030,2.660
10998983,-0.990,0.211,-0.120,-0.980,-2.380,2.520
10999000,-0.987,0.215,-0.117,-0.420,-2.940,2.030
10999024,-0.978,0.208,-0.114,-0.210,-2.380,1.120
10999045,-0.988,0.213,-0.108,-0.560,-2.170,1.190
10999064,-0.992,0.217,-0.109,-1.470,-2.870,1.540
10999084,-0.986,0.209,-0.111,-1.750,-1.890,1.820
10999108,-0.979,0.202,-0.103,-1.050,-1.400,1.960
10999128,-0.990,0.207,-0.112,-0.280,-1.960,2.380
10999148,-0.988,0.207,-0.111,0.210,-1.890,2.730
10999165,-0.981,0.206,-0.108,0.420,-1.190,2.800
10999189,-0.994,0.208,-0.117,0.980,-2.450,3.360
10999207,-0.984,0.213,-0.113,0.980,-2.170,3.640
10999231,-0.985,0.212,-0.116,0.770,-1.960,3.570
10999251,-0.983,0.213,-0.115,1.260,-2.030,3.710
10999271,-0.986,0.220,-0.112,0.910,-1.960,3.570
10999286,-0.987,0.221,-0.116,0.980,-2.240,3.430
10999311,-0.980,0.223,-0.108,0.280,-1.470,2.870
10999331,-0.987,0.220,-0.115,0.560,-1.470,2.800
10999351,-0.986,0.224,-0.110,0.700,-1.470,2.870
10999370,-0.987,0.213,-0.113,1.120,-1.260,2.800
10999394,-0.980,0.210,-0.119,0.630,-0.420,2.660
10999413,-0.977,0.221,-0.117,1.400,-0.630,2.800
10999437,-0.981,0.222,-0.119,0.700,0.000,2.030
10999456,-0.987,0.221,-0.119,0.840,-0.980,1.820
10999476,-0.976,0.229,-0.112,-0.140,-0.280,1.960
10999497,-0.982,0.231,-0.115,0.140,-0.910,1.610
10999517,-0.984,0.221,-0.122,0.560,-1.050,1.540
10999536,-0.979,0.229,-0.117,0.700,-1.050,0.980
10999557,-0.981,0.214,-0.114,1.680,-0.700,0.210
10999580,-0.979,0.228,-0.124,2.170,-0.980,0.140
10999600,-0.983,0.212,-0.125,2.380,-0.840,-0.350
10999624,-0.981,0.233,-0.131,1.330,-1.330,-0.490
10999644,-0.984,0.210,-0.124,1.470,-1.260,-0.490
10999661,-0.982,0.215,-0.123,1.050,-1.260,-0.490
10999683,-0.978,0.221,-0.121,1.330,-0.840,-0.490
10999707,-0.983,0.211,-0.125,1.400,-0.840,-0.700
10999727,-0.978,0.219,-0.119,1.610,-0.700,-0.070
10999746,-0.985,0.205,-0.121,2.450,-1.330,0.420
10999765,-0.990,0.209,-0.125,3.990,-2.310,1.470
10999785,-0.995,0.200,-0.142,5.950,-3.010,1.610
10999809,-0.976,0.230,-0.137,4.830,-2.800,1.120
10999828,-0.990,0.213,-0.131,4.200,-3.010,1.260
10999849,-0.980,0.221,-0.128,2.240,-2.100,0.560
10999868,-0.983,0.212,-0.004,2.450,-2.100,0.490
10999888,-0.984,0.208,-0.124,2.590,-2.170,-0.070
10999911,-0.978,0.233,-0.128,1.750,-2.170,-0.560
10999930,-0.979,0.218,-0.130,0.770,-1.820,-0.770
10999949,-0.980,0.210,-0.122,0.910,-1.680,-0.770
10999969,-0.984,0.210,-0.130,0.560,-1.610,-0.560
10999993,-0.980,0.207,-0.130,0.210,-1.470,-0.280
11000013,-0.985,0.207,-0.129,0.000,-1.470,-0.280
11000037,-0.980,0.211,-0.128,-0.140,-1.610,-0.140
11000057,-0.982,0.207,-0.131,-17.920,-1.400,-0.140
11000076,-0.980,0.212,-0.130,-0.210,-1.470,-0.350
11000096,-0.982,0.210,-0.132,-0.140,-1.680,-0.490
11000115,-0.984,0.205,-0.137,-0.140,-1.750,-0.630
11000140,-0.985,0.201,-0.133,0.280,-2.030,-0.280
11000159,-0.980,0.205,-0.131,-0.070,-1.960,-0.070
11000179,-0.984,0.209,-0.129,-0.070,-2.100,0.000
11000199,-0.982,0.208,-0.126,-0.140,-1.960,-0.140
11000218,-0.988,0.198,-0.133,-17.920,-2.310,-0.070
11000243,-0.982,0.204,-0.133,0.070,-2.170,0.000
11000263,-0.984,0.209,-0.130,0.000,-2.240,-0.070
11000278,-0.986,0.204,-0.132,-0.140,-2.170,-0.350
11000303,-0.987,0.205,-0.129,0.070,-2.310,-0.420
11000323,-0.984,0.201,-0.134,0.280,-2.450,-0.350
11000343,-0.982,0.207,-0.131,0.280,-2.240,-0.630
11000363,-0.976,0.206,-0.131,-0.350,-2.030,-0.630
11000382,-0.990,0.198,-0.132,-0.140,-2.310,-0.420
11000405,-0.987,0.192,-0.134,0.350,-2.520,-0.140
11000424,-0.982,0.196,-0.134,0.560,-2.380,-0.070
11000447,-0.982,0.200,-0.128,0.350,-2.590,0.210
11000468,-0.984,0.200,-0.135,0.000,-2.380,0.070
11000488,-0.982,0.196,-0.133,0.140,-2.520,0.140
11000508,-0.985,0.195,-0.131,0.490,-2.800,0.070
11000532,-0.984,0.197,-0.129,0.280,-2.590,-0.140
11000552,-0.983,0.197,-0.133,0.210,-2.590,-0.280
11000572,-0.986,0.199,-0.130,0.000,-2.730,-0.210
11000591,-0.982,0.198,-0.132,0.210,-2.730,-0.560
11000615,-0.984,0.196,-0.125,0.210,-2.660,-0.840
11000635,-0.991,0.194,-0.134,-0.350,-2.520,-0.700
11000655,-0.986,0.190,-0.134,-0.420,-2.380,-0.560
11000670,-0.986,0.194,-0.131,-0.140,-2.800,-0.280
11000690,-0.992,0.184,-0.132,0.490,-2.660,0.140
11000714,-0.987,0.192,-0.131,0.350,-3.010,0.630
11000733,-0.986,0.193,-0.132,0.280,-2.940,0.490
11000753,-0.989,0.197,-0.127,0.070,-2.940,0.350
11000776,-0.987,0.186,-0.129,0.280,-2.940,0.280
11000797,-0.987,0.196,-0.130,0.140,-2.800,0.420
11000817,-0.988,0.187,-0.132,-0.140,-2.660,0.140
11000838,-0.985,0.190,-0.127,-0.280,-2.520,0.140
11000857,-0.990,0.195,-0.124,-0.140,-2.870,0.070
11000881,-0.985,0.192,-0.135,0.490,-3.150,-0.350
11000905,-0.992,0.183,-0.127,0.840,-3.290,-0.770
11000925,-0.996,0.193,-0.126,0.350,-2.870,-0.840
11000944,-0.988,0.191,-0.131,0.350,-2.940,-1.540
11000969,-0.984,0.191,-0.133,0.560,-2.730,-2.240
11000988,-0.995,0.189,-0.127,0.980,-3.010,-3.220
11001008,-0.986,0.178,-0.135,2.030,-3.080,-3.920
11001032,-0.985,0.178,-0.130,2.310,-1.960,-4.270
11001052,-0.982,0.178,-0.123,3.570,-2.520,-4.060
11001069,-0.980,0.183,-0.121,2.520,-1.470,-4.200
11001087,-0.990,0.176,-0.122,1.050,-0.770,-3.710
11001107,-0.988,0.168,-0.127,1.400,-0.910,-2.800
11001127,-1.003,0.163,-0.132,1.680,-1.470,-2.100
11001147,-0.976,0.177,-0.122,0.140,-0.630,-2.660
11001172,-0.976,0.179,-0.118,0.490,1.050,-3.290
11001192,-0.997,0.142,-0.150,1.820,0.770,-3.360
11001212,-0.969,0.151,-0.122,2.030,1.120,-2.380
11001232,-0.992,0.177,-0.112,-3.640,3.360,0.070
11001252,-0.992,0.226,-0.183,-10.920,4.550,2.660
11001275,-0.956,0.155,-0.153,-11.760,6.300,2.660
11001295,-1.007,0.149,-0.146,-8.050,2.940,3.080
11001317,-1.028,0.275,-0.142,-14.280,-7.630,3.430
11001339,-0.928,0.209,-0.148,-18.200,1.470,-3.710
11001361,-0.998,0.162,-0.168,-17.570,-1.540,-7.350
11001378,-0.991,0.139,-0.189,-17.360,-4.410,-9.380
11001402,-0.952,0.175,-0.122,-26.180,5.530,-11.690
11001418,-1.014,0.176,-0.075,-27.510,5.740,-9.450
11001439,-0.991,0.130,-0.154,-24.710,8.260,-10.080
11001460,-0.991,0.051,-0.181,-12.950,5.320,-7.980
11001482,-1.000,0.144,-0.176,-7.910,2.240,-10.290
11001501,-1.030,0.165,-0.111,-5.460,1.050,-8.540
11001526,-0.983,0.136,-0.144,-3.010,5.110,-11.900
11001545,-0.993,0.224,-0.088,-0.350,6.020,-15.050
11001565,-1.022,0.118,-0.187,-3.990,8.190,-13.230
11001581,-1.036,0.026,-0.261,0.070,-0.210,-5.250
11001606,-1.029,0.081,-0.196,1.750,-11.410,1.540
11001626,-1.037,0.150,-0.152,2.450,-11.620,3.640
11001650,-1.003,0.133,-0.129,0.350,-6.580,2.380
11001665,-0.993,0.139,-0.150,0.630,-4.620,0.980
11001690,-0.997,0.126,-0.165,-0.630,-5.390,0.420
11001709,-0.973,0.133,-0.146,-3.710,-6.790,1.330
11001730,-0.999,0.147,-0.152,-5.950,-8.610,1.750
11001750,-0.992,0.156,-0.139,-8.260,-7.980,-0.560
11001769,-0.992,0.148,-0.159,-9.870,-8.330,-2.870
11001793,-0.994,0.152,-0.135,-10.220,-8.960,-4.690
11001809,-1.016,0.150,-0.139,-8.960,-10.150,-6.720
11001830,-0.984,0.151,-0.119,-11.690,-6.300,-9.100
11001850,-1.000,0.122,-0.142,-10.010,-8.260,-8.540
11001874,-1.011,0.068,-0.127,-4.340,-8.330,-7.980
11001892,-1.011,0.140,-0.161,-5.180,-10.010,-8.050
11001916,-1.006,0.158,-0.145,-9.310,-12.390,-11.410
11001934,-1.000,0.129,-0.113,-6.300,-12.110,-15.540
11001952,-0.977,0.159,-0.091,-4.340,-7.000,-21.840
11001972,-0.993,0.161,-0.081,-1.330,-4.760,-31.710
11001991,-0.990,0.152,-0.083,5.810,0.420,-42.910
11002016,-0.981,0.189,-0.085,6.510,7.350,-58.170
11002036,-1.002,0.119,-0.167,7.910,10.360,-61.390
11002054,-1.045,0.132,-0.195,8.470,10.220,-60.410
11002072,-1.123,0.171,-0.232,14.280,9.170,-59.780
11002096,-1.143,0.371,-0.001,9.240,21.490,-68.110
11002116,-1.345,-0.107,-0.191,44.870,2.520,-76.230
11002131,-1.161,0.278,-0.189,42.700,8.120,-77.700
11002156,-1.158,0.179,-0.146,29.050,16.170,-81.130
11002176,-1.221,-0.163,0.091,2.170,6.510,-66.220
11002196,-1.003,0.551,0.003,-28.210,10.710,-46.270
11002216,-1.022,0.175,0.090,-50.890,16.100,-34.860
11002240,-0.844,0.228,0.163,-56.490,15.750,-11.620
11002255,-0.956,0.128,0.241,-41.790,7.700,1.470
11002279,-0.970,0.067,0.277,-6.090,-10.850,24.290
11002300,-0.913,0.169,0.199,19.110,-21.000,43.960
11002319,-0.969,0.159,0.145,20.160,-29.190,64.610
11002344,-0.980,0.195,0.146,17.290,-31.990,86.100
11002360,-0.998,0.160,0.153,8.820,-33.530,97.160
11002383,-1.069,0.057,0.119,-1.610,-40.180,107.800
11002402,-1.154,0.128,0.120,-9.450,-46.130,114.100
11002422,-1.142,0.224,0.120,-25.690,-49.070,114.520
11002447,-1.139,0.139,0.097,-40.390,-57.260,112.840
11002471,-1.128,0.121,0.038,-42.700,-62.160,113.610
11002491,-1.174,0.067,-0.032,-30.520,-71.120,114.240
11002507,-1.064,-0.026,-0.147,-26.670,-73.010,108.570
11002531,-1.098,0.092,-0.077,-20.790,-69.090,110.950
11002551,-1.044,0.199,-0.016,-26.950,-71.400,106.050
11002570,-1.045,0.127,0.028,-25.340,-70.700,103.320
11002594,-1.027,0.066,-0.082,-20.370,-65.800,91.350
11002614,-1.099,0.160,-0.021,-31.780,-70.770,80.570
11002631,-0.939,-0.011,-0.170,-25.900,-58.800,73.640
11002654,-0.976,0.181,-0.082,-29.120,-53.550,66.850
11002674,-0.893,0.164,0.046,-39.340,-43.680,50.820
11002698,-0.883,0.248,0.111,-35.210,-42.210,36.750
11002716,-0.897,0.286,0.020,-49.140,-32.690,25.550
11002739,-0.790,0.174,0.031,-54.040,-21.000,8.960
11002757,-0.852,0.182,0.161,-40.950,-18.060,4.340
11002777,-0.810,0.218,0.149,-35.840,-12.740,-6.160
11002796,-0.844,0.231,0.060,-35.210,-4.200,-13.790
11002821,-0.836,0.121,0.022,-19.950,6.650,-25.830
11002837,-0.770,0.169,0.030,-15.680,22.050,-36.680
11002857,-0.827,0.120,0.021,-14.700,28.210,-50.750
11002881,-0.781,0.126,-0.012,-12.740,39.340,-63.910
11002901,-1.230,1.177,0.476,130.480,-16.170,-26.320
11002920,-0.513,1.277,0.493,-53.900,36.330,-37.870
11002940,-0.885,-0.732,-0.863,8.330,104.510,-77.000
11002964,-1.819,1.050,0.926,-31.570,67.060,-89.110
11002984,-1.304,-0.366,-0.101,31.570,95.480,-110.040
11003001,-1.078,0.300,0.418,35.840,49.980,-106.890
11003021,-0.649,-0.001,-0.098,21.700,86.380,-85.540
11003040,-1.193,0.014,-0.407,-1.400,82.880,-62.790
11003065,-1.139,0.113,-0.433,-5.810,98.630,-57.680
11003084,-1.183,0.103,0.301,35.490,53.060,-55.510
11003105,-0.900,-0.053,-0.187,4.130,81.830,-61.180
11003120,-1.166,0.067,-0.092,22.260,59.290,-56.910
11003145,-0.950,0.165,-0.117,7.910,66.220,-59.640
11003164,-1.055,0.090,-0.125,-6.510,55.160,-55.650
11003184,-0.991,0.145,-0.102,0.350,56.980,-49.840
11003208,-1.067,-0.059,-0.128,0.420,56.070,-48.860
11003227,-0.941,0.022,-0.253,1.750,44.590,-51.240
11003246,-0.970,-0.011,-0.122,-2.730,50.050,-50.890
11003270,-0.957,-0.164,-0.210,-9.800,44.240,-45.710
11003291,-1.167,0.114,-0.205,-6.440,46.410,-47.950
11003309,-0.905,0.222,-0.188,-7.490,44.310,-55.860
11003330,-0.964,-0.080,-0.285,-3.150,51.310,-59.360
11003350,-1.000,-0.092,-0.191,1.890,43.400,-66.430
11003374,-0.921,-0.224,-0.352,-5.950,41.370,-66.080
11003394,-0.922,-0.107,-0.233,-2.100,53.550,-75.110
11003414,-0.962,-0.034,-0.398,-1.820,56.070,-68.600
11003434,-1.087,-0.062,-0.362,-6.930,49.560,-73.990
11003452,-0.817,-0.282,-0.620,-8.260,37.520,-58.030
11003472,-0.853,-0.376,-0.324,4.900,53.970,-52.150
11003494,-0.864,-0.360,-0.198,0.210,51.450,-44.660
11003514,-0.838,-0.346,-0.371,4.060,43.470,-39.550
11003535,-0.864,-0.327,-0.357,11.690,42.490,-39.130
11003555,-0.687,-0.256,-0.468,-2.170,48.860,-37.450
11003575,-0.778,-0.056,-0.485,-0.560,70.140,-37.520
11003595,-1.262,-0.320,-0.507,14.560,61.110,-36.470
11003617,-0.960,-0.457,-0.450,17.430,47.040,-34.440
11003641,-0.820,-0.393,-0.447,10.570,42.140,-36.050
11003660,-0.821,-0.392,-0.481,1.960,29.680,-35.770
11003677,-0.673,-0.546,-0.423,5.810,38.290,-34.580
11003701,-0.581,-0.513,-0.404,8.470,35.490,-27.160
11003721,-0.769,-0.366,-0.639,1.540,43.750,-14.560
11003736,-1.135,-0.524,-0.582,16.030,55.580,-9.730
11003761,-0.992,-0.486,-0.469,-3.710,3.570,-23.870
11003780,-0.424,-0.256,-0.627,-1.050,7.210,-23.170
11003804,-0.187,-0.234,-0.724,0.770,52.290,1.820
11003824,-0.775,-0.338,-0.636,-2.100,41.440,3.640
11003848,-0.937,-0.422,-0.592,-1.680,24.500,-0.420
11003868,-0.589,-0.182,-0.653,-3.430,-2.030,-1.330
11003888,-0.118,-0.451,-0.795,-4.550,20.090,9.870
11003908,-0.921,-0.474,-0.631,0.280,14.350,10.360
11003927,-0.849,-0.473,-0.656,3.500,-1.540,9.100
11003948,-0.763,-0.517,-0.650,14.490,-21.420,9.590
11003967,-0.430,-0.245,-0.720,10.500,-16.730,15.120
11003988,-0.622,-0.376,-0.631,13.090,-10.990,19.180
11004007,-0.809,-0.296,-0.625,10.780,-25.900,17.710
11004031,-0.671,-0.422,-0.574,8.750,-26.810,19.670
11004051,-0.740,-0.370,-0.563,8.820,-33.600,20.300
11004071,-0.678,-0.411,-0.624,12.740,-30.380,23.520
11004089,-0.787,-0.436,-0.568,9.100,-41.370,27.090
11004110,-0.707,-0.361,-0.562,8.960,-42.700,29.890
11004131,-0.763,-0.352,-0.556,5.110,-38.640,31.500
11004151,-0.935,-0.311,-0.538,0.000,-41.020,31.500
11004166,-0.920,-0.404,-0.518,17.850,-56.910,30.240
11004191,-0.755,-0.339,-0.508,0.210,-56.420,28.350
11004209,-0.750,-0.303,-0.516,-0.350,-54.040,26.250
11004230,-0.932,-0.356,-0.484,-0.280,-60.830,22.120
11004248,-0.952,-0.321,-0.498,-1.610,-66.640,16.800
11004267,-0.924,-0.355,-0.464,-3.430,-78.050,12.950
11004292,-0.793,-0.334,-0.378,-3.990,-79.590,11.340
11004312,-0.854,-0.278,-0.450,-7.770,-78.190,13.440
11004332,-0.957,-0.265,-0.537,-19.320,-84.000,35.210
11004347,-0.847,-0.384,-0.223,-25.200,-73.360,29.750
11004369,-0.794,-0.354,-0.321,-14.910,-76.510,29.540
11004392,-0.981,-0.246,-0.267,-17.290,-74.830,36.260
11004416,-0.829,-0.241,-0.317,-30.940,-76.860,40.390
11004434,-0.725,-0.319,-0.220,-24.430,-60.690,42.700
11004455,-1.011,-0.342,-0.151,-16.240,-48.860,45.010
11004476,-1.367,-0.143,-0.142,-8.050,-67.060,34.510
11004496,-1.060,-0.173,-0.164,-1.470,-62.580,38.360
11004516,-0.772,-0.282,-0.206,1.400,-65.100,42.350
11004535,-0.855,-0.210,-0.155,-7.700,-54.250,42.000
11004555,-0.923,-0.043,-0.107,-4.480,-44.940,44.800
11004574,-1.141,-0.014,-0.037,-3.010,-35.280,42.560
11004599,-1.184,-0.175,-0.123,4.900,-56.350,38.150
11004619,-0.834,-0.224,-0.101,2.380,-61.880,42.140
11004638,-0.794,-0.119,0.044,11.620,-38.290,46.130
11004654,-1.023,-0.207,0.028,20.580,-34.650,49.280
11004678,-1.196,-0.044,-0.121,12.110,-37.100,47.950
11004699,-1.091,-0.057,-0.181,11.340,-65.730,53.340
11004718,-0.994,-0.016,-0.090,2.170,-64.610,60.340
11004737,-1.107,-0.047,-0.022,-9.380,-88.130,65.660
11004757,-0.972,0.081,0.048,-24.360,-84.980,73.920
11004777,-1.081,-0.061,0.011,-35.630,-89.110,84.560
11004801,-1.046,-0.088,-0.081,-30.870,-103.040,101.360
11004821,-1.044,-0.349,-0.366,-19.530,-78.400,105.000
11004839,-1.298,0.023,-0.145,-33.460,-81.060,117.880
11004859,-1.324,-0.099,-0.050,-26.670,-78.540,120.680
11004883,-1.202,0.117,0.291,-33.180,-112.000,125.440
11004902,-0.906,0.168,0.232,-28.420,-91.980,122.570
11004923,-1.069,0.301,0.194,-26.250,-82.880,106.400
11004938,-1.137,0.133,0.311,11.830,-90.650,112.490
11004963,-0.655,0.400,0.264,17.990,-13.440,58.380
11004983,-0.450,0.407,0.462,-0.560,-18.620,39.410
11005002,-0.728,-1.128,0.168,29.470,-8.400,-30.520
11005026,-0.732,-0.004,0.156,60.620,31.570,-71.750
11005046,-0.846,0.390,0.377,21.770,38.640,-87.500
11005066,-0.864,0.448,0.366,8.400,31.850,-85.680
11005085,-0.656,0.243,-0.621,-70.210,64.750,-86.660
11005109,-0.615,-0.434,-0.530,-41.930,129.220,-109.970
11005129,-1.336,-0.670,-0.335,47.950,123.340,-97.230
11005149,-1.541,0.065,-0.052,108.430,91.000,-99.470
11005169,-1.133,0.128,0.014,101.080,87.570,-117.250
11005193,-1.062,0.092,-0.271,81.970,93.240,-134.750
11005209,-1.126,-0.041,-0.379,54.180,113.470,-133.560
11005229,-1.222,-0.150,-0.156,61.880,111.930,-127.540
11005253,-1.328,-0.253,-0.172,75.110,113.330,-131.040
11005273,-1.386,-0.002,-0.123,84.910,116.480,-138.180
11005289,-1.159,0.066,-0.152,63.490,116.130,-138.250
11005313,-1.222,0.274,0.073,38.920,119.280,-133.000
11005333,-1.113,0.166,0.231,-14.070,102.900,-125.720
11005348,-1.108,0.128,0.233,-30.800,101.500,-109.060
11005373,-1.168,0.252,0.441,-31.150,70.210,-79.590
11005393,-0.914,0.271,0.199,-35.980,59.920,-51.730
11005412,-0.796,0.557,0.470,-28.000,40.530,-27.090
11005432,-0.734,0.178,0.345,-28.980,24.360,-5.810
11005453,-0.755,0.176,0.315,-13.860,-12.530,26.460
11005476,-0.745,0.299,0.136,-15.470,-36.330,73.710
11005496,-0.995,0.586,1.213,11.690,-35.420,94.990
11005516,-0.586,-0.650,-1.566,-62.020,14.000,79.870
11005540,-1.505,0.535,0.037,-17.780,-36.960,103.950
11005560,-0.830,0.114,-0.423,8.470,21.700,93.940
11005584,-1.764,-0.198,0.039,-0.350,-29.750,71.400
11005602,-1.607,-0.283,0.160,-7.840,-55.230,47.320
11005623,-1.250,0.109,-0.188,-31.290,-50.820,39.270
11005643,-1.097,0.016,-0.165,-40.320,-25.620,34.090
11005666,-1.222,-0.153,-0.145,-32.830,-25.200,33.530
11005686,-1.009,-0.255,-0.291,14.840,-39.200,35.490
11005704,-0.861,0.060,-0.296,9.940,-30.590,38.500
11005722,-0.974,-0.070,-0.212,-2.590,-19.810,38.500
11005747,-1.054,-0.067,-0.206,-0.770,-23.870,41.580
11005767,-1.019,0.119,-0.202,-20.020,-30.660,44.450
11005786,-0.914,0.075,-0.277,-30.240,-25.690,43.820
11005806,-0.957,0.057,-0.175,-29.820,-22.680,42.070
11005823,-1.078,0.024,-0.046,-24.850,-21.350,38.360
11005846,-0.988,0.025,-0.093,-14.350,-16.030,32.270
11005870,-1.007,0.119,-0.140,-9.660,-12.320,26.670
11005890,-0.978,0.079,-0.147,-3.290,-8.400,18.410
11005908,-0.996,0.089,-0.140,4.760,-7.070,13.650
11005928,-0.982,0.241,-0.105,2.730,-5.950,8.470
11005947,-0.958,0.177,-0.141,-2.380,1.680,0.070
11005972,-0.966,0.148,-0.152,-6.650,7.280,-6.790
11005992,-1.028,0.085,-0.162,-4.620,4.480,-7.840
11006011,-1.020,0.150,-0.220,-0.140,3.150,-6.230
11006028,-0.995,0.183,-0.112,1.260,-6.650,-7.560
11006048,-0.908,0.038,-0.149,-2.170,10.500,-14.420
11006071,-0.964,0.041,-0.132,-1.050,12.390,-17.780
11006091,-1.011,0.096,-0.150,-0.070,15.820,-19.250
11006111,-0.972,0.083,-0.196,-8.400,18.620,-17.990
11006131,-1.029,-0.028,-0.151,-3.640,16.940,-14.840
11006155,-0.969,-0.015,-0.161,0.350,20.230,-9.310
11006175,-0.935,0.021,-0.192,-1.260,23.030,-9.310
11006195,-0.965,0.166,-0.178,-3.990,23.590,-9.730
11006215,-0.966,0.032,-0.229,-6.160,24.500,-11.060
11006234,-1.033,-0.027,-0.196,0.700,22.750,-11.200
11006254,-1.031,0.072,-0.144,19.670,20.860,-16.240
11006274,-0.982,0.107,-0.315,17.080,21.140,-25.200
11006298,-0.931,0.171,-0.281,-0.840,15.960,-26.740
11006315,-0.948,0.029,-0.332,-4.340,10.990,-28.700
11006334,-1.042,0.036,-0.256,-10.500,15.820,-29.120
11006358,-1.033,-0.114,-0.213,-0.560,16.450,-24.920
11006377,-0.985,-0.114,-0.290,10.500,14.070,-22.470
11006396,-0.940,0.051,-0.337,9.240,18.410,-9.380
11006421,-0.981,-0.022,-0.420,4.620,19.600,0.210
11006436,-0.948,-0.163,-0.236,2.240,13.160,-3.780
11006460,-1.047,-0.101,-0.257,17.850,12.110,1.050
11006481,-0.959,0.010,-0.322,21.840,12.880,-1.820
11006501,-0.944,0.007,-0.298,18.830,15.050,-7.490
11006525,-0.935,-0.049,-0.344,15.050,15.400,-13.440
11006545,-0.938,-0.084,-0.361,12.320,16.800,-11.760
11006568,-0.971,-0.097,-0.337,15.680,17.780,-13.930
11006585,-0.907,-0.044,-0.341,14.700,19.950,-14.560
11006606,-0.927,-0.089,-0.297,14.070,20.370,-15.610
11006628,-0.891,-0.103,-0.368,13.090,18.480,-16.380
11006651,-0.940,-0.066,-0.332,9.800,22.190,-18.830
11006668,-0.877,-0.094,-0.367,7.420,23.170,-18.900
11006689,-0.951,-0.075,-0.365,9.240,23.240,-21.280
11006710,-0.880,-0.134,-0.395,10.360,26.320,-21.140
11006730,-0.977,-0.121,-0.373,10.850,26.040,-21.350
11006754,-0.929,-0.080,-0.421,9.450,24.290,-25.550
11006773,-0.931,-0.014,-0.411,0.420,21.420,-31.500
11006793,-0.920,-0.240,-0.465,10.290,27.230,-37.730
11006815,-0.958,-0.202,-0.418,16.870,21.910,-40.040
11006839,-0.994,-0.224,-0.400,22.470,25.340,-43.330
11006855,-0.988,-0.195,-0.425,21.210,31.570,-45.080
11006877,-0.965,-0.224,-0.467,24.220,28.350,-47.950
11006897,-0.841,-0.280,-0.469,27.650,36.330,-47.180
11006921,-0.893,-0.208,-0.487,28.630,40.670,-44.520
11006941,-1.009,-0.216,-0.520,31.780,38.640,-48.090
11006958,-0.907,-0.257,-0.507,38.080,34.510,-53.130
11006981,-0.832,-0.267,-0.376,33.040,37.170,-60.830
11007001,-1.037,-0.303,-0.460,16.870,35.000,-66.220
11007025,-0.998,-0.310,-0.535,24.360,30.310,-65.380
11007045,-0.921,-0.319,-0.452,25.690,30.590,-62.510
11007069,-0.740,-0.493,-0.484,32.760,29.890,-60.200
11007088,-0.584,-0.508,-0.483,25.550,17.360,-62.230
11007112,-0.475,-0.502,-0.489,47.740,29.960,-45.010
11007132,-0.433,-0.458,-0.472,48.440,35.070,-42.980
11007152,-0.477,-0.378,-0.452,27.790,39.270,-46.060
11007172,-0.410,-0.561,-0.499,21.980,44.870,-52.080
11007194,-0.504,-0.498,-0.444,20.720,47.530,-58.170
11007218,-0.483,-0.660,-0.388,10.010,44.590,-66.290
11007238,-0.527,-0.774,-0.366,7.910,43.540,-78.330
11007258,-0.569,-0.590,-0.364,-1.680,38.640,-79.100
11007275,-0.575,-0.569,-0.508,-13.790,44.590,-77.770
11007294,-0.574,-0.487,-0.622,-19.740,61.390,-83.580
11007319,-0.713,-0.472,-0.727,-7.910,64.890,-88.690
11007338,-0.620,-0.591,-0.688,8.540,56.770,-90.580
11007360,-0.477,-0.512,-0.569,22.610,72.170,-89.670
11007382,-0.321,-0.726,-0.576,7.980,59.850,-90.790
11007402,-0.266,-0.705,-0.543,-0.910,62.510,-88.270
11007422,-0.130,-0.796,-0.555,-10.640,49.770,-80.780
11007444,-0.051,-0.878,-0.664,0.210,68.320,-67.270
11007463,-0.231,-0.710,-0.581,7.350,65.660,-59.710
11007485,-0.230,-0.761,-0.691,4.690,70.840,-55.930
11007504,-0.256,-0.703,-0.709,3.360,72.170,-53.900
11007529,-0.203,-0.757,-0.790,14.350,66.290,-50.890
11007549,-0.064,-0.687,-0.785,20.230,68.460,-42.770
11007569,0.034,-0.708,-0.730,29.120,63.910,-35.560
11007589,0.231,-0.804,-0.648,34.580,49.770,-26.180
11007608,0.314,-0.850,-0.564,39.830,59.990,-17.920
11007628,0.090,-0.674,-0.538,26.670,47.740,-12.810
11007648,-0.122,-0.836,-0.685,17.500,52.010,-13.090
11007672,-0.226,-0.914,-0.866,20.790,46.900,-13.720
11007687,-0.218,-0.831,-0.895,36.890,49.770,-11.830
11007710,-0.017,-0.745,-0.704,47.670,42.560,-13.090
11007732,0.275,-0.729,-0.545,49.560,33.670,-8.400
11007755,0.396,-0.826,-0.452,38.570,22.050,-1.750
11007778,0.230,-0.854,-0.391,27.510,12.250,2.800
11007796,0.082,-0.918,-0.358,14.980,3.080,4.830
11007815,-0.020,-0.948,-0.344,3.500,-2.660,3.850
11007838,-0.075,-0.897,-0.443,-7.420,-14.210,2.450
11007857,-0.016,-0.894,-0.578,-14.770,-25.550,2.870
11007876,0.111,-0.879,-0.624,-15.890,-34.370,5.250
11007901,0.178,-0.838,-0.608,-12.040,-39.130,10.570
11007918,0.218,-0.801,-0.561,-11.130,-42.350,15.960
11007936,0.211,-0.807,-0.570,-10.990,-42.490,21.560
11007961,0.238,-0.838,-0.618,-14.350,-45.430,31.360
11007980,0.113,-0.850,-0.565,-11.550,-45.080,35.070
11008001,0.001,-0.885,-0.436,-11.830,-53.270,36.960
11008017,-0.034,-0.862,-0.426,-16.590,-61.530,36.120
11008041,-0.094,-0.886,-0.399,-22.190,-72.240,32.970
11008058,-0.136,-0.818,-0.452,-31.500,-78.890,32.060
11008081,-0.124,-0.892,-0.553,-40.880,-77.770,33.250
11008104,-0.206,-0.835,-0.574,-18.970,-81.690,31.360
11008125,-0.241,-0.784,-0.640,-32.270,-92.050,34.020
11008144,-0.088,-0.712,-0.727,-40.670,-95.410,34.510
11008161,-0.067,-0.634,-0.665,-59.500,-82.670,34.650
11008184,-0.049,-0.702,-0.626,-48.790,-75.600,42.560
11008205,-0.038,-0.839,-0.634,-23.380,-79.380,47.180
11008225,-0.153,-0.595,-0.768,-28.280,-100.660,55.860
11008250,0.047,-0.494,-0.827,-49.770,-87.080,74.410
11008269,0.061,-0.514,-0.719,-62.370,-66.920,87.360
11008289,-0.046,-0.784,-0.733,-28.210,-78.330,95.270
11008313,-0.184,-0.836,-0.630,16.100,-102.200,98.700
11008331,-0.199,-0.747,-0.715,8.750,-99.260,102.480
11008350,-0.338,-0.227,-0.332,-21.630,-76.300,114.450
11008375,-0.612,-0.425,-0.302,-67.480,-89.390,119.140
11008393,-0.864,-0.743,-0.253,-61.110,-95.900,114.170
11008417,-0.819,-0.444,-0.591,-28.910,-109.480,114.170
11008437,-0.872,-0.030,-0.748,-32.900,-80.640,117.740
11008457,-1.008,0.069,-0.681,-22.330,-60.970,111.230
11008477,-1.033,-0.073,-0.319,-30.730,-57.540,88.900
11008501,-1.027,-0.076,-0.410,-69.370,-71.190,46.970
11008521,-0.961,-0.157,-0.587,-76.510,-86.450,31.850
11008545,-1.071,-0.449,-0.459,-87.500,-83.020,22.890
11008565,-1.260,-0.850,-0.189,-55.300,-90.160,13.650
11008585,-1.389,-0.449,-0.262,-31.500,-81.900,19.810
11008605,-0.980,-0.404,-0.438,-21.700,-69.230,38.220
11008624,-0.715,-0.463,-0.441,-1.400,-61.390,50.120
11008643,-0.835,-0.216,-0.400,7.770,-56.980,59.080
11008663,-0.972,-0.124,-0.448,-7.840,-56.280,62.300
11008687,-0.826,-0.177,-0.301,-24.150,-51.450,54.670
11008707,-0.840,-0.081,-0.292,-18.970,-46.550,46.340
11008726,-1.000,-0.059,-0.348,-21.840,-48.860,40.320
11008750,-0.910,-0.097,-0.386,-19.810,-44.660,39.620
11008770,-0.883,-0.120,-0.325,-22.050,-30.660,38.080
11008789,-0.939,-0.010,-0.128,-19.250,-24.080,35.210
11008812,-1.031,-0.109,-0.272,-18.830,-27.160,30.940
11008831,-0.973,-0.006,-0.243,-6.860,-31.920,26.460
11008855,-0.942,0.070,-0.325,-13.160,-26.110,19.670
11008875,-0.986,0.026,-0.288,-36.890,-27.580,17.220
11008895,-1.019,-0.067,-0.256,-39.410,-29.680,17.080
11008912,-0.984,-0.131,-0.223,-30.940,-26.600,17.430
11008934,-0.956,-0.092,-0.138,-4.830,-27.020,14.560
11008958,-0.960,0.191,-0.140,6.510,-23.730,2.730
11008977,-0.952,0.204,-0.208,-12.670,-18.200,-8.120
11008997,-0.976,-0.028,-0.237,-24.220,-19.250,-9.940
11009021,-1.035,-0.119,-0.243,-16.730,-21.210,-3.290
11009041,-1.046,-0.120,-0.178,6.020,-23.800,0.630
11009061,-0.980,-0.187,-0.087,18.620,-29.120,-2.660
11009080,-1.002,0.060,-0.197,13.160,-26.600,1.260
11009100,-1.022,0.089,-0.175,-8.680,-18.900,5.180
11009124,-1.015,-0.239,-0.186,-4.270,-20.160,8.050
11009144,-1.039,-0.270,-0.072,39.410,-28.840,10.360
11009164,-0.967,0.021,-0.073,46.130,-19.390,10.990
11009187,-0.966,0.136,-0.078,22.750,-14.840,10.360
11009205,-1.043,0.036,-0.101,11.550,-17.500,5.600
11009224,-1.010,-0.046,-0.131,29.680,-9.590,0.000
11009249,-0.934,-0.051,-0.110,46.340,1.330,-9.450
11009269,-0.985,-0.045,0.056,75.460,6.720,-34.860
11009288,-1.159,0.143,0.077,85.540,16.660,-21.560
11009309,-1.241,0.184,-0.073,82.880,30.590,-35.350
11009333,-1.428,0.235,-0.009,67.690,34.930,-70.980
11009352,-1.368,0.124,-0.050,55.370,30.590,-64.120
11009372,-1.400,0.017,-0.155,55.650,29.610,-71.960
11009396,-1.253,0.219,-0.191,64.890,37.170,-63.070
11009415,-1.190,0.366,-0.028,31.780,40.600,-50.820
11009439,-1.182,0.396,0.285,22.330,15.190,-23.380
11009459,-0.831,0.445,0.370,16.310,6.790,6.790
11009477,-0.864,0.412,0.439,14.420,-10.290,36.260
11009501,-0.867,0.343,0.447,19.320,-40.880,72.730
11009518,-0.872,0.300,0.380,19.600,-54.180,93.940
11009541,-0.912,0.285,0.360,12.530,-69.930,118.510
11009561,-1.004,0.221,0.285,-1.400,-80.430,133.840
11009581,-1.121,0.201,0.210,-14.560,-97.580,144.200
11009599,-1.093,0.173,0.163,-21.420,-99.400,152.950
11009623,-1.100,0.087,0.094,-35.210,-106.680,157.360
11009643,-1.163,-0.085,0.000,-24.990,-109.970,155.750
11009663,-1.227,0.025,-0.041,-28.280,-112.910,149.170
11009679,-1.255,0.035,-0.022,-35.980,-110.250,138.740
11009699,-1.181,-0.014,-0.071,-40.670,-115.780,124.460
11009723,-1.040,0.056,-0.119,-50.400,-106.750,102.690
11009742,-0.986,0.032,-0.276,-82.250,-91.280,89.250
11009762,-1.223,-0.037,-0.344,-78.120,-73.710,71.190
11009786,-1.003,-0.155,-0.126,-61.670,-63.490,49.840
11009804,-0.677,-0.152,-0.251,-43.890,-50.120,28.490
11009828,-0.688,-0.061,-0.264,-33.250,-5.250,-0.350
11009848,-0.799,-0.075,-0.247,-33.250,6.930,-17.360
11009867,-0.777,-0.111,-0.144,-21.980,30.520,-32.900
11009890,-0.776,-0.014,-0.147,-7.490,47.810,-49.070
11009910,-0.670,0.144,-0.121,3.500,58.030,-56.350
11009931,-0.923,1.478,1.407,156.870,88.270,-10.850
11009951,-1.056,0.683,-0.493,-263.690,30.520,-55.090
11009970,-0.898,-1.237,-0.268,79.030,203.630,-64.750
11009989,-2.253,0.265,0.056,-126.280,83.230,-104.790
11010012,-1.123,0.185,0.610,22.960,57.750,-101.150
11010033,-0.648,-0.150,0.233,41.230,105.070,-79.170
11010049,-0.972,-0.024,-0.229,36.120,95.830,-61.670
11010073,-1.296,-0.055,-0.279,35.070,105.630,-56.210
11010093,-1.272,0.280,0.114,50.050,79.520,-64.050
11010112,-0.672,-0.148,-0.400,1.120,91.560,-67.060
11010132,-1.325,0.003,-0.060,21.910,79.380,-63.910
11010155,-1.074,0.153,-0.037,39.830,83.860,-64.820
11010176,-0.927,0.607,0.023,5.880,85.680,-66.150
11010195,-1.007,-0.126,-0.149,-1.540,88.200,-73.220
11010219,-1.011,-0.007,-0.241,7.350,83.230,-70.560
11010238,-1.085,0.128,-0.147,26.950,90.510,-78.190
11010258,-0.908,0.111,-0.445,3.220,54.320,-85.260
11010278,-0.754,-0.335,-0.277,-12.110,81.060,-81.970
11010299,-0.938,-0.405,-0.346,-2.030,59.080,-71.260
11010323,-0.715,-0.448,-0.371,3.850,64.820,-62.720
11010340,-0.810,-0.206,-0.218,10.850,77.420,-58.590
11010362,-1.586,-0.288,-0.434,-8.050,80.010,-52.010
11010386,-0.842,-0.314,-0.439,8.120,26.530,-59.430
11010406,-0.606,-0.114,-0.585,17.500,52.640,-55.230
11010426,-0.832,-0.140,-0.476,19.460,49.210,-51.800
11010446,-0.671,-0.386,-0.430,0.210,47.740,-56.490
11010465,-0.915,-0.339,-0.426,-0.980,56.490,-51.170
11010485,-1.426,-0.336,-0.496,15.400,32.060,-50.610
11010507,-0.787,-0.421,-0.528,20.370,35.840,-48.860
11010529,-0.674,-0.418,-0.543,19.950,28.000,-38.640
11010551,-0.608,0.012,-0.516,-26.460,27.090,-31.570
11010570,-0.487,-0.656,-0.483,-33.320,46.760,-26.180
11010595,-1.320,-0.629,-0.426,1.960,22.680,-26.460
11010615,-0.731,-0.324,-0.586,10.920,11.480,-22.330
11010632,-0.663,-0.440,-0.549,12.600,25.830,-9.240
11010652,-0.707,-0.497,-0.481,2.380,17.780,-3.500
11010674,-0.698,-0.262,-0.501,-4.760,12.810,-2.450
11010694,-0.494,-0.312,-0.576,-11.620,27.090,0.280
11010718,-0.833,-0.544,-0.498,2.660,36.610,7.980
11010737,-0.842,-0.455,-0.575,-1.400,13.720,8.330
11010758,-0.604,-0.295,-0.630,-6.790,10.430,9.520
11010778,-0.754,-0.251,-0.642,-9.800,6.720,10.990
11010800,-0.582,-0.288,-0.662,-5.880,-1.050,18.340
11010819,-0.841,-0.550,-0.488,-0.490,3.080,14.280
11010842,-0.826,-0.403,-0.617,-2.450,-15.680,10.990
11010862,-0.974,-0.394,-0.624,2.100,-27.370,14.000
11010881,-0.768,-0.385,-0.646,-0.560,-41.020,16.380
11010905,-0.578,-0.396,-0.553,3.080,-41.580,18.900
11010925,-0.504,-0.470,-0.465,-7.350,-36.820,30.730
11010945,-0.683,-0.456,-0.486,-8.540,-40.250,30.800
11010962,-0.939,-0.499,-0.490,-11.200,-39.130,34.370
11010981,-1.108,-0.473,-0.464,0.910,-54.810,34.300
11011000,-0.810,-0.059,-0.650,10.220,-61.180,47.460
11011021,-0.778,-0.270,-0.432,-4.620,-45.010,59.780
11011045,-0.828,-0.455,-0.375,2.660,-64.120,51.800
11011063,-0.879,-0.430,-0.408,5.880,-76.300,44.100
11011084,-0.880,-0.150,-0.636,10.920,-77.210,54.110
11011103,-0.792,-0.160,-0.481,-0.770,-73.990,60.550
11011126,-0.897,-0.240,-0.421,1.960,-68.460,63.000
11011147,-0.878,-0.250,-0.344,1.120,-81.690,65.240
11011167,-1.026,-0.353,-0.323,6.370,-71.680,68.250
11011186,-1.356,-0.325,-0.254,11.130,-91.770,73.570
11011210,-0.868,-0.322,-0.361,17.710,-124.460,79.800
11011229,-0.286,-0.028,-0.433,12.810,-92.190,91.140
11011248,-1.225,-0.076,-0.219,5.250,-74.690,102.970
11011268,-1.610,-0.045,-0.131,5.740,-134.540,99.470
11011292,-0.938,-0.015,-0.453,3.430,-142.940,123.970
11011311,-1.009,-0.132,-0.373,-29.190,-168.630,137.480
11011332,-1.071,-0.183,-0.229,-57.680,-185.570,148.190
11011355,-1.056,-0.345,-0.914,-76.510,-165.760,149.800
11011376,-1.410,0.101,-0.819,-109.830,-50.750,162.190
11011393,-2.373,-0.224,0.544,-135.730,-150.150,166.040
11011415,-0.977,-0.102,-0.060,35.070,-130.900,130.760
11011437,-0.962,-0.203,-0.231,77.980,-101.010,117.530
11011457,-1.754,-1.294,-1.537,185.010,-99.680,71.120
11011474,0.118,-1.477,-0.732,273.630,75.810,-60.900
11011498,-0.976,0.579,-0.028,124.390,105.700,-161.770
11011517,-1.059,0.547,-0.026,-58.520,101.360,-207.620
11011537,-0.989,-0.058,-0.019,-151.060,132.860,-225.750
11011561,-1.093,-0.395,-0.134,-152.110,126.630,-222.250
11011581,-1.133,-0.495,-0.132,-96.180,159.740,-214.270
11011601,-1.277,-0.169,-0.027,-26.250,150.080,-195.370
11011619,-1.246,0.127,-0.022,8.190,149.170,-175.910
11011643,-1.105,0.280,-0.125,18.690,134.960,-151.340
11011662,-0.911,0.066,-0.145,42.490,133.700,-129.010
11011683,-0.966,0.085,-0.008,95.340,117.180,-98.910
11011702,-1.034,0.341,0.005,115.360,98.350,-76.440
11011724,-1.063,0.471,0.034,97.580,85.750,-49.490
11011746,-1.057,0.334,-0.030,79.940,75.110,-24.990
11011766,-1.153,0.206,-0.006,76.440,50.190,-5.110
11011783,-0.976,0.299,-0.107,56.420,45.150,11.620
11011807,-1.193,0.479,-0.091,35.140,52.010,42.280
11011827,-1.334,0.535,0.187,17.850,32.830,58.660
11011847,-1.166,0.263,0.289,57.260,12.250,72.170
11011870,-1.064,0.418,0.182,55.300,-5.390,80.290
11011891,-1.056,0.341,0.122,50.680,-22.260,94.990
11011908,-0.975,0.630,-0.038,28.630,-33.460,114.660
11011932,-1.362,0.165,0.141,4.270,-48.090,118.020
11011951,-1.214,-0.179,-0.891,-35.700,12.320,91.840
11011968,-1.484,0.034,0.104,-15.400,-34.510,68.040
11011987,-0.900,0.253,-0.362,-32.060,-21.000,58.450
11012007,-1.317,0.005,-0.157,-38.080,-4.900,51.380
11012031,-1.336,-0.125,-0.025,-27.160,-8.610,35.560
11012052,-1.269,-0.174,-0.086,-17.920,-14.770,20.720
11012071,-0.889,-0.001,-0.344,-26.530,-3.780,25.270
11012094,-0.967,-0.061,-0.262,-12.600,8.470,29.400
11012115,-1.017,-0.046,-0.247,13.790,2.800,27.720
11012132,-0.971,0.156,-0.305,1.400,5.040,24.220
11012155,-0.960,0.107,-0.304,-10.010,11.760,15.120
11012175,-1.005,0.056,-0.334,-6.580,9.030,5.250
11012194,-1.014,-0.048,-0.326,-0.630,6.650,0.700
11012218,-1.021,-0.049,-0.278,6.090,2.030,-1.050
11012238,-0.953,0.024,-0.304,10.290,6.790,-0.350
11012257,-0.984,0.038,-0.299,11.270,3.920,-1.610
11012273,-0.958,-0.020,-0.302,10.710,4.410,-2.940
11012297,-0.929,0.036,-0.285,7.350,6.790,-6.510
11012318,-0.917,0.024,-0.355,7.840,7.840,-9.800
11012338,-0.935,0.070,-0.347,6.930,6.230,-14.420
11012356,-0.931,0.100,-0.289,6.230,7.630,-19.950
11012374,-0.892,-0.046,-0.231,0.140,17.780,-26.110
11012393,-0.974,0.084,-0.282,-0.770,17.430,-31.360
11012418,-0.928,-0.012,-0.291,8.890,22.120,-38.710
11012438,-0.924,-0.110,-0.358,12.950,23.100,-41.160
11012458,-0.910,-0.104,-0.343,12.180,26.810,-42.000
11012477,-0.967,-0.061,-0.326,17.570,31.780,-45.430
11012500,-1.005,-0.067,-0.356,24.360,33.950,-49.490
11012519,-0.955,-0.124,-0.414,21.490,30.730,-49.070
11012541,-0.882,-0.234,-0.422,32.830,34.370,-47.250
11012565,-0.896,-0.119,-0.364,23.940,34.930,-47.390
11012584,-0.782,-0.279,-0.521,26.600,34.230,-45.710
11012605,-1.035,-0.306,-0.339,35.350,33.530,-51.940
11012625,-0.986,-0.321,-0.379,28.770,34.860,-59.850
11012649,-0.951,-0.369,-0.457,21.840,27.370,-66.710
11012669,-0.961,-0.314,-0.426,33.320,35.560,-63.560
11012689,-0.948,-0.298,-0.460,27.300,36.470,-67.620
11012709,-0.909,-0.345,-0.488,25.690,53.200,-68.180
11012732,-0.853,-0.317,-0.478,29.820,30.380,-64.330
11012753,-0.870,-0.320,-0.520,30.590,24.850,-68.740
11012772,-0.899,-0.367,-0.511,26.180,21.840,-75.040
11012797,-0.905,-0.422,-0.475,19.040,23.100,-69.510
11012814,-0.957,-0.398,-0.369,15.190,18.970,-66.570
11012838,-0.903,-0.554,-0.446,15.050,11.760,-82.320
11012857,-0.972,-0.457,-0.479,18.620,10.010,-94.640
11012876,-0.927,-0.235,-0.577,-10.010,12.110,-101.080
11012896,-0.810,-0.497,-0.565,-10.640,2.240,-78.470
11012918,-0.370,-0.803,-0.536,23.450,24.290,-72.030
11012937,-0.685,-0.555,-0.407,39.410,17.920,-72.450
11012957,-0.466,-0.598,-0.411,27.300,10.570,-65.520
11012981,-0.298,-0.624,-0.514,26.040,15.190,-66.430
11013002,-0.430,-0.549,-0.438,22.610,33.040,-56.840
11013022,-0.514,-0.554,-0.379,5.180,24.710,-55.160
11013046,-0.373,-0.680,-0.415,-9.100,6.090,-66.990
11013066,-0.114,-0.738,-0.407,1.330,28.700,-68.180
11013085,-0.284,-0.758,-0.505,7.070,29.400,-62.300
11013109,-0.444,-0.765,-0.457,16.380,39.200,-64.330
11013129,-0.445,-0.610,-0.407,12.250,30.940,-67.270
11013144,-0.330,-0.681,-0.408,-1.890,36.960,-66.850
11013169,-0.292,-0.805,-0.450,-11.970,34.230,-68.460
11013189,-0.316,-0.821,-0.502,-2.870,35.700,-69.230
11013209,-0.321,-0.712,-0.515,-8.610,24.570,-69.440
11013226,-0.177,-0.805,-0.578,-23.940,23.590,-63.560
11013246,-0.129,-0.993,-0.586,-1.260,29.960,-56.420
11013267,-0.271,-0.906,-0.588,1.960,35.420,-49.700
11013291,-0.343,-0.800,-0.597,5.180,36.750,-43.260
11013309,-0.333,-0.829,-0.579,7.070,37.450,-44.660
11013329,-0.215,-0.762,-0.505,-0.490,32.690,-45.640
11013353,-0.190,-0.802,-0.507,-4.060,34.440,-50.960
11013373,-0.126,-0.748,-0.568,-18.550,24.290,-52.780
11013392,-0.177,-0.706,-0.571,-22.470,23.800,-54.950
11013411,-0.039,-0.773,-0.611,-25.620,13.720,-52.570
11013435,0.132,-0.852,-0.699,-19.530,11.270,-43.260
11013454,0.043,-0.835,-0.732,-8.820,14.910,-32.270
11013479,-0.060,-0.815,-0.688,1.610,17.430,-18.340
11013502,-0.081,-0.825,-0.619,8.820,19.530,-14.490
11013521,0.020,-0.789,-0.509,4.200,18.690,-13.510
11013546,0.038,-0.841,-0.501,-6.930,8.260,-11.550
11013566,0.040,-0.869,-0.578,-12.530,-2.660,-9.660
11013584,-0.023,-0.813,-0.662,-14.070,-4.200,-8.330
11013606,0.024,-0.819,-0.675,-14.770,-5.810,-1.610
11013626,0.010,-0.874,-0.730,-2.870,-9.310,4.480
11013646,0.028,-0.787,-0.678,2.450,-11.060,12.250
11013666,0.037,-0.831,-0.687,4.760,-7.980,20.720
11013684,-0.026,-0.848,-0.590,7.770,-14.770,26.180
11013705,-0.075,-0.816,-0.568,6.720,-19.460,29.540
11013724,-0.114,-0.819,-0.613,-0.770,-22.680,30.450
11013748,-0.171,-0.755,-0.646,-9.170,-28.350,29.400
11013768,-0.154,-0.848,-0.711,-6.720,-30.170,30.520
11013788,-0.148,-0.810,-0.670,2.870,-34.720,33.950
11013812,-0.084,-0.805,-0.679,2.380,-31.710,38.430
11013831,-0.136,-0.773,-0.615,2.170,-34.440,41.370
11013850,-0.129,-0.822,-0.568,3.780,-38.150,44.520
11013871,-0.161,-0.842,-0.550,8.750,-45.220,45.640
11013895,-0.125,-0.780,-0.606,-1.330,-48.300,51.660
11013915,-0.128,-0.767,-0.570,-16.660,-43.610,55.230
11013934,-0.161,-0.744,-0.579,-24.640,-44.870,60.830
11013954,-0.219,-0.794,-0.560,-21.770,-48.370,61.810
11013973,-0.147,-0.802,-0.486,-19.320,-50.820,66.850
11013997,0.004,-0.860,-0.595,-26.110,-56.280,75.950
11014014,-0.040,-0.691,-0.541,-24.360,-56.140,84.770
11014038,-0.057,-0.677,-0.589,-33.670,-58.870,94.780
11014057,-0.183,-0.614,-0.541,-33.600,-59.290,97.090
11014078,-0.383,-0.502,-0.649,-39.200,-74.760,98.980
11014096,-0.410,-0.485,-0.672,-36.960,-84.070,103.460
11014120,-0.313,-0.513,-0.502,-32.970,-87.080,116.340
11014137,-0.192,-0.629,-0.478,-28.980,-71.470,123.760
11014156,-0.478,-0.675,-0.331,-14.280,-65.380,126.770
11014181,-0.866,-0.550,-0.191,-9.590,-59.360,119.490
11014201,-0.998,-0.287,-0.260,-15.400,-59.990,105.280
11014221,-0.961,-0.222,-0.640,-13.510,-53.270,90.930
11014241,-1.046,-0.087,-0.727,-6.580,-39.200,79.660
11014256,-1.038,-0.183,-0.557,-4.690,-36.330,69.230
11014280,-1.074,-0.268,-0.512,-17.570,-56.490,61.250
11014300,-0.929,-0.269,-0.438,-35.910,-60.620,62.370
11014319,-0.960,-0.681,-0.277,-35.700,-55.160,63.000
11014344,-1.159,-0.544,-0.491,-7.140,-45.780,64.470
11014364,-1.309,-0.426,-0.337,11.900,-44.030,63.700
11014384,-1.065,-0.391,-0.392,16.030,-50.400,51.730
11014404,-0.793,-0.279,-0.522,13.790,-49.490,57.120
11014424,-0.688,-0.305,-0.439,19.250,-40.740,59.920
11014441,-0.900,-0.118,-0.366,24.430,-41.510,58.520
11014464,-0.921,-0.029,-0.346,15.120,-45.990,47.670
11014482,-0.831,-0.129,-0.283,13.300,-40.740,40.320
11014506,-0.899,-0.119,-0.278,4.480,-44.240,27.860
11014525,-0.813,0.259,-0.456,-53.550,-51.030,24.710
11014545,-0.480,0.148,-0.425,-103.880,-37.030,12.040
11014564,-0.909,-0.255,-0.054,-98.840,-6.720,10.570
11014584,-1.414,-0.425,-0.050,-72.800,-25.410,2.730
11014609,-1.037,-0.331,-0.405,-29.680,-27.440,14.280
11014627,-0.708,-0.118,-0.465,-15.750,-17.080,14.980
11014651,-0.941,-0.074,-0.272,-18.900,-12.600,17.150
11014671,-1.097,0.023,-0.324,-43.750,-20.090,18.900
11014689,-1.028,-0.177,-0.287,-42.420,-31.290,26.530
11014708,-0.984,-0.321,-0.259,-18.900,-21.770,22.680
11014733,-1.052,-0.080,-0.269,-0.700,-22.960,19.600
11014753,-0.988,0.018,-0.233,-5.110,-24.990,13.020
11014773,-0.935,0.040,-0.191,-10.080,-14.980,2.590
11014793,-0.952,0.175,-0.169,-12.950,-9.940,-9.800
11014812,-0.863,0.029,-0.175,-24.360,-1.960,-18.690
11014830,-0.959,-0.024,-0.197,-14.280,7.490,-25.760
11014854,-1.039,-0.086,-0.184,19.460,15.050,-40.180
11014875,-1.078,0.032,-0.198,42.560,19.740,-55.790
11014893,-1.064,0.236,-0.192,32.830,34.650,-66.990
11014917,-1.191,-0.101,-0.246,14.490,50.540,-77.560
11014937,-1.477,-0.235,-0.228,33.880,51.310,-80.920
11014955,-1.481,0.092,-0.223,37.100,56.140,-87.430
11014972,-1.468,0.006,-0.226,34.650,71.820,-94.500
11014997,-1.552,-0.037,-0.225,37.170,50.050,-85.750
11015017,-1.583,-0.130,-0.394,30.310,53.970,-99.190
11015035,-1.495,0.037,-0.395,5.250,23.170,-98.350
11015055,-0.754,-0.090,-0.301,-24.990,3.220,-69.020
11015078,-0.673,0.018,0.356,8.470,-0.770,-10.080
11015099,-0.610,0.380,0.244,44.240,-21.630,51.590
11015119,-0.708,0.800,0.459,-4.970,-41.580,87.710
11015143,-0.739,0.447,0.391,-12.670,-56.420,119.140
11015163,-0.820,0.157,0.215,-11.200,-84.140,144.550
11015182,-0.924,-0.075,0.210,-9.800,-100.310,159.600
11015203,-1.060,-0.049,0.173,5.460,-121.520,175.980
11015221,-1.076,-0.025,0.112,1.120,-127.750,186.690
11015245,-1.112,0.024,0.065,-20.440,-135.100,197.400
11015264,-1.226,-0.016,0.013,-39.410,-138.810,200.130
11015282,-1.292,-0.045,-0.065,-53.970,-144.480,198.170
11015306,-1.379,-0.007,-0.112,-74.200,-148.960,179.410
11015324,-1.337,-0.011,-0.142,-88.480,-157.780,166.180
11015345,-1.261,-0.052,-0.282,-83.650,-152.950,153.300
11015367,-1.302,0.045,-0.396,-67.060,-138.460,141.960
11015386,-1.233,0.090,-0.386,-61.320,-124.810,129.430
11015411,-1.178,-0.118,-0.245,-44.240,-105.140,98.490
11015431,-0.900,-0.090,-0.239,-39.410,-85.260,66.780
11015449,-0.883,0.204,-0.201,-51.590,-64.750,47.180
11015470,-0.803,-0.047,-0.161,-59.430,-28.420,17.920
11015493,-0.694,-0.062,-0.098,-29.890,-11.620,-11.130
11015517,-0.749,0.112,-0.193,-28.770,22.190,-29.750
11015537,-0.795,0.078,-0.112,-43.330,42.630,-43.680
11015561,-0.723,0.091,-0.170,-12.390,75.390,-50.120
11015579,-0.996,1.164,1.454,188.790,95.620,-21.700
11015601,-0.883,-0.038,-0.372,-166.880,30.170,-56.070
11015626,-1.021,-0.739,0.860,146.440,174.370,-81.970
11015644,-1.328,0.088,-0.186,-19.810,70.280,-82.040
11015668,-1.537,-0.127,0.121,41.440,95.340,-81.900
11015688,-0.997,0.160,0.031,38.010,87.430,-74.900
11015707,-1.010,-0.090,-0.300,15.820,96.600,-62.370
11015728,-1.328,-0.149,-0.439,32.550,113.120,-55.930
11015748,-1.320,0.590,0.044,39.620,35.210,-48.090
11015768,-0.937,-0.076,-0.260,14.560,115.920,-50.050
11015787,-1.247,0.081,-0.139,-8.610,42.840,-38.640
11015808,-1.206,-0.189,0.013,70.210,94.010,-48.860
11015831,-0.599,0.031,-0.257,21.630,80.500,-40.320
11015850,-1.195,0.447,-0.101,24.150,55.790,-43.190
11015870,-0.804,0.074,-0.341,-35.210,75.810,-52.010
11015895,-1.004,-0.008,-0.104,-6.720,54.390,-51.030
11015915,-0.976,-0.314,-0.290,11.550,62.020,-52.570
11015934,-1.033,-0.002,-0.227,25.620,46.620,-47.740
11015955,-0.947,0.205,-0.166,17.150,59.570,-44.940
11015974,-1.054,0.217,-0.227,-3.080,54.530,-43.960
11016000,-0.925,-0.235,-0.344,-1.890,50.190,-40.250
11016019,-1.077,-0.183,-0.249,12.880,51.100,-38.150
11016039,-1.052,-0.064,-0.296,19.250,37.170,-42.700
11016058,-0.948,0.173,-0.333,13.370,39.620,-46.480
11016082,-0.709,-0.145,-0.545,-7.840,57.330,-44.030
11016101,-1.088,-0.325,-0.296,8.610,46.200,-40.530
11016121,-0.953,-0.209,-0.355,18.410,58.450,-41.510
11016142,-1.141,0.086,-0.324,20.230,44.730,-46.200
11016166,-0.603,0.055,-0.502,-19.530,23.170,-47.810
11016186,-0.804,-0.614,-0.281,13.790,81.060,-37.100
11016204,-1.042,-0.297,-0.502,8.260,23.520,-38.500
11016226,-0.996,-0.163,-0.440,5.110,40.670,-43.610
11016244,-0.899,-0.200,-0.487,-2.590,17.640,-44.030
11016268,-0.780,-0.217,-0.532,-0.980,26.460,-38.080
11016288,-0.705,-0.327,-0.513,1.190,19.040,-33.600
11016308,-0.689,-0.306,-0.574,3.920,17.570,-27.300
11016327,-0.900,-0.341,-0.506,0.770,28.420,-22.260
11016346,-1.088,-0.422,-0.521,7.420,12.950,-18.690
11016367,-0.948,-0.320,-0.548,8.680,-4.270,-17.150
11016387,-0.754,-0.362,-0.511,9.520,-2.030,-11.060
11016406,-0.810,-0.363,-0.551,10.920,-5.600,-4.200
11016431,-0.825,-0.310,-0.556,8.610,-9.240,2.310
11016451,-0.889,-0.212,-0.492,2.310,-20.440,6.930
11016471,-0.851,-0.371,-0.477,-6.720,-20.370,12.040
11016491,-0.912,-0.486,-0.398,-0.350,-21.210,11.410
11016515,-0.953,-0.247,-0.549,6.300,-52.710,15.400
11016533,-0.724,-0.216,-0.483,-7.420,-34.930,21.840
11016554,-0.913,-0.305,-0.481,-2.240,-48.300,27.300
11016573,-0.868,-0.211,-0.461,-7.280,-56.070,28.980
11016598,-0.804,-0.330,-0.477,-8.330,-53.620,37.240
11016616,-0.885,-0.326,-0.356,-6.580,-54.110,39.340
11016636,-0.879,-0.361,-0.267,-3.360,-53.690,41.370
11016660,-0.973,-0.318,-0.395,-3.220,-66.710,39.340
11016679,-0.995,-0.114,-0.481,4.060,-73.010,48.370
11016700,-0.716,-0.267,-0.345,-3.290,-74.480,51.030
11016718,-0.827,-0.227,-0.375,3.850,-65.800,55.020
11016740,-1.250,-0.267,-0.261,4.480,-72.870,61.040
11016764,-1.070,-0.290,-0.294,9.800,-100.030,65.170
11016783,-0.965,-0.202,-0.266,15.820,-96.040,71.470
11016803,-0.900,-0.202,-0.365,11.830,-118.510,80.990
11016822,-0.779,-0.093,-0.362,17.500,-105.140,97.370
11016847,-1.233,-0.113,-0.176,0.700,-134.260,118.720
11016862,-1.087,-0.127,-0.025,4.550,-139.370,126.000
11016882,-1.259,-0.150,-0.184,-28.560,-172.830,130.340
11016902,-0.913,-0.303,-0.321,-37.450,-160.650,137.060
11016927,-0.910,0.064,-1.125,-68.390,-102.760,172.620
11016947,-1.805,-0.016,-0.370,-120.260,-90.160,162.050
11016971,-1.344,-0.299,0.233,-80.570,-149.030,129.220
11016988,-1.279,0.152,-0.095,-17.710,-111.370,108.010
11017012,-1.005,-0.072,0.084,18.130,-87.430,84.980
11017036,-1.318,-1.010,-1.118,14.000,-38.500,-0.280
11017056,-0.673,-0.857,-0.482,68.250,59.360,-76.230
11017072,-0.592,0.179,-0.218,35.280,103.110,-125.160
11017096,-0.889,0.238,-0.257,-68.390,138.040,-160.300
11017113,-1.215,-0.238,-0.533,-101.780,167.370,-167.370
11017131,-1.312,-0.321,-0.594,-38.920,165.130,-168.210
11017156,-1.248,-0.466,-0.461,18.760,180.950,-153.020
11017176,-1.288,-0.401,-0.201,145.740,152.530,-138.110
11017192,-1.057,-0.287,-0.131,209.160,153.160,-138.880
11017216,-1.119,0.281,-0.144,217.350,152.880,-142.800
11017232,-1.089,0.333,0.085,160.930,138.460,-142.800
11017251,-1.088,0.134,0.190,132.790,131.530,-130.620
11017276,-1.017,0.423,0.236,75.950,114.240,-109.900
11017295,-0.956,0.459,0.221,31.640,111.510,-86.730
11017314,-1.198,0.292,0.326,12.950,102.830,-56.980
11017338,-1.185,0.155,0.227,30.730,80.850,-23.800
11017355,-1.331,0.330,0.309,52.220,60.480,0.350
11017379,-1.086,0.366,0.258,44.730,25.830,15.260
11017398,-0.936,0.327,0.073,47.530,26.530,39.200
11017419,-1.356,0.264,-0.061,81.620,9.730,68.320
11017436,-1.396,0.419,0.206,104.510,-12.880,81.410
11017456,-1.144,0.257,0.160,98.420,-24.640,78.680
11017480,-1.111,0.351,0.055,86.730,-37.800,78.400
11017496,-0.951,0.724,-0.048,24.850,-32.410,86.590
11017516,-0.699,0.313,-0.867,-190.400,-5.460,76.930
11017538,-1.379,0.046,-0.071,-114.940,-7.280,77.910
11017558,-1.057,-0.235,-0.358,-55.510,-17.290,80.080
11017577,-1.149,0.054,-0.551,15.470,-15.120,75.320
11017602,-1.176,0.263,-0.185,-20.580,-26.880,61.600
11017622,-1.464,-0.164,0.086,-30.170,-5.320,37.870
11017645,-1.488,-0.069,-0.061,-32.760,-18.900,25.270
11017666,-0.892,-0.041,-0.444,-18.410,-0.840,20.650
11017686,-0.835,-0.083,-0.420,5.250,-1.960,27.160
11017706,-1.112,0.001,-0.168,9.590,-5.390,28.770
11017725,-1.024,0.013,-0.180,4.760,-9.170,26.600
11017749,-0.901,-0.098,-0.258,-2.450,-5.460,30.800
11017770,-1.017,-0.047,-0.243,20.160,-5.180,24.500
11017789,-0.911,0.176,-0.247,26.600,-2.870,12.740
11017813,-0.918,0.178,-0.234,9.310,4.270,3.500
11017833,-0.985,0.032,-0.279,-8.190,5.040,-1.470
11017849,-0.983,-0.045,-0.303,2.730,4.900,-0.350
11017868,-0.944,0.018,-0.276,1.610,4.270,-2.170
11017893,-1.015,0.020,-0.264,4.970,6.650,-3.080
11017913,-0.999,0.003,-0.268,8.400,7.630,-2.730
11017932,-0.940,0.041,-0.303,6.580,8.470,-5.320
11017957,-0.945,0.022,-0.252,6.930,12.250,-7.630
11017977,-0.953,0.071,-0.277,8.330,13.720,-12.600
11017997,-0.914,0.047,-0.319,0.840,17.640,-18.830
11018016,-0.938,0.138,-0.261,-1.680,20.370,-24.570
11018041,-0.903,0.084,-0.337,-8.120,25.550,-35.350
11018061,-0.984,-0.075,-0.320,-10.640,24.080,-39.270
11018079,-1.021,-0.118,-0.360,-5.670,22.190,-40.950
11018100,-0.944,-0.036,-0.276,-0.630,25.760,-43.680
11018118,-0.980,-0.078,-0.269,14.000,33.180,-45.150
11018142,-0.956,-0.109,-0.311,21.140,30.380,-52.850
11018162,-0.937,-0.001,-0.389,25.480,27.160,-61.390
11018181,-0.880,-0.046,-0.431,16.870,25.200,-68.460
11018197,-0.921,-0.152,-0.464,14.000,22.610,-66.150
11018217,-0.917,-0.225,-0.434,10.710,27.230,-57.820
11018241,-0.929,-0.344,-0.386,13.300,31.220,-52.430
11018260,-0.924,-0.328,-0.443,27.370,29.190,-49.280
11018279,-0.970,-0.247,-0.448,28.770,30.100,-49.000
11018298,-0.960,-0.306,-0.446,26.530,28.280,-48.020
11018323,-0.973,-0.329,-0.447,29.050,31.500,-46.830
11018340,-1.005,-0.288,-0.406,36.820,31.920,-50.680
11018364,-0.950,-0.308,-0.464,31.080,26.740,-57.960
11018383,-0.923,-0.390,-0.432,33.880,29.750,-58.940
11018399,-0.970,-0.371,-0.426,34.160,27.440,-65.100
11018423,-0.984,-0.437,-0.439,41.930,25.200,-68.600
11018442,-1.034,-0.401,-0.433,43.400,27.020,-73.150
11018467,-1.057,-0.235,-0.463,41.300,25.620,-70.140
11018482,-1.006,-0.320,-0.407,29.260,15.890,-66.290
11018502,-0.861,-0.495,-0.435,35.000,7.000,-77.980
11018522,-0.890,-0.293,-0.436,30.030,7.560,-91.350
11018547,-0.946,-0.311,-0.483,9.100,4.620,-89.880
11018567,-0.789,-0.383,-0.494,5.810,-1.470,-80.710
11018585,-0.601,-0.535,-0.519,14.140,39.060,-64.750
11018606,-0.732,-0.770,-0.267,16.310,21.700,-70.910
11018630,-0.449,-0.420,-0.362,26.320,7.420,-85.680
11018652,-0.574,-0.559,-0.411,9.030,8.400,-94.010
11018670,-0.471,-0.468,-0.350,-6.230,19.320,-90.370
11018690,-0.284,-0.628,-0.373,-17.640,17.220,-88.480
11018714,-0.271,-0.707,-0.439,-9.380,26.390,-87.290
11018731,-0.367,-0.730,-0.427,-14.630,20.720,-86.590
11018755,-0.330,-0.783,-0.387,-16.730,18.060,-89.040
11018775,-0.308,-0.647,-0.355,-30.940,20.580,-91.350
11018795,-0.244,-0.765,-0.414,-49.700,4.340,-86.380
11018814,-0.071,-0.930,-0.502,-46.480,0.490,-88.060
11018839,-0.031,-0.838,-0.498,-41.650,-1.330,-81.830
11018859,-0.046,-0.709,-0.549,-51.800,-0.770,-76.230
11018877,-0.058,-0.735,-0.612,-56.490,5.180,-69.440
11018897,-0.224,-0.806,-0.641,-47.110,3.710,-67.060
11018921,-0.096,-0.756,-0.601,-32.410,3.290,-62.510
11018941,-0.071,-0.691,-0.651,-30.240,10.150,-52.150
11018961,-0.222,-0.742,-0.755,-24.150,19.180,-45.640
11018981,-0.251,-0.683,-0.737,-15.750,21.560,-43.120
11019001,-0.186,-0.682,-0.696,-8.820,24.570,-40.880
11019021,-0.112,-0.712,-0.683,-0.980,24.080,-31.920
11019045,-0.070,-0.813,-0.761,1.960,27.720,-19.320
11019065,-0.146,-0.827,-0.722,12.880,37.100,-11.410
11019084,-0.208,-0.783,-0.711,24.780,32.620,-7.420
11019101,-0.237,-0.779,-0.660,31.570,40.670,-5.950
11019121,-0.272,-0.714,-0.577,28.980,41.300,-9.800
11019145,-0.247,-0.845,-0.529,19.950,33.320,-13.860
11019165,-0.213,-0.845,-0.412,10.570,18.830,-22.260
11019184,-0.061,-0.780,-0.413,-8.960,12.600,-27.580
11019205,-0.081,-0.770,-0.509,-32.270,3.290,-31.290
11019225,-0.152,-0.792,-0.687,-43.750,-3.430,-36.330
11019244,-0.198,-0.672,-0.749,-39.690,-3.360,-33.880
11019268,0.013,-0.766,-0.906,-29.960,1.680,-18.550
11019288,0.166,-0.921,-0.831,-10.150,-3.780,-3.500
11019312,0.258,-0.934,-0.713,9.100,-9.380,19.250
11019330,0.097,-0.886,-0.678,7.700,-15.820,32.900
11019354,-0.048,-0.830,-0.622,1.820,-22.540,46.340
11019374,-0.093,-0.861,-0.646,-1.960,-27.300,49.910
11019394,-0.177,-0.824,-0.618,-1.820,-36.120,51.450
11019413,-0.160,-0.803,-0.643,0.000,-43.120,51.380
11019438,-0.152,-0.732,-0.629,-3.780,-47.460,50.400
11019453,-0.174,-0.665,-0.637,-7.840,-54.110,54.110
11019478,-0.063,-0.864,-0.781,-17.500,-54.880,59.430
11019498,-0.111,-0.839,-0.747,-1.610,-57.540,68.460
11019518,-0.116,-0.738,-0.697,14.420,-55.580,77.280
11019538,-0.136,-0.619,-0.668,18.690,-53.060,83.300
11019561,-0.189,-0.591,-0.640,15.890,-48.230,87.640
11019577,-0.234,-0.638,-0.615,12.600,-49.980,90.510
11019602,-0.217,-0.700,-0.560,13.090,-52.990,92.190
11019620,-0.172,-0.482,-0.456,2.870,-52.780,96.880
11019640,-0.221,-0.498,-0.523,-25.480,-63.280,100.800
11019661,-0.263,-0.546,-0.687,-37.310,-69.790,100.730
11019682,-0.408,-0.472,-0.823,-48.370,-71.050,111.440
11019705,-0.347,-0.595,-0.962,-32.620,-72.240,123.900
11019725,-0.211,-0.670,-0.796,6.090,-63.770,144.550
11019749,-0.289,-0.917,-0.540,53.620,-44.870,155.190
11019769,-0.626,-0.701,-0.013,75.180,-36.470,148.960
11019785,-0.956,-0.374,0.237,43.750,-45.500,128.520
11019809,-1.225,-0.044,-0.132,-13.650,-66.010,106.400
11019824,-1.011,0.078,-0.658,-43.820,-59.220,101.290
11019848,-1.076,-0.321,-0.684,-23.170,-55.370,106.890
11019869,-1.066,-0.441,-0.346,24.430,-69.930,87.430
11019889,-1.073,-0.120,-0.332,0.280,-72.800,79.450
11019907,-1.016,-0.119,-0.245,-27.230,-52.290,76.580
11019929,-1.134,-0.445,-0.306,-12.250,-52.780,60.830
11019953,-1.174,-0.397,-0.213,-9.310,-41.160,56.350
11019973,-1.083,-0.171,-0.314,-21.840,-41.440,52.990
11019993,-0.935,-0.212,-0.260,-17.360,-35.280,48.930
11020012,-0.906,-0.226,-0.252,-19.320,-34.440,44.520
11020032,-0.728,0.062,-0.278,-21.350,-31.990,40.460
11020055,-0.952,-0.202,-0.379,-27.930,-30.240,38.430
11020079,-0.877,-0.236,-0.260,-21.140,-38.920,33.880
11020097,-0.892,-0.063,-0.280,-19.180,-30.310,30.940
11020116,-1.027,0.009,-0.292,-24.710,-23.170,26.460
11020141,-1.057,-0.034,-0.302,-34.160,-29.750,22.120
11020160,-0.914,-0.060,-0.295,-42.070,-26.320,22.540
11020181,-0.952,-0.130,-0.253,-43.260,-18.200,21.140
11020201,-1.029,-0.144,-0.284,-35.630,-20.790,22.120
11020221,-1.061,-0.032,-0.285,-28.420,-23.660,27.720
11020240,-0.919,-0.067,-0.276,-19.670,-23.030,23.590
11020262,-1.124,0.036,-0.219,-21.210,-17.920,17.430
11020282,-0.985,0.061,-0.236,-29.750,-20.230,10.430
11020306,-0.961,-0.243,-0.160,-28.840,-13.510,7.070
11020323,-0.953,0.049,-0.276,-15.470,-12.040,7.700
11020347,-0.966,0.132,-0.262,-37.520,-12.250,3.640
11020367,-1.029,-0.005,-0.179,-40.880,-11.690,-1.190
11020386,-1.014,-0.080,-0.216,-33.390,-11.900,-3.780
11020405,-0.999,-0.063,-0.204,-22.610,-11.760,-3.850
11020425,-0.972,-0.043,-0.198,-12.460,-9.100,-5.530
11020448,-0.979,0.051,-0.162,-6.720,-8.050,-11.060
11020466,-0.970,0.071,-0.228,-10.710,-3.920,-18.690
11020486,-0.988,0.147,-0.205,-17.920,-0.980,-25.200
11020510,-1.009,0.064,-0.083,13.510,3.360,-44.940
11020529,-0.950,-0.038,-0.076,33.110,16.520,-62.090
11020548,-1.074,-0.041,-0.051,40.250,24.570,-72.870
11020570,-1.260,-0.062,-0.210,53.340,37.590,-85.050
11020590,-1.423,0.149,-0.005,58.380,39.620,-88.970
11020614,-1.474,0.117,-0.371,65.170,60.410,-102.760
11020634,-1.630,0.274,-0.245,44.240,50.680,-108.430
11020651,-1.463,-0.031,-0.271,44.450,48.930,-114.030
11020675,-1.277,-0.078,-0.330,28.980,49.280,-104.720
11020695,-1.142,0.059,0.045,48.650,49.420,-67.900
11020714,-0.878,0.354,0.089,17.570,16.170,-25.620
11020733,-0.807,0.667,0.372,11.760,10.920,27.020
11020753,-0.922,0.321,0.305,-4.270,-18.060,55.160
11020777,-0.911,0.300,0.381,-2.310,-39.550,100.240
11020792,-0.941,0.224,0.345,-9.310,-53.760,117.460
11020817,-1.050,0.090,0.210,-14.000,-85.050,140.280
11020835,-1.036,0.076,0.171,-21.980,-97.230,152.600
11020854,-1.128,0.057,0.121,-32.760,-113.470,166.600
11020878,-1.140,0.022,0.016,-52.990,-123.970,177.520
11020894,-1.183,-0.007,-0.046,-61.740,-131.250,182.350
11020919,-1.214,-0.083,-0.135,-66.360,-137.130,182.910
11020935,-1.231,-0.054,-0.202,-67.830,-136.850,181.720
11020955,-1.268,-0.055,-0.241,-59.920,-138.670,178.150
11020975,-1.304,-0.090,-0.268,-49.070,-138.740,173.250
11020999,-1.280,-0.109,-0.268,-36.610,-143.430,156.100
11021019,-1.134,0.001,-0.238,-23.520,-132.020,142.940
11021039,-1.006,-0.031,-0.289,-31.780,-113.400,123.200
11021059,-1.215,0.071,-0.141,-33.250,-96.530,97.160
11021079,-0.961,0.132,-0.061,-44.030,-86.520,68.740
11021099,-0.799,0.070,-0.032,-66.010,-66.150,52.360
11021116,-0.752,0.118,0.070,-58.450,-45.640,39.340
11021136,-0.940,0.107,0.098,-52.290,-25.620,10.010
11021156,-0.697,0.277,0.114,-49.560,-17.080,-12.530
11021179,-0.633,0.361,0.080,-73.570,7.700,-21.700
11021198,-0.666,0.196,-0.022,-62.370,26.810,-26.950
11021222,-0.661,0.106,-0.126,-49.560,42.700,-37.520
11021242,-0.856,0.163,-0.324,-16.940,72.730,-52.220
11021261,-1.190,1.318,1.543,155.050,132.160,-41.580
11021285,-0.460,-0.086,-0.559,-87.430,152.390,-98.210
11021305,-2.141,0.053,0.707,80.570,229.250,-91.490
11021325,-1.693,-0.177,-0.196,92.820,100.310,-116.410
11021349,-0.232,0.162,0.385,-1.820,58.660,-124.670
11021368,-0.889,0.113,-0.096,13.230,159.530,-97.160
11021388,-1.342,-0.081,-0.417,24.500,130.130,-84.070
11021412,-1.451,-0.322,-0.111,75.600,122.150,-91.490
11021429,-0.759,0.014,-0.491,20.930,96.810,-88.550
11021449,-1.103,-0.158,-0.184,38.220,121.100,-81.760
11021473,-1.101,0.863,0.038,20.160,104.370,-82.950
11021493,-1.022,-0.260,-0.295,11.690,99.050,-87.360
11021513,-1.098,0.043,-0.358,8.470,80.220,-76.790
11021533,-1.087,0.067,-0.294,6.160,67.480,-82.600
11021557,-0.696,-0.049,-0.291,2.100,51.590,-84.700
11021575,-0.442,-0.317,-0.247,0.350,82.600,-80.710
11021599,-1.192,-0.211,-0.270,3.780,77.420,-77.280
11021619,-1.050,-0.201,-0.396,3.710,60.130,-77.630
11021637,-1.221,-0.151,-0.499,-0.560,56.700,-70.980
11021658,-1.031,-0.371,-0.343,5.600,49.630,-71.750
11021681,-0.899,-0.242,-0.532,0.490,27.510,-74.410
11021701,-0.451,0.265,-0.728,-30.800,46.340,-68.810
11021725,-0.365,-0.164,-0.631,-44.240,74.620,-62.020
11021745,-1.467,-0.745,-0.176,-13.860,99.400,-50.890
11021765,-1.111,-0.816,-0.266,34.650,14.070,-52.290
11021783,-0.618,-0.353,-0.404,7.280,23.870,-46.410
11021800,-0.593,-0.384,-0.477,1.400,51.450,-35.770
11021820,-0.722,-0.402,-0.589,-10.570,46.340,-26.320
11021845,-0.709,-0.134,-0.539,-12.250,40.180,-9.100
11021865,-0.419,-0.720,-0.409,-9.940,54.810,-2.800
11021884,-0.786,-0.830,-0.299,-6.790,40.460,-0.140
11021900,-0.986,-0.518,-0.563,-8.890,26.180,0.140
11021925,-1.079,-0.066,-0.851,-15.190,31.990,8.820
11021945,-1.035,-0.259,-0.771,-1.260,15.610,21.420
11021961,-0.505,-0.348,-0.503,22.470,-5.530,26.600
11021982,0.200,-0.253,-0.460,7.210,6.160,19.600
11022002,-0.364,-0.102,-0.657,-51.450,28.420,16.310
11022026,-0.976,-0.638,-0.745,-45.220,23.170,15.190
11022046,-1.664,-0.687,-0.597,-4.550,-47.600,14.140
11022066,-0.971,-0.264,-0.692,2.940,-55.930,21.700
11022084,-0.451,-0.284,-0.638,-3.220,-37.240,26.810
11022106,-0.631,-0.413,-0.546,-1.400,-28.630,30.590
11022130,-0.914,-0.480,-0.527,-9.800,-37.520,39.550
11022149,-1.093,-0.413,-0.479,-8.330,-53.130,46.830
11022171,-0.647,-0.541,-0.376,10.220,-45.920,50.400
11022192,-0.721,0.081,-0.726,7.630,-51.030,52.780
11022216,-0.935,-0.169,-0.543,0.560,-40.740,63.000
11022240,-1.071,-0.452,-0.411,3.080,-57.470,37.100
11022260,-1.064,-0.285,-0.508,22.470,-80.570,49.140
11022280,-0.748,-0.210,-0.470,16.590,-101.500,47.670
11022299,-0.475,-0.022,-0.557,4.550,-75.180,49.070
11022323,-1.091,0.057,-0.523,-5.600,-75.740,53.410
11022347,-1.214,-0.369,-0.324,-4.760,-109.200,48.790
11022367,-0.770,-0.333,-0.381,8.890,-126.910,49.280
11022391,-0.761,-0.112,-0.441,6.440,-119.070,58.100
11022410,-0.974,-0.042,-0.250,-9.310,-124.530,72.380
11022428,-0.984,-0.262,-0.270,-11.550,-138.740,84.140
11022447,-1.117,-0.138,-0.337,3.920,-115.290,110.390
11022471,-1.452,-0.288,-0.413,-14.770,-184.380,124.600
11022491,-0.904,-0.108,-0.164,-20.860,-181.510,134.400
11022515,-1.147,-0.208,-0.428,-81.060,-196.210,136.850
11022535,-1.062,0.052,-0.972,-91.980,-139.020,169.540
11022554,-1.583,-0.054,-0.429,-123.550,-99.120,159.530
11022572,-1.623,-0.670,0.157,-107.240,-186.270,148.820
11022596,-1.203,-0.025,0.063,60.270,-129.500,117.460
11022616,-1.147,-0.139,-0.221,34.370,-95.060,87.430
11022636,-1.267,-1.274,-1.343,42.350,-59.500,3.710
11022660,-0.911,-0.775,-0.740,67.690,43.680,-104.930
11022676,-0.598,0.060,-0.531,31.360,102.270,-168.070
11022700,-0.950,0.361,-0.426,-71.260,154.910,-184.100
11022715,-1.004,-0.112,-0.572,-67.760,173.040,-185.850
11022737,-1.325,-0.492,-0.645,-2.520,214.270,-185.780
11022757,-1.273,-0.352,-0.561,69.860,172.970,-175.350
11022777,-1.133,0.010,-0.164,120.120,187.180,-168.910
11022801,-1.236,-0.094,-0.099,147.700,190.960,-160.370
11022821,-1.456,0.103,0.108,186.760,161.420,-151.620
11022841,-1.149,0.504,0.315,148.400,139.720,-149.940
11022862,-1.117,0.479,0.413,68.810,139.300,-139.580
11022881,-1.146,0.304,0.491,23.520,111.930,-114.450
11022905,-1.148,0.289,0.324,1.680,80.500,-90.230
11022929,-0.949,0.398,0.197,-20.720,75.740,-51.380
11022949,-1.067,0.450,0.336,-43.680,55.160,-20.370
11022969,-1.157,0.150,0.154,-3.150,43.750,15.960
11022988,-1.251,0.354,0.115,20.790,19.880,46.340
11023012,-1.041,0.418,0.378,41.090,-21.560,67.900
11023032,-0.917,0.248,0.228,44.520,-38.850,87.360
11023052,-0.888,0.535,0.459,30.100,-46.620,120.820
11023076,-0.708,-0.679,-1.725,-179.900,-45.080,120.190
11023098,-1.963,0.721,0.830,-6.510,37.450,124.600
11023120,-1.229,-0.121,-0.556,-17.010,-34.090,112.000
11023140,-1.609,0.292,-0.436,-19.530,-58.800,90.860
11023158,-1.263,0.370,-0.177,-34.230,-44.450,65.800
11023175,-1.424,0.019,0.025,-34.650,-34.510,39.970
11023200,-1.347,-0.012,-0.046,-43.330,-27.510,21.210
11023218,-1.005,0.067,-0.310,-40.670,-17.780,18.270
11023238,-0.788,-0.201,-0.546,-24.430,-25.200,14.000
11023258,-1.027,-0.080,-0.264,-5.040,-11.200,24.220
11023277,-1.043,-0.043,-0.214,0.560,-15.330,21.560
11023300,-0.949,0.254,-0.164,-22.750,-3.920,21.000
11023323,-0.982,-0.000,-0.271,-26.530,-2.380,13.230
11023347,-0.999,-0.061,-0.134,2.450,0.700,14.000
11023367,-0.973,0.041,-0.210,6.370,6.020,10.150
11023390,-0.954,0.248,-0.224,-5.320,7.140,2.170
11023411,-0.916,0.065,-0.271,-9.100,12.250,-0.840
11023430,-0.959,-0.021,-0.256,-6.090,15.540,-2.030
11023449,-1.024,0.070,-0.242,0.420,15.820,-7.910
11023474,-0.885,0.163,-0.320,-15.050,19.110,-18.060
11023492,-0.907,0.078,-0.339,-25.970,20.510,-23.100
11023512,-1.051,-0.154,-0.229,-10.080,16.240,-24.990
11023536,-1.012,-0.221,-0.322,18.970,15.050,-16.450
11023551,-1.028,0.066,-0.290,17.290,11.830,-9.450
11023575,-0.934,0.014,-0.341,16.100,19.740,-16.030
11023592,-0.955,0.011,-0.292,19.110,19.180,-18.200
11023612,-0.976,-0.035,-0.321,19.110,21.560,-21.770
11023631,-0.957,-0.038,-0.330,21.700,24.010,-24.920
11023655,-0.935,-0.058,-0.323,26.460,27.720,-29.260
11023676,-0.969,0.020,-0.354,26.810,28.420,-35.490
11023696,-0.951,-0.009,-0.387,22.190,27.860,-38.570
11023716,-0.938,-0.137,-0.382,34.860,33.040,-37.730
11023736,-0.902,-0.139,-0.357,41.090,31.220,-38.220
11023756,-0.908,-0.077,-0.392,33.460,33.950,-42.140
11023776,-0.871,-0.054,-0.466,25.410,37.870,-42.840
11023796,-0.895,-0.162,-0.422,29.330,42.910,-42.770
11023815,-0.877,-0.190,-0.438,27.510,42.490,-40.180
11023834,-0.898,-0.316,-0.395,22.190,44.310,-36.400
11023858,-0.949,-0.195,-0.471,20.160,43.330,-34.510
11023874,-0.894,-0.254,-0.532,26.180,45.780,-30.170
11023894,-0.888,-0.257,-0.487,35.420,45.640,-28.070
11023916,-0.933,-0.248,-0.471,29.750,45.990,-33.530
11023940,-0.889,-0.239,-0.480,31.500,47.460,-38.220
11023959,-0.913,-0.302,-0.554,29.750,40.320,-40.250
11023980,-0.861,-0.404,-0.517,35.000,36.750,-37.100
11024000,-0.872,-0.353,-0.558,35.280,29.470,-37.240
11024019,-0.869,-0.301,-0.544,33.950,26.950,-40.530
11024043,-0.855,-0.309,-0.570,33.670,21.070,-47.530
11024063,-0.861,-0.313,-0.503,30.940,28.140,-51.520
11024087,-0.992,-0.423,-0.473,32.480,31.990,-59.640
11024107,-1.031,-0.402,-0.572,33.110,21.280,-49.070
11024126,-0.958,-0.507,-0.390,48.300,21.490,-60.270
11024147,-1.059,-0.474,-0.278,64.470,26.460,-77.630
11024171,-1.036,-0.229,-0.384,49.980,13.300,-81.130
11024190,-0.938,-0.266,-0.543,24.500,-10.850,-80.290
11024213,-0.449,-0.444,-0.852,7.630,-26.530,-70.560
11024234,-0.237,-0.481,-0.764,38.430,20.440,-51.940
11024250,-0.369,-0.461,-0.567,24.640,39.410,-55.930
11024274,-0.449,-0.473,-0.547,4.550,14.560,-51.100
11024294,-0.251,-0.634,-0.513,-2.730,22.680,-49.350
11024314,-0.383,-0.617,-0.585,-3.710,29.470,-45.290
11024334,-0.364,-0.612,-0.492,-5.180,21.910,-41.230
11024358,-0.172,-0.610,-0.454,-1.820,20.160,-35.000
11024378,0.024,-0.678,-0.486,-5.460,32.480,-27.790
11024399,-0.374,-0.866,-0.509,7.490,39.900,-29.750
11024418,-0.422,-0.768,-0.474,14.000,25.410,-31.570
11024438,-0.357,-0.685,-0.472,13.160,14.000,-40.670
11024457,-0.258,-0.607,-0.412,1.190,17.640,-50.050
11024478,-0.219,-0.660,-0.466,-9.170,18.060,-50.120
11024498,-0.131,-0.755,-0.495,-11.690,33.880,-48.230
11024518,-0.361,-0.766,-0.543,-10.500,22.820,-52.920
11024538,-0.382,-0.645,-0.546,-10.920,22.260,-53.410
11024558,-0.298,-0.610,-0.522,-23.660,30.310,-58.520
11024579,-0.350,-0.737,-0.590,-24.570,27.930,-54.810
11024597,-0.312,-0.805,-0.649,-9.730,24.990,-53.200
11024621,-0.275,-0.695,-0.654,7.490,31.430,-50.960
11024641,-0.265,-0.620,-0.639,3.360,33.880,-46.690
11024656,-0.192,-0.733,-0.749,-4.200,44.520,-40.040
11024679,-0.313,-0.938,-0.752,19.600,49.630,-37.030
11024700,-0.327,-0.863,-0.644,37.240,47.600,-34.230
11024720,-0.237,-0.822,-0.560,37.800,45.850,-32.410
11024744,-0.160,-0.911,-0.487,36.050,45.710,-30.240
11024764,-0.202,-0.877,-0.495,27.300,37.310,-38.570
11024779,-0.204,-0.716,-0.365,5.110,29.190,-44.520
11024803,-0.050,-0.874,-0.503,-26.320,18.550,-48.160
11024824,-0.171,-0.780,-0.741,-31.080,8.680,-46.900
11024848,-0.203,-0.717,-0.790,-29.260,15.260,-43.960
11024868,-0.088,-0.652,-0.780,-17.360,18.550,-37.870
11024887,-0.062,-0.831,-0.826,-6.370,23.590,-33.740
11024910,0.031,-0.788,-0.699,2.240,16.870,-27.160
11024929,0.114,-0.803,-0.630,-3.290,10.150,-19.670
11024952,0.136,-0.862,-0.617,-9.380,4.340,-12.810
11024971,0.199,-0.863,-0.591,-17.290,-9.100,-2.940
11024991,0.188,-0.957,-0.704,-14.210,-21.280,7.070
11025011,0.076,-0.951,-0.662,-2.240,-27.020,22.050
11025035,0.016,-0.831,-0.695,4.340,-30.240,35.910
