Millis,AccelX,AccelY,AccelZ,GyroX,GyroY,GyroZ
9071488,-0.968,0.025,0.356,-2.380,8.330,-1.330
9071508,-0.974,0.028,0.358,-0.490,6.650,-1.470
9071528,-0.969,0.038,0.353,1.120,4.620,-1.260
9071553,-0.971,0.029,0.347,0.980,1.540,-0.910
9071573,-0.972,0.027,0.354,0.560,-0.210,-0.980
9071593,-0.967,0.033,0.346,-0.070,-1.610,-0.910
9071614,-0.967,0.032,0.343,0.420,-1.610,-0.910
9071632,-0.964,0.038,0.351,1.260,-1.260,-1.050
9071656,-0.976,0.029,0.346,1.470,-3.780,-1.330
9071676,-0.966,0.032,0.337,1.400,-3.430,-1.330
9071696,-0.968,0.028,0.347,1.120,-3.640,-1.330
9071720,-0.967,0.030,0.342,1.470,-4.480,-1.540
9071735,-0.961,0.029,0.345,1.960,-4.480,-1.470
9071758,-0.961,0.031,0.341,1.960,-3.430,-1.540
9071777,-0.969,0.030,0.344,2.240,-2.590,-1.540
9071803,-0.967,0.030,0.344,2.380,-2.590,-1.470
9071822,-0.960,0.031,0.346,1.470,-1.890,-1.400
9071841,-0.961,0.033,0.342,1.050,-1.050,-1.540
9071861,-0.964,0.033,0.346,1.120,-0.630,-1.680
9071882,-0.962,0.031,0.343,1.470,-0.560,-1.540
9071901,-0.964,0.029,0.347,1.540,-0.350,-1.820
9071926,-0.960,0.027,0.342,1.190,0.700,-1.960
9071941,-0.964,0.033,0.348,1.750,1.400,-2.030
9071965,-0.977,0.023,0.352,0.210,-0.350,-1.750
9071981,-0.962,0.032,0.325,-0.280,-0.980,-1.750
9072006,-0.958,0.038,0.352,3.080,3.360,-2.030
9072027,-0.970,0.032,0.344,3.080,-0.280,-1.820
9072044,-0.964,0.028,0.324,0.910,0.000,-1.680
9072068,-0.967,0.033,0.339,-0.140,2.660,-1.470
9072088,-0.967,0.031,0.342,-0.210,3.430,-1.470
9072103,-0.971,0.031,0.343,0.560,3.360,-1.400
9072128,-0.968,0.032,0.338,1.610,2.450,-1.400
9072146,-0.970,0.031,0.336,1.190,2.660,-1.470
9072170,-0.972,0.032,0.340,0.490,2.520,-1.330
9072190,-0.974,0.030,0.337,0.070,2.100,-1.120
9072210,-0.971,0.036,0.339,0.700,3.080,-1.260
9072230,-0.977,0.030,0.343,0.630,1.260,-1.190
9072247,-0.971,0.033,0.326,0.770,0.420,-1.190
9072267,-0.967,0.028,0.326,0.420,1.540,-1.120
9072287,-0.973,0.031,0.331,0.140,1.890,-1.190
9072311,-0.974,0.028,0.330,0.280,2.240,-1.050
9072330,-0.972,0.026,0.335,0.770,1.820,-0.980
9072351,-0.973,0.030,0.328,0.490,1.540,-1.050
9072375,-0.975,0.031,0.328,0.350,1.400,-0.840
9072392,-0.974,0.028,0.327,0.140,1.260,-0.910
9072416,-0.970,0.026,0.322,0.070,1.400,-1.050
9072434,-0.976,0.028,0.325,0.210,1.540,-1.050
9072455,-0.975,0.028,0.325,0.420,1.470,-0.980
9072473,-0.975,0.029,0.324,0.560,1.190,-0.980
9072498,-0.977,0.027,0.324,0.630,1.050,-0.980
9072517,-0.977,0.027,0.325,0.630,0.560,-1.050
9072537,-0.975,0.022,0.323,0.490,0.560,-0.910
9072557,-0.976,0.024,0.322,1.120,0.700,-0.910
9072577,-0.983,0.015,0.325,-0.490,-0.490,-0.980
9072597,-0.966,0.040,0.312,0.980,0.280,-1.190
9072621,-0.980,0.040,0.349,4.270,0.000,-1.050
9072639,-0.984,0.021,0.315,2.380,-3.150,-0.770
9072660,-0.970,0.024,0.311,0.840,-1.190,-0.840
9072679,-0.975,0.023,0.327,0.910,-0.630,-0.840
9072702,-0.981,0.029,0.324,1.750,-0.490,-0.980
9072723,-0.982,0.034,0.326,2.450,-1.400,-0.910
9072743,-0.976,0.029,0.322,2.240,-2.660,-0.770
9072762,-0.976,0.028,0.327,2.240,-3.500,-0.630
9072782,-0.971,0.031,0.323,1.820,-4.060,-0.350
9072801,-0.984,0.030,0.340,2.030,-4.690,-0.350
9072821,-0.983,0.034,0.334,2.030,-5.180,-0.140
9072846,-0.985,0.033,0.334,1.470,-7.770,-0.280
9072866,-0.964,0.038,0.330,1.190,-7.420,-0.210
9072886,-0.966,0.036,0.320,1.610,-6.230,-0.350
9072904,-0.974,0.036,0.325,1.960,-5.250,-0.280
9072924,-0.971,0.033,0.327,2.310,-4.970,-0.420
9072948,-0.966,0.032,0.328,2.030,-4.620,-0.490
9072963,-0.963,0.035,0.336,1.540,-4.340,-0.560
9072989,-0.976,0.031,0.345,1.260,-5.740,-0.770
9073007,-0.971,0.033,0.333,1.050,-5.390,-0.770
9073028,-0.973,0.028,0.348,1.330,-5.530,-0.560
9073053,-0.969,0.028,0.341,1.960,-6.160,-0.560
9073070,-0.960,0.039,0.343,2.100,-5.670,-0.350
9073091,-0.969,0.039,0.357,1.890,-6.230,-0.420
9073112,-0.980,0.038,0.354,1.470,-7.770,-0.490
9073131,-0.974,0.031,0.337,1.400,-8.750,-0.700
9073155,-0.967,0.038,0.333,1.820,-7.770,-0.210
9073176,-0.960,0.034,0.338,-2.240,-5.950,0.140
9073196,-0.946,0.040,0.334,-3.010,-3.640,-0.070
9073221,-0.962,0.021,0.341,2.660,-2.240,0.140
9073236,-0.978,0.029,0.312,3.080,-4.830,-0.070
9073256,-0.976,0.062,0.337,1.190,-3.710,-0.280
9073280,-0.979,0.061,0.379,0.840,-3.010,-1.120
9073298,-0.986,0.042,0.368,0.210,-3.990,-1.820
9073319,-0.992,0.045,0.360,0.000,-8.750,-1.960
9073343,-0.959,0.057,0.331,-3.150,-8.610,-1.540
9073361,-0.948,0.055,0.364,-2.170,-6.440,-2.590
9073386,-0.954,0.043,0.380,0.560,-9.870,-2.590
9073405,-0.942,0.007,0.366,2.520,-11.410,-2.310
9073425,-0.941,0.014,0.356,5.180,-7.700,-2.030
9073445,-0.978,0.027,0.369,7.840,-6.160,-1.470
9073460,-0.971,0.029,0.417,7.070,-3.780,-1.120
9073485,-0.944,0.043,0.446,6.370,-3.150,-0.630
9073503,-0.935,0.050,0.416,4.970,-4.760,-0.210
9073526,-0.923,0.052,0.388,3.710,-2.310,0.280
9073547,-0.942,0.042,0.442,1.330,2.590,0.000
9073565,-0.959,0.069,0.448,-1.260,1.610,1.050
9073589,-0.939,0.071,0.402,-5.040,2.380,2.730
9073609,-0.933,0.009,0.427,-3.640,7.420,4.200
9073629,-0.975,-0.035,0.448,0.070,10.010,-0.350
9073649,-0.931,0.025,0.431,2.800,9.240,-3.640
9073669,-0.955,0.058,0.367,-0.420,10.010,-3.640
9073689,-0.963,0.035,0.390,-6.510,12.740,-4.410
9073707,-0.960,-0.019,0.426,-10.150,10.850,-6.860
9073732,-0.906,0.083,0.385,-4.620,6.300,-10.780
9073752,-0.938,0.005,0.326,-8.470,4.830,-8.050
9073771,-0.952,-0.005,0.284,-4.340,8.820,-8.190
9073790,-0.963,0.058,0.367,1.120,13.370,-7.210
9073809,-1.009,0.042,0.401,3.360,6.580,-6.790
9073832,-0.990,0.004,0.285,-1.680,1.540,-9.870
9073852,-0.970,0.006,0.277,-6.720,6.230,-10.080
9073875,-1.042,0.022,0.313,-7.280,3.710,-8.190
9073896,-1.055,0.049,0.325,-4.550,-1.820,-4.830
9073920,-0.976,0.040,0.329,-4.270,-8.400,-1.890
9073939,-0.901,-0.023,0.316,-1.050,-9.590,-1.750
9073955,-0.931,-0.010,0.288,1.680,-9.940,-2.800
9073975,-0.967,0.007,0.275,4.480,-8.960,-3.080
9074000,-0.966,0.032,0.320,3.430,-10.430,-3.360
9074020,-0.927,0.024,0.322,3.290,-11.830,-3.150
9074037,-0.944,0.021,0.325,1.680,-10.500,-2.800
9074058,-0.961,0.013,0.324,0.840,-7.630,-2.660
9074079,-0.959,0.013,0.324,-1.470,-6.230,-1.610
9074100,-0.951,-0.014,0.358,-1.190,-3.990,-1.610
9074124,-0.951,-0.009,0.351,0.840,-2.590,-1.400
9074144,-0.958,-0.007,0.354,2.240,0.000,-0.700
9074164,-0.965,-0.007,0.362,3.500,1.190,-0.490
9074184,-0.936,0.017,0.375,2.520,3.850,-0.070
9074208,-0.946,0.012,0.364,1.260,3.150,0.630
9074226,-0.962,0.010,0.336,-0.140,4.060,0.700
9074250,-0.960,0.026,0.325,0.210,2.730,0.420
9074270,-0.942,0.013,0.330,4.270,3.360,0.420
9074289,-0.958,0.001,0.350,4.900,3.500,1.120
9074309,-0.978,-0.007,0.348,1.470,-2.030,2.170
9074333,-0.968,0.000,0.319,-1.400,-0.630,2.730
9074353,-1.012,-0.007,0.394,0.280,-8.680,3.080
9074372,-0.976,-0.018,0.297,-0.210,-13.790,4.060
9074393,-0.954,-0.032,0.280,2.450,-8.190,3.220
9074412,-0.959,-0.010,0.333,6.580,-2.310,2.590
9074436,-0.995,-0.007,0.379,11.410,-2.660,1.260
9074452,-1.021,-0.002,0.375,11.690,-9.310,0.980
9074474,-0.993,-0.020,0.362,7.280,-10.640,1.120
9074498,-0.959,0.046,0.327,11.410,-13.510,0.140
9074518,-0.950,0.068,0.349,20.440,-9.730,17.710
9074538,-0.996,-0.005,0.449,21.980,-8.190,0.910
9074558,-0.993,-0.036,0.478,11.620,-16.170,0.280
9074581,-0.918,0.102,0.320,8.470,-19.180,-0.140
9074601,-0.928,0.127,0.345,11.060,-10.780,-0.840
9074621,-0.949,0.034,0.492,4.970,-4.970,-0.770
9074640,-0.929,0.079,0.479,5.180,-11.550,-1.610
9074665,-0.840,0.136,0.329,8.120,-2.940,-1.820
9074683,-0.879,0.068,0.381,5.390,3.080,-0.210
9074703,-0.924,-0.032,0.475,-5.460,6.230,1.540
9074722,-0.900,0.016,0.484,-14.140,-4.830,2.030
9074741,-0.801,0.038,0.401,-5.740,4.830,0.980
9074766,-0.907,-0.024,0.512,3.850,17.780,0.840
9074785,-1.016,0.040,0.511,0.350,2.030,-1.120
9074805,-0.924,0.079,0.324,-5.320,-0.070,-3.080
9074826,-0.914,0.121,0.335,-3.990,-0.280,-4.130
9074846,-0.986,0.125,0.359,-11.830,-4.340,-2.730
9074865,-1.043,0.062,0.491,-17.780,1.750,-2.100
9074883,-1.014,0.025,0.447,-20.300,3.500,-1.820
9074903,-0.951,-0.042,0.374,-18.060,3.710,-3.010
9074922,-0.867,0.015,0.339,-14.280,5.810,0.000
9074943,-0.904,0.022,0.324,-3.850,15.610,3.080
9074964,-1.039,-0.050,0.391,-6.790,15.190,3.640
9074984,-1.039,-0.048,0.400,-8.260,10.990,3.430
9075007,-0.996,-0.008,0.383,-9.170,6.300,2.520
9075026,-0.961,-0.002,0.333,-4.830,7.770,1.540
9075047,-0.953,-0.017,0.307,0.560,10.990,-0.560
9075065,-0.950,-0.027,0.313,6.930,15.260,-1.750
9075089,-0.963,0.028,0.359,8.540,21.140,-2.170
9075108,-0.995,0.049,0.410,6.370,15.050,-3.150
9075128,-0.963,0.042,0.363,6.440,12.390,-4.200
9075147,-0.960,0.033,0.339,5.460,11.060,-4.130
9075172,-0.953,0.023,0.312,5.320,11.410,-3.850
9075189,-0.958,0.029,0.307,5.530,11.900,-3.150
9075208,-0.976,0.009,0.318,5.880,10.150,-2.450
9075232,-0.979,0.014,0.292,4.130,12.040,-2.310
9075254,-0.977,0.027,0.289,2.590,14.490,-2.590
9075277,-0.988,0.023,0.323,3.500,15.470,-3.360
9075299,-0.997,0.036,0.285,1.680,12.460,-3.220
9075316,-0.995,0.036,0.277,0.560,15.120,-2.800
9075338,-1.000,0.028,0.308,1.190,13.440,-2.590
9075358,-0.982,0.023,0.290,3.500,10.500,-2.450
9075378,-0.989,0.017,0.293,3.570,8.750,-2.100
9075398,-0.991,0.024,0.275,1.680,4.970,-1.820
9075422,-1.005,0.043,0.309,1.890,5.460,-1.610
9075439,-1.012,0.020,0.270,1.470,1.190,-1.400
9075460,-0.989,0.011,0.244,-0.490,-1.120,-1.190
9075480,-0.972,0.022,0.272,-0.490,-0.490,-1.190
9075504,-0.960,0.023,0.258,0.490,-1.400,-1.540
9075524,-0.972,0.020,0.264,2.730,0.910,-1.260
9075544,-1.023,0.019,0.318,4.760,-2.450,-1.260
9075560,-1.036,0.024,0.310,3.500,-5.460,-0.980
9075580,-1.035,0.037,0.297,1.540,-9.240,-0.350
9075599,-1.002,0.020,0.285,0.980,-10.150,0.210
9075624,-0.961,0.014,0.285,2.660,-8.960,0.420
9075643,-0.967,0.006,0.285,3.220,-9.590,0.210
9075663,-0.990,0.011,0.296,3.360,-12.180,0.210
9075685,-0.996,0.000,0.292,2.730,-14.630,0.490
9075706,-0.984,0.015,0.268,0.280,-15.050,0.770
9075726,-0.961,0.032,0.239,-0.280,-12.180,0.770
9075750,-0.953,0.035,0.248,1.610,-7.070,0.280
9075770,-0.984,0.007,0.289,3.780,-6.650,-0.140
9075788,-1.017,0.022,0.294,2.800,-7.630,0.000
9075812,-1.013,0.038,0.319,0.140,-8.120,0.420
9075829,-0.991,0.050,0.335,-1.890,-8.610,0.490
9075849,-0.987,0.047,0.333,-1.960,-13.230,0.350
9075869,-0.972,0.013,0.313,-2.030,-15.470,0.070
9075894,-0.971,0.022,0.332,-0.560,-15.120,-0.420
9075913,-0.995,0.042,0.354,-0.770,-16.800,-0.490
9075936,-0.974,0.036,0.333,-0.070,-18.270,-0.840
9075958,-0.964,0.035,0.383,4.900,-14.980,-0.840
9075977,-0.952,0.031,0.354,4.410,-15.680,0.210
9075997,-0.929,0.001,0.372,1.400,-12.460,1.330
9076021,-0.922,0.006,0.386,-3.920,-6.650,1.190
9076041,-0.930,0.045,0.400,-7.350,-5.110,0.140
9076059,-0.938,0.054,0.405,-5.740,-4.690,-1.400
9076083,-0.935,0.034,0.399,-4.410,-3.710,-2.170
9076103,-0.938,0.013,0.395,-5.110,-2.310,-2.310
9076122,-0.929,0.023,0.376,-5.110,0.000,-2.870
9076142,-0.928,0.023,0.384,-1.610,5.250,-3.080
9076166,-0.986,0.036,0.436,-0.910,6.650,-3.990
9076184,-0.995,0.042,0.417,-3.570,2.520,-3.710
9076205,-0.998,0.011,0.377,-9.520,0.210,-3.710
9076224,-0.944,0.011,0.366,-13.370,3.640,-2.170
9076249,-0.981,-0.006,0.389,-11.340,5.600,-0.840
9076269,-1.001,-0.044,0.375,-4.620,2.590,-1.750
9076289,-0.990,-0.007,0.346,-3.220,-0.420,-2.660
9076313,-0.995,0.008,0.307,0.000,-1.680,-2.030
9076331,-0.977,0.009,0.324,0.630,-1.820,-2.450
9076351,-0.920,0.012,0.317,1.400,-6.580,-3.150
9076371,-0.934,0.019,0.281,0.980,-9.310,-3.640
9076395,-1.000,0.020,0.290,-0.490,-10.010,-2.310
9076416,-0.976,-0.011,0.291,-2.870,-11.690,-1.470
9076430,-0.951,0.008,0.293,-2.660,-10.710,-1.120
9076455,-0.956,0.006,0.337,-2.030,-14.000,-1.050
9076474,-0.926,-0.008,0.312,2.870,-9.660,-0.770
9076491,-0.961,-0.009,0.370,7.000,-10.150,-1.260
9076514,-0.970,0.006,0.319,6.580,-12.810,-1.050
9076534,-0.958,0.006,0.329,3.640,-7.770,-0.770
9076555,-0.951,0.019,0.369,2.730,-3.990,-1.610
9076575,-0.952,0.023,0.400,3.850,-1.190,-2.730
9076596,-0.944,0.010,0.396,4.550,-2.800,-2.940
9076614,-0.927,-0.014,0.363,5.180,0.420,-2.940
9076637,-0.950,0.020,0.365,5.110,4.200,-2.800
9076657,-0.935,0.032,0.374,3.150,5.600,-2.450
9076676,-0.939,0.017,0.389,3.150,6.160,-2.380
9076700,-0.939,0.014,0.413,2.660,5.390,-2.170
9076721,-0.932,-0.015,0.366,1.960,2.800,-1.260
9076740,-0.959,0.023,0.339,0.350,4.060,-1.470
9076759,-0.981,0.059,0.334,2.240,3.850,-1.750
9076778,-0.986,0.027,0.357,4.060,2.590,-1.820
9076797,-0.958,-0.022,0.361,3.430,3.360,-0.770
9076822,-0.943,-0.018,0.384,1.960,5.110,0.280
9076841,-0.967,0.024,0.358,3.850,-0.700,0.350
9076859,-0.972,0.039,0.307,6.020,-2.520,0.910
9076882,-0.990,-0.031,0.313,5.740,-2.730,2.170
9076903,-1.002,-0.055,0.347,5.600,-2.730,3.010
9076918,-0.997,-0.032,0.340,5.950,-4.760,2.800
9076943,-0.985,0.007,0.333,8.960,-4.060,1.680
9076963,-0.960,0.027,0.329,10.220,-3.150,1.190
9076982,-0.960,-0.011,0.311,8.680,-3.360,-0.070
9077002,-0.935,0.013,0.337,8.540,3.850,0.000
9077021,-0.966,0.020,0.397,11.620,3.990,-1.400
9077044,-0.940,0.065,0.353,8.330,2.170,-2.590
9077068,-0.918,0.076,0.361,7.350,4.760,-3.290
9077087,-0.914,0.056,0.390,7.490,8.960,-4.760
9077107,-0.920,0.040,0.395,7.210,11.060,-3.500
9077128,-0.950,0.005,0.441,-0.980,13.300,-1.750
9077152,-0.956,0.103,0.412,-4.620,6.790,-2.100
9077172,-0.943,0.120,0.405,-3.850,6.930,-2.310
9077192,-0.935,0.032,0.387,-2.030,5.880,-1.540
9077211,-0.886,0.003,0.330,-5.110,9.800,0.000
9077231,-0.896,0.006,0.381,-6.580,18.410,0.280
9077251,-0.959,0.061,0.478,-4.270,18.340,-0.070
9077275,-0.982,0.019,0.392,-4.130,13.160,-2.310
9077291,-0.946,-0.004,0.308,-7.980,13.370,-2.520
9077316,-0.972,0.012,0.319,-7.490,15.610,-3.010
9077335,-1.028,0.070,0.348,-6.720,10.010,-3.290
9077355,-1.002,0.097,0.258,-4.480,8.120,-2.170
9077375,-0.962,0.015,0.245,-6.860,14.840,0.910
9077395,-0.999,-0.054,0.285,-13.580,14.210,3.150
9077414,-1.018,-0.021,0.282,-10.920,10.640,0.770
9077438,-1.005,0.047,0.258,-2.100,8.750,-0.910
9077457,-1.002,0.048,0.273,3.500,9.310,0.000
9077478,-1.032,0.007,0.288,2.030,8.960,1.960
9077502,-1.017,-0.043,0.302,-0.980,7.420,1.820
9077519,-1.006,-0.006,0.289,-5.950,3.640,1.960
9077541,-0.998,0.000,0.275,-7.840,-4.340,2.660
9077560,-0.965,-0.018,0.257,-3.500,-2.240,0.070
9077583,-0.985,0.000,0.301,3.290,-2.520,-1.750
9077605,-0.999,0.001,0.241,2.170,-6.300,-2.030
9077625,-0.981,0.024,0.267,2.450,-3.990,-2.170
9077642,-0.978,0.011,0.293,3.360,-3.850,-2.660
9077665,-1.006,0.007,0.302,5.530,-6.020,-2.940
9077683,-1.026,0.032,0.275,5.670,-9.310,-2.450
9077702,-1.000,0.026,0.251,3.990,-6.510,-1.330
9077726,-0.974,0.016,0.282,2.030,-2.380,-0.840
9077747,-0.976,0.011,0.297,0.840,-2.100,-0.770
9077767,-0.985,0.019,0.292,0.770,-3.290,-0.840
9077785,-1.000,0.014,0.302,1.190,-6.720,-0.700
9077807,-0.992,0.014,0.297,1.960,-11.130,-0.630
9077829,-0.984,0.005,0.300,3.850,-10.430,-1.050
9077849,-1.013,0.014,0.317,4.900,-13.230,-1.540
9077873,-1.003,0.027,0.289,3.780,-14.140,-0.420
9077893,-0.974,0.019,0.293,3.570,-11.340,0.280
9077916,-0.970,0.008,0.305,3.990,-10.080,-0.350
9077937,-0.975,0.015,0.317,4.620,-11.270,-0.560
9077956,-0.979,0.021,0.315,4.200,-12.600,-0.700
9077976,-0.983,0.028,0.318,3.430,-12.880,-0.560
9078000,-0.983,0.020,0.321,3.290,-12.670,-0.350
9078020,-0.991,0.005,0.337,3.850,-14.000,-0.490
9078039,-0.981,0.016,0.326,3.570,-15.540,-0.280
9078062,-0.960,0.025,0.326,2.940,-14.700,0.070
9078083,-0.954,0.030,0.341,2.590,-14.140,0.630
9078103,-0.961,0.021,0.333,1.540,-16.870,0.140
9078123,-0.955,0.051,0.300,0.630,-14.700,0.070
9078143,-0.973,0.032,0.287,-2.520,-10.570,0.420
9078167,-1.002,0.017,0.317,-3.290,-8.330,0.140
9078186,-0.988,0.053,0.345,-2.940,-5.390,0.140
9078207,-0.983,0.043,0.366,-3.990,-5.320,-0.140
9078229,-0.980,0.011,0.346,-5.110,-5.880,-0.210
9078252,-0.950,0.043,0.371,-3.360,-7.420,-0.840
9078271,-0.933,0.045,0.374,-2.380,-8.400,-1.120
9078287,-0.952,0.026,0.377,-2.730,-9.380,-1.890
9078311,-0.961,0.013,0.381,-2.800,-9.170,-2.030
9078330,-0.973,0.012,0.407,-1.610,-7.630,-1.610
9078351,-0.959,0.020,0.427,-0.630,-7.770,-1.330
9078371,-0.948,0.032,0.407,-0.280,-6.440,-1.050
9078388,-0.933,0.008,0.407,-0.070,-4.060,-1.050
9078412,-0.912,-0.001,0.400,1.400,1.680,-0.560
9078431,-0.892,-0.013,0.380,0.280,8.890,0.000
9078450,-0.903,-0.011,0.404,-0.280,14.700,-0.420
9078470,-0.916,0.020,0.412,-2.240,15.400,-0.560
9078494,-0.917,0.059,0.398,-2.100,18.200,0.070
9078515,-0.945,0.045,0.405,-0.070,19.180,0.840
9078532,-0.989,-0.024,0.356,-3.010,21.420,-0.140
9078551,-1.011,0.032,0.376,-2.660,20.020,-1.610
9078576,-1.014,0.061,0.403,-2.730,13.300,-1.120
9078596,-1.017,0.045,0.393,-5.390,5.180,-1.610
9078620,-1.010,-0.031,0.355,-6.090,5.320,-3.150
9078640,-0.987,-0.026,0.329,-2.730,1.820,-1.960
9078660,-0.976,0.012,0.281,-4.130,-1.610,-0.840
9078678,-0.937,0.039,0.302,-2.030,2.240,-0.420
9078695,-0.956,0.043,0.354,2.870,-4.200,-0.630
9078715,-0.956,-0.000,0.282,1.610,-10.570,-0.280
9078739,-0.996,-0.029,0.307,2.240,-12.670,0.000
9078760,-0.987,0.024,0.288,0.910,-14.280,-0.630
9078779,-0.958,0.064,0.272,1.540,-13.020,0.000
9078799,-0.952,0.021,0.272,2.100,-12.670,0.000
9078817,-0.958,-0.015,0.306,4.130,-9.660,0.420
9078841,-0.994,-0.004,0.346,3.290,-8.400,0.280
9078859,-0.990,0.027,0.359,1.120,-9.800,-0.070
9078881,-0.964,0.022,0.339,1.190,-13.790,-0.560
9078897,-0.949,0.007,0.322,2.240,-12.110,-0.630
9078916,-0.942,0.007,0.332,3.920,-9.940,-1.050
9078941,-0.945,0.030,0.345,4.690,-6.160,-1.540
9078961,-0.954,0.026,0.380,4.550,-3.640,-1.680
9078981,-0.951,0.014,0.394,3.640,-2.520,-1.820
9079000,-0.958,0.032,0.386,2.660,-2.380,-1.750
9079024,-0.940,0.032,0.371,3.080,-4.200,-1.960
9079044,-0.927,0.014,0.356,3.710,-1.680,-1.540
9079068,-0.947,0.009,0.373,3.220,1.120,-1.750
9079086,-0.978,0.004,0.396,1.750,0.070,-1.960
9079108,-0.984,0.041,0.404,3.150,-5.530,-2.380
9079128,-0.955,0.042,0.381,6.090,-7.070,-2.590
9079146,-0.932,-0.005,0.355,10.150,-5.600,-2.450
9079165,-0.929,-0.027,0.355,10.920,-0.560,-2.660
9079190,-0.976,-0.025,0.354,6.510,-6.090,-3.430
9079210,-0.966,0.063,0.329,7.350,-6.020,-2.660
9079230,-0.996,0.026,0.393,13.860,-7.630,-3.710
9079245,-0.981,0.019,0.335,14.350,-13.090,-3.290
9079269,-0.937,-0.015,0.324,12.040,-10.570,-1.750
9079288,-0.925,0.024,0.329,8.750,-3.920,-1.050
9079308,-0.959,0.040,0.389,2.940,0.420,-1.120
9079332,-0.964,0.091,0.427,-3.780,-0.490,-0.560
9079352,-0.953,0.111,0.440,-2.030,-3.430,-2.240
9079371,-0.897,0.045,0.372,-3.010,-4.270,-2.310
9079396,-0.858,-0.008,0.399,-6.090,11.130,-0.770
9079415,-0.954,0.010,0.528,-3.850,9.240,-2.100
9079434,-0.916,0.080,0.395,-3.500,1.260,-3.150
9079458,-0.852,0.063,0.379,-6.930,8.610,-2.170
9079480,-0.853,0.006,0.519,-3.990,16.660,-3.920
9079499,-0.894,0.043,0.426,3.640,15.470,-4.480
9079518,-0.916,0.078,0.348,-3.710,19.320,-3.010
9079542,-0.934,0.025,0.315,-20.930,25.690,1.120
9079561,-1.055,-0.014,0.376,-27.860,18.130,1.260
9079579,-1.055,-0.019,0.331,-20.090,10.220,-0.770
9079598,-1.027,-0.007,0.367,-3.710,11.760,-1.120
9079623,-0.992,-0.036,0.343,5.320,11.480,0.840
9079644,-0.966,-0.018,0.315,3.920,13.160,2.380
9079663,-0.994,-0.024,0.319,0.490,14.140,1.890
9079683,-1.009,-0.015,0.293,-2.030,12.810,3.010
9079703,-1.004,-0.012,0.316,0.980,13.090,2.800
9079722,-0.982,0.004,0.333,1.960,9.310,2.030
9079742,-0.972,0.003,0.292,2.170,9.380,-0.140
9079762,-0.998,-0.005,0.264,3.920,6.160,-0.630
9079782,-0.994,-0.003,0.235,9.520,7.840,-2.380
9079805,-1.022,0.040,0.321,14.630,8.400,-3.430
9079826,-0.996,0.027,0.305,13.090,0.980,-3.290
9079845,-0.968,0.020,0.311,9.100,0.630,-3.500
9079870,-0.986,0.017,0.312,7.490,0.840,-4.340
9079890,-1.002,0.036,0.290,6.510,1.050,-4.270
9079909,-1.005,0.037,0.294,6.090,0.070,-3.920
9079930,-0.977,0.010,0.290,7.070,0.210,-3.430
9079950,-0.958,0.002,0.292,8.470,1.120,-3.360
9079969,-0.968,0.021,0.285,8.470,0.700,-2.940
9079991,-0.986,0.035,0.289,7.770,0.560,-2.730
9080014,-1.000,0.023,0.305,5.250,-1.190,-2.450
9080032,-0.995,0.035,0.297,3.920,-3.570,-3.010
9080056,-0.988,0.038,0.285,2.730,-4.130,-2.800
9080076,-0.985,0.035,0.286,1.540,-4.480,-2.590
9080096,-0.979,0.020,0.295,1.400,-4.130,-2.450
9080116,-0.988,0.013,0.306,1.190,-4.130,-2.170
9080139,-1.001,0.016,0.303,1.400,-5.110,-2.170
9080156,-0.995,0.023,0.296,0.980,-5.740,-1.540
9080175,-0.984,0.017,0.307,1.050,-6.860,-0.910
9080200,-0.978,0.005,0.312,1.190,-8.960,-0.630
9080220,-0.983,0.020,0.327,0.770,-10.080,-0.280
9080240,-0.985,0.014,0.327,0.770,-10.710,-0.420
9080256,-0.984,0.005,0.328,1.400,-10.990,-0.420
9080280,-0.976,0.016,0.288,0.420,-11.270,0.070
9080300,-0.960,0.014,0.285,0.630,-7.350,-0.070
9080319,-0.969,0.012,0.305,1.190,-6.090,-0.210
9080340,-0.991,-0.019,0.325,0.210,-6.230,0.140
9080360,-0.978,0.010,0.320,0.350,-8.610,-0.770
9080384,-0.992,0.077,0.297,2.660,-10.570,-2.240
9080403,-1.005,0.048,0.276,2.660,-12.880,-1.820
9080424,-0.976,-0.008,0.278,0.840,-11.340,-1.400
9080448,-0.958,0.012,0.339,0.210,-3.780,-0.910
9080466,-0.972,0.030,0.372,1.330,-5.250,-0.420
9080486,-0.976,0.034,0.374,0.770,-6.580,0.490
9080510,-0.962,0.039,0.386,-0.280,-7.350,0.630
9080530,-0.947,0.008,0.367,-0.070,-6.300,0.840
9080549,-0.934,0.006,0.353,-0.070,-0.630,0.840
9080569,-0.928,0.044,0.377,-0.280,10.150,0.420
9080594,-0.951,0.055,0.407,-5.180,14.910,0.140
9080614,-0.970,0.048,0.375,-11.130,15.120,0.280
9080632,-0.932,0.029,0.366,-14.910,14.140,-0.490
9080652,-0.909,0.020,0.346,-15.190,18.200,-1.400
9080676,-0.952,0.012,0.397,-10.360,16.870,-1.470
9080696,-0.979,0.000,0.349,-4.200,12.530,-1.680
9080712,-0.983,-0.012,0.324,-3.850,10.220,-1.540
9080732,-0.972,-0.013,0.326,-3.640,7.840,-0.700
9080756,-0.976,-0.015,0.314,-5.530,4.760,-0.770
9080775,-0.968,0.025,0.294,-3.080,4.550,-1.190
9080796,-1.022,0.007,0.316,-3.500,2.310,-1.330
9080815,-1.033,-0.002,0.308,-4.690,-0.700,-1.190
9080834,-1.019,0.006,0.293,-6.020,-3.360,-0.210
9080858,-0.993,-0.004,0.277,-6.440,-4.060,-0.280
9080879,-0.962,0.012,0.264,-3.780,-4.480,-0.140
9080899,-0.960,0.019,0.271,-1.820,-4.410,0.280
9080919,-1.001,-0.006,0.284,-3.430,-6.230,0.700
9080939,-1.004,-0.006,0.250,-3.990,-9.660,1.120
9080958,-0.996,0.018,0.290,-1.120,-7.770,1.190
9080976,-0.997,0.017,0.178,-2.660,-5.320,1.820
9080999,-1.001,-0.005,0.244,-4.690,-2.520,3.220
9081016,-0.991,-0.020,0.311,-2.520,-4.200,3.500
9081041,-0.976,-0.019,0.311,0.700,-8.960,2.660
9081060,-0.949,0.002,0.244,2.800,-9.730,1.610
9081080,-0.947,-0.001,0.253,6.300,-6.860,0.490
9081100,-0.957,-0.017,0.277,7.560,-5.110,0.000
9081120,-0.972,-0.004,0.292,8.050,-4.550,-0.560
9081140,-0.977,0.017,0.297,9.100,-3.990,-1.260
9081158,-0.973,0.033,0.323,10.360,-1.890,-1.120
9081176,-0.983,-0.013,0.378,7.070,-5.110,-1.470
9081200,-0.953,0.007,0.328,6.720,-6.510,-1.610
9081220,-0.972,0.029,0.332,6.510,-7.770,-1.750
9081240,-1.003,0.022,0.316,6.930,-9.310,-2.030
9081260,-1.037,0.022,0.339,8.750,-13.020,-1.820
9081279,-0.972,-0.009,0.313,9.100,-14.350,-0.980
9081303,-0.940,0.024,0.318,11.410,-9.800,-0.700
9081323,-0.972,0.029,0.325,11.340,-10.500,-0.770
9081343,-1.004,0.039,0.327,10.010,-11.900,-1.050
9081360,-0.995,0.029,0.338,7.560,-14.070,-1.260
9081384,-0.951,0.018,0.288,5.460,-15.120,-1.890
9081403,-0.898,0.059,0.276,8.820,-4.900,-2.240
9081424,-0.922,0.064,0.391,10.430,4.340,-2.380
9081448,-0.977,-0.013,0.414,4.900,4.410,-3.850
9081465,-0.950,0.044,0.391,-1.680,0.910,-3.780
9081486,-0.891,0.072,0.328,0.210,5.390,-1.680
9081509,-0.906,0.045,0.373,3.290,7.630,0.560
9081529,-0.943,-0.010,0.487,-0.420,14.140,-0.350
9081552,-0.964,0.052,0.396,-3.430,4.830,-2.310
9081573,-0.918,0.100,0.379,-4.830,8.750,-1.400
9081592,-0.911,-0.003,0.394,-2.660,13.790,-0.490
9081611,-0.931,-0.044,0.401,-4.970,17.360,-0.700
9081633,-0.937,0.041,0.325,1.330,15.820,-1.820
9081652,-0.991,0.076,0.311,3.850,15.820,-3.920
9081675,-1.006,0.018,0.254,-5.670,15.750,-4.970
9081699,-1.015,0.032,0.359,-16.450,13.160,-4.200
9081720,-1.013,0.069,0.291,-8.120,6.650,-5.110
9081738,-1.057,0.047,0.318,3.220,6.440,-3.290
9081758,-1.012,-0.069,0.210,0.700,1.890,-2.240
9081778,-0.925,-0.057,0.227,-7.140,13.580,-1.750
9081803,-0.983,-0.054,0.348,-11.760,10.780,-3.710
9081822,-1.043,0.029,0.322,-10.010,3.500,-3.360
9081837,-1.014,0.052,0.298,-3.990,1.890,-3.290
9081860,-0.991,0.020,0.275,2.380,2.310,-2.450
9081884,-0.990,-0.022,0.270,5.880,3.080,-2.800
9081903,-0.979,-0.020,0.250,11.410,3.500,-3.500
9081924,-1.012,0.002,0.280,10.360,2.660,-4.480
9081942,-1.026,0.017,0.280,7.210,0.980,-4.620
9081966,-1.012,0.010,0.303,5.460,0.840,-4.900
9081982,-0.978,0.000,0.319,6.090,-0.980,-5.460
9082005,-0.947,-0.010,0.287,6.720,-4.130,-5.740
9082029,-0.947,0.000,0.251,5.600,-3.570,-5.320
9082050,-0.972,0.017,0.252,4.550,-1.050,-3.990
9082069,-0.989,0.008,0.271,2.170,-0.980,-2.450
9082089,-0.989,0.020,0.263,2.380,1.820,-1.680
9082106,-1.010,0.017,0.325,5.880,1.190,-1.680
9082126,-1.008,0.003,0.281,4.970,-3.780,-1.120
9082150,-0.976,0.005,0.261,1.470,-3.430,-0.490
9082170,-0.983,0.000,0.299,0.910,-2.240,-0.350
9082188,-1.004,0.001,0.309,1.820,-4.060,-0.140
9082212,-1.012,0.012,0.300,2.030,-6.930,0.560
9082227,-0.991,0.018,0.285,2.310,-8.190,1.190
9082252,-0.976,0.008,0.279,0.280,-7.420,1.610
9082275,-0.965,-0.005,0.251,0.770,-5.600,1.610
9082296,-0.963,0.005,0.265,1.540,-2.520,1.330
9082314,-1.000,-0.008,0.289,0.560,-4.620,1.120
9082334,-1.024,0.006,0.295,-0.070,-9.730,0.560
9082356,-1.011,0.020,0.288,0.770,-11.410,-0.140
9082376,-0.994,0.030,0.278,2.380,-10.920,-0.140
9082400,-0.995,0.000,0.275,0.210,-6.790,0.980
9082419,-1.021,0.007,0.330,-0.700,-10.360,1.260
9082438,-1.012,0.010,0.323,0.910,-15.750,1.540
9082463,-0.982,-0.004,0.311,1.330,-18.410,1.610
9082480,-0.954,0.022,0.305,1.680,-17.780,1.400
9082503,-0.931,0.028,0.309,4.760,-12.320,1.330
9082522,-0.957,0.017,0.358,9.100,-7.840,2.100
9082546,-0.985,0.015,0.391,7.770,-7.000,2.730
9082567,-0.961,0.024,0.405,3.850,-7.350,2.660
9082584,-0.949,0.027,0.367,0.840,-3.360,3.640
9082605,-0.937,0.018,0.372,-3.010,6.790,4.130
9082627,-0.972,0.023,0.469,-7.980,4.760,3.010
9082644,-0.947,0.016,0.461,-10.920,-0.910,2.170
9082668,-0.950,0.031,0.425,-4.480,-0.210,1.330
9082687,-0.982,0.025,0.390,-0.280,-3.990,2.450
9082708,-0.977,-0.004,0.342,-3.850,-6.580,1.750
9082727,-0.940,0.034,0.331,-4.060,-5.530,-1.050
9082748,-0.960,0.036,0.303,-4.760,-0.980,-2.730
9082768,-1.015,0.008,0.315,-0.840,1.960,-4.620
9082786,-1.058,-0.025,0.346,0.000,0.350,-6.580
9082810,-1.064,0.040,0.358,-4.060,-5.670,-8.890
9082830,-1.007,-0.003,0.318,-2.170,-11.830,-7.210
9082847,-0.954,0.043,0.281,2.660,-13.370,-4.340
9082867,-0.945,0.060,0.252,5.110,-8.890,-2.730
9082886,-0.946,0.010,0.264,-3.920,-10.080,-1.470
9082912,-0.936,0.053,0.296,-12.040,-16.730,0.280
9082931,-0.912,0.010,0.300,-11.690,-19.600,2.380
9082949,-0.917,-0.022,0.289,-7.560,-19.670,3.150
9082973,-0.943,-0.011,0.305,-2.100,-17.010,3.500
9082991,-0.955,-0.022,0.323,0.700,-15.820,2.660
9083015,-0.956,-0.014,0.332,4.620,-14.420,1.330
9083035,-0.944,0.000,0.340,5.880,-9.590,0.140
9083055,-0.938,0.010,0.365,7.280,-5.180,-1.120
9083075,-0.946,0.018,0.366,7.630,-2.870,-1.750
9083091,-0.944,0.019,0.380,6.720,-0.910,-1.540
9083111,-0.936,0.013,0.385,5.040,0.140,-1.330
9083133,-0.937,0.025,0.371,5.530,2.030,-1.960
9083157,-0.943,0.041,0.365,7.420,6.160,-2.800
9083177,-0.943,0.001,0.400,4.130,3.360,-2.590
9083198,-0.931,-0.002,0.381,4.130,5.950,-3.150
9083215,-0.964,0.026,0.407,7.980,5.110,-4.060
9083239,-0.976,0.040,0.319,7.280,3.150,-3.780
9083256,-0.966,0.062,0.387,4.200,8.120,-2.380
9083275,-0.940,0.013,0.435,-0.420,5.740,-1.400
9083300,-0.927,0.004,0.335,-1.960,-1.260,-0.350
9083316,-0.953,-0.003,0.336,1.540,-1.050,-0.280
9083336,-0.978,0.008,0.329,4.830,1.120,-1.260
9083359,-0.993,0.022,0.394,7.630,1.470,-1.050
9083380,-1.003,-0.005,0.366,6.440,-3.430,-2.100
9083398,-0.979,0.030,0.341,8.680,-3.010,-3.010
9083418,-0.975,0.023,0.340,6.510,-0.980,-2.730
9083442,-0.976,-0.009,0.347,-1.890,-1.120,-2.240
9083458,-0.935,0.061,0.383,-4.200,-2.660,-2.030
9083482,-0.912,0.048,0.378,3.360,0.770,-1.680
9083502,-0.964,-0.004,0.403,8.960,4.760,-2.450
9083527,-0.971,-0.009,0.431,0.980,0.630,-1.540
9083544,-0.912,0.059,0.369,-3.360,-1.050,-0.840
9083568,-0.867,0.110,0.408,-5.950,7.420,0.980
9083585,-0.945,0.039,0.544,-8.750,4.690,0.630
9083605,-0.906,-0.018,0.436,-10.920,-1.330,0.420
9083628,-0.800,-0.005,0.370,-3.570,11.410,0.490
9083649,-0.798,0.016,0.488,2.800,27.440,-0.700
9083666,-0.869,0.029,0.505,1.120,26.390,-2.310
9083686,-0.939,0.028,0.412,-3.920,23.100,-0.630
9083706,-1.033,0.008,0.253,-3.010,19.600,-17.710
9083726,-1.031,0.071,0.154,-1.540,25.200,-1.330
9083750,-1.056,0.027,0.324,-10.360,26.530,-1.400
9083775,-1.091,-0.044,0.377,-15.190,20.230,-3.360
9083794,-1.071,-0.024,0.355,-11.830,15.750,-2.170
9083814,-1.009,0.003,0.316,-6.650,13.090,-1.260
9083830,-0.988,0.016,0.274,-2.590,11.690,0.070
9083854,-0.968,0.004,0.265,0.000,10.150,0.630
9083874,-0.983,-0.013,0.283,1.050,7.980,0.700
9083898,-1.016,-0.021,0.254,2.800,0.490,-0.770
9083918,-1.029,-0.019,0.247,2.170,-0.840,-0.980
9083942,-1.040,-0.003,0.271,3.850,-2.030,-2.730
9083959,-1.001,0.018,0.268,4.550,-6.090,-3.150
9083983,-0.958,0.014,0.253,3.850,-6.230,-4.130
9084003,-0.944,0.017,0.270,2.940,-2.450,-4.410
9084021,-0.993,0.012,0.290,1.960,-2.380,-3.920
9084045,-1.020,0.028,0.285,0.280,-4.410,-2.520
9084063,-1.015,0.025,0.297,-0.210,-7.000,-1.470
9084085,-0.994,0.015,0.301,0.000,-9.310,-1.050
9084105,-0.973,0.020,0.285,0.140,-10.010,-1.050
9084125,-0.978,0.025,0.289,-0.770,-9.100,-0.420
9084144,-0.983,0.026,0.297,-1.190,-9.800,0.350
9084163,-0.986,0.005,0.292,-2.380,-10.080,0.840
9084183,-0.979,-0.002,0.270,-2.520,-7.000,0.770
9084208,-0.979,-0.004,0.298,0.910,-3.850,0.280
9084228,-0.994,-0.007,0.325,2.590,-5.600,-0.210
9084247,-1.014,-0.002,0.327,2.310,-8.680,-0.350
9084267,-0.992,0.124,0.333,0.070,-12.880,-0.490
9084286,-0.958,0.036,0.260,-1.960,-8.190,-0.980
9084310,-0.947,0.013,0.269,0.910,0.910,-0.630
9084331,-0.978,-0.019,0.292,0.840,-3.640,-0.840
9084351,-0.969,-0.003,0.243,-1.750,-5.110,-0.560
9084371,-0.955,0.035,0.243,-2.870,3.220,-1.050
9084391,-1.010,0.056,0.291,-7.000,4.830,-1.610
9084410,-1.022,0.028,0.344,-8.050,1.540,-1.050
9084426,-0.990,0.015,0.337,-5.950,-3.220,-1.120
9084449,-0.971,0.035,0.287,-0.910,-2.800,0.000
9084469,-0.976,0.014,0.298,0.700,-0.140,1.120
9084494,-0.977,-0.017,0.344,1.610,0.700,0.420
9084512,-0.995,-0.030,0.370,0.210,-0.490,0.280
9084532,-1.012,0.022,0.355,-2.870,-4.130,1.330
9084549,-0.976,0.035,0.335,-4.060,-2.800,1.190
9084573,-0.956,-0.003,0.342,0.700,1.960,-0.420
9084592,-0.948,0.020,0.356,2.030,5.110,-0.560
9084611,-0.942,0.002,0.339,-1.540,4.410,0.210
9084631,-0.932,-0.008,0.319,-3.710,8.470,-0.420
9084655,-0.937,0.039,0.339,-2.380,14.280,-0.280
9084672,-0.976,0.029,0.389,-0.280,10.080,0.280
9084696,-0.966,-0.037,0.349,0.630,3.290,-0.350
9084714,-0.958,-0.027,0.264,0.210,9.380,-0.910
9084735,-0.981,0.029,0.316,0.910,19.600,-0.770
9084753,-1.004,0.052,0.352,-1.260,20.090,-2.310
9084778,-1.011,0.000,0.347,-3.710,16.380,-3.290
9084797,-1.057,-0.029,0.315,-8.330,4.900,-2.100
9084815,-1.024,0.018,0.259,-7.560,3.290,-0.700
9084839,-1.039,-0.045,0.263,1.960,1.680,-1.330
9084859,-1.000,-0.006,0.222,-2.240,-2.030,-1.750
9084879,-0.989,0.061,0.233,-7.070,-3.290,0.350
9084896,-0.986,0.004,0.238,-6.510,-7.420,1.400
9084920,-0.948,0.006,0.220,-5.530,-11.130,0.840
9084939,-0.961,-0.002,0.209,-1.960,-13.930,0.630
9084956,-1.001,0.003,0.217,-1.960,-15.610,0.210
9084979,-1.001,0.014,0.240,-1.750,-18.760,0.070
9085000,-0.964,-0.011,0.220,-0.630,-19.810,0.420
9085018,-0.976,-0.004,0.255,-0.770,-18.060,0.420
9085038,-1.003,0.012,0.285,-1.260,-16.800,-0.420
9085059,-1.013,0.002,0.291,0.000,-18.340,-0.910
9085079,-0.985,-0.014,0.290,0.840,-17.150,-1.190
9085098,-0.956,-0.018,0.282,0.140,-12.040,-1.400
9085124,-0.965,0.006,0.325,-0.420,-10.570,-1.470
9085143,-0.989,0.026,0.333,-0.350,-14.490,-0.910
9085160,-0.997,0.023,0.303,0.000,-16.170,-0.910
9085184,-0.965,-0.009,0.252,1.400,-10.570,-1.470
9085204,-0.929,-0.009,0.249,1.470,-0.140,-1.400
9085224,-0.923,-0.022,0.325,2.100,3.010,-1.050
9085248,-0.938,-0.033,0.314,2.030,-5.180,-1.330
9085268,-0.956,-0.016,0.295,-0.840,-9.100,-0.980
9085291,-0.975,-0.003,0.306,-1.120,-10.430,-2.030
9085311,-0.965,-0.015,0.305,0.000,-10.780,-3.150
9085331,-1.011,-0.021,0.314,1.190,-12.600,-4.060
9085351,-0.972,0.004,0.342,3.360,-12.810,-2.030
9085371,-0.973,-0.000,0.376,4.410,-9.800,-4.270
9085395,-0.965,0.026,0.347,1.260,-8.190,-3.500
9085415,-0.996,0.014,0.411,-4.550,-12.320,-3.290
9085435,-0.971,0.012,0.354,-5.040,-15.960,-2.870
9085454,-0.950,-0.008,0.330,1.610,-18.340,-3.150
9085476,-0.863,-0.028,0.381,13.580,-7.770,-2.870
9085495,-0.853,0.028,0.429,10.640,1.470,-4.340
9085515,-0.874,0.077,0.459,3.150,9.170,-5.670
9085532,-0.856,0.046,0.526,3.220,16.310,-6.650
9085556,-0.818,-0.029,0.576,9.730,23.380,-2.170
9085576,-0.832,-0.116,0.529,0.630,17.220,-3.010
9085596,-0.858,0.091,0.344,0.350,23.450,-1.540
9085616,-1.085,0.086,0.378,13.790,30.660,-0.490
9085636,-1.188,0.024,0.307,10.990,18.200,-0.420
9085653,-1.087,-0.036,0.130,-6.020,10.850,3.640
9085673,-1.000,-0.021,0.251,0.140,17.850,3.150
9085697,-0.977,0.011,0.300,7.840,21.000,1.050
9085717,-1.010,0.017,0.285,3.570,15.260,1.680
9085736,-0.988,-0.025,0.232,-5.740,14.910,3.640
9085761,-0.986,-0.085,0.273,-4.690,16.170,3.290
9085778,-0.983,-0.039,0.275,-1.260,13.930,2.310
9085800,-0.984,-0.004,0.264,2.730,13.510,0.000
9085820,-0.991,0.008,0.262,3.710,13.020,-1.190
9085840,-1.028,0.033,0.253,4.900,10.500,-0.350
9085859,-1.035,0.021,0.255,5.040,5.530,-0.490
9085875,-0.997,0.033,0.238,6.440,6.440,-1.610
9085899,-0.991,0.027,0.304,9.590,6.720,-3.080
9085919,-0.989,0.014,0.249,6.160,0.840,-3.360
9085939,-0.971,0.021,0.230,3.710,1.540,-2.870
9085963,-0.982,0.008,0.248,2.870,6.090,-1.540
9085983,-1.012,0.002,0.265,1.470,5.880,-0.980
9086003,-1.012,0.010,0.257,1.960,4.550,-0.350
9086021,-1.003,0.018,0.260,2.520,4.060,-0.070
9086044,-0.992,0.018,0.283,3.850,3.430,-0.210
9086062,-1.001,0.010,0.291,3.430,1.960,0.350
9086085,-1.019,0.001,0.277,2.870,-0.700,0.560
9086105,-1.011,0.018,0.276,2.310,-1.190,0.840
9086126,-0.994,0.030,0.255,1.610,-4.200,1.050
9086150,-0.979,0.031,0.254,0.560,-3.430,1.260
9086168,-0.989,0.012,0.262,0.140,-3.570,0.910
9086190,-1.001,0.018,0.242,0.910,-3.570,0.490
9086209,-0.995,0.018,0.225,0.700,0.000,0.280
9086229,-1.001,0.021,0.228,1.680,4.550,-0.560
9086252,-1.002,0.024,0.244,1.400,2.590,-0.840
9086274,-0.976,0.013,0.264,2.590,1.050,-0.980
9086289,-0.972,0.011,0.252,2.870,1.120,-1.190
9086311,-0.993,0.016,0.246,3.640,-0.770,-0.770
9086333,-1.005,0.031,0.216,3.430,0.560,-0.700
9086352,-1.017,0.041,0.237,-0.210,-0.350,-0.070
9086377,-1.008,0.006,0.242,-1.190,-6.020,-1.610
9086396,-0.976,0.024,0.222,1.260,-8.120,-1.750
9086419,-0.974,0.022,0.184,-0.630,-5.600,-1.610
9086436,-0.994,0.032,0.194,-1.540,-3.290,-1.960
9086458,-1.030,0.049,0.279,-0.980,-2.030,-1.120
9086480,-0.987,0.014,0.263,-3.360,-5.180,-0.070
9086500,-0.976,0.019,0.294,-1.820,-4.970,-0.070
9086519,-0.983,0.025,0.283,0.980,-6.230,-0.420
9086543,-0.992,0.037,0.308,3.150,-5.810,-0.910
9086561,-0.999,0.022,0.310,1.750,-8.820,-0.910
9086580,-0.989,0.022,0.305,-1.050,-10.080,-2.100
9086605,-0.985,0.037,0.311,-2.730,-7.910,-2.240
9086625,-0.994,0.019,0.306,-3.290,-7.350,-3.430
9086645,-0.972,0.006,0.299,-0.420,-2.170,-4.550
9086666,-0.976,0.011,0.325,1.610,2.310,-4.620
9086684,-0.988,0.016,0.356,1.120,-0.280,-5.250
9086704,-0.957,0.034,0.351,-1.190,-1.820,-3.010
9086723,-0.941,-0.024,0.350,17.850,-2.310,-2.730
9086748,-0.976,0.028,0.306,3.220,-2.520,-0.420
9086767,-0.992,-0.020,0.305,1.750,2.800,0.770
9086787,-0.978,0.012,0.315,0.700,3.010,0.840
9086806,-0.984,0.006,0.282,-4.340,4.620,0.840
9086822,-0.968,-0.037,0.253,-4.970,4.550,2.730
9086844,-0.972,0.033,0.228,-5.320,14.280,1.260
9086866,-1.079,-0.019,0.324,-2.380,16.030,0.420
9086890,-1.067,-0.025,0.289,0.140,-1.190,-0.700
9086910,-1.041,-0.030,0.189,0.070,-3.570,-2.170
9086929,-1.018,0.059,0.202,1.470,-4.060,-1.330
9086950,-0.979,0.043,0.229,-1.540,-7.630,-0.350
9086967,-0.971,0.003,0.209,-2.660,-9.870,-0.280
9086990,-0.971,0.010,0.200,-3.850,-14.630,0.000
9087011,-0.967,0.025,0.219,1.960,-14.140,-0.490
9087029,-0.980,0.013,0.218,2.520,-14.280,-0.420
9087053,-0.973,-0.012,0.169,-1.050,-13.930,-0.070
9087072,-0.976,-0.001,0.219,-2.100,-6.580,0.070
9087091,-0.981,0.024,0.260,-1.680,-4.340,-0.770
9087114,-0.987,0.025,0.282,-0.490,-5.320,-1.260
9087135,-0.969,0.002,0.265,-1.260,-7.000,-0.770
9087154,-0.947,-0.014,0.267,-2.240,-4.270,-0.840
9087175,-0.971,0.018,0.285,-1.540,-2.380,-1.260
9087191,-1.002,0.061,0.275,-0.210,-4.410,-1.610
9087214,-1.021,0.034,0.279,-2.660,-5.390,-0.840
9087235,-1.056,-0.021,0.345,-6.580,-14.000,-0.280
9087255,-1.031,-0.020,0.262,-7.280,-23.100,0.420
9087275,-0.999,0.008,0.252,-2.590,-22.680,1.050
9087295,-0.983,0.018,0.250,1.260,-22.820,0.700
9087312,-0.963,-0.016,0.265,4.060,-21.210,-0.070
9087331,-0.973,-0.025,0.302,3.290,-20.020,-1.680
9087351,-0.981,-0.007,0.309,4.060,-21.630,-2.870
9087371,-0.970,-0.001,0.329,6.510,-24.570,-3.990
9087395,-0.950,-0.014,0.322,8.260,-24.430,-4.690
9087415,-0.924,-0.009,0.329,4.900,-17.640,-4.830
9087434,-0.909,0.018,0.352,-17.850,-9.870,-5.040
9087454,-0.935,0.025,0.413,-0.770,-6.580,-5.810
9087477,-0.932,0.016,0.429,1.540,-7.420,-6.860
9087496,-0.958,-0.035,0.435,4.690,-8.680,-6.510
9087521,-0.873,0.027,0.390,4.410,-12.460,-6.860
9087545,-0.745,0.092,0.359,1.050,10.570,-6.160
9087566,-0.797,0.033,0.508,-4.130,37.030,-7.420
9087584,-0.945,0.043,0.621,-5.530,24.780,-7.140
9087605,-0.952,0.030,0.457,-4.340,7.420,-5.670
9087625,-0.952,0.035,0.317,-0.140,17.010,-3.080
9087644,-1.005,-0.074,0.348,4.550,23.030,-0.140
9087663,-1.118,-0.085,0.409,6.510,18.270,2.450
9087688,-1.147,-0.047,0.372,0.840,-3.500,2.170
9087708,-1.008,-0.022,0.238,-2.870,-6.440,3.780
9087727,-0.914,-0.048,0.199,-5.040,5.040,4.550
9087750,-0.974,-0.072,0.286,-5.460,9.380,4.760
9087768,-1.001,-0.046,0.294,-3.780,8.680,3.500
9087790,-1.010,-0.015,0.275,0.280,9.030,1.260
9087809,-0.988,0.011,0.256,2.660,9.310,-0.910
9087829,-0.961,0.015,0.271,8.260,13.440,-1.470
9087853,-1.123,0.011,0.275,12.530,10.710,-2.310
9087873,-1.011,0.038,0.252,11.970,10.080,-2.100
9087892,-1.002,0.050,0.270,10.780,10.990,-1.820
9087915,-0.997,0.034,0.298,9.450,7.070,-1.540
9087935,-0.992,0.020,0.298,8.050,4.760,-1.610
9087955,-0.978,0.012,0.290,6.510,4.830,-1.820
9087975,-0.971,0.001,0.302,6.020,5.180,-1.750
9087999,-0.987,-0.000,0.307,6.090,3.920,-1.750
9088015,-1.018,0.013,0.289,5.390,0.840,-1.470
9088038,-1.018,0.009,0.282,3.430,-0.560,-0.210
9088062,-0.990,0.003,0.287,3.780,1.190,0.840
9088081,-0.970,-0.014,0.284,2.310,-1.750,1.120
9088101,-0.945,0.018,0.264,2.940,1.260,1.050
9088121,-0.976,0.028,0.313,5.250,0.560,0.980
9088145,-1.005,0.006,0.283,4.200,-5.390,1.050
9088164,-1.000,0.010,0.281,2.590,-5.250,0.700
9088183,-1.004,0.018,0.291,1.400,-3.430,0.630
9088208,-1.012,0.018,0.305,0.700,-5.460,0.490
9088229,-0.990,0.020,0.300,1.890,-6.720,0.420
9088248,-0.976,0.012,0.293,2.520,-6.930,0.560
9088269,-0.976,0.009,0.301,2.310,-6.720,0.490
9088287,-0.974,0.011,0.304,1.470,-6.370,0.490
9088312,-0.979,0.024,0.277,-0.280,-4.830,0.490
9088331,-0.997,0.025,0.300,-3.150,-4.480,0.420
9088351,-0.988,0.009,0.244,-3.150,-7.910,0.490
9088371,-0.950,0.015,0.231,-1.260,-2.520,0.560
9088395,-0.951,-0.007,0.256,-1.190,1.330,0.490
9088414,-0.990,0.002,0.282,-2.870,2.870,1.540
9088430,-1.015,0.039,0.342,-2.870,3.290,1.750
9088455,-0.988,0.062,0.321,-1.960,0.140,1.960
9088476,-0.975,0.034,0.314,-1.050,0.350,1.820
9088495,-0.957,0.012,0.301,-1.330,0.630,1.820
9088513,-0.962,-0.010,0.331,-0.420,2.170,1.470
9088532,-0.985,0.003,0.326,-0.420,0.910,1.540
9088554,-0.998,0.017,0.306,-2.310,2.240,0.490
9088576,-0.991,0.024,0.311,-2.380,4.340,-2.030
9088598,-0.975,0.016,0.311,-0.910,5.810,-2.870
9088620,-0.986,0.033,0.336,-1.050,7.070,-2.940
9088637,-0.992,0.041,0.326,-4.760,5.950,-5.600
9088657,-0.966,0.066,0.341,-10.640,7.350,-4.690
9088677,-0.979,0.040,0.348,-6.930,1.890,-4.550
9088701,-0.974,0.012,0.285,-5.810,-2.100,-3.640
9088721,-0.951,-0.014,0.284,-4.270,-0.840,-3.360
9088741,-0.955,-0.015,0.302,-4.900,-0.910,-3.080
9088759,-0.966,-0.002,0.303,-5.040,-0.210,-2.870
9088782,-0.986,0.042,0.283,-4.550,-3.570,-3.010
9088800,-1.018,0.031,0.287,-4.970,-6.370,-3.220
9088819,-1.020,-0.003,0.266,-4.410,-9.590,-2.870
9088844,-0.996,-0.012,0.267,-4.270,-9.940,-0.350
9088864,-0.988,-0.007,0.253,-5.390,-10.220,0.210
9088882,-0.985,-0.016,0.280,-4.690,-8.820,1.190
9088902,-0.981,-0.035,0.275,-3.500,-10.710,1.190
9088926,-0.958,-0.027,0.244,-2.380,-10.010,1.470
9088946,-0.964,-0.016,0.244,-0.560,-9.520,1.120
9088964,-0.977,-0.018,0.233,1.400,-10.010,1.470
9088988,-0.971,-0.033,0.255,1.890,-8.610,2.450
9089004,-0.982,-0.020,0.272,5.950,-11.410,2.240
9089027,-0.977,-0.010,0.251,8.120,-9.240,1.960
9089049,-0.981,-0.015,0.278,7.840,-3.780,1.680
9089063,-1.000,-0.014,0.314,8.330,-1.120,0.910
9089087,-1.006,0.006,0.307,7.560,-2.240,0.350
9089108,-1.010,0.031,0.288,5.460,-4.060,0.280
9089126,-1.004,0.031,0.277,4.830,-5.950,0.490
9089150,-0.993,0.013,0.296,3.990,-5.530,0.560
9089168,-0.984,0.008,0.321,4.270,-5.950,0.210
9089189,-0.991,0.005,0.330,6.510,-10.150,-0.210
9089213,-0.977,0.022,0.299,6.580,-10.430,-0.350
9089233,-0.974,0.036,0.329,7.980,-12.110,-0.630
9089248,-0.988,0.033,0.310,7.770,-14.000,-0.350
9089271,-0.981,0.017,0.309,3.710,-12.880,0.070
9089295,-0.954,0.017,0.336,1.610,-9.520,0.070
9089314,-0.951,0.023,0.351,3.640,-7.000,-0.490
9089336,-0.936,0.029,0.381,6.230,-3.990,-0.350
9089356,-0.912,0.054,0.381,6.790,-0.770,0.210
9089380,-0.895,0.077,0.408,3.290,5.390,0.070
9089400,-0.936,0.086,0.438,-1.890,2.170,0.910
9089420,-0.905,0.048,0.405,-4.130,-5.740,1.330
9089440,-0.829,0.042,0.361,-3.080,2.310,2.870
9089459,-0.856,0.003,0.422,5.880,18.550,4.410
9089480,-0.962,-0.016,0.486,7.560,19.810,3.780
9089496,-0.989,0.041,0.453,4.340,14.070,2.450
9089520,-0.958,0.101,0.389,-2.520,8.330,2.030
9089541,-0.990,0.078,0.348,-6.650,1.470,1.610
9089558,-0.984,0.049,0.281,-5.950,0.350,-0.280
9089580,-0.981,0.028,0.285,-7.490,5.740,2.450
9089600,-1.032,-0.036,0.302,-7.840,2.870,3.990
9089624,-1.029,-0.010,0.265,-4.550,2.240,1.960
9089643,-1.035,0.055,0.290,2.940,6.370,0.420
9089667,-1.026,0.104,0.302,2.800,5.180,-0.210
9089686,-1.015,0.057,0.280,-1.610,3.640,0.910
9089706,-0.955,-0.024,0.280,-2.800,0.840,0.490
9089725,-0.978,-0.050,0.274,1.120,3.220,-3.360
9089748,-1.010,0.000,0.258,3.850,-3.990,-4.620
9089772,-0.982,0.081,0.268,3.920,-0.700,-3.360
9089788,-0.988,0.113,0.325,3.430,0.210,-2.660
9089807,-1.005,0.058,0.323,0.700,-6.230,-1.190
9089831,-0.967,0.009,0.290,-0.350,-4.550,-1.050
9089855,-0.971,0.027,0.299,1.400,-1.680,-1.400
9089872,-0.971,0.045,0.295,0.910,0.140,-1.260
9089895,-0.975,0.046,0.319,0.910,0.770,-0.840
9089914,-0.987,0.020,0.325,1.820,-0.910,-0.490
9089936,-0.977,0.013,0.318,1.820,-2.030,0.000
9089955,-0.960,0.021,0.304,2.030,-2.170,0.210
9089975,-0.963,0.032,0.311,2.170,-1.960,0.070
9090000,-0.976,0.026,0.313,2.100,-2.730,-0.560
9090020,-0.979,0.036,0.317,1.470,-3.220,-0.840
9090040,-0.980,0.027,0.309,1.190,-2.730,-1.120
9090062,-0.984,0.021,0.311,2.450,-1.330,-1.610
9090084,-0.985,0.031,0.312,4.340,-1.820,-1.540
9090105,-0.989,0.042,0.310,4.200,-2.380,-0.980
9090120,-0.979,0.042,0.314,3.850,-3.150,-0.630
9090144,-0.976,0.038,0.310,4.340,-3.080,-0.630
9090164,-0.970,0.030,0.315,5.040,-2.940,-0.840
9090184,-0.970,0.041,0.323,5.320,-3.220,-1.050
9090204,-0.969,0.042,0.328,4.900,-3.640,-0.700
9090228,-0.976,0.036,0.336,4.550,-4.060,-0.840
9090246,-0.981,0.049,0.328,4.060,-5.040,-0.700
9090270,-0.978,0.055,0.306,2.450,-4.550,-0.140
9090291,-0.985,0.054,0.296,2.940,-4.760,0.350
9090310,-0.983,0.039,0.312,-0.070,-7.210,0.490
9090330,-0.941,0.066,0.279,-1.260,-4.550,0.700
9090349,-0.942,0.057,0.309,2.310,0.840,0.350
9090366,-0.981,0.033,0.318,3.150,-1.330,-0.560
9090386,-0.996,0.024,0.328,2.660,-1.820,-0.980
9090407,-0.963,0.071,0.320,1.960,-0.700,-1.050
9090428,-0.938,0.084,0.305,0.560,4.060,-0.070
9090450,-0.971,0.057,0.344,-0.840,5.040,0.280
9090470,-1.001,0.037,0.346,-1.120,1.470,-0.140
9090494,-0.997,0.044,0.347,-0.630,0.840,0.420
9090513,-0.986,0.017,0.342,0.980,0.980,0.210
9090533,-0.960,0.018,0.334,4.200,4.410,0.490
9090553,-0.984,0.056,0.359,5.530,4.900,1.050
9090577,-0.986,0.059,0.357,5.390,5.670,0.420
9090594,-0.975,0.064,0.366,5.320,8.610,-0.350
9090616,-0.976,0.045,0.386,4.900,7.140,-0.350
9090640,-0.982,0.054,0.384,3.780,2.940,-1.540
9090659,-0.967,0.025,0.363,1.190,0.420,-2.590
9090679,-0.975,0.046,0.338,2.380,-1.400,-4.130
9090696,-0.959,0.069,0.323,2.450,-4.130,-4.550
9090717,-0.943,0.071,0.293,-0.770,-4.760,-3.220
9090739,-0.945,0.059,0.271,-3.010,-0.770,-1.750
9090758,-0.998,0.020,0.279,-1.610,4.340,-4.340
9090778,-1.007,0.021,0.311,-0.630,7.420,-4.900
9090803,-1.007,0.092,0.340,-6.720,3.150,-4.200
9090817,-0.993,0.083,0.285,-7.490,1.820,-3.220
9090843,-0.996,0.003,0.247,-4.410,5.740,-3.430
9090861,-0.991,-0.003,0.318,-8.470,3.010,-3.080
9090880,-0.980,0.018,0.318,-11.620,-2.590,-3.430
9090905,-0.950,0.059,0.333,-7.770,-6.790,-1.820
9090925,-0.954,0.051,0.274,-2.590,-13.160,-0.140
9090942,-0.961,0.010,0.247,-1.610,-13.370,-0.140
9090965,-0.951,0.007,0.288,-2.030,-15.330,0.350
9090982,-0.957,0.015,0.284,0.140,-15.050,-0.630
9091006,-0.955,0.052,0.263,8.540,-15.330,-1.540
9091027,-0.970,0.009,0.251,9.380,-13.510,-1.960
9091046,-0.977,0.003,0.270,8.400,-6.580,-3.150
9091064,-1.001,0.033,0.293,7.770,-5.250,-4.410
9091084,-0.998,0.043,0.324,5.950,-3.500,-5.110
9091106,-0.988,0.044,0.322,3.710,-3.920,-4.550
9091124,-0.994,0.035,0.296,2.170,-4.410,-3.290
9091148,-0.992,0.051,0.316,0.210,-4.270,-1.470
9091167,-0.957,0.051,0.359,-0.700,-6.230,-1.050
9091185,-0.933,0.031,0.318,0.490,-5.810,-0.420
9091209,-0.971,0.029,0.304,1.120,-4.410,0.700
9091225,-0.989,0.022,0.322,1.330,-6.090,1.260
9091249,-0.994,0.022,0.331,2.870,-9.170,0.770
9091269,-0.996,0.042,0.332,4.970,-9.660,-0.070
9091286,-0.990,0.038,0.337,5.880,-10.430,-0.910
9091309,-0.981,0.017,0.335,7.000,-12.810,-1.820
9091330,-0.973,0.022,0.327,7.700,-14.560,-3.010
9091346,-0.970,0.028,0.332,5.670,-15.190,-3.710
9091370,-0.964,0.029,0.334,1.890,-15.610,-4.480
9091390,-0.947,0.061,0.328,0.630,-11.550,-4.480
9091409,-0.957,0.038,0.378,1.260,-10.850,-4.270
9091429,-0.941,0.033,0.386,2.940,-12.600,-3.780
9091449,-0.951,0.017,0.421,6.930,-16.520,-3.080
9091468,-0.899,0.021,0.373,8.190,-20.720,-1.750
9091493,-0.878,0.056,0.382,0.770,-7.630,0.840
9091512,-0.919,0.077,0.469,-1.330,-3.850,0.490
9091531,-0.905,0.035,0.450,-5.040,-3.850,2.660
9091551,-0.871,0.021,0.462,-6.370,2.520,0.980
9091574,-0.874,0.020,0.516,1.330,10.710,1.820
9091590,-0.809,0.088,0.468,11.270,9.730,0.140
9091610,-0.761,0.131,0.406,9.660,24.850,0.070
9091635,-0.875,0.070,0.480,-5.040,37.520,4.200
9091655,-0.989,0.085,0.537,-15.470,20.370,0.840
9091675,-1.139,0.087,0.387,-18.830,-1.960,3.080
9091698,-1.038,0.071,0.217,-21.630,-3.500,7.070
9091718,-0.986,-0.071,0.228,-28.350,6.440,8.190
9091739,-0.959,-0.093,0.282,-20.160,13.440,2.870
9091758,-0.970,0.028,0.299,-0.490,19.600,2.310
9091778,-1.038,0.060,0.328,9.100,19.040,5.040
9091798,-1.040,0.005,0.309,2.380,15.890,6.230
9091822,-0.991,-0.023,0.309,-3.990,16.100,2.380
9091839,-0.968,-0.022,0.306,-2.940,14.210,-0.140
9091860,-0.977,0.006,0.302,2.800,9.450,-1.960
9091879,-0.977,0.050,0.267,4.830,6.020,-2.240
9091899,-0.958,0.052,0.273,6.790,6.510,-2.450
9091924,-0.960,0.048,0.280,7.140,7.140,-2.660
9091944,-1.003,0.040,0.286,3.570,4.200,-1.960
9091968,-0.982,0.046,0.272,3.640,7.420,-1.820
9091988,-0.992,0.044,0.315,6.440,7.770,-1.540
9092007,-1.009,0.059,0.297,4.060,6.090,-1.050
9092024,-0.997,0.076,0.305,1.260,7.210,-0.350
9092043,-0.986,0.065,0.315,1.260,8.610,-0.140
9092067,-0.988,0.052,0.314,1.890,9.170,0.000
9092087,-1.007,0.041,0.322,2.520,7.280,-0.210
9092106,-1.017,0.049,0.311,2.660,2.450,-0.770
9092125,-0.998,0.064,0.290,0.840,0.910,-0.910
9092150,-0.983,0.063,0.287,-1.190,-0.490,-0.700
9092169,-0.957,0.041,0.286,-0.700,-1.960,-1.050
9092190,-0.977,0.029,0.278,-0.140,-4.340,-1.540
9092209,-0.998,0.046,0.270,-0.070,-4.130,-1.890
9092229,-1.011,0.059,0.269,-0.560,-3.990,-1.540
9092252,-0.998,0.045,0.278,-0.140,-3.360,-1.610
9092273,-0.974,0.036,0.276,1.750,-1.400,-1.680
9092290,-0.965,0.038,0.285,3.430,0.980,-1.610
9092313,-0.982,0.044,0.304,3.570,0.280,-1.680
9092334,-0.998,0.055,0.300,1.890,-2.450,-1.330
9092355,-0.985,0.046,0.286,0.490,-3.010,-1.050
9092373,-0.976,0.040,0.285,0.420,-2.870,-0.770
9092393,-0.976,0.043,0.286,1.330,-2.870,-0.700
9092416,-0.983,0.053,0.289,1.680,-3.220,-0.070
9092436,-0.993,0.053,0.290,1.750,-4.060,0.000
9092457,-1.005,0.036,0.289,-0.560,-6.440,0.140
9092477,-0.973,0.046,0.265,-0.840,-5.040,-0.070
9092497,-0.970,0.044,0.312,2.590,-2.870,-0.560
9092521,-0.993,0.039,0.287,3.150,-8.470,-0.700
9092541,-0.980,0.052,0.290,1.610,-6.930,-0.490
9092559,-0.986,0.050,0.317,0.770,-6.440,0.070
9092583,-0.991,0.044,0.307,0.490,-6.300,-0.070
9092603,-0.990,0.041,0.305,1.680,-6.860,-0.560
9092618,-0.977,0.042,0.299,1.610,-7.420,-0.770
9092643,-0.965,0.051,0.292,1.050,-6.930,-1.120
9092663,-0.959,0.046,0.305,1.820,-5.390,-1.190
9092682,-0.964,0.042,0.317,2.450,-5.740,-0.980
9092703,-0.974,0.041,0.305,1.960,-7.770,-0.490
9092723,-0.979,0.035,0.281,2.800,-6.230,-0.420
9092742,-0.986,0.041,0.316,3.850,-3.850,-0.420
9092762,-0.996,0.044,0.335,5.320,-3.430,-0.420
9092786,-0.999,0.044,0.322,2.240,-8.960,-0.630
9092806,-0.963,0.067,0.224,-5.110,-10.710,-0.420
9092825,-0.918,0.040,0.283,-6.090,0.700,-0.910
9092845,-0.974,0.071,0.347,-4.200,0.910,-2.030
9092869,-0.982,0.053,0.316,-2.730,-2.870,-1.050
9092888,-0.993,0.049,0.300,-5.110,-4.200,0.070
9092907,-0.970,0.081,0.294,-5.740,-0.980,0.630
9092932,-0.949,0.063,0.302,-3.710,1.050,0.490
9092947,-0.953,0.061,0.315,-1.610,5.950,-0.070
9092972,-1.004,0.071,0.386,-4.690,4.970,-0.910
9092991,-0.996,0.064,0.375,-6.720,3.220,-1.470
9093014,-0.968,0.023,0.394,-2.660,5.320,-0.560
9093035,-0.939,0.007,0.334,-0.070,9.450,-0.910
9093055,-0.917,0.004,0.390,-1.960,20.230,-1.190
9093077,-0.990,0.017,0.446,-2.520,24.500,-4.270
9093097,-1.042,0.035,0.453,-2.940,17.710,-7.630
9093121,-1.013,0.067,0.380,-2.380,7.070,-8.190
9093144,-0.999,0.038,0.319,-3.570,-0.070,-7.980
9093164,-1.002,0.033,0.217,-4.060,-1.470,-7.840
9093183,-0.988,-0.002,0.224,-5.040,2.870,-9.940
9093207,-0.954,0.035,0.239,-5.810,4.900,-9.660
9093227,-0.980,0.003,0.266,-10.150,0.910,-10.150
9093247,-1.022,0.075,0.244,-10.920,-3.570,-7.280
9093264,-1.056,0.010,0.244,-8.330,-5.320,-3.920
9093283,-0.988,-0.062,0.266,-0.700,-3.360,-4.620
9093303,-0.962,0.001,0.270,0.280,-8.890,-2.030
9093325,-0.990,0.001,0.231,2.030,-14.980,0.140
9093348,-0.991,-0.007,0.216,5.530,-15.050,0.770
9093369,-0.977,0.025,0.229,5.740,-16.100,0.490
9093388,-0.951,0.043,0.255,3.640,-17.710,0.000
9093408,-0.943,0.051,0.262,0.350,-16.660,-1.400
9093428,-0.954,0.017,0.272,-0.840,-15.470,-2.100
9093451,-0.966,-0.027,0.269,1.120,-12.530,-2.100
9093471,-0.965,-0.031,0.281,0.700,-11.550,-1.540
9093495,-0.964,0.018,0.307,2.800,-5.040,-1.260
9093515,-0.981,0.020,0.344,4.200,-6.300,-0.840
9093534,-0.984,-0.000,0.299,2.660,-7.560,0.000
9093555,-0.978,0.007,0.320,1.540,-5.600,0.210
9093574,-0.968,0.025,0.318,2.380,-6.790,0.000
9093598,-0.967,0.017,0.301,2.380,-3.990,0.560
9093619,-0.978,0.017,0.321,4.760,-2.870,0.560
9093637,-0.994,0.013,0.335,5.250,-5.600,0.840
9093657,-1.003,0.016,0.323,3.710,-11.060,1.050
9093676,-0.995,0.005,0.328,1.960,-13.440,1.050
9093701,-0.949,0.019,0.319,6.090,-11.340,0.980
9093717,-0.956,0.012,0.320,10.500,-7.910,1.190
9093737,-0.976,-0.005,0.343,10.360,-6.440,1.400
9093761,-0.992,-0.008,0.342,9.310,-7.000,1.400
9093781,-0.986,0.026,0.334,9.310,-9.030,0.770
9093802,-0.962,0.051,0.337,11.340,-11.130,0.210
9093816,-0.950,0.039,0.326,10.920,-11.130,-0.560
9093840,-0.940,0.030,0.337,9.450,-9.240,-1.260
9093859,-0.935,0.059,0.364,9.240,-4.620,-1.470
9093884,-0.937,0.075,0.398,7.770,-4.550,-1.260
9093903,-0.910,0.068,0.382,2.590,-2.170,-0.490
9093923,-0.920,0.061,0.400,-1.120,1.540,-0.070
9093944,-0.969,0.073,0.430,1.470,0.420,-0.840
9093968,-0.941,0.102,0.397,4.060,-11.060,0.000
9093988,-0.841,0.096,0.308,2.520,7.630,1.540
9094006,-0.855,0.048,0.432,-1.820,21.140,2.870
9094028,-0.991,0.034,0.553,-2.240,11.480,1.750
9094047,-0.930,0.016,0.450,-0.770,1.050,-0.700
9094072,-0.863,0.009,0.372,-4.340,10.500,2.030
9094092,-0.960,0.088,0.406,-3.010,22.750,1.330
9094111,-0.957,0.120,0.397,3.430,23.030,-1.680
9094136,-1.040,0.106,0.409,3.360,14.070,2.100
9094154,-1.030,0.087,0.378,-5.530,-0.490,5.810
9094174,-0.983,-0.030,0.244,-27.580,-2.870,5.180
9094191,-0.938,-0.064,0.244,-21.700,-0.910,3.710
9094215,-0.981,0.005,0.259,-13.510,3.290,1.260
9094235,-1.042,0.016,0.288,2.100,7.070,1.190
9094255,-1.038,0.030,0.298,4.410,7.840,1.680
9094272,-0.997,-0.002,0.307,5.390,10.500,-0.350
9094296,-0.953,0.017,0.314,6.650,9.800,-1.890
9094313,-0.998,-0.014,0.261,9.590,4.480,-4.410
9094333,-1.016,0.026,0.230,10.150,3.010,-4.900
9094357,-0.962,0.069,0.285,10.150,8.890,-4.620
9094377,-0.975,0.059,0.343,8.400,8.820,-4.970
9094401,-0.987,0.048,0.346,8.610,3.500,-5.810
9094420,-0.987,0.056,0.335,6.020,0.140,-5.460
9094444,-0.973,0.041,0.311,3.850,-0.420,-3.780
9094468,-0.960,0.010,0.302,3.430,2.240,-2.380
9094488,-0.951,0.027,0.311,7.700,7.140,-1.960
9094508,-1.002,0.042,0.348,10.010,1.260,-1.750
9094528,-1.002,0.048,0.270,8.750,-3.990,-1.190
9094548,-0.962,0.061,0.268,6.370,1.050,-0.840
9094572,-0.967,0.039,0.293,4.830,5.320,-1.190
9094591,-0.993,0.038,0.305,5.320,4.130,-1.960
9094614,-0.990,0.041,0.308,5.950,-0.070,-2.380
9094635,-0.976,0.040,0.299,6.580,-1.190,-2.520
9094655,-0.977,0.047,0.283,6.090,-1.400,-2.660
9094675,-0.977,0.049,0.283,5.810,0.630,-2.870
9094699,-0.997,0.040,0.288,4.970,-0.490,-2.800
9094719,-0.993,0.041,0.287,4.830,-0.140,-2.520
9094738,-0.989,0.026,0.298,5.180,0.560,-2.450
9094758,-0.988,0.021,0.297,6.370,1.050,-2.940
9094778,-0.985,0.020,0.307,7.420,1.540,-3.080
9094801,-0.983,0.027,0.309,8.050,0.910,-2.940
9094822,-0.970,0.031,0.302,7.210,0.140,-2.800
9094846,-0.970,0.036,0.291,7.070,-0.350,-2.590
9094865,-0.976,0.038,0.290,7.490,0.560,-2.590
9094886,-0.982,0.043,0.293,7.140,0.840,-2.800
9094907,-0.990,0.053,0.291,6.090,0.840,-2.870
9094924,-0.982,0.057,0.281,5.110,1.890,-2.730
9094948,-0.989,0.045,0.299,1.190,0.420,-1.960
9094968,-0.959,0.041,0.271,1.610,1.750,-2.100
9094987,-0.981,0.046,0.317,4.270,4.550,-2.100
9095007,-1.009,0.040,0.313,5.460,-2.170,-1.960
9095031,-0.985,0.048,0.245,2.240,-2.310,-0.840
9095051,-0.974,0.044,0.289,1.820,1.750,-0.280
9095071,-0.985,0.035,0.295,2.310,2.380,-0.140
9095090,-1.002,0.041,0.293,3.640,0.350,0.070
9095115,-0.997,0.040,0.285,3.430,-2.520,0.560
9095134,-0.981,0.041,0.275,3.220,-2.450,0.700
9095153,-0.976,0.040,0.272,2.940,-1.960,0.910
9095173,-0.979,0.043,0.286,3.990,-0.490,0.980
9095197,-0.999,0.038,0.291,4.480,-3.430,0.560
9095214,-0.991,0.049,0.276,4.480,-3.850,0.840
9095236,-0.981,0.044,0.267,3.290,-2.380,0.840
9095260,-0.975,0.045,0.279,3.710,0.000,0.910
9095280,-0.984,0.042,0.289,4.340,-0.630,0.770
9095300,-0.981,0.040,0.284,6.370,-0.840,0.770
9095318,-0.973,0.042,0.283,7.210,-0.280,0.980
9095340,-0.975,0.049,0.279,7.490,0.140,0.840
9095360,-0.977,0.054,0.282,6.440,0.350,0.630
9095378,-0.985,0.058,0.290,5.250,-0.280,0.140
9095398,-0.989,0.061,0.286,4.130,-1.190,-0.280
9095422,-0.977,0.059,0.281,4.620,-0.770,-0.700
9095446,-0.983,0.062,0.283,3.710,-0.910,-0.560
9095466,-0.966,0.065,0.266,1.680,-2.030,-1.260
9095483,-0.979,0.070,0.288,4.340,0.910,-1.750
9095502,-0.996,0.064,0.302,5.600,-3.080,-2.170
9095527,-0.986,0.066,0.232,2.450,-3.010,-1.820
9095547,-0.978,0.063,0.267,0.700,1.820,-1.540
9095569,-0.981,0.060,0.281,1.050,3.010,-1.820
9095594,-0.988,0.062,0.283,2.590,2.170,-1.610
9095613,-0.985,0.062,0.266,2.730,0.140,-1.330
9095631,-0.976,0.059,0.260,2.520,1.260,-1.260
9095653,-0.984,0.056,0.269,2.170,1.680,-0.910
9095673,-0.990,0.063,0.285,2.380,2.380,-1.260
9095695,-0.999,0.060,0.286,1.260,-0.350,-1.260
9095715,-0.992,0.064,0.275,1.050,-1.400,-1.190
9095739,-0.989,0.059,0.263,0.280,-2.100,-1.330
9095759,-0.985,0.061,0.257,0.140,-0.070,-1.330
9095778,-0.983,0.055,0.271,0.630,0.420,-1.540
9095799,-0.983,0.058,0.269,0.630,0.490,-1.610
9095815,-0.985,0.058,0.269,0.350,0.840,-1.750
9095835,-0.988,0.057,0.270,0.140,0.350,-1.750
9095854,-0.988,0.057,0.269,0.000,-0.140,-1.820
9095880,-0.986,0.052,0.268,-0.140,-0.700,-1.680
9095899,-0.987,0.050,0.261,-0.140,-0.770,-1.540
9095919,-0.989,0.051,0.266,-0.350,-0.350,-1.540
9095939,-0.995,0.055,0.263,0.140,0.210,-1.540
9095959,-0.997,0.040,0.268,-2.380,-2.240,-1.330
9095983,-0.978,0.061,0.251,0.560,2.030,-1.610
9096003,-0.989,0.052,0.309,3.570,0.490,-1.750
9096019,-0.999,0.044,0.259,2.380,-5.180,-1.610
9096038,-0.978,0.057,0.235,-0.350,-1.260,-0.980
9096058,-0.989,0.047,0.281,-0.700,0.770,-1.050
9096084,-0.994,0.048,0.283,0.490,-0.490,-1.400
9096103,-0.995,0.052,0.283,0.980,-3.010,-1.330
9096123,-0.978,0.051,0.257,0.840,-2.800,-1.260
9096143,-0.985,0.050,0.265,0.910,-2.380,-1.050
9096166,-0.985,0.048,0.260,0.490,-2.170,-0.980
9096186,-0.986,0.054,0.276,1.470,-1.190,-1.050
9096205,-0.996,0.051,0.273,1.400,-3.430,-1.120
9096229,-0.986,0.055,0.261,0.770,-3.290,-0.980
9096250,-0.982,0.049,0.256,0.490,-0.770,-1.120
9096270,-0.984,0.046,0.273,1.400,0.560,-1.050
9096289,-0.985,0.046,0.279,1.260,0.000,-1.260
9096309,-0.984,0.049,0.273,0.700,-0.560,-1.260
9096329,-0.983,0.054,0.267,0.630,-0.700,-1.120
9096353,-0.982,0.046,0.268,0.770,-0.420,-1.190
9096374,-0.981,0.048,0.270,0.280,0.350,-1.120
9096393,-0.987,0.048,0.275,-0.140,0.350,-1.330
9096410,-0.986,0.048,0.278,-0.280,-0.700,-1.330
9096433,-0.988,0.050,0.266,-0.420,-1.120,-1.330
9096453,-0.979,0.044,0.266,0.140,0.210,-1.400
9096472,-0.991,0.044,0.264,-1.260,0.000,-1.190
9096497,-0.972,0.046,0.257,-2.310,0.070,-1.330
9096516,-0.984,0.051,0.298,0.070,2.030,-1.750
9096536,-1.006,0.045,0.289,1.960,-4.480,-1.890
9096557,-0.985,0.042,0.229,0.210,-3.710,-1.470
9096577,-0.977,0.042,0.274,-0.280,1.050,-1.120
9096597,-0.991,0.036,0.290,0.210,1.050,-1.120
9096617,-1.003,0.039,0.290,0.840,-1.960,-1.400
9096637,-0.985,0.033,0.245,-0.630,-3.850,-1.610
9096659,-0.978,0.033,0.216,0.210,0.840,-1.680
9096683,-0.978,0.020,0.227,1.890,5.670,-1.750
9096703,-0.976,0.010,0.222,1.540,9.800,-1.890
9096723,-0.991,0.017,0.254,-0.280,10.500,-1.750
9096743,-0.992,0.022,0.229,-1.540,8.680,-1.610
9096760,-0.983,0.029,0.216,-2.800,10.080,-1.120
9096779,-0.986,0.026,0.225,-4.970,9.870,-1.050
9096803,-0.976,0.017,0.199,-7.560,10.850,-1.260
9096822,-0.980,0.010,0.197,-7.980,13.300,-1.330
9096848,-0.978,0.019,0.194,-8.540,16.310,-0.910
9096865,-0.987,0.029,0.201,-9.940,17.850,-0.420
9096890,-0.984,0.039,0.210,-13.510,18.970,1.120
9096907,-0.993,0.044,0.200,-16.100,19.250,2.520
9096924,-0.989,0.061,0.182,-19.880,19.810,3.920
9096949,-0.986,0.081,0.174,-22.190,21.630,6.440
9096969,-0.997,0.092,0.183,-25.480,21.490,8.540
9096985,-0.970,0.094,0.163,-28.420,22.330,9.520
9097004,-0.948,0.089,0.150,-29.400,25.270,9.940
9097028,-0.961,0.098,0.135,-29.540,25.760,10.150
9097045,-0.973,0.084,0.143,-31.360,22.960,9.450
9097069,-0.984,0.101,0.177,-26.180,24.500,8.330
9097090,-1.060,0.081,0.215,-24.220,15.680,7.420
9097107,-1.066,0.079,0.158,-24.360,7.000,6.230
9097127,-1.063,0.086,0.164,-23.730,10.780,5.110
9097150,-1.093,0.087,0.236,-22.680,8.610,3.710
9097171,-1.080,0.086,0.228,-21.070,3.500,2.310
9097192,-1.062,0.076,0.186,-20.790,1.050,1.120
9097211,-1.023,0.072,0.163,-20.370,-0.280,0.000
9097231,-1.017,0.094,0.124,-19.250,0.630,-0.770
9097252,-1.006,0.105,0.120,-17.080,4.760,-1.050
9097271,-1.013,0.113,0.162,-13.090,6.300,-2.030
9097287,-1.028,0.113,0.193,-10.640,3.290,-2.590
9097310,-1.009,0.110,0.170,-8.680,-3.780,-4.200
9097333,-0.999,0.092,0.170,-8.330,-3.990,-4.970
9097354,-1.002,0.088,0.164,-8.190,-3.850,-5.250
9097374,-0.993,0.102,0.156,-10.010,-2.660,-5.320
9097394,-1.003,0.126,0.141,-11.830,-2.520,-5.530
9097416,-0.997,0.138,0.132,-12.040,-2.870,-5.670
9097440,-0.988,0.135,0.122,-11.900,-2.170,-4.760
9097458,-0.985,0.126,0.126,-12.040,0.560,-4.410
9097480,-0.989,0.123,0.146,-11.480,0.980,-4.760
9097500,-0.981,0.106,0.144,-11.550,-0.770,-5.530
9097518,-0.992,0.080,0.146,-9.310,-3.150,-6.160
9097542,-1.041,0.039,0.153,-2.450,-5.740,-6.580
9097561,-1.071,0.017,0.136,-0.280,-4.900,-5.600
9097580,-1.020,0.025,0.102,-3.920,1.050,-4.830
9097604,-0.989,0.003,0.105,-10.290,4.340,-4.620
9097624,-0.924,-0.012,0.117,-8.400,7.070,-6.790
9097644,-0.911,-0.065,0.153,2.240,6.790,-7.350
9097661,-0.886,-0.121,0.097,7.210,8.540,-7.210
9097684,-0.892,-0.092,0.134,5.460,14.280,-6.510
9097707,-0.969,-0.036,0.183,-0.210,9.730,-5.390
9097728,-1.033,-0.018,0.166,-5.880,0.210,-5.460
9097748,-1.060,-0.051,0.137,-6.090,-1.610,-6.090
9097768,-1.076,-0.080,0.142,-4.060,0.000,-7.560
9097792,-1.090,-0.029,0.165,-7.700,0.280,-8.120
9097812,-1.105,0.035,0.151,-10.920,-5.530,-6.230
9097830,-1.060,0.030,0.128,-8.260,-3.710,-4.480
9097850,-1.046,0.003,0.150,-5.250,-1.050,-3.080
9097875,-1.017,0.001,0.153,-2.800,-0.910,-3.920
9097894,-1.003,-0.016,0.154,-1.050,-1.890,-5.040
9097909,-0.979,-0.031,0.149,0.070,-1.610,-6.020
9097932,-0.994,-0.048,0.167,3.150,-3.920,-6.300
9097951,-0.976,-0.050,0.153,4.270,-5.950,-5.670
9097971,-0.977,-0.032,0.171,0.770,-5.530,-5.460
9097995,-0.990,-0.015,0.196,-6.160,-7.770,-6.230
9098015,-0.992,-0.011,0.175,-5.880,-13.300,-5.110
9098032,-0.964,-0.039,0.145,-3.920,-12.950,-3.850
9098051,-0.948,-0.044,0.181,-5.320,-9.310,-3.780
9098076,-0.988,-0.044,0.235,-9.730,-12.530,-4.620
9098095,-0.983,-0.028,0.248,-9.030,-15.820,-4.410
9098119,-0.993,-0.034,0.251,-6.930,-18.550,-3.640
9098139,-1.014,-0.014,0.250,-7.070,-21.980,-1.890
9098155,-1.006,-0.017,0.236,-6.370,-22.960,-2.730
9098177,-0.987,-0.007,0.263,-7.910,-22.190,-0.700
9098198,-0.944,-0.036,0.353,-13.020,-32.760,-1.960
9098222,-0.947,-0.036,0.353,-14.280,-42.770,-1.680
9098243,-0.949,-0.046,0.249,-17.990,-42.350,-0.350
9098262,-0.953,-0.093,0.258,-21.490,-37.100,-0.630
9098282,-0.956,-0.081,0.344,-17.640,-32.480,-0.630
9098300,-0.939,-0.051,0.390,-17.570,-34.300,2.800
9098325,-0.926,-0.171,0.333,-18.970,-30.310,1.540
9098344,-0.914,-0.100,0.266,-10.570,-21.000,6.300
9098361,-0.908,-0.097,0.312,-9.240,-12.460,6.510
9098381,-0.940,-0.072,0.399,-14.700,-11.690,10.990
9098405,-0.919,-0.074,0.475,-17.430,-17.150,18.550
9098420,-0.897,0.183,0.617,-29.540,-23.590,34.930
9098445,-0.893,-0.110,0.403,1.330,-1.890,12.600
9098464,-0.901,-0.137,0.429,2.310,4.410,14.980
9098482,-0.898,-0.153,0.447,5.950,6.230,15.470
9098501,-0.889,-0.168,0.445,10.990,8.890,15.470
9098526,-0.877,-0.136,0.477,16.170,11.200,15.680
9098550,-0.864,-0.091,0.486,15.610,13.230,17.150
9098571,-0.910,-0.094,0.431,16.800,15.260,15.260
9098587,-0.924,-0.129,0.359,23.940,22.260,12.600
9098607,-0.879,-0.092,0.259,35.980,28.490,12.110
9098627,-0.852,-0.011,0.088,39.550,39.620,12.670
9098646,-0.837,0.118,0.025,36.540,56.910,14.840
9098671,-0.885,0.201,0.057,28.140,75.180,17.570
9098687,-0.915,0.194,0.072,23.380,84.350,18.620
9098710,-0.987,0.192,0.112,21.280,86.870,18.200
9098730,-1.020,0.182,0.038,16.660,84.910,16.240
9098751,-0.963,0.184,-0.126,14.210,88.970,14.210
9098774,-0.988,0.170,-0.142,15.610,94.710,9.450
9098792,-0.955,0.162,-0.152,16.870,88.900,10.570
9098815,-0.898,0.200,-0.136,12.810,81.760,12.110
9098833,-0.906,0.211,-0.144,7.560,75.530,12.600
9098855,-0.924,0.210,-0.200,5.670,66.640,12.110
9098875,-0.905,0.150,-0.254,5.950,59.010,9.660
9098898,-0.862,0.125,-0.354,6.510,53.690,6.860
9098915,-0.857,0.184,-0.420,3.990,53.620,6.580
9098938,-0.895,0.249,-0.409,-3.290,53.830,5.950
9098956,-0.879,0.233,-0.363,-5.320,52.220,4.900
9098976,-0.846,0.212,-0.268,-1.820,46.550,1.890
9099000,-0.851,0.189,-0.211,7.560,24.500,-3.220
9099020,-0.818,0.142,-0.242,16.240,12.180,-7.140
9099039,-0.747,0.100,-0.297,21.140,7.140,-8.610
9099060,-0.665,0.075,-0.391,15.750,14.490,-10.500
9099080,-0.759,0.098,-0.284,0.980,16.730,-13.090
9099101,-0.841,0.081,-0.224,-5.040,7.770,-17.850
9099121,-0.915,0.063,-0.303,-2.380,0.420,-20.720
9099144,-0.960,0.112,-0.428,3.640,2.450,-20.650
9099167,-1.013,0.159,-0.413,7.350,2.380,-18.690
9099187,-1.058,0.168,-0.325,10.430,-4.060,-14.840
9099207,-1.059,0.104,-0.309,13.860,-11.340,-10.780
9099231,-1.042,0.051,-0.339,20.650,-17.360,-7.980
9099250,-1.064,0.034,-0.381,20.300,-14.420,-9.030
9099274,-1.054,0.051,-0.408,17.850,-3.500,-14.490
9099298,-1.180,0.120,-0.360,17.780,-13.370,-7.490
9099318,-1.216,0.193,-0.354,12.180,-17.710,-1.540
9099335,-1.206,0.208,-0.329,10.150,-21.140,5.110
9099358,-1.206,0.193,-0.360,10.360,-19.880,10.010
9099378,-1.244,0.118,-0.359,12.530,-21.840,11.970
9099401,-1.153,0.056,-0.333,16.030,-24.780,15.050
9099425,-1.095,0.096,-0.224,15.050,-19.040,14.770
9099445,-1.133,0.094,-0.171,13.930,-23.800,11.760
9099469,-1.101,0.091,-0.225,18.340,-23.450,10.990
9099489,-1.054,0.037,-0.288,23.170,-9.730,12.250
9099509,-1.030,0.042,-0.305,22.470,-6.790,14.210
9099529,-0.988,0.091,-0.268,21.700,8.750,11.760
9099545,-1.076,0.160,-0.254,21.140,10.780,10.780
9099566,-1.087,0.183,-0.316,26.460,13.230,10.850
9099589,-1.085,0.168,-0.373,28.490,20.790,14.770
9099609,-1.104,0.158,-0.441,24.780,25.480,17.570
9099627,-1.139,0.159,-0.426,25.200,28.770,17.990
9099651,-1.225,0.180,-0.325,26.670,25.550,15.190
9099671,-1.195,0.138,-0.287,26.740,28.000,12.530
9099695,-1.237,0.145,-0.344,25.200,22.890,9.730
9099715,-1.215,0.200,-0.390,23.170,19.880,8.540
9099734,-1.182,0.209,-0.376,16.940,20.230,6.860
9099753,-1.156,0.157,-0.363,11.970,18.130,3.710
9099774,-1.136,0.151,-0.377,10.710,14.980,0.000
9099798,-1.155,0.178,-0.401,8.750,11.200,-3.920
9099819,-1.140,0.184,-0.492,5.950,2.660,-3.010
9099837,-1.054,0.180,-0.487,-2.940,2.590,-3.150
9099857,-1.075,0.170,-0.390,-11.620,3.290,-6.790
9099877,-1.085,0.178,-0.354,-15.400,-7.350,-8.470
9099900,-1.032,0.189,-0.386,-18.340,-19.600,-9.940
9099917,-0.968,0.188,-0.408,-21.700,-25.270,-9.520
9099940,-0.925,0.196,-0.427,-29.820,-28.770,-10.080
9099958,-0.912,0.162,-0.412,-36.260,-31.500,-10.850
9099977,-0.915,0.120,-0.415,-37.030,-29.400,-13.160
9099997,-0.924,0.150,-0.370,-36.330,-25.410,-15.750
9100022,-0.876,0.146,-0.328,-32.480,-28.420,-17.150
9100046,-0.829,0.115,-0.231,-32.620,-30.800,-15.330
9100066,-0.838,0.090,-0.205,-35.980,-39.410,-14.280
9100085,-0.834,0.118,-0.226,-36.820,-41.580,-13.720
9100106,-0.798,0.140,-0.192,-30.800,-38.290,-11.060
9100126,-0.856,0.132,-0.235,-25.200,-39.480,-8.540
9100148,-0.896,0.133,-0.275,-27.720,-36.890,-7.630
9100168,-0.893,0.130,-0.162,-30.450,-34.300,-7.630
9100192,-0.855,0.101,-0.063,-26.810,-35.490,-9.380
9100212,-0.829,0.087,-0.039,-22.610,-40.600,-8.820
9100232,-0.874,0.054,-0.096,-18.410,-49.700,-9.380
9100252,-0.919,0.035,-0.144,-13.160,-53.270,-11.900
9100274,-0.925,0.048,-0.081,-14.280,-53.200,-15.400
9100293,-0.940,0.109,-0.049,-18.690,-51.380,-14.140
9100318,-0.935,0.209,-0.037,-19.460,-48.790,-7.210
9100337,-1.037,0.243,-0.081,-20.370,-55.930,-4.270
9100356,-1.074,0.140,-0.190,-19.810,-55.930,-5.320
9100373,-1.017,0.055,-0.186,-14.560,-46.970,-9.030
9100395,-1.022,0.027,-0.184,-5.460,-27.370,-11.130
9100418,-1.076,0.115,-0.096,-4.830,-24.290,-11.480
9100436,-1.116,0.208,-0.064,-8.960,-28.910,-11.760
9100455,-1.100,0.192,0.003,-14.840,-32.340,-11.830
9100475,-1.087,0.087,0.083,-13.230,-37.660,-12.320
9100497,-1.023,-0.006,0.162,-1.750,-35.770,-14.280
9100520,-0.943,-0.041,0.217,1.400,-26.110,-15.680
9100539,-0.915,-0.053,0.228,-5.670,-28.210,-14.980
9100559,-0.821,-0.029,0.185,-12.390,-20.930,-15.750
9100583,-0.778,0.003,0.250,-12.250,-14.560,-12.600
9100603,-0.769,0.020,0.286,-8.610,-12.600,-8.330
9100623,-0.769,-0.099,0.314,1.960,-6.860,-7.700
9100642,-0.892,-0.236,0.306,8.540,-3.500,-10.780
9100662,-0.956,-0.190,0.371,15.120,-3.780,-14.700
9100685,-0.958,-0.088,0.412,17.290,-7.980,-15.190
9100708,-1.017,-0.031,0.428,13.440,-10.780,-11.900
9100729,-1.037,-0.077,0.398,16.870,-12.600,-9.800
9100747,-1.026,-0.159,0.347,23.310,-11.690,-9.870
9100771,-1.042,-0.193,0.431,31.500,-10.430,-12.040
9100790,-1.074,-0.162,0.464,32.760,-15.540,-13.720
9100811,-1.073,-0.092,0.390,29.960,-24.290,-12.600
9100830,-0.987,0.002,0.288,26.950,-21.700,-10.780
9100848,-0.976,0.001,0.295,29.120,-19.810,-9.100
9100873,-0.930,-0.027,0.186,27.020,-15.400,-7.700
9100888,-0.869,-0.039,0.201,20.230,-0.980,-7.490
9100908,-0.864,-0.064,0.286,19.320,8.540,-8.960
9100928,-0.916,-0.069,0.345,21.350,8.890,-10.500
9100952,-0.949,-0.042,0.311,21.070,2.590,-9.450
9100972,-0.924,0.000,0.237,19.530,0.490,-7.140
9100990,-0.890,0.010,0.237,19.040,5.530,-5.250
9101010,-0.908,-0.067,0.313,20.230,14.910,-5.460
9101033,-1.008,-0.081,0.377,17.150,10.500,-5.810
9101053,-0.985,-0.017,0.269,14.980,3.780,-4.340
9101075,-0.937,0.028,0.146,11.760,6.020,-0.840
9101091,-0.898,0.029,0.131,8.610,14.840,1.120
9101115,-0.907,0.020,0.291,-1.120,15.400,4.270
9101131,-0.914,-0.005,0.349,-8.960,11.130,5.950
9101154,-0.964,-0.041,0.361,-9.590,2.380,6.160
9101175,-1.001,-0.057,0.254,-4.270,-7.070,7.210
9101193,-0.997,-0.052,0.238,-3.990,-7.630,7.770
9101214,-1.013,-0.043,0.149,-6.440,-11.970,7.630
9101235,-0.999,-0.044,0.127,-10.080,-9.590,4.900
9101254,-1.033,-0.013,0.187,-8.120,-10.920,2.100
9101275,-1.063,0.015,0.162,-1.890,-12.880,0.910
9101299,-1.074,0.077,0.141,4.830,-7.420,1.820
9101319,-1.029,0.119,0.151,4.270,-5.180,4.200
9101339,-0.938,0.107,0.186,3.080,-5.740,5.530
9101363,-0.897,0.090,0.194,2.660,-11.900,7.490
9101378,-0.889,0.068,0.180,5.530,-12.950,6.300
9101400,-0.916,0.061,0.195,6.440,-11.270,6.370
9101424,-0.954,0.026,0.202,-2.590,-6.370,4.830
9101443,-0.987,0.002,0.273,-4.620,-3.570,2.240
9101463,-1.002,0.009,0.273,-0.140,-9.730,0.980
9101482,-1.012,-0.123,0.275,5.250,-12.390,0.560
9101507,-1.003,-0.031,0.265,9.100,-12.320,0.210
9101528,-0.986,-0.041,0.243,10.570,-8.890,0.070
9101544,-0.962,-0.020,0.225,10.360,-4.340,0.350
9101568,-0.946,-0.002,0.245,9.170,0.000,0.350
9101588,-0.972,0.007,0.278,8.190,-1.260,-0.210
9101604,-0.980,-0.001,0.271,9.870,-0.840,-0.700
9101628,-0.986,-0.008,0.286,12.950,1.190,-0.070
9101648,-0.978,-0.017,0.299,17.150,2.310,0.210
9101667,-0.971,-0.026,0.297,18.620,1.750,0.350
9101685,-0.962,-0.032,0.291,19.250,2.100,0.700
9101705,-0.952,-0.054,0.298,20.230,4.690,0.560
9101724,-0.952,-0.064,0.293,24.920,4.970,-0.420
9101749,-0.956,-0.059,0.271,32.130,3.080,-1.610
9101768,-0.976,-0.038,0.240,33.740,1.680,-1.960
9101788,-0.983,-0.005,0.221,31.150,3.710,-1.960
9101809,-0.960,0.040,0.195,26.390,6.370,-1.470
9101829,-0.912,0.088,0.166,19.320,8.680,-0.070
9101853,-0.879,0.122,0.170,14.210,13.720,1.260
9101868,-0.939,0.135,0.214,12.460,11.550,2.170
9101893,-0.981,0.135,0.227,10.850,7.490,3.570
9101913,-1.046,0.100,0.204,11.340,5.670,4.340
9101931,-1.003,0.103,0.210,15.120,12.810,3.710
9101950,-0.997,0.105,0.264,18.900,8.400,3.500
9101974,-0.978,0.100,0.242,13.300,2.520,3.850
9101995,-1.037,0.155,0.301,5.040,3.570,3.360
9102012,-1.098,0.184,0.348,0.630,0.630,2.730
9102036,-1.125,0.163,0.364,-1.120,-4.830,2.520
9102055,-1.129,0.124,0.375,-3.920,-16.590,2.730
9102076,-1.044,0.105,0.331,-7.700,-24.080,2.520
9102095,-0.992,0.119,0.277,-8.190,-24.710,3.010
9102118,-0.968,0.140,0.201,-7.350,-20.510,4.130
9102137,-0.952,0.099,0.179,-4.550,-13.930,3.640
9102161,-0.935,0.083,0.235,4.690,-5.250,3.290
9102179,-0.922,0.059,0.295,9.380,-6.020,2.520
9102199,-0.893,0.055,0.275,10.080,-8.050,1.260
9102223,-0.883,0.083,0.235,7.560,-4.830,-0.210
9102239,-0.913,0.077,0.251,8.610,-2.100,-1.190
9102262,-0.936,0.054,0.305,14.840,-0.980,-3.570
9102282,-0.945,0.042,0.363,20.510,-2.380,-5.600
9102301,-0.946,0.072,0.365,25.550,-5.180,-7.560
9102324,-0.932,0.101,0.354,27.370,-8.820,-8.470
9102346,-0.931,0.104,0.360,27.230,-11.690,-9.520
9102368,-0.897,0.116,0.343,27.440,-18.340,-10.220
9102387,-0.890,0.096,0.279,29.540,-11.060,-13.020
9102411,-0.956,0.121,0.330,36.400,-8.120,-16.450
9102431,-0.974,0.102,0.349,41.370,-11.620,-18.340
9102451,-0.926,0.115,0.366,37.030,-10.500,-18.970
9102470,-0.911,0.162,0.368,26.740,-7.280,-17.710
9102494,-0.954,0.171,0.426,23.590,-0.420,-19.670
9102511,-0.976,0.187,0.419,22.330,-7.980,-18.900
9102535,-0.904,0.203,0.318,15.820,-3.360,-15.190
9102553,-0.873,0.169,0.386,9.800,12.880,-16.870
9102575,-0.937,0.198,0.529,0.070,9.660,-17.640
9102599,-1.017,0.217,0.405,-3.430,-2.800,-16.590
9102614,-0.924,0.177,0.141,-7.420,6.580,-14.140
9102639,-0.898,0.129,-0.015,-10.710,37.100,-7.630
9102659,-0.995,-0.006,-0.014,-12.880,59.640,-12.740
9102678,-0.967,-0.007,0.068,-22.750,73.220,-15.960
9102699,-0.971,-0.071,0.160,-41.370,68.320,-14.280
9102723,-0.926,-0.059,0.125,-41.440,56.980,-14.630
9102740,-0.893,-0.131,0.040,-30.870,59.080,-15.190
9102764,-0.855,-0.046,0.081,-22.960,62.020,-10.780
9102782,-0.838,-0.016,0.042,-16.030,58.240,-8.820
9102804,-0.732,-0.066,-0.019,-8.190,54.670,-9.100
9102827,-0.630,-0.107,-0.121,-5.390,58.870,-10.430
9102848,-0.571,-0.112,-0.076,-0.630,61.530,-10.080
9102864,-0.644,-0.106,-0.046,0.350,58.940,-9.030
9102887,-0.738,-0.018,-0.067,-4.900,50.890,-2.940
9102908,-0.780,0.002,-0.180,-14.700,47.600,2.380
9102924,-0.821,-0.010,-0.226,-12.740,46.340,4.690
9102948,-0.873,-0.092,-0.222,2.380,42.490,3.150
9102966,-0.974,-0.130,-0.154,19.740,35.420,1.190
9102987,-1.031,-0.068,-0.120,16.730,31.290,2.380
9103007,-0.995,-0.029,-0.152,6.720,18.690,5.950
9103027,-1.002,-0.008,-0.306,3.360,10.290,9.450
9103051,-1.012,0.029,-0.357,-3.850,8.750,10.430
9103071,-1.103,0.033,-0.329,-17.360,10.220,7.210
9103090,-1.036,0.017,-0.253,-12.390,19.180,9.170
9103113,-1.045,-0.011,-0.192,-1.750,22.260,10.640
9103134,-1.084,-0.033,-0.242,5.530,17.850,13.930
9103153,-1.049,0.020,-0.272,8.400,16.100,15.120
9103178,-1.016,0.002,-0.276,10.920,11.970,18.060
9103196,-1.149,-1.010,-0.840,35.840,12.250,12.250
9103220,-1.209,-0.141,-0.325,7.980,31.640,2.170
9103237,-1.100,0.016,-0.252,-4.200,26.880,5.530
9103260,-1.098,0.114,-0.311,-5.740,29.400,12.530
9103280,-1.131,0.152,-0.339,-11.480,39.830,12.250
9103300,-1.287,-0.053,-0.249,7.000,16.380,6.020
9103324,-1.295,-0.060,-0.240,20.300,8.680,-3.500
9103344,-1.259,-0.089,-0.415,16.520,4.830,-10.780
9103361,-1.267,0.020,-0.466,2.730,5.250,-12.390
9103385,-1.314,0.038,-0.432,-7.210,5.740,-9.660
9103404,-1.354,-0.003,-0.394,-4.060,1.330,-9.310
9103421,-1.345,-0.060,-0.393,-1.190,0.140,-11.060
9103445,-1.316,-0.032,-0.394,-3.220,1.960,-13.020
9103465,-1.271,0.003,-0.413,-4.550,-1.190,-13.020
9103481,-1.242,0.015,-0.430,-5.810,-2.240,-10.080
9103505,-1.224,0.008,-0.385,-4.270,-1.120,-6.930
9103525,-1.257,-0.025,-0.388,-2.380,-4.550,-8.960
9103544,-1.369,-0.062,-0.396,0.770,-9.730,-10.290
9103561,-1.254,-0.085,-0.378,4.200,-15.680,-12.810
9103581,-1.258,-0.105,-0.342,3.570,-19.530,-12.740
9103605,-1.228,-0.137,-0.303,6.860,-31.010,-11.200
9103625,-1.187,-0.078,-0.327,8.120,-41.370,-7.000
9103644,-1.129,-0.043,-0.361,7.980,-46.550,-4.620
9103668,-1.134,-0.041,-0.398,2.940,-45.220,0.840
9103688,-1.165,-0.055,-0.374,3.150,-49.490,3.640
9103707,-1.076,-0.102,-0.299,9.100,-52.220,5.460
9103727,-1.036,-0.133,-0.240,18.060,-57.680,5.460
9103750,-1.043,-0.093,-0.297,21.980,-62.370,5.740
9103770,-0.996,-0.060,-0.356,21.070,-56.280,7.420
9103795,-0.974,-0.081,-0.301,21.490,-50.050,7.770
9103809,-0.987,-0.054,-0.299,22.260,-48.440,8.330
9103833,-0.984,-0.057,-0.330,20.650,-46.830,10.500
9103855,-0.951,-0.061,-0.254,13.300,-41.860,13.720
9103874,-0.998,-0.082,-0.265,8.330,-45.710,15.330
9103894,-0.975,-0.096,-0.315,7.420,-41.860,15.330
9103913,-0.941,-0.100,-0.264,11.690,-32.620,13.720
9103938,-0.933,-0.081,-0.190,17.080,-24.220,11.830
9103956,-0.915,-0.030,-0.142,15.050,-19.180,11.690
9103976,-0.929,-0.013,-0.147,9.450,-18.410,11.340
9104000,-0.924,0.002,-0.205,4.900,-13.440,11.130
9104020,-0.885,0.000,-0.188,-3.850,-4.690,11.200
9104039,-0.835,0.042,-0.091,-10.150,4.130,12.530
9104063,-0.742,0.127,0.081,-17.220,10.710,13.650
9104083,-0.710,0.182,0.283,-13.650,8.260,13.580
9104103,-0.725,0.141,0.371,-2.660,0.910,12.530
9104123,-0.726,0.051,0.452,14.770,-4.830,10.150
9104143,-0.776,0.058,0.496,22.960,-13.160,6.580
9104163,-0.893,0.191,0.379,3.570,-26.530,6.160
9104183,-0.939,0.314,0.175,-12.880,-35.140,7.280
9104206,-0.840,0.324,0.018,-30.520,-18.970,10.150
9104227,-0.870,0.297,0.129,-49.280,-1.260,10.850
9104246,-1.079,0.327,0.243,-55.650,2.030,13.020
9104270,-1.203,0.149,0.272,-41.790,-5.600,9.940
9104290,-1.102,0.062,0.264,-24.220,-12.180,8.540
9104308,-0.979,0.077,0.236,-35.560,-13.650,7.770
9104329,-0.876,0.113,0.381,-19.460,-18.480,7.000
9104351,-0.848,0.097,0.440,-23.030,-40.460,3.570
9104370,-0.764,0.003,0.218,-23.380,-43.820,-0.280
9104390,-0.790,-0.008,0.219,-25.270,-35.210,-4.060
9104408,-0.845,0.051,0.327,-25.480,-31.080,-5.180
9104428,-0.921,0.137,0.369,-23.170,-32.690,-4.130
9104452,-0.987,0.179,0.260,-11.830,-33.740,-4.200
9104470,-0.984,0.136,0.192,1.050,-33.040,-5.600
9104494,-0.895,0.169,0.285,-3.990,-24.220,-3.150
9104514,-0.911,0.257,0.400,-17.080,-19.600,-0.420
9104532,-0.957,0.299,0.304,-21.840,-17.710,2.030
9104554,-0.955,0.212,0.158,-17.150,-10.290,2.590
9104574,-0.862,0.067,0.165,-14.980,-1.820,0.700
9104598,-0.775,0.074,0.206,-15.890,3.150,0.980
9104619,-0.790,0.112,0.252,-21.770,7.700,2.030
9104637,-0.805,0.132,0.236,-17.430,16.800,2.240
9104656,-0.955,0.142,0.367,-7.630,9.870,1.890
9104675,-1.097,0.108,0.277,-4.060,-6.300,3.220
9104700,-1.072,0.089,0.196,-6.650,-6.370,3.570
9104720,-0.993,0.081,0.180,-12.320,4.900,1.400
9104740,-1.054,0.046,0.280,-13.370,10.920,-2.310
9104759,-1.110,0.021,0.307,-10.780,9.450,-4.270
9104778,-1.058,-0.016,0.348,-11.060,5.810,-4.760
9104797,-0.979,-0.002,0.345,-12.950,-1.470,-5.250
9104822,-0.915,0.015,0.327,-13.020,-7.070,-6.300
9104842,-0.892,0.022,0.299,-12.460,-8.820,-7.490
9104862,-0.897,0.038,0.323,-10.990,-9.730,-8.400
9104880,-0.900,0.026,0.327,-8.190,-6.860,-8.330
9104903,-0.948,0.007,0.319,-7.560,-6.650,-7.840
9104924,-0.913,0.006,0.267,-7.350,-0.350,-7.070
9104944,-0.916,0.006,0.343,-7.490,0.000,-6.370
9104968,-0.916,0.008,0.386,-3.290,-2.660,-5.880
9104987,-0.951,-0.011,0.382,-2.520,-3.290,-5.180
9105007,-0.965,-0.028,0.347,-1.960,-3.990,-5.810
9105027,-0.957,-0.013,0.340,-3.430,-2.310,-6.160
9105052,-0.951,0.006,0.384,-1.960,-3.780,-5.740
9105066,-1.124,0.006,0.408,-0.560,-4.830,-5.670
9105089,-1.081,0.040,0.434,1.260,-5.880,-4.270
9105114,-1.042,0.061,0.428,0.840,-4.830,-2.870
9105132,-1.016,0.071,0.430,-3.780,-4.200,-1.260
9105153,-0.940,0.062,0.374,-9.380,-1.470,-0.840
9105173,-0.884,0.062,0.386,-0.280,0.210,-0.630
9105193,-0.819,0.007,0.324,0.560,0.630,1.190
9105217,-0.804,-0.014,0.353,-4.130,6.860,0.280
9105237,-0.847,0.016,0.356,-5.670,8.960,-0.910
9105260,-0.912,0.003,0.392,-5.810,2.450,-2.170
9105281,-0.948,-0.001,0.327,-5.950,-3.360,-3.080
9105299,-0.926,0.041,0.313,-8.470,-1.610,-1.120
9105319,-0.895,0.076,0.323,-14.350,5.320,1.820
9105342,-0.932,0.071,0.373,-23.100,12.460,4.690
9105361,-0.987,0.035,0.418,-28.560,9.240,4.900
9105380,-0.994,0.006,0.416,-28.700,1.750,3.990
9105402,-0.919,0.014,0.385,-26.110,0.000,5.530
9105422,-0.880,-0.019,0.291,-30.100,12.670,7.840
9105446,-0.935,-0.021,0.360,-38.640,20.090,8.120
9105465,-0.954,-0.031,0.336,-35.700,17.780,7.910
9105485,-0.892,-0.037,0.296,-30.170,25.340,10.850
9105509,-0.884,-0.104,0.377,-31.150,33.110,14.140
9105528,-0.907,-0.107,0.420,-34.300,37.030,15.470
9105549,-0.920,-0.092,0.382,-30.520,38.430,17.150
9105567,-0.894,-0.093,0.322,-24.500,41.580,17.360
9105584,-0.900,-0.088,0.224,-20.510,46.200,15.540
9105609,-0.872,-0.095,0.122,-11.340,63.140,11.550
9105629,-0.827,-0.043,0.147,-5.880,70.280,11.760
9105647,-0.929,-0.058,0.127,-5.740,64.820,11.340
9105671,-0.943,0.117,0.129,3.150,55.580,13.020
9105692,-1.001,0.252,0.019,7.840,45.220,18.970
9105706,-0.915,0.220,-0.147,-0.560,49.630,22.470
9105731,-0.847,0.169,-0.156,-12.180,58.590,22.470
9105750,-0.812,0.159,-0.166,-9.870,60.270,20.650
9105769,-0.848,0.171,-0.194,-4.410,57.750,19.390
9105792,-0.849,0.095,-0.243,7.420,52.640,15.820
9105816,-0.789,0.126,-0.312,17.150,48.790,12.880
9105833,-0.796,0.140,-0.310,15.820,49.000,10.990
9105856,-0.900,0.195,-0.235,12.390,37.730,9.030
9105880,-0.911,0.193,-0.157,16.800,25.550,7.350
9105899,-0.829,0.144,-0.123,22.470,7.630,5.180
9105920,-0.752,0.112,-0.249,12.460,5.460,3.570
9105941,-0.830,0.168,-0.377,0.420,6.650,2.450
9105957,-0.937,0.211,-0.407,0.630,5.810,-0.490
9105980,-1.007,0.322,-0.417,5.740,3.570,-0.910
9106000,-1.008,0.353,-0.345,13.930,3.640,3.360
9106020,-1.039,0.258,-0.283,15.890,-3.710,4.620
9106039,-1.064,0.221,-0.337,9.800,-8.470,5.880
9106059,-1.076,0.196,-0.344,3.360,-8.960,5.740
9106083,-1.075,0.182,-0.294,1.120,-11.340,4.060
9106101,-1.086,0.205,-0.326,-0.070,-11.060,3.920
9106121,-1.100,0.228,-0.239,-0.770,-9.170,5.110
9106145,-1.085,0.227,-0.241,4.760,-14.840,5.600
9106165,-1.070,0.191,-0.303,13.440,-10.850,4.690
9106183,-1.122,0.201,-0.276,20.930,-13.090,3.360
9106205,-1.158,0.152,-0.301,22.260,-17.850,1.890
9106226,-1.102,0.137,-0.271,18.690,-17.850,0.420
9106244,-1.016,0.135,-0.239,20.230,-13.930,-0.980
9106262,-0.995,0.157,-0.229,21.560,-8.400,-2.100
9106286,-1.068,0.200,-0.280,13.370,-7.560,-1.610
9106306,-1.078,0.208,-0.315,12.320,-9.870,-3.780
9106321,-1.050,0.183,-0.298,19.320,-7.280,-6.720
9106347,-1.102,0.113,-0.222,37.590,-6.930,-11.550
9106366,-1.230,0.091,-0.188,42.420,-14.490,-15.120
9106385,-1.242,0.162,-0.261,29.890,-20.720,-17.430
9106402,-1.250,0.216,-0.313,18.900,-19.040,-18.130
9106426,-1.327,0.260,-0.306,13.720,-20.720,-15.260
9106445,-1.333,0.206,-0.356,20.300,-24.360,-15.470
9106465,-1.285,0.167,-0.237,23.310,-18.550,-14.420
9106489,-1.371,0.171,-0.158,22.680,-21.350,-13.370
9106507,-1.360,0.186,-0.192,20.160,-25.270,-12.390
9106527,-1.329,0.122,-0.260,16.520,-21.630,-11.340
9106551,-1.321,0.110,-0.315,15.680,-12.460,-11.550
9106571,-1.354,0.135,-0.205,18.760,-9.590,-13.790
9106595,-1.413,0.147,-0.163,17.920,-13.300,-12.740
9106615,-1.369,0.166,-0.173,12.110,-15.750,-10.220
9106634,-1.325,0.160,-0.192,8.750,-16.800,-7.560
9106653,-1.297,0.106,-0.212,8.960,-16.870,-6.580
9106672,-1.299,0.110,-0.161,13.720,-16.940,-6.720
9106692,-1.292,0.132,-0.177,16.030,-23.170,-2.940
9106718,-1.203,0.141,-0.216,9.310,-22.960,0.700
9106736,-1.133,0.136,-0.207,3.780,-23.520,1.680
9106757,-1.080,0.163,-0.217,-4.550,-25.410,2.870
9106777,-1.039,0.162,-0.203,-7.000,-29.260,4.480
9106797,-1.017,0.155,-0.217,-4.900,-34.580,6.160
9106821,-0.955,0.161,-0.228,-6.930,-34.510,8.330
9106837,-0.874,0.161,-0.199,-12.740,-31.080,9.030
9106861,-0.805,0.125,-0.152,-19.740,-29.610,8.960
9106880,-0.764,0.101,-0.142,-19.390,-26.950,8.540
9106904,-0.746,0.059,-0.158,-10.850,-18.830,6.230
9106924,-0.756,0.039,-0.187,-6.860,-15.680,2.520
9106940,-0.760,0.052,-0.254,-8.960,-7.210,-1.470
9106965,-0.831,0.084,-0.185,-10.640,9.170,-9.310
9106985,-0.966,0.047,-0.061,5.950,21.630,-16.800
9107008,-0.983,0.084,0.079,16.240,33.670,-17.850
9107028,-0.908,0.036,0.302,10.570,29.680,-17.640
9107049,-0.765,0.033,0.278,1.890,7.280,-18.130
9107072,-0.654,-0.008,0.094,-2.310,5.880,-18.900
9107092,-0.593,-0.070,0.117,-6.160,14.420,-18.830
9107112,-0.715,-0.100,0.237,-3.080,15.960,-19.390
9107132,-0.909,-0.183,0.260,1.120,1.470,-21.840
9107152,-1.006,-0.242,0.218,13.020,-1.960,-28.280
9107175,-1.031,-0.099,0.179,19.670,-6.370,-29.190
9107200,-0.957,0.013,0.151,4.830,3.500,-25.060
9107219,-0.907,0.112,0.276,-6.860,3.990,-19.110
9107239,-0.844,0.107,0.339,-14.140,-1.190,-12.740
9107258,-0.823,0.036,0.382,-20.860,-10.990,-9.940
9107277,-0.888,-0.023,0.316,-20.440,-24.640,-10.150
9107301,-0.936,-0.075,0.194,-17.360,-31.710,-11.200
9107321,-0.917,-0.091,0.119,-14.000,-25.830,-10.150
9107341,-0.918,-0.109,0.158,-13.090,-19.180,-8.610
9107361,-0.971,-0.102,0.239,-14.070,-17.920,-7.350
9107381,-0.992,-0.122,0.313,-14.140,-19.320,-6.440
9107405,-1.010,-0.164,0.254,-6.650,-24.360,-9.520
9107424,-0.976,-0.185,0.224,4.130,-24.850,-11.270
9107447,-0.908,-0.165,0.202,11.270,-18.200,-9.870
9107468,-0.888,-0.215,0.252,11.480,-3.640,-9.730
9107484,-0.953,-0.183,0.265,13.580,-6.230,-13.090
9107508,-0.976,-0.164,0.201,24.570,-8.820,-14.840
9107528,-0.931,-0.175,0.116,37.590,-7.700,-14.280
9107549,-0.856,-0.147,-0.000,40.180,3.220,-14.840
9107568,-0.862,-0.125,0.040,37.660,8.610,-16.450
9107587,-0.880,-0.128,0.085,35.420,11.200,-16.800
9107606,-0.906,-0.136,0.110,27.930,12.600,-16.240
9107630,-0.938,-0.117,0.106,19.180,7.000,-17.290
9107650,-0.935,-0.047,0.140,20.300,8.470,-20.090
9107669,-1.056,-0.081,0.121,23.240,1.120,-17.780
9107694,-1.184,-0.100,0.137,18.620,2.590,-14.210
9107712,-1.200,-0.081,0.153,16.800,5.670,-12.460
9107731,-1.096,0.042,0.201,22.400,14.000,-7.280
9107751,-1.008,0.119,0.237,23.800,15.610,-0.490
9107775,-0.931,0.139,0.219,21.350,9.030,6.300
9107795,-0.916,0.133,0.245,19.390,4.690,10.710
9107812,-0.995,0.079,0.293,19.810,2.590,13.300
9107836,-1.121,0.036,0.337,21.840,-3.360,15.750
9107856,-1.207,0.015,0.272,24.640,-14.770,20.930
9107876,-1.174,0.010,0.193,22.190,-15.120,26.460
9107900,-1.073,0.054,0.180,15.750,-13.440,30.100
9107920,-0.994,0.044,0.231,10.220,-13.930,31.220
9107941,-0.971,0.040,0.289,7.280,-17.500,33.460
9107958,-0.965,-0.022,0.315,7.630,-26.880,33.810
9107980,-0.940,-0.002,0.286,10.850,-36.820,34.510
9108000,-0.883,0.032,0.264,18.830,-37.100,35.000
9108020,-0.884,0.014,0.306,29.470,-36.820,32.130
9108040,-0.886,-0.038,0.375,34.230,-46.900,26.670
9108059,-0.878,0.020,0.338,30.800,-54.670,24.010
9108079,-0.832,0.147,0.277,17.570,-56.210,30.450
9108103,-0.858,0.112,0.183,62.580,-30.450,12.180
9108123,-0.889,0.044,0.312,36.890,-26.180,9.240
9108143,-0.899,0.176,0.353,44.520,-23.730,7.770
9108162,-0.901,0.183,0.383,37.520,-30.800,8.820
9108180,-0.844,0.139,0.330,31.990,-25.340,8.470
9108205,-0.861,0.165,0.455,33.740,-21.840,6.720
9108224,-0.878,0.169,0.499,36.820,-26.390,3.570
9108248,-0.845,0.235,0.341,27.650,-16.170,-1.750
9108268,-0.913,0.307,0.412,20.090,-14.560,-4.340
9108288,-0.900,0.293,0.397,21.630,-10.500,-5.880
9108310,-0.875,0.270,0.482,16.940,-6.510,-5.600
9108334,-0.853,0.283,0.471,12.740,3.080,-6.440
9108354,-0.874,0.267,0.463,11.200,11.690,-9.170
9108374,-0.882,0.220,0.452,9.870,15.610,-12.110
9108394,-0.849,0.227,0.477,8.190,21.630,-13.790
9108413,-0.839,0.246,0.519,4.130,21.630,-15.540
9108436,-0.882,0.250,0.468,-6.510,21.770,-16.590
9108456,-0.976,0.305,0.251,-11.480,21.770,-14.070
9108480,-0.878,0.329,0.144,-25.270,45.920,-5.110
9108500,-0.958,0.309,0.065,-35.000,55.300,2.380
9108520,-0.935,0.115,-0.008,-38.360,58.380,0.420
9108539,-0.874,-0.138,0.132,-37.940,53.270,-2.730
9108562,-1.000,-0.284,0.141,-19.250,45.010,-8.750
9108580,-1.082,-0.267,0.108,-5.180,43.120,-12.460
9108599,-1.008,-0.184,0.034,-0.070,42.840,-12.530
9108624,-0.894,-0.003,-0.069,6.930,40.110,-11.410
9108644,-0.817,0.044,-0.071,9.380,37.940,-13.300
9108663,-0.895,0.049,-0.095,0.770,28.560,-11.270
9108688,-0.845,0.000,-0.140,-14.490,21.770,-11.200
9108713,-0.739,-0.060,-0.083,-10.850,30.310,-11.550
9108732,-0.730,-0.106,-0.006,1.400,27.370,-12.460
9108752,-0.807,-0.029,-0.084,14.770,11.060,-13.580
9108772,-0.846,0.009,-0.168,14.700,7.140,-12.460
9108792,-0.950,-0.093,-0.236,12.740,20.860,-8.610
9108816,-1.054,-0.142,-0.157,0.210,26.530,-10.640
9108831,-1.026,-0.102,-0.174,-4.270,25.200,-11.830
9108856,-1.059,-0.014,-0.192,-4.690,25.830,-10.290
9108877,-1.090,0.102,-0.274,-13.300,31.990,-4.830
9108893,-1.122,0.167,-0.256,-23.870,30.730,2.380
9108916,-1.138,0.021,-0.168,-21.700,20.440,1.750
9108932,-1.196,-0.001,-0.123,-13.720,12.670,1.400
9108957,-1.158,0.011,-0.248,-9.660,2.730,2.240
9108977,-1.116,-0.055,-0.204,-7.770,6.020,4.270
9109001,-1.224,-0.141,-0.109,-3.430,-1.260,-0.490
9109021,-1.201,-0.217,-0.241,2.940,1.750,-4.130
9109039,-1.124,-0.222,-0.265,3.850,15.050,-3.360
9109063,-1.206,-0.021,-0.186,-9.800,17.500,0.770
9109083,-1.230,0.031,-0.155,-16.520,16.660,2.520
9109107,-1.184,0.071,-0.119,-17.010,11.130,3.570
9109127,-1.155,0.049,-0.156,-7.350,6.790,1.540
9109148,-1.138,-0.022,-0.230,-2.310,12.950,2.520
9109167,-1.213,-0.098,-0.156,-3.150,9.870,-2.030
9109182,-1.274,-0.078,-0.127,1.820,1.960,-6.650
9109206,-1.235,-0.006,-0.120,4.480,-4.270,-4.760
9109227,-1.251,0.064,-0.168,-5.250,-6.300,-4.830
9109247,-1.270,0.033,-0.242,-11.130,-9.310,-6.580
9109267,-1.271,0.016,-0.231,-7.420,-8.190,-6.720
9109291,-1.289,0.012,-0.182,-3.570,-7.840,-4.550
9109310,-1.296,0.022,-0.186,-3.360,-9.310,-3.710
9109331,-1.285,0.035,-0.202,-5.320,-8.120,-2.240
9109351,-1.277,0.010,-0.174,-4.620,-7.000,-0.980
9109374,-1.284,-0.035,-0.162,-3.220,-7.420,-0.560
9109395,-1.275,-0.087,-0.220,-1.260,-8.400,0.490
9109419,-1.322,-0.089,-0.268,0.070,-3.850,1.750
9109434,-1.331,-0.050,-0.241,-0.980,-6.720,3.010
9109459,-1.218,-0.070,-0.234,-5.250,-13.020,5.180
9109474,-1.184,-0.075,-0.221,-5.180,-15.050,5.460
9109500,-1.174,-0.092,-0.219,1.540,-19.950,4.830
9109519,-1.167,-0.087,-0.285,8.050,-16.030,4.060
9109539,-1.217,-0.060,-0.275,6.230,-14.700,3.920
9109563,-1.162,-0.079,-0.261,8.260,-23.240,3.220
9109581,-1.077,-0.047,-0.279,15.190,-26.250,3.500
9109601,-1.042,-0.030,-0.250,19.250,-26.040,2.170
9109625,-1.023,-0.052,-0.262,24.920,-25.970,2.730
9109645,-0.963,-0.054,-0.258,27.930,-17.360,6.160
9109665,-0.915,-0.047,-0.248,26.810,-9.310,5.670
9109682,-0.895,-0.017,-0.227,22.820,-5.530,8.610
9109704,-0.905,-0.015,-0.270,22.540,-6.580,10.640
9109725,-0.934,-0.058,-0.302,23.380,-6.300,12.250
9109743,-0.947,-0.107,-0.284,20.650,-5.740,13.440
9109767,-0.928,-0.145,-0.168,15.610,-0.840,15.750
9109787,-0.802,-0.091,0.194,14.490,-5.670,17.640
9109804,-0.611,-0.080,0.302,21.490,-8.750,15.820
9109828,-0.550,0.041,0.281,27.510,-8.330,10.360
9109848,-0.565,0.165,0.234,37.100,-9.450,5.950
9109867,-0.630,0.224,0.247,42.840,-10.150,3.430
9109890,-0.709,0.342,0.264,40.110,-1.680,4.480
9109910,-0.872,0.414,0.214,24.640,-1.260,12.040
9109931,-1.039,0.437,0.182,5.530,-4.060,15.260
9109951,-1.077,0.439,0.249,-4.060,4.200,20.230
9109969,-1.157,0.353,0.371,-9.240,5.390,23.310
9109994,-1.178,0.267,0.348,-13.090,-1.540,25.340
9110012,-1.127,0.226,0.262,-16.450,-6.510,26.880
9110032,-1.062,0.156,0.261,-14.210,-9.030,25.060
9110055,-0.989,0.091,0.284,-2.450,-13.230,18.970
9110076,-0.895,0.162,0.317,11.340,-17.570,14.070
9110100,-0.819,0.151,0.217,3.570,-26.180,9.100
9110119,-0.741,0.166,0.153,-4.200,-24.570,3.640
9110142,-0.728,0.171,0.179,-6.440,-23.380,-1.820
9110160,-0.723,0.234,0.161,-10.430,-22.890,-3.500
9110184,-0.715,0.294,0.112,-11.760,-17.150,-2.030
9110200,-0.694,0.296,0.131,-11.410,-10.010,0.070
9110224,-0.775,0.257,0.150,-16.870,-6.370,1.750
9110244,-0.906,0.245,0.097,-27.230,-10.430,2.100
9110265,-0.925,0.312,0.105,-31.220,2.380,0.350
9110282,-1.001,0.443,0.235,-30.870,19.740,-1.120
9110302,-1.109,0.384,0.286,-29.890,0.700,8.050
9110322,-1.090,0.241,0.226,-34.300,-10.150,9.450
9110341,-1.036,0.241,0.191,-41.370,-9.310,5.740
9110366,-1.005,0.327,0.202,-47.110,-2.310,4.060
9110386,-0.988,0.270,0.181,-48.160,0.840,3.640
9110403,-0.947,0.221,0.139,-51.030,1.400,2.590
9110427,-0.840,0.195,0.068,-52.360,4.830,1.610
9110444,-0.772,0.171,0.040,-51.030,10.500,0.910
9110468,-0.757,0.133,0.033,-48.090,22.470,-0.140
9110488,-0.883,0.121,0.083,-42.000,26.320,-0.280
9110508,-0.996,0.119,0.129,-38.640,24.080,-0.350
9110527,-0.979,0.076,0.114,-40.460,25.550,-0.980
9110547,-0.954,0.046,0.202,-39.200,34.230,-5.600
9110571,-1.002,0.106,0.273,-40.320,20.440,-8.190
9110591,-1.033,0.073,0.224,-45.150,7.420,-8.330
9110611,-1.122,0.017,0.222,-40.110,1.540,-11.970
9110631,-1.088,0.006,0.173,-25.970,5.600,-14.910
9110648,-1.056,0.068,0.197,-20.300,6.580,-16.170
9110669,-1.046,0.138,0.244,-16.660,-1.960,-15.610
9110688,-1.056,0.091,0.255,-10.010,-8.960,-15.260
9110711,-1.078,0.051,0.274,-8.750,-10.990,-15.540
9110732,-1.105,0.082,0.317,-22.050,-13.230,-15.470
9110752,-1.109,0.119,0.330,-31.360,-22.610,-16.170
9110776,-1.028,0.129,0.286,-32.970,-33.460,-13.930
9110796,-0.929,0.066,0.186,-23.590,-34.090,-13.860
9110815,-0.867,0.010,0.176,-14.210,-29.470,-15.890
9110836,-0.840,0.050,0.249,-14.560,-26.810,-15.260
9110855,-0.814,0.062,0.266,-23.660,-28.420,-15.190
9110879,-0.842,0.066,0.241,-30.800,-24.080,-15.540
9110899,-0.883,0.048,0.234,-31.990,-21.140,-14.420
9110920,-0.868,0.043,0.215,-30.310,-11.340,-12.180
9110937,-0.906,0.057,0.306,-30.450,-2.590,-7.910
9110957,-0.970,-0.004,0.414,-37.100,-7.280,-6.020
9110979,-0.996,-0.041,0.444,-38.850,-15.610,-6.440
9111000,-1.002,-0.051,0.495,-36.330,-30.030,-4.690
9111017,-0.875,-0.015,0.363,-31.710,-23.100,-1.400
9111040,-0.915,-0.021,0.346,-26.670,-11.620,1.610
9111058,-0.935,-0.091,0.293,-26.880,-4.340,2.870
9111077,-0.950,-0.120,0.353,-23.380,1.260,2.940
9111102,-0.927,-0.134,0.404,-18.690,7.630,5.040
9111122,-0.993,-0.141,0.497,-16.170,8.610,5.950
9111142,-0.981,-0.102,0.431,-14.630,4.480,6.790
9111166,-0.950,-0.074,0.372,-12.530,8.260,10.010
9111185,-0.889,-0.061,0.402,-10.640,18.830,12.670
9111204,-0.875,-0.116,0.447,-11.340,24.010,15.680
9111229,-0.872,-0.118,0.366,-8.680,27.440,15.400
9111249,-0.939,-0.115,0.241,1.750,34.090,15.400
9111267,-0.833,-0.069,0.120,9.660,50.610,14.840
9111290,-0.928,0.052,0.096,7.980,67.550,17.430
9111312,-1.020,0.168,0.041,0.980,75.390,22.750
9111334,-1.112,0.268,-0.041,-2.590,79.730,27.510
9111355,-1.059,0.282,-0.155,-5.460,86.240,31.360
9111370,-1.017,0.273,-0.168,-4.550,89.110,33.600
9111393,-0.990,0.199,-0.104,4.690,89.810,32.340
9111416,-1.020,0.186,-0.077,8.120,78.890,28.840
9111436,-0.975,0.189,-0.158,10.640,66.570,25.550
9111454,-0.821,0.187,-0.245,12.250,64.890,24.920
9111479,-0.754,0.153,-0.236,11.900,64.610,26.740
9111498,-0.712,0.169,-0.244,13.090,64.260,24.920
9111519,-0.752,0.212,-0.330,6.930,53.900,24.780
9111537,-0.778,0.197,-0.429,2.590,56.490,24.500
9111554,-0.834,0.233,-0.426,7.350,59.360,22.400
9111574,-0.913,0.322,-0.448,15.120,56.560,20.510
9111598,-0.953,0.388,-0.465,22.190,56.560,21.560
9111616,-0.990,0.395,-0.420,20.510,49.700,23.030
9111640,-0.968,0.308,-0.359,13.860,19.180,21.910
9111659,-0.948,0.226,-0.313,10.850,20.160,17.920
9111675,-0.891,0.234,-0.318,14.700,8.890,15.680
9111700,-0.830,0.214,-0.330,17.640,-1.750,11.970
9111720,-0.716,0.194,-0.434,9.450,-1.540,9.520
9111737,-0.745,0.224,-0.425,2.590,0.210,7.420
9111757,-0.808,0.266,-0.425,6.020,-2.380,4.480
9111780,-0.857,0.316,-0.429,15.470,-8.540,0.980
9111799,-0.794,0.293,-0.448,16.870,-9.940,0.210
9111823,-0.823,0.209,-0.445,13.440,-6.930,-1.890
9111843,-0.920,0.199,-0.427,14.700,-13.440,-7.280
9111860,-0.924,0.207,-0.412,20.580,-17.850,-12.040
9111884,-0.927,0.239,-0.485,28.140,-19.740,-14.490
9111899,-0.909,0.253,-0.535,30.870,-15.540,-14.280
9111924,-0.930,0.370,-0.524,17.290,-9.100,-8.820
9111943,-0.999,0.356,-0.467,6.720,-10.220,-7.490
9111963,-1.056,0.352,-0.437,10.920,-9.800,-9.940
9111983,-1.131,0.350,-0.560,17.220,-17.570,-8.050
9112002,-1.148,0.353,-0.649,12.670,-13.090,-6.020
9112027,-1.231,0.353,-0.569,2.310,-7.210,-3.360
9112047,-1.336,0.354,-0.468,3.290,-11.340,-2.520
9112071,-1.351,0.337,-0.383,5.670,-24.640,-0.910
9112091,-1.283,0.233,-0.503,7.770,-31.780,-3.080
9112110,-1.253,0.195,-0.575,8.750,-28.630,-5.670
9112128,-1.245,0.223,-0.547,7.210,-19.950,-6.370
9112151,-1.258,0.236,-0.467,6.860,-18.830,-5.740
9112167,-1.254,0.233,-0.482,7.560,-20.510,-4.830
9112192,-1.245,0.240,-0.505,6.020,-22.960,-4.760
9112212,-1.210,0.242,-0.473,5.530,-28.280,-6.090
9112228,-1.140,0.221,-0.451,5.040,-31.570,-7.910
9112247,-1.127,0.231,-0.442,3.430,-31.150,-8.820
9112273,-1.148,0.324,-0.441,-0.350,-34.440,-9.870
9112292,-1.110,0.351,-0.437,-9.030,-38.080,-9.660
9112310,-1.070,0.340,-0.437,-15.610,-41.160,-9.590
9112330,-1.046,0.327,-0.422,-21.070,-43.190,-9.170
9112349,-1.046,0.337,-0.423,-26.180,-47.250,-10.150
9112374,-1.019,0.355,-0.421,-31.570,-50.330,-11.340
9112395,-0.989,0.339,-0.397,-36.050,-52.010,-11.270
9112414,-0.994,0.298,-0.376,-42.980,-54.670,-10.500
9112433,-0.920,0.266,-0.289,-41.440,-46.970,-10.780
9112456,-0.869,0.214,-0.218,-39.200,-51.380,-9.240
9112477,-0.811,0.139,-0.282,-36.260,-46.900,-9.870
9112493,-0.821,0.110,-0.275,-29.960,-42.350,-13.230
9112513,-0.870,0.120,-0.330,-19.600,-33.950,-18.060
9112533,-0.915,0.160,-0.327,-9.030,-20.930,-19.530
9112553,-0.942,0.151,-0.196,-0.840,-7.000,-18.620
9112576,-0.936,0.138,0.023,0.420,0.700,-15.470
9112597,-0.849,0.092,0.266,-3.010,-0.420,-13.930
9112617,-0.733,-0.059,0.327,-3.780,-11.060,-15.050
9112641,-0.680,-0.050,0.265,-5.460,-23.030,-11.340
9112660,-0.647,-0.016,0.311,-5.530,-23.100,-7.280
9112681,-0.635,-0.149,0.291,8.260,-20.300,-5.740
9112701,-0.809,-0.279,0.274,27.930,-18.270,-8.960
9112726,-0.960,-0.296,0.168,45.570,-14.770,-17.290
9112745,-1.088,-0.230,0.183,52.010,-0.560,-22.470
9112760,-1.119,-0.100,0.252,51.870,6.160,-24.080
9112784,-0.994,0.029,0.296,48.230,9.380,-23.590
9112804,-0.933,0.112,0.333,43.330,3.430,-19.250
9112825,-0.926,0.116,0.355,43.400,-6.720,-14.000
9112844,-0.916,0.097,0.357,42.210,-11.200,-9.520
9112869,-0.938,0.065,0.368,37.520,-20.020,-5.740
9112890,-0.905,0.024,0.341,33.180,-26.040,-6.160
9112907,-0.904,0.071,0.362,33.180,-33.180,-7.070
9112929,-0.870,0.058,0.164,21.490,-45.780,-5.250
9112948,-0.859,0.054,0.180,15.120,-32.550,-4.200
9112973,-0.948,0.060,0.333,11.900,-26.390,-1.120
9112992,-1.054,0.003,0.347,12.390,-27.230,0.070
9113012,-1.055,-0.023,0.252,16.380,-32.620,-0.070
9113036,-0.951,-0.045,0.145,23.870,-27.580,-2.450
9113055,-0.885,-0.018,0.212,27.720,-11.900,-2.940
9113074,-0.972,-0.026,0.361,22.190,-3.990,-1.190
9113098,-1.027,-0.030,0.430,18.410,-11.760,-1.750
9113114,-0.973,-0.044,0.314,20.020,-15.260,-2.450
9113138,-0.869,-0.049,0.200,23.380,-13.160,-3.850
9113161,-0.850,-0.021,0.176,25.480,-5.740,-4.200
9113183,-0.878,0.006,0.240,28.770,-1.540,-3.010
9113202,-0.914,0.008,0.272,30.870,0.420,-1.260
9113221,-0.969,-0.008,0.275,29.890,1.120,-0.910
9113241,-1.008,0.000,0.269,28.840,-1.190,-1.820
9113263,-1.013,0.044,0.222,31.150,-2.520,-3.430
9113283,-1.066,0.128,0.162,33.880,1.540,-2.030
9113303,-1.070,0.166,0.116,37.520,7.770,-0.210
9113327,-0.970,0.182,0.142,40.460,20.580,2.800
9113347,-0.961,0.173,0.168,34.790,18.900,4.340
9113367,-0.945,0.239,0.235,32.200,25.060,4.620
9113390,-0.932,0.271,0.192,22.120,13.230,7.770
9113411,-0.899,0.259,0.167,15.120,16.240,10.290
9113430,-0.959,0.208,0.231,16.380,14.490,11.760
9113448,-1.013,0.155,0.284,20.370,11.690,12.180
9113472,-1.079,0.125,0.339,24.990,-2.870,9.870
9113492,-1.072,0.167,0.302,25.200,-13.300,8.050
9113508,-1.028,0.159,0.240,18.620,-17.500,6.580
9113527,-1.011,0.177,0.257,10.150,-20.790,4.550
9113551,-0.981,0.193,0.255,-1.260,-25.480,5.740
9113567,-0.942,0.198,0.257,-5.950,-26.880,7.420
9113592,-0.926,0.170,0.251,-6.930,-27.860,8.540
9113611,-0.898,0.132,0.191,4.200,-18.760,3.990
9113635,-0.870,0.181,0.271,5.180,-14.770,4.620
9113654,-0.885,0.146,0.374,9.450,-19.950,4.690
9113674,-0.894,0.122,0.351,8.610,-29.960,3.080
9113698,-0.878,0.142,0.267,5.110,-28.630,0.000
9113718,-0.888,0.158,0.246,3.010,-20.860,-1.260
9113738,-0.892,0.175,0.275,5.530,-17.080,-3.010
9113757,-0.858,0.176,0.354,8.960,-19.250,-6.580
9113778,-0.900,0.175,0.466,12.810,-27.790,-10.150
9113793,-0.961,0.166,0.454,13.160,-34.090,-11.830
9113818,-0.937,0.132,0.299,18.900,-28.280,-13.720
9113838,-0.887,0.158,0.320,24.500,-20.650,-14.420
9113857,-0.869,0.134,0.332,25.620,-17.850,-16.170
9113874,-0.871,0.140,0.422,26.460,-13.580,-17.780
9113898,-0.903,0.160,0.450,23.730,-12.810,-19.180
9113918,-0.935,0.227,0.427,17.780,-11.340,-18.480
9113937,-0.957,0.262,0.375,16.030,-6.370,-17.780
9113961,-0.934,0.251,0.383,15.540,0.980,-17.150
9113980,-0.929,0.222,0.455,18.480,5.810,-18.130
9114001,-0.922,0.230,0.467,14.980,11.410,-19.180
9114019,-0.921,0.264,0.485,12.950,15.960,-19.950
9114040,-0.901,0.294,0.482,8.610,17.920,-18.480
9114063,-0.842,0.317,0.448,-0.980,22.960,-16.310
9114087,-0.850,0.276,0.366,-10.850,30.800,-14.420
9114106,-0.971,0.296,0.236,-18.130,36.330,-12.530
9114130,-0.934,0.269,0.265,-33.810,50.820,-6.930
9114151,-0.999,0.220,0.213,-40.460,52.080,-1.190
9114171,-0.964,0.071,0.086,-37.240,49.700,1.610
9114189,-0.880,-0.079,0.106,-30.380,51.380,0.140
9114213,-0.890,-0.234,0.081,-19.950,52.990,-4.130
9114231,-0.915,-0.220,-0.052,-12.320,62.860,-5.460
9114251,-0.931,-0.007,-0.018,-10.920,66.570,-4.270
9114269,-0.905,0.128,0.002,-14.070,52.430,-1.470
9114288,-0.895,0.119,-0.076,-15.050,38.780,-1.190
9114308,-0.922,-0.009,-0.176,-10.500,22.540,-1.190
9114333,-0.846,-0.123,-0.190,-10.780,26.600,-0.630
9114353,-0.792,-0.187,-0.137,-10.570,30.240,-3.640
9114369,-0.890,-0.174,-0.152,5.040,26.180,-6.230
9114393,-0.987,-0.017,-0.271,7.140,17.150,-6.930
9114413,-0.977,-0.019,-0.376,-0.420,18.830,-4.970
9114432,-0.952,-0.125,-0.362,-0.840,31.150,-4.900
9114456,-1.037,-0.107,-0.316,-0.280,35.630,-6.650
9114476,-0.983,-0.048,-0.252,-6.300,31.150,-4.900
9114500,-0.926,-0.056,-0.137,-5.320,29.890,-5.530
9114515,-0.992,-0.045,-0.157,-4.620,21.280,-7.210
9114541,-1.022,-0.002,-0.237,-1.190,12.600,-6.300
9114560,-0.977,-0.009,-0.238,-3.080,11.900,-5.880
9114580,-0.901,-0.054,-0.197,-4.690,15.260,-4.970
9114597,-0.925,-0.050,-0.226,-6.580,18.480,-5.250
9114621,-1.044,0.009,-0.330,-16.870,10.780,-6.160
9114639,-1.113,0.007,-0.427,-26.180,11.690,-6.580
9114663,-1.141,-0.062,-0.285,-26.040,16.870,-5.810
9114683,-1.077,-0.007,-0.200,-24.710,20.090,-5.320
9114706,-1.143,0.077,-0.233,-29.820,12.320,-4.340
9114726,-1.209,0.101,-0.339,-34.510,-5.250,-1.050
9114743,-1.183,0.071,-0.295,-36.890,-9.380,0.700
9114763,-1.138,-0.003,-0.300,-32.830,-15.330,0.140
9114787,-1.117,-0.035,-0.301,-29.680,-9.940,-0.980
9114808,-1.260,0.024,-0.268,-25.410,-15.610,-0.700
9114827,-1.331,-0.057,-0.272,-19.600,-18.550,-3.080
9114847,-1.298,-0.206,-0.213,-10.430,-17.570,-4.060
9114866,-1.342,-0.160,-0.243,5.390,-18.340,-6.930
9114890,-1.410,-0.079,-0.307,10.080,-17.920,-9.310
9114908,-1.417,-0.070,-0.245,7.280,-14.630,-8.540
9114929,-1.411,-0.033,-0.229,2.940,-7.840,-6.370
9114952,-1.460,0.030,-0.274,-4.690,0.210,-7.140
9114976,-1.437,0.088,-0.232,-10.430,-3.850,-7.770
9114993,-1.382,0.039,-0.197,-8.890,-13.930,-9.310
9115013,-1.354,-0.007,-0.221,-8.540,-15.890,-11.200
9115032,-1.324,-0.050,-0.241,-7.070,-15.680,-12.180
9115056,-1.285,-0.096,-0.249,-1.260,-20.510,-12.180
9115075,-1.251,-0.133,-0.280,4.340,-22.540,-12.390
9115094,-1.246,-0.142,-0.300,7.420,-21.560,-12.040
9115115,-1.229,-0.109,-0.292,8.680,-21.070,-13.370
9115138,-1.190,-0.074,-0.263,7.560,-23.310,-12.180
9115159,-1.116,-0.094,-0.244,8.540,-26.250,-9.730
9115183,-1.031,-0.093,-0.281,17.640,-26.600,-6.650
9115206,-0.972,-0.046,-0.232,27.580,-25.900,-4.060
9115225,-0.935,-0.100,-0.281,38.500,-22.750,0.000
9115249,-0.915,-0.114,-0.269,40.320,-12.950,4.830
9115267,-0.932,-0.142,-0.214,41.440,-11.480,5.880
9115291,-0.934,-0.144,-0.233,45.850,-11.900,5.670
9115309,-0.940,-0.176,-0.240,51.520,-10.920,5.460
9115331,-0.935,-0.256,-0.226,62.300,-10.080,4.340
9115350,-0.912,-0.256,-0.110,64.610,-14.210,2.520
9115373,-0.845,-0.203,0.068,56.000,-27.230,0.000
9115392,-0.644,-0.065,0.112,51.100,-38.850,0.630
9115412,-0.442,0.110,0.157,53.970,-26.670,2.380
9115436,-0.466,0.217,0.195,56.280,-18.060,6.300
9115456,-0.551,0.193,0.227,53.900,-19.390,3.780
9115476,-0.623,0.193,0.341,46.550,-19.810,1.540
9115496,-0.776,0.290,0.360,32.200,-19.110,2.380
9115513,-0.996,0.365,0.337,14.980,-15.540,4.270
9115532,-1.133,0.442,0.350,8.750,-10.220,12.320
9115556,-1.146,0.320,0.281,4.690,-5.390,24.430
9115575,-1.033,0.171,0.290,-3.710,-0.280,22.680
9115595,-0.911,0.093,0.318,-5.250,3.220,18.340
9115616,-0.922,0.061,0.274,-5.600,-2.940,14.630
9115636,-0.846,0.151,0.220,-5.670,4.620,13.160
9115655,-0.830,0.237,0.197,-10.710,3.570,14.560
9115674,-0.798,0.225,0.197,-17.290,8.540,15.470
9115694,-0.805,0.184,0.272,-20.230,9.240,15.190
9115718,-0.841,0.150,0.301,-24.290,1.330,14.210
9115736,-0.878,0.163,0.279,-26.670,-1.540,13.650
9115760,-0.956,0.177,0.233,-26.390,-3.080,13.790
9115778,-0.994,0.166,0.214,-24.640,-4.830,13.510
9115798,-0.987,0.173,0.223,-26.040,-7.070,13.790
9115818,-0.959,0.195,0.211,-25.620,-1.540,12.950
9115839,-0.939,0.212,0.227,-26.950,2.310,13.580
9115857,-0.958,0.212,0.247,-30.240,3.010,14.910
9115877,-0.977,0.214,0.210,-35.630,-2.800,14.070
9115902,-0.975,0.226,0.171,-40.810,4.270,12.390
9115922,-1.001,0.168,0.170,-40.460,6.650,8.960
9115942,-0.965,0.124,0.176,-38.500,10.920,6.300
9115963,-0.908,0.155,0.205,-38.080,12.530,6.300
9115982,-0.935,0.178,0.222,-45.430,14.280,7.420
9116001,-0.993,0.253,0.218,-49.140,15.890,8.050
9116023,-1.014,0.229,0.215,-48.020,12.390,7.280
9116042,-0.975,0.200,0.178,-49.420,11.340,7.140
9116061,-0.967,0.174,0.135,-54.040,7.070,7.490
9116084,-0.875,0.152,0.078,-53.270,18.340,3.850
9116105,-0.914,0.142,0.142,-44.100,13.370,2.660
9116125,-0.948,0.095,0.166,-40.950,9.800,3.290
9116141,-1.005,0.083,0.192,-37.450,4.760,1.960
9116164,-1.060,0.052,0.133,-31.780,4.270,-0.420
9116183,-1.022,0.038,0.116,-25.830,10.990,-2.240
9116208,-0.949,-0.008,0.184,-20.160,13.510,-5.250
9116227,-0.891,-0.025,0.225,-17.990,10.010,-8.190
9116251,-0.913,-0.045,0.223,-14.770,2.170,-10.920
9116271,-1.001,-0.034,0.226,-11.480,-2.870,-13.160
9116291,-1.092,0.026,0.203,-7.350,-5.530,-14.770
9116310,-1.126,0.082,0.180,-5.390,-7.490,-14.770
9116330,-1.122,0.106,0.172,-7.210,-9.940,-13.580
9116351,-1.118,0.091,0.371,-7.490,-10.920,-11.760
9116375,-1.114,0.064,0.277,-6.370,-14.070,-10.360
9116395,-1.067,0.063,0.254,-6.790,-14.560,-10.080
9116415,-1.001,0.079,0.221,-6.160,-15.960,-9.870
9116434,-0.948,0.049,0.200,-4.830,-16.660,-9.590
9116454,-0.895,0.022,0.175,-4.200,-13.580,-10.080
9116476,-0.893,0.041,0.197,-9.240,-10.780,-9.590
9116500,-0.894,0.040,0.186,-13.720,-9.240,-9.940
9116520,-0.896,0.021,0.163,-20.230,-8.400,-9.240
9116538,-0.873,0.032,0.194,-17.080,0.000,-10.080
9116562,-0.912,0.011,0.199,-16.100,-7.420,-9.170
9116582,-0.886,-0.004,0.201,-22.260,-1.470,-8.540
9116602,-0.937,-0.015,0.298,-25.900,0.910,-8.470
9116627,-0.972,-0.031,0.330,-27.300,-0.560,-6.860
9116646,-0.967,-0.055,0.312,-24.360,-4.900,-6.440
9116665,-0.959,-0.055,0.289,-20.510,-7.840,-6.650
9116688,-0.918,-0.073,0.266,-15.540,-6.090,-6.720
9116707,-0.905,-0.105,0.297,-12.670,-0.070,-5.530
9116726,-0.973,-0.124,0.359,-13.720,-2.310,-4.900
9116750,-0.981,-0.102,0.368,-14.000,-9.730,-4.480
9116770,-0.953,-0.040,0.357,-11.480,-10.290,-1.680
9116789,-0.922,-0.021,0.375,-10.430,2.310,3.990
9116808,-0.954,-0.113,0.415,-3.990,7.840,7.350
9116828,-0.930,-0.121,0.329,1.750,12.880,6.860
9116852,-0.918,-0.118,0.315,4.130,24.570,6.160
9116871,-0.893,-0.089,0.311,2.030,34.440,5.320
9116895,-0.863,-0.054,0.300,0.210,44.100,6.930
9116915,-0.879,-0.046,0.211,0.560,47.390,9.100
9116934,-0.905,-0.022,0.102,4.060,57.890,10.990
9116954,-0.893,0.043,0.039,6.930,73.010,13.230
9116977,-0.861,0.040,0.093,6.650,74.130,14.000
9116997,-0.877,0.174,0.151,10.780,70.210,14.280
9117022,-0.949,0.254,-0.032,-0.910,45.780,21.840
9117041,-1.015,0.203,-0.088,-19.670,45.010,24.010
9117060,-1.057,0.157,-0.065,-14.980,41.440,23.450
9117080,-1.081,0.122,-0.108,-2.100,28.770,21.910
9117101,-1.074,0.130,-0.296,4.900,15.820,20.090
9117124,-1.036,0.193,-0.376,5.250,13.720,20.090
9117145,-0.943,0.239,-0.314,-5.600,12.040,21.560
9117165,-0.875,0.191,-0.272,-10.220,6.580,20.230
9117185,-0.828,0.125,-0.323,-6.160,-0.210,17.150
9117205,-0.815,0.109,-0.367,3.640,-1.120,15.750
9117221,-0.856,0.155,-0.431,9.240,-4.130,15.540
9117245,-0.865,0.239,-0.447,8.120,1.050,13.930
9117262,-0.884,0.254,-0.349,9.030,2.940,11.620
9117286,-0.885,0.228,-0.303,14.280,0.210,8.330
9117306,-0.878,0.214,-0.380,15.260,-4.130,7.210
9117326,-0.865,0.257,-0.424,7.210,-5.600,6.440
9117346,-0.889,0.263,-0.391,-0.770,-5.880,4.620
9117366,-0.924,0.123,-0.379,2.660,-2.730,-2.240
9117383,-0.942,0.098,-0.333,10.780,2.940,-9.240
9117403,-0.936,0.117,-0.280,15.330,6.580,-13.300
9117427,-1.022,0.181,-0.322,1.400,-2.380,-14.420
9117442,-1.061,0.290,-0.314,-1.680,-1.680,-14.350
9117467,-1.061,0.229,-0.217,6.230,-9.520,-14.490
9117486,-1.036,0.004,-0.278,11.200,-13.790,-19.600
9117505,-1.066,0.007,-0.403,21.490,-11.130,-24.360
9117529,-1.159,0.104,-0.358,22.260,-2.870,-26.810
9117549,-1.243,0.157,-0.276,18.410,-3.360,-26.740
9117570,-1.273,0.146,-0.369,23.800,-7.280,-23.730
9117589,-1.235,0.074,-0.344,30.800,-4.620,-22.190
9117607,-1.221,0.023,-0.270,39.270,-6.160,-24.010
9117627,-1.270,0.005,-0.265,39.480,-12.460,-29.400
9117651,-1.343,0.020,-0.323,34.790,-5.460,-31.710
9117671,-1.383,0.036,-0.246,35.770,-2.800,-29.470
9117689,-1.376,0.127,-0.332,28.840,6.300,-27.160
9117712,-1.480,0.229,-0.378,20.300,8.680,-22.470
9117732,-1.510,0.236,-0.407,15.470,3.780,-16.100
9117751,-1.464,0.117,-0.299,17.500,-2.590,-15.820
9117776,-1.459,-0.012,-0.180,14.910,-12.460,-17.150
9117796,-1.389,-0.012,-0.245,15.260,-19.950,-16.520
9117816,-1.314,0.055,-0.341,16.660,-20.790,-12.740
9117836,-1.301,0.097,-0.341,14.140,-19.740,-7.420
9117856,-1.238,0.108,-0.275,15.680,-19.950,-4.130
9117880,-1.247,0.064,-0.258,19.950,-27.020,-0.490
9117900,-1.169,0.042,-0.281,28.560,-29.820,0.910
9117920,-1.145,0.084,-0.346,24.850,-37.100,5.110
9117941,-1.126,0.109,-0.386,0.980,-35.210,9.170
9117960,-1.098,0.101,-0.305,-8.750,-35.350,9.310
9117978,-1.064,0.081,-0.263,-14.630,-40.320,8.890
9117997,-1.028,0.054,-0.325,-20.090,-47.950,8.610
9118022,-1.012,0.051,-0.440,-26.460,-43.960,8.190
9118040,-0.979,0.102,-0.405,-35.000,-32.690,7.280
9118059,-0.941,0.159,-0.258,-41.090,-27.300,7.700
9118082,-0.949,0.145,-0.224,-46.200,-31.710,9.450
9118101,-0.925,0.100,-0.296,-44.520,-32.340,9.590
9118124,-0.846,0.075,-0.221,-39.900,-20.510,10.570
9118143,-0.855,0.046,-0.094,-33.880,-16.450,9.100
9118166,-0.834,0.050,-0.015,-27.930,-18.270,8.680
9118187,-0.731,0.003,-0.021,-24.920,-5.180,8.680
9118205,-0.626,-0.086,0.046,-24.710,12.040,6.580
9118225,-0.608,-0.100,0.294,-28.840,18.410,4.760
9118249,-0.614,-0.050,0.505,-42.420,3.010,9.800
9118269,-0.613,-0.085,0.343,-30.450,-10.990,9.100
9118287,-0.588,-0.133,0.269,-12.040,-3.500,9.240
9118308,-0.780,-0.321,0.275,5.670,0.140,4.900
9118325,-0.911,-0.357,0.311,11.130,-5.040,-3.990
9118345,-1.068,-0.350,0.333,23.660,1.260,-16.170
9118365,-1.308,-0.190,0.445,35.700,0.000,-22.470
9118390,-1.173,-0.126,0.375,25.690,-4.900,-24.570
9118409,-0.970,0.000,0.285,18.340,-5.040,-23.240
9118428,-0.808,0.076,0.276,22.890,-7.840,-19.670
9118450,-0.740,0.062,0.356,26.040,-7.210,-16.870
9118467,-0.759,-0.010,0.384,24.640,-9.660,-14.980
9118489,-0.815,-0.035,0.339,23.240,-10.360,-13.020
9118509,-0.864,0.002,0.310,23.310,-11.270,-11.550
9118529,-0.851,0.012,0.272,22.820,-5.670,-9.450
9118549,-0.915,-0.014,0.254,15.750,-3.500,-8.400
9118573,-0.971,-0.020,0.254,6.020,-4.550,-9.450
9118593,-0.995,-0.038,0.235,1.050,-1.540,-9.660
9118612,-0.995,-0.067,0.299,3.220,5.670,-8.120
9118632,-1.047,-0.094,0.351,6.930,7.630,-4.550
9118651,-1.076,-0.086,0.289,10.640,4.060,-3.500
9118676,-1.022,-0.086,0.197,16.170,3.150,-2.940
9118691,-0.940,-0.087,0.160,16.520,6.860,-2.030
9118715,-0.903,-0.060,0.186,9.030,8.470,-0.350
9118736,-0.859,-0.054,0.221,4.340,6.440,2.380
9118756,-0.893,-0.068,0.246,2.870,1.050,4.200
9118777,-0.956,-0.104,0.186,0.980,-6.510,3.780
9118796,-0.960,-0.119,0.142,5.250,-3.780,0.280
9118813,-1.026,-0.094,0.179,16.940,-1.400,-3.430
9118835,-1.097,-0.069,0.111,24.710,-3.220,-2.800
9118856,-1.095,0.041,0.086,29.540,5.040,2.730
9118876,-1.003,0.084,0.126,32.970,16.240,6.440
9118900,-0.965,0.082,0.210,37.380,18.830,10.080
9118920,-0.971,0.051,0.224,36.330,9.240,11.900
9118936,-0.965,0.041,0.206,32.270,3.850,11.130
9118956,-0.990,0.034,0.185,30.170,-1.750,8.890
9118976,-1.040,0.015,0.165,31.080,-5.320,6.720
9119000,-1.055,0.013,0.153,30.170,-4.270,6.160
9119019,-1.027,0.058,0.133,26.600,-1.120,7.350
9119043,-0.969,0.087,0.125,22.960,-1.890,8.820
9119060,-0.905,0.102,0.126,17.360,-6.580,8.330
9119084,-0.912,0.122,0.138,9.380,-12.180,7.000
9119104,-0.997,0.137,0.188,6.580,-15.680,6.300
9119124,-1.072,0.138,0.251,8.750,-19.810,8.470
9119144,-1.068,0.101,0.253,5.880,-26.880,9.940
9119167,-1.022,0.095,0.203,-1.680,-34.230,8.890
9119187,-1.020,0.062,0.278,-3.080,-37.660,7.560
9119208,-1.046,0.040,0.362,-0.280,-41.160,5.460
9119228,-1.018,0.062,0.342,6.580,-42.840,5.320
9119247,-0.981,0.100,0.300,6.370,-49.770,8.960
9119267,-0.913,0.020,0.301,9.240,-49.700,5.670
9119292,-0.844,0.090,0.253,10.920,-52.920,7.560
9119312,-0.793,0.102,0.176,6.370,-39.410,9.800
9119332,-0.830,0.084,0.303,-2.870,-33.740,13.510
9119351,-0.891,-0.057,0.312,18.410,-22.960,-3.360
9119375,-0.865,0.055,0.434,22.260,-30.870,-6.510
9119394,-0.857,0.056,0.374,33.600,-31.640,-8.470
9119413,-0.885,0.028,0.353,44.030,-26.530,-10.920
9119434,-0.891,0.029,0.388,49.070,-22.050,-12.810
9119458,-0.884,0.098,0.450,44.870,-18.060,-13.650
9119480,-0.889,0.159,0.366,42.700,-11.200,-15.680
9119502,-0.915,0.154,0.402,47.740,-8.190,-16.730
9119522,-0.916,0.160,0.473,47.950,-6.720,-16.730
9119539,-0.951,0.180,0.517,45.360,-6.090,-16.730
9119563,-0.953,0.239,0.464,34.720,0.980,-16.870
9119583,-0.904,0.228,0.424,27.860,9.730,-17.500
9119603,-0.885,0.272,0.483,20.370,16.520,-16.030
9119623,-0.907,0.285,0.526,15.540,18.970,-15.260
9119642,-0.949,0.230,0.529,12.040,20.650,-14.140
9119667,-0.963,0.215,0.508,5.530,25.410,-12.950
9119685,-0.916,0.219,0.515,-2.030,31.150,-12.250
9119705,-0.859,0.203,0.511,-10.640,31.850,-13.300
9119729,-0.910,0.232,0.472,-14.490,31.220,-12.880
9119749,-0.937,0.285,0.190,-23.870,38.990,-6.020
9119769,-0.854,0.195,0.119,-35.350,59.990,0.560
9119788,-0.962,0.022,0.068,-33.600,63.630,1.470
9119811,-1.040,-0.130,-0.041,-22.260,58.870,1.050
9119831,-0.991,-0.200,-0.086,-11.480,61.460,-0.630
9119854,-1.041,-0.228,-0.027,-3.080,59.780,-4.480
9119875,-1.184,-0.282,-0.039,11.970,48.580,-11.970
9119899,-1.167,-0.199,-0.070,16.800,33.810,-18.130
9119920,-1.034,-0.084,-0.160,10.920,34.300,-19.320
9119939,-0.967,-0.083,-0.179,10.920,33.810,-19.180
9119956,-0.981,-0.117,-0.182,15.120,28.490,-21.070
9119980,-0.903,-0.091,-0.217,13.020,27.090,-21.000
9120000,-0.776,-0.112,-0.175,8.050,36.330,-18.130
9120020,-0.678,-0.103,-0.079,2.450,40.530,-14.700
9120039,-0.726,-0.137,-0.000,12.040,34.930,-16.100
9120062,-0.869,-0.097,-0.052,21.140,13.440,-13.160
9120081,-0.863,-0.039,-0.229,15.470,13.300,-9.660
9120106,-0.798,0.003,-0.260,-3.080,20.090,-8.470
9120125,-0.734,-0.057,-0.146,-9.590,17.920,-11.270
9120145,-0.750,-0.089,-0.078,-1.050,10.640,-13.230
9120164,-0.886,-0.024,-0.147,1.470,0.980,-11.340
9120184,-0.942,0.026,-0.232,-1.330,1.960,-5.250
9120205,-0.992,-0.108,-0.340,-3.430,5.110,-1.120
9120225,-0.971,-0.227,-0.266,-5.880,9.100,-0.560
9120242,-0.954,-0.211,-0.266,-2.240,4.130,-1.960
9120262,-1.066,-0.061,-0.223,-8.680,7.420,0.070
9120286,-1.095,-0.016,-0.213,-14.350,5.390,4.480
9120306,-1.111,-0.053,-0.222,-14.840,0.420,7.350
9120326,-1.070,-0.090,-0.235,-12.040,4.130,6.790
9120346,-1.092,-0.041,-0.196,-10.010,4.340,8.190
9120367,-1.122,0.027,-0.222,-17.710,1.820,10.710
9120386,-1.161,0.038,-0.179,-25.410,-4.060,13.160
9120410,-1.156,-0.035,-0.170,-27.860,-7.000,13.790
9120426,-1.149,-0.148,-0.205,-17.850,-6.580,12.460
9120450,-1.121,-0.220,-0.225,-4.270,-2.730,4.130
9120470,-1.183,-0.187,-0.253,1.190,4.900,0.420
9120490,-1.269,-0.076,-0.244,-2.450,7.280,3.570
9120510,-1.324,0.000,-0.185,-9.590,8.540,6.020
9120529,-1.329,-0.031,-0.186,-8.960,9.170,8.050
9120550,-1.347,-0.047,-0.234,-2.940,11.410,5.040
9120568,-1.403,-0.068,-0.251,2.520,5.880,3.780
9120587,-1.441,-0.058,-0.252,1.960,-1.890,2.030
9120607,-1.480,-0.073,-0.228,-4.690,-5.810,1.260
9120631,-1.455,-0.025,-0.245,-13.650,-3.360,3.220
9120652,-1.395,0.032,-0.242,-14.980,-1.260,6.230
9120671,-1.361,0.001,-0.264,-11.830,-3.080,8.050
9120691,-1.352,-0.007,-0.275,-6.020,-9.450,6.510
9120710,-1.334,-0.002,-0.331,-2.520,-16.170,4.130
9120731,-1.276,-0.080,-0.325,-0.770,-16.730,1.050
9120751,-1.296,-0.098,-0.273,-2.450,-21.070,1.680
9120775,-1.258,-0.072,-0.298,-3.990,-25.550,6.020
9120796,-1.225,-0.107,-0.322,-5.110,-18.410,5.390
9120814,-1.214,-0.092,-0.302,-4.200,-25.130,3.570
9120835,-1.125,-0.089,-0.328,2.450,-27.650,3.570
9120859,-1.119,-0.098,-0.294,9.800,-27.650,5.600
9120878,-1.108,-0.046,-0.268,14.490,-33.600,6.370
9120898,-1.050,-0.014,-0.277,13.020,-34.510,8.330
9120923,-1.027,-0.012,-0.260,10.570,-34.440,8.120
9120942,-0.994,-0.082,-0.253,18.060,-32.970,7.910
9120960,-0.949,-0.163,-0.271,28.350,-27.510,6.440
9120980,-0.908,-0.158,-0.209,34.860,-20.790,7.350
9121004,-0.902,-0.137,-0.112,32.830,-17.430,7.910
9121024,-0.918,-0.096,0.058,28.140,-28.770,5.600
9121040,-0.781,-0.048,-0.006,29.960,-29.960,3.920
9121064,-0.644,0.041,-0.077,26.250,-8.750,6.020
9121084,-0.594,0.084,0.093,27.790,8.540,6.510
9121104,-0.563,0.113,0.389,30.100,12.950,5.250
9121124,-0.664,0.155,0.345,26.110,0.630,4.900
9121144,-0.647,0.235,0.310,20.090,3.080,3.920
9121165,-0.760,0.285,0.275,21.420,3.920,1.680
9121185,-0.874,0.320,0.237,18.200,-3.850,4.900
9121205,-0.817,0.319,0.182,9.590,-4.060,8.960
9121224,-0.836,0.277,0.199,-5.040,7.770,16.450
9121249,-0.905,0.215,0.249,-23.240,12.250,20.020
9121269,-0.983,0.258,0.233,-31.360,6.230,20.860
9121291,-0.984,0.248,0.250,-21.980,4.620,23.240
9121311,-1.056,0.159,0.354,-6.160,-3.850,21.840
9121330,-1.058,0.139,0.364,-1.400,-16.800,16.800
9121355,-0.999,0.193,0.334,-2.240,-26.600,10.360
9121375,-0.942,0.207,0.276,-6.580,-31.150,8.190
9121395,-0.886,0.194,0.220,-15.400,-31.150,8.540
9121412,-0.843,0.203,0.204,-20.440,-30.520,8.890
9121436,-0.813,0.190,0.241,-23.240,-29.190,7.840
9121455,-0.837,0.203,0.311,-21.350,-24.290,4.480
9121476,-0.915,0.139,0.325,-13.790,-23.100,0.560
9121492,-0.945,0.126,0.227,-8.890,-30.170,-1.680
9121512,-0.958,0.251,0.151,-12.810,-20.790,-4.060
9121536,-0.915,0.335,0.160,-20.510,-10.080,-2.800
9121555,-0.977,0.387,0.286,-14.980,2.450,-3.640
9121575,-1.022,0.301,0.263,-20.720,-2.660,-2.310
9121599,-0.984,0.240,0.161,-35.630,-2.100,-1.050
9121617,-0.908,0.244,0.051,-43.540,2.240,-0.980
9121637,-0.895,0.242,0.049,-46.340,13.790,-0.280
9121661,-0.916,0.213,0.145,-44.380,20.790,-0.910
9121681,-0.960,0.165,0.204,-42.490,23.240,-1.610
9121700,-0.979,0.118,0.238,-39.690,18.200,-2.450
9121719,-0.992,0.088,0.203,-38.570,13.230,-2.450
9121740,-1.013,0.055,0.170,-36.190,10.500,-3.220
9121758,-0.997,0.046,0.179,-36.540,11.760,-3.430
9121782,-0.957,0.062,0.186,-40.600,9.310,-2.660
9121802,-0.943,0.043,0.189,-41.370,6.720,-3.080
9121822,-0.953,0.015,0.194,-36.610,5.740,-4.550
9121842,-0.997,-0.008,0.223,-24.360,2.870,-5.810
9121860,-1.017,-0.037,0.228,-17.290,-0.420,-7.420
9121884,-1.003,-0.035,0.200,-13.790,-3.150,-9.520
9121900,-0.960,-0.002,0.153,-12.880,-5.180,-10.150
9121922,-0.935,0.010,0.111,-12.180,-2.590,-10.920
9121946,-0.920,-0.008,0.135,-1.260,2.660,-11.830
9121966,-0.939,-0.040,0.216,8.190,3.500,-11.060
9121983,-1.024,-0.038,0.280,-0.140,-8.260,-10.570
9122005,-1.043,0.069,0.321,-5.670,-14.700,-13.510
9122027,-1.112,0.179,0.286,-14.980,-25.270,-8.820
9122047,-1.048,0.127,0.231,-21.000,-19.530,-5.390
9122064,-0.976,0.059,0.227,-17.500,-11.970,-6.230
9122084,-0.952,0.032,0.297,-11.760,-9.310,-6.930
9122108,-0.968,0.031,0.376,-11.410,-16.660,-6.720
9122129,-0.958,0.049,0.365,-17.780,-28.700,-6.650
9122145,-0.898,0.035,0.308,-22.750,-35.210,-6.510
9122169,-0.878,0.009,0.319,-26.460,-36.540,-7.000
9122188,-0.824,0.048,0.285,-27.790,-35.420,-7.280
9122208,-0.859,0.082,0.198,-30.590,-19.320,-4.130
9122227,-0.926,0.029,0.255,-34.440,-9.660,-2.660
9122247,-0.924,0.017,0.330,-35.350,-3.990,-1.190
9122273,-0.912,-0.007,0.470,-35.630,-7.070,1.050
9122289,-0.908,-0.022,0.441,-36.890,-7.840,3.500
9122312,-0.942,-0.056,0.429,-38.570,-6.370,4.970
9122333,-0.983,-0.055,0.433,-34.510,-14.770,4.410
9122352,-0.932,-0.062,0.341,-31.920,-9.660,6.370
9122371,-0.904,-0.093,0.328,-31.360,7.490,10.570
9122395,-0.941,-0.110,0.453,-27.860,8.260,12.110
9122414,-0.970,-0.112,0.395,-21.070,5.670,12.250
9122435,-0.962,-0.112,0.373,-14.980,11.340,14.070
9122457,-0.903,-0.098,0.440,-11.410,26.180,15.050
9122481,-0.926,-0.116,0.431,-2.240,27.090,17.780
9122501,-0.869,-0.144,0.399,-3.990,32.060,17.430
9122525,-0.860,-0.102,0.331,-3.080,37.940,16.170
9122545,-0.894,-0.086,0.281,0.140,44.450,14.910
9122563,-0.890,-0.094,0.215,7.350,49.140,12.600
9122585,-0.852,-0.068,0.122,18.690,67.550,10.430
9122605,-0.894,-0.003,0.076,20.720,77.140,8.190
9122629,-0.849,0.135,0.062,18.340,80.010,9.380
9122647,-0.810,0.348,0.029,12.810,83.720,15.120
9122671,-0.834,0.383,0.055,9.310,84.210,23.030
9122692,-0.902,0.311,0.037,3.990,64.190,24.920
9122709,-0.869,0.249,-0.100,3.150,49.210,24.640
9122731,-0.893,0.150,-0.268,0.770,41.020,21.560
9122752,-0.905,0.080,-0.269,-1.820,41.370,18.550
9122769,-0.895,0.044,-0.218,-1.330,40.880,15.610
9122789,-0.834,0.065,-0.246,4.480,39.620,13.020
9122809,-0.920,0.149,-0.311,4.620,35.140,11.830
9122829,-0.973,0.250,-0.439,-0.840,30.800,11.900
9122849,-0.958,0.295,-0.443,-3.850,37.520,11.690
