Millis,AccelX,AccelY,AccelZ,GyroX,GyroY,GyroZ
8862719,-1.003,0.127,0.131,-4.620,2.660,-7.700
8862739,-1.013,0.134,0.134,-4.480,1.400,-6.790
8862763,-1.017,0.131,0.130,-4.060,-0.280,-5.250
8862781,-1.010,0.141,0.119,-4.550,-1.750,-4.270
8862799,-1.010,0.136,0.128,-4.690,-3.500,-3.080
8862819,-1.005,0.123,0.139,-4.690,-3.850,-2.100
8862842,-1.009,0.116,0.146,-3.780,-4.130,-1.330
8862860,-1.006,0.117,0.143,-1.890,-4.480,-0.630
8862884,-1.002,0.137,0.141,-1.540,-4.340,-0.280
8862904,-1.005,0.137,0.140,-1.610,-4.480,0.070
8862924,-1.124,0.136,0.140,-1.540,-4.550,0.210
8862944,-1.000,0.134,0.148,-1.260,-4.340,0.490
8862968,-1.002,0.124,0.158,-0.490,-3.500,0.700
8862988,-1.014,0.123,0.139,-0.280,-4.200,1.470
8863006,-1.007,0.114,0.139,1.050,-5.320,2.450
8863027,-0.998,0.134,0.138,1.260,-6.090,3.010
8863051,-0.994,0.133,0.141,0.840,-6.300,3.080
8863068,-1.001,0.136,0.152,0.770,-6.300,2.940
8863091,-1.015,0.115,0.156,2.030,-7.840,3.430
8863111,-1.012,0.125,0.142,3.570,-9.100,3.850
8863135,-0.997,0.165,0.153,3.780,-9.240,4.130
8863155,-1.010,0.150,0.154,2.030,-9.800,4.760
8863175,-1.016,0.136,0.163,2.170,-10.500,5.530
8863193,-0.989,0.141,0.168,2.870,-10.220,5.740
8863215,-1.000,0.150,0.166,2.870,-10.080,5.390
8863239,-0.975,0.144,0.170,3.010,-9.240,4.830
8863257,-0.992,0.163,0.181,4.410,-9.100,4.060
8863274,-0.994,0.167,0.190,4.060,-7.770,2.590
8863295,-0.976,0.160,0.195,4.410,-4.900,1.120
8863319,-0.979,0.186,0.200,3.010,-1.680,-0.350
8863339,-0.978,0.169,0.181,2.030,0.070,-0.840
8863358,-0.992,0.158,0.179,1.050,0.070,-1.260
8863378,-0.988,0.147,0.179,0.490,1.190,-2.030
8863401,-0.991,0.141,0.179,2.100,2.380,-3.080
8863422,-0.993,0.176,0.172,2.660,3.360,-3.640
8863441,-0.996,0.158,0.173,1.260,3.850,-3.920
8863464,-1.001,0.137,0.168,1.890,3.920,-4.200
8863483,-0.999,0.146,0.162,3.360,3.710,-4.340
8863502,-0.998,0.152,0.158,3.640,3.850,-4.480
8863527,-1.006,0.144,0.161,3.640,3.570,-4.200
8863547,-1.003,0.142,0.161,2.940,4.060,-4.060
8863571,-1.004,0.130,0.155,3.010,3.290,-3.920
8863591,-1.005,0.127,0.148,4.410,3.080,-3.850
8863612,-1.002,0.133,0.139,4.900,2.800,-3.920
8863630,-0.996,0.147,0.151,3.640,2.870,-3.780
8863651,-1.006,0.124,0.145,0.840,3.150,-3.360
8863670,-1.009,0.123,0.148,1.260,3.290,-3.360
8863689,-1.017,0.124,0.141,2.660,2.590,-3.220
8863709,-1.012,0.119,0.137,3.080,1.960,-2.800
8863729,-1.010,0.129,0.131,0.700,2.170,-2.100
8863753,-1.015,0.118,0.127,0.840,1.610,-1.610
8863774,-1.005,0.119,0.138,0.840,1.120,-1.470
8863789,-1.021,0.109,0.128,1.750,0.280,-1.260
8863809,-1.013,0.109,0.120,1.190,-0.350,-0.350
8863834,-1.004,0.121,0.122,1.330,-1.400,0.210
8863854,-1.004,0.124,0.124,1.260,-2.240,0.420
8863874,-1.013,0.104,0.126,1.330,-2.660,0.560
8863894,-1.007,0.104,0.129,2.800,-3.080,0.420
8863918,-1.007,0.123,0.121,3.080,-3.640,0.700
8863938,-1.008,0.116,0.126,2.240,-4.270,1.120
8863954,-1.015,0.115,0.126,2.170,-4.830,1.540
8863978,-1.012,0.118,0.122,1.680,-5.670,2.170
8863997,-1.009,0.122,0.127,1.960,-6.370,3.010
8864018,-1.012,0.113,0.135,0.280,-6.650,3.500
8864038,-1.008,0.117,0.134,-0.350,-6.930,3.920
8864059,-1.004,0.117,0.139,-0.070,-6.930,3.710
8864082,-1.009,0.122,0.138,0.560,-7.140,3.780
8864102,-1.010,0.128,0.139,0.070,-7.350,3.990
8864122,-1.010,0.126,0.144,-0.420,-7.630,4.340
8864145,-1.009,0.122,0.154,-0.210,-7.210,4.200
8864162,-1.005,0.117,0.151,-0.630,-6.440,4.060
8864184,-0.998,0.125,0.150,-0.490,-6.090,3.850
8864208,-0.996,0.134,0.150,-0.280,-5.950,3.500
8864232,-0.994,0.142,0.153,-1.190,-5.530,3.010
8864252,-1.007,0.145,0.161,-1.470,-5.180,2.730
8864269,-1.019,0.121,0.153,-1.470,-5.530,3.360
8864293,-1.011,0.123,0.149,-0.910,-5.880,3.850
8864311,-1.003,0.131,0.148,-0.700,-6.510,4.130
8864330,-0.998,0.130,0.156,-0.770,-7.000,4.200
8864354,-0.998,0.118,0.156,-0.630,-7.140,3.990
8864373,-0.996,0.123,0.162,0.910,-7.000,3.990
8864392,-1.010,0.149,0.178,1.610,-6.720,4.130
8864411,-0.998,0.155,0.174,-0.140,-5.740,3.710
8864435,-0.989,0.126,0.171,-0.350,-4.690,2.870
8864456,-0.990,0.138,0.173,1.050,-4.060,2.170
8864476,-0.990,0.141,0.186,2.100,-2.940,1.120
8864496,-1.001,0.155,0.189,2.100,-0.980,0.280
8864514,-1.002,0.149,0.173,1.330,-0.210,-0.070
8864538,-0.993,0.137,0.171,1.050,0.280,-0.070
8864558,-0.989,0.135,0.167,1.470,0.980,-0.560
8864575,-0.996,0.143,0.166,0.280,0.910,-0.350
8864595,-1.005,0.147,0.170,0.140,0.910,-0.070
8864619,-1.013,0.152,0.159,-2.100,0.700,-0.070
8864639,-1.014,0.122,0.150,-1.330,-0.630,0.630
8864657,-1.012,0.127,0.150,-1.050,-1.470,1.120
8864679,-1.005,0.141,0.157,-0.770,-2.030,1.330
8864697,-0.999,0.141,0.158,-1.470,-2.170,0.980
8864716,-0.991,0.119,0.161,-1.260,-2.590,0.700
8864740,-0.997,0.135,0.162,0.420,-2.590,0.350
8864761,-1.002,0.140,0.166,0.070,-2.380,0.140
8864777,-1.005,0.121,0.161,0.350,-2.310,0.350
8864801,-1.004,0.139,0.163,1.400,-1.960,0.560
8864816,-1.005,0.139,0.162,2.240,-2.310,0.490
8864841,-1.000,0.127,0.159,1.890,-2.310,0.490
8864860,-1.007,0.124,0.156,2.590,-2.660,0.840
8864881,-1.009,0.137,0.152,2.030,-3.570,1.400
8864901,-1.007,0.126,0.157,2.800,-4.200,1.820
8864921,-1.006,0.143,0.151,2.660,-5.040,2.310
8864941,-1.024,0.117,0.145,2.940,-6.930,2.800
8864961,-1.004,0.140,0.159,3.080,-7.630,3.150
8864980,-0.996,0.149,0.159,2.380,-7.770,3.220
8865001,-0.994,0.176,0.168,-0.910,-7.840,3.430
8865020,-0.973,0.144,0.178,-3.080,-6.160,2.800
8865041,-0.987,0.127,0.181,-2.520,-5.390,2.380
8865061,-1.003,0.150,0.182,-2.730,-4.200,1.890
8865081,-1.007,0.144,0.174,-3.290,-3.570,1.750
8865101,-0.992,0.136,0.173,-0.770,-2.940,1.400
8865124,-0.982,0.147,0.177,0.210,-2.310,0.630
8865145,-0.975,0.144,0.186,-2.030,-0.210,-0.770
8865160,-0.985,0.143,0.193,-1.680,1.050,-1.540
8865181,-0.988,0.147,0.184,-2.660,3.080,-2.310
8865205,-0.976,0.150,0.178,-3.430,4.970,-3.990
8865224,-0.989,0.150,0.171,-4.410,5.670,-4.760
8865245,-1.005,0.143,0.168,-4.830,6.440,-5.040
8865265,-1.019,0.112,0.164,-2.870,6.020,-5.040
8865283,-0.998,0.111,0.159,-1.470,7.140,-4.480
8865307,-0.997,0.114,0.159,0.980,5.810,-3.430
8865326,-1.007,0.119,0.144,0.840,5.600,-3.080
8865347,-1.007,0.121,0.144,1.260,5.180,-2.940
8865366,-1.022,0.117,0.135,2.310,3.850,-2.940
8865390,-1.013,0.119,0.137,2.730,2.870,-2.310
8865409,-1.010,0.110,0.135,2.030,1.750,-1.750
8865430,-1.005,0.111,0.138,2.310,1.120,-1.330
8865450,-1.007,0.127,0.136,-17.780,1.400,-0.840
8865466,-1.005,0.128,0.142,-1.610,1.400,-0.910
8865485,-1.005,0.126,0.132,-2.730,1.540,-1.190
8865510,-0.983,0.114,0.133,-2.450,0.770,-1.050
8865530,-1.016,0.105,0.128,-2.310,0.700,-0.700
8865545,-1.005,0.098,0.131,-1.960,0.140,-0.630
8865570,-0.998,0.098,0.134,-0.980,0.350,-0.350
8865589,-1.004,0.117,0.139,-0.840,0.700,-0.630
8865610,-1.018,0.118,0.131,-1.330,0.280,-0.210
8865627,-1.015,0.104,0.130,-0.070,-0.070,0.280
8865651,-1.012,0.094,0.127,0.630,-0.700,0.700
8865666,-1.006,0.098,0.125,1.470,-0.350,0.910
8865691,-1.000,0.104,0.126,2.030,-0.770,0.490
8865711,-0.997,0.122,0.130,3.780,-0.350,0.280
8865731,-1.017,0.108,0.126,3.710,-1.330,0.420
8865751,-1.016,0.102,0.125,3.920,-1.610,0.630
8865770,-1.006,0.105,0.123,4.270,-1.610,0.910
8865794,-1.005,0.098,0.130,3.990,-1.400,0.980
8865818,-1.006,0.134,0.127,4.060,-1.400,1.260
8865838,-1.021,0.101,0.117,4.060,-2.800,1.400
8865856,-1.007,0.100,0.117,3.990,-2.660,2.100
8865880,-1.005,0.096,0.122,5.460,-3.010,1.750
8865900,-0.996,0.136,0.122,4.060,-2.520,1.960
8865920,-0.996,0.119,0.125,2.310,-2.100,1.470
8865940,-0.996,0.136,0.135,0.840,-0.700,0.840
8865960,-1.016,0.122,0.137,-2.030,1.470,0.980
8865976,-1.015,0.107,0.134,-1.750,2.100,1.050
8865996,-1.018,0.117,0.125,-0.420,3.220,1.400
8866015,-1.020,0.089,0.126,0.630,3.920,1.470
8866040,-1.007,0.126,0.169,0.840,5.110,0.840
8866060,-0.995,0.125,0.103,-1.330,5.530,0.070
8866079,-1.000,0.135,0.109,-4.690,4.760,-0.140
8866104,-1.042,0.111,0.070,-4.900,0.070,1.190
8866125,-1.015,0.069,0.068,-1.190,-3.080,2.730
8866143,-1.022,0.103,0.077,-0.980,-7.980,4.270
8866167,-1.019,0.116,0.081,-4.970,-10.640,6.440
8866185,-1.027,0.100,0.087,-7.210,-12.110,7.980
8866205,-1.015,0.091,0.092,-7.490,-14.350,8.960
8866225,-1.008,0.110,0.111,-5.950,-16.590,9.030
8866250,-1.019,0.126,0.149,-3.290,-18.060,8.260
8866265,-1.039,0.165,0.130,-4.340,-18.340,8.470
8866289,-1.034,0.127,0.136,-3.640,-19.110,8.750
8866309,-1.007,0.098,0.160,-2.660,-18.970,9.590
8866329,-1.000,0.135,0.173,-3.920,-17.080,10.080
8866352,-0.977,0.159,0.176,-6.580,-13.720,8.960
8866373,-0.984,0.140,0.183,-6.930,-11.970,7.490
8866390,-0.982,0.131,0.177,-5.390,-10.150,6.580
8866414,-0.969,0.142,0.182,-3.850,-8.540,4.620
8866434,-0.979,0.148,0.183,-2.310,-7.490,3.500
8866454,-0.993,0.156,0.183,-2.100,-5.670,2.660
8866474,-0.987,0.136,0.186,-1.890,-4.060,2.030
8866495,-0.975,0.141,0.199,-1.120,-1.050,1.050
8866516,-0.976,0.145,0.206,0.210,2.450,-0.210
8866536,-0.964,0.148,0.221,3.290,6.160,-3.290
8866559,-0.983,0.188,0.179,3.920,10.570,-5.460
8866578,-0.992,0.123,0.189,2.100,13.370,-6.020
8866603,-1.026,0.095,0.162,5.670,13.090,-6.300
8866622,-1.028,0.101,0.121,10.780,9.590,-5.180
8866639,-1.029,0.161,0.108,4.830,7.770,-3.430
8866662,-1.054,0.139,0.085,-3.430,1.400,0.140
8866683,-1.037,0.121,0.095,-3.290,-4.480,3.640
8866703,-1.031,0.137,0.109,-3.430,-8.820,5.530
8866726,-1.018,0.135,0.136,-4.620,-11.620,6.230
8866747,-0.999,0.125,0.154,-2.730,-11.830,6.440
8866767,-0.994,0.128,0.169,-1.400,-11.410,6.020
8866789,-0.977,0.145,0.179,0.140,-9.450,4.900
8866808,-0.977,0.139,0.177,0.560,-7.350,3.290
8866831,-0.987,0.132,0.182,2.590,-4.830,2.030
8866851,-0.991,0.171,0.183,3.710,-2.730,1.680
8866875,-1.013,0.129,0.163,2.940,-2.590,1.820
8866895,-1.011,0.121,0.152,4.830,-3.150,2.380
8866910,-1.004,0.144,0.151,5.390,-3.850,2.730
8866933,-1.001,0.159,0.160,3.290,-3.850,2.240
8866952,-1.002,0.144,0.168,2.030,-3.290,1.820
8866972,-1.001,0.142,0.166,1.890,-3.150,1.890
8866992,-1.003,0.168,0.169,1.680,-2.800,1.750
8867012,-1.005,0.140,0.157,0.350,-3.290,1.820
8867035,-0.988,0.110,0.163,4.060,-2.800,1.260
8867054,-0.992,0.154,0.164,3.360,-3.360,1.260
8867078,-0.996,0.162,0.160,0.770,-3.290,1.050
8867098,-0.983,0.149,0.171,1.610,-2.170,0.770
8867117,-0.997,0.161,0.173,1.330,-0.420,0.700
8867137,-0.979,0.182,0.183,-0.910,0.630,0.000
8867160,-0.983,0.171,0.179,-2.660,3.080,-1.610
8867181,-0.995,0.137,0.164,-3.150,4.410,-2.310
8867201,-0.997,0.136,0.159,-1.190,4.550,-2.310
8867221,-0.999,0.127,0.147,1.400,3.990,-2.590
8867241,-1.000,0.151,0.157,1.330,3.990,-2.940
8867261,-1.008,0.156,0.158,-0.280,4.060,-3.570
8867284,-1.005,0.148,0.136,-1.050,3.710,-3.500
8867304,-1.012,0.122,0.136,-1.400,2.520,-3.150
8867328,-1.014,0.097,0.134,1.680,1.470,-2.870
8867348,-0.998,0.132,0.147,2.310,1.610,-2.730
8867368,-0.995,0.146,0.153,1.120,2.450,-2.940
8867388,-0.998,0.139,0.147,-0.210,3.710,-3.220
8867412,-1.008,0.112,0.142,0.840,4.480,-2.870
8867429,-1.014,0.103,0.139,2.800,4.900,-2.800
8867453,-0.995,0.119,0.134,3.570,5.740,-2.870
8867473,-1.015,0.113,0.137,1.960,5.880,-2.730
8867492,-1.021,0.114,0.130,3.150,5.460,-1.820
8867512,-1.018,0.113,0.107,4.480,3.990,-0.490
8867533,-1.025,0.104,0.102,4.060,1.750,1.260
8867557,-1.028,0.104,0.103,3.920,-0.350,2.800
8867577,-1.015,0.121,0.094,6.300,-3.080,3.150
8867601,-0.996,0.154,0.116,3.220,-3.220,2.520
8867621,-0.999,0.144,0.114,-0.140,-3.290,1.820
8867645,-0.997,0.139,0.126,-1.400,-2.800,0.490
8867665,-1.003,0.135,0.120,-1.330,-2.660,-0.490
8867683,-1.006,0.147,0.131,-1.680,-1.400,-1.190
8867705,-0.994,0.135,0.127,-3.430,0.280,-1.890
8867725,-0.998,0.120,0.134,-3.500,1.890,-2.800
8867745,-1.001,0.130,0.136,-2.800,3.150,-3.570
8867763,-1.007,0.122,0.119,-3.010,3.640,-4.060
8867784,-1.002,0.105,0.112,-2.310,3.780,-4.060
8867804,-1.007,0.097,0.113,2.240,3.290,-3.920
8867823,-1.014,0.119,0.121,3.150,3.780,-3.920
8867848,-1.031,0.117,0.102,1.820,3.640,-3.220
8867868,-1.017,0.099,0.093,2.520,3.430,-2.450
8867887,-1.004,0.098,0.090,3.640,2.170,-1.890
8867912,-1.014,0.093,0.110,4.200,2.450,-1.190
8867931,-1.018,0.122,0.103,3.290,3.150,-1.400
8867951,-1.021,0.105,0.089,1.960,3.360,-1.540
8867975,-1.017,0.097,0.086,3.640,2.380,-1.050
8868000,-1.005,0.094,0.082,2.730,1.960,-0.490
8868019,-1.014,0.077,0.087,1.890,1.680,0.840
8868037,-1.019,0.094,0.091,-0.490,2.240,1.330
8868057,-0.991,0.104,0.085,-2.450,2.870,0.350
8868081,-1.015,0.105,0.085,-3.220,1.680,-0.280
8868101,-1.055,0.082,0.058,-2.940,-1.260,1.610
8868118,-1.022,0.076,0.054,-0.840,-2.380,2.940
8868139,-1.004,0.097,0.044,-0.140,-6.160,3.640
8868163,-1.025,0.123,0.074,-1.400,-9.030,3.780
8868179,-1.034,0.115,0.079,-3.220,-8.960,4.480
8868199,-1.018,0.099,0.081,-3.360,-8.890,5.320
8868222,-1.006,0.103,0.095,-1.540,-9.240,4.690
8868246,-1.007,0.148,0.102,-2.240,-8.260,2.660
8868266,-1.006,0.128,0.109,-3.150,-6.650,1.330
8868281,-1.002,0.110,0.113,-2.730,-4.970,0.350
8868306,-1.014,0.102,0.103,-2.380,-5.110,0.700
8868326,-1.014,0.102,0.097,-1.610,-5.180,1.190
8868346,-1.015,0.122,0.098,-3.150,-5.460,1.470
8868365,-1.013,0.102,0.106,-4.270,-5.250,2.310
8868386,-1.012,0.101,0.104,-3.640,-5.670,3.150
8868410,-1.015,0.109,0.100,-5.740,-5.810,3.780
8868428,-1.030,0.079,0.093,-5.110,-7.070,5.040
8868450,-1.025,0.103,0.100,-3.500,-9.240,7.490
8868469,-1.014,0.098,0.103,-2.170,-9.870,8.470
8868494,-1.000,0.117,0.109,-3.920,-10.360,7.980
8868514,-1.015,0.116,0.117,-4.410,-10.570,8.050
8868529,-1.015,0.100,0.117,-1.820,-10.850,8.260
8868554,-0.998,0.122,0.120,0.000,-10.780,7.700
8868574,-0.993,0.136,0.130,0.210,-10.150,6.580
8868593,-0.994,0.120,0.143,-0.700,-8.330,6.020
8868617,-0.979,0.124,0.154,0.420,-6.020,4.130
8868637,-1.004,0.153,0.153,1.470,-4.760,2.730
8868652,-0.996,0.145,0.153,0.140,-2.450,1.680
8868672,-0.990,0.119,0.141,0.770,-1.120,0.910
8868697,-1.001,0.249,0.139,2.100,-0.490,0.980
8868717,-1.019,0.109,0.140,2.940,-0.350,0.630
8868736,-0.998,0.142,0.130,3.570,-0.350,0.350
8868760,-1.006,0.140,0.135,1.750,-0.210,-0.280
8868775,-1.020,0.128,0.131,2.100,-0.700,0.210
8868800,-1.021,0.122,0.117,0.910,-2.380,1.680
8868819,-1.018,0.135,0.110,0.210,-4.130,2.310
8868840,-1.003,0.137,0.123,0.420,-5.180,2.100
8868860,-1.017,0.152,0.131,-2.310,-5.250,1.820
8868882,-1.017,0.117,0.130,-1.190,-5.390,1.890
8868902,-1.007,0.116,0.139,1.330,-5.600,1.540
8868923,-1.000,0.142,0.138,1.050,-4.760,1.470
8868947,-0.996,0.147,0.138,-0.420,-3.780,0.420
8868967,-0.979,0.132,0.137,-0.770,-2.100,-0.420
8868986,-0.993,0.135,0.142,-0.070,-2.310,-1.190
8869006,-0.992,0.141,0.147,-0.070,-1.190,-1.820
8869028,-1.006,0.126,0.144,-0.140,-0.420,-2.310
8869049,-1.011,0.116,0.129,-0.210,-0.700,-1.820
8869069,-1.002,0.106,0.125,0.140,-1.190,-1.120
8869093,-0.998,0.113,0.134,0.910,-1.750,-0.910
8869113,-1.001,0.136,0.133,0.210,-1.540,-0.700
8869133,-1.011,0.116,0.124,-0.140,-2.450,-0.700
8869156,-1.003,0.125,0.134,2.100,-2.800,0.070
8869177,-1.006,0.121,0.139,2.800,-2.730,0.070
8869197,-1.000,0.141,0.146,2.030,-1.890,-0.210
8869221,-1.000,0.132,0.143,0.350,-0.490,-0.210
8869241,-0.993,0.132,0.146,-0.700,0.980,-0.700
8869260,-0.994,0.133,0.145,-1.470,2.520,-1.540
8869279,-0.996,0.120,0.137,-1.890,3.500,-2.100
8869304,-1.009,0.136,0.130,-2.520,3.010,-1.820
8869322,-1.017,0.112,0.118,-3.010,2.450,-1.820
8869346,-1.008,0.119,0.115,-3.500,1.750,-1.960
8869365,-1.010,0.116,0.124,-2.170,1.400,-1.820
8869386,-1.020,0.104,0.119,0.350,1.050,-1.260
8869406,-1.016,0.097,0.121,0.840,0.700,-1.190
8869425,-1.003,0.096,0.118,2.730,0.560,-0.630
8869441,-1.007,0.102,0.112,4.130,0.070,-0.420
8869466,-1.014,0.100,0.117,6.370,-0.560,-0.420
8869486,-1.015,0.099,0.116,9.450,-0.700,-0.140
8869505,-1.020,0.122,0.123,12.320,-1.190,0.140
8869525,-1.017,0.125,0.108,9.660,-0.910,0.630
8869545,-1.007,0.108,0.104,7.210,-1.190,1.540
8869569,-1.005,0.148,0.107,5.040,-1.820,1.820
8869589,-0.999,0.123,0.111,0.420,-1.470,1.330
8869607,-1.009,0.117,0.116,-0.700,-2.030,1.610
8869631,-1.014,0.132,0.108,-2.380,-1.960,1.400
8869650,-1.010,0.137,0.120,-4.340,-1.680,0.980
8869674,-1.007,0.133,0.120,-7.630,-0.560,0.140
8869694,-1.016,0.082,0.110,-7.490,-0.770,0.000
8869718,-1.017,0.088,0.114,-3.430,-1.190,0.700
8869739,-1.011,0.112,0.111,-2.660,-1.050,0.770
8869758,-1.003,0.102,0.114,-2.030,-1.260,0.560
8869773,-1.000,0.106,0.115,-0.700,-0.980,0.140
8869798,-1.011,0.124,0.124,-1.190,-0.210,-0.140
8869818,-1.005,0.089,0.111,-1.190,0.420,-0.280
8869837,-0.993,0.102,0.110,0.210,1.120,-0.560
8869858,-0.993,0.113,0.120,0.350,2.310,-1.470
8869877,-1.016,0.121,0.126,0.490,4.270,-1.960
8869894,-1.020,0.091,0.102,-0.490,4.410,-2.030
8869918,-1.017,0.094,0.097,-0.840,4.620,-2.030
8869938,-1.006,0.111,0.090,0.560,4.480,-2.380
8869958,-1.006,0.115,0.096,-0.420,4.200,-2.170
8869976,-1.017,0.088,0.082,-0.070,3.430,-1.750
8869997,-1.011,0.091,0.086,0.000,3.010,-1.330
8870019,-1.018,0.094,0.090,-1.610,2.660,-1.190
8870038,-1.023,0.072,0.075,0.560,1.540,-0.280
8870062,-1.023,0.070,0.068,3.500,-1.330,1.260
8870082,-1.014,0.105,0.066,3.220,-3.080,1.750
8870101,-1.012,0.118,0.075,1.470,-3.710,1.400
8870121,-1.008,0.106,0.076,0.280,-4.270,0.840
8870145,-1.012,0.093,0.074,1.610,-5.390,0.770
8870164,-1.004,0.098,0.081,3.290,-6.370,0.630
8870183,-1.018,0.102,0.099,3.220,-6.510,0.490
8870204,-1.031,0.100,0.100,0.560,-5.810,1.260
8870224,-1.029,0.091,0.088,-0.350,-6.090,2.380
8870249,-1.023,0.093,0.078,0.070,-6.860,3.150
8870268,-1.003,0.103,0.087,-0.910,-8.190,3.430
8870292,-0.999,0.100,0.107,-1.260,-7.770,3.360
8870312,-0.998,0.114,0.121,-2.100,-5.810,2.660
8870330,-1.005,0.105,0.120,-3.220,-4.200,1.890
8870352,-0.998,0.090,0.115,-1.610,-3.080,1.260
8870372,-1.003,0.110,0.110,-0.700,-2.240,0.490
8870388,-1.004,0.116,0.111,-1.540,-0.840,0.280
8870407,-1.007,0.099,0.108,-1.470,-0.490,0.280
8870432,-1.012,0.095,0.105,-1.260,0.140,0.420
8870452,-1.020,0.084,0.097,-0.630,0.070,1.120
8870472,-1.018,0.078,0.089,0.840,-0.770,2.030
8870492,-1.013,0.101,0.089,0.980,-1.750,2.450
8870512,-1.009,0.107,0.097,-0.350,-2.240,2.030
8870531,-1.016,0.103,0.102,-0.840,-2.310,2.170
8870550,-1.013,0.111,0.102,-0.490,-2.310,2.030
8870569,-1.010,0.114,0.101,-1.960,-1.960,1.400
8870592,-1.001,0.105,0.109,-1.890,-1.050,0.280
8870611,-0.996,0.108,0.111,-1.890,0.210,-0.910
8870631,-0.998,0.112,0.107,-1.960,1.540,-1.680
8870654,-1.014,0.082,0.096,-0.560,1.890,-2.100
8870674,-1.012,0.097,0.089,1.120,2.170,-2.240
8870694,-1.015,0.089,0.098,2.170,2.590,-2.380
8870718,-1.019,0.094,0.091,2.800,1.680,-1.610
8870738,-1.026,0.096,0.080,1.820,1.190,-0.490
8870754,-1.033,0.088,0.081,0.770,0.070,0.840
8870774,-1.030,0.084,0.087,0.910,-0.770,2.240
8870794,-1.027,0.097,0.078,0.420,-2.030,3.360
8870818,-1.018,0.098,0.077,-0.630,-3.010,3.780
8870838,-1.010,0.099,0.075,-0.980,-4.200,3.920
8870857,-1.017,0.097,0.076,-0.840,-5.180,3.990
8870877,-1.017,0.090,0.085,0.280,-6.020,3.990
8870895,-1.021,0.091,0.087,1.260,-6.580,4.270
8870919,-1.027,0.091,0.092,1.960,-7.420,4.200
8870939,-1.012,0.100,0.095,1.330,-7.350,3.850
8870959,-1.008,0.111,0.095,0.980,-8.050,3.290
8870976,-0.999,0.110,0.096,0.700,-6.300,2.870
8871000,-0.989,0.106,0.089,0.840,-7.350,1.960
8871020,-0.990,0.105,0.091,0.350,-7.140,1.610
8871040,-0.994,0.112,0.100,-1.190,-6.650,1.960
8871060,-1.003,0.102,0.108,-1.610,-6.020,1.960
8871079,-1.006,0.108,0.129,-1.400,-4.340,1.260
8871103,-1.012,0.103,0.136,-1.050,-1.820,0.560
8871122,-1.014,0.115,0.115,-1.540,-0.630,0.350
8871142,-1.003,0.116,0.115,-1.820,1.120,-0.070
8871161,-0.989,0.106,0.106,-1.330,2.940,-1.120
8871185,-0.995,0.102,0.110,0.280,3.920,-1.960
8871206,-1.005,0.108,0.108,0.420,4.760,-2.520
8871226,-1.023,0.109,0.105,0.210,5.810,-2.800
8871246,-1.023,0.091,0.084,-0.280,5.460,-2.380
8871269,-1.013,0.081,0.073,2.100,3.780,-1.120
8871288,-1.019,0.096,0.074,2.240,2.590,-0.840
8871313,-1.025,0.085,0.081,2.590,1.330,0.000
8871333,-1.031,0.085,0.066,2.730,-1.610,1.680
8871352,-1.019,0.099,0.063,2.800,-3.220,2.800
8871373,-1.017,0.076,0.072,3.570,-4.970,3.500
8871392,-1.022,0.087,0.079,4.060,-6.300,4.200
8871411,-1.016,0.120,0.093,3.220,-6.790,4.410
8871430,-1.020,0.112,0.098,-0.140,-6.160,4.550
8871455,-1.013,0.099,0.095,-0.700,-5.670,4.620
8871471,-0.997,0.117,0.093,-1.120,-5.180,3.920
8871495,-1.002,0.123,0.098,-2.310,-4.480,3.080
8871515,-1.011,0.113,0.096,-2.800,-3.850,2.380
8871534,-1.008,0.114,0.100,-2.940,-3.010,1.750
8871555,-1.001,0.113,0.105,-3.220,-2.170,1.050
8871574,-1.000,0.116,0.105,-2.870,-0.980,0.350
8871598,-1.005,0.116,0.103,-2.800,0.350,-0.630
8871614,-1.009,0.093,0.100,-1.960,0.490,-0.910
8871635,-1.014,0.099,0.090,0.000,0.700,-0.560
8871659,-1.016,0.102,0.090,0.840,0.560,-0.070
8871679,-1.015,0.099,0.098,-0.070,0.490,0.350
8871704,-1.017,0.085,0.083,0.910,0.070,0.630
8871721,-1.012,0.105,0.081,1.540,-0.560,0.420
8871742,-1.007,0.110,0.076,0.700,-1.050,0.000
8871762,-1.001,0.100,0.087,0.630,-0.980,-0.350
8871786,-1.011,0.085,0.092,0.700,-1.050,-0.210
8871806,-1.018,0.113,0.086,-0.630,-0.840,0.000
8871826,-1.014,0.084,0.083,-0.350,-0.770,0.350
8871850,-1.007,0.098,0.089,1.190,-0.630,0.840
8871868,-1.014,0.103,0.086,0.630,0.350,0.630
8871887,-1.018,0.091,0.081,-1.330,0.630,0.770
8871912,-1.023,0.093,0.079,-1.050,0.210,1.610
8871931,-1.020,0.080,0.069,-0.700,-0.350,2.380
8871950,-1.008,0.084,0.081,0.490,-1.330,3.150
8871970,-1.016,0.103,0.082,1.330,-1.610,2.800
8871991,-1.015,0.105,0.083,0.420,-0.560,2.590
8872011,-1.004,0.119,0.083,-0.280,0.070,1.610
8872035,-1.012,0.111,0.075,-0.840,0.210,0.210
8872054,-1.001,0.106,0.085,0.350,0.980,-0.490
8872070,-1.014,0.114,0.072,-0.210,0.770,-1.120
8872095,-1.017,0.094,0.071,0.490,0.420,-1.260
8872112,-1.016,0.101,0.063,0.280,-0.700,-1.260
8872135,-1.017,0.109,0.072,-1.610,-1.540,-1.890
8872155,-1.025,0.107,0.079,-2.100,-1.820,-2.100
8872173,-1.031,0.094,0.064,-2.590,-2.800,-1.540
8872193,-1.021,0.078,0.061,-1.190,-3.920,-0.210
8872217,-1.017,0.080,0.061,-0.770,-5.460,0.980
8872232,-1.016,0.091,0.069,-1.470,-5.740,1.540
8872257,-1.016,0.095,0.081,-2.030,-5.460,2.100
8872277,-1.007,0.096,0.082,-2.450,-4.620,2.100
8872297,-1.010,0.095,0.077,-2.310,-4.270,1.820
8872317,-1.007,0.091,0.086,-1.890,-3.640,1.680
8872336,-1.003,0.104,0.081,-1.260,-2.730,1.120
8872360,-0.994,0.082,0.109,-0.070,-0.490,0.700
8872380,-1.007,0.102,0.105,1.960,1.960,0.070
8872400,-1.017,0.103,0.082,1.470,3.710,-0.490
8872424,-1.026,0.076,0.057,1.680,2.800,-0.840
8872443,-1.005,0.081,0.058,3.290,1.260,-0.980
8872464,-1.007,0.084,0.081,3.710,2.590,-2.100
8872484,-1.003,0.116,0.109,4.060,3.290,-4.130
8872503,-1.026,0.113,0.064,2.800,3.640,-4.760
8872524,-1.047,0.056,0.041,1.680,1.610,-1.540
8872541,-1.041,0.054,0.027,2.240,-1.540,1.750
8872565,-1.036,0.069,0.035,2.030,-7.140,5.390
8872582,-1.041,0.076,0.038,1.260,-10.570,7.840
8872601,-1.045,0.092,0.039,-0.910,-13.440,9.450
8872621,-1.023,0.093,0.051,-2.240,-15.750,10.710
8872645,-1.019,0.125,0.076,-2.940,-16.310,10.360
8872665,-1.008,0.122,0.094,-5.950,-14.630,9.380
8872685,-1.002,0.119,0.102,-6.930,-13.370,8.470
8872705,-1.007,0.115,0.103,-6.020,-12.040,8.050
8872724,-1.003,0.110,0.106,-5.950,-10.290,7.140
8872749,-1.007,0.089,0.100,-3.990,-9.800,6.230
8872769,-1.016,0.108,0.103,-1.960,-10.080,5.810
8872789,-1.022,0.106,0.097,-1.960,-10.430,6.300
8872809,-1.026,0.102,0.098,-1.610,-10.990,7.140
8872829,-1.025,0.078,0.096,0.910,-12.530,7.560
8872850,-1.002,0.104,0.114,1.470,-13.300,7.980
8872874,-0.984,0.143,0.125,3.570,-11.760,6.650
8872894,-1.007,0.172,0.132,-0.630,-13.300,6.300
8872913,-0.993,0.155,0.131,-2.730,-11.550,5.390
8872933,-0.985,0.129,0.132,-3.850,-9.870,5.040
8872957,-0.982,0.125,0.150,-3.780,-7.980,4.060
8872977,-0.994,0.133,0.154,-3.710,-5.880,3.290
8872997,-1.005,0.140,0.156,-3.570,-4.060,2.520
8873020,-0.996,0.127,0.146,-3.290,-2.870,1.470
8873041,-0.990,0.136,0.151,-1.260,-1.120,0.350
8873061,-0.987,0.138,0.148,-1.260,0.070,-0.910
8873081,-0.990,0.140,0.144,-0.910,1.680,-1.890
8873105,-0.991,0.135,0.147,-0.490,3.080,-3.080
8873125,-0.983,0.139,0.146,-1.890,5.600,-4.340
8873145,-1.017,0.138,0.134,-0.840,6.860,-5.110
8873164,-1.029,0.110,0.108,-1.260,6.230,-4.410
8873184,-1.028,0.096,0.105,1.470,3.850,-2.660
8873204,-1.024,0.085,0.100,3.570,1.400,-1.540
8873226,-1.022,0.101,0.098,5.880,-1.750,0.490
8873245,-1.021,0.124,0.107,5.320,-3.290,1.540
8873270,-1.025,0.109,0.112,4.620,-4.900,3.080
8873290,-1.020,0.104,0.118,5.530,-4.830,3.570
8873308,-1.002,0.129,0.127,5.040,-3.780,3.360
8873325,-0.995,0.160,0.130,2.450,-2.450,2.730
8873349,-0.996,0.145,0.131,0.070,-0.770,1.190
8873373,-0.977,0.147,0.136,-0.700,1.960,-1.260
8873393,-0.980,0.151,0.167,0.630,5.460,-3.920
8873412,-0.999,0.135,0.125,-1.470,7.910,-5.530
8873434,-1.008,0.118,0.124,-1.260,8.470,-5.810
8873456,-1.017,0.085,0.094,0.140,6.720,-5.600
8873480,-1.016,0.092,0.082,2.170,4.060,-3.920
8873500,-1.043,0.095,0.081,4.130,0.840,-2.100
8873519,-1.043,0.076,0.068,4.760,-1.820,0.210
8873539,-1.045,0.087,0.072,4.270,-5.320,3.710
8873559,-1.037,0.110,0.080,3.500,-8.050,5.670
8873579,-1.024,0.140,0.087,1.120,-9.450,5.880
8873603,-1.012,0.114,0.105,0.070,-10.150,6.020
8873622,-1.009,0.116,0.116,0.140,-9.170,6.090
8873643,-0.982,0.117,0.130,-0.140,-7.420,4.900
8873663,-0.985,0.132,0.131,-1.260,-5.110,3.850
8873682,-0.999,0.107,0.129,-0.700,-3.500,3.150
8873704,-0.995,0.105,0.120,1.050,-2.100,2.940
8873726,-0.999,0.112,0.116,1.960,-1.610,2.870
8873746,-1.006,0.114,0.112,2.590,-1.190,2.940
8873766,-1.007,0.125,0.111,2.800,-1.190,2.940
8873785,-1.008,0.130,0.107,2.730,-1.120,2.520
8873805,-1.009,0.114,0.124,2.870,-0.840,2.310
8873828,-1.013,0.121,0.117,2.870,-0.280,1.890
8873848,-1.006,0.137,0.101,2.100,-0.350,1.260
8873869,-1.013,0.148,0.104,-0.140,-0.770,0.630
8873888,-1.016,0.145,0.103,-2.310,-0.910,0.000
8873908,-1.001,0.123,0.107,-3.360,-0.420,-0.490
8873932,-0.994,0.108,0.126,-2.170,0.490,-1.050
8873952,-1.011,0.139,0.108,-3.080,1.680,-1.400
8873971,-1.011,0.124,0.102,-2.450,2.380,-1.540
8873991,-1.009,0.132,0.106,-3.150,2.800,-2.100
8874011,-1.005,0.134,0.117,-3.080,4.620,-2.660
8874035,-1.028,0.131,0.104,-2.800,4.340,-2.870
8874055,-1.021,0.078,0.086,-1.820,3.850,-1.820
8874075,-1.005,0.074,0.098,1.610,3.850,-1.610
8874095,-0.991,0.123,0.116,5.320,6.370,-4.130
8874115,-0.992,0.177,0.142,2.660,10.010,-7.350
8874139,-1.010,0.128,0.063,-0.770,9.380,-7.070
8874159,-1.037,0.045,0.050,0.910,6.020,-3.920
8874178,-1.029,0.078,0.074,6.090,3.850,-3.010
8874199,-1.012,0.129,0.066,3.150,4.480,-3.780
8874217,-1.021,0.108,0.057,0.840,3.850,-3.990
8874237,-1.031,0.074,0.059,1.750,1.400,-3.220
8874257,-1.022,0.079,0.048,3.010,-0.490,-1.260
8874280,-1.025,0.084,0.049,3.430,-3.570,0.980
8874300,-1.022,0.102,0.070,3.290,-5.530,3.290
8874320,-1.023,0.091,0.058,1.120,-6.160,4.760
8874344,-1.026,0.076,0.048,1.260,-8.610,6.930
8874364,-1.027,0.095,0.071,2.170,-12.180,8.540
8874382,-1.032,0.125,0.062,0.980,-13.160,8.820
8874404,-1.034,0.118,0.071,-1.890,-14.560,9.660
8874428,-1.030,0.118,0.085,-1.890,-15.820,11.200
8874448,-1.021,0.115,0.072,-3.640,-16.940,11.970
8874468,-1.016,0.130,0.095,-4.480,-17.850,12.040
8874488,-1.031,0.146,0.087,-8.540,-19.110,11.200
8874507,-1.014,0.102,0.098,-7.630,-18.550,11.550
8874528,-0.997,0.111,0.134,-4.830,-17.780,10.220
8874548,-1.009,0.161,0.138,-2.730,-17.010,8.330
8874566,-0.996,0.164,0.137,-7.700,-15.820,6.650
8874586,-0.986,0.148,0.145,-8.330,-13.650,6.230
8874606,-0.980,0.118,0.141,-5.810,-12.670,5.040
8874625,-0.976,0.133,0.163,-3.990,-9.870,3.290
8874650,-0.989,0.148,0.176,-1.610,-7.070,1.190
8874670,-0.996,0.163,0.168,-2.380,-4.060,0.070
8874690,-0.982,0.142,0.150,-3.360,-2.170,-1.260
8874706,-0.992,0.142,0.153,-2.730,-0.490,-2.170
8874726,-0.990,0.124,0.156,-2.380,1.260,-3.430
8874750,-0.995,0.130,0.147,-0.350,2.730,-3.640
8874769,-0.995,0.144,0.152,-0.840,4.480,-3.990
8874785,-0.988,0.131,0.155,-2.590,6.300,-4.900
8874805,-0.997,0.129,0.148,-1.400,7.350,-5.600
8874827,-1.010,0.128,0.123,-0.420,7.000,-5.530
8874849,-0.999,0.118,0.120,0.000,6.650,-5.600
8874873,-1.005,0.095,0.134,0.980,7.140,-5.180
8874893,-1.007,0.128,0.144,1.120,9.100,-5.390
8874913,-1.026,0.126,0.114,-0.560,8.610,-4.970
8874933,-1.026,0.093,0.090,-0.770,7.280,-3.920
8874957,-1.005,0.087,0.103,4.340,6.230,-3.570
8874975,-1.025,0.116,0.103,4.550,5.180,-2.800
8874996,-1.010,0.095,0.090,2.170,5.250,-1.960
8875020,-1.002,0.086,0.102,2.590,5.040,-1.190
8875040,-1.015,0.096,0.104,3.850,4.900,-1.120
8875058,-1.012,0.109,0.085,2.800,4.480,-0.910
8875079,-1.005,0.104,0.082,2.800,3.710,-0.350
8875102,-1.001,0.116,0.098,2.310,3.290,-0.490
8875126,-1.027,0.106,0.085,1.610,2.660,-0.280
8875143,-1.034,0.102,0.074,1.750,1.680,0.700
8875162,-1.024,0.096,0.061,1.680,0.070,1.750
8875186,-1.018,0.105,0.064,0.910,-1.960,3.500
8875205,-1.019,0.093,0.073,0.770,-3.640,4.690
8875224,-1.023,0.100,0.086,2.030,-4.760,5.600
8875248,-1.025,0.107,0.083,1.680,-5.110,6.090
8875264,-1.018,0.109,0.077,1.050,-5.670,6.230
8875284,-1.008,0.122,0.083,0.910,-5.740,5.670
8875304,-1.003,0.122,0.089,1.120,-5.320,4.830
8875328,-0.993,0.116,0.104,1.050,-3.780,3.430
8875345,-0.991,0.131,0.102,0.490,-2.590,2.030
8875369,-1.006,0.123,0.099,0.140,-1.470,0.910
8875389,-1.013,0.103,0.089,0.560,-1.330,1.190
8875407,-1.015,0.112,0.083,1.470,-2.100,1.330
8875426,-1.011,0.116,0.094,1.610,-1.540,0.980
8875451,-1.011,0.123,0.091,0.980,-0.350,0.490
8875471,-1.015,0.101,0.085,0.840,-0.140,0.910
8875495,-1.007,0.115,0.073,1.540,-0.280,0.700
8875514,-1.004,0.126,0.088,1.190,-0.070,0.420
8875532,-1.013,0.119,0.094,1.330,0.420,0.350
8875556,-1.014,0.112,0.074,0.980,0.560,0.770
8875576,-1.000,0.112,0.069,0.700,-0.280,0.700
8875596,-1.017,0.112,0.071,0.000,-1.260,0.980
8875616,-1.030,0.106,0.068,0.420,-3.150,1.890
8875637,-1.017,0.117,0.067,-0.140,-4.480,2.240
8875656,-1.021,0.122,0.064,-1.680,-6.650,2.310
8875680,-1.017,0.130,0.083,-3.080,-7.140,2.450
8875699,-1.008,0.125,0.091,-3.430,-6.510,2.170
8875719,-0.996,0.121,0.092,-4.270,-5.040,1.050
8875743,-0.998,0.109,0.088,-3.570,-3.920,-0.350
8875759,-0.998,0.108,0.096,-2.170,-3.150,-1.050
8875779,-0.990,0.116,0.111,-0.560,-1.400,-1.960
8875802,-0.995,0.117,0.125,-0.490,2.730,-3.500
8875823,-1.006,0.108,0.113,0.910,6.160,-4.130
8875843,-1.012,0.110,0.087,1.330,6.790,-3.990
8875863,-1.023,0.091,0.064,2.870,4.970,-3.850
8875881,-1.027,0.090,0.053,3.850,2.380,-1.750
8875902,-1.024,0.094,0.052,4.060,-0.700,-0.140
8875926,-1.015,0.116,0.062,2.100,-2.800,1.050
8875942,-1.022,0.111,0.073,1.050,-3.640,1.540
8875966,-1.029,0.099,0.063,-0.280,-5.040,3.150
8875984,-1.023,0.093,0.064,-0.210,-7.000,4.130
8876006,-1.010,0.110,0.080,-1.260,-7.350,4.620
8876026,-1.006,0.111,0.082,-2.310,-7.210,4.200
8876050,-1.001,0.104,0.093,-2.100,-6.160,3.710
8876070,-1.007,0.110,0.104,-1.190,-4.830,3.010
8876090,-0.998,0.117,0.113,0.560,-1.260,2.240
8876108,-1.005,0.110,0.101,0.770,0.980,1.260
8876127,-0.998,0.107,0.099,1.540,2.030,0.420
8876147,-1.017,0.108,0.069,1.680,1.190,0.560
8876171,-1.024,0.087,0.068,3.010,-1.470,2.380
8876191,-1.023,0.108,0.069,3.360,-3.080,3.990
8876210,-1.025,0.125,0.061,1.960,-4.200,5.040
8876231,-1.022,0.119,0.071,1.330,-6.160,5.670
8876249,-1.013,0.122,0.075,1.120,-7.630,5.600
8876273,-1.012,0.138,0.097,-0.210,-7.490,4.760
8876294,-1.013,0.135,0.092,-3.080,-6.230,3.990
8876310,-1.008,0.122,0.087,-4.480,-5.670,3.780
8876330,-1.004,0.117,0.084,-3.430,-5.950,3.780
8876349,-1.012,0.132,0.092,-2.940,-6.230,3.290
8876374,-1.016,0.131,0.091,-4.200,-5.880,2.870
8876390,-1.017,0.121,0.089,-4.550,-6.580,3.010
8876410,-1.024,0.102,0.084,-4.270,-6.930,3.570
8876434,-1.016,0.108,0.100,-2.100,-8.400,3.850
8876454,-1.005,0.133,0.091,-3.290,-7.980,3.570
8876471,-0.995,0.134,0.105,-4.060,-7.770,3.080
8876491,-1.000,0.129,0.114,-3.990,-7.140,2.100
8876511,-1.001,0.131,0.117,-4.130,-6.440,1.820
8876535,-0.998,0.133,0.108,-4.060,-4.760,1.120
8876552,-0.991,0.132,0.107,-3.360,-3.290,0.280
8876576,-0.986,0.127,0.114,-4.340,-2.030,-0.910
8876596,-1.005,0.141,0.111,-3.010,-1.400,-1.400
8876616,-1.011,0.111,0.108,-2.310,-1.260,-1.400
8876636,-1.002,0.110,0.107,-1.400,-0.770,-1.050
8876653,-1.000,0.129,0.109,-1.400,-0.560,-1.260
8876672,-0.998,0.126,0.110,-1.960,0.490,-1.610
8876697,-0.992,0.123,0.106,-1.750,2.100,-2.380
8876717,-0.991,0.100,0.125,-0.210,3.570,-3.500
8876736,-1.001,0.119,0.137,1.750,4.970,-3.920
8876756,-1.027,0.099,0.097,2.380,4.690,-2.800
8876779,-1.029,0.090,0.084,5.530,2.660,-0.840
8876800,-1.018,0.107,0.083,5.810,1.120,0.700
8876820,-1.014,0.120,0.087,3.150,0.700,1.330
8876844,-1.025,0.107,0.081,2.730,-1.400,2.170
8876864,-1.025,0.093,0.070,2.450,-3.360,3.850
8876884,-1.019,0.098,0.076,3.290,-4.690,5.040
8876903,-1.013,0.122,0.088,3.080,-6.020,5.390
8876924,-1.018,0.126,0.093,1.890,-6.090,5.110
8876944,-0.998,0.133,0.102,0.770,-5.390,4.410
8876964,-0.999,0.142,0.113,-0.770,-4.060,3.220
8876988,-0.996,0.122,0.122,-0.280,-1.540,1.540
8877006,-0.998,0.125,0.111,-0.350,0.140,0.770
8877028,-0.998,0.122,0.109,0.770,1.750,-0.280
8877045,-0.989,0.124,0.104,1.750,2.380,-1.260
8877069,-1.001,0.133,0.106,2.240,3.290,-2.520
8877089,-1.026,0.138,0.083,0.420,4.130,-2.170
8877106,-1.033,0.099,0.077,0.770,2.100,-0.840
8877130,-1.023,0.102,0.076,2.240,0.980,0.490
8877150,-1.017,0.128,0.077,0.630,-0.070,0.630
8877170,-1.018,0.105,0.080,-0.210,-0.140,1.400
8877190,-1.017,0.113,0.064,-0.210,-1.680,2.240
8877209,-1.012,0.118,0.073,-0.490,-2.870,2.310
8877227,-0.996,0.114,0.089,-0.070,-2.800,2.100
8877250,-1.004,0.131,0.094,-0.350,-2.030,0.980
8877269,-1.017,0.121,0.088,-2.030,-1.750,0.840
8877292,-1.015,0.109,0.074,-0.420,-2.660,2.170
8877316,-1.014,0.115,0.068,0.350,-3.850,2.730
8877336,-1.006,0.126,0.087,-0.420,-4.550,2.240
8877356,-1.005,0.124,0.093,-0.980,-4.270,1.540
8877376,-1.014,0.110,0.082,-1.050,-4.060,2.030
8877400,-1.002,0.101,0.077,-0.700,-4.550,2.800
8877416,-1.003,0.110,0.084,-0.560,-4.970,2.800
8877440,-1.010,0.119,0.098,-0.280,-4.340,2.660
8877459,-1.007,0.128,0.104,-0.700,-2.800,2.380
8877480,-1.007,0.118,0.090,0.280,-2.100,2.940
8877500,-1.012,0.106,0.091,0.770,-2.310,3.640
8877518,-1.019,0.117,0.083,1.330,-2.450,4.550
8877537,-1.016,0.125,0.077,0.350,-3.290,4.900
8877562,-1.010,0.122,0.081,0.280,-4.340,4.830
8877580,-1.008,0.131,0.089,0.420,-4.830,3.990
8877602,-1.012,0.136,0.094,-0.070,-4.480,3.360
8877625,-1.002,0.136,0.093,-0.210,-3.920,1.890
8877646,-0.996,0.153,0.105,-0.350,-2.940,-0.420
8877665,-1.000,0.151,0.106,-0.840,-1.680,-2.170
8877685,-1.018,0.107,0.097,0.070,-1.330,-1.960
8877705,-1.016,0.117,0.091,1.960,-1.680,-1.190
8877724,-1.009,0.122,0.086,1.470,-1.540,-1.470
8877749,-1.007,0.138,0.109,0.910,-0.420,-2.380
8877768,-1.021,0.123,0.097,0.700,0.280,-2.520
8877791,-1.019,0.113,0.082,0.770,-0.070,-2.100
8877811,-1.011,0.126,0.086,0.980,-0.630,-2.100
8877830,-1.007,0.134,0.086,-0.420,-0.630,-2.800
8877854,-1.013,0.127,0.090,-1.400,-0.700,-2.660
8877872,-1.020,0.108,0.084,-1.680,-1.400,-1.540
8877894,-1.018,0.107,0.079,-1.680,-2.590,-0.280
8877918,-1.016,0.106,0.078,-1.960,-3.710,0.980
8877938,-1.016,0.101,0.084,-0.980,-4.690,1.960
8877955,-1.013,0.106,0.090,-0.420,-4.760,2.730
8877975,-0.999,0.109,0.099,-0.070,-4.130,2.800
8877999,-1.002,0.113,0.100,-0.070,-2.450,1.820
8878019,-1.000,0.126,0.101,0.070,-0.770,1.120
8878039,-1.009,0.114,0.094,1.120,-0.630,0.840
8878059,-1.006,0.113,0.095,1.610,-0.140,0.490
8878079,-1.006,0.111,0.092,1.680,-0.070,0.280
8878099,-1.017,0.102,0.078,1.120,-0.490,0.840
8878123,-1.031,0.107,0.073,1.890,-2.590,2.730
8878140,-1.028,0.114,0.076,1.820,-4.060,4.340
8878161,-1.029,0.121,0.074,1.190,-5.740,5.530
8878180,-1.030,0.118,0.074,0.210,-6.930,6.650
8878200,-1.025,0.134,0.078,-1.540,-8.330,7.070
8878225,-1.013,0.122,0.087,-2.310,-9.380,6.650
8878245,-1.002,0.108,0.101,-2.100,-7.840,5.880
8878264,-1.000,0.137,0.104,-3.220,-5.950,5.110
8878288,-1.006,0.127,0.107,-3.290,-5.110,4.480
8878308,-1.010,0.131,0.102,-2.030,-4.550,4.270
8878331,-1.008,0.129,0.098,-1.680,-4.270,3.990
8878351,-1.002,0.121,0.107,-0.490,-4.690,3.570
8878371,-1.016,0.121,0.109,1.120,-4.900,3.220
8878395,-1.016,0.143,0.103,2.030,-5.040,2.870
8878415,-1.006,0.149,0.090,0.910,-5.810,2.520
8878435,-1.000,0.127,0.084,0.560,-6.720,2.520
8878454,-1.012,0.166,0.103,-0.280,-7.490,2.590
8878479,-1.013,0.131,0.118,-1.050,-7.000,2.170
8878499,-1.005,0.124,0.117,-1.400,-6.580,2.520
8878518,-1.010,0.137,0.115,-1.960,-6.580,2.240
8878537,-1.003,0.154,0.102,-3.640,-6.300,1.960
8878559,-0.990,0.142,0.109,-3.010,-5.390,1.050
8878579,-0.989,0.145,0.122,-1.680,-4.270,0.000
8878603,-0.988,0.131,0.130,-2.870,-2.100,-1.330
8878622,-0.984,0.104,0.142,-0.630,-0.350,-2.030
8878641,-1.000,0.169,0.128,-0.840,1.400,-3.220
8878666,-1.012,0.157,0.115,-0.980,1.960,-3.150
8878686,-1.014,0.120,0.118,0.000,2.590,-2.870
8878705,-1.010,0.111,0.109,2.170,1.890,-2.240
8878725,-1.007,0.135,0.112,2.380,2.030,-1.890
8878749,-1.028,0.133,0.097,0.770,0.350,-0.420
8878769,-1.024,0.109,0.088,-0.070,-0.910,1.120
8878788,-1.003,0.114,0.091,0.420,-2.240,1.890
8878812,-1.008,0.133,0.102,0.210,-3.150,1.680
8878833,-0.999,0.126,0.115,-0.210,-3.010,1.050
8878852,-1.005,0.133,0.099,0.420,-3.710,1.050
8878876,-1.017,0.125,0.104,0.700,-4.410,1.890
8878896,-1.008,0.122,0.110,0.630,-4.270,2.240
8878913,-1.007,0.105,0.110,1.120,-3.920,2.660
8878933,-1.009,0.113,0.113,1.750,-3.780,2.870
8878957,-1.010,0.139,0.120,2.730,-3.430,1.820
8878977,-1.026,0.168,0.109,0.560,-4.480,2.310
8878997,-1.031,0.117,0.095,0.910,-5.600,3.500
8879014,-1.010,0.140,0.107,1.120,-5.950,4.060
8879038,-1.009,0.135,0.106,-0.490,-6.300,4.060
8879058,-1.002,0.118,0.112,-1.050,-6.300,3.990
8879080,-1.004,0.128,0.114,-0.070,-6.650,4.060
8879100,-1.001,0.131,0.123,0.630,-6.230,3.710
8879124,-0.987,0.144,0.138,0.980,-3.710,2.450
8879144,-0.997,0.140,0.134,1.330,-2.380,1.820
8879163,-1.007,0.144,0.120,1.540,-1.890,1.470
8879188,-1.004,0.131,0.116,1.680,-2.030,1.330
8879207,-1.000,0.127,0.122,2.520,-1.680,1.260
8879228,-1.011,0.139,0.123,2.380,-1.470,1.190
8879252,-1.009,0.143,0.110,0.350,-1.470,1.820
8879272,-1.012,0.115,0.103,0.000,-3.080,2.800
8879292,-1.004,0.134,0.116,0.350,-3.150,3.360
8879311,-1.006,0.150,0.123,-0.350,-2.870,3.150
8879335,-1.004,0.124,0.127,-1.540,-1.820,2.730
8879355,-1.005,0.134,0.113,-1.820,-1.750,3.080
8879378,-1.009,0.159,0.112,-2.380,-2.170,3.080
8879399,-1.004,0.142,0.115,-2.800,-2.030,2.940
8879419,-1.000,0.139,0.120,-2.380,-2.030,2.730
8879438,-1.001,0.157,0.124,-2.730,-2.030,2.170
8879463,-1.007,0.142,0.120,-2.800,-2.170,1.750
8879483,-1.004,0.145,0.118,-1.610,-2.380,1.470
8879502,-0.999,0.160,0.112,-2.030,-2.450,0.630
8879523,-0.996,0.146,0.113,-2.870,-2.310,-0.210
8879538,-1.001,0.153,0.120,-1.820,-2.380,-0.700
8879558,-0.995,0.170,0.121,-0.840,-1.470,-1.190
8879583,-0.971,0.169,0.140,-5.600,3.780,-3.850
8879603,-0.978,0.085,0.157,-3.640,7.280,-7.070
8879627,-0.989,0.142,0.147,3.010,11.760,-9.730
8879647,-0.999,0.132,0.128,5.250,13.720,-12.180
8879669,-1.029,0.132,0.099,5.810,14.070,-12.320
8879693,-1.017,0.092,0.084,6.650,12.460,-11.200
8879713,-1.029,0.119,0.075,6.720,11.830,-10.570
8879733,-1.027,0.101,0.071,7.980,9.660,-9.870
8879753,-1.041,0.116,0.041,4.900,6.580,-7.210
8879777,-1.050,0.087,0.006,1.540,-1.750,-1.400
8879797,-1.043,0.080,0.035,0.980,-7.350,2.800
8879817,-1.031,0.102,0.062,-0.840,-9.800,4.340
8879837,-1.016,0.115,0.077,-2.380,-10.780,5.110
8879857,-1.013,0.108,0.081,-3.360,-10.570,5.600
8879876,-1.000,0.103,0.096,-3.360,-9.100,5.740
8879896,-0.991,0.098,0.107,-2.800,-6.860,4.760
8879917,-0.982,0.116,0.126,-0.700,-2.870,2.450
8879937,-0.982,0.131,0.125,-0.280,0.980,-0.560
8879956,-1.008,0.128,0.089,-0.420,3.290,-3.220
8879981,-1.017,0.085,0.087,2.590,2.380,-2.030
8879998,-1.019,0.090,0.079,3.500,1.820,-0.840
8880017,-1.035,0.119,0.064,4.410,-0.560,0.420
8880041,-1.039,0.107,0.056,2.170,-3.850,3.080
8880062,-1.043,0.098,0.068,1.960,-7.630,5.740
8880081,-1.036,0.118,0.065,1.470,-10.430,7.770
8880100,-1.031,0.118,0.067,-0.630,-12.740,8.260
8880125,-1.023,0.124,0.083,-2.240,-14.140,8.330
8880145,-1.012,0.128,0.099,-3.990,-14.210,8.330
8880163,-0.995,0.112,0.103,-4.900,-12.110,7.700
8880187,-1.004,0.123,0.108,-4.970,-12.390,6.790
8880207,-1.015,0.121,0.101,-5.040,-11.900,6.300
8880227,-1.024,0.113,0.100,-3.710,-12.320,6.230
8880251,-1.018,0.121,0.113,-2.310,-13.300,6.930
8880271,-1.004,0.104,0.114,-1.470,-13.580,6.370
8880292,-1.001,0.123,0.121,0.630,-14.210,5.460
8880312,-0.998,0.127,0.138,2.380,-12.880,4.550
8880336,-0.976,0.181,0.154,-17.080,-10.360,3.010
8880355,-0.980,0.164,0.163,-3.080,-7.140,1.750
8880376,-0.969,0.124,0.172,-3.150,-2.940,-0.350
8880396,-0.971,0.150,0.166,-2.450,0.560,-1.890
8880413,-0.973,0.156,0.169,-3.150,4.340,-3.500
8880433,-0.984,0.183,0.166,-4.060,8.540,-5.670
8880452,-1.004,0.146,0.136,-4.620,10.150,-7.490
8880477,-1.008,0.111,0.123,-2.240,10.570,-8.120
8880497,-1.002,0.110,0.118,1.330,10.220,-7.980
8880516,-1.008,0.123,0.123,1.890,10.360,-7.840
8880533,-1.031,0.122,0.112,0.700,9.240,-7.630
8880556,-1.043,0.090,0.081,0.210,6.860,-5.670
8880577,-1.026,0.082,0.088,3.080,3.990,-3.780
8880597,-1.029,0.114,0.084,1.680,2.100,-2.730
8880617,-1.037,0.102,0.087,-0.140,0.630,-1.120
8880637,-1.024,0.086,0.080,-1.190,-1.890,0.700
8880661,-1.014,0.101,0.076,-0.840,-5.740,2.660
8880680,-1.025,0.103,0.085,-0.840,-7.000,3.500
8880697,-1.011,0.119,0.102,-2.240,-6.440,3.780
8880721,-1.008,0.105,0.110,-2.030,-6.230,3.990
8880740,-1.000,0.110,0.111,-1.820,-5.180,3.500
8880759,-1.014,0.105,0.110,-0.700,-5.110,3.500
8880780,-1.017,0.105,0.107,0.140,-4.970,3.850
8880800,-1.006,0.114,0.115,1.050,-4.690,3.990
8880819,-1.007,0.119,0.116,1.120,-3.640,3.710
8880844,-1.004,0.118,0.116,1.260,-2.520,3.290
8880864,-1.004,0.125,0.116,1.120,-1.890,2.520
8880883,-1.001,0.121,0.117,1.050,-1.470,2.030
8880902,-1.004,0.120,0.108,1.190,-1.610,1.820
8880926,-1.013,0.124,0.102,0.840,-2.730,2.170
8880946,-1.028,0.116,0.092,0.210,-4.760,3.430
8880965,-1.028,0.108,0.097,0.350,-7.000,4.480
8880986,-1.027,0.125,0.103,-0.350,-8.540,5.460
8881010,-1.017,0.141,0.107,-0.420,-9.240,5.600
8881030,-1.014,0.134,0.106,-2.590,-9.870,5.460
8881050,-1.002,0.131,0.118,-2.030,-10.220,5.390
8881069,-0.999,0.124,0.127,-2.100,-10.010,5.110
8881090,-0.987,0.121,0.137,-2.520,-8.470,4.130
8881110,-0.978,0.113,0.151,-1.400,-5.880,3.360
8881128,-0.981,0.130,0.155,-0.280,-3.500,2.170
8881152,-0.993,0.141,0.134,-0.490,-0.770,1.190
8881172,-0.988,0.127,0.139,0.490,0.630,0.420
8881192,-0.991,0.131,0.149,1.610,2.310,-0.630
8881210,-1.015,0.127,0.143,2.450,3.570,-0.910
8881231,-1.002,0.122,0.116,1.680,4.760,-0.980
8881255,-1.004,0.112,0.116,2.800,3.640,-0.280
8881275,-1.018,0.133,0.110,2.940,3.290,17.500
8881295,-1.025,0.117,0.111,3.150,2.170,0.630
8881311,-1.019,0.129,0.099,2.310,1.120,1.190
8881330,-1.007,0.134,0.100,0.700,0.210,1.260
8881354,-1.014,0.140,0.106,-0.700,-0.770,1.120
8881375,-1.017,0.128,0.109,-0.630,-1.890,1.120
8881393,-1.014,0.140,0.103,-0.700,-2.800,0.770
8881417,-1.012,0.149,0.106,-2.240,-3.360,0.140
8881436,-1.009,0.131,0.108,-3.290,-3.220,0.210
8881454,-1.011,0.101,0.109,-1.750,-3.850,0.840
8881478,-1.008,0.134,0.115,-1.330,-3.360,0.770
8881498,-1.000,0.139,0.118,-2.170,-2.870,0.210
8881515,-1.004,0.121,0.124,-2.100,-2.310,-0.140
8881539,-1.002,0.115,0.128,0.140,-1.680,-0.350
8881558,-1.009,0.130,0.121,0.420,-0.350,-0.280
8881576,-1.012,0.123,0.106,0.210,-0.490,0.280
8881596,-1.012,0.107,0.107,0.560,-1.260,0.980
8881615,-1.013,0.125,0.109,1.190,-2.100,1.400
8881640,-1.013,0.133,0.108,0.070,-2.800,1.470
8881658,-1.009,0.117,0.103,-0.280,-3.150,1.820
8881680,-1.002,0.129,0.112,-0.140,-3.570,1.610
8881704,-1.006,0.127,0.111,-0.560,-3.640,1.120
8881724,-1.013,0.126,0.108,-0.700,-3.920,1.260
8881744,-1.009,0.126,0.119,-0.420,-3.640,1.540
8881760,-1.006,0.133,0.116,-0.770,-3.150,1.330
8881779,-1.004,0.124,0.118,-0.980,-2.660,1.050
8881799,-1.009,0.105,0.119,0.280,-2.660,1.120
8881819,-1.007,0.121,0.115,0.560,-2.240,1.400
8881844,-1.007,0.134,0.122,-0.070,-1.330,1.120
8881864,-0.995,0.119,0.123,0.070,-0.140,0.280
8881884,-1.001,0.116,0.129,0.770,0.700,-0.210
8881903,-1.009,0.131,0.122,1.260,1.680,-0.350
8881924,-1.015,0.116,0.104,2.450,1.330,-0.210
8881943,-1.024,0.120,0.096,2.450,-0.070,0.420
8881968,-1.009,0.123,0.100,2.450,-1.540,1.400
8881987,-1.014,0.132,0.096,0.770,-2.660,1.330
8882007,-1.021,0.119,0.100,0.910,-3.920,1.610
8882028,-1.017,0.116,0.110,2.170,-4.690,2.100
8882048,-1.009,0.122,0.111,1.750,-4.270,1.820
8882068,-1.007,0.141,0.112,0.000,-4.480,1.540
8882083,-1.012,0.129,0.107,-0.840,-4.480,1.400
8882107,-1.011,0.133,0.116,-1.190,-4.480,1.540
8882128,-1.009,0.120,0.121,-0.770,-4.130,1.190
8882148,-1.015,0.122,0.112,-0.630,-3.850,1.680
8882168,-1.006,0.114,0.114,-0.980,-3.640,1.260
8882192,-1.012,0.119,0.114,-0.350,-3.290,1.470
8882212,-1.017,0.130,0.117,0.070,-3.920,1.330
8882232,-1.000,0.150,0.116,-0.840,-3.430,1.330
8882247,-0.997,0.126,0.110,-2.380,-3.010,0.910
8882267,-1.000,0.117,0.107,-2.030,-3.150,1.050
8882292,-0.998,0.124,0.118,-1.050,-3.360,0.630
8882312,-1.005,0.126,0.122,-1.540,-3.360,0.420
8882332,-1.013,0.127,0.111,-1.050,-3.920,0.630
8882352,-0.999,0.131,0.117,-1.680,-3.360,0.490
8882368,-0.996,0.122,0.112,-2.030,-3.360,0.070
8882388,-0.992,0.127,0.125,-1.820,-2.030,-0.490
8882412,-0.994,0.129,0.128,-2.100,-0.420,-1.190
8882429,-0.993,0.132,0.138,-1.750,1.190,-1.610
8882449,-1.000,0.116,0.121,-2.030,2.520,-2.170
8882473,-1.002,0.108,0.114,-1.470,3.220,-2.310
8882491,-1.004,0.112,0.121,-0.140,3.780,-2.520
8882511,-1.002,0.132,0.123,-0.070,4.900,-3.570
8882535,-1.005,0.135,0.115,-1.330,5.740,-4.410
8882555,-1.014,0.104,0.105,-2.100,5.950,-4.340
8882571,-1.016,0.093,0.098,-0.070,5.950,-3.710
8882595,-0.999,0.092,0.092,2.310,5.040,-2.730
8882611,-1.009,0.108,0.087,1.680,3.430,-2.100
8882631,-1.017,0.097,0.078,0.910,1.680,-1.260
8882654,-1.029,0.098,0.078,1.750,-0.490,0.210
8882675,-1.027,0.095,0.086,2.240,-2.520,1.820
8882695,-1.024,0.091,0.080,1.190,-3.360,3.150
8882714,-1.024,0.098,0.081,0.770,-4.410,4.270
8882736,-1.005,0.113,0.085,0.350,-5.180,4.130
8882760,-1.003,0.110,0.095,-0.350,-5.180,3.290
8882780,-1.002,0.120,0.111,-1.190,-3.780,2.380
8882800,-1.004,0.114,0.112,-0.980,-2.310,1.750
8882820,-1.006,0.112,0.095,-1.120,-1.610,1.260
8882840,-1.016,0.103,0.095,-0.280,-2.240,1.890
8882862,-1.020,0.116,0.093,0.420,-2.660,2.590
8882882,-1.017,0.108,0.093,0.280,-3.220,3.150
8882906,-1.019,0.088,0.082,1.330,-4.690,3.990
8882925,-1.024,0.117,0.088,2.520,-6.650,4.900
8882949,-1.018,0.118,0.096,2.030,-6.930,5.320
8882969,-1.007,0.116,0.104,0.140,-6.580,4.900
8882986,-0.996,0.115,0.102,0.280,-6.300,4.900
8883006,-0.998,0.119,0.102,0.700,-6.440,5.110
8883029,-1.002,0.120,0.105,0.630,-6.510,5.180
8883050,-1.004,0.127,0.111,0.070,-5.880,5.460
8883074,-1.009,0.122,0.109,0.630,-5.180,5.600
8883094,-1.012,0.112,0.110,2.450,-5.320,6.020
8883110,-1.009,0.128,0.113,2.520,-5.110,5.810
8883134,-1.011,0.127,0.120,2.450,-5.040,5.180
8883150,-1.023,0.104,0.110,3.360,-4.690,5.530
8883170,-1.014,0.122,0.110,4.760,-6.370,6.580
8883194,-1.004,0.131,0.111,2.660,-5.250,6.370
8883214,-0.996,0.165,0.118,-1.400,-3.990,6.510
8883230,-1.012,0.153,0.104,-2.170,-4.900,6.580
8883254,-1.024,0.122,0.112,-1.960,-5.740,7.630
8883274,-1.020,0.114,0.114,-1.260,-6.790,8.540
8883290,-1.022,0.138,0.119,-0.630,-7.630,8.610
8883309,-0.992,0.160,0.124,-1.190,-6.230,7.560
8883329,-0.990,0.172,0.124,-3.710,-5.390,7.560
8883354,-1.011,0.134,0.105,-1.470,-6.790,8.330
8883374,-1.020,0.134,0.115,-1.820,-8.540,8.890
8883394,-0.988,0.207,0.116,-6.160,-8.050,9.870
8883414,-0.978,0.218,0.125,-12.740,-7.350,10.640
8883433,-1.006,0.149,0.134,-17.290,-6.580,11.060
8883452,-1.029,0.093,0.128,-11.830,-8.190,11.200
8883477,-1.005,0.136,0.129,-7.490,-11.270,13.090
8883497,-1.008,0.194,0.127,-14.910,-14.000,12.180
8883513,-0.969,0.202,0.148,-19.530,-11.830,12.810
8883537,-0.994,0.187,0.152,-20.300,-12.670,12.460
8883554,-1.010,0.183,0.174,-21.000,-12.740,12.040
8883574,-0.975,0.158,0.167,-19.880,-11.760,12.390
8883598,-0.986,0.192,0.180,-16.310,-9.380,12.810
8883618,-0.973,0.132,0.191,-17.080,-5.180,13.300
8883637,-0.954,0.180,0.185,-13.930,-3.640,14.350
8883656,-0.969,0.213,0.178,-14.350,-1.400,14.000
8883676,-0.989,0.228,0.196,-20.160,0.910,13.370
8883701,-1.009,0.151,0.174,-12.110,1.050,11.760
8883716,-1.016,0.193,0.169,-7.000,-0.280,10.920
8883736,-0.996,0.239,0.170,-3.710,0.210,9.240
8883761,-0.995,0.210,0.175,0.630,0.000,6.580
8883779,-0.994,0.247,0.185,5.950,-2.030,4.830
8883798,-1.016,0.239,0.158,5.530,-2.450,2.240
8883823,-0.975,0.152,0.181,3.710,-2.030,-0.350
8883839,-0.979,0.190,0.169,10.080,-3.500,-0.070
8883863,-0.961,0.271,0.188,10.500,-1.610,-3.850
8883882,-0.970,0.280,0.181,7.700,0.840,-8.260
8883903,-0.965,0.267,0.169,5.810,3.780,-12.390
8883923,-0.975,0.247,0.159,7.000,3.080,-15.960
8883944,-0.978,0.253,0.177,7.210,3.780,-19.390
8883958,-0.962,0.224,0.174,6.160,7.140,-20.650
8883983,-0.972,0.185,0.170,8.820,9.450,-24.500
8884002,-0.935,0.209,0.187,10.500,12.040,-28.490
8884018,-0.941,0.157,0.210,13.020,20.510,-34.510
8884043,-0.915,0.193,0.265,21.070,34.090,-38.780
8884062,-0.976,0.147,0.216,24.080,42.700,-42.910
8884087,-1.060,0.152,0.235,29.120,52.150,-45.710
8884111,-1.071,0.016,0.225,31.010,67.410,-34.370
8884131,-1.182,0.108,0.315,49.280,94.710,-29.330
8884151,-1.431,0.081,0.483,40.110,111.230,-14.490
8884170,-1.930,-0.041,0.669,-19.880,103.670,-13.300
8884189,-1.667,-0.105,0.506,83.930,45.430,-2.730
8884214,-0.996,0.187,-0.072,-14.210,72.030,-15.470
8884233,-1.233,-0.170,-0.563,-68.250,1.050,-27.790
8884252,-0.792,-0.965,-0.528,-46.060,31.220,-58.450
8884272,-0.807,0.035,-0.343,-29.680,-17.500,-60.410
8884296,-0.245,0.508,-0.330,-22.330,-25.900,-20.860
8884316,-0.519,-0.454,-0.112,-48.370,-48.300,-26.040
8884334,-0.562,0.012,0.088,-11.620,-96.390,-19.320
8884358,-0.586,0.180,-0.061,27.230,-117.950,-23.940
8884377,-0.565,0.298,-0.356,34.650,-115.220,-5.740
8884398,-0.779,0.272,-0.234,21.280,-119.000,10.360
8884417,-1.045,-0.171,-0.451,6.160,-130.690,9.590
8884441,-0.966,0.115,-0.307,4.900,-97.090,27.930
8884461,-1.807,-2.271,-1.038,54.740,-126.000,2.590
8884480,-2.489,0.327,0.870,69.720,97.930,23.310
8884500,-0.115,1.575,0.511,-142.940,18.130,14.630
8884525,-1.343,-0.381,0.175,-49.280,-0.980,33.740
8884545,-1.521,-2.304,-0.424,-117.390,11.900,-8.820
8884564,-0.546,0.895,0.081,27.160,50.260,15.330
8884587,-1.043,0.812,0.202,61.880,59.850,10.220
8884607,-1.120,0.159,0.244,40.320,52.360,4.690
8884631,-0.971,-0.170,0.086,33.320,64.610,3.220
8884649,-0.956,0.071,-0.046,31.010,64.120,-1.470
8884669,-1.058,-0.020,-0.041,18.200,58.170,-5.390
8884694,-0.949,0.179,-0.105,25.270,42.700,-6.300
8884711,-1.054,0.050,-0.125,4.270,47.180,-13.020
8884731,-0.958,0.056,0.269,7.210,53.620,-21.350
8884751,-1.091,0.078,-0.115,-4.410,40.600,-23.450
8884774,-1.001,-0.142,-0.136,-16.800,49.630,-22.610
8884799,-0.973,-0.157,-0.084,-3.780,49.700,-15.470
8884813,-1.043,-0.136,-0.025,-2.170,33.040,-17.080
8884837,-0.925,0.162,-0.274,-14.420,44.240,-17.640
8884858,-0.924,0.175,-0.147,-15.960,47.600,-20.790
8884878,-1.038,-0.083,-0.171,-19.530,55.510,-20.090
8884897,-1.152,-0.194,-0.119,-0.140,44.800,-7.140
8884922,-0.927,-0.129,-0.176,-6.090,45.780,-5.250
8884941,-0.953,-0.085,-0.135,-8.190,53.340,-5.040
8884957,-1.100,-0.115,-0.268,-0.630,45.780,-1.120
8884982,-0.927,-0.045,-0.286,-11.130,44.520,3.990
8885002,-0.985,0.028,-0.232,-7.630,38.710,7.630
8885022,-1.016,-0.098,-0.194,-10.640,46.760,12.040
8885042,-0.937,-0.084,-0.309,-11.900,48.300,15.190
8885060,-0.956,-0.037,-0.296,-4.620,45.010,15.050
8885084,-0.979,-0.096,-0.344,5.810,32.200,17.570
8885101,-0.985,-0.053,-0.335,2.590,23.520,14.140
8885121,-0.954,0.017,-0.346,-2.940,23.450,6.650
8885145,-0.934,-0.069,-0.402,0.910,1.120,3.080
8885165,-0.973,-0.020,-0.390,0.770,11.480,-2.660
8885184,-0.940,-0.020,-0.401,0.770,9.660,-5.250
8885200,-1.012,-0.089,-0.386,-0.630,6.230,-6.230
8885225,-0.988,-0.029,-0.348,2.170,-2.450,-6.860
8885241,-0.919,-0.139,-0.427,4.410,0.000,-4.970
8885261,-1.000,-0.083,-0.379,8.540,-3.290,-1.190
8885285,-1.019,-0.087,-0.382,7.560,-7.490,3.640
8885305,-0.953,-0.086,-0.386,4.830,-11.550,3.780
8885321,-1.003,-0.013,-0.382,1.190,-13.510,2.520
8885341,-0.997,-0.068,-0.405,8.190,-17.430,1.050
8885365,-0.968,-0.051,-0.309,11.130,-16.310,1.400
8885385,-0.936,-0.015,-0.351,1.540,-11.060,-3.430
8885405,-0.998,-0.104,-0.348,13.370,-21.140,-6.440
8885424,-0.962,-0.086,-0.309,11.690,-21.910,-8.820
8885448,-0.968,-0.116,-0.334,8.400,-23.730,-12.740
8885467,-0.921,-0.056,-0.335,7.630,-23.240,-15.540
8885485,-0.944,-0.052,-0.339,-1.470,-22.470,-19.740
8885509,-0.924,-0.021,-0.338,-24.570,-6.650,-29.400
8885528,-1.017,-0.099,-0.284,13.860,-16.450,-21.700
8885549,-0.977,-0.117,-0.300,20.790,-38.570,-10.990
8885566,-0.928,-0.113,-0.293,12.670,-38.920,-9.030
8885585,-0.953,-0.101,-0.309,0.840,-34.930,-7.000
8885610,-0.934,-0.081,-0.274,-23.870,-16.520,-9.660
8885628,-1.036,-0.153,-0.302,2.520,-40.180,4.550
8885651,-1.037,-0.152,-0.218,16.870,-45.990,15.540
8885672,-0.986,-0.166,-0.255,4.830,-43.890,16.310
8885690,-0.969,-0.126,-0.247,-7.070,-36.960,14.000
8885713,-1.021,-0.091,-0.209,-12.320,-37.450,12.110
8885733,-1.090,0.102,-0.179,-10.920,-50.540,15.050
8885752,-1.040,-0.089,-0.185,-0.980,-48.650,12.740
8885776,-0.979,-0.117,-0.208,5.390,-54.810,15.960
8885791,-1.106,0.045,-0.198,9.800,-53.130,18.340
8885814,-0.965,-0.063,-0.120,2.030,-65.100,14.000
8885838,-1.041,-0.006,-0.074,-8.050,-63.910,14.350
8885857,-1.051,-0.005,-0.096,-6.300,-66.150,11.830
8885876,-0.975,0.020,-0.052,-13.440,-59.710,13.510
8885896,-1.020,0.068,-0.007,-28.630,-57.960,15.190
8885920,-0.989,-0.060,-0.024,-27.370,-57.470,21.140
8885940,-1.000,-0.037,-0.030,-29.960,-57.260,24.290
8885959,-0.975,-0.067,0.006,-34.440,-54.320,27.020
8885980,-0.962,-0.047,0.084,-20.300,-58.800,29.260
8886000,-1.046,0.033,0.061,-19.390,-54.180,26.740
8886018,-1.008,-0.007,0.138,-26.180,-50.820,20.930
8886042,-0.991,-0.083,0.115,-18.900,-51.940,14.840
8886062,-0.997,0.001,0.162,-4.970,-56.490,14.070
8886082,-0.935,0.057,0.139,-9.100,-49.490,11.480
8886102,-0.971,-0.100,0.236,-3.500,-49.140,8.540
8886122,-0.979,0.033,0.234,-5.950,-43.750,7.700
8886140,-0.907,0.100,0.225,-19.180,-35.560,9.310
8886160,-0.992,-0.088,0.263,-16.030,-31.570,8.260
8886184,-0.973,-0.064,0.251,-5.250,-26.950,10.430
8886203,-0.981,-0.065,0.262,10.640,-26.670,11.200
8886224,-0.984,0.066,0.276,11.830,-21.980,10.150
8886242,-0.994,0.054,0.254,5.740,-18.760,8.610
8886262,-0.955,0.045,0.288,10.080,-14.700,5.950
8886282,-0.969,0.137,0.227,0.140,-14.420,6.930
8886305,-1.008,0.011,0.280,-1.050,-14.770,3.780
8886326,-0.953,0.056,0.285,3.220,-11.760,1.260
8886345,-0.936,0.084,0.305,2.940,-7.280,-1.470
8886368,-0.969,0.024,0.296,0.910,-3.850,-3.990
8886388,-0.977,0.081,0.286,2.520,-2.030,-4.970
8886407,-0.999,0.028,0.276,3.500,-0.630,-5.040
8886432,-0.981,0.007,0.264,4.550,0.000,-4.130
8886452,-0.979,0.003,0.259,3.640,0.350,-3.010
8886476,-0.977,0.000,0.276,2.450,0.140,-2.310
8886496,-0.996,0.062,0.251,0.630,0.490,-0.770
8886514,-1.026,0.017,0.245,0.070,-2.100,0.350
8886534,-1.011,-0.005,0.244,1.540,-2.660,1.680
8886555,-1.000,0.010,0.254,4.830,-5.460,-0.070
8886574,-0.943,0.030,0.285,12.600,-3.710,-2.310
8886599,-0.935,0.054,0.330,19.250,3.850,-9.380
8886617,-0.967,0.080,0.326,11.900,12.320,-10.430
8886641,-0.979,0.077,0.305,6.300,19.950,-13.090
8886661,-1.000,0.037,0.284,13.230,14.560,-9.870
8886677,-0.895,-0.001,0.269,12.530,26.740,-11.410
8886696,-1.014,-0.000,0.228,2.520,28.140,-8.330
8886721,-1.107,-0.088,0.203,10.010,15.330,3.010
8886738,-1.007,-0.184,0.110,22.960,6.020,13.790
8886757,-0.973,0.020,0.149,25.480,5.180,11.900
8886781,-0.911,0.129,0.232,-6.230,13.790,6.510
8886801,-0.989,0.164,0.313,-25.760,25.340,5.600
8886825,-1.083,0.041,0.163,-46.550,39.970,2.940
8886845,-0.935,0.005,0.182,-29.190,38.430,8.680
8886865,-1.024,-0.059,0.220,-16.730,45.640,4.830
8886884,-1.019,-0.030,0.137,1.260,43.960,1.540
8886904,-0.934,-0.078,0.159,23.590,43.890,-3.150
8886929,-0.941,0.213,0.101,45.290,37.940,-8.260
8886948,-1.058,0.087,0.131,33.320,38.290,-9.800
8886965,-1.073,-0.080,0.102,39.830,36.890,-12.740
8886985,-0.927,0.259,0.028,18.130,46.480,-9.520
8887007,-1.113,-0.242,-0.147,16.800,35.210,-14.630
8887025,-1.023,0.148,-0.032,14.910,40.390,-11.550
8887049,-1.011,-0.013,0.097,2.800,46.200,-17.990
8887069,-1.020,0.166,0.031,0.840,46.410,-18.410
8887093,-0.937,0.036,0.020,-17.990,56.700,-16.310
8887110,-0.976,-0.291,-0.027,-11.690,53.270,-12.670
8887132,-1.037,-0.069,-0.110,-3.570,49.910,-10.430
8887154,-0.985,-0.011,-0.154,-6.020,46.760,-16.590
8887178,-1.079,0.098,-0.067,-28.560,47.810,-18.830
8887198,-0.982,-0.039,-0.203,-23.730,56.700,-17.500
8887218,-1.099,-0.312,-0.291,-9.030,54.670,-16.170
8887238,-1.083,-0.154,-0.202,-6.650,55.440,-17.010
8887257,-0.963,-0.026,-0.238,0.630,37.380,-15.260
8887277,-1.052,-0.066,-0.209,5.810,35.700,-11.900
8887296,-0.927,0.077,-0.289,-0.700,45.640,-8.890
8887321,-0.964,-0.030,-0.265,-8.190,44.450,-4.620
8887338,-1.037,-0.204,-0.225,-7.350,33.670,-2.800
8887357,-1.031,-0.241,-0.264,-0.630,29.610,4.690
8887377,-0.935,-0.033,-0.363,-3.710,35.840,7.770
8887397,-0.966,-0.138,-0.226,-16.030,38.990,10.500
8887421,-0.961,-0.086,-0.335,-7.140,35.420,7.000
8887441,-0.978,0.016,-0.365,-4.060,28.700,2.240
8887464,-0.951,-0.011,-0.368,-11.970,30.240,-9.310
8887485,-0.987,-0.107,-0.312,-10.710,26.880,-14.070
8887503,-0.996,-0.013,-0.344,-1.610,23.800,-13.930
8887526,-0.943,-0.132,-0.404,3.290,17.010,-10.780
8887545,-0.985,-0.095,-0.404,5.810,11.130,-6.300
8887564,-0.995,-0.201,-0.388,3.570,8.330,-0.630
8887584,-0.979,-0.133,-0.394,2.170,0.140,2.800
8887609,-0.984,-0.142,-0.422,-1.470,-6.930,8.330
8887628,-0.996,-0.136,-0.433,1.540,-16.310,8.400
8887649,-0.991,-0.086,-0.385,3.500,-23.660,7.560
8887666,-0.945,-0.098,-0.393,2.380,-23.100,6.650
8887688,-0.919,-0.059,-0.384,-0.070,-21.700,1.470
8887712,-1.035,-0.043,-0.308,4.690,-31.990,-6.090
8887731,-0.940,-0.072,-0.315,11.410,-32.620,-10.010
8887751,-0.940,-0.019,-0.320,4.480,-30.170,-11.130
8887772,-0.953,-0.141,-0.304,-0.420,-22.610,-12.250
8887792,-0.966,-0.121,-0.292,9.520,-25.550,-8.960
8887812,-0.960,-0.188,-0.270,5.250,-20.020,-9.030
8887836,-0.958,-0.164,-0.279,3.990,-29.890,-9.030
8887855,-0.959,-0.062,-0.294,-3.850,-24.360,-10.640
8887876,-1.043,-0.048,-0.286,12.320,-50.260,-2.800
8887896,-0.976,-0.124,-0.288,10.780,-42.490,2.030
8887912,-0.983,-0.147,-0.303,2.590,-42.140,4.830
8887936,-0.941,-0.143,-0.263,-4.480,-32.760,4.550
8887956,-1.022,-0.036,-0.196,-9.310,-34.230,5.320
8887976,-1.106,-0.171,-0.114,17.010,-51.590,23.940
8887996,-0.970,-0.131,-0.188,7.000,-47.250,26.600
8888016,-1.001,-0.128,-0.196,0.630,-44.870,23.170
8888034,-1.061,-0.030,-0.249,-2.100,-46.200,24.080
8888054,-0.996,-0.156,-0.186,-9.450,-49.420,25.830
8888074,-0.943,-0.132,-0.143,-5.320,-50.820,24.780
8888098,-1.063,-0.020,-0.102,8.190,-57.190,33.530
8888116,-0.977,0.007,-0.057,11.340,-50.610,29.330
8888136,-1.076,0.019,-0.120,-1.190,-51.940,26.460
8888156,-1.030,-0.101,-0.114,2.590,-54.810,24.430
8888175,-0.926,0.012,-0.023,2.660,-59.080,27.860
8888195,-1.045,-0.003,0.025,-5.600,-51.730,27.860
8888219,-1.104,-0.092,-0.034,0.630,-51.170,28.210
8888236,-1.023,-0.167,-0.057,10.500,-51.800,28.630
8888260,-0.902,0.084,0.002,25.620,-52.850,26.390
8888280,-0.908,0.098,0.059,6.230,-38.500,20.580
8888298,-0.926,-0.153,-0.020,-10.640,-62.930,21.770
8888319,-1.101,-0.050,0.121,19.600,-69.370,14.630
8888343,-0.776,0.013,0.185,24.150,-62.790,7.280
8888363,-0.919,0.037,0.157,32.970,-58.940,-0.560
8888381,-1.012,0.232,0.204,17.220,-36.750,0.700
8888403,-0.911,0.190,0.203,7.980,-51.800,-0.210
8888423,-0.892,-0.073,0.194,20.930,-47.670,-3.430
8888443,-1.021,0.097,0.161,-21.490,-44.940,3.640
8888462,-1.009,-0.107,0.224,0.210,-45.920,1.960
8888482,-0.967,0.026,0.285,-10.290,-41.020,1.540
8888502,-0.985,-0.085,0.293,15.330,-43.820,12.180
8888522,-0.972,0.044,0.314,19.390,-44.450,13.230
8888546,-0.949,0.192,0.329,24.360,-38.430,13.440
8888565,-0.933,0.175,0.338,9.450,-31.780,12.880
8888584,-0.991,0.108,0.352,3.780,-27.650,9.030
8888608,-0.909,0.117,0.392,11.130,-25.970,4.270
8888629,-0.852,0.136,0.384,14.770,-13.230,-1.610
8888649,-0.942,0.168,0.377,13.510,-10.430,-6.230
8888669,-0.952,0.062,0.360,20.090,-7.420,-10.010
8888688,-1.055,0.000,0.339,33.250,-13.090,-9.170
8888707,-0.940,0.018,0.311,36.750,-9.660,-12.460
8888729,-0.968,0.015,0.327,38.430,-10.080,-10.990
8888753,-0.985,0.053,0.314,32.060,-10.080,-7.910
8888769,-0.941,0.209,0.344,15.820,-8.540,-4.270
8888788,-0.937,0.134,0.361,0.070,-4.830,-1.400
8888809,-0.997,0.031,0.341,-9.450,-3.010,1.190
8888829,-1.001,0.043,0.352,-1.330,-5.180,3.780
8888853,-0.944,0.157,0.354,-0.840,-4.550,5.530
8888872,-0.935,0.169,0.366,-7.630,0.210,5.180
8888894,-0.929,0.096,0.378,-11.690,3.080,2.800
8888913,-0.960,0.101,0.368,-12.810,6.090,1.750
8888937,-0.980,0.054,0.344,-8.680,5.740,0.280
8888961,-0.953,0.038,0.330,-1.680,5.670,-1.400
8888980,-0.957,0.069,0.334,-1.960,5.460,-1.470
8889001,-0.979,0.084,0.323,-4.480,4.620,-0.980
8889019,-0.981,0.069,0.327,-9.660,6.160,0.210
8889040,-0.982,0.035,0.326,-10.780,5.810,0.980
8889059,-0.988,0.018,0.321,-10.430,2.800,1.190
8889084,-0.953,0.071,0.312,-11.060,3.570,0.070
8889102,-0.951,0.102,0.325,-7.910,-1.400,1.330
8889121,-0.974,0.066,0.332,-6.860,-1.680,1.750
8889146,-0.990,0.014,0.327,-3.360,-2.590,1.260
8889166,-0.979,0.025,0.333,5.880,-2.730,0.490
8889185,-0.954,0.112,0.341,6.370,0.700,0.070
8889205,-0.962,0.103,0.334,2.170,3.290,0.210
8889225,-0.984,0.037,0.327,-0.490,3.640,-0.140
8889249,-0.956,0.069,0.330,1.820,5.180,0.070
8889269,-0.980,0.059,0.322,-1.680,6.090,-0.980
8889289,-0.970,0.028,0.315,2.800,4.620,-2.310
8889308,-0.967,0.097,0.318,2.240,5.670,-2.170
8889329,-1.002,0.053,0.301,-0.280,4.970,-2.800
8889352,-0.967,0.090,0.346,-0.350,5.390,-4.270
8889371,-0.923,0.069,0.319,-2.590,9.240,-4.690
8889396,-0.972,0.079,0.317,-4.760,12.810,-4.270
8889415,-0.979,0.085,0.300,-9.310,14.770,-4.480
8889434,-0.959,0.185,0.304,-18.970,18.200,-2.520
8889451,-0.935,0.201,0.337,-29.050,25.550,-2.450
8889472,-0.905,0.123,0.345,-46.900,37.730,-2.380
8889496,-0.956,0.014,0.345,-49.770,48.230,2.870
8889512,-0.997,-0.173,0.230,-47.740,48.230,7.910
8889534,-1.037,0.062,0.167,-13.650,45.290,8.610
8889554,-1.002,0.147,0.188,-46.410,41.790,10.850
8889573,-0.958,-0.119,0.142,-52.290,39.760,7.070
8889598,-0.989,0.018,0.200,-30.380,42.210,3.500
8889617,-1.032,0.274,0.268,-21.000,51.450,0.070
8889637,-1.047,0.148,0.211,-46.620,46.060,4.970
8889656,-0.974,-0.426,0.168,3.850,57.050,-6.230
8889678,-0.992,-0.158,0.191,30.590,59.150,-7.210
8889698,-1.019,0.142,0.042,42.420,46.970,-5.600
8889717,-0.751,0.159,0.038,25.130,50.540,-16.310
8889735,-1.137,-0.197,-0.024,24.430,59.010,-27.720
8889759,-1.032,0.088,-0.054,13.020,65.520,-25.270
8889777,-1.115,0.065,-0.050,12.740,58.030,-29.190
8889799,-0.958,0.143,-0.046,8.960,68.670,-36.540
8889819,-0.937,0.237,-0.104,-8.540,68.320,-37.240
8889843,-1.055,-0.095,-0.070,-17.850,61.250,-25.480
8889863,-1.071,-0.380,-0.133,10.150,53.620,-25.200
8889881,-0.972,-0.002,-0.153,2.940,54.460,-23.590
8889902,-1.134,0.085,-0.139,-3.990,47.810,-21.630
8889926,-0.939,0.004,-0.200,-27.090,49.350,-17.920
8889946,-1.001,-0.085,-0.193,-15.540,29.890,-14.420
8889966,-1.028,-0.244,-0.133,-5.250,43.190,-10.990
8889985,-0.899,-0.122,-0.165,-5.320,40.390,-12.250
8890002,-1.013,-0.121,-0.316,-6.650,46.620,-16.520
8890022,-0.976,0.080,-0.325,-13.440,41.230,-19.460
8890046,-0.978,-0.025,-0.344,-20.720,41.790,-16.940
8890066,-1.004,-0.080,-0.223,-18.760,53.550,-6.300
8890086,-1.113,-0.367,-0.215,-17.500,44.730,7.490
8890106,-0.832,-0.195,-0.323,-11.410,40.530,10.850
8890130,-0.902,-0.063,-0.374,-20.370,45.570,10.010
8890149,-0.991,-0.088,-0.288,-17.220,46.970,11.830
8890171,-0.924,-0.150,-0.325,-11.690,51.450,7.280
8890192,-0.972,0.081,-0.398,-6.790,49.210,-1.470
8890216,-0.973,-0.049,-0.486,-5.600,46.480,-14.420
8890236,-1.014,0.009,-0.492,-0.630,29.890,-20.300
8890256,-0.992,-0.134,-0.499,8.190,17.430,-24.710
8890276,-0.854,-0.080,-0.454,5.950,12.880,-28.350
8890295,-0.854,-0.159,-0.462,-4.410,13.440,-28.630
8890315,-0.968,-0.192,-0.462,-5.880,8.610,-23.170
8890334,-0.936,-0.207,-0.445,-3.710,3.570,-11.270
8890354,-0.873,-0.294,-0.477,-1.750,0.420,-0.070
8890378,-0.961,-0.212,-0.464,0.700,-8.120,13.860
8890402,-0.923,-0.165,-0.471,0.000,-14.420,21.000
8890422,-0.920,-0.132,-0.494,-4.130,-16.590,17.780
8890442,-0.919,-0.092,-0.469,-5.880,-15.190,11.410
8890462,-0.906,-0.063,-0.444,-5.530,-15.400,5.530
8890481,-0.898,-0.129,-0.454,-1.470,-18.130,3.220
8890500,-0.953,-0.174,-0.440,10.010,-29.610,4.200
8890524,-0.934,-0.137,-0.406,10.080,-30.940,5.110
8890543,-0.905,-0.138,-0.407,10.920,-29.400,4.620
8890567,-0.953,-0.116,-0.401,15.820,-29.470,3.150
8890587,-0.919,-0.062,-0.400,16.030,-28.700,-1.190
8890607,-0.950,-0.096,-0.379,13.650,-29.610,-4.340
8890623,-0.944,-0.139,-0.360,15.890,-31.780,-5.040
8890643,-0.963,-0.108,-0.362,0.700,-34.300,-5.250
8890662,-0.937,-0.113,-0.333,14.210,-37.450,-5.880
8890683,-0.981,-0.094,-0.314,14.350,-39.900,-7.980
8890704,-0.966,-0.040,-0.318,6.650,-38.920,-7.910
8890724,-0.921,-0.072,-0.333,6.090,-39.340,-2.100
8890746,-1.019,-0.112,-0.292,5.530,-45.430,2.590
8890768,-0.982,-0.160,-0.267,10.290,-48.510,7.560
8890792,-0.956,-0.182,-0.276,6.440,-46.340,17.570
8890811,-0.975,-0.152,-0.260,1.540,-48.160,22.960
8890831,-0.994,-0.144,-0.240,0.840,-47.530,26.250
8890855,-0.943,-0.087,-0.225,1.960,-49.140,28.280
8890875,-1.040,-0.056,-0.193,0.490,-49.700,27.370
8890894,-1.025,-0.112,-0.222,1.750,-55.300,28.980
8890919,-0.987,-0.047,-0.163,3.780,-53.830,24.500
8890938,-1.050,-0.025,-0.180,2.170,-59.780,25.550
8890958,-1.057,-0.099,-0.210,4.200,-67.620,27.510
8890979,-1.034,-0.037,-0.078,-4.060,-61.740,30.800
8890998,-1.007,-0.000,-0.117,-8.750,-65.660,29.400
8891022,-1.059,-0.046,-0.077,-12.880,-66.710,29.890
8891046,-0.996,-0.138,-0.032,-7.560,-65.310,20.650
8891066,-0.915,-0.139,-0.032,18.690,-57.400,15.610
8891084,-1.017,0.021,0.039,12.460,-69.160,14.770
8891103,-0.997,0.034,0.091,10.080,-67.340,16.940
8891126,-0.956,-0.020,0.072,8.820,-66.780,9.450
8891144,-0.912,0.087,0.180,7.140,-60.340,8.820
8891168,-0.982,0.029,0.110,0.910,-56.980,3.360
8891187,-0.962,0.042,0.158,-6.930,-54.950,3.290
8891206,-0.990,-0.233,0.140,-3.220,-54.950,8.400
8891230,-1.035,-0.036,0.199,20.650,-58.660,10.010
8891250,-1.023,-0.049,0.146,11.900,-55.790,13.510
8891269,-0.974,-0.058,0.282,9.940,-48.230,18.620
8891294,-0.982,-0.050,0.288,23.310,-39.550,18.130
8891312,-0.965,0.173,0.325,10.430,-40.530,23.100
8891334,-0.953,-0.115,0.287,3.430,-28.070,19.110
8891354,-1.011,0.049,0.366,1.330,-35.070,22.680
8891371,-0.896,0.117,0.374,5.950,-32.200,18.270
8891393,-0.822,0.229,0.397,4.060,-12.320,5.740
8891415,-0.882,0.350,0.382,-12.740,2.590,-1.540
8891436,-0.974,0.130,0.286,-19.040,9.030,-8.680
8891457,-1.057,0.005,0.285,5.810,6.790,-11.410
8891477,-0.998,-0.053,0.267,25.970,3.430,-10.150
8891501,-0.991,-0.060,0.275,34.860,-1.890,-8.820
8891521,-0.955,-0.012,0.268,21.210,-0.140,-7.980
8891540,-0.995,0.056,0.291,7.420,-0.350,-4.340
8891561,-1.029,0.005,0.240,-1.190,-1.890,-1.120
8891578,-0.991,-0.122,0.273,-1.470,-2.870,0.420
8891598,-0.993,0.034,0.288,-0.770,-3.710,1.750
8891622,-1.022,0.041,0.274,-2.730,-5.810,3.710
8891641,-0.993,0.040,0.284,-4.760,-6.160,4.970
8891661,-0.995,0.022,0.289,-4.130,-6.230,6.090
8891682,-1.007,0.024,0.273,-0.910,-8.400,6.650
8891702,-0.991,0.019,0.281,4.410,-10.220,5.530
8891722,-0.975,0.014,0.312,12.950,-9.450,3.430
8891737,-0.959,0.086,0.328,13.300,-6.090,2.520
8891762,-0.961,0.098,0.313,10.360,-2.380,0.280
8891781,-0.954,0.091,0.328,6.020,0.210,-2.240
8891797,-0.958,0.030,0.303,7.210,0.700,-6.020
8891822,-0.971,0.112,0.307,11.130,3.430,-8.260
8891842,-0.970,0.110,0.314,5.040,5.810,-8.820
8891860,-0.972,0.055,0.294,7.070,6.930,-8.610
8891884,-0.957,0.081,0.324,2.660,10.850,-7.490
8891904,-0.982,0.073,0.296,-3.010,14.700,-6.930
8891924,-0.969,0.074,0.290,-6.440,18.690,-6.720
8891941,-0.958,0.084,0.316,-5.670,20.720,-6.650
8891965,-0.953,0.029,0.308,-7.490,24.290,-7.140
8891984,-0.993,0.048,0.247,-4.410,27.370,-5.950
8892005,-1.011,0.112,0.162,-8.330,30.030,-2.170
8892025,-0.958,0.073,0.178,-18.060,42.210,0.140
8892045,-1.030,-0.016,0.163,-38.780,43.120,0.280
8892065,-1.021,-0.057,0.027,-59.010,44.310,1.960
8892089,-1.056,-0.100,0.257,-42.000,47.460,3.920
8892109,-0.860,0.045,0.463,-55.160,48.930,3.570
8892129,-0.869,0.042,0.323,-47.670,52.710,-2.870
8892149,-0.999,-0.328,0.165,-4.200,48.020,-4.900
8892172,-0.960,-0.203,0.069,49.350,50.190,-8.400
8892196,-0.989,0.346,0.016,58.940,50.890,-8.470
8892216,-0.968,0.119,-0.143,17.990,55.930,-13.650
8892237,-1.121,-0.197,-0.102,18.060,49.070,-19.530
8892261,-0.900,0.076,-0.040,23.380,57.960,-25.900
8892280,-1.053,-0.142,-0.198,0.770,52.290,-27.510
8892301,-0.911,-0.193,-0.057,3.010,55.510,-26.110
8892320,-1.019,-0.028,-0.009,11.060,55.230,-21.490
8892340,-0.912,0.086,0.065,3.990,61.810,-14.490
8892361,-1.230,-0.156,-0.149,-4.620,54.810,-13.090
8892381,-0.834,0.108,-0.087,-21.560,75.250,-18.550
8892403,-1.056,-0.045,-0.231,-44.030,59.360,-13.790
8892423,-1.106,-0.047,0.042,-24.780,42.840,-1.400
8892447,-1.105,-0.118,-0.316,-5.040,46.760,0.350
8892467,-0.944,-0.067,-0.330,-8.820,40.950,-2.240
8892485,-0.895,-0.018,-0.317,-3.150,38.290,-8.050
8892504,-1.033,-0.028,-0.169,-3.570,27.580,-7.210
8892529,-1.034,-0.170,-0.343,8.890,33.880,0.980
8892549,-0.897,0.042,-0.266,-8.120,41.370,-2.520
8892569,-0.977,-0.239,-0.233,-11.410,41.510,8.890
8892593,-1.011,-0.287,-0.244,-3.920,33.950,15.540
8892608,-1.026,-0.176,-0.353,5.740,27.230,20.650
8892633,-0.970,-0.036,-0.306,4.550,24.570,20.160
8892653,-0.887,-0.147,-0.420,-4.410,27.510,18.900
8892673,-0.977,-0.046,-0.324,-2.310,24.570,13.510
8892693,-0.977,0.032,-0.318,-3.570,21.210,7.770
8892712,-0.961,-0.009,-0.341,3.920,16.730,2.800
8892733,-0.929,0.023,-0.384,-1.260,19.320,0.630
8892753,-0.938,-0.116,-0.437,4.410,10.920,-3.220
8892773,-0.982,0.000,-0.387,11.900,6.230,-9.380
8892793,-0.924,0.074,-0.415,3.920,0.630,-15.610
8892812,-0.952,0.026,-0.322,-1.820,2.030,-23.310
8892829,-0.950,-0.031,-0.307,-0.210,5.320,-25.550
8892851,-0.917,-0.083,-0.340,2.870,8.120,-24.360
8892870,-0.945,-0.090,-0.358,3.290,12.110,-23.800
8892889,-0.997,-0.074,-0.386,2.310,11.340,-20.230
8892912,-0.969,-0.141,-0.381,9.800,6.090,-13.790
8892934,-0.964,-0.234,-0.468,5.180,4.130,-11.200
8892954,-1.007,-0.120,-0.445,6.300,-4.620,-7.630
8892974,-0.995,-0.121,-0.422,5.250,-14.000,-4.480
8892993,-0.881,-0.189,-0.439,2.940,-17.780,-2.240
8893012,-0.905,-0.172,-0.400,-0.770,-17.920,-2.240
8893037,-0.991,-0.094,-0.372,-6.650,-18.830,-0.770
8893056,-1.010,-0.122,-0.372,2.380,-27.090,2.170
8893076,-0.922,-0.165,-0.362,4.760,-27.510,3.500
8893098,-0.982,-0.151,-0.350,2.030,-28.490,5.810
8893122,-0.976,-0.188,-0.348,2.100,-28.490,11.200
8893141,-0.949,-0.272,-0.342,14.630,-35.910,13.230
8893162,-0.933,-0.135,-0.325,10.990,-31.080,12.110
8893181,-0.964,0.010,-0.249,8.820,-29.750,6.790
8893202,-0.971,-0.279,-0.298,21.140,-37.660,5.180
8893217,-0.954,-0.155,-0.305,22.190,-45.430,1.540
8893237,-0.970,-0.082,-0.285,10.850,-40.320,-4.340
8893262,-0.986,0.044,-0.310,16.870,-51.800,1.050
8893281,-0.952,-0.100,-0.247,18.410,-49.000,5.180
8893302,-0.971,-0.163,-0.207,-2.450,-43.190,11.690
8893322,-0.990,-0.079,-0.185,4.410,-45.080,16.030
8893339,-0.998,-0.125,-0.193,20.300,-43.260,24.290
8893363,-0.980,-0.069,-0.198,16.450,-51.520,30.450
8893383,-1.043,-0.002,-0.207,-10.430,-48.510,28.140
8893403,-1.021,-0.092,-0.166,-16.100,-50.890,27.860
8893423,-1.028,-0.171,-0.149,-9.870,-53.690,25.900
8893442,-1.016,0.007,-0.096,-15.820,-52.710,23.380
8893461,-1.079,0.094,-0.087,-5.740,-66.710,34.580
8893480,-1.040,-0.031,-0.086,-9.100,-63.280,32.130
8893502,-1.014,-0.057,-0.128,-3.500,-63.700,32.270
8893524,-1.030,-0.020,-0.066,-17.920,-66.570,30.450
8893546,-1.014,-0.044,-0.045,-38.640,-63.210,32.480
8893568,-1.045,0.028,0.103,-18.130,-63.210,34.930
8893587,-0.972,0.002,0.058,-14.490,-68.250,26.460
8893607,-0.899,-0.080,0.089,-3.850,-64.820,17.920
8893631,-1.099,0.095,0.140,-19.040,-63.700,22.750
8893651,-0.997,0.008,0.199,19.460,-63.420,12.110
8893671,-0.829,-0.026,0.246,7.210,-44.870,3.570
8893691,-0.852,0.170,0.283,-20.720,-39.970,12.600
8893706,-0.943,-0.059,0.258,-15.610,-37.310,7.560
8893729,-0.906,0.375,0.250,-23.380,-29.330,7.980
8893753,-0.943,-0.220,0.241,-22.610,-19.180,3.920
8893773,-1.040,-0.218,0.201,19.110,-24.360,-1.960
8893793,-0.977,-0.108,0.198,44.310,-28.210,-1.470
8893811,-1.016,0.109,0.245,61.740,-32.130,2.870
8893833,-1.037,0.149,0.232,40.670,-29.750,5.810
8893852,-0.930,0.251,0.291,16.170,-20.230,9.450
8893868,-0.992,0.097,0.217,-1.120,-18.900,6.790
8893893,-1.003,0.200,0.283,14.560,-19.390,6.860
8893913,-0.982,0.290,0.227,12.390,-19.810,10.430
8893932,-1.016,0.066,0.241,-5.460,-25.200,13.580
8893952,-1.021,-0.060,0.260,-13.580,-26.740,15.190
8893972,-0.996,-0.160,0.274,7.560,-28.630,16.240
8893993,-0.875,0.045,0.323,23.800,-25.830,13.790
8894008,-0.834,0.098,0.421,22.260,-16.730,5.810
8894031,-0.880,0.316,0.403,-3.640,6.090,-0.910
8894053,-0.998,0.237,0.338,-13.720,9.170,-3.640
8894073,-0.986,0.133,0.285,-10.430,10.150,-5.810
8894093,-1.019,0.097,0.257,-10.850,6.090,-8.190
8894110,-0.993,0.054,0.261,-6.230,2.730,-10.010
8894131,-0.966,0.052,0.293,0.560,2.800,-10.570
8894154,-1.061,0.019,0.286,5.670,-0.770,-9.590
8894174,-0.959,0.019,0.293,13.160,-4.340,-8.960
8894194,-0.953,0.110,0.287,10.360,-2.170,-6.790
8894218,-0.985,0.102,0.269,1.470,-1.610,-4.550
8894238,-1.011,0.069,0.282,-1.610,-4.060,-2.590
8894257,-1.010,0.045,0.279,-3.220,-3.850,0.070
8894277,-1.010,0.023,0.291,0.210,-4.900,1.820
8894297,-0.957,0.079,0.306,-0.070,-3.290,3.080
8894321,-0.968,0.097,0.299,-2.520,-0.490,2.730
8894340,-0.960,0.102,0.305,-2.660,1.540,1.330
8894359,-0.954,0.110,0.314,-2.170,5.740,0.700
8894379,-0.964,0.079,0.303,-6.440,7.980,0.420
8894399,-0.993,0.066,0.279,-9.590,9.100,-0.770
8894424,-0.977,0.021,0.267,-4.830,8.190,-3.570
8894440,-0.988,0.054,0.272,0.560,6.440,-4.900
8894460,-0.999,0.084,0.267,2.450,5.180,-4.340
8894484,-0.982,0.102,0.275,1.330,7.140,-5.810
8894502,-0.978,0.114,0.284,-2.100,9.520,-6.720
8894521,-0.971,0.083,0.283,-5.950,14.490,-7.490
8894546,-0.974,0.083,0.294,-5.320,16.870,-7.490
8894561,-0.982,0.045,0.262,-7.210,18.690,-8.120
8894581,-0.974,0.092,0.289,-14.770,24.990,-7.630
8894605,-0.958,0.071,0.284,-20.720,33.600,-8.120
8894623,-0.965,0.110,0.287,-25.270,41.650,-8.400
8894647,-0.972,0.188,0.272,-36.400,50.820,-4.130
8894667,-0.983,-0.132,0.157,-39.270,49.980,1.260
8894683,-0.978,-0.197,0.129,-21.910,46.340,0.980
8894705,-1.027,-0.058,0.054,-10.920,41.300,0.630
8894722,-1.048,0.123,0.118,-22.540,35.000,2.800
8894747,-1.064,0.032,0.091,-39.480,38.080,0.560
8894766,-1.038,-0.115,0.039,-14.630,37.730,-7.210
8894787,-1.006,-0.109,0.094,-4.830,38.780,-10.010
8894804,-1.105,-0.139,0.064,23.100,32.060,-12.180
8894824,-0.918,0.013,0.128,31.780,40.810,-10.850
8894848,-1.017,-0.025,0.094,31.920,50.050,-18.900
8894868,-0.980,0.117,0.000,30.030,58.870,-26.040
8894884,-0.798,-0.067,0.105,21.350,54.320,-29.120
8894903,-1.012,-0.026,-0.090,21.840,71.680,-33.530
8894928,-0.972,-0.067,-0.042,18.760,60.620,-25.620
8894948,-1.032,-0.037,-0.062,24.640,61.810,-25.550
8894972,-0.990,-0.068,-0.256,9.170,56.000,-19.950
8894989,-0.959,-0.147,-0.104,5.390,58.450,-23.380
8895011,-1.032,0.076,-0.030,-6.370,59.220,-24.360
8895032,-0.947,-0.111,-0.156,-4.340,47.390,-17.780
8895048,-0.933,-0.056,-0.183,-22.610,66.220,-23.380
8895072,-1.231,-0.102,-0.298,-21.840,64.750,-21.140
8895092,-1.048,-0.170,-0.266,-17.990,40.600,-9.100
8895110,-0.890,-0.124,-0.265,-6.930,50.890,-9.800
8895131,-0.837,-0.104,-0.294,-18.270,55.440,-11.900
8895150,-0.984,-0.160,-0.377,-11.270,54.740,-10.290
8895174,-0.841,-0.055,-0.366,-7.770,51.520,-7.910
8895194,-0.957,0.133,-0.275,-15.050,59.360,-3.920
8895218,-1.024,-0.291,-0.340,-13.440,49.420,12.810
8895238,-0.772,-0.227,-0.371,-1.680,35.910,13.510
8895256,-0.937,-0.069,-0.416,3.360,15.750,14.630
8895274,-0.904,-0.084,-0.392,-11.760,22.820,9.030
8895298,-0.962,-0.050,-0.259,-21.280,28.210,9.240
8895318,-0.936,-0.147,-0.386,-16.030,20.580,8.260
8895338,-0.855,-0.128,-0.468,-10.500,26.180,3.290
8895356,-1.016,-0.136,-0.461,-3.430,21.420,-0.770
8895378,-0.997,0.111,-0.417,-8.120,18.060,-3.080
8895398,-0.889,-0.101,-0.432,-15.120,19.810,-5.600
8895422,-1.014,-0.230,-0.484,-3.220,18.690,-6.790
8895439,-0.963,-0.024,-0.490,4.830,8.470,-5.180
8895459,-0.961,-0.078,-0.458,3.640,1.890,-1.750
8895483,-0.881,-0.191,-0.501,1.540,1.890,1.610
8895503,-0.894,-0.151,-0.487,2.100,-2.100,4.060
8895523,-0.968,-0.121,-0.462,-1.400,-6.300,9.170
8895538,-0.952,-0.103,-0.471,5.040,-12.180,11.480
8895563,-0.935,-0.183,-0.452,14.280,-16.310,10.290
8895582,-0.880,-0.078,-0.470,10.780,-17.500,7.560
8895603,-0.920,-0.060,-0.436,12.320,-17.290,2.520
8895622,-0.922,-0.069,-0.443,14.910,-19.950,-1.400
8895642,-0.870,-0.082,-0.427,23.450,-33.180,-2.310
8895666,-0.913,-0.079,-0.415,24.430,-35.560,-6.720
8895684,-0.992,-0.081,-0.393,18.760,-33.530,-13.720
8895704,-0.959,-0.141,-0.390,8.470,-34.510,-17.430
8895728,-0.920,-0.129,-0.382,12.670,-39.690,-18.480
8895748,-0.922,-0.040,-0.375,15.400,-47.040,-13.160
8895767,-0.937,0.003,-0.383,8.540,-52.990,-10.500
8895791,-0.964,-0.217,-0.366,1.190,-52.430,-4.550
8895815,-0.916,-0.184,-0.237,10.990,-49.070,2.800
8895834,-0.949,-0.029,-0.248,10.010,-46.340,10.780
8895852,-1.012,-0.163,-0.309,-5.670,-46.130,20.090
8895876,-0.941,-0.233,-0.275,2.940,-52.290,30.800
8895896,-0.936,-0.160,-0.273,9.380,-50.960,37.730
8895912,-1.057,-0.166,-0.243,14.210,-52.570,43.190
8895936,-1.019,-0.155,-0.244,15.190,-63.980,45.990
8895956,-0.961,-0.018,-0.185,11.410,-59.640,40.880
8895975,-1.071,-0.075,-0.158,7.630,-59.010,33.740
8896000,-1.101,-0.072,-0.191,14.000,-67.760,29.610
8896019,-1.060,0.059,-0.139,17.430,-73.920,30.310
8896043,-1.012,0.032,-0.114,5.460,-73.430,34.930
8896067,-1.048,0.011,-0.044,-5.530,-73.150,31.080
8896085,-1.003,0.065,-0.044,1.680,-68.530,30.030
8896107,-1.055,0.007,-0.068,-18.200,-77.560,22.540
8896127,-0.970,-0.019,-0.035,-6.720,-70.000,20.440
8896150,-1.018,-0.161,-0.005,-10.500,-87.850,23.730
8896171,-1.033,-0.155,0.080,12.810,-100.100,22.820
8896188,-0.945,0.013,0.148,27.160,-88.900,17.500
8896207,-0.769,0.203,0.329,41.860,-78.330,4.900
8896227,-0.943,0.393,0.197,15.890,-64.960,4.690
8896247,-0.857,0.030,0.202,-1.960,-60.550,-1.190
8896271,-1.002,0.012,0.254,-0.910,-69.370,0.000
8896287,-0.924,-0.100,0.277,9.170,-66.290,3.080
8896311,-0.886,0.070,0.351,26.880,-64.330,10.290
8896331,-0.931,0.043,0.391,15.540,-52.990,14.770
8896351,-0.981,-0.136,0.390,14.560,-51.240,15.120
8896370,-0.904,-0.184,0.391,32.060,-46.830,10.710
8896394,-0.818,0.017,0.435,40.530,-32.620,2.590
8896409,-0.841,0.261,0.477,44.940,-15.330,-2.870
8896429,-0.858,0.432,0.462,30.590,-8.400,-6.020
8896454,-0.914,0.506,0.344,-7.140,9.100,-6.580
8896474,-0.956,0.076,0.318,-13.790,11.760,-10.150
8896498,-1.009,-0.076,0.314,10.080,7.910,-12.390
8896518,-1.115,-0.017,0.313,33.670,-1.750,-10.850
8896533,-0.984,0.061,0.316,36.960,-4.760,-9.520
8896558,-0.951,0.108,0.333,22.540,-4.060,-9.940
8896578,-0.937,0.096,0.330,22.330,-4.200,-9.590
8896598,-0.996,0.085,0.295,15.890,-5.110,-9.450
8896618,-0.997,0.059,0.336,20.790,-6.370,-7.350
8896633,-1.037,0.133,0.362,17.780,-5.670,-4.480
8896657,-0.963,-0.014,0.343,16.730,-8.820,-6.790
8896678,-0.930,0.076,0.335,24.080,-6.440,-7.490
8896698,-0.941,0.167,0.352,17.360,-2.030,-9.100
8896717,-0.912,0.126,0.385,7.280,2.310,-10.360
8896736,-0.926,0.102,0.388,-3.150,9.170,-10.710
8896757,-0.994,0.020,0.340,-3.710,10.500,-10.220
8896775,-0.962,0.039,0.325,-1.610,12.600,-8.610
8896799,-0.971,0.075,0.302,-6.230,11.060,-8.050
8896823,-0.966,0.048,0.321,-9.520,10.640,-7.490
8896843,-0.969,0.012,0.319,-13.650,10.640,-7.280
8896863,-0.964,0.016,0.321,-14.420,11.270,-5.880
8896883,-0.995,0.053,0.292,-13.790,8.680,-2.590
8896898,-1.009,0.027,0.310,-21.770,7.350,-2.590
8896923,-0.983,-0.058,0.290,-12.880,5.530,-3.430
8896943,-0.984,0.007,0.296,-9.590,9.100,-2.870
8896962,-1.000,0.035,0.293,-13.580,11.200,-0.980
8896981,-1.017,0.039,0.292,-23.100,13.090,1.610
8897001,-1.002,0.011,0.302,-27.860,12.180,2.730
8897025,-0.932,0.050,0.286,-34.370,17.290,3.430
8897045,-1.018,0.056,0.271,-42.420,14.280,10.150
8897063,-0.935,-0.021,0.226,-43.540,24.570,7.560
8897087,-0.956,-0.044,0.225,-52.080,15.680,8.120
8897106,-0.965,0.039,0.246,-44.520,11.550,10.920
8897126,-1.007,0.043,0.233,-47.180,8.120,19.530
8897144,-0.964,0.079,0.285,-70.700,11.690,16.380
8897168,-0.934,-0.017,0.232,-60.900,15.400,14.490
8897188,-0.955,0.108,0.289,-78.470,21.280,12.880
8897204,-0.969,-0.087,0.269,-79.590,25.410,11.130
8897227,-0.965,-0.108,0.241,-57.330,30.520,5.250
8897246,-0.932,-0.010,0.386,-20.090,43.750,4.410
8897268,-0.915,-0.285,0.210,-3.990,54.460,-0.070
8897284,-0.998,0.127,0.171,-4.620,57.190,-5.950
8897308,-1.067,0.176,0.235,-31.150,62.020,1.470
8897328,-1.088,-0.006,0.103,-17.780,40.250,-5.880
8897348,-1.018,-0.077,-0.002,-20.720,51.590,-7.700
8897368,-0.985,-0.334,-0.059,15.890,44.590,-16.520
8897388,-1.088,0.102,0.191,43.400,34.790,-7.070
8897408,-1.099,-0.067,0.034,29.890,28.910,-11.830
8897427,-0.984,0.094,-0.032,29.750,42.000,-16.730
8897448,-0.989,-0.030,0.029,20.020,36.680,-15.890
8897467,-0.960,0.010,-0.030,14.070,44.310,-21.840
8897486,-0.989,-0.054,0.053,-1.820,50.610,-22.890
8897508,-0.955,-0.047,0.043,16.030,59.990,-16.660
8897529,-1.035,-0.263,-0.146,27.790,42.700,-8.260
8897548,-1.022,-0.194,-0.158,14.700,40.460,-8.820
8897573,-0.937,0.054,-0.061,19.950,49.770,-17.500
8897593,-0.850,0.294,0.001,-25.900,74.340,-24.710
8897613,-1.110,-0.093,-0.060,-21.070,70.140,-24.570
8897632,-0.947,-0.157,-0.117,-20.790,91.210,-22.400
8897653,-0.980,-0.242,-0.251,-8.820,80.150,-13.510
8897672,-0.791,-0.050,-0.131,0.770,81.130,-11.970
8897697,-1.018,0.066,-0.228,-17.150,72.030,-10.220
8897717,-1.126,-0.090,-0.240,-33.320,64.190,-7.770
8897736,-1.084,-0.256,-0.496,-17.080,51.310,-7.840
8897756,-1.019,-0.172,-0.348,-9.590,47.460,-10.430
8897774,-1.029,-0.071,-0.347,-2.590,35.840,-6.860
8897793,-0.749,-0.434,-0.342,3.640,33.530,7.420
8897818,-0.950,-0.193,-0.354,5.040,38.990,12.460
8897838,-0.969,-0.062,-0.389,-7.840,30.170,15.750
8897856,-0.857,-0.276,-0.398,1.680,40.180,9.310
8897878,-1.045,0.010,-0.432,-2.170,27.650,5.880
8897894,-1.063,-0.058,-0.440,7.700,12.530,-0.210
8897914,-0.795,-0.081,-0.490,5.600,14.140,-7.700
8897934,-0.883,-0.106,-0.422,5.950,10.430,-10.850
8897958,-0.988,-0.085,-0.409,0.700,5.320,-11.480
8897978,-0.962,-0.157,-0.476,-0.070,0.700,-8.400
8898001,-0.988,-0.236,-0.453,2.380,-8.750,-3.640
8898025,-0.948,-0.174,-0.426,-1.120,-13.020,0.840
8898044,-0.927,-0.164,-0.470,-3.780,-17.150,2.660
8898068,-0.976,-0.134,-0.423,0.140,-24.850,0.420
8898088,-0.946,-0.175,-0.430,4.480,-29.540,0.350
8898108,-0.954,-0.140,-0.376,4.760,-33.040,-0.070
8898124,-0.969,-0.134,-0.379,5.390,-36.540,0.840
8898148,-0.931,-0.160,-0.388,6.930,-40.110,2.660
8898168,-0.946,-0.190,-0.340,10.570,-44.520,3.500
8898187,-0.875,-0.142,-0.320,10.080,-49.490,3.920
8898211,-0.952,-0.020,-0.360,6.020,-50.750,3.920
8898230,-0.956,-0.097,-0.346,9.170,-56.280,4.760
8898247,-0.959,-0.145,-0.306,9.590,-59.500,6.440
8898267,-0.954,-0.172,-0.249,12.110,-59.430,13.650
8898291,-0.953,-0.149,-0.231,15.330,-58.310,21.770
8898309,-0.990,-0.119,-0.209,13.370,-58.310,26.740
8898329,-0.985,-0.060,-0.213,2.590,-55.510,27.930
8898353,-0.998,-0.075,-0.190,-6.650,-58.240,26.040
8898373,-1.004,-0.003,-0.182,-5.670,-61.670,27.860
8898393,-1.054,0.062,-0.128,-6.370,-64.190,25.130
8898412,-1.043,0.035,-0.110,-11.270,-66.780,24.710
8898431,-1.055,-0.061,-0.145,-14.560,-67.760,22.750
8898450,-1.014,-0.111,-0.160,-13.860,-73.220,24.640
8898475,-1.091,0.000,-0.072,-16.240,-82.880,29.540
8898496,-1.061,-0.019,-0.027,-25.340,-74.060,26.530
8898513,-0.907,0.020,0.038,12.670,-64.610,23.940
8898537,-0.966,0.057,0.007,-22.260,-72.450,21.210
8898557,-0.995,-0.028,0.086,-28.210,-70.350,19.880
8898577,-1.048,-0.101,0.099,-16.940,-75.530,15.540
8898597,-0.976,-0.101,0.135,5.040,-74.620,16.520
8898621,-0.960,0.049,0.200,17.080,-67.620,13.020
8898643,-0.894,0.240,0.301,12.670,-56.980,7.700
8898663,-0.877,0.084,0.247,3.010,-48.370,5.390
8898684,-0.949,-0.116,0.188,-1.680,-41.230,-1.330
8898704,-0.954,-0.029,0.251,4.270,-39.550,-1.750
8898724,-0.935,0.025,0.316,7.630,-35.280,4.760
8898748,-0.995,-0.094,0.271,10.500,-28.140,7.280
8898772,-1.003,-0.051,0.283,16.870,-27.300,11.970
8898789,-0.988,0.069,0.289,18.200,-27.370,16.380
8898809,-0.921,0.073,0.300,9.310,-23.310,19.810
8898829,-1.037,-0.116,0.321,0.560,-16.730,18.830
8898853,-0.950,0.126,0.375,14.350,-17.570,8.120
8898868,-0.744,0.349,0.404,6.930,-2.940,4.550
8898893,-0.877,0.304,0.380,-10.010,5.530,-2.870
8898912,-0.951,0.128,0.292,-11.200,11.060,-6.230
8898933,-1.160,-0.083,0.259,39.550,-5.950,-1.680
8898953,-0.978,-0.042,0.278,38.710,-3.780,-7.910
8898972,-0.936,0.012,0.263,38.570,-1.680,-7.560
8898991,-0.947,0.097,0.285,26.530,-0.210,-5.320
8899016,-0.981,0.116,0.276,2.100,5.180,-2.590
8899034,-1.040,0.043,0.275,-10.360,8.680,-1.050
8899053,-1.001,0.015,0.283,-10.290,4.410,0.140
8899078,-0.940,0.065,0.285,-5.390,7.280,0.980
8899098,-0.977,0.134,0.264,-11.480,7.070,1.330
8899115,-1.000,0.085,0.260,-18.690,6.370,0.420
8899135,-1.021,0.052,0.263,-16.030,6.370,-1.750
8899158,-1.107,0.082,0.341,-3.500,-1.820,-1.680
8899179,-0.871,0.097,0.305,0.350,5.320,-5.600
8899199,-0.907,0.147,0.262,-14.770,14.000,-10.850
8899219,-0.965,0.243,0.333,-25.130,29.540,-9.380
8899236,-0.938,-0.020,0.356,-28.350,34.020,-9.170
8899255,-0.972,-0.257,0.232,-21.840,34.510,-10.710
8899280,-1.020,-0.294,0.194,-0.280,32.900,-4.410
8899300,-1.061,-0.185,0.139,24.360,22.260,8.260
8899320,-1.028,0.059,0.112,37.240,13.090,8.190
8899340,-0.975,0.335,0.164,-3.710,16.310,14.700
8899364,-1.032,0.138,0.176,-20.930,14.980,9.170
8899384,-1.033,0.016,0.177,-23.240,17.850,6.300
8899404,-1.012,-0.105,0.140,-23.730,17.150,8.400
8899424,-1.058,-0.056,0.226,25.270,11.060,10.500
8899444,-1.006,0.131,0.240,25.480,23.310,8.190
8899463,-0.988,0.061,0.188,-2.660,36.260,3.360
8899484,-0.907,-0.108,0.250,5.460,43.120,-2.380
8899504,-1.103,-0.016,0.345,-2.030,62.160,-5.600
8899523,-1.229,-0.133,0.522,25.830,56.070,-19.040
8899543,-0.790,0.170,-0.020,-0.210,50.680,-16.170
8899564,-0.964,-0.192,-0.402,-7.070,42.420,-22.750
8899587,-0.956,0.255,-0.121,-111.720,46.550,-41.790
8899609,-0.669,-0.346,-0.289,-154.980,42.560,-48.650
8899631,-0.536,0.500,-0.386,-33.740,46.130,2.730
8899655,-1.118,-0.280,0.052,-68.390,21.560,-11.270
8899674,-1.460,-1.011,0.344,135.870,12.810,-19.110
8899694,-1.022,0.229,-0.039,157.920,12.670,-9.660
8899718,-0.902,0.098,-0.118,19.880,57.960,-2.170
8899738,-0.985,-0.120,-0.069,-11.550,64.820,-2.240
8899758,-1.111,0.132,0.018,-31.640,81.060,0.490
8899777,-0.976,0.003,0.097,-24.850,81.130,10.850
8899798,-0.965,-0.128,-0.283,-6.440,67.130,8.330
8899816,-0.976,-0.017,-0.296,-7.350,57.610,-1.890
8899836,-1.252,0.329,-0.199,-16.520,50.260,-8.890
8899860,-0.900,0.201,-0.153,-18.060,52.290,-9.450
8899880,-0.965,-0.211,-0.280,-17.360,59.080,0.420
8899899,-0.997,-0.234,-0.327,-0.700,38.780,5.180
8899923,-1.011,-0.160,-0.366,3.710,31.360,6.790
8899942,-1.042,-0.073,-0.284,-1.260,31.920,5.880
8899966,-1.008,0.020,-0.281,-8.610,28.350,8.960
8899982,-0.935,-0.059,-0.304,-4.900,27.720,1.190
8900005,-0.994,-0.043,-0.321,-13.510,28.000,4.830
8900026,-0.999,0.058,-0.484,3.010,10.220,-3.990
8900046,-0.905,0.080,-0.475,-1.400,11.760,-7.420
8900066,-1.023,-0.013,-0.368,-0.630,2.800,-6.370
8900086,-0.961,-0.165,-0.399,0.350,-4.900,-3.920
8900101,-0.945,-0.031,-0.364,-3.920,-7.700,-2.940
8900126,-1.031,-0.157,-0.359,-1.540,-13.300,5.390
8900146,-0.991,-0.091,-0.309,7.420,-17.290,9.940
8900165,-0.909,-0.084,-0.355,4.830,-16.800,11.550
8900184,-0.963,-0.080,-0.362,6.160,-22.190,8.890
8900209,-0.995,0.014,-0.336,7.420,-28.280,2.450
8900225,-0.990,-0.043,-0.308,16.240,-30.240,-3.010
8900249,-1.005,-0.020,-0.320,15.820,-32.480,-9.030
8900272,-0.960,-0.084,-0.299,17.290,-35.700,-10.360
8900296,-1.019,-0.028,-0.254,21.210,-39.830,-10.710
8900316,-0.992,-0.039,-0.253,20.160,-41.650,-9.100
8900332,-0.989,-0.088,-0.230,22.120,-41.440,-7.980
8900356,-0.994,-0.001,-0.220,23.030,-43.820,-6.650
8900375,-0.964,-0.002,-0.284,12.180,-44.380,-7.560
8900400,-1.021,-0.094,-0.219,17.080,-47.180,-9.450
8900420,-1.046,-0.167,-0.173,24.710,-48.580,-3.640
8900444,-0.967,-0.015,-0.176,20.580,-44.520,4.480
8900464,-0.989,-0.096,-0.134,18.060,-40.530,10.430
8900479,-1.009,-0.167,-0.109,17.220,-38.920,14.700
8900503,-1.011,-0.066,-0.071,12.670,-34.930,18.830
8900524,-0.999,0.018,-0.066,4.690,-35.070,19.950
8900548,-1.048,-0.081,-0.114,-5.670,-35.980,18.480
8900568,-1.024,-0.020,-0.108,3.990,-40.600,17.990
8900588,-1.056,0.062,-0.082,1.120,-46.060,16.520
8900607,-1.038,0.085,-0.091,3.850,-45.850,12.880
8900627,-1.024,0.147,-0.031,-7.280,-45.290,12.390
8900646,-0.957,0.253,0.241,-13.440,-45.920,13.650
8900671,-1.181,0.000,-0.208,-75.880,-43.820,24.640
8900690,-1.040,-0.070,-0.020,-24.430,-50.190,16.660
8900710,-0.899,0.399,0.140,-69.230,-30.240,40.110
8900734,-1.197,-0.466,-0.095,-51.590,-51.800,24.430
8900752,-0.898,-0.179,-0.045,-9.870,-42.980,16.170
8900774,-1.078,0.073,-0.066,-39.270,-56.910,26.460
8900794,-0.951,-0.306,0.133,-35.700,-60.690,20.160
8900813,-1.025,-0.005,0.145,-11.620,-60.830,12.950
8900831,-0.935,0.017,0.074,-8.470,-52.220,6.650
8900855,-1.018,0.047,0.187,0.000,-51.870,3.150
8900879,-0.912,-0.002,0.264,26.600,-42.560,-3.010
8900894,-0.901,-0.013,0.331,18.410,-36.750,-7.910
8900914,-0.850,-0.192,0.313,36.890,-27.090,-5.460
8900934,-0.927,0.189,0.304,19.460,-19.180,4.830
8900959,-1.000,0.023,0.146,3.710,-15.470,2.660
8900979,-1.076,0.115,0.188,3.850,-15.330,1.960
8900999,-1.032,0.111,0.239,0.910,-15.540,0.490
8901019,-0.849,0.102,0.322,11.480,-0.980,-1.750
8901039,-1.242,0.066,0.289,2.800,3.710,-1.820
8901057,-0.979,0.051,0.242,4.410,7.700,-4.410
8901074,-0.923,0.041,0.222,5.110,9.940,-6.440
8901097,-0.965,0.148,0.209,2.660,10.150,-8.540
8901116,-0.972,0.124,0.175,-9.940,10.920,-8.470
8901141,-0.931,0.053,0.234,-22.050,16.730,-8.540
8901161,-1.164,-0.079,0.180,-19.810,9.660,-7.070
8901179,-0.999,-0.098,0.131,-1.330,4.970,-6.790
8901203,-0.976,0.011,0.158,5.390,2.800,-5.460
8901219,-1.004,0.025,0.142,-0.070,0.140,-5.040
8901243,-0.980,-0.015,0.153,-3.780,-1.330,-4.970
8901261,-0.978,-0.022,0.209,-3.850,1.050,-4.130
8901281,-1.087,-0.066,0.189,1.890,-2.660,-2.730
8901300,-1.043,-0.009,0.174,7.490,-5.250,-0.980
8901320,-1.019,-0.061,0.175,13.090,-7.700,-2.870
8901344,-0.992,0.009,0.183,20.090,-8.260,-4.340
8901364,-0.967,0.110,0.207,20.720,-5.250,-5.320
8901384,-0.987,-0.031,0.224,20.020,-3.850,-10.570
8901402,-0.987,-0.007,0.212,26.880,-2.660,-11.550
8901424,-0.996,0.112,0.249,20.580,0.630,-10.780
8901444,-0.999,0.081,0.225,7.000,7.490,-8.890
8901467,-0.982,0.047,0.219,-2.870,12.670,-5.880
8901485,-1.002,0.032,0.186,-9.100,16.030,-2.240
8901509,-1.033,-0.003,0.189,-11.620,18.900,1.680
8901527,-0.959,-0.025,0.145,-17.710,25.550,3.710
8901549,-0.924,-0.063,0.219,-20.230,32.200,6.300
8901569,-0.956,-0.112,0.147,-19.250,34.510,7.350
8901584,-0.931,-0.013,0.194,-18.060,42.420,7.210
8901609,-1.011,-0.015,0.114,-31.220,39.900,4.620
8901628,-0.955,0.092,0.048,-32.410,39.690,4.900
8901648,-1.066,0.053,0.086,-35.560,39.900,8.820
8901672,-1.002,-0.181,0.057,-17.920,41.160,4.900
8901692,-1.057,0.128,0.100,-5.810,44.310,3.570
8901708,-1.061,0.105,0.091,-10.500,50.120,-0.840
8901727,-0.916,-0.115,0.000,9.170,55.160,-5.110
8901752,-0.988,-0.207,0.124,45.920,47.390,-2.450
8901771,-1.016,-0.232,0.014,61.880,51.940,-10.290
8901792,-1.139,0.205,-0.095,44.450,48.230,-5.390
8901812,-0.895,0.015,-0.043,30.870,67.690,-4.760
8901828,-0.764,-0.064,-0.285,23.730,68.250,-6.580
8901852,-0.907,0.041,-0.205,5.250,61.250,-9.380
8901872,-0.849,0.157,0.014,-5.110,70.420,-13.860
8901888,-1.118,0.333,0.005,-2.870,80.500,-12.740
8901907,-1.097,0.000,-0.448,-35.140,80.220,-19.250
8901930,-0.941,-0.281,-0.280,-14.280,82.250,-9.870
8901952,-0.913,-0.100,-0.382,-21.770,62.300,-18.620
8901972,-0.970,0.104,-0.294,-11.270,53.690,-20.930
8901992,-0.910,0.015,-0.328,-19.320,58.170,-15.190
8902011,-0.982,-0.231,-0.295,-30.660,62.650,-4.060
8902031,-1.366,-0.336,-0.299,-8.330,52.220,18.970
8902050,-1.032,-0.179,-0.387,6.370,28.280,25.410
8902070,-0.982,0.051,-0.607,27.090,-7.210,31.080
8902090,-0.848,-0.140,-0.431,17.430,-1.680,24.920
8902114,-0.935,-0.029,-0.408,-3.570,2.240,26.880
8902133,-0.922,0.030,-0.363,-34.510,-4.480,24.990
8902153,-0.839,-0.017,-0.392,-6.370,-1.190,19.180
8902173,-1.079,0.145,-0.301,1.330,-0.560,11.480
8902197,-0.929,0.093,-0.347,7.840,-2.380,-1.470
8902215,-0.895,-0.028,-0.374,0.700,8.960,-11.900
8902239,-0.876,-0.023,-0.365,-15.890,18.900,-24.150
8902259,-1.034,-0.000,-0.377,-17.570,21.140,-27.440
8902279,-0.966,0.006,-0.416,3.780,6.020,-17.430
8902298,-0.888,-0.083,-0.423,-2.170,6.090,-11.550
8902319,-0.929,-0.103,-0.427,-5.180,7.700,-7.000
8902343,-0.569,-0.048,-0.141,-38.920,60.620,-9.660
8902361,-1.024,-0.173,-0.302,0.070,-30.030,-7.910
8902385,-0.875,-0.056,-0.406,7.140,-7.700,-8.400
8902408,-0.959,-0.043,-0.422,6.790,-15.890,-11.480
8902429,-0.941,-0.083,-0.423,13.300,-20.930,-13.370
8902453,-0.926,-0.027,-0.377,14.700,-26.110,-12.950
8902472,-0.891,0.029,-0.362,3.220,-23.800,-10.150
8902496,-0.974,-0.041,-0.393,-2.730,-26.880,-6.650
8902514,-0.973,-0.140,-0.370,-3.570,-33.670,-5.390
8902535,-0.943,-0.206,-0.325,0.980,-38.150,-6.230
8902555,-0.950,-0.007,-0.357,4.130,-42.420,-4.970
8902579,-0.974,0.049,-0.292,-6.230,-43.470,-3.360
8902599,-0.955,-0.127,-0.338,-3.990,-44.520,-1.750
8902617,-0.960,-0.108,-0.323,4.340,-50.190,2.800
8902638,-0.981,-0.069,-0.250,8.330,-43.400,6.440
8902660,-0.989,-0.049,-0.284,-1.680,-43.120,14.140
8902680,-1.036,-0.018,-0.253,-2.940,-42.560,17.430
8902704,-1.084,-0.041,-0.316,-16.310,-52.780,20.300
8902725,-1.043,0.048,-0.167,-6.020,-56.280,27.510
8902742,-1.134,0.213,-0.198,-23.940,-59.080,31.990
8902759,-1.034,0.052,-0.158,-6.230,-58.450,29.890
8902784,-0.941,0.072,-0.093,1.610,-62.790,27.580
8902804,-0.954,0.037,-0.089,6.860,-67.970,22.120
8902819,-1.077,-0.183,-0.240,5.460,-79.660,19.670
8902845,-0.914,0.008,-0.029,13.860,-74.760,15.610
8902859,-0.895,0.120,0.007,19.390,-76.860,13.020
8902884,-0.811,0.043,0.062,-4.340,-57.050,10.780
8902902,-0.908,0.292,0.127,-9.170,-52.500,12.250
8902924,-1.076,0.087,0.026,-21.140,-64.820,19.110
8902948,-0.982,-0.171,0.140,9.870,-57.820,10.080
8902972,-0.861,0.010,0.118,2.450,-56.560,6.650
8902991,-0.875,0.181,0.099,1.540,-44.800,4.900
8903012,-1.020,0.268,0.117,-31.850,-42.210,4.760
8903032,-0.950,0.026,0.116,-49.700,-36.540,4.480
8903055,-0.950,-0.195,0.170,-41.160,-34.510,8.050
8903075,-0.959,-0.050,0.271,-6.300,-28.980,14.280
8903094,-1.047,-0.045,0.061,-15.820,-26.390,24.290
8903118,-0.976,-0.164,0.256,-2.380,-21.840,28.490
8903138,-0.935,-0.067,0.224,-2.520,-13.790,29.470
8903158,-1.054,-0.167,0.135,12.180,-17.570,27.860
8903179,-0.993,0.179,0.221,29.610,-19.670,22.890
8903202,-0.909,0.427,0.203,29.820,-10.360,16.940
8903222,-0.967,0.265,0.234,-1.680,-0.700,12.530
8903242,-1.135,0.075,0.194,3.570,-0.350,8.610
8903262,-0.973,0.114,0.167,21.350,-2.590,4.060
8903281,-0.921,0.254,0.212,15.330,2.730,0.630
8903306,-0.949,0.141,0.204,7.490,8.050,-3.640
8903325,-0.945,0.152,0.214,4.550,14.350,-5.950
8903349,-1.057,0.146,0.159,-8.610,15.960,-2.730
8903369,-1.077,0.055,0.116,-10.360,6.020,0.840
8903389,-1.060,0.068,0.075,-4.900,0.000,3.360
8903407,-1.028,0.069,0.115,-3.710,-5.460,4.200
8903429,-0.989,0.122,0.139,-4.410,-7.210,2.800
8903453,-1.037,0.193,0.171,-2.730,-5.670,0.490
8903473,-1.074,0.087,0.142,-6.510,-7.210,1.470
8903491,-1.054,0.061,0.129,-1.330,-12.320,2.030
8903509,-0.982,0.139,0.171,8.330,-14.000,1.470
8903532,-0.954,0.192,0.205,-6.930,-8.680,-3.080
8903550,-0.926,0.071,0.174,-11.830,-2.870,-6.790
8903574,-0.965,0.093,0.202,-4.410,4.480,-9.730
8903592,-0.990,0.098,0.245,-4.970,8.540,-9.660
8903611,-0.974,0.054,0.213,2.380,11.480,-10.290
8903631,-0.969,0.194,0.166,-9.240,14.980,-11.480
8903653,-0.972,0.062,0.148,-14.420,20.090,-11.830
8903676,-0.951,-0.155,0.205,-3.920,24.010,-10.990
8903700,-0.914,0.037,0.277,30.660,36.050,-10.710
8903720,-0.965,0.589,0.136,-19.390,41.300,-3.920
8903740,-1.144,0.131,0.045,-50.820,33.880,-1.190
8903757,-1.092,-0.431,-0.008,-31.990,31.990,-0.350
8903776,-0.974,-0.361,0.052,13.300,22.190,-0.280
8903801,-0.990,0.021,0.031,10.640,25.200,0.770
8903817,-0.930,0.298,0.130,-3.850,29.820,-2.870
8903839,-1.112,0.153,0.089,-8.750,42.560,-5.460
8903861,-0.980,-0.250,0.063,9.940,37.870,-9.800
8903880,-0.919,-0.062,0.022,35.490,39.200,-4.970
8903904,-1.029,0.356,0.008,24.500,35.840,-4.480
8903925,-1.072,0.042,-0.006,19.950,28.490,-1.050
8903940,-1.012,-0.005,-0.109,33.600,27.930,-3.150
8903964,-1.177,0.248,-0.195,36.190,14.840,-2.520
8903988,-0.900,0.209,-0.017,10.150,38.850,-3.500
8904006,-0.942,-0.142,-0.005,26.320,30.100,-3.990
8904028,-0.772,-0.013,0.062,24.220,32.200,-7.910
8904043,-0.768,-0.151,-0.270,12.950,38.360,-18.340
8904065,-1.006,0.271,-0.037,13.090,38.710,-21.630
8904086,-1.050,-0.053,-0.049,-7.280,58.030,-21.210
8904110,-1.065,-0.131,-0.094,9.730,48.230,-17.150
8904130,-0.784,-0.056,-0.176,2.030,48.580,-22.120
8904149,-1.016,0.067,-0.167,3.220,59.850,-29.680
8904173,-0.974,0.045,-0.123,-12.460,69.370,-25.760
8904193,-1.106,-0.033,-0.306,-5.810,67.060,-27.510
8904213,-1.236,-0.061,-0.231,-3.570,39.760,-12.040
8904231,-0.960,-0.149,-0.293,9.730,47.810,-5.740
8904253,-0.907,-0.011,-0.382,7.490,53.200,-4.130
8904277,-1.066,-0.025,-0.455,16.590,23.380,-5.670
8904297,-0.955,0.018,-0.373,9.730,18.480,-1.050
8904312,-0.933,-0.005,-0.350,2.520,31.080,3.360
8904337,-1.016,-0.342,-0.229,4.550,45.150,24.220
8904356,-1.011,0.041,-0.358,19.880,30.940,31.360
8904374,-0.868,0.109,-0.371,-9.240,52.010,27.300
8904393,-1.107,-0.128,-0.387,2.520,23.100,35.560
8904417,-0.963,-0.063,-0.382,4.130,-1.260,29.470
8904438,-0.857,-0.059,-0.389,2.800,4.550,16.030
8904458,-0.977,0.237,-0.333,-3.150,-3.080,3.640
8904476,-0.905,0.063,-0.383,9.870,-0.350,-0.280
8904496,-0.902,0.052,-0.388,-1.750,-12.880,-9.730
8904519,-0.930,0.027,-0.339,1.610,-10.500,-10.640
8904540,-0.819,0.079,-0.367,0.980,-13.160,-15.750
8904559,-0.992,-0.084,-0.347,5.810,1.050,-22.400
8904583,-0.968,-0.025,-0.306,5.320,-0.140,-18.970
8904606,-0.876,-0.122,-0.343,9.940,-2.170,-12.180
8904627,-0.921,-0.170,-0.390,8.190,3.010,-7.630
8904650,-0.951,-0.083,-0.400,4.620,4.480,-3.570
8904671,-0.971,-0.052,-0.405,0.630,-2.380,-1.610
8904687,-0.971,-0.095,-0.414,-4.550,-3.360,-2.450
8904710,-0.942,-0.006,-0.441,-10.710,-1.120,-6.930
8904730,-1.014,-0.081,-0.394,-2.870,-4.410,-7.000
8904752,-0.953,-0.164,-0.383,8.680,-15.330,-3.080
8904771,-0.881,-0.116,-0.381,3.430,-19.180,-2.030
8904795,-0.950,-0.049,-0.380,-10.430,-16.030,-4.130
8904815,-0.936,-0.021,-0.360,-10.990,-5.040,-7.000
8904835,-0.988,-0.097,-0.330,-2.450,-8.120,-7.560
8904855,-1.019,-0.179,-0.309,10.990,-22.330,-7.140
8904875,-1.043,-0.040,-0.321,27.860,-35.280,-4.130
8904892,-0.881,0.064,-0.266,17.780,-30.450,-6.160
8904912,-0.907,0.009,-0.350,5.110,-32.690,-9.310
8904936,-0.956,0.031,-0.297,3.570,-39.830,-12.880
8904955,-0.982,-0.046,-0.311,0.560,-40.110,-9.170
8904976,-0.995,-0.138,-0.309,3.990,-43.610,-7.070
8904995,-0.935,-0.177,-0.322,8.050,-48.160,-0.210
8905019,-1.024,-0.068,-0.297,5.600,-49.000,5.320
8905037,-0.979,-0.013,-0.204,-0.980,-45.500,11.060
8905056,-1.046,-0.091,-0.170,-11.830,-47.600,13.160
8905080,-1.012,-0.203,-0.289,-5.670,-52.500,14.700
8905098,-0.991,-0.068,-0.226,-2.870,-55.510,16.310
8905122,-1.061,-0.057,-0.166,-2.240,-62.370,34.720
8905142,-0.984,0.039,-0.102,-3.360,-55.230,15.960
8905160,-0.983,-0.066,-0.114,-7.000,-60.690,14.980
8905182,-1.066,-0.049,-0.189,-15.470,-66.430,15.960
8905201,-1.062,-0.009,-0.096,-26.670,-71.890,15.190
8905225,-1.052,-0.077,-0.031,-4.340,-72.100,14.140
8905243,-0.960,0.126,0.020,-12.460,-67.480,10.920
8905263,-0.960,-0.047,-0.047,-25.480,-69.510,6.300
8905285,-1.036,0.035,0.004,-30.450,-72.310,5.460
8905309,-1.037,0.008,0.060,-25.830,-68.250,7.490
8905329,-0.945,0.069,0.167,-15.680,-60.970,0.560
8905349,-0.903,0.109,0.127,-25.130,-59.780,0.280
8905368,-1.042,-0.106,0.036,-41.860,-59.220,3.360
8905391,-0.997,-0.174,0.199,-28.210,-59.080,6.230
8905409,-0.960,-0.154,0.207,-4.340,-62.440,7.980
8905431,-0.925,-0.058,0.244,-9.240,-53.550,13.020
8905454,-0.949,-0.114,0.294,-12.810,-43.960,18.830
8905473,-1.009,-0.107,0.281,0.140,-41.370,20.930
8905489,-0.990,-0.139,0.232,3.640,-35.350,21.490
8905509,-0.971,-0.070,0.249,13.580,-36.750,22.680
8905528,-0.996,-0.009,0.264,17.850,-35.700,18.480
8905552,-0.956,-0.033,0.325,14.840,-25.620,11.410
8905573,-0.903,0.112,0.398,11.480,-13.370,2.100
8905589,-0.772,0.228,0.409,0.280,3.500,-3.220
8905610,-0.896,0.187,0.341,4.340,9.730,-9.380
8905632,-1.013,0.160,0.278,-0.070,14.490,-11.410
8905656,-1.059,-0.079,0.215,5.110,10.710,-11.060
8905671,-1.033,-0.102,0.228,10.710,7.630,-8.820
8905695,-0.996,-0.056,0.233,13.650,4.270,-6.370
8905719,-0.968,0.045,0.253,5.810,6.020,-3.990
8905737,-1.006,0.031,0.261,-1.470,7.490,-1.890
8905761,-1.038,-0.073,0.221,-4.410,4.690,0.280
8905780,-0.997,-0.046,0.223,3.150,2.520,3.220
8905798,-1.006,0.124,0.218,2.030,0.910,5.460
8905820,-1.018,0.015,0.225,-4.690,-0.140,7.070
8905839,-1.037,-0.022,0.242,-7.210,0.000,6.510
8905864,-0.915,-0.014,0.261,3.710,4.200,2.380
8905884,-0.944,0.001,0.298,16.380,7.490,0.070
8905904,-0.995,0.024,0.198,9.030,6.020,-0.840
8905920,-0.932,0.103,0.248,6.370,14.140,-0.280
8905944,-1.015,-0.126,0.246,-9.380,17.500,2.520
8905964,-0.988,-0.085,0.268,-10.780,14.560,4.970
8905984,-0.895,-0.203,0.209,5.950,17.220,5.250
8905999,-0.993,0.078,0.287,27.160,27.720,9.310
8906024,-1.036,0.178,0.130,-11.900,32.830,8.540
8906040,-1.007,0.128,0.209,-34.230,24.360,9.240
8906064,-1.130,-0.109,0.176,9.940,17.990,14.000
8906084,-0.992,-0.056,0.182,27.580,20.650,12.320
8906104,-0.976,0.140,0.180,1.400,29.540,12.670
8906122,-0.903,0.013,0.223,-9.590,33.180,18.830
8906142,-1.213,-0.046,0.176,6.020,30.520,17.080
8906164,-1.121,-0.071,-0.121,28.070,23.310,13.020
8906185,-1.262,0.161,-0.140,48.090,20.370,14.140
8906207,-1.062,0.152,0.102,31.640,42.700,8.470
8906231,-0.916,-0.323,0.101,57.820,35.420,-8.470
8906250,-1.039,0.305,-0.117,28.770,41.090,-8.540
8906270,-1.038,-0.052,0.097,38.010,35.840,-26.040
8906295,-0.686,-0.616,0.076,57.260,52.850,-42.980
8906313,-0.626,1.062,0.889,88.970,53.130,-16.170
8906334,-0.911,-0.372,0.067,-297.430,165.690,-19.880
8906352,-1.148,-1.242,-0.473,248.640,4.690,-22.470
8906376,-0.760,-0.282,-0.458,-163.940,159.600,-16.940
8906396,-0.815,0.438,-0.353,28.840,92.330,-23.870
8906416,-0.902,-0.104,-0.151,27.930,106.330,-24.010
8906435,-0.989,0.230,-0.157,-11.410,102.340,-9.100
8906455,-1.212,0.099,-0.299,-38.990,102.060,-10.640
8906475,-1.228,0.081,-0.324,-27.720,73.640,11.130
8906495,-0.948,-0.298,-0.519,-31.710,93.870,-22.050
8906519,-0.963,-0.079,-0.346,17.080,23.520,-9.520
8906543,-0.777,-0.052,-0.348,3.220,54.950,-0.420
8906563,-0.898,-0.499,-0.393,25.410,45.780,8.890
8906580,-0.911,-0.069,-0.341,12.250,49.980,6.230
8906599,-1.182,0.085,-0.291,12.390,42.420,6.510
8906624,-1.109,-0.057,-0.399,37.800,14.140,14.140
8906644,-0.783,0.020,-0.450,12.460,21.140,7.210
8906668,-0.896,-0.117,-0.394,-16.940,19.670,-0.350
8906686,-1.039,-0.178,-0.471,-0.630,5.110,-7.350
8906705,-0.979,-0.016,-0.446,10.220,-5.530,-10.640
8906725,-0.926,-0.041,-0.408,0.980,-16.800,-10.430
8906748,-0.758,-0.037,-0.433,3.220,-5.390,-13.370
8906769,-0.921,-0.036,-0.370,4.200,-5.390,-14.140
8906789,-0.957,-0.051,-0.349,4.620,-3.640,-11.760
8906812,-0.875,-0.125,-0.403,9.520,-4.130,-5.670
8906832,-0.938,-0.224,-0.360,11.130,2.940,-2.660
8906852,-0.979,-0.109,-0.419,9.800,1.610,1.680
8906876,-1.025,-0.126,-0.188,-18.410,-31.010,-0.070
8906894,-0.842,0.365,-0.346,-51.800,8.470,3.780
8906914,-0.913,-0.212,-0.441,-15.680,2.590,2.870
8906938,-1.025,-0.137,-0.469,-2.170,-5.950,4.130
8906956,-0.964,-0.051,-0.421,-7.420,-10.080,7.420
8906980,-0.945,-0.140,-0.382,-5.530,-14.070,14.490
8907000,-0.932,-0.139,-0.414,-5.740,-15.050,17.360
8907019,-0.916,-0.073,-0.423,-13.230,-17.080,15.890
8907043,-1.043,-0.103,-0.378,2.450,-26.040,12.740
8907060,-0.933,-0.133,-0.397,10.290,-27.370,12.390
8907083,-0.924,-0.097,-0.352,12.250,-29.540,9.380
8907104,-0.982,-0.075,-0.372,10.220,-30.590,6.510
8907123,-0.923,-0.037,-0.336,-0.700,-19.390,2.030
8907146,-0.998,-0.149,-0.294,25.410,-35.420,4.760
8907168,-0.968,0.011,-0.299,12.600,-35.070,2.660
8907186,-0.907,-0.032,-0.345,-10.710,-36.750,-0.770
8907206,-0.933,-0.056,-0.356,-16.590,-35.700,-10.010
8907225,-0.962,0.055,-0.315,-17.920,-27.930,-13.580
8907250,-0.959,-0.017,-0.280,-3.570,-26.180,-12.600
8907268,-0.960,-0.041,-0.294,2.310,-30.590,-12.320
8907292,-0.986,-0.028,-0.244,-2.170,-37.450,-8.680
8907311,-1.024,-0.096,-0.220,3.290,-40.740,-7.280
8907331,-0.944,-0.112,-0.258,7.210,-46.200,5.180
8907350,-1.010,-0.076,-0.207,-0.350,-42.910,8.890
8907375,-1.025,-0.061,-0.200,-2.940,-49.210,13.230
8907393,-1.032,0.096,-0.140,-11.340,-48.370,16.240
8907410,-1.126,-0.056,-0.341,-20.160,-53.480,15.190
8907435,-0.941,-0.226,-0.203,-4.760,-71.120,18.340
8907454,-1.010,-0.163,-0.173,5.390,-62.650,19.460
8907478,-1.042,-0.001,-0.142,3.850,-62.020,17.570
8907497,-0.962,0.042,-0.092,3.010,-57.890,17.290
8907517,-1.081,0.128,-0.089,-15.260,-61.880,20.930
8907541,-1.032,-0.032,-0.081,-26.110,-62.020,21.840
8907560,-0.986,-0.015,-0.019,-9.030,-66.220,17.570
8907579,-1.038,0.057,-0.097,-24.710,-72.520,12.320
8907599,-0.980,-0.051,-0.067,-17.500,-83.020,9.870
8907624,-1.014,0.072,0.122,-19.530,-80.430,11.690
8907644,-0.998,0.042,0.111,-34.160,-76.650,16.380
8907662,-0.954,-0.249,0.133,-26.180,-73.780,18.340
8907684,-1.001,-0.179,0.147,-6.510,-73.920,20.090
8907705,-0.955,0.063,0.138,7.210,-72.380,14.770
8907725,-0.883,0.253,0.217,15.680,-73.150,13.720
8907749,-0.928,-0.029,0.293,5.390,-66.500,14.770
8907769,-0.926,-0.356,0.442,42.490,-53.270,12.810
8907786,-0.736,-0.093,0.461,61.810,-32.200,9.660
8907806,-0.874,0.351,0.381,21.490,-16.870,9.100
8907825,-1.026,0.248,0.305,-4.900,-5.390,3.990
8907845,-0.927,0.199,0.320,-1.820,2.590,-4.340
8907870,-0.946,0.190,0.275,0.210,6.090,-11.970
8907889,-0.963,0.177,0.291,-2.030,10.290,-16.170
8907909,-0.993,0.105,0.266,-3.780,14.070,-19.880
8907928,-0.994,0.142,0.246,-8.540,15.890,-20.860
8907950,-0.999,0.079,0.246,-11.900,15.050,-19.740
8907974,-0.996,0.019,0.191,-17.290,12.600,-19.110
8907994,-1.015,-0.060,0.189,-24.290,9.170,-18.480
8908012,-0.975,-0.011,0.211,-21.490,6.370,-19.180
8908035,-0.975,0.082,0.221,-25.690,8.540,-17.640
8908053,-1.047,0.054,0.248,-22.540,5.950,-19.530
8908077,-1.023,0.110,0.292,-20.650,10.710,-22.540
8908097,-1.024,0.092,0.289,-27.510,16.380,-27.160
8908117,-1.033,0.014,0.280,-23.590,21.980,-31.570
8908137,-1.034,0.096,0.271,-20.440,28.140,-33.390
8908157,-1.073,0.130,0.340,-9.310,31.850,-35.420
8908173,-1.145,0.115,0.207,-10.150,30.870,-31.990
8908194,-1.131,-0.066,0.161,6.510,27.440,-26.600
8908218,-1.082,-0.126,0.130,32.620,26.180,-20.160
8908238,-1.124,-0.127,0.140,41.160,17.920,-17.150
8908258,-1.078,-0.113,0.107,59.500,16.380,-15.400
8908281,-1.066,-0.115,0.013,79.310,12.670,-15.610
8908302,-1.153,0.060,-0.053,119.980,-14.560,-9.870
8908321,-0.998,0.101,-0.042,140.700,11.970,-4.970
8908341,-0.834,0.086,-0.026,156.520,18.410,13.160
8908361,-0.783,-0.047,0.129,153.440,6.020,19.600
8908385,-0.902,-0.341,0.488,138.180,-1.680,10.220
8908407,-1.017,-0.355,0.529,130.480,-2.450,5.600
8908427,-1.005,-0.386,0.553,60.830,-5.600,8.960
8908451,-1.180,-0.570,0.413,-14.420,-11.060,-2.940
8908471,-0.969,-0.522,0.349,-84.560,-1.610,-13.510
8908490,-0.928,-0.471,0.212,-100.870,0.070,-14.560
8908509,-0.973,-0.355,0.144,-106.050,0.490,-13.860
8908533,-0.974,-0.285,-0.021,-100.800,0.980,-10.710
8908557,-0.934,-0.257,0.113,-75.040,3.290,-7.490
8908575,-1.005,-0.293,0.079,-46.130,3.570,-4.130
8908594,-0.953,-0.187,-0.020,-40.600,8.750,10.080
8908619,-0.859,-0.061,-0.331,4.340,8.260,40.110
8908638,-1.327,-0.532,-0.651,8.890,-9.380,36.470
8908659,-0.721,-0.476,-0.642,-28.070,69.090,-8.890
8908677,-1.107,-0.173,-0.523,-38.780,90.930,-47.320
8908695,-0.940,-0.068,-0.427,-69.860,120.540,-58.380
8908715,-1.125,0.025,-0.427,-85.330,133.700,-49.560
8908739,-0.972,-0.204,-0.460,-69.090,126.700,-30.240
8908759,-0.731,-0.010,-0.100,-70.910,112.840,-17.080
8908774,-0.855,-0.400,0.092,-8.890,102.270,-16.940
8908799,-0.690,0.007,0.266,33.320,65.310,-14.490
8908817,-0.398,0.337,0.417,7.700,39.480,-1.050
8908839,-0.355,0.301,0.369,-26.180,-4.410,21.420
8908858,-0.231,0.015,-0.331,-11.830,-26.040,14.420
8908878,-1.368,-0.118,-0.145,-241.290,26.670,65.590
8908901,-1.335,-1.952,-0.516,116.340,-45.290,6.860
8908920,-2.460,0.679,1.137,63.980,-71.120,44.590
8908940,-1.166,0.259,0.200,49.980,-60.690,43.050
8908960,-1.371,0.237,0.253,-43.120,-54.530,64.820
8908980,-1.343,0.233,0.178,-88.410,-45.640,71.120
8909002,-1.268,-0.607,0.051,-43.890,-35.210,66.640
8909026,-1.064,-0.516,-0.056,70.420,-53.270,45.080
8909045,-0.901,0.593,0.004,67.830,-42.560,41.230
8909064,-0.858,0.322,-0.108,0.560,-21.210,43.190
8909084,-0.894,0.020,-0.058,3.220,-20.510,39.340
8909108,-0.942,-0.028,-0.074,20.790,-19.180,38.080
8909128,-0.970,-0.096,-0.072,36.470,-19.180,39.900
8909148,-0.944,-0.121,-0.034,30.730,-21.560,39.130
8909171,-0.959,0.000,-0.032,14.210,-21.630,37.170
8909192,-1.001,0.097,-0.022,-3.430,-23.310,35.000
8909210,-1.040,0.251,-0.039,-8.610,-23.030,37.170
8909232,-1.165,0.070,0.022,19.390,-36.120,38.780
8909251,-1.039,0.016,0.041,10.640,-28.070,33.390
8909271,-0.957,0.295,0.168,13.370,-25.130,30.520
8909296,-1.073,0.296,0.073,-12.950,-17.710,28.210
8909313,-1.098,0.125,0.056,-13.720,-18.900,27.720
8909333,-1.072,0.175,0.053,-10.150,-20.860,24.920
8909357,-1.038,0.272,0.074,-7.490,-18.830,21.980
8909375,-1.007,0.244,0.103,-9.240,-15.260,18.270
8909399,-0.981,0.198,0.129,-9.100,-7.210,13.160
8909418,-0.980,0.211,0.103,-9.660,-1.120,9.030
8909437,-0.961,0.243,0.113,-9.240,5.810,4.480
8909462,-0.991,0.175,0.067,-10.150,9.800,1.750
8909482,-0.994,0.168,0.064,-10.220,9.380,1.050
8909501,-0.986,0.197,0.027,-14.280,9.520,1.680
8909522,-0.953,0.097,0.013,-13.300,8.120,1.260
8909540,-1.010,0.142,0.023,-8.470,6.300,1.050
8909559,-1.048,0.152,-0.005,-8.750,1.680,2.660
8909584,-1.039,0.160,-0.020,-5.740,-6.160,5.810
8909604,-1.047,0.171,0.005,-3.920,-10.570,10.010
8909622,-1.015,0.133,0.007,-5.600,-13.580,12.180
8909646,-0.969,0.131,0.038,-6.440,-12.810,12.250
8909666,-0.980,0.233,0.135,-2.380,-8.890,9.730
8909684,-1.037,0.209,0.047,-7.420,-6.650,7.560
8909703,-1.025,0.192,0.034,-5.040,-9.800,8.190
8909728,-1.037,0.210,0.045,2.030,-13.720,7.490
8909748,-1.002,0.256,0.051,4.620,-14.770,5.950
8909768,-0.976,0.260,0.073,2.450,-13.510,3.990
8909787,-0.993,0.217,0.083,4.130,-12.320,2.170
8909808,-1.005,0.250,0.078,4.830,-11.760,1.120
8909828,-0.985,0.261,0.073,3.360,-10.150,-0.840
8909843,-0.971,0.248,0.075,1.330,-8.190,-2.660
8909868,-0.966,0.208,0.088,0.770,-6.020,-6.160
8909888,-0.968,0.234,0.134,2.660,-4.620,-8.260
8909907,-1.120,0.257,0.062,-3.360,-2.030,-6.300
8909928,-0.999,0.179,0.063,-5.880,-8.050,-3.920
8909947,-1.018,0.170,0.058,-4.200,-11.480,-2.240
8909971,-1.022,0.184,0.052,-7.070,-15.750,-0.070
8909990,-1.020,0.146,0.082,-8.680,-18.060,1.330
8910010,-1.024,0.165,0.096,-8.260,-21.070,5.390
8910030,-1.062,0.183,0.103,-6.580,-23.940,7.980
8910049,-1.064,0.243,0.099,-10.710,-26.320,9.380
8910074,-1.029,0.173,0.112,-13.580,-29.260,10.500
8910092,-1.003,0.180,0.118,-7.140,-31.710,10.360
8910113,-0.998,0.216,0.153,-0.140,-34.160,10.500
8910134,-0.956,0.230,0.161,12.110,-41.440,14.140
8910153,-0.908,0.186,0.175,6.440,-33.530,11.690
8910173,-0.982,0.193,0.210,13.160,-32.760,10.850
8910197,-0.934,0.237,0.209,7.840,-24.150,7.140
8910216,-0.948,0.266,0.222,-1.120,-18.760,5.670
8910236,-0.927,0.277,0.246,-8.750,-13.440,3.150
8910258,-0.928,0.287,0.247,-12.040,-6.370,0.210
8910280,-0.914,0.278,0.262,-12.740,-0.910,-4.690
8910300,-0.954,0.202,0.247,-12.320,3.500,-9.170
8910320,-0.951,0.134,0.266,5.950,9.450,-13.790
8910340,-0.915,0.209,0.278,15.470,18.340,-17.430
8910363,-0.916,0.205,0.289,18.760,31.850,-19.320
8910384,-0.915,0.113,0.308,27.510,47.180,-19.110
8910403,-1.050,0.071,0.328,42.070,60.690,-18.270
8910421,-1.280,0.137,0.227,63.350,54.950,-17.850
8910441,-1.226,0.244,0.161,55.300,55.580,-17.150
8910460,-1.217,0.016,0.108,23.100,52.220,-20.790
8910480,-1.188,0.109,0.064,-0.070,39.550,-23.660
8910500,-1.079,0.164,0.080,-19.600,29.330,-26.110
8910525,-1.030,0.040,0.026,-38.850,12.740,-20.650
8910543,-0.852,0.102,-0.044,-37.870,9.380,-21.700
8910565,-0.682,0.416,-0.056,-39.760,4.340,-11.760
8910588,-0.901,0.263,0.134,-62.300,-20.230,3.010
8910608,-0.995,-0.046,-0.002,-52.500,-44.940,3.780
8910628,-0.916,0.099,-0.080,-2.030,-56.210,-2.870
8910648,-0.877,0.681,-0.128,9.730,-61.810,20.370
8910672,-0.759,0.787,-0.236,-8.190,-46.900,69.790
8910692,-0.852,0.267,-0.188,0.910,-32.410,60.340
8910710,-0.994,0.246,-0.015,6.090,-38.710,52.710
8910732,-1.434,-0.594,0.321,59.150,-38.570,11.480
8910756,-1.089,-0.391,1.153,63.980,-86.730,-6.160
8910772,-0.719,0.671,0.604,29.190,-66.150,9.170
8910796,-0.582,0.459,-0.435,3.500,-47.180,22.820
8910815,-1.151,-0.064,-0.236,-58.310,35.420,-5.390
8910832,-1.463,0.134,0.548,-20.230,-24.710,9.450
8910852,-0.666,0.435,0.101,-66.290,31.640,5.530
8910875,-0.987,0.107,0.196,-31.920,9.870,2.030
8910895,-1.011,0.416,0.178,-1.330,1.260,-4.060
8910915,-1.059,0.392,0.196,-29.400,-6.790,-2.450
8910939,-0.971,0.225,0.171,-27.790,-2.030,5.320
8910958,-0.911,0.101,0.227,-30.520,-4.130,9.590
8910979,-1.034,0.148,0.227,-37.100,4.760,11.970
8910999,-1.054,0.029,0.215,-32.760,4.060,7.770
8911019,-0.920,0.346,0.239,-13.440,10.220,4.970
8911043,-0.925,0.284,0.220,-5.950,14.070,-2.730
8911062,-0.966,0.245,0.254,-1.540,19.740,-5.950
8911078,-0.961,0.153,0.224,-11.690,24.920,-3.430
8911103,-0.892,0.180,0.192,-2.800,22.120,-2.730
8911118,-1.005,0.281,0.169,-17.990,29.050,-1.330
8911143,-1.043,0.109,0.114,-24.150,22.540,-0.070
8911163,-1.037,0.246,0.090,-15.820,15.330,0.980
8911181,-1.062,0.173,0.107,-16.520,10.290,4.130
8911200,-1.056,0.162,0.105,-23.030,5.250,5.810
8911224,-1.070,0.049,0.115,-23.310,-0.980,10.360
8911248,-1.178,0.012,0.137,-7.560,-13.650,15.540
8911268,-0.980,0.194,0.132,-1.400,-15.050,15.050
8911287,-0.943,0.269,0.163,-10.430,-9.030,11.130
8911311,-0.917,0.203,0.204,-1.890,-8.190,3.430
8911331,-0.926,0.244,0.198,10.290,-4.620,-1.190
8911351,-0.964,0.177,0.227,17.150,-0.770,-3.710
8911366,-0.983,0.036,0.158,38.150,-0.980,-5.390
8911390,-0.984,0.256,0.178,53.620,-0.560,-2.520
8911410,-1.016,0.203,0.162,51.730,2.100,-2.380
8911429,-0.943,0.199,0.122,55.720,-4.760,-0.910
8911449,-0.963,0.267,0.136,49.350,-0.700,-3.640
8911473,-0.993,0.328,0.207,41.160,5.390,-8.190
8911493,-1.038,0.163,0.093,45.220,4.270,-8.400
8911513,-0.953,0.225,0.137,49.350,5.670,-9.730
8911529,-0.940,0.347,0.149,32.060,19.180,-10.850
8911548,-0.970,0.237,0.197,15.890,22.120,-10.220
8911573,-0.917,0.196,0.106,15.050,30.100,-11.690
8911592,-0.940,0.380,0.065,-16.100,33.390,-16.660
8911615,-1.077,0.367,0.036,-78.400,8.960,-15.190
8911636,-0.990,0.282,-0.057,-43.820,2.660,-5.600
8911656,-1.011,0.208,0.094,-38.220,7.000,-1.750
8911676,-0.963,0.382,0.044,-42.210,9.590,-8.260
8911696,-1.013,0.298,0.092,-69.440,22.400,-3.990
8911715,-1.135,0.046,0.051,-46.760,6.020,-9.380
8911740,-1.082,0.262,-0.123,-47.250,-7.840,-11.970
8911760,-1.178,0.123,-0.053,-40.390,-24.500,-11.550
8911779,-1.108,-0.068,0.055,-27.440,-31.290,-7.840
8911800,-0.996,0.010,0.107,-13.510,-33.670,-4.480
8911819,-1.028,0.016,0.076,-24.500,-35.700,-5.250
8911843,-0.970,-0.071,0.155,0.630,-36.120,-7.350
8911863,-0.990,-0.156,0.163,14.140,-32.620,-7.840
8911881,-1.005,0.234,0.214,40.670,-32.550,-8.820
8911903,-0.959,0.397,0.188,29.190,-25.200,-14.000
8911921,-0.971,0.361,0.192,25.130,-25.690,-15.540
8911941,-0.984,0.248,0.228,34.370,-23.520,-16.800
8911960,-0.893,0.388,0.203,3.850,-14.210,-14.140
8911985,-0.935,0.436,0.231,-52.780,-5.110,-11.970
8912005,-0.974,0.072,0.169,-77.770,1.050,-10.570
8912026,-0.993,-0.081,0.144,-48.930,-1.470,-15.890
8912045,-1.025,0.319,0.131,-45.920,-5.740,-17.290
8912065,-0.996,0.149,0.208,-42.070,-8.120,-26.670
8912089,-1.024,0.166,0.193,-38.430,-7.490,-32.410
8912108,-0.993,0.085,0.114,-29.330,-15.050,-34.790
8912128,-1.037,0.118,0.177,-17.430,-21.840,-37.310
8912147,-0.992,-0.003,0.217,-11.690,-21.490,-43.050
8912172,-1.016,-0.059,0.239,-8.890,-16.800,-46.480
8912190,-1.066,0.056,0.260,-1.190,-15.680,-47.110
8912213,-1.058,-0.057,0.233,2.030,-14.070,-49.770
8912233,-0.999,-0.072,0.273,13.720,-12.670,-53.200
8912254,-0.967,-0.131,0.256,31.080,-9.100,-57.260
8912273,-0.984,0.479,0.290,45.850,-13.020,-50.750
8912293,-1.110,0.513,0.170,4.690,-3.570,-40.040
8912317,-0.887,-0.083,0.163,-12.320,-10.640,-33.460
8912335,-0.945,-0.382,0.227,-4.550,-12.880,-26.880
8912359,-0.885,-0.241,0.224,-5.950,-5.530,-18.900
8912378,-0.928,-0.277,0.258,-29.190,-4.690,-16.660
8912399,-0.854,-0.370,0.265,-30.730,2.520,-14.140
8912418,-1.031,-0.417,0.362,-19.180,-1.610,-10.500
8912442,-1.075,-0.159,0.218,-11.200,-8.400,-1.750
8912460,-0.939,-0.145,0.196,-6.440,-8.680,-0.420
8912478,-0.912,-0.120,0.245,-5.460,-5.880,2.660
8912501,-0.961,-0.157,0.227,9.660,-24.990,3.850
8912520,-0.891,-0.271,0.311,-7.980,-1.820,4.760
8912541,-0.853,-0.319,0.401,-8.190,10.640,4.130
8912560,-0.940,-0.400,0.297,-8.820,-1.330,0.490
8912580,-0.971,-0.406,0.231,0.980,-4.340,-0.280
8912600,-0.978,-0.272,0.248,0.210,-4.200,0.070
8912624,-0.945,-0.212,0.204,-9.940,-3.640,-0.210
8912642,-0.934,-0.102,0.236,-12.460,0.140,0.140
8912661,-0.953,-0.171,0.288,-12.530,3.080,0.280
8912686,-0.976,-0.262,0.298,0.070,-1.820,0.210
8912705,-1.006,-0.279,0.270,10.640,-3.220,1.820
8912729,-0.982,-0.200,0.266,18.830,-2.240,5.740
8912749,-0.970,-0.204,0.234,22.750,-1.330,7.210
8912765,-0.977,-0.125,0.240,24.710,-1.330,9.520
8912784,-0.992,-0.199,0.232,28.420,-2.100,10.640
8912804,-0.939,-0.205,0.237,23.030,-1.050,10.780
8912829,-0.953,-0.348,0.276,22.820,-1.120,10.430
8912846,-0.966,-0.352,0.290,26.600,-2.800,9.940
8912866,-0.946,-0.285,0.268,31.710,-4.480,9.100
8912887,-0.870,-0.015,0.224,29.260,-0.420,10.570
8912907,-1.012,0.096,0.261,-0.420,8.750,17.010
8912927,-1.021,-0.079,0.280,-27.300,13.090,22.750
8912950,-0.961,-0.259,0.333,-26.600,13.720,27.650
8912971,-0.894,-0.129,0.215,8.050,12.040,28.770
8912995,-0.998,0.005,0.235,-10.220,10.570,35.770
8913015,-1.080,-0.036,0.304,-8.260,8.260,39.760
8913033,-1.052,-0.009,0.256,-14.280,6.510,47.600
8913053,-1.030,-0.053,0.163,1.960,0.210,54.110
8913076,-1.026,-0.061,0.170,21.490,-3.220,53.620
8913097,-0.998,0.086,0.179,20.860,-2.520,53.480
8913116,-1.030,0.031,0.203,17.080,-6.090,55.230
8913134,-0.996,-0.212,0.240,27.370,-6.160,53.130
8913153,-1.057,-0.148,0.241,75.390,-15.190,54.040
8913173,-1.000,-0.076,0.205,98.210,-17.290,49.210
8913193,-0.997,0.169,0.182,96.740,-15.540,42.630
8913218,-1.096,0.037,0.155,99.400,-15.260,29.120
8913237,-0.976,0.279,0.172,99.540,-11.130,26.530
8913254,-0.917,0.728,0.207,69.860,-12.880,28.350
8913274,-0.959,0.484,0.263,43.120,-2.940,23.380
8913298,-0.979,0.241,0.252,41.860,0.210,14.980
8913318,-0.934,0.300,0.235,37.030,5.040,12.110
8913335,-0.961,0.262,0.265,22.750,10.290,13.650
8913356,-0.947,0.252,0.183,19.110,12.180,14.280
8913375,-0.962,0.355,0.171,-13.300,16.240,13.510
8913400,-0.962,0.226,0.171,-21.070,15.400,11.480
8913420,-1.036,0.030,0.160,-4.200,7.350,7.980
8913440,-1.005,0.287,0.175,-1.890,5.670,8.750
8913462,-1.001,0.202,0.156,-6.930,3.080,8.540
8913481,-1.013,0.182,0.166,-3.920,-1.120,8.750
8913506,-1.033,0.121,0.173,0.630,-3.990,9.800
8913526,-1.002,0.100,0.203,9.870,-6.650,9.800
8913546,-0.991,0.161,0.217,11.200,-6.790,10.290
8913566,-0.967,0.207,0.212,11.270,-5.110,9.310
8913583,-0.897,0.351,0.326,42.490,3.430,8.540
8913607,-0.868,0.381,0.163,16.170,5.880,3.080
8913626,-0.915,0.298,0.153,12.880,3.920,1.190
8913647,-0.774,0.247,0.153,17.920,21.630,1.330
8913671,-0.873,0.264,0.084,8.260,10.500,-2.030
8913691,-1.006,0.173,0.159,-22.470,7.070,-0.070
8913707,-0.978,0.314,0.156,-16.310,1.680,-0.700
8913731,-0.958,0.239,0.147,-3.360,-1.610,-0.280
8913751,-0.986,0.270,0.174,-27.160,2.030,2.520
8913771,-0.976,0.239,0.179,-48.370,6.300,3.290
8913791,-0.961,0.231,0.187,-52.010,7.210,3.920
8913809,-0.944,0.291,0.203,-41.860,7.910,3.430
8913830,-0.984,0.147,0.170,-38.570,6.160,2.660
8913849,-0.938,0.374,0.201,-20.160,7.070,3.150
8913873,-0.955,0.350,0.174,-36.820,13.370,4.410
8913893,-0.973,0.183,0.183,-43.120,15.890,3.990
8913917,-0.966,0.177,0.185,-44.030,19.040,4.060
8913936,-1.001,0.149,0.170,-29.400,15.050,3.080
8913957,-0.961,0.375,0.203,-29.400,15.330,6.160
