Millis,AccelX,AccelY,AccelZ,GyroX,GyroY,GyroZ
157137718,-1.039,-0.185,0.017,-13.020,3.990,0.840
157137742,-1.027,-0.186,0.028,-7.980,3.640,1.190
157137762,-1.006,-0.184,0.031,-3.850,2.100,1.400
157137782,-0.985,-0.176,0.036,-1.470,1.050,1.610
157137802,-0.971,-0.160,0.035,-2.800,-0.630,0.840
157137826,-0.951,-0.158,0.037,-6.720,-0.630,0.420
157137845,-0.962,-0.166,0.030,-8.540,0.070,1.750
157137864,-0.986,-0.170,0.020,-11.690,0.350,3.640
157137885,-1.010,-0.188,0.014,-12.390,0.280,6.580
157137909,-1.022,-0.194,0.006,-12.530,0.770,9.520
157137929,-1.040,-0.210,-0.003,-10.850,1.120,11.270
157137948,-1.062,-0.214,-0.002,-6.930,1.050,11.200
157137971,-1.066,-0.217,0.006,-4.060,-1.190,8.960
157137993,-1.048,-0.217,0.006,-1.330,-3.360,4.340
157138011,-1.041,-0.207,-0.003,-0.560,-3.920,0.000
157138031,-1.058,-0.199,-0.003,-0.210,-5.390,-3.360
157138055,-1.060,-0.190,-0.003,-2.730,-7.770,-7.840
157138075,-1.043,-0.200,0.001,-3.430,-8.960,-9.450
157138093,-1.043,-0.213,-0.012,-1.820,-11.200,-10.430
157138113,-1.019,-0.206,-0.014,0.280,-13.930,-11.270
157138137,-0.988,-0.206,-0.003,2.310,-14.770,-12.740
157138157,-0.979,-0.207,0.005,3.360,-14.280,-13.860
157138180,-0.985,-0.203,0.009,5.390,-13.510,-14.350
157138201,-0.994,-0.205,-0.003,9.170,-13.790,-13.720
157138219,-0.990,-0.197,-0.001,11.410,-13.300,-12.670
157138238,-1.002,-0.177,0.002,11.900,-13.300,-12.250
157138263,-0.991,-0.166,-0.000,8.960,-12.810,-13.510
157138283,-0.984,-0.178,0.003,8.260,-10.990,-13.930
157138303,-0.991,-0.188,-0.003,9.800,-10.710,-13.790
157138322,-0.988,-0.185,-0.004,11.690,-9.520,-12.810
157138340,-0.989,-0.173,-0.007,12.530,-8.470,-10.920
157138363,-0.995,-0.161,-0.006,10.780,-6.300,-9.310
157138384,-1.010,-0.162,-0.007,8.820,-4.830,-7.910
157138408,-1.004,-0.169,-0.002,7.980,-2.870,-5.740
157138428,-1.002,-0.180,0.002,8.610,-1.890,-3.990
157138448,-0.998,-0.173,-0.007,9.800,-0.280,-3.430
157138466,-0.994,-0.171,-0.001,10.710,-0.280,-3.360
157138490,-0.988,-0.171,0.004,10.780,1.330,-2.800
157138510,-0.989,-0.166,0.012,10.710,2.450,-1.470
157138530,-0.988,-0.175,0.021,11.970,3.150,1.190
157138548,-0.991,-0.160,0.017,10.850,2.800,2.870
157138568,-0.987,-0.156,0.015,7.420,3.080,3.150
157138588,-0.991,-0.163,0.021,4.130,3.500,3.780
157138609,-1.004,-0.174,0.018,1.610,4.200,3.990
157138634,-1.008,-0.192,0.020,2.870,3.500,5.460
157138653,-0.998,-0.203,0.027,5.110,3.150,6.580
157138673,-1.009,-0.195,0.027,6.650,3.710,6.580
157138693,-1.012,-0.190,0.027,6.720,3.500,5.880
157138717,-1.012,-0.191,0.033,5.950,2.940,5.460
157138737,-1.011,-0.194,0.036,5.390,2.660,5.110
157138756,-1.016,-0.203,0.040,6.090,2.380,5.320
157138776,-1.026,-0.204,0.041,7.560,1.330,5.880
157138800,-1.026,-0.197,0.041,7.000,-0.420,4.480
157138819,-1.023,-0.192,0.041,5.180,-1.330,3.150
157138840,-1.032,-0.190,0.034,3.430,-2.660,0.280
157138860,-1.024,-0.192,0.029,2.170,-4.760,-2.590
157138879,-1.024,-0.208,0.023,2.590,-5.530,-3.780
157138899,-1.024,-0.197,0.018,3.990,-7.070,-4.690
157138923,-1.017,-0.190,0.011,3.850,-7.980,-5.460
157138941,-1.014,-0.184,0.008,3.080,-8.120,-5.880
157138958,-1.013,-0.179,0.009,1.820,-7.910,-6.230
157138983,-1.008,-0.189,0.004,1.540,-8.190,-6.300
157139003,-0.997,-0.186,0.005,2.380,-7.210,-5.460
157139022,-0.995,-0.187,0.001,2.940,-7.210,-5.110
157139042,-0.989,-0.184,0.001,3.430,-6.510,-4.690
157139061,-0.992,-0.176,-0.004,3.220,-5.390,-4.620
157139082,-0.988,-0.174,-0.006,2.310,-4.830,-4.340
157139106,-0.985,-0.177,-0.005,1.960,-3.080,-3.430
157139127,-0.980,-0.180,-0.003,3.150,-1.820,-1.890
157139146,-0.989,-0.186,0.009,4.970,-0.980,0.000
157139166,-0.995,-0.178,0.013,4.760,-0.420,0.910
157139187,-0.985,-0.172,0.015,2.590,1.330,1.540
157139206,-0.994,-0.179,0.010,1.610,2.030,1.960
157139226,-0.993,-0.180,0.011,1.120,2.100,2.590
157139246,-0.996,-0.195,0.019,2.100,2.870,3.570
157139262,-0.999,-0.197,0.019,3.010,3.080,3.920
157139283,-1.001,-0.198,0.028,4.340,4.900,4.410
157139303,-1.020,-0.191,0.020,6.020,4.200,4.620
157139327,-1.009,-0.193,0.027,6.440,4.060,3.780
157139346,-1.010,-0.198,0.038,6.790,3.500,3.780
157139365,-1.000,-0.189,0.041,5.880,3.780,3.150
157139389,-0.998,-0.205,0.036,7.140,2.380,3.290
157139405,-0.981,-0.211,0.053,9.660,2.240,3.500
157139424,-0.979,-0.215,0.056,13.440,2.030,4.270
157139447,-0.965,-0.224,0.056,19.460,1.890,6.160
157139465,-1.002,-0.188,0.058,25.900,0.630,8.330
157139489,-1.049,-0.179,0.145,42.490,-13.510,12.530
157139508,-1.132,-0.149,0.212,59.360,-24.780,18.900
157139532,-1.221,-0.163,0.396,83.440,-44.100,30.100
157139551,-1.314,-0.038,0.529,73.430,-68.880,33.250
157139568,-1.329,0.202,0.650,65.100,-87.290,21.630
157139587,-1.477,0.403,0.788,20.790,-109.550,2.310
157139612,-1.703,0.179,1.052,-59.780,-136.640,-43.050
157139631,-1.870,0.052,1.087,-90.440,-166.880,-60.620
157139651,-1.818,-0.097,1.020,-61.460,-194.880,-47.880
157139675,-1.993,-0.191,1.096,-12.880,-248.500,-30.590
157139695,-2.149,-0.202,1.215,31.500,-290.850,-14.490
157139713,-2.115,0.042,1.121,19.320,-319.340,-20.020
157139733,-2.174,-0.159,1.084,-5.110,-357.070,-31.990
157139753,-2.121,-0.288,1.049,-2.800,-393.680,-34.230
157139775,-2.056,-0.357,1.171,-29.540,-402.010,-56.770
157139796,-1.838,-0.679,1.015,-30.450,-403.760,-86.100
157139820,-1.583,-0.892,0.877,9.870,-415.030,-105.350
157139840,-1.367,-1.260,0.741,129.080,-418.670,-72.800
157139860,-0.998,-0.740,0.728,159.880,-403.340,-60.060
157139880,-0.689,-0.492,0.506,146.510,-385.280,-57.470
157139900,-0.767,-0.802,0.574,151.760,-367.990,-52.080
157139920,-0.874,-0.879,0.386,177.800,-387.030,-36.470
157139943,-0.628,-0.563,0.403,171.710,-389.690,-35.000
157139964,-0.578,-0.434,0.233,85.680,-354.340,-62.300
157139985,-0.508,-0.541,-0.100,56.490,-332.850,-75.180
157140006,-0.475,-0.508,-0.188,74.410,-314.650,-70.280
157140026,-0.535,-0.313,-0.444,83.860,-290.710,-61.110
157140050,-0.112,-0.184,-0.587,107.590,-257.670,-56.280
157140069,0.314,-0.154,-1.000,127.680,-218.190,-54.810
157140088,0.676,0.453,-0.994,125.930,-131.320,-69.860
157140107,0.666,0.626,-1.009,80.010,-70.770,-74.200
157140131,0.823,0.691,-0.834,69.160,-8.330,-58.520
157140151,0.683,0.622,-0.553,37.520,36.330,-50.120
157140170,0.688,0.404,-0.322,17.150,52.920,-39.550
157140193,0.540,0.300,-0.054,4.690,47.600,-35.350
157140216,0.551,0.205,0.202,10.850,29.330,-17.710
157140237,0.668,0.441,0.346,-1.330,11.270,-0.140
157140257,0.811,0.519,0.252,-8.400,-5.180,17.920
157140275,1.069,0.566,0.138,-27.860,-18.200,24.780
157140295,1.104,0.460,0.227,-35.000,-16.800,29.050
157140315,1.126,0.301,0.350,-44.170,-22.890,25.690
157140334,1.197,0.189,0.375,-32.690,-21.980,21.840
157140354,1.246,0.162,0.285,-14.980,-14.770,14.420
157140374,1.234,0.260,0.254,-1.610,-11.900,4.900
157140398,1.087,0.311,0.308,8.540,-8.820,2.100
157140419,0.996,0.355,0.343,11.480,-3.010,7.560
157140439,1.004,0.339,0.312,4.130,0.770,9.800
157140462,1.019,0.221,0.191,-8.820,4.200,-1.190
157140483,0.813,0.111,0.237,25.690,-7.490,-7.000
157140502,0.947,0.266,0.195,38.290,-5.320,-7.280
157140519,1.017,0.413,0.141,38.640,4.760,-3.990
157140538,1.009,0.606,0.078,14.490,12.530,-2.450
157140563,0.865,0.384,0.226,-22.120,28.630,-9.940
157140578,0.783,0.245,0.251,-21.770,14.350,-7.490
157140599,0.895,0.345,0.248,-17.640,12.880,-5.530
157140622,0.963,0.326,0.160,-39.130,19.250,-8.820
157140646,0.967,0.324,0.203,-31.500,17.500,-3.780
157140665,0.968,0.386,0.142,-35.560,25.200,-2.030
157140690,1.032,0.432,0.031,-54.810,35.770,-0.280
157140709,0.981,0.312,0.083,-74.900,44.800,-2.940
157140728,0.837,-0.114,0.037,-73.640,56.910,-5.600
157140753,0.882,-0.024,-0.102,-33.740,63.280,-1.190
157140773,0.953,0.180,-0.367,-34.510,106.260,0.560
157140793,0.890,0.225,-0.491,-54.880,147.070,-4.620
157140812,0.587,-0.042,-0.386,-70.840,202.090,-7.560
157140836,0.270,-0.229,-0.235,-41.650,242.550,3.360
157140857,0.077,-0.133,-0.244,-7.420,263.480,12.530
157140881,-0.054,-0.137,-0.178,4.550,280.770,10.570
157140900,-0.131,-0.108,-0.168,-2.800,309.120,6.370
157140919,-0.188,-0.131,-0.194,-38.500,339.290,-2.800
157140939,-0.375,-0.121,-0.155,-59.500,382.620,-10.500
157140959,-0.647,-0.079,-0.044,-73.010,371.070,-25.830
157140983,-0.747,-0.254,0.194,-83.160,370.230,-50.820
157141002,-0.948,-0.522,0.314,-90.580,425.460,-49.770
157141023,-1.313,-0.399,0.418,-17.710,421.260,-22.680
157141043,-1.417,0.101,0.513,3.780,409.220,-25.340
157141061,-1.550,0.301,0.450,-25.200,440.440,-38.150
157141083,-2.136,-0.183,0.292,-43.820,430.010,-47.810
157141107,-2.488,-0.430,0.353,55.510,374.570,-21.630
157141127,-2.616,0.592,0.882,78.330,362.530,-19.250
157141151,-2.725,0.981,0.890,-14.840,316.190,-3.290
157141170,-2.515,0.887,0.800,-47.880,269.640,11.410
157141190,-2.145,0.792,0.492,-110.040,237.650,40.040
157141210,-1.886,0.444,0.320,-139.230,223.440,41.160
157141230,-1.721,0.150,0.249,-113.400,210.140,40.460
157141254,-1.728,0.173,0.312,-108.850,202.090,12.740
157141275,-1.827,-0.082,0.440,-90.160,174.230,-1.190
157141294,-1.743,-0.166,0.521,-19.110,136.640,-1.890
157141317,-1.525,-0.143,0.357,29.470,110.180,5.810
157141341,-1.314,0.050,0.139,93.520,81.900,20.860
157141360,-1.240,0.527,0.323,81.830,69.930,5.950
157141380,-1.311,0.400,0.266,34.020,45.010,-3.360
157141399,-1.205,0.142,0.319,4.830,22.050,7.630
157141424,-1.113,0.076,0.404,12.180,18.900,16.240
157141442,-1.158,0.052,0.449,18.480,11.620,13.720
157141466,-1.110,0.201,0.317,18.480,-13.580,10.920
157141485,-0.919,0.219,0.235,5.320,-9.940,6.720
157141503,-1.083,0.039,0.233,6.370,-9.450,7.700
157141524,-1.167,0.035,0.257,17.850,-27.230,15.400
157141547,-1.127,0.059,0.178,14.700,-37.730,13.440
157141571,-1.103,0.184,0.179,7.770,-51.800,9.730
157141588,-1.133,0.242,0.116,-14.210,-67.270,0.840
157141608,-1.134,0.142,0.140,-35.210,-89.740,-10.780
157141629,-1.296,0.111,0.263,-60.270,-110.950,-21.910
157141650,-1.298,0.117,0.323,-94.570,-128.030,-47.530
157141671,-1.443,0.136,0.560,-129.780,-163.030,-85.120
157141693,-1.595,-0.047,0.757,-168.070,-186.970,-141.400
157141712,-1.660,-0.129,0.898,-171.500,-202.510,-147.840
157141737,-1.788,-0.291,1.090,-112.560,-216.580,-157.360
157141757,-2.041,-0.376,1.106,-23.450,-246.890,-146.510
157141775,-2.079,-0.239,1.104,27.790,-273.280,-132.580
157141799,-2.173,-0.111,1.163,54.460,-297.010,-130.130
157141816,-2.214,-0.046,1.245,49.490,-323.330,-134.050
157141840,-2.197,-0.183,1.146,54.810,-350.350,-135.100
157141859,-2.013,-0.222,0.970,57.190,-368.060,-139.790
157141878,-1.832,-0.319,0.911,63.070,-373.730,-139.720
157141903,-1.603,-0.332,0.830,81.690,-359.310,-124.740
157141923,-1.422,-0.309,0.726,96.180,-352.170,-110.950
157141942,-1.301,-0.490,0.570,116.200,-348.320,-97.160
157141963,-1.015,-0.412,0.462,135.870,-338.450,-80.150
157141983,-0.912,-0.329,0.591,109.970,-315.000,-83.510
157142003,-0.866,-0.577,0.454,122.850,-297.570,-78.750
157142020,-0.765,-0.573,0.325,149.240,-298.200,-66.570
157142040,-0.494,-0.364,0.341,156.030,-321.860,-51.240
157142060,-0.266,-0.184,0.317,153.720,-254.730,-44.590
157142084,-0.168,-0.068,0.170,142.870,-234.990,-32.060
157142104,0.122,0.207,0.226,98.630,-207.760,-46.410
157142124,-0.004,-0.166,0.174,112.980,-179.340,-34.230
157142143,0.055,-0.168,0.227,148.750,-166.740,-8.960
157142167,0.083,-0.121,0.181,189.630,-165.410,13.650
157142187,0.172,-0.018,0.026,168.490,-161.700,13.650
157142202,0.344,0.004,-0.032,149.240,-163.520,-1.400
157142223,0.492,-0.146,-0.149,135.520,-153.020,-10.920
157142244,0.616,-0.143,-0.143,182.560,-135.730,9.660
157142263,0.623,-0.051,-0.351,194.740,-101.010,18.550
157142288,0.914,0.331,-0.630,160.440,-95.970,18.410
157142308,1.034,0.498,-0.598,69.370,-47.110,0.070
157142328,0.984,0.182,-0.629,32.270,-19.320,-7.420
157142347,0.985,0.087,-0.581,45.920,-0.140,7.980
157142370,0.932,0.255,-0.376,37.170,18.270,11.410
157142390,0.890,0.241,-0.229,17.500,18.340,6.300
157142409,0.969,0.359,-0.056,-5.600,9.940,3.780
157142434,0.897,0.218,0.094,-22.470,13.790,-2.030
157142454,0.897,0.215,0.114,-18.760,-4.760,3.850
157142472,0.920,0.392,0.289,-32.620,-10.220,1.960
157142494,0.965,0.464,0.407,-48.370,4.900,-3.220
157142514,1.045,0.447,0.336,-46.900,9.170,-3.220
157142534,1.041,0.506,0.242,-21.000,13.650,5.110
157142557,1.062,0.466,0.333,12.460,20.160,14.420
157142577,0.988,0.554,0.589,6.020,20.020,3.850
157142598,0.924,0.180,0.516,-13.720,23.590,-4.620
157142619,0.946,0.100,0.387,-16.030,10.710,-15.960
157142639,0.972,0.123,0.258,14.910,-2.940,-16.100
157142663,1.018,0.391,0.173,1.050,-3.710,-18.480
157142683,0.985,0.447,0.144,-2.520,-1.400,-15.540
157142703,0.955,0.451,0.133,0.910,4.130,-8.050
157142722,0.864,0.414,0.216,-10.500,6.790,-6.020
157142745,0.863,0.396,0.238,-22.540,6.020,-4.270
157142764,0.813,0.421,0.221,-29.610,5.740,-3.220
157142789,0.805,0.316,0.227,-36.260,5.740,-3.570
157142806,0.831,0.312,0.158,-40.320,10.010,-2.450
157142826,0.909,0.376,-0.069,-36.260,16.310,4.200
157142850,0.928,0.453,-0.337,-46.130,31.640,15.610
157142870,0.903,0.445,-0.468,-96.670,59.640,11.480
157142889,0.847,0.228,-0.510,-168.490,96.880,-0.840
157142910,0.769,-0.329,-0.488,-181.720,140.000,-5.390
157142934,0.735,-0.268,-0.540,-109.410,180.950,7.560
157142953,0.576,-0.094,-0.522,-122.080,209.440,-0.140
157142973,0.291,-0.119,-0.317,-165.550,246.820,-14.560
157142995,0.093,-0.323,-0.108,-185.010,257.530,-9.870
157143018,0.063,-0.283,-0.279,-154.000,280.490,14.070
157143039,-0.240,-0.489,-0.033,-108.430,325.780,27.580
157143054,-0.568,-0.257,0.069,-100.240,325.080,37.310
157143079,-0.586,-0.038,0.187,-128.100,334.180,49.840
157143103,-0.616,-0.022,0.147,-165.130,376.600,56.910
157143121,-1.044,-0.296,0.221,-127.400,399.280,81.830
157143140,-1.200,-0.257,0.228,-89.810,384.020,101.920
157143160,-1.323,-0.182,0.532,-75.530,413.840,109.410
157143182,-1.462,-0.002,0.377,-83.230,472.710,122.150
157143199,-1.465,0.454,-0.415,-98.350,545.440,96.390
157143219,-2.630,0.225,-0.194,-164.850,511.560,55.090
157143239,-3.047,-0.537,-0.029,-179.480,438.340,68.460
157143261,-2.925,-0.782,0.267,-8.750,398.650,156.940
157143285,-3.111,-0.267,0.415,46.270,402.500,169.820
157143305,-3.147,-0.335,0.430,85.400,369.110,153.790
157143324,-2.839,-0.172,0.169,101.780,296.940,118.580
157143341,-2.361,-0.089,0.035,94.290,213.780,92.470
157143360,-2.140,0.171,0.095,115.430,168.420,67.760
157143385,-1.993,0.634,0.074,53.410,90.160,9.310
157143405,-1.489,0.974,0.193,-46.620,75.670,-60.410
157143427,-1.241,0.767,0.155,-155.470,87.780,-107.870
157143447,-1.236,0.505,0.081,-227.150,85.330,-134.260
157143471,-1.208,0.147,0.138,-270.200,62.860,-134.190
157143486,-1.181,-0.245,0.291,-267.960,52.710,-116.340
157143510,-1.231,-0.537,0.453,-238.420,38.850,-82.740
157143530,-1.294,-0.864,0.453,-185.500,26.460,-50.820
157143554,-1.200,-1.022,0.392,-69.510,-14.630,-2.800
157143572,-1.025,-0.892,0.347,7.490,-22.610,28.630
157143589,-0.983,-0.691,0.333,67.480,-24.570,43.400
157143609,-1.039,-0.500,0.245,113.750,-34.790,54.320
157143634,-1.029,-0.219,0.170,149.800,-55.930,61.390
157143654,-1.029,0.058,0.230,115.430,-62.300,36.470
157143674,-1.071,0.212,0.348,43.540,-63.140,-13.930
157143690,-1.067,0.075,0.472,-23.660,-47.390,-46.410
157143714,-1.399,0.024,0.518,-23.240,-77.700,-77.840
157143734,-1.627,-0.296,0.527,-50.610,-99.260,-104.160
157143753,-1.810,-0.773,0.502,-36.190,-140.000,-114.940
157143773,-2.097,-0.780,0.599,44.660,-181.440,-89.250
157143792,-2.260,-0.493,0.648,77.000,-214.130,-80.780
157143811,-2.513,-0.439,0.663,76.230,-247.870,-121.450
157143836,-2.769,-0.523,0.680,57.260,-291.410,-153.440
157143856,-2.915,-0.720,0.591,83.580,-338.100,-167.440
157143876,-2.889,-0.688,0.496,108.850,-364.840,-179.480
157143895,-2.896,-0.713,0.441,127.750,-392.280,-187.950
157143916,-2.762,-0.687,0.426,144.200,-402.640,-182.070
157143932,-2.545,-0.616,0.375,162.400,-404.390,-168.070
157143956,-2.211,-0.591,0.237,177.310,-402.570,-147.700
157143976,-2.029,-0.750,-0.040,197.400,-403.060,-131.880
157143994,-1.837,-0.648,-0.120,206.850,-410.340,-117.670
157144016,-1.477,-0.405,-0.102,185.780,-402.710,-120.050
157144037,-1.027,-0.238,-0.050,169.540,-383.250,-111.930
157144056,-0.856,-0.185,-0.166,134.260,-382.200,-113.330
157144076,-0.586,-0.245,-0.087,109.340,-359.870,-104.860
157144101,-0.549,-0.302,-0.256,142.240,-312.830,-79.660
157144119,-0.289,-0.106,-0.258,149.520,-284.480,-58.940
157144141,-0.114,-0.126,-0.408,167.930,-244.370,-35.630
157144165,0.092,0.257,-0.462,153.300,-212.240,-32.830
157144185,0.285,0.264,-0.388,96.810,-187.390,-39.550
157144202,0.408,0.135,-0.421,113.680,-136.780,-32.760
157144225,0.423,0.110,-0.353,140.350,-100.660,-18.760
157144244,0.473,0.223,-0.175,135.800,-86.940,-18.410
157144268,0.417,0.073,0.038,133.280,-74.550,-8.680
157144289,0.625,0.380,-0.053,131.600,-48.020,-6.860
157144309,0.791,0.232,-0.088,154.700,-35.000,13.580
157144324,0.837,0.500,-0.103,143.570,-40.320,25.550
157144344,0.963,0.656,-0.028,82.740,-31.080,18.830
157144364,1.020,0.525,-0.079,50.260,-26.320,24.850
157144389,1.151,0.328,-0.126,59.430,-30.100,43.330
157144409,1.200,0.427,-0.096,43.680,-20.650,44.660
157144429,1.218,0.325,0.010,-18.410,-17.780,25.830
157144449,1.171,0.136,-0.028,-27.860,-9.450,19.670
157144469,1.164,0.257,-0.099,-10.780,-19.530,22.960
157144489,1.438,0.569,-0.094,-38.570,-6.160,21.840
157144509,1.144,0.387,0.087,-88.200,28.420,4.060
157144533,0.869,-0.269,0.421,-100.310,17.780,-22.260
157144548,0.892,-0.429,0.470,-26.740,25.060,-23.660
157144572,0.931,0.208,0.425,-2.940,18.130,-36.120
157144593,0.956,0.505,0.385,-17.710,24.990,-34.860
157144613,0.887,0.619,0.578,-28.350,27.510,-27.370
157144633,0.806,0.519,0.569,-28.280,18.830,-16.870
157144653,0.755,0.494,0.539,-25.200,13.370,-9.940
157144673,0.739,0.438,0.470,-26.040,1.050,-3.640
157144691,0.755,0.405,0.399,-23.800,-7.140,3.290
157144713,0.855,0.482,0.179,-27.930,-2.730,14.560
157144737,0.973,0.616,-0.124,-38.640,13.650,32.270
157144757,1.037,0.609,-0.411,-72.590,62.230,42.350
157144777,1.049,0.433,-0.572,-96.250,103.950,53.970
157144795,0.947,0.344,-0.542,-115.780,151.620,47.740
157144817,0.727,0.186,-0.621,-172.410,200.760,36.120
157144840,0.514,-0.322,-0.525,-185.360,217.840,29.050
157144860,0.305,-0.283,-0.441,-154.420,220.150,44.870
157144880,0.389,-0.145,-0.429,-165.830,252.000,47.810
157144904,0.203,-0.325,-0.509,-185.500,299.040,62.300
157144921,-0.226,-0.447,-0.469,-153.790,307.580,89.600
157144943,-0.363,-0.375,-0.263,-133.630,321.370,100.870
157144963,-0.615,-0.281,-0.110,-153.230,384.090,96.320
157144982,-0.907,-0.430,-0.058,-176.680,428.330,92.400
157145007,-1.253,-0.825,-0.183,-110.180,428.120,122.220
157145027,-1.461,-0.925,-0.065,25.480,426.300,155.190
157145043,-1.604,-0.444,-0.107,77.350,421.260,168.630
157145067,-1.661,-0.135,-0.336,111.300,447.440,152.950
157145087,-2.048,0.064,-0.234,120.050,502.810,123.620
157145104,-2.614,0.355,-0.191,86.800,488.180,96.320
157145124,-2.912,0.568,-0.187,48.370,434.140,83.790
157145148,-2.939,0.655,-0.190,-32.830,425.810,56.700
157145167,-3.176,0.383,-0.334,-42.350,368.550,47.460
157145186,-3.119,0.176,-0.224,-42.490,316.680,46.130
157145210,-2.959,0.065,-0.158,-33.040,259.560,36.750
157145230,-2.685,0.051,-0.151,-30.170,188.930,22.960
157145249,-2.244,0.192,-0.122,-29.190,163.660,2.800
157145269,-1.908,0.437,-0.050,-54.670,161.070,-26.250
157145290,-1.823,0.536,0.078,-111.510,157.010,-57.470
157145310,-1.754,0.347,0.205,-149.730,147.280,-59.220
157145330,-1.659,-0.059,0.286,-143.430,122.010,-38.780
157145348,-1.538,-0.331,0.396,-107.310,105.490,-6.300
157145372,-1.390,-0.413,0.493,-50.820,94.990,32.620
157145390,-1.321,-0.283,0.503,-25.760,87.640,53.970
157145414,-1.328,-0.225,0.462,-9.730,66.920,68.180
157145431,-1.246,-0.186,0.429,1.750,36.890,73.430
157145453,-1.129,-0.147,0.417,6.370,16.240,73.220
157145473,-1.092,-0.090,0.340,-3.360,4.340,64.190
157145497,-1.118,-0.191,0.268,0.630,-19.460,46.970
157145515,-1.147,-0.360,0.198,24.010,-42.630,42.000
157145539,-1.149,-0.364,0.188,60.270,-68.110,33.740
157145558,-1.199,-0.324,0.175,76.510,-86.310,26.460
157145578,-1.229,-0.253,0.164,92.190,-107.310,21.350
157145602,-1.225,-0.113,0.164,81.340,-121.170,7.280
157145621,-1.314,-0.084,0.148,66.430,-128.660,-10.710
157145642,-1.398,-0.095,0.137,69.090,-140.000,-22.820
157145662,-1.647,-0.121,0.272,80.640,-163.940,-38.850
157145682,-1.977,-0.039,0.377,66.150,-190.050,-53.830
157145701,-2.288,0.028,0.468,67.200,-220.080,-60.760
157145720,-2.752,0.181,0.486,81.620,-266.490,-57.120
157145740,-3.006,0.273,0.381,72.730,-323.470,-66.080
157145764,-3.429,0.456,0.402,98.840,-387.100,-51.310
157145779,-3.583,0.732,0.424,72.380,-436.870,-51.450
157145804,-3.294,0.610,0.383,34.790,-466.340,-57.470
157145824,-3.061,0.272,0.081,47.950,-485.590,-36.120
157145843,-2.800,0.203,0.113,59.920,-499.520,-12.530
157145862,-2.409,0.062,0.002,48.580,-507.010,-0.910
157145886,-2.099,-0.062,-0.060,37.870,-507.990,-2.380
157145906,-1.949,-0.290,0.025,18.410,-483.560,-12.250
157145930,-1.677,-0.492,-0.220,23.590,-475.930,-25.830
157145950,-1.169,-0.400,-0.424,32.480,-467.530,-33.460
157145968,-1.019,-0.535,-0.202,34.580,-460.320,-48.790
157145988,-0.969,-0.536,0.004,80.150,-451.150,-54.670
157146012,-0.510,-0.358,-0.103,51.100,-344.960,-57.190
157146032,-0.326,-0.387,-0.422,99.050,-279.090,-34.510
157146047,-0.248,-0.042,-0.514,89.320,-269.570,-33.530
157146067,-0.083,-0.171,-0.571,44.590,-222.320,-54.180
157146088,0.068,-0.224,-0.421,66.010,-227.920,-48.790
157146108,0.295,-0.250,-0.322,94.640,-145.600,-52.780
157146131,0.282,-0.162,-0.408,144.550,-132.650,-37.310
157146151,0.439,0.220,-0.214,140.840,-115.570,-47.740
157146171,0.536,0.244,-0.163,105.840,-108.990,-56.070
157146190,0.854,0.175,-0.205,103.180,-77.070,-53.270
157146210,0.951,0.475,-0.271,154.280,-60.690,-23.800
157146235,0.992,0.865,-0.342,89.390,-40.950,-16.170
157146250,1.176,0.941,-0.265,52.360,-14.560,-7.000
157146275,1.141,0.723,-0.229,-0.420,4.760,5.950
157146294,0.997,0.287,-0.211,15.470,4.970,31.920
157146313,1.108,0.522,-0.060,10.080,-6.580,39.060
157146333,1.173,0.313,0.143,-51.520,11.970,0.070
157146353,1.144,0.024,0.088,-50.540,10.640,4.550
157146376,1.185,0.179,0.172,-7.420,17.080,0.910
157146397,1.142,0.292,0.317,11.760,17.920,-5.320
157146415,1.113,0.451,0.355,28.700,17.920,-6.300
157146436,0.957,0.624,0.399,-4.130,23.030,-16.310
157146460,0.785,0.220,0.579,-7.840,14.000,-20.370
157146479,0.753,0.254,0.523,12.320,-2.730,-20.160
157146503,0.798,0.529,0.399,29.610,-3.570,-16.800
157146520,0.794,0.625,0.390,1.540,-7.630,-18.970
157146540,0.804,0.603,0.316,-8.330,-4.130,-9.660
157146559,0.796,0.540,0.204,-6.650,-4.620,2.520
157146584,0.782,0.480,0.254,-11.900,-6.580,8.260
157146604,0.746,0.287,0.279,-19.950,-12.390,7.980
157146622,0.761,0.326,0.178,-16.730,-14.490,9.170
157146641,0.860,0.350,0.071,-19.600,-8.820,12.810
157146661,0.923,0.619,-0.125,-17.080,5.670,23.310
157146681,0.992,0.613,-0.417,-14.700,30.030,40.670
157146706,0.978,0.683,-0.685,-43.890,82.180,59.430
157146725,0.711,0.511,-0.673,-71.610,102.340,71.680
157146744,0.543,0.307,-0.580,-92.120,129.640,81.690
157146764,0.368,0.034,-0.431,-112.770,169.750,87.990
157146784,0.255,-0.274,-0.459,-118.300,205.170,89.810
157146808,0.132,-0.228,-0.392,-98.980,255.290,94.850
157146827,-0.002,-0.134,-0.369,-124.950,293.230,85.540
157146852,-0.172,-0.278,-0.341,-145.460,333.270,84.140
157146871,-0.437,-0.313,-0.133,-161.910,372.890,83.860
157146889,-0.588,-0.417,-0.050,-157.570,423.500,85.260
157146913,-0.818,-0.109,-0.142,-203.560,443.240,68.740
157146937,-1.176,-0.825,-0.106,-210.000,472.430,61.740
157146952,-1.357,-1.190,-0.193,-139.440,482.650,84.840
157146976,-1.647,-0.817,0.200,12.740,447.930,150.640
157146997,-1.681,0.135,0.447,47.110,478.030,150.080
157147015,-1.971,-0.115,0.093,46.480,466.130,129.710
157147033,-2.124,-0.366,-0.117,80.150,472.640,119.140
157147052,-2.715,0.168,0.225,118.230,478.870,118.720
157147076,-3.027,0.428,0.613,47.180,430.430,104.090
157147097,-2.900,0.372,0.401,2.380,425.950,99.890
157147116,-2.976,0.314,0.154,-12.250,403.410,97.370
157147135,-2.887,0.299,0.012,-29.050,322.770,88.550
157147157,-2.633,0.140,0.126,-37.660,260.190,71.260
157147177,-2.585,-0.107,0.302,-15.120,180.740,52.500
157147196,-2.096,0.031,0.304,27.580,110.880,35.000
157147214,-1.729,0.399,0.261,32.970,82.110,10.430
157147234,-1.458,0.677,0.222,-17.220,76.370,-39.690
157147258,-1.381,0.523,0.157,-88.550,66.010,-77.350
157147278,-1.331,0.080,0.210,-108.500,46.410,-68.880
157147298,-1.323,-0.313,0.326,-85.050,23.380,-41.790
157147318,-1.305,-0.322,0.564,-36.750,0.700,-15.400
157147337,-1.212,-0.275,0.646,-20.300,-12.670,-1.750
157147361,-1.025,-0.182,0.571,0.560,-15.680,11.130
157147381,-1.030,-0.011,0.450,4.130,-18.340,14.770
157147401,-0.886,0.093,0.378,-8.610,-26.460,13.510
157147420,-0.813,0.019,0.321,-17.920,-13.650,7.840
157147444,-0.938,-0.129,0.179,-9.660,-12.390,9.800
157147465,-1.004,-0.248,0.198,29.820,-29.260,18.760
157147481,-1.052,-0.251,0.210,53.060,-38.570,22.890
157147502,-1.099,-0.216,0.207,82.740,-46.550,24.990
157147523,-1.334,-0.091,0.337,100.030,-58.520,18.200
157147542,-1.540,0.063,0.446,95.760,-81.760,10.150
157147562,-1.776,0.398,0.599,75.320,-117.530,4.830
157147586,-1.808,0.674,0.474,1.260,-148.540,-15.540
157147605,-2.163,0.414,0.526,-19.320,-179.130,-17.150
157147628,-2.376,0.407,0.699,-36.610,-234.640,-36.120
157147648,-2.669,0.415,0.895,-77.840,-286.090,-72.170
157147665,-2.978,0.264,1.031,-92.050,-324.030,-100.170
157147684,-3.090,0.118,0.846,-88.410,-363.720,-117.110
157147709,-2.918,0.036,0.488,-36.050,-418.670,-108.640
157147729,-2.856,-0.175,0.524,-1.400,-441.210,-100.450
157147748,-2.774,-0.162,0.511,17.290,-457.800,-106.190
157147769,-2.308,-0.370,0.257,17.710,-451.150,-117.250
157147788,-2.009,-0.436,0.104,41.160,-440.440,-119.140
157147812,-1.728,-0.685,0.081,85.960,-428.120,-101.780
157147832,-1.594,-0.797,0.137,161.280,-404.670,-55.720
157147852,-1.389,-0.187,0.052,152.810,-402.500,-52.220
157147869,-1.162,-0.429,0.007,111.020,-388.710,-66.850
157147893,-1.013,-0.544,0.000,111.020,-382.550,-55.230
157147913,-0.792,-0.318,0.000,127.750,-356.580,-39.270
157147931,-0.608,-0.097,0.071,98.560,-337.330,-46.480
157147955,-0.747,-0.321,-0.262,123.620,-320.180,-46.270
157147973,-0.730,-0.758,-0.256,173.670,-350.980,-16.170
157147992,-0.441,-0.207,-0.373,209.090,-358.400,8.750
157148017,-0.067,0.370,-0.445,135.520,-369.390,-25.480
157148037,0.353,0.086,-0.745,65.660,-271.250,-48.790
157148057,0.159,-0.192,-0.854,100.800,-227.150,-38.920
157148075,0.392,0.144,-0.976,115.080,-224.070,-25.200
157148098,0.742,0.330,-0.777,73.710,-185.220,-34.230
157148117,0.834,0.125,-0.919,66.290,-92.680,-37.030
157148136,0.848,0.241,-0.921,77.770,-66.010,-30.380
157148156,1.063,0.387,-0.802,56.140,-21.490,-38.920
157148181,1.060,0.358,-0.602,40.600,12.810,-32.200
157148201,1.055,0.488,-0.187,12.040,36.960,-25.130
157148221,1.078,0.479,-0.017,14.840,36.470,-6.930
157148241,1.198,0.747,0.023,3.360,28.280,-9.450
157148261,1.264,0.565,0.338,-23.450,9.800,-5.040
157148281,1.047,0.600,0.356,-25.270,1.400,1.470
157148300,1.070,0.428,0.376,-42.420,-14.000,0.210
157148319,1.013,0.420,0.289,-43.400,-22.680,-1.540
157148338,1.002,0.387,0.110,-42.210,-24.290,-5.880
157148358,0.992,0.394,0.049,-25.480,-27.230,-5.390
157148381,0.917,0.397,0.010,-20.160,-9.730,-4.480
157148401,0.895,0.362,-0.049,-6.090,-0.490,0.210
157148421,0.899,0.405,-0.159,-10.640,14.630,-1.050
157148441,0.866,0.323,-0.194,-4.200,26.740,1.330
157148461,0.888,0.388,-0.278,2.940,38.360,4.130
157148480,0.923,0.420,-0.337,8.190,58.730,8.680
157148505,0.947,0.370,-0.451,-6.580,96.320,15.470
157148529,0.972,0.443,-0.409,-25.550,127.540,17.290
157148549,0.903,0.402,-0.386,-74.760,169.750,9.520
157148569,0.821,0.195,-0.423,-97.860,198.310,6.860
157148589,0.675,0.029,-0.425,-100.730,225.470,7.490
157148609,0.476,0.021,-0.409,-108.010,247.170,7.420
157148629,0.321,0.014,-0.365,-124.390,276.570,7.350
157148649,0.176,0.005,-0.393,-137.970,306.810,8.050
157148667,0.018,0.002,-0.404,-156.240,337.400,8.050
157148690,-0.270,-0.226,-0.429,-168.280,372.260,9.940
157148714,-0.514,-0.376,-0.430,-153.300,375.970,31.710
157148738,-0.647,-0.252,-0.203,-125.090,403.830,41.580
157148758,-0.880,-0.394,-0.203,-138.040,454.230,33.040
157148775,-1.209,-0.528,-0.268,-125.020,475.370,36.820
157148799,-1.513,-0.456,-0.153,-100.240,456.470,43.470
157148818,-1.748,-0.239,-0.003,-74.200,451.150,52.220
157148835,-1.821,-0.144,-0.048,-48.020,444.010,72.310
157148858,-1.952,-0.126,-0.352,-35.980,466.480,77.560
157148882,-2.404,-0.236,-0.431,-1.680,478.940,67.270
157148902,-2.953,-0.022,-0.540,24.220,444.990,94.150
157148921,-2.996,0.168,-0.385,31.080,409.920,90.440
157148941,-3.312,0.255,-0.159,30.100,381.500,80.080
157148962,-3.324,0.236,0.069,27.230,325.430,67.340
157148982,-3.165,0.356,0.319,22.680,271.460,55.090
157149001,-2.843,0.519,0.447,-1.680,215.740,38.430
157149021,-2.346,0.468,0.405,-23.450,183.750,15.050
157149045,-2.164,0.543,0.378,-58.310,164.500,-16.450
157149065,-2.107,0.317,0.434,-63.490,126.070,-28.770
157149083,-1.821,0.147,0.556,-53.620,92.960,-35.140
157149107,-1.633,0.095,0.614,-32.760,55.510,-32.760
157149127,-1.422,0.023,0.572,-18.060,33.110,-26.810
157149146,-1.260,-0.066,0.469,2.520,11.480,-14.840
157149165,-1.151,0.026,0.407,17.570,-10.710,-5.880
157149188,-0.971,0.033,0.463,8.260,-30.660,-3.570
157149208,-0.896,-0.022,0.476,22.890,-19.320,-1.960
157149228,-0.970,0.108,0.609,-15.960,-27.650,-5.950
157149248,-1.024,-0.018,0.624,-19.950,-33.110,-15.960
157149269,-1.134,-0.162,0.529,-22.400,-38.150,-18.970
157149292,-1.286,-0.206,0.535,-6.300,-65.030,-17.710
157149312,-1.314,-0.236,0.528,-3.360,-84.280,-20.370
157149331,-1.521,-0.321,0.534,5.320,-101.920,-21.420
157149351,-1.879,-0.377,0.701,31.080,-130.410,-22.680
157149371,-2.229,-0.283,0.710,63.280,-176.540,-19.600
157149391,-2.462,0.033,0.685,67.830,-215.810,-31.150
157149416,-2.766,0.131,0.713,42.280,-260.540,-63.770
157149436,-3.241,0.202,0.634,49.420,-320.390,-77.980
157149456,-3.285,0.392,0.428,6.650,-376.390,-103.740
157149474,-3.190,0.088,0.357,-2.380,-414.820,-113.190
157149495,-3.171,-0.108,0.273,23.660,-436.380,-110.950
157149518,-3.081,-0.199,0.142,63.560,-466.970,-83.020
157149538,-2.794,-0.175,0.061,77.700,-485.450,-69.790
157149558,-2.348,-0.200,-0.169,86.520,-483.280,-60.900
157149578,-1.982,-0.207,-0.321,80.290,-471.240,-63.350
157149598,-1.568,-0.210,-0.190,76.650,-450.590,-64.890
157149621,-1.368,-0.116,-0.031,44.730,-420.420,-87.150
157149640,-1.132,-0.252,-0.242,49.630,-398.930,-106.820
157149660,-0.810,-0.362,-0.347,29.750,-370.720,-114.170
157149684,-0.488,-0.401,-0.191,102.200,-325.220,-82.740
157149699,-0.484,-0.511,-0.104,140.350,-301.140,-62.930
157149724,-0.369,-0.133,-0.020,211.610,-301.210,-23.940
157149744,-0.146,0.021,-0.086,197.120,-278.950,-15.960
157149765,0.021,-0.022,-0.155,168.980,-279.860,-14.140
157149782,0.025,0.041,-0.086,140.560,-236.460,-19.600
157149801,0.005,0.044,-0.096,103.110,-235.130,-33.110
157149822,0.227,-0.186,-0.229,78.820,-187.600,-38.710
157149846,0.473,-0.237,-0.614,182.140,-199.150,12.320
157149870,0.670,0.327,-0.515,151.200,-138.460,-6.440
157149890,0.664,0.040,-0.667,84.280,-103.320,-24.150
157149906,0.883,0.104,-0.798,120.890,-126.070,-6.650
157149930,1.343,0.599,-0.688,116.130,-102.480,-14.770
157149950,1.407,0.746,-0.661,27.300,5.460,-15.610
157149970,1.281,0.569,-0.562,15.190,28.070,0.910
157149986,1.285,0.773,-0.370,-4.200,40.180,3.920
157150005,1.003,0.303,0.102,-49.630,35.210,-2.170
157150030,0.964,-0.011,0.286,-0.350,13.440,11.200
157150050,0.988,0.308,0.415,6.090,9.450,2.590
157150067,0.965,0.383,0.232,-24.360,5.110,-7.210
157150091,0.860,0.376,0.183,-17.640,-8.610,-6.090
157150111,0.934,0.420,0.258,-39.060,-8.330,-7.840
157150130,0.920,0.412,0.160,-41.720,-2.170,-5.670
157150150,0.974,0.462,0.037,-36.960,2.100,-3.290
157150174,0.995,0.448,0.020,-30.590,8.400,1.050
157150195,0.994,0.585,0.078,-53.060,22.820,4.620
157150213,0.967,0.545,0.072,-50.050,36.470,8.540
157150233,0.954,0.489,-0.048,-49.560,47.390,18.200
157150255,1.040,0.436,-0.253,-39.410,64.890,30.730
157150279,1.038,0.261,-0.457,-47.530,105.070,35.560
157150298,0.913,0.276,-0.483,-56.910,131.810,36.820
157150314,0.816,0.250,-0.420,-87.360,173.670,28.070
157150335,0.727,-0.053,-0.500,-110.670,220.990,17.360
157150359,0.431,-0.473,-0.523,-67.760,262.220,39.970
157150379,0.159,-0.075,-0.260,-43.680,281.960,40.180
157150395,0.005,-0.142,-0.231,-64.330,306.810,25.550
157150416,-0.154,-0.262,-0.182,-63.490,334.250,16.730
157150439,-0.356,-0.201,-0.108,-64.470,362.250,7.630
157150456,-0.586,-0.483,0.043,-54.670,390.740,3.080
157150476,-0.962,-0.746,0.198,-0.980,402.640,4.970
157150495,-1.169,-0.517,0.336,65.870,384.440,7.700
157150515,-1.210,-0.092,0.485,100.520,361.060,-19.320
157150539,-1.020,0.182,0.291,75.530,374.430,-56.980
157150560,-1.012,0.393,0.067,19.600,400.400,-80.080
157150576,-1.614,0.283,0.160,2.590,382.270,-79.100
157150596,-1.661,0.462,0.407,-5.390,346.990,-69.020
157150615,-1.587,0.406,0.291,-32.270,354.760,-60.130
157150639,-1.673,0.263,0.075,-61.040,371.980,-47.810
157150660,-1.923,0.114,0.056,-53.970,364.980,-28.350
157150681,-2.135,0.146,0.068,-42.210,374.080,-10.640
157150700,-2.431,0.213,0.097,-42.000,374.640,5.180
157150719,-2.642,0.303,0.280,-79.800,369.460,3.150
157150739,-2.723,0.212,0.411,-45.220,273.840,18.410
157150762,-2.342,0.179,0.433,-39.900,243.950,17.010
157150783,-2.240,0.244,0.201,-47.320,216.720,11.830
157150798,-2.271,0.333,0.209,-55.510,176.680,5.110
157150820,-1.985,0.321,0.336,-68.250,136.220,-14.280
157150844,-1.825,0.257,0.361,-73.360,109.410,-36.960
157150864,-1.633,0.256,0.408,-86.940,81.900,-55.720
157150880,-1.555,0.166,0.466,-78.680,67.620,-60.550
157150904,-1.550,0.183,0.603,-58.100,28.140,-52.990
157150920,-1.359,0.253,0.579,-62.230,-0.210,-54.950
157150939,-1.153,0.156,0.515,-77.420,-11.970,-55.370
157150964,-1.056,-0.021,0.472,-70.840,-23.940,-41.160
157150981,-0.991,-0.075,0.492,-52.290,-30.310,-29.610
157150999,-0.973,-0.108,0.505,-42.070,-31.430,-19.040
157151024,-0.997,-0.167,0.485,-21.210,-39.270,-6.160
157151039,-1.021,-0.170,0.428,-4.900,-42.840,-0.280
157151064,-1.061,-0.165,0.347,15.330,-49.980,6.860
157151084,-1.123,-0.176,0.317,29.050,-55.020,9.240
157151104,-1.264,-0.152,0.356,49.770,-65.940,9.170
157151123,-1.428,-0.042,0.323,44.520,-87.360,0.070
157151147,-1.538,-0.137,0.369,35.000,-112.210,-15.470
157151163,-1.793,-0.025,0.612,41.090,-142.240,-19.530
157151186,-2.074,0.064,0.719,37.240,-181.020,-32.900
157151210,-2.259,0.235,0.651,14.980,-225.400,-59.430
157151230,-2.361,0.224,0.709,-10.920,-271.320,-86.660
157151249,-2.460,0.080,0.934,-30.870,-314.370,-107.450
157151268,-2.658,-0.100,1.006,-9.450,-332.430,-112.770
157151285,-2.714,-0.194,0.776,27.510,-355.180,-102.410
157151310,-2.580,-0.279,0.580,80.780,-399.770,-77.000
157151330,-2.374,-0.075,0.664,105.000,-409.570,-62.090
157151348,-2.220,-0.092,0.583,85.260,-406.910,-65.520
157151370,-1.957,-0.203,0.351,67.970,-398.090,-72.100
157151391,-1.639,-0.404,0.188,74.690,-399.140,-73.290
157151411,-1.488,-0.485,0.390,104.230,-379.680,-58.380
157151435,-1.198,-0.444,0.114,137.760,-359.240,-36.610
157151452,-1.039,-0.237,0.060,132.510,-347.340,-32.690
157151476,-0.869,-0.091,0.064,109.410,-337.120,-34.090
157151496,-0.693,-0.085,0.093,80.710,-332.290,-40.530
157151515,-0.647,-0.316,0.168,98.350,-313.250,-30.240
157151536,-0.601,-0.191,0.094,124.810,-306.110,-21.140
157151556,-0.458,-0.163,-0.077,99.680,-314.300,-21.350
157151575,-0.213,-0.022,-0.168,91.420,-327.390,-21.350
157151592,0.009,0.111,-0.060,55.230,-316.470,-32.270
157151612,0.051,0.036,0.064,16.590,-247.240,-57.890
157151636,-0.135,-0.249,-0.387,66.430,-237.440,-40.530
157151653,0.393,-0.155,-0.666,145.180,-225.750,-11.340
157151673,0.488,0.353,-0.555,134.680,-189.000,-7.910
157151693,0.622,0.577,-0.708,52.290,-161.560,-30.730
157151717,0.959,0.382,-0.631,35.910,-145.390,-22.610
157151736,1.104,0.518,-0.623,47.110,-50.820,-11.690
157151757,1.099,0.399,-0.639,61.670,-41.230,11.480
157151777,1.285,0.661,-0.520,69.370,-29.890,20.230
157151795,1.387,0.784,-0.361,21.490,30.380,10.710
157151815,1.180,0.431,-0.279,19.880,53.340,24.640
157151837,1.062,0.323,-0.074,60.200,42.630,43.190
157151859,0.956,0.449,0.399,-4.130,44.870,17.500
157151883,0.860,0.142,0.587,-62.510,24.640,-9.870
157151898,0.804,-0.289,0.603,-42.910,3.850,-13.370
157151923,0.835,-0.276,0.556,40.880,-19.110,-4.550
157151943,0.918,0.391,0.469,11.620,-28.910,-22.890
157151963,0.908,0.409,0.249,-10.920,-33.740,-27.300
157151983,1.048,0.531,0.110,-3.850,-32.340,-17.780
157152007,1.090,0.568,-0.004,-9.660,-8.680,-7.840
157152028,1.016,0.569,0.106,-24.150,-4.900,-7.560
157152042,0.925,0.432,0.119,-40.530,4.270,-10.990
157152066,0.893,0.068,0.274,-26.670,-0.840,-13.720
157152090,0.999,0.119,0.213,28.280,1.890,-6.160
157152110,1.079,0.547,0.081,33.040,7.700,-7.280
157152130,1.145,0.714,-0.002,-5.110,23.380,-7.210
157152146,1.126,0.584,-0.113,-23.520,44.030,-3.710
157152166,1.066,0.428,-0.188,-24.710,66.220,7.280
157152186,1.059,0.457,-0.332,-27.930,93.450,16.170
157152210,1.048,0.494,-0.554,-52.570,107.870,13.720
157152229,0.891,0.103,-0.508,-45.710,128.940,18.060
157152250,0.754,0.104,-0.394,-51.170,153.440,11.270
157152274,0.644,-0.048,-0.265,-80.990,203.980,4.410
157152294,0.432,-0.083,-0.237,-85.610,239.400,2.450
157152314,0.222,-0.125,-0.294,-82.180,257.180,4.550
157152334,0.092,-0.066,-0.373,-88.270,282.520,0.560
157152349,-0.116,-0.084,-0.269,-92.540,293.720,0.980
157152369,-0.350,0.036,-0.142,-113.540,303.520,0.910
157152391,-0.378,-0.121,-0.156,-137.270,308.630,8.260
157152414,-0.432,-0.249,-0.193,-122.290,334.530,29.050
157152434,-0.688,-0.222,-0.026,-105.910,375.760,32.760
157152458,-1.019,-0.059,0.249,-148.960,402.430,9.730
157152478,-1.194,-0.266,0.355,-176.050,406.280,-2.590
157152500,-1.293,-0.658,0.145,-104.720,413.070,30.800
157152521,-1.365,-0.367,-0.087,-22.820,416.850,59.920
157152544,-2.052,0.018,0.485,-40.810,446.740,39.480
157152565,-2.520,-0.006,0.588,-43.820,329.420,24.220
157152585,-2.154,-0.032,0.551,-80.500,309.610,12.110
157152602,-1.948,-0.301,0.330,-93.520,328.090,20.720
157152624,-2.077,-0.332,0.131,-58.870,321.860,37.800
157152646,-2.111,-0.224,0.163,-25.970,317.940,49.840
157152668,-2.279,-0.132,0.319,-3.290,304.360,55.230
157152688,-2.422,-0.098,0.434,5.530,276.850,60.760
157152707,-2.361,-0.019,0.418,23.380,251.230,75.250
157152728,-2.296,0.239,0.476,55.370,206.360,89.530
157152748,-2.007,0.420,0.555,29.260,179.340,66.780
157152770,-1.999,0.425,0.503,-13.160,155.330,39.970
157152791,-1.830,0.457,0.477,-75.320,127.050,13.160
157152812,-1.693,0.256,0.423,-105.770,103.530,-11.410
157152832,-1.459,0.051,0.477,-100.240,63.840,-20.090
157152851,-1.308,-0.070,0.474,-73.710,55.860,-22.680
157152870,-1.368,-0.251,0.499,-43.820,38.710,-12.740
157152893,-1.316,-0.123,0.504,-19.320,0.000,-5.110
157152911,-1.238,-0.093,0.458,-13.300,-15.960,-2.590
157152935,-1.134,-0.078,0.430,-8.120,-36.890,1.050
157152952,-1.069,-0.054,0.433,-13.090,-44.940,-3.010
157152976,-1.041,-0.095,0.416,-12.390,-49.700,-9.170
157152996,-1.058,-0.093,0.369,-9.730,-58.450,-12.390
157153015,-1.066,-0.091,0.291,-3.710,-66.640,-15.750
157153033,-1.054,-0.115,0.249,-5.740,-69.090,-22.750
157153057,-1.106,-0.193,0.231,-0.350,-72.800,-27.510
157153075,-1.203,-0.262,0.343,29.750,-82.320,-21.630
157153097,-1.398,-0.032,0.461,38.570,-102.690,-25.760
157153117,-1.588,-0.060,0.524,45.010,-123.410,-30.660
157153135,-1.839,-0.089,0.585,54.180,-156.730,-32.340
157153159,-2.054,0.028,0.636,33.810,-202.510,-51.310
157153179,-2.220,0.052,0.761,18.480,-234.010,-66.150
157153198,-2.500,0.077,0.864,-0.070,-270.130,-84.000
157153218,-2.601,-0.009,0.813,-15.470,-315.140,-106.540
157153238,-2.634,-0.151,0.845,-2.800,-350.280,-115.990
157153262,-2.820,-0.267,0.800,24.850,-395.710,-120.610
157153286,-2.821,-0.149,0.772,61.040,-426.510,-114.310
157153306,-2.504,-0.081,0.559,49.910,-460.390,-115.080
157153326,-1.914,-0.205,0.451,43.050,-451.500,-118.650
157153345,-1.734,-0.372,0.298,65.940,-437.920,-117.880
157153364,-1.482,-0.442,0.234,104.440,-433.860,-109.410
157153388,-1.126,-0.361,0.162,127.050,-403.970,-90.650
157153406,-0.899,-0.244,0.200,124.320,-375.550,-92.540
157153430,-0.631,-0.261,0.083,112.350,-352.520,-89.880
157153450,-0.432,-0.164,0.306,114.450,-315.280,-83.300
157153469,-0.652,-0.508,0.225,128.660,-262.220,-64.540
157153488,-0.513,-0.529,-0.150,196.210,-285.320,-32.270
157153511,-0.161,0.009,-0.184,178.780,-271.600,-21.140
157153531,0.034,0.203,-0.046,77.210,-230.230,-59.010
157153555,-0.163,-0.431,-0.295,72.520,-203.140,-61.530
157153575,-0.016,-0.717,-0.430,181.790,-205.870,-21.000
157153594,0.229,-0.051,-0.392,206.780,-216.020,-7.910
157153615,0.634,0.561,-0.357,99.680,-148.400,-40.040
157153639,0.521,0.113,-0.683,81.690,-89.600,-34.860
157153659,0.792,0.311,-0.649,125.300,-102.760,-9.590
157153678,1.072,0.553,-0.480,103.530,-72.800,-10.220
157153698,1.006,0.543,-0.309,58.030,-13.020,-26.180
157153717,1.118,0.386,-0.247,59.430,-14.840,-21.560
157153737,1.268,0.641,-0.275,106.120,-1.610,10.500
157153762,1.293,1.030,0.006,80.430,21.840,26.180
157153781,0.962,0.814,0.358,-27.930,35.490,13.440
157153805,0.973,0.150,0.344,-61.040,10.780,3.220
157153825,0.902,-0.045,0.326,-44.660,-5.810,-5.180
157153844,0.831,0.060,0.195,-14.000,-28.630,-6.790
157153863,1.142,0.462,-0.010,6.650,-21.630,-0.630
157153885,1.093,0.646,0.052,-30.800,5.810,-5.040
157153906,0.815,0.188,0.234,-20.440,10.430,-7.560
157153927,0.790,0.234,0.371,-24.780,10.150,-22.120
157153947,0.885,0.290,0.339,-21.980,3.080,-28.560
157153967,0.957,0.538,0.240,-13.230,4.900,-22.610
157153991,1.030,0.859,0.107,-21.350,11.200,-8.610
157154009,1.026,0.772,0.034,-41.650,26.600,4.130
157154033,0.986,0.626,0.004,-76.020,40.390,0.210
157154053,0.925,0.171,0.060,-73.640,46.410,1.400
157154071,0.884,0.091,-0.021,-56.700,54.880,3.780
157154093,0.954,0.258,-0.279,-48.020,80.360,9.450
157154112,0.990,0.535,-0.464,-59.010,116.060,19.880
157154136,0.957,0.560,-0.544,-100.100,168.070,31.920
157154156,0.826,0.331,-0.553,-132.090,247.170,27.650
157154177,0.237,-0.285,-0.479,-115.080,276.920,23.520
157154197,-0.060,-0.594,-0.442,-62.580,261.450,31.010
157154217,-0.077,-0.241,-0.091,-35.140,272.720,30.450
157154240,-0.144,-0.031,-0.076,-84.280,326.620,6.580
157154261,-0.444,-0.262,-0.219,-76.090,370.090,12.810
157154281,-0.629,-0.240,-0.176,-55.930,364.210,18.690
157154301,-0.754,-0.061,-0.188,-39.690,371.980,12.390
157154320,-1.004,-0.335,0.067,-32.620,386.750,6.650
157154344,-1.464,-0.219,0.051,-15.820,384.650,5.180
157154364,-1.464,0.036,0.346,-38.010,371.700,-11.060
157154379,-1.389,0.145,0.362,-58.940,394.170,-17.360
157154404,-1.676,-0.023,0.220,-60.480,418.320,-9.520
157154424,-2.024,-0.232,0.057,-9.940,393.050,16.520
157154443,-2.098,0.034,0.096,16.310,385.350,28.840
157154463,-2.408,0.273,0.245,11.900,419.790,28.630
157154487,-2.733,0.296,0.158,-13.300,360.430,22.820
157154504,-2.549,0.283,0.156,-24.220,352.240,25.480
157154528,-2.588,0.399,0.032,-36.960,330.330,30.730
157154546,-2.596,0.506,0.001,-61.460,293.020,27.580
157154570,-2.512,0.462,0.015,-93.800,254.170,19.740
157154590,-2.415,0.276,0.038,-105.000,216.860,15.050
157154614,-2.198,0.294,0.152,-138.810,197.680,2.100
157154632,-1.997,0.133,0.282,-109.550,154.140,-8.190
157154656,-1.740,-0.030,0.397,-95.900,129.500,-17.500
157154676,-1.622,0.002,0.558,-61.530,112.210,-16.380
157154695,-1.530,0.039,0.574,-49.700,79.310,-14.420
157154713,-1.358,-0.035,0.531,-23.590,54.670,-9.520
157154732,-1.119,-0.054,0.548,-16.940,42.420,-4.690
157154757,-1.058,-0.013,0.585,-3.220,30.520,-0.490
157154775,-1.009,-0.094,0.610,12.950,17.290,3.710
157154799,-1.033,-0.042,0.630,40.040,0.210,8.820
157154817,-1.026,0.033,0.591,45.150,-15.680,9.030
157154841,-1.056,0.022,0.517,43.680,-30.660,8.330
157154861,-1.130,-0.002,0.419,47.670,-52.360,11.690
157154876,-1.221,0.050,0.400,52.290,-69.510,14.140
157154900,-1.292,0.117,0.424,37.030,-92.120,8.890
157154924,-1.353,0.137,0.404,14.980,-112.910,-4.620
157154943,-1.534,0.237,0.459,-9.660,-136.220,-25.130
157154959,-1.781,0.098,0.470,-23.100,-163.590,-38.640
157154984,-1.979,0.125,0.512,-20.720,-201.250,-54.670
157155000,-2.189,0.207,0.564,-30.590,-240.520,-65.590
157155023,-2.423,0.208,0.618,-44.240,-277.060,-86.590
157155044,-2.707,0.150,0.587,-31.640,-315.770,-94.570
157155064,-2.791,0.104,0.512,-18.130,-358.050,-101.430
157155088,-2.858,0.137,0.627,-5.180,-387.450,-101.220
157155108,-2.816,0.140,0.574,6.720,-417.270,-96.740
157155128,-2.764,0.059,0.577,7.420,-433.510,-94.990
157155146,-2.618,-0.127,0.408,13.510,-445.130,-92.960
157155166,-2.235,-0.122,0.202,39.340,-460.880,-86.940
157155186,-1.907,-0.056,0.323,28.490,-453.670,-107.310
157155210,-1.720,-0.384,0.212,25.970,-417.970,-133.280
157155229,-1.394,-0.583,0.124,64.540,-394.940,-131.320
157155249,-1.110,-0.527,-0.002,113.120,-371.350,-108.430
157155273,-0.983,-0.233,-0.069,165.830,-368.060,-82.390
157155292,-0.758,-0.175,0.061,153.300,-344.820,-86.240
157155311,-0.471,-0.093,0.069,123.270,-327.320,-75.040
157155332,-0.219,-0.045,0.038,103.180,-267.190,-79.800
157155356,-0.322,-0.162,0.012,125.930,-248.010,-70.350
157155376,-0.338,-0.033,0.147,126.560,-232.400,-77.140
157155395,-0.256,-0.212,-0.049,128.940,-217.280,-60.060
157155416,0.052,0.077,-0.245,139.930,-210.980,-46.060
157155436,0.098,0.093,-0.148,132.580,-203.210,-44.030
157155454,0.311,0.279,-0.323,141.400,-198.380,-27.650
157155477,0.647,0.516,-0.417,135.240,-157.290,-12.040
157155498,0.808,0.533,-0.556,126.630,-114.870,10.920
157155517,0.692,0.474,-0.414,137.830,-85.330,36.890
157155538,0.878,0.904,-0.398,73.570,-91.280,35.770
157155558,1.165,0.330,-0.206,6.090,-25.690,16.310
157155578,0.768,-0.046,-0.112,50.120,-4.900,27.090
157155601,0.932,0.221,-0.066,67.410,-24.920,16.170
157155622,1.171,0.523,-0.118,-0.420,12.180,-5.390
157155640,1.075,0.299,-0.202,-25.760,24.500,-10.290
157155657,1.067,0.346,-0.146,-3.780,24.990,-3.500
157155677,1.134,0.495,-0.077,-12.110,24.640,-4.690
157155697,0.985,0.319,0.176,-24.290,26.810,-2.030
157155722,0.851,0.183,0.406,-44.940,15.120,-12.600
157155742,0.867,-0.019,0.440,-34.020,4.130,-15.400
157155763,0.854,0.186,0.335,-3.010,-15.120,-13.510
157155782,1.025,0.600,0.255,-9.800,-18.760,-12.180
157155802,1.007,0.691,0.212,-28.000,-6.510,-7.280
157155822,0.945,0.602,0.241,-23.030,-5.320,3.150
157155842,0.964,0.585,0.188,-29.260,-0.840,6.090
157155862,0.935,0.459,0.207,-35.350,-1.540,2.590
157155882,0.868,0.283,0.316,-27.510,1.540,-2.030
157155902,0.850,0.231,0.327,-8.400,2.940,-4.270
157155918,0.902,0.403,0.245,-7.350,7.070,-6.440
157155938,0.942,0.485,0.110,-11.340,17.710,-3.780
157155958,0.927,0.562,-0.032,-2.870,24.710,8.400
157155982,0.973,0.604,-0.141,-7.700,41.650,24.710
157155999,0.906,0.631,-0.101,-20.090,63.770,35.840
157156018,0.839,0.520,-0.204,-60.270,104.720,42.140
157156043,0.842,0.430,-0.433,-84.350,125.440,51.170
157156062,0.755,0.276,-0.544,-111.720,169.890,51.520
157156082,0.549,0.069,-0.446,-102.340,191.030,57.750
157156106,0.448,-0.079,-0.264,-107.870,241.920,54.320
157156123,0.255,-0.210,-0.197,-91.490,273.490,60.550
157156147,0.084,-0.179,-0.127,-66.360,298.200,62.930
157156167,-0.110,-0.117,-0.133,-53.550,317.590,63.140
157156187,-0.316,-0.004,0.120,-109.200,328.370,34.930
157156203,-0.410,-0.063,0.193,-175.490,353.080,5.250
157156226,-0.619,-0.559,0.062,-205.730,367.080,-2.870
157156246,-0.781,-0.755,0.074,-110.110,348.110,33.530
157156269,-0.781,-0.427,0.357,-34.930,345.240,64.960
157156287,-0.974,-0.192,0.542,-29.260,379.400,56.630
157156306,-1.133,-0.173,0.304,-42.140,397.950,47.180
157156331,-1.442,-0.092,0.433,-64.050,410.270,25.340
157156348,-1.904,-0.236,0.664,-69.090,379.470,30.310
157156370,-1.869,-0.329,0.508,-2.380,329.980,69.440
157156390,-1.693,-0.015,0.364,18.130,340.830,81.900
157156410,-1.887,0.039,0.149,15.680,354.270,81.200
157156431,-2.112,0.176,0.102,9.870,341.880,78.890
157156455,-2.160,0.250,0.055,-6.930,322.700,71.820
157156472,-2.193,0.203,0.054,-40.670,311.710,64.050
157156493,-2.276,0.092,0.058,-60.970,290.010,55.230
157156513,-2.299,0.048,0.141,-73.990,260.750,43.400
157156534,-2.282,0.025,0.324,-80.080,230.510,35.210
157156558,-2.233,0.078,0.312,-85.330,181.230,31.780
157156578,-1.841,0.154,0.180,-85.400,130.480,26.880
157156598,-1.670,0.155,0.226,-84.420,116.690,14.560
157156615,-1.611,0.116,0.288,-87.640,100.100,1.750
157156636,-1.509,0.094,0.432,-101.080,80.990,-17.850
157156656,-1.421,0.012,0.497,-121.380,64.820,-35.140
157156676,-1.307,-0.108,0.526,-121.660,46.970,-42.210
157156697,-1.213,-0.192,0.484,-90.300,29.890,-40.740
157156720,-1.113,-0.296,0.457,-83.650,14.910,-35.980
157156736,-1.124,-0.360,0.441,-59.570,3.500,-29.960
157156760,-1.115,-0.408,0.376,-23.870,-14.350,-18.480
157156780,-1.079,-0.386,0.319,12.740,-31.710,-11.690
157156800,-1.053,-0.332,0.252,40.740,-49.980,-7.910
157156820,-1.064,-0.304,0.242,59.360,-61.530,-6.020
157156840,-1.092,-0.173,0.248,59.780,-73.500,-13.720
157156859,-1.128,-0.140,0.240,45.850,-82.950,-24.220
157156880,-1.268,-0.077,0.311,32.550,-95.690,-37.660
157156900,-1.432,-0.252,0.344,29.680,-110.320,-53.480
157156924,-1.651,-0.299,0.433,40.950,-146.300,-64.680
157156944,-1.819,-0.183,0.492,31.080,-181.790,-79.590
157156961,-1.992,-0.133,0.528,19.320,-212.170,-92.890
157156985,-2.032,-0.253,0.602,5.670,-251.790,-107.590
157157005,-2.063,-0.198,0.824,-11.130,-270.060,-130.690
157157025,-2.376,-0.571,0.783,-2.170,-284.620,-153.370
157157043,-2.403,-0.687,0.619,52.500,-307.510,-156.520
157157066,-2.348,-0.555,0.646,99.260,-332.290,-157.570
157157087,-2.350,-0.415,0.727,103.180,-347.480,-158.130
157157107,-2.230,-0.266,0.682,104.370,-362.180,-155.470
157157125,-2.075,-0.374,0.607,100.240,-356.650,-156.660
157157145,-1.890,-0.476,0.468,122.990,-362.250,-147.490
157157168,-1.639,-0.404,0.482,160.370,-353.080,-128.800
157157188,-1.484,-0.426,0.320,176.890,-339.500,-111.090
157157206,-1.238,-0.209,0.200,179.200,-342.650,-104.580
157157230,-0.963,-0.272,0.392,156.660,-317.450,-99.610
157157250,-0.919,-0.228,0.256,168.350,-301.700,-74.690
157157270,-0.761,-0.163,0.241,183.190,-308.910,-57.400
157157289,-0.617,-0.110,0.312,180.880,-284.550,-47.320
157157310,-0.480,0.114,0.102,147.770,-294.770,-44.240
157157326,-0.209,0.245,0.177,99.190,-295.260,-52.990
157157346,-0.123,-0.013,0.365,80.570,-226.660,-60.410
157157365,-0.447,-0.208,0.127,113.260,-231.770,-39.830
157157390,-0.197,-0.116,0.055,157.990,-256.340,-2.870
157157410,0.070,0.344,-0.021,121.380,-229.180,-5.880
157157428,0.139,0.133,-0.041,69.790,-195.370,-13.160
157157451,0.224,-0.071,-0.266,101.570,-198.520,-2.310
157157470,0.504,-0.070,-0.237,118.720,-184.240,9.310
157157494,0.671,0.260,-0.392,117.810,-161.350,13.300
157157514,1.060,0.544,-0.652,66.080,-121.590,3.360
157157534,1.071,-0.034,-0.690,111.790,-57.540,26.250
157157554,0.999,0.398,-0.647,98.420,-58.240,22.540
157157578,1.371,0.256,-0.600,47.390,-8.190,4.130
157157595,1.179,0.139,-0.331,59.010,19.530,1.680
157157617,1.212,0.355,-0.221,5.530,24.080,-17.010
157157638,1.089,0.265,-0.137,20.720,32.900,-10.850
157157655,1.106,0.497,0.052,-18.830,29.400,-18.620
157157676,1.014,0.319,0.161,-32.830,28.840,-18.760
157157698,1.001,0.458,0.248,-36.890,16.660,-14.070
157157720,0.939,0.392,0.272,-65.030,16.870,-18.410
157157739,0.867,0.244,0.267,-58.660,12.250,-18.200
157157759,0.873,0.233,0.331,-24.570,1.750,-13.160
157157778,0.924,0.464,0.332,-17.010,4.760,-10.150
157157803,0.912,0.516,0.271,-14.280,14.980,-7.770
157157818,0.913,0.592,0.276,-21.210,15.190,-7.210
157157842,0.893,0.510,0.294,-15.330,11.900,-0.350
157157860,0.939,0.517,0.385,-13.720,10.430,5.740
157157880,0.903,0.453,0.339,-26.600,11.620,7.280
157157904,0.982,0.400,0.226,-29.960,2.100,12.880
157157923,1.085,0.397,0.076,-36.750,-10.640,11.340
157157944,1.175,0.283,-0.002,-18.410,-7.070,19.600
157157964,1.210,0.345,-0.061,-12.950,-2.380,27.230
157157984,1.192,0.469,-0.135,-57.890,14.630,17.080
157158004,1.064,0.197,-0.302,-94.780,50.400,6.230
157158024,0.998,-0.048,-0.332,-83.720,80.360,7.210
157158041,0.944,-0.111,-0.403,-70.210,114.030,7.560
157158063,0.761,-0.003,-0.311,-59.080,154.840,12.040
157158082,0.628,0.124,-0.346,-77.070,191.940,3.990
157158103,0.466,-0.004,-0.372,-102.620,218.610,-3.780
157158125,0.336,-0.072,-0.269,-120.890,233.730,-5.530
157158145,0.242,-0.157,-0.065,-129.430,255.500,-0.840
157158165,0.128,-0.297,-0.072,-110.880,291.410,10.080
157158184,0.063,-0.365,-0.233,-55.160,315.980,21.210
157158209,-0.124,-0.027,-0.151,-49.770,365.050,11.970
157158229,-0.561,-0.207,-0.189,-84.560,336.350,-3.150
157158249,-0.732,-0.485,0.122,-48.300,330.190,4.060
157158270,-0.763,-0.446,0.171,-4.900,356.020,10.850
157158292,-0.860,-0.057,0.258,19.810,405.930,13.230
157158316,-1.242,0.218,0.267,-34.440,404.530,-25.760
157158333,-1.423,0.042,0.154,-89.670,396.060,-46.480
157158353,-1.569,-0.573,0.026,-84.420,382.690,-40.390
157158377,-1.901,-0.715,0.371,20.020,383.600,-10.570
157158397,-2.471,-0.193,0.888,123.270,314.930,22.330
157158416,-2.477,0.661,1.499,87.640,248.360,2.240
157158436,-1.772,1.026,1.179,-40.320,234.150,-20.860
157158460,-1.561,0.913,0.735,-152.110,241.850,-29.680
157158480,-1.845,0.275,0.547,-175.700,220.360,-11.760
157158499,-2.009,-0.041,0.785,-152.180,177.870,7.210
157158518,-2.093,-0.111,1.007,-104.230,135.660,24.150
157158540,-1.892,-0.115,0.982,-72.240,79.590,30.380
157158564,-1.747,-0.226,0.986,-27.370,42.140,31.150
157158583,-1.645,-0.148,0.940,1.750,13.230,30.450
157158603,-1.424,0.200,0.927,0.700,-9.380,20.930
157158623,-1.293,0.327,0.868,-32.830,-22.260,-1.540
157158644,-1.199,0.209,0.792,-57.120,-28.490,-15.820
157158664,-1.274,0.032,0.683,-44.520,-35.280,-12.460
157158686,-1.271,0.179,0.740,-37.030,-57.190,-6.160
157158710,-1.159,0.141,0.616,-48.440,-68.110,-7.490
157158730,-1.057,0.163,0.456,-41.930,-69.020,-2.730
157158750,-1.038,0.169,0.464,-41.230,-78.470,3.150
157158769,-0.957,0.209,0.481,-35.560,-68.250,12.320
157158789,-1.064,0.126,0.543,-41.720,-70.000,9.170
157158808,-1.062,-0.058,0.617,-35.140,-74.900,12.110
157158830,-1.012,0.244,0.562,-53.130,-88.550,1.540
157158848,-0.986,0.113,0.675,-86.520,-95.200,-5.250
157158869,-1.262,0.196,0.662,-102.690,-84.070,-12.810
157158891,-0.735,0.401,0.953,-140.770,-126.000,-34.160
157158913,-0.780,0.567,1.046,-264.740,-165.830,-57.120
157158931,-0.602,-0.151,0.906,-259.000,-48.230,-60.480
157158953,-1.289,-0.683,0.399,-215.740,-105.000,-60.830
157158977,-0.856,-0.504,0.521,-155.330,-122.430,-76.790
157158997,-0.718,-0.200,0.372,-213.150,-100.520,-134.610
157159016,-0.698,-0.527,0.163,-244.580,-60.480,-184.030
157159036,-0.829,-0.732,-0.087,-200.760,-47.880,-204.400
157159055,-0.678,-0.698,-0.320,-158.550,-33.320,-192.850
157159080,-0.641,-0.670,-0.457,-78.960,-7.770,-192.570
157159100,-0.721,-0.606,-0.393,-55.510,10.990,-176.400
157159118,-0.667,-0.794,-0.455,-0.070,43.050,-172.270
157159140,-0.793,-0.695,-0.241,51.310,65.310,-162.190
157159160,-0.770,-0.582,-0.140,61.950,80.500,-165.620
157159175,-0.631,-0.727,-0.064,66.990,88.270,-166.670
157159200,-0.609,-0.854,0.033,131.110,92.890,-139.020
157159218,-0.499,-0.609,0.061,139.510,85.540,-145.180
157159239,-0.284,-0.577,0.144,120.260,91.350,-137.200
157159259,-0.378,-0.751,0.490,127.120,76.790,-120.680
157159279,-0.224,-0.773,0.951,134.120,50.470,-85.960
157159303,-0.132,-0.456,0.956,72.730,73.080,-92.960
157159322,-0.027,-0.593,0.721,45.080,72.730,-83.580
157159341,-0.037,-0.562,0.918,30.660,73.430,-65.660
157159363,-0.204,-0.540,1.064,13.020,56.350,-49.000
157159387,-0.061,-0.505,1.054,-9.100,39.900,-31.780
157159407,-0.022,-0.552,0.967,-53.480,33.810,-25.130
157159427,0.004,-0.555,0.898,-56.630,29.470,-16.030
157159446,-0.072,-0.719,0.957,-51.450,27.650,-0.140
157159467,-0.175,-0.784,0.938,-29.260,18.620,9.380
157159487,-0.169,-0.692,0.888,-16.730,9.940,3.430
157159507,-0.196,-0.751,0.832,1.540,0.420,-2.800
157159526,-0.195,-0.662,0.792,18.340,-4.900,-5.670
157159550,-0.217,-0.544,0.848,1.750,-34.930,-19.950
157159569,-0.355,-0.242,1.005,-44.240,-45.640,-47.320
157159589,-0.318,-0.744,0.917,-83.650,-66.360,-73.360
157159609,-0.134,-0.871,0.756,35.910,-94.220,-55.160
157159629,0.004,-0.529,0.699,30.100,-84.420,-86.100
157159651,0.017,-0.574,0.525,25.970,-66.080,-108.640
157159669,0.070,-0.282,0.395,15.330,-58.940,-117.950
157159693,0.051,-0.300,0.427,3.990,-54.110,-115.780
157159713,0.111,-0.366,0.411,27.790,-56.980,-104.930
157159733,0.133,-0.608,0.475,53.410,-38.850,-93.240
157159751,0.140,-0.697,0.473,91.210,-40.250,-80.290
157159771,0.142,-0.719,0.456,135.310,-35.980,-65.940
157159795,0.159,-0.486,0.589,134.750,-28.980,-67.970
157159814,0.040,-0.650,0.613,132.230,-23.240,-68.740
157159838,0.138,-0.767,0.576,135.730,-18.130,-71.050
157159856,0.074,-0.879,0.611,163.450,-23.030,-67.760
157159875,-0.056,-0.806,0.846,170.030,-27.090,-76.860
157159895,-0.079,-0.770,0.981,141.050,-35.280,-95.970
157159920,0.020,-0.842,0.905,177.940,-49.350,-84.560
157159937,0.219,-0.537,0.865,176.750,-66.220,-82.250
157159958,0.397,-0.315,0.926,145.950,-55.090,-95.900
157159978,0.414,-0.309,1.007,115.150,-40.460,-100.380
157160002,0.377,-0.415,1.087,106.610,-38.990,-93.170
157160020,0.361,-0.428,1.149,123.200,-30.660,-73.990
157160041,0.340,-0.180,1.128,117.670,-39.200,-65.170
157160062,0.477,-0.047,1.095,91.070,-35.700,-65.310
157160082,0.458,-0.052,1.031,73.010,-36.330,-59.150
157160103,0.573,0.003,0.973,71.610,-44.380,-41.300
157160124,0.663,-0.039,1.063,91.420,-30.170,-19.950
157160145,0.474,-0.006,1.158,99.960,-24.710,-9.590
157160166,0.585,0.226,1.239,58.730,-30.800,-10.010
157160187,0.655,0.184,1.152,24.850,-24.080,-12.390
157160207,0.719,0.046,1.068,6.020,-22.330,-9.240
157160227,0.696,-0.127,1.134,16.800,-15.050,-0.140
157160250,0.673,0.024,1.284,24.150,-17.990,11.900
157160271,0.720,0.197,1.268,-2.870,-23.310,11.200
157160288,0.831,0.206,1.220,-16.170,-28.280,14.700
157160308,0.904,0.242,1.246,-31.920,-21.280,15.330
157160331,0.863,0.123,1.268,-47.040,-15.610,14.140
157160352,0.867,0.026,1.232,-24.360,-15.750,23.310
157160372,0.883,0.153,1.295,-18.130,-12.740,28.770
157160395,0.881,0.182,1.311,-34.020,-7.210,27.020
157160411,0.886,0.096,1.257,-41.720,-4.130,29.190
157160431,0.834,0.067,1.276,-35.700,0.280,37.520
157160456,0.785,0.064,1.157,-33.390,5.530,52.640
157160476,0.661,0.029,0.991,-30.520,7.070,67.620
157160494,0.659,0.058,0.777,-35.980,7.770,80.780
157160515,0.651,0.115,1.023,-48.370,22.400,87.570
157160535,0.527,-0.018,1.041,-73.360,31.500,85.680
157160556,0.509,-0.066,0.891,-72.170,43.540,90.720
157160580,0.381,-0.071,0.717,-46.410,43.050,118.230
157160600,0.363,0.121,0.590,-66.290,62.650,133.000
157160619,0.217,0.123,0.415,-114.030,81.550,141.400
157160637,0.116,0.074,0.284,-150.710,85.820,155.120
157160657,0.008,-0.037,0.212,-169.820,104.860,178.150
157160680,-0.110,-0.115,0.146,-188.580,124.740,199.780
157160701,-0.223,-0.163,0.158,-225.960,150.360,214.900
157160721,-0.375,-0.311,0.144,-250.110,182.210,224.560
157160740,-0.834,-1.041,0.218,-229.040,174.090,246.050
157160760,-0.836,-1.228,0.388,-125.230,163.590,272.230
157160784,-0.659,-0.946,0.313,-69.930,177.240,284.130
157160804,-0.586,-0.531,0.299,-48.720,211.120,285.880
157160824,-0.793,-0.596,0.083,-9.450,252.070,295.750
157160843,-1.043,-0.238,0.069,15.120,227.640,301.840
157160862,-1.157,-0.199,-0.066,1.820,244.930,284.130
157160881,-1.315,-0.201,-0.076,-1.750,241.290,280.210
157160906,-1.548,0.119,0.026,-42.700,259.980,268.660
157160922,-1.717,0.085,0.041,-79.660,259.420,256.270
157160941,-1.837,0.078,0.034,-121.030,231.560,241.360
157160965,-1.937,-0.084,0.088,-146.440,222.110,228.900
157160989,-2.037,-0.441,0.239,-140.980,188.440,213.920
157161007,-2.109,-0.907,0.557,-119.980,158.900,179.060
157161031,-1.784,-1.158,0.262,19.110,84.910,143.500
157161049,-1.156,-0.107,-0.007,81.760,54.670,110.250
157161068,-0.931,0.285,0.123,27.650,34.580,40.880
157161088,-0.917,-0.046,0.223,-3.360,30.170,-12.670
157161113,-0.947,-0.051,0.239,-20.720,3.990,-38.430
157161133,-0.802,0.060,0.247,-66.570,-9.170,-49.770
157161153,-0.643,-0.031,0.246,-108.010,-3.150,-57.120
157161171,-0.651,-0.230,0.184,-136.570,-6.440,-59.570
157161190,-0.623,-0.452,0.166,-135.730,-19.530,-50.890
157161214,-0.536,-0.585,0.167,-98.490,-23.170,-24.990
157161233,-0.559,-0.541,0.147,-54.110,-28.560,-5.670
157161254,-0.602,-0.522,0.129,-19.040,-33.320,17.010
157161273,-0.678,-0.463,0.147,3.500,-30.450,30.380
157161296,-0.908,-0.410,0.204,17.990,-25.130,44.100
157161317,-1.168,-0.386,0.183,18.270,-31.010,44.800
157161341,-1.302,-0.388,0.141,7.000,-42.210,30.730
157161361,-1.391,-0.419,0.070,-2.030,-44.450,10.360
157161384,-1.464,-0.366,-0.062,-5.740,-54.810,-23.240
157161408,-1.362,-0.179,-0.139,-8.470,-69.510,-63.980
157161426,-1.269,-0.146,-0.135,-8.540,-71.330,-94.500
157161450,-1.229,-0.201,-0.112,5.110,-70.980,-125.860
157161470,-1.191,-0.196,-0.127,15.190,-71.820,-148.190
157161489,-1.130,-0.200,-0.118,23.730,-67.200,-157.990
157161509,-1.100,-0.255,-0.107,36.750,-63.280,-159.740
157161533,-1.053,-0.314,-0.078,57.470,-57.330,-147.560
157161553,-1.032,-0.330,-0.018,88.760,-49.210,-132.370
157161572,-1.039,-0.300,0.011,105.000,-42.980,-114.450
157161592,-1.031,-0.233,0.031,114.310,-40.530,-99.470
157161616,-0.963,-0.143,0.051,106.820,-28.910,-86.590
157161636,-0.944,-0.141,0.065,86.030,-19.180,-81.900
157161651,-0.926,-0.155,0.077,64.400,-14.070,-81.760
157161671,-0.928,-0.137,0.187,34.090,3.150,-86.520
157161696,-0.989,-0.163,0.088,-8.120,8.540,-97.230
157161716,-1.074,-0.574,0.032,-3.010,-6.720,-109.130
157161736,-1.095,-0.732,0.144,15.260,-30.660,-120.470
157161756,-1.068,-0.745,0.203,14.070,-48.930,-136.850
157161780,-1.042,-0.743,0.369,21.980,-61.810,-157.990
157161798,-0.996,-0.671,0.409,6.090,-75.530,-183.750
157161818,-0.921,-0.749,0.463,-3.220,-84.770,-203.420
157161837,-0.895,-0.781,0.460,22.540,-92.400,-204.540
157161862,-0.733,-0.816,0.405,45.150,-98.910,-207.130
157161882,-0.628,-0.718,0.382,106.610,-102.900,-197.820
157161901,-0.493,-0.394,0.415,98.490,-100.030,-192.010
157161925,-0.427,-0.368,0.450,97.300,-81.200,-185.500
157161944,-0.509,0.031,0.386,50.680,-105.770,-200.200
157161965,-0.452,-0.534,0.360,98.420,-99.890,-171.360
157161989,-0.345,-0.692,0.407,158.620,-115.570,-144.410
157162007,-0.122,-0.478,0.289,192.850,-104.860,-133.700
157162024,-0.042,-0.367,0.188,195.160,-82.880,-131.810
157162049,-0.076,-0.486,0.212,224.420,-74.690,-116.830
157162069,-0.131,-0.294,0.263,227.920,-83.650,-110.460
157162089,-0.047,-0.197,0.326,195.720,-79.380,-114.240
157162105,-0.007,-0.195,0.371,178.080,-81.760,-110.880
157162125,0.058,-0.325,0.447,173.320,-78.050,-97.020
157162144,0.046,-0.342,0.440,188.720,-79.870,-84.770
157162169,0.154,-0.205,0.582,164.430,-90.160,-80.640
157162187,0.223,-0.240,0.614,147.910,-73.080,-77.280
157162207,0.202,-0.198,0.647,125.510,-69.300,-71.960
157162231,0.204,-0.179,0.720,105.560,-69.160,-66.920
157162251,0.257,-0.209,0.773,90.580,-69.580,-65.450
157162270,0.290,-0.285,1.007,76.580,-58.870,-67.900
157162291,0.187,-0.282,1.060,87.150,-52.780,-59.920
157162315,0.253,0.003,1.103,95.970,-56.770,-46.760
157162335,0.280,0.011,0.955,91.070,-52.990,-45.360
157162355,0.487,-0.056,0.862,90.650,-42.840,-39.690
157162375,0.544,0.015,0.895,96.320,-28.700,-33.670
157162399,0.664,0.408,1.043,78.050,-6.580,-41.230
157162419,0.643,0.311,1.195,47.810,11.900,-42.490
157162437,0.619,0.095,1.235,55.930,11.060,-35.490
157162457,0.773,0.206,1.266,60.760,20.790,-31.990
157162481,0.728,0.199,1.222,61.530,26.880,-28.770
157162501,0.774,0.416,1.322,52.290,24.430,-26.810
157162520,0.742,0.360,1.524,21.420,33.180,-23.660
157162540,0.525,0.224,1.631,13.580,26.880,-12.180
157162560,0.555,0.228,1.605,21.210,2.870,2.450
157162584,0.621,0.240,1.475,29.260,-8.190,12.040
157162604,0.681,0.386,1.341,16.450,-17.220,11.760
157162619,0.736,0.442,1.267,-6.650,-18.200,8.330
157162644,0.752,0.513,1.286,-29.190,-14.140,6.440
157162667,0.742,0.515,1.287,-38.360,-14.840,7.210
157162684,0.637,0.380,1.272,-28.770,-18.130,14.210
157162708,0.721,0.373,1.234,-10.010,-21.420,23.590
157162728,0.793,0.358,1.125,-21.210,-15.470,28.280
157162747,0.754,0.343,1.071,-37.310,-7.560,34.720
157162766,0.693,0.341,1.049,-66.850,-2.030,38.920
157162786,0.640,0.194,1.015,-88.130,7.070,48.510
157162805,0.597,0.054,0.955,-79.380,12.180,61.110
157162830,0.582,0.064,0.990,-91.980,21.910,63.910
157162850,0.561,0.098,0.935,-136.430,36.190,59.360
157162869,0.413,-0.049,0.855,-148.330,41.020,68.740
157162889,0.325,-0.137,0.911,-121.870,31.710,83.370
157162913,0.318,-0.102,0.945,-111.720,31.570,93.450
157162933,0.262,-0.086,0.776,-176.050,48.230,83.020
157162953,0.182,-0.240,0.557,-218.050,61.250,83.930
157162973,0.166,-0.494,0.539,-167.790,47.530,113.470
157162994,0.123,-0.301,0.593,-109.270,49.420,147.280
157163016,0.046,-0.163,0.471,-117.320,67.830,163.030
157163036,0.019,-0.117,0.375,-149.030,87.570,169.330
157163056,-0.096,-0.128,0.245,-226.030,134.750,166.740
157163077,-0.329,-0.392,0.159,-267.680,136.150,171.080
157163101,-0.484,-0.596,0.253,-238.210,130.760,203.280
157163120,-0.615,-0.713,0.368,-189.000,138.040,228.970
157163141,-0.812,-1.046,0.317,-107.380,140.630,255.570
157163161,-0.712,-1.048,0.320,-68.040,148.680,249.340
157163179,-0.716,-0.653,0.291,-163.170,178.570,194.600
157163199,-0.704,-0.530,0.223,-289.870,192.990,133.560
157163219,-0.897,-1.039,-0.054,-281.820,184.240,144.410
157163239,-1.011,-1.392,-0.013,-138.110,139.440,183.400
157163262,-0.819,-1.050,0.151,-10.220,118.860,228.130
157163283,-0.670,-0.584,0.228,-30.240,142.590,182.980
157163299,-0.638,-0.620,0.156,-67.270,168.980,141.330
157163319,-0.732,-1.099,-0.131,-33.880,202.510,155.820
157163339,-0.738,-1.260,-0.222,116.620,186.690,178.080
157163359,-0.608,-0.948,-0.173,225.750,191.380,175.000
157163383,-0.620,-0.549,-0.139,267.680,199.360,144.970
157163401,-0.747,-0.461,0.095,230.300,203.210,88.760
157163420,-0.963,-0.538,0.325,211.050,190.470,57.190
157163439,-0.991,-0.773,0.301,244.930,167.510,39.410
157163464,-1.012,-0.808,0.828,282.450,138.740,58.240
157163484,-1.339,0.002,0.955,448.560,48.580,94.920
157163501,-1.242,2.335,1.511,119.350,-5.810,-24.570
157163520,-1.081,0.706,0.609,-52.430,33.460,-43.680
157163540,-1.210,0.071,0.085,-85.050,2.380,-17.710
157163563,-1.177,-0.087,-0.081,-127.820,22.330,-23.310
157163587,-1.358,-0.898,-0.497,-101.640,-4.200,-31.150
157163607,-1.085,-0.925,-0.406,-30.310,-26.880,-28.210
157163624,-0.863,-0.382,-0.400,-60.620,-14.700,-60.410
157163645,-0.712,-0.889,-0.505,-95.970,-18.270,-80.570
157163665,-0.569,-0.784,-0.433,-14.910,-10.780,-50.960
157163685,-0.668,-0.812,-0.298,21.280,-6.090,-30.800
157163709,-0.611,-0.359,-0.207,52.150,-4.340,-4.970
157163728,-0.654,-0.331,-0.154,12.530,5.320,-13.090
157163752,-0.783,-0.692,-0.130,9.030,-4.270,-11.970
157163771,-0.800,-0.767,-0.128,41.510,-4.830,-2.030
157163795,-0.908,-0.616,-0.119,65.870,-0.210,1.330
157163815,-0.927,-0.515,-0.136,82.530,-7.350,1.680
157163835,-0.966,-0.254,-0.073,55.300,-12.110,-3.850
157163854,-0.996,-0.270,-0.054,34.580,-13.440,-4.620
157163878,-1.036,-0.357,-0.101,20.370,-13.020,-3.360
157163897,-0.993,-0.397,-0.122,18.690,-12.320,-1.960
157163917,-0.977,-0.418,-0.107,19.110,-8.960,-1.190
157163937,-0.950,-0.395,-0.070,19.040,-10.150,-0.490
157163957,-0.911,-0.439,-0.039,14.000,-6.160,-2.380
157163981,-0.933,-0.475,-0.045,15.190,-7.630,0.490
157164001,-0.894,-0.460,-0.034,7.700,-8.540,0.140
157164021,-0.846,-0.513,-0.040,1.260,-9.240,-2.170
157164039,-0.786,-0.568,-0.042,2.940,-10.080,-2.380
157164058,-0.764,-0.591,-0.045,12.320,-9.940,0.280
157164078,-0.779,-0.547,-0.029,14.350,-10.150,0.000
157164098,-0.807,-0.532,-0.011,15.540,-11.550,2.170
157164122,-0.823,-0.491,-0.008,-1.540,-10.920,-1.120
157164141,-0.838,-0.538,-0.035,-11.550,-7.560,-4.760
157164162,-0.859,-0.599,-0.050,-6.160,-8.470,-2.170
157164179,-0.856,-0.581,-0.033,1.540,-7.070,1.470
157164198,-0.884,-0.514,-0.025,4.620,-6.720,1.890
157164218,-0.877,-0.456,-0.025,-1.680,-5.180,-1.120
157164240,-0.916,-0.496,-0.029,-7.700,-3.290,-3.220
157164264,-0.950,-0.553,-0.039,-0.910,-3.500,-0.840
157164284,-0.932,-0.461,-0.050,4.620,-6.860,1.400
157164304,-0.906,-0.415,-0.050,-4.340,-5.670,-5.740
157164322,-0.913,-0.623,-0.060,-12.810,-3.990,-8.540
157164342,-0.931,-0.489,-0.020,-6.580,-9.100,-5.810
157164366,-0.899,-0.456,0.013,-8.190,-9.170,-5.320
157164384,-0.880,-0.361,-0.002,-24.080,-9.660,-10.570
157164402,-0.851,-0.294,0.048,-52.150,-7.070,-18.130
157164422,-1.033,-0.482,0.185,-58.870,-10.430,-18.550
157164442,-1.150,-0.723,0.222,-22.960,-19.110,16.520
157164466,-1.436,-0.788,0.215,53.200,-78.470,29.330
157164484,-1.460,-0.735,0.352,51.590,-118.930,23.520
157164508,-1.293,-0.606,0.444,36.260,-153.300,19.740
157164528,-1.356,-0.282,0.401,0.210,-179.760,-4.970
157164546,-1.258,-0.501,0.396,-46.410,-211.050,-31.220
157164568,-1.185,-0.457,0.488,-74.550,-246.050,-70.070
157164592,-1.074,-0.511,0.572,-97.510,-280.980,-107.660
157164609,-0.822,-0.832,0.372,-105.420,-271.950,-135.380
157164629,-0.673,-1.156,0.309,-31.150,-290.570,-142.450
157164649,-0.564,-1.029,0.461,58.520,-281.120,-122.710
157164668,-0.569,-0.697,0.433,88.900,-287.980,-139.370
157164688,-0.472,-0.643,0.554,68.810,-254.380,-172.620
157164709,-0.332,-0.662,0.464,72.030,-222.810,-203.140
157164733,-0.259,-0.421,0.409,95.970,-198.870,-213.360
157164751,-0.257,-0.691,0.256,150.360,-173.670,-210.630
157164775,-0.185,-0.575,0.070,213.780,-172.340,-202.020
157164794,-0.076,-0.429,0.044,238.700,-168.560,-190.960
157164813,0.054,-0.238,0.172,230.650,-156.170,-182.140
157164833,-0.020,-0.293,0.199,224.490,-140.910,-165.410
157164857,0.000,-0.077,0.317,223.580,-135.170,-137.060
157164876,0.041,0.055,0.366,170.240,-123.270,-130.830
157164896,0.052,-0.178,0.318,141.820,-111.020,-113.260
157164920,0.128,-0.030,0.387,100.030,-91.700,-99.750
157164940,0.215,-0.102,0.525,75.600,-78.960,-84.840
157164960,0.240,-0.205,0.492,73.010,-61.180,-67.550
157164980,0.092,-0.143,0.461,69.090,-67.620,-57.680
157164999,0.130,-0.283,0.623,99.610,-88.900,-26.530
157165019,0.219,0.072,0.850,89.530,-84.700,-33.600
157165040,0.395,-0.060,0.724,58.660,-66.640,-42.490
157165064,0.485,-0.196,0.661,89.880,-56.560,-22.820
157165084,0.548,0.126,0.604,94.010,-37.030,-28.770
157165103,0.587,0.099,0.627,96.250,-41.930,-27.020
157165127,0.632,0.325,0.794,68.320,-27.860,-25.480
157165147,0.718,0.332,0.839,54.460,-23.030,-13.300
157165167,0.851,0.326,1.064,30.870,-13.720,-5.810
157165183,0.837,0.203,1.213,2.940,15.470,-5.390
157165203,0.840,0.225,1.279,2.730,19.390,1.330
157165225,0.928,0.142,1.228,12.040,29.330,0.420
157165245,0.825,0.107,1.225,17.360,34.440,-4.760
157165269,0.791,0.178,1.240,14.490,39.830,-15.330
157165288,0.710,0.251,1.288,7.980,34.580,-18.830
157165308,0.815,0.329,1.162,27.860,25.760,-12.600
157165332,0.889,0.386,1.069,42.840,17.570,-1.400
157165349,0.925,0.548,1.091,36.820,9.660,4.340
157165368,0.977,0.630,1.189,-5.250,7.070,0.980
157165393,0.893,0.497,1.258,-32.620,2.310,1.750
157165413,0.897,0.261,1.238,-6.020,-11.760,11.130
157165437,0.847,0.402,1.161,8.750,-24.850,13.440
157165456,0.925,0.474,1.084,-10.290,-21.840,2.940
157165477,0.911,0.416,1.093,-48.090,-14.070,-5.600
157165497,0.843,0.253,1.136,-45.010,-16.170,17.290
157165516,0.788,0.269,1.167,-24.150,-21.350,12.040
157165539,0.833,0.328,1.143,-24.990,-22.120,19.880
157165560,0.850,0.351,1.184,-45.850,-14.070,23.100
157165580,0.825,0.144,1.188,-49.840,-11.900,26.390
157165597,0.856,0.096,1.169,-38.430,-6.300,28.630
157165620,0.799,0.092,1.165,-28.280,1.540,26.950
157165643,0.788,0.113,1.119,-28.420,0.980,20.440
157165663,0.868,0.110,1.051,-35.070,6.090,11.900
157165683,0.872,0.138,1.034,-40.950,13.860,3.570
157165707,0.774,0.085,1.086,-23.450,18.060,4.480
157165723,0.683,0.177,1.058,-20.860,17.150,6.020
157165747,0.624,0.212,0.849,-38.360,20.300,13.790
157165765,0.590,0.101,0.741,-45.990,19.180,21.770
157165787,0.483,0.062,0.717,-53.480,25.690,31.920
157165806,0.452,0.073,0.705,-65.730,29.960,43.330
157165831,0.389,0.171,0.580,-86.870,38.920,56.420
157165848,0.381,0.139,0.440,-109.900,51.170,69.370
157165870,0.242,0.040,0.390,-92.190,52.360,98.420
157165893,0.161,0.081,0.344,-99.890,67.690,126.140
157165914,0.055,0.073,0.307,-134.540,87.920,147.420
157165933,-0.032,-0.166,0.218,-130.970,103.600,171.780
157165953,-0.038,-0.011,0.285,-149.940,111.790,180.810
157165977,-0.174,-0.241,0.195,-179.270,138.600,184.800
157165996,-0.376,-0.692,0.269,-135.100,155.050,207.340
157166016,-0.403,-0.757,0.351,-70.280,147.140,233.450
157166036,-0.317,-0.539,0.367,-69.580,169.330,219.870
157166057,-0.407,-0.475,0.329,-146.510,201.460,177.100
157166077,-0.490,-0.249,0.322,-216.090,209.720,150.430
157166100,-0.598,-0.483,0.264,-227.570,199.990,141.610
157166120,-0.797,-0.813,0.358,-196.700,187.810,132.510
157166144,-0.870,-0.894,0.410,-239.190,184.310,83.510
157166160,-0.808,-0.930,0.247,-287.070,181.790,67.340
157166184,-0.654,-0.527,0.080,-337.540,174.090,52.010
157166204,-0.736,-0.697,0.090,-303.030,158.480,63.630
157166220,-0.843,-1.030,0.157,-222.390,119.700,84.630
157166244,-0.675,-1.173,0.292,-107.240,95.690,132.650
157166264,-0.616,-1.054,0.325,17.710,77.560,161.910
157166282,-0.588,-0.718,0.337,21.770,61.880,153.860
157166301,-0.484,-0.599,0.279,-16.730,63.350,127.120
157166325,-0.562,-0.590,0.276,-46.270,77.980,99.120
157166342,-0.741,-0.557,0.299,-83.510,59.150,84.630
157166366,-0.831,-0.702,0.284,-105.490,37.520,81.410
157166386,-0.886,-0.972,0.242,-59.920,16.730,97.790
157166402,-0.973,-1.081,0.193,-18.970,-0.840,119.000
157166426,-0.978,-1.035,0.136,46.130,-20.230,153.580
157166446,-0.948,-0.909,0.102,102.620,-21.210,176.470
157166465,-1.028,-0.824,0.063,126.630,-14.280,188.580
157166485,-1.159,-0.745,0.031,152.880,-5.880,198.660
157166505,-1.278,-0.648,0.101,164.500,-0.420,198.520
157166529,-1.365,-0.593,0.093,169.470,-2.450,177.170
157166549,-1.279,-0.490,0.041,167.300,-17.710,141.470
157166567,-1.097,-0.346,0.040,154.210,-21.980,106.890
157166589,-1.005,-0.183,0.020,127.890,-21.140,60.480
157166609,-0.963,-0.071,-0.004,75.810,-18.830,27.300
157166628,-0.989,-0.077,-0.017,40.040,-20.230,-1.330
157166653,-1.003,-0.104,0.006,0.980,-22.120,-21.700
157166673,-1.016,-0.152,0.038,-25.200,-26.390,-30.870
157166691,-1.004,-0.206,0.051,-46.340,-28.140,-37.730
157166713,-1.003,-0.330,0.052,-57.470,-28.070,-41.860
157166730,-1.024,-0.416,0.050,-51.100,-30.730,-40.040
157166753,-1.030,-0.393,0.070,-22.050,-40.810,-31.500
157166772,-0.998,-0.306,0.116,-7.070,-37.380,-35.280
157166795,-0.976,-0.416,0.071,-7.980,-24.570,-52.570
157166819,-1.022,-0.432,0.034,14.910,-22.050,-53.620
157166836,-1.076,-0.304,0.080,25.900,-28.000,-63.910
157166860,-1.133,-0.405,0.103,-11.970,-31.080,-110.740
157166880,-1.211,-0.595,0.135,-19.880,-34.300,-134.820
157166899,-1.256,-0.617,0.165,-20.230,-42.420,-147.630
157166924,-1.198,-0.667,0.183,-17.290,-49.490,-158.480
157166943,-1.142,-0.687,0.184,-3.500,-59.430,-160.790
157166964,-1.057,-0.638,0.239,-8.400,-59.290,-170.730
157166984,-1.029,-0.783,0.188,5.460,-62.020,-165.620
157167001,-0.981,-0.764,0.226,37.800,-72.380,-159.670
157167022,-0.970,-0.711,0.266,49.210,-76.510,-160.370
157167042,-0.914,-0.753,0.181,77.630,-92.750,-143.500
157167061,-0.741,-0.619,0.281,107.100,-113.260,-129.570
157167083,-0.676,-0.532,0.568,120.680,-115.500,-107.660
157167103,-0.814,-0.465,0.813,153.580,-137.060,-77.700
157167127,-0.610,-0.034,0.693,95.410,-155.050,-93.730
157167147,-0.336,-0.294,0.626,60.270,-153.230,-105.910
157167166,-0.284,-0.616,0.762,93.030,-157.850,-98.000
157167190,-0.261,-0.298,0.871,86.940,-151.340,-124.390
157167208,-0.315,-0.500,0.699,66.010,-159.180,-152.810
157167228,-0.279,-0.761,0.619,100.730,-155.820,-167.580
157167252,-0.230,-0.761,0.390,163.870,-161.420,-171.570
157167272,-0.188,-0.719,0.067,202.790,-159.040,-182.210
157167288,-0.113,-0.545,-0.036,227.290,-154.000,-177.100
157167307,-0.152,-0.028,0.085,211.750,-147.490,-177.380
157167332,-0.146,0.163,0.218,139.650,-134.120,-182.910
157167356,-0.058,0.019,0.255,115.990,-113.050,-160.790
157167375,-0.138,-0.004,0.224,120.120,-110.670,-132.860
157167395,-0.056,-0.004,0.354,131.530,-99.610,-103.390
157167415,-0.088,0.225,0.531,125.440,-105.490,-66.640
157167439,0.048,-0.022,0.658,113.050,-102.480,-39.550
157167454,0.115,0.037,0.602,131.600,-95.970,-18.200
157167479,0.248,0.025,0.547,102.480,-85.610,-2.520
157167498,0.291,-0.023,0.707,83.860,-80.430,6.510
157167516,0.400,-0.109,0.843,43.820,-55.300,2.590
157167536,0.461,-0.390,0.922,41.720,-44.100,-7.420
157167557,0.534,-0.418,1.057,57.120,-26.250,-17.360
157167580,0.630,-0.355,1.057,84.210,-24.150,-30.030
157167602,0.744,-0.146,1.160,95.060,-23.170,-39.340
157167622,0.824,0.101,1.073,16.520,9.380,-60.270
157167641,0.845,-0.079,0.976,-6.230,16.240,-70.980
157167666,0.894,-0.080,0.923,7.070,22.750,-67.970
157167686,0.824,0.068,0.895,47.110,12.460,-49.980
157167702,0.743,0.556,1.170,29.820,3.710,-47.250
157167726,0.783,0.299,1.220,2.240,18.130,-40.530
157167744,0.660,0.086,1.244,32.480,9.870,-25.060
157167765,0.707,-0.041,1.157,54.740,-5.530,-25.340
157167784,0.738,0.081,1.089,72.450,-12.950,-24.150
157167809,0.711,0.287,1.277,56.420,6.160,-36.400
157167825,0.648,0.057,1.199,52.920,1.820,-35.770
157167847,0.659,0.067,1.256,77.280,-7.910,-22.820
157167867,0.651,0.203,1.209,75.180,-14.490,-15.120
157167891,0.771,0.413,1.161,57.050,-14.980,-6.090
157167910,0.749,0.535,1.232,17.080,-9.170,-4.060
157167928,0.768,0.522,1.241,-2.310,-10.290,-3.220
157167948,0.763,0.508,1.231,-14.210,-15.680,-1.260
157167968,0.740,0.432,1.268,-11.200,-16.310,3.360
157167988,0.777,0.417,1.299,-4.760,-17.080,1.540
157168008,0.819,0.471,1.218,-9.590,-14.350,-3.640
157168029,0.829,0.447,1.083,-3.290,-16.030,-3.850
157168050,0.840,0.555,1.049,13.720,-15.610,1.260
157168071,0.791,0.602,1.048,-5.180,-14.350,7.210
157168093,0.774,0.522,1.021,-31.150,-10.220,16.450
157168113,0.802,0.446,1.000,-52.080,-0.980,23.730
157168137,0.746,0.253,1.005,-47.810,2.030,34.440
157168156,0.677,0.212,1.072,-44.380,4.760,38.010
157168173,0.686,0.319,1.069,-56.770,11.690,38.990
157168196,0.739,0.276,0.930,-77.560,14.420,40.670
157168217,0.702,0.124,0.861,-69.020,17.360,43.330
157168237,0.633,0.147,1.016,-65.660,23.310,42.070
157168261,0.578,0.013,1.064,-67.550,28.700,44.030
157168281,0.603,0.011,0.913,-63.700,30.240,54.110
157168300,0.605,0.035,0.753,-51.240,26.530,64.750
157168322,0.575,0.162,0.708,-68.110,34.020,66.360
157168344,0.461,0.092,0.677,-102.550,41.440,66.290
157168364,0.348,0.057,0.544,-126.630,44.940,77.000
157168384,0.283,-0.089,0.538,-97.860,41.930,113.750
157168406,0.230,0.031,0.443,-110.390,55.650,138.320
157168430,0.154,0.173,0.321,-161.630,72.800,149.870
157168450,0.037,-0.169,0.217,-169.470,80.850,171.920
157168469,-0.109,-0.224,0.253,-160.650,87.920,197.680
157168489,-0.147,-0.223,0.208,-175.420,117.110,208.460
157168512,-0.326,-0.424,0.117,-183.750,140.700,212.520
157168536,-0.353,-0.455,0.227,-156.450,154.490,232.680
157168556,-0.568,-0.595,0.222,-114.730,203.070,234.850
157168572,-0.881,-0.703,0.272,-90.300,167.860,244.370
157168593,-0.789,-0.579,0.385,-86.520,196.560,236.810
157168613,-0.948,-0.420,0.383,-104.440,203.700,229.110
157168637,-1.057,-0.409,0.418,-98.840,193.760,225.470
157168657,-1.047,-0.471,0.400,-89.810,184.730,224.000
157168677,-0.869,-0.296,0.249,-99.680,185.570,222.040
157168694,-0.955,-0.329,0.127,-93.800,173.670,220.710
157168713,-1.015,-0.309,0.194,-100.730,148.750,208.600
157168733,-0.980,-0.336,0.254,-130.130,145.810,189.000
157168757,-1.013,-0.341,0.257,-168.840,143.010,175.700
157168774,-1.025,-0.298,0.218,-192.010,143.500,170.240
157168797,-1.068,-0.365,0.142,-196.420,132.090,172.410
157168815,-1.226,-0.597,0.155,-157.080,113.540,183.050
157168838,-1.300,-0.792,0.170,-77.420,105.490,192.990
157168862,-1.403,-0.865,0.285,-19.390,77.420,199.640
157168882,-1.525,-0.929,0.381,22.610,86.730,188.860
157168901,-1.619,-0.878,0.356,52.080,80.430,166.320
157168921,-1.405,-0.376,0.154,55.370,66.220,135.450
157168944,-1.280,0.031,0.081,21.630,50.820,90.020
157168961,-1.327,-0.090,0.101,-4.620,22.400,50.750
157168980,-1.117,-0.258,0.162,-5.740,-9.940,18.410
157169003,-0.884,-0.250,0.204,-12.740,-11.830,0.000
157169025,-0.829,-0.266,0.154,-32.970,-12.950,-12.880
157169045,-0.813,-0.331,0.117,-43.470,-15.680,-21.000
157169069,-0.862,-0.424,0.079,-42.140,-16.380,-23.730
157169089,-0.965,-0.424,0.043,-34.930,-19.670,-20.230
157169109,-1.083,-0.450,0.035,-19.810,-25.690,-14.420
157169129,-1.274,-0.493,0.073,-1.680,-36.190,-8.400
157169146,-1.342,-0.461,0.142,8.820,-48.440,-9.310
157169165,-1.316,-0.347,0.132,7.280,-57.470,-22.750
157169189,-1.218,-0.219,0.065,-8.540,-67.270,-52.640
157169208,-1.118,-0.213,0.009,-17.080,-65.310,-78.400
157169233,-1.141,-0.205,0.002,-13.720,-66.010,-110.320
157169253,-1.118,-0.169,-0.005,-11.690,-69.580,-134.400
157169273,-1.071,-0.191,-0.046,-5.180,-65.870,-147.840
157169291,-1.072,-0.211,-0.076,2.940,-61.530,-151.690
157169309,-1.053,-0.203,-0.070,7.000,-57.470,-151.410
157169333,-1.034,-0.232,0.015,5.250,-48.020,-147.840
157169353,-1.071,-0.354,0.102,11.620,-39.760,-137.550
157169377,-1.055,-0.365,0.134,15.680,-32.130,-127.820
157169396,-1.004,-0.453,0.109,20.510,-28.140,-120.400
157169419,-0.973,-0.516,0.072,21.910,-24.780,-123.830
157169438,-1.014,-0.609,0.081,37.730,-24.500,-126.350
157169460,-1.097,-0.955,0.041,66.780,-38.850,-136.080
157169480,-1.227,-1.124,0.108,118.370,-61.390,-141.470
157169500,-1.261,-0.961,0.322,122.570,-80.080,-159.250
157169524,-1.168,-0.813,0.492,71.470,-83.790,-195.300
157169543,-1.090,-0.991,0.425,68.320,-75.460,-205.100
157169564,-1.058,-1.207,0.448,87.850,-77.840,-210.630
157169584,-0.996,-1.081,0.503,114.240,-87.990,-214.130
157169604,-0.877,-0.904,0.491,129.290,-95.480,-215.530
157169624,-0.788,-0.777,0.508,132.230,-102.480,-218.960
157169640,-0.693,-0.615,0.473,130.760,-108.780,-218.610
157169659,-0.475,-0.500,0.387,130.480,-108.360,-210.700
157169684,-0.359,-0.413,0.361,138.110,-90.860,-195.020
157169703,-0.348,-0.263,0.282,138.810,-85.540,-182.770
157169722,-0.278,-0.205,0.198,131.390,-90.440,-178.570
157169746,-0.259,-0.102,0.240,87.640,-76.720,-185.430
157169766,-0.056,-0.281,0.246,84.630,-82.320,-175.770
157169786,-0.330,-0.359,0.364,124.810,-81.550,-137.410
157169807,-0.171,-0.105,0.434,154.070,-98.560,-114.100
157169826,-0.013,-0.102,0.395,130.690,-85.260,-111.510
157169846,0.014,-0.321,0.337,147.840,-81.340,-94.920
157169867,-0.026,-0.191,0.291,144.060,-81.200,-92.890
157169889,0.103,-0.164,0.301,123.900,-82.180,-99.260
157169909,0.141,-0.095,0.436,118.860,-80.430,-98.630
157169933,0.162,-0.226,0.503,115.500,-68.950,-94.640
157169956,0.186,-0.215,0.599,131.880,-68.810,-84.210
157169977,0.173,-0.073,0.524,129.920,-77.630,-82.250
157169996,0.296,-0.003,0.549,128.870,-76.230,-72.310
157170013,0.314,0.149,0.627,128.800,-71.820,-57.470
157170037,0.408,0.121,0.632,124.110,-64.680,-34.860
157170057,0.503,0.186,0.495,113.050,-51.240,-23.800
157170077,0.578,0.151,0.528,102.480,-27.650,-16.380
157170097,0.470,0.059,0.682,101.150,-18.620,-10.080
157170121,0.486,0.128,0.726,93.590,-21.630,-5.600
157170141,0.522,0.131,0.766,86.240,-17.430,-1.330
157170161,0.513,0.126,0.814,79.100,-12.880,-1.610
157170181,0.543,0.132,0.842,64.120,-19.390,-12.250
157170197,0.591,-0.101,0.865,78.120,-19.320,-12.180
157170216,0.602,0.056,0.954,85.540,-27.160,-18.690
157170241,0.728,-0.015,0.976,92.330,-16.730,-21.980
157170259,0.651,0.119,0.966,107.730,-24.360,-20.300
157170278,0.667,0.374,0.961,78.260,-24.290,-29.470
157170301,0.781,0.417,0.921,52.920,-28.000,-31.500
157170321,0.888,0.198,0.886,66.780,-31.850,-28.630
157170340,0.886,0.519,1.041,68.110,-29.330,-30.520
157170365,0.956,0.631,1.102,16.450,-15.400,-43.400
157170384,0.962,0.516,1.121,20.930,-16.660,-31.920
157170404,0.961,0.565,1.180,24.570,-18.690,-21.350
157170425,0.997,0.558,1.238,15.890,-13.790,-14.140
157170443,1.081,0.578,1.225,10.780,-7.280,-3.290
157170463,1.121,0.725,1.244,0.280,-2.380,4.900
157170487,1.151,0.767,1.192,-30.380,2.310,3.570
157170507,1.193,0.656,1.108,-28.560,-0.420,0.280
157170526,1.239,0.632,1.171,-13.720,1.260,-3.570
157170543,1.256,0.685,1.216,-9.730,4.620,-9.940
157170566,1.191,0.758,1.203,-3.850,10.150,-10.150
157170587,1.049,0.785,1.118,-10.360,9.870,-7.560
157170610,1.008,0.742,0.989,-17.360,7.840,-2.730
157170630,0.955,0.605,0.913,-16.730,8.260,2.940
157170654,0.868,0.548,0.932,-22.890,13.440,9.520
157170669,0.793,0.482,0.946,-37.100,19.530,12.810
157170691,0.719,0.401,0.840,-55.160,26.600,17.780
157170709,0.640,0.285,0.731,-57.820,32.340,25.410
157170729,0.561,0.346,0.705,-66.780,35.140,31.570
157170754,0.521,0.350,0.607,-101.990,43.680,35.700
157170774,0.538,0.398,0.471,-143.850,59.500,40.250
157170790,0.446,0.381,0.466,-158.480,64.820,51.590
157170809,0.388,0.338,0.409,-183.750,79.520,65.590
157170831,0.269,0.346,0.335,-219.870,91.770,87.850
157170855,0.099,0.436,0.239,-290.990,85.330,101.150
157170878,0.005,0.322,0.063,-350.210,79.730,121.030
157170897,-0.163,0.090,0.136,-371.630,72.030,147.280
157170920,-0.266,-0.116,0.156,-384.650,62.230,175.980
157170941,-0.453,-0.124,0.112,-406.000,54.880,197.610
157170965,-0.567,-0.176,0.000,-440.720,42.210,204.960
157170985,-0.647,-0.319,-0.277,-495.670,35.420,198.660
157171005,-0.737,-0.620,-0.423,-508.760,23.240,194.110
157171020,-0.956,-1.083,-0.549,-507.780,5.250,191.030
157171045,-1.074,-1.371,-0.527,-439.880,-63.070,197.960
157171065,-0.769,-1.185,-0.600,-433.300,-86.590,184.870
157171085,-0.725,-1.247,-0.590,-406.980,-65.310,177.030
157171109,-1.013,-1.688,-0.613,-291.900,-86.170,216.790
157171129,-0.677,-1.898,-0.680,-73.080,-133.210,262.920
157171149,-0.452,-1.319,-0.657,-23.870,-103.390,255.430
157171166,-0.505,-1.127,-0.607,-53.200,-81.830,225.890
157171188,-0.528,-1.224,-0.502,-80.150,-57.610,198.030
157171207,-0.595,-1.319,-0.394,-31.150,-49.000,186.410
157171232,-0.506,-1.280,-0.306,50.190,-46.270,186.270
157171252,-0.420,-1.188,-0.299,85.820,-39.060,172.830
157171272,-0.346,-0.917,-0.192,77.630,-28.770,147.280
157171288,-0.304,-0.813,-0.189,70.420,-18.550,126.700
157171312,-0.319,-0.760,-0.205,57.330,-10.850,95.130
157171332,-0.352,-0.736,-0.130,59.010,-6.020,79.940
157171352,-0.386,-0.662,-0.119,41.930,-7.420,63.140
157171372,-0.472,-0.703,-0.143,24.640,-2.870,49.980
157171395,-0.523,-0.716,-0.234,20.300,-7.560,45.570
157171411,-0.546,-0.803,-0.299,22.750,-3.640,46.200
157171436,-0.655,-0.813,-0.310,35.140,-6.580,47.810
157171456,-0.716,-0.831,-0.285,50.190,-2.310,47.530
157171476,-0.758,-0.806,-0.322,60.970,0.770,45.010
157171494,-0.827,-0.819,-0.331,64.400,7.210,37.870
157171513,-0.897,-0.863,-0.374,71.890,13.580,32.550
157171536,-0.892,-0.797,-0.358,73.080,14.700,19.180
157171556,-0.857,-0.794,-0.333,68.320,23.940,1.610
157171579,-0.826,-0.767,-0.276,69.860,31.010,-18.620
157171600,-0.867,-0.702,-0.264,67.200,34.020,-38.430
157171620,-0.851,-0.632,-0.266,61.180,36.400,-52.780
157171637,-0.857,-0.609,-0.270,53.900,37.030,-60.340
157171661,-0.845,-0.611,-0.286,43.610,36.260,-69.370
157171681,-0.868,-0.593,-0.289,35.560,38.220,-74.200
157171701,-0.911,-0.527,-0.314,30.730,36.190,-75.460
157171719,-0.901,-0.545,-0.306,24.220,34.020,-75.530
157171738,-0.928,-0.582,-0.320,24.150,31.570,-75.390
157171759,-0.895,-0.492,-0.338,13.230,29.960,-78.610
157171784,-0.857,-0.516,-0.346,-2.450,36.680,-82.880
157171803,-0.885,-0.549,-0.332,-3.990,37.170,-83.230
157171823,-0.878,-0.579,-0.306,1.960,39.270,-82.250
157171843,-0.894,-0.594,-0.321,1.540,39.130,-81.690
157171863,-0.856,-0.568,-0.295,2.310,39.270,-83.510
157171887,-0.895,-0.528,-0.298,0.280,36.610,-84.840
157171907,-0.853,-0.506,-0.340,-5.180,33.390,-86.590
157171927,-0.812,-0.457,-0.376,-7.420,31.990,-84.630
157171945,-0.834,-0.609,-0.267,-5.950,28.840,-80.850
157171963,-0.844,-0.567,-0.225,17.150,21.000,-74.760
157171983,-0.859,-0.503,-0.203,-12.880,8.750,-71.820
157172005,-0.817,-0.508,-0.255,-23.870,-4.270,-69.020
157172027,-0.756,-0.541,-0.262,-37.100,-16.100,-64.470
157172045,-0.704,-0.583,-0.275,-40.250,-29.330,-60.760
157172064,-0.657,-0.597,-0.253,-41.650,-41.300,-58.030
157172084,-0.607,-0.520,-0.270,-49.770,-53.480,-55.790
157172105,-0.544,-0.477,-0.296,-78.540,-63.070,-61.670
157172124,-0.499,-0.625,-0.345,-91.420,-73.220,-63.070
157172148,-0.496,-0.659,-0.418,-81.480,-87.990,-57.260
157172169,-0.424,-0.638,-0.579,-86.100,-97.860,-58.800
157172188,-0.365,-0.781,-0.661,-81.130,-94.640,-53.410
157172207,-0.302,-0.845,-0.639,-62.300,-95.130,-43.680
157172227,-0.118,-1.018,-0.624,-18.970,-87.080,-29.190
157172252,-0.079,-1.204,-0.595,51.590,-72.240,-1.680
157172272,-0.084,-1.209,-0.590,93.170,-54.600,6.160
157172292,0.015,-1.056,-0.404,97.230,-66.850,0.140
157172310,0.046,-1.196,-0.356,117.530,-35.700,-15.750
157172334,-0.028,-1.492,-0.247,149.730,-26.880,-45.430
157172353,-0.067,-1.459,-0.280,199.080,-25.970,-63.140
157172373,-0.189,-1.214,-0.178,229.110,-28.630,-89.460
157172394,-0.224,-1.057,0.054,202.160,-34.790,-138.810
157172416,-0.143,-1.027,-0.001,155.540,-17.150,-198.730
157172438,-0.030,-1.184,-0.061,142.310,-12.600,-227.150
157172462,-0.031,-1.534,0.039,262.010,3.150,-193.340
157172486,-0.113,-1.288,0.166,384.860,-9.450,-165.550
157172506,-0.223,-0.391,0.183,379.400,-33.530,-177.730
157172529,-0.110,-0.509,0.091,280.280,-29.190,-238.980
157172547,-0.145,-0.887,0.040,303.030,-33.530,-229.390
157172567,-0.156,-0.452,0.129,366.170,-42.280,-212.380
157172591,-0.052,-0.083,0.277,356.510,-61.740,-206.990
157172610,0.162,-0.128,0.219,319.340,-65.240,-203.210
157172628,0.265,-0.125,0.195,304.220,-67.970,-183.960
157172651,0.206,0.120,0.407,261.310,-82.600,-154.630
157172671,0.234,0.446,0.576,160.860,-53.130,-153.090
157172691,0.058,-0.036,0.813,92.680,-49.840,-142.940
157172710,-0.184,-0.347,0.970,121.870,-52.430,-108.220
157172735,0.110,-0.139,0.887,118.230,-69.020,-80.010
157172755,0.260,-0.084,0.569,154.560,-63.770,-55.090
157172771,0.399,0.120,0.490,139.720,-76.860,-45.920
157172791,0.600,0.264,0.649,119.070,-56.700,-45.920
157172815,0.585,0.164,0.777,81.690,-44.450,-51.590
157172835,0.630,-0.103,0.904,83.440,-50.470,-43.540
157172855,0.749,0.070,1.157,90.720,-39.830,-38.640
157172873,0.739,0.185,1.114,72.450,-33.810,-37.310
157172895,0.837,0.225,1.075,50.190,-42.700,-30.100
157172914,0.958,0.310,1.215,29.260,-53.060,-23.170
157172939,1.010,0.355,1.338,45.290,-30.310,-13.790
157172958,1.136,0.573,1.240,49.980,-41.300,-1.540
157172978,1.212,0.656,1.165,22.750,-28.140,1.260
157173002,1.233,0.569,1.134,8.120,-16.520,4.060
157173022,1.198,0.655,1.261,-7.210,-4.060,2.240
157173042,1.198,0.548,1.338,-23.660,4.340,6.440
157173061,1.192,0.460,1.272,5.950,3.500,11.830
157173082,1.204,0.464,1.190,4.690,6.090,5.810
157173106,1.155,0.461,1.112,2.520,11.550,3.080
157173125,1.071,0.472,0.978,-0.070,12.040,5.390
157173145,1.052,0.425,0.939,-2.590,12.670,9.800
157173163,0.987,0.425,0.934,-20.790,14.350,12.670
157173183,0.866,0.346,0.927,-36.400,20.720,19.390
157173207,0.778,0.317,0.927,-35.490,26.740,29.890
157173227,0.698,0.282,0.798,-27.930,27.930,38.780
157173246,0.660,0.293,0.665,-38.010,30.100,44.380
157173263,0.571,0.315,0.538,-50.260,36.470,49.280
157173286,0.500,0.193,0.482,-38.780,36.680,66.010
157173303,0.355,0.221,0.479,-25.130,50.680,82.460
157173324,0.341,0.297,0.488,-42.210,63.420,94.640
157173343,0.346,0.379,0.378,-77.630,84.630,103.460
157173368,0.352,0.354,0.224,-126.840,107.660,117.740
157173385,0.253,0.274,0.190,-134.960,134.260,139.370
157173408,0.076,0.272,0.208,-161.140,168.420,165.550
157173429,-0.051,0.238,0.160,-179.200,196.140,190.190
157173449,-0.221,0.203,0.006,-216.440,220.570,211.610
157173469,-0.481,-0.196,-0.079,-214.900,218.820,242.130
157173489,-0.660,-0.326,0.036,-179.760,220.430,268.170
157173504,-0.715,-0.242,0.125,-187.950,238.770,273.490
157173528,-0.812,-0.181,0.054,-230.440,287.420,267.470
157173549,-1.286,-0.444,-0.050,-261.450,269.990,259.560
157173567,-1.384,-0.606,-0.108,-245.210,233.100,266.350
157173587,-1.439,-0.703,-0.007,-211.680,220.080,268.100
157173611,-1.532,-0.735,0.086,-187.040,207.130,272.580
157173629,-1.323,-0.598,0.171,-166.740,217.350,271.390
157173649,-1.241,-0.381,0.039,-174.790,224.770,267.750
157173673,-1.254,-0.473,-0.122,-155.540,223.580,278.390
157173693,-1.504,-0.672,-0.069,-76.160,198.100,303.240
157173709,-1.621,-0.655,0.160,5.320,169.330,316.750
157173729,-1.561,-0.629,0.316,46.550,159.110,314.720
157173752,-1.510,-0.642,0.293,64.400,152.950,279.930
157173772,-1.563,-0.798,0.313,107.660,127.400,244.160
157173789,-1.588,-0.701,0.250,142.800,107.730,198.520
157173808,-1.404,-0.167,-0.033,130.130,76.720,148.470
157173832,-1.286,0.479,-0.006,29.540,78.400,77.350
157173854,-1.383,0.439,-0.026,-59.500,71.890,7.140
157173878,-1.281,0.322,0.099,-152.670,53.900,-37.380
157173896,-1.234,0.142,0.180,-211.330,46.340,-64.400
157173915,-1.177,-0.206,0.207,-260.330,30.590,-81.130
157173939,-1.110,-0.611,0.201,-259.420,13.370,-84.210
157173960,-1.036,-0.801,0.194,-207.410,-0.280,-84.420
157173980,-0.968,-0.906,0.121,-142.940,-13.930,-52.920
157174004,-0.920,-0.867,0.195,-44.310,-27.510,-26.390
157174023,-0.985,-0.752,0.274,21.560,-33.460,-7.910
157174043,-1.046,-0.521,0.284,64.400,-43.610,0.350
157174067,-1.078,-0.366,0.266,83.020,-48.860,-4.200
157174087,-1.110,-0.265,0.218,80.920,-50.050,-17.290
157174104,-1.143,-0.238,0.183,79.730,-48.160,-26.600
157174126,-1.243,-0.183,0.149,88.620,-54.110,-37.170
157174145,-1.302,-0.154,0.147,94.850,-65.030,-47.950
157174165,-1.324,-0.075,0.116,87.430,-74.620,-65.100
157174185,-1.310,-0.088,0.091,68.460,-81.060,-82.810
157174205,-1.289,-0.174,0.023,58.800,-83.370,-93.450
157174229,-1.297,-0.198,-0.016,56.350,-86.520,-106.890
157174245,-1.362,-0.238,0.020,36.330,-91.910,-128.170
157174265,-1.476,-0.427,0.014,28.910,-99.120,-151.760
157174289,-1.556,-0.564,0.048,32.340,-114.310,-177.800
157174308,-1.451,-0.465,0.079,15.330,-129.290,-206.710
157174324,-1.275,-0.532,0.087,4.900,-128.450,-229.250
157174348,-1.161,-0.639,0.038,13.860,-130.340,-248.150
157174365,-1.051,-0.766,0.059,39.550,-126.770,-243.530
157174389,-1.019,-0.700,0.171,85.820,-124.320,-229.390
157174408,-0.869,-0.508,0.164,99.610,-124.250,-222.670
157174428,-0.696,-0.337,0.210,93.240,-117.670,-221.060
157174450,-0.573,-0.326,0.192,72.730,-99.400,-231.070
157174472,-0.565,-0.534,0.249,60.270,-83.580,-235.340
157174487,-0.637,-0.427,0.232,53.550,-77.910,-241.080
157174512,-0.461,-0.354,0.197,48.020,-65.660,-238.910
157174531,-0.373,-0.404,0.196,62.650,-41.790,-229.950
157174551,-0.448,-0.325,0.156,103.250,-44.520,-203.210
157174571,-0.383,-0.203,0.183,127.750,-38.080,-181.370
157174595,-0.525,-0.061,0.223,118.440,-38.710,-169.330
157174615,-0.714,0.493,0.453,96.390,-40.460,-174.300
157174635,-0.586,-0.712,0.302,55.370,-70.910,-156.800
157174651,-0.363,-0.421,0.459,159.180,-72.240,-122.080
157174671,-0.267,0.125,0.450,114.660,-89.740,-110.600
157174690,-0.020,-0.457,0.387,94.640,-62.300,-109.620
157174714,-0.050,-0.715,0.236,136.990,-49.070,-78.960
157174735,-0.002,-0.671,0.422,172.340,-60.550,-73.290
157174755,-0.062,-0.520,0.583,174.230,-66.570,-73.780
157174775,0.038,-0.288,0.697,166.390,-74.620,-66.990
157174799,0.092,-0.339,0.851,141.120,-71.750,-63.000
157174818,0.046,-0.571,0.905,154.490,-86.800,-56.910
157174837,0.211,-0.280,0.882,147.910,-94.780,-57.820
157174858,0.380,-0.041,0.788,120.190,-84.630,-62.160
157174882,0.493,-0.001,0.783,103.740,-78.400,-55.090
157174902,0.534,-0.054,0.937,114.310,-52.920,-47.530
157174922,0.427,-0.015,1.094,119.840,-44.800,-47.810
157174938,0.496,0.061,1.114,93.590,-36.190,-54.880
157174957,0.640,-0.041,1.008,91.210,-42.910,-50.750
157174981,0.776,0.046,1.074,97.860,-32.620,-45.080
157175001,0.670,-0.002,1.220,101.220,-30.590,-39.760
157175020,0.698,0.148,1.338,91.980,-39.900,-38.780
157175040,0.863,0.337,1.251,37.800,-47.250,-43.260
157175064,0.878,0.237,1.165,-6.160,-33.460,-44.240
157175084,0.915,0.076,1.094,1.400,-42.770,-17.430
157175104,0.870,-0.093,1.164,28.350,-39.060,10.640
157175123,0.752,0.298,1.494,-5.180,-41.090,24.220
157175144,0.876,0.251,1.545,-52.150,-22.120,21.210
157175163,0.875,0.097,1.468,-37.170,-23.310,27.440
157175187,0.979,0.186,1.357,-3.080,-19.740,34.440
157175207,1.024,0.312,1.324,-2.800,-10.780,31.920
157175230,1.075,0.484,1.320,-24.920,4.200,23.450
157175250,0.989,0.395,1.283,-36.820,7.700,19.740
157175270,0.940,0.284,1.225,-37.100,10.780,21.840
157175289,0.854,0.163,1.174,-29.190,10.360,28.840
157175314,0.793,0.118,1.164,-26.600,13.930,39.480
157175334,0.803,0.120,1.034,-33.810,21.140,45.500
157175351,0.753,0.032,0.947,-34.580,21.630,49.420
157175375,0.637,-0.014,0.962,-34.160,22.260,50.330
157175391,0.559,0.049,0.937,-49.070,27.370,50.260
157175410,0.513,-0.014,0.915,-74.410,31.220,50.680
157175435,0.518,-0.167,0.875,-57.960,24.500,60.760
157175454,0.487,-0.140,0.879,-38.150,28.000,66.010
157175474,0.437,-0.127,0.861,-43.120,37.380,63.910
157175498,0.346,-0.148,0.776,-74.130,43.330,60.760
157175516,0.288,-0.227,0.632,-88.060,51.800,63.350
157175536,0.235,-0.315,0.560,-69.860,48.090,81.480
157175560,0.229,-0.172,0.512,-63.700,67.130,102.830
157175580,0.181,0.042,0.439,-80.570,86.100,125.930
157175600,0.170,0.182,0.376,-123.550,110.530,148.960
157175619,0.110,0.188,0.146,-143.150,136.710,172.410
157175640,-0.074,0.027,0.070,-142.730,133.350,200.340
157175660,-0.153,-0.050,0.113,-152.180,159.670,226.030
157175677,-0.282,-0.046,0.103,-171.710,182.210,236.810
157175695,-0.364,0.016,0.073,-218.050,224.700,235.410
157175717,-0.712,-0.182,-0.013,-262.430,237.090,235.830
157175741,-0.948,-0.622,0.008,-240.450,199.080,267.540
157175761,-1.118,-0.729,0.181,-152.110,185.500,294.770
157175780,-1.279,-0.568,0.272,-103.040,178.570,312.340
157175799,-1.269,-0.366,0.236,-106.400,185.010,311.780
157175821,-1.088,-0.373,0.066,-111.720,186.200,301.910
157175843,-1.251,-0.248,0.008,-115.850,187.250,291.130
157175864,-1.411,-0.245,0.179,-119.980,177.870,277.970
157175884,-1.523,-0.277,0.345,-120.470,181.230,267.260
157175905,-1.566,-0.455,0.457,-102.480,184.450,257.530
157175929,-1.501,-0.514,0.304,-64.470,159.670,241.570
157175947,-1.520,-0.928,0.382,-9.310,140.980,228.340
157175967,-1.784,-1.558,0.467,115.010,77.420,207.480
157175988,-1.206,-0.783,-0.017,242.550,35.980,193.620
157176008,-0.985,0.200,-0.036,214.130,18.410,137.900
157176032,-1.044,0.240,0.015,113.960,25.550,64.610
157176051,-1.247,0.333,-0.004,50.960,24.150,19.880
157176071,-1.227,0.360,0.031,-48.440,10.990,-13.230
157176093,-1.133,0.146,0.137,-134.260,9.240,-42.000
157176113,-1.160,-0.223,0.214,-182.700,-0.280,-57.960
157176137,-1.114,-0.567,0.226,-180.250,-20.160,-63.840
157176157,-0.992,-0.702,0.189,-134.750,-30.800,-55.090
157176181,-0.949,-0.634,0.148,-86.100,-42.630,-42.420
157176201,-0.972,-0.606,0.168,-19.180,-50.890,-31.920
157176220,-1.012,-0.534,0.173,13.230,-54.110,-23.870
157176240,-1.080,-0.393,0.138,47.390,-61.040,-20.160
157176260,-1.129,-0.242,0.090,58.240,-67.130,-23.520
157176282,-1.125,-0.157,0.052,52.850,-70.280,-33.110
157176302,-1.120,-0.109,0.015,36.050,-70.630,-49.000
157176322,-1.144,-0.147,0.051,20.720,-69.580,-72.310
157176345,-1.255,-0.209,0.102,4.200,-75.040,-103.880
157176365,-1.319,-0.275,0.140,-6.720,-81.410,-137.900
157176389,-1.412,-0.423,0.134,-21.140,-83.930,-180.460
157176409,-1.479,-0.710,0.057,-12.670,-87.430,-202.090
157176429,-1.488,-0.844,0.027,26.950,-94.010,-211.330
157176448,-1.461,-0.686,0.094,49.770,-99.330,-216.440
157176468,-1.377,-0.661,0.076,53.830,-99.260,-233.380
157176489,-1.229,-0.737,0.076,71.120,-98.630,-250.040
157176507,-1.165,-0.773,0.071,78.260,-99.260,-250.320
157176531,-1.000,-0.622,0.175,81.550,-97.720,-241.500
157176550,-0.888,-0.521,0.173,77.840,-85.680,-242.270
157176571,-0.655,-0.499,0.234,75.250,-75.320,-237.650
157176591,-0.542,-0.485,0.213,90.160,-68.320,-224.560
157176611,-0.479,-0.335,0.257,97.650,-67.690,-214.480
157176631,-0.378,-0.164,0.261,88.830,-64.680,-213.570
157176651,-0.285,-0.156,0.245,79.520,-47.460,-211.540
157176671,-0.304,-0.279,0.142,103.950,-44.240,-199.010
157176694,-0.237,-0.218,0.107,138.460,-45.220,-184.310
157176712,-0.191,-0.048,0.154,122.990,-40.670,-180.880
157176736,-0.484,0.414,0.353,52.220,-67.270,-203.910
157176753,-0.330,-0.414,0.386,35.420,-73.710,-180.950
157176772,-0.169,-0.530,0.556,183.400,-106.400,-113.960
157176796,-0.257,-0.089,0.453,175.420,-87.220,-100.240
157176816,0.011,-0.212,0.299,154.140,-86.590,-92.890
157176832,0.040,-0.392,0.233,150.570,-64.190,-94.360
157176856,0.081,-0.357,0.234,169.890,-61.950,-76.090
157176876,0.108,-0.290,0.362,160.230,-59.640,-77.560
157176895,0.087,-0.347,0.647,127.260,-43.260,-86.940
157176913,0.095,-0.454,0.680,104.720,-50.050,-88.130
157176936,0.211,-0.428,0.776,111.930,-50.190,-83.160
157176960,0.142,-0.415,0.901,122.500,-49.700,-76.510
157176978,0.168,-0.393,0.980,107.870,-53.060,-79.660
157177002,0.229,-0.419,1.037,103.320,-55.160,-73.850
157177022,0.344,-0.246,1.046,110.320,-48.090,-69.440
157177042,0.432,-0.048,1.057,103.110,-56.140,-65.800
157177061,0.470,0.098,1.046,88.970,-42.980,-57.680
157177082,0.478,0.174,1.009,67.620,-42.210,-44.030
157177102,0.502,0.143,0.908,59.220,-37.660,-16.870
157177122,0.519,-0.033,1.115,97.440,-44.100,16.800
157177140,0.574,0.244,1.223,80.500,-47.810,25.900
157177157,0.635,0.188,1.256,31.290,-22.820,15.470
157177182,0.676,0.104,1.205,15.470,-27.580,14.630
157177198,0.765,-0.039,1.266,7.560,-32.340,15.540
157177217,0.796,-0.148,1.523,1.400,-20.440,9.660
157177242,0.818,-0.180,1.662,5.460,-19.670,4.690
157177262,0.940,-0.060,1.658,14.210,-41.510,7.980
157177282,1.107,0.043,1.582,21.980,-23.870,4.760
157177306,0.999,0.259,1.522,-0.420,-24.010,4.550
157177324,0.953,0.142,1.552,-29.610,-17.290,3.080
157177348,1.012,0.009,1.569,-11.130,-15.750,10.360
157177365,1.006,0.082,1.467,-1.050,-13.510,13.090
157177389,1.084,0.191,1.260,-5.530,-2.100,8.960
157177409,1.026,0.186,1.169,-20.020,12.880,6.160
157177428,0.904,0.060,1.164,-15.190,15.120,8.190
157177451,0.766,0.025,1.198,-12.180,19.180,10.290
157177471,0.657,-0.012,1.102,-17.710,17.640,13.790
157177492,0.671,-0.011,0.977,-29.190,16.450,18.130
157177511,0.683,0.013,0.963,-41.230,17.640,23.310
157177530,0.630,-0.066,0.961,-47.600,25.970,28.560
157177555,0.508,-0.120,0.958,-35.210,22.050,37.450
157177575,0.417,-0.093,0.883,-30.450,16.800,45.710
157177594,0.431,-0.064,0.667,-40.180,20.370,50.820
157177611,0.494,0.058,0.615,-60.900,26.740,56.910
157177630,0.437,0.069,0.557,-81.550,39.200,67.480
157177654,0.295,0.124,0.536,-82.810,47.810,93.310
157177673,0.122,0.177,0.513,-100.940,55.930,113.050
157177695,0.057,0.117,0.373,-127.820,61.180,140.420
157177715,0.060,0.163,0.278,-186.760,82.600,164.150
157177733,-0.061,-0.032,0.192,-207.130,110.040,189.700
157177757,-0.289,-0.338,0.174,-156.730,94.920,239.190
157177777,-0.343,-0.388,0.217,-126.910,105.770,275.100
157177796,-0.401,-0.348,0.214,-122.080,131.460,293.090
157177813,-0.462,-0.356,0.078,-135.170,138.670,296.940
157177837,-0.504,-0.468,0.048,-129.850,175.630,308.280
157177857,-0.769,-0.488,0.006,-125.860,187.040,302.400
157177877,-0.962,-0.402,0.166,-157.010,216.440,289.730
157177897,-1.418,-0.773,0.090,-154.490,238.350,272.720
157177917,-1.326,-0.807,0.201,-152.670,222.810,261.380
157177941,-1.223,-0.536,0.028,-139.790,233.730,255.920
157177960,-1.219,-0.388,-0.014,-136.990,242.060,241.920
157177979,-1.573,-0.705,0.044,-101.010,221.410,243.810
157178003,-1.627,-0.796,0.245,-6.580,205.520,267.960
157178022,-1.583,-0.656,0.361,43.890,198.240,276.360
157178042,-1.433,-0.531,0.281,101.430,184.310,278.530
157178063,-1.404,-0.722,0.206,169.330,144.620,275.660
157178083,-1.397,-0.561,0.360,217.000,95.200,244.160
157178103,-1.223,-0.329,0.503,198.030,64.890,168.000
157178123,-0.949,0.124,0.407,117.180,47.670,112.490
157178147,-0.806,0.425,0.329,7.700,55.580,33.880
157178167,-0.915,0.254,0.205,-90.370,55.580,-14.560
157178187,-1.077,0.056,0.220,-108.710,33.740,-30.030
157178207,-1.120,0.022,0.190,-133.140,15.750,-33.320
157178227,-1.095,-0.082,0.097,-161.560,3.080,-33.740
157178246,-1.071,-0.286,0.043,-173.600,-4.830,-31.220
157178264,-1.117,-0.527,0.059,-156.870,-16.940,-19.810
157178284,-1.150,-0.596,0.089,-131.110,-29.960,-9.800
157178308,-1.089,-0.578,0.067,-104.090,-44.590,-14.000
157178325,-1.001,-0.533,0.062,-83.440,-46.060,-19.950
157178349,-1.015,-0.453,0.086,-56.140,-47.740,-28.490
157178368,-1.023,-0.364,0.132,-28.210,-48.370,-39.270
157178389,-1.035,-0.298,0.156,-3.640,-47.810,-71.680
157178409,-1.032,-0.265,0.146,11.060,-45.150,-68.950
157178424,-1.029,-0.267,0.107,18.550,-42.350,-79.450
157178449,-1.058,-0.304,0.069,40.740,-35.700,-84.700
157178467,-1.121,-0.298,0.043,67.900,-36.540,-81.130
157178489,-1.152,-0.256,0.048,92.120,-38.710,-75.740
157178508,-1.183,-0.203,0.030,107.450,-43.190,-70.770
157178533,-1.220,-0.185,0.027,119.560,-57.680,-70.980
157178550,-1.218,-0.201,0.057,113.120,-63.770,-80.570
157178569,-1.279,-0.259,0.061,87.990,-67.830,-98.700
157178593,-1.367,-0.355,0.136,67.480,-74.410,-121.100
157178614,-1.396,-0.320,0.163,42.840,-86.660,-143.500
157178634,-1.259,-0.333,0.125,3.220,-91.000,-168.280
157178652,-1.171,-0.412,0.128,-21.070,-90.300,-186.130
157178675,-1.104,-0.465,0.172,-33.180,-92.120,-197.750
157178694,-1.055,-0.684,0.218,-30.730,-84.910,-207.340
157178714,-1.112,-0.849,0.264,-1.470,-82.250,-203.910
157178734,-1.078,-0.873,0.299,38.990,-85.890,-200.130
157178754,-0.994,-0.838,0.335,62.790,-90.720,-198.730
157178775,-0.957,-0.745,0.407,90.020,-93.450,-189.000
157178796,-0.858,-0.650,0.394,107.380,-95.690,-182.210
157178818,-0.788,-0.610,0.396,126.910,-98.630,-169.890
157178837,-0.689,-0.491,0.342,126.770,-100.660,-164.640
157178857,-0.592,-0.195,0.234,111.930,-103.110,-157.080
157178881,-0.648,0.427,0.472,-1.400,-107.520,-204.750
157178905,-0.436,0.008,0.380,-122.430,-101.850,-245.000
157178922,-0.257,-1.522,0.297,45.850,-70.140,-169.960
157178946,-0.285,-0.654,0.317,187.460,-87.780,-140.630
157178966,-0.182,-0.397,0.413,164.010,-57.190,-163.030
157178985,-0.198,-0.413,0.434,147.210,-52.220,-180.460
157179002,-0.111,-0.551,0.482,127.050,-36.330,-201.740
157179026,-0.130,-0.460,0.359,156.660,-27.930,-188.230
157179044,0.014,-0.317,0.407,223.510,-32.900,-167.090
157179068,-0.077,-0.143,0.392,251.160,-56.070,-158.620
157179088,0.027,-0.110,0.360,231.630,-72.730,-160.580
157179108,0.046,-0.390,0.231,233.660,-76.440,-146.370
157179128,0.046,-0.114,0.267,243.600,-105.770,-119.140
157179147,0.125,0.021,0.410,214.410,-102.550,-106.050
157179169,0.108,0.004,0.463,164.010,-98.560,-92.960
157179191,0.095,-0.108,0.451,145.740,-100.870,-65.730
157179215,0.114,-0.216,0.472,158.620,-97.020,-33.320
157179235,0.149,0.166,0.480,168.910,-103.180,4.900
157179253,0.183,0.524,0.495,143.150,-92.400,15.050
157179274,0.275,0.566,0.556,69.930,-82.390,13.510
157179294,0.358,0.238,0.617,34.720,-63.700,13.930
157179312,0.454,-0.099,0.704,75.040,-71.820,26.180
157179336,0.656,0.194,0.871,72.450,-85.750,24.360
157179356,0.936,0.237,0.899,55.650,-41.650,14.000
157179376,0.976,0.233,0.740,32.830,-42.700,12.040
157179396,1.042,0.160,0.740,24.710,-32.130,4.550
157179416,1.032,0.195,0.819,16.870,-25.760,3.220
157179436,0.980,0.271,0.899,10.010,-22.260,-1.540
157179456,0.964,0.312,0.948,7.280,-22.050,-5.600
157179475,1.048,0.320,0.934,-1.260,-21.840,-8.540
157179495,1.009,0.239,1.021,7.630,-18.970,-9.100
157179515,1.061,0.229,1.089,13.440,-23.590,-5.530
157179538,1.061,0.207,1.101,10.640,-24.500,-5.040
157179559,1.098,0.200,1.141,8.330,-24.080,-6.160
157179583,1.129,0.259,1.041,16.310,-22.400,-2.800
157179602,1.146,0.368,1.031,6.510,-18.620,4.760
157179623,1.269,0.376,1.088,-21.980,-10.080,10.080
157179646,1.297,0.292,1.131,-29.470,-6.580,9.660
157179667,1.325,0.387,1.279,-20.720,-8.820,1.750
157179687,1.369,0.401,1.308,-11.480,6.860,-4.060
157179707,1.306,0.527,1.176,10.920,10.850,-3.430
157179727,1.303,0.598,1.098,6.580,11.060,-2.800
157179746,1.244,0.398,1.060,2.800,10.290,-0.420
157179769,1.181,0.336,1.049,14.840,4.550,5.670
157179789,1.082,0.345,1.019,8.540,6.930,8.960
157179808,0.987,0.228,0.907,6.230,10.010,15.750
157179828,0.916,0.227,0.826,-1.330,6.790,19.250
157179848,0.917,0.272,0.769,-16.800,9.590,22.120
157179872,0.925,0.330,0.695,-48.580,20.020,28.070
157179892,0.846,0.285,0.644,-59.430,35.140,40.530
157179912,0.705,0.254,0.612,-47.950,42.560,60.690
157179932,0.541,0.292,0.553,-58.240,59.710,79.100
157179947,0.526,0.293,0.416,-81.410,67.620,89.530
157179967,0.528,0.229,0.262,-115.640,82.320,97.440
157179992,0.397,0.000,0.220,-104.300,86.450,116.830
157180012,0.257,0.160,0.467,-119.700,105.000,131.950
157180032,0.115,0.162,0.478,-140.700,131.320,146.720
157180053,0.011,0.065,0.216,-181.860,143.150,171.920
157180076,-0.047,-0.180,0.196,-179.830,168.280,192.290
157180093,-0.314,-0.318,0.189,-134.610,147.070,215.670
157180113,-0.268,-0.224,0.209,-123.480,172.060,231.000
157180137,-0.369,-0.211,0.198,-132.720,198.380,246.960
157180155,-0.489,-0.236,0.102,-173.110,214.340,244.230
157180179,-0.775,-0.666,0.101,-138.390,221.270,260.680
157180197,-0.845,-0.675,0.350,-105.000,242.760,266.700
157180219,-0.985,-0.754,0.398,-84.210,292.880,271.320
157180239,-0.971,-0.363,0.127,-73.150,288.610,268.660
157180259,-1.227,-0.632,0.064,-55.930,295.120,254.800
157180282,-1.564,-0.628,0.305,-13.230,257.320,245.770
157180302,-1.522,-0.310,0.534,-17.430,261.380,234.500
157180326,-1.496,-0.098,0.521,-25.200,258.860,221.830
157180346,-1.227,0.186,0.151,-81.060,227.080,205.660
157180364,-1.301,-0.146,0.091,-59.080,211.820,207.200
157180381,-1.526,-0.185,0.313,-39.340,180.110,208.600
157180406,-1.401,-0.081,0.577,-70.140,157.290,191.240
157180429,-1.327,-0.137,0.540,-117.880,155.400,157.500
157180449,-1.262,-0.155,0.456,-149.030,135.450,127.820
157180469,-1.134,-0.274,0.305,-156.030,113.050,104.160
157180489,-1.159,-0.439,0.215,-128.590,84.560,72.310
157180509,-1.159,-0.450,0.033,-103.390,58.870,63.980
157180529,-1.168,-0.338,-0.087,-68.390,32.900,43.890
157180548,-1.170,-0.264,-0.082,-59.220,14.280,32.410
157180572,-1.151,-0.320,-0.075,-60.480,3.360,24.220
157180593,-1.140,-0.377,0.006,-64.820,-4.410,21.140
157180613,-1.077,-0.431,0.079,-78.890,-6.790,14.280
157180633,-1.110,-0.624,0.138,-86.590,-5.040,6.090
157180653,-1.134,-0.555,0.141,-81.130,-11.620,0.630
157180671,-1.151,-0.573,0.173,-57.750,-16.940,-5.740
157180692,-1.160,-0.468,0.137,-34.720,-28.350,-16.380
157180712,-1.047,-0.425,0.120,-15.890,-34.090,-26.530
157180736,-1.011,-0.382,0.100,-3.920,-34.790,-43.400
157180756,-1.018,-0.363,0.076,10.080,-36.610,-54.880
157180772,-1.004,-0.321,0.031,21.910,-37.380,-59.010
157180791,-1.028,-0.326,0.016,39.270,-42.350,-64.330
157180816,-1.060,-0.312,0.002,60.130,-48.510,-72.170
157180836,-1.127,-0.326,0.021,74.970,-56.140,-78.400
157180856,-1.211,-0.375,0.066,75.740,-65.730,-99.260
157180875,-1.322,-0.467,0.112,72.590,-67.970,-123.480
157180891,-1.503,-0.519,0.080,73.080,-79.730,-142.660
157180915,-1.576,-0.491,0.094,59.710,-99.960,-176.330
157180936,-1.576,-0.512,0.170,28.630,-95.900,-210.770
157180955,-1.522,-0.589,0.105,12.040,-96.390,-234.850
157180980,-1.410,-0.590,0.081,12.390,-96.670,-251.930
157180998,-1.358,-0.732,0.142,27.020,-96.390,-258.160
157181019,-1.343,-0.686,0.326,56.560,-100.450,-245.210
157181040,-1.183,-0.554,0.287,73.290,-114.450,-237.370
157181060,-0.864,-0.441,0.121,69.370,-120.330,-238.000
157181084,-0.607,-0.520,0.076,66.290,-124.530,-238.420
157181104,-0.591,-0.421,0.356,49.630,-90.020,-234.570
157181123,-0.595,-0.423,0.367,59.150,-69.090,-230.440
157181148,-0.543,-0.669,0.252,138.250,-65.870,-208.880
157181168,-0.495,-0.413,0.143,161.560,-63.350,-198.590
157181188,-0.541,-0.396,0.170,160.230,-51.380,-194.180
157181206,-0.637,-0.412,0.217,168.350,-62.020,-182.350
157181228,-0.396,-0.225,0.162,180.110,-48.230,-173.950
157181252,-0.392,0.102,0.155,177.450,-66.360,-167.370
157181272,-0.589,0.720,0.517,89.530,-79.310,-221.480
157181290,-0.418,-0.254,0.539,-17.360,-107.590,-238.280
157181312,-0.325,-0.961,0.370,177.450,-107.380,-131.040
157181331,-0.219,0.031,0.311,226.800,-128.520,-107.660
157181356,0.020,-0.322,0.301,170.800,-107.730,-130.970
157181374,0.013,-0.326,0.220,170.240,-104.300,-115.920
157181398,0.068,-0.504,0.297,183.820,-94.920,-102.130
157181418,0.025,-0.260,0.406,192.640,-104.930,-94.500
157181437,0.152,-0.081,0.530,157.150,-107.520,-98.910
157181460,0.209,-0.138,0.533,117.810,-82.880,-84.980
157181480,0.206,0.001,0.572,115.850,-84.910,-54.110
157181499,0.308,0.010,0.732,100.800,-75.600,-70.490
157181524,0.334,-0.121,0.869,82.110,-60.690,-64.610
157181544,0.482,-0.090,1.020,103.390,-52.850,-52.850
157181564,0.589,0.219,1.050,116.900,-45.080,-43.330
157181584,0.639,0.450,0.984,104.510,-54.110,-38.080
157181604,0.701,0.192,1.025,117.390,-32.550,-26.390
157181628,0.819,0.083,1.048,147.630,-27.090,-3.150
157181648,0.868,0.186,0.985,144.130,-29.330,-11.830
157181668,0.890,0.211,0.968,135.240,-29.540,-16.730
157181687,0.790,0.366,0.964,104.300,-36.750,-29.540
157181707,0.860,0.148,0.843,38.920,-40.460,-44.310
157181726,0.942,0.216,0.938,33.740,-27.370,-34.790
157181751,0.740,0.465,0.904,30.940,-31.640,-25.060
157181769,0.824,0.343,0.923,13.230,-26.600,-25.830
157181788,0.874,0.404,1.073,-2.940,-15.400,-21.140
157181809,0.794,0.531,1.115,-22.120,-8.260,-8.680
157181828,0.893,0.423,1.139,-19.250,-9.730,2.800
157181848,0.966,0.395,1.147,-6.580,-2.800,14.210
157181868,1.051,0.430,1.150,-5.880,-0.420,15.260
157181890,1.050,0.538,1.229,-8.190,6.860,7.420
157181910,1.066,0.624,1.297,-11.970,-8.750,-2.660
157181934,0.986,0.570,1.375,-13.160,10.850,-16.450
157181954,0.806,0.349,1.354,-7.910,2.590,-24.150
157181974,0.921,0.225,1.135,19.740,-20.230,-14.280
157181993,1.082,0.442,0.914,39.480,-30.030,0.560
157182014,1.050,0.752,0.670,29.190,-23.590,17.150
157182034,1.017,0.799,0.601,-3.430,-21.280,20.510
157182054,0.885,0.658,0.829,-37.240,-3.360,16.450
157182072,0.789,0.481,0.958,-50.470,-0.700,21.280
157182094,0.848,0.427,1.005,-48.440,2.590,30.730
157182114,0.863,0.397,0.988,-44.870,11.480,39.270
157182138,0.778,0.329,0.868,-52.150,18.970,43.960
157182162,0.833,0.287,0.834,-75.180,26.530,39.270
157182182,0.774,0.209,0.894,-92.400,36.820,33.670
157182202,0.743,0.024,0.869,-82.670,45.710,40.460
157182221,0.578,0.077,0.855,-44.520,40.740,54.880
157182246,0.666,0.257,0.741,-60.340,39.410,61.250
157182266,0.718,0.247,0.685,-92.540,50.120,61.390
157182286,0.638,0.132,0.587,-127.750,68.740,70.560
157182302,0.552,0.000,0.456,-129.360,84.490,82.880
157182323,0.369,0.077,0.421,-118.650,101.570,104.090
157182343,0.238,0.471,0.441,-146.440,110.950,116.060
157182363,0.128,0.380,0.403,-225.680,127.960,113.610
157182387,0.024,-0.112,0.279,-264.530,143.430,123.760
157182407,-0.114,-0.478,0.217,-206.430,129.430,155.540
157182426,-0.092,-0.328,0.257,-154.420,133.140,185.360
157182446,-0.156,-0.207,0.212,-140.140,151.480,207.690
157182466,-0.292,-0.237,0.170,-157.290,167.440,224.210
157182491,-0.388,-0.285,0.222,-175.070,207.690,233.100
157182506,-0.612,-0.261,0.135,-213.850,224.070,228.060
157182531,-0.891,-0.746,0.107,-191.590,205.730,254.310
157182550,-0.981,-0.926,0.236,-88.200,193.270,280.140
157182571,-1.025,-0.511,0.260,-76.440,217.980,280.980
157182591,-1.166,-0.451,0.226,-68.320,230.930,286.650
157182615,-1.139,-0.164,0.198,-92.260,242.060,275.450
157182630,-1.222,-0.121,-0.095,-129.290,259.210,261.730
157182654,-1.363,-0.281,-0.111,-118.160,236.040,269.570
157182672,-1.590,-0.291,0.078,-91.070,222.600,277.900
157182696,-1.747,-0.328,0.381,-52.150,206.010,283.640
157182716,-1.721,-0.396,0.472,-20.650,189.980,275.100
157182736,-1.516,-0.335,0.359,-0.070,154.910,249.340
157182755,-1.273,-0.344,0.173,2.450,116.900,201.810
157182779,-1.219,-0.611,0.335,23.800,69.650,137.410
157182799,-1.026,-0.274,0.231,41.020,24.220,85.820
157182819,-0.836,0.178,0.273,-9.800,15.960,29.190
157182838,-0.929,0.149,0.180,-85.190,16.800,-33.390
157182858,-1.051,0.082,0.085,-140.840,5.740,-66.990
157182883,-1.085,0.036,0.021,-204.610,2.660,-79.870
157182902,-1.172,-0.093,-0.072,-253.330,-0.070,-79.660
157182923,-1.210,-0.497,-0.086,-279.580,-6.020,-69.440
157182943,-1.194,-0.926,-0.047,-259.420,-20.860,-51.170
157182963,-1.119,-1.097,0.039,-183.330,-32.340,-24.430
157182987,-1.006,-0.947,0.079,-106.400,-45.990,-13.510
157183007,-0.894,-0.742,0.102,-50.050,-49.700,-15.680
157183027,-0.885,-0.600,0.163,15.890,-49.000,-21.070
157183045,-0.961,-0.401,0.168,53.480,-49.280,-37.380
157183064,-1.003,-0.314,0.130,67.970,-48.720,-56.070
157183088,-1.014,-0.256,0.076,68.180,-48.510,-75.810
157183107,-1.018,-0.281,0.069,68.040,-35.420,-80.640
157183128,-1.228,-0.354,0.062,80.430,-24.010,-78.680
157183148,-1.429,-0.415,-0.022,95.830,-25.480,-70.980
157183166,-1.497,-0.427,-0.033,110.040,-35.210,-63.350
157183183,-1.364,-0.472,-0.014,125.930,-36.890,-57.330
157183208,-1.318,-0.433,0.026,163.310,-35.210,-50.260
157183227,-1.315,-0.304,0.000,176.470,-46.900,-53.060
157183248,-1.190,-0.203,-0.008,178.360,-56.210,-59.780
157183268,-1.086,-0.144,0.019,169.750,-60.900,-63.910
157183287,-1.033,-0.062,0.063,152.880,-64.470,-63.910
157183308,-0.934,0.012,0.096,115.640,-66.990,-63.980
157183326,-0.851,0.017,0.089,84.420,-63.770,-64.330
157183350,-0.789,-0.019,0.065,48.090,-58.520,-61.530
157183368,-0.737,-0.094,0.056,22.400,-52.290,-54.600
157183387,-0.785,-0.114,0.034,6.790,-45.360,-45.290
157183412,-0.831,-0.130,0.021,-3.920,-41.930,-30.730
157183428,-0.860,-0.136,-0.014,-9.030,-39.130,-21.980
157183451,-0.886,-0.117,-0.046,-18.340,-34.790,-10.710
157183472,-0.887,-0.110,-0.057,-34.090,-25.620,-4.620
157183487,-0.909,-0.125,-0.075,-46.060,-17.500,-2.870
157183512,-0.891,-0.142,-0.080,-59.640,-8.050,-2.660
157183532,-0.856,-0.160,-0.073,-70.560,4.130,-4.340
157183551,-0.852,-0.185,-0.058,-72.030,13.650,-5.180
157183570,-0.855,-0.218,-0.031,-64.330,22.540,-4.130
157183592,-0.859,-0.243,-0.017,-50.260,31.430,0.560
157183611,-0.854,-0.256,-0.021,-34.930,39.200,6.230
157183636,-0.999,-0.264,-0.043,-17.220,48.860,19.180
157183654,-0.915,-0.241,-0.058,-4.550,53.410,32.270
157183675,-0.957,-0.209,-0.052,2.310,58.100,46.060
157183697,-0.970,-0.188,-0.026,-0.420,63.140,60.900
157183718,-0.979,-0.190,-0.005,-5.320,68.390,73.710
157183740,-1.017,-0.181,-0.002,-14.630,73.010,85.680
157183760,-1.043,-0.178,-0.011,-25.620,75.040,93.870
157183780,-1.090,-0.168,-0.019,-35.070,75.740,101.500
157183804,-1.157,-0.156,-0.022,-49.140,74.550,107.240
157183822,-1.187,-0.163,-0.022,-64.400,69.790,108.500
157183839,-1.189,-0.165,-0.046,-82.180,65.170,108.500
157183864,-1.220,-0.214,-0.142,-97.790,57.960,106.540
157183886,-1.355,-0.433,-0.063,-91.630,41.440,100.030
157183905,-1.438,-0.524,0.075,-86.520,12.950,84.840
157183930,-1.351,-0.467,0.153,-104.160,-5.950,47.460
157183950,-1.198,-0.366,0.130,-122.850,-6.930,18.410
157183970,-1.200,-0.309,0.108,-156.730,-10.780,-14.980
157183990,-1.250,-0.405,0.073,-171.780,-12.530,-35.560
157184014,-1.228,-0.477,-0.121,-176.960,-11.200,-40.460
157184034,-1.135,-0.625,-0.041,-168.280,-11.060,-34.580
157184053,-1.085,-0.754,0.003,-131.880,-13.300,-24.290
157184073,-0.992,-0.734,0.052,-80.850,-17.850,-17.290
157184097,-0.937,-0.639,0.125,-42.560,-14.980,-20.650
157184117,-0.899,-0.581,0.183,1.960,-12.110,-27.790
157184137,-0.842,-0.510,0.192,35.630,-10.920,-53.690
157184156,-0.849,-0.504,0.179,68.390,-9.030,-41.440
157184172,-0.882,-0.508,0.171,101.780,-12.740,-40.810
157184197,-0.946,-0.447,0.177,142.030,-18.900,-35.630
157184218,-1.067,-0.366,0.151,173.670,-28.420,-29.890
157184236,-1.150,-0.318,0.119,178.780,-34.370,-28.070
157184260,-1.211,-0.140,0.111,148.260,-44.590,-34.510
157184279,-1.126,-0.061,0.034,98.560,-49.350,-46.690
157184296,-1.155,-0.182,-0.029,66.570,-48.090,-55.650
157184319,-1.272,-0.310,-0.038,56.140,-52.080,-65.240
157184339,-1.383,-0.313,-0.064,57.750,-70.350,-77.700
157184363,-1.206,-0.231,-0.056,47.110,-74.060,-99.470
157184382,-1.188,-0.246,-0.075,45.710,-67.480,-114.380
157184401,-1.215,-0.235,-0.079,57.750,-61.320,-121.100
157184425,-1.235,-0.177,-0.056,75.670,-51.940,-118.300
157184443,-1.183,-0.138,-0.017,86.170,-44.590,-113.330
157184462,-1.067,-0.142,0.008,94.780,-32.130,-104.720
157184486,-0.953,-0.146,0.061,108.990,-16.520,-91.490
157184506,-0.881,-0.135,0.086,122.920,-5.320,-79.310
157184530,-0.824,-0.103,0.099,137.480,5.110,-63.840
157184550,-0.792,-0.056,0.102,146.370,10.570,-50.540
157184570,-0.755,0.003,0.086,146.090,16.170,-39.760
157184590,-0.713,0.065,0.077,133.000,22.610,-28.700
157184606,-0.685,0.117,0.081,118.230,30.520,-20.720
157184630,-0.685,0.131,0.080,84.770,43.260,-8.610
157184647,-0.709,0.126,0.084,61.250,53.830,1.260
