Millis,AccelX_chest,AccelY_chest,AccelZ_chest,GyroX_chest,GyroY_chest,GyroZ_chest,AccelX_right_leg,AccelY_right_leg,AccelZ_right_leg,GyroX_right_leg,GyroY_right_leg,GyroZ_right_leg,AccelX_right_arm,AccelY_right_arm,AccelZ_right_arm,GyroX_right_arm,GyroY_right_arm,GyroZ_right_arm,AccelX_left_arm,AccelY_left_arm,AccelZ_left_arm,GyroX_left_arm,GyroY_left_arm,GyroZ_left_arm
0.0,-0.956,-0.023,-0.184,-4.69,-4.2,-3.08,-1.003,0.127,0.131,-4.62,2.66,-7.7,-0.957,0.367,-0.022,7.77,-16.31,13.02,-1.039,-0.185,0.017,-13.02,3.99,0.84
20.0,-0.978,-0.036,-0.16,-3.56,-5.043,-4.114,-1.013,0.134,0.134,-4.48,1.4,-6.79,-0.965,0.383,-0.023,1.897,-18.095,14.09,-1.03,-0.186,0.027,-8.814,3.735,1.14
40.0,-0.989,-0.043,-0.146,-1.335,-7.577,-5.129,-1.017,0.131,0.131,-4.086,0.018,-5.498,-0.972,0.38,-0.031,-3.665,-18.512,15.037,-1.01,-0.185,0.03,-4.533,2.404,1.359
60.0,-0.987,-0.03,-0.168,-0.4,-7.767,-5.345,-1.01,0.141,0.119,-4.514,-1.574,-4.386,-0.997,0.366,-0.049,-7.912,-19.849,16.48,-0.989,-0.178,0.036,-1.621,1.285,1.595
80.0,-0.994,-0.022,-0.202,0.324,-4.771,-5.936,-1.01,0.136,0.128,-4.69,-3.5,-3.08,-1.012,0.346,-0.07,-8.118,-21.756,18.39,-0.974,-0.162,0.035,-2.423,-0.497,0.982
100.0,-0.999,0.002,-0.198,2.08,0.163,-5.95,-1.005,0.123,0.139,-4.69,-3.85,-2.1,-1.011,0.331,-0.085,-6.65,-22.82,20.37,-0.955,-0.158,0.036,-5.445,-0.63,0.486
120.0,-1.003,0.013,-0.181,3.171,2.744,-5.346,-1.009,0.116,0.146,-3.955,-4.088,-1.434,-1.002,0.324,-0.094,-3.814,-24.213,22.396,-0.956,-0.163,0.033,-7.837,-0.204,1.112
140.0,-1.014,0.018,-0.167,3.335,3.136,-3.777,-1.006,0.117,0.143,-1.927,-4.478,-0.654,-0.989,0.325,-0.091,-2.012,-24.175,23.71,-0.978,-0.168,0.023,-10.946,0.311,2.974
160.0,-1.037,0.008,-0.151,3.861,2.799,-2.731,-1.002,0.135,0.141,-1.557,-4.356,-0.351,-0.964,0.327,-0.089,-1.93,-23.706,23.498,-1.003,-0.183,0.016,-12.264,0.298,5.591
180.0,-1.035,-0.007,-0.151,3.66,0.339,-3.059,-1.004,0.137,0.14,-1.599,-4.445,0.002,-0.945,0.334,-0.085,-3.332,-21.726,21.88,-1.017,-0.191,0.01,-12.496,0.495,8.263
200.0,-1.0,-0.015,-0.19,1.491,-1.124,-4.343,-1.106,0.136,0.14,-1.567,-4.543,0.171,-0.92,0.347,-0.066,-7.445,-19.374,19.433,-1.029,-0.201,0.001,-12.082,0.97,10.541
220.0,-0.997,-0.018,-0.237,1.021,4.551,-6.718,-1.019,0.135,0.146,-1.353,-4.418,0.424,-0.907,0.352,-0.051,-11.905,-15.47,15.719,-1.052,-0.212,-0.003,-9.098,1.103,11.253
240.0,-1.039,-0.004,-0.228,0.531,11.981,-7.438,-1.001,0.127,0.156,-0.748,-3.732,0.605,-0.91,0.353,-0.035,-18.69,-12.107,11.195,-1.065,-0.216,0.002,-5.579,0.367,10.604
260.0,-1.067,-0.014,-0.125,-0.346,9.792,-7.288,-1.009,0.123,0.147,-0.385,-3.78,1.052,-0.916,0.344,-0.031,-25.366,-10.508,7.116,-1.062,-0.217,0.006,-3.097,-1.958,7.762
280.0,-1.004,-0.026,-0.093,1.217,0.997,-7.599,-1.01,0.117,0.139,0.587,-4.897,2.101,-0.931,0.328,-0.04,-26.226,-10.837,4.225,-1.045,-0.216,0.004,-1.047,-3.543,3.134
300.0,-0.98,-0.016,-0.104,3.545,-5.82,-5.366,-1.001,0.128,0.138,1.226,-5.884,2.88,-0.95,0.313,-0.054,-25.229,-12.983,3.348,-1.046,-0.204,-0.003,-0.387,-4.329,-1.253
320.0,-0.98,-0.02,-0.149,5.283,-10.005,-1.772,-0.995,0.134,0.139,1.069,-6.238,3.061,-0.955,0.297,-0.065,-20.499,-16.723,3.887,-1.059,-0.196,-0.003,-0.653,-6.068,-4.74
340.0,-0.982,-0.042,-0.183,5.634,-11.288,-1.266,-0.996,0.134,0.146,0.794,-6.3,3.016,-0.952,0.279,-0.078,-12.384,-20.72,6.937,-1.059,-0.19,-0.003,-2.885,-7.971,-8.154
360.0,-0.964,-0.043,-0.182,4.343,-12.428,-2.431,-1.009,0.126,0.155,1.183,-6.842,3.111,-0.941,0.27,-0.089,-0.401,-23.888,11.541,-1.043,-0.202,0.0,-3.351,-9.24,-9.638
380.0,-0.935,-0.026,-0.177,3.635,-14.879,-2.876,-1.014,0.117,0.151,2.726,-8.449,3.61,-0.938,0.281,-0.094,11.444,-24.494,14.873,-1.04,-0.212,-0.013,-1.309,-11.939,-10.648
400.0,-0.937,-0.011,-0.19,4.363,-14.633,-1.863,-1.007,0.138,0.145,3.682,-9.158,3.946,-0.93,0.32,-0.095,17.098,-23.535,15.86,-1.012,-0.206,-0.013,0.749,-14.202,-11.542
420.0,-0.985,-0.013,-0.191,4.843,-9.535,-1.075,-0.998,0.164,0.153,3.598,-9.304,4.218,-0.923,0.344,-0.096,16.995,-20.813,15.257,-0.987,-0.206,-0.003,2.373,-14.768,-12.799
440.0,-1.004,-0.023,-0.162,4.73,-6.283,-1.66,-1.012,0.147,0.155,2.037,-9.952,4.917,-0.916,0.363,-0.085,11.492,-16.166,12.557,-0.979,-0.207,0.005,3.426,-14.25,-13.891
460.0,-0.988,-0.012,-0.14,3.733,-5.622,-2.308,-1.013,0.136,0.164,2.287,-10.471,5.599,-0.903,0.371,-0.079,4.72,-12.439,8.636,-0.984,-0.203,0.009,5.159,-13.522,-14.344
480.0,-0.956,-0.014,-0.137,3.152,-8.006,-2.0,-0.991,0.144,0.168,2.87,-10.178,5.699,-0.89,0.363,-0.073,-4.112,-6.008,4.754,-0.994,-0.205,-0.002,8.682,-13.774,-13.843
500.0,-0.95,-0.018,-0.149,2.903,-9.416,-2.105,-0.998,0.15,0.166,2.874,-9.995,5.313,-0.886,0.344,-0.066,-9.445,-1.134,1.498,-0.99,-0.198,-0.001,11.359,-13.304,-12.706
520.0,-0.96,-0.014,-0.162,2.668,-7.619,-1.683,-0.975,0.144,0.17,3.01,-9.24,4.83,-0.906,0.318,-0.065,-10.971,2.111,-1.643,-1.002,-0.177,0.002,11.9,-13.3,-12.25
540.0,-0.999,-0.025,-0.153,2.806,-4.863,-1.4,-0.992,0.164,0.182,4.397,-9.047,3.93,-0.903,0.308,-0.064,-9.521,3.819,-4.69,-0.993,-0.167,0.0,9.435,-12.967,-13.286
560.0,-1.005,-0.031,-0.139,3.623,-3.461,-2.281,-0.991,0.166,0.191,4.11,-7.196,2.214,-0.907,0.307,-0.055,-6.365,5.407,-7.273,-0.985,-0.175,0.003,8.32,-11.312,-13.892
580.0,-0.989,-0.021,-0.131,3.967,-3.3,-2.545,-0.976,0.162,0.196,4.336,-4.344,0.849,-0.921,0.317,-0.049,-3.862,6.091,-9.765,-0.99,-0.187,-0.002,9.315,-10.796,-13.847
600.0,-0.991,-0.011,-0.142,3.71,-2.704,-1.731,-0.979,0.186,0.2,3.01,-1.68,-0.35,-0.923,0.321,-0.038,-2.49,6.229,-12.267,-0.988,-0.186,-0.004,11.374,-9.791,-13.087
620.0,-0.992,-0.01,-0.158,3.593,-2.118,-1.285,-0.978,0.169,0.181,2.03,0.07,-0.84,-0.915,0.323,-0.034,0.168,6.19,-13.551,-0.989,-0.174,-0.007,12.514,-8.607,-11.105
640.0,-0.977,-0.006,-0.166,3.29,-0.227,-0.914,-0.992,0.157,0.179,1.013,0.076,-1.289,-0.914,0.325,-0.038,2.855,6.286,-14.302,-0.993,-0.162,-0.006,11.249,-6.748,-9.642
660.0,-0.963,-0.006,-0.165,3.292,2.353,-0.684,-0.988,0.147,0.179,0.497,1.244,-2.073,-0.919,0.326,-0.04,6.4,6.143,-14.756,-1.007,-0.162,-0.007,9.263,-5.254,-8.338
680.0,-0.977,-0.008,-0.146,3.656,4.192,-0.26,-0.991,0.141,0.179,2.002,2.281,-3.008,-0.929,0.336,-0.032,9.144,5.951,-15.438,-1.007,-0.165,-0.005,8.171,-3.631,-6.673
700.0,-0.991,-0.02,-0.118,3.916,2.179,0.069,-0.993,0.174,0.172,2.643,3.251,-3.58,-0.943,0.348,-0.032,10.749,6.198,-16.337,-1.003,-0.175,0.001,8.192,-2.38,-4.749
720.0,-1.0,-0.022,-0.117,3.111,-1.495,-0.233,-0.996,0.16,0.173,1.303,3.832,-3.893,-0.946,0.363,-0.022,10.777,6.33,-17.577,-1.0,-0.177,-0.002,9.172,-0.933,-3.621
740.0,-0.995,-0.021,-0.137,2.223,-4.059,-1.033,-1.001,0.139,0.169,1.688,3.916,-4.15,-0.948,0.37,-0.022,9.564,5.852,-18.289,-0.996,-0.172,-0.004,10.424,-0.28,-3.392
760.0,-0.991,-0.013,-0.14,1.114,-5.117,-1.616,-0.999,0.144,0.163,3.158,3.734,-4.312,-0.946,0.374,-0.021,8.463,5.674,-18.297,-0.99,-0.171,0.001,10.762,0.342,-3.166
780.0,-0.997,-0.007,-0.114,1.05,-7.35,-1.68,-0.998,0.152,0.158,3.631,3.841,-4.474,-0.947,0.374,-0.018,7.624,5.083,-17.375,-0.988,-0.169,0.007,10.755,1.817,-2.401
800.0,-1.01,-0.006,-0.123,2.312,-10.135,-1.167,-1.004,0.146,0.16,3.64,3.638,-4.299,-0.953,0.371,-0.02,7.562,4.511,-15.803,-0.989,-0.169,0.016,11.154,2.82,-0.488
820.0,-1.005,-0.005,-0.14,4.004,-10.795,-0.765,-1.004,0.143,0.161,3.186,3.888,-4.111,-0.953,0.371,-0.018,7.934,3.384,-13.882,-0.989,-0.169,0.02,11.682,3.004,2.112
840.0,-0.996,-0.011,-0.154,3.485,-12.253,-0.245,-1.003,0.136,0.159,2.958,3.722,-3.984,-0.952,0.374,-0.015,8.118,2.198,-12.03,-0.989,-0.157,0.016,9.328,2.898,3.023
860.0,-0.986,-0.023,-0.146,2.556,-12.254,-0.142,-1.004,0.128,0.152,3.452,3.194,-3.883,-0.952,0.382,-0.01,7.886,1.407,-9.859,-0.988,-0.158,0.018,5.703,3.268,3.475
880.0,-0.996,-0.018,-0.096,4.078,-12.89,-0.33,-1.004,0.128,0.144,4.677,2.953,-3.873,-0.96,0.381,-0.019,7.572,-0.084,-7.533,-0.997,-0.168,0.02,2.579,3.896,3.878
900.0,-1.012,-0.016,-0.105,5.11,-15.75,-0.28,-0.999,0.139,0.143,4.628,2.814,-3.891,-0.969,0.377,-0.023,7.976,-2.0,-5.596,-1.006,-0.18,0.018,1.833,4.039,4.364
920.0,-0.997,-0.019,-0.134,4.55,-15.96,-0.56,-0.999,0.138,0.149,2.27,2.977,-3.582,-0.966,0.38,-0.024,8.347,-3.273,-3.758,-1.007,-0.195,0.021,3.243,3.405,5.735
940.0,-1.006,-0.015,-0.155,3.85,-10.92,-0.49,-1.007,0.123,0.146,0.934,3.229,-3.36,-0.971,0.38,-0.024,8.672,-4.211,-2.151,-0.999,-0.202,0.027,5.607,3.238,6.58
960.0,-1.014,-0.015,-0.127,4.451,-8.647,-0.221,-1.013,0.123,0.145,1.916,3.044,-3.32,-0.968,0.387,-0.019,8.001,-4.917,-0.57,-1.01,-0.193,0.027,6.68,3.691,6.493
980.0,-1.017,-0.015,-0.109,4.48,-7.899,-0.315,-1.015,0.122,0.139,2.952,2.19,-3.048,-0.967,0.394,-0.019,6.669,-5.315,0.837,-1.012,-0.19,0.028,6.658,3.407,5.773
1000.0,-1.022,-0.016,-0.112,3.079,-7.196,-0.504,-1.011,0.124,0.134,1.89,2.065,-2.449,-0.959,0.392,-0.019,3.286,-6.148,2.298,-1.012,-0.191,0.033,5.919,2.923,5.442
1020.0,-1.015,-0.014,-0.123,2.686,-5.417,-1.106,-1.012,0.125,0.129,0.753,2.016,-1.851,-0.958,0.381,-0.019,1.329,-6.826,3.891,-1.011,-0.194,0.036,5.393,2.646,5.111
1040.0,-1.002,-0.009,-0.124,3.13,-4.003,-1.221,-1.013,0.118,0.129,0.84,1.483,-1.563,-0.957,0.378,-0.023,0.183,-7.601,5.459,-1.017,-0.203,0.04,6.21,2.324,5.361
1060.0,-0.993,-0.008,-0.111,4.076,-3.648,-1.136,-1.009,0.116,0.136,1.076,0.873,-1.418,-0.951,0.368,-0.022,-0.536,-8.031,6.729,-1.026,-0.204,0.041,7.555,1.202,5.862
1080.0,-0.996,-0.013,-0.107,4.328,-3.347,-1.15,-1.018,0.109,0.123,1.47,-0.048,-0.829,-0.949,0.364,-0.026,-0.887,-8.387,7.928,-1.026,-0.198,0.041,7.076,-0.298,4.615
1100.0,-0.999,-0.017,-0.115,4.124,-2.729,-1.312,-1.008,0.113,0.12,1.239,-0.748,-0.077,-0.942,0.36,-0.029,-1.672,-8.579,8.907,-1.023,-0.192,0.041,5.273,-1.277,3.24
1120.0,-0.997,-0.018,-0.116,3.034,-2.13,-1.482,-1.004,0.122,0.122,1.319,-1.623,0.275,-0.935,0.352,-0.035,-2.317,-8.74,9.309,-1.032,-0.19,0.035,3.577,-2.506,0.567
1140.0,-0.99,-0.018,-0.113,2.357,-1.762,-1.699,-1.005,0.121,0.124,1.265,-2.365,0.465,-0.935,0.348,-0.04,-2.472,-8.556,9.809,-1.024,-0.192,0.03,2.192,-4.621,-2.394
1160.0,-0.997,-0.015,-0.104,2.421,-1.568,-1.653,-1.012,0.104,0.127,1.559,-2.764,0.538,-0.933,0.346,-0.042,-2.664,-8.139,9.997,-1.024,-0.208,0.023,2.557,-5.479,-3.727
1180.0,-1.005,-0.013,-0.097,2.641,-1.964,-1.226,-1.007,0.106,0.128,2.896,-3.19,0.439,-0.926,0.344,-0.045,-3.152,-7.357,10.01,-1.024,-0.197,0.018,3.981,-7.015,-4.652
1200.0,-1.004,-0.016,-0.098,2.857,-2.207,-0.773,-1.007,0.123,0.121,3.074,-3.667,0.716,-0.92,0.343,-0.049,-3.503,-6.687,9.895,-1.018,-0.191,0.012,3.899,-7.881,-5.321
1220.0,-0.998,-0.02,-0.101,2.778,-2.291,-0.6,-1.008,0.116,0.126,2.233,-4.303,1.144,-0.917,0.339,-0.053,-3.815,-5.775,9.507,-1.014,-0.185,0.008,3.246,-8.115,-5.815
1240.0,-0.991,-0.019,-0.099,2.103,-2.918,-0.527,-1.015,0.115,0.126,2.093,-5.004,1.665,-0.924,0.336,-0.058,-3.762,-5.039,8.947,-1.013,-0.179,0.009,1.82,-7.91,-6.23
1260.0,-0.986,-0.013,-0.099,1.589,-3.199,-0.298,-1.012,0.118,0.122,1.682,-5.707,2.205,-0.931,0.331,-0.064,-3.408,-4.122,8.236,-1.009,-0.188,0.005,1.553,-8.161,-6.297
1280.0,-0.987,-0.012,-0.101,0.804,-2.995,-0.079,-1.009,0.122,0.128,1.925,-6.407,3.069,-0.935,0.326,-0.065,-2.363,-3.339,7.235,-0.999,-0.186,0.005,2.151,-7.363,-5.663
1300.0,-1.0,-0.016,-0.101,0.364,-2.531,-0.171,-1.012,0.113,0.135,0.235,-6.664,3.523,-0.935,0.327,-0.063,-1.5,-2.468,5.791,-0.995,-0.187,0.001,2.832,-7.21,-5.182
1320.0,-1.009,-0.017,-0.097,0.633,-1.941,-0.28,-1.008,0.117,0.134,-0.349,-6.93,3.919,-0.933,0.332,-0.061,-1.19,-1.308,4.14,-0.99,-0.185,0.001,3.396,-6.695,-4.737
1340.0,-1.014,-0.018,-0.091,1.328,-1.47,-0.282,-1.004,0.117,0.139,-0.07,-6.93,3.71,-0.932,0.332,-0.059,-1.073,0.374,2.617,-0.992,-0.177,-0.003,3.271,-5.526,-4.634
1360.0,-1.01,-0.017,-0.087,0.887,-1.459,-0.556,-1.009,0.121,0.138,0.537,-7.108,3.766,-0.931,0.333,-0.055,-1.124,1.561,1.353,-0.989,-0.174,-0.006,2.444,-4.962,-4.414
1380.0,-1.009,-0.016,-0.085,0.205,-1.182,-0.49,-1.01,0.128,0.139,0.153,-7.315,3.951,-0.934,0.335,-0.056,-1.203,2.067,0.483,-0.986,-0.176,-0.005,2.012,-3.699,-3.81
1400.0,-1.007,-0.019,-0.088,0.153,-1.075,-0.49,-1.01,0.126,0.143,-0.4,-7.618,4.324,-0.935,0.332,-0.057,-0.763,2.7,-0.033,-0.982,-0.179,-0.004,2.471,-2.32,-2.634
1420.0,-1.006,-0.017,-0.094,-0.201,-0.724,-0.49,-1.009,0.123,0.153,-0.245,-7.368,4.247,-0.936,0.333,-0.054,0.193,2.812,-0.366,-0.985,-0.184,0.004,4.413,-1.294,-0.726
1440.0,-1.002,-0.017,-0.102,-0.174,0.717,-0.49,-1.006,0.117,0.151,-0.595,-6.541,4.086,-0.934,0.333,-0.049,1.273,3.22,-0.698,-0.994,-0.182,0.012,4.888,-0.671,0.606
1460.0,-0.998,-0.009,-0.109,0.357,1.893,-0.415,-0.999,0.123,0.15,-0.53,-6.141,3.904,-0.944,0.342,-0.049,1.538,3.258,-1.326,-0.989,-0.174,0.014,3.603,0.584,1.297
1480.0,-0.995,-0.011,-0.109,-0.23,2.327,-0.171,-0.997,0.131,0.15,-0.331,-6.007,3.646,-0.938,0.352,-0.037,1.47,3.85,-2.1,-0.991,-0.176,0.012,1.941,1.844,1.779
1500.0,-1.002,-0.017,-0.083,-0.853,4.095,-0.14,-0.995,0.138,0.151,-0.623,-5.786,3.276,-0.938,0.369,-0.032,0.385,4.058,-3.064,-0.993,-0.18,0.01,1.229,2.069,2.308
1520.0,-1.015,-0.012,-0.066,-0.38,3.101,-0.025,-0.997,0.143,0.156,-1.329,-5.38,2.882,-0.954,0.404,-0.034,-3.172,3.933,-4.648,-0.994,-0.189,0.016,1.603,2.556,3.213
1540.0,-1.009,-0.013,-0.088,0.619,-0.424,0.29,-1.013,0.136,0.158,-1.47,-5.28,2.917,-0.947,0.4,-0.029,-10.327,3.798,-5.518,-0.998,-0.197,0.019,2.773,3.012,3.837
1560.0,-1.001,-0.018,-0.119,0.619,-0.187,-0.036,-1.017,0.121,0.151,-1.297,-5.669,3.593,-0.955,0.412,-0.02,-12.235,3.541,-5.176,-1.0,-0.198,0.027,3.994,4.66,4.318
1580.0,-1.001,-0.018,-0.121,0.885,2.363,-0.264,-1.008,0.125,0.149,-0.815,-6.06,3.961,-0.943,0.44,-0.02,-17.056,2.436,-3.762,-1.017,-0.192,0.021,5.742,4.338,4.601
1600.0,-1.002,-0.014,-0.108,1.719,4.358,-0.22,-1.0,0.131,0.151,-0.727,-6.758,4.173,-0.941,0.415,-0.041,-17.508,2.379,0.654,-1.012,-0.192,0.023,6.306,4.118,4.046
1620.0,-1.005,-0.013,-0.089,1.96,4.482,-0.155,-0.998,0.126,0.156,-0.749,-7.079,4.134,-0.916,0.413,-0.028,-13.85,1.572,5.625,-1.01,-0.196,0.034,6.691,3.695,3.78
1640.0,-1.003,-0.016,-0.086,1.56,3.108,-0.349,-0.998,0.118,0.157,-0.385,-7.126,3.99,-0.924,0.459,0.001,-12.713,1.706,9.312,-1.003,-0.192,0.04,6.16,3.694,3.344
1660.0,-0.997,-0.021,-0.099,0.945,1.707,-0.631,-0.999,0.13,0.167,1.218,-6.936,4.023,-0.937,0.427,0.048,-14.406,1.01,15.406,-0.999,-0.196,0.038,6.326,3.04,3.202
1680.0,-0.999,-0.018,-0.105,0.065,0.43,-0.979,-1.007,0.152,0.177,1.099,-6.432,4.045,-0.98,0.425,0.114,-12.856,-0.995,23.659,-0.988,-0.209,0.045,8.387,2.294,3.386
1700.0,-1.0,-0.015,-0.107,-0.108,-0.387,-1.288,-0.994,0.147,0.173,-0.253,-5.362,3.457,-1.066,0.46,0.246,-17.068,-10.503,32.249,-0.98,-0.214,0.056,12.142,2.089,3.963
1720.0,-0.999,-0.015,-0.107,0.87,-0.81,-1.273,-0.989,0.127,0.171,-0.253,-4.561,2.739,-1.131,0.504,0.386,-27.388,-27.774,32.185,-0.969,-0.222,0.056,16.884,1.959,5.305
1740.0,-0.997,-0.015,-0.097,1.975,-1.339,-0.862,-0.99,0.139,0.174,1.241,-3.934,2.036,-1.196,0.537,0.538,-34.872,-45.548,31.99,-0.984,-0.202,0.057,23.028,1.349,7.395
1760.0,-0.997,-0.015,-0.093,1.372,-2.573,-0.523,-0.991,0.142,0.187,2.1,-2.689,0.978,-1.284,0.606,0.687,-48.474,-66.935,30.29,-1.025,-0.183,0.096,33.977,-5.743,10.327
1780.0,-0.996,-0.017,-0.099,0.604,-4.446,-1.612,-1.001,0.155,0.188,2.051,-0.811,0.199,-1.417,0.599,0.815,-65.635,-92.418,29.464,-1.085,-0.164,0.174,50.098,-18.651,15.174
1800.0,-1.039,-0.012,-0.1,-0.394,-7.247,-2.677,-1.001,0.147,0.172,1.24,-0.088,-0.07,-1.585,0.461,0.968,-64.762,-124.689,38.395,-1.169,-0.154,0.28,71.616,-31.916,23.848
1820.0,-1.05,-0.013,-0.099,-3.143,-10.982,-2.97,-0.993,0.137,0.171,1.053,0.309,-0.074,-1.665,0.529,1.107,-44.789,-142.289,59.85,-1.253,-0.145,0.439,81.734,-51.243,31.519
1840.0,-1.015,-0.0,-0.131,-4.854,-12.052,-3.235,-0.989,0.135,0.167,1.459,0.979,-0.559,-1.805,0.638,1.085,-43.418,-164.998,66.496,-1.32,0.052,0.579,70.484,-76.628,30.343
1860.0,-1.013,0.026,-0.144,-5.15,-12.217,-3.469,-0.998,0.144,0.166,0.24,0.91,-0.287,-1.917,0.757,1.039,-69.957,-221.289,66.15,-1.392,0.338,0.719,46.1,-99.01,12.588
1880.0,-1.047,0.046,-0.133,-5.26,-13.306,-1.797,-1.007,0.148,0.169,-0.061,0.903,-0.07,-1.985,0.821,1.085,-86.256,-262.263,67.091,-1.574,0.332,0.918,-15.804,-121.034,-17.474
1900.0,-1.059,0.034,-0.093,-2.97,-15.095,0.073,-1.013,0.152,0.159,-2.1,0.7,-0.07,-2.071,0.776,1.079,-106.482,-294.711,66.021,-1.767,0.137,1.069,-72.972,-145.503,-50.591
1920.0,-1.043,0.017,-0.076,-0.848,-16.652,1.582,-1.014,0.122,0.15,-1.33,-0.63,0.63,-2.066,0.776,1.023,-123.555,-324.089,69.397,-1.855,-0.003,1.068,-84.951,-176.455,-58.105
1940.0,-1.038,-0.012,-0.056,-0.98,-18.2,1.89,-1.012,0.128,0.15,-1.02,-1.536,1.149,-2.048,0.804,0.931,-129.529,-353.024,70.082,-1.843,-0.133,1.03,-48.636,-208.765,-43.057
1960.0,-1.014,-0.051,-0.045,-3.08,-20.93,0.84,-1.005,0.141,0.157,-0.77,-2.03,1.33,-1.918,0.786,0.801,-115.452,-384.357,78.183,-2.019,-0.194,1.112,-5.589,-255.091,-27.961
1980.0,-0.992,-0.033,-0.048,-4.118,-21.231,-0.398,-0.998,0.14,0.158,-1.467,-2.201,0.947,-1.695,0.889,0.785,-94.03,-406.599,98.815,-2.146,-0.184,1.209,30.959,-296.009,-14.731
2000.0,-0.966,-0.021,-0.051,-3.64,-20.23,-0.56,-0.991,0.12,0.161,-1.145,-2.59,0.655,-1.386,1.031,0.899,-68.017,-404.038,120.992,-2.124,0.018,1.109,13.066,-328.327,-22.849
2020.0,-0.961,-0.007,-0.028,-2.398,-20.369,0.135,-0.997,0.135,0.162,0.412,-2.59,0.362,-1.131,1.222,0.829,-79.012,-388.579,128.005,-2.168,-0.197,1.073,-4.749,-367.422,-32.684
2040.0,-0.973,-0.016,-0.048,0.496,-17.894,0.01,-1.002,0.14,0.166,0.079,-2.395,0.143,-1.043,1.39,0.609,-152.792,-400.323,121.1,-2.108,-0.305,1.065,-6.243,-396.549,-36.75
2060.0,-1.013,-0.02,-0.044,2.73,-12.367,-0.276,-1.005,0.121,0.161,0.404,-2.292,0.372,-0.833,1.128,0.577,-211.979,-387.895,94.736,-2.038,-0.382,1.165,-29.774,-402.355,-60.626
2080.0,-1.054,-0.028,0.007,2.736,-8.821,0.607,-1.004,0.139,0.163,1.3,-1.966,0.557,-0.714,1.026,0.583,-228.685,-372.701,80.218,-1.817,-0.7,1.002,-30.064,-404.176,-88.202
2100.0,-1.072,-0.028,0.044,3.936,-9.043,1.636,-1.005,0.139,0.162,2.226,-2.31,0.49,-1.016,1.214,0.371,-264.735,-408.686,67.672,-1.604,-0.869,0.889,4.596,-414.395,-105.128
2120.0,-1.061,-0.005,0.022,3.225,-10.121,3.199,-1.0,0.128,0.159,1.896,-2.31,0.49,-0.874,1.028,0.176,-266.905,-398.419,54.793,-1.393,-1.252,0.746,122.257,-418.615,-75.195
2140.0,-1.036,0.006,-0.01,0.115,-6.304,3.766,-1.007,0.124,0.156,2.584,-2.634,0.818,-0.631,0.784,0.107,-198.072,-394.231,60.648,-1.033,-0.782,0.73,159.458,-405.112,-60.601
2160.0,-1.039,-0.001,0.053,-1.833,2.613,3.451,-1.009,0.137,0.152,2.044,-3.492,1.351,-0.456,0.553,0.139,-115.315,-365.348,71.26,-0.695,-0.496,0.512,146.884,-387.067,-57.787
2180.0,-1.061,0.024,0.114,-0.369,-0.482,3.508,-1.007,0.126,0.157,2.778,-4.131,1.776,-0.581,0.946,-0.079,-97.02,-344.75,67.69,-0.758,-0.783,0.572,150.905,-368.315,-52.848
2200.0,-1.04,0.05,0.084,0.456,-0.942,5.96,-1.006,0.143,0.152,2.664,-4.929,2.261,-0.504,0.806,-0.265,-137.358,-332.004,70.052,-0.872,-0.878,0.391,177.15,-386.157,-37.03
2220.0,-1.016,0.014,0.07,0.342,3.562,8.06,-1.023,0.118,0.145,2.917,-6.805,2.758,-0.112,0.031,-0.574,-131.317,-302.461,76.656,-0.67,-0.627,0.401,173.992,-389.546,-35.076
2240.0,-1.052,-0.023,0.119,-0.643,5.52,7.14,-1.006,0.138,0.159,3.078,-7.6,3.134,0.079,-0.395,-0.663,-91.128,-270.45,84.569,-0.592,-0.449,0.3,108.472,-365.245,-54.336
2260.0,-1.098,0.032,0.11,-1.855,-7.294,6.13,-0.996,0.148,0.159,2.439,-7.765,3.215,0.194,-0.429,-0.777,-41.763,-199.781,87.04,-0.528,-0.513,-0.01,60.829,-339.361,-73.137
2280.0,-1.066,0.059,0.022,-1.874,-11.26,6.827,-0.994,0.175,0.167,-0.621,-7.839,3.426,0.317,-0.419,-0.875,-47.652,-142.841,82.718,-0.482,-0.527,-0.152,66.729,-321.877,-72.822
2300.0,-1.036,0.1,-0.043,-1.161,-13.895,11.655,-0.973,0.145,0.178,-3.069,-6.22,2.828,0.462,-0.427,-0.932,-75.425,-99.597,72.358,-0.514,-0.397,-0.342,79.877,-300.884,-64.558
2320.0,-1.016,0.07,-0.117,1.32,-15.369,13.867,-0.985,0.127,0.181,-2.534,-5.475,2.422,0.615,-0.512,-0.893,-98.587,-51.267,57.535,-0.383,-0.235,-0.511,94.553,-275.364,-58.175
2340.0,-0.977,-0.033,-0.171,1.619,-14.186,12.954,-1.002,0.149,0.182,-2.699,-4.292,1.917,0.634,-0.57,-0.759,-94.473,-13.817,45.844,0.064,-0.172,-0.771,118.019,-243.662,-55.423
2360.0,-0.903,-0.071,-0.178,-3.232,-5.328,5.538,-1.007,0.145,0.174,-3.277,-3.631,1.768,0.622,-0.488,-0.574,-77.882,25.007,39.241,0.532,0.101,-0.997,127.272,-179.485,-60.946
2380.0,-0.88,-0.007,-0.12,-6.202,0.312,-4.309,-0.993,0.136,0.173,-0.945,-3.0,1.445,0.615,-0.423,-0.399,-58.155,49.403,40.036,0.671,0.567,-1.002,102.712,-97.4,-72.997
2400.0,-0.914,0.08,-0.063,-9.335,0.344,-10.008,-0.984,0.146,0.176,0.146,-2.494,0.841,0.637,-0.364,-0.252,-48.905,49.552,49.443,0.735,0.668,-0.959,74.69,-40.71,-68.725
2420.0,-0.949,0.114,-0.035,-14.279,-3.425,-11.027,-0.976,0.145,0.183,-1.586,-0.851,-0.371,0.714,-0.433,-0.148,-6.326,40.496,51.002,0.784,0.68,-0.747,60.162,9.352,-55.414
2440.0,-0.957,0.104,-0.005,-18.021,-8.827,-9.815,-0.985,0.143,0.193,-1.684,0.962,-1.496,0.765,-0.496,0.009,16.064,31.752,64.89,0.685,0.551,-0.465,28.884,44.919,-45.99
2460.0,-0.966,0.04,-0.009,-18.538,-14.688,-8.936,-0.988,0.147,0.185,-2.573,2.901,-2.22,0.908,-0.538,0.067,40.479,14.513,51.757,0.647,0.36,-0.227,11.201,52.087,-37.964
2480.0,-0.976,0.03,-0.02,-14.883,-15.501,-4.081,-0.978,0.15,0.18,-3.218,4.605,-3.61,0.94,-0.542,0.069,42.328,8.612,27.577,0.541,0.275,0.005,5.437,44.991,-32.989
2500.0,-1.014,-0.035,-0.038,-10.543,-13.315,1.481,-0.985,0.15,0.172,-4.202,5.498,-4.622,0.933,-0.526,0.125,35.577,3.703,9.294,0.554,0.21,0.22,10.615,27.662,-16.101
2520.0,-1.036,-0.064,-0.06,-5.654,-9.107,3.849,-1.0,0.146,0.169,-4.782,6.332,-5.009,0.952,-0.537,0.145,27.328,-3.793,-1.86,0.674,0.447,0.346,-1.751,10.429,0.75
2540.0,-1.036,-0.081,-0.003,-2.412,-4.302,3.736,-1.017,0.118,0.165,-3.548,6.111,-5.04,1.031,-0.574,0.134,30.135,-13.162,-8.228,0.822,0.522,0.246,-9.025,-5.982,18.441
2560.0,-1.076,-0.03,0.056,0.679,-3.857,1.762,-1.001,0.111,0.159,-1.799,6.999,-4.638,1.029,-0.518,0.182,35.408,-18.539,-11.17,1.077,0.562,0.141,-29.314,-18.115,25.636
2580.0,-1.098,-0.002,0.048,3.942,-7.623,-0.331,-0.997,0.113,0.159,0.501,6.219,-3.729,0.983,-0.384,0.239,27.288,-18.687,-11.316,1.108,0.439,0.245,-36.427,-17.17,28.916
2600.0,-1.062,0.028,0.038,3.99,-6.952,-1.571,-1.004,0.117,0.149,0.883,5.675,-3.173,1.032,-0.42,0.234,9.705,-11.862,-8.116,1.133,0.28,0.356,-43.688,-22.863,25.146
2620.0,-1.015,0.046,0.043,1.951,-7.577,-2.629,-1.007,0.121,0.144,1.033,5.386,-2.967,0.968,-0.499,0.129,5.159,-6.985,-5.009,1.21,0.181,0.367,-29.5,-21.146,20.666
2640.0,-1.002,0.061,0.016,-0.797,-9.075,-2.993,-1.017,0.118,0.138,1.96,4.353,-2.94,0.925,-0.565,0.041,5.018,-7.68,-3.456,1.245,0.17,0.276,-11.973,-14.033,12.485
2660.0,-0.991,0.1,0.01,-2.428,-4.634,-1.702,-1.018,0.118,0.136,2.62,3.313,-2.676,0.954,-0.595,0.074,10.067,-1.698,-4.605,1.223,0.271,0.257,0.475,-11.393,4.162
2680.0,-1.013,0.077,0.032,-1.68,-2.87,1.036,-1.011,0.115,0.136,2.408,2.323,-2.036,0.892,-0.457,0.142,25.41,8.89,-8.54,1.087,0.311,0.308,8.54,-8.82,2.1
2700.0,-1.01,-0.004,0.027,-1.68,-2.439,2.618,-1.007,0.11,0.136,2.16,1.348,-1.544,0.848,-0.336,0.248,22.156,9.929,-6.252,0.996,0.355,0.343,11.47,-3.244,7.382
2720.0,-1.026,-0.039,0.044,-1.107,-2.032,2.144,-1.006,0.118,0.137,-6.233,1.239,-1.062,0.846,-0.368,0.252,21.9,7.449,1.203,1.003,0.34,0.314,4.583,0.602,9.791
2740.0,-1.024,-0.003,0.056,1.732,-3.873,0.721,-1.006,0.128,0.14,-8.187,1.4,-0.867,0.846,-0.391,0.224,23.233,3.192,9.974,1.018,0.244,0.199,-8.036,4.021,0.644
2760.0,-0.993,0.027,0.028,3.133,-5.232,-0.281,-1.005,0.127,0.134,-2.465,1.507,-1.132,0.838,-0.408,0.184,21.85,-3.358,12.034,0.842,0.122,0.23,18.029,-5.817,-6.405
2780.0,-0.965,0.013,0.009,-2.606,-4.363,-0.801,-0.992,0.12,0.133,-2.594,1.107,-1.137,0.871,-0.444,0.149,22.655,-4.824,10.007,0.919,0.227,0.206,37.376,-6.052,-7.266
2800.0,-0.958,0.018,0.017,-6.37,-0.91,-1.12,-0.997,0.11,0.131,-2.392,0.738,-0.894,0.927,-0.506,0.118,24.011,-3.191,6.519,1.017,0.404,0.144,38.639,4.24,-4.125
2820.0,-1.002,0.059,0.026,-5.11,-1.33,-0.91,-1.01,0.1,0.13,-2.129,0.328,-0.658,0.945,-0.518,0.096,28.469,1.442,4.602,1.009,0.606,0.078,14.49,12.53,-2.45
2840.0,-1.017,0.049,0.021,-2.751,-2.253,1.209,-1.0,0.098,0.133,-1.346,0.223,-0.448,0.968,-0.485,0.028,25.809,6.616,1.448,0.897,0.436,0.203,-19.398,27.352,-9.161
2860.0,-0.998,0.001,0.017,-1.761,-1.593,1.523,-1.0,0.107,0.137,-0.886,0.54,-0.479,0.981,-0.479,-0.085,30.915,13.288,-0.982,0.783,0.245,0.251,-21.77,14.35,-7.49
2880.0,-0.989,-0.015,0.006,-1.557,1.124,0.819,-1.012,0.118,0.136,-1.068,0.556,-0.494,0.996,-0.461,-0.224,45.764,21.458,-1.101,0.891,0.344,0.248,-17.665,12.883,-5.537
2900.0,-1.002,-0.002,0.005,-1.171,4.072,-0.165,-1.017,0.112,0.13,-0.741,0.101,0.054,0.999,-0.394,-0.376,60.11,34.514,-0.535,0.959,0.328,0.167,-37.406,18.739,-8.556
2920.0,-1.03,0.017,0.007,-1.05,4.348,-0.551,-1.014,0.097,0.129,0.291,-0.454,0.51,0.988,-0.336,-0.372,77.7,65.17,2.66,0.966,0.324,0.192,-33.478,17.954,-5.535
2940.0,-1.034,0.024,0.003,-0.666,3.674,-0.782,-1.009,0.096,0.126,1.094,-0.508,0.842,0.922,-0.209,-0.402,77.637,95.722,5.028,0.968,0.36,0.171,-33.402,21.68,-2.586
2960.0,-1.02,0.021,-0.007,0.034,4.239,-1.012,-1.002,0.101,0.125,1.748,-0.573,0.729,0.803,-0.164,-0.391,73.12,144.558,9.176,1.002,0.418,0.072,-43.827,30.584,-0.863
2980.0,-0.997,0.005,-0.013,0.767,6.594,-1.382,-0.998,0.111,0.128,2.751,-0.622,0.379,0.638,-0.158,-0.436,75.04,169.82,12.88,1.02,0.405,0.051,-64.902,39.366,-1.025
3000.0,-0.992,0.003,-0.02,2.956,6.809,-2.132,-1.004,0.118,0.129,3.755,-0.653,0.313,0.439,-0.18,-0.478,85.742,200.43,20.208,0.905,0.091,0.069,-74.594,50.902,-4.514
3020.0,-0.996,0.029,-0.033,6.533,5.325,-2.384,-1.017,0.105,0.126,3.758,-1.491,0.495,0.297,-0.152,-0.423,104.86,224.089,20.773,0.847,-0.095,-0.005,-59.155,59.363,-4.325
3040.0,-0.981,0.037,-0.027,10.104,10.211,-0.87,-1.012,0.103,0.124,4.09,-1.61,0.76,0.083,-0.057,-0.304,145.569,261.627,17.217,0.9,0.02,-0.158,-33.791,69.353,-0.592
3060.0,-1.001,0.009,-0.003,11.04,13.001,-0.155,-1.005,0.103,0.125,4.181,-1.544,0.94,-0.061,0.109,-0.342,157.733,289.967,7.166,0.948,0.197,-0.41,-37.039,116.276,-0.068
3080.0,-1.03,0.002,-0.042,8.429,14.146,-0.55,-1.005,0.102,0.13,3.998,-1.4,1.019,-0.141,0.125,-0.393,160.888,320.136,-2.025,0.838,0.189,-0.479,-60.111,160.917,-5.648
3100.0,-1.051,0.025,-0.024,6.806,13.905,-1.736,-1.006,0.134,0.127,4.06,-1.41,1.268,-0.328,0.092,-0.422,179.369,313.508,-13.238,0.501,-0.105,-0.343,-67.851,214.277,-6.355
3120.0,-1.03,0.038,0.001,8.313,5.614,-2.485,-1.021,0.101,0.117,4.059,-2.799,1.417,-0.43,0.223,-0.225,219.1,315.91,-23.31,0.249,-0.227,-0.235,-38.623,244.978,4.323
3140.0,-0.983,0.033,0.002,9.108,4.185,-2.014,-1.007,0.1,0.117,4.053,-2.675,2.085,-0.518,0.399,-0.215,224.728,327.282,-40.611,0.07,-0.133,-0.244,-6.65,264.299,12.525
3160.0,-0.98,0.019,0.029,12.586,6.143,-1.107,-1.005,0.096,0.122,5.453,-3.008,1.752,-0.611,0.63,-0.152,203.363,339.077,-60.249,-0.04,-0.137,-0.183,4.289,278.04,10.933
3180.0,-1.0,0.005,0.032,14.597,6.625,-1.022,-0.996,0.136,0.122,4.14,-2.544,1.958,-0.846,0.854,0.078,201.074,362.5,-70.465,-0.124,-0.109,-0.168,-1.546,305.966,6.962
3200.0,-0.983,-0.008,0.031,13.923,9.893,-2.173,-0.996,0.119,0.125,2.391,-2.131,1.498,-1.059,0.651,0.294,234.78,400.05,-66.64,-0.184,-0.131,-0.194,-37.034,337.482,-2.357
3220.0,-0.968,-0.009,0.081,10.122,14.695,-3.923,-0.996,0.136,0.135,0.935,-0.785,0.843,-1.487,0.528,0.297,247.675,385.793,-58.881,-0.364,-0.122,-0.158,-58.67,382.393,-10.002
3240.0,-0.966,-0.001,0.084,9.033,19.67,-5.264,-1.016,0.123,0.137,-2.014,1.407,0.974,-1.635,0.574,0.091,247.49,361.093,-77.877,-0.64,-0.079,-0.051,-72.478,371.215,-24.95
3260.0,-1.009,0.006,0.079,8.422,19.426,-7.033,-1.015,0.108,0.133,-1.633,2.251,1.084,-1.792,0.631,0.16,258.484,351.339,-88.194,-0.722,-0.204,0.149,-81.183,370.268,-48.743
3280.0,-1.031,0.036,0.038,6.51,16.38,-8.89,-1.018,0.115,0.125,-0.227,3.345,1.418,-2.299,0.975,0.467,250.542,326.306,-98.361,-0.896,-0.498,0.292,-90.001,419.147,-50.15
3300.0,-0.973,0.073,-0.074,-0.977,25.401,-9.677,-1.019,0.092,0.129,0.687,4.103,1.443,-2.501,1.141,0.847,195.967,304.921,-111.003,-1.25,-0.444,0.394,-32.878,422.736,-26.461
3320.0,-0.967,0.127,-0.084,-6.797,35.511,-11.159,-1.008,0.126,0.169,0.84,5.08,0.871,-2.521,0.96,0.789,162.369,293.775,-123.287,-1.391,-0.011,0.503,1.954,410.819,-24.286
3340.0,-0.961,0.162,-0.059,-7.672,43.858,-7.912,-0.995,0.125,0.103,-1.193,5.528,0.09,-2.416,0.917,0.619,131.761,283.534,-140.819,-1.519,0.293,0.464,-20.718,438.127,-36.155
3360.0,-1.005,0.117,-0.039,-9.131,49.405,0.383,-1.0,0.135,0.109,-4.69,4.76,-0.14,-2.327,0.84,0.489,71.738,265.548,-151.63,-2.012,-0.077,0.309,-42.356,433.708,-47.021
3380.0,-1.038,0.039,-0.056,-11.418,46.518,6.859,-1.038,0.118,0.075,-4.892,1.038,0.853,-2.266,0.69,0.52,5.295,258.995,-151.118,-2.386,-0.382,0.317,17.899,393.767,-30.65
3400.0,-1.048,-0.066,-0.071,-7.175,43.927,7.882,-1.02,0.076,0.068,-1.991,-2.062,2.258,-2.245,0.518,0.569,-33.239,255.558,-142.184,-2.567,0.089,0.666,72.543,368.019,-20.334
3420.0,-1.093,-0.096,-0.088,-0.239,35.629,5.649,-1.021,0.097,0.075,-0.992,-7.107,3.918,-2.137,0.341,0.539,-47.06,246.91,-122.487,-2.681,0.843,0.888,44.019,345.259,-13.586
3440.0,-1.057,-0.126,-0.143,5.53,29.54,-0.28,-1.02,0.114,0.08,-3.433,-9.904,5.721,-1.956,0.216,0.397,-45.903,227.665,-97.532,-2.683,0.96,0.874,-27.975,298.99,1.597
3460.0,-1.055,-0.043,-0.156,6.531,27.95,-8.309,-1.025,0.106,0.085,-6.75,-11.602,7.531,-1.803,0.121,0.26,-35.708,199.522,-71.057,-2.374,0.854,0.692,-72.354,254.685,24.166
3480.0,-1.064,0.125,-0.19,-3.296,15.895,-8.587,-1.019,0.092,0.09,-7.462,-13.656,8.808,-1.708,0.036,0.236,-13.992,165.917,-40.861,-2.029,0.679,0.409,-126.035,231.133,40.745
3500.0,-1.053,0.132,-0.227,-11.045,7.629,-5.843,-1.009,0.104,0.104,-6.544,-16.018,9.023,-1.608,0.008,0.274,27.453,135.072,-10.132,-1.799,0.295,0.281,-130.787,217.645,41.04
3520.0,-1.024,0.083,-0.21,-13.179,6.759,-4.108,-1.012,0.118,0.137,-4.141,-17.574,8.576,-1.513,0.012,0.349,88.42,110.038,14.992,-1.722,0.156,0.259,-111.582,207.416,34.528
3540.0,-0.995,-0.013,-0.189,-11.46,5.604,-4.394,-1.033,0.153,0.137,-3.97,-18.231,8.368,-1.415,0.099,0.356,134.397,90.786,31.462,-1.739,0.153,0.331,-107.139,199.003,9.263
3560.0,-0.992,-0.037,-0.172,-8.667,1.846,-5.28,-1.037,0.146,0.132,-4.029,-18.877,8.613,-1.326,0.275,0.361,151.206,72.643,37.238,-1.824,-0.101,0.456,-83.401,168.91,-1.383
3580.0,-1.01,-0.034,-0.188,-4.633,-5.103,-5.0,-1.021,0.109,0.147,-3.058,-19.073,9.139,-1.252,0.442,0.376,147.451,51.423,34.228,-1.714,-0.165,0.512,-9.132,131.181,-1.523
3600.0,-1.032,-0.018,-0.205,-2.976,-11.628,-3.88,-1.003,0.113,0.168,-3.087,-18.278,9.912,-1.158,0.549,0.377,122.7,31.337,24.385,-1.516,-0.141,0.349,31.958,109.0,6.286
3620.0,-1.022,-0.01,-0.212,-3.185,-14.803,-2.186,-0.989,0.149,0.174,-5.179,-15.622,9.77,-1.086,0.588,0.36,92.532,4.902,14.065,-1.332,0.014,0.146,91.541,84.597,20.356
3640.0,-0.973,-0.033,-0.203,-3.438,-14.135,-1.272,-0.979,0.155,0.178,-6.76,-13.084,8.494,-1.052,0.593,0.311,69.638,-17.644,5.603,-1.241,0.515,0.317,83.75,71.483,7.349
3660.0,-0.965,-0.042,-0.172,-0.911,-11.144,-2.034,-0.984,0.136,0.181,-6.594,-11.328,7.166,-1.019,0.566,0.251,49.392,-23.733,2.88,-1.309,0.418,0.268,38.208,47.545,-3.205
3680.0,-0.957,-0.034,-0.171,3.589,-8.582,-2.62,-0.977,0.134,0.178,-4.784,-9.471,5.875,-0.995,0.527,0.19,36.422,-42.103,2.78,-1.21,0.148,0.316,4.971,22.386,7.15
3700.0,-0.944,-0.02,-0.183,7.695,-7.007,-2.894,-0.97,0.144,0.182,-3.429,-8.273,4.304,-1.006,0.499,0.13,26.134,-53.106,7.592,-1.121,0.087,0.385,10.0,19.783,15.468
3720.0,-0.935,0.004,-0.196,8.738,-5.744,-3.676,-0.983,0.15,0.183,-2.235,-7.098,3.267,-0.995,0.464,0.091,24.24,-65.07,14.91,-1.152,0.054,0.445,17.907,13.786,14.347
3740.0,-0.941,0.035,-0.21,6.522,-3.071,-4.226,-0.992,0.153,0.183,-2.053,-5.275,2.496,-0.968,0.438,0.057,23.529,-72.284,24.768,-1.135,0.157,0.368,18.48,-8.063,11.968
3760.0,-0.977,0.034,-0.215,4.721,0.998,-3.647,-0.984,0.137,0.188,-1.775,-3.471,1.828,-0.964,0.445,0.062,20.068,-74.3,31.88,-0.972,0.216,0.253,9.363,-11.19,7.758
3780.0,-0.987,0.006,-0.215,5.32,4.082,-2.198,-0.975,0.142,0.201,-0.927,-0.422,0.846,-0.987,0.465,0.074,9.066,-74.539,37.466,-1.037,0.074,0.233,5.903,-9.495,7.273
3800.0,-0.988,-0.01,-0.209,7.039,7.261,-1.053,-0.975,0.145,0.208,0.574,2.984,-0.54,-1.022,0.485,0.083,-7.076,-74.511,39.59,-1.157,0.035,0.252,15.701,-21.881,13.987
3820.0,-0.982,-0.014,-0.196,7.647,9.543,-0.904,-0.965,0.15,0.219,3.427,6.737,-3.643,-1.065,0.501,0.091,-30.197,-75.178,40.547,-1.145,0.045,0.205,16.387,-33.732,14.471
3840.0,-0.967,-0.013,-0.185,7.355,9.969,-1.1,-0.983,0.188,0.179,3.92,10.57,-5.46,-1.107,0.501,0.168,-54.652,-77.676,45.56,-1.112,0.108,0.178,12.407,-43.571,12.135
3860.0,-0.957,-0.01,-0.178,6.857,9.589,-0.876,-0.993,0.121,0.189,2.109,13.37,-6.037,-1.231,0.511,0.241,-73.152,-79.117,56.36,-1.114,0.215,0.156,0.443,-57.557,6.785
3880.0,-0.95,0.001,-0.154,5.315,7.116,-0.223,-1.024,0.096,0.168,4.891,13.171,-6.29,-1.358,0.545,0.26,-81.985,-87.635,70.656,-1.134,0.198,0.123,-24.824,-78.351,-4.958
3900.0,-0.963,0.0,-0.169,3.118,4.404,-0.074,-1.028,0.099,0.126,10.514,10.102,-5.415,-1.607,0.576,0.361,-84.22,-100.524,89.852,-1.209,0.121,0.193,-46.469,-100.26,-15.626
3920.0,-0.994,0.031,-0.207,2.439,4.968,0.17,-1.029,0.161,0.108,4.83,7.77,-3.43,-1.755,0.641,0.445,-73.403,-115.817,111.5,-1.297,0.112,0.288,-74.176,-117.911,-30.967
3940.0,-1.104,0.051,-0.158,2.354,4.602,0.508,-1.053,0.142,0.086,-3.166,2.277,-0.349,-2.001,0.742,0.571,-72.533,-131.155,137.071,-1.333,0.125,0.395,-107.857,-140.261,-60.22
3960.0,-1.198,0.03,-0.118,1.55,-4.607,0.668,-1.04,0.122,0.093,-3.303,-3.453,3.091,-2.163,0.848,0.727,-94.044,-168.088,154.185,-1.495,0.101,0.627,-144.013,-171.637,-104.54
3980.0,-1.151,0.008,-0.114,0.944,-22.835,1.313,-1.032,0.135,0.106,-3.384,-8.123,5.291,-2.197,0.834,0.936,-113.246,-195.199,170.107,-1.615,-0.071,0.796,-169.528,-191.507,-143.752
4000.0,-1.069,0.009,-0.15,-1.423,-30.802,0.216,-1.023,0.136,0.128,-4.374,-11.171,6.093,-2.375,0.913,0.926,-129.252,-226.43,180.652,-1.685,-0.165,0.95,-166.358,-205.969,-150.462
4020.0,-1.019,0.014,-0.199,-5.105,-34.56,-1.271,-1.005,0.128,0.148,-3.578,-11.796,6.4,-2.393,1.013,0.747,-152.265,-272.198,179.54,-1.796,-0.296,1.091,-109.263,-217.483,-157.312
4040.0,-0.985,-0.003,-0.224,-5.459,-33.061,-1.818,-0.996,0.126,0.164,-1.918,-11.655,6.253,-2.35,1.075,0.706,-180.818,-309.482,162.425,-2.044,-0.375,1.106,-19.992,-248.392,-145.825
4060.0,-0.962,-0.055,-0.169,-4.441,-30.547,-0.046,-0.983,0.138,0.176,-0.455,-10.508,5.501,-2.142,0.959,0.625,-225.905,-355.002,133.272,-2.088,-0.22,1.105,32.686,-276.637,-132.045
4080.0,-0.955,-0.087,-0.101,-1.183,-29.362,-0.218,-0.977,0.143,0.178,0.355,-8.37,4.055,-2.059,0.736,0.589,-234.505,-376.127,104.119,-2.17,-0.115,1.16,54.39,-295.815,-130.135
4100.0,-0.968,-0.084,-0.062,3.736,-32.204,-1.166,-0.981,0.135,0.179,1.426,-6.137,2.572,-1.878,0.645,0.518,-215.58,-381.508,87.377,-2.214,-0.048,1.244,49.57,-325.917,-134.188
4120.0,-0.976,-0.046,-0.081,5.052,-32.619,-0.917,-0.989,0.146,0.183,3.181,-3.804,1.831,-1.722,0.704,0.403,-199.493,-386.455,76.175,-2.2,-0.175,1.158,54.439,-348.312,-134.963
4140.0,-1.004,-0.014,-0.068,6.348,-30.723,-0.841,-0.998,0.161,0.179,3.51,-2.653,1.699,-1.554,0.722,0.292,-191.153,-387.843,68.626,-2.023,-0.219,0.975,57.019,-367.563,-139.756
4160.0,-1.025,0.016,-0.043,6.249,-26.855,-0.84,-1.013,0.127,0.16,3.103,-2.626,1.887,-1.347,0.666,0.31,-175.771,-380.024,64.271,-1.832,-0.319,0.911,63.07,-373.73,-139.72
4180.0,-1.042,0.041,0.007,6.032,-26.483,0.138,-1.01,0.124,0.152,5.041,-3.349,2.496,-1.259,0.868,0.335,-184.43,-366.744,53.73,-1.648,-0.331,0.849,77.748,-362.209,-128.349
4200.0,-1.03,0.048,0.048,4.266,-27.459,1.861,-1.002,0.152,0.153,4.841,-3.85,2.61,-1.137,0.786,0.254,-213.11,-370.855,44.882,-1.463,-0.313,0.756,92.185,-353.601,-114.491
4220.0,-1.017,0.045,0.062,1.571,-26.975,3.384,-1.001,0.156,0.163,2.794,-3.732,2.08,-1.022,0.646,0.101,-208.853,-384.861,46.271,-1.331,-0.469,0.599,112.009,-349.29,-100.173
4240.0,-0.987,0.036,0.047,-0.297,-22.78,4.738,-1.002,0.143,0.167,1.966,-3.233,1.84,-0.825,0.463,0.033,-190.151,-392.6,51.167,-1.07,-0.435,0.472,133.956,-341.561,-81.89
4260.0,-0.983,0.028,0.064,-1.019,-13.423,4.712,-1.001,0.149,0.167,1.835,-3.022,1.851,-0.481,0.246,0.014,-152.637,-373.872,52.15,-0.93,-0.338,0.571,114.017,-320.845,-82.985
4280.0,-1.011,0.028,0.104,-1.8,-12.53,3.312,-1.004,0.162,0.166,1.252,-2.938,1.77,-0.096,0.167,0.017,-120.918,-367.074,53.54,-0.88,-0.538,0.496,118.248,-299.356,-80.512
4300.0,-1.01,0.033,0.083,-2.779,-12.985,1.699,-1.001,0.129,0.158,1.172,-3.181,1.696,-0.028,0.118,-0.013,-113.353,-314.523,55.76,-0.781,-0.574,0.328,147.538,-298.067,-68.113
4320.0,-0.998,0.049,0.015,-6.048,-11.775,1.057,-0.988,0.115,0.163,4.016,-2.864,1.26,0.097,0.199,-0.097,-110.841,-233.73,50.925,-0.52,-0.385,0.341,155.942,-321.21,-52.287
4340.0,-1.007,0.043,-0.009,-11.445,-9.034,-0.187,-0.993,0.157,0.164,2.901,-3.357,1.245,0.165,0.255,-0.227,-119.999,-186.842,37.952,-0.28,-0.198,0.321,154.077,-258.79,-45.346
4360.0,-1.003,0.043,-0.003,-13.217,-4.983,-0.35,-0.996,0.162,0.16,0.776,-3.28,1.038,0.31,0.211,-0.422,-156.072,-135.424,26.503,-0.198,-0.103,0.191,146.947,-240.047,-33.564
4380.0,-0.981,0.031,-0.018,-13.3,0.356,0.072,-0.983,0.149,0.171,1.609,-2.097,0.765,0.522,0.086,-0.586,-192.291,-103.265,25.589,0.068,0.157,0.214,107.221,-216.428,-43.31
4400.0,-0.988,0.016,-0.052,-12.15,4.766,1.021,-0.996,0.163,0.174,1.242,-0.295,0.678,0.65,-0.148,-0.597,-191.873,-80.55,32.19,0.023,-0.085,0.185,106.814,-186.377,-39.325
4420.0,-1.008,0.005,-0.04,-5.99,9.346,2.897,-0.979,0.182,0.183,-1.094,0.786,-0.104,0.69,-0.367,-0.504,-153.939,-56.011,42.749,0.04,-0.168,0.218,138.769,-168.312,-15.49
4440.0,-1.002,-0.006,0.003,-2.071,11.312,5.393,-0.983,0.172,0.179,-2.622,2.997,-1.562,0.688,-0.347,-0.298,-100.622,-42.114,49.095,0.071,-0.146,0.207,180.475,-165.913,8.838
4460.0,-1.005,-0.026,-0.002,0.449,10.415,5.043,-0.994,0.138,0.165,-3.144,4.369,-2.3,0.76,-0.25,-0.192,-80.092,-21.6,43.561,0.121,-0.061,0.099,180.65,-163.084,13.65
4480.0,-1.029,-0.029,-0.029,1.284,8.132,0.878,-0.997,0.136,0.16,-1.426,4.548,-2.31,0.822,-0.279,-0.198,-67.254,-6.019,38.939,0.3,0.002,-0.016,153.602,-163.201,2.612
4500.0,-1.03,-0.008,-0.036,0.73,3.582,-4.733,-0.999,0.127,0.147,1.348,4.006,-2.557,0.833,-0.274,-0.179,-68.215,-3.689,34.079,0.46,-0.125,-0.136,136.683,-156.328,-10.137
4520.0,-0.993,0.039,-0.055,-2.044,-2.115,-7.679,-1.0,0.15,0.157,1.343,3.99,-2.897,0.822,-0.376,-0.182,-57.119,-1.216,29.481,0.597,-0.144,-0.144,170.211,-141.893,3.652
4540.0,-0.976,0.063,-0.112,-6.702,-7.06,-6.315,-1.008,0.156,0.158,-0.159,4.058,-3.556,0.808,-0.367,-0.159,-40.714,0.614,26.485,0.621,-0.086,-0.285,193.611,-106.873,17.638
4560.0,-0.996,0.035,-0.138,-7.753,-10.584,-1.403,-1.005,0.151,0.139,-0.927,3.828,-3.525,0.786,-0.483,-0.138,-17.954,-16.769,31.091,0.785,0.175,-0.558,180.259,-98.224,18.501
4580.0,-1.017,-0.022,-0.14,-7.006,-11.823,-0.077,-1.011,0.129,0.136,-1.367,2.825,-3.239,0.955,-0.473,-0.094,3.205,0.602,26.782,0.994,0.441,-0.614,116.117,-75.007,10.541
4600.0,-1.007,-0.023,-0.121,-5.873,-12.991,-2.241,-1.014,0.102,0.135,0.531,1.695,-2.959,0.834,-0.488,-0.091,-3.71,-9.73,20.51,1.009,0.359,-0.613,44.23,-31.706,-5.005
4620.0,-0.991,-0.012,-0.098,-6.165,-15.209,-3.908,-1.005,0.114,0.14,2.153,1.518,-2.77,0.837,-0.525,0.026,13.998,-15.44,8.888,0.985,0.114,-0.613,39.633,-8.588,0.245
4640.0,-0.984,-0.003,-0.079,-6.791,-15.568,-4.86,-0.996,0.142,0.151,1.797,1.982,-2.818,0.831,-0.537,0.05,11.349,-25.35,5.568,0.966,0.166,-0.496,43.352,11.13,10.354
4660.0,-0.989,0.038,-0.043,-5.067,-13.271,-5.053,-0.996,0.143,0.15,0.216,3.17,-3.128,0.872,-0.55,0.102,27.888,-25.049,-1.238,0.911,0.25,-0.317,30.739,18.314,9.946
4680.0,-1.013,0.049,0.002,-2.387,-11.73,-3.57,-1.002,0.127,0.145,0.072,4.11,-3.084,0.911,-0.586,0.103,42.354,-19.056,-7.409,0.92,0.286,-0.155,7.459,15.126,5.194
4700.0,-1.023,0.028,0.028,0.919,-11.954,-1.889,-1.011,0.107,0.141,1.633,4.653,-2.829,0.928,-0.524,0.11,37.469,-7.982,-12.817,0.948,0.318,0.012,-13.826,11.078,1.448
4720.0,-1.025,0.008,0.026,1.958,-9.555,-0.61,-1.007,0.109,0.136,3.266,5.286,-2.826,0.915,-0.532,0.12,21.056,0.274,-13.54,0.897,0.217,0.099,-22.084,12.151,-1.418
4740.0,-1.026,-0.011,0.019,2.702,-4.961,0.111,-0.999,0.118,0.135,3.222,5.804,-2.855,0.913,-0.613,0.169,25.919,12.006,-10.382,0.899,0.234,0.136,-19.996,-6.546,3.711
4760.0,-1.027,-0.027,0.023,5.572,-2.4,0.466,-1.018,0.113,0.136,2.157,5.825,-2.553,0.894,-0.495,0.297,42.135,11.108,-2.442,0.93,0.421,0.333,-37.853,-7.844,0.559
4780.0,-1.025,-0.02,0.042,10.363,-0.256,1.716,-1.02,0.114,0.123,3.715,5.084,-1.399,0.93,-0.333,0.489,26.245,14.923,2.201,0.98,0.462,0.402,-48.306,6.031,-3.22
4800.0,-1.039,-0.013,0.031,13.989,-0.885,3.918,-1.02,0.11,0.104,4.385,3.289,0.081,0.944,-0.405,0.479,1.075,17.683,0.943,1.045,0.453,0.316,-44.726,10.036,-2.617
4820.0,-1.039,0.009,-0.012,15.385,-0.362,4.88,-1.026,0.104,0.102,4.007,1.217,1.716,0.919,-0.516,0.459,4.198,11.421,-0.636,1.043,0.503,0.246,-14.581,14.853,6.978
4840.0,-1.002,0.052,0.013,15.318,2.592,3.835,-1.028,0.104,0.103,3.987,-0.598,2.854,0.925,-0.522,0.446,3.931,7.753,-3.628,1.062,0.467,0.34,12.436,20.159,14.365
4860.0,-0.987,0.084,0.04,10.566,0.952,-0.177,-1.013,0.123,0.094,6.262,-3.101,3.142,0.921,-0.525,0.396,1.079,3.822,-8.427,0.985,0.552,0.589,5.466,20.044,3.4
4880.0,-0.988,0.093,-0.017,1.748,-2.127,-2.484,-0.996,0.154,0.116,3.526,-3.212,2.583,0.877,-0.49,0.317,4.511,-5.475,-8.585,0.924,0.18,0.516,-13.72,23.59,-4.62
4900.0,-0.993,0.053,-0.05,-5.147,-2.654,-2.775,-0.999,0.145,0.114,0.059,-3.289,1.903,0.851,-0.402,0.27,17.126,-14.71,-3.339,0.945,0.1,0.393,-16.024,11.381,-15.894
4920.0,-0.997,0.033,-0.056,-7.343,-2.398,-1.813,-0.997,0.14,0.124,-1.295,-2.911,0.825,0.877,-0.357,0.239,17.601,-15.141,-0.965,0.97,0.121,0.263,14.686,-2.815,-16.088
4940.0,-1.007,0.014,-0.019,-5.283,-1.914,-0.012,-1.001,0.136,0.121,-1.345,-2.715,-0.217,0.893,-0.344,0.158,14.703,-10.234,-0.306,1.014,0.349,0.185,3.445,-3.676,-18.224
4960.0,-1.011,0.009,-0.005,-2.623,-3.272,0.907,-1.006,0.145,0.13,-1.562,-1.727,-1.047,0.904,-0.381,0.043,16.911,-3.555,1.356,0.995,0.441,0.149,-2.214,-2.219,-16.593
4980.0,-1.006,0.017,-0.015,-2.318,-3.43,0.91,-0.996,0.139,0.128,-3.126,-0.189,-1.685,0.921,-0.411,-0.063,18.985,2.923,3.109,0.965,0.451,0.134,0.374,2.897,-9.488
5000.0,-1.002,0.016,-0.018,-2.217,-2.359,0.551,-0.997,0.122,0.132,-3.493,1.433,-2.528,0.929,-0.484,-0.167,19.326,14.182,-0.199,0.873,0.421,0.203,-7.798,6.609,-6.365
5020.0,-0.987,0.01,-0.033,-1.61,0.026,0.572,-1.0,0.128,0.136,-2.951,2.856,-3.363,0.917,-0.499,-0.287,30.726,32.347,-7.371,0.863,0.398,0.236,-19.238,6.259,-4.741
5040.0,-0.986,-0.009,-0.04,1.315,2.54,1.32,-1.006,0.124,0.122,-2.983,3.578,-4.02,0.889,-0.451,-0.391,44.912,57.667,-18.847,0.826,0.415,0.225,-27.623,5.78,-3.385
5060.0,-1.003,-0.025,-0.039,5.407,3.265,1.4,-1.003,0.108,0.113,-2.58,3.77,-4.06,0.833,-0.354,-0.496,66.933,81.887,-20.808,0.807,0.361,0.225,-33.513,5.74,-3.426
5080.0,-1.05,-0.017,-0.044,6.323,2.542,0.468,-1.005,0.098,0.113,1.363,3.367,-3.942,0.759,-0.126,-0.516,83.632,95.596,-8.814,0.814,0.313,0.203,-38.969,7.438,-3.203
5100.0,-1.084,0.01,-0.053,6.748,-2.212,-0.521,-1.012,0.116,0.12,3.098,3.724,-3.92,0.71,0.014,-0.454,95.301,106.476,-0.195,0.882,0.344,0.032,-37.689,13.425,0.946
5120.0,-1.068,0.038,-0.068,7.757,-2.852,-1.561,-1.027,0.118,0.11,2.213,3.709,-3.547,0.636,0.035,-0.365,117.273,127.055,2.654,0.923,0.424,-0.212,-39.026,22.566,11.073
5140.0,-1.001,0.034,-0.057,10.182,-1.146,-2.328,-1.025,0.107,0.096,2.102,3.553,-2.796,0.482,0.057,-0.289,141.536,174.086,-3.088,0.923,0.452,-0.4,-60.177,40.911,14.76
5160.0,-0.94,0.008,-0.019,13.687,4.709,-1.479,-1.008,0.098,0.091,3.209,2.616,-2.116,0.349,0.056,-0.338,148.798,199.548,-17.289,0.883,0.391,-0.493,-130.15,74.363,6.562
5180.0,-0.941,-0.018,-0.01,12.811,6.13,0.635,-1.008,0.095,0.099,4.011,2.249,-1.468,0.19,0.015,-0.389,159.949,216.604,-24.668,0.811,-0.038,-0.501,-176.909,115.627,-3.593
5200.0,-0.972,-0.024,-0.01,7.802,6.308,0.879,-1.016,0.102,0.109,4.011,2.687,-1.241,0.098,-0.051,-0.448,187.285,242.199,-29.903,0.757,-0.32,-0.501,-162.973,154.426,-2.033
5220.0,-1.014,-0.005,-0.017,3.517,6.552,-1.334,-1.02,0.117,0.097,2.662,3.271,-1.474,-0.119,0.061,-0.427,222.439,267.63,-39.063,0.718,-0.238,-0.539,-110.183,187.071,7.024
5240.0,-1.021,0.036,-0.038,3.729,8.83,-3.713,-1.02,0.102,0.088,2.396,3.148,-1.451,-0.32,0.317,-0.276,231.13,283.45,-61.162,0.512,-0.096,-0.494,-130.543,219.225,-3.849
5260.0,-0.998,0.077,-0.019,8.021,10.185,-3.57,-1.015,0.096,0.085,3.599,2.292,-0.97,-0.532,0.539,-0.097,207.102,314.664,-81.985,0.234,-0.152,-0.26,-171.888,249.983,-14.253
5280.0,-0.943,0.079,-0.001,8.683,10.452,-3.15,-1.005,0.094,0.082,2.771,1.975,-0.524,-0.648,0.549,-0.081,184.033,335.818,-91.908,0.087,-0.321,-0.116,-184.133,259.614,-8.225
5300.0,-0.886,0.052,-0.015,6.382,15.791,-3.203,-1.014,0.077,0.087,1.89,1.68,0.84,-0.735,0.465,-0.106,181.786,355.372,-96.972,0.063,-0.283,-0.279,-154.0,280.49,14.07
5320.0,-0.884,0.045,-0.011,6.967,23.078,-0.788,-1.018,0.095,0.091,-0.719,2.308,1.309,-1.012,0.461,-0.167,202.526,386.797,-103.024,-0.222,-0.488,-0.042,-109.42,325.544,26.941
5340.0,-0.94,0.017,0.03,10.413,27.801,2.873,-0.991,0.104,0.085,-2.548,2.858,0.28,-1.448,0.554,-0.042,196.138,406.681,-114.585,-0.573,-0.21,0.093,-101.455,325.378,39.584
5360.0,-0.98,-0.028,0.029,9.216,29.416,4.873,-1.012,0.105,0.085,-3.212,1.83,-0.273,-1.711,0.548,0.252,183.866,427.144,-124.204,-0.585,-0.04,0.187,-126.776,333.579,49.462
5380.0,-1.054,-0.018,0.015,6.133,29.429,3.396,-1.054,0.084,0.059,-2.989,-1.045,1.419,-2.152,0.948,0.352,144.06,477.89,-155.89,-0.606,-0.023,0.151,-162.046,367.77,54.852
5400.0,-1.156,0.011,0.018,5.436,28.317,-0.579,-1.021,0.076,0.054,-0.787,-2.484,2.987,-2.225,0.414,0.048,85.343,437.857,-161.188,-0.988,-0.276,0.214,-134.437,398.208,77.692
5420.0,-1.144,0.063,0.026,7.042,23.879,-0.903,-1.004,0.097,0.044,-0.14,-6.16,3.64,-2.36,0.248,-0.229,84.42,444.01,-145.25,-1.186,-0.262,0.227,-92.275,384.492,100.636
5440.0,-1.032,0.061,-0.011,8.463,21.922,0.133,-1.022,0.122,0.07,-1.102,-8.898,3.745,-2.978,0.187,-0.227,101.199,429.903,-138.849,-1.311,-0.192,0.524,-75.74,409.917,108.566
5460.0,-1.034,0.039,-0.026,8.306,21.111,0.522,-1.034,0.115,0.079,-3.22,-8.96,4.48,-3.434,0.391,0.205,91.552,429.572,-137.535,-1.453,-0.049,0.424,-81.188,459.81,121.309
5480.0,-1.078,0.033,-0.091,1.239,18.561,-0.068,-1.018,0.099,0.081,-3.36,-8.89,5.32,-3.57,0.675,0.638,17.351,433.801,-149.463,-1.465,0.45,-0.408,-97.003,544.899,98.189
5500.0,-0.948,0.101,-0.124,-2.026,27.145,0.123,-1.006,0.102,0.094,-1.625,-9.224,4.813,-3.557,0.943,0.801,-101.188,399.672,-158.237,-2.594,0.243,-0.204,-163.351,513.896,55.307
5520.0,-0.943,0.148,-0.082,-1.832,35.513,2.459,-1.007,0.139,0.1,-1.97,-8.654,3.278,-3.051,1.228,0.703,-217.119,336.103,-152.586,-3.045,-0.517,-0.039,-179.431,440.954,67.34
5540.0,-0.988,0.067,-0.074,-1.54,36.41,3.162,-1.007,0.137,0.107,-2.951,-7.296,1.781,-2.366,0.246,-0.051,-208.46,262.78,-102.55,-2.931,-0.776,0.237,-25.391,399.804,150.711
5560.0,-0.993,0.038,-0.093,-6.655,37.703,-1.13,-1.002,0.111,0.113,-2.779,-5.03,0.382,-1.893,-0.534,-0.283,-42.07,209.37,-24.43,-3.063,-0.373,0.392,32.721,401.708,168.557
5580.0,-1.022,0.049,-0.107,-13.038,38.46,-7.166,-1.012,0.103,0.106,-2.496,-5.068,0.568,-1.787,-0.381,-0.268,113.387,172.022,41.365,-3.141,-0.316,0.428,74.201,385.401,161.627
5600.0,-1.051,0.079,-0.127,-19.316,33.179,-9.276,-1.014,0.102,0.098,-1.794,-5.151,1.028,-1.726,-0.171,-0.15,218.093,114.384,94.88,-2.97,-0.228,0.259,99.458,323.008,130.15
5620.0,-1.05,0.032,-0.173,-20.044,22.658,-8.325,-1.015,0.116,0.097,-2.519,-5.39,1.356,-1.593,-0.035,0.073,259.351,84.475,123.254,-2.425,-0.108,0.042,94.907,225.337,96.761
5640.0,-1.004,-0.029,-0.21,-15.83,18.549,-7.396,-1.014,0.107,0.104,-4.092,-5.3,2.021,-1.432,0.179,0.17,280.28,86.38,130.62,-2.156,0.139,0.093,114.777,173.524,70.9
5660.0,-0.997,-0.05,-0.23,-7.691,11.936,-6.953,-1.012,0.101,0.105,-3.803,-5.533,2.899,-1.375,0.398,0.221,290.29,66.29,124.46,-2.045,0.503,0.078,77.461,105.505,28.394
5680.0,-1.018,-0.039,-0.222,-4.024,6.331,-6.733,-1.013,0.105,0.102,-4.821,-5.737,3.465,-1.257,0.627,0.285,276.64,64.68,99.47,-1.662,0.906,0.159,-9.072,77.921,-37.344
5700.0,-1.015,-0.001,-0.243,-3.54,0.045,-6.922,-1.023,0.094,0.096,-5.53,-6.282,4.306,-1.118,0.895,0.36,214.528,67.128,61.68,-1.299,0.877,0.176,-113.518,83.358,-91.235
5720.0,-0.999,0.021,-0.275,-4.252,-2.841,-7.808,-1.028,0.091,0.096,-4.373,-8.244,6.307,-1.085,1.025,0.374,129.545,66.178,13.269,-1.238,0.63,0.107,-199.329,86.948,-126.671
5740.0,-1.0,0.035,-0.273,-5.805,-4.447,-6.74,-1.02,0.101,0.101,-2.709,-9.596,8.116,-1.058,1.022,0.378,26.26,54.586,-23.34,-1.226,0.356,0.095,-253.786,76.932,-134.247
5760.0,-0.978,0.032,-0.288,-5.494,-2.448,-5.261,-1.007,0.105,0.105,-2.7,-10.1,8.298,-1.033,0.885,0.356,-69.895,39.276,-49.644,-1.193,-0.038,0.201,-269.629,57.839,-128.371
5780.0,-0.964,-0.002,-0.286,-4.942,-0.514,-4.342,-1.002,0.117,0.111,-4.097,-10.418,7.986,-1.005,0.696,0.273,-135.684,1.397,-64.297,-1.198,-0.4,0.397,-257.533,45.694,-100.188
5800.0,-0.96,-0.043,-0.253,-3.084,-0.906,-4.509,-1.015,0.112,0.117,-3.856,-10.673,8.117,-0.973,0.579,0.221,-187.817,-9.17,-67.951,-1.26,-0.674,0.453,-221.407,34.488,-70.597
5820.0,-0.972,-0.037,-0.214,-0.91,-4.952,-4.669,-1.01,0.106,0.118,-0.841,-10.838,8.141,-1.056,0.348,0.231,-190.17,-28.371,-62.277,-1.28,-0.939,0.442,-151.421,13.835,-35.383
5840.0,-0.985,-0.008,-0.196,1.088,-9.162,-4.36,-0.996,0.126,0.122,0.083,-10.711,7.47,-1.124,0.157,0.24,-162.728,-59.193,-49.118,-1.167,-1.012,0.381,-51.514,-17.169,4.865
5860.0,-0.996,0.001,-0.193,3.049,-11.528,-3.241,-0.993,0.133,0.133,0.054,-9.802,6.42,-1.105,0.055,0.267,-121.964,-80.62,-29.375,-1.003,-0.827,0.342,30.489,-23.374,34.832
5880.0,-0.965,-0.004,-0.237,8.003,-13.005,-1.805,-0.992,0.12,0.147,-0.581,-7.73,5.666,-1.209,0.041,0.363,-81.51,-92.626,-14.24,-1.007,-0.604,0.3,90.816,-28.014,49.041
5900.0,-0.949,-0.019,-0.24,11.104,-13.63,-0.791,-0.98,0.125,0.154,0.53,-5.879,3.984,-1.494,0.107,0.441,-54.356,-118.701,-1.215,-1.036,-0.405,0.21,131.008,-42.42,57.799
5920.0,-0.945,-0.038,-0.247,14.607,-12.007,-1.147,-1.004,0.153,0.153,1.405,-4.533,2.585,-1.705,0.221,0.582,-25.847,-145.22,9.533,-1.029,-0.165,0.174,147.714,-57.71,59.866
5940.0,-0.946,-0.043,-0.275,17.626,-7.274,-1.387,-0.993,0.135,0.15,0.255,-1.854,1.314,-1.934,0.373,0.649,-22.926,-166.38,14.136,-1.033,0.099,0.248,104.487,-62.577,28.393
5960.0,-0.974,-0.019,-0.281,17.435,-1.941,-1.005,-0.991,0.144,0.14,1.101,-0.88,0.923,-2.165,0.465,0.586,-34.371,-199.481,19.396,-1.07,0.193,0.38,24.299,-60.679,-22.833
5980.0,-1.007,-0.003,-0.26,11.738,-0.58,-3.829,-1.002,0.245,0.139,2.193,-0.469,0.973,-2.455,0.509,0.56,-44.249,-236.762,30.625,-1.131,0.056,0.494,-23.551,-53.185,-57.968
6000.0,-1.043,0.027,-0.225,4.958,-4.739,-5.873,-1.018,0.11,0.14,3.019,-0.35,0.599,-2.786,0.501,0.586,-47.261,-283.716,56.44,-1.448,-0.007,0.521,-26.086,-81.992,-83.433
6020.0,-1.078,0.067,-0.2,3.153,-8.142,-4.153,-0.998,0.142,0.13,3.492,-0.344,0.28,-2.976,0.429,0.543,-39.069,-334.107,87.626,-1.666,-0.399,0.524,-49.806,-106.102,-107.362
6040.0,-1.053,0.026,-0.191,3.488,-9.486,-0.881,-1.005,0.14,0.135,1.759,-0.211,-0.278,-3.046,0.413,0.339,-13.972,-378.399,117.498,-1.877,-0.776,0.514,-22.222,-150.642,-111.544
6060.0,-1.064,0.002,-0.165,1.821,-13.649,0.552,-1.02,0.126,0.129,2.041,-0.894,0.404,-3.032,0.651,0.215,-8.965,-416.627,137.895,-2.144,-0.735,0.615,56.681,-190.445,-86.01
6080.0,-1.07,0.006,-0.152,2.31,-21.63,1.68,-1.021,0.122,0.117,0.954,-2.302,1.636,-3.001,0.865,0.287,-52.235,-431.273,139.003,-2.334,-0.467,0.654,76.914,-224.727,-88.285
6100.0,-1.048,-0.011,-0.128,4.873,-26.952,4.15,-1.018,0.135,0.11,0.21,-4.13,2.31,-3.028,0.897,0.271,-103.254,-435.16,129.047,-2.592,-0.448,0.669,72.333,-259.753,-132.186
6120.0,-1.028,-0.017,-0.128,6.782,-29.944,5.448,-1.003,0.137,0.122,0.419,-5.17,2.112,-2.855,0.896,0.155,-151.414,-440.478,109.994,-2.787,-0.537,0.678,57.765,-295.661,-155.166
6140.0,-1.024,-0.011,-0.119,7.466,-28.643,5.691,-1.017,0.152,0.131,-2.29,-5.246,1.821,-2.571,0.874,0.096,-191.631,-445.07,85.842,-2.914,-0.719,0.582,86.176,-341.353,-168.734
6160.0,-1.014,0.021,-0.068,4.541,-25.216,4.438,-1.017,0.119,0.13,-1.41,-5.367,1.886,-2.311,0.911,-0.004,-227.75,-447.274,54.398,-2.889,-0.689,0.489,111.049,-367.772,-180.561
6180.0,-1.026,0.055,-0.021,2.219,-27.144,4.133,-1.008,0.116,0.138,1.205,-5.59,1.573,-2.083,0.839,-0.092,-233.106,-452.254,37.668,-2.892,-0.712,0.438,130.253,-394.424,-187.784
6200.0,-1.03,0.055,-0.015,2.017,-30.259,4.881,-1.001,0.139,0.138,1.133,-4.946,1.489,-1.773,0.635,-0.114,-213.072,-455.749,34.454,-2.742,-0.681,0.423,146.235,-402.982,-180.992
6220.0,-1.024,0.052,0.01,-1.532,-30.448,5.25,-0.998,0.146,0.138,0.018,-4.16,0.834,-1.466,0.564,-0.158,-190.656,-465.801,39.619,-2.459,-0.606,0.349,166.626,-404.106,-162.896
6240.0,-1.009,0.035,0.036,-3.681,-30.091,6.272,-0.984,0.137,0.137,-0.698,-2.585,-0.088,-1.221,0.51,-0.141,-149.303,-470.353,48.994,-2.19,-0.595,0.217,179.002,-402.575,-146.074
6260.0,-0.993,0.001,0.058,-2.842,-29.212,7.008,-0.989,0.134,0.14,-0.285,-2.245,-0.922,-1.084,0.447,0.019,-132.652,-476.686,53.482,-2.009,-0.748,-0.053,198.808,-403.384,-130.144
6280.0,-0.989,-0.038,0.079,1.546,-28.079,8.544,-0.992,0.14,0.146,-0.07,-1.633,-1.622,-1.06,0.399,-0.152,-134.618,-478.507,51.956,-1.782,-0.612,-0.119,205.522,-409.976,-117.877
6300.0,-0.979,-0.043,0.05,5.701,-25.586,8.081,-1.0,0.133,0.146,-0.104,-0.607,-2.188,-0.672,0.363,-0.266,-116.176,-415.824,54.551,-1.437,-0.386,-0.099,184.156,-401.403,-119.843
6320.0,-0.988,-0.013,0.022,6.688,-20.173,5.787,-1.01,0.121,0.136,-0.186,-0.522,-2.124,-0.48,0.179,-0.31,-92.504,-396.425,53.71,-1.015,-0.234,-0.051,168.345,-383.155,-111.941
6340.0,-1.001,0.028,0.042,5.866,-15.291,3.758,-1.007,0.11,0.126,-0.091,-0.928,-1.436,-0.238,0.061,-0.316,-84.436,-342.843,60.125,-0.831,-0.186,-0.164,131.142,-381.655,-113.199
6360.0,-0.996,0.055,0.038,3.082,-15.963,2.475,-1.0,0.107,0.128,0.506,-1.482,-1.016,0.011,0.014,-0.3,-67.662,-272.857,68.465,-0.581,-0.25,-0.09,109.849,-356.916,-103.566
6380.0,-0.971,0.066,-0.01,-2.347,-15.645,0.28,-0.998,0.119,0.134,0.788,-1.705,-0.836,0.235,0.001,-0.33,-73.28,-197.396,67.543,-0.556,-0.301,-0.249,139.535,-318.224,-82.981
6400.0,-0.968,0.078,-0.043,-7.959,-15.931,-4.021,-1.004,0.132,0.131,0.066,-1.707,-0.7,0.173,-0.007,-0.456,-102.822,-154.106,59.415,-0.3,-0.108,-0.258,149.006,-286.147,-60.054
6420.0,-0.973,0.1,-0.088,-13.639,-16.783,-7.903,-1.01,0.118,0.125,0.181,-2.585,-0.57,0.224,-0.069,-0.499,-132.332,-116.73,55.241,-0.138,-0.125,-0.393,167.187,-249.271,-36.898
6440.0,-0.956,0.101,-0.113,-18.231,-12.894,-9.777,-1.003,0.125,0.135,2.247,-2.798,0.07,0.333,-0.093,-0.548,-133.871,-84.278,49.189,0.03,0.176,-0.456,159.9,-221.129,-33.098
6460.0,-0.947,0.069,-0.071,-21.911,-3.352,-10.913,-1.006,0.122,0.14,2.787,-2.705,0.062,0.495,-0.198,-0.508,-105.787,-47.674,41.908,0.221,0.263,-0.409,111.097,-197.585,-37.657
6480.0,-0.969,0.015,0.004,-23.655,-0.695,-11.369,-1.0,0.141,0.146,1.923,-1.791,-0.21,0.593,-0.168,-0.429,-103.46,-8.68,32.76,0.394,0.158,-0.416,108.826,-147.476,-34.827
6500.0,-1.001,0.005,0.012,-20.681,-2.425,-9.847,-1.0,0.132,0.143,0.476,-0.62,-0.21,0.702,-0.292,-0.565,-105.07,21.0,33.88,0.418,0.113,-0.384,136.021,-108.878,-21.271
6520.0,-1.01,-0.015,-0.026,-18.225,-3.644,-6.225,-0.993,0.132,0.146,-0.607,0.826,-0.635,0.718,-0.344,-0.565,-113.61,21.98,32.27,0.463,0.196,-0.237,137.291,-90.615,-18.543
6540.0,-1.011,-0.041,-0.056,-12.097,-3.247,-4.021,-0.994,0.133,0.145,-1.44,2.455,-1.503,0.887,-0.512,-0.428,-72.255,32.917,33.048,0.438,0.129,-0.02,134.176,-80.255,-12.736
6560.0,-1.011,-0.016,-0.052,-3.196,-3.545,-2.162,-0.996,0.12,0.137,-1.89,3.5,-2.1,0.953,-0.53,-0.342,-46.512,32.172,31.339,0.491,0.216,0.002,132.252,-62.339,-7.85
6580.0,-1.004,-0.026,-0.07,-2.037,-7.686,-1.777,-1.006,0.134,0.132,-2.389,3.139,-1.849,1.035,-0.463,-0.259,-17.665,48.907,20.339,0.71,0.317,-0.072,141.423,-40.15,0.285
6600.0,-0.988,-0.026,-0.092,0.427,-5.328,-2.641,-1.017,0.114,0.119,-2.936,2.544,-1.82,1.02,-0.499,-0.133,-21.266,33.488,15.342,0.818,0.382,-0.1,149.992,-38.447,22.62
6620.0,-1.004,-0.02,-0.087,3.034,-4.831,-1.927,-1.01,0.118,0.115,-3.433,1.929,-1.931,1.11,-0.663,-0.045,-12.785,11.105,8.151,0.929,0.636,-0.044,100.644,-33.999,20.282
6640.0,-1.019,-0.024,-0.091,3.78,-5.107,-0.397,-1.009,0.117,0.122,-2.731,1.503,-1.885,1.117,-0.769,-0.065,41.546,12.578,3.871,1.002,0.574,-0.062,54.608,-26.952,22.311
6660.0,-1.02,-0.024,-0.087,3.903,-5.136,-0.267,-1.018,0.108,0.12,-0.292,1.167,-1.407,1.103,-0.677,-0.057,66.758,7.977,-1.864,1.096,0.39,-0.113,55.666,-28.549,36.479
6680.0,-1.008,-0.025,-0.101,5.11,-5.571,-0.581,-1.018,0.099,0.12,0.65,0.802,-1.219,1.08,-0.383,0.03,60.478,0.43,-9.184,1.178,0.37,-0.118,55.531,-26.572,44.218
6700.0,-1.028,-0.005,-0.055,9.044,-3.347,-0.051,-1.006,0.096,0.119,2.074,0.614,-0.805,1.044,-0.305,0.179,33.162,-4.497,-11.313,1.211,0.398,-0.045,15.683,-19.306,37.686
6720.0,-1.047,0.003,-0.01,11.388,-4.604,-0.073,-1.006,0.102,0.112,3.955,0.131,-0.425,0.99,-0.395,0.222,31.947,-9.937,-4.901,1.199,0.227,-0.001,-24.662,-13.657,21.947
6740.0,-1.018,-0.001,-0.004,10.894,-5.205,-0.765,-1.013,0.101,0.116,5.651,-0.44,-0.42,0.933,-0.325,0.197,51.515,-14.123,6.645,1.166,0.168,-0.065,-20.597,-13.737,21.069
6760.0,-1.014,0.005,-0.032,8.855,-5.219,-1.204,-1.015,0.099,0.116,8.313,-0.645,-0.261,0.898,-0.247,0.224,41.455,-14.483,10.5,1.281,0.413,-0.098,-18.629,-15.992,22.718
6780.0,-0.983,0.022,0.016,6.796,-0.334,-1.429,-1.019,0.116,0.121,11.84,-1.089,0.041,0.887,-0.34,0.207,28.818,-12.473,15.867,1.342,0.522,-0.04,-62.619,11.17,16.173
6800.0,-0.954,0.032,0.033,7.386,0.964,-3.026,-1.018,0.125,0.112,10.61,-0.97,0.454,0.876,-0.475,0.177,27.185,-7.47,22.451,1.012,0.163,0.22,-95.04,25.053,-7.368
6820.0,-0.943,0.048,0.01,6.55,4.081,-3.331,-1.009,0.112,0.104,7.886,-1.076,1.328,0.853,-0.537,0.192,26.526,0.454,23.916,0.873,-0.343,0.445,-83.168,19.667,-22.815
6840.0,-0.955,0.044,-0.016,4.34,7.56,-2.8,-1.006,0.133,0.105,6.05,-1.627,1.761,0.827,-0.638,0.18,21.983,9.296,21.085,0.909,-0.234,0.458,-11.872,22.453,-28.858
6860.0,-1.002,0.041,-0.004,1.462,9.096,-1.011,-1.002,0.137,0.109,2.643,-1.645,1.575,0.806,-0.722,0.097,21.406,15.641,11.993,0.94,0.313,0.411,-5.127,19.268,-35.998
6880.0,-1.028,0.043,-0.002,0.77,10.57,1.19,-1.004,0.118,0.114,-0.262,-1.796,1.493,0.798,-0.725,0.017,32.426,17.758,2.543,0.949,0.546,0.415,-21.074,25.893,-33.807
6900.0,-1.037,0.039,-0.004,1.05,10.92,2.66,-1.012,0.123,0.112,-1.485,-2.01,1.543,0.789,-0.621,-0.086,36.869,19.632,-6.487,0.867,0.605,0.577,-28.345,26.468,-24.891
6920.0,-1.047,0.026,-0.0,3.095,10.868,4.644,-1.013,0.135,0.113,-3.127,-1.882,1.258,0.773,-0.534,-0.182,37.077,24.637,-16.591,0.79,0.511,0.564,-27.78,17.389,-14.922
6940.0,-1.026,0.001,-0.017,4.427,13.295,6.225,-1.008,0.136,0.12,-5.793,-1.248,0.644,0.763,-0.469,-0.309,40.875,39.165,-25.977,0.749,0.482,0.526,-25.331,10.87,-8.353
6960.0,-1.039,-0.034,-0.034,4.62,12.11,5.04,-1.008,0.124,0.118,-7.62,-0.581,0.086,0.739,-0.369,-0.455,64.9,67.601,-32.217,0.741,0.426,0.453,-25.618,-1.856,-1.867
6980.0,-1.045,-0.011,-0.078,4.9,10.43,3.29,-1.016,0.082,0.11,-7.043,-0.858,0.074,0.643,-0.244,-0.468,95.656,97.014,-35.006,0.776,0.417,0.345,-24.389,-6.552,6.495
7000.0,-1.045,0.016,-0.084,5.559,8.53,3.074,-1.017,0.089,0.114,-3.373,-1.189,0.706,0.539,-0.157,-0.45,123.565,123.047,-36.533,0.88,0.51,0.121,-29.361,-0.824,17.945
7020.0,-1.043,0.007,-0.097,4.875,6.349,2.136,-1.011,0.112,0.111,-2.66,-1.05,0.77,0.401,-0.081,-0.479,137.549,147.944,-40.193,0.977,0.616,-0.138,-39.469,14.874,32.855
7040.0,-1.023,0.006,-0.11,1.216,3.668,-0.102,-1.003,0.102,0.114,-1.97,-1.258,0.542,0.344,0.015,-0.482,140.615,177.516,-48.111,1.038,0.607,-0.421,-73.966,64.447,42.921
7060.0,-0.995,0.037,-0.128,-3.068,3.189,-2.896,-1.002,0.11,0.117,-0.771,-0.823,0.051,0.192,0.072,-0.461,153.389,202.173,-60.349,1.048,0.427,-0.572,-97.354,106.334,53.936
7080.0,-0.962,0.079,-0.129,-4.881,4.921,-4.452,-1.011,0.124,0.124,-1.19,-0.179,-0.148,0.109,0.108,-0.459,194.278,227.109,-66.239,0.923,0.327,-0.546,-121.694,159.155,46.359
7100.0,-0.947,0.106,-0.093,-2.34,5.974,-3.605,-1.005,0.089,0.111,-1.179,0.454,-0.29,-0.095,0.26,-0.446,232.94,242.39,-77.746,0.717,0.173,-0.621,-173.331,201.869,35.725
7120.0,-0.937,0.089,-0.087,4.379,8.498,-1.697,-0.993,0.103,0.11,0.233,1.211,-0.613,-0.128,0.483,-0.228,238.21,290.08,-94.92,0.533,-0.313,-0.534,-185.231,217.325,29.139
7140.0,-0.939,0.039,-0.073,8.19,13.196,-1.11,-0.993,0.113,0.12,0.357,2.391,-1.502,-0.473,0.71,-0.099,198.786,307.126,-117.599,0.309,-0.289,-0.444,-155.286,219.772,44.025
7160.0,-0.978,-0.005,-0.05,8.772,19.05,-1.245,-1.017,0.12,0.125,0.458,4.297,-1.974,-0.596,0.582,-0.046,155.303,336.54,-137.721,0.387,-0.148,-0.429,-164.427,248.309,47.396
7180.0,-1.047,-0.004,-0.025,8.405,20.454,-2.638,-1.02,0.091,0.1,-0.605,4.46,-2.03,-0.684,0.521,0.045,150.01,381.08,-142.1,0.273,-0.272,-0.497,-183.179,291.05,57.257
7200.0,-1.049,0.011,-0.019,8.673,19.739,-2.395,-1.017,0.094,0.097,-0.83,4.619,-2.033,-0.922,0.488,0.045,165.061,462.566,-142.256,-0.175,-0.44,-0.48,-158.941,306.084,86.126
7220.0,-0.995,-0.023,-0.038,10.064,21.617,2.283,-1.006,0.111,0.09,0.553,4.471,-2.379,-1.284,0.563,0.066,180.273,490.284,-147.652,-0.329,-0.396,-0.312,-135.186,316.892,100.086
7240.0,-0.993,-0.067,-0.03,10.876,25.724,3.818,-1.006,0.115,0.096,-0.417,4.176,-2.154,-1.77,0.464,-0.124,149.453,484.285,-139.727,-0.545,-0.292,-0.137,-147.092,367.773,97.639
7260.0,-1.015,-0.062,-0.011,11.06,26.617,2.925,-1.017,0.088,0.082,-0.053,3.353,-1.683,-2.095,0.303,-0.157,138.509,471.166,-134.776,-0.846,-0.387,-0.061,-174.727,425.048,92.704
7280.0,-1.012,-0.014,-0.019,9.888,25.298,-0.144,-1.011,0.091,0.086,-0.037,2.977,-1.313,-2.319,0.591,-0.261,98.225,511.969,-140.908,-1.137,-0.702,-0.146,-144.149,428.241,108.276
7300.0,-1.009,-0.009,-0.005,9.7,25.346,-2.867,-1.018,0.094,0.09,-1.61,2.66,-1.19,-2.859,0.562,-0.392,50.341,509.616,-144.756,-1.373,-0.899,-0.115,-35.347,427.431,141.277
7320.0,-1.047,0.042,-0.013,10.008,19.077,-6.126,-1.023,0.072,0.075,0.683,1.458,-0.224,-3.209,0.625,-0.069,-1.041,502.259,-153.827,-1.572,-0.599,-0.088,65.191,422.274,166.694
7340.0,-1.052,0.112,-0.078,5.298,14.073,-7.196,-1.023,0.07,0.068,3.412,-1.001,1.131,-3.321,0.618,0.185,-68.43,506.533,-167.696,-1.636,-0.233,-0.272,102.512,433.581,161.127
7360.0,-0.951,0.133,-0.119,1.164,17.13,-4.406,-1.015,0.101,0.066,3.29,-2.908,1.734,-3.23,0.324,-0.042,-131.706,483.023,-159.799,-1.826,-0.03,-0.286,117.794,482.797,138.234
7380.0,-0.903,0.059,-0.096,-0.932,28.182,-0.911,-1.012,0.118,0.075,1.635,-3.651,1.446,-3.037,-0.071,-0.408,-108.895,424.283,-121.638,-2.434,0.256,-0.2,101.173,495.595,104.31
7400.0,-0.955,-0.002,-0.061,-1.072,37.772,0.718,-1.008,0.107,0.076,0.3,-4.204,0.86,-2.84,-0.284,-0.654,-36.132,341.289,-58.304,-2.868,0.522,-0.187,61.374,446.042,87.696
7420.0,-0.97,-0.016,-0.059,-0.571,41.615,-0.421,-1.011,0.094,0.074,1.17,-5.088,0.789,-2.61,-0.196,-0.644,44.569,269.661,-15.362,-2.927,0.636,-0.188,-5.307,429.598,67.226
7440.0,-0.976,-0.01,-0.062,-0.286,43.164,-5.91,-1.005,0.097,0.078,3.069,-6.215,0.67,-2.488,-0.058,-0.551,104.641,216.867,13.792,-3.072,0.539,-0.268,-39.833,400.623,50.519
7460.0,-1.039,0.006,-0.105,-1.951,36.243,-9.773,-1.015,0.102,0.097,3.246,-6.503,0.501,-2.347,0.085,-0.277,151.024,173.996,36.256,-3.152,0.249,-0.276,-42.465,337.774,46.71
7480.0,-1.091,0.03,-0.169,-7.546,20.032,-10.006,-1.03,0.101,0.1,1.128,-5.91,1.021,-2.16,0.216,0.032,179.25,151.07,56.262,-3.054,0.104,-0.181,-38.387,289.052,42.602
7500.0,-1.095,0.008,-0.256,-14.698,8.004,-9.242,-1.03,0.092,0.091,-0.27,-5.993,2.134,-2.033,0.23,0.168,200.799,140.565,72.997,-2.87,0.057,-0.155,-31.578,230.156,32.055
7520.0,-1.056,0.021,-0.307,-12.146,3.263,-6.86,-1.026,0.092,0.08,-0.078,-6.478,2.905,-1.867,0.226,0.229,218.914,132.564,81.555,-2.508,0.087,-0.143,-29.592,174.565,15.39
7540.0,-0.978,0.045,-0.289,-11.151,0.792,-4.995,-1.012,0.099,0.081,-0.401,-7.675,3.345,-1.626,0.344,0.271,221.713,126.127,79.801,-2.063,0.306,-0.096,-36.177,162.256,-9.615
7560.0,-0.919,0.043,-0.296,-12.39,-2.318,-3.456,-1.001,0.102,0.096,-1.078,-8.089,3.414,-1.469,0.52,0.328,208.488,120.636,60.613,-1.863,0.496,-0.0,-77.187,159.629,-42.494
7580.0,-0.902,0.007,-0.318,-13.634,-1.633,-3.996,-0.998,0.104,0.113,-1.482,-7.277,3.208,-1.331,0.726,0.386,151.405,115.554,25.625,-1.796,0.494,0.131,-131.406,154.134,-58.559
7600.0,-0.92,-0.002,-0.32,-13.79,-0.141,-2.209,-1.0,0.112,0.121,-2.608,-5.134,2.358,-1.263,0.801,0.412,86.263,95.711,-5.744,-1.72,0.2,0.238,-148.571,138.398,-54.543
7620.0,-0.979,-0.027,-0.31,-13.312,0.881,-1.278,-1.002,0.098,0.118,-2.754,-3.685,1.623,-1.169,0.792,0.432,24.575,77.828,-29.563,-1.607,-0.204,0.334,-131.269,113.694,-25.381
7640.0,-1.008,-0.046,-0.306,-10.665,1.488,-1.723,-0.999,0.095,0.113,-1.188,-2.799,0.976,-1.131,0.658,0.388,-32.249,61.833,-42.785,-1.472,-0.381,0.447,-82.918,100.514,10.862
7660.0,-1.012,-0.047,-0.31,-6.596,2.85,-3.237,-1.003,0.114,0.11,-1.042,-1.597,0.362,-1.084,0.543,0.391,-58.567,40.198,-45.504,-1.36,-0.384,0.498,-40.938,92.687,40.712
7680.0,-1.011,-0.032,-0.299,-3.861,4.229,-4.733,-1.006,0.106,0.11,-1.51,-0.62,0.28,-1.129,0.436,0.314,-79.22,-4.465,-45.628,-1.323,-0.259,0.496,-19.534,82.433,59.799
7700.0,-0.998,0.021,-0.264,-3.238,3.837,-4.954,-1.009,0.097,0.107,-1.396,-0.125,0.316,-1.099,0.347,0.279,-88.06,-39.06,-39.34,-1.32,-0.215,0.454,-6.787,60.842,69.848
7720.0,-0.971,0.038,-0.249,-3.737,2.417,-4.346,-1.015,0.092,0.103,-1.113,0.131,0.584,-1.05,0.26,0.199,-84.56,-65.94,-29.75,-1.206,-0.173,0.425,3.922,29.009,73.409
7740.0,-0.964,0.031,-0.246,-4.95,0.81,-3.432,-1.02,0.081,0.094,-0.106,-0.114,1.448,-1.055,0.233,0.122,-73.593,-95.667,-18.523,-1.116,-0.132,0.405,4.85,13.032,72.272
7760.0,-0.965,0.017,-0.257,-4.997,-1.938,-3.155,-1.017,0.084,0.089,0.917,-1.128,2.233,-1.064,0.277,0.117,-67.214,-116.893,-8.877,-1.094,-0.096,0.324,-3.165,0.288,60.856
7780.0,-0.97,0.01,-0.274,-2.957,-4.498,-3.449,-1.011,0.104,0.091,0.664,-1.975,2.332,-1.15,0.314,0.116,-69.552,-135.47,-5.489,-1.119,-0.198,0.264,1.038,-20.611,46.593
7800.0,-0.966,0.013,-0.278,-1.931,-6.305,-3.218,-1.011,0.106,0.099,-0.604,-2.279,2.073,-1.273,0.305,0.11,-69.726,-153.811,-0.764,-1.147,-0.361,0.196,28.411,-46.08,41.064
7820.0,-0.961,0.018,-0.288,-1.225,-8.024,-1.768,-1.015,0.106,0.102,-0.706,-2.31,2.14,-1.428,0.367,0.132,-70.973,-174.742,4.068,-1.149,-0.364,0.188,59.15,-67.105,34.103
7840.0,-0.974,0.021,-0.292,-0.12,-8.794,-0.474,-1.012,0.113,0.102,-1.167,-2.205,1.798,-1.699,0.579,0.238,-95.317,-169.068,0.472,-1.199,-0.324,0.175,76.51,-86.31,26.46
7860.0,-0.98,0.022,-0.276,-0.75,-9.659,0.371,-1.006,0.11,0.104,-1.932,-1.637,0.959,-2.171,0.542,0.225,-126.376,-179.174,-1.023,-1.229,-0.253,0.164,92.19,-107.31,21.35
7880.0,-0.951,-0.01,-0.251,0.644,-9.577,0.501,-0.999,0.106,0.11,-1.89,-0.632,-0.161,-2.424,0.429,0.138,-125.754,-197.872,7.595,-1.225,-0.128,0.164,83.754,-119.269,10.157
7900.0,-0.945,-0.02,-0.224,2.607,-8.727,1.093,-0.996,0.11,0.11,-1.915,0.821,-1.271,-2.652,0.329,-0.023,-111.642,-230.068,27.625,-1.299,-0.085,0.15,67.197,-127.377,-8.267
7920.0,-0.999,-0.016,-0.205,3.058,-12.364,3.122,-1.003,0.104,0.104,-1.698,1.697,-1.864,-2.974,0.22,-0.101,-73.858,-285.489,58.901,-1.377,-0.092,0.138,68.29,-137.246,-20.353
7940.0,-1.049,-0.037,-0.203,1.982,-21.585,3.911,-1.014,0.084,0.094,-0.159,1.959,-2.143,-3.309,0.235,-0.128,-36.176,-337.31,99.687,-1.589,-0.119,0.243,79.572,-158.731,-35.63
7960.0,-1.055,-0.083,-0.235,2.096,-28.829,2.119,-1.012,0.096,0.09,1.433,2.283,-2.282,-3.39,0.31,-0.242,-36.308,-401.394,132.494,-1.91,-0.057,0.357,67.657,-184.47,-51.515
7980.0,-1.059,-0.071,-0.223,1.489,-30.891,-0.096,-1.016,0.089,0.098,2.351,2.512,-2.328,-3.294,0.452,-0.255,-74.185,-460.516,135.061,-2.232,0.015,0.461,66.911,-214.558,-60.491
8000.0,-1.038,-0.004,-0.178,0.388,-33.012,-3.237,-1.019,0.094,0.091,2.796,1.652,-1.568,-3.193,0.504,-0.166,-128.201,-501.365,116.936,-2.715,0.168,0.486,81.194,-261.209,-57.233
8020.0,-1.03,0.077,-0.171,-0.227,-34.852,-3.813,-1.026,0.096,0.08,1.759,1.148,-0.42,-3.031,0.41,-0.08,-151.557,-518.046,98.14,-2.978,0.262,0.384,72.979,-317.893,-65.829
8040.0,-1.05,0.109,-0.141,-0.097,-36.119,-2.636,-1.033,0.087,0.082,0.792,-0.163,1.215,-2.713,0.405,-0.01,-151.729,-517.131,82.886,-3.337,0.396,0.395,94.76,-370.217,-53.618
8060.0,-1.078,0.087,-0.099,1.463,-35.516,1.15,-1.029,0.086,0.086,0.863,-1.062,2.565,-2.586,0.524,0.001,-147.243,-505.569,60.559,-3.582,0.729,0.424,74.141,-434.843,-51.434
8080.0,-1.062,0.032,-0.06,1.089,-34.18,4.904,-1.026,0.097,0.078,0.225,-2.256,3.484,-2.243,0.612,-0.088,-163.739,-504.347,27.322,-3.376,0.655,0.4,38.458,-460.386,-56.614
8100.0,-1.008,-0.021,-0.028,1.531,-31.744,6.358,-1.018,0.098,0.077,-0.655,-3.06,3.79,-1.882,0.526,-0.152,-159.759,-503.295,15.164,-3.134,0.353,0.142,43.215,-480.318,-44.109
8120.0,-0.976,-0.027,0.004,3.172,-29.65,6.161,-1.01,0.099,0.075,-0.98,-4.255,3.925,-1.505,0.482,-0.241,-149.455,-489.263,15.925,-2.877,0.222,0.108,58.493,-496.548,-17.682
8140.0,-0.973,-0.029,0.034,4.551,-29.558,5.76,-1.017,0.097,0.076,-0.798,-5.272,3.99,-1.277,0.521,-0.313,-88.102,-472.295,46.899,-2.483,0.09,0.024,51.157,-506.304,-1.693
8160.0,-0.989,-0.025,0.048,4.742,-30.22,5.67,-1.017,0.09,0.085,0.393,-6.089,4.0,-1.056,0.527,-0.143,-82.32,-458.01,64.05,-2.184,-0.015,-0.05,41.934,-507.872,-1.602
8180.0,-0.996,-0.02,0.042,5.312,-30.694,5.612,-1.022,0.091,0.088,1.419,-6.733,4.268,-0.627,0.54,-0.07,-96.482,-496.901,63.284,-2.01,-0.196,-0.005,24.072,-493.639,-7.475
8200.0,-0.991,-0.013,0.008,4.216,-29.479,5.341,-1.027,0.091,0.092,1.96,-7.42,4.2,-0.613,0.374,-0.125,-103.097,-397.562,60.49,-1.834,-0.42,-0.067,20.119,-479.294,-19.259
8220.0,-0.975,0.005,-0.025,1.045,-23.745,4.658,-1.012,0.1,0.095,1.33,-7.35,3.85,-0.342,0.245,-0.186,-88.401,-337.729,59.643,-1.476,-0.46,-0.321,27.214,-472.714,-28.802
8240.0,-0.97,0.041,-0.03,-0.344,-17.482,3.963,-1.008,0.111,0.095,0.98,-8.05,3.29,-0.271,0.13,-0.32,-67.107,-302.198,71.459,-1.083,-0.456,-0.354,33.376,-464.355,-40.292
8260.0,-0.965,0.07,-0.013,-0.953,-14.87,4.095,-0.997,0.11,0.096,0.706,-6.345,2.771,-0.157,0.156,-0.416,-65.027,-282.024,78.986,-0.995,-0.536,-0.071,57.911,-456.695,-52.44
8280.0,-0.945,0.072,-0.012,-2.746,-13.829,4.226,-0.989,0.106,0.089,0.839,-7.345,1.985,-0.016,0.311,-0.345,-91.908,-245.56,72.268,-0.812,-0.469,-0.019,69.223,-417.584,-56.152
8300.0,-0.942,0.066,-0.037,-5.583,-13.332,2.948,-0.99,0.105,0.091,0.387,-7.155,1.611,0.152,0.177,-0.279,-122.909,-207.841,61.524,-0.442,-0.364,-0.182,61.457,-320.978,-52.44
8320.0,-0.979,0.061,-0.042,-6.344,-13.053,1.508,-0.994,0.112,0.1,-1.151,-6.678,1.957,0.188,0.038,-0.361,-118.387,-171.846,62.665,-0.293,-0.266,-0.467,97.036,-274.914,-33.909
8340.0,-1.004,0.049,-0.032,-6.576,-14.262,0.574,-1.003,0.102,0.107,-1.609,-6.065,1.96,0.247,0.026,-0.425,-117.29,-149.484,68.574,-0.16,-0.106,-0.556,61.429,-240.244,-45.399
8360.0,-1.013,0.008,-0.049,-6.538,-14.319,-1.15,-1.006,0.108,0.129,-1.4,-4.34,1.26,0.378,-0.046,-0.441,-119.926,-141.383,69.909,-0.007,-0.204,-0.507,52.792,-225.32,-51.293
8380.0,-1.024,0.016,-0.059,-6.753,-11.599,-2.88,-1.011,0.103,0.136,-1.069,-2.169,0.637,0.714,-0.363,-0.478,-105.126,-97.655,81.15,0.204,-0.241,-0.357,79.015,-189.281,-50.785
8400.0,-1.028,0.031,-0.049,-4.936,-9.314,-5.215,-1.014,0.114,0.116,-1.469,-0.834,0.388,0.753,-0.469,-0.551,-42.888,-45.392,74.416,0.29,-0.23,-0.357,120.225,-138.839,-46.55
8420.0,-1.018,0.044,-0.036,-6.46,-9.44,-6.543,-1.005,0.116,0.115,-1.81,0.843,0.016,0.754,-0.372,-0.557,-28.252,-38.042,60.762,0.317,-0.039,-0.36,144.039,-126.577,-39.511
8440.0,-0.974,0.035,-0.06,-6.547,-7.146,-7.015,-0.989,0.107,0.106,-1.404,2.808,-1.024,0.815,-0.388,-0.496,-41.474,-30.845,51.189,0.472,0.233,-0.188,130.397,-113.193,-51.457
8460.0,-0.968,0.03,-0.064,-4.321,-4.429,-7.407,-0.993,0.102,0.109,0.029,3.696,-1.776,0.938,-0.475,-0.369,-59.262,-8.251,40.547,0.642,0.223,-0.172,104.304,-99.438,-55.643
8480.0,-0.995,0.042,-0.052,-3.084,-4.689,-7.029,-1.001,0.106,0.109,0.402,4.464,-2.365,0.967,-0.572,-0.281,-52.662,11.818,32.451,0.905,0.251,-0.23,121.167,-69.668,-43.125
8500.0,-0.985,0.046,-0.076,-1.266,-3.571,-5.224,-1.019,0.109,0.106,0.313,5.587,-2.75,1.017,-0.614,-0.207,-34.968,15.67,31.77,0.965,0.613,-0.299,142.994,-54.903,-20.768
8520.0,-0.992,0.044,-0.054,0.002,-2.031,-2.443,-1.023,0.098,0.091,-0.165,5.641,-2.587,1.153,-0.649,-0.075,-24.119,11.49,32.78,1.017,0.887,-0.335,81.79,-36.577,-14.683
8540.0,-1.051,0.05,-0.074,1.62,-2.135,0.534,-1.017,0.084,0.076,1.099,4.603,-1.626,1.114,-0.727,-0.025,3.682,9.1,28.818,1.172,0.911,-0.25,31.131,-5.822,-3.117
8560.0,-1.064,0.045,-0.045,2.671,-0.946,2.305,-1.016,0.089,0.073,2.182,3.127,-0.968,0.936,-0.661,0.004,33.238,0.91,18.44,1.126,0.666,-0.226,0.643,4.818,9.084
8580.0,-1.05,-0.026,-0.012,-0.221,-2.694,1.88,-1.022,0.091,0.077,2.392,2.086,-0.558,0.924,-0.551,0.074,29.241,-13.178,10.35,1.007,0.314,-0.195,15.197,3.65,34.206
8600.0,-1.012,-0.044,-0.007,0.361,-1.573,0.893,-1.027,0.085,0.078,2.641,0.605,0.419,0.923,-0.541,0.094,13.173,-16.921,4.299,1.13,0.501,-0.003,-0.996,-3.682,32.968
8620.0,-0.996,-0.045,-0.022,4.889,-3.241,-0.566,-1.028,0.088,0.065,2.751,-2.183,2.083,0.858,-0.517,0.097,-0.123,-15.51,0.812,1.168,0.234,0.134,-51.454,11.762,0.77
8640.0,-0.966,-0.01,-0.038,6.296,-0.732,-1.608,-1.018,0.093,0.065,2.973,-3.817,3.06,0.834,-0.532,0.094,-7.678,-7.141,0.978,1.149,0.038,0.094,-46.066,11.362,4.285
8660.0,-0.986,0.036,-0.021,6.091,0.59,-1.478,-1.018,0.077,0.074,3.771,-5.449,3.742,0.808,-0.553,0.068,-8.321,-1.952,3.217,1.184,0.191,0.183,-5.091,17.215,0.427
8680.0,-0.988,0.083,0.011,7.181,6.859,-1.234,-1.02,0.1,0.084,3.917,-6.556,4.298,0.755,-0.551,0.081,-5.778,1.688,5.732,1.14,0.299,0.32,12.738,17.92,-5.404
8700.0,-1.037,0.106,0.088,6.163,6.172,0.301,-1.018,0.118,0.096,1.825,-6.598,4.479,0.738,-0.534,0.123,0.738,7.193,7.143,1.101,0.479,0.361,26.987,18.203,-6.973
8720.0,-1.05,0.086,0.053,4.45,-2.65,0.936,-1.019,0.106,0.097,-0.407,-5.974,4.586,0.756,-0.545,0.116,8.969,10.721,8.224,0.942,0.616,0.408,-4.685,22.934,-16.814
8740.0,-1.009,0.051,-0.016,1.015,-1.147,1.048,-1.009,0.101,0.094,-0.795,-5.561,4.54,0.758,-0.57,0.084,11.023,13.777,7.602,0.792,0.228,0.576,-7.811,15.078,-20.329
8760.0,-0.997,0.04,-0.011,-0.733,1.6,0.442,-0.998,0.12,0.094,-1.49,-4.946,3.625,0.749,-0.557,0.053,5.519,16.098,2.683,0.753,0.251,0.527,11.382,-2.56,-20.179
8780.0,-0.99,0.038,-0.004,0.037,1.407,0.631,-1.004,0.122,0.098,-2.437,-4.36,2.939,0.734,-0.63,0.023,3.983,13.484,-3.144,0.793,0.477,0.413,28.384,-3.334,-17.16
8800.0,-0.99,0.025,-0.03,1.663,0.088,1.29,-1.011,0.113,0.096,-2.838,-3.69,2.245,0.783,-0.641,-0.03,17.166,16.448,-8.735,0.794,0.623,0.392,3.815,-7.488,-18.887
8820.0,-0.988,0.011,-0.057,1.54,1.26,1.96,-1.006,0.114,0.101,-3.007,-2.812,1.585,0.818,-0.546,-0.087,23.673,21.242,-15.305,0.804,0.606,0.325,-8.192,-4.228,-10.796
8840.0,-0.996,0.006,-0.058,2.17,4.69,1.89,-1.001,0.113,0.105,-3.183,-1.951,0.908,0.841,-0.485,-0.205,27.23,29.974,-21.377,0.796,0.543,0.205,-6.663,-4.582,2.139
8860.0,-1.001,0.016,-0.054,3.354,6.946,1.159,-1.0,0.116,0.105,-2.851,-0.658,0.139,0.821,-0.435,-0.35,27.73,44.562,-27.701,0.787,0.499,0.241,-10.17,-5.9,7.805
8880.0,-1.001,0.018,-0.045,3.128,10.179,0.416,-1.005,0.116,0.103,-2.789,0.364,-0.654,0.769,-0.447,-0.444,36.258,57.028,-29.891,0.753,0.324,0.276,-18.563,-10.808,8.04
8900.0,-1.023,0.009,-0.027,1.687,10.63,-0.494,-1.01,0.094,0.098,-1.534,0.547,-0.877,0.744,-0.429,-0.436,57.975,76.165,-25.973,0.756,0.317,0.204,-17.136,-14.339,8.783
8920.0,-1.041,0.006,-0.055,1.532,7.595,-1.819,-1.014,0.1,0.09,0.205,0.692,-0.484,0.688,-0.353,-0.388,77.401,102.092,-21.926,0.846,0.344,0.091,-19.408,-10.096,12.011
8940.0,-1.028,0.02,-0.098,5.39,8.61,-3.22,-1.016,0.102,0.09,0.84,0.56,-0.07,0.556,-0.249,-0.368,95.268,131.382,-22.037,0.914,0.604,-0.09,-17.498,2.982,21.361
8960.0,-1.029,0.08,-0.086,8.12,9.1,-0.98,-1.015,0.099,0.098,-0.07,0.49,0.35,0.391,-0.165,-0.356,108.78,158.13,-26.53,0.989,0.613,-0.377,-14.798,25.596,38.116
8980.0,-1.028,0.095,-0.055,5.53,9.17,1.47,-1.017,0.086,0.085,0.686,0.185,0.613,0.267,-0.12,-0.323,120.736,179.462,-32.735,0.986,0.666,-0.642,-32.013,67.101,53.745
9000.0,-1.013,0.083,-0.057,1.697,5.846,3.174,-1.013,0.104,0.081,1.524,-0.496,0.452,0.177,-0.14,-0.299,156.461,196.205,-35.618,0.821,0.591,-0.68,-61.753,94.996,67.424
9020.0,-0.984,0.061,-0.066,-16.742,5.826,2.585,-1.008,0.11,0.076,0.761,-1.033,0.059,0.103,-0.09,-0.347,184.998,214.591,-40.432,0.593,0.376,-0.617,-85.919,120.079,78.968
9040.0,-0.962,0.033,-0.046,-3.193,7.568,1.996,-1.001,0.102,0.086,0.632,-0.984,-0.336,0.02,-0.033,-0.358,223.179,240.331,-49.917,0.415,0.12,-0.456,-108.357,157.663,86.712
9060.0,-0.948,-0.005,-0.036,-3.686,10.078,0.825,-1.008,0.087,0.091,0.686,-1.036,-0.265,-0.188,0.05,-0.375,250.908,260.897,-66.368,0.287,-0.226,-0.453,-117.655,194.268,89.226
9080.0,-0.972,-0.003,-0.018,-2.17,12.482,-2.271,-1.017,0.105,0.088,-0.255,-0.915,-0.086,-0.263,0.198,-0.534,275.474,275.812,-93.189,0.186,-0.255,-0.423,-106.247,234.143,93.259
9100.0,-1.021,0.027,-0.013,2.361,10.258,-3.903,-1.016,0.092,0.084,-0.496,-0.794,0.217,-0.407,0.497,-0.247,273.136,332.06,-119.529,0.064,-0.171,-0.379,-110.404,275.879,90.088
9120.0,-1.02,0.037,-0.06,6.291,9.253,-4.255,-1.009,0.091,0.086,0.578,-0.715,0.677,-0.752,0.791,-0.169,254.378,356.684,-156.548,-0.071,-0.186,-0.359,-134.659,310.886,84.667
9140.0,-1.007,0.006,-0.054,5.476,15.724,-3.454,-1.01,0.101,0.088,1.017,-0.168,0.735,-0.831,0.722,-0.309,219.428,404.168,-187.491,-0.247,-0.29,-0.294,-151.715,344.639,84.01
9160.0,-0.985,-0.007,-0.008,3.678,18.738,-3.34,-1.016,0.096,0.083,-0.673,0.568,0.685,-1.039,0.762,-0.277,225.064,457.588,-189.95,-0.5,-0.355,-0.088,-160.451,393.993,84.331
9180.0,-0.965,0.008,-0.016,5.302,17.519,-4.604,-1.021,0.092,0.08,-1.241,0.498,1.092,-1.468,1.103,-0.044,224.397,533.709,-198.254,-0.668,-0.32,-0.079,-171.129,432.27,80.897
9200.0,-0.991,-0.005,-0.022,6.307,18.327,-4.246,-1.022,0.089,0.076,-0.95,0.039,1.884,-1.981,1.326,0.054,161.467,591.13,-219.321,-0.884,-0.167,-0.138,-205.757,448.883,66.671
9220.0,-1.009,-0.015,0.012,6.254,18.18,-3.829,-1.015,0.081,0.073,-0.267,-0.782,2.783,-2.187,0.941,-0.223,16.819,610.774,-224.015,-1.189,-0.853,-0.107,-209.433,473.305,61.914
9240.0,-1.003,0.014,-0.004,8.56,13.572,-5.222,-1.011,0.093,0.082,0.984,-1.509,3.03,-2.246,0.436,-0.561,-43.776,620.092,-202.479,-1.44,-1.158,-0.147,-100.528,477.225,101.637
9260.0,-1.002,0.047,-0.065,10.579,11.694,-7.369,-1.016,0.104,0.083,1.057,-1.282,2.717,-2.785,0.115,-0.867,-75.818,611.792,-151.934,-1.652,-0.754,0.229,17.82,448.697,150.635
9280.0,-1.011,0.077,-0.101,10.693,13.933,-7.737,-1.011,0.11,0.083,0.116,-0.246,2.299,-3.515,0.051,-0.806,-66.476,562.493,-86.821,-1.686,0.134,0.445,47.104,477.924,149.891
9300.0,-1.023,0.107,-0.112,7.868,20.421,-4.491,-1.006,0.117,0.081,-0.525,0.123,1.138,-3.946,-0.046,-0.373,-45.991,513.439,-51.681,-2.0,-0.163,0.047,48.168,466.469,127.334
9320.0,-1.01,0.065,-0.1,3.71,22.941,-2.601,-1.011,0.11,0.076,-0.704,0.324,0.044,-4.134,0.124,0.125,-35.473,460.478,-55.021,-2.243,-0.29,-0.075,91.925,474.641,118.991
9340.0,-1.003,0.021,-0.076,3.121,22.784,-3.071,-1.004,0.108,0.082,0.22,0.946,-0.715,-3.462,0.127,-0.011,-23.71,365.135,-60.056,-2.827,0.262,0.343,109.908,471.728,116.63
9360.0,-1.012,0.005,-0.067,3.331,19.822,-6.114,-1.016,0.108,0.072,-0.003,0.667,-1.2,-3.158,0.038,-0.387,0.948,259.629,-47.911,-3.024,0.427,0.61,42.187,429.758,103.523
9380.0,-0.994,0.04,-0.109,-2.476,17.112,-10.068,-1.017,0.095,0.07,0.475,0.241,-1.26,-2.404,-0.03,-0.45,31.979,157.634,-13.091,-2.901,0.369,0.389,1.296,425.533,99.737
9400.0,-0.991,0.106,-0.12,-10.747,13.347,-12.611,-1.016,0.104,0.064,-0.154,-1.018,-1.377,-1.963,-0.034,-0.263,62.65,105.56,23.8,-2.974,0.312,0.134,-13.984,398.593,96.876
9420.0,-1.013,0.138,-0.129,-22.815,5.831,-8.76,-1.018,0.109,0.074,-1.74,-1.606,-1.95,-1.705,0.049,-0.07,77.913,75.953,52.489,-2.861,0.291,0.015,-30.712,313.112,86.678
9440.0,-1.079,0.051,-0.182,-24.263,-1.182,-5.575,-1.027,0.105,0.077,-2.224,-1.96,-2.058,-1.65,0.009,0.054,95.989,48.348,83.963,-2.629,0.13,0.133,-37.568,256.795,70.395
9460.0,-1.109,-0.048,-0.201,-19.157,-4.422,-3.241,-1.029,0.088,0.063,-2.324,-3.129,-1.201,-1.596,-0.085,0.174,143.398,24.942,111.479,-2.578,-0.106,0.302,-13.453,176.864,51.58
9480.0,-1.078,-0.105,-0.191,-12.81,-7.0,-2.8,-1.02,0.078,0.061,-1.028,-4.331,0.121,-1.488,0.045,0.303,168.999,-2.663,129.473,-2.051,0.057,0.303,28.594,106.482,32.764
9500.0,-1.023,-0.103,-0.18,-7.844,-8.59,-4.475,-1.017,0.081,0.061,-0.797,-5.515,1.064,-1.151,0.259,0.446,200.125,10.302,129.419,-1.662,0.47,0.253,29.487,80.471,1.96
9520.0,-0.976,-0.062,-0.183,-4.03,-10.555,-5.694,-1.016,0.093,0.073,-1.66,-5.712,1.751,-1.101,0.362,0.424,214.169,25.978,115.78,-1.439,0.671,0.211,-29.226,74.988,-47.878
9540.0,-0.921,0.004,-0.234,-0.971,-10.255,-5.24,-1.016,0.095,0.081,-2.077,-5.412,2.1,-1.089,0.525,0.355,208.713,26.385,89.899,-1.381,0.523,0.157,-88.55,66.01,-77.35
9560.0,-0.922,0.079,-0.258,-0.106,-6.16,-3.326,-1.007,0.096,0.082,-2.448,-4.574,2.094,-1.013,0.754,0.329,160.364,20.928,55.649,-1.331,0.08,0.21,-108.5,46.41,-68.88
9580.0,-0.972,0.067,-0.248,-0.43,-2.628,-1.438,-1.01,0.095,0.077,-2.286,-4.223,1.803,-0.999,0.849,0.322,82.366,11.116,18.787,-1.323,-0.313,0.326,-85.05,23.38,-41.79
9600.0,-0.995,0.019,-0.238,-1.07,-0.655,-1.704,-1.007,0.091,0.086,-1.837,-3.563,1.649,-0.996,0.822,0.301,-0.369,-9.402,-10.345,-1.305,-0.322,0.564,-36.75,0.7,-15.4
9620.0,-1.004,-0.03,-0.219,-2.348,0.311,-2.326,-1.002,0.103,0.082,-1.14,-2.525,1.058,-0.994,0.69,0.248,-60.479,-28.678,-31.335,-1.206,-0.272,0.646,-19.409,-12.881,-1.128
9640.0,-0.992,-0.037,-0.199,-2.486,1.231,-2.506,-0.994,0.082,0.109,-0.136,-0.597,0.722,-1.006,0.56,0.203,-95.632,-43.758,-43.576,-1.031,-0.197,0.584,-0.719,-15.326,10.164
9660.0,-0.969,-0.02,-0.17,-1.182,1.994,-2.214,-1.006,0.102,0.105,1.948,1.855,0.1,-1.017,0.442,0.165,-113.877,-58.845,-47.328,-1.03,-0.033,0.466,4.024,-17.794,14.651
9680.0,-0.959,-0.012,-0.158,2.546,1.732,-1.428,-1.017,0.103,0.083,1.474,3.702,-0.47,-1.066,0.297,0.136,-116.562,-77.561,-45.464,-0.906,0.089,0.388,-6.637,-26.043,13.813
9700.0,-0.955,-0.019,-0.187,6.414,-0.229,-0.563,-1.025,0.079,0.059,1.605,3.066,-0.786,-1.135,0.21,0.141,-107.184,-88.753,-36.776,-0.814,0.029,0.328,-17.736,-14.207,7.996
9720.0,-0.947,-0.018,-0.2,8.778,-0.512,1.083,-1.007,0.08,0.058,3.035,1.401,-0.939,-1.267,0.188,0.177,-93.124,-94.239,-27.702,-0.905,-0.091,0.197,-12.945,-12.474,9.024
9740.0,-0.949,-0.018,-0.189,10.94,1.142,1.54,-1.007,0.083,0.074,3.625,2.269,-1.748,-1.612,0.199,0.359,-78.127,-96.769,-19.565,-0.983,-0.225,0.191,15.434,-22.802,15.664
9760.0,-0.971,-0.015,-0.18,13.212,1.092,1.471,-1.004,0.111,0.106,4.023,3.155,-3.739,-2.039,0.119,0.383,-69.186,-110.562,-11.313,-1.044,-0.251,0.209,48.821,-37.098,22.363
9780.0,-0.982,-0.003,-0.183,14.14,0.227,1.79,-1.021,0.114,0.073,3.092,3.616,-4.721,-2.346,0.053,0.299,-44.362,-133.68,5.574,-1.086,-0.226,0.207,78.076,-44.883,24.881
9800.0,-0.996,0.002,-0.18,14.337,0.996,2.062,-1.045,0.065,0.046,1.787,2.273,-2.499,-2.633,0.168,0.183,-29.176,-192.979,34.703,-1.272,-0.126,0.301,98.5,-54.95,20.238
9820.0,-1.098,0.006,-0.159,14.919,-1.457,2.046,-1.042,0.054,0.027,2.219,-1.127,1.393,-2.718,0.231,0.135,-33.284,-257.635,71.987,-1.496,0.023,0.421,97.162,-76.008,11.642
9840.0,-1.161,0.013,-0.124,12.642,-13.118,1.014,-1.036,0.065,0.033,2.114,-5.769,4.516,-2.812,0.097,0.045,-8.981,-320.917,111.063,-1.752,0.335,0.587,81.083,-110.879,6.194
9860.0,-1.161,0.051,-0.138,4.719,-20.751,-1.367,-1.04,0.075,0.038,1.448,-10.029,7.484,-2.979,0.299,0.08,11.167,-369.469,139.386,-1.795,0.627,0.506,23.369,-138.062,-10.437
9880.0,-1.126,0.074,-0.16,-0.563,-27.28,-1.747,-1.045,0.091,0.039,-0.72,-13.174,9.305,-3.015,0.55,0.112,1.019,-410.252,148.535,-2.023,0.496,0.499,-13.07,-166.719,-16.48
9900.0,-1.09,0.078,-0.165,0.011,-30.757,0.552,-1.024,0.093,0.049,-2.151,-15.645,10.688,-2.93,0.812,0.123,-59.817,-444.148,146.918,-2.285,0.408,0.612,-28.282,-209.039,-25.201
9920.0,-1.031,0.029,-0.121,1.708,-31.197,3.253,-1.02,0.12,0.07,-2.708,-16.267,10.492,-2.912,0.962,0.042,-108.36,-478.17,117.53,-2.51,0.411,0.796,-57.069,-260.632,-52.701
9940.0,-1.001,-0.01,-0.074,1.852,-30.897,4.397,-1.011,0.123,0.09,-5.145,-15.205,9.702,-2.546,0.859,0.089,-156.1,-491.96,88.69,-2.87,0.34,0.996,-88.8,-308.844,-89.935
9960.0,-1.004,-0.054,-0.048,2.618,-31.25,4.924,-1.003,0.12,0.101,-6.811,-13.742,8.692,-2.254,0.833,0.095,-165.55,-468.58,66.71,-3.075,0.155,0.922,-90.22,-351.135,-114.617
9980.0,-1.007,-0.064,-0.071,1.854,-31.204,3.012,-1.006,0.116,0.103,-6.236,-12.473,8.191,-2.056,0.957,0.087,-182.28,-455.56,39.55,-3.003,0.075,0.604,-63.142,-396.837,-113.4
10000.0,-1.003,-0.036,-0.048,2.02,-27.866,-1.903,-1.004,0.112,0.106,-5.974,-10.605,7.38,-1.917,0.971,0.086,-196.56,-447.51,16.73,-2.888,-0.068,0.503,-18.959,-430.074,-104.144
10020.0,-0.993,0.024,0.017,4.386,-27.027,-3.128,-1.005,0.095,0.102,-4.984,-9.893,6.545,-1.678,0.974,-0.027,-229.859,-445.764,5.221,-2.825,-0.169,0.521,10.24,-451.301,-102.236
10040.0,-0.996,0.048,0.059,4.242,-27.335,-0.792,-1.011,0.098,0.102,-2.753,-9.901,5.954,-1.423,0.653,-0.032,-227.567,-426.724,10.773,-2.584,-0.246,0.414,17.495,-455.729,-111.961
10060.0,-0.997,0.067,0.084,1.844,-26.496,2.349,-1.019,0.107,0.1,-1.96,-10.24,5.978,-1.398,0.74,0.015,-199.468,-404.172,11.128,-2.155,-0.402,0.166,25.302,-446.409,-118.533
10080.0,-1.001,0.032,0.087,1.554,-27.905,4.251,-1.025,0.105,0.098,-1.862,-10.661,6.727,-1.298,0.753,-0.069,-197.343,-412.216,6.528,-1.878,-0.53,0.089,56.899,-435.73,-115.329
10100.0,-0.99,0.024,0.079,2.73,-22.795,4.876,-1.026,0.089,0.097,-0.384,-11.738,7.369,-1.0,0.521,-0.257,-199.066,-432.48,0.729,-1.684,-0.73,0.093,109.643,-421.181,-88.952
10120.0,-1.011,0.03,0.11,2.461,-20.155,5.564,-1.016,0.087,0.103,1.191,-13.024,7.811,-0.555,0.179,-0.259,-144.648,-412.489,9.367,-1.541,-0.665,0.123,160.379,-403.864,-54.008
10140.0,-0.983,0.036,0.084,-0.621,-18.511,5.343,-0.993,0.118,0.119,2.276,-12.813,7.614,-0.37,0.094,-0.253,-90.585,-378.248,26.923,-1.307,-0.246,0.032,139.017,-398.619,-56.401
10160.0,-0.976,0.025,0.047,-1.61,-15.19,6.51,-0.988,0.152,0.127,3.049,-12.001,6.546,-0.512,0.32,-0.295,-68.958,-383.476,44.019,-1.101,-0.491,0.003,111.02,-386.271,-64.454
10180.0,-0.964,-0.006,0.006,-4.34,-10.5,5.6,-1.005,0.17,0.132,-1.31,-13.085,6.099,-0.358,0.423,-0.339,-95.06,-383.6,39.9,-0.966,-0.52,0.0,113.634,-378.359,-51.029
10200.0,-0.958,0.005,-0.022,-5.81,-4.27,3.78,-0.99,0.147,0.131,-3.191,-11.031,5.269,0.31,0.176,-0.273,-100.24,-349.3,33.74,-0.73,-0.246,0.013,122.244,-350.763,-40.63
10220.0,-0.974,0.019,0.009,-3.71,-0.07,1.75,-0.984,0.127,0.135,-3.843,-9.402,4.85,0.049,-0.126,-0.467,-70.172,-312.647,48.63,-0.637,-0.123,0.003,101.468,-330.767,-46.463
10240.0,-0.989,0.026,0.017,-0.259,-0.381,-0.368,-0.982,0.125,0.151,-3.774,-7.792,3.981,0.184,-0.149,-0.565,-8.985,-239.624,54.273,-0.746,-0.382,-0.262,129.629,-322.195,-44.616
10260.0,-0.978,0.039,-0.016,1.396,-1.637,-1.26,-0.995,0.134,0.154,-3.7,-5.683,3.214,0.216,0.057,-0.697,-45.831,-213.453,52.155,-0.69,-0.689,-0.272,185.808,-353.587,-7.906
10280.0,-0.978,0.041,-0.072,0.611,0.938,-1.463,-1.005,0.14,0.156,-3.553,-3.934,2.436,0.334,-0.128,-0.864,-97.33,-187.95,51.439,-0.354,-0.034,-0.392,201.918,-361.425,5.155
10300.0,-1.024,0.056,-0.061,-1.778,1.998,-0.97,-0.996,0.127,0.146,-3.311,-2.932,1.519,0.484,-0.204,-0.871,-103.147,-157.536,49.927,-0.048,0.369,-0.451,132.121,-368.823,-26.782
10320.0,-1.072,0.07,-0.025,-3.535,-1.117,-0.448,-0.99,0.136,0.151,-1.308,-1.267,0.465,0.757,-0.419,-0.907,-55.704,-109.624,44.939,0.352,0.071,-0.753,65.863,-268.199,-48.747
10340.0,-1.051,0.067,-0.027,-5.11,-3.898,-0.979,-0.987,0.138,0.148,-1.26,-0.062,-0.796,0.774,-0.408,-0.875,-26.612,-66.046,43.558,0.16,-0.19,-0.86,101.896,-226.859,-38.261
10360.0,-1.002,0.047,-0.062,-8.762,-4.529,-2.438,-0.99,0.14,0.144,-0.948,1.537,-1.793,0.99,-0.419,-0.762,-10.433,-19.691,40.121,0.437,0.179,-0.967,113.366,-222.444,-25.549
10380.0,-0.978,0.002,-0.07,-10.391,-4.55,-3.735,-0.991,0.136,0.147,-0.536,2.666,-2.762,1.001,-0.455,-0.704,-3.685,0.81,35.901,0.742,0.33,-0.777,73.71,-185.22,-34.23
10400.0,-0.969,-0.006,-0.059,-8.837,-4.803,-3.733,-0.985,0.138,0.146,-1.588,4.91,-3.998,0.986,-0.464,-0.654,-2.704,20.541,30.308,0.835,0.126,-0.919,66.382,-90.596,-36.977
10420.0,-0.975,-0.022,-0.028,-4.832,-4.762,-2.928,-1.007,0.139,0.139,-1.067,6.694,-5.004,1.043,-0.497,-0.553,1.848,45.516,25.688,0.856,0.256,-0.919,77.308,-62.288,-30.619
10440.0,-1.007,-0.022,-0.015,1.194,-8.326,-1.273,-1.028,0.117,0.112,-1.188,6.478,-4.67,1.064,-0.565,-0.367,19.284,61.016,24.373,1.063,0.386,-0.789,54.637,-18.156,-38.843
10460.0,-1.016,-0.012,-0.016,2.817,-11.977,0.002,-1.028,0.099,0.106,0.71,4.513,-3.077,1.053,-0.564,-0.152,24.025,62.475,22.491,1.061,0.359,-0.635,43.007,9.012,-33.18
10480.0,-1.006,-0.001,-0.022,2.813,-9.791,-0.092,-1.025,0.086,0.101,3.058,2.041,-1.846,1.043,-0.571,-0.007,18.663,61.819,20.051,1.055,0.48,-0.234,13.439,35.983,-26.546
10500.0,-1.008,0.027,-0.008,3.237,-5.434,-1.199,-1.023,0.094,0.098,5.487,-0.862,-0.114,0.993,-0.579,0.116,12.587,58.161,18.481,1.072,0.48,-0.03,14.67,36.6,-7.841
10520.0,-1.014,0.053,-0.004,3.311,-2.423,-1.803,-1.021,0.12,0.104,5.533,-2.857,1.218,0.889,-0.559,0.181,2.423,38.666,14.281,1.182,0.731,0.014,5.8,29.99,-9.297
10540.0,-1.013,0.056,0.003,3.304,1.491,-1.721,-1.023,0.116,0.11,4.829,-4.435,2.486,0.839,-0.612,0.184,-6.665,31.74,7.054,1.262,0.576,0.317,-21.759,11.957,-5.878
10560.0,-1.021,0.054,0.053,3.74,4.175,-0.926,-1.024,0.106,0.114,5.007,-4.885,3.382,0.803,-0.609,0.211,3.174,22.106,6.097,1.06,0.598,0.353,-24.864,2.892,1.175
10580.0,-1.029,0.043,0.064,3.76,3.062,0.384,-1.011,0.113,0.123,5.39,-4.44,3.505,0.779,-0.561,0.182,10.194,15.897,4.565,1.069,0.435,0.376,-41.765,-12.693,0.372
10600.0,-1.016,0.023,0.017,3.147,2.009,1.297,-0.996,0.153,0.129,3.432,-2.925,3.002,0.754,-0.532,0.157,21.981,10.058,-4.958,1.014,0.421,0.295,-43.397,-22.511,-1.412
10620.0,-0.985,0.018,-0.038,2.416,5.694,1.924,-0.996,0.151,0.131,0.835,-1.517,1.925,0.714,-0.443,0.019,11.624,2.227,-8.038,1.002,0.387,0.11,-42.21,-24.29,-5.88
10640.0,-0.986,0.03,-0.017,2.289,8.468,2.217,-0.989,0.145,0.132,-0.385,0.215,0.282,0.791,-0.424,-0.1,28.845,3.907,-10.243,0.992,0.394,0.049,-25.48,-27.23,-5.39
10660.0,-0.972,0.04,-0.008,1.903,11.063,2.111,-0.977,0.148,0.144,-0.413,2.937,-2.045,0.828,-0.453,-0.258,35.937,5.86,-13.572,0.924,0.397,0.016,-21.082,-11.842,-4.668
10680.0,-0.959,0.051,-0.014,1.673,12.332,1.83,-0.984,0.148,0.157,0.134,6.399,-4.561,0.861,-0.471,-0.416,58.805,20.509,-11.551,0.896,0.364,-0.038,-6.81,-2.076,-0.049
10700.0,-0.97,0.061,-0.036,1.445,12.334,2.072,-1.002,0.13,0.125,-1.445,8.185,-5.67,0.892,-0.422,-0.525,78.609,45.317,-11.282,0.899,0.402,-0.148,-10.364,12.473,-0.973
10720.0,-0.996,0.056,-0.053,-0.061,12.219,2.973,-1.01,0.111,0.12,-1.09,8.321,-5.797,0.906,-0.397,-0.668,94.463,78.576,-9.823,0.868,0.328,-0.188,-5.325,24.976,0.907
10740.0,-1.027,0.041,-0.061,0.14,13.16,3.29,-1.017,0.085,0.092,0.364,6.437,-5.516,0.933,-0.373,-0.734,108.64,108.64,-7.98,0.884,0.379,-0.266,1.961,36.243,3.625
10760.0,-1.049,0.022,-0.016,0.998,12.2,4.098,-1.016,0.092,0.082,2.079,4.191,-4.001,0.906,-0.279,-0.75,131.678,152.908,-6.794,0.92,0.419,-0.33,8.086,56.254,8.166
10780.0,-1.05,-0.001,-0.031,0.379,10.585,4.256,-1.043,0.095,0.081,4.076,0.992,-2.203,0.788,-0.238,-0.702,156.87,203.268,-5.719,0.941,0.38,-0.434,-1.298,85.823,14.101
10800.0,-1.061,-0.011,-0.043,-0.684,12.361,1.764,-1.043,0.076,0.068,4.76,-1.82,0.21,0.536,-0.068,-0.658,168.447,251.585,-5.461,0.964,0.411,-0.432,-15.174,112.452,16.816
10820.0,-1.081,0.031,-0.027,0.252,10.553,0.144,-1.045,0.087,0.072,4.27,-5.32,3.71,0.297,0.057,-0.605,160.037,284.331,-11.82,0.951,0.433,-0.395,-46.284,146.109,14.427
10840.0,-1.081,0.069,-0.015,0.979,8.606,-0.837,-1.037,0.11,0.08,3.5,-8.05,5.67,0.048,0.023,-0.503,158.97,309.553,-16.27,0.87,0.325,-0.401,-88.295,183.432,7.849
10860.0,-1.06,0.107,0.014,0.719,3.571,-0.5,-1.024,0.14,0.087,1.12,-9.45,5.88,-0.077,0.089,-0.405,163.973,339.471,-18.478,0.763,0.101,-0.424,-99.317,210.963,7.128
10880.0,-1.04,0.07,-0.039,-0.644,-3.552,-1.235,-1.013,0.116,0.102,0.112,-10.121,6.001,-0.313,0.319,-0.297,184.716,346.886,-30.195,0.587,0.024,-0.421,-103.264,235.201,7.468
10900.0,-0.983,0.038,-0.091,-2.29,-5.687,-2.358,-1.01,0.116,0.114,0.135,-9.371,6.087,-0.477,0.468,-0.223,187.58,357.795,-49.802,0.403,0.018,-0.387,-114.694,259.751,7.381
10920.0,-0.928,0.018,-0.116,-1.261,-3.007,-2.895,-0.984,0.117,0.129,-0.057,-7.801,5.156,-0.55,0.542,-0.218,174.899,386.198,-63.968,0.257,0.01,-0.375,-130.367,289.92,7.648
10940.0,-0.903,-0.007,-0.114,2.485,6.102,-3.007,-0.984,0.13,0.131,-1.157,-5.538,4.035,-0.672,0.572,-0.321,153.812,394.699,-72.339,0.102,0.004,-0.399,-147.368,322.096,8.05
10960.0,-0.926,-0.024,-0.037,6.37,13.44,-2.1,-0.998,0.109,0.129,-0.828,-3.724,3.212,-0.861,0.517,-0.39,144.573,392.138,-75.293,-0.116,-0.084,-0.418,-163.963,357.728,8.522
10980.0,-0.984,-0.05,0.012,9.94,13.58,-2.17,-0.996,0.105,0.122,0.695,-2.319,2.968,-1.074,0.553,-0.374,148.386,425.011,-78.638,-0.36,-0.292,-0.43,-165.846,373.74,15.111
11000.0,-0.989,-0.042,0.025,8.914,11.871,-3.203,-0.997,0.11,0.117,1.709,-1.747,2.88,-1.506,0.863,-0.257,138.499,468.778,-86.776,-0.54,-0.367,-0.413,-148.945,377.899,34.013
11020.0,-0.955,-0.007,-0.021,9.717,16.424,-3.885,-1.004,0.113,0.113,2.423,-1.274,2.92,-2.027,0.918,-0.024,80.471,484.694,-91.971,-0.647,-0.252,-0.203,-125.09,403.83,41.58
11040.0,-1.084,0.042,-0.008,9.763,21.729,-4.1,-1.007,0.121,0.111,2.766,-1.19,2.94,-2.179,0.767,-0.054,10.423,539.382,-94.911,-0.88,-0.394,-0.203,-138.04,454.23,33.04
11060.0,-1.076,0.045,0.068,7.495,20.19,-4.171,-1.008,0.129,0.108,2.747,-1.153,2.659,-2.31,0.509,-0.467,-26.389,584.992,-77.881,-1.254,-0.527,-0.265,-122.341,474.691,37.554
11080.0,-0.983,0.052,0.027,7.162,19.81,-5.445,-1.009,0.117,0.12,2.84,-0.945,2.376,-2.791,0.242,-0.829,-43.041,571.045,-45.287,-1.501,-0.461,-0.159,-101.418,456.938,43.125
11100.0,-1.001,0.105,0.014,5.963,21.277,-7.669,-1.012,0.117,0.121,2.87,-0.432,2.082,-3.251,0.037,-0.598,0.222,494.899,-11.774,-1.748,-0.239,-0.003,-74.2,451.15,52.22
11120.0,-1.061,0.144,-0.003,-2.651,20.792,-9.101,-1.009,0.129,0.107,2.581,-0.304,1.56,-3.378,0.0,-0.664,5.339,467.096,9.571,-1.835,-0.14,-0.07,-45.902,444.826,73.453
11140.0,-0.996,0.128,-0.027,-11.334,22.703,-9.24,-1.009,0.144,0.103,1.062,-0.56,0.932,-3.417,0.055,-0.494,26.11,423.29,27.3,-1.952,-0.126,-0.352,-35.98,466.48,77.56
11160.0,-0.964,0.087,-0.068,-11.958,25.739,-10.118,-1.015,0.147,0.103,-1.378,-0.87,0.29,-3.133,0.009,-0.377,57.96,378.07,35.07,-2.313,-0.228,-0.417,-7.565,478.395,68.032
11180.0,-0.959,0.076,-0.093,-9.636,32.342,-9.494,-1.009,0.134,0.104,-3.074,-0.709,-0.279,-3.073,0.345,-0.373,39.27,323.82,30.66,-2.9,-0.071,-0.531,20.956,453.05,91.354
11200.0,-0.947,0.044,-0.09,-10.471,39.271,-8.982,-0.997,0.114,0.116,-2.839,-0.054,-0.758,-2.894,0.328,-0.318,7.56,268.1,31.64,-2.986,0.146,-0.416,30.845,414.981,91.289
11220.0,-0.947,0.024,-0.107,-14.397,37.382,-9.879,-0.999,0.117,0.122,-2.426,0.891,-1.191,-2.698,0.193,-0.225,-11.371,212.954,37.28,-3.292,0.252,-0.193,30.315,386.622,81.812
11240.0,-0.97,0.02,-0.178,-17.777,31.352,-11.167,-1.011,0.134,0.105,-2.886,1.978,-1.453,-2.485,0.123,-0.119,-5.959,165.872,45.473,-3.324,0.238,0.024,27.907,336.653,69.804
11260.0,-1.078,0.017,-0.235,-18.2,24.969,-11.157,-1.011,0.127,0.103,-2.696,2.54,-1.717,-2.193,0.028,0.219,-2.841,134.173,56.595,-3.209,0.325,0.278,24.039,282.553,57.823
11280.0,-1.132,0.004,-0.238,-18.414,16.707,-9.492,-1.007,0.133,0.111,-3.136,3.539,-2.352,-1.968,-0.019,0.445,11.928,123.654,71.32,-2.903,0.511,0.442,2.302,222.762,41.386
11300.0,-1.128,-0.037,-0.238,-18.599,8.95,-8.855,-1.011,0.134,0.115,-3.023,4.576,-2.763,-1.747,-0.075,0.503,56.092,115.348,86.169,-2.394,0.471,0.411,-19.893,187.239,18.763
11320.0,-1.089,-0.059,-0.236,-17.444,3.684,-8.859,-1.028,0.125,0.1,-2.698,4.248,-2.772,-1.519,-0.059,0.509,99.392,102.787,94.831,-2.199,0.528,0.381,-51.423,170.922,-8.846
11340.0,-1.026,-0.045,-0.235,-11.597,0.915,-8.35,-1.019,0.077,0.087,-1.382,3.85,-1.753,-1.341,0.103,0.525,106.041,91.648,93.779,-2.131,0.411,0.406,-62.716,140.629,-25.296
11360.0,-0.94,-0.001,-0.245,-6.433,0.525,-5.713,-1.002,0.077,0.101,2.452,4.017,-1.782,-1.307,0.243,0.584,84.926,75.183,73.734,-1.898,0.178,0.527,-57.217,101.741,-34.387
11380.0,-0.897,-0.001,-0.256,-5.896,1.116,-4.018,-0.991,0.135,0.121,5.131,7.13,-4.827,-1.342,0.291,0.6,17.553,44.707,44.107,-1.702,0.113,0.603,-40.75,68.346,-34.044
11400.0,-0.89,-0.012,-0.272,-5.286,1.088,-2.752,-0.993,0.175,0.137,2.024,9.989,-7.342,-1.327,0.18,0.556,-22.942,7.659,27.012,-1.517,0.059,0.598,-24.93,42.82,-30.107
11420.0,-0.927,-0.024,-0.27,0.304,1.936,-1.333,-1.01,0.128,0.063,-0.77,9.38,-7.07,-1.292,-0.01,0.501,-24.79,-32.992,13.758,-1.322,-0.04,0.513,-6.096,20.644,-20.075
11440.0,-1.003,-0.023,-0.238,5.16,2.253,0.255,-1.037,0.045,0.05,0.91,6.02,-3.92,-1.301,-0.076,0.425,-19.837,-66.766,-1.652,-1.192,-0.004,0.419,14.437,-2.979,-8.226
11460.0,-1.041,-0.019,-0.213,8.756,0.152,0.904,-1.028,0.08,0.074,6.077,3.854,-3.014,-1.309,-0.078,0.305,-18.031,-100.175,-17.674,-1.043,0.032,0.437,12.009,-25.083,-4.37
11480.0,-1.022,-0.037,-0.217,10.929,-2.131,0.481,-1.012,0.129,0.066,3.15,4.48,-3.78,-1.309,0.013,0.214,-23.892,-152.62,-33.082,-0.921,0.006,0.469,15.575,-24.99,-2.542
11500.0,-0.978,-0.048,-0.238,12.749,-3.001,-0.14,-1.022,0.105,0.057,0.856,3.713,-3.978,-1.349,0.103,0.308,-21.947,-176.648,-40.808,-0.925,0.043,0.542,4.37,-22.66,-3.242
11520.0,-0.987,-0.042,-0.253,16.085,-5.371,-0.123,-1.031,0.074,0.059,1.866,1.194,-3.093,-1.605,0.195,0.44,-8.936,-187.473,-45.479,-0.996,0.061,0.62,-18.491,-30.566,-11.109
11540.0,-1.01,-0.035,-0.265,19.084,-8.585,-0.286,-1.022,0.079,0.048,3.067,-0.722,-1.066,-2.067,0.391,0.479,10.445,-219.655,-44.355,-1.07,-0.095,0.58,-21.492,-35.168,-17.972
11560.0,-1.009,-0.008,-0.255,21.147,-10.373,-1.133,-1.025,0.084,0.049,3.429,-3.454,0.875,-2.385,0.531,0.394,20.692,-269.309,-24.703,-1.2,-0.183,0.531,-17.447,-46.333,-18.542
11580.0,-0.992,0.027,-0.237,22.512,-11.193,0.663,-1.022,0.102,0.07,3.303,-5.478,3.197,-2.673,0.68,0.325,20.093,-295.145,9.26,-1.296,-0.215,0.533,-5.243,-71.094,-18.187
11600.0,-1.011,0.033,-0.193,20.483,-13.514,1.714,-1.023,0.092,0.059,1.135,-6.115,4.681,-2.981,0.813,0.434,6.773,-310.07,35.487,-1.352,-0.258,0.529,-1.553,-89.646,-20.76
11620.0,-1.026,0.015,-0.196,16.151,-17.323,1.442,-1.026,0.077,0.049,1.211,-7.964,6.487,-3.236,0.709,0.151,-27.171,-365.852,46.452,-1.634,-0.347,0.581,12.285,-110.461,-21.949
11640.0,-1.081,-0.002,-0.219,11.449,-22.45,1.275,-1.027,0.089,0.067,2.038,-11.512,8.296,-3.222,0.532,-0.001,-18.858,-397.378,77.876,-2.008,-0.362,0.706,43.75,-145.238,-21.812
11660.0,-1.129,-0.009,-0.184,7.749,-27.534,1.204,-1.031,0.123,0.063,1.249,-13.0,8.765,-3.209,0.653,-0.057,-27.059,-428.02,94.582,-2.317,-0.183,0.703,65.741,-190.891,-21.597
11680.0,-1.144,-0.001,-0.115,6.702,-32.75,1.468,-1.034,0.119,0.068,-1.589,-14.255,9.426,-3.282,0.824,-0.107,-73.78,-479.01,86.31,-2.54,0.07,0.69,62.942,-227.983,-38.97
11700.0,-1.143,0.001,-0.086,7.84,-38.22,3.43,-1.032,0.118,0.082,-1.89,-15.352,10.645,-3.022,0.806,-0.163,-122.788,-498.155,73.492,-2.805,0.138,0.712,42.48,-265.357,-65.477
11720.0,-1.053,0.004,-0.085,9.66,-41.44,5.18,-1.025,0.116,0.078,-2.741,-16.448,11.731,-2.912,0.68,-0.2,-150.113,-507.112,54.181,-3.249,0.216,0.62,48.367,-326.21,-80.052
11740.0,-0.962,0.011,-0.08,8.12,-33.81,6.02,-1.017,0.122,0.085,-4.06,-17.431,12.025,-2.63,0.535,-0.224,-129.372,-508.127,51.803,-3.282,0.384,0.417,5.07,-381.251,-105.234
11760.0,-0.977,0.023,-0.006,5.18,-29.75,6.16,-1.025,0.141,0.09,-6.969,-18.692,11.557,-2.324,0.807,-0.301,-133.088,-498.555,47.583,-3.185,0.041,0.341,-0.795,-419.823,-113.097
11780.0,-1.0,0.04,0.034,3.054,-28.85,4.755,-1.023,0.119,0.091,-8.166,-18.852,11.416,-2.067,0.718,-0.319,-143.442,-482.902,47.393,-3.166,-0.125,0.258,28.453,-440.06,-109.499
11800.0,-1.003,0.057,0.055,1.75,-27.79,3.99,-1.002,0.105,0.121,-6.123,-18.122,10.967,-1.721,0.648,-0.376,-156.683,-479.091,49.904,-3.081,-0.199,0.142,63.56,-466.97,-83.02
11820.0,-1.013,0.053,0.087,-1.221,-27.919,6.597,-1.004,0.141,0.137,-3.362,-17.387,9.22,-1.365,0.481,-0.328,-151.454,-461.106,56.451,-2.794,-0.175,0.061,77.7,-485.45,-69.79
11840.0,-0.99,0.01,0.085,-3.28,-29.596,8.17,-1.002,0.164,0.137,-5.88,-16.352,7.149,-1.103,0.52,-0.298,-154.468,-449.268,52.785,-2.348,-0.2,-0.169,86.52,-483.28,-60.9
11860.0,-0.961,0.006,0.062,-4.034,-28.164,7.682,-0.989,0.156,0.143,-8.244,-14.331,6.385,-0.794,0.338,-0.212,-149.573,-434.476,42.6,-1.982,-0.207,-0.321,80.29,-471.24,-63.35
11880.0,-0.942,0.017,0.077,-2.1,-27.37,8.33,-0.982,0.125,0.142,-6.842,-13.057,5.54,-0.608,0.289,-0.253,-153.203,-419.859,35.982,-1.568,-0.21,-0.19,76.65,-450.59,-64.89
11900.0,-0.904,-0.01,0.049,0.21,-26.11,7.14,-0.977,0.128,0.156,-4.547,-10.795,3.857,-0.65,0.056,-0.315,-149.1,-441.409,35.933,-1.396,-0.12,-0.036,46.11,-424.183,-83.888
11920.0,-0.912,-0.005,0.002,0.955,-20.731,6.18,-0.982,0.141,0.173,-2.328,-8.318,2.043,-0.187,-0.152,-0.283,-127.111,-375.63,49.737,-1.16,-0.238,-0.224,49.479,-401.374,-105.529
11940.0,-0.981,0.016,-0.001,1.96,-15.61,5.18,-0.993,0.156,0.174,-1.841,-5.697,0.668,-0.056,0.16,-0.007,-66.135,-307.559,66.694,-0.84,-0.356,-0.345,30.307,-373.893,-114.062
11960.0,-0.994,0.053,0.003,1.395,-14.115,4.845,-0.99,0.154,0.159,-2.914,-3.162,-0.525,-0.011,0.276,-0.021,-83.343,-258.503,60.514,-0.523,-0.388,-0.236,81.623,-336.348,-92.091
11980.0,-0.973,0.062,-0.031,-3.81,-11.155,3.702,-0.988,0.142,0.151,-3.041,-1.214,-1.773,0.051,0.246,-0.228,-147.719,-230.193,51.709,-0.484,-0.51,-0.109,137.704,-301.339,-64.338
12000.0,-0.971,0.052,-0.051,-7.14,-5.6,2.38,-0.991,0.129,0.155,-2.524,0.705,-3.124,0.132,0.135,-0.448,-170.032,-242.857,41.468,-0.408,-0.223,-0.027,204.194,-301.2,-30.2
12020.0,-0.996,0.067,-0.026,-7.63,-1.54,0.49,-0.993,0.126,0.151,-1.161,2.045,-3.552,0.43,-0.084,-0.481,-151.206,-208.411,36.711,-0.213,0.0,-0.062,203.008,-283.758,-17.321
12040.0,-1.01,0.058,-0.007,-9.38,-4.69,-0.21,-0.995,0.137,0.149,-0.48,3.492,-3.768,0.583,-0.161,-0.493,-104.044,-112.67,39.189,-0.009,-0.011,-0.142,179.462,-279.624,-14.389
12060.0,-0.981,0.039,-0.038,-10.64,-1.96,-3.43,-0.99,0.136,0.154,-2.096,5.697,-4.549,0.562,-0.169,-0.665,-97.105,-99.343,42.621,0.025,0.031,-0.096,147.69,-242.862,-17.808
12080.0,-1.0,0.044,-0.018,-9.992,2.798,-6.525,-0.994,0.129,0.151,-1.807,7.215,-5.504,0.666,-0.258,-0.762,-93.571,-87.083,44.431,0.006,0.044,-0.093,108.011,-235.448,-31.55
12100.0,-1.039,0.031,0.012,-10.971,-1.58,-7.588,-1.007,0.128,0.13,-0.707,7.157,-5.551,0.869,-0.407,-0.778,-64.744,-57.204,36.468,0.179,-0.155,-0.193,80.225,-192.034,-38.419
12120.0,-1.039,0.0,0.002,-12.376,-8.256,-6.933,-1.004,0.124,0.121,-0.192,6.762,-5.57,0.97,-0.499,-0.729,-41.146,-14.057,24.176,0.395,-0.23,-0.53,155.353,-196.156,-0.91
12140.0,-1.04,-0.012,-0.035,-8.391,-13.337,-4.579,-1.001,0.107,0.124,0.428,6.751,-5.442,0.971,-0.523,-0.75,-32.753,9.951,16.652,0.599,0.045,-0.564,172.33,-174.991,5.436
12160.0,-1.029,-0.015,-0.068,-2.533,-13.043,-3.214,-1.006,0.102,0.138,1.045,7.665,-5.225,0.968,-0.547,-0.712,-25.329,18.508,14.147,0.668,0.226,-0.553,122.211,-120.152,-15.07
12180.0,-1.011,-0.007,-0.085,-1.543,-10.726,-1.549,-1.012,0.128,0.139,0.781,9.039,-5.337,0.973,-0.546,-0.437,10.107,33.219,11.711,0.742,0.059,-0.748,102.585,-114.695,-15.4
12200.0,-1.023,-0.02,-0.076,-2.721,-11.544,-2.252,-1.026,0.119,0.105,-0.66,8.284,-4.684,0.898,-0.312,-0.228,26.057,39.957,13.19,1.144,0.339,-0.749,119.682,-119.371,-10.491
12220.0,-1.023,0.004,-0.067,-2.299,-11.43,-4.916,-1.023,0.091,0.092,0.005,6.993,-3.812,0.965,-0.296,-0.134,14.353,41.035,16.839,1.381,0.682,-0.677,85.783,-63.182,-15.276
12240.0,-1.002,0.055,-0.052,0.205,-8.02,-5.918,-1.006,0.088,0.103,4.381,6.114,-3.517,0.907,-0.351,-0.102,31.567,36.529,22.587,1.363,0.684,-0.634,21.538,17.074,-10.37
12260.0,-0.997,0.028,0.022,0.204,-5.016,-4.482,-1.024,0.114,0.102,4.324,5.187,-2.634,0.848,-0.375,0.02,21.77,26.88,18.34,1.283,0.671,-0.484,7.047,35.925,3.014
12280.0,-0.98,-0.013,0.021,0.772,-5.33,-2.81,-1.009,0.093,0.09,2.179,5.244,-1.847,0.841,-0.496,0.119,28.404,28.348,16.427,1.098,0.495,-0.049,-38.27,37.833,-0.299
12300.0,-0.969,-0.017,0.001,2.974,-4.863,-2.103,-1.002,0.086,0.102,2.562,5.048,-1.198,0.822,-0.52,0.137,33.306,26.083,13.6,0.974,0.086,0.212,-25.262,23.525,4.916
12320.0,-0.972,0.004,0.002,5.915,-1.448,-1.332,-1.015,0.095,0.104,3.842,4.91,-1.125,0.803,-0.576,0.136,34.084,20.921,9.404,0.972,0.088,0.351,3.47,11.553,9.119
12340.0,-0.996,0.025,0.027,9.689,2.198,0.209,-1.012,0.109,0.085,2.8,4.45,-0.892,0.805,-0.573,0.066,25.517,13.403,-16.361,0.982,0.357,0.339,-7.793,7.656,-2.988
12360.0,-1.015,0.025,0.057,11.896,2.937,1.108,-1.005,0.104,0.082,2.8,3.71,-0.35,0.846,-0.67,0.015,25.411,13.027,-9.981,0.913,0.38,0.199,-21.419,-2.009,-6.72
12380.0,-1.001,0.011,0.036,11.143,2.135,0.733,-1.001,0.115,0.097,2.389,3.35,-0.483,0.857,-0.657,0.005,37.284,20.637,-14.192,0.881,0.388,0.204,-23.283,-8.574,-6.583
12400.0,-0.999,0.016,-0.007,7.32,2.969,-0.201,-1.02,0.109,0.09,1.718,2.888,-0.379,0.869,-0.61,-0.048,36.194,34.675,-23.768,0.93,0.418,0.237,-40.564,-6.782,-7.363
12420.0,-1.007,0.029,-0.013,4.383,5.622,-0.722,-1.033,0.103,0.077,1.73,1.951,0.442,0.898,-0.629,-0.212,36.186,51.955,-34.296,0.936,0.43,0.103,-40.526,-0.375,-4.771
12440.0,-1.013,0.031,-0.001,3.853,8.177,-0.823,-1.025,0.096,0.062,1.698,0.331,1.569,0.949,-0.584,-0.416,45.038,70.942,-41.14,0.984,0.458,0.028,-34.418,3.886,-1.969
12460.0,-1.026,0.024,0.008,5.444,9.579,-0.594,-1.019,0.103,0.063,1.1,-1.361,2.995,0.943,-0.483,-0.478,49.91,98.122,-40.043,0.995,0.461,0.026,-32.725,10.331,1.73
12480.0,-1.057,0.01,0.02,8.029,8.663,0.105,-1.019,0.096,0.07,0.788,-3.157,4.344,0.91,-0.354,-0.392,57.875,136.578,-37.817,0.992,0.583,0.078,-52.855,25.069,5.185
12500.0,-1.072,-0.005,0.015,9.87,5.39,0.7,-1.022,0.098,0.084,1.814,-4.572,5.418,0.835,-0.282,-0.434,72.717,176.48,-34.004,0.962,0.532,0.058,-49.895,39.362,10.399
12520.0,-1.071,0.012,-0.005,10.777,-0.672,0.229,-1.025,0.105,0.085,1.868,-4.975,5.954,0.667,-0.194,-0.5,91.266,219.061,-26.554,0.965,0.477,-0.089,-48.089,50.676,21.143
12540.0,-1.043,0.069,-0.036,9.939,-1.607,-0.069,-1.021,0.108,0.078,1.201,-5.547,6.21,0.484,-0.051,-0.465,103.282,248.561,-20.927,1.04,0.42,-0.281,-39.626,68.581,31.593
12560.0,-1.012,0.104,-0.061,7.152,1.025,0.122,-1.01,0.12,0.081,0.92,-5.735,5.852,0.35,0.05,-0.359,110.108,270.748,-17.153,1.038,0.262,-0.454,-47.117,103.51,35.458
12580.0,-1.01,0.079,-0.033,4.025,2.305,1.424,-1.004,0.122,0.087,1.087,-5.473,5.066,0.197,0.12,-0.358,112.277,297.842,-14.65,0.913,0.276,-0.483,-56.91,131.81,36.82
12600.0,-1.0,0.032,-0.022,2.428,2.265,1.933,-0.996,0.118,0.1,1.092,-4.438,4.013,0.002,0.257,-0.348,102.469,321.234,-14.431,0.798,0.224,-0.427,-93.295,183.329,25.667
12620.0,-0.979,0.002,-0.019,-0.119,3.279,1.033,-0.991,0.127,0.103,0.694,-2.98,2.488,-0.172,0.31,-0.2,82.861,343.352,-14.826,0.704,-0.107,-0.505,-109.296,226.845,18.325
12640.0,-0.964,-0.005,-0.01,-2.511,5.659,-0.554,-0.999,0.128,0.101,0.221,-1.794,1.184,-0.472,0.32,-0.089,83.447,371.544,-13.812,0.444,-0.472,-0.523,-69.291,260.947,39.837
12660.0,-1.002,0.002,0.029,-2.463,2.556,-2.023,-1.01,0.112,0.094,0.275,-1.37,1.025,-0.663,0.51,0.07,91.523,379.028,-12.417,0.17,-0.078,-0.265,-43.787,280.778,40.179
12680.0,-1.008,0.018,-0.023,0.56,-1.4,-3.5,-1.014,0.108,0.085,1.118,-1.779,1.291,-0.838,0.592,0.147,58.071,417.865,-9.525,-0.02,-0.159,-0.225,-64.283,311.007,23.921
12700.0,-1.017,0.02,-0.018,6.377,1.978,-2.656,-1.012,0.115,0.091,1.588,-1.813,1.14,-1.001,0.467,-0.004,33.606,450.153,-2.409,-0.17,-0.261,-0.177,-63.511,336.725,15.906
12720.0,-1.015,-0.008,0.041,11.22,3.644,-0.274,-1.011,0.12,0.093,1.311,-0.856,0.664,-1.327,0.207,0.22,16.362,406.951,12.228,-0.345,-0.201,-0.113,-64.465,360.848,7.953
12740.0,-0.968,-0.027,0.08,12.277,5.068,-0.211,-1.012,0.115,0.089,0.9,-0.228,0.638,-1.41,-0.003,0.582,71.805,392.394,41.658,-0.619,-0.514,0.059,-52.204,392.514,3.112
12760.0,-0.955,-0.021,0.057,14.052,5.052,-2.085,-1.013,0.104,0.081,1.021,-0.176,0.875,-1.639,0.404,0.484,65.151,377.836,40.748,-0.99,-0.742,0.213,5.529,402.276,5.237
12780.0,-0.97,-0.0,0.031,15.086,6.92,-2.617,-1.006,0.118,0.074,1.5,-0.266,0.644,-1.707,0.27,0.183,71.506,334.479,41.711,-1.179,-0.464,0.361,73.022,380.739,6.613
12800.0,-0.965,0.036,0.018,15.46,13.143,-4.212,-1.006,0.125,0.09,1.216,0.054,0.391,-1.619,0.257,0.154,80.141,322.28,39.573,-1.202,-0.049,0.48,99.942,361.38,-23.843
12820.0,-0.999,0.093,0.016,12.14,20.008,-6.479,-1.013,0.116,0.09,1.279,0.484,0.436,-1.749,0.119,0.068,85.585,322.28,36.882,-1.022,0.171,0.3,77.045,373.651,-55.664
12840.0,-1.017,0.111,0.031,5.217,26.532,-7.562,-1.013,0.112,0.073,0.94,0.526,0.766,-1.98,0.151,0.024,106.42,317.358,31.293,-1.012,0.389,0.071,23.205,399.872,-79.713
12860.0,-1.033,0.114,0.056,0.344,29.372,-6.639,-1.001,0.112,0.069,0.614,-0.413,0.709,-2.197,0.2,0.124,119.653,301.248,23.258,-1.623,0.288,0.18,1.523,379.065,-78.733
12880.0,-1.091,0.1,0.077,-1.77,26.598,-4.332,-1.019,0.112,0.071,0.026,-1.486,1.072,-2.368,0.23,0.188,111.869,295.716,7.513,-1.659,0.461,0.405,-6.977,347.133,-68.061
12900.0,-1.106,0.051,0.059,-5.406,15.857,-2.764,-1.029,0.106,0.068,0.404,-3.361,1.961,-2.43,0.237,0.261,103.057,278.191,-6.216,-1.589,0.393,0.266,-36.497,356.684,-58.696
12920.0,-1.03,-0.003,-0.024,-12.332,12.312,-2.588,-1.017,0.118,0.067,-0.24,-4.671,2.251,-2.384,0.216,0.338,100.595,252.765,-12.527,-1.667,0.27,0.077,-60.946,371.913,-48.464
12940.0,-0.989,-0.024,-0.067,-13.366,16.409,-3.826,-1.021,0.123,0.065,-1.888,-6.753,2.326,-2.215,0.143,0.223,113.65,239.002,-12.66,-1.9,0.117,0.056,-54.839,365.158,-30.177
12960.0,-1.018,-0.011,-0.07,-7.063,16.241,-3.573,-1.017,0.13,0.082,-3.05,-7.139,2.449,-2.131,0.136,0.126,140.811,225.036,-8.432,-2.1,0.14,0.065,-42.754,373.456,-13.143
12980.0,-0.998,-0.005,-0.105,0.694,16.194,-2.429,-1.008,0.125,0.091,-3.43,-6.51,2.17,-2.029,0.247,0.209,151.701,213.081,2.23,-2.403,0.205,0.092,-42.002,374.633,4.849
13000.0,-0.959,0.001,-0.124,2.48,20.384,-2.527,-0.996,0.121,0.092,-4.27,-5.04,1.05,-2.013,0.459,0.432,143.569,208.873,3.733,-2.636,0.302,0.272,-79.497,369.961,3.166
13020.0,-0.967,0.009,-0.086,0.776,20.33,-5.319,-0.998,0.11,0.088,-3.748,-4.103,-0.14,-2.062,0.753,0.656,86.635,203.113,-7.12,-2.723,0.215,0.409,-45.846,276.378,18.299
13040.0,-0.986,0.03,-0.065,-0.745,14.281,-6.909,-0.998,0.108,0.096,-2.17,-3.15,-1.05,-1.976,0.739,0.672,-11.647,181.484,-10.456,-2.393,0.18,0.432,-40.088,248.701,17.391
13060.0,-0.99,0.074,-0.104,-0.817,4.95,-4.806,-0.99,0.116,0.111,-0.56,-1.4,-1.96,-1.744,0.348,0.649,-60.437,152.462,-3.773,-2.248,0.223,0.234,-44.998,224.604,13.42
13080.0,-0.994,0.07,-0.162,-2.56,0.111,-1.186,-0.994,0.117,0.125,-0.505,2.189,-3.353,-1.563,0.041,0.617,-55.588,139.002,14.546,-2.271,0.333,0.209,-55.51,176.68,5.11
13100.0,-1.008,0.05,-0.181,-5.843,1.211,1.344,-1.004,0.109,0.116,0.697,5.802,-4.096,-1.526,-0.036,0.531,-25.264,111.746,32.579,-2.006,0.323,0.33,-67.528,139.104,-12.418
13120.0,-1.028,0.01,-0.18,-5.056,4.841,1.902,-1.011,0.11,0.092,1.222,6.758,-4.022,-1.48,-0.072,0.469,6.12,80.406,36.729,-1.867,0.266,0.354,-71.802,116.204,-31.265
13140.0,-1.028,-0.067,-0.184,-1.373,7.324,1.267,-1.021,0.093,0.068,2.568,5.446,-3.894,-1.373,-0.032,0.438,16.633,49.414,35.273,-1.683,0.256,0.391,-84.422,89.442,-51.536
13160.0,-1.004,-0.082,-0.18,0.637,9.46,-0.117,-1.027,0.09,0.053,3.802,2.676,-1.966,-1.291,0.02,0.418,19.419,15.094,31.554,-1.558,0.17,0.457,-80.006,69.736,-60.441
13180.0,-1.019,-0.06,-0.15,1.633,9.994,-2.514,-1.025,0.093,0.052,4.055,-0.34,-0.328,-1.219,0.038,0.378,27.372,-16.696,28.537,-1.552,0.176,0.587,-60.602,38.804,-54.171
13200.0,-1.056,-0.002,-0.125,2.47,6.103,-2.353,-1.017,0.112,0.058,2.757,-2.301,0.762,-1.139,0.082,0.328,39.117,-53.11,26.163,-1.385,0.25,0.583,-61.464,2.058,-54.807
13220.0,-1.067,0.029,-0.124,3.479,0.254,-1.106,-1.021,0.112,0.072,1.234,-3.483,1.431,-1.066,0.167,0.329,41.228,-74.078,22.109,-1.159,0.162,0.517,-77.317,-11.435,-55.369
13240.0,-1.047,0.035,-0.146,4.085,-2.951,-0.599,-1.028,0.102,0.065,-0.094,-4.561,2.668,-1.078,0.235,0.341,39.001,-85.591,16.44,-1.077,0.013,0.476,-73.324,-21.351,-45.38
13260.0,-1.018,0.017,-0.15,4.732,-3.949,0.054,-1.025,0.094,0.064,-0.223,-6.633,3.922,-1.152,0.302,0.355,32.384,-96.027,9.988,-0.998,-0.068,0.489,-55.151,-29.748,-31.573
13280.0,-0.991,-0.005,-0.158,5.168,-3.209,0.114,-1.013,0.106,0.076,-0.846,-7.309,4.551,-1.256,0.422,0.368,16.123,-111.103,3.632,-0.973,-0.106,0.505,-42.718,-31.336,-19.592
13300.0,-0.971,-0.005,-0.165,5.05,-2.969,-0.487,-1.007,0.111,0.081,-2.094,-7.284,4.38,-1.395,0.525,0.358,-11.309,-132.808,-0.576,-0.989,-0.159,0.493,-26.814,-37.314,-8.952
13320.0,-0.96,0.013,-0.165,5.199,-3.118,-0.7,-1.003,0.107,0.087,-2.24,-6.759,3.952,-1.541,0.538,0.427,-35.443,-154.33,1.339,-1.019,-0.17,0.432,-5.867,-42.587,-0.619
13340.0,-0.953,0.022,-0.164,6.54,-3.527,-0.686,-1.004,0.106,0.098,-1.806,-5.666,3.423,-1.692,0.507,0.562,-43.036,-179.657,15.171,-1.05,-0.166,0.362,10.856,-48.3,5.617
13360.0,-0.958,0.016,-0.165,7.282,-3.424,-0.661,-1.003,0.114,0.109,-0.328,-3.374,2.684,-1.916,0.376,0.624,-37.066,-207.834,38.362,-1.1,-0.174,0.321,24.592,-53.254,8.934
13380.0,-0.983,-0.006,-0.137,5.395,-5.653,-1.641,-1.002,0.114,0.107,0.67,0.016,1.758,-2.104,0.345,0.699,-17.663,-237.525,71.49,-1.216,-0.163,0.348,46.335,-61.846,9.206
13400.0,-0.991,-0.004,-0.118,3.5,-9.8,-3.15,-1.001,0.108,0.1,1.248,1.778,0.646,-2.258,0.366,0.757,3.592,-271.438,106.082,-1.391,-0.059,0.329,46.298,-81.471,3.108
13420.0,-0.989,0.032,-0.109,3.499,-11.866,-4.116,-1.009,0.108,0.079,1.619,1.659,0.475,-2.321,0.552,0.751,17.226,-322.183,133.353,-1.49,-0.107,0.342,37.33,-101.844,-10.462
13440.0,-1.053,0.01,-0.13,3.099,-14.128,-5.064,-1.022,0.098,0.068,2.303,-0.042,1.273,-2.32,0.627,0.84,13.743,-344.509,149.394,-1.709,-0.063,0.542,39.678,-132.525,-18.153
13460.0,-1.106,0.027,-0.158,-1.151,-16.859,-3.879,-1.024,0.093,0.068,3.209,-2.174,3.046,-2.407,0.996,0.978,-29.965,-346.603,145.33,-1.989,0.031,0.703,39.274,-167.443,-27.212
13480.0,-1.116,0.016,-0.154,-4.497,-15.096,-3.546,-1.024,0.117,0.066,2.908,-3.55,4.491,-2.459,1.078,0.859,-117.11,-365.236,128.709,-2.177,0.165,0.685,28.522,-202.334,-44.774
13500.0,-1.125,0.003,-0.062,-2.689,-19.178,-2.581,-1.024,0.123,0.064,1.622,-4.991,5.403,-2.372,0.968,0.756,-170.815,-380.552,111.736,-2.303,0.233,0.662,4.959,-243.104,-70.213
13520.0,-1.109,0.009,-0.018,-0.957,-26.002,-1.122,-1.018,0.12,0.073,1.238,-6.988,5.654,-2.219,0.817,0.675,-181.771,-383.173,101.349,-2.399,0.183,0.796,-21.659,-291.293,-96.994
13540.0,-1.048,0.006,-0.024,-0.35,-29.68,0.28,-1.012,0.129,0.084,0.75,-7.604,5.348,-2.106,0.869,0.555,-184.552,-384.274,94.454,-2.557,-0.008,0.981,-24.356,-323.525,-111.012
13560.0,-1.021,0.003,-0.041,0.53,-29.091,2.046,-1.012,0.138,0.096,-0.893,-7.261,4.521,-1.886,0.883,0.346,-190.576,-395.077,90.983,-2.702,-0.161,0.885,11.187,-345.005,-108.05
13580.0,-1.018,0.006,-0.026,1.884,-27.01,3.913,-1.012,0.132,0.09,-3.654,-5.997,3.897,-1.686,0.806,0.382,-188.748,-391.848,86.383,-2.666,-0.252,0.642,57.232,-380.908,-89.472
13600.0,-1.005,0.007,0.023,1.458,-26.238,3.51,-1.006,0.119,0.085,-4.11,-5.757,3.78,-1.512,0.747,0.377,-184.641,-367.844,81.369,-2.505,-0.207,0.61,93.708,-405.388,-69.289
13620.0,-0.996,0.025,0.062,-0.499,-25.822,3.754,-1.007,0.124,0.088,-3.118,-6.115,3.6,-1.295,0.739,0.232,-200.538,-354.38,71.267,-2.306,-0.079,0.643,98.587,-408.881,-63.064
13640.0,-1.003,0.024,0.09,-1.845,-25.551,3.92,-1.014,0.132,0.092,-3.312,-6.107,3.068,-1.038,0.567,0.182,-199.576,-338.977,59.865,-2.11,-0.128,0.486,75.051,-402.467,-68.815
13660.0,-0.991,0.026,0.097,-4.643,-25.756,3.859,-1.016,0.129,0.091,-4.351,-6.015,2.888,-0.944,0.436,0.17,-189.29,-324.209,52.35,-1.832,-0.278,0.271,69.155,-398.431,-72.777
13680.0,-1.118,0.031,0.099,-5.823,-24.746,3.71,-1.02,0.111,0.086,-4.484,-6.738,3.247,-0.816,0.339,0.121,-173.495,-312.689,49.132,-1.581,-0.444,0.245,82.288,-395.107,-70.389
13700.0,-1.01,0.041,0.102,-6.183,-23.482,3.71,-1.022,0.103,0.089,-3.5,-7.489,3.717,-0.648,0.241,0.119,-155.328,-307.266,51.107,-1.411,-0.481,0.34,116.171,-373.386,-51.553
13720.0,-1.001,0.051,0.09,-6.805,-20.791,3.774,-1.014,0.113,0.099,-2.238,-8.349,3.824,-0.611,0.316,0.122,-163.31,-310.8,47.793,-1.167,-0.424,0.1,137.525,-356.938,-35.563
13740.0,-0.981,0.039,0.084,-11.247,-17.939,4.406,-1.001,0.133,0.093,-3.578,-7.916,3.458,-0.486,0.33,0.088,-171.469,-303.94,34.877,-0.994,-0.187,0.06,128.671,-344.275,-32.795
13760.0,-0.955,0.023,0.048,-13.571,-17.856,3.591,-0.997,0.132,0.109,-4.035,-7.561,2.673,-0.37,0.211,-0.03,-156.925,-301.98,31.985,-0.852,-0.09,0.065,106.729,-336.56,-34.434
13780.0,-0.933,0.021,0.021,-12.617,-10.724,3.361,-1.001,0.13,0.116,-4.039,-6.887,1.975,-0.261,0.113,-0.205,-134.252,-308.455,38.295,-0.686,-0.092,0.099,81.054,-331.172,-40.303
13800.0,-0.95,0.018,0.027,-12.499,-4.006,3.484,-1.001,0.132,0.115,-4.122,-5.979,1.638,-0.097,0.105,-0.206,-116.9,-307.63,41.642,-0.641,-0.31,0.166,102.166,-311.726,-28.673
13820.0,-0.973,0.009,0.044,-11.97,-0.009,2.31,-0.997,0.133,0.108,-3.949,-4.42,0.951,0.023,0.078,-0.154,-100.3,-275.546,41.179,-0.593,-0.187,0.082,124.222,-306.247,-21.146
13840.0,-1.02,0.009,0.043,-11.141,-0.232,1.159,-0.989,0.131,0.108,-3.561,-2.855,-0.092,0.149,-0.019,-0.351,-111.037,-213.97,39.057,-0.438,-0.156,-0.09,98.532,-315.529,-21.35
13860.0,-1.048,-0.003,0.034,-9.406,-3.939,0.297,-0.987,0.128,0.114,-4.277,-1.911,-1.01,0.203,-0.066,-0.65,-150.364,-193.148,29.472,-0.17,0.004,-0.162,87.834,-326.954,-21.88
13880.0,-1.034,-0.002,-0.005,-7.066,-7.485,-1.143,-1.006,0.139,0.111,-2.883,-1.371,-1.4,0.417,-0.432,-0.786,-135.363,-159.947,24.794,0.029,0.102,-0.015,40.921,-299.332,-40.297
13900.0,-0.993,0.017,-0.045,-6.83,-6.144,-3.286,-1.011,0.111,0.108,-2.169,-1.213,-1.379,0.558,-0.458,-0.857,-86.961,-126.439,21.579,0.022,-0.027,0.013,21.08,-243.768,-56.35
13920.0,-0.992,0.033,-0.039,-7.64,-3.858,-4.065,-1.002,0.112,0.107,-1.4,-0.728,-1.061,0.661,-0.41,-0.915,-66.577,-99.134,18.447,-0.117,-0.247,-0.425,74.008,-236.388,-37.857
13940.0,-1.003,0.024,-0.014,-7.596,-4.792,-4.312,-0.999,0.128,0.109,-1.532,-0.333,-1.355,0.76,-0.394,-0.963,-59.423,-70.982,11.122,0.426,-0.065,-0.649,144.412,-218.7,-9.907
13960.0,-0.998,0.001,-0.026,-6.572,-7.211,-4.105,-0.996,0.125,0.109,-1.942,0.916,-1.783,0.912,-0.502,-0.885,-45.701,-27.438,4.714,0.516,0.432,-0.579,120.309,-181.15,-11.476
13980.0,-0.967,0.001,-0.056,-4.328,-5.766,-3.85,-0.992,0.122,0.106,-1.697,2.239,-2.471,1.09,-0.548,-0.732,-10.246,3.575,4.84,0.68,0.555,-0.7,46.703,-157.894,-30.174
14000.0,-0.954,0.003,-0.056,-1.112,-1.111,-3.354,-0.991,0.101,0.127,-0.017,3.731,-3.564,0.959,-0.48,-0.714,7.238,29.324,4.702,0.969,0.383,-0.63,35.968,-143.576,-22.174
14020.0,-0.972,-0.016,-0.028,2.031,-0.229,-2.246,-1.004,0.118,0.135,1.874,4.962,-3.878,0.958,-0.467,-0.561,23.919,39.663,8.263,1.104,0.515,-0.623,48.438,-49.274,-9.976
14040.0,-1.022,-0.025,-0.023,4.513,-3.271,-2.11,-1.027,0.097,0.094,2.633,4.569,-2.583,0.957,-0.424,-0.322,37.31,40.25,11.27,1.1,0.4,-0.638,62.172,-40.737,12.107
14060.0,-1.045,0.008,-0.024,6.008,-3.352,-1.946,-1.029,0.09,0.084,5.53,2.66,-0.84,0.99,-0.483,-0.111,48.462,33.695,9.755,1.292,0.67,-0.513,68.951,-28.567,20.145
14080.0,-1.049,0.053,0.027,8.914,0.783,-1.336,-1.018,0.106,0.083,5.809,1.156,0.654,0.995,-0.412,0.083,36.802,38.625,5.608,1.377,0.766,-0.346,21.048,35.513,11.265
14100.0,-1.05,0.049,0.1,11.952,1.273,0.048,-1.014,0.12,0.087,3.198,0.732,1.298,0.975,-0.533,0.055,28.106,28.96,4.516,1.16,0.408,-0.261,21.925,52.797,27.285
14120.0,-1.031,0.004,0.104,13.965,-1.546,0.586,-1.024,0.11,0.083,2.8,-0.902,1.946,1.003,-0.64,0.078,38.884,11.15,5.852,1.057,0.324,-0.06,59.929,42.643,43.086
14140.0,-0.986,-0.014,0.037,13.8,-3.278,-0.281,-1.025,0.095,0.071,2.479,-2.918,3.438,0.981,-0.622,0.159,38.224,7.998,1.638,0.96,0.448,0.386,-1.32,44.857,18.706
14160.0,-0.965,0.02,0.008,10.215,0.52,-1.813,-1.021,0.096,0.074,3.159,-4.365,4.841,0.987,-0.632,0.141,23.278,7.979,-5.798,0.879,0.234,0.57,-58.157,30.256,-6.598
14180.0,-0.974,0.047,0.032,9.685,6.082,-2.785,-1.013,0.119,0.086,3.15,-5.897,5.369,0.991,-0.689,0.039,18.069,5.05,-7.455,0.804,-0.289,0.603,-42.91,3.85,-13.37
14200.0,-1.02,0.052,0.039,10.087,4.951,-2.57,-1.017,0.125,0.092,2.207,-6.086,5.206,0.977,-0.657,0.045,17.817,1.863,-7.427,0.826,-0.281,0.569,33.617,-15.599,-5.467
14220.0,-1.021,0.044,0.015,7.807,3.463,-0.998,-1.001,0.131,0.099,1.075,-5.628,4.625,0.929,-0.578,0.075,16.643,2.78,-7.483,0.907,0.283,0.498,19.773,-27.061,-19.024
14240.0,-1.016,0.038,0.013,4.438,4.703,-0.576,-0.999,0.141,0.11,-0.59,-4.452,3.545,0.914,-0.531,0.114,18.533,9.479,-6.726,0.91,0.403,0.301,-8.592,-33.289,-26.944
14260.0,-1.017,0.044,0.019,2.25,6.393,-0.703,-0.997,0.128,0.12,-0.435,-2.513,2.121,0.932,-0.487,0.071,21.64,18.611,-6.221,1.018,0.506,0.14,-4.955,-32.917,-20.516
