Timestamp,AccelX,AccelY,AccelZ,GyroX,GyroY,GyroZ
1743947096.418644,-0.518,-0.426,0.794,1.050,-0.420,-0.280
1743947096.438644,-0.515,-0.430,0.805,-0.070,0.000,-0.630
1743947096.458644,-0.514,-0.435,0.811,-1.610,0.490,-1.260
1743947096.478644,-0.519,-0.438,0.815,-2.520,0.560,-3.150
1743947096.498644,-0.518,-0.435,0.813,-5.740,0.350,-3.150
1743947096.518644,-0.518,-0.446,0.797,-4.970,-0.070,-3.990
1743947096.509541,-0.529,-0.434,0.788,5.460,-5.250,0.420
1743947096.529541,-0.530,-0.431,0.805,4.690,-5.460,-0.280
1743947096.549541,-0.526,-0.431,0.812,2.100,-4.480,-1.680
1743947096.569541,-0.516,-0.432,0.812,0.070,-2.030,-2.800
1743947096.589541,-0.505,-0.435,0.805,-3.920,-0.630,-3.080
1743947096.609541,-0.504,-0.436,0.799,-5.670,0.490,-3.500
1743947096.614379,-0.512,-0.442,0.781,6.580,-5.530,1.750
1743947096.634379,-0.516,-0.437,0.784,7.490,-5.950,1.820
1743947096.654379,-0.517,-0.433,0.799,7.140,-5.950,1.470
1743947096.674379,-0.519,-0.432,0.805,4.620,-4.970,0.630
1743947096.694379,-0.519,-0.431,0.817,2.520,-2.520,-0.770
1743947096.714379,-0.512,-0.430,0.815,-0.700,-1.120,-1.610
1743947096.674339,-0.507,-0.446,0.767,1.540,-2.870,0.350
1743947096.694339,-0.509,-0.443,0.771,2.590,-3.920,0.770
1743947096.714339,-0.510,-0.443,0.777,4.130,-3.850,1.050
1743947096.734339,-0.511,-0.442,0.789,4.270,-3.990,0.700
1743947096.754339,-0.513,-0.436,0.796,3.010,-3.220,0.350
1743947096.774339,-0.509,-0.435,0.797,1.190,-1.960,-0.490
1743947096.793330,-0.510,-0.437,0.778,3.640,-3.710,0.770
1743947096.813330,-0.509,-0.431,0.776,3.990,-3.570,0.910
1743947096.833330,-0.510,-0.429,0.785,4.130,-2.450,1.400
1743947096.853330,-0.508,-0.431,0.793,3.010,-1.330,0.770
1743947096.873330,-0.515,-0.433,0.799,1.540,-0.700,0.070
1743947096.893330,-0.521,-0.441,0.803,1.190,-0.490,-0.490
1743947096.869615,-0.508,-0.437,0.781,0.700,-2.730,-0.980
1743947096.889615,-0.509,-0.441,0.783,0.980,-2.730,-0.770
1743947096.909615,-0.511,-0.437,0.783,0.980,-2.800,-0.630
1743947096.929615,-0.511,-0.436,0.781,1.400,-2.660,-0.490
1743947096.949615,-0.518,-0.439,0.781,2.030,-2.730,-0.420
1743947096.969615,-0.546,-0.465,0.790,5.040,-3.850,-1.820
1743947096.960255,-0.512,-0.449,0.788,1.540,-2.520,-0.350
1743947096.980255,-0.515,-0.437,0.791,1.120,-3.360,-0.630
1743947097.000255,-0.518,-0.427,0.796,0.140,-4.270,-2.380
1743947097.020255,-0.520,-0.432,0.763,0.350,-6.370,0.280
1743947097.040255,-0.517,-0.445,0.761,4.970,-6.160,-0.630
1743947097.060255,-0.510,-0.436,0.782,7.490,-6.160,-0.560
1743947097.035237,-0.513,-0.441,0.758,-0.140,-2.660,-1.470
1743947097.055237,-0.503,-0.444,0.792,4.270,-2.030,0.490
1743947097.075237,-0.504,-0.443,0.794,0.980,-1.890,0.490
1743947097.095237,-0.513,-0.426,0.788,2.030,0.490,-0.560
1743947097.115237,-0.502,-0.435,0.795,3.360,1.400,-2.100
1743947097.135237,-0.519,-0.407,0.816,-5.460,2.520,-2.730
1743947097.170107,-0.514,-0.436,0.788,5.880,-5.250,-0.420
1743947097.190107,-0.514,-0.426,0.802,2.940,-3.640,-0.630
1743947097.210107,-0.508,-0.431,0.797,0.000,-1.750,-0.770
1743947097.230107,-0.508,-0.430,0.795,-1.050,-0.280,-1.120
1743947097.250107,-0.512,-0.431,0.795,-1.330,0.420,-1.750
1743947097.270107,-0.514,-0.436,0.791,-2.380,0.350,-1.400
1743947097.230391,-0.514,-0.435,0.790,2.240,-2.940,-0.420
1743947097.250391,-0.513,-0.437,0.793,1.400,-2.310,-0.490
1743947097.270391,-0.510,-0.437,0.791,0.770,-1.960,-0.700
1743947097.290391,-0.511,-0.436,0.792,0.000,-1.540,-0.980
1743947097.310391,-0.512,-0.439,0.792,-0.490,-1.330,-1.120
1743947097.330391,-0.512,-0.439,0.789,-0.560,-1.260,-0.910
1743947097.319243,-0.512,-0.438,0.789,1.470,-2.660,-0.490
1743947097.339243,-0.516,-0.439,0.788,1.330,-2.520,-0.630
1743947097.359243,-0.516,-0.437,0.789,0.910,-2.520,-0.840
1743947097.379243,-0.516,-0.434,0.789,0.770,-2.520,-0.910
1743947097.399243,-0.513,-0.435,0.788,0.560,-2.380,-1.050
1743947097.419243,-0.513,-0.435,0.786,0.490,-2.170,-0.840
1743947097.470160,-0.516,-0.434,0.787,1.120,-2.450,-0.420
1743947097.490160,-0.514,-0.433,0.785,0.560,-1.960,-0.490
1743947097.510160,-0.513,-0.431,0.788,0.280,-1.190,-0.630
1743947097.530160,-0.516,-0.435,0.786,0.070,-1.050,-0.700
1743947097.550160,-0.515,-0.438,0.788,-0.070,-1.050,-0.630
1743947097.570160,-0.516,-0.440,0.786,0.000,-1.680,-0.770
1743947097.514530,-0.511,-0.430,0.786,-0.070,-1.400,-0.560
1743947097.534530,-0.512,-0.432,0.786,-0.140,-0.910,-0.630
1743947097.554530,-0.515,-0.435,0.784,-0.560,-0.700,-0.630
1743947097.574530,-0.513,-0.438,0.786,-0.630,-0.560,-0.630
1743947097.594530,-0.515,-0.438,0.784,-0.630,-0.630,-0.490
1743947097.614530,-0.514,-0.436,0.781,-0.210,-0.980,-0.560
1743947097.604691,-0.511,-0.428,0.778,2.800,-3.430,0.070
1743947097.624691,-0.508,-0.431,0.783,2.660,-3.010,0.210
1743947097.644691,-0.509,-0.433,0.785,1.470,-1.050,0.070
1743947097.664691,-0.511,-0.432,0.784,-0.280,-0.070,-0.350
1743947097.684691,-0.518,-0.433,0.784,-0.280,0.070,-0.560
1743947097.704691,-0.520,-0.443,0.786,0.070,-0.280,-0.420
1743947097.695045,-0.517,-0.436,0.789,0.350,-1.400,-0.560
1743947097.715045,-0.519,-0.439,0.787,0.000,-1.470,-0.700
1743947097.735045,-0.519,-0.439,0.788,-0.140,-1.470,-0.980
1743947097.755045,-0.522,-0.438,0.786,-0.070,-1.960,-1.050
1743947097.775045,-0.518,-0.443,0.788,0.210,-2.170,-1.050
1743947097.795045,-0.520,-0.446,0.782,0.490,-2.520,-1.120
1743947097.784354,-0.517,-0.434,0.784,1.260,-2.310,-0.560
1743947097.804354,-0.517,-0.436,0.784,1.330,-2.450,-0.630
1743947097.824354,-0.519,-0.440,0.785,1.330,-2.730,-0.700
1743947097.844354,-0.521,-0.440,0.787,1.540,-3.220,-0.910
1743947097.864354,-0.521,-0.441,0.789,1.610,-3.780,-1.120
1743947097.884354,-0.520,-0.439,0.789,1.540,-4.060,-1.260
1743947097.920247,-0.514,-0.436,0.781,0.280,-2.590,-1.050
1743947097.940247,-0.512,-0.436,0.778,0.560,-2.450,-0.840
1743947097.960247,-0.515,-0.437,0.779,0.980,-2.590,-0.840
1743947097.980247,-0.516,-0.439,0.781,0.980,-2.660,-0.770
1743947098.000247,-0.517,-0.437,0.782,1.400,-2.730,-0.770
1743947098.020247,-0.517,-0.441,0.783,1.470,-2.940,-0.910
1743947097.980969,-0.510,-0.433,0.785,1.960,-3.920,-0.910
1743947098.000969,-0.510,-0.431,0.785,1.820,-3.640,-0.980
1743947098.020969,-0.512,-0.432,0.784,1.470,-2.940,-0.840
1743947098.040969,-0.511,-0.437,0.783,1.260,-2.380,-0.700
1743947098.060969,-0.512,-0.432,0.785,1.050,-2.310,-0.700
1743947098.080969,-0.513,-0.434,0.787,1.050,-2.240,-0.420
1743947098.070026,-0.515,-0.435,0.788,0.350,-1.750,-0.560
1743947098.090026,-0.515,-0.435,0.787,0.070,-1.750,-0.770
1743947098.110026,-0.515,-0.437,0.786,0.070,-1.820,-0.770
1743947098.130026,-0.513,-0.438,0.784,-0.070,-1.750,-0.770
1743947098.150026,-0.514,-0.439,0.785,0.000,-1.540,-0.700
1743947098.170026,-0.511,-0.440,0.781,0.280,-1.470,-0.630
1743947098.160311,-0.516,-0.438,0.783,2.170,-3.430,-0.490
1743947098.180311,-0.513,-0.438,0.785,2.310,-3.430,-0.350
1743947098.200311,-0.514,-0.433,0.786,2.100,-3.080,-0.280
1743947098.220311,-0.514,-0.431,0.785,2.030,-2.520,0.070
1743947098.240311,-0.499,-0.420,0.782,-0.210,-1.470,0.630
1743947098.260311,-0.550,-0.468,0.790,5.460,-0.770,-1.610
1743947098.250011,-0.514,-0.432,0.783,0.490,-1.190,-0.280
1743947098.270011,-0.514,-0.438,0.785,0.280,-1.190,-0.350
1743947098.290011,-0.517,-0.433,0.783,0.350,-1.540,-0.350
1743947098.310011,-0.516,-0.438,0.785,0.910,-1.540,-0.560
1743947098.330011,-0.512,-0.439,0.785,0.560,-1.680,-0.350
1743947098.350011,-0.516,-0.437,0.785,0.490,-1.750,-0.490
1743947098.340923,-0.517,-0.435,0.781,1.960,-2.520,-0.070
1743947098.360923,-0.514,-0.435,0.788,2.100,-2.660,-0.070
1743947098.380923,-0.516,-0.436,0.787,2.100,-2.520,-0.140
1743947098.400923,-0.514,-0.434,0.787,1.960,-2.450,0.000
1743947098.420923,-0.516,-0.435,0.787,1.820,-2.100,-0.070
1743947098.440923,-0.517,-0.433,0.786,1.540,-1.890,-0.070
1743947098.429428,-0.516,-0.435,0.786,1.680,-1.820,0.000
1743947098.449428,-0.515,-0.435,0.783,1.120,-1.400,-0.070
1743947098.469428,-0.514,-0.434,0.785,0.980,-1.120,0.000
1743947098.489428,-0.514,-0.432,0.785,1.050,-0.700,0.280
1743947098.509428,-0.515,-0.431,0.782,1.260,-0.490,0.350
1743947098.529428,-0.519,-0.435,0.783,1.330,-0.560,0.280
1743947098.519159,-0.523,-0.427,0.786,1.120,-0.560,0.280
1743947098.539159,-0.518,-0.433,0.783,0.560,-0.070,0.280
1743947098.559159,-0.516,-0.435,0.781,0.420,0.210,0.210
1743947098.579159,-0.520,-0.436,0.781,0.910,-0.210,0.140
1743947098.599159,-0.523,-0.436,0.782,1.050,-0.490,0.280
1743947098.619159,-0.527,-0.437,0.783,1.750,-1.680,0.140
1743947098.640150,-0.520,-0.427,0.785,1.050,-1.050,0.140
1743947098.660150,-0.517,-0.427,0.787,0.420,-0.560,-17.920
1743947098.680150,-0.520,-0.428,0.783,0.210,0.070,0.000
1743947098.700150,-0.519,-0.432,0.784,-17.780,0.000,0.070
1743947098.720150,-0.522,-0.432,0.784,0.140,-0.070,0.280
1743947098.740150,-0.523,-0.433,0.779,0.700,-0.490,0.280
1743947098.715349,-0.523,-0.437,0.777,0.700,0.700,0.980
1743947098.735349,-0.524,-0.433,0.777,1.960,0.280,1.120
1743947098.755349,-0.530,-0.432,0.780,3.080,-1.050,0.980
1743947098.775349,-0.530,-0.434,0.783,3.570,-2.170,0.980
1743947098.795349,-0.526,-0.435,0.784,3.920,-2.520,1.400
1743947098.815349,-0.526,-0.428,0.783,4.130,-2.730,1.190
1743947098.805083,-0.534,-0.428,0.785,1.470,0.420,-0.140
1743947098.825083,-0.529,-0.422,0.795,3.150,-0.280,0.770
1743947098.845083,-0.498,-0.409,0.764,1.400,0.770,2.590
1743947098.865083,-0.524,-0.408,0.769,1.400,1.610,0.560
1743947098.885083,-0.528,-0.431,0.791,0.630,2.380,1.190
1743947098.905083,-0.522,-0.435,0.784,-0.840,2.800,1.610
1743947098.939059,-0.538,-0.427,0.779,2.940,-2.940,0.490
1743947098.959059,-0.531,-0.424,0.778,3.290,-2.730,0.840
1743947098.979059,-0.531,-0.421,0.785,2.940,-2.590,0.840
1743947098.999059,-0.531,-0.417,0.781,2.380,-1.960,0.560
1743947099.019059,-0.530,-0.420,0.783,2.030,-0.980,0.560
1743947099.039059,-0.532,-0.422,0.784,1.050,-0.420,0.420
1743947098.985176,-0.541,-0.425,0.783,1.890,-2.030,0.070
1743947099.005176,-0.538,-0.424,0.785,1.680,-2.100,0.140
1743947099.025176,-0.537,-0.423,0.787,1.050,-1.890,-0.140
1743947099.045176,-0.535,-0.421,0.785,0.350,-1.400,-0.280
1743947099.065176,-0.535,-0.418,0.784,-0.280,-0.980,-0.420
1743947099.085176,-0.532,-0.416,0.783,-0.700,0.070,-0.280
1743947099.075169,-0.646,-0.464,0.788,6.370,-4.270,-1.890
1743947099.095169,-0.610,-0.490,0.823,5.530,-7.420,-1.610
1743947099.115169,-0.611,-0.494,0.824,9.450,-17.080,-2.800
1743947099.135169,-0.614,-0.481,0.848,15.120,-25.270,-5.040
1743947099.155169,-0.571,-0.461,0.851,10.780,-30.380,-7.560
1743947099.175169,-0.578,-0.444,0.826,11.340,-30.660,-11.410
1743947099.180120,-0.490,-0.456,0.753,-7.630,8.610,0.560
1743947099.200120,-0.561,-0.479,0.754,1.400,1.260,3.150
1743947099.220120,-0.565,-0.472,0.781,12.530,-9.380,2.030
1743947099.240120,-0.564,-0.471,0.794,15.960,-16.800,2.240
1743947099.260120,-0.548,-0.456,0.815,15.610,-17.920,1.120
1743947099.280120,-0.536,-0.413,0.820,12.530,-15.820,-0.420
1743947099.270292,-0.529,-0.452,0.760,4.900,-7.000,0.280
1743947099.290292,-0.528,-0.447,0.765,7.770,-9.310,0.910
1743947099.310292,-0.529,-0.440,0.781,11.200,-11.410,1.260
1743947099.330292,-0.532,-0.432,0.787,10.780,-11.620,0.700
1743947099.350292,-0.531,-0.419,0.807,9.450,-9.100,-0.420
1743947099.370292,-0.529,-0.413,0.816,5.600,-8.330,-1.260
1743947099.374264,-0.511,-0.443,0.755,-0.700,-5.740,-1.050
1743947099.394264,-0.513,-0.441,0.759,3.290,-6.020,-0.420
1743947099.414264,-0.516,-0.437,0.769,5.180,-7.000,0.140
1743947099.434264,-0.515,-0.432,0.783,6.020,-7.210,0.280
1743947099.454264,-0.519,-0.430,0.787,5.040,-6.300,0.070
1743947099.474264,-0.522,-0.426,0.796,4.130,-5.670,-0.350
1743947099.465197,-0.515,-0.434,0.775,0.000,-1.890,-0.700
1743947099.485197,-0.517,-0.437,0.776,0.770,-0.910,0.490
1743947099.505197,-0.454,-0.417,0.747,-2.310,1.470,1.050
1743947099.525197,-0.530,-0.440,0.776,7.630,-0.070,1.960
1743947099.545197,-0.532,-0.433,0.797,2.520,-4.060,1.190
1743947099.565197,-0.523,-0.446,0.785,6.510,-4.340,1.610
1743947099.554379,-0.515,-0.424,0.796,-1.190,-2.730,-2.520
1743947099.574379,-0.515,-0.424,0.791,-1.820,-2.100,-2.520
1743947099.594379,-0.517,-0.422,0.785,-2.380,-1.400,-2.800
1743947099.614379,-0.516,-0.427,0.782,-2.100,-1.540,-2.520
1743947099.634379,-0.514,-0.430,0.782,-1.820,-1.890,-1.680
1743947099.654379,-0.517,-0.432,0.780,-0.350,-2.240,-1.470
1743947099.644404,-0.519,-0.429,0.792,-0.770,-2.380,-1.890
1743947099.664404,-0.518,-0.429,0.786,-1.050,-2.240,-1.820
1743947099.684404,-0.516,-0.431,0.783,-1.400,-1.890,-1.820
1743947099.704404,-0.515,-0.434,0.779,-1.260,-1.610,-1.750
1743947099.724404,-0.514,-0.434,0.775,-0.700,-2.030,-1.260
1743947099.744404,-0.515,-0.437,0.779,-0.070,-2.450,-0.910
1743947099.720207,-0.519,-0.425,0.795,3.150,-3.850,0.280
1743947099.740207,-0.516,-0.426,0.797,1.470,-2.590,-0.420
1743947099.760207,-0.515,-0.427,0.797,-0.280,-1.540,-0.630
1743947099.780207,-0.518,-0.426,0.797,-1.750,-0.700,-1.260
1743947099.800207,-0.517,-0.428,0.791,-1.890,-0.420,-1.470
1743947099.820207,-0.517,-0.430,0.790,-2.240,-0.350,-1.400
1743947099.840168,-0.518,-0.431,0.784,2.380,-3.990,-0.910
1743947099.860168,-0.517,-0.430,0.788,2.310,-3.920,-0.910
1743947099.880168,-0.516,-0.430,0.788,1.680,-3.500,-1.120
1743947099.900168,-0.517,-0.429,0.788,1.400,-3.290,-1.190
1743947099.920168,-0.514,-0.430,0.790,1.050,-2.870,-1.120
1743947099.940168,-0.515,-0.431,0.787,0.980,-2.800,-1.050
1743947099.899336,-0.519,-0.430,0.790,1.400,-3.640,-1.190
1743947099.919336,-0.518,-0.430,0.793,1.120,-3.500,-1.260
1743947099.939336,-0.518,-0.429,0.793,0.700,-3.150,-1.540
1743947099.959336,-0.518,-0.427,0.792,0.000,-2.730,-1.540
1743947099.979336,-0.516,-0.429,0.790,0.000,-2.660,-1.820
1743947099.999336,-0.519,-0.435,0.791,0.070,-2.940,-1.820
1743947100.049155,-0.505,-0.428,0.782,-2.310,-0.140,-1.610
1743947100.069155,-0.508,-0.438,0.781,-2.030,-0.140,-1.330
1743947100.089155,-0.517,-0.442,0.781,-1.120,-1.190,-1.330
1743947100.109155,-0.517,-0.446,0.788,0.630,-3.220,-1.120
1743947100.129155,-0.527,-0.447,0.789,1.890,-5.180,-1.120
1743947100.149155,-0.528,-0.443,0.792,2.450,-6.020,-1.120
1743947100.094387,-0.497,-0.432,0.776,-3.290,1.050,-1.400
1743947100.114387,-0.501,-0.436,0.776,-2.870,1.610,-0.840
1743947100.134387,-0.503,-0.439,0.768,-1.400,0.700,-0.280
1743947100.154387,-0.509,-0.443,0.769,-0.210,-0.560,0.490
1743947100.174387,-0.509,-0.445,0.773,1.610,-1.120,2.520
1743947100.194387,-0.536,-0.460,0.750,6.440,0.000,2.240
1743947100.169579,-0.520,-0.431,0.810,1.750,-3.850,-1.610
1743947100.189579,-0.519,-0.426,0.805,-0.980,-3.220,-2.660
1743947100.209579,-0.519,-0.426,0.794,-1.960,-2.380,-2.940
1743947100.229579,-0.514,-0.427,0.791,-2.660,-1.610,-2.380
1743947100.249579,-0.509,-0.426,0.784,-2.590,-1.540,-2.520
1743947100.269579,-0.507,-0.429,0.778,-2.310,-1.400,-2.170
1743947100.259610,-0.512,-0.435,0.793,-0.490,-1.610,-1.190
1743947100.279610,-0.511,-0.437,0.792,-0.700,-1.400,-1.400
1743947100.299610,-0.512,-0.440,0.788,-0.910,-1.400,-1.400
1743947100.319610,-0.511,-0.436,0.782,-1.120,-1.540,-1.540
1743947100.339610,-0.511,-0.439,0.780,-0.350,-2.030,-1.260
1743947100.359610,-0.509,-0.439,0.777,0.840,-2.450,-0.770
1743947100.349343,-0.517,-0.428,0.799,2.660,-2.800,0.140
1743947100.369343,-0.516,-0.428,0.802,1.610,-2.100,-0.210
1743947100.389343,-0.518,-0.429,0.802,0.980,-1.820,-0.560
1743947100.409343,-0.514,-0.427,0.801,-1.120,-0.770,-1.120
1743947100.429343,-0.510,-0.427,0.793,-1.680,-0.420,-1.190
1743947100.449343,-0.512,-0.430,0.787,-2.030,0.280,-1.050
1743947100.455087,-0.537,-0.446,0.789,4.410,-2.800,1.120
1743947100.475087,-0.535,-0.436,0.795,3.150,-3.570,0.560
1743947100.495087,-0.526,-0.433,0.798,3.010,-3.570,0.350
1743947100.515087,-0.521,-0.435,0.797,3.150,-3.220,-0.210
1743947100.535087,-0.518,-0.429,0.801,1.680,-2.660,-0.630
1743947100.555087,-0.517,-0.431,0.799,0.350,-2.030,-1.190
1743947100.546608,-0.519,-0.426,0.804,-0.700,-8.890,-5.250
1743947100.566608,-0.514,-0.412,0.793,-3.920,-6.580,-5.320
1743947100.586608,-0.491,-0.411,0.785,-6.790,-3.290,-5.180
1743947100.606608,-0.485,-0.410,0.769,-8.540,1.610,-4.340
1743947100.626608,-0.477,-0.423,0.761,-9.240,3.290,-4.340
1743947100.646608,-0.485,-0.438,0.758,-8.190,4.550,-2.730
1743947100.635197,-0.508,-0.429,0.793,7.490,-8.330,0.560
1743947100.655197,-0.503,-0.425,0.795,5.530,-6.300,0.210
1743947100.675197,-0.502,-0.420,0.794,3.080,-3.570,-0.420
1743947100.695197,-0.499,-0.421,0.795,-0.140,-0.140,-0.770
1743947100.715197,-0.499,-0.425,0.792,-1.330,1.120,-0.770
1743947100.735197,-0.502,-0.432,0.786,-1.820,2.170,-0.700
1743947100.725945,-0.515,-0.428,0.811,1.820,-3.920,-1.470
1743947100.745945,-0.517,-0.428,0.810,-1.820,-2.310,-2.590
1743947100.765945,-0.515,-0.429,0.803,-4.620,-0.490,-3.290
1743947100.785945,-0.510,-0.432,0.797,-4.970,0.490,-3.360
1743947100.805945,-0.508,-0.437,0.782,-6.020,0.560,-3.290
1743947100.825945,-0.504,-0.438,0.773,-4.620,0.210,-2.730
1743947100.814464,-0.516,-0.443,0.791,8.540,-4.620,1.750
1743947100.834464,-0.522,-0.434,0.805,6.230,-4.690,1.260
1743947100.854464,-0.524,-0.430,0.810,4.480,-4.690,-0.140
1743947100.874464,-0.519,-0.437,0.809,2.940,-3.430,-0.140
1743947100.894464,-0.517,-0.430,0.811,1.540,-2.450,-1.400
1743947100.914464,-0.514,-0.426,0.802,-0.350,-2.030,-2.030
1743947100.935317,-0.513,-0.433,0.791,1.470,-3.500,-0.910
1743947100.955317,-0.513,-0.432,0.792,0.560,-2.520,-1.120
1743947100.975317,-0.509,-0.433,0.791,-0.280,-2.030,-1.260
1743947100.995317,-0.510,-0.435,0.788,-0.560,-1.470,-1.470
1743947101.015317,-0.509,-0.433,0.788,-1.120,-1.050,-1.470
1743947101.035317,-0.511,-0.439,0.785,-1.680,-0.700,-1.400
1743947101.008549,-0.513,-0.440,0.783,4.550,-3.990,0.630
1743947101.028549,-0.514,-0.435,0.787,4.900,-4.410,0.700
1743947101.048549,-0.514,-0.434,0.793,4.760,-4.270,0.560
1743947101.068549,-0.513,-0.433,0.794,3.640,-3.710,0.280
1743947101.088549,-0.514,-0.433,0.801,3.290,-2.870,-0.350
1743947101.108549,-0.514,-0.431,0.799,1.820,-2.450,-0.700
1743947101.098734,-0.509,-0.436,0.780,0.420,-2.240,-0.560
1743947101.118734,-0.508,-0.436,0.780,0.910,-1.960,-0.210
1743947101.138734,-0.506,-0.433,0.777,0.910,-1.050,0.140
1743947101.158734,-0.507,-0.431,0.776,0.980,-0.630,0.280
1743947101.178734,-0.508,-0.436,0.780,1.050,-0.280,0.630
1743947101.198734,-0.508,-0.435,0.780,1.610,-0.280,0.770
1743947101.189624,-0.532,-0.435,0.792,4.340,-0.980,1.680
1743947101.209624,-0.532,-0.437,0.801,3.850,-2.590,1.120
1743947101.229624,-0.536,-0.441,0.806,4.760,-4.830,0.280
1743947101.249624,-0.540,-0.441,0.817,4.900,-5.390,-0.840
1743947101.269624,-0.550,-0.440,0.824,5.110,-8.190,-1.610
1743947101.289624,-0.547,-0.438,0.834,3.850,-9.940,-3.570
1743947101.279432,-0.471,-0.426,0.735,-13.370,4.060,-5.600
1743947101.299432,-0.467,-0.429,0.732,-8.960,4.130,-2.870
1743947101.319432,-0.485,-0.446,0.735,-6.580,3.080,-1.470
1743947101.339432,-0.622,-0.456,0.737,-3.500,1.400,0.490
1743947101.359432,-0.519,-0.464,0.751,2.520,-1.750,1.190
1743947101.379432,-0.524,-0.464,0.772,7.280,-6.020,1.610
1743947101.369338,-0.493,-0.425,0.786,-1.890,2.310,-0.490
1743947101.389338,-0.496,-0.429,0.779,-1.610,2.870,0.070
1743947101.409338,-0.500,-0.438,0.772,-0.280,2.450,0.490
1743947101.429338,-0.506,-0.446,0.773,2.170,0.770,1.260
1743947101.449338,-0.513,-0.448,0.776,4.830,-1.400,2.450
1743947101.469338,-0.518,-0.447,0.780,7.910,-4.480,2.660
1743947101.459620,-0.508,-0.433,0.786,-9.170,2.100,-4.830
1743947101.479620,-0.508,-0.437,0.782,-8.960,1.470,-4.130
1743947101.499620,-0.504,-0.445,0.764,-7.140,0.630,-3.430
1743947101.519620,-0.505,-0.448,0.753,-3.150,-1.750,-1.750
1743947101.539620,-0.504,-0.449,0.753,0.420,-3.500,-0.630
1743947101.559620,-0.507,-0.448,0.757,4.760,-5.180,0.630
1743947101.548375,-0.509,-0.457,0.802,5.040,-2.380,0.980
1743947101.568375,-0.509,-0.440,0.813,4.760,-2.100,0.770
1743947101.588375,-0.521,-0.428,0.809,0.840,-2.310,-1.260
1743947101.608375,-0.518,-0.428,0.804,0.280,-2.380,-1.750
1743947101.628375,-0.515,-0.442,0.801,0.700,-2.380,-0.980
1743947101.648375,-0.520,-0.433,0.798,0.420,-2.590,-2.100
1743947101.639413,-0.509,-0.436,0.788,-0.700,-2.030,-1.470
1743947101.659413,-0.508,-0.435,0.787,-0.770,-1.610,-1.400
1743947101.679413,-0.508,-0.436,0.785,-1.330,-1.330,-1.540
1743947101.699413,-0.509,-0.440,0.782,-0.910,-1.330,-1.190
1743947101.719413,-0.507,-0.437,0.779,-0.560,-1.330,-0.840
1743947101.739413,-0.508,-0.439,0.779,0.420,-1.680,-0.700
1743947101.744647,-0.513,-0.434,0.797,4.130,-3.990,-0.070
1743947101.764647,-0.515,-0.429,0.800,2.940,-3.360,-0.210
1743947101.784647,-0.510,-0.430,0.804,2.100,-2.870,-0.560
1743947101.804647,-0.509,-0.428,0.799,0.700,-1.960,-0.980
1743947101.824647,-0.512,-0.430,0.802,-0.560,-1.610,-1.330
1743947101.844647,-0.513,-0.428,0.797,-0.980,-1.540,-1.610
1743947101.835204,-0.508,-0.438,0.783,-0.420,-2.240,-1.400
1743947101.855204,-0.507,-0.437,0.782,-0.210,-2.240,-1.330
1743947101.875204,-0.508,-0.440,0.781,0.140,-2.380,-1.120
1743947101.895204,-0.508,-0.439,0.783,0.420,-2.380,-0.840
1743947101.915204,-0.506,-0.441,0.780,0.840,-2.380,-0.630
1743947101.935204,-0.507,-0.441,0.780,1.680,-2.450,-0.280
1743947101.909549,-0.518,-0.436,0.802,2.730,-3.430,-0.140
1743947101.929549,-0.519,-0.436,0.804,2.100,-3.640,-0.420
1743947101.949549,-0.526,-0.424,0.801,0.000,-3.220,-1.050
1743947101.969549,-0.519,-0.434,0.799,0.140,-2.450,-1.960
1743947101.989549,-0.507,-0.435,0.803,-0.280,-1.680,-1.890
1743947102.009549,-0.510,-0.434,0.795,-2.240,-1.470,-1.960
1743947102.000195,-0.505,-0.438,0.780,1.680,-1.890,0.210
1743947102.020195,-0.508,-0.435,0.779,1.820,-1.680,0.280
1743947102.040195,-0.506,-0.437,0.781,2.170,-1.260,0.490
1743947102.060195,-0.507,-0.440,0.786,2.310,-1.400,0.630
1743947102.080195,-0.511,-0.438,0.788,2.870,-1.960,0.560
1743947102.100195,-0.514,-0.439,0.789,3.010,-2.240,0.490
1743947102.149759,-0.499,-0.428,0.782,0.210,1.610,1.190
1743947102.169759,-0.498,-0.426,0.783,-0.210,2.310,1.470
1743947102.189759,-0.505,-0.431,0.780,-0.070,2.520,1.960
1743947102.209759,-0.513,-0.438,0.776,0.560,2.590,2.100
1743947102.229759,-0.515,-0.440,0.786,1.960,0.420,2.520
1743947102.249759,-0.532,-0.451,0.793,4.060,-1.470,2.170
1743947102.195192,-0.521,-0.425,0.825,-4.060,-6.160,-7.490
1743947102.215192,-0.502,-0.419,0.806,-8.540,-4.270,-7.700
1743947102.235192,-0.494,-0.419,0.789,-10.080,-1.610,-7.840
1743947102.255192,-0.491,-0.423,0.767,-11.130,0.280,-7.140
1743947102.275192,-0.494,-0.428,0.764,-10.360,0.700,-6.020
1743947102.295192,-0.497,-0.431,0.756,-8.960,-0.140,-4.690
1743947102.269589,-0.505,-0.440,0.780,3.920,-3.150,1.050
1743947102.289589,-0.508,-0.439,0.786,3.640,-2.870,0.770
1743947102.309589,-0.502,-0.438,0.787,2.590,-1.960,0.630
1743947102.329589,-0.500,-0.439,0.784,2.170,-0.840,0.490
1743947102.349589,-0.498,-0.444,0.779,2.940,-0.700,0.910
1743947102.369589,-0.506,-0.444,0.778,3.430,-1.260,1.330
1743947102.374408,-0.530,-0.428,0.814,7.070,-4.480,1.610
1743947102.394408,-0.529,-0.427,0.826,5.180,-4.410,0.140
1743947102.414408,-0.527,-0.429,0.830,1.960,-3.780,-1.260
1743947102.434408,-0.526,-0.427,0.829,-0.910,-2.450,-2.520
1743947102.454408,-0.523,-0.426,0.824,-2.940,-1.470,-3.850
1743947102.474408,-0.518,-0.425,0.810,-5.740,-0.840,-3.850
1743947102.450383,-0.506,-0.446,0.763,2.030,-3.360,-0.350
1743947102.470383,-0.503,-0.445,0.769,1.890,-3.500,0.070
1743947102.490383,-0.504,-0.443,0.772,3.290,-3.850,0.420
1743947102.510383,-0.505,-0.440,0.775,3.990,-3.920,0.700
1743947102.530383,-0.502,-0.439,0.778,4.620,-3.500,0.700
1743947102.550383,-0.504,-0.437,0.780,4.620,-3.220,0.840
1743947102.539686,-0.550,-0.454,0.799,8.750,-0.980,3.990
1743947102.559686,-0.555,-0.462,0.815,9.590,-5.390,3.150
1743947102.579686,-0.552,-0.450,0.827,10.990,-8.960,2.380
1743947102.599686,-0.551,-0.447,0.829,9.450,-10.290,1.050
1743947102.619686,-0.553,-0.426,0.832,7.000,-9.940,-1.330
1743947102.639686,-0.536,-0.414,0.835,5.880,-8.610,-3.220
1743947102.629717,-0.512,-0.457,0.752,-0.770,-4.900,-0.840
1743947102.649717,-0.517,-0.452,0.756,3.570,-6.020,-0.280
1743947102.669717,-0.513,-0.446,0.762,5.880,-8.260,0.420
1743947102.689717,-0.489,-0.447,0.780,15.750,-9.170,0.630
1743947102.709717,-0.457,-0.393,0.787,6.510,-8.610,0.700
1743947102.729717,-0.524,-0.407,0.800,5.600,-6.160,0.560
1743947102.735320,-0.516,-0.443,0.768,2.730,-0.840,1.960
1743947102.755320,-0.521,-0.442,0.777,5.600,-3.010,2.310
1743947102.775320,-0.523,-0.437,0.784,8.260,-5.460,2.660
1743947102.795320,-0.524,-0.434,0.799,9.100,-6.370,2.590
1743947102.815320,-0.523,-0.429,0.800,8.610,-6.090,2.240
1743947102.835320,-0.521,-0.423,0.814,7.770,-5.810,0.980
1743947102.794643,-0.514,-0.439,0.773,-5.390,0.980,-2.660
1743947102.814643,-0.512,-0.441,0.767,-4.200,0.280,-1.960
1743947102.834643,-0.512,-0.441,0.766,-1.190,-1.330,-1.260
1743947102.854643,-0.511,-0.440,0.762,0.280,-2.870,-0.140
1743947102.874643,-0.511,-0.441,0.767,2.310,-3.150,0.140
1743947102.894643,-0.510,-0.434,0.773,4.130,-3.640,0.700
1743947102.898664,-0.516,-0.437,0.784,1.750,-1.960,0.210
1743947102.918664,-0.515,-0.438,0.782,2.520,-2.380,0.210
1743947102.938664,-0.514,-0.435,0.783,3.220,-2.940,0.350
1743947102.958664,-0.516,-0.433,0.783,4.060,-3.220,0.560
1743947102.978664,-0.518,-0.433,0.788,4.270,-3.710,0.560
1743947102.998664,-0.517,-0.429,0.791,4.270,-3.710,0.420
1743947102.974403,-0.517,-0.432,0.789,-0.980,-1.400,-1.540
1743947102.994403,-0.521,-0.431,0.784,-0.630,-1.610,-1.400
1743947103.014403,-0.520,-0.432,0.781,0.280,-2.310,-1.120
1743947103.034403,-0.519,-0.431,0.782,0.770,-2.590,-0.910
1743947103.054403,-0.518,-0.431,0.783,1.260,-2.940,-0.630
1743947103.074403,-0.514,-0.432,0.782,1.820,-3.150,-0.700
1743947103.082805,-0.516,-0.431,0.789,0.840,-1.960,-0.420
1743947103.102805,-0.518,-0.432,0.790,0.980,-1.960,-0.420
1743947103.122805,-0.518,-0.433,0.788,1.190,-2.310,-0.420
1743947103.142805,-0.521,-0.431,0.791,1.330,-2.520,-0.490
1743947103.162805,-0.520,-0.433,0.790,1.400,-2.730,-0.700
1743947103.182805,-0.519,-0.431,0.790,1.400,-2.940,-0.840
1743947103.154507,-0.515,-0.431,0.784,0.630,-2.660,-0.840
1743947103.174507,-0.520,-0.431,0.783,1.330,-2.870,-0.840
1743947103.194507,-0.524,-0.431,0.787,1.680,-3.080,-0.770
1743947103.214507,-0.524,-0.427,0.786,1.400,-3.290,-0.840
1743947103.234507,-0.518,-0.428,0.787,1.120,-3.080,-0.840
1743947103.254507,-0.516,-0.428,0.789,1.120,-2.730,-0.840
1743947103.229616,-0.513,-0.432,0.786,-0.420,-0.980,-0.630
1743947103.249616,-0.517,-0.434,0.784,0.140,-1.260,-0.490
1743947103.269616,-0.519,-0.433,0.784,1.050,-1.960,-0.280
1743947103.289616,-0.520,-0.434,0.782,1.330,-2.380,-0.140
1743947103.309616,-0.519,-0.431,0.782,2.170,-3.010,-0.280
1743947103.329616,-0.519,-0.431,0.788,2.520,-3.290,-0.070
1743947103.335696,-0.518,-0.429,0.789,-0.140,-1.540,-0.840
1743947103.355696,-0.514,-0.430,0.786,-0.070,-1.260,-0.840
1743947103.375696,-0.514,-0.432,0.785,0.000,-1.470,-0.560
1743947103.395696,-0.514,-0.434,0.784,0.420,-1.820,-0.420
1743947103.415696,-0.513,-0.432,0.782,0.770,-1.750,-0.140
1743947103.435696,-0.517,-0.431,0.781,1.470,-2.240,-0.070
1743947103.410628,-0.516,-0.430,0.793,-0.280,-1.890,-1.260
1743947103.430628,-0.516,-0.431,0.793,-0.910,-1.470,-1.610
1743947103.450628,-0.515,-0.429,0.788,-1.260,-1.470,-1.400
1743947103.470628,-0.513,-0.430,0.780,-0.700,-1.330,-1.120
1743947103.490628,-0.516,-0.431,0.777,0.000,-1.610,-0.700
1743947103.510628,-0.518,-0.431,0.776,1.330,-2.240,-0.350
1743947103.485593,-0.521,-0.425,0.798,-1.190,-1.750,-1.610
1743947103.505593,-0.515,-0.428,0.791,-1.610,-1.470,-1.540
1743947103.525593,-0.510,-0.427,0.781,-1.820,-0.910,-1.330
1743947103.545593,-0.509,-0.427,0.778,-1.190,-0.910,-1.120
1743947103.565593,-0.511,-0.431,0.775,-0.280,-1.260,-0.770
1743947103.585593,-0.509,-0.437,0.774,0.560,-1.890,-0.070
1743947103.575747,-0.520,-0.422,0.800,1.120,-2.940,-1.120
1743947103.595747,-0.520,-0.423,0.798,-0.210,-1.960,-1.680
1743947103.615747,-0.521,-0.427,0.794,-0.980,-1.610,-1.890
1743947103.635747,-0.516,-0.426,0.791,-1.750,-1.400,-1.890
1743947103.655747,-0.515,-0.428,0.783,-1.540,-1.190,-1.610
1743947103.675747,-0.514,-0.430,0.777,-0.700,-1.470,-1.400
1743947103.665980,-0.521,-0.427,0.797,0.910,-2.870,-1.260
1743947103.685980,-0.519,-0.427,0.797,-0.490,-2.310,-1.680
1743947103.705980,-0.517,-0.425,0.791,-1.540,-1.680,-1.890
1743947103.725980,-0.516,-0.428,0.787,-1.470,-1.400,-1.890
1743947103.745980,-0.515,-0.427,0.783,-1.610,-1.330,-1.680
1743947103.765980,-0.514,-0.430,0.781,-1.050,-1.540,-1.610
1743947103.755923,-0.518,-0.427,0.797,0.350,-3.010,-1.610
1743947103.775923,-0.518,-0.428,0.795,-0.490,-2.730,-1.960
1743947103.795923,-0.519,-0.429,0.793,-1.330,-2.310,-2.240
1743947103.815923,-0.519,-0.428,0.790,-1.540,-1.960,-2.240
1743947103.835923,-0.511,-0.432,0.787,-1.680,-1.820,-2.030
1743947103.855923,-0.510,-0.433,0.781,-1.330,-1.890,-1.820
1743947103.845769,-0.515,-0.433,0.793,3.290,-4.270,-0.560
1743947103.865769,-0.510,-0.432,0.793,2.520,-4.130,-0.490
1743947103.885769,-0.516,-0.430,0.793,2.450,-3.920,-0.910
1743947103.905769,-0.512,-0.427,0.791,2.100,-3.640,-0.980
1743947103.925769,-0.511,-0.428,0.785,1.610,-3.360,-0.910
1743947103.945769,-0.515,-0.428,0.787,1.750,-3.010,-0.630
1743947103.935590,-0.517,-0.427,0.800,0.490,-3.010,-1.330
1743947103.955590,-0.516,-0.429,0.799,0.280,-2.800,-1.610
1743947103.975590,-0.514,-0.429,0.793,-0.630,-2.380,-1.820
1743947103.995590,-0.516,-0.427,0.793,-1.050,-2.100,-1.890
1743947104.015590,-0.512,-0.427,0.790,-1.050,-2.030,-1.750
1743947104.035590,-0.514,-0.429,0.788,-0.910,-1.960,-1.750
1743947104.025800,-0.513,-0.433,0.789,1.050,-3.080,-0.910
1743947104.045800,-0.514,-0.423,0.785,0.490,-2.870,-0.560
1743947104.065800,-0.541,-0.441,0.787,4.760,-3.220,-1.750
1743947104.085800,-0.480,-0.408,0.789,-0.700,-2.940,-0.980
1743947104.105800,-0.516,-0.435,0.780,1.960,-2.100,-0.210
1743947104.125800,-0.516,-0.430,0.781,2.310,-2.870,-0.140
1743947104.100471,-0.520,-0.425,0.798,4.270,-3.780,0.420
1743947104.120471,-0.522,-0.423,0.807,3.220,-3.640,-0.140
1743947104.140471,-0.526,-0.425,0.808,2.100,-3.010,-0.840
1743947104.160471,-0.527,-0.423,0.814,-0.210,-2.170,-1.890
1743947104.180471,-0.523,-0.425,0.816,-1.540,-1.610,-2.660
1743947104.200471,-0.521,-0.426,0.806,-3.290,-1.330,-3.150
1743947104.205540,-0.514,-0.423,0.793,2.100,-4.270,-0.700
1743947104.225540,-0.516,-0.435,0.795,1.190,-3.150,-0.910
1743947104.245540,-0.516,-0.429,0.802,0.000,-2.520,-1.680
1743947104.265540,-0.510,-0.426,0.798,-1.680,-1.680,-2.100
1743947104.285540,-0.509,-0.428,0.792,-2.310,-0.840,-2.240
1743947104.305540,-0.506,-0.431,0.787,-2.240,-0.420,-2.100
1743947104.296356,-0.516,-0.431,0.797,5.530,-4.970,0.840
1743947104.316356,-0.517,-0.427,0.806,3.780,-4.130,0.070
1743947104.336356,-0.517,-0.427,0.810,2.450,-3.290,-0.630
1743947104.356356,-0.516,-0.425,0.811,-0.210,-2.240,-1.330
1743947104.376356,-0.514,-0.424,0.807,-1.400,-1.330,-2.100
1743947104.396356,-0.512,-0.428,0.797,-2.800,-0.420,-2.310
1743947104.386940,-0.515,-0.433,0.789,3.570,-4.130,0.140
1743947104.406940,-0.514,-0.429,0.793,3.360,-4.060,0.000
1743947104.426940,-0.515,-0.429,0.795,2.590,-3.360,-0.420
1743947104.446940,-0.516,-0.429,0.799,2.030,-2.380,-0.910
1743947104.466940,-0.515,-0.429,0.796,0.560,-2.100,-0.910
1743947104.486940,-0.512,-0.427,0.794,-0.210,-1.540,-1.120
1743947104.505297,-0.518,-0.435,0.789,2.310,-3.290,-0.070
1743947104.525297,-0.518,-0.432,0.795,2.450,-3.360,-0.140
1743947104.545297,-0.516,-0.430,0.796,2.170,-3.360,-0.420
1743947104.565297,-0.515,-0.430,0.796,1.400,-2.870,-0.630
1743947104.585297,-0.517,-0.429,0.798,0.490,-2.380,-1.050
1743947104.605297,-0.514,-0.427,0.799,0.000,-1.750,-1.260
1743947104.580086,-0.510,-0.434,0.784,1.470,-2.660,-0.280
1743947104.600086,-0.513,-0.434,0.787,2.240,-3.080,-0.140
1743947104.620086,-0.513,-0.432,0.790,2.450,-3.220,-0.140
1743947104.640086,-0.514,-0.430,0.791,2.730,-3.360,-0.210
1743947104.660086,-0.517,-0.434,0.792,2.590,-3.290,-0.280
1743947104.680086,-0.515,-0.429,0.792,2.240,-2.940,-0.350
1743947104.641693,-0.515,-0.433,0.787,0.350,-1.890,-0.980
1743947104.661693,-0.513,-0.434,0.787,0.560,-2.240,-0.770
1743947104.681693,-0.513,-0.432,0.789,0.770,-2.450,-0.630
1743947104.701693,-0.515,-0.432,0.786,0.980,-2.660,-0.560
1743947104.721693,-0.515,-0.431,0.789,1.330,-2.660,-0.630
1743947104.741693,-0.517,-0.429,0.789,1.330,-2.730,-0.350
1743947104.745812,-0.525,-0.441,0.777,4.060,-2.310,-0.070
1743947104.765812,-0.498,-0.427,0.784,2.590,-3.080,0.770
1743947104.785812,-0.498,-0.437,0.780,3.010,-2.800,1.190
1743947104.805812,-0.517,-0.434,0.785,4.760,-3.290,1.050
1743947104.825812,-0.517,-0.422,0.788,4.130,-3.710,0.910
1743947104.845812,-0.516,-0.429,0.790,5.390,-3.640,1.120
1743947104.837037,-0.519,-0.427,0.798,-3.640,-1.050,-2.870
1743947104.857037,-0.519,-0.430,0.793,-3.710,-1.260,-2.870
1743947104.877037,-0.517,-0.429,0.789,-3.290,-1.680,-2.660
1743947104.897037,-0.513,-0.430,0.788,-2.870,-1.960,-2.520
1743947104.917037,-0.515,-0.433,0.784,-2.520,-2.100,-2.590
1743947104.937037,-0.496,-0.431,0.792,-3.360,-2.380,-1.820
1743947104.925991,-0.505,-0.435,0.777,-0.350,-1.680,-0.910
1743947104.945991,-0.505,-0.435,0.776,0.070,-1.750,-0.770
1743947104.965991,-0.504,-0.437,0.773,0.910,-2.100,-0.210
1743947104.985991,-0.509,-0.436,0.774,1.610,-2.380,0.140
1743947105.005991,-0.510,-0.433,0.776,2.520,-2.870,0.560
1743947105.025991,-0.513,-0.435,0.782,3.990,-3.290,0.700
1743947105.015955,-0.516,-0.426,0.799,-0.140,-1.610,-1.330
1743947105.035955,-0.517,-0.428,0.798,-0.980,-1.400,-1.400
1743947105.055955,-0.516,-0.430,0.791,-1.190,-1.470,-1.680
1743947105.075955,-0.517,-0.431,0.788,-1.120,-1.680,-1.610
1743947105.095955,-0.514,-0.434,0.789,-0.700,-2.030,-1.540
1743947105.115955,-0.518,-0.431,0.787,-0.490,-2.450,-1.400
1743947105.106692,-0.509,-0.433,0.787,0.490,-2.240,-1.330
1743947105.126692,-0.497,-0.438,0.785,0.280,-2.030,-1.050
1743947105.146692,-0.493,-0.442,0.776,0.910,-2.170,0.000
1743947105.166692,-0.508,-0.434,0.774,2.100,-2.590,0.210
1743947105.186692,-0.513,-0.430,0.771,3.430,-2.590,0.630
1743947105.206692,-0.517,-0.435,0.774,4.340,-3.360,0.910
1743947105.195422,-0.515,-0.429,0.801,0.490,-1.540,-0.630
1743947105.215422,-0.513,-0.426,0.790,0.140,-1.610,-0.630
1743947105.235422,-0.520,-0.431,0.790,1.120,-2.170,-0.350
1743947105.255422,-0.519,-0.428,0.789,1.330,-2.730,-0.140
1743947105.275422,-0.520,-0.430,0.786,2.590,-3.220,-0.070
1743947105.295422,-0.520,-0.428,0.795,2.730,-3.710,-0.210
1743947105.272604,-0.508,-0.433,0.786,-6.090,0.140,-3.570
1743947105.292604,-0.506,-0.443,0.773,-4.830,-0.140,-3.360
1743947105.312604,-0.496,-0.428,0.767,-4.900,-0.840,-2.100
1743947105.332604,-0.503,-0.444,0.757,-1.190,-1.470,-1.190
1743947105.352604,-0.523,-0.437,0.763,0.980,-2.870,-0.770
1743947105.372604,-0.510,-0.436,0.765,2.660,-3.990,0.000
1743947105.375837,-0.509,-0.429,0.789,-1.050,-0.980,-0.980
1743947105.395837,-0.512,-0.430,0.781,-0.560,-1.050,-0.630
1743947105.415837,-0.512,-0.433,0.781,0.840,-1.470,-0.420
1743947105.435837,-0.512,-0.434,0.779,1.680,-2.030,0.210
1743947105.455837,-0.515,-0.436,0.782,3.360,-3.080,0.490
1743947105.475837,-0.520,-0.435,0.788,3.710,-3.990,0.420
1743947105.450906,-0.516,-0.426,0.803,-0.840,-1.680,-1.890
1743947105.470906,-0.515,-0.427,0.799,-2.170,-1.050,-1.960
1743947105.490906,-0.513,-0.428,0.792,-2.730,-0.770,-2.100
1743947105.510906,-0.514,-0.432,0.787,-2.730,-0.770,-2.100
1743947105.530906,-0.511,-0.432,0.782,-2.450,-0.980,-2.100
1743947105.550906,-0.512,-0.433,0.782,-2.030,-0.980,-1.680
1743947105.524693,-0.513,-0.429,0.794,2.590,-3.080,-0.350
1743947105.544693,-0.513,-0.430,0.792,1.890,-2.870,-0.420
1743947105.564693,-0.510,-0.430,0.791,1.190,-2.380,-0.630
1743947105.584693,-0.513,-0.431,0.790,1.120,-1.890,-0.630
1743947105.604693,-0.513,-0.428,0.792,0.770,-1.890,-0.560
1743947105.624693,-0.516,-0.430,0.789,0.630,-1.820,-0.700
1743947105.601002,-0.515,-0.430,0.790,2.240,-3.220,-0.210
1743947105.621002,-0.511,-0.430,0.791,2.170,-3.220,-0.350
1743947105.641002,-0.511,-0.431,0.792,2.100,-2.800,-0.210
1743947105.661002,-0.508,-0.419,0.789,0.840,-2.450,0.210
1743947105.681002,-0.527,-0.435,0.785,2.660,-2.450,-0.560
1743947105.701002,-0.510,-0.430,0.800,1.400,-2.590,-0.700
1743947105.689109,-0.518,-0.429,0.791,3.570,-3.570,0.000
1743947105.709109,-0.517,-0.427,0.794,3.360,-3.500,0.070
1743947105.729109,-0.518,-0.425,0.800,2.660,-3.010,0.000
1743947105.749109,-0.516,-0.426,0.802,2.100,-2.870,-0.350
1743947105.769109,-0.520,-0.424,0.802,1.190,-2.310,-0.980
1743947105.789109,-0.517,-0.428,0.805,0.140,-2.030,-1.120
1743947105.750257,-0.516,-0.428,0.793,-2.240,-1.610,-2.100
1743947105.770257,-0.512,-0.432,0.791,-2.170,-1.400,-2.170
1743947105.790257,-0.512,-0.431,0.790,-2.380,-1.400,-1.890
1743947105.810257,-0.513,-0.433,0.789,-2.380,-1.540,-2.030
1743947105.830257,-0.514,-0.437,0.788,-3.290,-1.820,-1.610
1743947105.850257,-0.518,-0.441,0.782,-1.680,-1.820,-1.400
1743947105.854511,-0.511,-0.433,0.781,0.630,-2.170,-0.770
1743947105.874511,-0.511,-0.433,0.779,1.400,-2.450,-0.490
1743947105.894511,-0.509,-0.434,0.779,2.170,-2.660,0.070
1743947105.914511,-0.511,-0.435,0.781,2.940,-3.360,0.560
1743947105.934511,-0.515,-0.432,0.786,3.780,-3.430,0.560
1743947105.954511,-0.519,-0.430,0.789,4.130,-3.570,0.560
1743947105.929665,-0.511,-0.431,0.791,-1.890,-1.330,-1.960
1743947105.949665,-0.512,-0.435,0.784,-1.680,-1.470,-1.680
1743947105.969665,-0.511,-0.435,0.776,-0.980,-1.680,-1.190
1743947105.989665,-0.509,-0.432,0.780,-0.140,-2.380,-0.980
1743947106.009665,-0.512,-0.433,0.781,0.840,-2.590,-0.700
1743947106.029665,-0.514,-0.436,0.784,1.540,-3.010,-0.560
1743947106.050361,-0.509,-0.433,0.787,0.000,-1.680,-1.400
1743947106.070361,-0.493,-0.437,0.780,-0.490,-1.260,-0.560
1743947106.090361,-0.501,-0.432,0.773,0.560,-1.610,0.140
1743947106.110361,-0.509,-0.431,0.769,1.540,-2.030,0.280
1743947106.130361,-0.513,-0.429,0.768,2.660,-2.450,1.050
1743947106.150361,-0.517,-0.439,0.776,5.110,-3.080,1.190
1743947106.095787,-0.514,-0.425,0.804,-0.350,-1.470,-0.910
1743947106.115787,-0.518,-0.431,0.796,-0.490,-0.910,-1.190
1743947106.135787,-0.518,-0.425,0.793,-1.400,-0.980,-1.330
1743947106.155787,-0.512,-0.427,0.791,-1.400,-1.120,-1.260
1743947106.175787,-0.514,-0.427,0.785,-0.560,-1.330,-0.910
1743947106.195787,-0.516,-0.428,0.787,0.420,-1.890,-0.560
1743947106.185611,-0.514,-0.431,0.802,-2.660,-1.750,-2.940
1743947106.205611,-0.496,-0.427,0.792,-4.480,-1.050,-3.010
1743947106.225611,-0.500,-0.432,0.780,-5.530,-0.420,-2.940
1743947106.245611,-0.513,-0.435,0.772,-4.060,-0.420,-2.730
1743947106.265611,-0.504,-0.435,0.771,-2.590,-0.840,-1.820
1743947106.285611,-0.500,-0.438,0.768,-2.030,-0.980,-0.910
1743947106.260480,-0.513,-0.430,0.794,3.290,-3.150,0.210
1743947106.280480,-0.511,-0.427,0.797,2.870,-2.590,-0.280
1743947106.300480,-0.512,-0.427,0.795,1.260,-1.610,-0.420
1743947106.320480,-0.511,-0.431,0.791,0.490,-1.120,-0.420
1743947106.340480,-0.511,-0.430,0.787,0.630,-0.980,-0.280
1743947106.360480,-0.514,-0.431,0.785,0.770,-1.120,-0.070
1743947106.349333,-0.521,-0.430,0.797,3.360,-3.780,0.070
1743947106.369333,-0.520,-0.429,0.802,2.590,-3.570,-0.350
1743947106.389333,-0.519,-0.425,0.803,1.540,-3.220,-0.630
1743947106.409333,-0.518,-0.426,0.805,0.420,-2.520,-1.260
1743947106.429333,-0.516,-0.425,0.801,-0.280,-1.890,-1.680
1743947106.449333,-0.513,-0.428,0.799,-1.890,-1.330,-2.240
1743947106.395294,-0.508,-0.436,0.773,0.910,-2.590,-0.770
1743947106.415294,-0.509,-0.435,0.773,1.750,-3.150,0.000
1743947106.435294,-0.504,-0.432,0.770,3.640,-3.710,0.210
1743947106.455294,-0.515,-0.437,0.775,4.130,-3.920,-0.210
1743947106.475294,-0.376,-0.436,0.787,3.430,-4.060,0.770
1743947106.495294,-0.509,-0.442,0.780,3.850,-3.920,1.190
1743947106.470071,-0.524,-0.426,0.792,2.940,-2.730,0.350
1743947106.490071,-0.519,-0.427,0.794,3.080,-2.590,0.280
1743947106.510071,-0.519,-0.426,0.802,2.380,-2.310,-0.070
1743947106.530071,-0.524,-0.425,0.802,1.680,-2.240,-0.350
1743947106.550071,-0.521,-0.424,0.807,0.980,-2.100,-1.190
1743947106.570071,-0.522,-0.427,0.809,-0.210,-1.960,-1.190
1743947106.559539,-0.513,-0.431,0.788,-3.500,-1.330,-2.590
1743947106.579539,-0.513,-0.432,0.785,-3.080,-1.750,-2.800
1743947106.599539,-0.509,-0.438,0.787,-2.030,-2.030,-1.610
1743947106.619539,-0.509,-0.434,0.777,-2.380,-2.240,-1.260
1743947106.639539,-0.524,-0.426,0.783,-0.350,-3.010,-1.960
1743947106.659539,-0.520,-0.432,0.787,-0.560,-3.080,-1.610
1743947106.650312,-0.509,-0.435,0.777,1.190,-2.310,-0.420
1743947106.670312,-0.508,-0.436,0.775,1.960,-2.590,-0.140
1743947106.690312,-0.510,-0.436,0.773,3.640,-3.290,0.490
1743947106.710312,-0.511,-0.431,0.780,4.340,-3.780,0.980
1743947106.730312,-0.515,-0.432,0.783,5.320,-4.200,1.190
1743947106.750312,-0.518,-0.430,0.791,5.390,-4.200,0.910
1743947106.725168,-0.511,-0.428,0.797,-3.080,-0.560,-2.310
1743947106.745168,-0.511,-0.433,0.790,-3.150,-0.420,-2.100
1743947106.765168,-0.514,-0.431,0.782,-2.660,-0.840,-1.890
1743947106.785168,-0.514,-0.433,0.779,-1.540,-1.330,-1.470
1743947106.805168,-0.513,-0.433,0.778,-0.700,-1.890,-1.260
1743947106.825168,-0.515,-0.435,0.778,0.840,-2.870,-0.770
1743947106.800082,-0.510,-0.431,0.780,2.030,-2.380,0.000
1743947106.820082,-0.509,-0.430,0.775,2.030,-1.960,0.770
1743947106.840082,-0.505,-0.418,0.776,1.330,-1.960,0.420
1743947106.860082,-0.498,-0.415,0.778,3.500,-1.750,0.630
1743947106.880082,-0.497,-0.436,0.789,2.380,-2.100,1.400
1743947106.900082,-0.518,-0.437,0.792,4.060,-2.590,1.190
1743947106.962923,-0.520,-0.421,0.796,-0.350,-1.610,-1.330
1743947106.982923,-0.522,-0.424,0.803,-0.980,-1.120,-1.610
1743947107.002923,-0.522,-0.427,0.803,-1.960,-0.630,-1.890
1743947107.022923,-0.524,-0.429,0.799,-3.080,-0.700,-2.380
1743947107.042923,-0.522,-0.430,0.798,-3.710,-0.910,-2.800
1743947107.062923,-0.517,-0.434,0.797,-4.060,-0.980,-3.080
1743947106.980529,-0.508,-0.437,0.771,1.680,-3.080,-0.140
1743947107.000529,-0.515,-0.434,0.774,3.290,-3.850,0.210
1743947107.020529,-0.516,-0.434,0.781,4.060,-4.130,0.560
1743947107.040529,-0.515,-0.436,0.783,4.410,-4.060,0.560
1743947107.060529,-0.513,-0.431,0.788,4.130,-3.780,0.350
1743947107.080529,-0.512,-0.429,0.792,3.220,-3.290,0.350
1743947107.055222,-0.514,-0.432,0.791,1.260,-1.750,0.000
1743947107.075222,-0.513,-0.432,0.788,1.260,-2.100,0.000
1743947107.095222,-0.515,-0.432,0.788,2.450,-2.660,0.140
1743947107.115222,-0.516,-0.433,0.787,2.730,-3.150,0.210
1743947107.135222,-0.519,-0.430,0.791,2.800,-3.220,-0.070
1743947107.155222,-0.523,-0.429,0.796,2.870,-3.430,-0.070
1743947107.130210,-0.517,-0.427,0.796,-1.400,-1.820,-2.310
1743947107.150210,-0.512,-0.431,0.793,-2.310,-1.260,-2.240
1743947107.170210,-0.514,-0.433,0.786,-2.380,-1.260,-2.240
1743947107.190210,-0.511,-0.433,0.780,-1.890,-1.330,-1.820
1743947107.210210,-0.509,-0.433,0.778,-1.050,-1.750,-1.540
1743947107.230210,-0.509,-0.437,0.775,-0.630,-2.030,-0.840
1743947107.249403,-0.517,-0.432,0.790,5.110,-3.780,0.840
1743947107.269403,-0.517,-0.422,0.791,3.850,-3.710,0.420
1743947107.289403,-0.520,-0.427,0.794,4.060,-3.220,0.350
1743947107.309403,-0.521,-0.427,0.797,3.640,-3.080,0.140
1743947107.329403,-0.519,-0.423,0.799,2.240,-2.800,0.000
1743947107.349403,-0.520,-0.424,0.795,2.170,-2.660,-0.210
1743947107.296024,-0.520,-0.428,0.800,-1.260,-2.380,-2.100
1743947107.316024,-0.517,-0.427,0.796,-1.680,-2.240,-2.170
1743947107.336024,-0.517,-0.428,0.795,-1.890,-2.030,-2.450
1743947107.356024,-0.515,-0.427,0.794,-2.660,-1.750,-2.660
1743947107.376024,-0.516,-0.429,0.792,-3.010,-1.610,-2.590
1743947107.396024,-0.514,-0.430,0.791,-3.010,-1.330,-2.590
1743947107.384487,-0.509,-0.435,0.782,0.350,-3.150,-1.120
1743947107.404487,-0.508,-0.436,0.780,0.630,-3.150,-1.190
1743947107.424487,-0.508,-0.437,0.780,1.400,-3.080,-0.770
1743947107.444487,-0.505,-0.432,0.782,1.540,-2.730,-0.490
1743947107.464487,-0.509,-0.431,0.779,1.610,-2.800,-0.490
1743947107.484487,-0.511,-0.432,0.781,1.960,-2.660,-0.280
1743947107.489646,-0.522,-0.431,0.799,3.360,-3.220,0.070
1743947107.509646,-0.520,-0.429,0.801,2.450,-3.080,-0.210
1743947107.529646,-0.520,-0.430,0.802,1.470,-2.730,-0.700
1743947107.549646,-0.520,-0.429,0.802,0.560,-2.170,-1.050
1743947107.569646,-0.515,-0.429,0.799,-0.070,-2.030,-1.400
1743947107.589646,-0.514,-0.428,0.799,-0.840,-1.680,-1.540
1743947107.535323,-0.514,-0.434,0.790,1.190,-3.150,-1.050
1743947107.555323,-0.517,-0.435,0.787,1.260,-3.290,-0.980
1743947107.575323,-0.518,-0.434,0.790,1.190,-3.150,-1.260
1743947107.595323,-0.517,-0.432,0.792,0.560,-2.870,-1.330
1743947107.615323,-0.504,-0.433,0.788,0.350,-2.660,-1.120
1743947107.635323,-0.505,-0.435,0.786,0.420,-2.380,-0.980
1743947107.610346,-0.520,-0.429,0.796,4.620,-4.060,0.560
1743947107.630346,-0.520,-0.430,0.802,3.570,-3.570,0.210
1743947107.650346,-0.509,-0.429,0.800,2.730,-3.290,-0.630
1743947107.670346,-0.515,-0.428,0.802,1.540,-3.080,-1.330
1743947107.690346,-0.502,-0.430,0.803,0.280,-3.010,-0.770
1743947107.710346,-0.511,-0.431,0.793,0.630,-2.730,-0.840
1743947107.715333,-0.522,-0.426,0.808,-2.940,-1.330,-2.730
1743947107.735333,-0.515,-0.428,0.810,-4.060,-0.560,-3.500
1743947107.755333,-0.516,-0.431,0.801,-4.970,0.000,-3.990
1743947107.775333,-0.506,-0.433,0.793,-6.090,0.210,-3.920
1743947107.795333,-0.484,-0.433,0.782,-6.720,0.000,-3.360
1743947107.815333,-0.507,-0.443,0.767,-4.830,-0.210,-2.940
1743947107.790651,-0.523,-0.431,0.790,6.510,-5.250,1.050
1743947107.810651,-0.518,-0.432,0.793,5.880,-5.110,0.840
1743947107.830651,-0.516,-0.430,0.804,4.340,-3.990,0.490
1743947107.850651,-0.514,-0.430,0.804,2.170,-2.380,-0.280
1743947107.870651,-0.514,-0.426,0.803,0.700,-1.960,-0.980
1743947107.890651,-0.514,-0.427,0.795,-1.190,-0.630,-1.260
1743947107.893055,-0.515,-0.437,0.783,3.360,-2.520,0.980
1743947107.913055,-0.520,-0.435,0.788,4.550,-3.640,1.120
1743947107.933055,-0.520,-0.434,0.798,4.620,-4.060,0.910
1743947107.953055,-0.520,-0.433,0.798,3.780,-3.710,0.560
1743947107.973055,-0.520,-0.430,0.805,2.940,-2.590,-0.210
1743947107.993055,-0.519,-0.427,0.807,1.190,-2.240,-0.700
1743947107.970255,-0.507,-0.437,0.770,0.770,-1.890,0.420
1743947107.990255,-0.503,-0.430,0.769,2.100,-1.960,1.050
1743947108.010255,-0.514,-0.435,0.773,5.460,-2.870,0.770
1743947108.030255,-0.506,-0.440,0.784,4.410,-3.640,2.590
1743947108.050255,-0.504,-0.447,0.779,6.440,-3.640,2.940
1743947108.070255,-0.513,-0.431,0.777,7.700,-3.780,2.800
1743947108.029749,-0.529,-0.419,0.807,3.080,-1.680,0.630
1743947108.049749,-0.528,-0.416,0.809,1.820,-0.630,0.350
1743947108.069749,-0.529,-0.418,0.813,-0.630,0.070,-0.560
1743947108.089749,-0.527,-0.419,0.810,-1.750,0.840,-1.330
1743947108.109749,-0.527,-0.422,0.811,-3.780,1.400,-2.170
1743947108.129749,-0.523,-0.429,0.807,-4.760,1.610,-2.870
1743947108.104429,-0.531,-0.432,0.770,2.800,-2.870,-0.280
1743947108.124429,-0.526,-0.422,0.773,2.310,-3.500,-0.070
1743947108.144429,-0.522,-0.433,0.784,2.450,-3.150,0.210
1743947108.164429,-0.524,-0.435,0.795,2.730,-2.940,0.000
1743947108.184429,-0.524,-0.427,0.801,0.630,-2.380,-1.050
1743947108.204429,-0.520,-0.428,0.800,-0.980,-1.540,-1.400
1743947108.195379,-0.509,-0.436,0.753,6.020,-1.960,3.780
1743947108.215379,-0.518,-0.432,0.768,9.240,-3.220,4.060
1743947108.235379,-0.524,-0.430,0.784,10.500,-3.990,4.410
1743947108.255379,-0.532,-0.427,0.799,10.080,-4.060,3.920
1743947108.275379,-0.534,-0.427,0.806,9.380,-3.640,2.730
1743947108.295379,-0.534,-0.420,0.817,6.510,-3.080,2.310
1743947108.285347,-0.518,-0.428,0.768,-2.030,1.610,0.280
1743947108.305347,-0.521,-0.430,0.763,-0.280,1.050,1.260
1743947108.325347,-0.522,-0.430,0.767,2.030,0.000,1.400
1743947108.345347,-0.524,-0.430,0.773,3.010,-0.770,1.820
1743947108.365347,-0.527,-0.430,0.780,3.990,-1.400,2.030
1743947108.385347,-0.529,-0.430,0.781,4.130,-1.610,1.890
1743947108.404697,-0.521,-0.420,0.766,4.410,1.540,3.500
1743947108.424697,-0.528,-0.422,0.766,5.950,1.120,4.060
1743947108.444697,-0.534,-0.426,0.774,6.370,0.980,4.270
1743947108.464697,-0.535,-0.426,0.780,6.650,0.840,4.060
1743947108.484697,-0.536,-0.421,0.795,6.020,0.070,3.220
1743947108.504697,-0.525,-0.419,0.794,3.850,0.490,2.660
1743947108.523894,-0.533,-0.408,0.779,7.910,-0.630,3.780
1743947108.543894,-0.548,-0.410,0.781,7.140,-1.190,3.640
1743947108.563894,-0.554,-0.410,0.794,6.650,-1.330,2.870
1743947108.583894,-0.553,-0.402,0.806,1.610,0.350,0.140
1743947108.603894,-0.537,-0.407,0.800,-3.220,3.220,-1.330
1743947108.623894,-0.519,-0.421,0.777,-9.030,2.310,-1.610
1743947108.674419,-0.538,-0.413,0.788,8.050,-5.390,1.540
1743947108.694419,-0.543,-0.407,0.799,6.370,-5.040,1.190
1743947108.714419,-0.543,-0.401,0.795,3.500,-3.430,0.560
1743947108.734419,-0.537,-0.406,0.779,0.630,-1.540,0.070
1743947108.754419,-0.536,-0.412,0.773,2.870,-1.680,1.050
1743947108.774419,-0.535,-0.408,0.774,5.110,-2.380,2.100
1743947108.765269,-0.550,-0.400,0.793,5.530,-2.730,2.170
1743947108.785269,-0.546,-0.402,0.793,5.250,-2.450,1.960
1743947108.805269,-0.545,-0.400,0.794,4.340,-2.100,1.330
1743947108.825269,-0.548,-0.401,0.794,1.890,-1.540,0.770
1743947108.845269,-0.549,-0.400,0.794,0.630,-1.330,-0.070
1743947108.865269,-0.542,-0.405,0.784,0.840,-1.820,-0.210
1743947108.885060,-0.542,-0.400,0.781,1.820,-2.520,-0.070
1743947108.905060,-0.542,-0.400,0.783,1.820,-2.170,0.000
1743947108.925060,-0.540,-0.401,0.781,1.680,-2.100,0.140
1743947108.945060,-0.538,-0.402,0.777,2.310,-2.100,0.560
1743947108.965060,-0.518,-0.405,0.781,2.800,-2.240,0.980
1743947108.985060,-0.526,-0.399,0.762,7.210,-3.500,3.850
1743947108.989520,-0.569,-0.384,0.806,0.910,0.560,0.700
1743947109.009520,-0.574,-0.389,0.807,0.490,0.070,0.280
1743947109.029520,-0.570,-0.395,0.806,-1.190,-0.210,-0.840
1743947109.049520,-0.557,-0.394,0.799,-2.590,-1.330,-2.380
1743947109.069520,-0.536,-0.400,0.790,-2.310,-2.030,-2.380
1743947109.089520,-0.537,-0.399,0.772,-0.350,-3.430,-0.980
1743947109.125292,-0.557,-0.397,0.790,-4.690,-2.590,-3.780
1743947109.145292,-0.568,-0.397,0.778,-2.030,-2.240,-4.340
1743947109.165292,-0.546,-0.396,0.781,-2.380,-2.520,-3.990
1743947109.185292,-0.531,-0.400,0.775,-3.220,-2.170,-3.150
1743947109.205292,-0.526,-0.405,0.759,-0.700,-1.750,-1.050
1743947109.225292,-0.535,-0.406,0.764,4.830,-2.590,1.330
1743947109.274593,-0.568,-0.404,0.785,2.800,-3.570,-0.700
1743947109.294593,-0.555,-0.434,0.782,1.540,-3.990,1.260
1743947109.314593,-0.523,-0.415,0.782,3.710,-4.340,0.420
1743947109.334593,-0.530,-0.394,0.770,6.230,-3.570,2.450
1743947109.354593,-0.555,-0.386,0.804,2.870,-1.610,1.400
1743947109.374593,-0.580,-0.391,0.817,-1.680,-0.420,-2.170
1743947109.350974,-0.547,-0.405,0.768,0.140,-2.520,-4.410
1743947109.370974,-0.515,-0.392,0.808,-2.100,-2.520,-4.130
1743947109.390974,-0.500,-0.398,0.767,-4.970,-0.910,-2.310
1743947109.410974,-0.533,-0.408,0.872,4.060,-3.010,0.420
1743947109.430974,-0.551,-0.401,0.804,3.430,-5.670,0.980
1743947109.450974,-0.561,-0.396,0.805,-1.610,-2.030,-2.170
1743947109.484660,-0.528,-0.404,0.766,-0.280,-2.100,-1.960
1743947109.504660,-0.526,-0.400,0.774,0.350,-1.890,-0.700
1743947109.524660,-0.524,-0.402,0.759,1.190,-1.540,0.630
1743947109.544660,-0.529,-0.405,0.773,6.720,-2.590,2.170
1743947109.564660,-0.543,-0.402,0.787,6.510,-2.310,2.520
1743947109.584660,-0.546,-0.401,0.791,6.370,-3.080,1.890
1743947109.605454,-0.559,-0.388,0.804,-4.550,-1.120,-2.730
1743947109.625454,-0.557,-0.401,0.791,-4.130,-1.750,-3.360
1743947109.645454,-0.548,-0.396,0.789,-3.850,-2.660,-2.730
1743947109.665454,-0.542,-0.406,0.790,-2.030,-3.010,-2.940
1743947109.685454,-0.536,-0.406,0.784,-2.240,-2.660,-2.870
1743947109.705454,-0.543,-0.404,0.778,17.780,-4.130,-1.750
1743947109.728117,-0.543,-0.399,0.779,-1.190,-2.170,-2.520
1743947109.748117,-0.540,-0.404,0.777,-0.630,-2.100,-2.030
1743947109.768117,-0.535,-0.407,0.773,-0.980,-2.380,-1.680
1743947109.788117,-0.525,-0.407,0.765,2.100,-2.800,0.070
1743947109.808117,-0.533,-0.403,0.779,4.270,-2.660,1.610
1743947109.828117,-0.547,-0.399,0.788,3.220,-1.190,0.980
1743947109.874573,-0.554,-0.397,0.797,-0.070,-2.940,-1.680
1743947109.894573,-0.549,-0.399,0.795,-0.490,-2.870,-1.680
1743947109.914573,-0.544,-0.400,0.789,-0.700,-2.870,-1.890
1743947109.934573,-0.538,-0.401,0.786,-0.210,-3.010,-1.610
1743947109.954573,-0.541,-0.402,0.782,0.350,-3.360,-1.190
1743947109.974573,-0.542,-0.401,0.784,0.630,-3.010,-1.190
1743947109.964387,-0.529,-0.393,0.765,3.780,-2.730,1.890
1743947109.984387,-0.553,-0.416,0.773,3.290,-2.450,1.890
1743947110.004387,-0.536,-0.408,0.774,6.230,-2.520,2.450
1743947110.024387,-0.558,-0.390,0.791,5.880,-2.030,3.010
1743947110.044387,-0.568,-0.393,0.809,1.750,-0.980,0.630
1743947110.064387,-0.560,-0.397,0.811,-0.350,-2.520,-1.120
1743947110.069783,-0.549,-0.393,0.793,-1.960,-2.940,-2.520
1743947110.089783,-0.551,-0.397,0.799,-1.820,-2.940,-3.220
1743947110.109783,-0.565,-0.396,0.796,-2.520,-3.220,-3.780
1743947110.129783,-0.550,-0.405,0.773,-2.030,-3.430,-3.920
1743947110.149783,-0.536,-0.399,0.774,-1.190,-3.010,-2.800
1743947110.169783,-0.533,-0.400,0.766,-0.280,-2.870,-1.610
1743947110.204738,-0.536,-0.403,0.780,2.380,-1.540,0.210
1743947110.224738,-0.539,-0.404,0.779,2.730,-1.540,0.490
1743947110.244738,-0.538,-0.403,0.781,3.710,-1.820,1.050
1743947110.264738,-0.544,-0.395,0.790,3.080,-0.910,0.910
1743947110.284738,-0.555,-0.399,0.795,2.100,-1.400,0.420
1743947110.304738,-0.529,-0.417,0.791,1.960,-4.340,0.910
1743947110.324782,-0.556,-0.386,0.797,0.630,-2.310,-0.700
1743947110.344782,-0.562,-0.390,0.797,-0.700,-1.540,-1.120
1743947110.364782,-0.558,-0.396,0.801,-2.100,-0.980,-1.820
1743947110.384782,-0.547,-0.405,0.790,-1.960,-2.170,-2.310
1743947110.404782,-0.534,-0.397,0.780,-0.630,-1.820,-1.890
1743947110.424782,-0.534,-0.398,0.772,0.210,-0.910,-0.630
1743947110.474844,-0.546,-0.402,0.783,2.590,-3.710,0.000
1743947110.494844,-0.540,-0.400,0.784,2.870,-3.920,0.070
1743947110.514844,-0.540,-0.397,0.786,2.800,-3.850,0.070
1743947110.534844,-0.544,-0.391,0.792,1.400,-2.590,-0.280
1743947110.554844,-0.543,-0.399,0.793,0.910,-2.100,-0.490
1743947110.574844,-0.548,-0.398,0.786,1.470,-2.660,-0.490
1743947110.564901,-0.549,-0.393,0.794,0.770,-0.770,-0.210
1743947110.584901,-0.554,-0.395,0.798,0.140,-0.630,-0.630
1743947110.604901,-0.556,-0.402,0.801,-0.350,-1.050,-0.980
1743947110.624901,-0.557,-0.403,0.796,0.070,-3.780,-1.890
1743947110.644901,-0.537,-0.398,0.782,-0.210,-3.360,-1.820
1743947110.664901,-0.542,-0.394,0.781,1.610,-3.220,-0.560
1743947110.700260,-0.551,-0.403,0.795,-0.560,-2.800,-1.750
1743947110.720260,-0.551,-0.403,0.792,-0.770,-3.010,-1.890
1743947110.740260,-0.543,-0.401,0.788,-0.770,-3.010,-1.890
1743947110.760260,-0.533,-0.402,0.772,0.420,-3.010,-1.050
1743947110.780260,-0.536,-0.396,0.777,2.100,-2.450,-0.140
1743947110.800260,-0.547,-0.395,0.783,1.470,-1.680,-0.140
1743947110.804759,-0.545,-0.398,0.786,0.840,-2.660,-0.910
1743947110.824759,-0.544,-0.398,0.784,0.910,-2.660,-0.770
1743947110.844759,-0.542,-0.399,0.784,1.120,-2.590,-0.700
1743947110.864759,-0.537,-0.396,0.786,1.330,-2.450,-0.280
1743947110.884759,-0.548,-0.399,0.789,0.910,-1.890,-0.490
1743947110.904759,-0.550,-0.400,0.789,1.120,-2.730,-0.770
1743947110.926685,-0.540,-0.399,0.784,1.050,-2.520,-0.840
1743947110.946685,-0.539,-0.398,0.784,0.980,-2.170,-0.700
1743947110.966685,-0.540,-0.399,0.787,0.630,-1.960,-0.770
1743947110.986685,-0.544,-0.401,0.783,0.910,-2.170,-0.770
1743947111.006685,-0.543,-0.397,0.785,2.100,-3.150,-0.210
1743947111.026685,-0.548,-0.396,0.783,1.330,-2.240,-0.490
1743947111.058231,-0.540,-0.401,0.788,0.490,-2.590,-0.980
1743947111.078231,-0.541,-0.401,0.784,0.910,-2.870,-0.840
1743947111.098231,-0.542,-0.401,0.784,1.330,-3.010,-0.700
1743947111.118231,-0.537,-0.396,0.781,1.400,-2.380,-0.420
1743947111.138231,-0.545,-0.399,0.787,1.260,-1.960,-0.280
1743947111.158231,-0.553,-0.399,0.791,1.120,-2.520,-0.770
1743947111.164594,-0.541,-0.396,0.781,0.980,-2.730,-0.840
1743947111.184594,-0.543,-0.396,0.785,0.910,-2.450,-0.700
1743947111.204594,-0.542,-0.397,0.783,1.050,-2.240,-0.490
1743947111.224594,-0.545,-0.398,0.785,1.750,-2.590,-0.350
1743947111.244594,-0.547,-0.397,0.785,1.120,-2.380,-0.560
1743947111.264594,-0.547,-0.397,0.786,0.980,-2.310,-0.700
1743947111.285467,-0.545,-0.401,0.784,0.770,-2.590,-0.700
1743947111.305467,-0.546,-0.400,0.786,0.910,-2.590,-0.770
1743947111.325467,-0.547,-0.398,0.787,0.840,-2.590,-0.630
1743947111.345467,-0.546,-0.398,0.786,0.910,-2.520,-0.630
1743947111.365467,-0.546,-0.398,0.788,0.980,-2.450,-0.770
1743947111.385467,-0.545,-0.398,0.786,0.700,-2.450,-0.840
1743947111.405710,-0.543,-0.398,0.787,1.050,-2.240,-0.420
1743947111.425710,-0.543,-0.399,0.788,1.050,-2.380,-0.700
1743947111.445710,-0.545,-0.398,0.788,0.980,-2.310,-0.700
1743947111.465710,-0.546,-0.398,0.786,1.050,-2.520,-0.560
1743947111.485710,-0.544,-0.398,0.786,0.770,-2.520,-0.700
1743947111.505710,-0.545,-0.398,0.788,0.980,-2.450,-0.770
1743947111.538626,-0.544,-0.397,0.786,1.190,-2.380,-0.560
1743947111.558626,-0.546,-0.399,0.784,1.190,-2.520,-0.560
1743947111.578626,-0.547,-0.400,0.785,1.190,-2.590,-0.560
1743947111.598626,-0.548,-0.398,0.787,1.120,-2.380,-0.700
1743947111.618626,-0.547,-0.395,0.787,0.910,-2.240,-0.560
1743947111.638626,-0.548,-0.396,0.788,0.770,-2.310,-0.700
1743947111.658642,-0.545,-0.400,0.786,0.840,-2.450,-0.910
1743947111.678642,-0.545,-0.397,0.785,0.980,-2.450,-0.770
1743947111.698642,-0.546,-0.398,0.784,1.050,-2.520,-0.840
1743947111.718642,-0.545,-0.396,0.786,1.050,-2.660,-0.770
1743947111.738642,-0.544,-0.397,0.783,1.050,-2.590,-0.840
1743947111.758642,-0.546,-0.398,0.786,0.910,-2.590,-0.840
1743947111.765565,-0.545,-0.400,0.785,0.840,-2.100,-0.630
1743947111.785565,-0.545,-0.400,0.787,0.840,-2.310,-0.700
1743947111.805565,-0.547,-0.399,0.785,1.330,-2.520,-0.560
1743947111.825565,-0.544,-0.398,0.786,0.910,-2.450,-0.770
1743947111.845565,-0.546,-0.399,0.785,0.980,-2.590,-0.700
1743947111.865565,-0.545,-0.398,0.787,0.770,-2.520,-0.770
1743947111.885361,-0.546,-0.396,0.788,0.980,-2.520,-0.700
1743947111.905361,-0.546,-0.399,0.786,1.050,-2.520,-0.700
1743947111.925361,-0.545,-0.398,0.783,1.120,-2.520,-0.700
1743947111.945361,-0.544,-0.397,0.788,1.120,-2.520,-0.630
1743947111.965361,-0.547,-0.397,0.786,0.980,-2.660,-0.700
1743947111.985361,-0.546,-0.397,0.786,1.120,-2.590,-0.700
1743947112.005608,-0.543,-0.398,0.784,0.980,-2.520,-0.630
1743947112.025608,-0.542,-0.398,0.785,0.980,-2.590,-0.700
1743947112.045608,-0.547,-0.397,0.786,0.980,-2.520,-0.630
1743947112.065608,-0.543,-0.396,0.786,1.120,-2.240,-0.560
1743947112.085608,-0.546,-0.397,0.787,1.120,-2.170,-0.560
1743947112.105608,-0.547,-0.397,0.787,1.190,-2.240,-0.700
1743947112.125479,-0.545,-0.395,0.785,1.400,-2.240,-0.280
1743947112.145479,-0.545,-0.395,0.784,1.190,-2.030,-0.420
1743947112.165479,-0.548,-0.397,0.786,0.980,-2.100,-0.350
1743947112.185479,-0.548,-0.398,0.788,0.840,-2.310,-0.560
1743947112.205479,-0.549,-0.398,0.789,0.630,-2.450,-0.980
1743947112.225479,-0.545,-0.397,0.787,0.770,-2.660,-0.840
1743947112.244971,-0.549,-0.396,0.789,0.840,-2.590,-0.840
1743947112.264971,-0.551,-0.396,0.793,0.490,-2.660,-1.050
1743947112.284971,-0.551,-0.395,0.788,0.630,-2.660,-0.980
1743947112.304971,-0.543,-0.399,0.785,0.420,-2.800,-1.050
1743947112.324971,-0.542,-0.398,0.784,0.770,-2.450,-0.910
1743947112.344971,-0.545,-0.397,0.785,0.980,-2.170,-0.560
1743947112.365293,-0.548,-0.401,0.789,0.420,-2.310,-1.050
1743947112.385293,-0.546,-0.398,0.785,0.700,-2.590,-1.050
1743947112.405293,-0.543,-0.397,0.786,0.840,-2.730,-0.980
1743947112.425293,-0.543,-0.398,0.781,0.840,-2.520,-0.770
1743947112.445293,-0.546,-0.397,0.786,1.400,-3.010,-0.630
1743947112.465293,-0.549,-0.396,0.787,1.190,-2.730,-0.630
1743947112.485501,-0.544,-0.395,0.788,0.980,-1.960,-0.560
1743947112.505501,-0.543,-0.397,0.789,0.980,-1.890,-0.560
1743947112.525501,-0.543,-0.398,0.785,1.050,-2.030,-0.420
1743947112.545501,-0.547,-0.396,0.789,1.470,-2.520,-0.420
1743947112.565501,-0.549,-0.397,0.789,1.050,-2.590,-0.770
1743947112.585501,-0.547,-0.396,0.790,0.420,-2.380,-1.120
1743947112.605254,-0.541,-0.397,0.783,1.050,-2.590,-0.630
1743947112.625254,-0.542,-0.400,0.783,1.260,-2.590,-0.420
1743947112.645254,-0.542,-0.398,0.786,1.330,-2.310,-0.350
1743947112.665254,-0.544,-0.398,0.785,1.540,-2.450,-0.420
1743947112.685254,-0.548,-0.395,0.786,1.400,-2.450,-0.490
1743947112.705254,-0.546,-0.393,0.787,1.120,-2.240,-0.560
1743947112.725578,-0.544,-0.394,0.790,0.980,-1.960,-0.420
1743947112.745578,-0.547,-0.397,0.789,1.050,-1.960,-0.350
1743947112.765578,-0.546,-0.397,0.786,1.120,-2.100,-0.420
1743947112.785578,-0.549,-0.395,0.789,0.770,-2.170,-0.630
1743947112.805578,-0.549,-0.398,0.788,0.770,-2.660,-0.770
1743947112.825578,-0.546,-0.396,0.784,0.980,-2.660,-0.910
1743947112.845213,-0.548,-0.397,0.786,0.980,-2.520,-0.700
1743947112.865213,-0.548,-0.398,0.789,0.910,-2.520,-0.770
1743947112.885213,-0.544,-0.394,0.787,1.050,-2.730,-0.700
1743947112.905213,-0.543,-0.395,0.787,1.540,-3.010,-0.560
1743947112.925213,-0.545,-0.392,0.784,1.610,-2.590,-0.350
1743947112.945213,-0.549,-0.397,0.790,1.260,-2.240,-0.560
1743947112.964973,-0.544,-0.395,0.784,0.840,-2.310,-0.770
1743947112.984973,-0.543,-0.396,0.783,1.050,-2.170,-0.700
1743947113.004973,-0.543,-0.398,0.787,0.840,-2.100,-0.560
1743947113.024973,-0.546,-0.393,0.787,0.700,-2.170,-0.630
1743947113.044973,-0.551,-0.397,0.791,0.770,-2.380,-0.770
1743947113.064973,-0.545,-0.394,0.786,0.770,-2.660,-0.980
1743947113.085546,-0.546,-0.397,0.785,0.910,-2.100,-0.420
1743947113.105546,-0.545,-0.399,0.788,1.050,-2.310,-0.630
1743947113.125546,-0.547,-0.398,0.788,1.190,-2.310,-0.490
1743947113.145546,-0.546,-0.397,0.785,1.260,-2.450,-0.630
1743947113.165546,-0.545,-0.396,0.788,1.050,-2.100,-0.560
1743947113.185546,-0.548,-0.396,0.789,0.840,-2.100,-0.630
1743947113.205303,-0.545,-0.396,0.786,1.050,-2.660,-0.700
1743947113.225303,-0.544,-0.396,0.788,0.980,-2.590,-0.700
1743947113.245303,-0.546,-0.394,0.784,0.980,-2.450,-0.630
1743947113.265303,-0.548,-0.393,0.788,0.910,-2.380,-0.700
1743947113.285303,-0.547,-0.394,0.788,0.840,-2.590,-0.840
1743947113.305303,-0.547,-0.395,0.789,0.840,-2.450,-0.770
1743947113.325353,-0.547,-0.393,0.785,1.190,-2.520,-0.490
1743947113.345353,-0.547,-0.395,0.785,1.190,-2.450,-0.490
1743947113.365353,-0.548,-0.395,0.789,1.190,-2.380,-0.560
1743947113.385353,-0.547,-0.393,0.786,1.050,-2.310,-0.630
1743947113.405353,-0.547,-0.396,0.785,1.050,-2.380,-0.700
1743947113.425353,-0.546,-0.394,0.785,0.910,-2.240,-0.700
1743947113.430674,-0.548,-0.394,0.787,0.840,-2.380,-0.700
1743947113.450674,-0.549,-0.394,0.785,0.980,-2.520,-0.700
1743947113.470674,-0.549,-0.394,0.785,0.980,-2.310,-0.700
1743947113.490674,-0.547,-0.396,0.788,0.840,-2.380,-0.700
1743947113.510674,-0.547,-0.396,0.788,0.770,-2.380,-0.700
1743947113.530674,-0.548,-0.395,0.786,0.910,-2.310,-0.770
1743947113.565265,-0.549,-0.393,0.787,1.400,-2.590,-0.490
1743947113.585265,-0.549,-0.394,0.787,1.330,-2.520,-0.420
1743947113.605265,-0.548,-0.392,0.786,1.120,-2.310,-0.490
1743947113.625265,-0.551,-0.396,0.788,0.700,-2.100,-0.840
1743947113.645265,-0.548,-0.396,0.789,0.840,-2.590,-0.910
1743947113.665265,-0.545,-0.393,0.785,1.120,-2.730,-0.700
1743947113.670602,-0.551,-0.393,0.786,1.120,-2.450,-0.630
1743947113.690602,-0.550,-0.393,0.787,0.840,-2.310,-0.630
1743947113.710602,-0.548,-0.396,0.788,0.910,-2.380,-0.770
1743947113.730602,-0.547,-0.395,0.788,0.980,-2.590,-0.770
1743947113.750602,-0.547,-0.391,0.784,1.190,-2.520,-0.630
1743947113.770602,-0.546,-0.395,0.788,1.190,-2.240,-0.560
1743947113.790464,-0.549,-0.394,0.786,0.980,-2.520,-0.770
1743947113.810464,-0.549,-0.394,0.786,0.840,-2.450,-0.840
1743947113.830464,-0.549,-0.394,0.788,0.770,-2.380,-0.840
1743947113.850464,-0.550,-0.395,0.785,0.840,-2.380,-0.700
1743947113.870464,-0.549,-0.395,0.786,0.700,-2.380,-0.770
1743947113.890464,-0.547,-0.395,0.786,0.980,-2.520,-0.840
1743947113.928192,-0.549,-0.393,0.787,1.190,-2.450,-0.700
1743947113.948192,-0.548,-0.392,0.788,1.120,-2.240,-0.770
1743947113.968192,-0.548,-0.393,0.788,0.700,-2.170,-0.840
1743947113.988192,-0.549,-0.396,0.789,0.700,-2.310,-0.910
1743947114.008192,-0.546,-0.395,0.784,1.050,-2.590,-0.700
1743947114.028192,-0.546,-0.393,0.786,1.470,-2.520,-0.490
1743947114.044932,-0.550,-0.394,0.788,0.630,-2.590,-1.050
1743947114.064932,-0.550,-0.395,0.789,0.560,-2.660,-1.050
1743947114.084932,-0.549,-0.393,0.786,0.630,-2.590,-0.980
1743947114.104932,-0.545,-0.394,0.782,0.840,-2.450,-0.770
1743947114.124932,-0.547,-0.395,0.785,0.980,-2.240,-0.700
1743947114.144932,-0.551,-0.394,0.787,0.910,-2.380,-0.910
1743947114.165903,-0.547,-0.393,0.785,0.910,-2.380,-0.770
1743947114.185903,-0.545,-0.393,0.785,0.980,-2.450,-0.700
1743947114.205903,-0.547,-0.394,0.785,1.190,-2.520,-0.700
1743947114.225903,-0.549,-0.395,0.786,1.260,-2.450,-0.700
1743947114.245903,-0.546,-0.395,0.788,0.910,-2.450,-0.770
1743947114.265903,-0.549,-0.396,0.787,0.980,-2.660,-0.840
1743947114.285624,-0.548,-0.394,0.788,0.700,-2.380,-0.770
1743947114.305624,-0.549,-0.393,0.786,0.770,-2.450,-0.840
1743947114.325624,-0.548,-0.396,0.788,0.630,-2.380,-0.770
1743947114.345624,-0.546,-0.393,0.786,0.840,-2.520,-0.770
1743947114.365624,-0.546,-0.392,0.785,0.980,-2.380,-0.700
1743947114.385624,-0.548,-0.396,0.786,1.050,-2.450,-0.630
1743947114.397830,-0.547,-0.395,0.786,1.120,-2.380,-0.630
1743947114.417830,-0.549,-0.394,0.787,1.120,-2.520,-0.630
1743947114.437830,-0.548,-0.393,0.788,1.120,-2.520,-0.560
1743947114.457830,-0.549,-0.394,0.785,1.190,-2.660,-0.700
1743947114.477830,-0.548,-0.393,0.788,1.050,-2.590,-0.700
1743947114.497830,-0.547,-0.391,0.787,0.910,-2.380,-0.700
1743947114.540111,-0.549,-0.394,0.788,1.050,-2.240,-0.630
1743947114.560111,-0.549,-0.394,0.788,1.120,-2.450,-0.630
1743947114.580111,-0.548,-0.394,0.788,1.050,-2.590,-0.630
1743947114.600111,-0.549,-0.395,0.785,1.120,-2.520,-0.490
1743947114.620111,-0.548,-0.395,0.788,0.770,-2.310,-0.770
1743947114.640111,-0.548,-0.390,0.786,0.980,-2.520,-0.700
1743947114.645044,-0.548,-0.393,0.786,1.050,-2.310,-0.630
1743947114.665044,-0.548,-0.394,0.788,0.980,-2.310,-0.560
1743947114.685044,-0.549,-0.394,0.787,0.980,-2.450,-0.700
1743947114.705044,-0.547,-0.396,0.785,0.910,-2.450,-0.770
1743947114.725044,-0.549,-0.391,0.784,0.910,-2.450,-0.700
1743947114.745044,-0.549,-0.392,0.784,0.840,-2.310,-0.700
1743947114.764783,-0.548,-0.393,0.786,1.120,-2.590,-0.700
1743947114.784783,-0.548,-0.395,0.785,0.770,-2.450,-0.700
1743947114.804783,-0.548,-0.393,0.786,1.050,-2.380,-0.560
1743947114.824783,-0.548,-0.394,0.785,0.980,-2.240,-0.490
1743947114.844783,-0.550,-0.393,0.786,1.050,-2.450,-0.630
1743947114.864783,-0.551,-0.395,0.789,1.050,-2.450,-0.630
1743947114.885172,-0.552,-0.393,0.786,0.980,-2.380,-0.700
1743947114.905172,-0.549,-0.393,0.791,0.910,-2.380,-0.700
1743947114.925172,-0.551,-0.394,0.787,0.980,-2.380,-0.700
1743947114.945172,-0.549,-0.392,0.787,0.700,-2.380,-0.770
1743947114.965172,-0.550,-0.394,0.786,0.770,-2.450,-0.840
1743947114.985172,-0.547,-0.390,0.785,0.770,-2.380,-0.700
1743947115.005674,-0.548,-0.391,0.786,0.840,-2.450,-0.770
1743947115.025674,-0.549,-0.396,0.786,0.910,-2.450,-0.910
1743947115.045674,-0.546,-0.393,0.786,0.910,-2.380,-0.770
1743947115.065674,-0.549,-0.393,0.785,0.840,-2.240,-0.700
1743947115.085674,-0.548,-0.393,0.787,0.840,-2.240,-0.560
1743947115.105674,-0.550,-0.392,0.787,0.980,-2.450,-0.700
1743947115.125672,-0.549,-0.391,0.785,1.050,-2.380,-0.560
1743947115.145672,-0.550,-0.393,0.787,1.120,-2.380,-0.700
1743947115.165672,-0.550,-0.392,0.787,0.910,-2.310,-0.770
1743947115.185672,-0.551,-0.395,0.785,0.980,-2.590,-0.770
1743947115.205672,-0.549,-0.393,0.786,1.050,-2.590,-0.630
1743947115.225672,-0.549,-0.393,0.785,0.980,-2.450,-0.630
1743947115.244865,-0.548,-0.392,0.785,1.050,-2.520,-0.700
1743947115.264865,-0.548,-0.394,0.787,1.050,-2.590,-0.700
1743947115.284865,-0.550,-0.392,0.785,1.120,-2.590,-0.630
1743947115.304865,-0.549,-0.393,0.787,0.980,-2.450,-0.770
1743947115.324865,-0.549,-0.392,0.789,1.120,-2.380,-0.840
1743947115.344865,-0.550,-0.391,0.785,0.910,-2.450,-0.630
1743947115.365678,-0.550,-0.392,0.785,0.980,-2.380,-0.630
1743947115.385678,-0.549,-0.392,0.786,1.050,-2.520,-0.630
1743947115.405678,-0.549,-0.392,0.785,1.120,-2.590,-0.700
1743947115.425678,-0.550,-0.393,0.788,1.120,-2.590,-0.560
1743947115.445678,-0.549,-0.394,0.783,1.050,-2.520,-0.630
1743947115.465678,-0.550,-0.394,0.788,1.120,-2.450,-0.700
1743947115.485165,-0.548,-0.394,0.784,0.910,-2.450,-0.770
1743947115.505165,-0.549,-0.392,0.785,0.910,-2.380,-0.700
1743947115.525165,-0.547,-0.391,0.786,1.050,-2.590,-0.700
1743947115.545165,-0.550,-0.392,0.788,1.120,-2.660,-0.770
1743947115.565165,-0.549,-0.394,0.790,1.190,-2.450,-0.630
1743947115.585165,-0.551,-0.393,0.787,0.910,-2.380,-0.630
1743947115.604917,-0.549,-0.392,0.788,0.630,-2.310,-0.770
1743947115.624917,-0.549,-0.391,0.787,0.910,-2.520,-0.700
1743947115.644917,-0.549,-0.392,0.786,0.910,-2.450,-0.910
1743947115.664917,-0.548,-0.392,0.785,0.980,-2.520,-0.700
1743947115.684917,-0.549,-0.392,0.786,1.260,-2.730,-0.630
1743947115.704917,-0.550,-0.393,0.787,1.190,-2.520,-0.700
1743947115.724993,-0.545,-0.394,0.787,0.840,-2.310,-0.840
1743947115.744993,-0.545,-0.392,0.785,0.910,-2.310,-0.770
1743947115.764993,-0.548,-0.393,0.786,1.050,-2.380,-0.560
1743947115.784993,-0.549,-0.394,0.786,1.260,-2.520,-0.560
1743947115.804993,-0.549,-0.390,0.787,1.330,-2.660,-0.490
1743947115.824993,-0.549,-0.389,0.787,1.050,-2.380,-0.560
1743947115.845044,-0.547,-0.393,0.788,1.050,-2.590,-0.770
1743947115.865044,-0.549,-0.391,0.788,1.050,-2.590,-0.770
1743947115.885044,-0.547,-0.390,0.785,0.980,-2.730,-0.770
1743947115.905044,-0.547,-0.394,0.787,1.120,-2.380,-0.630
1743947115.925044,-0.550,-0.392,0.788,1.050,-2.380,-0.560
1743947115.945044,-0.550,-0.392,0.784,1.050,-2.520,-0.840
1743947115.965891,-0.548,-0.392,0.787,1.050,-2.450,-0.630
1743947115.985891,-0.549,-0.393,0.788,1.120,-2.450,-0.770
1743947116.005891,-0.550,-0.390,0.786,1.050,-2.520,-0.630
1743947116.025891,-0.548,-0.391,0.785,1.120,-2.450,-0.700
1743947116.045891,-0.546,-0.392,0.786,1.120,-2.380,-0.700
1743947116.065891,-0.548,-0.390,0.786,1.120,-2.520,-0.560
1743947116.085554,-0.550,-0.392,0.788,1.190,-2.520,-0.700
1743947116.105554,-0.549,-0.392,0.788,1.050,-2.520,-0.630
1743947116.125554,-0.549,-0.392,0.786,1.190,-2.590,-0.560
1743947116.145554,-0.549,-0.391,0.787,1.190,-2.520,-0.630
1743947116.165554,-0.549,-0.389,0.787,1.190,-2.590,-0.630
1743947116.185554,-0.549,-0.389,0.787,1.120,-2.310,-0.490
1743947116.205823,-0.549,-0.393,0.788,1.050,-2.800,-0.770
1743947116.225823,-0.548,-0.391,0.787,1.120,-2.870,-0.840
1743947116.245823,-0.546,-0.390,0.787,1.190,-2.730,-0.560
1743947116.265823,-0.547,-0.389,0.785,0.980,-2.240,-0.630
1743947116.285823,-0.553,-0.390,0.789,1.120,-2.380,-0.700
1743947116.305823,-0.550,-0.393,0.790,0.980,-2.660,-0.980
1743947116.310129,-0.551,-0.389,0.784,1.190,-2.590,-0.770
1743947116.330129,-0.549,-0.393,0.786,1.120,-2.450,-0.560
1743947116.350129,-0.549,-0.390,0.788,0.770,-2.310,-0.770
1743947116.370129,-0.549,-0.390,0.785,0.980,-2.450,-0.630
1743947116.390129,-0.549,-0.392,0.787,1.260,-2.730,-0.560
1743947116.410129,-0.548,-0.388,0.788,0.980,-2.240,-0.630
1743947116.445068,-0.551,-0.391,0.786,0.910,-2.450,-0.840
1743947116.465068,-0.550,-0.391,0.788,0.840,-2.520,-0.630
1743947116.485068,-0.549,-0.392,0.786,1.260,-2.870,-0.630
1743947116.505068,-0.549,-0.390,0.786,0.980,-2.520,-0.700
1743947116.525068,-0.550,-0.389,0.784,0.980,-2.380,-0.560
1743947116.545068,-0.551,-0.391,0.789,1.120,-2.590,-0.770
1743947116.565845,-0.553,-0.393,0.789,0.770,-2.310,-0.770
1743947116.585845,-0.549,-0.391,0.787,0.840,-2.310,-0.770
1743947116.605845,-0.549,-0.391,0.788,0.910,-2.450,-0.840
1743947116.625845,-0.549,-0.389,0.787,1.190,-2.660,-0.700
1743947116.645845,-0.549,-0.391,0.785,1.120,-2.520,-0.560
1743947116.665845,-0.550,-0.390,0.789,1.050,-2.590,-0.560
1743947116.685086,-0.550,-0.391,0.790,0.840,-2.450,-0.700
1743947116.705086,-0.549,-0.389,0.789,0.770,-2.240,-0.700
1743947116.725086,-0.550,-0.389,0.785,0.700,-2.170,-0.770
1743947116.745086,-0.549,-0.392,0.789,0.770,-2.170,-0.840
1743947116.765086,-0.551,-0.391,0.788,0.840,-2.450,-0.840
1743947116.785086,-0.550,-0.390,0.788,1.050,-2.730,-0.700
1743947116.805152,-0.550,-0.390,0.785,0.700,-2.240,-0.910
1743947116.825152,-0.551,-0.389,0.785,0.770,-2.310,-0.910
1743947116.845152,-0.549,-0.391,0.789,0.630,-2.380,-0.910
1743947116.865152,-0.549,-0.388,0.785,1.120,-2.870,-0.700
1743947116.885152,-0.548,-0.388,0.786,1.190,-2.520,-0.630
1743947116.905152,-0.549,-0.389,0.786,1.470,-2.520,-0.350
1743947116.924779,-0.550,-0.392,0.789,0.630,-2.520,-0.840
1743947116.944779,-0.550,-0.389,0.787,0.770,-2.520,-0.840
1743947116.964779,-0.548,-0.391,0.789,0.770,-2.520,-0.770
1743947116.984779,-0.546,-0.392,0.787,0.840,-2.660,-0.770
1743947117.004779,-0.548,-0.390,0.786,1.050,-2.660,-0.630
1743947117.024779,-0.549,-0.391,0.788,1.050,-2.450,-0.560
1743947117.045050,-0.552,-0.389,0.784,0.910,-2.520,-0.840
1743947117.065050,-0.549,-0.390,0.786,0.700,-2.450,-0.700
1743947117.085050,-0.547,-0.390,0.785,0.910,-2.240,-0.700
1743947117.105050,-0.549,-0.389,0.788,1.050,-2.450,-0.630
1743947117.125050,-0.550,-0.391,0.789,1.050,-2.590,-0.700
1743947117.145050,-0.549,-0.391,0.788,0.980,-2.520,-0.840
1743947117.164857,-0.549,-0.390,0.786,0.700,-2.310,-0.770
1743947117.184857,-0.547,-0.393,0.787,0.770,-2.450,-0.770
1743947117.204857,-0.546,-0.390,0.787,0.840,-2.590,-0.770
1743947117.224857,-0.549,-0.390,0.789,0.840,-2.380,-0.770
1743947117.244857,-0.549,-0.390,0.787,0.980,-2.520,-0.700
1743947117.264857,-0.548,-0.389,0.784,1.120,-2.450,-0.700
1743947117.285308,-0.549,-0.390,0.788,0.980,-2.310,-0.560
1743947117.305308,-0.550,-0.388,0.789,0.910,-2.310,-0.700
1743947117.325308,-0.550,-0.390,0.784,0.980,-2.450,-0.700
1743947117.345308,-0.550,-0.387,0.789,0.770,-2.520,-0.840
1743947117.365308,-0.549,-0.391,0.787,0.840,-2.590,-0.840
1743947117.385308,-0.549,-0.388,0.788,0.910,-2.450,-0.630
1743947117.463895,-0.549,-0.389,0.788,0.980,-2.590,-0.630
1743947117.483895,-0.551,-0.391,0.788,0.980,-2.590,-0.700
1743947117.503895,-0.549,-0.390,0.785,1.050,-2.520,-0.770
1743947117.523895,-0.545,-0.389,0.786,1.050,-2.380,-0.560
1743947117.543895,-0.550,-0.390,0.788,0.980,-2.170,-0.490
1743947117.563895,-0.550,-0.390,0.789,0.980,-2.450,-0.770
1743947117.525086,-0.549,-0.389,0.789,0.840,-2.380,-0.700
1743947117.545086,-0.549,-0.388,0.788,0.910,-2.380,-0.770
1743947117.565086,-0.549,-0.390,0.787,1.050,-2.450,-0.630
1743947117.585086,-0.549,-0.390,0.792,0.840,-2.310,-0.630
1743947117.605086,-0.548,-0.391,0.787,0.840,-2.450,-0.770
1743947117.625086,-0.549,-0.388,0.787,0.700,-2.450,-0.840
1743947117.630386,-0.549,-0.388,0.784,1.050,-2.520,-0.700
1743947117.650386,-0.549,-0.390,0.788,1.260,-2.520,-0.630
1743947117.670386,-0.549,-0.389,0.785,1.120,-2.520,-0.700
1743947117.690386,-0.549,-0.388,0.789,1.120,-2.240,-0.630
1743947117.710386,-0.550,-0.390,0.790,0.980,-2.310,-0.630
1743947117.730386,-0.551,-0.390,0.789,0.910,-2.310,-0.560
1743947117.765955,-0.549,-0.390,0.788,1.050,-2.660,-0.700
1743947117.785955,-0.549,-0.390,0.793,0.980,-2.520,-0.700
1743947117.805955,-0.547,-0.390,0.788,0.980,-2.380,-0.770
1743947117.825955,-0.547,-0.390,0.787,0.980,-2.240,-0.630
1743947117.845955,-0.550,-0.387,0.787,0.770,-2.100,-0.770
1743947117.865955,-0.549,-0.390,0.787,0.840,-2.310,-0.770
1743947117.885167,-0.550,-0.388,0.787,1.050,-2.450,-0.630
1743947117.905167,-0.550,-0.387,0.786,1.120,-2.380,-0.700
1743947117.925167,-0.549,-0.390,0.788,1.120,-2.380,-0.630
1743947117.945167,-0.550,-0.390,0.790,1.050,-2.240,-0.490
1743947117.965167,-0.550,-0.389,0.789,0.840,-2.380,-0.770
1743947117.985167,-0.548,-0.389,0.787,0.770,-2.240,-0.840
1743947118.036037,-0.551,-0.388,0.787,0.770,-2.240,-0.700
1743947118.056037,-0.552,-0.388,0.784,0.770,-2.310,-0.700
1743947118.076037,-0.550,-0.392,0.789,0.770,-2.590,-0.770
1743947118.096037,-0.552,-0.387,0.788,0.700,-2.590,-0.700
1743947118.116037,-0.552,-0.390,0.785,1.120,-2.940,-0.700
1743947118.136037,-0.541,-0.389,0.787,1.330,-2.450,-0.420
1743947118.139415,-0.549,-0.387,0.788,1.260,-2.380,-0.420
1743947118.159415,-0.549,-0.386,0.785,1.190,-2.310,-0.490
1743947118.179415,-0.548,-0.389,0.785,1.190,-2.030,-0.420
1743947118.199415,-0.548,-0.388,0.786,1.120,-1.680,-0.350
1743947118.219415,-0.551,-0.389,0.787,1.050,-1.400,-0.140
1743947118.239415,-0.553,-0.391,0.788,1.190,-1.750,-0.140
1743947118.245112,-0.549,-0.391,0.786,0.980,-1.820,-0.140
1743947118.265112,-0.552,-0.388,0.784,1.050,-2.030,-0.140
1743947118.285112,-0.555,-0.386,0.783,1.680,-2.100,0.000
1743947118.305112,-0.546,-0.399,0.782,1.890,-2.310,0.280
1743947118.325112,-0.573,-0.382,0.784,3.500,-3.850,0.770
1743947118.345112,-0.545,-0.373,0.806,1.820,-2.030,-0.420
1743947118.351689,-0.553,-0.384,0.796,1.330,-2.100,-0.910
1743947118.371689,-0.551,-0.383,0.797,0.350,-2.100,-1.050
1743947118.391689,-0.549,-0.387,0.789,-0.140,-2.100,-1.120
1743947118.411689,-0.555,-0.390,0.783,0.910,-3.010,-0.980
1743947118.431689,-0.552,-0.384,0.785,0.630,-2.730,-0.980
1743947118.451689,-0.554,-0.392,0.768,-0.770,-1.750,-1.470
1743947118.485935,-0.553,-0.387,0.785,0.140,-1.890,-0.840
1743947118.505935,-0.553,-0.389,0.782,0.350,-2.170,-0.560
1743947118.525935,-0.551,-0.387,0.786,1.540,-2.520,-0.490
1743947118.545935,-0.553,-0.385,0.786,0.910,-1.960,-0.560
1743947118.565935,-0.553,-0.387,0.787,1.330,-2.380,-0.490
1743947118.585935,-0.552,-0.387,0.791,0.840,-2.240,-0.770
1743947118.634290,-0.552,-0.389,0.786,0.630,-2.450,-1.050
1743947118.654290,-0.551,-0.386,0.785,0.630,-2.450,-0.910
1743947118.674290,-0.549,-0.386,0.783,0.700,-2.310,-0.700
1743947118.694290,-0.552,-0.387,0.786,0.980,-2.030,-0.560
1743947118.714290,-0.554,-0.387,0.786,0.980,-1.890,-0.630
1743947118.734290,-0.554,-0.386,0.779,1.050,-1.750,-0.700
1743947118.724915,-0.553,-0.385,0.784,1.120,-1.680,-0.280
1743947118.744915,-0.553,-0.387,0.785,1.470,-1.750,-0.070
1743947118.764915,-0.553,-0.387,0.789,1.330,-1.890,-0.210
1743947118.784915,-0.559,-0.388,0.792,0.980,-1.750,-0.350
1743947118.804915,-0.554,-0.386,0.786,1.120,-2.380,-0.630
1743947118.824915,-0.553,-0.383,0.785,1.120,-2.660,-0.770
1743947118.830185,-0.554,-0.386,0.788,1.190,-2.590,-0.980
1743947118.850185,-0.555,-0.386,0.789,0.560,-2.590,-0.910
1743947118.870185,-0.558,-0.385,0.782,0.770,-3.220,-0.980
1743947118.890185,-0.552,-0.386,0.786,0.840,-2.590,-1.190
1743947118.910185,-0.553,-0.385,0.785,0.630,-2.450,-0.910
1743947118.930185,-0.553,-0.388,0.786,0.840,-2.730,-0.910
1743947118.978926,-0.552,-0.385,0.785,0.770,-2.590,-0.840
1743947118.998926,-0.552,-0.384,0.784,0.980,-2.590,-0.910
1743947119.018926,-0.554,-0.386,0.787,0.980,-2.450,-0.840
1743947119.038926,-0.553,-0.388,0.784,0.910,-2.590,-0.910
1743947119.058926,-0.551,-0.385,0.785,0.700,-2.380,-0.770
1743947119.078926,-0.550,-0.388,0.786,0.910,-2.240,-0.630
1743947119.085165,-0.555,-0.388,0.782,1.540,-1.890,0.000
1743947119.105165,-0.552,-0.386,0.784,1.330,-1.890,0.070
1743947119.125165,-0.551,-0.386,0.786,1.680,-1.820,-0.210
1743947119.145165,-0.546,-0.377,0.793,-0.490,-0.700,0.000
1743947119.165165,-0.558,-0.383,0.779,1.890,-1.610,0.210
1743947119.185165,-0.553,-0.380,0.777,0.770,-0.980,0.560
1743947119.235284,-0.563,-0.386,0.790,0.420,-1.470,-0.210
1743947119.255284,-0.562,-0.386,0.788,0.560,-1.750,-0.280
1743947119.275284,-0.553,-0.384,0.788,0.910,-1.820,-0.280
1743947119.295284,-0.555,-0.384,0.789,0.490,-1.540,-0.490
1743947119.315284,-0.565,-0.387,0.789,0.420,-2.030,-0.700
1743947119.335284,-0.559,-0.386,0.782,0.420,-2.590,-1.050
1743947119.310233,-0.554,-0.387,0.782,0.700,-2.240,-0.700
1743947119.330233,-0.557,-0.387,0.783,0.770,-2.380,-0.630
1743947119.350233,-0.556,-0.385,0.781,0.980,-2.660,-0.560
1743947119.370233,-0.557,-0.386,0.786,0.980,-2.590,-0.560
1743947119.390233,-0.559,-0.385,0.784,0.910,-2.380,-0.560
1743947119.410233,-0.559,-0.384,0.798,3.080,-0.980,-0.070
1743947119.445204,-0.559,-0.388,0.787,1.260,-2.240,-0.560
1743947119.465204,-0.561,-0.388,0.790,0.770,-2.310,-0.770
1743947119.485204,-0.558,-0.385,0.787,0.910,-2.520,-0.910
1743947119.505204,-0.558,-0.382,0.784,1.190,-2.870,-0.840
1743947119.525204,-0.560,-0.383,0.785,0.560,-2.590,-1.050
1743947119.545204,-0.561,-0.385,0.780,0.420,-2.590,-1.050
1743947119.550784,-0.556,-0.384,0.784,0.770,-2.100,-0.630
1743947119.570784,-0.555,-0.386,0.782,0.840,-2.100,-0.630
1743947119.590784,-0.556,-0.387,0.782,1.470,-2.380,-0.560
1743947119.610784,-0.558,-0.384,0.785,1.610,-2.380,-0.490
1743947119.630784,-0.555,-0.386,0.781,1.400,-2.100,-0.280
1743947119.650784,-0.557,-0.383,0.783,1.890,-2.170,-0.140
1743947119.670186,-0.560,-0.383,0.787,1.260,-2.100,-0.630
1743947119.690186,-0.560,-0.382,0.788,1.190,-2.100,-0.490
1743947119.710186,-0.559,-0.384,0.786,0.910,-2.030,-0.770
1743947119.730186,-0.561,-0.383,0.786,0.980,-2.450,-0.700
1743947119.750186,-0.557,-0.386,0.783,0.980,-2.590,-0.770
1743947119.770186,-0.555,-0.383,0.782,1.330,-2.520,-0.630
1743947119.835896,-0.559,-0.384,0.786,1.400,-2.380,-0.630
1743947119.855896,-0.561,-0.383,0.789,1.400,-2.450,-0.490
1743947119.875896,-0.561,-0.381,0.787,1.120,-2.380,-0.770
1743947119.895896,-0.557,-0.385,0.782,1.260,-2.520,-0.770
1743947119.915896,-0.556,-0.382,0.784,1.190,-2.520,-0.700
1743947119.935896,-0.563,-0.382,0.781,1.260,-2.310,-0.630
1743947119.924962,-0.564,-0.381,0.785,0.700,-2.520,-0.770
1743947119.944962,-0.560,-0.380,0.781,0.350,-1.960,-0.910
1743947119.964962,-0.559,-0.383,0.780,1.050,-2.240,-0.700
1743947119.984962,-0.557,-0.380,0.786,1.540,-2.730,-0.280
1743947120.004962,-0.561,-0.383,0.787,0.420,-1.680,-0.840
1743947120.024962,-0.561,-0.381,0.784,1.610,-3.150,-0.700
1743947120.074634,-0.555,-0.380,0.782,2.520,-3.220,-0.140
1743947120.094634,-0.555,-0.378,0.782,2.240,-2.800,-0.140
1743947120.114634,-0.554,-0.380,0.787,2.100,-2.520,-0.070
1743947120.134634,-0.564,-0.376,0.788,0.840,-1.750,-0.560
1743947120.154634,-0.562,-0.386,0.791,0.140,-2.030,-1.120
1743947120.174634,-0.562,-0.385,0.788,0.070,-2.590,-1.470
1743947120.164934,-0.557,-0.384,0.781,1.260,-2.730,-0.700
1743947120.184934,-0.561,-0.381,0.786,1.050,-2.520,-0.630
1743947120.204934,-0.563,-0.382,0.786,0.630,-2.240,-0.840
1743947120.224934,-0.562,-0.383,0.784,0.770,-2.800,-1.050
1743947120.244934,-0.558,-0.381,0.783,0.070,-2.170,-1.120
1743947120.264934,-0.553,-0.384,0.778,0.630,-2.240,-0.770
1743947120.284072,-0.560,-0.382,0.782,1.330,-2.100,-0.350
1743947120.304072,-0.560,-0.382,0.782,1.050,-2.170,-0.630
1743947120.324072,-0.561,-0.383,0.788,1.470,-2.660,-0.700
1743947120.344072,-0.562,-0.383,0.789,0.490,-2.310,-0.980
1743947120.364072,-0.556,-0.383,0.783,1.050,-3.080,-0.770
1743947120.384072,-0.560,-0.381,0.788,0.700,-2.450,-0.910
1743947120.390793,-0.557,-0.384,0.787,0.910,-2.730,-0.910
1743947120.410793,-0.556,-0.382,0.785,0.840,-2.590,-0.980
1743947120.430793,-0.556,-0.383,0.781,1.050,-2.730,-0.560
1743947120.450793,-0.556,-0.382,0.786,1.190,-2.590,-0.560
1743947120.470793,-0.559,-0.385,0.785,0.560,-2.030,-0.770
1743947120.490793,-0.562,-0.386,0.785,1.120,-2.660,-0.770
1743947120.525298,-0.554,-0.382,0.783,1.330,-2.590,-0.420
1743947120.545298,-0.557,-0.383,0.782,1.400,-2.660,-0.490
1743947120.565298,-0.556,-0.384,0.787,0.840,-2.030,-0.630
1743947120.585298,-0.559,-0.383,0.783,1.050,-2.520,-0.560
1743947120.605298,-0.558,-0.381,0.784,0.980,-2.800,-0.770
1743947120.625298,-0.557,-0.379,0.779,0.770,-2.170,-0.630
1743947120.645975,-0.497,-0.377,0.784,-24.570,8.120,4.690
1743947120.665975,-0.594,-0.469,0.639,-6.370,-1.820,-1.050
1743947120.685975,-0.532,-0.415,0.752,21.490,-4.340,3.360
1743947120.705975,-0.556,-0.363,0.801,7.070,-1.820,3.150
1743947120.725975,-0.607,-0.371,0.842,-2.660,1.120,-2.170
1743947120.745975,-0.566,-0.392,0.777,-4.970,-2.800,-4.270
1743947120.778974,-0.508,-0.376,0.755,-1.260,-0.840,0.280
1743947120.798974,-0.550,-0.381,0.753,2.590,-1.330,0.490
1743947120.818974,-0.570,-0.383,0.774,4.340,-2.870,0.980
1743947120.838974,-0.580,-0.386,0.801,0.560,-2.590,-0.700
1743947120.858974,-0.565,-0.382,0.788,0.420,-3.500,-1.540
1743947120.878974,-0.549,-0.379,0.776,0.630,-2.870,-0.910
1743947120.898775,-0.563,-0.383,0.785,2.170,-1.680,0.490
1743947120.918775,-0.563,-0.382,0.788,2.450,-1.960,0.350
1743947120.938775,-0.569,-0.382,0.794,2.170,-2.310,-0.280
1743947120.958775,-0.567,-0.379,0.794,0.770,-2.380,-0.980
1743947120.978775,-0.560,-0.378,0.782,0.490,-2.730,-1.190
1743947120.998775,-0.556,-0.380,0.788,-0.350,-2.380,-1.400
1743947121.004908,-0.556,-0.376,0.782,0.280,-2.730,-1.190
1743947121.024908,-0.556,-0.380,0.780,0.280,-2.660,-1.260
1743947121.044908,-0.554,-0.381,0.777,0.630,-2.380,-0.910
1743947121.064908,-0.557,-0.382,0.783,1.260,-2.170,-0.560
1743947121.084908,-0.553,-0.383,0.784,1.540,-2.030,-0.210
1743947121.104908,-0.560,-0.380,0.785,2.170,-2.310,0.140
1743947121.156070,-0.565,-0.380,0.791,1.120,-2.590,-0.770
1743947121.176070,-0.561,-0.379,0.790,1.120,-2.660,-0.770
1743947121.196070,-0.559,-0.381,0.788,1.050,-2.940,-0.910
1743947121.216070,-0.560,-0.378,0.788,0.630,-2.800,-0.980
1743947121.236070,-0.559,-0.379,0.785,0.420,-2.590,-1.190
1743947121.256070,-0.558,-0.380,0.781,0.630,-2.520,-0.980
1743947121.245256,-0.558,-0.382,0.781,1.190,-2.380,-0.560
1743947121.265256,-0.556,-0.380,0.783,1.260,-2.520,-0.560
1743947121.285256,-0.560,-0.376,0.782,1.890,-2.660,-0.420
1743947121.305256,-0.561,-0.381,0.786,0.420,-1.470,-0.700
1743947121.325256,-0.565,-0.379,0.788,1.400,-2.800,-0.420
1743947121.345256,-0.563,-0.380,0.787,-0.070,-2.100,-1.330
1743947121.381003,-0.560,-0.380,0.787,0.350,-2.450,-0.840
1743947121.401003,-0.559,-0.382,0.784,0.490,-2.520,-1.050
1743947121.421003,-0.561,-0.382,0.781,0.700,-2.730,-0.980
1743947121.441003,-0.554,-0.378,0.782,1.470,-3.290,-0.490
1743947121.461003,-0.562,-0.374,0.786,0.420,-2.240,-1.050
1743947121.481003,-0.561,-0.382,0.785,0.350,-2.170,-0.980
1743947121.470798,-0.557,-0.380,0.783,0.980,-2.450,-0.700
1743947121.490798,-0.554,-0.378,0.780,0.980,-2.380,-0.560
1743947121.510798,-0.560,-0.378,0.788,1.260,-2.240,-0.490
1743947121.530798,-0.563,-0.380,0.787,0.490,-2.100,-0.910
1743947121.550798,-0.561,-0.381,0.785,0.700,-2.590,-0.980
1743947121.570798,-0.560,-0.379,0.784,0.630,-2.520,-1.050
1743947121.605875,-0.558,-0.381,0.787,1.400,-2.520,-0.490
1743947121.625875,-0.555,-0.379,0.781,1.540,-2.310,-0.420
1743947121.645875,-0.556,-0.377,0.781,1.470,-2.240,-0.350
1743947121.665875,-0.560,-0.378,0.785,0.980,-1.400,-0.420
1743947121.685875,-0.561,-0.383,0.789,1.400,-1.820,-0.420
1743947121.705875,-0.560,-0.380,0.786,1.540,-2.590,-0.280
1743947121.754756,-0.563,-0.383,0.786,0.420,-1.890,-0.840
1743947121.774756,-0.562,-0.382,0.786,0.630,-2.240,-0.840
1743947121.794756,-0.565,-0.381,0.792,0.770,-2.940,-1.050
1743947121.814756,-0.557,-0.382,0.784,0.560,-2.940,-1.120
1743947121.834756,-0.559,-0.378,0.783,0.980,-2.590,-0.770
1743947121.854756,-0.563,-0.379,0.787,0.420,-1.960,-0.770
1743947121.860984,-0.555,-0.378,0.784,1.330,-2.730,-0.560
1743947121.880984,-0.554,-0.381,0.782,1.330,-2.660,-0.490
1743947121.900984,-0.557,-0.379,0.780,1.400,-2.520,-0.490
1743947121.920984,-0.560,-0.379,0.785,1.470,-2.240,-0.280
1743947121.940984,-0.562,-0.379,0.789,1.260,-2.310,-0.560
1743947121.960984,-0.561,-0.377,0.790,1.050,-2.450,-0.840
1743947121.950049,-0.560,-0.382,0.786,0.910,-2.730,-1.050
1743947121.970049,-0.558,-0.385,0.786,0.910,-2.730,-0.630
1743947121.990049,-0.555,-0.384,0.786,1.400,-3.080,-0.210
1743947122.010049,-0.559,-0.378,0.787,1.400,-2.450,-0.490
1743947122.030049,-0.564,-0.382,0.786,0.490,-1.960,-0.910
1743947122.050049,-0.560,-0.380,0.792,0.490,-2.310,-1.190
1743947122.099129,-0.555,-0.378,0.784,1.260,-2.660,-0.770
1743947122.119129,-0.558,-0.379,0.786,1.050,-2.450,-0.630
1743947122.139129,-0.560,-0.380,0.783,0.840,-2.240,-0.630
1743947122.159129,-0.562,-0.382,0.787,1.540,-2.800,-0.770
1743947122.179129,-0.562,-0.379,0.786,0.630,-2.380,-0.910
1743947122.199129,-0.560,-0.379,0.782,0.910,-2.520,-0.700
1743947122.234554,-0.557,-0.380,0.781,1.190,-2.590,-0.630
1743947122.254554,-0.556,-0.381,0.782,1.260,-2.800,-0.630
1743947122.274554,-0.556,-0.382,0.785,1.190,-2.590,-0.490
1743947122.294554,-0.559,-0.379,0.785,1.120,-2.590,-0.630
1743947122.314554,-0.563,-0.378,0.789,1.050,-2.520,-0.770
1743947122.334554,-0.565,-0.381,0.785,0.770,-2.590,-0.840
1743947122.355999,-0.557,-0.382,0.781,0.980,-2.450,-0.490
1743947122.375999,-0.559,-0.378,0.784,1.190,-2.450,-0.560
1743947122.395999,-0.562,-0.379,0.787,1.260,-2.660,-0.560
1743947122.415999,-0.562,-0.381,0.787,0.770,-2.310,-0.770
1743947122.435999,-0.559,-0.381,0.785,1.190,-2.730,-0.630
1743947122.455999,-0.560,-0.378,0.786,0.980,-2.590,-0.630
1743947122.445564,-0.555,-0.380,0.786,1.400,-2.660,-0.560
1743947122.465564,-0.557,-0.381,0.787,1.260,-2.660,-0.490
1743947122.485564,-0.558,-0.380,0.783,1.330,-2.520,-0.490
1743947122.505564,-0.558,-0.379,0.785,1.540,-2.310,-0.350
1743947122.525564,-0.560,-0.380,0.788,1.330,-2.030,-0.490
1743947122.545564,-0.560,-0.379,0.786,1.120,-2.310,-0.560
1743947122.566418,-0.558,-0.379,0.784,0.910,-2.520,-0.770
1743947122.586418,-0.559,-0.379,0.784,0.910,-2.520,-0.700
1743947122.606418,-0.559,-0.378,0.787,1.120,-2.730,-0.630
1743947122.626418,-0.560,-0.379,0.785,0.700,-2.520,-0.700
1743947122.646418,-0.561,-0.379,0.786,0.980,-2.870,-0.840
1743947122.666418,-0.561,-0.378,0.785,0.700,-2.660,-0.980
1743947122.685978,-0.557,-0.378,0.785,0.560,-2.240,-0.910
1743947122.705978,-0.558,-0.378,0.784,0.560,-2.100,-0.840
1743947122.725978,-0.558,-0.381,0.786,0.910,-2.310,-0.700
1743947122.745978,-0.561,-0.378,0.788,1.260,-2.590,-0.560
1743947122.765978,-0.557,-0.379,0.791,0.630,-1.960,-0.770
1743947122.785978,-0.560,-0.382,0.783,0.770,-2.170,-0.700
1743947122.790823,-0.557,-0.378,0.784,0.770,-1.960,-0.770
1743947122.810823,-0.556,-0.380,0.784,0.980,-2.100,-0.560
1743947122.830823,-0.561,-0.378,0.786,1.120,-2.240,-0.560
1743947122.850823,-0.560,-0.377,0.786,0.840,-2.170,-0.700
1743947122.870823,-0.562,-0.378,0.788,0.910,-2.380,-0.840
1743947122.890823,-0.564,-0.380,0.784,0.770,-2.590,-0.840
1743947122.954951,-0.560,-0.377,0.788,1.120,-2.660,-0.560
1743947122.974951,-0.559,-0.377,0.783,1.190,-2.660,-0.630
1743947122.994951,-0.561,-0.378,0.788,0.910,-2.240,-0.910
1743947123.014951,-0.562,-0.376,0.787,0.980,-2.730,-0.840
1743947123.034951,-0.557,-0.379,0.785,0.630,-2.590,-0.980
1743947123.054951,-0.559,-0.381,0.782,0.910,-2.660,-0.700
1743947123.045072,-0.559,-0.377,0.785,1.120,-2.240,-0.420
1743947123.065072,-0.559,-0.381,0.788,1.190,-2.310,-0.700
1743947123.085072,-0.562,-0.381,0.789,1.050,-2.100,-0.560
1743947123.105072,-0.562,-0.380,0.785,1.190,-2.310,-0.420
1743947123.125072,-0.562,-0.379,0.789,1.260,-2.380,-0.630
1743947123.145072,-0.563,-0.377,0.787,0.770,-2.100,-0.840
1743947123.151117,-0.560,-0.379,0.782,1.050,-2.520,-0.560
1743947123.171117,-0.559,-0.378,0.783,0.980,-2.590,-0.630
1743947123.191117,-0.556,-0.377,0.781,1.400,-2.730,-0.490
1743947123.211117,-0.562,-0.376,0.786,1.330,-2.450,-0.350
1743947123.231117,-0.562,-0.378,0.787,1.190,-2.310,-0.630
1743947123.251117,-0.561,-0.377,0.789,1.050,-2.240,-0.700
1743947123.299579,-0.563,-0.378,0.788,1.190,-2.590,-0.700
1743947123.319579,-0.562,-0.377,0.786,1.260,-2.590,-0.840
1743947123.339579,-0.562,-0.376,0.787,1.120,-2.520,-0.770
1743947123.359579,-0.558,-0.379,0.783,0.700,-2.380,-0.840
1743947123.379579,-0.560,-0.381,0.788,0.770,-2.450,-0.770
1743947123.399579,-0.560,-0.381,0.786,0.770,-2.590,-0.840
1743947123.390659,-0.560,-0.381,0.783,0.980,-2.730,-0.700
1743947123.410659,-0.560,-0.378,0.782,1.050,-2.730,-0.770
1743947123.430659,-0.560,-0.378,0.785,1.190,-2.660,-0.630
1743947123.450659,-0.559,-0.379,0.786,1.190,-2.240,-0.560
1743947123.470659,-0.563,-0.378,0.789,0.980,-2.100,-0.560
1743947123.490659,-0.565,-0.379,0.791,0.840,-2.310,-0.700
1743947123.554906,-0.559,-0.379,0.787,0.560,-2.310,-0.910
1743947123.574906,-0.560,-0.378,0.784,0.420,-2.310,-0.980
1743947123.594906,-0.557,-0.380,0.785,0.700,-2.520,-0.840
1743947123.614906,-0.563,-0.379,0.786,0.840,-2.730,-0.910
1743947123.634906,-0.560,-0.375,0.784,1.050,-2.660,-0.700
1743947123.654906,-0.557,-0.378,0.784,1.190,-2.450,-0.560
1743947123.645260,-0.561,-0.382,0.784,1.260,-2.310,-0.490
1743947123.665260,-0.558,-0.375,0.785,1.260,-2.310,-0.350
1743947123.685260,-0.559,-0.379,0.785,1.260,-2.380,-0.420
1743947123.705260,-0.561,-0.378,0.789,1.120,-2.380,-0.560
1743947123.725260,-0.564,-0.379,0.785,1.190,-2.660,-0.630
1743947123.745260,-0.562,-0.377,0.787,0.980,-2.590,-0.630
1743947123.750375,-0.563,-0.376,0.787,1.050,-2.520,-0.840
1743947123.770375,-0.560,-0.379,0.785,0.840,-2.590,-0.840
1743947123.790375,-0.559,-0.380,0.786,0.910,-2.660,-0.840
1743947123.810375,-0.557,-0.376,0.784,0.980,-2.450,-0.630
1743947123.830375,-0.561,-0.377,0.781,0.840,-2.100,-0.700
1743947123.850375,-0.561,-0.377,0.788,0.980,-2.590,-0.700
1743947123.870429,-0.560,-0.377,0.788,1.190,-2.450,-0.560
1743947123.890429,-0.562,-0.376,0.787,1.260,-2.450,-0.770
1743947123.910429,-0.566,-0.377,0.789,1.050,-2.590,-0.700
1743947123.930429,-0.562,-0.378,0.787,0.770,-2.590,-0.910
1743947123.950429,-0.562,-0.378,0.786,0.770,-2.520,-0.910
1743947123.970429,-0.558,-0.378,0.785,0.770,-2.590,-0.770
1743947124.005139,-0.562,-0.380,0.786,1.190,-2.730,-0.840
1743947124.025139,-0.559,-0.381,0.785,1.120,-2.730,-0.770
1743947124.045139,-0.561,-0.375,0.786,0.910,-2.660,-0.980
1743947124.065139,-0.559,-0.376,0.784,0.770,-2.310,-0.770
1743947124.085139,-0.560,-0.376,0.787,1.260,-2.450,-0.630
1743947124.105139,-0.561,-0.376,0.785,1.050,-2.380,-0.700
1743947124.170078,-0.560,-0.377,0.788,0.630,-2.310,-0.840
1743947124.190078,-0.561,-0.378,0.786,0.700,-2.380,-0.840
1743947124.210078,-0.564,-0.379,0.784,0.700,-2.520,-0.840
1743947124.230078,-0.562,-0.375,0.785,0.840,-2.800,-0.840
1743947124.250078,-0.561,-0.376,0.785,0.840,-2.520,-0.700
1743947124.270078,-0.562,-0.377,0.787,1.050,-2.450,-0.700
1743947124.245080,-0.562,-0.378,0.787,1.120,-2.800,-0.700
1743947124.265080,-0.563,-0.379,0.784,1.330,-2.800,-0.700
1743947124.285080,-0.560,-0.377,0.786,1.190,-2.800,-0.630
1743947124.305080,-0.559,-0.377,0.783,1.330,-2.660,-0.630
1743947124.325080,-0.559,-0.375,0.787,1.190,-2.590,-0.770
1743947124.345080,-0.560,-0.376,0.788,1.120,-2.590,-0.630
1743947124.395492,-0.559,-0.375,0.789,0.770,-2.520,-0.910
1743947124.415492,-0.561,-0.381,0.789,0.770,-2.380,-0.840
1743947124.435492,-0.559,-0.379,0.785,0.770,-2.450,-0.840
1743947124.455492,-0.558,-0.377,0.786,0.910,-2.590,-0.770
1743947124.475492,-0.558,-0.377,0.788,1.190,-2.730,-0.630
1743947124.495492,-0.560,-0.375,0.787,1.260,-2.660,-0.770
1743947124.485456,-0.559,-0.376,0.786,1.050,-2.590,-0.770
1743947124.505456,-0.558,-0.376,0.789,1.050,-2.590,-0.700
1743947124.525456,-0.562,-0.378,0.788,0.980,-2.730,-0.840
1743947124.545456,-0.560,-0.377,0.788,0.980,-2.800,-0.840
1743947124.565456,-0.557,-0.376,0.788,0.560,-2.380,-0.980
1743947124.585456,-0.560,-0.377,0.786,0.560,-2.450,-0.980
1743947124.605144,-0.559,-0.377,0.783,0.630,-2.590,-0.910
1743947124.625144,-0.559,-0.378,0.784,0.770,-2.450,-0.840
1743947124.645144,-0.560,-0.377,0.785,0.980,-2.660,-0.630
1743947124.665144,-0.561,-0.380,0.785,0.840,-2.450,-0.770
1743947124.685144,-0.558,-0.377,0.783,0.910,-2.380,-0.700
1743947124.705144,-0.560,-0.374,0.787,1.120,-2.520,-0.630
1743947124.785834,-0.560,-0.375,0.789,1.050,-2.450,-0.840
1743947124.805834,-0.560,-0.375,0.789,0.840,-2.450,-0.770
1743947124.825834,-0.559,-0.375,0.786,0.770,-2.380,-0.840
1743947124.845834,-0.562,-0.377,0.786,0.980,-2.520,-0.700
1743947124.865834,-0.561,-0.378,0.786,0.630,-2.450,-0.700
1743947124.885834,-0.559,-0.377,0.784,0.770,-2.380,-0.770
1743947124.859392,-0.562,-0.376,0.787,1.120,-2.380,-0.630
1743947124.879392,-0.558,-0.377,0.785,0.980,-2.310,-0.700
1743947124.899392,-0.558,-0.377,0.788,1.120,-2.380,-0.700
1743947124.919392,-0.560,-0.380,0.786,0.840,-2.380,-0.770
1743947124.939392,-0.559,-0.376,0.785,0.770,-2.380,-0.840
1743947124.959392,-0.559,-0.381,0.784,0.980,-2.590,-0.700
1743947124.951107,-0.561,-0.376,0.787,1.120,-2.450,-0.560
1743947124.971107,-0.561,-0.377,0.786,1.120,-2.450,-0.630
1743947124.991107,-0.558,-0.379,0.789,1.190,-2.380,-0.630
1743947125.011107,-0.562,-0.377,0.789,0.980,-2.450,-0.840
1743947125.031107,-0.559,-0.378,0.785,1.120,-2.590,-0.630
1743947125.051107,-0.561,-0.379,0.785,1.190,-2.520,-0.490
1743947125.085571,-0.561,-0.374,0.787,0.980,-2.380,-0.770
1743947125.105571,-0.559,-0.377,0.788,0.840,-2.520,-0.770
1743947125.125571,-0.560,-0.377,0.786,0.910,-2.450,-0.770
1743947125.145571,-0.560,-0.375,0.786,1.050,-2.660,-0.770
1743947125.165571,-0.559,-0.374,0.784,0.980,-2.380,-0.700
1743947125.185571,-0.560,-0.376,0.785,1.050,-2.380,-0.630
1743947125.206414,-0.558,-0.377,0.788,0.840,-2.590,-0.840
1743947125.226414,-0.563,-0.379,0.787,0.770,-2.590,-0.840
1743947125.246414,-0.560,-0.376,0.788,0.980,-2.730,-0.840
1743947125.266414,-0.560,-0.376,0.786,0.910,-2.520,-0.770
1743947125.286414,-0.560,-0.379,0.788,1.260,-2.590,-0.770
1743947125.306414,-0.561,-0.376,0.787,0.840,-2.450,-0.630
1743947125.355083,-0.557,-0.378,0.785,0.700,-2.240,-0.700
1743947125.375083,-0.556,-0.379,0.785,0.770,-2.240,-0.770
1743947125.395083,-0.557,-0.376,0.787,0.980,-2.170,-0.770
1743947125.415083,-0.558,-0.379,0.786,0.840,-2.310,-0.630
1743947125.435083,-0.561,-0.377,0.784,1.120,-2.520,-0.630
1743947125.455083,-0.561,-0.376,0.786,0.910,-2.590,-0.840
1743947125.445843,-0.562,-0.376,0.787,0.700,-2.450,-0.840
1743947125.465843,-0.560,-0.378,0.789,0.770,-2.520,-0.840
1743947125.485843,-0.564,-0.377,0.788,0.840,-2.450,-0.840
1743947125.505843,-0.559,-0.377,0.787,0.840,-2.590,-0.840
1743947125.525843,-0.558,-0.377,0.786,0.980,-2.520,-0.700
1743947125.545843,-0.560,-0.377,0.786,0.700,-2.450,-0.910
1743947125.550888,-0.558,-0.375,0.784,0.840,-2.380,-0.770
1743947125.570888,-0.557,-0.378,0.783,0.910,-2.520,-0.700
1743947125.590888,-0.561,-0.378,0.786,0.980,-2.520,-0.770
1743947125.610888,-0.558,-0.376,0.789,0.980,-2.450,-0.770
1743947125.630888,-0.562,-0.375,0.785,1.190,-2.660,-0.770
1743947125.650888,-0.560,-0.375,0.784,0.840,-2.380,-0.700
1743947125.672032,-0.559,-0.375,0.787,1.120,-2.660,-0.700
1743947125.692032,-0.559,-0.376,0.786,1.050,-2.590,-0.770
1743947125.712032,-0.560,-0.375,0.786,1.190,-2.660,-0.560
1743947125.732032,-0.557,-0.377,0.787,0.980,-2.450,-0.630
1743947125.752032,-0.557,-0.377,0.786,0.840,-2.240,-0.700
1743947125.772032,-0.559,-0.377,0.788,0.980,-2.380,-0.770
1743947125.820275,-0.557,-0.374,0.786,0.910,-2.380,-0.770
1743947125.840275,-0.557,-0.376,0.783,0.840,-2.450,-0.630
1743947125.860275,-0.559,-0.375,0.786,0.980,-2.520,-0.770
1743947125.880275,-0.560,-0.376,0.789,0.770,-2.660,-0.840
1743947125.900275,-0.558,-0.377,0.785,0.840,-2.450,-0.980
1743947125.920275,-0.558,-0.377,0.786,0.980,-2.450,-0.770
1743947125.925413,-0.560,-0.377,0.786,0.980,-2.380,-0.840
1743947125.945413,-0.559,-0.376,0.783,0.980,-2.380,-0.910
1743947125.965413,-0.564,-0.375,0.787,0.980,-2.450,-0.700
1743947125.985413,-0.560,-0.372,0.789,0.910,-2.380,-0.700
1743947126.005413,-0.560,-0.376,0.786,0.980,-2.450,-0.630
1743947126.025413,-0.561,-0.376,0.787,0.910,-2.170,-0.700
1743947126.060265,-0.560,-0.376,0.789,0.980,-2.520,-0.770
1743947126.080265,-0.560,-0.375,0.791,0.840,-2.450,-0.840
1743947126.100265,-0.562,-0.376,0.789,0.840,-2.590,-0.770
1743947126.120265,-0.561,-0.376,0.785,0.980,-2.520,-0.840
1743947126.140265,-0.559,-0.377,0.784,0.910,-2.520,-0.770
1743947126.160265,-0.560,-0.377,0.787,1.050,-2.310,-0.560
1743947126.150398,-0.560,-0.375,0.787,0.840,-2.450,-0.770
1743947126.170398,-0.561,-0.376,0.788,0.840,-2.240,-0.980
1743947126.190398,-0.560,-0.376,0.784,0.980,-2.450,-0.770
1743947126.210398,-0.561,-0.378,0.785,0.840,-2.450,-0.700
1743947126.230398,-0.560,-0.376,0.786,1.120,-2.730,-0.560
1743947126.250398,-0.558,-0.378,0.789,0.980,-2.590,-0.700
1743947126.331097,-0.557,-0.375,0.786,0.980,-2.590,-0.630
1743947126.351097,-0.557,-0.373,0.787,1.190,-2.520,-0.560
1743947126.371097,-0.559,-0.376,0.787,1.190,-2.520,-0.560
1743947126.391097,-0.560,-0.375,0.791,1.190,-2.520,-0.560
1743947126.411097,-0.561,-0.377,0.787,1.190,-2.450,-0.630
1743947126.431097,-0.560,-0.375,0.786,1.050,-2.660,-0.700
1743947126.391360,-0.560,-0.373,0.789,1.260,-2.730,-0.700
1743947126.411360,-0.560,-0.376,0.788,0.910,-2.590,-0.770
1743947126.431360,-0.559,-0.373,0.789,0.910,-2.450,-0.770
1743947126.451360,-0.558,-0.250,0.787,0.770,-2.590,-0.770
1743947126.471360,-0.559,-0.374,0.786,0.980,-2.520,-0.700
1743947126.491360,-0.560,-0.375,0.787,1.050,-2.520,-0.630
1743947126.539567,-0.560,-0.374,0.787,0.910,-2.100,-0.630
1743947126.559567,-0.562,-0.375,0.789,0.980,-2.170,-0.700
1743947126.579567,-0.558,-0.375,0.788,1.050,-2.450,-0.560
1743947126.599567,-0.559,-0.376,0.788,1.050,-2.380,-0.770
1743947126.619567,-0.560,-0.375,0.786,1.050,-2.450,-0.770
1743947126.639567,-0.562,-0.376,0.789,1.120,-2.660,-0.770
1743947126.644954,-0.558,-0.375,0.784,0.910,-2.310,-0.700
1743947126.664954,-0.561,-0.374,0.785,0.840,-2.310,-0.700
1743947126.684954,-0.558,-0.374,0.787,0.840,-2.240,-0.630
1743947126.704954,-0.559,-0.373,0.785,0.980,-2.100,-0.630
1743947126.724954,-0.560,-0.376,0.789,0.700,-2.030,-0.770
1743947126.744954,-0.561,-0.377,0.786,0.980,-2.520,-0.700
1743947126.751030,-0.561,-0.374,0.788,1.050,-2.450,-0.700
1743947126.771030,-0.562,-0.374,0.788,0.910,-2.450,-0.700
1743947126.791030,-0.560,-0.374,0.790,0.840,-2.380,-0.770
1743947126.811030,-0.560,-0.374,0.789,0.840,-2.590,-0.770
1743947126.831030,-0.560,-0.378,0.787,0.770,-2.520,-0.910
1743947126.851030,-0.559,-0.374,0.785,0.840,-2.520,-0.770
1743947126.930975,-0.559,-0.376,0.787,1.050,-2.520,-0.700
1743947126.950975,-0.561,-0.377,0.787,0.980,-2.520,-0.630
1743947126.970975,-0.558,-0.375,0.790,0.980,-2.520,-0.630
1743947126.990975,-0.560,-0.373,0.785,0.910,-2.520,-0.840
1743947127.010975,-0.559,-0.376,0.786,1.050,-2.380,-0.630
1743947127.030975,-0.560,-0.373,0.787,1.260,-2.520,-0.630
1743947126.990152,-0.559,-0.375,0.789,1.120,-2.450,-0.700
1743947127.010152,-0.559,-0.374,0.789,1.120,-2.520,-0.630
1743947127.030152,-0.558,-0.373,0.787,1.050,-2.520,-0.560
1743947127.050152,-0.558,-0.373,0.785,1.260,-2.660,-0.560
1743947127.070152,-0.561,-0.375,0.788,1.260,-2.450,-0.560
1743947127.090152,-0.561,-0.373,0.787,1.050,-2.450,-0.700
1743947127.125249,-0.558,-0.374,0.789,1.190,-2.380,-0.630
1743947127.145249,-0.561,-0.374,0.790,0.980,-2.310,-0.630
1743947127.165249,-0.562,-0.374,0.791,1.190,-2.590,-0.630
1743947127.185249,-0.561,-0.374,0.792,0.910,-2.450,-0.700
1743947127.205249,-0.559,-0.373,0.785,0.770,-2.240,-0.840
1743947127.225249,-0.561,-0.375,0.786,0.840,-2.170,-0.560
1743947127.231419,-0.559,-0.376,0.788,0.910,-2.310,-0.770
1743947127.251419,-0.561,-0.372,0.788,0.980,-2.450,-0.700
1743947127.271419,-0.558,-0.374,0.784,0.980,-2.380,-0.700
1743947127.291419,-0.562,-0.374,0.784,0.980,-2.310,-0.700
1743947127.311419,-0.562,-0.373,0.787,0.980,-2.310,-0.560
1743947127.331419,-0.559,-0.371,0.787,0.980,-2.450,-0.560
1743947127.366222,-0.561,-0.374,0.786,0.700,-2.380,-0.980
1743947127.386222,-0.562,-0.372,0.787,0.770,-2.520,-0.840
1743947127.406222,-0.560,-0.373,0.788,0.840,-2.590,-0.840
1743947127.426222,-0.562,-0.376,0.787,0.700,-2.660,-0.910
1743947127.446222,-0.561,-0.375,0.789,1.050,-2.940,-0.840
1743947127.466222,-0.558,-0.376,0.785,0.840,-2.660,-0.840
1743947127.530843,-0.561,-0.373,0.786,1.120,-2.450,-0.770
1743947127.550843,-0.561,-0.373,0.787,1.120,-2.520,-0.700
1743947127.570843,-0.560,-0.375,0.788,1.190,-2.450,-0.630
1743947127.590843,-0.560,-0.374,0.788,0.980,-2.520,-0.700
1743947127.610843,-0.560,-0.373,0.789,0.980,-2.380,-0.630
1743947127.630843,-0.560,-0.374,0.786,0.980,-2.450,-0.700
1743947127.606306,-0.560,-0.372,0.787,1.050,-2.730,-0.700
1743947127.626306,-0.560,-0.375,0.788,1.050,-2.520,-0.770
1743947127.646306,-0.557,-0.373,0.784,0.980,-2.590,-0.770
1743947127.666306,-0.560,-0.374,0.791,0.910,-2.380,-0.700
1743947127.686306,-0.558,-0.374,0.787,0.910,-2.310,-0.770
1743947127.706306,-0.561,-0.373,0.787,1.190,-2.590,-0.770
1743947127.725146,-0.560,-0.371,0.790,0.980,-2.520,-0.630
1743947127.745146,-0.559,-0.371,0.789,0.980,-2.450,-0.700
1743947127.765146,-0.561,-0.371,0.789,0.840,-2.450,-0.630
1743947127.785146,-0.561,-0.374,0.790,1.050,-2.590,-0.700
1743947127.805146,-0.561,-0.371,0.791,0.910,-2.520,-0.840
1743947127.825146,-0.560,-0.373,0.787,0.910,-2.380,-0.770
1743947127.830449,-0.559,-0.375,0.789,1.120,-2.450,-0.630
1743947127.850449,-0.560,-0.372,0.788,1.120,-2.520,-0.700
1743947127.870449,-0.559,-0.374,0.787,0.980,-2.590,-0.700
1743947127.890449,-0.560,-0.373,0.787,1.120,-2.590,-0.630
1743947127.910449,-0.559,-0.372,0.788,1.190,-2.450,-0.560
1743947127.930449,-0.561,-0.371,0.791,1.120,-2.450,-0.560
1743947127.965250,-0.563,-0.370,0.787,0.840,-2.380,-0.700
1743947127.985250,-0.562,-0.372,0.788,0.910,-2.240,-0.840
1743947128.005250,-0.560,-0.371,0.787,0.910,-2.380,-0.700
1743947128.025250,-0.561,-0.374,0.787,0.630,-2.240,-0.910
1743947128.045250,-0.560,-0.373,0.787,0.980,-2.660,-0.840
1743947128.065250,-0.560,-0.374,0.787,0.770,-2.590,-0.770
1743947128.070979,-0.559,-0.371,0.785,0.840,-2.450,-0.630
1743947128.090979,-0.558,-0.372,0.790,0.980,-2.520,-0.630
1743947128.110979,-0.562,-0.373,0.788,1.190,-2.520,-0.770
1743947128.130979,-0.560,-0.372,0.788,1.260,-2.450,-0.700
1743947128.150979,-0.559,-0.372,0.791,0.910,-2.590,-0.770
1743947128.170979,-0.559,-0.370,0.788,0.980,-2.520,-0.700
1743947128.205147,-0.560,-0.374,0.789,0.770,-2.520,-0.700
1743947128.225147,-0.560,-0.376,0.788,0.980,-2.520,-0.700
1743947128.245147,-0.561,-0.373,0.789,1.050,-2.660,-0.840
1743947128.265147,-0.558,-0.372,0.786,0.910,-2.590,-0.700
1743947128.285147,-0.559,-0.373,0.790,0.980,-2.590,-0.700
1743947128.305147,-0.560,-0.375,0.787,1.190,-2.520,-0.630
1743947128.341261,-0.563,-0.370,0.787,1.190,-2.450,-0.560
1743947128.361261,-0.563,-0.371,0.788,1.050,-2.380,-0.630
1743947128.381261,-0.561,-0.371,0.788,0.910,-2.450,-0.630
1743947128.401261,-0.561,-0.373,0.790,0.980,-2.520,-0.630
1743947128.421261,-0.562,-0.374,0.791,1.190,-2.660,-0.700
1743947128.441261,-0.561,-0.371,0.789,1.050,-2.590,-0.630
1743947128.445740,-0.562,-0.499,0.789,0.910,-2.520,-0.840
1743947128.465740,-0.561,-0.375,0.789,0.910,-2.660,-0.840
1743947128.485740,-0.557,-0.375,0.788,0.980,-2.660,-0.840
1743947128.505740,-0.558,-0.372,0.786,1.050,-2.590,-0.700
1743947128.525740,-0.560,-0.372,0.786,1.330,-2.520,-0.560
1743947128.545740,-0.563,-0.373,0.792,1.190,-2.520,-0.630
1743947128.565668,-0.559,-0.372,0.789,0.630,-2.240,-0.700
1743947128.585668,-0.558,-0.372,0.787,0.630,-2.520,-0.840
1743947128.605668,-0.561,-0.374,0.788,0.840,-2.660,-0.770
1743947128.625668,-0.560,-0.372,0.788,1.050,-3.010,-0.840
1743947128.645668,-0.559,-0.372,0.786,1.330,-3.080,-0.630
1743947128.665668,-0.559,-0.373,0.788,1.260,-3.150,-0.700
1743947128.685888,-0.558,-0.369,0.786,0.910,-3.290,-0.560
1743947128.705888,-0.558,-0.372,0.784,0.840,-2.940,-0.560
1743947128.725888,-0.557,-0.373,0.785,1.050,-2.940,-0.420
1743947128.745888,-0.553,-0.369,0.784,1.680,-1.400,0.280
1743947128.765888,-0.557,-0.371,0.793,1.610,-0.980,0.280
1743947128.785888,-0.569,-0.375,0.796,1.540,-2.100,-0.420
1743947128.805187,-0.559,-0.371,0.793,0.350,-3.150,-1.050
1743947128.825187,-0.562,-0.370,0.790,0.420,-3.360,-0.980
1743947128.845187,-0.562,-0.369,0.792,0.700,-3.640,-0.910
1743947128.865187,-0.561,-0.371,0.793,1.050,-4.130,-0.980
1743947128.885187,-0.561,-0.381,0.764,2.100,-3.010,-2.030
1743947128.905187,-0.559,-0.371,0.792,1.470,-4.340,-0.910
1743947128.954214,-0.559,-0.371,0.790,0.490,-3.640,-1.540
1743947128.974214,-0.559,-0.372,0.790,0.350,-3.570,-1.610
1743947128.994214,-0.556,-0.371,0.791,0.210,-3.710,-1.610
1743947129.014214,-0.556,-0.373,0.792,0.700,-3.780,-1.260
1743947129.034214,-0.550,-0.376,0.793,1.120,-3.850,-0.980
1743947129.054214,-0.557,-0.373,0.797,1.120,-3.640,-1.050
1743947129.045296,-0.557,-0.371,0.793,-0.280,-2.870,-2.100
1743947129.065296,-0.556,-0.369,0.792,-0.350,-2.800,-2.100
1743947129.085296,-0.558,-0.374,0.789,-0.420,-2.660,-2.380
1743947129.105296,-0.551,-0.375,0.783,-0.560,-2.730,-2.170
1743947129.125296,-0.555,-0.378,0.787,0.770,-3.780,-1.610
1743947129.145296,-0.553,-0.371,0.790,0.490,-3.570,-1.540
1743947129.165277,-0.550,-0.374,0.794,0.070,-2.800,-1.750
1743947129.185277,-0.548,-0.376,0.795,0.000,-2.520,-1.820
1743947129.205277,-0.550,-0.376,0.790,-0.630,-2.030,-1.890
1743947129.225277,-0.550,-0.378,0.791,-0.210,-2.100,-1.750
1743947129.245277,-0.558,-0.251,0.788,0.280,-2.730,-1.610
1743947129.265277,-0.556,-0.377,0.797,0.000,-2.800,-1.890
1743947129.285204,-0.555,-0.373,0.801,-1.890,-1.400,-2.800
1743947129.305204,-0.554,-0.377,0.800,-2.170,-1.190,-3.010
1743947129.325204,-0.554,-0.378,0.801,-3.150,0.070,-3.290
1743947129.345204,-0.557,-0.379,0.795,-4.480,0.700,-4.200
1743947129.365204,-0.558,-0.380,0.790,-5.530,-0.350,-5.040
1743947129.385204,-0.539,-0.409,0.792,-7.000,-2.940,-4.830
1743947129.390928,-0.552,-0.373,0.787,1.120,-4.130,-1.190
1743947129.410928,-0.552,-0.374,0.789,1.050,-2.800,-1.260
1743947129.430928,-0.555,-0.373,0.801,0.000,-2.030,-1.400
1743947129.450928,-0.560,-0.392,0.797,-3.080,-0.210,-2.940
1743947129.470928,-0.545,-0.394,0.781,-3.570,-1.400,-3.010
1743947129.490928,-0.543,-0.392,0.778,0.770,-3.920,-1.260
1743947129.540607,-0.554,-0.388,0.803,-0.420,-3.290,-2.240
1743947129.560607,-0.555,-0.389,0.800,-1.400,-3.010,-3.080
1743947129.580607,-0.554,-0.390,0.795,-1.820,-3.010,-3.570
1743947129.600607,-0.549,-0.394,0.785,-2.380,-3.710,-3.850
1743947129.620607,-0.543,-0.395,0.780,-0.980,-4.060,-2.870
1743947129.640607,-0.541,-0.393,0.781,0.840,-4.550,-2.100
1743947129.645350,-0.548,-0.390,0.806,-1.680,-5.600,-3.990
1743947129.665350,-0.546,-0.391,0.804,-2.310,-4.970,-4.340
1743947129.685350,-0.546,-0.393,0.800,-2.590,-4.480,-4.830
1743947129.705350,-0.540,-0.394,0.796,-4.830,-4.200,-5.110
1743947129.725350,-0.532,-0.400,0.777,-3.640,-4.690,-4.620
1743947129.745350,-0.540,-0.398,0.773,0.350,-6.160,-2.870
1743947129.764375,-0.530,-0.398,0.792,-2.660,-2.940,-3.500
1743947129.784375,-0.530,-0.401,0.791,-3.150,-2.870,-3.500
1743947129.804375,-0.529,-0.402,0.782,-3.220,-2.310,-3.220
1743947129.824375,-0.531,-0.406,0.778,-1.960,-2.590,-2.170
1743947129.844375,-0.531,-0.407,0.781,1.610,-4.060,-1.120
1743947129.864375,-0.541,-0.407,0.796,2.800,-5.670,-1.190
1743947129.886226,-0.532,-0.399,0.793,-3.640,-3.920,-4.060
1743947129.906226,-0.532,-0.400,0.793,-3.570,-3.850,-4.270
1743947129.926226,-0.529,-0.403,0.787,-3.710,-3.430,-4.200
1743947129.946226,-0.526,-0.412,0.786,-3.010,-3.430,-3.780
1743947129.966226,-0.521,-0.413,0.778,-0.280,-4.690,-2.310
1743947129.986226,-0.529,-0.410,0.783,3.010,-6.510,-1.190
1743947130.005716,-0.527,-0.408,0.808,-1.890,-3.080,-2.870
1743947130.025716,-0.521,-0.404,0.798,-3.080,-2.240,-2.870
1743947130.045716,-0.517,-0.407,0.794,-3.430,-1.750,-3.080
1743947130.065716,-0.523,-0.414,0.785,-1.610,-2.450,-1.890
1743947130.085716,-0.538,-0.411,0.793,1.190,-5.390,-1.540
1743947130.105716,-0.533,-0.405,0.803,0.000,-5.250,-2.380
1743947130.140336,-0.516,-0.418,0.785,-4.830,-2.100,-4.200
1743947130.160336,-0.515,-0.422,0.785,-4.480,-2.170,-4.130
1743947130.180336,-0.504,-0.428,0.769,-1.750,-3.640,-2.940
1743947130.200336,-0.492,-0.428,0.756,7.280,-6.790,0.910
1743947130.220336,-0.490,-0.420,0.747,13.230,-7.630,4.130
1743947130.240336,-0.499,-0.401,0.761,20.650,-7.980,9.730
1743947130.245560,-0.559,-0.402,0.837,22.400,-7.840,8.120
1743947130.265560,-0.534,-0.355,0.846,16.940,-7.630,8.330
1743947130.285560,-0.554,-0.394,0.848,17.290,-7.490,7.490
1743947130.305560,-0.539,-0.365,0.847,11.900,-7.490,4.830
1743947130.325560,-0.536,-0.368,0.842,8.120,-6.790,1.540
1743947130.345560,-0.527,-0.379,0.835,4.410,-5.670,-1.400
1743947130.365892,-0.517,-0.370,0.809,-3.500,-1.540,-2.940
1743947130.385892,-0.519,-0.373,0.807,-3.080,-1.610,-2.870
1743947130.405892,-0.519,-0.373,0.805,-2.800,-1.680,-2.730
1743947130.425892,-0.515,-0.382,0.802,-1.820,-1.400,-2.240
1743947130.445892,-0.507,-0.385,0.796,1.050,-2.730,-0.490
1743947130.465892,-0.511,-0.384,0.800,5.320,-4.200,1.050
1743947130.470359,-0.521,-0.377,0.826,6.580,-5.950,1.190
1743947130.490359,-0.518,-0.376,0.824,6.790,-6.230,0.840
1743947130.510359,-0.517,-0.374,0.822,7.070,-7.000,0.630
1743947130.530359,-0.511,-0.370,0.825,6.930,-8.540,0.700
1743947130.550359,-0.511,-0.366,0.825,6.090,-8.260,0.420
1743947130.570359,-0.510,-0.363,0.830,4.620,-7.210,-0.070
1743947130.591081,-0.519,-0.364,0.814,2.590,-1.190,-3.290
1743947130.611081,-0.517,-0.365,0.812,3.710,-1.050,-3.570
1743947130.631081,-0.512,-0.373,0.802,5.110,-0.210,-4.060
1743947130.651081,-0.497,-0.371,0.821,4.410,-0.840,-3.080
1743947130.671081,-0.483,-0.367,0.826,7.910,-3.990,-1.750
1743947130.691081,-0.499,-0.368,0.826,9.660,-7.140,-1.400
1743947130.755518,-0.517,-0.370,0.839,10.430,-6.510,-1.960
1743947130.775518,-0.508,-0.339,0.841,6.510,-5.600,-0.840
1743947130.795518,-0.520,-0.357,0.834,9.450,-5.320,-1.680
1743947130.815518,-0.514,-0.347,0.851,7.280,-4.620,-1.260
1743947130.835518,-0.499,-0.352,0.852,3.360,-3.290,-2.730
1743947130.855518,-0.502,-0.337,0.860,-0.140,-2.240,-2.310
1743947130.860047,-0.504,-0.356,0.834,1.120,-3.080,-2.100
1743947130.880047,-0.502,-0.353,0.831,1.330,-4.480,-1.470
1743947130.900047,-0.496,-0.353,0.839,0.980,-4.900,-1.260
1743947130.920047,-0.506,-0.353,0.834,1.610,-3.360,-1.820
1743947130.940047,-0.507,-0.353,0.829,2.170,-3.010,-1.400
1743947130.960047,-0.504,-0.354,0.832,2.730,-4.130,-0.910
1743947130.965461,-0.500,-0.348,0.841,1.610,-3.570,-0.770
1743947130.985461,-0.501,-0.351,0.840,1.260,-2.870,-0.840
1743947131.005461,-0.503,-0.347,0.839,0.770,-2.870,-0.980
1743947131.025461,-0.501,-0.354,0.840,0.700,-3.150,-0.700
1743947131.045461,-0.500,-0.352,0.838,0.910,-3.430,-0.700
1743947131.065461,-0.500,-0.352,0.836,1.190,-3.010,-0.700
1743947131.085476,-0.500,-0.352,0.834,2.520,-3.430,0.280
1743947131.105476,-0.499,-0.353,0.838,2.870,-3.710,0.210
1743947131.125476,-0.500,-0.354,0.838,3.290,-4.060,0.280
1743947131.145476,-0.499,-0.351,0.845,3.850,-5.180,0.350
1743947131.165476,-0.497,-0.348,0.842,3.430,-4.970,0.140
1743947131.185476,-0.496,-0.347,0.846,2.380,-3.990,-0.140
1743947131.205053,-0.534,-0.344,0.830,0.840,-2.240,-1.820
1743947131.225053,-0.530,-0.345,0.832,-0.210,-0.700,-3.150
1743947131.245053,-0.517,-0.355,0.832,2.240,-0.210,-3.780
1743947131.265053,-0.499,-0.352,0.839,-1.050,1.050,-3.640
1743947131.285053,-0.480,-0.360,0.829,0.700,-1.400,-3.290
1743947131.305053,-0.488,-0.356,0.838,4.550,-4.130,-1.890
1743947131.310975,-0.492,-0.343,0.837,2.660,-4.970,-0.490
1743947131.330975,-0.493,-0.344,0.843,3.640,-5.040,-0.630
1743947131.350975,-0.493,-0.348,0.844,3.010,-4.970,-0.350
1743947131.370975,-0.510,-0.348,0.835,3.640,-4.060,-1.470
1743947131.390975,-0.508,-0.346,0.836,4.830,-3.990,-1.890
1743947131.410975,-0.498,-0.341,0.852,3.990,-2.940,-1.540
1743947131.460992,-0.484,-0.346,0.853,2.520,-1.960,-1.540
1743947131.480992,-0.482,-0.337,0.854,2.310,-2.100,-1.470
1743947131.500992,-0.485,-0.338,0.857,1.470,-2.730,-1.260
1743947131.520992,-0.496,-0.341,0.846,0.840,-2.870,-0.840
1743947131.540992,-0.493,-0.342,0.846,0.350,-2.590,-0.700
1743947131.560992,-0.495,-0.345,0.848,0.000,-1.820,-1.050
1743947131.565866,-0.495,-0.343,0.842,0.910,-3.360,-0.910
1743947131.585866,-0.492,-0.343,0.843,0.840,-3.220,-0.910
1743947131.605866,-0.492,-0.343,0.842,0.840,-2.940,-0.910
1743947131.625866,-0.493,-0.346,0.844,0.630,-2.590,-0.840
1743947131.645866,-0.494,-0.347,0.847,1.050,-3.150,-0.840
1743947131.665866,-0.494,-0.345,0.847,1.050,-3.220,-1.120
1743947131.685342,-0.494,-0.342,0.844,1.190,-3.010,-0.770
1743947131.705342,-0.492,-0.344,0.847,0.910,-2.940,-0.910
1743947131.725342,-0.490,-0.343,0.843,0.770,-2.520,-0.770
1743947131.745342,-0.493,-0.345,0.844,0.560,-2.100,-0.770
1743947131.765342,-0.493,-0.344,0.841,0.770,-2.450,-0.700
1743947131.785342,-0.495,-0.347,0.846,1.260,-2.730,-0.490
1743947131.805973,-0.488,-0.343,0.843,0.910,-1.400,-0.490
1743947131.825973,-0.491,-0.345,0.848,0.840,-1.330,-0.350
1743947131.845973,-0.491,-0.345,0.847,0.490,-1.540,-0.490
1743947131.865973,-0.497,-0.345,0.846,0.910,-1.680,-0.630
1743947131.885973,-0.498,-0.338,0.854,-0.560,-2.100,-1.120
1743947131.905973,-0.491,-0.346,0.847,-1.890,-1.050,-1.540
1743947131.925251,-0.493,-0.347,0.846,-0.420,-2.310,-1.400
1743947131.945251,-0.495,-0.345,0.846,-0.630,-2.100,-1.400
1743947131.965251,-0.495,-0.351,0.840,-0.770,-1.960,-1.400
1743947131.985251,-0.493,-0.349,0.835,0.630,-2.660,-0.980
1743947132.005251,-0.490,-0.347,0.839,1.400,-2.380,-0.490
1743947132.025251,-0.494,-0.346,0.844,2.660,-2.800,-0.140
1743947132.060205,-0.499,-0.341,0.850,-0.070,-1.400,-1.120
1743947132.080205,-0.500,-0.343,0.846,-0.630,-1.260,-1.260
1743947132.100205,-0.500,-0.346,0.845,-1.050,-1.330,-1.260
1743947132.120205,-0.493,-0.347,0.844,0.630,-1.400,-1.610
1743947132.140205,-0.494,-0.352,0.847,-0.770,-1.890,-1.330
1743947132.160205,-0.495,-0.348,0.839,-0.350,-2.100,-1.400
1743947132.165631,-0.496,-0.350,0.845,1.190,-2.800,-0.840
1743947132.185631,-0.497,-0.352,0.845,1.190,-2.870,-0.980
1743947132.205631,-0.497,-0.350,0.846,1.260,-3.010,-0.840
1743947132.225631,-0.494,-0.349,0.848,0.910,-2.870,-1.050
1743947132.245631,-0.493,-0.350,0.845,1.610,-3.360,-0.700
1743947132.265631,-0.500,-0.346,0.851,0.070,-2.660,-1.470
1743947132.300243,-0.493,-0.354,0.840,-1.330,-1.610,-1.680
1743947132.320243,-0.493,-0.356,0.840,-0.980,-2.030,-1.540
1743947132.340243,-0.493,-0.356,0.839,-0.490,-2.380,-1.610
1743947132.360243,-0.494,-0.354,0.843,0.070,-2.660,-1.260
1743947132.380243,-0.493,-0.354,0.837,0.140,-2.310,-1.330
1743947132.400243,-0.496,-0.356,0.836,1.540,-4.130,-0.840
1743947132.407062,-0.493,-0.352,0.842,0.910,-2.590,-0.840
1743947132.427062,-0.493,-0.353,0.841,0.910,-2.660,-0.840
1743947132.447062,-0.496,-0.351,0.845,1.190,-2.940,-0.770
1743947132.467062,-0.492,-0.348,0.850,0.210,-2.240,-1.190
1743947132.487062,-0.487,-0.353,0.841,-1.470,-1.470,-1.260
1743947132.507062,-0.495,-0.349,0.842,0.000,-2.940,-1.610
1743947132.525835,-0.491,-0.352,0.836,0.560,-2.940,-0.910
1743947132.545835,-0.490,-0.352,0.841,0.350,-2.870,-0.980
1743947132.565835,-0.488,-0.356,0.841,-0.420,-0.910,-1.120
1743947132.585835,-0.496,-0.361,0.833,1.400,-3.080,-0.560
1743947132.605835,-0.492,-0.359,0.839,2.870,-4.060,-0.070
1743947132.625835,-0.492,-0.348,0.836,3.150,-3.710,-0.210
1743947132.660187,-0.500,-0.352,0.849,0.700,-2.310,-0.770
1743947132.680187,-0.495,-0.353,0.849,0.770,-2.100,-0.910
1743947132.700187,-0.498,-0.354,0.846,0.000,-2.170,-0.910
1743947132.720187,-0.494,-0.351,0.842,-0.630,-1.890,-1.260
1743947132.740187,-0.491,-0.357,0.841,-1.260,-0.840,-1.400
1743947132.760187,-0.496,-0.354,0.843,-1.120,-1.260,-1.330
1743947132.765365,-0.492,-0.355,0.838,0.420,-2.310,-0.840
1743947132.785365,-0.490,-0.359,0.838,0.490,-2.380,-0.840
1743947132.805365,-0.494,-0.358,0.839,0.770,-2.520,-0.840
1743947132.825365,-0.493,-0.355,0.836,1.260,-2.660,-0.560
1743947132.845365,-0.495,-0.357,0.840,1.820,-2.870,-0.420
1743947132.865365,-0.496,-0.355,0.841,1.680,-2.870,-0.630
1743947132.870357,-0.496,-0.354,0.844,1.470,-2.660,-0.630
1743947132.890357,-0.494,-0.350,0.848,1.190,-2.590,-0.560
1743947132.910357,-0.494,-0.353,0.845,0.630,-2.030,-0.840
1743947132.930357,-0.497,-0.355,0.840,0.280,-2.240,-1.050
1743947132.950357,-0.498,-0.354,0.845,0.070,-2.520,-1.050
1743947132.970357,-0.495,-0.356,0.841,0.140,-2.170,-1.050
1743947132.990622,-0.493,-0.357,0.836,0.490,-2.240,-0.980
1743947133.010622,-0.493,-0.358,0.838,0.910,-2.380,-0.770
1743947133.030622,-0.492,-0.357,0.842,1.050,-2.520,-0.700
1743947133.050622,-0.495,-0.355,0.840,1.050,-2.450,-0.700
1743947133.070622,-0.495,-0.355,0.842,0.770,-2.590,-0.840
1743947133.090622,-0.496,-0.354,0.841,0.420,-2.380,-1.050
1743947133.139299,-0.492,-0.355,0.836,0.140,-2.520,-1.330
1743947133.159299,-0.493,-0.358,0.838,0.140,-2.590,-1.190
1743947133.179299,-0.491,-0.359,0.835,0.210,-2.310,-1.120
1743947133.199299,-0.491,-0.359,0.834,0.420,-2.310,-1.050
1743947133.219299,-0.497,-0.357,0.839,0.980,-2.450,-0.700
1743947133.239299,-0.495,-0.361,0.836,0.980,-2.240,-0.630
1743947133.275155,-0.496,-0.359,0.839,0.280,-2.170,-0.980
1743947133.295155,-0.494,-0.358,0.841,0.350,-2.240,-0.910
1743947133.315155,-0.494,-0.358,0.841,0.630,-2.450,-0.840
1743947133.335155,-0.495,-0.358,0.841,0.560,-2.520,-0.910
1743947133.355155,-0.496,-0.356,0.838,-0.140,-1.680,-1.260
1743947133.375155,-0.495,-0.358,0.837,-0.840,-1.680,-1.330
1743947133.366028,-0.492,-0.360,0.839,0.770,-2.800,-0.770
1743947133.386028,-0.493,-0.361,0.839,0.840,-2.870,-0.840
1743947133.406028,-0.494,-0.361,0.839,1.120,-2.870,-0.770
1743947133.426028,-0.498,-0.358,0.837,1.050,-2.520,-0.700
