Millis	AccelX	AccelY	AccelZ	GyroX	GyroY	GyroZ
0	-0.992	-0.057	0.228	-1.19	-2.03	-0.42
20	-0.991	-0.052	0.231	-0.98	-1.89	-0.42
40	-0.991	-0.052	0.233	-1.12	-1.82	-0.42
64	-0.997	-0.054	0.236	-1.05	-1.96	-0.28
84	-0.995	-0.059	0.235	-0.84	-2.03	-0.28
101	-0.996	-0.058	0.232	-0.77	-2.17	-0.28
124	-0.993	-0.057	0.226	-0.35	-1.33	-0.35
144	-0.992	-0.063	0.227	-0.84	-1.19	-0.21
167	-0.988	-0.06	0.22	-0.21	-1.82	-0.07
186	-0.99	-0.046	0.214	1.54	-0.98	0.07
210	-0.991	-0.05	0.224	1.33	-0.56	0.21
229	-0.995	-0.055	0.224	-0.28	-0.14	0.07
246	-1.005	-0.048	0.233	-1.05	-0.21	-0.07
268	-1.001	-0.054	0.23	-0.84	-1.47	-0.21
290	-0.994	-0.055	0.223	-0.21	-1.19	-0.28
309	-0.989	-0.056	0.219	0.0	-1.19	-0.35
333	-0.991	-0.054	0.225	0.21	-1.12	-0.49
353	-0.995	-0.057	0.225	0.63	-1.19	-0.49
372	-0.995	-0.055	0.222	0.7	-0.7	-0.77
391	-0.997	-0.054	0.227	0.56	0.0	-0.98
411	-0.996	-0.05	0.226	1.68	0.35	-1.12
435	-1.002	-0.058	0.233	1.61	-0.77	-0.98
456	-0.991	-0.052	0.214	1.33	-0.77	-1.19
475	-0.988	-0.051	0.222	1.54	-0.07	-1.19
494	-0.991	-0.056	0.226	1.54	0.35	-1.4
518	-0.994	-0.057	0.224	1.82	0.07	-1.61
539	-0.995	-0.053	0.221	2.24	0.49	-1.75
559	-0.998	-0.054	0.218	2.24	0.77	-1.68
579	-0.996	-0.053	0.22	2.24	0.98	-1.54
599	-0.994	-0.053	0.219	2.1	1.33	-1.47
623	-0.994	-0.054	0.221	1.96	1.26	-1.4
642	-0.996	-0.054	0.22	1.96	1.26	-1.33
664	-0.999	-0.058	0.223	2.38	1.12	-1.33
687	-0.992	-0.051	0.22	2.73	1.19	-1.26
706	-0.996	-0.048	0.216	2.38	1.33	-1.26
725	-0.993	-0.049	0.213	1.75	1.4	-1.33
741	-0.994	-0.05	0.212	1.26	1.68	-1.26
766	-0.994	-0.051	0.217	1.89	2.52	-1.05
786	-1.003	-0.061	0.228	1.89	2.03	-0.63
806	-1.001	-0.066	0.214	1.12	0.35	-0.49
830	-0.997	-0.042	0.211	2.59	0.98	-0.56
850	-0.997	-0.034	0.212	2.73	1.68	-0.28
874	-0.996	-0.05	0.211	0.35	2.52	-0.42
894	-0.995	-0.051	0.218	-0.14	2.1	-0.7
912	-1.001	-0.049	0.212	-0.14	1.82	-0.91
935	-1.012	-0.044	0.213	-0.49	1.75	-0.91
958	-1.004	-0.041	0.21	-1.05	1.4	-0.7
978	-1.001	-0.043	0.208	-1.61	0.56	-0.63
1002	-1.003	-0.051	0.209	-1.82	-0.35	-0.56
1021	-1.005	-0.05	0.206	-1.89	-0.49	-0.35
1041	-1.002	-0.053	0.205	-2.38	-0.42	-0.28
1061	-1.003	-0.052	0.198	-2.17	-0.56	-0.42
1081	-1.002	-0.052	0.213	-1.96	-0.91	-0.28
1105	-0.998	-0.051	0.202	-2.17	-1.26	-0.42
1124	-1.004	-0.053	0.206	-2.45	-0.77	-0.63
1144	-1.001	-0.055	0.206	-2.31	-1.05	-0.98
1168	-1.002	-0.054	0.211	-1.47	-1.68	-0.98
1188	-0.999	-0.052	0.211	-0.98	-2.31	-0.91
1208	-0.998	-0.051	0.207	-1.12	-2.24	-1.05
1228	-0.998	-0.058	0.204	-1.12	-2.31	-1.26
1247	-0.998	-0.059	0.205	-0.77	-2.45	-1.47
1273	-1.0	-0.054	0.207	-0.14	-2.45	-1.54
1290	-0.996	-0.053	0.205	0.07	-2.1	-1.54
1312	-0.994	-0.053	0.209	-0.21	-1.68	-1.54
1331	-0.998	-0.056	0.213	-0.21	-2.03	-1.47
1355	-1.002	-0.055	0.208	-0.21	-2.45	-1.54
1371	-0.998	-0.051	0.206	-0.42	-2.24	-1.54
1391	-1.001	-0.054	0.207	-0.63	-2.03	-1.61
1410	-0.999	-0.053	0.211	0.07	-1.82	-1.75
1435	-1.001	-0.058	0.213	-0.14	-2.66	-1.61
1450	-0.996	-0.063	0.2	0.28	-3.08	-1.61
1471	-0.998	-0.048	0.21	1.82	-1.82	-1.61
1493	-0.992	-0.049	0.204	3.01	-1.19	-1.19
1515	-0.994	-0.06	0.208	1.54	-0.49	-1.4
1535	-0.994	-0.057	0.217	1.12	-0.91	-1.68
1559	-0.996	-0.057	0.208	1.75	-0.84	-1.96
1577	-1.0	-0.06	0.207	2.03	-0.7	-2.03
1601	-0.997	-0.06	0.205	1.82	-0.84	-2.24
1619	-0.995	-0.055	0.202	1.19	-0.77	-2.38
1638	-0.997	-0.053	0.206	0.91	-0.63	-2.38
1663	-0.992	-0.052	0.206	1.05	-0.91	-2.03
1683	-0.995	-0.058	0.21	0.56	-0.7	-1.82
1707	-1.002	-0.06	0.213	0.56	-1.12	-1.54
1727	-1.003	-0.06	0.215	1.61	-1.05	-1.26
1747	-1.0	-0.057	0.203	1.19	-0.56	-1.05
1762	-0.994	-0.056	0.202	1.12	0.14	-0.98
1787	-0.989	-0.058	0.209	1.47	0.56	-0.77
1808	-0.991	-0.062	0.211	1.96	0.91	-0.7
1827	-0.997	-0.062	0.209	2.17	0.84	-0.63
1846	-0.999	-0.056	0.207	1.89	0.84	-0.77
1869	-0.996	-0.052	0.206	1.33	0.98	-0.98
1889	-0.996	-0.051	0.208	0.98	1.26	-0.84
1913	-1.001	-0.054	0.206	0.7	0.7	-0.77
1933	-1.002	-0.055	0.199	0.49	0.21	-0.84
1953	-0.998	-0.052	0.202	0.21	0.21	-0.77
1973	-1.0	-0.048	0.212	0.28	-0.28	-0.7
1997	-1.003	-0.055	0.217	0.56	-0.98	-0.35
2016	-0.998	-0.055	0.209	0.42	-1.05	-0.21
2034	-1.003	-0.056	0.206	0.0	-1.26	-0.49
2058	-1.002	-0.052	0.206	0.14	-2.59	-0.77
2079	-1.001	-0.05	0.204	0.91	-2.52	-0.77
2095	-1.0	-0.053	0.21	1.26	-2.52	-0.56
2119	-0.991	-0.057	0.201	1.89	-2.87	-0.7
2139	-0.988	-0.055	0.197	1.54	-1.47	-0.77
2159	-0.998	-0.057	0.211	0.91	-0.56	-0.42
2183	-1.002	-0.061	0.207	0.63	-1.47	-1.19
2204	-0.99	-0.063	0.207	1.19	-1.61	-1.26
2220	-0.997	-0.063	0.207	1.19	-1.96	-0.98
2239	-0.993	-0.069	0.193	-0.07	-1.96	-0.91
2264	-0.988	-0.062	0.198	2.66	-0.63	-0.91
2284	-0.998	-0.063	0.202	4.48	-0.14	-0.77
2299	-0.994	-0.072	0.203	3.15	-0.28	-0.7
2323	-1.0	-0.067	0.218	2.45	-0.21	-0.91
2343	-1.002	-0.068	0.213	3.08	-0.42	-0.63
2363	-1.004	-0.067	0.211	3.57	-0.42	-1.12
2382	-0.999	-0.066	0.204	3.92	-0.84	-1.33
2407	-0.99	-0.057	0.197	3.64	-0.07	-1.82
2428	-0.994	-0.047	0.204	3.57	0.63	-1.96
2447	-1.005	-0.04	0.207	3.36	0.14	-2.31
2465	-1.012	-0.043	0.204	2.87	-0.98	-2.73
2488	-1.021	-0.042	0.202	2.24	-2.45	-3.22
2512	-1.027	-0.032	0.196	2.45	-4.13	-4.34
2532	-1.021	-0.033	0.195	2.52	-6.44	-4.69
2548	-0.997	-0.036	0.184	2.59	-7.35	-4.97
2571	-0.976	-0.03	0.186	2.73	-6.72	-4.9
2592	-0.978	-0.043	0.207	3.43	-4.76	-4.48
2609	-0.991	-0.048	0.216	4.9	-4.13	-3.99
2633	-0.977	-0.05	0.209	6.93	-3.57	-3.5
2653	-0.959	-0.052	0.209	9.03	-0.07	-2.8
2673	-0.966	-0.053	0.225	9.52	3.57	-1.89
2692	-0.983	-0.053	0.227	10.01	5.74	-1.47
2709	-0.984	-0.042	0.217	10.15	6.86	-1.68
2730	-0.973	-0.023	0.197	10.29	8.96	-2.03
2750	-0.976	-0.013	0.197	9.66	10.43	-2.8
2770	-0.982	-0.012	0.195	8.4	11.62	-3.36
2794	-1.0	-0.016	0.201	6.65	13.09	-4.2
2812	-0.996	-0.023	0.201	7.07	12.81	-5.25
2834	-0.991	-0.031	0.193	7.91	12.46	-6.93
2856	-1.007	-0.054	0.191	8.54	11.48	-8.96
2875	-1.003	-0.079	0.181	7.28	13.72	-10.99
2894	-1.004	-0.09	0.188	5.74	14.56	-13.44
2914	-0.972	-0.094	0.168	6.37	12.74	-14.56
2935	-0.969	-0.133	0.151	9.24	13.09	-13.65
2954	-0.997	-0.173	0.157	10.64	14.49	-12.74
2979	-1.047	-0.187	0.174	7.98	11.76	-11.97
2999	-1.044	-0.183	0.159	8.61	10.85	-11.55
3019	-1.049	-0.182	0.159	10.85	8.68	-10.22
3040	-1.04	-0.172	0.164	10.08	6.09	-8.12
3058	-1.03	-0.165	0.172	6.51	5.6	-5.6
3083	-1.025	-0.147	0.189	4.06	0.14	-1.96
3098	-0.998	-0.143	0.162	3.78	-0.84	0.7
3118	-0.962	-0.158	0.149	5.18	-0.35	3.36
3140	-0.936	-0.179	0.136	7.0	1.12	6.3
3162	-0.942	-0.197	0.124	7.28	3.01	8.19
3186	-0.959	-0.179	0.129	7.28	3.99	9.87
3206	-1.0	-0.157	0.131	6.86	3.5	11.62
3222	-1.022	-0.157	0.127	4.9	3.57	12.88
3246	-1.036	-0.166	0.138	3.08	5.53	14.77
3266	-1.039	-0.164	0.147	3.08	4.62	16.8
3287	-1.015	-0.144	0.136	6.51	3.85	20.3
3305	-0.999	-0.141	0.133	8.26	5.11	23.52
3326	-1.003	-0.137	0.14	9.38	5.18	26.6
3346	-0.991	-0.127	0.142	10.43	5.46	28.21
3370	-0.982	-0.116	0.136	12.18	4.06	31.15
3389	-0.974	-0.098	0.114	14.14	4.62	33.95
3407	-0.981	-0.077	0.108	16.24	6.58	36.47
3427	-1.024	-0.057	0.121	17.78	8.26	38.78
3446	-1.025	-0.042	0.124	19.88	9.73	39.41
3469	-1.001	-0.009	0.115	22.05	12.67	39.76
3489	-0.966	0.005	0.108	22.19	15.54	40.18
3513	-0.948	0.027	0.118	21.91	16.38	42.28
3528	-0.913	0.054	0.106	23.24	16.17	43.68
3550	-0.909	0.092	0.08	25.41	18.06	46.55
3573	-0.899	0.116	0.048	28.28	21.77	49.91
3593	-0.904	0.152	0.01	30.52	31.99	54.04
3616	-0.861	0.159	-0.009	31.92	39.13	58.87
3635	-0.879	0.186	-0.007	30.24	42.91	62.58
3656	-0.894	0.244	0.019	29.12	45.99	66.85
3680	-0.9	0.297	0.057	29.82	45.85	73.43
3699	-0.873	0.305	0.003	33.18	41.23	79.03
3717	-0.793	0.334	-0.073	37.87	44.17	83.3
3741	-0.72	0.32	-0.143	42.7	52.43	88.83
3759	-0.688	0.321	-0.16	41.16	66.01	91.7
3777	-0.672	0.342	-0.129	39.06	70.91	93.1
3801	-0.717	0.427	-0.143	38.43	65.94	96.32
3817	-0.822	0.507	-0.2	39.55	60.76	97.51
3837	-0.902	0.625	-0.193	43.89	58.94	100.45
3861	-0.844	0.616	-0.167	47.53	59.43	98.49
3881	-0.77	0.564	-0.188	46.48	57.54	98.21
3899	-0.686	0.511	-0.273	43.26	58.8	96.25
3924	-0.617	0.493	-0.356	36.68	66.22	91.49
3943	-0.616	0.597	-0.346	31.5	72.24	87.71
3961	-0.641	0.668	-0.291	30.24	71.54	83.65
3985	-0.656	0.695	-0.359	31.08	62.79	78.19
4001	-0.634	0.684	-0.461	26.6	58.52	77.42
4024	-0.606	0.657	-0.544	24.01	61.6	72.38
4041	-0.572	0.689	-0.498	28.49	64.54	71.05
4061	-0.585	0.742	-0.442	27.44	63.42	73.43
4085	-0.564	0.71	-0.392	19.04	60.41	70.77
4106	-0.501	0.675	-0.5	13.79	55.65	66.36
4122	-0.452	0.719	-0.559	16.59	55.3	66.64
4141	-0.5	0.785	-0.565	20.37	50.54	69.09
4166	-0.436	0.812	-0.594	17.78	51.38	68.88
4182	-0.4	0.855	-0.66	6.86	55.51	66.43
4206	-0.362	0.848	-0.734	-1.12	63.21	60.69
4226	-0.396	0.859	-0.641	-3.01	60.2	59.85
4246	-0.372	0.824	-0.616	1.4	52.29	59.08
4265	-0.319	0.818	-0.7	4.97	51.73	56.49
4289	-0.32	0.795	-0.712	-1.05	49.35	50.33
4310	-0.337	0.869	-0.691	-6.44	40.88	42.56
4330	-0.343	0.944	-0.643	-5.32	32.48	37.38
4348	-0.285	0.921	-0.765	-5.11	24.92	31.43
4369	-0.203	0.926	-0.807	-9.38	28.7	21.63
4389	-0.275	0.917	-0.719	-10.36	22.12	12.95
4408	-0.325	0.932	-0.73	-10.78	13.65	6.23
4432	-0.339	0.933	-0.764	-7.63	0.98	-0.49
4456	-0.261	0.917	-0.81	-1.61	-0.21	-9.73
4476	-0.27	0.909	-0.765	0.84	-2.73	-17.92
4494	-0.26	0.91	-0.715	1.96	-5.67	-24.08
4514	-0.264	0.904	-0.679	3.15	-10.36	-30.87
4537	-0.291	0.892	-0.7	6.02	-16.66	-40.81
4560	-0.297	0.894	-0.693	11.83	-21.35	-48.51
4580	-0.279	0.889	-0.671	15.19	-23.31	-51.73
4601	-0.262	0.861	-0.63	15.89	-25.27	-53.06
4619	-0.321	0.83	-0.576	15.33	-31.29	-52.78
4640	-0.373	0.783	-0.598	11.69	-35.7	-54.25
4660	-0.385	0.767	-0.604	7.98	-36.61	-58.66
4684	-0.409	0.795	-0.554	7.35	-37.87	-63.07
4699	-0.427	0.81	-0.549	4.48	-40.32	-63.28
4721	-0.431	0.825	-0.529	1.47	-43.19	-62.93
4743	-0.429	0.799	-0.538	-1.54	-46.83	-61.32
4766	-0.413	0.727	-0.568	-1.54	-47.11	-59.5
4782	-0.432	0.692	-0.508	-0.63	-43.19	-58.8
4803	-0.485	0.652	-0.488	-0.28	-43.96	-58.52
4823	-0.512	0.636	-0.484	-1.19	-45.5	-58.1
4847	-0.539	0.617	-0.475	-4.27	-47.11	-59.29
4867	-0.537	0.598	-0.462	-5.95	-46.9	-60.27
4885	-0.571	0.583	-0.429	-5.95	-50.75	-57.61
4909	-0.591	0.596	-0.444	-7.84	-53.69	-54.18
4928	-0.626	0.6	-0.452	-8.12	-52.92	-51.66
4948	-0.658	0.575	-0.427	-7.14	-52.64	-49.91
4967	-0.668	0.518	-0.428	-6.02	-53.55	-49.56
4990	-0.659	0.475	-0.427	-3.5	-50.33	-51.59
5008	-0.691	0.474	-0.397	-1.96	-49.42	-53.48
5032	-0.704	0.492	-0.409	-0.14	-49.14	-56.56
5053	-0.712	0.513	-0.409	-0.49	-45.15	-57.4
5072	-0.739	0.52	-0.385	-2.24	-42.42	-57.4
5091	-0.766	0.511	-0.356	-0.7	-38.22	-57.05
5115	-0.789	0.508	-0.31	-0.77	-37.52	-56.49
5133	-0.794	0.481	-0.303	-5.04	-37.31	-55.37
5155	-0.794	0.443	-0.307	-9.73	-36.89	-54.25
5172	-0.809	0.452	-0.306	-9.24	-37.17	-52.22
5194	-0.8	0.438	-0.309	-7.7	-35.28	-48.51
5214	-0.791	0.413	-0.285	-6.44	-29.33	-45.71
5234	-0.805	0.364	-0.241	-7.91	-25.2	-43.82
5257	-0.804	0.306	-0.258	-8.19	-25.13	-42.77
5279	-0.798	0.332	-0.282	-5.88	-22.75	-40.32
5304	-0.803	0.361	-0.273	-4.06	-18.13	-35.21
5319	-0.846	0.362	-0.244	-3.22	-14.35	-30.73
5338	-0.879	0.353	-0.216	-5.25	-13.65	-25.69
5364	-0.886	0.351	-0.209	-10.92	-12.6	-21.7
5383	-0.85	0.347	-0.234	-11.27	-11.97	-17.15
5402	-0.832	0.323	-0.237	-10.08	-7.63	-12.67
5420	-0.841	0.292	-0.23	-8.33	-3.99	-8.19
5445	-0.847	0.278	-0.233	-6.58	-0.28	-3.36
5464	-0.854	0.262	-0.214	-5.74	3.36	-0.35
5485	-0.855	0.259	-0.211	-4.83	5.95	3.36
5504	-0.856	0.258	-0.229	-4.34	8.12	7.0
5524	-0.87	0.292	-0.242	-5.04	10.08	10.99
5542	-0.879	0.32	-0.25	-5.53	11.9	15.26
5563	-0.878	0.329	-0.235	-4.83	14.28	20.44
5581	-0.891	0.325	-0.224	-4.48	14.21	25.13
5606	-0.88	0.315	-0.247	-3.5	13.51	29.54
5626	-0.855	0.326	-0.259	-3.08	15.89	31.99
5650	-0.853	0.331	-0.266	-2.52	16.87	36.26
5669	-0.832	0.345	-0.277	-2.38	17.78	40.32
5690	-0.83	0.382	-0.274	-1.82	19.11	45.29
5711	-0.854	0.413	-0.276	-1.54	17.36	50.82
5729	-0.833	0.433	-0.288	-0.35	18.55	54.81
5753	-0.803	0.43	-0.29	1.89	20.09	60.34
5769	-0.753	0.41	-0.325	4.41	23.31	63.21
5789	-0.735	0.414	-0.298	6.79	29.4	65.73
5813	-0.71	0.418	-0.288	9.73	32.76	66.5
5833	-0.68	0.467	-0.293	13.3	32.55	68.11
5858	-0.645	0.483	-0.344	17.85	33.04	71.19
5877	-0.633	0.497	-0.383	18.2	38.22	72.45
5896	-0.62	0.514	-0.392	17.99	44.73	71.4
5916	-0.618	0.553	-0.38	19.88	47.67	70.07
5938	-0.603	0.581	-0.383	22.26	45.85	69.51
5960	-0.574	0.604	-0.398	23.66	46.9	68.74
5975	-0.535	0.616	-0.386	23.87	49.7	68.53
6001	-0.506	0.603	-0.367	23.87	50.33	67.62
6018	-0.471	0.595	-0.423	25.2	50.47	66.08
6037	-0.444	0.622	-0.485	25.97	48.72	65.59
6058	-0.423	0.651	-0.553	24.5	49.84	64.12
6078	-0.436	0.683	-0.552	24.71	51.31	61.53
6102	-0.471	0.715	-0.58	22.96	49.14	56.7
6122	-0.458	0.755	-0.631	15.61	47.39	54.11
6142	-0.412	0.799	-0.64	8.89	47.81	54.32
6162	-0.424	0.871	-0.59	4.83	44.38	56.28
6186	-0.381	0.886	-0.617	2.87	42.21	57.19
6203	-0.339	0.854	-0.623	0.63	43.19	56.63
6226	-0.33	0.774	-0.653	0.0	39.48	55.79
6246	-0.283	0.754	-0.687	1.05	38.15	53.2
6266	-0.227	0.78	-0.713	3.57	39.13	50.82
6286	-0.208	0.835	-0.651	7.28	36.75	48.3
6307	-0.214	0.847	-0.652	-0.49	33.39	42.91
6331	-0.229	0.862	-0.658	-7.07	30.73	33.53
6350	-0.255	0.819	-0.682	-9.38	26.88	27.44
6373	-0.264	0.854	-0.755	-9.17	21.14	18.41
6392	-0.237	0.928	-0.799	-8.82	22.19	11.62
6414	-0.291	1.026	-0.67	-5.6	19.53	6.23
6438	-0.323	1.036	-0.69	-3.01	7.42	2.1
6459	-0.301	1.024	-0.777	-5.6	4.41	-4.41
6478	-0.288	1.011	-0.786	-0.77	1.4	-11.62
6497	-0.269	0.979	-0.732	4.69	-4.2	-18.06
6516	-0.259	0.957	-0.689	6.23	-10.92	-26.32
6540	-0.248	0.938	-0.686	7.56	-17.01	-36.19
6555	-0.267	0.907	-0.699	10.64	-21.84	-41.65
6580	-0.271	0.893	-0.729	13.02	-27.3	-50.75
6601	-0.261	0.886	-0.7	11.69	-29.68	-56.91
6618	-0.295	0.87	-0.651	11.55	-34.86	-59.99
6636	-0.346	0.839	-0.641	12.67	-41.3	-64.61
6660	-0.345	0.821	-0.611	10.01	-44.66	-71.19
6678	-0.345	0.802	-0.596	7.77	-47.53	-73.22
6698	-0.346	0.773	-0.579	3.99	-50.26	-75.11
6721	-0.354	0.753	-0.603	2.24	-51.17	-77.21
6742	-0.4	0.745	-0.574	0.84	-51.8	-77.56
6762	-0.446	0.715	-0.546	0.35	-56.56	-78.12
6779	-0.461	0.681	-0.57	-2.52	-58.8	-80.29
6801	-0.494	0.672	-0.56	-4.27	-58.17	-82.67
6826	-0.528	0.68	-0.538	-5.11	-60.97	-81.13
6844	-0.566	0.697	-0.523	-7.07	-62.86	-79.73
6864	-0.569	0.657	-0.489	-9.52	-63.21	-79.38
6884	-0.569	0.595	-0.47	-11.27	-63.35	-79.24
6909	-0.602	0.544	-0.441	-14.91	-61.74	-78.33
6925	-0.616	0.535	-0.43	-17.22	-61.95	-78.4
6943	-0.642	0.536	-0.431	-17.29	-63.0	-79.03
6963	-0.671	0.521	-0.406	-15.68	-62.65	-78.54
6988	-0.706	0.495	-0.362	-14.14	-59.36	-78.05
7006	-0.752	0.49	-0.345	-11.48	-59.29	-77.63
7025	-0.773	0.479	-0.349	-11.41	-59.15	-76.86
7048	-0.801	0.458	-0.335	-16.03	-58.59	-75.81
7068	-0.808	0.457	-0.326	-17.92	-57.33	-74.69
7087	-0.808	0.447	-0.312	-16.94	-55.58	-71.75
7113	-0.795	0.419	-0.273	-16.94	-52.01	-69.02
7131	-0.804	0.383	-0.248	-17.92	-51.38	-68.25
7151	-0.824	0.378	-0.232	-20.37	-50.47	-67.55
7174	-0.845	0.382	-0.228	-22.89	-50.26	-63.56
7195	-0.841	0.35	-0.197	-21.42	-49.0	-59.01
7216	-0.842	0.329	-0.186	-19.67	-47.88	-54.04
7235	-0.871	0.297	-0.192	-17.92	-45.22	-51.17
7256	-0.887	0.274	-0.174	-17.29	-43.4	-49.14
7274	-0.884	0.241	-0.176	-16.59	-41.02	-46.76
7293	-0.891	0.214	-0.151	-15.47	-38.43	-44.17
7312	-0.927	0.193	-0.141	-12.32	-18.55	-42.14
7336	-0.932	0.186	-0.114	-11.41	-30.24	-40.53
7355	-0.928	0.177	-0.094	-11.41	-29.4	-37.73
7375	-0.915	0.159	-0.1	-10.78	-28.91	-33.95
7399	-0.911	0.16	-0.077	-13.86	-25.83	-30.59
7416	-0.948	0.158	-0.071	-16.1	-24.43	-28.0
7439	-1.001	0.171	-0.039	-15.61	-21.63	-24.57
7460	-1.035	0.152	0.012	-10.85	-22.05	-21.63
7479	-1.021	0.117	-0.003	-9.52	-26.18	-19.67
7499	-0.96	0.082	-0.063	-10.29	-24.64	-19.46
7520	-0.941	0.087	-0.061	-10.22	-21.21	-18.27
7544	-0.947	0.1	-0.03	-9.52	-17.22	-16.17
7563	-0.958	0.106	-0.007	-9.59	-13.3	-14.63
7583	-0.971	0.098	0.018	-11.62	-12.32	-13.44
7603	-0.976	0.08	0.004	-14.0	-12.46	-12.53
7626	-0.968	0.078	0.012	-14.14	-11.48	-11.27
7645	-0.98	0.064	0.022	-13.58	-10.01	-10.22
7668	-1.003	0.052	0.039	-11.97	-7.91	-9.73
7687	-0.997	0.054	0.041	-13.86	-5.67	-10.57
7707	-0.971	0.064	0.019	-15.54	-4.13	-12.04
7731	-0.975	0.064	0.021	-16.03	-1.75	-11.34
7752	-0.99	0.049	0.033	-15.12	-0.35	-9.8
7771	-0.987	0.039	0.031	-15.68	2.24	-8.54
7786	-0.987	0.05	0.025	-16.52	2.94	-7.49
7812	-0.976	0.073	0.003	-14.91	5.11	-5.46
7831	-0.973	0.061	0.001	-14.98	4.9	-2.1
7851	-0.97	0.039	0.012	-16.03	7.35	1.75
7870	-0.979	0.031	0.045	-17.57	9.52	5.39
7889	-0.964	0.037	0.042	-16.03	8.47	12.18
7911	-0.91	0.027	0.006	-9.03	11.2	21.21
7931	-0.9	-0.001	-0.01	-3.5	15.89	31.5
7955	-0.892	-0.01	-0.013	0.98	21.49	42.63
7975	-0.888	0.019	-0.013	4.13	28.35	50.05
7991	-0.878	0.049	-0.012	6.51	33.81	56.14
8013	-0.908	0.06	0.007	9.8	38.01	65.38
8036	-0.935	0.069	-0.007	14.35	37.87	71.96
8053	-0.935	0.09	-0.022	16.38	38.22	76.37
8072	-0.938	0.177	-0.035	19.25	35.0	79.45
8097	-0.926	0.237	-0.096	20.86	33.04	83.79
8116	-0.875	0.237	-0.161	20.58	35.98	87.36
8135	-0.854	0.241	-0.168	20.3	38.64	91.56
8156	-0.857	0.292	-0.181	25.62	44.1	93.73
8174	-0.847	0.369	-0.182	31.15	46.2	94.43
8197	-0.814	0.373	-0.197	35.42	44.59	94.01
8218	-0.735	0.381	-0.257	35.0	48.65	94.22
8238	-0.714	0.425	-0.262	33.53	53.27	95.69
8259	-0.778	0.515	-0.263	33.6	53.62	97.09
8277	-0.781	0.568	-0.248	33.81	52.71	96.32
8297	-0.741	0.6	-0.245	34.23	49.21	96.53
8318	-0.663	0.562	-0.348	33.46	48.37	97.51
8338	-0.61	0.552	-0.389	30.8	51.45	97.09
8362	-0.576	0.588	-0.388	30.31	58.38	95.34
8382	-0.574	0.647	-0.269	31.29	58.8	94.15
8400	-0.567	0.651	-0.276	31.29	53.2	96.11
8424	-0.525	0.595	-0.337	25.06	48.93	95.06
8444	-0.517	0.585	-0.372	16.59	50.68	89.81
8464	-0.535	0.605	-0.348	13.65	48.23	84.28
8484	-0.479	0.645	-0.5	14.49	47.46	80.01
8504	-0.424	0.701	-0.557	15.89	50.68	78.26
8526	-0.419	0.82	-0.567	18.41	53.48	78.89
8550	-0.451	0.932	-0.527	20.44	49.42	80.92
8570	-0.396	0.978	-0.524	16.59	45.01	80.99
8589	-0.311	0.927	-0.588	4.62	45.71	80.29
8613	-0.358	0.964	-0.612	3.99	46.69	78.89
8634	-0.45	1.014	-0.652	14.21	37.38	76.3
8649	-0.386	1.034	-0.647	15.89	32.83	73.36
8674	-0.356	1.009	-0.643	15.12	25.62	63.07
8692	-0.367	1.012	-0.669	13.44	23.03	51.59
8713	-0.339	0.966	-0.686	15.26	19.88	37.03
8733	-0.319	0.977	-0.721	18.06	14.07	25.76
8757	-0.303	1.038	-0.731	16.38	5.46	13.3
8778	-0.301	1.159	-0.669	12.67	1.05	2.17
8796	-0.322	1.146	-0.728	10.36	-7.56	-5.6
8817	-0.282	1.107	-0.762	10.92	-7.84	-13.09
8834	-0.265	1.024	-0.713	11.62	-10.64	-18.62
8853	-0.269	0.957	-0.655	10.22	-17.22	-26.88
8876	-0.305	0.895	-0.657	8.89	-23.31	-40.81
8897	-0.309	0.866	-0.651	10.78	-25.2	-52.99
8916	-0.346	0.872	-0.618	13.23	-30.45	-60.97
8934	-0.364	0.893	-0.625	13.79	-35.84	-66.78
8958	-0.336	0.905	-0.63	11.69	-36.75	-71.75
8978	-0.301	0.892	-0.585	8.12	-35.7	-71.33
8997	-0.32	0.833	-0.565	5.11	-38.78	-71.05
9014	-0.349	0.793	-0.578	1.54	-41.16	-72.52
9039	-0.387	0.755	-0.602	-1.54	-41.93	-75.95
9057	-0.439	0.756	-0.589	-2.1	-42.21	-77.77
9081	-0.489	0.75	-0.581	-2.8	-44.87	-80.71
9100	-0.521	0.747	-0.573	-2.17	-46.41	-82.53
9119	-0.536	0.821	-0.513	1.75	-50.26	-81.69
9141	-0.581	0.696	-0.503	-0.77	-56.35	-80.22
9165	-0.588	0.656	-0.516	-3.5	-58.66	-81.62
9184	-0.563	0.649	-0.537	-6.51	-56.77	-83.09
9205	-0.611	0.656	-0.465	-9.66	-57.19	-81.41
9223	-0.64	0.627	-0.434	-12.6	-59.57	-80.08
9242	-0.652	0.585	-0.43	-15.19	-61.53	-79.17
9265	-0.66	0.535	-0.436	-17.22	-61.74	-78.75
9287	-0.677	0.506	-0.403	-19.88	-60.27	-79.52
9306	-0.722	0.507	-0.37	-20.79	-60.06	-79.1
9330	-0.751	0.505	-0.361	-18.9	-60.9	-77.84
9350	-0.738	0.483	-0.357	-18.55	-58.73	-77.63
9368	-0.747	0.447	-0.341	-19.32	-56.21	-77.21
9389	-0.77	0.436	-0.305	-21.7	-54.88	-75.81
9413	-0.769	0.405	-0.285	-23.17	-54.53	-75.32
9434	-0.762	0.381	-0.268	-24.22	-52.99	-73.43
9453	-0.78	0.353	-0.232	-25.41	-49.63	-71.82
9473	-0.856	0.36	-0.194	-27.65	-50.61	-70.14
9490	-0.888	0.367	-0.199	-26.53	-51.59	-68.46
9510	-0.896	0.367	-0.19	-26.18	-49.07	-67.9
9534	-0.886	0.331	-0.182	-29.26	-48.72	-66.43
9554	-0.895	0.287	-0.158	-32.27	-47.25	-64.05
9578	-0.894	0.27	-0.11	-29.4	-46.69	-60.13
9598	-0.922	0.25	-0.093	-25.69	-46.34	-57.26
9618	-0.914	0.208	-0.084	-26.67	-45.99	-56.21
9634	-0.909	0.189	-0.091	-28.56	-44.94	-56.63
9658	-0.895	0.184	-0.082	-27.51	-40.11	-55.93
9678	-0.905	0.173	-0.064	-24.64	-36.68	-53.27
9697	-0.925	0.139	-0.048	-22.68	-34.72	-50.33
9716	-0.936	0.101	-0.017	-21.07	-32.06	-48.02
9735	-0.944	0.09	-0.007	-23.59	-27.37	-46.48
9760	-0.933	0.079	0.002	-25.13	-23.24	-45.08
9779	-0.927	0.066	0.002	-21.84	-21.07	-42.28
9797	-0.916	0.041	0.013	-17.22	-19.04	-38.99
9816	-0.932	0.023	0.017	-14.77	-15.33	-34.58
9842	-0.951	-0.001	0.037	-15.19	-12.74	-27.86
9861	-0.959	-0.003	0.057	-13.93	-12.53	-21.63
9879	-0.973	-0.012	0.046	-11.9	-12.25	-16.31
9903	-0.976	-0.027	0.021	-13.51	-9.1	-9.24
9923	-0.976	-0.042	0.044	-13.93	-5.81	-4.62
9943	-0.969	-0.053	0.058	-11.69	-2.38	0.98
9967	-0.99	-0.089	0.077	-10.78	1.33	8.12
9988	-1.0	-0.093	0.085	-9.8	1.4	12.95
10005	-0.984	-0.067	0.067	-8.89	2.73	17.15
10025	-0.961	-0.022	0.056	-7.91	3.36	22.26
10049	-0.959	-0.011	0.047	-6.16	4.13	28.14
10068	-0.977	-0.029	0.049	-3.22	5.81	31.92
10089	-0.992	-0.04	0.051	-1.26	8.96	34.65
10112	-0.978	-0.015	0.046	0.28	10.43	36.61
10135	-0.98	0.019	0.029	2.31	10.57	39.76
10154	-0.994	0.043	0.012	4.55	11.13	42.49
10178	-0.981	0.064	-0.007	7.7	12.67	45.36
10198	-0.95	0.075	-0.005	8.89	15.75	47.6
10217	-0.919	0.087	-0.026	10.29	21.49	49.35
10241	-0.915	0.114	0.006	10.71	24.99	53.2
10262	-0.94	0.139	-0.016	14.42	24.78	57.12
10282	-0.938	0.169	-0.026	16.1	30.1	59.43
10303	-0.921	0.186	-0.037	13.72	33.81	61.88
10322	-0.898	0.193	-0.059	11.76	35.49	64.47
10342	-0.851	0.201	-0.078	11.9	35.56	67.76
10364	-0.849	0.226	-0.141	14.56	41.09	71.68
10389	-0.891	0.287	-0.091	17.92	53.34	73.64
10403	-0.881	0.293	-0.069	18.13	54.81	74.55
10429	-0.793	0.297	-0.113	19.74	54.74	77.07
10448	-0.688	0.325	-0.195	21.14	57.47	80.57
10464	-0.662	0.356	-0.219	22.54	61.46	84.56
10487	-0.694	0.432	-0.201	22.12	62.09	87.78
10509	-0.711	0.516	-0.182	26.32	62.16	89.67
10528	-0.673	0.553	-0.211	30.24	60.34	93.52
10546	-0.622	0.5	-0.3	31.5	61.74	97.02
10570	-0.616	0.471	-0.341	25.55	72.66	100.17
10590	-0.728	0.564	-0.25	20.16	69.93	97.51
10609	-0.717	0.702	-0.258	22.26	60.06	94.57
10633	-0.67	0.781	-0.353	20.44	52.43	94.99
10653	-0.612	0.757	-0.463	17.08	58.17	94.22
10673	-0.578	0.744	-0.439	9.8	64.54	92.05
10693	-0.549	0.758	-0.401	5.39	65.24	88.76
10715	-0.508	0.739	-0.397	6.02	61.04	85.05
10738	-0.423	0.703	-0.463	15.05	58.52	82.74
10755	-0.396	0.71	-0.508	21.56	59.57	82.53
10779	-0.423	0.759	-0.456	24.22	58.59	78.4
10799	-0.423	0.817	-0.492	24.22	54.04	73.01
10818	-0.382	0.869	-0.587	18.48	50.75	66.71
10839	-0.34	0.952	-0.697	15.89	44.45	61.67
10859	-0.341	1.063	-0.721	11.06	44.03	59.15
10881	-0.383	1.093	-0.657	4.69	33.18	56.77
10901	-0.378	1.076	-0.725	0.63	27.02	50.05
10924	-0.348	1.029	-0.708	1.61	28.14	37.03
10942	-0.386	0.96	-0.632	4.76	22.96	29.33
10962	-0.422	0.92	-0.659	7.63	12.46	20.65
10986	-0.379	0.912	-0.704	5.74	7.77	4.13
11005	-0.373	0.968	-0.724	3.85	7.42	-7.0
11024	-0.399	1.029	-0.674	4.9	1.75	-16.24
11049	-0.39	1.03	-0.711	5.88	-7.98	-22.75
11069	-0.378	0.968	-0.715	8.4	-14.35	-27.23
11089	-0.395	0.969	-0.704	10.78	-19.53	-33.39
11109	-0.373	0.99	-0.664	10.78	-22.96	-40.25
11129	-0.366	0.937	-0.603	9.94	-27.02	-43.4
11148	-0.395	0.877	-0.59	10.22	-32.48	-47.32
11173	-0.431	0.829	-0.617	10.71	-39.27	-54.46
11191	-0.421	0.804	-0.65	11.27	-41.23	-59.29
11213	-0.46	0.8	-0.622	13.79	-43.12	-63.49
11232	-0.496	0.807	-0.598	14.07	-45.5	-66.29
11256	-0.517	0.822	-0.563	11.97	-49.21	-67.97
11274	-0.526	0.801	-0.549	9.59	-53.41	-69.02
11295	-0.529	0.743	-0.512	6.93	-54.46	-71.47
11316	-0.551	0.698	-0.497	7.0	-56.14	-74.06
11336	-0.582	0.685	-0.494	7.14	-61.53	-73.22
11356	-0.606	0.639	-0.488	8.54	-61.88	-74.48
11373	-0.606	0.612	-0.472	7.98	-62.79	-75.88
11397	-0.629	0.597	-0.449	8.05	-64.12	-77.56
11415	-0.646	0.582	-0.431	6.58	-66.36	-78.68
11437	-0.646	0.547	-0.444	2.87	-66.43	-79.45
11456	-0.66	0.532	-0.433	-0.56	-65.31	-79.45
11480	-0.672	0.538	-0.426	-3.78	-64.68	-78.89
11497	-0.709	0.548	-0.405	-6.65	-64.89	-78.19
11521	-0.872	0.524	-0.386	-8.68	-64.68	-76.72
11540	-0.772	0.489	-0.357	-11.06	-63.98	-76.86
11565	-0.771	0.45	-0.325	-12.04	-62.09	-77.35
11585	-0.779	0.415	-0.307	-13.65	-63.21	-76.65
11604	-0.793	0.382	-0.322	-13.37	-61.74	-76.65
11627	-0.803	0.37	-0.291	-12.11	-59.01	-77.63
11645	-0.802	0.362	-0.239	-11.97	-55.3	-78.61
11668	-0.825	0.34	-0.203	-15.12	-53.76	-77.21
11688	-0.835	0.304	-0.195	-16.87	-52.85	-76.02
11708	-0.871	0.298	-0.203	-15.89	-53.83	-73.36
11732	-0.903	0.297	-0.192	-14.0	-53.2	-72.38
11752	-0.894	0.336	-0.153	-13.16	-54.04	-67.34
11772	-0.872	0.273	-0.169	-12.74	-55.23	-61.11
11792	-0.874	0.205	-0.172	-13.23	-49.77	-57.05
11812	-0.885	0.151	-0.135	-13.23	-45.29	-54.11
11831	-0.908	0.126	-0.12	-11.06	-42.28	-50.75
11854	-0.891	0.126	-0.088	-6.23	-37.52	-46.97
11878	-0.881	0.117	-0.059	-3.78	-32.34	-42.28
11898	-0.894	0.09	-0.061	-3.36	-30.1	-38.57
11917	-0.888	0.077	-0.064	-2.03	-26.81	-34.72
11937	-0.895	0.075	-0.062	-1.75	-20.09	-30.24
11961	-0.925	0.062	-0.014	-2.94	-11.06	-25.27
11981	-0.968	0.065	0.008	-2.31	-10.5	-20.09
12001	-1.005	0.071	0.0	-1.82	-10.08	-15.19
12025	-0.996	0.043	-0.003	-0.7	-9.94	-11.34
12044	-0.985	0.035	-0.013	-0.28	-7.0	-8.89
12065	-0.976	0.026	-0.019	-1.4	-4.13	-5.95
12085	-0.962	0.008	0.0	-3.36	-0.07	-2.31
12105	-0.985	-0.006	0.018	-3.92	0.35	1.54
12120	-0.99	-0.006	0.005	-3.29	-0.21	4.62
12145	-0.991	0.011	-0.009	-2.1	0.0	8.82
12164	-0.981	0.022	-0.02	-2.59	1.75	10.78
12185	-0.976	0.031	-0.018	-4.27	2.87	13.37
12204	-0.986	0.042	-0.025	-5.11	3.85	15.68
12224	-1.004	0.044	-0.026	-5.04	4.83	18.48
12246	-1.018	0.039	-0.015	-4.41	5.46	21.49
12266	-1.014	0.041	-0.006	-4.34	5.88	24.08
12290	-1.024	0.047	0.001	-4.62	3.85	26.53
12310	-1.011	0.053	-0.009	-5.46	2.66	28.21
12330	-0.985	0.056	-0.036	-5.95	4.06	29.75
12348	-0.978	0.082	-0.021	-5.25	4.69	31.92
12367	-0.961	0.11	-0.019	-3.85	6.09	35.84
12391	-0.952	0.123	-0.019	-1.82	8.96	41.3
12411	-0.938	0.126	-0.013	0.56	10.36	47.25
12431	-0.918	0.117	-0.025	3.01	13.79	52.01
12455	-0.928	0.122	-0.026	4.06	17.5	58.31
12474	-0.918	0.149	-0.027	4.9	19.67	61.88
12494	-0.897	0.187	-0.025	4.34	19.32	66.22
12515	-0.87	0.228	-0.035	4.9	21.42	72.1
12534	-0.87	0.195	-0.062	7.7	26.6	74.76
12557	-0.875	0.25	-0.053	13.09	33.88	76.72
12577	-0.851	0.295	-0.087	13.16	34.58	80.64
12595	-0.786	0.324	-0.107	16.24	38.15	84.28
12614	-0.76	0.322	-0.124	20.37	42.07	88.69
12640	-0.756	0.34	-0.163	25.27	46.62	91.07
12659	-0.743	0.376	-0.171	25.55	54.32	90.37
12677	-0.718	0.395	-0.146	24.99	56.84	89.88
12696	-0.663	0.41	-0.19	27.44	59.71	91.07
12721	-0.615	0.441	-0.237	28.91	62.02	94.99
12738	-0.587	0.497	-0.246	30.1	63.56	98.56
12758	-0.589	0.563	-0.226	32.34	64.68	101.36
12782	-0.613	0.606	-0.224	33.25	59.15	104.09
12802	-0.586	0.641	-0.349	27.58	60.76	104.44
12822	-0.567	0.687	-0.409	20.44	62.16	103.18
12841	-0.583	0.753	-0.364	20.51	64.47	100.17
12863	-0.641	0.836	-0.247	25.9	60.76	101.99
12882	-0.628	0.784	-0.266	27.02	52.43	98.77
12901	-0.548	0.715	-0.432	20.79	53.62	91.7
12920	-0.458	0.691	-0.545	13.86	58.1	85.33
12944	-0.431	0.78	-0.497	14.91	58.03	81.9
12962	-0.447	0.878	-0.419	21.28	46.69	81.41
12984	-0.412	0.937	-0.488	17.5	41.58	78.61
13007	-0.389	0.955	-0.649	8.05	41.58	73.78
13028	-0.383	0.992	-0.622	6.44	39.41	70.42
13046	-0.355	1.031	-0.631	12.74	34.58	65.94
13070	-0.387	1.069	-0.674	20.02	28.63	59.01
13089	-0.399	1.092	-0.67	18.34	27.44	50.96
13108	-0.368	1.043	-0.696	16.66	26.32	38.85
13129	-0.407	1.03	-0.716	16.03	22.26	27.72
13153	-0.415	1.085	-0.726	24.57	12.18	14.42
13174	-0.348	1.102	-0.742	21.14	7.35	1.96
13193	-0.331	1.061	-0.73	18.13	2.31	-9.87
13213	-0.333	1.038	-0.73	17.92	-3.43	-22.89
13237	-0.348	0.969	-0.702	19.53	-10.01	-36.12
13257	-0.387	0.948	-0.638	21.49	-19.39	-45.5
13275	-0.381	0.928	-0.649	20.72	-27.51	-53.2
13295	-0.345	0.934	-0.649	15.54	-29.96	-62.37
13319	-0.334	0.932	-0.632	11.06	-31.92	-67.27
13339	-0.365	0.908	-0.644	8.12	-33.46	-70.63
13354	-0.4	0.884	-0.626	6.65	-36.33	-73.85
13379	-0.421	0.829	-0.59	3.64	-38.5	-77.35
13399	-0.432	0.777	-0.568	2.17	-40.74	-79.38
13418	-0.446	0.718	-0.538	0.21	-41.79	-81.2
13437	-0.475	0.676	-0.537	0.56	-42.35	-83.23
13461	-0.501	0.68	-0.525	-0.7	-42.56	-85.26
13478	-0.552	0.691	-0.505	-1.12	-45.57	-86.94
13502	-0.564	0.699	-0.511	-1.89	-50.54	-85.47
13522	-0.58	0.663	-0.508	-2.73	-51.94	-85.54
13542	-0.603	0.649	-0.485	-5.32	-53.48	-85.05
13562	-0.646	0.64	-0.47	-10.71	-55.93	-84.77
13583	-0.65	0.626	-0.467	-15.61	-56.98	-84.63
13599	-0.668	0.621	-0.45	-17.92	-56.98	-83.86
13619	-0.686	0.592	-0.416	-20.44	-59.15	-81.27
13639	-0.695	0.552	-0.418	-23.59	-61.32	-77.84
13659	-0.696	0.517	-0.386	-27.16	-59.71	-76.58
13679	-0.713	0.492	-0.369	-30.38	-57.96	-76.09
13700	-0.751	0.455	-0.34	-31.29	-56.98	-74.83
13724	-0.779	0.424	-0.314	-29.82	-57.54	-74.41
13744	-0.801	0.391	-0.309	-27.51	-57.4	-74.13
13769	-0.785	0.377	-0.293	-26.74	-55.16	-75.67
13788	-0.799	0.36	-0.262	-27.86	-52.99	-75.39
13808	-0.828	0.343	-0.232	-29.4	-51.52	-75.18
13828	-0.853	0.328	-0.214	-29.96	-51.52	-73.78
13851	-0.863	0.313	-0.211	-27.86	-51.8	-71.61
13872	-0.843	0.311	-0.172	-25.13	-50.75	-68.6
13895	-0.884	0.288	-0.157	-22.96	-50.61	-63.91
13915	-0.891	0.274	-0.136	-20.65	-47.88	-61.88
13939	-0.895	0.249	-0.123	-19.46	-46.13	-58.8
13959	-0.891	0.222	-0.118	-20.51	-45.01	-56.7
13978	-0.897	0.215	-0.118	-20.65	-42.91	-55.02
14001	-0.922	0.213	-0.097	-17.71	-38.92	-50.89
14022	-0.944	0.206	-0.071	-14.49	-38.01	-45.71
14042	-0.943	0.181	-0.058	-13.09	-38.85	-41.44
14062	-0.93	0.134	-0.072	-12.11	-37.8	-36.75
14081	-0.92	0.102	-0.062	-9.8	-32.76	-34.44
14100	-0.934	0.103	-0.044	-7.21	-30.38	-31.85
14120	-0.912	0.098	-0.059	-5.95	-27.51	-28.0
14140	-0.897	0.09	-0.015	-6.09	-21.63	-24.71
14164	-0.915	0.105	0.037	-5.6	-16.66	-18.55
14185	-0.955	0.097	0.058	-5.25	-13.44	-11.97
14205	-0.971	0.08	0.043	-3.01	-11.2	-8.61
14221	-0.955	0.068	0.044	-3.22	-8.4	-6.3
14245	-0.945	0.074	0.049	-2.45	-4.34	-2.59
14265	-0.953	0.074	0.061	-1.12	0.56	1.68
14289	-0.964	0.058	0.074	-0.21	2.59	7.07
14308	-0.966	0.047	0.072	1.12	3.29	10.36
14328	-0.971	0.046	0.063	2.24	4.55	13.37
14352	-0.967	0.059	0.048	3.01	6.3	18.76
14371	-0.964	0.062	0.038	3.64	7.28	23.17
14391	-0.952	0.075	0.027	5.39	10.92	27.44
14411	-0.959	0.098	0.041	8.33	14.07	31.22
14434	-0.958	0.098	0.043	11.55	16.66	35.98
14455	-0.98	0.088	0.05	14.28	17.78	39.9
14471	-0.97	0.079	0.039	14.84	16.66	41.58
14493	-0.931	0.105	-0.006	14.28	17.15	44.66
14511	-0.92	0.155	-0.021	12.6	19.74	47.67
14533	-0.953	0.195	-0.023	12.74	23.1	52.5
14558	-0.981	0.197	0.006	13.72	24.36	58.31
14576	-0.981	0.173	0.006	15.47	23.1	60.34
14597	-0.938	0.176	-0.01	17.57	23.17	61.46
14617	-0.893	0.201	-0.034	19.88	22.54	63.49
14636	-0.896	0.236	-0.055	21.98	24.92	66.08
14660	-0.91	0.28	-0.074	23.17	27.65	67.69
14677	-0.877	0.31	-0.106	25.06	30.52	68.04
14701	-0.838	0.331	-0.097	27.3	34.09	68.39
14721	-0.852	0.356	-0.137	28.56	38.57	69.23
14737	-0.853	0.386	-0.116	27.86	42.56	69.37
14756	-0.809	0.392	-0.127	28.7	44.52	69.79
14776	-0.761	0.414	-0.17	29.68	44.03	70.77
14801	-0.686	0.462	-0.269	29.75	49.49	73.29
14818	-0.678	0.493	-0.238	27.51	61.18	74.2
14841	-0.691	0.525	-0.187	27.37	65.24	76.58
14860	-0.663	0.529	-0.229	28.63	62.72	78.33
14880	-0.593	0.517	-0.285	29.12	62.16	80.99
14899	-0.59	0.541	-0.298	29.05	63.21	82.53
14922	-0.631	0.594	-0.292	33.95	66.36	83.58
14942	-0.661	0.622	-0.361	35.63	65.03	82.88
14962	-0.61	0.639	-0.465	31.08	68.32	80.99
14987	-0.568	0.683	-0.491	26.88	72.59	79.38
15005	-0.541	0.788	-0.413	27.37	73.43	80.78
15023	-0.531	0.81	-0.401	28.14	69.65	83.02
15046	-0.51	0.758	-0.445	23.73	63.14	82.53
15067	-0.399	0.671	-0.564	18.9	63.63	79.31
15091	-0.319	0.673	-0.696	18.2	68.25	75.67
15109	-0.316	0.772	-0.643	19.67	71.54	74.69
15129	-0.361	0.834	-0.59	25.9	66.36	73.29
15152	-0.381	0.881	-0.606	25.48	61.46	69.65
15171	-0.333	0.869	-0.627	15.82	60.83	66.01
15194	-0.327	0.874	-0.646	2.1	58.52	60.69
15217	-0.405	0.914	-0.691	-7.14	52.78	52.85
15235	-0.36	0.955	-0.831	-8.75	48.79	46.48
15255	-0.202	0.918	-0.903	-3.22	48.86	38.29
15274	-0.247	1.028	-0.791	3.08	44.31	33.25
15297	-0.366	1.072	-0.722	11.83	20.37	27.93
15317	-0.407	1.029	-0.76	9.45	5.25	16.38
15342	-0.39	1.011	-0.809	1.26	-0.21	-2.31
15361	-0.333	1.032	-0.864	-2.59	-4.13	-13.16
15381	-0.301	1.02	-0.792	3.64	-7.42	-21.91
15396	-0.344	0.997	-0.718	8.19	-15.19	-28.42
15420	-0.344	0.936	-0.705	5.25	-27.09	-40.39
15441	-0.33	0.883	-0.729	0.77	-35.84	-52.15
15463	-0.347	0.923	-0.674	-1.75	-43.68	-60.2
15481	-0.367	0.942	-0.642	-2.31	-49.91	-65.38
15506	-0.367	0.916	-0.644	-4.06	-53.76	-71.33
15524	-0.358	0.839	-0.627	-6.58	-52.43	-76.02
15545	-0.381	0.761	-0.545	-1.33	-54.67	-78.54
15562	-0.426	0.7	-0.51	4.62	-58.52	-80.36
15587	-0.455	0.671	-0.513	8.82	-61.04	-84.63
15605	-0.488	0.691	-0.491	10.29	-60.76	-85.96
15630	-0.514	0.707	-0.466	7.49	-61.6	-86.24
15646	-0.556	0.717	-0.444	3.92	-64.54	-85.4
15665	-0.587	0.717	-0.476	5.74	-70.56	-79.66
15686	-0.614	0.701	-0.471	3.01	-69.37	-78.68
15709	-0.612	0.637	-0.464	0.28	-69.58	-78.47
15729	-0.613	0.617	-0.469	-2.59	-68.32	-77.49
15753	-0.63	0.611	-0.471	-3.85	-67.62	-75.74
15772	-0.65	0.61	-0.448	-3.22	-67.13	-74.83
15792	-0.682	0.597	-0.399	-3.08	-64.61	-72.73
15816	-0.689	0.541	-0.375	-5.74	-63.77	-69.58
15833	-0.686	0.509	-0.376	-8.89	-61.95	-68.39
15857	-0.713	0.474	-0.372	-11.55	-60.2	-67.48
15876	-0.734	0.446	-0.369	-13.44	-58.45	-67.62
15897	-0.782	0.435	-0.345	-15.33	-56.42	-66.64
15920	-0.779	0.41	-0.33	-17.85	-54.32	-66.01
15940	-0.803	0.399	-0.316	-20.16	-52.01	-66.01
15956	-0.806	0.385	-0.294	-20.02	-51.45	-66.15
15980	-0.822	0.383	-0.275	-17.22	-50.26	-64.26
16000	-0.813	0.365	-0.266	-17.43	-50.33	-61.74
16020	-0.785	0.337	-0.27	-17.57	-47.81	-59.15
16040	-0.793	0.321	-0.235	-16.31	-42.21	-56.91
16064	-0.851	0.294	-0.202	-15.19	-40.67	-52.92
16084	-0.901	0.307	-0.18	-13.37	-38.29	-49.28
16105	-0.92	0.282	-0.166	-11.69	-38.85	-48.02
16122	-0.895	0.265	-0.166	-9.94	-36.89	-47.53
16143	-0.865	0.238	-0.157	-11.2	-34.3	-46.69
16162	-0.87	0.191	-0.162	-10.01	-27.58	-46.13
16187	-0.875	0.204	-0.11	-7.56	-24.57	-44.94
16206	-0.935	0.182	-0.12	-7.21	-23.87	-42.35
16225	-0.938	0.181	-0.105	-7.77	-22.26	-40.39
16242	-0.932	0.181	-0.087	-8.12	-20.16	-37.59
16261	-0.957	0.18	-0.062	-8.75	-17.92	-34.44
16286	-0.98	0.168	-0.067	-8.47	-17.01	-31.22
16306	-0.974	0.146	-0.07	-8.68	-15.75	-28.84
16321	-0.949	0.135	-0.076	-10.36	-15.61	-27.3
16345	-0.941	0.123	-0.07	-14.28	-11.76	-26.04
16365	-0.971	0.123	-0.039	-15.89	-8.61	-23.52
16386	-0.976	0.109	-0.028	-17.01	-7.7	-19.53
16404	-0.978	0.081	-0.033	-17.43	-9.59	-15.47
16423	-0.962	0.063	-0.056	-16.1	-8.68	-12.04
16446	-0.963	0.044	-0.03	-15.12	-5.39	-8.19
16463	-0.958	0.018	-0.025	-14.49	-2.8	-5.95
16483	-0.961	0.002	-0.008	-14.0	-1.05	-3.01
16502	-0.959	0.002	-0.009	-13.93	-0.21	1.54
16527	-0.96	0.029	-0.022	-16.66	1.89	8.96
16547	-0.955	0.064	-0.022	-15.96	5.32	15.4
16564	-0.941	0.068	-0.016	-15.54	8.33	21.28
16584	-0.922	0.037	-0.003	-15.33	12.25	27.93
16604	-0.928	0.015	-0.01	-14.07	15.19	33.81
16624	-0.933	0.012	-0.032	-12.25	18.62	39.41
16644	-0.923	0.013	-0.052	-8.96	22.26	46.2
16667	-0.887	0.078	-0.061	-8.4	24.99	54.81
16688	-0.888	0.123	-0.064	-6.86	31.29	63.0
16708	-0.895	0.144	-0.025	-5.6	35.56	70.91
16728	-0.895	0.15	-0.026	-3.15	35.21	77.21
16748	-0.834	0.134	-0.081	-2.1	35.56	81.62
16771	-0.809	0.178	-0.145	1.75	42.98	86.66
16790	-0.832	0.225	-0.127	5.25	53.34	90.37
16813	-0.834	0.29	-0.129	9.59	57.82	93.31
16836	-0.775	0.296	-0.164	11.13	59.64	96.81
16857	-0.714	0.292	-0.207	14.21	62.51	98.21
16877	-0.747	0.341	-0.273	15.96	68.25	99.4
16895	-0.732	0.421	-0.251	19.39	77.28	97.86
16916	-0.697	0.547	-0.166	26.81	76.44	96.32
16938	-0.631	0.58	-0.252	28.14	67.97	98.28
16958	-0.575	0.596	-0.401	19.67	68.11	100.73
16981	-0.572	0.633	-0.425	14.63	76.65	100.66
17002	-0.608	0.676	-0.307	15.12	77.21	98.7
17020	-0.634	0.702	-0.348	19.81	71.54	98.07
17044	-0.591	0.668	-0.403	20.23	68.32	92.75
17063	-0.538	0.667	-0.462	19.81	70.21	86.66
17083	-0.566	0.738	-0.432	16.66	69.09	82.04
17102	-0.531	0.777	-0.448	15.47	62.51	78.05
17122	-0.442	0.793	-0.552	16.31	60.06	76.37
17144	-0.39	0.808	-0.628	16.1	63.98	77.14
17166	-0.376	0.838	-0.651	13.23	65.17	76.09
17187	-0.42	0.883	-0.585	13.51	57.75	74.69
17204	-0.415	0.935	-0.608	12.88	49.14	71.26
17223	-0.378	0.95	-0.652	8.47	46.69	66.85
17243	-0.372	0.956	-0.691	5.6	43.61	60.55
17268	-0.375	0.951	-0.697	5.81	38.64	51.1
17283	-0.411	0.96	-0.709	8.4	32.97	45.43
17307	-0.388	0.994	-0.698	8.82	23.59	36.26
17328	-0.374	0.993	-0.693	5.53	15.4	30.31
17352	-0.393	0.945	-0.679	3.57	4.69	23.59
17373	-0.34	0.943	-0.741	2.59	1.26	12.53
17393	-0.317	0.966	-0.766	3.71	-1.05	2.17
17412	-0.363	1.023	-0.744	4.2	-6.65	-4.69
17433	-0.381	0.998	-0.74	0.56	-13.58	-12.18
17453	-0.37	0.959	-0.714	-1.33	-17.57	-21.14
17473	-0.371	0.939	-0.662	3.36	-20.93	-29.68
17497	-0.407	0.873	-0.652	10.22	-29.19	-39.76
17515	-0.386	0.821	-0.649	16.1	-36.26	-46.48
17534	-0.367	0.827	-0.665	18.48	-42.49	-51.17
17559	-0.378	0.863	-0.607	16.45	-44.31	-56.42
17579	-0.385	0.846	-0.582	12.81	-46.9	-59.36
17603	-0.401	0.797	-0.552	9.66	-50.19	-62.65
17623	-0.418	0.75	-0.557	9.87	-50.96	-65.73
17643	-0.421	0.703	-0.55	12.25	-50.26	-68.88
17664	-0.443	0.692	-0.559	15.68	-53.06	-70.49
17682	-0.496	0.698	-0.578	18.34	-54.95	-69.86
17706	-0.503	0.69	-0.56	17.92	-54.67	-69.65
17725	-0.515	0.695	-0.546	17.78	-56.49	-67.34
17745	-0.561	0.684	-0.52	14.98	-58.03	-66.29
17765	-0.589	0.661	-0.534	9.94	-61.67	-66.01
17785	-0.592	0.671	-0.529	4.83	-62.16	-66.99
17804	-0.608	0.669	-0.508	0.77	-62.23	-67.76
17829	-0.629	0.615	-0.462	-3.85	-62.72	-68.18
17849	-0.627	0.563	-0.462	-10.43	-63.35	-68.74
17868	-0.671	0.531	-0.481	-14.77	-63.35	-68.88
17892	-0.699	0.536	-0.474	-16.45	-62.02	-69.72
17913	-0.712	0.549	-0.444	-16.8	-59.92	-70.77
17931	-0.733	0.539	-0.407	-18.27	-59.43	-70.14
17953	-0.768	0.512	-0.381	-19.25	-61.04	-68.46
17970	-0.79	0.476	-0.359	-20.65	-60.62	-67.13
17990	-0.779	0.444	-0.314	-23.38	-60.27	-66.29
18011	-0.79	0.433	-0.328	-24.57	-60.69	-64.68
18030	-0.792	0.407	-0.32	-24.71	-58.66	-63.7
18052	-0.813	0.397	-0.295	-25.34	-56.42	-63.84
18073	-0.82	0.376	-0.26	-25.69	-54.46	-63.35
18093	-0.834	0.342	-0.226	-24.43	-54.6	-61.81
18117	-0.851	0.313	-0.209	-23.59	-54.25	-59.5
18137	-0.885	0.291	-0.189	-22.4	-51.87	-58.73
18157	-0.884	0.281	-0.162	-19.25	-50.33	-58.03
18173	-0.875	0.266	-0.155	-17.5	-49.07	-56.77
18195	-0.852	0.242	-0.14	-18.2	-45.85	-54.53
18215	-0.875	0.224	-0.129	-16.73	-40.25	-52.08
18235	-0.923	0.224	-0.091	-13.44	-39.41	-50.4
18254	-0.927	0.205	-0.07	-11.48	-37.03	-49.0
18280	-0.915	0.173	-0.059	-11.55	-36.26	-46.13
18299	-0.935	0.166	-0.071	-10.57	-36.54	-43.4
18319	-0.96	0.176	-0.074	-7.35	-35.28	-40.04
18339	-0.965	0.17	-0.073	-8.75	-31.08	-38.36
18359	-0.973	0.137	-0.044	-11.97	-28.77	-38.92
18383	-0.982	0.13	-0.05	-13.3	-28.28	-37.87
18402	-0.98	0.122	-0.012	-11.55	-28.49	-34.72
18425	-0.967	0.092	-0.011	-9.8	-29.68	-29.75
18443	-0.976	0.062	-0.008	-10.5	-29.82	-26.39
18463	-0.994	0.064	0.002	-9.1	-29.26	-23.73
18487	-1.004	0.076	0.023	-6.58	-27.09	-20.3
18510	-0.994	0.045	0.041	-7.0	-25.62	-19.04
18530	-0.97	0.036	0.056	-6.65	-24.01	-18.9
18552	-0.974	0.032	0.048	-5.18	-23.87	-17.01
18572	-0.964	0.041	0.039	-4.9	-21.21	-14.14
18592	-0.966	0.029	0.05	-6.58	-15.33	-12.11
18612	-0.959	0.023	0.075	-5.74	-12.11	-10.43
18635	-0.958	0.012	0.083	-1.47	-11.34	-7.63
18659	-0.935	-0.01	0.074	1.12	-8.05	-5.04
18675	-0.94	-0.013	0.083	-0.56	-3.5	-3.78
18695	-0.954	-0.025	0.108	-1.12	0.42	-1.12
18719	-0.965	-0.016	0.122	0.98	2.73	2.03
18739	-0.98	0.011	0.11	3.43	4.13	5.88
18759	-0.962	0.022	0.102	3.36	5.25	9.8
18779	-0.959	0.022	0.087	1.12	7.91	13.51
18803	-0.961	0.018	0.106	-1.82	11.76	18.69
18823	-0.956	0.018	0.11	-0.28	12.53	23.87
18842	-0.936	0.021	0.072	1.89	13.72	29.4
18863	-0.902	0.02	0.048	1.47	19.74	35.21
18882	-0.88	0.023	0.027	2.94	28.84	39.62
18900	-0.882	0.064	0.071	6.23	34.02	44.66
18922	-0.904	0.075	0.062	9.24	37.45	51.03
18945	-0.93	0.107	0.054	8.4	40.18	56.49
18966	-0.914	0.14	0.042	6.93	43.54	59.78
18983	-0.882	0.149	0.019	6.65	44.52	62.86
19006	-0.844	0.146	-0.02	8.82	46.06	67.48
19025	-0.868	0.183	-0.071	14.14	49.98	70.91
19044	-0.897	0.239	-0.071	17.78	57.54	72.59
19064	-0.893	0.278	-0.063	19.18	59.78	74.06
19084	-0.845	0.301	-0.103	18.69	61.39	75.11
19110	-0.853	0.321	-0.128	16.73	56.91	78.47
19130	-0.892	0.396	-0.209	20.72	59.29	80.15
19149	-0.88	0.441	-0.167	23.59	68.04	79.31
19169	-0.864	0.445	-0.157	22.12	68.88	80.08
19189	-0.808	0.422	-0.221	19.11	67.34	80.08
19209	-0.77	0.474	-0.282	16.59	65.1	80.57
19229	-0.803	0.554	-0.287	15.82	68.04	81.13
19252	-0.851	0.614	-0.183	18.48	64.89	82.25
19271	-0.809	0.605	-0.239	20.72	58.45	83.44
19293	-0.71	0.573	-0.369	14.84	63.14	84.91
19313	-0.644	0.57	-0.423	10.08	69.86	84.84
19333	-0.653	0.624	-0.351	6.58	72.59	83.23
19357	-0.673	0.699	-0.305	5.74	64.61	82.18
19376	-0.62	0.675	-0.345	4.34	60.55	82.67
19397	-0.576	0.62	-0.429	1.89	59.01	82.67
19417	-0.539	0.594	-0.504	-0.49	64.12	81.27
19433	-0.552	0.634	-0.464	1.26	64.26	79.03
19452	-0.564	0.692	-0.45	7.14	60.06	76.65
19477	-0.481	0.726	-0.499	10.15	57.19	74.83
19496	-0.438	0.747	-0.548	9.59	55.16	75.11
19515	-0.409	0.774	-0.535	5.53	55.72	74.41
19539	-0.379	0.792	-0.53	5.46	52.36	69.58
19563	-0.406	0.82	-0.562	9.87	42.49	66.85
19583	-0.388	0.891	-0.689	6.65	39.62	62.44
19603	-0.385	0.946	-0.71	2.94	39.13	56.63
19622	-0.355	0.97	-0.696	2.1	35.35	53.13
19640	-0.394	0.986	-0.642	4.83	31.71	50.47
19660	-0.436	0.967	-0.652	8.4	20.16	45.99
19679	-0.412	0.932	-0.714	10.15	14.84	37.66
19704	-0.408	0.963	-0.678	7.35	7.84	25.48
19723	-0.403	0.948	-0.691	4.55	-0.21	13.3
19743	-0.365	0.92	-0.732	3.85	-2.94	3.43
19766	-0.363	0.965	-0.757	5.46	-4.69	-6.58
19786	-0.383	0.988	-0.702	6.23	-9.59	-14.91
19806	-0.378	0.94	-0.657	6.02	-16.73	-22.05
19827	-0.387	0.875	-0.652	7.28	-23.1	-29.19
19848	-0.407	0.863	-0.674	7.98	-28.42	-38.64
19868	-0.403	0.865	-0.693	9.45	-33.32	-47.11
19891	-0.404	0.889	-0.657	13.58	-38.78	-54.95
19912	-0.437	0.9	-0.59	17.78	-45.57	-57.61
19932	-0.446	0.878	-0.585	15.26	-50.4	-59.99
19952	-0.458	0.806	-0.591	10.64	-51.52	-64.19
19971	-0.448	0.782	-0.563	7.42	-52.15	-68.18
19996	-0.471	0.763	-0.515	8.05	-57.05	-70.35
20014	-0.52	0.761	-0.518	8.68	-60.41	-70.63
20036	-0.518	0.727	-0.539	5.81	-60.69	-72.03
20055	-0.485	0.663	-0.509	4.76	-61.74	-70.91
20072	-0.525	0.661	-0.491	4.55	-61.95	-70.28
20092	-0.56	0.641	-0.496	3.64	-62.3	-70.35
20116	-0.57	0.611	-0.489	2.87	-61.67	-71.33
20136	-0.596	0.599	-0.443	4.48	-61.67	-71.12
20151	-0.616	0.604	-0.433	5.53	-62.3	-70.14
20175	-0.643	0.59	-0.455	3.78	-64.12	-70.0
20193	-0.67	0.603	-0.434	1.89	-62.37	-69.93
20213	-0.722	0.599	-0.396	0.42	-63.49	-69.86
20237	-0.729	0.576	-0.354	-3.64	-64.19	-70.0
20257	-0.746	0.506	-0.353	-6.86	-66.01	-69.3
20275	-0.771	0.468	-0.376	-8.68	-66.57	-69.72
20299	-0.797	0.476	-0.374	-9.8	-63.56	-70.21
20317	-0.849	0.5	-0.313	-10.01	-64.4	-69.72
20337	-0.86	0.505	-0.301	-10.29	-65.73	-69.79
20361	-0.854	0.488	-0.296	-12.88	-65.8	-70.07
20381	-0.831	0.434	-0.285	-14.56	-63.84	-69.44
20400	-0.803	0.365	-0.257	-15.96	-60.34	-69.23
20419	-0.782	0.331	-0.209	-16.8	-57.4	-69.44
20443	-0.823	0.293	-0.206	-15.47	-55.79	-69.09
20460	-0.865	0.289	-0.175	-13.16	-54.32	-69.37
20485	-0.883	0.323	-0.174	-12.81	-56.07	-67.83
20500	-0.903	0.322	-0.168	-14.7	-54.95	-66.22
20524	-0.906	0.29	-0.143	-14.63	-53.27	-63.7
20543	-0.913	0.256	-0.129	-13.86	-49.7	-61.04
20560	-0.928	0.236	-0.1	-13.51	-49.7	-57.96
20583	-0.941	0.218	-0.103	-12.81	-49.21	-53.48
20604	-0.932	0.215	-0.062	-12.04	-47.11	-50.12
20628	-0.949	0.193	-0.051	-14.14	-44.73	-46.41
20645	-0.948	0.161	-0.035	-16.31	-43.89	-44.94
20665	-0.962	0.148	-0.024	-17.36	-43.26	-41.86
20688	-0.949	0.132	-0.033	-18.34	-38.57	-38.64
20708	-0.931	0.11	-0.003	-19.95	-33.6	-36.47
20728	-0.898	0.099	0.027	-18.97	-29.75	-33.46
20752	-0.867	0.088	0.046	-16.31	-26.46	-27.44
20772	-0.839	0.051	0.027	-12.39	-18.34	-22.4
20791	-0.841	0.029	0.066	-11.76	-11.13	-16.8
20812	-0.877	-0.004	0.086	-14.28	-3.85	-10.5
20833	-0.921	-0.013	0.117	-16.1	0.21	-2.8
20853	-0.947	-0.012	0.082	-15.33	2.87	4.62
20876	-0.957	-0.01	0.095	-10.99	10.22	13.93
20896	-0.972	-0.027	0.096	-9.45	13.3	22.47
20918	-0.964	-0.04	0.094	-9.87	15.61	30.73
20938	-0.932	-0.017	0.079	-7.0	18.9	37.66
20959	-0.925	0.016	0.048	-3.43	23.31	44.87
20979	-0.922	0.035	0.031	-3.08	26.6	50.68
21002	-0.927	0.056	0.009	-3.57	27.65	56.63
21022	-0.92	0.066	0.002	-2.94	30.52	60.97
21041	-0.922	0.096	0.003	-0.42	34.3	64.47
21062	-0.926	0.125	-0.004	2.31	38.01	68.6
21081	-0.899	0.159	-0.009	4.27	40.95	72.87
21105	-0.882	0.183	-0.031	5.46	41.37	78.12
21125	-0.905	0.209	-0.041	8.96	40.53	81.48
21140	-0.941	0.237	-0.071	10.92	42.21	83.51
21161	-0.924	0.273	-0.078	10.5	46.41	84.7
21185	-0.864	0.297	-0.103	10.22	50.61	85.68
21205	-0.838	0.318	-0.14	13.23	49.77	86.45
21224	-0.844	0.344	-0.18	16.52	50.68	88.34
21244	-0.882	0.417	-0.187	21.63	54.53	88.76
21267	-0.899	0.448	-0.108	19.88	58.17	87.15
21285	-0.851	0.447	-0.135	18.13	51.94	84.21
21310	-0.739	0.495	-0.283	16.1	56.49	84.7
21328	-0.68	0.51	-0.316	15.61	66.85	85.47
21348	-0.678	0.504	-0.243	18.9	69.65	83.72
21367	-0.668	0.519	-0.191	21.07	69.3	79.45
21391	-0.659	0.524	-0.265	19.46	62.51	76.02
21411	-0.59	0.564	-0.404	20.3	66.43	74.27
21435	-0.572	0.609	-0.407	20.58	72.1	73.15
21455	-0.619	0.684	-0.343	23.8	68.67	70.91
21474	-0.659	0.743	-0.314	22.54	62.72	70.0
21494	-0.633	0.743	-0.41	19.53	58.38	67.41
21518	-0.578	0.771	-0.496	14.35	61.18	66.22
21536	-0.584	0.826	-0.481	12.18	62.58	66.36
21558	-0.558	0.847	-0.412	14.49	58.8	65.24
21577	-0.517	0.801	-0.467	16.31	55.3	63.28
21602	-0.449	0.753	-0.529	13.93	56.84	59.5
21621	-0.406	0.749	-0.563	14.91	56.84	56.77
21642	-0.398	0.804	-0.559	18.62	55.09	54.88
21662	-0.395	0.859	-0.558	22.61	48.23	52.57
21682	-0.367	0.855	-0.601	18.41	45.64	48.16
21702	-0.34	0.874	-0.618	10.71	46.55	42.7
21722	-0.367	0.926	-0.646	7.77	41.65	38.64
21740	-0.376	0.945	-0.645	4.55	37.52	36.68
21760	-0.361	0.937	-0.647	2.38	32.97	34.09
21784	-0.346	0.924	-0.679	1.19	34.02	27.23
21804	-0.344	0.907	-0.654	3.92	31.01	19.81
21823	-0.374	0.901	-0.675	4.62	23.03	13.58
21842	-0.399	0.897	-0.745	6.02	14.77	5.95
21861	-0.367	0.937	-0.753	6.79	12.11	-2.87
21884	-0.394	0.976	-0.711	6.86	5.25	-12.46
21908	-0.413	0.962	-0.74	7.21	-5.81	-22.05
21928	-0.367	0.93	-0.773	6.93	-9.31	-30.17
21947	-0.351	0.911	-0.73	5.11	-13.44	-37.59
21972	-0.385	0.926	-0.707	8.05	-24.92	-45.71
21990	-0.416	0.926	-0.678	10.85	-34.16	-50.96
22011	-0.425	0.899	-0.677	11.34	-40.39	-57.4
22031	-0.432	0.86	-0.671	8.19	-46.41	-64.12
22051	-0.449	0.797	-0.681	3.36	-51.17	-70.77
22071	-0.475	0.772	-0.641	2.87	-53.76	-76.16
22089	-0.519	0.722	-0.621	3.71	-59.15	-80.71
22109	-0.524	0.682	-0.61	4.06	-61.81	-87.08
22133	-0.543	0.671	-0.566	6.3	-64.54	-91.14
22157	-0.567	0.666	-0.505	8.26	-70.77	-91.56
22175	-0.568	0.753	-0.484	3.15	-78.33	-88.13
22197	-0.645	0.678	-0.524	5.74	-85.26	-84.98
22217	-0.658	0.677	-0.549	2.8	-84.0	-83.72
22237	-0.662	0.645	-0.479	1.75	-80.08	-83.72
22252	-0.679	0.609	-0.417	2.17	-80.15	-82.32
22277	-0.683	0.555	-0.405	-1.26	-80.57	-79.8
22295	-0.666	0.508	-0.393	-4.34	-79.59	-79.24
22317	-0.686	0.511	-0.334	-7.7	-79.24	-76.65
22337	-0.727	0.52	-0.318	-8.26	-78.96	-73.5
22361	-0.774	0.517	-0.309	-9.94	-78.68	-69.72
22379	-0.774	0.467	-0.336	-15.54	-75.46	-68.46
22399	-0.75	0.427	-0.295	-19.74	-70.84	-67.9
22424	-0.766	0.421	-0.225	-20.58	-66.71	-65.8
22442	-0.813	0.42	-0.211	-18.34	-66.99	-63.0
22461	-0.836	0.396	-0.19	-16.31	-65.45	-60.9
22483	-0.848	0.354	-0.179	-16.52	-66.08	-58.59
22507	-0.847	0.351	-0.175	-19.32	-60.9	-56.7
22527	-0.864	0.336	-0.129	-21.63	-53.97	-55.93
22547	-0.885	0.311	-0.079	-22.89	-50.05	-54.6
22566	-0.897	0.287	-0.071	-23.8	-51.24	-53.41
22589	-0.908	0.293	-0.104	-22.82	-52.85	-51.03
22612	-0.912	0.272	-0.102	-21.21	-50.4	-49.14
22633	-0.916	0.255	-0.073	-20.09	-48.02	-48.02
22653	-0.913	0.211	-0.042	-20.93	-44.38	-46.06
22673	-0.929	0.176	-0.025	-20.37	-43.82	-44.87
22693	-0.953	0.182	-0.013	-19.32	-44.45	-42.84
22713	-0.956	0.172	0.008	-16.59	-45.22	-40.74
22738	-0.937	0.153	0.025	-11.76	-44.87	-37.24
22757	-0.913	0.117	0.015	-9.59	-41.16	-35.77
22781	-0.912	0.112	0.03	-12.04	-35.91	-35.7
22801	-0.904	0.115	0.03	-15.96	-30.66	-34.86
22820	-0.909	0.136	0.08	-12.18	-28.63	-31.71
22842	-0.927	0.129	0.065	-8.54	-27.23	-26.6
22864	-0.963	0.084	0.086	-8.26	-22.05	-22.05
22881	-0.962	0.062	0.094	-8.82	-18.97	-20.16
22901	-0.955	0.056	0.108	-9.24	-14.91	-18.13
22924	-0.96	0.052	0.118	-8.47	-10.71	-15.4
22946	-0.983	0.031	0.161	-7.21	-7.63	-12.6
22964	-0.997	0.014	0.173	-6.93	-8.4	-10.29
22985	-1.018	0.019	0.139	-7.35	-8.4	-8.61
23001	-1.0	0.028	0.121	-8.12	-5.81	-8.12
23020	-0.989	0.028	0.123	-11.48	-2.66	-7.77
23045	-1.001	0.02	0.138	-14.77	-2.87	-7.42
23064	-1.021	0.058	0.162	-10.78	-4.83	-6.93
23082	-1.027	0.06	0.168	-7.0	-2.8	-7.91
23106	-1.021	0.056	0.132	-12.18	-3.36	-11.62
23126	-0.969	0.068	0.075	-23.1	-2.66	-14.77
23144	-0.918	0.107	0.058	-24.92	1.12	-16.17
23166	-0.911	0.104	0.087	-25.27	7.77	-17.5
23183	-0.919	0.081	0.117	-26.81	10.64	-18.9
23203	-0.935	0.096	0.132	-27.93	11.48	-21.21
23222	-0.948	0.1	0.113	-30.59	13.09	-23.73
23247	-0.956	0.078	0.081	-35.49	15.75	-28.28
23267	-0.973	0.027	0.063	-38.22	16.66	-33.11
23287	-0.96	0.004	0.058	-36.47	17.29	-36.19
23308	-0.962	-0.018	0.079	-35.07	18.83	-38.29
23328	-0.963	-0.054	0.085	-35.84	20.72	-42.21
23347	-0.981	-0.061	0.063	-34.37	20.65	-43.54
23372	-0.991	-0.087	0.037	-33.74	20.65	-47.39
23391	-0.98	-0.106	0.058	-33.74	21.14	-49.63
23411	-0.974	-0.142	0.067	-34.72	21.35	-51.73
23434	-0.98	-0.157	0.024	-32.41	21.28	-51.8
23455	-0.988	-0.191	0.039	-27.93	20.86	-50.68
23474	-0.998	-0.25	0.036	-25.27	19.88	-52.01
23498	-0.966	-0.28	0.017	-21.77	21.77	-56.49
23516	-0.958	-0.294	-0.012	-16.8	21.84	-60.83
23539	-0.98	-0.317	-0.006	-17.71	23.59	-62.51
23560	-0.981	-0.353	0.026	-17.36	21.63	-61.6
23579	-0.965	-0.341	0.034	-12.74	20.44	-62.02
23598	-0.92	-0.33	-0.008	-11.62	24.5	-63.91
23619	-0.897	-0.353	-0.038	-13.51	25.34	-68.6
23643	-0.875	-0.36	-0.052	-15.26	25.13	-73.5
23663	-0.879	-0.375	-0.019	-18.2	27.37	-74.48
23681	-0.839	-0.381	-0.025	-15.12	27.58	-75.81
23703	-0.744	-0.379	-0.083	-10.43	30.66	-77.28
23726	-0.695	-0.429	-0.179	-9.24	37.52	-82.6
23747	-0.681	-0.436	-0.149	-19.18	47.25	-84.42
23767	-0.65	-0.46	-0.136	-30.1	52.99	-87.29
23789	-0.639	-0.425	-0.105	-37.45	54.18	-90.51
23812	-0.615	-0.427	-0.133	-40.18	51.03	-91.63
23829	-0.613	-0.471	-0.184	-39.69	50.33	-90.65
23850	-0.639	-0.581	-0.211	-36.96	52.92	-88.55
23868	-0.619	-0.611	-0.24	-33.32	54.39	-86.8
23894	-0.561	-0.649	-0.299	-28.7	59.99	-87.85
23913	-0.528	-0.69	-0.332	-30.1	64.61	-91.07
23933	-0.559	-0.718	-0.321	-29.89	65.87	-91.28
23951	-0.565	-0.736	-0.285	-25.27	64.33	-93.24
23975	-0.575	-0.743	-0.279	-19.95	62.37	-95.2
23995	-0.514	-0.748	-0.352	-22.47	60.97	-95.83
24015	-0.446	-0.678	-0.444	-28.42	63.42	-94.5
24036	-0.376	-0.753	-0.485	-35.07	65.38	-91.35
24054	-0.392	-0.797	-0.472	-35.84	67.9	-88.9
24077	-0.44	-0.811	-0.456	-29.05	60.76	-81.2
24101	-0.404	-0.861	-0.475	-22.05	59.64	-68.53
24117	-0.272	-0.921	-0.543	-13.51	66.43	-69.09
24140	-0.292	-0.915	-0.532	-7.07	60.69	-65.59
24160	-0.294	-0.93	-0.503	3.5	52.85	-61.67
24184	-0.315	-1.011	-0.526	13.09	53.41	-57.4
24204	-0.277	-0.877	-0.667	14.21	51.1	-55.16
24224	-0.275	-0.927	-0.639	9.38	48.37	-51.45
24248	-0.313	-0.983	-0.628	2.24	43.47	-44.52
24265	-0.304	-1.012	-0.624	-3.85	36.26	-39.27
24289	-0.265	-0.965	-0.639	-8.61	24.78	-30.45
24310	-0.214	-0.901	-0.639	-7.42	18.41	-21.42
24327	-0.159	-0.978	-0.671	-6.86	17.99	-14.14
24351	-0.113	-1.099	-0.638	-9.66	18.2	-10.99
24371	-0.142	-1.051	-0.718	-10.43	12.39	-7.35
24390	-0.147	-1.066	-0.728	-6.93	14.28	-1.68
24411	-0.208	-1.047	-0.635	-10.71	7.91	7.84
24431	-0.215	-0.966	-0.662	-10.43	-2.59	13.23
24455	-0.169	-0.941	-0.678	-12.18	-5.25	19.53
24475	-0.163	-1.004	-0.621	-15.19	-13.23	28.63
24491	-0.143	-0.98	-0.592	-12.04	-35.49	34.02
24510	-0.16	-0.948	-0.589	-9.73	-24.64	38.78
24530	-0.193	-0.903	-0.653	-7.56	-26.32	42.91
24556	-0.222	-0.898	-0.643	-10.78	-28.28	46.13
24575	-0.264	-0.899	-0.589	-13.86	-33.67	48.3
24594	-0.275	-0.877	-0.611	-11.69	-40.39	51.8
24617	-0.253	-0.835	-0.615	-10.36	-42.84	56.0
24636	-0.281	-0.827	-0.564	-10.01	-42.56	55.58
24659	-0.321	-0.775	-0.541	-10.29	-45.36	56.0
24683	-0.35	-0.748	-0.531	-11.62	-43.96	56.63
24703	-0.373	-0.722	-0.535	-13.37	-48.65	57.61
24723	-0.392	-0.708	-0.547	-11.55	-53.06	57.75
24739	-0.41	-0.712	-0.546	-9.8	-55.51	59.22
24762	-0.409	-0.726	-0.512	-9.31	-56.42	60.13
24781	-0.434	-0.736	-0.513	-6.16	-58.66	59.36
24801	-0.483	-0.717	-0.518	0.49	-61.81	58.38
24825	-0.508	-0.693	-0.53	5.67	-64.26	57.12
24846	-0.522	-0.666	-0.51	6.16	-64.4	54.25
24865	-0.561	-0.663	-0.505	6.86	-62.23	52.64
24884	-0.592	-0.644	-0.478	9.17	-64.26	53.34
24908	-0.565	-0.594	-0.464	12.11	-63.28	54.25
24927	-0.589	-0.576	-0.394	16.45	-62.44	54.95
24951	-0.597	-0.575	-0.35	18.41	-64.68	56.84
24972	-0.572	-0.575	-0.378	19.88	-64.61	57.26
24989	-0.557	-0.531	-0.429	19.46	-61.81	54.04
25008	-0.576	-0.492	-0.394	13.93	-55.86	50.05
25032	-0.654	-0.457	-0.329	7.35	-53.27	48.44
25056	-0.717	-0.432	-0.303	3.15	-51.52	48.3
25076	-0.744	-0.448	-0.327	1.47	-55.3	49.56
25096	-0.691	-0.471	-0.335	2.94	-48.72	47.32
25116	-0.703	-0.469	-0.275	4.27	-44.94	41.79
25135	-0.725	-0.454	-0.244	4.34	-41.72	36.26
25159	-0.748	-0.444	-0.232	4.27	-41.58	29.75
25178	-0.724	-0.448	-0.285	4.34	-40.6	26.25
25197	-0.696	-0.434	-0.296	5.11	-35.49	22.33
25221	-0.713	-0.404	-0.265	4.34	-28.42	16.45
25242	-0.751	-0.4	-0.216	2.31	-21.91	10.29
25262	-0.791	-0.403	-0.201	0.77	-20.09	5.74
25280	-0.808	-0.42	-0.189	-0.14	-17.92	2.17
25304	-0.785	-0.414	-0.183	-1.68	-14.35	-3.22
25324	-0.769	-0.397	-0.186	-1.82	-10.99	-8.12
25343	-0.768	-0.405	-0.215	-2.52	-6.93	-12.25
25367	-0.775	-0.418	-0.209	-4.55	-1.4	-15.47
25385	-0.79	-0.427	-0.195	-5.32	2.38	-18.41
25405	-0.783	-0.42	-0.186	-6.02	5.74	-22.47
25424	-0.785	-0.427	-0.212	-6.51	8.89	-26.32
25450	-0.789	-0.452	-0.217	-7.49	11.97	-31.01
25468	-0.806	-0.468	-0.213	-9.73	12.81	-33.81
25489	-0.805	-0.484	-0.251	-13.58	10.99	-38.5
25508	-0.786	-0.443	-0.235	-12.39	13.16	-42.0
25529	-0.775	-0.466	-0.224	-11.9	17.22	-44.38
25548	-0.786	-0.488	-0.225	-12.25	17.08	-46.41
25568	-0.739	-0.503	-0.283	-13.02	20.23	-48.86
25588	-0.709	-0.525	-0.267	-12.04	25.76	-51.59
25612	-0.696	-0.527	-0.258	-14.91	26.74	-56.35
25632	-0.658	-0.496	-0.303	-15.82	28.14	-60.83
25651	-0.624	-0.483	-0.305	-15.96	32.13	-62.79
25675	-0.619	-0.513	-0.295	-14.21	34.58	-64.82
25695	-0.607	-0.539	-0.258	-13.3	33.6	-65.94
25714	-0.581	-0.554	-0.273	-13.93	33.04	-66.15
25735	-0.548	-0.54	-0.313	-11.06	34.51	-65.66
25755	-0.505	-0.562	-0.383	-6.51	41.23	-66.01
25775	-0.528	-0.693	-0.354	-8.4	45.22	-67.48
25793	-0.521	-0.741	-0.359	-14.77	43.4	-69.58
25815	-0.478	-0.706	-0.345	-17.85	45.22	-73.08
25837	-0.463	-0.679	-0.329	-13.65	44.73	-74.34
25854	-0.417	-0.686	-0.398	-10.57	48.86	-73.64
25874	-0.431	-0.71	-0.341	-9.87	54.46	-73.5
25895	-0.474	-0.695	-0.346	-10.57	49.77	-71.75
25915	-0.417	-0.712	-0.425	-11.69	50.4	-70.42
25938	-0.35	-0.755	-0.505	-7.98	55.3	-69.02
25959	-0.353	-0.844	-0.474	-4.06	56.91	-65.87
25976	-0.357	-0.923	-0.423	-3.36	53.9	-63.0
25996	-0.273	-0.924	-0.425	-1.68	53.13	-62.3
26016	-0.263	-0.883	-0.444	1.89	55.16	-62.23
26036	-0.283	-0.853	-0.459	3.15	50.19	-60.27
26060	-0.254	-0.827	-0.517	2.45	45.92	-53.83
26080	-0.257	-0.875	-0.593	0.7	45.22	-46.9
26101	-0.255	-0.928	-0.609	-6.37	45.64	-43.61
26118	-0.201	-0.983	-0.693	-16.31	41.16	-42.0
26140	-0.202	-0.973	-0.617	-17.78	38.71	-38.92
26159	-0.211	-0.955	-0.587	-11.62	35.98	-31.64
26177	-0.207	-0.966	-0.573	-4.06	32.06	-23.03
26201	-0.14	-0.998	-0.591	-6.86	26.88	-16.17
26221	-0.105	-0.893	-0.663	-16.59	25.48	-13.23
26240	-0.067	-0.908	-0.695	-15.89	24.01	-10.78
26261	-0.041	-0.935	-0.743	-10.43	26.74	-6.65
26280	-0.051	-1.019	-0.765	-8.05	28.14	-3.08
26300	-0.159	-1.04	-0.753	-14.07	23.45	2.94
26321	-0.177	-0.982	-0.742	-21.49	16.45	6.93
26345	-0.133	-0.956	-0.714	-18.06	10.22	11.9
26365	-0.098	-0.931	-0.706	-11.34	4.9	19.67
26384	-0.121	-0.934	-0.671	-13.3	1.47	29.61
26409	-0.155	-0.942	-0.654	-14.14	-7.07	38.22
26429	-0.109	-0.923	-0.701	-11.13	-12.67	44.1
26446	-0.117	-0.889	-0.667	-7.49	-14.42	46.48
26470	-0.156	-0.869	-0.647	-7.98	-18.41	49.56
26490	-0.184	-0.854	-0.667	-9.94	-21.28	52.43
26506	-0.211	-0.806	-0.674	-11.97	-24.29	53.55
26525	-0.222	-0.799	-0.68	-14.7	-28.63	55.02
26549	-0.221	-0.817	-0.677	-15.12	-32.06	57.75
26569	-0.249	-0.804	-0.614	-14.91	-33.67	58.24
26590	-0.28	-0.772	-0.614	-12.32	-36.33	58.94
26610	-0.272	-0.734	-0.648	-9.73	-38.57	60.41
26627	-0.269	-0.691	-0.626	-8.05	-37.8	62.23
26647	-0.303	-0.664	-0.598	-9.17	-41.37	63.7
26667	-0.326	-0.653	-0.594	-7.49	-44.8	64.4
26691	-0.362	-0.663	-0.589	-1.75	-45.29	63.63
26706	-0.377	-0.657	-0.578	1.96	-46.41	64.05
26731	-0.386	-0.659	-0.578	3.92	-47.81	63.28
26752	-0.428	-0.66	-0.553	6.44	-49.98	62.37
26770	-0.475	-0.656	-0.553	5.11	-52.71	61.11
26789	-0.491	-0.644	-0.567	5.11	-56.07	58.1
26808	-0.496	-0.622	-0.598	6.44	-55.23	56.21
26834	-0.518	-0.616	-0.557	6.86	-53.97	57.19
26853	-0.604	-0.596	-0.473	7.21	-57.4	57.82
26872	-0.655	-0.591	-0.469	7.56	-61.81	59.43
26890	-0.632	-0.602	-0.495	6.51	-63.56	61.39
26909	-0.64	-0.612	-0.467	6.44	-61.46	61.81
26934	-0.695	-0.6	-0.428	8.61	-65.03	65.03
26953	-0.712	-0.59	-0.416	9.8	-66.85	69.37
26972	-0.698	-0.563	-0.396	11.76	-67.13	70.98
26997	-0.694	-0.511	-0.377	12.04	-65.03	70.84
27016	-0.73	-0.477	-0.362	14.07	-65.8	71.68
27036	-0.773	-0.464	-0.369	16.8	-68.25	76.09
27056	-0.747	-0.467	-0.368	18.55	-65.73	80.29
27078	-0.767	-0.453	-0.304	18.48	-63.77	80.01
27096	-0.805	-0.407	-0.285	13.58	-66.43	79.31
27115	-0.845	-0.368	-0.244	11.13	-67.83	78.96
27139	-0.897	-0.349	-0.202	15.19	-69.09	80.01
27161	-0.914	-0.324	-0.2	15.54	-72.31	80.71
27183	-0.859	-0.298	-0.242	18.48	-68.6	78.96
27203	-0.82	-0.258	-0.227	14.35	-62.3	75.67
27223	-0.779	-0.218	-0.162	14.84	-54.11	70.0
27246	-0.793	-0.172	-0.065	15.89	-44.17	64.19
27266	-0.84	-0.171	-0.052	7.91	-44.66	58.17
27290	-0.835	-0.183	-0.105	1.89	-46.2	45.08
27311	-0.803	-0.187	-0.156	-0.98	-35.35	34.86
27329	-0.833	-0.143	-0.13	-0.42	-25.34	26.67
27353	-0.852	-0.139	-0.087	1.33	-18.34	18.27
27373	-0.909	-0.123	-0.061	2.17	-10.36	12.53
27393	-0.957	-0.116	-0.023	2.03	-8.19	6.51
27411	-0.951	-0.128	-0.053	1.4	-6.86	0.56
27435	-0.94	-0.13	-0.081	2.03	-3.64	-7.0
27452	-0.925	-0.124	-0.081	3.99	-2.94	-11.62
27471	-0.924	-0.071	-0.077	5.67	3.15	-16.94
27496	-0.941	-0.054	-0.061	3.85	8.4	-21.56
27515	-0.946	-0.094	-0.043	0.91	9.03	-26.04
27535	-0.946	-0.127	-0.059	-0.14	7.14	-30.45
27556	-0.952	-0.133	-0.068	0.28	7.21	-35.77
27579	-0.95	-0.135	-0.075	-0.42	8.89	-41.02
27598	-0.95	-0.142	-0.075	-0.14	10.71	-44.31
27623	-0.926	-0.156	-0.084	-0.49	12.25	-46.34
27642	-0.902	-0.167	-0.098	-2.59	14.28	-49.42
27659	-0.906	-0.178	-0.087	-4.06	16.1	-53.06
27683	-0.895	-0.209	-0.095	-4.34	17.36	-56.35
27703	-0.891	-0.246	-0.104	-4.83	20.09	-59.08
27726	-0.904	-0.257	-0.137	-5.32	20.09	-62.37
27747	-0.881	-0.284	-0.131	-9.03	24.5	-65.66
27766	-0.842	-0.305	-0.131	-11.34	29.12	-69.72
27786	-0.823	-0.308	-0.112	-14.07	29.82	-74.48
27806	-0.774	-0.348	-0.138	-15.19	30.52	-78.61
27830	-0.743	-0.398	-0.171	-17.92	34.09	-84.42
27849	-0.741	-0.424	-0.208	-22.33	38.85	-88.41
27868	-0.721	-0.404	-0.205	-28.21	43.82	-91.0
27892	-0.684	-0.373	-0.224	-31.99	47.67	-92.26
27913	-0.65	-0.406	-0.244	-32.9	54.53	-92.89
27932	-0.659	-0.48	-0.266	-29.19	56.56	-92.26
27956	-0.68	-0.568	-0.26	-28.84	58.17	-90.3
27971	-0.653	-0.61	-0.261	-29.82	57.96	-89.74
27997	-0.568	-0.602	-0.337	-27.37	58.87	-93.03
28015	-0.557	-0.63	-0.41	-27.65	65.1	-96.74
28034	-0.615	-0.691	-0.375	-31.64	65.8	-97.02
28059	-0.628	-0.717	-0.316	-33.39	56.56	-94.01
28077	-0.501	-0.691	-0.444	-30.1	60.55	-92.61
28101	-0.445	-0.683	-0.509	-23.31	71.26	-88.69
28119	-0.39	-0.703	-0.49	-23.1	72.73	-85.68
28138	-0.38	-0.739	-0.404	-25.06	71.26	-81.27
28162	-0.415	-0.774	-0.393	-22.82	65.03	-78.12
28181	-0.416	-0.802	-0.456	-15.4	61.81	-76.16
28198	-0.366	-0.846	-0.495	-6.44	63.0	-74.41
28219	-0.359	-0.874	-0.539	0.91	62.23	-71.12
28239	-0.363	-0.889	-0.554	2.24	58.87	-67.41
28259	-0.352	-0.871	-0.61	0.35	55.09	-61.88
28283	-0.325	-0.861	-0.628	-2.1	56.7	-55.65
28303	-0.3	-0.873	-0.633	-8.96	52.15	-51.66
28319	-0.241	-0.915	-0.646	-13.65	46.62	-48.44
28342	-0.241	-0.925	-0.705	-11.27	41.23	-42.7
28363	-0.247	-0.936	-0.7	-11.06	36.26	-31.29
28380	-0.204	-0.917	-0.701	-12.95	36.05	-24.57
28400	-0.19	-0.918	-0.708	-13.65	32.48	-19.25
28420	-0.181	-0.971	-0.682	-6.23	29.47	-13.72
28443	-0.16	-1.049	-0.697	6.79	25.48	-6.65
28464	-0.172	-1.105	-0.728	7.77	20.79	-1.26
28483	-0.168	-1.027	-0.797	1.4	19.11	5.25
28503	-0.223	-0.916	-0.703	-2.87	15.89	14.21
28528	-0.2	-0.929	-0.72	-6.23	7.0	19.6
28547	-0.121	-0.946	-0.764	-4.55	5.67	24.92
28568	-0.149	-0.983	-0.793	-1.54	5.11	31.92
28588	-0.213	-1.002	-0.737	-4.69	-0.49	37.03
28608	-0.226	-0.941	-0.691	-12.67	-4.55	44.24
28632	-0.221	-0.861	-0.641	-15.61	-13.37	50.96
28651	-0.212	-0.811	-0.631	-14.42	-18.2	55.58
28675	-0.236	-0.768	-0.625	-14.63	-22.61	60.97
28693	-0.265	-0.779	-0.649	-18.41	-26.95	62.79
28716	-0.274	-0.814	-0.64	-20.02	-30.24	67.83
28735	-0.268	-0.798	-0.623	-17.57	-33.6	71.05
28756	-0.266	-0.745	-0.63	-14.56	-36.89	72.94
28775	-0.3	-0.703	-0.621	-13.58	-38.43	71.54
28799	-0.355	-0.689	-0.623	-15.26	-39.27	67.69
28815	-0.37	-0.673	-0.613	-17.92	-40.74	65.66
28838	-0.363	-0.669	-0.619	-15.47	-46.2	69.37
28859	-0.497	-0.643	-0.626	-8.33	-48.79	71.54
28879	-0.391	-0.648	-0.621	-1.05	-44.73	69.72
28903	-0.427	-0.639	-0.565	-0.35	-41.3	64.82
28923	-0.423	-0.614	-0.539	0.91	-43.61	61.88
28943	-0.452	-0.576	-0.546	6.79	-48.37	61.81
28963	-0.464	-0.532	-0.578	11.06	-52.22	63.84
28983	-0.485	-0.515	-0.557	12.74	-49.63	64.33
29007	-0.529	-0.496	-0.523	10.92	-44.59	60.9
29027	-0.584	-0.481	-0.51	10.01	-44.31	56.28
29046	-0.616	-0.491	-0.534	9.73	-44.45	55.02
29070	-0.617	-0.513	-0.52	12.46	-45.29	55.3
29090	-0.634	-0.519	-0.508	12.32	-46.69	52.99
29110	-0.651	-0.525	-0.497	12.04	-44.8	49.07
29134	-0.679	-0.5	-0.452	12.04	-42.35	44.66
29154	-0.699	-0.462	-0.403	12.25	-43.47	40.53
29174	-0.689	-0.434	-0.415	11.76	-43.12	38.57
29194	-0.685	-0.423	-0.437	11.97	-42.49	37.8
29213	-0.677	-0.401	-0.441	13.02	-39.9	36.68
29234	-0.686	-0.396	-0.404	12.74	-37.94	33.88
29254	-0.69	-0.397	-0.387	11.34	-35.98	29.47
29278	-0.693	-0.401	-0.385	10.08	-33.53	24.5
29298	-0.721	-0.386	-0.375	9.52	-31.92	21.63
29318	-0.779	-0.38	-0.351	11.2	-32.62	19.53
29341	-0.831	-0.378	-0.349	10.78	-35.49	17.92
29357	-0.833	-0.402	-0.37	8.26	-38.01	15.89
29382	-0.816	-0.389	-0.385	9.73	-32.06	11.9
29402	-0.819	-0.379	-0.366	10.43	-28.42	11.69
29421	-0.813	-0.398	-0.326	9.03	-26.6	11.76
29438	-0.811	-0.409	-0.305	7.91	-25.9	11.13
29462	-0.838	-0.395	-0.279	6.79	-25.06	9.73
29482	-0.82	-0.391	-0.285	5.53	-23.1	9.59
29502	-0.785	-0.4	-0.292	4.97	-18.34	8.54
29521	-0.819	-0.382	-0.262	2.45	-16.31	7.49
29541	-0.847	-0.38	-0.238	-1.05	-15.75	7.07
29565	-0.843	-0.398	-0.233	-2.17	-15.75	5.81
29585	-0.778	-0.416	-0.259	-0.7	-13.02	0.63
29605	-0.756	-0.394	-0.253	0.77	-5.53	-4.97
29620	-0.761	-0.345	-0.267	-1.19	-3.22	-9.31
29641	-0.769	-0.34	-0.261	-4.27	-0.42	-13.23
29661	-0.773	-0.367	-0.262	-4.69	2.66	-16.1
29685	-0.785	-0.379	-0.262	-2.73	6.23	-19.81
29701	-0.779	-0.362	-0.287	-2.1	11.62	-22.75
29721	-0.787	-0.351	-0.279	-3.29	16.31	-26.32
29740	-0.759	-0.371	-0.279	-4.69	21.0	-31.01
29764	-0.748	-0.375	-0.261	-7.14	24.22	-37.17
29785	-0.747	-0.365	-0.261	-11.62	25.27	-43.61
29804	-0.738	-0.362	-0.289	-14.14	26.32	-47.95
29829	-0.711	-0.381	-0.297	-14.0	29.89	-54.67
29848	-0.683	-0.4	-0.303	-13.72	32.83	-60.55
29868	-0.674	-0.411	-0.326	-13.93	35.35	-65.1
29889	-0.648	-0.431	-0.369	-14.7	40.39	-67.97
29908	-0.614	-0.446	-0.367	-15.33	45.36	-71.4
29925	-0.566	-0.449	-0.347	-18.41	51.1	-75.18
29949	-0.56	-0.471	-0.338	-20.65	53.34	-79.24
29964	-0.548	-0.487	-0.363	-18.76	52.5	-79.73
29987	-0.526	-0.494	-0.415	-14.42	55.02	-80.43
30011	-0.541	-0.542	-0.409	-5.74	55.72	-80.15
30032	-0.547	-0.632	-0.417	1.26	58.73	-80.22
30051	-0.531	-0.692	-0.415	0.49	59.57	-81.62
30069	-0.508	-0.703	-0.43	-4.9	60.48	-83.58
30092	-0.49	-0.671	-0.467	-9.87	61.53	-86.03
30113	-0.517	-0.644	-0.47	-12.32	60.41	-86.03
30137	-0.38	-0.689	-0.49	-10.01	56.49	-83.02
30157	-0.433	-0.739	-0.553	-0.07	60.83	-79.17
30177	-0.38	-0.79	-0.572	7.28	66.5	-76.3
30196	-0.343	-0.834	-0.556	6.93	68.88	-73.99
30217	-0.315	-0.831	-0.555	-4.13	61.46	-71.54
30237	-0.263	-0.771	-0.608	-8.89	57.96	-68.53
30256	-0.258	-0.744	-0.632	-9.17	58.31	-62.79
30275	-0.234	-0.793	-0.66	-9.94	57.4	-55.86
30300	-0.216	-0.861	-0.676	-9.17	54.32	-49.14
30320	-0.217	-0.888	-0.72	-3.01	51.31	-44.1
30339	-0.24	-0.904	-0.777	-2.66	45.92	-39.41
30357	-0.27	-0.955	-0.788	-9.94	41.23	-33.04
30381	-0.291	-0.995	-0.789	-13.44	36.54	-22.82
30400	-0.292	-1.068	-0.794	-9.87	24.15	-15.47
30417	-0.235	-1.075	-0.834	-8.05	14.49	-8.61
30437	-0.187	-1.009	-0.879	-7.84	7.77	0.84
30461	-0.182	-0.977	-0.83	-9.66	2.66	14.7
30481	-0.137	-0.99	-0.808	-4.9	-2.03	19.53
30502	-0.122	-0.971	-0.839	-0.14	-4.83	27.02
30519	-0.137	-0.954	-0.835	-1.68	-6.58	36.05
30537	-0.186	-0.875	-0.779	-7.91	-10.78	41.58
30556	-0.223	-0.828	-0.715	-13.58	-18.41	47.46
30579	-0.226	-0.801	-0.703	-17.92	-25.27	51.87
30603	-0.208	-0.823	-0.72	-16.03	-30.31	59.78
30623	-0.202	-0.847	-0.732	-13.79	-32.83	64.19
30641	-0.215	-0.848	-0.672	-16.94	-34.16	66.85
30665	-0.256	-0.818	-0.631	-18.55	-35.7	67.97
30683	-0.279	-0.755	-0.642	-17.5	-39.97	68.18
30702	-0.28	-0.695	-0.685	-14.77	-41.65	68.88
30726	-0.305	-0.644	-0.67	-11.69	-40.81	72.66
30750	-0.31	-0.624	-0.653	-10.29	-38.29	77.63
30768	-0.344	-0.606	-0.618	-10.78	-36.12	77.07
30789	-0.5	-0.598	-0.6	-11.41	-36.47	74.9
30810	-0.416	-0.609	-0.604	-8.54	-40.18	74.83
30825	-0.441	-0.606	-0.62	-4.9	-42.14	76.58
30850	-0.437	-0.585	-0.605	-1.89	-43.47	79.45
30866	-0.462	-0.54	-0.563	-1.54	-43.61	79.52
30885	-0.502	-0.512	-0.544	-1.26	-44.94	78.54
30910	-0.547	-0.525	-0.565	2.17	-43.82	77.49
30934	-0.578	-0.542	-0.561	6.93	-42.91	77.42
30958	-0.587	-0.539	-0.525	10.01	-43.12	74.9
30982	-0.611	-0.501	-0.472	12.88	-44.8	72.52
31002	-0.618	-0.448	-0.472	16.8	-47.32	70.56
31021	-0.633	-0.422	-0.495	19.74	-44.52	69.51
31037	-0.644	-0.416	-0.494	21.21	-40.18	67.83
31062	-0.664	-0.411	-0.471	20.02	-37.17	61.46
31082	-0.696	-0.399	-0.424	16.38	-37.59	55.16
31102	-0.72	-0.381	-0.429	14.77	-38.5	49.91
31121	-0.722	-0.352	-0.438	10.99	-39.06	45.29
31145	-0.699	-0.339	-0.454	7.49	-37.1	38.99
31160	-0.697	-0.313	-0.445	6.72	-35.35	34.44
31185	-0.723	-0.294	-0.439	6.02	-32.48	27.23
31200	-0.76	-0.291	-0.429	4.41	-31.43	24.01
31225	-0.789	-0.304	-0.41	5.11	-31.5	20.23
31244	-0.775	-0.311	-0.41	8.19	-28.91	17.99
31265	-0.795	-0.31	-0.382	6.79	-27.65	13.09
31284	-0.803	-0.314	-0.376	5.81	-27.58	7.98
31304	-0.784	-0.306	-0.411	4.27	-26.18	2.87
31329	-0.78	-0.323	-0.393	4.06	-21.0	-1.19
31348	-0.81	-0.335	-0.362	3.71	-20.79	-5.04
31368	-0.822	-0.332	-0.354	-0.21	-21.7	-9.24
31389	-0.815	-0.314	-0.371	-1.47	-20.79	-13.23
31407	-0.793	-0.296	-0.386	-0.07	-17.71	-14.98
31426	-0.773	-0.285	-0.385	1.4	-12.32	-15.61
31451	-0.778	-0.295	-0.363	-0.07	-6.44	-15.89
31471	-0.776	-0.31	-0.34	0.49	-3.99	-16.59
31491	-0.776	-0.319	-0.344	0.21	-3.57	-18.76
31510	-0.792	-0.32	-0.335	-1.82	-4.2	-21.07
31527	-0.813	-0.318	-0.347	-4.62	-5.74	-22.82
31546	-0.807	-0.301	-0.361	-7.0	-4.76	-23.03
31566	-0.796	-0.286	-0.379	-7.07	-0.77	-22.05
31589	-0.777	-0.301	-0.369	-6.58	5.39	-21.84
31608	-0.773	-0.333	-0.355	-9.31	11.34	-22.89
31633	-0.762	-0.38	-0.333	-11.41	14.84	-26.6
31653	-0.75	-0.394	-0.321	-10.01	14.35	-30.8
31674	-0.721	-0.396	-0.346	-8.75	15.75	-34.02
31692	-0.706	-0.395	-0.345	-8.33	18.55	-35.98
31713	-0.708	-0.386	-0.342	-6.09	20.58	-37.45
31733	-0.69	-0.406	-0.359	-3.71	22.96	-38.5
31753	-0.66	-0.424	-0.374	0.21	28.42	-39.62
31772	-0.632	-0.433	-0.38	-0.49	32.97	-40.81
31795	-0.616	-0.442	-0.364	-2.73	36.54	-43.26
31813	-0.609	-0.422	-0.381	-2.38	37.94	-45.64
31833	-0.599	-0.428	-0.437	1.19	45.29	-48.16
31857	-0.607	-0.466	-0.454	4.97	53.13	-49.28
31877	-0.603	-0.52	-0.442	3.43	53.76	-50.68
31894	-0.548	-0.533	-0.477	3.57	57.89	-53.13
31914	-0.536	-0.534	-0.477	5.88	63.14	-55.44
31934	-0.533	-0.554	-0.5	7.28	67.55	-55.79
31953	-0.537	-0.586	-0.457	6.65	68.6	-56.0
31977	-0.549	-0.62	-0.449	8.68	61.53	-56.28
31998	-0.509	-0.621	-0.491	13.93	61.88	-53.97
32016	-0.482	-0.607	-0.513	17.36	64.26	-53.55
32036	-0.475	-0.595	-0.516	12.81	65.66	-54.11
32059	-0.497	-0.657	-0.548	12.25	65.73	-54.11
32081	-0.511	-0.691	-0.578	14.77	59.43	-52.08
32103	-0.431	-0.751	-0.649	17.29	58.87	-48.65
32127	-0.472	-0.755	-0.581	16.1	53.9	-49.42
32143	-0.491	-0.744	-0.583	16.94	43.26	-49.07
32165	-0.434	-0.744	-0.631	22.26	40.6	-44.17
32187	-0.383	-0.78	-0.632	22.82	35.84	-42.21
32206	-0.357	-0.817	-0.635	18.13	27.65	-41.65
32230	-0.279	-0.82	-0.702	19.88	29.19	-38.22
32249	-0.288	-0.786	-0.689	12.81	27.93	-37.1
32270	-0.312	-0.769	-0.72	1.68	25.62	-36.75
32290	-0.305	-0.816	-0.739	2.03	28.07	-32.13
32314	-0.283	-0.892	-0.77	9.45	25.76	-25.9
32334	-0.271	-0.931	-0.851	6.23	21.7	-24.15
32354	-0.271	-0.964	-0.891	-9.24	18.62	-20.16
32378	-0.354	-0.977	-0.813	-15.33	13.44	-11.69
32395	-0.377	-1.008	-0.8	-10.92	6.79	-4.62
32415	-0.332	-1.007	-0.885	-7.28	0.63	0.07
32439	-0.305	-0.923	-0.878	-8.75	-2.17	7.63
32459	-0.285	-0.862	-0.773	-13.93	-7.91	15.47
32479	-0.289	-0.851	-0.707	-15.82	-14.56	23.1
32496	-0.304	-0.877	-0.725	-12.11	-20.16	27.79
32520	-0.312	-0.872	-0.759	-7.49	-24.71	31.43
32538	-0.309	-0.849	-0.741	-8.82	-27.51	33.04
32562	-0.324	-0.812	-0.691	-13.72	-32.9	34.72
32583	-0.327	-0.767	-0.674	-15.19	-38.71	37.38
32600	-0.325	-0.709	-0.659	-13.86	-39.9	39.48
32621	-0.338	-0.688	-0.627	-14.07	-41.23	41.72
32643	-0.373	-0.702	-0.641	-13.3	-44.17	43.12
32661	-0.392	-0.717	-0.638	-14.21	-46.06	43.19
32686	-0.386	-0.714	-0.63	-14.91	-48.72	43.82
32702	-0.395	-0.679	-0.599	-13.79	-51.59	44.66
32721	-0.428	-0.65	-0.573	-13.65	-53.62	45.85
32741	-0.451	-0.637	-0.598	-13.65	-57.75	46.34
32760	-0.454	-0.618	-0.613	-13.3	-57.61	46.41
32785	-0.44	-0.605	-0.619	-9.17	-56.63	46.9
32805	-0.459	-0.595	-0.577	-8.12	-57.4	47.6
32825	-0.478	-0.572	-0.542	-7.42	-58.52	48.3
32842	-0.497	-0.56	-0.542	-3.01	-60.55	49.0
32861	-0.528	-0.544	-0.545	1.26	-61.39	50.4
32886	-0.555	-0.547	-0.566	5.04	-63.07	53.34
32907	-0.584	-0.572	-0.567	7.63	-62.23	55.02
32926	-0.62	-0.559	-0.536	8.75	-63.21	54.95
32950	-0.621	-0.518	-0.502	7.84	-63.14	54.46
32969	-0.646	-0.476	-0.471	8.05	-63.14	52.99
32986	-0.694	-0.439	-0.452	6.3	-65.31	52.5
33010	-0.617	-0.445	-0.452	5.95	-59.5	56.28
33030	-0.646	-0.466	-0.346	9.17	-56.07	58.38
33047	-0.713	-0.448	-0.295	10.08	-59.5	59.22
33067	-0.705	-0.454	-0.325	13.23	-59.85	57.96
33087	-0.702	-0.446	-0.343	16.94	-53.97	55.51
33111	-0.802	-0.459	-0.31	18.69	-52.5	51.03
33130	-0.873	-0.474	-0.279	20.02	-56.91	48.86
33154	-0.881	-0.474	-0.305	21.7	-62.09	47.46
33175	-0.827	-0.461	-0.289	27.51	-59.15	43.68
33195	-0.799	-0.404	-0.29	31.92	-56.21	40.53
33213	-0.777	-0.381	-0.267	34.02	-51.94	39.27
33234	-0.8	-0.349	-0.215	32.97	-45.78	35.98
33258	-0.813	-0.297	-0.171	27.72	-44.1	32.27
33279	-0.818	-0.235	-0.176	24.36	-40.39	29.47
33297	-0.831	-0.183	-0.182	19.67	-36.47	26.46
33317	-0.86	-0.194	-0.154	14.91	-29.19	24.01
33340	-0.912	-0.236	-0.09	9.31	-27.23	23.24
33360	-0.909	-0.253	-0.094	10.57	-27.37	23.66
33384	-0.911	-0.291	-0.102	11.83	-24.57	24.5
33404	-0.893	-0.315	-0.12	13.23	-19.11	24.64
33423	-0.903	-0.289	-0.096	12.04	-13.44	23.52
33443	-0.956	-0.258	-0.044	12.32	-13.37	22.19
33462	-0.964	-0.238	-0.06	11.41	-18.13	21.84
33485	-0.943	-0.261	-0.075	9.52	-19.67	21.0
33510	-0.911	-0.271	-0.083	10.64	-14.63	18.27
33529	-0.894	-0.263	-0.095	12.67	-8.82	16.1
33547	-0.877	-0.237	-0.074	12.46	-4.41	15.05
33571	-0.873	-0.197	-0.048	12.88	0.28	14.0
33590	-0.883	-0.176	-0.076	11.97	5.39	10.92
33611	-0.9	-0.142	-0.09	10.5	8.54	6.23
33634	-0.889	-0.143	-0.11	3.01	15.4	-0.49
33652	-0.874	-0.148	-0.123	-3.64	18.83	-7.56
33671	-0.881	-0.172	-0.123	-8.96	23.1	-14.98
33691	-0.9	-0.181	-0.126	-9.66	24.29	-19.18
33715	-0.913	-0.172	-0.154	-9.59	25.06	-23.59
33735	-0.911	-0.158	-0.175	-11.2	26.6	-27.65
33754	-0.894	-0.138	-0.202	-12.81	30.17	-31.36
33779	-0.901	-0.129	-0.226	-13.37	35.63	-33.18
33799	-0.897	-0.183	-0.238	-14.21	37.31	-34.44
33816	-0.895	-0.196	-0.225	-13.09	37.87	-36.26
33836	-0.879	-0.215	-0.269	-17.22	38.92	-38.57
33855	-0.854	-0.235	-0.252	-23.31	43.61	-41.09
33881	-0.838	-0.243	-0.219	-25.48	45.22	-45.29
33898	-0.799	-0.263	-0.25	-21.35	44.87	-49.91
33917	-0.803	-0.276	-0.29	-20.58	45.78	-53.69
33937	-0.81	-0.319	-0.32	-25.2	49.84	-55.3
33957	-0.787	-0.325	-0.325	-26.39	53.55	-56.7
33981	-0.753	-0.299	-0.346	-23.03	55.86	-58.87
33999	-0.759	-0.322	-0.42	-12.6	58.1	-59.57
34019	-0.77	-0.377	-0.409	-14.77	62.93	-56.49
34043	-0.813	-0.426	-0.364	-15.12	59.08	-53.55
34063	-0.793	-0.43	-0.412	-12.81	56.98	-53.62
34083	-0.703	-0.453	-0.491	-10.57	60.55	-53.62
34102	-0.679	-0.483	-0.529	-6.51	63.49	-54.04
34126	-0.707	-0.508	-0.536	-7.14	62.65	-55.3
34148	-0.756	-0.563	-0.545	-12.39	59.22	-56.7
34168	-0.776	-0.575	-0.551	-11.83	55.09	-56.56
34188	-0.705	-0.585	-0.591	-2.38	54.25	-54.95
34208	-0.65	-0.596	-0.595	4.97	59.22	-53.2
34230	-0.634	-0.598	-0.56	6.51	57.82	-52.78
34254	-0.641	-0.584	-0.525	-0.14	51.03	-52.64
34270	-0.597	-0.566	-0.515	-4.27	45.85	-51.31
34291	-0.516	-0.511	-0.553	17.5	44.17	-49.91
34310	-0.475	-0.479	-0.603	2.03	45.64	-47.74
34336	-0.505	-0.529	-0.599	1.61	45.92	-45.57
34355	-0.501	-0.614	-0.602	1.26	43.89	-45.01
34370	-0.466	-0.662	-0.569	3.08	43.68	-45.57
34391	-0.447	-0.622	-0.529	6.58	40.74	-46.34
34414	-0.424	-0.604	-0.538	8.12	34.86	-46.48
34435	-0.364	-0.62	-0.584	12.46	36.89	-49.84
34456	-0.358	-0.587	-0.599	12.74	38.22	-52.01
34475	-0.346	-0.592	-0.584	9.24	39.69	-52.71
34492	-0.324	-0.608	-0.593	7.98	38.99	-53.06
34512	-0.304	-0.632	-0.603	8.68	40.11	-52.92
34536	-0.285	-0.685	-0.61	9.66	42.7	-52.57
34556	-0.318	-0.726	-0.588	10.5	37.03	-52.57
34575	-0.33	-0.724	-0.57	16.31	29.47	-50.33
34593	-0.318	-0.726	-0.594	18.27	24.15	-47.6
34614	-0.29	-0.765	-0.632	16.66	22.26	-46.9
34636	-0.262	-0.807	-0.69	13.51	20.51	-48.93
34655	-0.236	-0.812	-0.748	10.43	18.41	-48.58
34677	-0.222	-0.828	-0.742	11.13	17.15	-46.55
34697	-0.218	-0.856	-0.724	10.36	14.28	-43.4
34717	-0.169	-0.857	-0.732	9.45	15.68	-42.14
34741	-0.177	-0.817	-0.749	6.3	12.81	-38.99
34761	-0.207	-0.793	-0.814	-0.35	9.31	-33.25
34781	-0.153	-0.887	-0.867	-3.29	8.54	-29.05
34805	-0.171	-0.974	-0.816	-4.83	5.11	-21.14
34822	-0.214	-0.993	-0.802	-7.98	0.14	-14.98
34846	-0.206	-0.954	-0.839	-7.0	-2.59	-6.93
34862	-0.203	-0.934	-0.833	-7.49	-4.2	0.0
34881	-0.202	-0.925	-0.821	-8.05	-12.32	7.07
34903	-0.182	-0.917	-0.83	-8.47	-16.52	15.68
34921	-0.176	-0.92	-0.805	-12.11	-20.65	21.0
34946	-0.199	-0.879	-0.738	-16.87	-31.78	27.58
34967	-0.228	-0.82	-0.692	-21.28	-39.34	34.3
34986	-0.23	-0.801	-0.704	-20.93	-40.74	40.6
35006	-0.211	-0.779	-0.689	-18.62	-41.79	48.3
35025	-0.208	-0.767	-0.704	-18.06	-45.64	52.36
35051	-0.222	-0.766	-0.705	-16.87	-47.04	53.55
35066	-0.231	-0.749	-0.692	-16.66	-45.92	53.62
35089	-0.255	-0.727	-0.648	-16.73	-46.76	54.18
35110	-0.289	-0.688	-0.622	-16.8	-51.03	55.37
35134	-0.332	-0.66	-0.644	-15.12	-53.55	56.77
35155	-0.369	-0.641	-0.659	-13.44	-53.55	57.54
35174	-0.408	-0.639	-0.659	-11.62	-52.85	59.22
35191	-0.435	-0.63	-0.649	-11.62	-54.46	62.09
35215	-0.445	-0.617	-0.622	-11.41	-58.73	66.22
35234	-0.45	-0.61	-0.604	-9.94	-62.93	66.85
35254	-0.47	-0.604	-0.593	-6.65	-62.44	66.78
35278	-0.464	-0.602	-0.59	-1.33	-60.9	65.73
35299	-0.476	-0.582	-0.585	7.63	-62.79	65.38
35317	-0.502	-0.548	-0.595	14.0	-62.72	65.8
35340	-0.543	-0.527	-0.557	15.61	-61.46	65.87
35361	-0.57	-0.516	-0.516	15.82	-62.23	63.56
35380	-0.593	-0.493	-0.513	16.1	-62.02	60.13
35398	-0.61	-0.461	-0.528	18.69	-58.73	58.52
35417	-0.615	-0.445	-0.555	22.61	-56.7	59.01
35437	-0.628	-0.448	-0.523	22.54	-53.48	58.17
35457	-0.646	-0.452	-0.457	18.76	-52.43	55.44
35481	-0.677	-0.423	-0.426	15.33	-54.95	50.89
35500	-0.671	-0.404	-0.465	16.17	-52.99	49.0
35520	-0.691	-0.375	-0.46	19.46	-48.51	48.44
35540	-0.723	-0.375	-0.407	18.76	-47.6	46.83
35563	-0.756	-0.387	-0.371	15.05	-50.68	43.61
35584	-0.777	-0.381	-0.38	11.76	-53.48	41.58
35609	-0.77	-0.351	-0.381	16.73	-48.86	41.09
35628	-0.778	-0.293	-0.386	15.05	-45.29	39.76
35647	-0.785	-0.294	-0.364	10.43	-42.84	37.94
35666	-0.791	-0.272	-0.348	9.03	-36.61	35.0
35686	-0.82	-0.255	-0.295	6.58	-33.53	33.18
35710	-0.848	-0.275	-0.276	1.96	-30.73	32.06
35734	-0.869	-0.274	-0.235	5.04	-31.36	30.45
35754	-0.861	-0.271	-0.265	5.04	-31.71	28.63
35774	-0.846	-0.295	-0.27	3.85	-27.86	24.92
35794	-0.866	-0.284	-0.264	3.99	-24.43	20.37
35811	-0.898	-0.283	-0.25	3.85	-21.56	15.96
35836	-0.905	-0.297	-0.225	3.43	-20.02	12.32
35852	-0.933	-0.29	-0.198	3.85	-21.77	9.8
35872	-0.905	-0.282	-0.208	6.93	-23.1	7.7
35896	-0.9	-0.254	-0.221	10.57	-20.72	5.67
35915	-0.912	-0.212	-0.209	11.2	-17.36	5.25
35937	-0.899	-0.213	-0.211	11.69	-14.98	4.27
35954	-0.89	-0.219	-0.205	12.81	-11.97	3.15
35976	-0.909	-0.226	-0.185	13.65	-9.59	2.45
35996	-0.928	-0.221	-0.18	13.02	-8.12	1.26
36014	-0.94	-0.209	-0.175	12.25	-6.86	0.77
36038	-0.931	-0.206	-0.169	12.39	-5.81	0.28
36057	-0.922	-0.224	-0.176	10.78	-4.34	-0.84
36078	-0.949	-0.225	-0.178	4.62	-3.64	-2.1
36097	-0.955	-0.214	-0.175	1.68	-3.92	-3.43
36118	-0.943	-0.214	-0.176	1.61	-2.03	-3.99
36138	-0.927	-0.222	-0.162	2.94	-0.42	-4.55
36158	-0.927	-0.24	-0.154	1.82	-0.07	-5.6
36178	-0.943	-0.248	-0.154	-1.68	-0.21	-7.14
36198	-0.944	-0.248	-0.146	-1.61	-0.42	-8.68
36214	-0.947	-0.238	-0.138	-0.14	-1.12	-9.52
36234	-0.929	-0.258	-0.159	-1.4	-2.1	-10.43
36258	-0.91	-0.271	-0.193	-1.61	-0.91	-12.11
36278	-0.908	-0.244	-0.195	-1.54	3.78	-12.88
36298	-0.903	-0.249	-0.183	-3.22	6.37	-12.67
36318	-0.9	-0.264	-0.164	-3.57	7.49	-12.81
36342	-0.915	-0.263	-0.183	-3.92	9.1	-13.86
36361	-0.923	-0.26	-0.189	-4.13	10.71	-14.7
36382	-0.919	-0.268	-0.216	-5.6	11.83	-15.68
36401	-0.91	-0.278	-0.228	-8.4	13.86	-15.75
36425	-0.914	-0.288	-0.23	-9.52	16.52	-15.68
36443	-0.906	-0.297	-0.219	-8.82	20.37	-16.03
36466	-0.882	-0.303	-0.217	-7.49	22.68	-17.36
36485	-0.869	-0.301	-0.227	-6.09	23.03	-19.39
36505	-0.869	-0.297	-0.252	-6.44	23.31	-21.21
36525	-0.871	-0.3	-0.24	-7.14	24.57	-22.54
36546	-0.851	-0.304	-0.24	-6.93	25.69	-24.5
36570	-0.831	-0.33	-0.239	-5.74	26.39	-29.12
36590	-0.851	-0.346	-0.277	-6.93	27.79	-31.36
36611	-0.843	-0.356	-0.264	-7.98	29.89	-32.55
36629	-0.8	-0.338	-0.275	-7.28	30.38	-34.58
36653	-0.769	-0.312	-0.321	-6.86	31.92	-39.27
36671	-0.763	-0.315	-0.367	-9.66	35.42	-42.14
36693	-0.791	-0.356	-0.369	-16.1	38.99	-45.01
36717	-0.796	-0.375	-0.348	-22.89	39.9	-47.11
36741	-0.774	-0.368	-0.354	-23.66	42.63	-47.53
36760	-0.726	-0.348	-0.384	-21.0	45.92	-47.04
36779	-0.677	-0.37	-0.412	-18.9	48.79	-48.37
36799	-0.671	-0.432	-0.421	-19.53	50.75	-51.94
36822	-0.702	-0.516	-0.441	-19.25	48.3	-56.84
36844	-0.642	-0.545	-0.48	-16.45	47.88	-61.74
36860	-0.596	-0.514	-0.492	-10.92	51.8	-65.8
36880	-0.599	-0.466	-0.468	-7.49	57.4	-68.67
36899	-0.624	-0.469	-0.479	-8.33	56.21	-70.91
36924	-0.63	-0.534	-0.495	-9.59	52.78	-70.28
36941	-0.607	-0.592	-0.515	-8.26	52.08	-69.23
36963	-0.584	-0.609	-0.537	-5.53	53.9	-70.35
36983	-0.555	-0.591	-0.544	-5.88	56.49	-73.08
37003	-0.516	-0.581	-0.545	-9.45	56.7	-75.11
37026	-0.468	-0.583	-0.532	-11.83	55.51	-76.37
37050	-0.45	-0.579	-0.54	-8.54	52.57	-77.0
37070	-0.423	-0.579	-0.585	-2.31	54.81	-74.97
37086	-0.398	-0.629	-0.62	1.19	57.75	-71.47
37106	-0.373	-0.666	-0.613	1.12	59.29	-67.9
37127	-0.359	-0.671	-0.62	-1.33	59.5	-65.87
37145	-0.363	-0.66	-0.585	-4.55	57.96	-64.19
37166	-0.351	-0.674	-0.593	-5.81	52.29	-61.11
37190	-0.337	-0.689	-0.633	-2.73	46.2	-59.43
37209	-0.335	-0.727	-0.661	2.73	44.38	-58.94
37228	-0.302	-0.783	-0.705	7.28	42.07	-55.79
37252	-0.277	-0.82	-0.752	7.0	40.18	-49.98
37271	-0.243	-0.815	-0.76	2.8	35.56	-49.21
37291	-0.187	-0.756	-0.722	-3.57	30.03	-47.6
37312	-0.163	-0.773	-0.723	-5.6	29.61	-44.52
37336	-0.162	-0.811	-0.768	-3.71	25.76	-37.66
37354	-0.14	-0.809	-0.787	-2.1	21.56	-32.69
37378	-0.1	-0.798	-0.825	-4.27	17.08	-26.88
37398	-0.072	-0.821	-0.841	-7.0	17.78	-24.08
37417	-0.115	-0.858	-0.841	-7.0	16.03	-20.02
37438	-0.142	-0.879	-0.798	-3.78	10.57	-14.63
37454	-0.13	-0.865	-0.85	-1.96	8.05	-10.64
37474	-0.115	-0.872	-0.826	-0.28	4.9	-6.16
37497	-0.084	-0.889	-0.815	-3.36	2.52	-0.98
37518	-0.09	-0.853	-0.801	-2.31	-1.61	5.46
37538	-0.071	-0.818	-0.805	0.21	-3.01	10.78
37557	-0.062	-0.788	-0.791	0.84	-1.4	14.07
37580	-0.079	-0.744	-0.737	-0.42	-5.25	19.25
37599	-0.096	-0.731	-0.742	-3.22	-8.89	23.24
37623	-0.108	-0.736	-0.746	-5.6	-14.21	28.42
37643	-0.104	-0.732	-0.789	-5.95	-14.14	32.27
37661	-0.121	-0.703	-0.767	-6.86	-14.49	34.79
37681	-0.141	-0.697	-0.743	-9.1	-17.36	38.43
37706	-0.15	-0.727	-0.766	-9.1	-23.17	44.38
37724	-0.166	-0.732	-0.755	-11.06	-25.41	46.76
37744	-0.175	-0.731	-0.724	-15.19	-26.53	47.32
37764	-0.203	-0.696	-0.697	-19.39	-27.44	46.13
37784	-0.227	-0.661	-0.693	-19.74	-32.62	45.22
37808	-0.243	-0.66	-0.732	-17.92	-35.7	47.46
37824	-0.267	-0.649	-0.734	-15.47	-37.52	49.42
37848	-0.274	-0.645	-0.713	-14.28	-37.17	50.12
37867	-0.298	-0.616	-0.678	-15.19	-38.99	51.1
37887	-0.3	-0.586	-0.684	-13.79	-43.47	71.54
37908	-0.311	-0.584	-0.706	-10.15	-43.26	54.88
37926	-0.344	-0.602	-0.706	-6.93	-42.07	54.25
37947	-0.38	-0.618	-0.682	-5.95	-41.72	52.92
37970	-0.407	-0.617	-0.673	-6.93	-46.48	53.2
37991	-0.411	-0.59	-0.69	-4.55	-49.84	53.62
38010	-0.432	-0.552	-0.691	-1.4	-50.47	53.34
38030	-0.456	-0.539	-0.7	0.63	-50.89	54.11
38054	-0.467	-0.509	-0.67	1.89	-49.84	53.62
38073	-0.493	-0.494	-0.665	2.38	-49.07	52.64
38096	-0.513	-0.507	-0.636	1.82	-47.81	51.66
38118	-0.539	-0.51	-0.571	0.77	-50.54	50.19
38139	-0.566	-0.491	-0.583	1.47	-54.46	47.6
38156	-0.586	-0.47	-0.613	4.55	-55.44	47.04
38176	-0.606	-0.46	-0.621	9.73	-53.83	48.65
38200	-0.607	-0.453	-0.597	10.57	-50.47	47.95
38217	-0.622	-0.451	-0.553	7.14	-50.05	44.59
38241	-0.642	-0.434	-0.54	6.09	-52.85	40.88
38265	-0.637	-0.427	-0.562	7.56	-53.9	39.76
38285	-0.612	-0.409	-0.542	10.08	-50.68	38.64
38305	-0.617	-0.395	-0.499	10.92	-48.16	36.47
38323	-0.671	-0.358	-0.434	10.29	-46.69	34.37
38342	-0.699	-0.334	-0.452	9.03	-48.23	32.13
38367	-0.715	-0.328	-0.474	10.22	-47.25	32.27
38387	-0.705	-0.331	-0.492	11.83	-43.19	32.55
38407	-0.733	-0.325	-0.475	12.95	-40.46	31.92
38427	-0.795	-0.304	-0.443	10.15	-39.48	30.87
38451	-0.813	-0.299	-0.449	9.03	-37.73	30.87
38472	-0.79	-0.305	-0.445	10.01	-32.97	30.1
38490	-0.778	-0.314	-0.399	10.15	-26.53	28.07
38511	-0.789	-0.323	-0.336	5.04	-22.47	24.64
38531	-0.788	-0.336	-0.311	1.54	-22.61	20.3
38554	-0.788	-0.311	-0.32	1.26	-24.57	15.12
38576	-0.762	-0.283	-0.391	3.5	-23.8	10.92
38595	-0.77	-0.251	-0.403	7.42	-19.32	8.96
38615	-0.805	-0.257	-0.394	9.94	-13.02	7.84
38635	-0.835	-0.275	-0.361	8.61	-10.01	7.63
38654	-0.855	-0.293	-0.365	3.29	-10.08	7.14
38679	-0.86	-0.277	-0.362	2.52	-8.47	5.81
38697	-0.88	-0.259	-0.359	2.66	-6.58	5.53
38721	-0.902	-0.262	-0.351	2.1	-6.51	4.69
38740	-0.902	-0.277	-0.349	1.19	-6.51	3.29
38760	-0.874	-0.29	-0.35	0.7	-4.13	2.03
38784	-0.882	-0.299	-0.317	0.42	-4.69	1.26
38804	-0.899	-0.293	-0.315	-0.98	-7.77	1.33
38820	-0.886	-0.283	-0.329	-0.56	-8.54	1.54
38839	-0.856	-0.276	-0.363	0.63	-5.74	1.12
38864	-0.862	-0.27	-0.353	-0.42	-1.82	-0.14
38881	-0.878	-0.278	-0.311	-2.66	-0.98	-1.61
38901	-0.885	-0.292	-0.288	-3.29	-3.08	-3.71
38925	-0.866	-0.306	-0.299	-1.19	-3.15	-6.37
38942	-0.855	-0.313	-0.306	-0.28	-2.45	-8.82
38966	-0.862	-0.299	-0.292	-1.19	-0.42	-12.04
38986	-0.853	-0.296	-0.292	-1.89	0.42	-15.19
39006	-0.832	-0.299	-0.311	0.14	2.1	-18.97
39026	-0.807	-0.299	-0.322	4.62	5.18	-22.19
39050	-0.814	-0.312	-0.314	4.55	8.4	-26.32
39068	-0.825	-0.321	-0.323	2.24	9.66	-29.12
39088	-0.806	-0.323	-0.32	0.63	12.53	-32.9
39112	-0.776	-0.316	-0.327	0.77	15.75	-38.15
39132	-0.758	-0.304	-0.334	0.35	17.29	-41.79
39152	-0.747	-0.305	-0.346	2.73	18.97	-45.15
39171	-0.691	-0.3	-0.355	2.66	22.47	-47.25
39195	-0.66	-0.304	-0.371	-0.56	27.3	-51.52
39214	-0.712	-0.303	-0.381	-5.04	28.77	-55.23
39234	-0.772	-0.331	-0.368	-6.58	27.23	-55.51
39258	-0.769	-0.388	-0.404	-6.72	26.88	-54.46
39278	-0.721	-0.406	-0.407	-1.68	32.83	-56.77
39296	-0.688	-0.398	-0.409	0.63	39.76	-59.5
39317	-0.656	-0.416	-0.423	-2.17	45.78	-64.12
39337	-0.581	-0.473	-0.44	-7.7	50.82	-70.63
39359	-0.555	-0.47	-0.426	-14.0	51.73	-77.84
39379	-0.54	-0.453	-0.421	-17.15	50.89	-82.25
39403	-0.563	-0.451	-0.483	-14.07	53.62	-81.76
39423	-0.6	-0.471	-0.497	-8.47	58.38	-78.33
39443	-0.587	-0.538	-0.502	-7.56	60.55	-74.62
39462	-0.544	-0.609	-0.505	-7.21	63.91	-73.43
39483	-0.493	-0.648	-0.528	-8.61	67.9	-73.71
39503	-0.462	-0.64	-0.555	-10.01	68.74	-73.5
39523	-0.47	-0.591	-0.521	-7.42	65.24	-72.87
39542	-0.463	-0.576	-0.552	-2.66	62.79	-68.04
39563	-0.427	-0.615	-0.585	1.68	63.84	-61.04
39583	-0.379	-0.693	-0.648	4.55	66.36	-57.12
39601	-0.382	-0.777	-0.634	6.16	64.54	-56.28
39620	-0.402	-0.798	-0.657	6.09	55.3	-54.04
39640	-0.374	-0.791	-0.718	5.11	51.03	-50.4
39664	-0.349	-0.774	-0.702	8.05	51.17	-44.87
39685	-0.354	-0.815	-0.685	16.45	45.71	-40.6
39703	-0.36	-0.861	-0.723	23.45	40.25	-36.33
39723	-0.28	-0.914	-0.774	14.77	36.19	-33.04
39743	-0.223	-0.882	-0.797	-1.54	31.85	-33.81
39767	-0.212	-0.838	-0.766	-13.93	23.94	-30.87
39787	-0.214	-0.804	-0.754	-3.29	16.8	-23.38
39805	-0.193	-0.875	-0.766	3.43	18.69	-15.68
39825	-0.191	-0.975	-0.798	3.64	21.07	-9.17
39849	-0.246	-1.002	-0.825	-1.96	15.47	-0.49
39868	-0.276	-0.931	-0.83	-8.19	5.67	3.64
39889	-0.231	-0.867	-0.831	-7.77	1.26	7.28
39909	-0.198	-0.845	-0.817	-6.51	-0.42	13.09
39934	-0.179	-0.859	-0.834	-6.3	-5.32	22.47
39953	-0.194	-0.874	-0.825	-9.66	-8.47	27.37
39973	-0.227	-0.878	-0.778	-14.07	-12.67	32.13
39993	-0.251	-0.867	-0.729	-17.43	-18.55	35.56
40012	-0.259	-0.818	-0.718	-17.64	-22.4	39.9
40036	-0.271	-0.755	-0.709	-14.98	-27.72	47.18
40053	-0.27	-0.721	-0.718	-12.53	-31.36	51.52
40073	-0.278	-0.697	-0.735	-14.28	-33.67	55.93
40096	-0.302	-0.701	-0.701	-20.58	-35.0	57.61
40117	-0.327	-0.698	-0.651	-25.41	-41.3	58.87
40137	-0.337	-0.684	-0.662	-23.31	-46.34	61.04
40156	-0.349	-0.652	-0.679	-17.71	-48.02	63.07
40180	-0.376	-0.63	-0.667	-13.86	-47.6	63.98
40200	-0.399	-0.6	-0.65	-14.7	-48.02	64.33
40218	-0.411	-0.587	-0.635	-15.19	-49.84	63.28
40238	-0.438	-0.556	-0.63	-13.58	-52.78	63.42
40261	-0.444	-0.523	-0.622	-11.2	-54.95	63.63
40282	-0.468	-0.513	-0.593	-8.33	-54.88	63.63
40302	-0.508	-0.504	-0.571	-7.7	-55.02	62.09
40321	-0.555	-0.544	-0.606	-5.39	-55.79	58.24
40339	-0.594	-0.551	-0.609	-4.06	-58.1	55.72
40359	-0.598	-0.525	-0.595	-1.26	-60.76	54.18
40383	-0.582	-0.449	-0.549	3.08	-61.74	51.8
40407	-0.621	-0.404	-0.527	5.46	-60.41	46.9
40423	-0.654	-0.397	-0.539	4.83	-59.08	45.29
40442	-0.657	-0.418	-0.5	5.25	-58.24	42.77
40462	-0.66	-0.419	-0.451	4.76	-63.07	39.97
40484	-0.63	-0.379	-0.421	7.14	-67.55	36.82
40508	-0.626	-0.33	-0.434	8.4	-64.61	35.07
40526	-0.654	-0.32	-0.452	9.24	-57.68	34.37
40549	-0.698	-0.326	-0.406	11.34	-54.6	33.46
40570	-0.692	-0.339	-0.42	12.25	-50.82	30.59
40588	-0.715	-0.325	-0.417	9.17	-46.69	26.74
40608	-0.747	-0.325	-0.409	4.27	-44.94	23.66
40632	-0.772	-0.349	-0.43	4.34	-43.47	20.44
40651	-0.781	-0.365	-0.447	6.44	-36.54	18.27
40667	-0.791	-0.373	-0.407	5.46	-30.03	15.82
40691	-0.796	-0.363	-0.346	0.35	-23.73	11.69
40712	-0.809	-0.333	-0.331	-2.38	-23.03	8.12
40732	-0.818	-0.301	-0.358	0.84	-22.75	7.14
40751	-0.809	-0.304	-0.374	2.94	-20.79	8.05
40772	-0.784	-0.335	-0.362	3.57	-17.22	7.21
40787	-0.784	-0.346	-0.337	3.64	-16.24	4.69
40811	-0.8	-0.352	-0.363	3.29	-11.48	0.98
40832	-0.854	-0.354	-0.334	0.49	-8.61	-0.28
40851	-0.866	-0.362	-0.322	-2.03	-9.52	-0.84
40873	-0.882	-0.339	-0.333	-1.54	-11.48	-1.47
40894	-0.868	-0.297	-0.375	0.21	-9.8	-1.82
40915	-0.85	-0.296	-0.371	0.21	-4.13	-0.7
40938	-0.848	-0.328	-0.323	-1.61	0.28	-0.28
40959	-0.841	-0.358	-0.278	-2.1	-0.84	-1.89
40980	-0.831	-0.349	-0.29	-4.27	-3.64	-4.83
40998	-0.813	-0.325	-0.309	-5.25	-3.36	-7.77
41022	-0.792	-0.305	-0.321	-3.71	0.0	-11.06
41038	-0.777	-0.282	-0.321	-1.96	4.76	-12.46
41062	-0.788	-0.29	-0.308	0.0	7.35	-13.58
41081	-0.763	-0.32	-0.338	0.98	8.54	-16.87
41105	-0.733	-0.317	-0.324	2.03	13.3	-23.24
41125	-0.715	-0.32	-0.338	0.35	16.52	-29.54
41145	-0.711	-0.338	-0.352	-3.29	18.9	-34.44
41163	-0.718	-0.328	-0.356	-3.08	19.6	-37.59
41186	-0.694	-0.312	-0.342	-1.33	24.71	-41.3
41204	-0.669	-0.323	-0.339	-2.1	28.84	-45.29
41224	-0.636	-0.333	-0.389	-3.85	35.49	-50.96
41247	-0.612	-0.334	-0.413	-6.16	44.31	-57.12
41267	-0.595	-0.348	-0.416	-9.59	50.4	-62.02
41289	-0.606	-0.365	-0.4	-10.85	53.69	-68.18
41308	-0.613	-0.389	-0.412	-10.78	56.56	-71.47
41328	-0.598	-0.428	-0.458	-9.03	59.71	-73.57
41348	-0.57	-0.442	-0.498	-4.34	65.03	-74.41
41372	-0.544	-0.462	-0.508	-0.21	71.89	-75.88
41392	-0.52	-0.506	-0.506	4.69	77.7	-78.05
41409	-0.523	-0.542	-0.512	2.87	78.47	-80.71
41429	-0.541	-0.577	-0.469	-3.08	74.76	-82.53
41453	-0.545	-0.596	-0.515	-0.14	65.66	-81.34
41473	-0.512	-0.584	-0.603	7.35	67.06	-76.79
41493	-0.49	-0.617	-0.654	15.12	71.47	-73.64
41514	-0.503	-0.654	-0.608	15.26	72.1	-69.93
41533	-0.52	-0.72	-0.585	11.55	66.57	-65.03
41553	-0.533	-0.748	-0.586	3.99	61.18	-61.11
41573	-0.52	-0.712	-0.594	9.87	53.9	-56.7
41593	-0.483	-0.731	-0.687	24.5	50.19	-48.86
41617	-0.447	-0.801	-0.731	24.57	49.07	-40.32
41637	-0.415	-0.892	-0.766	13.65	41.51	-38.64
41655	-0.344	-0.912	-0.778	-1.05	40.46	-40.67
41677	-0.318	-0.8	-0.778	-0.98	31.92	-35.84
41701	-0.32	-0.787	-0.748	-0.56	27.51	-27.93
41721	-0.366	-0.823	-0.764	2.87	22.33	-21.14
41741	-0.327	-0.887	-0.838	-1.96	19.46	-14.91
41759	-0.265	-0.915	-0.894	-8.12	18.9	-13.02
41783	-0.301	-0.91	-0.821	-13.02	14.14	-6.09
41803	-0.325	-0.915	-0.759	-9.1	4.2	0.28
41826	-0.281	-0.913	-0.798	-3.29	-1.75	6.37
41847	-0.281	-0.896	-0.811	-0.98	-3.64	14.63
41866	-0.281	-0.916	-0.761	-1.33	-9.1	22.19
41886	-0.284	-0.908	-0.727	-4.9	-17.71	27.02
41911	-0.27	-0.867	-0.717	-2.52	-23.59	30.24
41929	-0.293	-0.808	-0.728	0.14	-27.02	34.23
41948	-0.294	-0.771	-0.725	-0.77	-29.19	38.99
41973	-0.291	-0.752	-0.712	-3.92	-29.54	43.61
41990	-0.296	-0.738	-0.658	-6.37	-32.34	46.69
42010	-0.298	-0.727	-0.621	-8.82	-34.44	48.37
42031	-0.33	-0.742	-0.602	-10.64	-36.33	48.09
42051	-0.352	-0.758	-0.634	-8.19	-37.03	47.74
42071	-0.369	-0.743	-0.63	-5.25	-38.29	48.09
42093	-0.391	-0.714	-0.644	-0.7	-40.04	50.12
42113	-0.42	-0.69	-0.65	-0.14	-40.46	53.34
42132	-0.45	-0.657	-0.629	-4.62	-40.95	54.6
42157	-0.497	-0.644	-0.625	-8.12	-42.91	54.46
42176	-0.538	-0.644	-0.607	-8.19	-46.55	55.23
42200	-0.555	-0.626	-0.563	-9.31	-52.29	58.03
42218	-0.549	-0.595	-0.533	-8.89	-57.33	59.99
42238	-0.557	-0.567	-0.567	-4.76	-57.96	61.88
42262	-0.572	-0.553	-0.582	-2.17	-56.63	64.26
42280	-0.599	-0.554	-0.54	-3.64	-58.03	65.24
42304	-0.626	-0.556	-0.481	-3.78	-61.74	64.05
42324	-0.646	-0.531	-0.545	-1.19	-62.86	62.02
42347	-0.656	-0.509	-0.561	0.7	-61.18	61.25
42366	-0.678	-0.505	-0.499	3.64	-59.01	60.76
42388	-0.712	-0.487	-0.418	6.02	-61.74	59.15
42404	-0.738	-0.456	-0.399	5.74	-64.61	57.12
42426	-0.77	-0.421	-0.435	5.67	-66.64	55.51
42450	-0.776	-0.389	-0.445	5.67	-67.27	56.21
42469	-0.789	-0.366	-0.408	9.17	-70.49	57.4
42489	-0.806	-0.361	-0.382	14.91	-71.82	58.94
42509	-0.786	-0.35	-0.365	14.49	-70.7	59.5
42531	-0.76	-0.335	-0.358	10.64	-68.39	58.45
42551	-0.773	-0.296	-0.346	7.56	-65.45	56.63
42570	-0.782	-0.275	-0.316	10.43	-63.42	55.72
42594	-0.784	-0.288	-0.324	16.31	-59.29	53.55
42614	-0.831	-0.278	-0.286	17.99	-54.25	52.36
42633	-0.857	-0.285	-0.263	13.3	-51.52	50.96
42657	-0.868	-0.268	-0.231	9.73	-45.29	47.25
42676	-0.859	-0.24	-0.197	14.0	-41.44	44.17
42696	-0.88	-0.175	-0.206	16.66	-36.68	41.23
42718	-0.904	-0.148	-0.184	11.06	-35.49	39.55
42737	-0.884	-0.17	-0.172	11.69	-34.44	38.15
42761	-0.87	-0.164	-0.158	16.73	-32.2	36.75
42781	-0.873	-0.166	-0.161	20.23	-30.38	34.51
42804	-0.895	-0.124	-0.15	14.98	-24.71	32.06
42824	-0.915	-0.103	-0.125	10.29	-21.84	30.8
42847	-0.883	-0.088	-0.132	13.93	-19.46	28.35
42866	-0.889	-0.069	-0.106	17.99	-12.88	26.04
42889	-0.896	-0.091	-0.092	14.84	-9.24	21.42
42908	-0.908	-0.108	-0.102	6.86	-5.25	13.79
42924	-0.922	-0.118	-0.092	0.63	-2.73	8.47
42943	-0.954	-0.098	-0.073	-1.12	-1.33	3.71
42967	-0.981	-0.101	-0.097	1.26	-6.16	2.59
42988	-0.964	-0.058	-0.116	7.35	-1.05	3.15
43005	-0.96	-0.04	-0.095	7.63	3.92	2.24
43027	-0.97	-0.061	-0.075	4.9	7.42	-0.7
43051	-0.964	-0.09	-0.076	5.11	9.31	-3.36
43071	-0.948	-0.122	-0.074	3.29	10.29	-6.16
43091	-0.935	-0.124	-0.068	-0.21	11.13	-10.43
43109	-0.917	-0.106	-0.08	-1.75	12.25	-14.7
43128	-0.898	-0.077	-0.08	-2.03	14.21	-18.34
43153	-0.904	-0.077	-0.064	-2.73	12.6	-23.59
43173	-0.867	-0.117	-0.119	-4.48	11.97	-28.91
43191	-0.838	-0.143	-0.167	-4.27	20.86	-32.83
43212	-0.864	-0.167	-0.17	-0.35	27.44	-36.33
43236	-0.866	-0.172	-0.163	0.21	31.43	-40.39
43256	-0.834	-0.161	-0.159	-5.46	34.16	-45.43
43271	-0.814	-0.118	-0.144	-10.29	38.36	-49.42
43295	-0.834	-0.119	-0.177	-9.73	38.71	-54.88
43313	-0.801	-0.152	-0.271	-8.89	43.68	-58.31
43336	-0.738	-0.257	-0.301	-10.78	57.19	-64.89
43357	-0.751	-0.28	-0.252	-11.9	61.88	-72.1
43377	-0.789	-0.287	-0.23	-12.39	59.29	-77.21
43397	-0.795	-0.269	-0.258	-10.99	59.71	-78.89
43417	-0.83	-0.269	-0.295	-6.65	56.28	-77.98
43437	-0.712	-0.336	-0.421	-3.15	64.82	-80.64
43457	-0.639	-0.344	-0.455	-0.63	77.28	-85.12
43475	-0.63	-0.362	-0.422	-3.57	85.89	-90.79
43499	-0.653	-0.381	-0.387	-14.63	85.47	-95.13
43519	-0.675	-0.448	-0.392	-18.9	82.95	-94.64
43540	-0.679	-0.483	-0.459	-6.72	84.7	-92.47
43559	-0.681	-0.522	-0.508	-0.98	89.53	-90.86
43578	-0.672	-0.63	-0.497	1.33	93.59	-92.54
43598	-0.712	-0.616	-0.423	3.36	87.22	-94.29
43619	-0.746	-0.624	-0.399	4.83	75.18	-91.42
43641	-0.674	-0.624	-0.497	17.43	66.36	-83.58
43660	-0.549	-0.615	-0.625	22.89	69.37	-77.49
43679	-0.488	-0.589	-0.617	19.88	73.08	-74.2
43704	-0.484	-0.58	-0.569	8.61	64.4	-71.12
43722	-0.438	-0.656	-0.601	5.81	58.24	-66.99
43743	-0.424	-0.789	-0.678	13.58	57.05	-61.81
43763	-0.444	-0.994	-0.662	19.81	52.99	-56.0
43784	-0.483	-0.883	-0.632	17.15	45.15	-52.36
43801	-0.473	-0.826	-0.671	11.83	39.27	-48.79
43821	-0.431	-0.781	-0.721	6.37	37.66	-43.68
43845	-0.387	-0.819	-0.717	0.14	36.26	-36.75
43864	-0.364	-0.865	-0.724	-7.0	27.09	-30.03
43885	-0.364	-0.859	-0.716	-9.52	22.26	-24.64
43901	-0.326	-0.844	-0.788	-6.86	22.12	-20.51
43925	-0.282	-0.873	-0.836	-6.3	24.36	-15.05
43945	-0.261	-0.952	-0.847	-7.7	21.14	-15.26
43961	-0.302	-0.931	-0.857	-6.44	17.64	-12.32
43980	-0.373	-0.918	-0.788	-4.2	13.65	-4.9
44005	-0.388	-0.898	-0.798	-4.55	5.32	4.62
44025	-0.338	-0.866	-0.847	-4.06	-1.19	11.69
44048	-0.295	-0.828	-0.845	-3.99	-2.17	18.48
44068	-0.317	-0.842	-0.781	-9.66	-7.42	23.73
44088	-0.343	-0.861	-0.752	-15.26	-14.0	27.37
44109	-0.365	-0.832	-0.772	-13.58	-21.63	31.29
44132	-0.369	-0.797	-0.764	-10.36	-24.85	36.89
44148	-0.376	-0.762	-0.758	-10.22	-25.9	39.41
44173	-0.387	-0.705	-0.72	-13.86	-32.13	42.42
44191	-0.378	-0.674	-0.69	-17.22	-35.21	46.9
44213	-0.381	-0.686	-0.69	-19.46	-39.41	50.4
44233	-0.401	-0.694	-0.693	-14.98	-42.07	52.99
44257	-0.397	-0.684	-0.699	-10.01	-41.86	55.58
44277	-0.412	-0.656	-0.661	-7.91	-43.61	56.7
44296	-0.459	-0.633	-0.624	-7.91	-49.0	57.12
44316	-0.495	-0.615	-0.653	-9.66	-53.41	58.87
44340	-0.513	-0.577	-0.638	-11.13	-55.79	60.9
44360	-0.519	-0.559	-0.636	-9.94	-57.68	63.21
44380	-0.52	-0.549	-0.625	-4.13	-58.1	66.15
44399	-0.55	-0.563	-0.596	-0.91	-58.17	67.9
44420	-0.585	-0.575	-0.556	-0.49	-60.48	68.11
44444	-0.588	-0.554	-0.559	0.91	-64.82	67.41
44463	-0.581	-0.517	-0.585	5.81	-65.31	67.34
44488	-0.618	-0.485	-0.562	11.9	-63.77	68.04
44511	-0.662	-0.489	-0.515	13.58	-63.98	68.18
44531	-0.674	-0.474	-0.477	16.03	-62.3	67.55
44554	-0.703	-0.451	-0.453	19.53	-61.81	67.13
44575	-0.734	-0.433	-0.426	24.08	-62.44	67.48
44595	-0.761	-0.422	-0.42	26.53	-64.19	69.02
44613	-0.778	-0.41	-0.417	28.63	-64.12	70.91
44634	-0.774	-0.387	-0.401	32.9	-63.56	72.03
44654	-0.796	-0.372	-0.373	36.68	-61.53	72.03
44677	-0.846	-0.372	-0.342	38.57	-62.86	72.1
44701	-0.841	-0.378	-0.338	39.34	-64.12	72.1
44721	-0.823	-0.367	-0.316	41.23	-63.98	70.42
44741	-0.824	-0.317	-0.266	41.44	-63.35	68.04
44758	-0.865	-0.278	-0.213	40.53	-65.59	66.64
44781	-0.907	-0.274	-0.206	40.32	-71.82	65.03
44801	-0.905	-0.269	-0.22	42.28	-73.5	63.91
44820	-0.894	-0.262	-0.217	45.71	-71.82	61.18
44845	-0.894	-0.227	-0.187	49.56	-66.85	57.75
44865	-0.898	-0.195	-0.14	53.97	-64.19	54.53
44880	-0.909	-0.155	-0.098	53.2	-62.16	52.36
44905	-0.912	-0.107	-0.045	50.05	-60.55	47.74
44925	-0.906	-0.097	-0.041	47.53	-63.56	42.91
44945	-0.88	-0.089	-0.066	47.25	-60.69	38.57
44964	-0.866	-0.06	-0.057	47.11	-56.7	35.14
44984	-0.878	-0.02	-0.038	47.32	-49.07	31.64
45008	-0.899	-0.025	0.012	42.7	-42.49	26.6
45028	-0.932	-0.026	0.025	35.49	-44.8	22.12
45044	-0.919	-0.004	0.002	35.14	-39.9	18.41
45066	-0.939	0.045	0.054	33.46	-34.51	13.65
45087	-0.969	0.051	0.099	26.74	-29.47	10.57
45111	-0.989	0.065	0.122	22.4	-30.59	7.42
45130	-0.982	0.081	0.104	17.22	-30.66	5.53
45153	-0.976	0.079	0.11	12.81	-28.77	3.5
45173	-0.951	0.067	0.116	8.05	-26.25	1.26
45193	-0.939	0.061	0.115	3.64	-21.21	-0.21
45213	-0.945	0.066	0.139	-0.56	-16.52	-1.26
45233	-0.942	0.052	0.153	-2.94	-13.3	-2.73
45256	-0.939	0.028	0.176	-5.18	-8.75	-6.16
45276	-0.96	0.045	0.175	-7.63	-7.14	-7.98
45295	-0.989	0.078	0.177	-11.27	-6.23	-9.03
45318	-0.994	0.057	0.18	-16.59	-6.72	-9.94
45338	-0.984	0.005	0.186	-21.49	-5.32	-10.85
45359	-0.996	0.014	0.188	-22.82	-5.11	-9.8
45383	-0.993	0.025	0.174	-20.02	-3.22	-7.98
45408	-0.998	0.012	0.18	-20.16	-1.33	-7.84
45427	-0.983	0.002	0.183	-19.53	-0.07	-8.12
45447	-0.974	-0.031	0.157	-18.27	1.89	-7.7
45467	-0.978	-0.053	0.146	-15.82	5.25	-6.51
45487	-0.978	-0.057	0.163	-14.84	7.98	-6.02
45507	-0.986	-0.055	0.168	-14.84	7.77	-7.42
45528	-1.002	-0.025	0.139	-14.7	5.04	-8.96
45545	-0.99	-0.034	0.105	-15.4	6.65	-9.38
45567	-0.983	-0.072	0.102	-19.46	11.34	-10.64
45587	-0.971	-0.082	0.114	-17.5	13.79	-10.57
45607	-0.994	-0.099	0.129	-11.83	14.98	-9.94
45625	-1.009	-0.115	0.132	-9.31	12.18	-8.82
45644	-1.016	-0.122	0.112	-4.97	13.02	-9.73
45669	-1.025	-0.109	0.091	0.28	12.04	-10.29
45687	-1.016	-0.118	0.071	2.45	15.33	-10.43
45707	-1.019	-0.12	0.122	4.62	17.29	-10.36
45731	-1.028	-0.103	0.114	7.21	13.44	-9.59
45747	-1.018	-0.109	0.08	8.68	12.6	-8.75
45766	-1.014	-0.116	0.067	11.69	13.65	-8.05
45791	-1.011	-0.141	0.072	14.07	14.84	-8.33
45812	-1.025	-0.167	0.1	14.63	16.31	-9.45
45831	-1.038	-0.156	0.111	13.72	14.14	-9.66
45849	-1.026	-0.145	0.109	13.93	12.25	-9.1
45873	-1.024	-0.158	0.089	16.17	9.52	-8.19
45892	-1.008	-0.176	0.083	19.25	8.26	-8.61
45912	-1.01	-0.214	0.072	21.0	7.0	-9.03
45932	-1.009	-0.24	0.086	19.39	11.69	-9.73
45951	-1.039	-0.25	0.139	17.71	10.92	-9.87
45976	-1.05	-0.247	0.143	17.08	2.8	-9.59
45991	-1.031	-0.202	0.115	17.57	-0.56	-8.47
46016	-1.031	-0.159	0.088	16.87	-4.62	-5.04
46036	-0.978	-0.16	0.067	12.81	-3.71	-3.29
46051	-0.972	-0.18	0.089	10.57	-0.21	-2.24
46076	-0.978	-0.198	0.13	9.31	-0.77	-1.26
46096	-1.011	-0.224	0.13	9.24	-3.92	-0.49
46116	-1.039	-0.238	0.129	10.15	-6.3	-0.42
46136	-1.02	-0.201	0.082	10.64	-8.82	1.4
46155	-1.004	-0.178	0.08	8.33	-4.2	3.22
46176	-0.992	-0.178	0.1	3.01	-1.68	5.53
46200	-0.999	-0.194	0.133	-0.91	-4.69	7.21
46219	-0.977	-0.213	0.124	-1.47	-7.35	7.77
46238	-0.954	-0.249	0.099	-1.96	-6.09	8.68
46257	-0.955	-0.263	0.118	-3.78	-7.14	8.89
46282	-0.958	-0.228	0.124	-3.22	-7.14	8.96
46302	-0.963	-0.214	0.14	-2.45	-8.54	10.01
46321	-0.977	-0.204	0.137	-5.11	-9.38	10.85
46341	-0.987	-0.22	0.119	-7.77	-10.15	10.5
46357	-0.988	-0.217	0.091	-8.4	-8.26	9.87
46382	-0.996	-0.204	0.075	-5.88	-4.83	10.36
46401	-0.876	-0.207	0.067	-2.31	-2.24	10.92
46421	-0.994	-0.199	0.071	2.03	2.59	10.99
46440	-0.997	-0.157	0.072	5.95	4.97	10.78
46465	-0.998	-0.106	0.061	8.19	6.44	12.25
46480	-0.986	-0.089	0.073	9.38	9.38	13.37
46503	-1.013	-0.065	0.126	10.71	8.82	15.05
46527	-1.016	-0.085	0.142	11.76	2.66	14.49
46547	-1.014	-0.064	0.119	12.81	-2.31	13.93
46565	-1.005	-0.076	0.099	13.44	-2.87	13.65
46587	-1.016	-0.064	0.103	13.23	-4.34	11.69
46610	-1.017	-0.048	0.085	13.51	-2.31	9.66
46630	-1.029	-0.022	0.089	12.32	-0.49	9.31
46651	-1.018	0.017	0.087	9.87	-0.14	9.31
46671	-1.003	0.036	0.083	10.01	0.21	9.45
46690	-0.998	0.045	0.077	10.85	0.42	8.89
46714	-0.997	0.044	0.08	8.96	-1.33	8.4
46735	-0.988	0.049	0.085	9.8	-2.17	8.05
46755	-0.986	0.03	0.069	10.64	-3.78	7.0
46775	-1.006	0.02	0.081	7.56	-2.66	4.9
46793	-1.037	0.022	0.09	7.42	-3.22	3.43
46813	-1.033	0.044	0.069	8.82	-2.24	1.33
46833	-1.024	0.044	0.066	9.31	-0.84	0.56
46853	-1.008	0.023	0.065	9.31	0.42	-0.14
46874	-1.019	0.042	0.097	13.65	2.31	-1.33
46895	-0.999	0.051	0.065	17.29	2.24	-1.05
46915	-1.008	0.05	0.077	18.62	3.57	-0.21
46939	-1.019	0.057	0.079	18.41	1.19	-0.84
46959	-1.016	0.07	0.085	14.98	0.49	-2.03
46976	-1.029	0.095	0.096	11.69	0.84	-2.45
46995	-1.049	0.092	0.096	9.73	-0.63	-2.03
47020	-1.018	0.066	0.082	7.21	-1.12	-0.91
47039	-1.003	0.047	0.088	4.9	-1.05	-0.42
47060	-1.008	0.055	0.089	3.22	-0.84	0.21
47080	-1.008	0.055	0.077	3.15	-0.77	0.84
47097	-1.014	0.052	0.067	3.22	-1.61	1.05
47116	-1.016	0.061	0.073	3.92	-2.66	2.66
47140	-1.012	0.052	0.061	3.99	-3.01	5.39
47161	-1.035	0.03	0.097	4.48	-1.33	6.02
47185	-1.051	0.026	0.102	5.04	-3.08	4.83
47205	-1.05	0.033	0.076	5.11	-4.62	3.64
47220	-1.021	0.036	0.071	4.62	-4.48	3.08
47243	-0.988	0.045	0.085	3.5	-4.62	2.31
47262	-0.993	0.066	0.117	1.68	-3.5	1.89
47285	-1.037	0.067	0.135	-0.7	-5.39	1.89
47306	-1.042	0.046	0.079	-4.06	-8.4	2.1
47330	-1.021	0.049	0.053	-5.11	-7.0	2.1
47351	-0.992	0.062	0.066	-4.34	-2.66	2.66
47370	-1.017	0.089	0.111	-4.69	-3.78	3.78
47390	-1.03	0.09	0.094	-4.48	-6.58	5.74
47410	-1.012	0.036	0.083	-1.82	-7.49	7.0
47434	-0.984	-0.026	0.112	-1.82	-7.84	5.95
47454	-0.99	-0.029	0.115	1.4	-11.69	4.83
47471	-0.98	0.002	0.086	5.25	-10.01	3.08
47491	-0.993	0.01	0.064	5.53	-7.63	0.91
47510	-0.983	0.015	0.068	1.54	-4.13	-0.28
47530	-1.007	0.032	0.126	-1.4	-1.4	-0.98
47555	-1.06	0.073	0.152	-2.1	-3.64	-0.35
47575	-1.058	0.063	0.119	-2.73	-7.56	-0.07
47594	-1.026	0.042	0.1	-2.66	-7.84	0.21
47615	-0.991	0.015	0.105	-1.26	-6.3	0.07
47635	-0.974	0.01	0.125	-0.98	-2.59	-0.7
47654	-0.999	0.025	0.133	0.0	-2.73	-1.12
47679	-1.002	0.02	0.123	0.35	-3.78	-1.68
47697	-1.005	0.017	0.122	1.47	-3.29	-2.45
47717	-0.999	0.015	0.136	1.33	-2.03	-2.52
47738	-1.005	0.018	0.131	0.28	-2.31	-2.8
47758	-1.018	0.03	0.135	-0.91	-2.59	-2.73
47777	-1.018	0.025	0.129	-1.47	-3.92	-3.15
47797	-1.001	0.036	0.0	-0.35	-4.76	-3.5
47821	-0.992	0.041	0.128	1.05	-2.24	-3.64
47839	-1.007	0.047	0.141	-0.14	-0.28	-3.57
47859	-1.01	0.064	0.137	-2.03	-0.63	-3.15
47883	-0.996	0.069	0.122	-6.3	0.07	-3.08
47903	-0.996	0.072	0.116	-9.59	-0.49	-3.85
47923	-0.988	0.07	0.119	-11.48	0.98	-4.34
47942	-1.006	0.053	0.128	-11.69	1.26	-4.41
47961	-1.023	0.045	0.133	-11.41	0.56	-3.85
47984	-1.026	0.022	0.129	-10.78	-0.21	-3.64
48003	-1.026	0.02	0.125	-10.43	0.84	-4.06
48022	-1.033	0.019	0.12	-14.21	-0.42	-4.62
48042	-1.004	0.027	0.129	-15.26	0.21	-5.6
48062	-1.002	0.04	0.116	-15.82	-0.77	-6.02
48086	-1.011	0.017	0.106	-17.57	0.0	-4.97
48105	-1.02	-0.012	0.124	-17.43	0.0	-4.48
48125	-1.042	-0.015	0.125	-15.75	-1.12	-4.13
48144	-1.06	-0.0	0.121	-15.33	-4.48	-3.29
48168	-1.034	0.008	0.108	-15.75	-6.79	-3.36
48188	-0.996	0.021	0.103	-16.38	-8.05	-3.99
48204	-0.949	0.024	0.109	-17.22	-6.3	-4.55
48230	-0.94	0.018	0.128	-19.39	-3.99	-5.81
48247	-0.943	0.031	0.146	-21.07	-2.8	-6.16
48268	-0.967	0.03	0.148	-21.77	1.89	-6.09
48287	-1.0	-0.001	0.165	-22.75	6.58	-6.79
48307	-1.023	-0.037	0.177	-23.17	6.51	-8.12
48331	-1.036	-0.056	0.163	-21.91	6.51	-8.05
48350	-1.025	-0.065	0.129	-19.39	6.09	-7.84
48367	-1.001	-0.058	0.112	-16.66	7.84	-8.12
48386	-0.991	-0.054	0.112	-14.84	10.01	-8.19
48406	-0.987	-0.058	0.113	-13.16	11.06	-8.47
48432	-1.0	-0.066	0.107	-11.62	10.85	-8.26
48451	-1.007	-0.073	0.104	-10.08	10.01	-7.98
48471	-1.009	-0.083	0.086	-6.58	11.76	-7.63
48491	-1.018	-0.099	0.101	-4.97	12.81	-7.28
48507	-1.03	-0.107	0.098	-4.06	10.5	-7.42
48532	-1.017	-0.113	0.086	-2.03	9.38	-8.05
48551	-1.002	-0.121	0.081	0.84	10.22	-8.12
48568	-1.001	-0.132	0.077	2.31	11.76	-8.19
48591	-1.028	-0.148	0.079	2.31	11.06	-7.77
48613	-1.016	-0.182	0.056	3.92	10.15	-7.84
48632	-1.01	-0.167	0.066	7.49	10.43	-7.91
48652	-1.007	-0.155	0.072	8.96	9.87	-7.42
48672	-1.017	-0.152	0.095	7.98	7.91	-6.65
48688	-1.051	-0.151	0.089	8.05	2.8	-5.88
48711	-1.065	-0.157	0.055	9.1	0.7	-5.04
48732	-1.057	-0.162	0.046	9.59	0.28	-4.13
48748	-1.049	-0.157	0.043	7.98	0.35	-3.36
48769	-1.027	-0.141	0.038	5.81	1.12	-1.96
48792	-1.006	-0.129	0.062	5.04	1.12	-0.28
48813	-1.001	-0.131	0.083	4.27	-1.19	1.26
48833	-1.012	-0.141	0.088	3.08	-6.3	2.03
48853	-1.016	-0.152	0.081	1.75	-9.94	2.66
48872	-1.004	-0.159	0.068	0.77	-11.48	3.01
48891	-0.989	-0.158	0.049	-0.63	-9.73	3.15
48911	-0.978	-0.158	0.057	-1.61	-7.28	3.5
48935	-0.978	-0.173	0.074	-1.26	-6.51	4.13
48955	-0.979	-0.191	0.062	0.98	-5.04	4.76
48974	-0.986	-0.206	0.064	3.36	-1.68	5.53
48994	-0.987	-0.21	0.067	5.67	0.7	5.81
49014	-0.975	-0.194	0.068	6.65	2.66	6.02
49037	-0.965	-0.173	0.073	7.0	2.73	6.37
49058	-0.959	-0.155	0.052	8.89	3.64	7.28
49078	-0.957	-0.164	0.048	10.22	6.16	7.98
49098	-0.967	-0.187	0.057	10.85	7.07	8.26
49122	-0.985	-0.193	0.041	10.64	6.02	8.19
49142	-0.998	-0.179	0.036	11.97	7.63	7.84
49160	-1.05	-0.142	0.032	13.65	6.37	7.7
49183	-1.032	-0.077	-0.027	15.4	11.97	7.56
49208	-1.007	-0.012	-0.002	15.68	19.81	10.22
49224	-0.976	0.046	-0.003	13.93	26.6	11.97
49247	-0.983	0.076	0.028	12.32	30.94	14.35
49268	-0.992	0.1	0.06	10.5	28.28	16.52
49288	-1.006	0.118	0.071	7.14	23.1	17.92
49305	-1.024	0.122	0.061	3.78	16.31	18.41
49329	-1.02	0.126	0.03	-0.77	12.18	17.36
49349	-1.036	0.15	0.003	-5.88	10.57	16.31
49367	-1.063	0.175	-0.004	-12.18	10.15	15.89
49389	-1.093	0.176	-0.009	-17.01	9.38	14.42
49409	-1.102	0.154	0.002	-18.27	8.05	12.67
49425	-1.088	0.14	0.014	-18.69	5.39	10.64
49445	-1.059	0.131	-0.004	-22.05	1.61	8.82
49464	-1.035	0.122	-0.003	-25.83	-1.54	6.93
49487	-1.015	0.121	-0.0	-27.16	-4.76	5.25
49510	-1.025	0.118	0.018	-24.85	-6.79	4.06
49529	-1.035	0.122	0.02	-22.33	-8.26	2.73
49547	-1.039	0.134	0.02	-21.0	-9.03	1.61
49566	-1.043	0.141	0.014	-20.72	-10.08	0.7
49589	-1.027	0.136	0.028	-20.93	-10.08	-0.49
49609	-1.02	0.128	0.044	-20.3	-10.43	-1.75
49629	-1.021	0.127	0.044	-19.25	-11.48	-3.01
49649	-0.998	0.122	0.009	-16.94	-12.74	-3.43
49671	-0.961	0.102	-0.03	-11.34	-11.62	-3.92
49691	-0.957	0.092	-0.056	-9.45	-8.68	-4.41
49714	-0.983	0.105	-0.057	-7.49	-7.98	-5.32
49735	-1.003	0.156	-0.06	-6.3	-5.18	-6.09
49754	-1.029	0.162	-0.026	-8.89	-2.45	-6.44
49779	-1.001	0.155	0.019	-14.21	-2.1	-8.89
49799	-0.962	0.157	0.017	-18.76	-3.01	-11.2
49819	-0.94	0.188	0.008	-22.61	-1.68	-12.6
49838	-0.929	0.207	-0.006	-29.19	-0.7	-13.23
49859	-0.893	0.226	-0.019	-36.05	3.22	-14.14
49879	-0.889	0.224	-0.019	-43.47	7.91	-15.82
49903	-0.911	0.212	-0.034	-50.12	13.58	-19.25
49922	-0.934	0.183	-0.05	-52.71	15.96	-21.49
49941	-0.934	0.136	-0.055	-53.41	17.22	-22.82
49962	-0.951	0.081	-0.029	-50.33	16.31	-23.45
49986	-0.961	0.005	-0.043	-43.19	14.35	-24.64
50006	-0.974	-0.087	-0.074	-37.24	15.89	-25.9
50025	-0.985	-0.141	-0.105	-34.3	35.56	-26.95
50044	-1.004	-0.165	-0.111	-29.26	18.83	-28.07
50066	-1.032	-0.176	-0.073	-19.04	15.75	-30.1
50086	-1.064	-0.178	-0.076	-11.9	10.71	-30.31
50110	-1.063	-0.186	-0.08	-9.94	11.55	-28.07
50130	-1.038	-0.198	-0.025	-10.64	11.83	-27.02
50150	-1.044	-0.203	0.017	-11.13	5.18	-24.92
50172	-1.06	-0.212	0.026	-10.78	-5.04	-21.56
50192	-1.105	-0.221	0.022	-5.46	-13.16	-19.18
50212	-1.154	-0.224	0.02	0.7	-14.84	-18.62
50236	-1.193	-0.274	0.041	4.27	-15.33	-21.07
50256	-1.111	-0.3	-0.011	9.17	-14.77	-25.9
50272	-1.076	-0.247	-0.01	10.08	-13.16	-29.82
50296	-0.995	-0.195	-0.034	3.64	-12.11	-34.09
50314	-0.949	-0.178	0.032	-1.61	-9.24	-34.79
50333	-0.968	-0.192	0.08	-4.34	-11.69	-33.88
50353	-0.99	-0.209	0.086	-6.58	-13.86	-31.57
50378	-0.976	-0.209	0.078	-4.69	-18.62	-24.85
50398	-0.934	-0.213	0.04	-1.68	-19.04	-19.46
50415	-0.882	-0.23	0.034	-1.82	-14.98	-15.47
50434	-0.867	-0.27	0.066	-4.27	-12.95	-12.32
50457	-0.866	-0.309	0.081	-4.2	-12.04	-9.8
50479	-0.881	-0.333	0.095	-2.59	-15.89	-7.91
50503	-0.883	-0.34	0.084	-0.63	-19.53	-6.58
50523	-0.886	-0.348	0.083	2.87	-18.06	-4.76
50541	-0.908	-0.33	0.117	5.46	-15.68	-2.66
50561	-0.95	-0.294	0.152	7.7	-17.01	0.0
50585	-0.965	-0.288	0.156	9.94	-17.71	3.99
50605	-0.97	-0.285	0.164	14.28	-16.31	7.49
50626	-0.989	-0.273	0.182	14.21	-14.21	13.65
50645	-0.935	-0.264	0.188	14.7	-14.7	35.7
50662	-0.896	-0.233	0.169	14.0	-10.22	19.67
50682	-0.929	-0.217	0.191	11.34	-9.17	21.63
50706	-0.933	-0.245	0.219	6.16	-7.49	23.73
50726	-0.937	-0.128	0.267	0.63	-7.0	26.74
50746	-0.92	-0.238	0.276	1.75	-8.54	30.31
50765	-0.898	-0.235	0.283	5.67	-10.36	34.79
50786	-0.852	-0.224	0.253	8.19	-9.94	37.59
50807	-0.868	-0.216	0.325	10.78	-11.9	39.13
50826	-0.861	-0.229	0.321	10.92	-12.53	40.11
50844	-0.951	-0.199	0.284	16.94	-19.11	40.46
50864	-1.095	-0.195	0.053	14.98	-15.54	41.79
50884	-1.002	-0.192	-0.076	34.02	0.35	39.62
50905	-0.978	-0.203	-0.19	44.24	19.11	31.01
50928	-0.971	-0.219	-0.132	55.02	41.86	25.34
50947	-1.027	-0.116	-0.013	58.38	48.86	20.02
50969	-1.126	0.01	0.139	57.82	42.0	17.29
50990	-1.098	0.142	0.108	55.65	30.17	16.31
51014	-0.913	0.157	-0.021	52.99	21.35	17.08
51038	-0.736	0.11	-0.132	46.9	19.46	17.43
51058	-0.653	0.078	-0.26	37.17	24.36	16.73
51079	-0.678	0.068	-0.204	37.94	31.15	16.73
51098	-0.796	0.077	-0.147	40.88	33.88	18.83
51116	-0.872	0.069	-0.119	43.75	35.49	19.95
51139	-0.936	0.037	-0.162	43.96	42.35	15.54
51161	-0.923	0.106	-0.158	40.32	48.44	11.9
51180	-0.818	0.146	-0.148	38.08	50.68	10.78
51204	-0.771	0.159	-0.158	32.83	45.64	9.59
51225	-0.837	0.122	-0.18	21.84	38.29	8.4
51243	-0.893	0.115	-0.18	8.26	34.72	9.38
51261	-0.85	0.078	-0.189	1.54	28.84	10.36
51285	-0.843	0.06	-0.259	1.05	19.95	7.56
51309	-0.902	0.052	-0.376	3.29	21.0	6.58
51327	-1.057	0.11	-0.327	9.73	26.11	12.32
51348	-1.118	0.138	-0.223	19.18	24.71	22.89
51373	-1.071	0.147	-0.27	21.28	18.62	28.63
51392	-1.07	0.184	-0.423	14.07	17.64	29.33
51407	-1.157	0.28	-0.434	6.16	12.11	30.94
51427	-1.252	0.313	-0.376	-1.4	10.43	31.01
51451	-1.417	0.289	-0.307	-11.48	6.23	32.55
51476	-1.421	0.293	-0.412	-4.83	3.29	35.21
51494	-1.415	0.199	-0.511	0.28	5.04	33.39
51515	-1.323	0.162	-0.48	-6.16	16.38	28.91
51532	-1.191	0.142	-0.38	-6.37	22.33	29.54
51552	-1.167	0.264	-0.273	3.64	14.0	28.84
51576	-1.147	0.378	-0.298	7.0	10.85	27.86
51596	-1.174	0.325	-0.339	-16.73	15.61	27.79
51616	-1.143	0.266	-0.278	-2.66	17.5	25.62
51636	-1.051	0.201	-0.195	2.87	18.34	18.34
51652	-0.978	0.173	-0.149	11.2	17.57	9.73
51671	-0.913	0.096	-0.188	14.91	17.64	-0.63
51696	-0.896	0.028	-0.232	12.39	21.28	-12.53
51713	-0.893	0.048	-0.163	14.56	21.35	-19.74
51737	-0.877	0.122	-0.18	19.95	20.93	-28.7
51756	-0.868	0.157	-0.225	16.94	20.93	-32.2
51777	-0.853	0.193	-0.259	4.27	20.09	-35.7
51796	-0.888	0.285	-0.257	-3.29	16.94	-38.64
51821	-0.995	0.324	-0.22	-3.36	9.31	-40.39
51841	-0.99	0.217	-0.18	8.89	7.42	-40.32
51860	-0.948	0.03	-0.254	8.75	5.46	-39.55
51880	-0.903	-0.117	-0.297	2.31	5.74	-44.31
51902	-0.89	-0.155	-0.288	3.71	0.77	-51.45
51919	-0.895	-0.064	-0.333	10.85	2.1	-56.98
51941	-0.901	0.035	-0.213	17.5	0.84	-53.48
51962	-0.849	0.112	-0.183	13.58	-3.08	-51.31
51981	-0.827	0.16	-0.222	6.79	-4.69	-47.39
52000	-0.816	0.157	-0.282	2.45	-4.55	-41.09
52021	-0.804	0.108	-0.227	1.82	1.05	-33.95
52041	-0.812	0.022	-0.155	6.09	-1.19	-28.42
52061	-0.732	-0.035	-0.162	5.39	-3.99	-25.48
52084	-0.675	-0.061	-0.186	3.01	-7.35	-24.36
52106	-0.628	-0.08	-0.35	1.12	-4.55	-19.95
52124	-0.688	-0.118	-0.312	-1.26	-0.49	-17.29
52141	-0.818	-0.146	-0.242	-5.04	-7.49	-11.83
52166	-0.856	-0.108	-0.246	-6.02	-11.41	-6.16
52186	-0.866	0.001	-0.256	5.18	-10.64	-6.37
52205	-0.825	0.094	-0.341	7.98	-6.86	-4.69
52224	-0.874	0.086	-0.354	4.34	-3.99	3.22
52244	-0.984	-0.013	-0.261	-4.97	-11.97	16.59
52268	-0.976	-0.109	-0.257	-4.55	-24.15	22.05
52287	-0.948	-0.091	-0.342	0.63	-20.58	12.11
52304	-1.039	-0.125	-0.484	-7.42	-12.95	2.03
52329	-1.206	-0.154	-0.481	-17.78	-16.45	3.01
52347	-1.269	-0.003	-0.379	-10.22	-22.26	10.78
52368	-1.332	0.038	-0.479	-3.71	-10.43	7.0
52388	-1.359	-0.064	-0.498	0.0	-5.25	-0.56
52408	-1.341	-0.088	-0.46	-2.59	-10.5	-2.45
52426	-1.302	-0.083	-0.554	0.63	-9.73	-3.71
52450	-1.315	-0.039	-0.594	0.21	0.0	2.94
52471	-1.368	-0.043	-0.523	3.36	2.73	-4.48
52488	-1.359	-0.082	-0.486	9.03	2.66	-8.96
52509	-1.288	-0.04	-0.425	9.03	4.34	-11.2
52531	-1.251	0.007	-0.457	6.93	8.61	-14.14
52551	-1.242	-0.02	-0.442	6.65	13.79	-19.18
52576	-1.217	-0.049	-0.388	7.63	18.2	-20.16
52594	-1.173	-0.045	-0.392	12.46	16.66	-22.89
52614	-1.144	-0.05	-0.437	10.85	17.57	-27.58
52634	-1.215	-0.042	-0.403	7.07	17.64	-23.31
52658	-1.218	-0.116	-0.33	4.69	17.99	-13.86
52678	-1.179	-0.115	-0.295	-0.63	-3.43	4.55
52698	-1.114	-0.072	-0.364	4.2	-2.94	5.32
52716	-1.087	-0.052	-0.379	4.55	1.12	5.88
52738	-1.094	-0.094	-0.307	-1.47	1.54	6.09
52755	-1.09	-0.113	-0.227	-8.05	-0.21	6.51
52775	-1.046	-0.075	-0.18	-14.42	-3.64	8.12
52799	-0.987	-0.035	-0.199	-14.21	-7.14	9.31
52818	-0.983	-0.021	-0.23	-14.91	-8.54	10.71
52839	-0.956	-0.037	-0.31	-17.57	-7.21	12.81
52862	-0.96	-0.033	-0.279	-15.4	-0.98	14.91
52883	-1.036	-0.04	-0.27	-12.67	-4.55	19.74
52900	-1.082	-0.081	-0.25	-12.88	-8.26	23.17
52924	-1.043	-0.111	-0.221	-10.43	-12.25	20.58
52942	-0.991	-0.069	-0.216	-8.82	-16.03	16.03
52962	-0.967	-0.04	-0.204	-9.73	-21.63	13.44
52981	-0.917	-0.037	-0.167	-7.91	-27.44	12.81
53006	-0.831	-0.043	-0.128	-3.85	-32.48	11.97
53023	-0.772	-0.053	-0.142	-3.15	-37.8	11.69
53047	-0.724	-0.046	-0.184	-4.9	-42.28	10.99
53065	-0.657	-0.028	-0.214	-3.92	-44.38	10.36
53084	-0.602	0.019	-0.234	-2.03	-43.68	10.36
53107	-0.59	0.062	-0.219	-3.64	-41.3	9.94
53127	-0.607	0.091	-0.169	-9.24	-40.32	10.78
53147	-0.627	0.081	-0.147	-13.23	-38.85	11.41
53166	-0.654	0.074	-0.11	-14.7	-39.34	11.76
53185	-0.668	0.043	-0.118	-13.23	-39.06	11.76
53209	-0.661	0.038	-0.122	-9.38	-33.67	11.34
53230	-0.709	0.021	-0.11	-5.95	-31.22	11.48
53244	-0.758	0.017	-0.076	-5.88	-30.52	11.48
53269	-0.86	0.026	-0.049	-5.81	-29.82	10.43
53286	-0.948	0.024	-0.077	-6.09	-27.3	9.17
53306	-1.005	0.006	-0.089	-5.32	-21.56	6.86
53330	-1.034	0.008	-0.09	-2.66	-18.69	3.22
53350	-1.044	0.062	-0.074	-2.45	-19.6	1.82
53366	-1.007	0.101	-0.1	1.47	-13.79	2.24
53389	-1.002	0.072	0.028	7.42	-5.46	2.38
53413	-0.981	0.025	0.067	9.45	-7.0	1.33
53432	-0.932	-0.004	0.044	8.47	-13.16	-1.33
53454	-0.903	0.021	-0.025	7.0	-16.1	-4.55
53473	-0.954	0.061	-0.027	3.22	-16.94	-6.02
53489	-0.996	0.088	-0.016	-0.7	-16.94	-7.0
53513	-1.025	0.12	-0.007	-3.92	-16.38	-7.49
53531	-1.038	0.147	-0.04	-3.57	-15.96	-6.37
53553	-1.086	0.178	-0.078	0.28	-13.93	-2.94
53572	-1.111	0.163	-0.095	3.43	-7.07	-0.84
53597	-1.077	0.121	-0.014	5.88	2.31	-0.49
53613	-1.02	0.086	0.044	4.06	1.05	-1.54
53636	-0.967	0.076	0.046	-4.06	-6.02	-3.22
53657	-0.941	0.058	-0.001	-14.49	-6.93	-5.04
53676	-0.966	0.056	0.006	-19.81	-10.01	-6.65
53700	-0.998	0.068	-0.028	-20.44	-13.23	-7.0
53719	-1.013	0.077	-0.052	-18.06	-12.39	-6.44
53740	-0.978	0.112	-0.069	-14.0	-6.79	-5.04
53764	-0.973	0.115	-0.066	-7.28	3.64	-1.96
53784	-0.976	0.089	0.008	-4.62	5.74	0.21
53808	-0.968	0.044	0.055	-3.78	2.59	0.7
53829	-0.92	0.0	0.08	-3.08	2.17	-0.63
53848	-0.855	-0.01	0.073	-3.57	3.57	-2.1
53864	-0.8	-0.026	0.055	-5.25	2.87	-3.78
53887	-0.711	-0.01	-0.009	-2.87	6.44	-5.95
53908	-0.675	0.004	-0.035	1.33	17.57	-6.44
53928	-0.7	0.004	0.002	2.45	24.92	-5.67
53952	-0.751	0.02	0.024	4.48	27.65	-4.2
53972	-0.765	0.044	0.023	7.35	30.38	-3.29
53992	-0.785	0.048	0.026	9.31	30.59	-1.96
54012	-0.787	0.045	-0.01	8.96	32.34	-0.63
54031	-0.752	0.051	-0.025	9.17	35.49	-0.35
54051	-0.762	0.046	-0.011	10.57	33.74	-0.49
54073	-0.818	0.015	0.026	15.89	28.84	-0.21
54093	-0.885	-0.04	0.058	20.16	29.26	-0.21
54114	-0.926	-0.094	0.038	18.97	28.84	-1.33
54133	-0.865	-0.098	-0.046	16.59	19.81	-5.32
54158	-0.718	-0.008	-0.15	18.41	19.95	-9.1
54178	-0.727	0.091	-0.137	23.38	27.3	-8.47
54197	-0.846	0.131	-0.06	26.18	32.48	-5.95
54222	-0.852	0.101	-0.046	18.62	32.27	-3.57
54238	-0.801	0.067	-0.071	13.09	24.99	-5.11
54256	-0.731	0.083	-0.126	12.04	20.51	-6.93
54282	-0.779	0.086	-0.131	17.85	20.58	-7.14
54301	-0.96	0.025	-0.098	16.31	18.9	-5.53
54319	-1.06	-0.065	-0.105	10.36	16.17	-6.3
54339	-1.06	-0.089	-0.174	3.15	11.41	-13.44
54359	-0.997	0.005	-0.265	3.29	12.18	-21.42
54383	-1.063	0.045	-0.319	-1.61	13.16	-23.94
54403	-1.202	-0.005	-0.32	-8.4	9.31	-19.81
54422	-1.281	-0.045	-0.344	-5.88	5.74	-15.89
54442	-1.273	-0.064	-0.43	1.19	14.7	-13.44
54462	-1.277	0.008	-0.324	9.24	16.45	-10.43
54481	-1.283	0.098	-0.277	7.42	7.7	-10.29
54504	-1.181	0.08	-0.358	-2.1	1.33	-8.82
54528	-1.146	-0.005	-0.432	-3.01	2.94	-6.09
54551	-1.321	-0.021	-0.447	-1.54	-3.29	-0.7
54572	-1.351	-0.145	-0.386	7.14	-2.73	0.7
54592	-1.33	-0.198	-0.379	5.25	-3.99	0.14
54614	-1.261	-0.102	-0.357	5.11	-2.45	0.14
54634	-1.234	-0.04	-0.345	7.98	1.05	-2.1
54658	-1.234	-0.009	-0.437	8.89	4.83	-4.9
54678	-1.249	-0.055	-0.496	8.96	6.51	-0.49
54697	-1.256	-0.053	-0.457	4.97	8.82	6.58
54714	-1.321	-0.007	-0.359	9.1	9.52	4.83
54734	-1.307	-0.123	-0.353	13.23	6.09	1.82
54754	-1.285	-0.034	-0.426	12.46	7.07	-0.42
54778	-1.21	-0.055	-0.459	12.39	8.05	-1.05
54798	-1.205	-0.053	-0.449	9.52	8.47	-1.26
54816	-1.18	-0.022	-0.385	8.19	10.29	17.71
54838	-1.194	0.001	-0.392	4.55	7.49	1.4
54854	-1.215	0.015	-0.394	0.49	5.53	3.85
54877	-1.202	0.01	-0.378	-2.31	0.63	6.16
54898	-1.191	0.011	-0.331	-5.18	-5.04	8.05
54917	-1.179	-0.02	-0.343	-9.59	-10.08	9.59
54937	-1.146	-0.016	-0.328	-10.5	-13.16	9.8
54957	-1.092	0.025	-0.326	-9.87	-16.66	10.5
54981	-1.054	0.02	-0.285	-8.54	-16.8	12.88
55000	-1.073	0.001	-0.27	-6.58	-18.9	13.09
55019	-1.045	-0.013	-0.279	-5.81	-20.65	11.9
55043	-1.017	-0.01	-0.265	-5.11	-22.05	9.94
55064	-0.991	0.003	-0.256	-2.24	-23.24	8.68
55083	-0.932	-0.007	-0.24	0.28	-20.37	7.84
55108	-0.924	-0.006	-0.19	2.03	-20.3	7.63
55127	-0.938	-0.008	-0.182	2.24	-21.56	7.42
55145	-0.965	0.017	-0.214	2.94	-25.69	5.74
55165	-0.956	0.056	-0.268	3.78	-26.46	3.64
55189	-0.934	0.079	-0.255	4.2	-19.53	2.94
55209	-0.923	0.068	-0.237	1.89	-14.42	3.08
55225	-0.919	0.044	-0.18	-0.28	-12.67	2.94
55249	-0.897	0.001	-0.188	-2.66	-14.84	0.77
55269	-0.913	0.01	-0.174	-3.5	-15.4	-1.82
55291	-0.943	0.044	-0.165	-5.25	-17.43	-1.96
55312	-0.937	0.069	-0.16	-7.77	-19.53	-1.05
55330	-0.922	0.068	-0.153	-7.63	-20.79	-0.35
55355	-0.936	0.063	-0.155	-5.46	-21.63	0.91
55373	-0.958	0.043	-0.152	-5.46	-19.81	2.45
55394	-1.124	0.003	-0.12	-7.28	-21.21	4.06
55415	-1.036	0.008	-0.12	-7.42	-24.36	4.34
55434	-0.972	0.029	-0.111	-7.49	-22.82	3.71
55454	-0.91	0.035	-0.104	-8.26	-21.98	3.22
55476	-0.852	0.056	-0.085	-5.39	-19.32	3.08
55497	-0.797	0.072	-0.064	-3.43	-18.48	4.06
55516	-0.791	0.055	-0.003	-1.96	-21.35	5.25
55540	-0.777	0.035	0.02	-1.19	-25.62	3.78
55560	-0.705	0.03	0.024	-3.01	-23.24	1.96
55581	-0.654	0.025	0.024	-5.6	-22.54	0.98
55599	-0.632	0.03	-0.034	-7.98	-21.77	-0.21
55623	-0.638	0.062	-0.091	-11.55	-19.81	-0.98
55643	-0.715	0.081	-0.093	-14.42	-15.05	-2.24
55661	-0.815	0.093	-0.061	-15.82	-10.29	-2.94
55685	-0.945	0.071	-0.029	-17.78	-6.51	-3.22
55705	-0.996	0.038	-0.014	-15.96	-8.54	-3.71
55722	-0.977	-0.019	-0.054	-12.81	-8.26	-5.11
55745	-0.988	-0.051	-0.013	-7.49	-2.52	-6.3
55765	-1.024	-0.045	0.029	-4.2	-2.94	-6.44
55784	-1.045	-0.042	0.044	-2.38	-5.04	-6.44
55809	-1.046	-0.041	0.031	-1.19	-7.14	-8.4
55829	-1.038	-0.027	0.0	0.0	-4.41	-9.94
55844	-1.035	-0.017	0.007	1.33	-1.05	-9.52
55868	-1.035	0.002	0.016	3.64	1.47	-7.42
55888	-1.027	0.015	0.022	6.93	2.59	-6.37
55909	-0.998	0.005	0.0	7.35	2.87	-6.16
55927	-0.975	0.015	-0.022	4.34	4.27	-6.09
55947	-0.983	0.037	-0.01	0.91	5.18	-5.74
55971	-1.014	0.085	-0.013	-2.24	3.5	-3.22
55990	-1.012	0.101	-0.026	-4.9	2.87	-0.07
56011	-0.984	0.066	-0.035	-0.28	7.77	3.57
56036	-0.971	0.046	-0.028	3.71	9.73	7.63
56055	-0.978	0.027	0.04	3.36	10.78	10.08
56075	-0.985	0.036	0.046	4.34	7.7	11.55
56095	-0.969	0.042	0.023	5.6	7.56	12.6
