Millis,AccelX,AccelY,AccelZ,GyroX,GyroY,GyroZ
11037509,0.713,0.112,0.649,5.180,-17.150,6.230
11037533,0.709,0.123,0.628,0.980,-20.720,6.930
11037552,0.718,0.111,0.614,-0.210,-25.480,7.350
11037572,0.748,0.094,0.613,3.430,-28.420,7.210
11037592,0.757,0.090,0.587,9.520,-28.140,8.260
11037611,0.752,0.128,0.562,7.000,-33.740,9.170
11037633,0.775,0.106,0.544,4.480,-38.640,10.010
11037654,0.786,0.044,0.506,10.220,-41.510,11.060
11037676,0.813,0.070,0.471,8.960,-45.990,14.070
11037700,0.854,0.187,0.493,-3.850,-49.210,9.800
11037719,0.909,0.226,0.536,-18.270,-52.570,6.930
11037740,0.959,0.131,0.560,-0.420,-47.040,3.220
11037760,0.933,0.000,0.565,21.070,-40.110,5.530
11037779,0.944,0.022,0.611,31.920,-32.410,7.280
11037799,0.934,-0.008,0.619,51.240,-26.530,10.500
11037819,0.905,0.079,0.617,59.640,-25.270,12.740
11037837,0.897,0.039,0.627,64.610,-24.710,15.050
11037861,0.858,0.090,0.659,66.570,-28.000,21.560
11037877,0.912,0.100,0.687,50.120,-19.880,21.840
11037901,0.893,0.088,0.659,44.660,-20.090,21.140
11037919,0.901,0.126,0.671,30.940,-11.200,21.700
11037939,0.856,0.154,0.682,33.530,-22.960,9.870
11037962,0.890,0.168,0.710,20.790,-34.510,29.890
11037983,0.884,0.149,0.670,6.790,-12.880,16.940
11038000,0.829,0.176,0.678,6.580,-15.540,16.310
11038023,0.888,0.180,0.676,-1.750,-3.710,11.690
11038044,0.837,0.195,0.654,-8.890,-5.670,11.830
11038062,0.848,0.173,0.649,-8.750,-1.190,9.520
11038082,0.863,0.172,0.633,-4.130,2.100,7.560
11038106,0.859,0.192,0.627,-4.760,5.740,6.860
11038126,0.886,0.181,0.623,-4.760,10.570,3.850
11038145,0.875,0.166,0.603,-1.680,14.420,0.770
11038170,0.880,0.165,0.552,0.490,20.510,-3.080
11038190,0.855,0.173,0.543,-4.760,17.500,-3.500
11038210,0.872,0.136,0.548,-4.620,19.180,-5.250
11038225,0.872,0.135,0.543,-3.080,21.000,-7.350
11038248,0.841,0.155,0.520,-8.470,19.460,-8.820
11038270,0.848,0.108,0.530,-16.940,15.330,-9.100
11038289,0.844,0.081,0.537,-13.580,12.880,-9.940
11038313,0.845,0.063,0.533,-5.880,11.480,-9.940
11038333,0.843,0.112,0.518,-8.680,9.870,-8.330
11038353,0.825,0.125,0.521,-21.210,3.570,-7.000
11038373,0.845,0.069,0.540,-18.690,2.730,-7.630
11038393,0.841,0.058,0.535,-10.570,1.470,-7.350
11038412,0.844,0.078,0.537,-5.040,-0.210,-6.510
11038431,0.839,0.083,0.521,-3.780,-1.190,-4.480
11038456,0.842,0.129,0.516,-14.630,-3.430,-3.010
11038476,0.840,0.109,0.539,-22.190,-6.720,-1.960
11038496,0.864,0.054,0.566,-17.010,-6.020,-2.590
11038516,0.862,0.047,0.579,-5.250,-4.900,-3.360
11038536,0.856,0.063,0.580,3.640,-4.130,-2.800
11038556,0.845,0.106,0.565,-1.470,-3.990,-1.400
11038574,0.848,0.107,0.578,-11.200,-5.600,-0.840
11038594,0.866,0.077,0.598,-9.450,-2.800,-2.310
11038618,0.861,0.079,0.596,-6.020,0.140,-3.640
11038638,0.856,0.093,0.594,-6.230,1.190,-3.570
11038658,0.850,0.089,0.590,-7.280,1.260,-3.360
11038678,0.848,0.086,0.571,-7.350,2.100,-3.150
11038698,0.848,0.085,0.578,-8.260,0.840,-2.450
11038722,0.843,0.076,0.589,-8.610,1.610,-0.490
11038738,0.836,0.068,0.584,-7.700,1.190,0.000
11038760,0.841,0.048,0.592,-1.260,2.660,-0.140
11038781,0.834,0.069,0.583,4.270,3.150,0.420
11038805,0.828,0.081,0.570,2.450,2.730,1.400
11038825,0.828,0.092,0.569,0.000,0.210,1.120
11038845,0.831,0.069,0.559,4.130,-1.050,0.910
11038865,0.830,0.070,0.552,11.970,-2.590,0.140
11038885,0.840,0.061,0.552,21.630,-4.760,-1.120
11038905,0.851,0.039,0.567,37.940,-5.670,-2.590
11038929,0.857,0.003,0.578,67.270,-4.200,-5.110
11038949,0.854,0.024,0.578,95.550,-2.100,-4.830
11038967,0.838,0.038,0.537,121.450,-1.260,-2.380
11038988,0.825,0.029,0.492,157.570,-1.680,-2.170
11039009,0.811,0.061,0.406,190.960,-4.550,0.210
11039029,0.798,0.114,0.321,210.910,-8.960,4.060
11039048,0.808,0.198,0.283,211.540,-14.630,10.920
11039068,0.843,0.269,0.263,196.070,-20.930,19.880
11039092,0.856,0.326,0.262,161.420,-30.170,31.780
11039116,0.910,0.352,0.268,136.500,-29.680,43.260
11039136,0.928,0.377,0.284,105.210,-32.130,48.300
11039156,0.941,0.400,0.305,85.260,-34.650,52.570
11039180,0.957,0.375,0.321,69.650,-36.050,52.920
11039200,0.958,0.354,0.338,61.600,-37.660,51.800
11039215,0.956,0.349,0.344,58.870,-38.080,50.820
11039239,0.954,0.366,0.344,53.200,-37.590,47.880
11039260,0.950,0.370,0.314,48.160,-38.220,45.360
11039280,0.952,0.396,0.308,40.460,-37.940,42.350
11039302,0.942,0.403,0.303,27.510,-38.500,40.320
11039324,0.960,0.403,0.296,18.270,-37.870,38.430
11039343,0.981,0.382,0.316,14.070,-32.480,35.210
11039368,0.980,0.318,0.386,44.100,-23.450,21.700
11039388,1.004,0.332,0.412,84.490,-9.100,11.970
11039406,0.970,0.462,0.379,91.910,1.260,4.480
11039430,0.944,0.527,0.351,69.650,2.800,-0.140
11039450,0.931,0.579,0.319,19.320,2.520,-2.240
11039468,0.922,0.477,0.268,-13.370,-1.120,-4.690
11039490,0.947,0.379,0.247,-25.760,-0.980,-6.860
11039506,0.922,0.290,0.216,-30.730,-0.350,-7.210
11039525,0.922,0.203,0.202,-19.110,-3.290,-6.930
11039545,0.934,0.269,0.210,-4.830,-1.260,-8.680
11039570,0.925,0.315,0.203,-8.260,-3.150,-8.540
11039589,0.935,0.273,0.179,-9.170,-3.570,-7.840
11039610,0.942,0.245,0.182,-7.770,-5.530,-5.390
11039630,0.974,0.275,0.188,-7.210,-4.340,-6.510
11039650,0.994,0.274,0.189,-8.400,-2.100,-7.000
11039670,0.986,0.214,0.182,0.840,-0.210,-7.700
11039690,0.878,0.217,0.223,-4.760,12.880,0.700
11039709,0.934,0.179,0.151,3.570,-1.190,-10.080
11039733,0.918,0.217,0.143,8.400,-0.700,-9.030
11039753,0.932,0.199,0.145,8.400,-0.420,-9.450
11039772,0.934,0.204,0.161,7.980,-3.570,-7.070
11039789,0.967,0.205,0.171,7.770,-1.680,-6.580
11039813,0.984,0.218,0.187,12.600,-0.560,-5.600
11039832,0.981,0.250,0.213,11.480,-1.190,-4.760
11039856,0.998,0.249,0.255,6.510,0.560,-6.790
11039874,1.001,0.219,0.263,6.930,3.080,-7.700
11039898,1.000,0.212,0.276,12.390,4.830,-8.050
11039917,0.983,0.224,0.299,14.840,3.500,-5.390
11039938,0.992,0.268,0.328,10.710,3.920,-1.960
11039962,0.965,0.287,0.334,-1.890,-1.680,2.940
11039979,0.962,0.295,0.334,-10.500,-5.600,6.370
11040003,0.949,0.280,0.338,-17.430,-8.050,9.030
11040023,0.888,0.238,0.349,-19.810,-10.010,9.450
11040039,0.867,0.234,0.366,-21.000,-11.830,9.800
11040063,0.868,0.192,0.364,-17.780,-11.270,11.690
11040083,0.894,0.215,0.349,-9.730,-10.920,13.930
11040100,0.946,0.263,0.329,-8.610,-10.500,15.890
11040124,0.976,0.287,0.296,-7.630,-10.150,16.380
11040144,0.994,0.315,0.271,-10.920,-10.290,14.420
11040167,1.020,0.293,0.265,-13.370,-7.420,9.730
11040188,1.001,0.208,0.246,-9.940,-2.870,4.830
11040207,0.980,0.198,0.235,-2.660,-1.330,0.630
11040231,0.974,0.221,0.239,0.770,2.520,-5.320
11040249,0.963,0.235,0.236,0.490,3.920,-9.520
11040272,0.990,0.213,0.224,2.310,5.110,-12.600
11040291,1.000,0.191,0.224,6.370,6.650,-13.860
11040312,1.000,0.191,0.233,10.850,7.420,-14.420
11040332,0.996,0.190,0.240,13.860,7.630,-14.070
11040354,0.969,0.162,0.224,17.640,8.190,-13.510
11040377,0.935,0.156,0.203,23.240,8.400,-11.970
11040397,0.907,0.175,0.192,22.260,4.760,-9.590
11040417,0.919,0.145,0.197,12.880,2.450,-3.850
11040436,0.999,0.015,0.240,11.480,-0.070,7.700
11040461,1.061,-0.105,0.320,34.720,11.130,22.400
11040480,1.093,-0.285,0.340,75.390,26.040,32.830
11040499,1.087,-0.289,0.279,132.860,37.030,43.330
11040521,1.086,-0.210,0.300,134.190,42.630,65.240
11040542,1.104,-0.083,0.370,105.490,40.180,89.740
11040566,1.356,0.012,0.434,61.180,38.010,123.410
11040586,1.383,-0.104,0.411,30.450,42.840,144.340
11040606,1.548,-0.143,0.407,32.550,52.780,160.090
11040626,1.608,-0.189,0.378,55.510,63.420,168.840
11040646,1.647,-0.100,0.418,73.290,72.870,172.620
11040665,1.681,-0.174,0.437,79.170,89.530,173.110
11040689,1.668,-0.192,0.422,100.100,103.180,169.610
11040706,1.654,-0.094,0.438,103.040,116.410,167.790
11040729,1.635,-0.078,0.417,82.250,127.400,166.390
11040753,1.606,-0.090,0.422,62.300,135.940,167.580
11040773,1.597,-0.008,0.609,26.320,139.860,168.490
11040792,1.619,0.005,0.813,-39.200,144.130,169.890
11040812,1.775,-0.141,0.830,-99.050,150.360,172.760
11040836,1.711,-0.470,0.650,-116.830,162.820,186.900
11040856,1.723,-0.580,0.622,-78.190,161.070,206.570
11040876,1.771,-0.533,0.591,-33.600,167.860,228.060
11040896,1.720,-0.373,0.560,19.320,166.740,242.060
11040914,1.688,-0.161,0.473,55.580,179.830,243.670
11040933,1.578,-0.043,0.350,74.620,185.500,238.280
11040952,1.376,-0.066,0.229,93.730,193.270,220.780
11040973,1.100,-0.041,0.190,81.900,201.460,207.690
11040997,0.829,-0.036,0.098,65.800,205.170,192.710
11041017,0.669,0.007,0.186,40.880,190.400,181.300
11041037,0.457,-0.082,0.126,33.670,200.900,171.850
11041056,0.183,-0.144,0.221,36.960,183.260,164.710
11041081,0.114,-0.121,0.438,21.210,167.370,163.940
11041100,0.153,-0.252,0.428,39.550,172.270,162.750
11041119,0.013,-0.270,0.357,92.470,201.880,154.490
11041144,-0.315,-0.044,0.248,157.710,216.020,145.110
11041164,-0.445,0.198,0.103,165.830,198.660,135.170
11041184,-0.480,0.385,-0.024,153.090,200.130,120.120
11041208,-0.606,0.559,-0.100,85.190,185.780,94.920
11041225,-0.774,0.532,-0.206,31.150,178.220,80.500
11041244,-0.963,0.501,-0.397,-28.000,132.020,74.340
11041264,-1.069,0.681,-0.254,-95.760,83.790,60.830
11041289,-0.954,0.402,-0.130,-147.630,86.520,37.030
11041306,-1.044,0.022,-0.301,-56.980,86.170,35.980
11041325,-1.171,0.263,-0.360,16.170,77.280,31.150
11041345,-1.276,0.416,-0.328,31.150,70.210,17.640
11041369,-1.356,0.343,-0.264,40.040,57.190,14.980
11041389,-1.381,0.329,-0.160,43.260,49.770,21.140
11041413,-1.405,0.514,-0.165,32.270,40.740,22.050
11041432,-1.392,0.545,-0.135,16.520,19.460,9.870
11041453,-1.302,0.330,-0.114,44.800,15.120,-5.390
11041477,-1.381,0.336,-0.220,76.650,4.130,-25.620
11041494,-1.371,0.400,-0.250,70.070,-6.510,-45.290
11041517,-1.432,0.343,-0.330,64.260,-22.470,-68.040
11041536,-1.397,0.348,-0.424,41.860,-55.300,-80.290
11041558,-1.298,0.330,-0.437,10.150,-77.420,-92.190
11041578,-1.191,0.132,-0.311,-50.120,-94.780,-84.980
11041593,-1.206,0.053,-0.183,-84.280,-96.810,-72.170
11041613,-1.225,0.305,-0.122,-90.440,-116.760,-74.130
11041636,-0.993,0.322,-0.122,-61.810,-126.280,-85.540
11041656,-0.851,0.380,-0.165,-41.300,-133.840,-101.780
11041676,-0.708,0.274,-0.184,-33.670,-161.490,-119.000
11041696,-0.465,0.231,-0.137,-47.180,-174.650,-142.800
11041720,-0.268,0.099,-0.118,-79.100,-185.290,-168.700
11041740,-0.106,0.061,-0.062,-106.680,-203.140,-186.410
11041759,0.123,-0.018,0.021,-151.830,-221.200,-204.820
11041783,0.369,-0.181,0.143,-178.990,-203.000,-223.650
11041799,0.561,-0.264,0.184,-188.930,-186.760,-226.800
11041823,0.793,-0.402,0.079,-232.260,-201.250,-219.450
11041839,1.070,-0.667,0.215,-295.750,-168.770,-217.700
11041859,1.142,-1.124,0.449,-244.160,-104.440,-224.070
11041879,1.026,-1.106,0.565,-119.700,-53.130,-254.800
11041904,0.853,-1.003,0.408,-13.230,-23.940,-251.860
11041923,0.691,-0.784,0.266,39.130,-46.760,-242.340
11041942,0.760,-0.548,0.310,65.520,-62.020,-233.240
11041960,0.889,-0.457,0.386,91.000,-72.660,-243.460
11041979,0.769,-0.622,0.268,115.710,-43.750,-243.250
11041999,0.848,-0.265,0.291,101.290,-81.690,-240.520
11042023,1.073,-0.224,0.305,100.450,-94.150,-245.490
11042042,1.291,-0.112,0.402,119.490,-95.760,-263.900
11042062,1.337,-0.262,0.436,140.070,-78.680,-280.910
11042085,1.548,-0.059,0.439,158.480,-81.340,-282.660
11042101,1.591,0.013,0.374,142.030,-65.450,-281.330
11042126,1.466,-0.142,0.467,147.840,-62.860,-273.280
11042145,1.319,-0.090,0.625,146.580,-74.340,-254.870
11042166,1.201,-0.068,0.785,94.850,-89.810,-220.150
11042184,1.012,-0.231,0.692,65.380,-97.510,-195.720
11042203,0.880,-0.231,0.652,62.580,-123.550,-162.890
11042223,0.918,-0.221,0.752,48.160,-140.770,-131.040
11042248,0.988,-0.320,0.910,33.040,-145.390,-90.790
11042267,0.952,-0.391,0.796,56.420,-141.330,-66.290
11042286,0.832,-0.370,0.677,112.980,-128.030,-46.550
11042309,1.117,-0.028,0.736,152.390,-129.710,-6.720
11042333,1.231,0.157,0.629,145.390,-87.850,10.360
11042353,1.110,0.237,0.516,145.460,-72.660,15.470
11042372,1.158,0.324,0.512,128.170,-68.250,21.420
11042391,1.500,0.350,0.299,109.200,-48.790,19.740
11042414,1.424,0.313,0.097,117.880,-20.020,-10.500
11042434,1.049,0.307,0.177,123.480,-12.180,-30.870
11042451,0.791,0.384,0.221,92.470,-15.050,-45.850
11042475,0.839,0.255,0.196,43.400,-22.960,-39.900
11042495,0.832,0.142,0.029,31.850,-5.040,-28.140
11042514,0.598,0.137,0.041,2.380,-5.740,-3.430
11042535,0.544,-0.066,0.101,-18.060,-24.430,31.920
11042554,0.872,-0.096,0.031,-9.240,-24.990,66.220
11042576,1.060,0.018,-0.011,3.010,-9.100,92.610
11042597,1.131,0.107,0.062,-3.010,-0.210,120.680
11042615,1.318,-0.074,0.042,3.850,-9.800,143.640
11042635,1.695,-0.053,-0.063,50.820,-1.400,151.410
11042659,1.744,-0.013,-0.298,134.050,34.090,122.430
11042678,1.465,0.176,-0.328,179.690,37.450,91.000
11042696,1.356,0.456,-0.201,139.580,30.590,64.610
11042715,1.158,0.441,-0.185,69.790,9.660,25.480
11042740,1.215,0.283,-0.238,29.820,1.960,-22.820
11042760,1.115,0.169,-0.352,26.180,1.540,-48.510
11042779,1.060,0.220,-0.445,-15.960,-32.410,-52.780
11042799,1.249,0.058,-0.315,-69.580,-52.640,-35.000
11042822,1.341,0.122,-0.112,-100.870,-66.220,-12.040
11042843,1.416,0.246,0.052,-101.920,-65.870,-2.870
11042863,1.444,0.009,0.099,-101.220,-65.240,4.200
11042882,1.433,-0.167,0.071,-73.850,-60.130,2.380
11042901,1.452,-0.081,0.049,-46.410,-60.200,3.850
11042924,1.546,0.027,0.251,-97.160,-55.160,17.010
11042944,1.585,-0.206,0.297,-126.490,-30.310,18.200
11042965,1.519,-0.431,0.264,-27.090,-25.130,10.010
11042988,1.599,-0.306,0.180,43.750,-0.910,1.960
11043009,1.501,-0.175,-0.104,90.440,10.150,4.690
11043027,1.439,-0.025,-0.215,85.960,-5.880,10.080
11043050,1.486,0.007,-0.285,57.890,-12.460,7.910
11043071,1.443,-0.070,-0.254,43.190,-7.490,4.060
11043089,1.376,-0.042,-0.275,49.280,-14.000,4.060
11043113,1.405,0.055,-0.263,53.760,-18.900,1.190
11043133,1.433,0.120,-0.235,47.040,-13.090,-7.280
11043152,1.333,0.090,-0.271,35.280,-8.890,-10.290
11043170,1.230,0.127,-0.322,8.540,-11.480,-9.940
11043194,1.273,0.482,-0.223,-80.710,-7.000,-25.690
11043213,1.313,0.782,-0.228,-215.740,7.420,-50.260
11043234,1.148,0.529,-0.227,-296.380,-1.330,-75.810
11043254,1.217,0.160,-0.136,-267.540,12.390,-88.200
11043278,1.172,-0.146,-0.049,-171.430,37.800,-88.830
11043296,0.988,-0.118,-0.068,-39.970,59.290,-84.630
11043317,0.674,0.090,-0.124,19.670,61.530,-65.170
11043337,0.471,0.182,-0.069,5.180,27.930,-35.560
11043358,0.549,0.227,-0.003,-23.100,16.800,-14.560
11043377,0.607,0.141,0.039,-41.440,20.440,0.070
11043402,0.636,0.063,0.057,-22.680,24.780,14.560
11043420,0.642,0.019,0.038,7.210,24.710,17.780
11043437,0.651,0.073,0.064,26.530,6.790,16.380
11043462,0.843,0.155,0.225,0.070,-15.330,14.560
11043479,1.160,0.192,0.485,-51.940,-16.240,17.710
11043499,1.278,-0.041,0.329,-87.360,17.220,30.100
11043523,1.081,-0.290,0.120,-57.330,35.000,46.480
11043541,0.954,-0.332,0.046,2.940,27.860,71.470
11043563,0.987,-0.152,0.051,43.330,26.320,102.060
11043583,1.073,-0.035,0.049,69.580,27.720,133.980
11043602,1.197,0.023,0.098,75.250,53.340,158.830
11043623,1.179,0.048,0.044,67.060,74.690,176.190
11043641,1.213,-0.044,-0.040,60.900,91.210,195.370
11043665,1.160,-0.100,-0.101,57.050,96.740,204.540
11043680,1.224,0.027,-0.028,59.150,105.980,205.800
11043705,1.261,0.103,0.015,42.140,126.070,204.400
11043723,1.229,-0.027,-0.035,39.410,134.400,203.280
11043745,1.220,-0.175,-0.061,58.520,138.950,193.130
11043764,1.153,-0.255,-0.075,100.240,126.350,176.680
11043789,1.114,-0.186,-0.034,114.240,147.490,164.570
11043804,1.043,-0.294,0.042,134.890,150.080,152.040
11043829,0.960,-0.219,0.114,109.970,146.370,154.000
11043847,0.920,-0.123,0.271,64.120,143.430,153.790
11043869,0.769,-0.206,0.317,-6.230,140.070,163.520
11043889,0.633,-0.335,0.414,-56.210,120.820,166.880
11043913,0.626,-0.522,0.533,-48.370,118.930,165.340
11043933,0.594,-0.577,0.562,-8.680,122.640,167.160
11043953,0.583,-0.652,0.634,32.410,122.920,170.240
11043971,0.583,-0.528,0.678,52.430,130.410,172.620
11043995,0.504,-0.463,0.605,61.110,146.370,162.400
11044015,0.359,-0.569,0.538,69.230,162.890,156.170
11044034,0.236,-0.558,0.490,69.370,138.320,156.380
11044059,0.260,-0.458,0.564,57.680,140.490,155.330
11044078,0.155,-0.512,0.436,71.120,145.250,147.420
11044097,0.068,-0.622,0.351,105.140,165.270,140.560
11044121,-0.199,-0.410,0.403,85.470,129.640,140.840
11044139,-0.148,-0.286,0.490,55.020,121.940,141.120
11044159,-0.299,-0.333,0.456,54.390,121.870,142.030
11044183,-0.483,-0.198,0.532,46.550,113.190,132.160
11044207,-0.568,-0.189,0.535,51.310,99.050,129.500
11044224,-0.606,-0.103,0.542,57.050,92.330,122.220
11044244,-0.705,-0.039,0.525,60.760,94.710,108.850
11044264,-0.846,0.059,0.492,51.310,85.610,98.490
11044288,-0.807,0.154,0.529,39.480,62.580,86.940
11044312,-0.904,0.265,0.560,30.870,45.920,65.170
11044332,-1.010,0.249,0.684,-8.750,31.220,52.010
11044356,-1.075,0.318,0.855,-56.910,13.440,45.710
11044376,-1.125,0.300,0.850,-76.300,19.110,26.250
11044394,-1.286,0.189,0.694,-41.650,25.480,10.500
11044416,-1.287,0.402,0.560,9.520,15.050,-26.600
11044436,-1.217,0.521,0.462,15.610,2.660,-60.410
11044455,-1.156,0.605,0.438,12.250,-10.220,-91.980
11044479,-1.117,0.678,0.368,-11.060,-22.960,-133.630
11044498,-1.054,0.676,0.301,-35.700,-51.380,-169.190
11044519,-0.904,0.769,0.156,-85.470,-90.370,-213.640
11044539,-0.642,0.842,0.038,-187.950,-130.690,-257.040
11044559,-0.430,0.644,0.002,-272.160,-174.440,-301.070
11044579,-0.027,0.290,0.053,-341.880,-172.340,-341.950
11044597,0.177,-0.170,0.114,-323.820,-137.060,-372.820
11044619,0.109,-0.764,-0.017,-234.150,-80.990,-398.090
11044639,-0.028,-0.604,-0.089,-117.670,-91.280,-417.970
11044663,0.197,-0.599,-0.172,-57.960,-128.800,-412.440
11044686,0.505,-0.702,-0.178,-16.940,-144.830,-411.950
11044707,0.754,-0.572,-0.044,44.030,-137.690,-389.900
11044726,0.890,-0.412,0.041,12.810,-161.770,-366.730
11044746,1.325,-0.227,-0.082,1.330,-178.850,-349.790
11044766,1.644,-0.083,-0.210,4.130,-110.950,-318.640
11044785,1.481,-0.180,-0.148,-9.660,-95.620,-284.060
11044806,1.500,-0.122,-0.069,13.720,-99.540,-253.050
11044830,1.828,-0.059,-0.069,25.900,-52.780,-223.790
11044850,1.458,-0.175,-0.044,37.380,-19.530,-213.360
11044868,0.907,-0.089,0.197,55.160,-27.930,-192.850
11044890,1.356,0.106,0.037,95.550,-46.550,-165.690
11044910,1.248,0.037,-0.010,102.830,-13.720,-156.730
11044933,0.701,-0.012,-0.052,151.550,-19.950,-147.770
11044952,0.525,0.387,-0.063,151.550,-45.920,-129.220
11044977,0.855,0.588,-0.241,71.820,-123.970,-91.910
11044997,1.104,0.457,-0.160,-1.890,-132.020,-76.090
11045016,0.936,0.440,0.004,-34.930,-147.070,-74.550
11045037,1.020,0.349,-0.012,-75.810,-164.500,-59.360
11045061,1.350,0.128,-0.033,-52.290,-150.920,-53.060
11045085,1.311,0.122,0.013,21.280,-114.030,-55.510
11045104,1.088,0.283,0.226,32.340,-98.420,-56.000
11045123,1.317,0.260,0.163,9.870,-72.590,-49.770
11045145,1.382,0.005,0.080,46.830,-16.170,-59.080
11045166,0.995,-0.086,0.018,127.680,8.190,-50.680
11045187,0.787,0.103,0.087,100.940,-12.180,-37.100
11045207,1.051,0.041,0.090,47.880,4.760,-1.120
11045227,1.063,-0.189,0.007,72.660,36.750,12.180
11045245,0.830,-0.319,-0.104,96.250,47.670,35.210
11045264,0.553,-0.373,-0.176,95.760,49.490,80.640
11045289,0.632,-0.116,-0.099,85.260,-24.850,146.160
11045308,1.260,0.415,-0.077,44.730,-18.760,155.680
11045328,1.323,0.392,-0.282,24.010,-2.870,151.480
11045352,1.364,0.561,-0.211,-13.230,-7.280,116.270
11045372,1.330,0.249,-0.417,-6.930,4.830,56.280
11045391,1.245,0.070,-0.541,72.100,5.250,-11.620
11045411,1.167,0.072,-0.405,85.190,16.380,-45.920
11045434,1.088,0.236,-0.418,-11.270,-2.940,-33.950
11045451,1.039,-0.227,-0.341,-57.820,-25.340,-7.490
11045475,1.095,-0.564,-0.142,-13.370,-1.960,0.280
11045495,1.049,-0.343,-0.016,101.780,34.370,-17.010
11045515,1.174,-0.157,-0.047,108.640,19.460,0.910
11045535,1.164,-0.124,-0.273,19.320,31.710,25.480
11045552,1.220,-0.103,-0.335,58.800,0.350,7.000
11045576,1.367,0.033,-0.163,114.380,37.310,4.620
11045595,1.169,-0.070,-0.101,71.190,26.320,5.600
11045615,1.144,0.156,-0.017,62.160,17.570,13.860
11045635,1.125,0.161,-0.045,35.420,17.500,8.050
11045655,1.153,0.128,-0.120,23.800,21.350,9.730
11045679,1.097,0.016,-0.437,-21.980,4.480,17.290
11045694,1.362,-0.005,-0.107,-40.460,-7.210,29.330
11045714,1.271,-0.125,-0.389,-30.660,2.030,26.880
11045739,1.260,0.016,-0.500,-43.470,-12.250,53.130
11045759,1.330,-0.263,-0.413,-24.710,-21.840,38.010
11045778,1.501,-0.285,-0.329,29.610,-21.000,29.330
11045797,1.501,-0.191,-0.187,58.100,0.140,15.330
11045816,1.280,-0.027,-0.170,71.820,-7.910,5.600
11045836,1.376,0.229,0.024,24.780,-12.040,-2.660
11045861,1.371,0.140,-0.075,-56.140,-22.680,2.100
11045881,1.499,-0.073,-0.161,-66.080,-22.120,3.150
11045900,1.450,-0.078,-0.184,-87.360,-22.750,-2.870
11045922,1.466,-0.135,-0.226,-65.170,-29.610,6.580
11045942,1.404,-0.081,-0.157,-62.160,-20.160,9.100
11045966,1.301,-0.114,-0.122,-48.020,-10.500,5.740
11045986,1.264,-0.132,-0.132,-24.360,-8.120,5.950
11046006,1.281,-0.051,-0.239,-20.790,-3.290,0.630
11046026,1.246,-0.093,-0.233,-25.760,2.240,-7.560
11046046,1.113,-0.190,-0.246,5.390,6.650,-18.410
11046066,1.097,-0.034,-0.310,22.820,5.040,-18.410
11046086,1.151,0.112,-0.269,-3.850,8.260,-19.110
11046105,1.046,0.014,-0.251,-31.780,4.620,-13.650
11046125,1.096,-0.256,-0.226,-38.290,12.740,-0.910
11046149,1.038,-0.244,-0.287,11.970,34.020,-17.710
11046169,0.997,-0.095,-0.197,40.670,38.640,-27.090
11046188,0.923,-0.061,-0.119,42.980,41.790,-32.340
11046208,0.859,-0.064,-0.039,29.050,49.070,-31.780
11046228,0.753,-0.014,0.056,3.640,54.250,-29.820
11046252,0.731,-0.069,0.039,-22.540,61.880,-15.680
11046271,0.749,-0.156,-0.064,-19.880,62.790,-3.360
11046291,0.743,-0.108,-0.078,-6.370,57.400,10.360
11046315,0.811,-0.121,-0.094,-8.470,56.350,27.790
11046335,0.804,-0.142,-0.094,-4.830,51.520,41.160
11046354,0.797,-0.079,-0.049,-13.160,44.450,50.680
11046378,0.898,-0.074,-0.007,-37.730,40.880,62.090
11046397,0.954,-0.136,-0.034,-45.640,46.760,68.880
11046413,0.861,-0.220,-0.114,-40.390,44.380,77.770
11046438,0.915,-0.236,-0.143,-27.510,37.170,86.520
11046458,0.910,-0.264,-0.141,-16.730,39.620,91.210
11046478,0.924,-0.286,-0.102,-8.400,32.970,100.870
11046497,1.027,-0.265,-0.080,-4.900,27.580,107.450
11046516,1.150,-0.354,-0.137,9.660,31.290,110.810
11046540,0.962,-0.377,-0.100,36.190,39.620,107.590
11046557,0.848,-0.304,-0.036,36.470,24.570,110.950
11046581,0.923,-0.271,0.028,16.170,16.520,121.310
11046601,0.935,-0.313,0.069,2.310,16.730,126.770
11046620,0.866,-0.304,0.114,3.710,12.600,129.220
11046641,0.891,-0.255,0.147,-1.540,13.300,130.410
11046663,0.884,-0.268,0.141,-7.560,16.450,126.070
11046684,0.756,-0.283,0.178,-12.390,14.280,121.800
11046704,0.742,-0.249,0.275,-14.420,10.710,116.690
11046724,0.774,-0.295,0.338,-24.220,21.910,113.750
11046748,0.674,-0.451,0.316,-13.230,33.460,107.520
11046767,0.522,-0.452,0.229,-2.100,45.990,105.070
11046788,0.538,-0.422,0.344,16.030,42.630,91.700
11046808,0.531,-0.452,0.316,11.620,43.470,84.000
11046827,0.492,-0.541,0.310,11.690,50.960,76.650
11046851,0.365,-0.525,0.349,10.010,41.720,62.720
11046871,0.384,-0.496,0.382,-4.340,39.410,55.720
11046891,0.354,-0.598,0.359,-17.010,35.070,46.620
11046911,0.276,-0.637,0.351,-17.850,30.660,37.380
11046931,0.344,-0.647,0.347,-26.880,18.970,28.350
11046950,0.381,-0.751,0.293,-27.370,21.420,18.060
11046967,0.333,-0.788,0.243,-18.480,19.250,6.860
11046991,0.286,-0.707,0.222,-18.270,7.770,-14.840
11047011,0.393,-0.733,0.251,-30.590,2.030,-27.510
11047032,0.348,-0.853,0.228,-31.220,-5.460,-39.480
11047051,0.443,-0.814,0.224,-24.990,-11.130,-51.310
11047069,0.535,-0.845,0.190,-22.120,-7.070,-63.490
11047088,0.493,-0.919,0.145,-15.050,-9.520,-74.340
11047108,0.501,-0.861,0.160,-7.910,-19.950,-80.430
11047133,0.633,-0.747,0.193,-17.990,-21.000,-90.230
11047149,0.653,-0.770,0.184,-21.980,-17.780,-97.020
11047173,0.612,-0.804,0.147,-18.340,-22.050,-104.580
11047191,0.709,-0.737,0.109,-8.190,-31.500,-105.070
11047212,0.853,-0.699,0.074,1.680,-28.350,-112.070
11047236,0.815,-0.624,0.081,8.890,-32.970,-122.710
11047256,0.805,-0.514,0.139,-6.020,-39.830,-124.530
11047271,0.910,-0.535,0.161,-16.660,-37.450,-125.580
11047295,0.903,-0.560,0.124,-10.290,-27.720,-128.940
11047316,0.806,-0.425,0.124,3.220,-31.010,-131.180
11047334,0.888,-0.316,0.119,4.480,-32.270,-129.850
11047354,0.982,-0.291,0.082,3.710,-22.120,-130.200
11047378,0.903,-0.277,0.047,11.340,-13.020,-133.700
11047393,0.798,-0.207,0.044,24.150,-13.020,-134.610
11047417,0.834,-0.030,0.062,22.750,-23.240,-130.620
11047437,0.954,-0.071,0.081,8.610,-14.770,-124.530
11047457,0.915,-0.160,0.059,25.620,-2.520,-122.290
11047481,0.786,-0.116,0.016,52.010,-1.610,-114.730
11047501,0.745,0.028,0.034,55.160,-18.060,-105.210
11047520,0.935,0.049,-0.010,42.140,-21.490,-93.940
11047540,0.997,-0.027,-0.059,45.150,-15.470,-86.870
11047561,0.927,0.026,-0.052,55.230,-23.450,-78.750
11047585,0.918,0.101,-0.017,29.540,-35.560,-65.870
11047605,0.960,0.047,-0.041,6.160,-42.630,-54.600
11047628,0.932,0.007,-0.048,-2.730,-47.670,-38.920
11047646,0.975,0.074,-0.012,-22.680,-59.920,-29.610
11047666,1.043,0.049,0.027,-55.650,-59.430,-18.060
11047690,1.039,-0.087,-0.010,-60.970,-54.740,-15.120
11047710,0.935,-0.184,0.003,-25.200,-49.770,-13.860
11047730,0.851,-0.064,0.086,-7.490,-49.350,-8.330
11047749,0.824,-0.001,0.121,-22.470,-55.370,-1.960
11047773,0.923,-0.074,0.062,-9.450,-45.850,6.510
11047792,1.009,-0.135,-0.006,13.020,-33.250,7.560
11047815,0.976,-0.021,-0.031,34.370,-24.080,8.960
11047833,0.963,0.031,-0.020,28.140,-18.550,12.950
11047853,0.921,0.040,-0.016,22.750,-23.170,16.590
11047877,1.024,0.045,-0.016,18.620,-16.800,19.950
11047896,1.119,0.013,-0.047,22.470,-7.980,13.720
11047916,1.061,0.012,-0.090,32.130,3.990,7.980
11047934,0.959,-0.044,-0.120,39.830,4.760,3.360
11047953,0.940,-0.006,-0.078,44.100,8.610,-1.750
11047978,0.888,0.005,-0.118,34.720,5.950,-1.820
11047994,0.951,0.005,-0.085,21.630,4.200,2.170
11048013,1.072,-0.046,-0.107,18.690,9.590,4.340
11048036,1.027,-0.063,-0.185,37.800,22.470,-1.750
11048056,1.043,0.005,-0.184,44.660,20.580,-5.390
11048080,1.090,0.002,-0.190,17.920,22.750,-8.960
11048100,1.102,-0.029,-0.208,33.740,22.960,-10.710
11048119,1.124,-0.012,-0.224,32.060,17.710,-11.060
11048135,1.144,-0.054,-0.213,23.940,14.210,-5.740
11048160,1.119,-0.025,-0.203,26.250,12.250,-2.660
11048180,1.078,0.114,-0.170,3.500,2.870,-2.100
11048198,1.243,0.007,-0.227,-14.070,-2.940,3.430
11048218,1.264,0.020,-0.202,-30.100,-16.240,7.630
11048237,1.314,-0.050,-0.214,-30.450,-11.270,6.650
11048262,1.313,-0.057,-0.238,-10.850,-13.510,2.240
11048281,1.332,0.031,-0.231,-28.140,-19.600,7.700
11048300,1.378,-0.058,-0.163,-47.670,-32.200,12.460
11048318,1.470,-0.174,-0.145,-26.880,-30.030,13.860
11048337,1.502,-0.016,-0.136,4.760,-25.620,15.680
11048362,1.516,0.405,0.042,-37.590,-32.060,15.540
11048382,1.591,0.228,0.187,-105.140,-19.320,7.490
11048402,1.490,-0.065,0.259,-80.850,-13.860,4.060
11048420,1.514,-0.241,0.119,-17.920,-13.160,1.190
11048442,1.568,-0.066,-0.035,36.610,-2.310,-0.840
11048466,1.483,0.087,-0.184,44.660,-6.160,-0.980
11048486,1.385,0.175,-0.196,22.470,-14.840,-3.570
11048502,1.386,0.139,-0.159,4.480,-14.840,-7.490
11048524,1.342,0.066,-0.178,-3.850,-15.400,-10.150
11048548,1.288,-0.061,-0.210,16.590,-15.050,-10.080
11048567,1.240,-0.109,-0.219,47.810,-11.970,-9.380
11048588,1.240,0.024,-0.207,63.700,-4.550,-9.170
11048605,1.142,0.116,-0.248,42.140,-9.310,-5.110
11048629,1.073,0.041,-0.185,1.960,-18.550,0.910
11048649,1.017,-0.142,-0.158,25.200,-16.100,-5.530
11048667,1.073,0.065,-0.076,23.310,-8.960,1.610
11048686,0.959,0.056,-0.150,-5.880,-11.130,-1.470
11048711,0.938,-0.072,-0.061,22.050,-5.390,-1.400
11048729,0.892,-0.152,-0.113,51.730,-9.940,-3.920
11048751,0.871,0.154,-0.162,63.000,0.700,-7.700
11048775,0.898,0.297,0.045,-37.800,12.810,-0.840
11048794,0.805,-0.131,-0.075,-44.520,2.870,7.980
11048815,0.903,-0.042,-0.039,-34.300,15.960,9.030
11048834,0.845,-0.043,-0.014,-51.380,23.730,12.530
11048853,0.847,-0.117,0.070,-38.920,27.440,16.240
11048878,0.872,-0.076,0.047,-22.120,39.900,23.800
11048898,0.853,-0.122,-0.042,4.480,45.220,25.620
11048918,0.861,-0.070,-0.090,11.900,46.410,28.280
11048937,0.857,-0.063,-0.101,2.310,41.510,37.870
11048958,0.931,-0.045,-0.073,-8.680,44.030,42.770
11048978,0.951,-0.065,-0.121,-3.500,49.280,43.680
11049000,0.954,-0.097,-0.197,11.690,44.590,46.340
11049019,0.947,-0.037,-0.225,10.850,35.420,48.020
11049039,0.978,0.011,-0.177,-8.890,34.790,47.460
11049064,0.968,-0.043,-0.167,-27.510,26.530,51.730
11049084,0.981,-0.029,-0.155,-53.900,26.110,59.150
11049103,0.951,-0.140,-0.172,-50.680,30.100,63.070
11049125,0.869,-0.205,-0.141,-25.830,32.690,70.350
11049145,0.824,-0.193,-0.130,-6.160,34.510,77.700
11049164,0.818,-0.132,-0.126,3.780,34.090,85.330
11049189,0.883,-0.255,0.077,17.430,41.090,85.680
11049209,0.966,-0.396,0.128,98.280,55.650,80.290
11049225,0.914,0.061,0.280,85.820,64.890,72.520
11049249,0.881,-0.161,0.363,32.550,60.340,76.650
11049268,0.945,-0.200,0.360,40.250,58.170,73.220
11049292,0.942,-0.130,0.281,7.910,61.040,66.780
11049313,0.924,-0.330,0.245,10.150,62.930,65.730
11049337,0.837,-0.237,0.181,0.420,58.590,72.240
11049355,0.800,-0.269,0.183,-18.690,60.480,71.890
11049375,0.740,-0.382,0.183,-15.190,53.270,66.850
11049399,0.731,-0.443,0.212,-2.660,49.980,63.490
11049417,0.837,-0.439,0.224,-0.980,50.680,58.380
11049435,0.905,-0.578,0.253,1.120,52.640,54.460
11049459,0.950,-0.819,0.387,-28.140,46.970,73.710
11049479,1.028,-1.139,0.467,-3.080,56.420,87.500
11049494,1.113,-1.096,0.504,5.110,57.750,110.040
11049519,1.305,-1.258,0.825,-35.630,106.610,147.700
11049538,1.175,-1.546,0.839,-20.020,148.820,182.980
11049563,1.427,-1.440,0.903,100.380,184.590,188.790
11049586,1.464,-1.128,0.872,195.440,242.690,184.940
11049604,1.258,-0.804,0.735,197.050,255.640,181.230
11049623,1.099,-0.577,0.510,192.570,257.460,174.930
11049648,0.878,-0.421,0.400,147.000,250.740,161.210
11049667,0.626,-0.529,0.323,106.400,244.020,175.140
11049687,0.439,-0.411,0.221,57.330,200.130,175.490
11049711,0.291,-0.348,0.205,30.590,194.110,172.200
11049731,-0.014,-0.292,0.159,10.220,170.870,178.640
11049750,-0.103,-0.227,0.190,-4.550,127.610,170.800
11049770,-0.171,-0.291,0.186,15.750,136.570,157.430
11049790,-0.415,-0.120,0.176,21.560,120.610,140.280
11049809,-0.514,-0.136,0.304,11.270,96.530,129.010
11049834,-0.542,-0.083,0.335,25.760,82.110,106.610
11049854,-0.607,-0.076,0.339,46.690,89.810,80.010
11049876,-0.782,-0.002,0.361,58.450,76.510,57.890
11049896,-0.813,0.054,0.456,56.840,57.750,35.490
11049919,-0.880,0.042,0.440,54.740,50.260,16.310
11049940,-0.892,0.155,0.504,45.780,34.300,-6.580
11049959,-0.919,0.154,0.550,51.380,32.550,-32.760
11049979,-0.976,0.183,0.498,69.230,23.800,-64.260
11050003,-0.967,0.383,0.479,58.660,13.650,-101.220
11050022,-1.007,0.236,0.437,48.650,9.870,-124.810
11050042,-1.073,0.179,0.372,48.300,-10.290,-153.370
11050064,-1.020,0.122,0.398,78.050,-16.310,-186.480
11050088,-1.054,0.349,0.417,73.570,12.600,-228.900
11050107,-1.021,0.495,0.307,9.310,-29.400,-247.310
11050125,-0.675,0.417,0.210,19.530,-55.580,-274.750
11050144,-0.427,0.359,0.186,40.740,-87.640,-305.970
11050168,-0.231,0.130,0.119,94.850,-110.740,-334.110
11050188,-0.066,0.102,0.091,120.960,-144.480,-336.630
11050208,0.092,0.135,0.073,69.510,-206.150,-337.610
11050228,0.502,0.078,0.135,19.950,-224.560,-340.270
11050252,0.699,-0.095,0.145,31.290,-241.150,-338.800
11050270,1.002,-0.106,0.035,62.860,-262.570,-328.510
11050289,1.159,-0.204,0.014,76.860,-230.090,-312.410
11050314,0.894,-0.141,0.116,91.280,-251.790,-274.260
11050333,1.536,0.112,0.240,86.170,-284.200,-231.560
11050353,1.434,-0.182,0.117,111.650,-210.980,-210.980
11050373,1.210,0.010,0.378,157.430,-228.760,-162.680
11050397,1.723,0.434,0.543,140.980,-215.180,-103.040
11050416,1.662,0.278,0.530,111.300,-145.040,-100.520
11050437,1.063,-0.191,0.134,171.850,-151.900,-69.650
11050457,1.177,0.321,0.325,181.370,-202.300,-30.240
11050481,1.795,0.787,0.527,74.760,-189.560,-7.700
11050499,1.386,0.549,0.620,-8.680,-104.440,0.630
11050521,0.846,0.292,0.537,17.150,-109.130,23.030
11050541,1.075,0.434,0.580,16.520,-122.990,55.720
11050561,1.703,0.502,0.434,-30.660,-127.260,62.720
11050581,1.836,0.439,0.405,-42.910,-92.470,42.070
11050600,1.500,0.324,0.483,-44.730,-73.080,1.470
11050617,1.472,0.196,0.437,-46.410,-68.180,-29.960
11050641,1.490,-0.300,0.205,-51.100,-43.750,-65.380
11050661,1.167,-0.637,0.290,40.600,-17.920,-59.430
11050681,0.904,-0.371,0.298,123.620,-8.330,-64.470
11050701,0.964,-0.183,0.073,150.290,4.690,-49.490
11050720,0.862,-0.162,-0.011,149.660,4.830,-37.660
11050736,0.803,-0.117,0.009,144.690,17.220,-24.920
11050761,0.788,-0.030,0.119,119.630,-4.550,-13.930
11050781,0.949,-0.046,0.094,110.320,2.380,-1.890
11050799,0.926,-0.192,-0.108,130.620,4.480,16.870
11050822,0.902,0.011,-0.153,138.880,-18.410,34.580
11050843,1.082,0.150,-0.061,96.110,-8.890,44.520
11050859,1.017,0.068,-0.143,83.790,-6.230,47.530
11050878,0.977,0.181,-0.125,70.070,-16.730,49.280
11050903,0.992,0.202,-0.006,37.590,-14.700,42.280
11050923,1.015,0.114,-0.040,42.350,-20.300,34.720
11050940,1.078,0.116,-0.039,53.900,-19.180,26.600
11050964,1.111,0.132,-0.043,74.270,-16.170,13.370
11050979,1.171,0.224,-0.034,75.600,-9.100,7.700
11051004,1.139,0.239,-0.065,55.160,-4.970,3.220
11051025,1.046,0.168,-0.086,45.990,-9.310,-0.630
11051045,1.081,0.173,-0.026,34.300,-9.240,-0.560
11051065,1.117,0.161,-0.027,25.620,-8.400,0.630
11051089,1.182,0.157,-0.128,25.620,-13.790,0.140
11051109,1.231,0.121,-0.145,29.330,-7.350,-2.940
11051133,1.171,0.073,-0.164,33.110,-14.490,0.350
11051154,1.225,0.090,-0.199,31.010,-21.350,5.670
11051171,1.226,0.119,-0.193,23.940,-26.950,8.750
11051193,1.275,0.109,-0.194,7.560,-34.020,9.870
11051212,1.334,0.249,-0.182,-33.040,-41.650,14.490
11051237,1.402,0.245,-0.059,-123.410,-49.910,11.970
11051255,1.525,0.008,-0.029,-132.300,-48.580,13.300
11051279,1.728,-0.147,0.129,-63.560,-33.180,-8.610
11051299,1.613,-0.128,0.053,12.250,-7.910,-14.700
11051319,1.461,0.050,0.002,25.970,-12.390,-16.800
11051339,1.413,0.140,-0.022,30.170,-12.880,-13.720
11051363,1.434,0.209,-0.030,3.640,-12.740,-16.310
11051387,1.455,0.133,-0.093,-5.460,-4.200,-24.780
11051407,1.346,0.157,-0.161,-24.850,-6.370,-27.720
11051429,1.322,0.030,-0.178,-29.120,-6.930,-35.560
11051453,1.302,-0.056,-0.164,4.550,-2.310,-44.940
11051472,1.244,0.039,-0.218,35.070,0.350,-53.760
11051492,1.193,0.332,-0.174,-7.070,3.850,-45.430
11051510,1.105,0.196,-0.207,-54.600,-3.290,-39.130
11051534,1.124,0.081,-0.127,-39.480,-4.060,-37.030
11051554,1.066,0.087,-0.171,0.280,5.880,-40.950
11051572,0.994,0.163,-0.135,17.710,15.820,-42.490
11051594,0.832,0.351,-0.100,10.430,6.230,-29.820
11051618,0.927,0.377,-0.046,-38.780,13.300,-16.730
11051638,0.858,0.105,-0.096,-19.810,21.980,-14.000
11051658,0.821,0.251,-0.083,-3.920,25.200,-10.010
11051677,0.840,0.307,-0.015,-19.530,29.330,-4.060
11051701,0.815,0.213,0.050,-26.040,35.700,4.550
11051719,0.808,0.190,0.060,-16.100,43.400,7.840
11051742,0.830,0.220,0.051,-10.080,49.840,12.110
11051761,0.870,0.223,0.087,-21.280,53.340,18.620
11051786,0.906,0.151,0.091,-33.740,58.520,32.410
11051806,0.922,0.127,0.116,-41.790,67.200,39.900
11051824,0.975,0.169,0.197,-54.740,72.170,49.420
11051843,0.988,0.094,0.163,-59.780,76.440,56.630
11051867,0.993,-0.063,0.148,-46.060,81.270,70.980
11051887,1.048,-0.116,0.262,-31.500,82.740,84.980
11051911,1.143,-0.078,0.297,-33.600,91.630,105.280
11051927,1.148,-0.141,0.239,-24.290,95.970,116.480
11051946,1.178,-0.126,0.303,-18.060,99.190,131.040
11051970,1.327,-0.080,0.404,-35.350,104.230,150.780
11051991,1.407,-0.164,0.405,-39.060,118.860,161.140
11052009,1.373,-0.249,0.372,-9.030,127.050,162.470
11052033,1.390,-0.201,0.438,18.060,144.270,161.770
11052052,1.443,-0.132,0.499,12.390,159.530,162.820
11052072,1.404,-0.200,0.469,8.540,168.350,165.340
11052096,1.451,-0.252,0.483,16.240,180.810,166.530
11052114,1.360,-0.132,0.503,24.150,193.200,165.270
11052134,1.265,-0.203,0.553,23.310,199.640,166.740
11052158,1.242,-0.325,0.450,37.240,210.910,167.440
11052178,1.140,-0.298,0.406,69.860,215.390,159.880
11052197,1.003,-0.128,0.452,75.600,218.820,148.120
11052217,0.888,-0.108,0.460,50.400,220.710,151.550
11052240,0.774,-0.206,0.436,55.930,222.600,140.000
11052261,0.550,-0.215,0.379,73.010,232.680,130.200
11052281,0.281,-0.112,0.354,68.390,226.310,125.930
11052301,0.013,-0.067,0.356,18.480,212.590,143.990
11052325,-0.181,-0.074,0.349,-27.370,165.060,171.920
11052344,-0.233,-0.020,0.379,-40.250,126.490,186.270
11052365,-0.177,0.070,0.447,-42.560,106.610,185.360
11052385,-0.232,0.090,0.394,-7.210,113.540,166.040
11052405,-0.433,0.147,0.406,7.840,100.100,136.570
11052429,-0.488,0.009,0.448,18.130,118.300,94.710
11052447,-0.692,-0.021,0.405,29.610,101.850,70.910
11052468,-0.794,-0.032,0.521,-12.390,67.970,45.850
11052492,-0.660,-0.366,0.581,-37.520,51.590,30.170
11052511,-0.740,-0.402,0.498,-22.680,49.210,23.030
11052531,-0.809,-0.426,0.480,-34.300,34.860,22.960
11052556,-0.835,-0.444,0.495,-46.970,30.030,27.230
11052575,-0.957,-0.508,0.452,-21.490,17.780,31.080
11052594,-0.965,-0.415,0.390,16.030,13.230,27.860
11052612,-0.919,-0.223,0.387,51.170,0.490,18.410
11052636,-0.897,-0.112,0.370,87.360,-12.250,-5.950
11052656,-0.920,0.086,0.343,94.780,-28.140,-38.990
11052675,-0.903,0.109,0.325,94.150,-48.300,-68.390
11052693,-0.845,0.184,0.348,61.180,-70.350,-86.100
11052716,-0.854,0.093,0.345,-28.280,-86.240,-81.410
11052737,-0.824,0.224,0.358,-95.060,-140.350,-98.000
11052757,-0.593,0.202,0.429,-87.570,-135.940,-133.700
11052776,-0.422,0.101,0.462,-35.700,-142.730,-171.990
11052797,-0.312,0.013,0.544,-17.780,-132.580,-190.610
11052817,-0.211,0.184,0.502,-8.190,-145.530,-214.200
11052840,0.031,0.128,0.494,-0.770,-169.470,-244.230
11052860,0.159,0.075,0.513,-26.950,-155.540,-257.040
11052880,0.370,0.099,0.550,-61.040,-176.820,-260.260
11052900,0.479,-0.052,0.526,-73.430,-184.310,-265.230
11052924,0.663,-0.140,0.501,-72.660,-180.740,-266.980
11052944,0.777,-0.280,0.481,-73.500,-181.300,-265.160
11052963,0.921,-0.277,0.534,-73.010,-167.510,-254.100
11052985,0.931,-0.327,0.477,-37.870,-146.230,-247.800
11053008,0.975,-0.326,0.427,-10.080,-156.240,-232.610
11053029,1.157,-0.041,0.318,0.420,-198.590,-226.170
11053049,1.299,-0.165,0.387,16.520,-143.360,-211.610
11053068,1.014,-0.103,0.467,25.340,-134.470,-205.800
11053092,1.204,-0.001,0.487,30.100,-150.500,-172.550
11053112,1.435,0.020,0.359,29.470,-142.450,-166.950
11053132,1.303,-0.032,0.328,44.730,-112.000,-162.540
11053152,1.044,-0.016,0.447,59.640,-124.180,-149.520
11053170,1.319,0.195,0.489,43.120,-136.500,-131.530
11053192,1.405,0.058,0.362,30.170,-109.060,-122.290
11053212,1.087,-0.079,0.275,42.910,-102.480,-112.770
11053235,0.860,0.091,0.402,45.290,-112.070,-98.910
11053255,0.957,0.155,0.302,10.010,-125.860,-79.380
11053274,0.870,-0.101,0.233,5.530,-113.540,-61.810
11053299,0.669,-0.126,0.231,29.540,-120.540,-30.450
11053319,0.768,0.304,0.421,7.140,-135.310,3.710
11053338,1.275,0.508,0.523,-62.790,-131.670,41.580
11053360,1.696,0.106,0.209,-71.400,-87.220,57.540
11053380,1.533,-0.145,0.007,13.020,-32.620,44.730
11053400,1.163,0.090,0.061,69.440,-30.100,26.390
11053421,1.224,0.168,0.190,58.450,-32.830,11.830
11053442,1.340,-0.089,0.063,66.430,-3.640,-12.040
11053461,1.055,-0.108,-0.060,98.700,17.220,-28.490
11053485,0.887,0.017,0.007,94.990,7.770,-29.190
11053505,0.902,0.122,0.040,32.760,1.190,-15.330
11053524,0.945,0.073,0.028,9.940,2.730,-5.530
11053549,0.956,0.084,-0.043,41.020,16.520,-13.510
11053567,0.951,0.070,-0.130,60.900,16.800,-15.050
11053588,1.046,0.050,-0.106,54.670,0.910,-9.310
11053612,1.183,0.017,-0.114,55.930,8.120,-10.640
11053632,1.056,0.071,-0.145,80.990,13.230,-9.380
11053649,0.989,0.170,-0.119,79.450,5.460,-4.410
11053673,0.976,0.197,-0.016,55.860,-0.490,-0.560
11053692,0.970,0.086,-0.063,48.720,-2.450,-6.440
11053713,1.056,0.209,-0.101,42.280,-2.310,-8.120
11053734,1.155,0.269,-0.109,4.340,-8.750,-0.210
11053751,1.354,0.218,-0.108,-16.520,-15.260,7.560
11053770,1.374,0.181,-0.145,-5.460,-1.190,6.930
11053790,1.303,0.190,-0.168,12.810,13.230,4.200
11053815,1.038,0.117,-0.169,17.500,-4.200,1.050
11053835,1.033,0.041,-0.109,8.890,-9.380,2.730
11053855,1.028,-0.041,-0.116,15.260,-9.870,5.460
11053875,1.020,-0.032,-0.171,33.250,-21.630,15.400
11053893,1.083,0.200,-0.162,11.620,-37.730,29.260
11053914,1.209,0.218,-0.160,-21.490,-48.230,39.340
11053938,1.246,0.230,-0.199,-40.740,-53.130,36.610
11053959,1.279,0.508,-0.252,-88.690,-63.700,27.720
11053975,1.241,0.699,-0.285,-177.030,-77.840,26.670
11053995,1.246,0.578,-0.192,-267.540,-96.390,23.170
11054014,1.423,0.106,0.214,-291.270,-85.820,4.830
11054038,1.338,-0.274,0.377,-171.640,-40.390,6.860
11054058,1.340,-0.198,0.852,-17.780,12.390,1.960
11054082,1.015,-0.005,0.254,63.420,3.850,10.360
11054099,1.216,0.249,0.113,42.700,-3.920,13.440
11054123,1.249,0.102,-0.068,37.520,12.390,10.080
11054143,1.219,0.175,-0.225,35.350,14.280,4.620
11054163,1.221,0.211,-0.318,5.530,13.930,0.280
11054182,1.238,0.104,-0.319,-5.950,13.580,-3.360
11054201,1.222,-0.002,-0.370,17.220,14.000,-8.820
11054220,1.204,0.052,-0.387,44.940,17.500,-15.610
11054244,1.171,0.057,-0.433,49.140,11.270,-16.380
11054264,1.151,0.033,-0.457,53.620,6.440,-15.610
11054285,1.156,0.068,-0.428,63.140,6.930,-17.780
11054306,1.135,0.084,-0.402,72.030,5.950,-16.240
11054326,1.159,0.121,-0.357,73.780,2.870,-17.360
11054350,1.250,0.095,-0.334,72.310,3.780,-14.770
11054370,1.184,0.054,-0.260,80.990,-0.980,-18.690
11054390,1.198,0.077,-0.243,99.470,6.020,-25.340
11054414,1.151,0.128,-0.224,104.720,14.770,-21.140
11054433,1.077,0.155,-0.139,85.120,13.650,-14.490
11054452,1.107,0.065,-0.134,82.950,23.940,-11.550
11054477,1.042,0.102,-0.111,96.250,32.970,-16.310
11054497,1.008,0.178,-0.030,84.210,42.000,-12.880
11054516,0.943,0.156,0.031,75.390,42.560,-11.130
11054535,0.964,0.176,0.037,64.540,43.610,-3.710
11054560,0.915,0.206,0.071,42.070,50.260,0.000
11054579,0.881,0.265,0.129,18.970,48.300,4.060
11054602,0.888,0.189,0.102,-0.700,53.690,10.710
11054623,0.874,0.137,0.092,7.070,54.390,14.070
11054643,0.886,0.171,0.120,9.100,56.140,17.430
11054663,0.836,0.173,0.134,8.960,55.300,19.950
11054682,0.826,0.212,0.188,-4.620,52.990,23.450
11054706,0.853,0.146,0.180,-12.670,60.550,24.010
11054726,0.809,0.118,0.130,-4.270,64.960,24.010
11054746,0.776,0.155,0.120,-0.350,60.690,27.300
11054766,0.848,0.183,0.175,-10.850,56.840,29.190
11054786,0.895,0.121,0.136,-13.160,61.740,28.210
11054806,0.841,0.138,0.130,-8.750,59.360,26.600
11054830,0.875,0.175,0.143,-15.470,53.480,26.670
11054848,0.892,0.135,0.150,-17.710,51.310,26.390
11054867,0.874,0.142,0.156,-15.470,48.720,24.290
11054892,0.847,0.161,0.151,-17.570,43.330,21.560
11054912,0.854,0.166,0.199,-24.850,35.910,19.880
11054927,0.923,0.142,0.200,-28.070,36.400,18.200
11054952,0.934,0.063,0.154,-15.680,40.390,9.240
11054968,0.869,0.070,0.149,1.260,36.890,6.020
11054987,0.867,0.140,0.188,0.140,28.840,2.310
11055011,0.935,0.126,0.245,-15.050,25.270,-1.960
11055031,0.919,0.071,0.242,-19.810,25.550,-8.400
11055048,0.902,0.021,0.251,-19.180,23.170,-10.360
11055072,0.908,-0.012,0.272,-14.420,19.670,-12.670
11055092,0.940,-0.019,0.283,-9.590,18.480,-12.110
11055112,0.922,-0.041,0.285,-5.530,18.760,-11.970
11055132,0.894,-0.032,0.302,-3.990,13.790,-9.100
11055156,0.918,-0.030,0.315,-11.480,11.410,-4.270
11055174,0.915,-0.056,0.342,-15.680,8.400,-0.280
11055194,0.937,-0.089,0.371,-8.680,8.400,3.570
11055218,0.913,-0.067,0.384,-9.240,5.810,8.050
11055236,0.937,-0.057,0.404,-14.700,2.450,11.690
11055257,0.925,-0.053,0.396,-23.450,3.570,13.020
11055281,0.903,-0.064,0.401,-28.490,0.280,16.380
11055301,0.912,-0.088,0.399,-24.150,-0.770,17.780
11055319,0.906,-0.083,0.409,-14.910,-0.980,18.550
11055338,0.905,-0.034,0.423,-11.340,-1.680,18.340
11055362,0.912,-0.021,0.414,-12.180,-2.100,17.150
11055380,0.931,-0.001,0.428,-17.150,-4.200,16.870
11055403,0.964,-0.033,0.424,-17.640,1.260,12.950
11055423,0.941,-0.025,0.400,-8.470,3.080,8.680
11055442,0.943,-0.044,0.402,-6.580,4.200,6.300
11055466,0.916,-0.056,0.396,5.320,6.440,-0.210
11055486,0.905,-0.038,0.383,6.230,5.950,-2.170
11055506,0.915,-0.034,0.393,5.600,5.040,-3.570
11055526,0.942,-0.034,0.379,0.210,5.320,-4.550
11055545,0.934,-0.076,0.368,-0.560,4.690,-4.900
11055569,0.946,-0.099,0.375,3.150,2.380,-3.080
11055590,1.025,-0.081,0.402,1.330,1.890,0.070
11055610,1.063,-0.138,0.407,0.490,6.020,2.590
11055630,1.055,-0.208,0.427,5.600,8.260,7.280
11055650,1.110,-0.264,0.439,7.980,12.110,13.160
11055673,1.124,-0.320,0.445,16.030,20.020,20.230
11055692,1.044,-0.319,0.452,17.500,23.660,28.560
11055712,1.017,-0.330,0.465,13.090,22.540,41.160
11055734,1.041,-0.326,0.473,3.150,21.980,58.660
11055752,1.063,-0.303,0.492,-4.340,22.330,69.370
11055772,1.058,-0.326,0.553,-13.160,25.480,84.140
11055791,1.071,-0.343,0.600,-25.550,24.990,97.510
11055816,1.121,-0.414,0.630,-35.700,28.840,114.240
11055832,1.169,-0.544,0.615,-28.070,37.380,125.440
11055856,1.254,-0.592,0.591,-3.010,48.370,136.990
11055875,1.287,-0.613,0.627,15.120,65.520,142.240
11055896,1.214,-0.601,0.683,24.850,81.060,149.800
11055920,1.211,-0.646,0.637,36.120,98.000,158.200
11055940,1.210,-0.654,0.580,65.100,116.200,162.890
11055960,1.197,-0.506,0.588,76.650,127.890,168.070
11055980,1.140,-0.388,0.610,66.710,134.610,169.680
11056000,1.132,-0.369,0.631,58.870,145.600,171.640
11056020,1.074,-0.345,0.606,60.970,152.740,167.510
11056039,1.030,-0.290,0.616,52.780,159.950,164.850
11056064,0.915,-0.323,0.670,50.400,168.840,157.290
11056079,0.777,-0.331,0.659,56.490,180.950,148.890
11056104,0.583,-0.388,0.546,105.560,209.650,125.440
11056123,0.336,-0.344,0.386,136.570,219.100,101.360
11056143,0.227,-0.319,0.306,153.090,212.450,87.640
11056162,0.146,-0.186,0.315,136.990,198.520,82.670
11056187,-0.079,-0.178,0.375,82.530,211.190,84.840
11056202,-0.421,-0.111,0.354,59.080,174.440,88.480
11056227,-0.330,-0.047,0.470,35.350,118.370,93.870
11056246,-0.238,-0.055,0.531,49.630,125.510,87.990
11056265,-0.479,-0.029,0.516,85.890,124.600,77.210
11056284,-0.656,0.077,0.556,104.790,116.550,65.030
11056309,-0.791,0.128,0.550,105.280,122.990,52.150
11056327,-0.917,0.161,0.447,103.040,87.220,47.320
11056348,-0.800,0.245,0.432,113.610,74.830,36.750
11056369,-0.925,0.303,0.299,147.000,82.600,17.150
11056388,-1.057,0.407,0.278,133.280,35.700,0.980
11056413,-0.945,0.506,0.330,98.420,19.740,-21.490
11056433,-1.060,0.461,0.277,39.620,-9.450,-36.680
11056448,-1.071,0.525,0.294,-0.770,-38.710,-45.500
11056473,-1.024,0.450,0.338,-32.480,-69.300,-59.290
11056492,-0.922,0.487,0.426,-64.330,-80.780,-71.260
11056513,-0.885,0.527,0.508,-82.180,-102.200,-96.320
11056533,-0.761,0.487,0.546,-66.710,-118.860,-118.860
11056551,-0.646,0.435,0.589,-53.480,-126.420,-138.950
11056575,-0.593,0.335,0.599,-52.080,-137.970,-154.280
11056595,-0.480,0.320,0.622,-73.080,-156.730,-162.750
11056614,-0.340,0.245,0.579,-93.660,-164.920,-171.220
11056638,-0.203,0.068,0.553,-110.250,-171.780,-181.090
11056658,-0.042,0.061,0.521,-110.950,-182.840,-191.730
11056678,0.157,0.025,0.492,-90.510,-196.140,-207.200
11056694,0.371,-0.185,0.517,-82.250,-184.940,-207.830
11056717,0.457,-0.150,0.441,-63.210,-190.610,-217.420
11056738,0.614,-0.087,0.429,-46.550,-210.630,-225.260
11056756,0.887,-0.102,0.421,-21.350,-229.810,-237.860
11056780,1.096,-0.274,0.452,-2.100,-181.860,-237.580
11056798,0.995,-0.066,0.417,13.720,-200.340,-240.660
11056819,1.158,0.127,0.574,-33.740,-269.640,-232.680
11056840,1.664,-0.142,0.714,-48.090,-178.430,-217.140
11056864,1.223,-0.429,0.434,1.680,-148.330,-217.910
11056884,1.074,-0.227,0.355,62.300,-173.670,-193.970
11056904,1.337,-0.102,0.402,56.000,-175.070,-170.030
11056922,1.306,-0.041,0.318,45.430,-162.750,-159.530
11056945,1.143,0.033,0.311,22.050,-169.820,-144.970
11056964,1.377,0.185,0.371,-4.760,-182.280,-132.650
11056986,1.572,0.215,0.447,-42.070,-140.210,-121.380
11057006,1.311,0.049,0.434,-56.490,-116.900,-110.040
11057026,1.230,0.038,0.525,-53.900,-111.090,-93.170
11057046,1.535,0.067,0.556,-60.830,-98.840,-81.550
11057070,1.372,0.004,0.596,-62.790,-67.620,-82.600
11057085,1.255,-0.037,0.600,-43.890,-58.520,-83.300
11057110,1.118,-0.120,0.556,0.910,-42.280,-80.640
11057128,1.143,-0.038,0.456,30.590,-45.780,-73.430
11057149,1.149,0.078,0.397,52.220,-31.220,-72.100
11057166,1.023,0.100,0.379,66.360,-24.500,-67.480
11057188,0.858,0.181,0.327,75.880,-21.490,-63.560
11057208,0.726,0.248,0.287,60.130,-25.900,-53.410
11057232,0.729,0.244,0.268,39.970,-31.290,-40.110
11057252,0.706,0.210,0.236,46.830,-28.070,-30.450
11057270,0.633,0.257,0.177,52.710,-33.810,-19.950
11057292,0.567,0.342,0.121,43.750,-43.540,-7.350
11057316,0.701,0.439,0.183,11.760,-61.880,16.380
11057335,0.974,0.415,0.173,-5.250,-50.260,28.910
11057359,0.980,0.276,0.084,17.500,-29.400,35.840
11057379,0.795,0.250,-0.024,63.840,-26.390,37.590
11057399,0.812,0.310,-0.037,69.930,-32.480,36.680
11057417,0.882,0.236,-0.030,60.550,-29.610,34.230
11057440,0.878,0.099,-0.103,71.330,-18.550,30.870
11057464,0.781,0.052,-0.148,81.550,-35.140,39.480
11057483,0.735,0.201,-0.099,56.140,-24.430,54.460
11057504,0.817,0.215,-0.074,12.950,-21.980,68.110
11057523,0.831,0.008,-0.251,18.340,-12.530,72.660
11057547,0.840,-0.043,-0.287,47.810,-20.440,76.930
11057567,1.107,-0.110,-0.361,63.140,-3.290,73.850
11057588,1.218,-0.084,-0.557,134.470,-5.740,61.320
11057605,1.273,0.181,-0.446,128.870,-11.550,51.870
11057625,1.243,0.157,-0.322,89.880,-13.580,35.630
11057644,1.095,0.026,-0.230,89.600,-20.020,22.540
11057664,1.056,0.234,-0.045,71.120,-23.170,6.580
11057689,1.088,0.208,0.007,39.130,-18.340,-6.370
11057709,1.222,0.237,0.029,25.830,-14.910,-7.210
11057729,1.215,0.259,0.058,-4.550,2.310,-6.580
11057749,1.052,0.014,0.077,16.450,9.310,-8.330
11057769,1.149,0.149,0.251,62.230,26.600,-16.100
11057792,1.039,0.198,0.145,93.730,44.450,-12.040
11057816,0.887,0.172,0.197,32.550,31.080,9.240
11057836,1.208,-0.211,0.041,111.440,33.180,8.050
11057854,1.034,0.451,-0.174,148.540,56.000,0.840
11057877,0.964,0.463,-0.190,81.760,38.710,2.170
11057897,1.037,0.307,-0.169,47.040,30.730,0.980
11057917,1.148,0.465,-0.076,-4.130,10.780,9.590
11057941,1.217,0.167,-0.144,-48.580,21.630,8.470
11057958,1.198,0.052,-0.082,-29.890,15.400,4.760
11057978,1.395,-0.095,-0.191,16.730,23.870,-1.820
11058002,1.439,-0.168,-0.144,109.690,42.140,-27.580
11058021,1.297,-0.044,-0.023,160.790,55.370,-55.300
11058040,1.114,0.114,-0.026,173.740,51.240,-71.960
11058063,0.855,0.234,0.041,91.700,38.850,-53.970
11058082,0.860,0.200,0.022,-5.740,17.500,-20.440
11058107,1.019,0.109,-0.030,-55.790,-1.400,17.500
11058127,1.158,0.145,-0.057,-63.840,-12.460,35.980
11058146,1.308,0.133,-0.026,-74.270,-16.940,46.130
11058164,1.438,0.050,0.054,-54.460,-12.670,39.550
11058183,1.373,0.172,0.088,-6.440,-1.890,26.180
11058208,1.252,0.327,0.050,4.410,-0.560,11.200
11058226,1.250,0.211,-0.033,11.620,-4.200,10.850
11058250,1.243,0.135,-0.098,24.290,-10.780,14.210
11058269,1.227,0.162,-0.104,17.920,-14.420,18.830
11058290,1.214,0.184,-0.068,-19.040,-20.020,25.690
11058305,1.230,0.115,-0.052,-32.760,-27.090,31.220
11058330,1.263,0.060,-0.098,-26.880,-32.760,29.820
11058348,1.252,0.059,-0.120,-17.710,-33.460,26.110
11058370,1.240,0.152,-0.105,-25.830,-37.450,19.390
11058389,1.200,0.128,-0.140,-38.990,-39.550,14.280
11058414,1.141,0.138,-0.102,-37.380,-42.000,4.830
11058434,1.128,0.128,-0.077,-43.890,-47.390,0.980
11058454,1.193,0.168,0.081,-72.100,-55.160,5.040
11058473,1.261,0.018,0.044,-87.990,-52.430,11.760
11058497,1.136,-0.034,0.002,-65.030,-40.670,5.250
11058518,1.049,0.028,0.119,-58.170,-40.810,2.730
11058537,1.153,-0.108,0.115,-32.550,-29.680,3.570
11058561,1.155,-0.097,0.027,14.140,-13.580,-0.420
11058579,1.119,-0.062,-0.003,35.910,-4.620,-5.390
11058603,1.049,0.007,-0.047,39.340,-6.090,-10.570
11058623,1.021,0.152,-0.210,-7.840,-4.550,-2.520
11058642,1.019,-0.004,-0.203,-51.870,-5.880,3.920
11058661,0.999,-0.239,-0.112,-32.270,-13.090,7.490
11058685,1.053,-0.206,-0.082,6.510,3.360,10.430
11058705,0.915,0.010,-0.274,24.290,14.070,6.440
11058723,0.898,0.068,-0.076,31.430,-1.750,10.290
11058744,0.990,0.240,0.022,-1.890,14.840,11.900
11058768,0.869,0.210,0.038,-35.420,19.110,9.660
11058788,0.902,0.072,0.068,-3.150,25.970,-0.280
11058807,0.855,0.214,0.057,8.400,25.830,-8.680
11058826,0.849,0.263,0.072,-7.420,30.100,-12.880
11058851,0.820,0.231,0.040,-42.840,35.000,-15.820
11058870,0.771,0.051,0.019,-38.080,30.520,-16.660
11058894,0.835,0.107,0.070,-28.980,35.210,-20.160
11058914,0.833,0.116,0.024,-28.070,40.950,-24.220
11058932,0.891,0.075,-0.028,-15.190,39.550,-25.620
11058956,0.928,0.081,-0.061,-13.160,44.870,-32.760
11058976,0.915,0.044,-0.065,-16.660,45.570,-35.770
11058994,0.951,0.028,-0.053,-18.060,46.760,-33.670
11059016,0.979,0.012,-0.054,-19.110,51.940,-30.240
11059035,0.953,-0.064,-0.045,-13.370,50.470,-23.870
11059060,0.949,-0.045,0.023,-11.480,49.280,-14.910
11059078,0.960,-0.073,0.042,-19.180,48.930,-6.510
11059097,0.979,-0.103,0.053,-21.770,46.830,2.590
11059121,1.027,-0.119,0.060,-21.980,46.060,13.370
11059140,1.041,-0.142,0.110,-24.990,47.390,23.730
11059161,1.080,-0.172,0.178,-32.340,46.480,36.400
11059181,1.081,-0.193,0.199,-36.050,50.120,46.550
11059201,1.023,-0.218,0.236,-37.450,54.320,56.700
11059220,0.950,-0.244,0.219,-29.190,58.240,63.490
11059240,0.848,-0.273,0.207,-15.190,53.480,76.090
11059264,0.839,-0.194,0.307,-17.500,45.080,97.160
11059284,0.966,-0.068,0.368,-35.700,34.370,118.230
11059304,1.090,0.026,0.394,-64.540,29.680,133.770
11059323,1.212,0.097,0.414,-90.720,32.690,145.880
11059342,1.218,-0.006,0.355,-123.760,34.090,150.570
11059363,1.176,-0.215,0.348,-127.680,34.930,150.080
11059386,1.148,-0.453,0.330,-96.320,40.880,145.110
11059405,1.129,-0.536,0.342,-44.730,48.720,138.180
11059430,1.168,-0.432,0.363,3.780,61.670,124.530
11059450,1.100,-0.388,0.426,3.920,73.920,113.960
11059468,1.017,-0.482,0.484,0.770,78.190,108.920
11059488,1.048,-0.563,0.539,2.660,79.870,111.860
11059512,1.189,-0.590,0.546,10.570,85.050,119.910
11059529,1.303,-0.563,0.550,23.520,102.130,119.560
11059552,1.114,-0.592,0.535,34.440,122.150,118.860
11059572,0.981,-0.645,0.516,37.870,123.620,123.620
11059589,1.002,-0.682,0.494,45.150,133.980,124.880
11059608,0.913,-0.689,0.444,67.690,145.250,123.060
11059633,0.793,-0.648,0.406,96.390,155.470,118.930
11059653,0.679,-0.551,0.411,109.340,162.400,114.170
11059670,0.542,-0.413,0.397,107.100,167.020,110.320
11059689,0.411,-0.336,0.347,100.100,171.430,104.020
11059714,0.309,-0.340,0.366,99.540,159.250,97.510
11059734,0.247,-0.262,0.342,82.670,148.470,90.230
11059753,0.154,-0.264,0.380,70.210,138.880,83.020
11059772,0.069,-0.268,0.461,64.610,128.030,74.900
11059795,-0.023,-0.257,0.524,53.970,115.220,66.080
11059814,-0.114,-0.332,0.576,34.720,102.550,62.440
11059837,-0.200,-0.359,0.601,35.980,93.100,55.860
11059858,-0.308,-0.293,0.630,27.930,78.050,49.000
11059882,-0.355,-0.300,0.671,14.700,61.180,39.970
11059902,-0.409,-0.270,0.824,2.380,55.300,31.150
11059921,-0.451,-0.301,0.850,-7.420,48.580,24.290
11059940,-0.446,-0.426,0.859,2.520,50.610,16.660
11059959,-0.538,-0.431,0.813,28.560,53.760,10.710
11059979,-0.592,-0.332,0.802,34.790,43.190,7.630
11059999,-0.636,-0.312,0.823,28.210,38.080,5.390
11060023,-0.667,-0.270,0.808,24.570,27.440,2.520
11060043,-0.651,-0.246,0.769,18.200,17.640,-2.240
11060061,-0.629,-0.272,0.749,19.880,9.520,-8.190
11060085,-0.622,-0.235,0.735,19.950,0.350,-19.390
11060101,-0.624,-0.204,0.696,18.410,-7.280,-27.930
11060125,-0.588,-0.172,0.665,18.270,-16.170,-44.450
11060143,-0.565,-0.134,0.633,14.140,-23.660,-57.680
11060165,-0.585,-0.121,0.582,11.200,-42.910,-77.630
11060185,-0.492,-0.091,0.570,5.110,-60.130,-94.920
11060208,-0.419,-0.107,0.575,-9.380,-72.590,-113.960
11060229,-0.396,-0.182,0.516,-18.200,-92.260,-128.520
11060253,-0.411,-0.122,0.452,-19.320,-132.930,-142.800
11060273,-0.317,0.076,0.609,-69.090,-170.170,-150.920
11060290,-0.027,0.104,0.757,-124.740,-178.290,-159.040
11060309,0.127,-0.246,0.649,-126.070,-159.040,-168.140
11060334,0.268,-0.396,0.601,-83.300,-146.020,-183.120
11060349,0.422,-0.420,0.593,-43.470,-127.820,-191.450
11060372,0.446,-0.396,0.449,7.000,-118.370,-200.060
11060394,0.528,-0.265,0.277,40.460,-130.550,-204.190
11060413,0.592,-0.162,0.349,31.220,-149.100,-202.930
11060436,0.923,-0.110,0.481,0.140,-143.500,-199.710
11060454,0.988,-0.221,0.398,-1.960,-127.190,-201.530
11060477,0.815,-0.259,0.350,13.090,-122.920,-196.980
11060497,0.648,-0.104,0.376,20.860,-150.430,-185.360
11060518,0.752,0.161,0.448,1.470,-166.600,-164.850
11060534,0.912,0.274,0.514,-21.070,-178.500,-149.380
11060558,1.175,0.410,0.627,-91.280,-201.670,-121.030
11060578,1.773,0.353,0.464,-148.540,-132.020,-115.570
11060597,1.565,-0.007,0.288,-153.090,-96.740,-128.800
11060615,1.368,-0.222,0.227,-116.270,-85.050,-139.160
11060635,1.305,-0.290,0.257,-63.490,-80.220,-141.260
11060659,1.511,-0.380,0.246,2.030,-59.990,-143.220
11060677,1.359,-0.390,0.243,56.070,-44.240,-145.040
11060698,1.137,-0.275,0.219,108.570,-41.230,-140.700
11060718,1.058,-0.089,0.255,133.000,-43.470,-134.750
11060738,0.999,0.118,0.334,112.770,-50.190,-119.560
11060762,0.942,0.097,0.370,61.390,-49.210,-100.450
11060782,0.861,0.025,0.295,48.440,-51.800,-85.120
11060800,0.817,0.085,0.264,33.040,-59.220,-69.790
11060819,0.883,0.136,0.287,7.210,-62.650,-51.450
11060839,0.956,0.023,0.221,-6.160,-53.340,-32.130
11060863,0.996,-0.142,0.055,44.380,-38.710,-13.580
11060883,0.998,-0.125,-0.014,98.840,-36.610,0.770
11060900,1.032,0.085,0.031,119.000,-28.700,8.470
11060924,0.961,0.134,0.068,114.170,-26.250,22.050
11060942,0.911,0.062,0.055,115.150,-25.270,31.920
11060964,0.831,0.120,0.104,103.040,-30.730,52.360
11060988,0.879,0.354,0.187,54.460,-40.110,62.580
11061008,0.962,0.369,0.169,11.060,-39.830,61.320
11061025,0.996,0.174,0.087,-8.470,-36.610,53.550
11061048,1.056,-0.009,0.043,5.950,-35.840,44.520
11061067,1.195,0.001,0.043,39.060,-19.880,31.710
11061090,1.068,0.077,0.009,63.770,-3.640,18.480
11061109,0.962,0.092,0.018,61.110,-8.820,17.150
11061129,1.060,0.081,-0.017,55.020,-3.360,19.670
11061149,1.048,0.152,-0.016,51.030,-2.450,20.580
11061170,1.127,0.203,-0.030,30.170,5.880,18.340
11061189,1.068,0.147,-0.122,13.930,2.450,21.910
11061214,1.095,0.087,-0.182,7.140,-3.780,25.480
11061234,1.188,0.198,-0.148,8.400,-9.380,21.700
11061254,1.290,0.290,-0.151,-6.230,-12.670,16.380
11061278,1.308,0.431,-0.181,17.010,-17.360,-3.430
11061298,1.300,0.697,-0.108,-31.150,-16.730,-6.090
11061317,1.201,0.256,-0.149,-71.820,-23.030,0.140
11061338,1.140,-0.033,-0.100,-22.540,-39.620,12.390
11061355,1.205,0.064,-0.035,6.650,-30.940,13.790
11061374,1.110,0.169,-0.035,31.850,-33.320,17.500
11061396,1.042,0.295,-0.042,21.560,-35.420,17.920
11061416,1.023,0.256,-0.150,-1.470,-40.040,18.200
11061439,1.133,0.264,-0.187,-17.570,-37.450,10.500
11061460,1.228,0.353,-0.177,-20.160,-20.230,2.660
11061479,1.139,0.273,-0.173,-43.610,-21.490,6.650
11061503,1.151,0.157,-0.174,-49.770,-24.850,2.940
11061520,1.247,0.064,-0.158,-48.720,-19.600,1.610
11061544,1.280,-0.107,-0.166,-9.800,-15.890,4.060
11061564,1.252,0.025,-0.153,3.500,-10.710,6.370
11061588,1.210,-0.002,-0.193,-2.590,-13.020,8.470
11061608,1.242,0.037,-0.196,2.870,-11.480,10.500
11061628,1.283,-0.032,-0.251,11.830,-6.650,7.490
11061645,1.289,0.047,-0.249,24.920,-1.540,1.610
11061664,1.261,0.149,-0.258,17.990,1.120,-1.680
11061684,1.329,0.151,-0.179,7.070,0.980,-4.060
11061709,1.481,0.100,-0.239,8.400,8.260,-1.820
11061728,1.532,-0.058,-0.349,30.380,16.520,-5.950
11061753,1.497,0.035,-0.397,51.310,22.750,-16.380
11061769,1.313,0.088,-0.391,30.310,18.340,-24.220
11061789,1.223,-0.041,-0.347,24.710,12.040,-29.890
11061813,1.173,-0.046,-0.284,25.410,8.120,-28.490
11061833,1.167,-0.160,-0.244,36.890,8.120,-21.000
11061851,1.212,-0.200,-0.175,58.520,10.570,-16.030
11061870,1.178,-0.137,-0.170,81.340,17.780,-14.350
11061895,1.125,-0.118,-0.174,121.030,28.700,-13.020
11061915,1.179,-0.040,-0.166,146.230,38.220,-15.960
11061932,1.301,0.108,-0.124,146.090,39.130,-23.380
11061956,1.453,0.178,-0.070,131.460,74.760,-46.690
11061976,1.322,0.179,-0.044,98.630,96.320,-54.460
11061994,1.253,0.072,-0.000,86.660,109.130,-61.670
11062016,1.142,0.015,0.001,81.760,124.460,-63.980
11062036,1.109,-0.114,-0.030,100.100,139.160,-64.470
11062056,0.993,-0.145,-0.041,120.680,140.420,-52.920
11062080,0.912,-0.073,-0.056,143.220,140.840,-33.250
11062098,0.816,0.052,-0.061,141.960,137.690,-1.960
11062120,0.735,0.320,-0.077,114.660,131.390,4.760
11062142,0.655,0.453,-0.066,52.780,118.720,24.850
11062161,0.614,0.523,0.006,-5.880,101.570,45.500
11062185,0.641,0.596,0.204,-61.110,83.160,66.360
11062205,0.683,0.843,0.701,-204.260,73.920,86.450
11062225,0.811,0.624,0.877,-337.750,72.170,110.320
11062244,0.948,0.115,0.776,-398.650,78.820,136.710
11062266,1.067,-0.593,0.623,-302.470,91.140,154.490
11062287,1.140,-0.793,0.706,-162.330,125.090,158.830
11062311,1.159,-0.629,0.748,-5.670,120.120,153.440
11062329,1.241,-0.214,0.706,93.870,130.130,144.480
11062349,1.269,-0.081,0.625,171.570,155.470,121.100
11062369,1.192,0.211,0.559,210.980,176.120,98.980
11062393,1.139,0.406,0.459,165.480,180.180,81.900
11062411,1.083,0.348,0.472,100.170,173.460,80.360
11062431,1.074,0.239,0.508,27.650,172.130,81.550
11062454,0.937,0.135,0.561,-41.370,169.400,87.990
11062477,0.809,-0.012,0.578,-81.060,163.870,103.530
11062498,0.729,-0.104,0.620,-77.140,152.950,105.420
11062518,0.674,-0.136,0.601,-65.520,153.790,99.680
11062538,0.602,-0.194,0.558,-44.870,152.390,95.060
11062558,0.617,-0.142,0.513,-20.860,144.830,81.060
11062577,0.608,-0.130,0.478,-16.730,145.460,72.520
11062601,0.541,-0.136,0.520,-24.010,146.440,62.930
11062621,0.404,-0.177,0.537,-45.080,145.600,55.510
11062640,0.325,-0.238,0.579,-69.720,134.120,56.420
11062660,0.244,-0.378,0.622,-98.630,129.850,63.630
11062683,0.157,-0.512,0.645,-118.090,131.950,83.090
11062707,0.045,-0.582,0.664,-107.240,134.330,98.210
11062726,-0.077,-0.636,0.701,-54.670,134.890,99.820
11062750,-0.143,-0.626,0.633,-1.820,138.320,92.330
11062766,-0.126,-0.650,0.504,48.930,134.260,87.010
11062785,-0.216,-0.537,0.464,100.030,165.270,66.220
11062810,-0.525,-0.397,0.302,116.620,177.940,52.360
11062834,-0.500,-0.247,0.313,100.870,133.630,40.530
11062853,-0.495,-0.198,0.295,66.010,138.950,28.560
11062877,-0.679,-0.238,0.258,40.460,146.510,20.230
11062897,-0.877,-0.300,0.108,22.750,115.150,14.700
11062916,-0.942,-0.206,0.100,8.330,86.310,12.460
11062934,-0.953,-0.199,0.089,-3.430,77.630,6.510
11062958,-1.017,-0.275,0.004,14.350,82.740,-1.330
11062977,-1.150,-0.251,-0.076,30.170,61.460,-11.410
11062998,-1.265,-0.201,-0.099,52.220,32.060,-24.290
11063018,-1.297,-0.220,-0.148,89.810,14.840,-37.310
11063038,-1.300,0.183,-0.034,54.390,-12.670,-49.630
11063062,-1.273,0.380,0.187,-56.910,-47.880,-61.810
11063082,-1.149,-0.101,0.423,-76.860,-74.550,-62.650
11063101,-0.976,-0.227,0.531,-34.090,-67.480,-70.770
11063121,-0.941,-0.007,0.398,-14.980,-59.710,-88.900
11063142,-0.906,-0.058,0.313,-13.650,-76.370,-104.650
11063162,-0.749,-0.081,0.272,-17.850,-97.090,-120.750
11063182,-0.568,-0.184,0.272,-30.100,-92.540,-146.090
11063201,-0.482,-0.187,0.267,-18.970,-105.980,-167.650
11063220,-0.271,-0.262,0.309,-18.760,-117.250,-191.800
11063240,-0.144,-0.318,0.359,6.230,-114.730,-216.440
11063261,-0.055,-0.298,0.342,53.480,-119.070,-250.110
11063285,0.139,-0.070,0.350,78.260,-140.840,-280.840
11063305,0.366,0.187,0.488,39.200,-171.150,-297.080
11063325,0.626,0.260,0.526,-77.630,-168.070,-292.110
11063343,0.803,0.033,0.504,-163.870,-121.310,-281.400
11063365,0.673,-0.104,0.287,-216.090,-119.210,-301.350
11063387,0.988,-0.142,0.327,-234.150,-108.640,-292.740
11063406,1.240,-0.499,0.359,-193.480,-76.090,-285.740
11063430,1.184,-0.748,0.326,-67.830,-23.100,-290.360
11063449,1.021,-0.653,0.288,25.620,-34.440,-288.960
11063468,1.121,-0.418,0.347,73.640,-84.910,-278.460
11063487,1.410,-0.391,0.452,120.330,-70.070,-261.940
11063512,1.162,-0.488,0.279,183.470,-87.290,-242.480
11063531,1.306,-0.337,0.453,188.020,-133.210,-207.760
11063556,1.624,-0.182,0.671,155.610,-114.800,-161.420
11063576,1.376,-0.150,0.511,134.190,-88.200,-133.980
11063596,1.202,-0.051,0.549,118.300,-126.420,-105.350
11063615,1.627,-0.014,0.663,65.590,-143.920,-82.880
11063639,1.519,-0.278,0.697,37.380,-81.060,-80.080
11063658,1.274,-0.468,0.577,73.010,-73.710,-81.830
11063676,1.189,-0.444,0.509,125.370,-68.810,-76.720
11063700,1.316,-0.164,0.530,132.650,-63.770,-71.960
11063718,1.128,-0.119,0.611,128.730,-57.120,-69.720
11063739,0.958,-0.099,0.591,144.130,-46.970,-64.470
11063761,0.799,-0.067,0.503,177.870,-38.150,-59.360
11063780,0.677,0.065,0.401,196.420,-33.670,-48.090
11063799,0.647,0.218,0.366,184.030,-48.230,-31.220
11063819,0.695,0.187,0.367,170.240,-47.180,-11.130
11063843,0.725,-0.175,0.278,249.900,-19.670,25.340
11063862,0.699,-0.119,0.149,264.810,-19.180,29.120
11063880,0.999,-0.041,-0.039,309.750,-4.690,49.070
11063900,1.165,0.136,-0.202,335.930,16.240,50.190
11063924,1.057,0.317,-0.274,298.550,17.920,59.220
11063944,1.054,0.487,-0.236,202.020,9.100,61.390
11063964,1.207,0.447,-0.171,115.010,6.860,65.170
11063988,1.184,0.273,-0.055,81.550,1.190,44.660
11064008,1.102,0.312,0.069,70.700,1.890,7.280
11064028,0.981,0.285,0.114,52.150,5.390,-25.690
11064046,0.946,0.097,-0.081,34.510,1.260,-34.090
11064067,0.965,0.095,-0.142,24.430,-9.520,-37.450
11064091,0.981,0.211,-0.094,-7.070,-11.900,-29.120
11064111,1.072,0.264,-0.054,-59.220,-5.950,-13.300
11064131,1.057,0.004,-0.194,-77.140,-13.790,9.310
11064151,0.875,0.020,-0.123,-48.440,-13.930,18.130
11064169,1.028,-0.095,-0.092,-18.480,-11.900,23.450
11064190,1.091,-0.297,-0.319,40.880,-2.870,26.810
11064213,1.156,-0.185,-0.356,97.440,-12.810,29.680
11064234,1.240,0.125,-0.327,108.010,-18.130,25.200
11064254,1.159,0.178,-0.366,41.790,-26.040,26.810
11064273,1.090,0.128,-0.323,15.960,-45.850,29.330
11064293,1.141,0.163,-0.205,8.120,-43.890,21.420
11064318,1.150,0.212,-0.125,12.320,-32.060,11.130
11064338,1.121,0.258,-0.041,13.440,-29.260,5.600
11064355,1.116,0.143,-0.080,20.160,-26.880,6.440
11064376,1.092,0.090,-0.080,36.120,-23.590,7.000
11064395,1.155,-0.057,0.135,117.810,-5.460,-8.960
11064415,1.076,0.085,0.041,186.900,23.240,-8.260
11064439,0.988,0.325,-0.023,107.870,9.660,16.100
11064459,1.209,0.223,-0.226,67.130,-12.390,33.530
11064479,1.357,0.485,-0.195,-21.700,-24.080,36.890
11064503,1.430,0.136,-0.235,-67.480,-25.620,25.620
11064523,1.477,0.023,-0.236,-15.120,-25.550,6.090
11064542,1.490,0.245,-0.109,-15.890,-17.850,-2.870
11064562,1.387,0.107,-0.111,-44.450,-23.520,2.660
11064582,1.406,-0.036,-0.144,-64.960,-23.100,13.300
11064606,1.401,-0.059,-0.159,-74.690,-15.330,17.640
11064621,1.367,-0.077,-0.239,-58.450,-5.460,12.880
11064641,1.341,0.005,-0.256,-40.950,-5.320,4.760
11064661,1.345,0.023,-0.219,-42.420,-3.710,-3.500
11064686,1.280,-0.033,-0.235,-39.620,17.640,-13.720
11064705,1.272,-0.020,-0.262,-35.210,7.490,-13.300
11064728,1.257,0.017,-0.244,-38.780,12.250,-16.380
11064747,1.165,-0.031,-0.305,-41.020,16.520,-11.270
11064769,1.097,-0.050,-0.325,-31.710,16.730,-9.310
11064787,1.114,-0.030,-0.297,-13.930,16.730,-6.020
11064811,1.098,0.002,-0.346,5.040,18.340,-4.550
11064831,1.053,0.080,-0.351,8.330,19.950,-3.640
11064851,1.009,0.141,-0.330,1.330,19.040,-5.390
11064869,0.989,0.214,-0.301,-13.020,16.520,-7.910
11064891,0.942,0.114,-0.278,-26.180,19.670,-13.650
11064911,0.883,0.108,-0.206,-11.200,23.660,-21.630
11064931,0.834,0.115,-0.230,10.920,25.760,-26.320
11064955,0.772,0.143,-0.264,19.880,27.860,-25.760
11064975,0.764,0.200,-0.221,6.650,18.900,-23.310
11064995,0.705,0.118,-0.247,-10.080,16.380,-16.730
11065014,0.659,0.100,-0.304,-25.060,6.160,-3.850
11065034,0.684,0.065,-0.244,-47.460,-11.130,10.990
11065058,0.779,-0.048,-0.232,-36.260,-7.770,22.820
11065078,0.691,-0.020,-0.201,2.940,-4.060,21.560
11065097,0.684,0.106,-0.125,26.600,-5.320,18.270
11065117,0.738,0.130,0.081,58.030,-3.220,6.090
11065137,0.839,0.036,0.275,133.210,7.770,-6.720
11065156,0.888,0.137,0.406,192.990,52.780,-20.300
11065181,0.828,0.619,0.519,127.400,42.210,-13.860
11065201,0.894,0.609,0.336,-20.090,16.310,1.540
11065221,1.045,0.510,0.274,-88.480,3.640,2.310
11065241,1.032,0.486,0.233,-129.360,4.760,-9.940
11065261,1.013,0.407,0.112,-166.950,4.760,-19.670
11065281,1.018,0.183,-0.088,-171.290,-6.370,-26.040
11065305,1.057,0.101,-0.113,-177.590,10.920,-31.010
11065324,0.949,-0.105,-0.168,-153.230,9.660,-31.780
11065343,0.985,-0.128,-0.187,-106.190,10.780,-30.240
11065367,1.040,0.125,-0.149,-87.850,19.880,-22.960
11065387,0.939,-0.048,-0.172,-84.770,10.360,-8.400
11065407,1.017,-0.061,-0.105,-46.340,2.170,-6.580
11065431,1.174,0.189,-0.064,-55.020,2.730,-12.390
11065449,1.216,0.148,-0.044,-73.710,9.170,-20.790
11065468,1.125,0.069,-0.027,-78.540,9.730,-25.060
11065493,1.237,0.224,0.248,-85.680,18.410,-31.220
11065517,1.125,0.140,-0.038,-87.640,17.290,-30.380
11065537,1.070,0.017,-0.190,-86.100,3.360,-20.230
11065557,0.962,0.033,-0.100,-97.720,-12.040,-1.330
11065576,1.050,-0.070,0.073,-133.000,-13.790,20.440
11065594,1.130,-0.223,0.144,-105.840,-7.140,35.280
11065615,1.058,-0.293,0.148,-57.960,10.640,46.620
11065634,1.039,-0.278,0.077,0.210,10.360,62.020
11065659,1.146,-0.212,0.039,30.800,18.550,83.090
11065679,1.206,-0.142,0.104,56.840,24.010,96.670
11065702,1.317,0.021,0.206,50.400,45.080,111.580
11065723,1.384,0.121,0.423,29.330,66.850,115.710
11065738,1.342,0.013,0.305,34.790,88.060,118.440
11065763,1.222,-0.166,-0.016,69.160,124.460,125.580
11065783,0.965,-0.099,-0.355,117.110,105.840,137.830
11065801,0.909,0.106,-0.382,108.570,87.570,148.470
11065821,0.918,0.188,-0.300,82.810,77.000,153.510
11065844,0.942,0.209,-0.152,37.730,66.220,159.250
11065864,0.913,-0.003,0.037,26.880,55.580,161.980
11065885,0.812,-0.066,0.267,27.300,35.490,164.150
11065909,0.758,-0.100,0.585,13.790,17.710,168.980
11065929,0.859,-0.188,0.737,-7.070,20.020,177.870
11065946,0.929,-0.269,0.773,-29.750,37.800,187.180
11065970,0.837,-0.346,0.752,-48.720,43.400,189.910
11065990,0.834,-0.335,0.753,-72.240,47.460,190.540
11066010,0.813,-0.328,0.733,-106.680,54.670,185.430
11066030,0.691,-0.467,0.639,-116.480,57.190,180.670
11066049,0.622,-0.533,0.487,-105.700,60.760,172.410
11066067,0.557,-0.406,0.399,-126.280,76.580,164.570
11066086,0.348,-0.581,0.277,-131.740,86.870,146.860
11066111,0.202,-0.745,0.236,-57.820,74.270,124.880
11066131,0.178,-0.696,0.268,-7.770,71.330,104.510
11066151,0.157,-0.619,0.269,53.480,73.430,77.560
11066170,0.038,-0.619,0.229,61.390,77.420,42.490
11066195,-0.166,-0.677,0.200,48.650,45.640,16.450
11066215,-0.137,-0.701,0.237,40.390,31.640,-3.500
11066238,-0.183,-0.649,0.246,13.720,20.090,-24.080
11066259,-0.244,-0.666,0.304,-14.280,-2.030,-38.430
11066277,-0.141,-0.688,0.356,-26.530,-15.260,-47.950
11066301,-0.032,-0.666,0.379,-30.870,-20.230,-71.120
11066321,0.002,-0.568,0.397,-60.410,-33.950,-87.570
11066339,0.138,-0.511,0.400,-109.900,-50.260,-101.080
11066363,0.258,-0.696,0.406,-114.730,-60.830,-120.190
11066381,0.393,-0.732,0.441,-99.400,-64.610,-125.230
11066401,0.573,-0.794,0.466,-79.380,-53.200,-133.770
11066422,0.624,-0.807,0.383,-56.630,-40.670,-142.170
11066442,0.687,-0.810,0.350,-56.700,-42.770,-141.120
11066466,0.830,-0.849,0.306,-57.540,-32.830,-140.840
11066486,0.897,-0.875,0.264,-44.660,-19.810,-140.350
11066506,0.902,-0.811,0.249,-28.420,-14.140,-137.550
11066525,0.938,-0.730,0.173,-8.260,-6.860,-136.360
11066549,0.964,-0.639,0.078,11.830,-3.990,-135.450
11066569,0.915,-0.480,0.016,8.680,2.170,-140.350
11066589,0.867,-0.443,-0.047,5.460,-4.270,-139.720
11066612,1.035,-0.428,-0.145,14.560,-5.600,-138.950
11066630,0.886,-0.319,-0.194,18.130,2.660,-141.540
11066653,0.906,-0.204,-0.188,2.520,-11.340,-140.770
11066673,1.101,-0.212,-0.233,-10.710,-13.860,-137.270
11066692,1.152,-0.289,-0.247,3.640,-6.160,-137.060
11066712,1.049,-0.250,-0.217,34.020,-4.830,-139.720
11066736,0.956,-0.104,-0.066,40.040,-9.590,-134.960
11066756,0.965,-0.071,0.000,24.010,-15.960,-124.880
11066775,0.916,-0.106,0.020,21.630,-17.430,-117.320
11066795,0.860,-0.094,0.067,25.550,-23.800,-106.680
11066815,0.949,0.032,0.122,25.270,-31.850,-94.920
11066839,1.062,0.103,0.155,18.340,-29.120,-89.320
11066859,1.028,0.069,0.166,20.930,-18.970,-87.080
11066876,0.976,0.044,0.167,31.850,-19.740,-85.330
11066896,0.989,0.061,0.168,34.790,-25.200,-79.240
11066920,1.015,0.065,0.161,25.760,-28.210,-72.310
11066940,0.984,0.069,0.200,29.820,-31.640,-71.260
11066960,1.124,0.118,0.231,28.350,-38.990,-61.040
11066984,1.194,-0.132,0.235,-4.060,-19.180,-47.670
11067004,1.134,-0.175,0.222,14.630,-9.450,-45.080
11067024,1.003,-0.157,0.187,23.100,-7.560,-39.200
11067042,0.992,-0.129,0.129,29.820,-11.760,-35.000
11067061,0.994,-0.184,0.073,42.350,-5.810,-24.290
11067086,0.804,-0.212,0.040,58.660,-11.690,-12.320
11067105,0.811,-0.041,0.073,74.830,-24.430,-3.850
11067125,0.950,0.020,0.133,67.620,-16.660,6.580
11067148,0.919,-0.056,0.028,95.200,-5.110,4.550
11067168,0.862,0.002,-0.107,140.070,-1.890,6.720
11067187,0.864,0.216,-0.067,139.160,-3.780,12.320
11067211,0.862,0.300,-0.027,113.120,-8.330,20.370
11067231,0.845,0.294,-0.017,85.120,-6.160,21.490
11067251,0.781,0.277,-0.042,83.160,-10.710,22.960
11067270,0.784,0.438,-0.008,61.460,-21.700,30.380
11067289,0.855,0.474,0.058,22.120,-26.110,36.960
11067311,0.914,0.440,0.110,-13.440,-15.120,39.410
11067331,0.922,0.263,-0.001,-29.190,-3.430,34.930
11067348,0.898,0.242,-0.024,-13.650,-0.490,29.540
11067372,0.950,0.239,-0.036,11.480,3.780,15.330
11067390,0.999,0.115,-0.108,40.950,14.560,3.920
11067411,0.966,0.055,-0.174,80.780,12.740,-8.820
11067431,1.066,0.066,-0.187,80.990,10.990,-15.470
11067455,1.128,0.042,-0.188,63.000,12.180,-15.680
11067470,1.139,0.001,-0.233,54.530,11.970,-17.780
11067495,1.140,0.044,-0.247,53.550,10.080,-25.900
11067515,1.227,0.129,-0.247,39.970,3.360,-35.630
11067534,1.280,0.070,-0.261,20.790,7.140,-45.570
11067557,1.372,-0.259,-0.440,13.580,-8.750,-34.160
11067578,1.504,-0.214,-0.395,23.660,-3.710,-30.030
11067594,1.230,-0.164,-0.347,38.220,-15.960,-25.200
11067618,1.169,0.049,-0.116,28.980,-39.270,-7.070
11067638,1.266,0.153,0.056,-31.010,-53.200,10.360
11067656,1.378,0.074,0.081,-39.970,-57.470,18.130
11067680,1.495,0.053,-0.025,10.010,-32.130,4.760
11067698,1.434,0.163,-0.033,52.710,-16.800,-14.350
11067719,1.459,0.199,0.025,96.320,4.060,-33.460
11067739,1.364,0.330,0.015,68.670,21.000,-26.110
11067763,1.280,0.230,-0.011,23.520,0.700,16.170
11067781,1.386,0.258,-0.138,32.130,6.300,31.220
11067805,1.263,0.305,-0.285,52.010,6.650,30.240
11067825,1.169,0.263,-0.226,35.980,-1.960,24.360
11067842,1.178,0.126,-0.201,23.450,-2.030,21.140
11067866,1.249,0.042,-0.271,22.820,-4.830,13.020
11067886,1.277,0.020,-0.348,25.620,4.480,3.920
11067906,1.128,0.047,-0.319,21.840,3.500,2.170
11067930,1.152,0.012,-0.265,14.980,-0.560,11.830
11067949,1.187,-0.020,-0.320,27.090,-0.280,13.650
11067969,1.089,0.002,-0.279,34.230,3.220,14.350
11067989,1.041,0.036,-0.238,33.390,3.920,13.790
11068009,0.974,0.085,-0.191,25.970,1.190,14.420
11068033,0.932,0.081,-0.082,20.440,5.530,14.280
11068052,0.934,0.107,-0.005,19.250,10.150,15.190
11068071,0.911,0.156,0.031,0.070,15.400,15.540
11068094,0.855,0.223,0.040,12.180,20.720,14.560
11068114,0.839,0.221,0.033,3.220,22.960,13.090
11068134,0.830,0.245,0.069,-9.590,22.260,11.900
11068158,0.857,0.270,0.183,-19.250,24.290,10.150
11068178,0.879,0.168,0.200,-10.500,40.670,7.490
11068197,0.811,0.208,0.186,-2.240,46.410,5.740
11068217,0.815,0.285,0.191,-21.420,44.310,5.880
11068238,0.977,0.180,0.196,-55.720,48.440,6.370
11068256,1.070,0.031,0.114,-58.240,57.540,0.910
11068275,1.054,-0.042,0.112,-45.570,64.190,-3.640
11068300,1.021,-0.094,0.128,-33.110,67.830,-2.800
11068320,1.008,-0.080,0.157,-33.880,65.030,4.480
11068340,1.062,-0.102,0.141,-36.330,68.320,11.270
11068363,1.071,-0.149,0.100,-35.980,71.330,20.720
11068384,1.088,-0.164,0.084,-38.570,68.740,29.190
11068402,1.064,-0.105,0.104,-49.000,63.630,36.750
11068425,1.118,-0.179,0.114,-68.950,59.780,52.290
11068445,1.140,-0.218,0.107,-68.390,59.640,60.480
11068461,1.073,-0.149,0.093,-68.390,55.790,68.110
11068486,1.013,-0.067,0.135,-84.910,46.200,77.070
11068506,1.040,-0.087,0.180,-129.080,34.510,87.640
11068526,1.083,-0.212,0.197,-139.090,33.040,97.860
11068544,1.093,-0.202,0.196,-135.870,33.390,104.790
11068563,1.123,-0.210,0.151,-127.680,34.860,108.010
11068582,1.038,-0.292,0.141,-116.480,32.200,112.280
11068604,1.049,-0.198,0.201,-122.220,32.550,110.530
11068623,1.056,-0.422,0.196,-123.830,39.550,109.200
11068647,0.882,-0.606,0.120,-79.100,51.660,103.390
11068665,0.962,-0.606,0.086,-27.860,56.280,101.920
11068687,0.916,-0.599,0.167,10.220,64.260,100.170
11068704,0.907,-0.657,0.316,24.780,71.470,105.700
11068724,0.890,-0.919,0.273,69.440,103.180,114.940
11068748,0.731,-0.837,0.112,177.800,112.280,116.410
11068768,0.725,-0.395,0.167,212.660,104.090,116.830
11068788,0.694,-0.188,0.274,180.670,89.810,114.030
11068808,0.604,-0.047,0.544,99.330,65.660,114.100
11068824,0.554,0.051,0.720,14.140,54.880,115.920
11068848,0.468,0.073,0.804,-73.290,43.470,119.420
11068868,0.403,-0.029,0.677,-129.500,28.630,113.960
11068888,0.300,-0.292,0.535,-117.180,33.110,99.470
11068907,0.182,-0.518,0.448,-66.080,33.390,79.240
11068931,0.130,-0.573,0.546,25.620,33.320,40.250
11068950,0.059,-0.536,0.596,133.420,52.850,21.980
11068971,0.022,-0.367,0.581,179.270,65.450,2.870
11068991,0.047,-0.140,0.476,170.940,49.350,-16.310
11069011,0.093,-0.049,0.428,109.480,27.790,-39.410
11069031,0.186,-0.017,0.475,50.330,7.000,-62.510
11069055,0.267,-0.211,0.503,-18.550,-8.680,-87.150
11069073,0.241,-0.745,0.502,-27.720,-18.550,-87.360
11069092,0.253,-0.631,0.506,-5.670,-37.660,-88.970
11069115,0.416,-0.507,0.524,-0.420,-50.470,-96.600
11069134,0.505,-0.540,0.527,-11.200,-56.070,-100.170
11069159,0.574,-0.540,0.509,-24.500,-71.470,-104.300
11069179,0.768,-0.534,0.455,-35.560,-73.010,-112.420
11069199,0.819,-0.588,0.391,-37.310,-73.010,-122.500
11069216,0.745,-0.720,0.397,-25.620,-74.270,-122.780
11069240,0.864,-0.548,0.453,-3.780,-85.120,-124.670
11069260,0.842,-0.379,0.454,14.210,-75.390,-131.040
11069280,0.798,-0.335,0.391,28.210,-76.370,-129.640
11069304,0.700,-0.372,0.460,30.100,-73.570,-114.590
11069320,0.732,-0.257,0.471,41.930,-82.250,-105.420
11069342,0.938,-0.125,0.398,44.100,-80.080,-95.830
11069366,0.942,-0.042,0.347,36.050,-77.980,-93.870
11069385,0.949,0.072,0.333,2.520,-84.210,-94.010
11069406,1.099,0.102,0.299,-36.330,-83.090,-97.230
11069429,1.235,-0.070,0.208,-54.880,-73.500,-102.270
11069452,1.147,-0.250,0.192,-46.060,-62.230,-106.890
11069476,1.061,-0.236,0.212,-23.730,-68.810,-108.780
11069495,1.082,-0.164,0.249,-10.360,-66.710,-109.620
11069516,0.985,-0.266,0.293,9.310,-61.390,-99.960
11069535,0.818,-0.318,0.294,21.070,-57.960,-75.880
11069559,0.668,-0.238,0.262,13.860,-80.500,-29.820
11069577,0.729,-0.112,0.290,1.540,-97.720,-0.980
11069596,0.866,0.126,0.365,-33.180,-108.360,22.680
11069621,0.995,0.201,0.412,-83.370,-101.990,32.760
11069640,1.040,-0.012,0.303,-93.170,-88.340,30.380
11069661,1.061,-0.148,0.191,-58.170,-76.230,17.500
11069678,1.061,-0.174,0.204,-22.400,-62.160,8.190
11069702,1.032,-0.135,0.247,32.480,-47.600,-3.010
11069720,1.007,0.031,0.265,58.100,-40.950,-11.340
11069739,1.040,0.081,0.283,62.370,-29.820,-17.080
11069763,1.018,0.021,0.244,66.290,-18.970,-23.240
11069783,1.002,0.119,0.251,57.960,-14.700,-24.570
11069801,1.057,0.116,0.236,38.360,-6.580,-25.550
11069824,1.082,0.006,0.177,40.880,0.560,-27.790
11069844,1.102,0.006,0.164,49.490,8.540,-31.360
11069867,1.052,-0.060,0.098,60.270,20.650,-38.570
11069889,1.012,-0.068,0.056,76.370,27.300,-44.590
11069909,0.974,-0.054,0.010,91.000,27.580,-43.400
11069933,1.041,-0.014,-0.010,91.210,25.410,-34.300
11069949,1.150,-0.034,-0.073,101.010,24.360,-29.050
11069973,1.208,-0.028,-0.126,114.940,26.670,-23.310
11069993,1.150,0.033,-0.150,121.940,24.780,-23.310
11070013,1.135,0.132,-0.061,99.960,15.260,-22.260
11070033,1.136,0.103,-0.022,73.150,10.220,-18.550
11070053,1.129,0.028,-0.028,72.730,3.360,-12.740
11070072,1.206,0.138,0.009,65.380,-1.960,-6.160
11070092,1.241,0.160,-0.040,39.340,-2.520,-1.470
11070113,1.101,0.198,0.001,19.530,-2.100,2.520
11070133,1.044,0.103,-0.068,21.210,-11.480,5.110
11070152,1.108,0.076,-0.049,31.360,-14.560,8.470
11070170,1.135,0.083,-0.015,40.110,-18.970,15.540
11070194,1.215,0.194,0.035,44.520,-19.040,22.960
11070213,1.103,0.212,0.041,38.150,-20.020,25.410
11070234,0.962,0.253,0.098,15.750,-30.590,26.180
11070254,0.997,0.217,0.165,-15.120,-33.950,28.490
11070272,0.973,0.096,0.133,-18.410,-32.970,28.700
11070290,1.010,0.155,0.111,-4.200,-30.870,24.710
11070314,1.031,0.190,0.125,-3.080,-27.230,25.270
11070333,1.006,0.186,0.107,-12.250,-27.580,22.960
11070353,1.031,0.074,0.103,-13.440,-25.900,18.970
11070377,1.085,-0.001,0.032,27.020,-22.610,13.300
11070395,1.108,0.142,-0.047,37.380,-20.720,8.400
11070417,1.231,0.059,-0.011,41.090,-23.520,6.720
11070441,1.220,0.115,0.048,4.550,-19.460,3.010
11070460,1.223,0.013,0.019,-22.120,-22.960,4.340
11070479,1.334,-0.121,0.041,-29.050,-24.010,7.630
11070503,1.411,-0.209,-0.065,13.370,-17.850,2.450
11070523,1.531,-0.080,-0.061,54.600,-8.960,-3.290
11070542,1.526,-0.040,-0.132,56.630,-8.610,-6.160
11070564,1.503,-0.027,-0.187,23.660,-19.180,6.720
11070583,1.593,-0.110,-0.104,-7.140,-24.570,15.540
11070607,1.522,-0.041,-0.100,-13.580,-20.300,19.460
11070627,1.405,-0.091,-0.083,3.080,-13.510,17.850
11070645,1.274,0.027,-0.066,2.590,-9.170,20.440
11070666,1.137,0.127,-0.079,-33.110,-16.800,26.390
11070687,1.136,-0.042,-0.059,-21.140,-11.970,31.500
11070707,1.108,0.037,-0.089,10.570,-3.220,30.450
11070727,0.995,0.131,-0.083,21.560,2.730,30.870
11070746,0.949,0.226,-0.019,23.310,0.140,32.550
11070765,0.944,0.311,0.062,4.620,2.380,31.850
11070789,0.929,0.248,0.045,-3.360,12.530,22.890
11070809,0.837,0.229,0.018,-0.140,19.250,18.130
11070833,0.800,0.332,0.035,-12.880,15.400,9.940
11070851,0.825,0.284,0.099,-34.860,21.910,1.540
11070872,0.792,0.142,0.053,-19.950,33.320,-6.090
11070893,0.743,0.247,0.060,-9.030,38.500,-13.510
11070912,0.785,0.339,0.047,-21.490,37.730,-20.090
11070936,0.797,0.372,0.082,-49.420,38.360,-30.800
11070956,0.824,0.208,0.059,-69.720,43.960,-37.310
11070975,0.864,0.170,0.055,-61.320,48.440,-42.980
11070994,0.832,0.196,0.070,-60.130,50.680,-45.080
11071014,0.851,0.238,0.152,-66.850,45.920,-45.360
11071038,0.957,0.166,0.127,-78.120,58.100,-47.810
11071058,0.916,0.080,0.057,-68.600,58.240,-48.510
11071078,0.873,0.147,0.051,-71.960,54.880,-47.950
11071097,0.893,0.097,0.120,-81.830,54.530,-44.170
11071115,0.949,0.056,0.118,-69.300,56.840,-42.560
11071135,0.944,0.079,0.093,-60.900,60.340,-42.280
11071159,0.950,0.102,0.098,-50.050,57.050,-41.160
11071175,1.021,0.186,0.103,-52.220,54.530,-41.860
11071198,1.067,0.195,0.091,-55.790,55.580,-46.340
11071217,1.048,0.161,0.093,-54.670,56.420,-51.100
11071239,0.980,0.117,0.132,-49.350,50.260,-50.820
11071259,0.996,0.175,0.204,-48.580,46.830,-48.650
11071283,0.981,0.198,0.245,-54.180,45.920,-46.270
11071301,0.988,0.223,0.279,-65.730,47.320,-45.780
11071321,1.008,0.268,0.336,-90.580,45.780,-52.360
11071342,1.078,0.260,0.470,-92.120,57.470,-59.990
11071366,1.145,0.316,0.488,-60.830,77.980,-94.570
11071386,1.188,0.399,0.463,2.660,96.530,-128.240
11071406,1.233,0.775,0.615,14.910,103.250,-163.170
11071430,1.332,0.940,0.667,-1.330,130.410,-204.400
11071447,1.333,1.076,0.653,-13.020,150.780,-237.090
11071467,1.297,1.322,0.678,-64.890,157.150,-261.590
11071491,1.251,1.249,0.730,-123.900,176.610,-290.010
11071511,1.094,0.848,0.805,-78.260,191.870,-313.950
11071528,0.893,0.990,0.759,-57.610,204.750,-331.520
11071551,0.712,1.082,0.741,-102.620,205.870,-346.430
11071575,0.571,0.874,0.740,-157.290,205.660,-348.460
11071593,0.504,0.626,0.709,-163.380,212.030,-350.070
11071613,0.427,0.565,0.705,-150.290,220.290,-361.830
11071637,0.351,0.506,0.647,-135.800,226.030,-369.040
11071657,0.239,0.439,0.622,-147.770,210.910,-363.230
11071677,0.176,0.335,0.616,-165.760,210.980,-357.000
11071695,0.107,0.138,0.540,-178.990,214.970,-346.290
11071717,-0.011,-0.039,0.421,-190.820,215.600,-323.540
11071741,-0.100,-0.223,0.318,-206.150,210.210,-287.070
11071761,-0.232,-0.391,0.253,-167.650,193.130,-264.810
11071781,-0.229,-0.375,0.268,-153.510,186.340,-277.270
11071798,-0.475,-0.454,0.223,-131.530,179.830,-226.660
11071817,-0.376,-0.500,0.251,-141.190,140.210,-169.120
11071842,-0.373,-0.515,0.108,-125.790,139.160,-155.680
11071862,-0.457,-0.880,0.171,-69.650,124.880,-124.040
11071881,-0.433,-0.761,0.164,-17.920,117.180,-98.840
11071904,-0.427,-0.707,0.099,12.950,98.420,-77.350
11071929,-0.437,-0.627,0.135,29.050,80.360,-58.520
11071946,-0.474,-0.689,0.147,29.890,61.880,-47.320
11071968,-0.446,-0.760,0.166,30.660,51.730,-28.070
11071986,-0.482,-0.685,0.152,18.690,43.400,-19.740
11072009,-0.511,-0.643,0.232,3.150,30.170,-13.790
11072033,-0.563,-0.792,0.215,18.270,25.270,-9.170
11072053,-0.543,-0.715,0.285,40.810,24.360,-9.590
11072073,-0.560,-0.662,0.298,22.470,23.240,-7.070
11072093,-0.614,-0.631,0.260,-0.770,18.620,-7.910
11072113,-0.653,-0.746,0.303,4.340,19.810,-10.710
11072136,-0.601,-0.778,0.304,13.650,20.090,-3.010
11072160,-0.549,-0.983,0.232,7.070,23.730,5.460
11072176,-0.536,-0.834,0.207,-0.840,36.330,8.960
11072200,-0.740,-0.697,0.129,-31.850,31.290,6.160
11072218,-0.651,-0.659,0.100,-55.440,18.760,-17.430
11072238,-0.650,-0.821,0.090,-54.250,14.140,-3.150
11072261,-0.650,-0.902,0.083,-20.370,15.610,-5.950
11072281,-0.634,-0.815,0.103,1.470,15.680,-4.830
11072302,-0.626,-0.824,0.102,-6.580,12.740,-1.540
11072321,-0.620,-0.778,0.141,-11.900,14.630,0.210
11072346,-0.664,-0.790,0.092,-22.470,7.210,0.070
11072366,-0.609,-0.759,0.002,-25.200,7.910,-0.770
11072386,-0.615,-0.762,0.148,-28.910,3.990,4.060
11072406,-0.566,-0.795,0.165,-37.730,9.380,6.090
11072430,-0.586,-0.724,0.095,-57.960,10.080,5.670
11072450,-0.624,-0.586,-0.036,-115.430,-3.150,8.610
11072469,-0.608,-0.693,0.027,-159.600,-1.120,5.880
11072489,-0.575,-1.089,0.039,-96.180,-7.280,7.350
11072512,-0.647,-0.775,-0.027,-55.370,3.850,2.870
11072533,-0.701,-0.755,-0.149,-55.370,-8.540,-1.610
11072550,-0.658,-0.879,-0.128,-47.880,-10.780,-0.840
11072570,-0.654,-0.874,-0.108,-38.990,-6.440,8.120
11072589,-0.638,-0.802,-0.061,-20.720,-7.910,1.050
11072614,-0.668,-0.818,-0.087,-15.330,-2.590,-2.520
11072634,-0.636,-0.842,-0.102,-3.640,-3.150,-2.380
11072658,-0.657,-0.837,-0.127,1.400,-1.750,0.980
11072675,-0.623,-0.775,-0.161,-10.990,0.140,5.740
11072699,-0.599,-0.881,-0.116,-8.820,-2.520,13.230
11072717,-0.573,-0.914,-0.090,0.560,3.570,23.940
11072739,-0.648,-0.729,-0.071,33.740,-5.530,17.780
11072759,-0.617,-0.804,0.025,62.440,1.120,8.820
11072783,-0.646,-0.822,-0.052,78.050,9.450,11.900
11072802,-0.641,-0.781,-0.122,76.440,6.930,12.810
11072822,-0.732,-0.676,-0.072,67.480,-5.460,3.010
11072842,-0.732,-0.572,-0.102,43.610,-8.190,4.550
11072861,-0.735,-0.657,-0.016,-2.100,-21.910,0.910
11072886,-0.653,-0.869,0.064,23.940,-14.560,1.260
11072906,-0.688,-0.746,0.111,27.020,-6.230,0.210
11072925,-0.673,-0.723,0.044,19.460,-2.590,2.380
11072945,-0.682,-0.752,0.032,9.030,-7.070,1.190
11072964,-0.678,-0.780,0.035,25.550,-12.040,-2.450
11072989,-0.578,-0.804,0.127,82.950,-0.840,-5.880
11073009,-0.640,-0.938,-0.053,159.880,4.130,0.700
11073033,-0.588,-0.483,0.022,162.470,-16.520,7.630
11073054,-0.572,-0.330,0.081,-33.040,-29.330,9.310
11073073,-0.612,-0.933,0.234,-65.730,-36.750,14.910
11073093,-0.611,-1.031,0.240,5.950,-16.940,10.640
11073114,-0.681,-0.829,0.240,35.140,-12.740,8.400
11073133,-0.679,-0.773,0.278,14.280,-15.610,10.640
11073151,-0.667,-0.666,0.245,-28.630,-8.960,10.430
11073171,-0.615,-0.765,0.275,-56.840,-6.650,11.130
11073192,-0.624,-0.885,0.124,-53.620,-13.930,14.840
11073212,-0.595,-0.813,0.163,-28.630,-7.700,13.370
11073236,-0.601,-0.835,0.099,11.410,-10.290,14.560
11073255,-0.495,-0.813,0.161,18.200,-4.760,23.240
11073279,-0.483,-1.030,0.069,56.140,2.310,40.670
11073295,-0.458,-1.155,-0.069,119.000,-3.360,70.000
11073318,-0.379,-0.989,-0.139,197.680,-14.490,41.300
11073339,-0.550,-0.650,-0.360,264.320,-19.670,78.540
11073362,-0.578,-0.183,-0.443,233.170,-33.810,73.710
11073385,-0.611,-0.144,-0.474,200.550,-109.760,83.580
11073406,-0.550,-0.112,-0.320,156.940,-122.920,94.220
11073426,-0.682,-0.417,-0.095,162.260,-136.080,118.300
11073450,-0.835,-0.485,-0.005,193.200,-138.880,143.780
11073470,-0.668,-0.163,0.218,177.240,-193.690,165.130
11073490,-0.485,-0.043,0.465,90.020,-190.610,148.190
11073514,-0.759,-0.041,0.463,68.040,-231.560,161.280
11073534,-0.550,-0.253,0.482,99.120,-242.900,148.260
11073553,-0.451,-0.292,0.326,170.660,-242.760,156.660
11073573,-0.306,0.072,0.223,184.310,-258.230,176.890
11073593,-0.105,0.383,0.270,119.560,-299.460,198.450
11073613,0.206,0.404,0.344,51.730,-308.350,210.630
11073638,0.334,0.381,0.363,0.070,-314.300,221.620
11073657,0.447,0.199,0.367,-2.940,-335.860,229.320
11073679,0.663,0.012,0.213,91.070,-368.550,238.140
11073700,1.190,0.716,0.339,154.070,-435.890,234.570
11073720,1.887,1.022,0.518,124.600,-341.040,236.950
11073740,1.580,0.305,0.353,193.410,-342.230,216.930
11073760,1.865,0.154,0.136,368.410,-348.180,214.830
11073779,2.270,0.410,-0.013,466.760,-321.090,214.620
11073804,2.729,0.984,0.055,444.570,-249.270,252.490
11073824,2.502,1.058,0.068,337.120,-174.020,272.230
11073844,2.217,0.650,0.002,268.730,-159.460,265.300
11073864,2.006,0.348,-0.018,268.940,-154.910,227.850
11073884,1.926,0.606,0.115,262.150,-127.890,176.960
11073908,1.782,0.886,0.324,176.400,-103.740,156.450
11073928,1.483,0.946,0.351,74.970,-92.750,119.210
11073948,1.385,0.814,0.321,27.510,-77.280,93.730
11073968,1.329,0.513,0.285,8.820,-53.830,67.060
11073984,1.198,0.456,0.298,18.830,-34.930,52.290
11074004,0.974,0.425,0.374,25.270,-12.950,38.150
11074025,0.734,0.325,0.453,31.360,-4.550,36.610
11074049,0.543,0.194,0.462,59.850,2.380,33.670
11074069,0.540,0.397,0.521,53.270,-11.900,38.080
11074089,0.661,0.685,0.626,-17.430,-9.380,42.910
11074109,0.784,0.788,0.770,-110.950,-26.530,50.960
11074128,1.004,0.696,0.930,-226.450,-20.020,58.030
11074153,1.174,0.436,0.975,-283.780,4.200,53.410
11074173,1.341,0.251,0.964,-274.400,35.070,41.440
11074192,1.454,0.155,0.881,-226.940,97.650,11.410
11074213,1.519,0.147,0.770,-169.680,146.020,-16.590
11074237,1.564,0.157,0.555,-110.670,192.430,-44.730
11074256,1.613,0.259,0.406,-83.160,221.760,-67.130
11074275,1.621,0.330,0.280,-69.230,235.060,-88.760
11074298,1.654,0.266,0.260,-72.660,245.070,-100.450
11074320,1.618,0.264,0.224,-76.510,253.190,-106.400
11074342,1.509,0.340,0.147,-87.080,259.490,-109.130
11074366,1.364,0.264,0.079,-111.090,253.260,-103.880
11074386,1.207,0.105,-0.010,-112.560,227.640,-89.180
11074406,1.177,0.083,-0.043,-92.400,215.040,-79.800
11074424,1.101,0.122,0.004,-81.550,204.400,-75.950
11074442,0.995,0.199,0.047,-76.300,195.510,-69.790
11074464,0.944,0.159,0.012,-96.670,181.020,-57.820
11074481,0.876,0.088,0.013,-103.880,157.010,-48.440
11074506,0.841,0.048,0.082,-86.380,152.320,-43.400
11074524,0.772,0.064,0.141,-76.300,147.980,-43.820
11074547,0.736,0.025,0.155,-87.430,130.200,-37.590
11074566,0.722,-0.107,0.162,-86.030,126.490,-34.230
11074587,0.622,-0.087,0.191,-65.590,117.250,-33.390
11074611,0.597,0.010,0.245,-72.870,105.770,-31.080
11074631,0.564,-0.029,0.328,-110.460,97.230,-24.220
11074651,0.570,-0.211,0.312,-108.780,83.090,-17.220
11074675,0.571,-0.259,0.356,-66.640,77.490,-20.650
11074694,0.539,-0.214,0.480,-49.560,71.820,-23.030
11074713,0.472,-0.231,0.500,-42.770,72.310,-22.820
11074737,0.386,-0.305,0.547,-32.550,58.030,-23.870
11074757,0.393,-0.309,0.632,-16.520,47.670,-26.180
11074776,0.376,-0.224,0.774,-27.300,35.560,-22.400
11074792,0.369,-0.208,0.793,-50.330,21.490,-15.750
11074814,0.391,-0.398,0.940,-51.310,10.920,-16.170
11074833,0.348,-0.469,1.018,-26.810,11.200,-21.210
11074858,0.321,-0.464,1.146,-3.220,6.650,-18.900
11074878,0.317,-0.446,1.333,-11.480,0.630,-9.520
11074897,0.284,-0.574,1.495,-26.040,-2.870,0.840
11074918,0.298,-0.732,1.658,-16.520,7.560,14.700
11074937,0.169,-0.865,1.786,6.650,10.640,20.790
11074957,0.148,-0.823,1.953,10.850,-13.160,34.300
11074981,0.168,-0.878,1.982,23.240,-6.300,42.910
11075001,-0.037,-0.840,1.851,58.170,-19.670,44.520
11075021,0.016,-0.590,1.899,70.840,-46.410,49.280
11075045,0.210,-0.390,1.975,32.270,-64.540,65.800
11075065,0.334,-0.368,1.796,7.420,-56.560,83.300
11075082,0.327,-0.359,1.612,3.920,-50.330,87.570
11075106,0.373,-0.365,1.469,13.650,-35.280,86.940
11075126,0.384,-0.326,1.363,32.270,-25.270,82.460
11075144,0.455,-0.200,1.204,43.400,-12.670,75.530
11075164,0.410,-0.137,1.077,50.120,2.520,62.580
11075188,0.318,-0.045,0.978,48.300,8.120,48.090
11075207,0.294,-0.025,0.927,24.150,4.970,38.990
11075228,0.296,-0.052,0.851,15.330,7.630,29.330
11075252,0.283,-0.092,0.736,31.010,12.810,14.140
11075270,0.246,-0.083,0.627,47.110,11.410,5.110
11075292,0.217,-0.021,0.531,59.220,-0.070,-5.110
11075312,0.261,0.018,0.496,55.300,-10.220,-13.860
11075332,0.229,-0.022,0.460,51.660,-16.870,-20.860
11075352,0.223,-0.061,0.423,57.540,-30.590,-22.470
11075372,0.265,-0.078,0.312,71.470,-42.770,-21.980
11075390,0.282,-0.063,0.246,96.320,-60.060,-22.190
11075414,0.329,0.077,0.282,108.220,-83.440,-16.310
11075433,0.395,0.152,0.266,100.940,-102.060,-5.740
11075457,0.465,0.202,0.242,92.960,-118.300,3.010
11075477,0.516,0.214,0.227,90.090,-136.290,10.570
11075497,0.628,0.155,0.175,107.870,-147.350,13.720
11075521,0.717,0.187,0.051,139.930,-166.040,10.570
11075538,0.859,0.233,0.020,152.670,-185.500,10.290
11075562,0.972,0.256,0.035,153.020,-201.460,18.130
11075582,1.170,0.266,0.117,148.890,-218.960,37.170
11075604,1.289,0.271,0.190,146.650,-223.020,59.360
11075625,1.354,0.280,0.263,146.720,-227.990,81.340
11075645,1.499,0.218,0.265,151.970,-222.110,110.600
11075669,1.530,0.088,0.031,210.070,-214.690,133.630
11075688,1.571,0.228,-0.041,256.760,-211.960,152.390
11075708,1.607,0.330,0.017,277.130,-209.790,167.580
11075728,1.668,0.397,0.115,293.860,-204.120,176.680
11075752,1.714,0.518,0.245,267.960,-186.410,194.670
11075769,1.708,0.586,0.291,241.990,-176.680,200.410
11075792,1.762,0.686,0.363,200.200,-162.890,202.790
11075812,1.729,0.776,0.385,155.120,-142.100,193.690
11075832,1.837,0.515,0.498,167.790,-90.650,169.470
11075852,1.625,1.101,0.410,101.430,-75.110,154.910
11075876,1.281,1.073,0.463,-22.890,-73.360,130.060
11075894,1.141,0.656,0.508,-79.660,-56.070,103.250
11075915,1.005,0.463,0.524,-60.410,-32.060,66.710
11075936,0.854,0.235,0.497,-19.180,-3.360,31.010
11075960,0.747,0.205,0.405,51.800,20.230,5.320
11075980,0.696,0.373,0.343,72.170,26.460,-7.770
11075999,0.772,0.449,0.338,74.410,38.220,-24.220
11076019,0.751,0.560,0.347,60.830,50.400,-37.660
11076042,0.750,0.667,0.288,17.150,55.160,-45.780
11076065,0.794,0.700,0.301,-42.630,52.990,-54.460
11076086,0.932,0.623,0.367,-84.140,59.570,-66.710
11076106,1.048,0.578,0.358,-111.650,68.600,-78.610
11076130,1.186,0.570,0.354,-135.870,79.450,-87.570
11076149,1.363,0.574,0.349,-165.480,87.850,-91.140
11076169,1.643,0.583,0.362,-196.490,93.590,-89.110
11076191,1.951,0.570,0.350,-222.530,116.970,-87.850
11076208,2.113,0.442,0.269,-204.680,161.560,-93.170
11076229,2.014,0.343,0.141,-159.110,186.620,-112.210
11076253,1.981,0.320,0.065,-125.020,206.430,-136.430
11076273,1.961,0.345,0.085,-124.180,219.800,-147.630
11076291,1.880,0.257,0.027,-116.340,218.750,-151.130
11076314,1.821,0.272,0.040,-98.420,224.490,-160.090
11076335,1.616,0.438,0.050,-105.140,214.550,-158.130
11076355,1.543,0.519,0.038,-147.000,204.890,-146.860
11076378,1.400,0.369,0.033,-180.250,191.450,-130.410
11076397,1.236,0.131,-0.002,-166.250,187.670,-121.870
11076421,1.007,0.120,0.001,-148.610,173.320,-109.690
11076440,0.829,0.155,0.014,-156.240,151.200,-96.110
11076461,0.675,0.111,0.017,-160.790,131.320,-82.460
11076481,0.549,0.070,0.062,-160.790,110.390,-69.090
11076505,0.588,0.089,0.133,-165.480,91.560,-47.110
11076525,0.610,0.042,0.141,-168.140,84.630,-33.670
11076544,0.543,-0.020,0.160,-165.270,79.730,-24.360
11076564,0.466,-0.044,0.209,-157.780,70.840,-16.030
11076588,0.471,-0.026,0.203,-150.500,69.300,-9.310
11076609,0.426,-0.135,0.225,-133.140,68.600,-4.480
11076628,0.379,-0.248,0.246,-100.310,65.100,-5.670
11076647,0.368,-0.270,0.284,-69.020,63.000,-7.490
11076663,0.367,-0.178,0.329,-58.100,57.890,-7.210
11076688,0.392,-0.210,0.377,-55.580,57.400,-6.370
11076708,0.291,-0.265,0.407,-51.660,55.930,-8.750
11076727,0.245,-0.258,0.440,-68.670,51.450,-3.570
11076745,0.298,-0.419,0.505,-86.170,38.360,8.330
11076769,0.397,-0.576,0.485,-40.320,46.760,17.220
11076792,0.292,-0.546,0.544,0.910,42.840,17.220
11076813,0.284,-0.378,0.615,23.590,42.070,17.570
11076832,0.194,-0.342,0.626,18.900,35.840,16.100
11076853,0.175,-0.310,0.670,24.010,26.320,10.150
11076877,0.183,-0.279,0.745,22.120,24.430,7.210
11076897,0.120,-0.418,0.827,12.530,13.090,19.950
11076917,0.205,-0.494,0.932,21.770,1.680,26.110
11076937,0.284,-0.458,1.043,38.150,8.330,27.300
11076957,0.242,-0.376,1.164,43.610,3.500,25.270
11076976,0.279,-0.341,1.279,22.750,-2.100,27.160
11076995,0.279,-0.308,1.475,3.710,-7.560,27.860
11077015,0.285,-0.403,1.634,-12.320,6.650,27.230
11077037,0.111,-0.504,1.747,-0.210,11.060,27.720
11077057,-0.002,-0.477,1.848,-12.040,4.550,35.000
11077080,-0.039,-0.529,1.820,-3.150,-7.490,33.110
11077100,-0.146,-0.536,1.666,39.900,0.630,18.200
11077121,-0.311,-0.432,1.530,69.510,-34.720,8.260
11077141,-0.126,-0.127,1.644,20.300,-83.580,13.650
11077165,0.141,-0.078,1.699,-61.740,-114.170,32.970
11077183,0.446,-0.363,1.499,-67.620,-107.520,35.140
11077202,0.589,-0.449,1.104,-7.000,-79.940,21.770
11077226,0.480,-0.299,0.943,35.840,-81.970,-1.050
11077245,0.492,-0.189,1.212,-1.890,-86.170,8.400
11077266,0.697,-0.406,0.984,-3.080,-57.260,3.570
11077287,0.620,-0.373,0.727,63.420,-41.090,-16.100
11077311,0.488,-0.272,0.601,88.270,-51.310,-28.070
11077331,0.435,-0.105,0.449,88.130,-77.420,-24.990
11077349,0.516,-0.071,0.477,51.940,-99.820,-15.540
11077369,0.547,-0.235,0.410,37.730,-108.430,-11.060
11077393,0.582,-0.252,0.369,54.740,-123.410,-0.560
11077410,0.648,-0.105,0.321,66.360,-140.350,9.380
11077430,0.753,-0.035,0.223,74.340,-155.890,20.510
11077454,0.914,-0.033,0.007,112.630,-167.370,23.380
11077473,1.003,0.222,0.049,104.440,-214.130,24.430
11077494,1.225,0.385,0.495,-35.350,-248.290,34.300
11077514,1.375,-0.075,0.520,-64.540,-227.290,34.160
11077537,1.369,-0.262,0.290,18.970,-221.690,15.750
11077556,1.513,-0.139,0.009,119.210,-229.670,15.610
11077581,1.723,0.081,0.084,154.210,-240.100,23.380
11077601,1.745,0.168,0.354,109.270,-222.740,28.770
11077619,1.699,0.081,0.346,84.910,-227.220,28.420
11077641,1.796,-0.158,0.111,71.120,-225.120,33.880
11077665,1.667,-0.264,0.168,85.400,-228.130,52.150
11077689,1.649,-0.244,0.252,115.430,-227.010,62.650
11077709,1.624,-0.141,0.211,150.430,-216.160,67.900
11077729,1.608,-0.139,0.185,182.980,-208.740,73.640
11077749,1.528,-0.045,0.207,251.510,-177.590,82.250
11077769,1.272,0.168,0.255,269.920,-156.240,88.270
11077784,1.161,0.236,0.258,268.590,-138.110,95.900
11077809,1.066,0.186,0.161,277.760,-113.470,103.460
11077827,0.970,0.240,0.134,273.070,-88.760,108.990
11077851,0.838,0.483,0.202,217.980,-72.240,125.020
11077869,0.749,0.415,0.262,132.370,-60.060,107.450
11077891,0.594,-0.122,0.227,100.310,-58.590,125.370
11077910,0.760,-0.283,0.259,132.790,-62.510,127.470
11077935,0.954,-0.071,0.314,194.600,-44.590,116.690
11077954,0.943,0.302,0.419,186.270,-27.510,93.660
11077974,0.852,0.419,0.498,141.190,-19.040,70.770
11077997,0.809,0.464,0.498,87.290,7.140,34.370
11078016,0.674,0.419,0.431,45.850,17.430,5.040
11078040,0.651,0.393,0.374,17.430,21.770,-22.260
11078061,0.671,0.448,0.337,-4.620,28.490,-43.890
11078079,0.717,0.453,0.319,-13.790,32.060,-65.520
11078099,0.833,0.459,0.338,-31.710,43.190,-91.420
11078119,0.845,0.460,0.360,-65.450,51.450,-108.850
11078139,0.903,0.447,0.406,-100.870,57.330,-126.000
11078161,1.034,0.433,0.457,-144.830,59.780,-141.330
11078181,1.341,0.386,0.427,-169.540,74.900,-151.340
11078205,1.594,0.375,0.402,-205.310,96.180,-162.890
11078225,1.812,0.293,0.333,-234.360,122.010,-162.400
11078244,1.979,0.128,0.304,-225.890,150.500,-162.750
11078264,2.176,0.042,0.210,-184.380,175.560,-159.390
11078282,2.209,0.174,0.202,-168.910,193.200,-158.130
11078302,2.091,0.250,0.195,-173.460,208.740,-159.880
11078323,2.042,0.197,0.191,-195.650,215.600,-162.120
11078343,1.908,-0.033,0.093,-192.080,226.800,-158.480
11078362,1.769,-0.068,0.050,-155.890,227.080,-155.260
11078387,1.721,0.034,0.022,-112.560,226.030,-151.480
11078403,1.557,0.166,-0.027,-103.040,226.660,-147.210
11078423,1.347,0.228,-0.068,-123.130,209.930,-138.810
11078442,1.275,0.183,-0.082,-147.490,189.140,-130.270
11078466,1.253,0.044,-0.077,-155.960,178.220,-112.700
11078487,1.126,0.009,-0.008,-150.430,172.060,-100.170
11078506,0.974,-0.047,0.010,-138.810,168.280,-86.450
11078530,0.842,-0.066,-0.070,-112.840,162.190,-71.680
11078547,0.830,-0.008,-0.095,-112.000,136.850,-63.770
11078571,0.966,0.012,-0.111,-118.860,133.140,-70.560
11078591,0.760,-0.045,-0.078,-153.160,130.760,-78.470
11078611,0.635,-0.149,-0.120,-189.840,107.100,-70.560
11078627,0.620,-0.448,-0.061,-181.230,92.960,-53.410
11078651,0.622,-0.450,0.109,-132.440,82.810,-32.060
11078669,0.606,-0.449,0.299,-107.940,75.810,-10.990
11078688,0.563,-0.517,0.335,-95.620,81.200,9.730
11078712,0.399,-0.637,0.306,-64.890,68.740,32.130
11078733,0.397,-0.470,0.445,-7.000,47.880,45.780
11078754,0.434,-0.407,0.571,5.600,40.880,54.460
11078770,0.399,-0.371,0.662,14.350,39.060,55.230
11078794,0.351,-0.266,0.728,9.800,24.920,50.330
11078814,0.419,-0.237,0.772,9.310,16.940,44.170
11078835,0.460,-0.175,0.933,6.440,16.730,39.060
11078859,0.395,-0.244,0.985,-3.640,20.580,44.660
11078876,0.344,-0.281,1.006,-3.010,26.040,36.680
11078895,0.290,-0.315,0.976,12.810,25.620,29.540
11078916,0.339,-0.191,1.047,10.990,16.240,26.810
11078939,0.368,-0.232,1.178,-14.700,10.570,24.570
11078960,0.248,-0.407,1.485,-81.480,-0.280,24.150
11078980,0.393,-0.608,1.717,-141.820,-25.620,36.330
11079000,0.490,-0.885,1.879,-182.420,8.470,44.660
11079024,0.425,-1.270,2.007,-157.640,23.170,59.780
11079044,0.479,-1.525,1.946,-62.440,49.070,61.040
11079063,0.287,-1.300,1.824,28.000,65.520,52.570
11079082,0.025,-1.102,1.625,87.570,75.040,42.840
11079107,-0.336,-0.802,1.464,90.020,59.710,25.760
11079127,-0.584,-0.530,1.447,26.460,-2.380,19.390
11079144,-0.408,-0.488,1.584,-34.300,-47.180,28.280
11079164,-0.084,-0.550,1.450,-63.840,-25.130,31.920
11079188,-0.125,-0.602,1.106,-18.480,-11.200,29.400
11079208,-0.024,-0.474,0.819,42.700,-6.860,24.570
11079227,0.079,-0.360,0.690,89.250,6.650,17.220
11079246,0.075,-0.215,0.635,105.210,13.720,10.010
11079266,0.008,-0.133,0.577,87.570,15.050,2.800
11079290,0.040,-0.169,0.479,80.990,4.340,4.340
11079310,0.142,-0.256,0.367,88.270,5.460,0.140
11079329,0.062,-0.355,0.230,113.960,4.900,-2.100
11079352,-0.011,-0.197,0.224,111.790,-37.380,3.010
11079371,0.105,-0.102,0.249,78.190,-55.860,11.970
11079389,0.201,-0.201,0.195,77.140,-65.660,16.100
11079411,0.211,-0.225,0.083,110.530,-84.770,12.600
11079435,0.262,-0.129,-0.019,147.000,-119.070,15.960
11079455,0.390,0.157,0.077,128.590,-166.740,24.290
11079472,0.549,0.242,0.270,67.690,-199.850,35.490
11079496,0.783,0.101,0.303,33.810,-203.840,40.670
11079516,0.851,0.062,0.170,50.120,-221.550,37.450
11079539,0.969,0.148,0.072,73.570,-254.590,42.700
11079557,1.153,0.202,0.100,76.440,-277.340,53.270
11079581,1.305,0.369,0.230,59.710,-301.000,64.890
11079601,1.522,0.226,0.011,78.400,-305.200,67.690
11079619,1.736,0.113,-0.223,165.340,-322.350,63.140
11079636,2.021,0.240,-0.404,241.080,-332.150,62.720
11079656,2.317,0.526,-0.408,271.390,-334.390,74.200
11079681,2.637,0.540,-0.078,233.450,-346.430,91.280
11079697,2.756,0.377,-0.037,249.410,-306.670,90.300
11079720,2.528,0.308,-0.146,313.390,-295.050,96.180
11079739,2.474,0.521,-0.142,351.680,-290.990,107.380
11079756,2.355,0.703,0.104,327.460,-281.680,114.450
11079777,2.106,0.760,0.379,261.870,-256.550,134.260
11079797,1.885,0.794,0.693,165.760,-232.190,129.780
11079821,1.763,0.733,0.832,67.270,-200.480,114.380
11079841,1.408,0.671,0.830,-24.010,-150.220,86.170
11079861,1.037,0.550,0.706,-72.240,-155.610,69.370
11079881,1.049,0.271,0.711,-99.120,-138.810,58.730
11079901,1.080,-0.153,0.760,-37.730,-95.410,48.860
11079921,0.992,-0.235,0.788,97.650,-60.550,51.940
11079941,0.942,0.064,0.762,147.070,-26.880,58.730
11079956,0.849,0.368,0.752,141.610,-9.170,58.240
11079981,0.789,0.531,0.740,107.100,16.170,55.720
11080001,0.790,0.672,0.716,80.710,36.750,35.980
11080019,0.775,0.751,0.669,31.360,62.300,12.810
11080041,0.823,0.769,0.554,-28.070,84.490,-20.930
11080064,0.928,0.683,0.415,-86.240,99.960,-48.230
11080087,1.044,0.545,0.333,-132.230,117.110,-68.180
11080108,1.207,0.409,0.268,-137.130,133.210,-82.040
11080128,1.397,0.382,0.209,-128.240,148.960,-92.260
11080147,1.545,0.393,0.170,-119.210,178.150,-100.660
11080168,1.716,0.396,0.149,-101.990,177.450,-112.420
11080188,1.829,0.421,0.105,-68.460,188.440,-128.800
11080209,1.887,0.535,-0.004,-43.190,203.420,-145.600
11080228,1.810,0.734,-0.051,-79.450,195.720,-153.860
11080248,1.801,0.799,-0.053,-139.090,182.490,-148.820
11080269,1.880,0.689,-0.041,-239.330,183.470,-137.550
11080287,1.772,0.423,-0.053,-259.700,192.920,-127.190
11080307,1.631,0.306,-0.082,-252.700,194.670,-119.070
11080331,1.629,0.432,-0.023,-294.210,187.740,-90.790
11080351,1.572,0.443,0.094,-350.420,188.300,-63.210
11080366,1.421,0.244,0.191,-373.380,189.070,-35.700
11080389,1.405,0.050,0.186,-363.930,197.050,-4.060
11080407,1.359,-0.229,0.182,-293.230,208.530,16.380
11080427,1.294,-0.239,0.229,-190.470,208.530,36.820
11080447,1.414,-0.029,0.206,-102.410,213.850,44.170
11080471,1.361,0.047,0.103,-44.310,228.760,32.900
11080491,1.213,0.066,0.024,1.190,231.000,20.020
11080511,1.063,0.171,-0.061,1.120,239.260,12.740
11080529,0.917,0.069,-0.097,-3.920,218.750,5.950
11080548,0.814,-0.047,-0.117,22.260,211.820,0.700
11080568,0.651,0.038,-0.098,39.620,195.650,-6.020
11080587,0.513,0.185,0.009,10.640,157.010,-9.730
11080612,0.505,0.041,0.066,-17.080,132.090,-14.980
11080632,0.397,-0.067,0.061,-27.860,123.690,-21.000
11080652,0.228,-0.085,0.142,-37.450,94.360,-22.960
11080670,0.247,-0.130,0.224,-38.500,73.290,-25.690
11080692,0.223,-0.170,0.328,-32.550,66.920,-28.560
11080716,0.214,-0.208,0.528,-42.070,51.870,-31.640
11080736,0.217,-0.326,0.557,-36.470,52.500,-31.920
11080760,0.262,-0.332,0.655,-30.940,42.700,-30.380
11080780,0.224,-0.444,0.812,-23.870,42.140,-33.810
11080800,0.134,-0.602,0.855,2.660,41.720,-30.100
11080819,0.098,-0.616,0.945,3.640,22.610,-19.250
11080840,0.145,-0.475,1.099,-17.500,9.800,-8.680
11080856,0.205,-0.454,1.393,-45.220,-7.280,-6.230
11080880,0.185,-0.658,1.554,-44.450,10.780,-5.250
11080902,0.029,-0.781,1.608,-34.650,11.620,5.110
11080922,-0.072,-0.755,1.794,-52.080,-7.910,19.530
11080946,-0.061,-0.829,1.944,-63.140,-10.780,34.580
11080966,-0.098,-0.945,1.989,-43.890,-12.250,41.020
11080981,-0.248,-1.059,2.053,-23.450,-4.480,38.360
11081006,-0.468,-1.149,2.079,-8.890,-28.700,44.730
11081026,-0.456,-1.128,2.180,-35.980,-56.000,59.710
11081044,-0.165,-1.093,2.065,-49.140,-59.290,83.860
11081062,0.082,-0.988,1.812,-35.630,-41.370,97.020
11081086,0.144,-0.895,1.490,23.030,-24.290,101.220
11081106,0.222,-0.605,1.383,47.950,-16.100,100.870
11081126,0.277,-0.352,1.181,81.760,5.320,96.390
11081141,0.245,-0.081,1.046,76.440,31.710,86.380
11081161,-0.014,-0.044,0.798,63.560,44.730,65.800
11081186,-0.074,-0.012,0.684,39.480,26.810,49.280
11081204,-0.009,-0.012,0.614,29.330,28.910,41.440
11081227,-0.000,-0.073,0.529,39.830,34.090,24.990
11081248,-0.008,-0.120,0.338,65.310,45.150,11.970
11081267,-0.113,-0.160,0.171,72.730,37.380,6.580
11081286,-0.240,-0.180,0.116,64.890,8.400,5.600
11081306,-0.234,-0.129,0.120,56.000,-24.360,5.740
11081326,-0.184,-0.014,0.142,36.330,-54.320,8.470
11081345,-0.113,0.008,0.115,6.510,-81.410,13.300
11081370,-0.007,-0.062,0.105,-3.150,-106.890,14.210
11081390,0.073,-0.056,0.042,15.050,-123.550,4.480
11081410,0.119,0.020,0.167,4.690,-164.570,2.240
11081429,0.262,-0.025,0.286,-24.990,-180.180,6.860
11081447,0.387,-0.137,0.233,-5.320,-192.640,8.820
11081466,0.532,-0.097,0.038,55.020,-203.350,3.150
11081491,0.658,0.172,0.118,58.870,-250.110,7.350
11081511,0.925,0.293,0.299,-4.200,-270.340,10.850
11081531,1.135,0.037,0.361,-17.710,-268.310,6.930
11081548,1.205,-0.073,0.324,14.980,-267.330,0.000
11081566,1.302,-0.051,0.326,47.600,-271.320,-5.950
11081590,1.487,0.011,0.224,92.190,-269.640,-10.150
11081610,1.612,0.006,0.106,119.420,-269.430,-8.890
11081630,1.797,-0.185,-0.150,165.340,-256.970,-9.800
11081654,1.874,-0.124,-0.343,210.980,-274.120,2.590
11081673,1.911,0.201,-0.155,190.820,-299.600,19.320
11081691,1.984,0.473,0.163,129.850,-312.480,36.050
11081714,1.978,0.289,0.271,95.900,-307.580,58.940
11081733,1.885,0.193,0.214,107.730,-299.390,62.160
11081758,1.877,0.237,0.237,118.510,-303.100,76.230
11081778,2.070,0.194,0.240,131.110,-290.360,81.620
11081796,2.110,0.154,0.260,148.330,-275.170,85.050
11081818,2.098,0.197,0.340,178.220,-246.470,87.080
11081840,2.060,0.365,0.403,185.430,-213.990,86.380
11081862,1.753,0.515,0.547,158.270,-179.340,83.090
11081886,1.541,0.497,0.785,101.080,-140.700,69.720
11081906,1.367,0.264,0.895,100.660,-98.490,52.990
11081926,1.091,0.143,0.834,121.240,-60.970,39.200
11081950,0.945,0.178,0.830,131.600,-26.740,28.700
11081970,0.848,0.311,0.821,121.030,-1.960,20.650
11081985,0.822,0.377,0.760,114.870,17.430,12.600
11082005,0.817,0.514,0.681,90.230,40.320,-1.960
11082029,0.848,0.664,0.589,32.620,65.030,-25.690
11082048,0.881,0.716,0.504,-28.070,82.320,-42.000
11082067,0.931,0.614,0.428,-78.890,94.150,-55.720
11082091,1.029,0.530,0.355,-115.640,108.010,-87.430
11082111,1.184,0.501,0.308,-144.690,120.820,-78.330
11082131,1.336,0.459,0.257,-173.180,138.740,-81.620
11082151,1.606,0.326,0.273,-166.950,154.210,-88.690
11082171,1.821,0.309,0.243,-141.120,174.090,-98.630
11082195,1.964,0.316,0.252,-114.660,198.240,-111.720
11082210,2.013,0.380,0.259,-101.220,207.270,-119.910
11082234,2.036,0.479,0.224,-114.100,218.470,-122.430
11082254,2.081,0.502,0.090,-137.200,220.360,-120.400
11082273,2.055,0.415,-0.030,-150.220,229.390,-115.220
11082296,1.948,0.353,-0.082,-151.200,231.770,-107.450
11082317,1.768,0.338,-0.065,-162.820,228.340,-99.680
11082338,1.669,0.224,-0.076,-159.950,227.150,-93.520
11082358,1.574,0.100,-0.056,-128.450,225.190,-92.330
11082375,1.440,0.133,-0.052,-105.980,224.980,-93.030
11082395,1.315,0.187,-0.115,-98.560,215.880,-91.210
11082414,1.162,0.116,-0.048,-107.100,202.650,-83.790
11082439,1.033,0.032,0.101,-113.330,192.010,-71.400
11082458,0.908,0.021,0.224,-112.140,190.050,-65.450
11082481,0.800,0.049,0.231,-126.420,169.050,-53.760
11082502,0.808,-0.068,0.244,-138.390,158.410,-36.260
11082521,0.783,-0.169,0.262,-123.200,154.350,-22.890
11082544,0.803,-0.120,0.256,-95.340,147.350,-11.340
11082564,0.833,-0.211,0.200,-54.250,143.430,-13.300
11082588,0.670,-0.114,0.316,-33.110,149.940,-21.630
11082608,0.468,0.058,0.340,-50.470,154.770,-26.250
11082628,0.296,0.111,0.293,-81.550,118.370,-28.210
11082647,0.357,0.072,0.304,-99.190,101.640,-18.130
11082667,0.396,-0.160,0.256,-82.320,101.220,-14.630
11082690,0.396,-0.123,0.302,-54.880,96.250,-19.040
11082711,0.318,-0.141,0.230,-56.140,98.210,-20.370
11082730,0.197,-0.232,0.202,-46.690,84.980,-16.590
11082750,0.174,-0.230,0.329,-31.570,61.250,-15.820
11082770,0.220,-0.270,0.468,-12.460,58.590,-18.900
11082789,0.146,-0.293,0.542,5.740,63.770,-26.320
11082814,-0.012,-0.340,0.526,14.560,55.300,-19.880
11082834,0.118,-0.400,0.713,7.210,25.900,-11.900
11082854,0.290,-0.655,0.768,69.020,57.190,-17.780
11082874,0.136,-0.596,0.831,140.420,63.840,-23.170
11082894,-0.031,-0.383,1.093,125.160,45.710,-18.270
11082918,-0.036,-0.436,1.390,96.880,22.750,-5.810
11082938,0.038,-0.425,1.524,110.040,33.320,1.120
11082958,-0.109,-0.207,1.668,76.300,33.320,9.380
11082978,-0.399,0.018,1.882,-9.800,1.890,27.160
11083002,-0.366,-0.087,2.208,-68.810,-38.080,54.600
11083022,-0.122,-0.212,2.460,-85.330,-30.450,62.090
11083042,-0.220,-0.318,2.295,-66.570,1.610,60.130
11083062,-0.485,-0.379,2.083,-30.520,9.240,53.830
11083082,-0.673,-0.262,2.124,-33.880,-16.660,51.940
11083102,-0.625,-0.305,2.204,-58.940,-32.970,56.910
11083121,-0.375,-0.360,2.047,-47.810,-32.620,67.830
11083137,-0.183,-0.251,1.847,-37.170,-24.360,75.950
11083162,-0.134,-0.141,1.608,-27.300,-16.240,77.770
11083182,-0.058,-0.077,1.309,-21.630,-11.830,68.390
11083202,0.029,-0.119,1.179,-25.690,5.250,59.990
11083220,-0.039,-0.171,1.002,-22.330,20.510,58.660
11083239,-0.086,-0.183,0.853,-11.060,8.190,56.700
11083264,-0.006,-0.104,0.799,-14.420,5.810,58.520
11083284,0.007,-0.110,0.694,-19.670,6.230,53.550
11083308,-0.061,-0.255,0.519,-12.810,10.570,44.730
11083328,-0.115,-0.306,0.362,17.570,1.960,38.920
11083348,-0.089,-0.170,0.258,37.310,-1.820,31.080
11083367,-0.102,-0.041,0.123,40.530,-12.320,27.300
11083388,-0.058,-0.005,-0.005,52.710,-44.940,14.420
11083406,-0.063,0.003,-0.035,53.690,-66.570,6.230
11083426,-0.023,0.030,-0.014,46.900,-101.570,2.100
11083450,0.177,0.044,0.073,35.560,-135.310,2.590
11083470,0.283,-0.031,0.027,62.860,-141.610,-2.310
11083490,0.330,0.001,-0.049,107.660,-163.100,-3.780
11083510,0.388,0.085,-0.213,137.270,-189.490,0.910
11083534,0.446,0.254,-0.157,117.950,-255.150,18.340
11083554,0.835,0.290,0.108,69.720,-293.090,42.280
11083574,1.196,0.091,0.035,93.030,-273.770,52.640
11083593,1.239,0.170,-0.039,129.850,-294.140,61.670
11083614,1.647,0.370,0.046,99.890,-366.240,89.460
11083631,2.079,0.336,0.071,70.980,-358.680,99.260
11083650,2.115,0.131,0.252,54.880,-338.030,114.030
11083674,1.978,0.074,0.322,63.280,-344.330,118.930
11083692,2.156,0.086,0.117,104.300,-359.800,122.150
11083712,2.409,0.176,0.113,132.860,-348.530,124.180
11083736,2.266,0.285,0.192,146.650,-323.960,116.480
11083756,2.120,0.258,0.228,178.920,-295.820,105.000
11083775,1.957,0.301,0.317,160.860,-275.590,93.310
11083794,1.915,0.362,0.380,140.280,-259.140,86.870
11083814,1.814,0.364,0.456,111.860,-233.940,79.730
11083839,1.818,0.381,0.523,75.950,-209.790,75.670
11083859,1.829,0.379,0.612,52.780,-196.420,80.220
11083878,1.831,0.354,0.742,52.500,-160.230,78.820
11083903,1.572,0.195,0.917,98.910,-95.760,67.130
11083921,1.129,0.149,0.928,138.600,-64.260,56.350
11083941,0.870,0.295,0.881,147.000,-43.470,49.140
11083962,0.843,0.325,0.796,114.450,-28.420,43.050
11083983,0.917,0.376,0.738,98.070,-0.840,29.330
11084003,0.908,0.564,0.673,72.730,23.450,12.600
11084022,0.909,0.724,0.637,25.760,39.060,-3.780
11084041,0.952,0.777,0.589,-43.610,56.140,-17.430
11084065,1.011,0.721,0.501,-122.080,74.200,-32.410
11084084,1.081,0.579,0.484,-164.850,92.330,-42.490
11084109,1.180,0.515,0.428,-192.360,113.190,-48.930
11084129,1.367,0.463,0.404,-207.410,133.980,-51.100
11084147,1.595,0.446,0.366,-201.880,161.210,-53.970
11084166,1.785,0.487,0.347,-196.210,176.330,-58.520
11084190,1.950,0.490,0.314,-196.420,206.990,-59.990
11084209,2.115,0.388,0.311,-183.190,222.600,-64.260
11084229,2.229,0.297,0.253,-136.150,250.460,-73.850
11084252,2.342,0.427,0.107,-95.620,267.120,-90.930
11084273,2.386,0.549,-0.005,-86.310,279.090,-97.230
11084292,2.249,0.516,-0.034,-96.180,280.070,-104.230
11084313,2.072,0.471,-0.030,-105.770,272.300,-108.080
11084333,1.961,0.403,-0.003,-108.920,276.640,-111.580
11084353,1.732,0.292,-0.100,-90.230,267.680,-115.290
11084373,1.571,0.304,-0.108,-98.000,253.120,-114.450
11084393,1.296,0.417,-0.221,-131.530,230.370,-101.150
11084413,1.091,0.878,-0.264,-244.650,188.090,-71.400
11084437,0.927,0.972,0.126,-558.880,97.300,19.670
11084457,1.026,-0.302,0.010,-639.100,83.300,84.210
11084477,0.920,-0.842,0.023,-372.050,140.420,83.580
11084496,0.776,-0.595,0.113,-101.850,146.650,66.500
11084516,0.986,-0.132,0.022,88.060,175.910,38.570
11084535,0.856,0.123,-0.139,121.660,187.600,27.370
11084556,0.953,-0.034,-0.050,109.200,190.610,11.060
11084580,0.694,-0.121,-0.207,103.600,221.340,-45.990
11084600,0.431,-0.069,-0.301,67.130,206.430,-43.610
11084620,0.164,0.036,-0.366,-9.730,153.720,-30.240
11084639,0.135,-0.141,-0.396,-59.570,101.990,-20.300
11084664,0.159,-0.406,-0.128,-63.420,77.210,-24.570
11084684,0.183,-0.660,0.043,-44.310,67.900,-25.130
11084708,-0.069,-1.185,-0.558,-13.930,45.220,11.760
11084728,0.479,-0.620,0.092,120.890,83.720,-9.590
11084746,0.115,-0.588,0.106,169.890,55.510,-22.120
11084766,0.242,0.071,0.477,201.950,59.360,-44.660
11084785,0.169,0.133,0.514,106.680,73.220,-46.970
11084807,-0.059,0.182,0.734,-17.360,21.910,-38.500
11084826,0.045,-0.103,0.918,-73.850,-5.670,-27.370
11084851,-0.037,-0.456,0.938,-23.660,-4.270,-11.970
11084869,-0.208,-0.249,1.235,-47.250,-54.320,5.950
11084891,0.127,-0.437,1.452,-61.810,-59.150,19.880
11084911,0.183,-0.536,1.620,-24.080,-35.280,17.640
11084935,0.237,-0.374,1.799,-31.290,-38.290,22.050
11084955,0.468,-0.638,2.144,-11.690,17.430,18.200
11084973,0.196,-0.794,2.235,58.730,37.310,10.640
11084995,-0.025,-0.528,2.476,64.190,32.340,20.720
11085018,-0.000,-0.407,2.554,-7.560,43.680,28.140
11085039,-0.264,-0.536,2.239,-35.630,39.270,24.640
11085058,-0.413,-0.742,2.108,-24.360,46.830,13.510
11085078,-0.642,-0.780,2.123,-22.610,-11.900,10.500
11085102,-0.235,-0.645,2.238,-55.160,-20.160,22.470
11085121,-0.121,-0.679,1.867,-85.260,-9.800,35.910
11085141,-0.118,-0.752,1.463,-69.230,-15.330,43.470
11085160,0.023,-0.515,1.326,-53.060,-15.680,45.010
11085180,0.082,-0.360,1.229,-60.550,-10.430,45.710
11085205,0.076,-0.322,1.104,-68.040,-2.660,49.840
11085225,0.092,-0.350,1.042,-71.820,-5.880,45.710
11085245,0.038,-0.259,1.076,-90.790,0.140,47.250
11085264,-0.043,-0.209,1.108,-164.010,-6.230,53.550
11085284,-0.009,-0.533,1.024,-179.690,-4.200,51.100
11085307,-0.041,-0.742,0.772,-77.000,38.150,32.270
11085327,-0.139,-0.531,0.482,-7.700,41.370,21.560
11085351,-0.085,-0.300,0.373,50.750,40.950,7.560
11085369,-0.134,-0.111,0.381,52.570,38.080,-10.990
11085391,-0.145,-0.199,0.288,28.980,37.730,-24.220
11085415,-0.203,-0.341,0.054,74.200,26.110,-41.300
11085435,-0.236,-0.242,-0.029,108.430,-8.120,-48.860
11085454,-0.146,-0.167,-0.058,122.990,-21.980,-56.700
11085474,-0.188,-0.267,-0.119,134.750,-29.960,-54.670
11085494,-0.249,-0.224,-0.185,123.690,-56.770,-43.960
11085513,-0.122,-0.212,-0.146,111.020,-94.080,-36.330
11085537,0.017,-0.282,-0.148,156.520,-105.490,-30.870
11085557,0.019,-0.215,-0.130,196.070,-122.710,-23.310
11085577,0.048,-0.040,-0.018,177.310,-150.290,-13.930
11085601,0.156,-0.050,0.207,154.770,-184.870,4.690
11085620,0.495,-0.086,0.295,149.800,-218.190,24.990
11085641,0.999,-0.259,0.212,191.520,-203.000,39.970
11085660,1.121,-0.283,-0.079,282.240,-175.140,47.880
11085682,1.013,0.306,-0.031,274.260,-196.630,63.840
11085706,1.110,0.725,0.334,85.750,-242.550,87.220
11085726,1.206,0.220,0.340,40.180,-231.560,94.920
11085744,1.254,-0.089,0.219,97.930,-213.640,85.330
11085766,1.196,-0.047,0.089,154.980,-198.450,70.910
11085786,1.143,0.083,0.090,143.990,-210.700,82.950
11085803,1.255,0.107,0.080,126.070,-221.620,98.560
11085822,1.506,0.057,-0.009,139.510,-233.170,116.620
11085842,1.778,0.074,-0.112,169.960,-248.780,116.900
11085867,2.121,0.252,-0.111,215.880,-245.000,132.230
11085887,2.337,0.441,-0.127,217.770,-230.020,148.960
11085907,2.523,0.529,-0.152,212.660,-246.960,163.590
11085931,2.935,0.593,-0.117,211.120,-238.700,175.210
11085951,2.858,0.649,-0.018,218.260,-209.510,187.040
11085970,2.598,0.738,0.102,220.220,-192.150,193.130
11085989,2.189,0.808,0.240,204.260,-164.640,187.390
11086009,1.781,0.799,0.336,172.830,-141.610,169.820
11086033,1.463,0.770,0.349,130.970,-125.160,144.900
11086053,1.274,0.668,0.315,79.170,-109.620,130.340
11086071,1.220,0.595,0.312,63.770,-97.370,111.860
11086093,1.111,0.677,0.490,50.120,-88.130,98.560
11086113,1.077,0.659,0.702,27.790,-56.070,81.900
11086133,0.940,0.530,0.840,48.020,-34.860,61.600
11086151,0.884,0.609,0.940,65.870,-12.530,40.810
11086173,0.814,0.752,0.975,45.080,23.590,13.020
11086192,0.854,0.848,0.917,11.690,42.140,-16.170
11086212,0.932,0.927,0.748,-45.920,67.060,-46.760
11086236,1.024,0.838,0.590,-105.770,87.150,-84.840
11086256,1.153,0.687,0.381,-152.180,117.110,-106.960
11086275,1.241,0.645,0.226,-182.070,130.340,-118.300
11086299,1.407,0.636,0.151,-234.080,146.090,-120.750
11086319,1.688,0.500,0.077,-249.410,161.770,-121.450
11086338,1.890,0.350,0.047,-238.210,183.260,-119.770
11086362,2.083,0.266,0.078,-199.220,203.070,-129.360
11086382,2.236,0.266,0.070,-130.060,229.040,-139.790
11086402,2.214,0.455,0.036,-113.960,237.650,-146.930
11086420,2.100,0.508,-0.097,-117.320,234.010,-154.630
11086437,1.969,0.439,-0.216,-114.100,229.110,-157.850
11086461,1.823,0.402,-0.277,-111.860,218.960,-154.840
11086480,1.605,0.473,-0.355,-132.580,206.990,-148.610
