Millis,AccelX,AccelY,AccelZ,GyroX,GyroY,GyroZ
10976985,0.657,0.042,0.770,3.010,-21.630,-5.110
10977004,0.663,0.052,0.771,-0.490,-24.080,-6.230
10977028,0.676,0.039,0.768,-0.840,-27.510,-9.100
10977046,0.685,0.029,0.759,2.030,-29.540,-11.060
10977067,0.695,0.053,0.725,-2.450,-32.060,-12.320
10977083,0.703,0.039,0.709,-4.550,-34.720,-12.810
10977103,0.720,0.033,0.704,-8.050,-36.330,-14.140
10977128,0.746,0.006,0.724,-6.720,-37.380,-16.240
10977146,0.764,0.036,0.739,-4.270,-37.100,-17.710
10977166,0.774,0.017,0.702,-13.720,-38.570,-15.050
10977190,0.798,0.020,0.676,-17.080,-37.170,-10.360
10977210,0.796,-0.015,0.705,-15.750,-36.890,-6.300
10977230,0.826,0.025,0.739,-32.200,-33.040,-3.010
10977247,0.846,0.028,0.806,-37.940,-21.350,-1.960
10977270,0.809,0.024,0.839,-40.040,-13.300,-0.700
10977289,0.795,-0.000,0.830,-43.050,-8.610,0.490
10977309,0.780,-0.037,0.818,-43.190,-5.040,1.470
10977333,0.743,-0.064,0.807,-35.700,-1.680,2.730
10977349,0.715,-0.072,0.806,-26.810,-1.120,3.500
10977369,0.698,-0.073,0.786,-16.100,-0.910,3.360
10977388,0.671,-0.071,0.770,-6.790,-3.430,2.870
10977413,0.670,-0.055,0.767,0.000,-5.530,1.120
10977433,0.667,-0.041,0.763,6.230,-7.140,-1.120
10977450,0.677,-0.048,0.758,7.070,-8.820,-2.870
10977469,0.706,-0.047,0.762,9.240,-10.220,-4.550
10977492,0.721,-0.040,0.758,8.050,-10.010,-5.250
10977514,0.749,-0.067,0.873,7.980,-9.100,-4.550
10977534,0.764,-0.062,0.750,9.450,-6.790,-3.080
10977558,0.770,-0.057,0.743,9.940,-3.850,-0.280
10977578,0.779,-0.070,0.732,10.780,-1.610,1.610
10977599,0.783,-0.067,0.720,11.690,-0.560,3.150
10977617,0.778,-0.072,0.714,14.210,-0.980,4.550
10977640,0.767,-0.036,0.703,14.560,-1.400,6.440
10977658,0.766,-0.042,0.709,14.210,-1.470,7.070
10977682,0.765,-0.039,0.707,18.830,-1.120,7.140
10977701,0.758,-0.008,0.710,19.670,-1.680,6.930
10977722,0.764,0.019,0.723,13.160,-1.260,6.020
10977742,0.765,0.022,0.725,5.740,-0.910,4.410
10977762,0.762,-0.008,0.701,7.140,0.070,2.660
10977781,0.772,-0.020,0.687,15.610,-0.560,2.450
10977805,0.774,0.015,0.704,14.770,0.070,2.590
10977825,0.773,0.036,0.708,2.660,0.420,2.030
10977841,0.772,0.008,0.689,-2.170,0.840,0.770
10977860,0.771,-0.002,0.674,-2.660,0.420,-0.350
10977885,0.776,-0.032,0.665,2.660,-0.420,-0.770
10977904,0.778,-0.036,0.657,11.340,-2.030,0.000
10977925,0.781,0.004,0.701,11.550,-1.820,0.280
10977945,0.770,0.019,0.700,2.940,-2.590,-0.280
10977963,0.767,0.009,0.693,-1.260,-4.130,-1.050
10977983,0.768,-0.006,0.690,-1.400,-4.130,-2.100
10978007,0.762,-0.007,0.689,3.850,-4.480,-2.520
10978027,0.766,0.008,0.703,1.610,-4.130,-3.150
10978046,0.767,0.004,0.696,-1.890,-3.430,-3.780
10978066,0.765,-0.011,0.692,-3.150,-3.150,-4.060
10978090,0.764,-0.009,0.692,-4.270,-3.360,-3.990
10978110,0.760,-0.039,0.681,-1.820,-3.780,-3.780
10978130,0.760,-0.019,0.686,-0.560,-4.480,-3.430
10978146,0.761,-0.030,0.682,1.400,-5.530,-3.010
10978165,0.762,-0.020,0.696,3.080,-7.140,-2.520
10978190,0.761,-0.014,0.699,1.470,-7.910,-2.170
10978209,0.763,-0.016,0.698,0.980,-8.260,-1.820
10978230,0.766,-0.013,0.693,0.350,-8.890,-1.400
10978249,0.765,-0.004,0.697,-17.920,-9.100,-1.400
10978268,0.764,0.014,0.703,-2.170,-10.150,-1.470
10978293,0.766,0.045,0.710,-7.140,-10.780,-2.310
10978313,0.770,0.060,0.708,-16.170,-9.520,-4.760
10978336,0.734,0.030,0.695,-26.810,-22.330,-2.170
10978359,0.819,-0.007,0.645,-34.580,-29.820,-5.460
10978383,0.811,-0.049,0.607,-48.650,-35.560,-5.460
10978403,0.748,0.061,0.542,-70.000,-36.680,-10.920
10978423,0.774,0.053,0.477,-110.740,-44.870,-4.060
10978442,0.803,0.114,0.457,-148.750,-46.830,-15.960
10978465,0.819,0.062,0.411,-196.630,-51.730,-22.330
10978487,0.871,-0.007,0.392,-226.660,-53.480,-31.500
10978505,0.897,-0.067,0.387,-236.110,-52.290,-38.920
10978528,0.953,-0.142,0.399,-234.010,-44.800,-46.060
10978551,0.969,-0.202,0.385,-222.880,-35.770,-51.100
10978572,0.976,-0.254,0.366,-201.460,-31.430,-53.270
10978589,0.986,-0.280,0.372,-181.860,-27.860,-53.410
10978613,0.985,-0.283,0.364,-155.540,-23.030,-52.640
10978633,0.977,-0.293,0.354,-140.910,-22.120,-50.470
10978657,0.977,-0.297,0.362,-120.960,-22.680,-47.110
10978675,0.980,-0.294,0.368,-111.790,-21.700,-44.800
10978695,0.970,-0.294,0.355,-105.350,-21.770,-41.510
10978717,0.983,-0.314,0.341,-95.410,-22.610,-39.130
10978740,0.976,-0.348,0.340,-84.490,-23.030,-36.400
10978760,0.980,-0.359,0.349,-64.890,-19.320,-34.860
10978780,0.951,-0.367,0.335,-47.530,-20.300,-30.940
10978804,0.934,-0.368,0.322,-32.410,-20.650,-25.480
10978824,0.916,-0.367,0.319,-28.840,-22.120,-21.140
10978841,0.950,-0.334,0.346,-35.490,-16.590,-19.040
10978864,0.944,-0.385,0.341,-29.120,-19.530,-12.390
10978885,0.980,-0.380,0.371,-31.570,-9.590,-8.610
10978909,0.980,-0.431,0.344,-17.920,-8.260,-0.070
10978929,0.978,-0.428,0.308,14.910,-4.690,3.430
10978949,0.940,-0.368,0.287,26.810,-8.400,9.030
10978968,0.966,-0.293,0.306,33.880,-3.500,8.610
10978989,0.939,-0.243,0.287,27.930,-4.270,13.440
10979009,0.959,-0.264,0.290,17.150,-2.240,16.940
10979033,0.944,-0.285,0.275,12.250,-1.820,20.720
10979053,0.905,-0.310,0.149,3.360,23.520,-17.220
10979071,1.113,-0.224,0.336,46.340,-9.520,22.750
10979091,0.913,-0.400,0.227,55.090,-12.040,25.830
10979115,0.971,-0.353,0.238,83.720,-13.090,27.160
10979134,0.957,-0.186,0.268,66.640,-8.470,31.010
10979155,0.860,-0.264,0.246,62.370,-8.260,28.630
10979179,0.924,-0.168,0.255,47.880,0.070,27.230
10979199,0.863,-0.267,0.191,49.280,-14.700,24.290
10979218,0.897,-0.215,0.223,31.850,-8.680,28.700
10979235,0.950,-0.208,0.268,36.680,-4.620,22.190
10979254,0.918,-0.301,0.237,41.160,-10.780,22.190
10979279,0.924,-0.252,0.232,44.100,-11.760,17.430
10979298,0.946,-0.231,0.244,46.760,-10.640,12.460
10979316,0.931,-0.241,0.248,47.040,-12.320,9.590
10979339,0.921,-0.245,0.255,43.260,-13.160,5.950
10979358,0.941,-0.246,0.256,42.350,-12.110,1.190
10979383,0.961,-0.249,0.251,42.280,-12.740,-4.620
10979403,0.985,-0.255,0.254,41.720,-11.690,-9.310
10979420,0.998,-0.260,0.263,40.110,-10.920,-12.320
10979439,0.993,-0.244,0.271,35.770,-8.330,-15.050
10979464,0.966,-0.244,0.276,25.900,-4.200,-13.930
10979484,0.945,-0.226,0.267,15.750,-0.840,-11.690
10979504,0.938,-0.226,0.257,3.920,0.700,-9.100
10979523,0.968,-0.238,0.255,-5.810,3.500,-7.770
10979542,0.970,-0.258,0.250,-10.850,5.600,-7.490
10979561,0.964,-0.275,0.244,-12.040,6.300,-7.910
10979584,0.970,-0.286,0.239,-9.590,4.760,-10.150
10979608,0.971,-0.292,0.240,-7.700,4.130,-13.440
10979628,0.960,-0.293,0.233,-6.440,2.940,-15.120
10979647,0.939,-0.286,0.230,-7.210,1.400,-15.820
10979666,0.928,-0.296,0.229,-7.560,0.140,-16.030
10979690,0.919,-0.305,0.232,-5.530,-2.520,-15.470
10979710,0.924,-0.306,0.242,-2.030,-3.360,-15.120
10979730,0.928,-0.312,0.244,2.660,-3.850,-14.420
10979750,0.935,-0.306,0.236,3.570,-4.970,-13.720
10979770,0.943,-0.304,0.232,3.500,-6.160,-12.460
10979794,0.951,-0.306,0.248,3.570,-7.070,-9.030
10979814,0.971,-0.291,0.271,4.410,-6.090,-3.710
10979829,0.964,-0.268,0.277,4.830,-5.320,0.630
10979854,1.006,-0.257,0.343,11.480,-6.440,7.840
10979873,1.025,-0.066,0.358,21.210,12.670,3.850
10979894,0.815,0.251,0.328,-18.480,0.280,-12.880
10979914,0.885,0.167,0.494,-33.740,3.080,-33.250
10979934,0.877,0.049,0.492,-19.110,17.430,-42.490
10979953,0.822,0.137,0.398,-9.520,17.220,-49.910
10979977,0.779,0.271,0.358,-10.640,5.600,-55.930
10979997,0.911,0.284,0.433,-29.470,2.030,-56.280
10980016,0.973,0.245,0.414,-52.990,8.960,-53.760
10980036,0.911,0.208,0.356,-67.340,10.640,-52.150
10980060,0.844,0.122,0.332,-59.080,4.200,-51.870
10980076,0.806,0.162,0.309,-61.880,2.100,-56.140
10980100,0.795,0.085,0.309,-64.540,-3.640,-62.440
10980119,0.776,0.067,0.259,-66.080,-5.460,-65.310
10980136,0.732,0.085,0.233,-78.120,-14.000,-70.980
10980155,0.755,0.029,0.280,-81.970,-18.270,-73.850
10980180,0.766,0.095,0.223,-98.350,-18.060,-76.440
10980197,0.782,0.057,0.214,-116.060,-22.680,-75.950
10980221,0.785,-0.005,0.183,-113.890,-18.620,-73.850
10980241,0.762,-0.049,0.183,-88.760,-21.840,-68.040
10980261,0.758,0.003,0.176,-50.680,-24.990,-61.040
10980281,0.721,0.055,0.187,-18.270,-21.630,-53.550
10980299,0.630,0.032,0.148,26.460,-25.340,-48.230
10980321,0.700,0.145,0.111,61.530,-33.040,-47.600
10980341,0.740,0.194,0.056,63.840,-35.910,-53.620
10980365,0.900,0.202,0.045,36.540,-37.240,-60.130
10980385,0.979,0.236,-0.041,-2.730,-34.860,-67.130
10980403,0.994,0.120,-0.018,-18.200,-34.790,-72.660
10980421,0.968,-0.046,0.007,3.570,-34.440,-70.560
10980440,0.952,0.018,-0.007,26.110,-37.660,-62.930
10980461,1.000,0.037,0.023,38.990,-39.970,-52.850
10980480,1.113,0.081,0.029,36.680,-42.070,-40.390
10980500,1.233,0.156,-0.019,25.620,-24.500,-29.190
10980520,1.155,0.275,-0.068,-6.300,-22.750,-17.150
10980545,1.099,0.209,-0.005,-36.750,-23.870,-2.940
10980561,1.092,0.212,0.060,-39.480,-26.600,4.130
10980585,1.121,0.257,0.070,-36.540,-26.180,6.300
10980603,1.159,0.131,0.061,-23.870,-26.320,6.860
10980627,1.087,0.142,-0.008,-3.150,-25.970,9.800
10980647,1.117,0.150,0.026,9.240,-24.570,12.740
10980666,1.159,0.304,0.053,1.540,-24.080,13.090
10980684,1.137,0.239,0.025,-19.390,-21.070,17.500
10980703,1.135,0.192,0.028,-34.720,-19.600,23.660
10980727,1.144,0.308,0.043,-35.560,-24.570,25.690
10980748,1.136,0.341,0.053,-49.630,-20.580,23.520
10980768,1.086,0.244,0.050,-51.730,-26.880,25.270
10980788,1.163,0.191,0.102,-23.450,-29.890,23.870
10980808,1.256,0.360,0.135,-10.710,-27.580,20.440
10980827,1.258,0.330,0.096,-19.110,-28.420,20.650
10980851,1.367,0.372,0.179,-6.440,-34.720,27.160
10980871,1.448,0.265,0.172,-14.140,-27.230,28.700
10980890,1.409,0.461,0.278,38.430,-22.820,20.020
10980910,1.425,0.816,0.359,1.470,-9.450,12.460
10980934,1.424,0.611,0.192,-29.260,-8.120,4.900
10980954,1.385,0.485,0.145,-35.420,-11.620,3.780
10980972,1.390,0.336,0.090,-10.080,-9.450,5.950
10980993,1.441,0.287,0.096,8.190,-15.190,8.610
10981016,1.387,0.287,0.037,18.130,-11.970,13.440
10981037,1.279,0.367,-0.014,13.300,-16.940,12.950
10981057,1.337,0.241,-0.005,16.100,-31.080,12.950
10981077,1.444,0.205,0.022,28.350,-16.730,15.820
10981096,1.339,0.200,-0.017,23.450,-21.770,15.890
10981114,1.344,0.209,-0.031,16.030,-19.670,14.700
10981138,1.393,0.206,-0.007,3.640,-14.630,12.600
10981158,1.356,0.209,0.008,-6.160,-6.020,12.950
10981176,1.283,0.205,0.016,-17.780,1.610,15.050
10981200,1.260,0.176,0.016,-38.360,10.150,22.680
10981218,1.193,0.185,0.002,-51.240,16.940,28.770
10981240,1.026,0.169,0.015,-68.040,23.800,33.110
10981264,0.965,0.059,0.077,-59.570,28.910,35.770
10981284,0.885,0.006,0.096,-46.760,36.190,37.380
10981308,0.797,0.043,0.080,-45.290,54.880,32.550
10981328,0.643,-0.010,0.025,-33.390,53.130,26.110
10981347,0.627,-0.044,0.102,0.350,50.470,16.940
10981371,0.689,0.081,0.139,-1.050,57.820,4.550
10981390,0.709,0.045,0.115,-28.560,63.840,-3.920
10981414,0.731,0.019,0.113,-44.380,64.890,-8.330
10981434,0.824,-0.063,0.169,-31.150,72.520,-6.160
10981452,0.949,-0.019,0.201,-14.280,76.090,1.050
10981472,1.011,0.017,0.194,-9.590,85.470,13.860
10981495,1.118,-0.028,0.287,6.650,75.740,35.560
10981516,1.612,-0.020,0.365,35.210,118.930,59.080
10981536,1.469,0.020,0.317,23.800,172.830,76.440
10981560,1.390,0.007,0.604,6.090,188.580,85.540
10981578,1.425,-0.127,0.806,31.640,201.180,83.510
10981602,1.310,-0.083,0.830,51.310,246.400,54.950
10981621,1.191,0.002,0.882,99.820,248.220,24.220
10981640,1.110,0.135,1.031,126.140,255.710,-7.280
10981659,1.041,0.284,1.138,119.420,260.820,-42.280
10981682,0.893,0.322,1.189,87.080,252.490,-77.490
10981701,0.986,0.288,1.190,65.030,252.700,-94.920
10981723,1.106,0.015,1.185,64.400,262.080,-111.230
10981745,1.061,-0.068,1.164,90.370,279.510,-133.350
10981768,1.219,-0.521,1.230,67.340,187.950,-131.530
10981789,1.258,-0.338,0.862,41.930,305.900,-115.920
10981809,1.513,-0.398,0.696,22.470,293.230,-96.180
10981828,1.785,-0.597,0.235,-67.690,250.880,-56.280
10981853,1.395,-0.921,0.314,75.250,332.220,-41.860
10981871,0.910,-0.548,0.176,135.590,297.850,-17.990
10981890,0.587,-0.242,0.095,140.560,337.540,-8.050
10981915,-0.168,0.202,-0.208,119.980,338.170,1.470
10981935,-0.483,0.432,-0.326,71.610,266.630,-16.030
10981959,-0.765,0.346,-0.297,1.820,305.200,-41.650
10981979,-1.113,0.428,-0.352,-38.220,175.350,-57.540
10981999,-0.938,0.516,-0.188,-78.470,160.370,-79.450
10982019,-0.958,0.346,-0.114,-86.520,118.930,-88.900
10982038,-0.814,0.201,-0.045,-82.530,103.180,-99.470
10982062,-0.670,0.063,0.024,-58.240,91.420,-108.570
10982082,-0.575,0.078,0.042,-54.250,87.920,-113.190
10982100,-0.457,0.025,0.018,-67.060,87.990,-116.830
10982120,-0.391,-0.157,-0.147,-88.200,97.650,-106.400
10982143,-0.738,-0.228,-0.434,-98.280,82.670,-82.600
10982162,-1.018,-0.152,-0.481,-25.200,45.010,-54.040
10982184,-0.899,-0.139,-0.082,86.380,-9.940,-26.180
10982203,-0.919,0.006,-0.174,104.160,4.830,0.000
10982227,-1.179,0.043,-0.518,62.860,5.040,17.010
10982247,-1.219,-0.048,-0.483,57.260,-37.520,26.180
10982268,-1.224,0.124,-0.237,76.440,-48.300,37.730
10982288,-1.269,0.184,-0.149,72.240,-74.760,42.420
10982304,-1.208,0.085,-0.019,86.870,-100.030,45.640
10982326,-1.268,0.212,0.153,165.340,-111.650,37.730
10982350,-1.302,0.193,0.350,258.510,-145.040,32.410
10982369,-0.994,0.452,0.604,313.180,-137.830,33.530
10982389,-0.995,0.786,0.651,236.390,-127.960,33.810
10982409,-0.987,0.893,0.626,152.460,-97.230,24.010
10982433,-0.985,0.870,0.622,77.070,-83.930,17.850
10982453,-0.982,0.750,0.571,-2.800,-75.600,16.170
10982473,-0.919,0.486,0.521,-23.240,-81.200,23.310
10982493,-0.853,0.345,0.456,-56.350,-87.430,41.020
10982515,-0.618,0.237,0.402,-97.790,-93.870,68.880
10982533,-0.526,0.146,0.269,-159.040,-108.360,96.110
10982557,-0.230,0.149,0.168,-201.810,-129.010,128.870
10982575,-0.086,0.343,-0.157,-226.240,-131.460,139.720
10982597,-0.107,-0.037,-0.494,-179.620,-181.720,160.160
10982617,0.043,-0.085,-0.341,-85.330,-232.050,171.570
10982636,0.246,-0.089,-0.073,-25.480,-266.910,180.390
10982655,0.414,-0.139,0.111,16.800,-316.680,176.120
10982680,0.506,-0.014,0.273,41.300,-339.430,166.250
10982700,0.555,0.135,0.375,40.740,-394.100,154.420
10982718,0.756,0.242,0.520,62.650,-432.460,145.040
10982739,1.116,0.018,0.690,59.220,-401.520,123.830
10982762,1.065,0.130,0.473,24.010,-393.260,120.400
10982786,1.411,0.078,0.364,-22.960,-438.410,109.830
10982809,1.836,0.006,0.614,0.280,-435.540,95.550
10982828,2.032,0.087,0.739,7.210,-293.790,85.190
10982852,1.877,0.128,0.360,-3.920,-278.810,87.360
10982872,2.066,0.094,0.303,25.060,-241.360,86.800
10982892,1.880,0.251,0.557,-3.430,-215.810,90.860
10982911,1.836,0.141,0.703,-19.530,-213.430,85.890
10982934,1.792,0.149,0.710,-2.100,-187.740,106.190
10982955,1.666,0.378,0.608,-11.830,-156.030,99.120
10982973,2.011,1.352,0.926,-204.190,-73.640,129.290
10982995,1.091,0.379,0.592,-183.610,-37.870,123.550
10983019,0.712,-0.879,0.231,-233.240,-140.280,144.550
10983039,2.119,0.365,1.268,-123.340,118.090,48.930
10983059,0.563,0.123,0.513,-152.180,55.510,46.340
10983083,0.540,0.094,0.461,-125.440,-8.960,20.370
10983100,0.912,-0.016,0.313,-94.710,-37.940,37.660
10983120,0.641,0.360,0.300,-67.970,21.770,-28.210
10983140,0.712,0.012,0.025,-163.730,-2.310,13.930
10983163,0.706,-0.162,-0.035,-137.760,-10.640,-14.140
10983187,0.816,-0.264,0.008,-99.470,4.900,-19.880
10983207,0.668,-0.169,-0.075,-63.560,9.170,-12.740
10983225,0.549,-0.203,-0.068,-42.910,-3.010,-17.640
10983244,0.694,-0.259,-0.034,-5.740,-18.550,-17.990
10983264,0.842,-0.116,-0.064,10.920,2.520,-21.280
10983288,0.721,-0.023,-0.151,0.350,2.100,-24.850
10983308,0.713,-0.102,-0.132,2.800,-10.430,-29.190
10983327,0.767,-0.281,0.027,38.150,-20.510,-25.200
10983348,0.843,-0.199,-0.007,99.820,-13.790,-20.090
10983368,0.807,-0.005,-0.171,109.270,-34.230,-15.820
10983392,1.102,0.117,-0.203,93.310,-19.530,-18.270
10983412,0.962,0.105,-0.132,63.630,-2.730,-29.540
10983429,0.803,0.070,-0.133,68.530,-2.240,-38.150
10983452,0.680,0.027,-0.192,93.310,2.870,-47.670
10983472,0.941,0.124,-0.253,33.670,-22.610,-53.410
10983495,1.211,0.058,-0.313,7.490,-11.410,-58.240
10983516,1.008,-0.087,-0.202,28.770,12.250,-53.970
10983535,0.906,0.052,-0.233,50.680,9.170,-53.270
10983559,1.172,-0.029,-0.229,47.880,-19.390,-50.680
10983578,1.370,-0.010,-0.179,57.120,24.500,-42.980
10983596,1.192,0.235,-0.359,50.260,28.980,-29.330
10983619,1.311,0.329,-0.454,-11.340,-14.210,-28.560
10983638,1.390,0.105,-0.262,7.630,3.780,-17.010
10983663,1.085,0.140,-0.194,46.060,-25.620,-4.340
10983679,1.303,0.535,0.032,26.950,-60.480,-4.480
10983703,1.602,0.300,0.018,-0.910,-5.110,15.750
10983723,1.576,0.599,-0.176,-74.830,6.720,3.150
10983747,1.403,0.368,-0.015,-75.460,-5.110,2.660
10983767,1.521,0.609,0.175,-68.180,11.830,-3.290
10983787,1.404,0.290,0.117,-27.720,-3.850,-9.660
10983802,1.420,0.284,0.143,0.420,-8.680,-10.850
10983825,1.411,0.335,0.106,26.390,-5.530,-4.550
10983844,1.431,0.313,0.075,15.260,-6.440,4.690
10983868,1.403,0.285,0.046,13.790,-17.080,9.240
10983889,1.471,0.294,0.102,0.000,-9.730,10.290
10983909,1.433,0.227,0.008,-13.370,-12.250,16.450
10983932,1.443,0.196,-0.104,-18.900,-15.540,25.970
10983956,1.366,0.155,-0.107,-16.800,-24.010,32.340
10983976,1.368,0.067,-0.148,26.810,-30.450,34.510
10983994,1.435,0.047,-0.145,60.130,-29.050,36.610
10984013,1.388,0.201,-0.169,62.020,-25.410,35.210
10984033,1.319,0.262,-0.155,57.680,-18.270,29.750
10984057,1.283,0.283,-0.120,39.830,-4.690,18.970
10984077,1.203,0.267,-0.162,45.430,9.940,-5.040
10984097,1.200,0.340,-0.182,55.160,18.970,-32.340
10984120,1.215,0.317,-0.134,21.420,25.900,-56.560
10984139,1.179,0.249,-0.127,-44.520,16.450,-71.680
10984163,1.268,0.097,-0.221,-83.160,23.940,-51.940
10984187,1.167,0.142,-0.159,-112.350,22.960,-32.690
10984207,1.139,0.024,-0.018,-109.830,25.130,-12.600
10984227,1.057,0.024,0.032,-86.450,39.480,8.120
10984246,0.929,0.027,0.045,-75.600,48.440,25.620
10984266,0.840,-0.150,0.060,-66.500,42.280,45.360
10984289,0.835,-0.060,0.105,-41.930,52.850,68.110
10984310,0.724,-0.082,0.071,-36.820,57.960,86.730
10984329,0.653,-0.099,0.054,-19.670,53.130,99.820
10984348,0.631,-0.121,0.105,2.310,54.670,107.240
10984372,0.583,-0.233,0.139,47.180,54.040,110.460
10984390,0.564,-0.235,0.177,77.980,54.670,106.680
10984408,0.510,-0.261,0.284,125.860,52.850,98.280
10984427,0.614,-0.262,0.430,186.830,62.930,82.600
10984447,0.737,-0.083,0.355,203.910,81.270,59.710
10984472,0.782,0.091,0.143,128.030,84.700,27.580
10984492,0.870,0.018,0.142,82.600,75.740,8.960
10984512,0.946,-0.041,0.205,77.840,61.250,-4.550
10984532,1.354,-0.040,0.283,87.500,54.810,-4.830
10984554,1.279,0.048,0.282,104.230,86.590,-3.430
10984578,1.152,0.237,0.264,107.310,82.950,-6.580
10984597,1.122,0.361,0.195,74.760,82.530,-17.220
10984618,0.934,0.403,0.156,28.350,77.140,-35.350
10984636,0.849,0.369,0.211,1.120,62.790,-53.970
10984658,0.851,0.315,0.280,-8.610,49.560,-84.560
10984674,0.864,0.217,0.326,-14.210,50.540,-99.750
10984693,0.817,0.199,0.280,-15.190,50.470,-119.000
10984718,0.761,0.319,0.171,-28.350,54.670,-136.010
10984738,0.561,0.313,0.091,-55.790,55.510,-148.820
10984758,0.375,0.229,0.164,-73.570,34.790,-162.610
10984777,0.533,0.091,0.302,-74.760,17.220,-170.590
10984801,0.652,-0.026,0.468,-63.280,8.330,-178.990
10984820,0.729,-0.149,0.540,-27.790,10.290,-180.670
10984841,0.730,-0.281,0.541,22.260,8.960,-168.560
10984860,0.681,-0.197,0.608,70.210,-7.140,-154.700
10984880,0.766,-0.096,0.868,102.200,-27.860,-139.650
10984904,0.925,0.033,0.878,110.040,-7.210,-111.580
10984921,0.841,0.131,0.887,101.500,6.510,-90.650
10984941,0.760,0.163,0.852,89.250,8.820,-66.570
10984960,0.771,0.247,0.820,83.580,13.860,-47.110
10984985,0.763,0.345,0.699,60.550,28.560,-23.520
10985005,0.710,0.394,0.563,35.770,32.620,-9.730
10985024,0.583,0.421,0.491,25.130,33.670,4.200
10985044,0.544,0.520,0.446,18.970,45.290,19.250
10985065,0.395,0.671,0.354,-0.910,31.780,20.440
10985084,0.381,0.634,0.354,-17.990,22.820,18.970
10985104,0.393,0.549,0.341,-14.490,10.990,17.220
10985123,0.380,0.538,0.308,1.960,-3.990,20.930
10985147,0.380,0.623,0.315,23.730,-22.120,24.640
10985165,0.459,0.694,0.337,33.670,-34.090,25.900
10985188,0.561,0.454,0.288,65.870,-36.190,23.940
10985209,0.513,0.391,0.249,197.610,-36.680,41.440
10985229,0.442,0.980,0.236,165.830,-46.550,48.580
10985250,0.478,0.973,0.256,84.910,-84.420,48.230
10985270,0.800,0.796,0.392,102.970,-72.240,50.260
10985293,0.606,0.968,0.345,54.180,-87.150,54.320
10985311,0.887,0.630,0.365,52.570,-93.520,57.190
10985335,1.013,0.655,0.409,76.160,-64.820,63.770
10985355,0.874,0.739,0.390,69.440,-50.960,71.750
10985373,0.900,0.711,0.369,55.650,-37.660,77.560
10985395,0.853,0.724,0.325,16.100,-19.250,80.290
10985412,0.863,0.704,0.126,-14.000,-5.600,80.220
10985436,0.741,0.582,0.131,-47.880,4.970,77.980
10985455,0.705,0.404,0.115,-62.720,-1.330,78.050
10985479,0.848,0.226,0.162,-50.400,9.380,81.060
10985499,0.760,0.188,0.177,-37.380,11.970,83.930
10985518,0.645,0.258,0.183,-38.920,4.690,78.890
10985537,0.686,0.186,0.194,-45.990,-15.260,68.460
10985558,0.758,0.070,0.229,-27.160,-27.370,65.170
10985578,0.825,0.062,0.289,-5.040,-33.460,64.610
10985599,0.832,0.123,0.275,3.500,-36.330,64.260
10985619,0.903,0.161,0.207,2.310,-34.720,65.240
10985638,0.907,0.163,0.144,3.570,-31.710,61.320
10985663,0.982,0.243,0.108,10.150,-22.050,63.490
10985683,0.936,0.367,0.089,-27.440,-13.860,61.950
10985707,0.923,0.319,0.072,-60.690,-14.000,55.020
10985726,0.957,0.209,0.038,-76.580,-14.420,52.710
10985746,1.022,0.260,0.041,-86.450,-4.340,49.070
10985765,0.939,0.310,0.046,-97.650,-2.870,45.010
10985789,0.843,0.247,0.006,-115.920,-14.350,38.640
10985807,0.875,0.144,0.028,-109.340,-24.080,33.110
10985831,0.926,0.086,0.020,-91.840,-26.460,22.610
10985851,0.890,0.178,-0.002,-83.790,-29.050,15.540
10985869,0.830,0.148,0.015,-85.400,-33.040,8.610
10985890,0.809,0.093,0.093,-76.860,-36.820,0.560
10985914,0.822,0.033,0.091,-53.270,-41.790,-12.110
10985933,0.862,0.010,0.060,-35.280,-37.730,-18.340
10985953,0.838,0.031,0.065,-26.320,-38.920,-24.710
10985977,0.897,0.040,0.096,-15.470,-42.560,-27.370
10985996,1.052,0.124,0.097,-25.130,-24.990,-25.900
10986016,0.929,0.126,0.008,-48.790,-18.970,-21.420
10986035,0.867,0.085,0.021,-64.750,-18.060,-19.250
10986060,0.879,0.020,0.077,-52.360,-21.630,-18.340
10986079,0.910,0.109,0.024,-52.220,-16.800,-22.610
10986099,0.958,0.026,0.001,-39.060,-17.290,-25.480
10986119,1.059,0.036,-0.005,-26.530,-12.740,-27.300
10986139,1.096,0.095,0.000,-19.530,-10.500,-28.210
10986161,1.064,0.115,-0.002,-30.100,-6.020,-25.900
10986182,1.074,0.114,-0.006,-28.140,-12.320,-20.790
10986206,1.174,0.097,-0.011,-22.610,-9.520,-15.540
10986226,1.143,0.112,-0.041,-17.150,-11.830,-10.220
10986244,1.172,0.142,-0.037,-16.730,-11.340,-7.070
10986262,1.174,0.170,-0.040,-14.700,-13.650,-3.640
10986286,1.275,0.187,0.002,-14.700,-15.610,-0.140
10986302,1.317,0.221,-0.008,-21.910,-10.360,2.380
10986322,1.295,0.205,-0.038,-40.810,-14.280,8.470
10986345,1.282,0.136,-0.052,-34.790,-19.670,14.420
10986364,1.316,0.143,-0.030,-13.160,-25.830,14.560
10986385,1.359,0.113,-0.019,15.750,-30.170,10.640
10986409,1.393,0.063,0.070,82.950,-38.150,7.910
10986427,1.475,0.318,0.255,77.630,-30.800,4.620
10986448,1.549,0.178,0.350,71.400,-21.350,1.820
10986468,1.489,0.343,0.451,39.830,-4.690,6.300
10986488,1.399,0.293,0.305,-3.290,-1.610,11.760
10986512,1.423,0.177,0.236,1.120,-2.660,10.640
10986532,1.469,0.160,0.098,20.440,-0.280,8.960
10986552,1.477,0.114,0.031,23.730,-3.010,10.500
10986571,1.465,0.146,-0.041,40.740,2.730,12.250
10986595,1.424,0.192,-0.065,39.760,1.120,13.860
10986616,1.401,0.240,-0.062,29.260,-2.310,15.330
10986634,1.461,0.271,-0.056,20.020,2.520,16.520
10986651,1.408,0.271,-0.061,-2.310,6.090,18.130
10986676,1.347,0.234,-0.084,-9.870,12.110,20.020
10986695,1.277,0.258,-0.097,-19.740,7.840,19.600
10986716,1.296,0.222,-0.089,-36.540,8.960,17.570
10986733,1.274,0.161,-0.072,-35.770,10.850,15.890
10986753,1.229,0.145,-0.063,-41.370,14.350,13.720
10986777,1.161,0.078,-0.093,-41.790,15.330,11.060
10986797,1.134,0.041,-0.061,-27.930,15.610,10.150
10986815,1.096,0.068,-0.077,-25.270,18.480,7.700
10986835,1.038,0.098,-0.047,-24.080,20.720,6.370
10986855,0.948,0.073,-0.021,-27.440,20.160,3.500
10986874,0.887,-0.005,0.046,-16.520,18.970,1.120
10986894,0.850,-0.020,0.031,-4.340,20.300,0.420
10986919,0.782,-0.049,0.040,14.140,21.980,-4.480
10986939,0.706,-0.073,0.057,31.010,22.610,-7.840
10986959,0.705,-0.095,0.042,50.750,17.640,-11.340
10986978,0.742,-0.046,0.066,50.960,22.190,-14.210
10987003,0.661,-0.037,0.048,58.660,19.390,-15.540
10987019,0.694,-0.074,0.091,62.580,18.200,-14.980
10987043,0.802,-0.010,0.095,64.750,21.700,-11.130
10987061,0.788,0.051,0.070,60.830,24.640,-12.880
10987085,0.853,0.064,0.103,46.410,23.030,-12.250
10987105,0.908,0.070,0.102,31.080,26.390,-14.490
10987125,0.932,0.136,0.097,21.140,30.030,-20.720
10987146,0.933,0.136,0.122,2.450,29.540,-26.810
10987169,0.957,0.098,0.153,-4.340,32.620,-32.550
10987190,0.958,0.158,0.170,-7.630,40.110,-37.730
10987210,0.914,0.184,0.144,-10.640,41.160,-43.680
10987230,0.926,0.200,0.140,-21.210,44.520,-51.030
10987250,0.925,0.155,0.173,-21.140,51.030,-58.870
10987266,0.894,0.133,0.217,-21.980,50.470,-60.410
10987286,0.903,0.163,0.246,-16.590,52.430,-65.520
10987310,0.894,0.153,0.240,-8.190,54.180,-69.230
10987330,0.877,0.165,0.276,-3.220,54.880,-69.790
10987350,0.885,0.143,0.297,-6.230,57.680,-70.070
10987368,0.907,0.158,0.321,-5.600,63.700,-71.960
10987385,0.907,0.144,0.357,6.440,59.500,-64.820
10987410,0.875,0.246,0.377,-2.310,71.820,-62.860
10987426,0.844,0.191,0.359,-9.730,65.870,-59.220
10987446,0.828,0.140,0.384,-0.140,64.820,-57.120
10987470,0.831,0.117,0.410,18.130,60.480,-54.670
10987490,0.818,0.177,0.444,28.280,61.040,-51.030
10987509,0.786,0.174,0.459,39.480,54.880,-49.350
10987528,0.793,0.223,0.493,49.770,59.710,-47.880
10987546,0.714,0.348,0.509,54.530,60.200,-46.690
10987566,0.663,0.401,0.505,41.370,61.670,-47.530
10987590,0.615,0.427,0.484,26.180,64.750,-46.900
10987610,0.541,0.457,0.466,16.800,65.520,-44.660
10987630,0.502,0.471,0.457,9.170,62.860,-43.260
10987649,0.466,0.453,0.443,3.430,55.860,-41.230
10987669,0.444,0.419,0.449,3.640,48.020,-38.430
10987688,0.477,0.366,0.471,15.890,36.050,-32.480
10987711,0.430,0.379,0.475,38.920,25.410,-19.530
10987735,0.430,0.491,0.473,52.570,7.210,-5.880
10987753,0.462,0.607,0.473,51.800,0.490,2.450
10987773,0.482,0.667,0.466,36.820,-16.380,12.320
10987796,0.545,0.646,0.461,27.440,-22.470,25.760
10987816,0.587,0.708,0.475,23.310,-28.980,35.560
10987838,0.596,0.721,0.468,17.220,-37.730,47.880
10987854,0.659,0.739,0.468,11.200,-40.670,55.440
10987878,0.671,0.763,0.444,-5.040,-37.660,63.980
10987896,0.700,0.741,0.434,-16.520,-42.350,68.040
10987920,0.699,0.701,0.418,-30.800,-42.070,71.120
10987940,0.686,0.606,0.404,-39.130,-46.900,72.450
10987960,0.697,0.498,0.392,-37.240,-54.670,73.010
10987980,0.808,0.375,0.387,-31.150,-48.230,73.570
10988004,0.743,0.298,0.344,-21.630,-46.200,76.230
10988023,0.788,0.212,0.337,-11.410,-51.240,76.930
10988046,0.933,0.279,0.345,-12.180,-38.710,77.840
10988067,0.877,0.302,0.315,-32.690,-28.980,77.140
10988091,0.819,0.249,0.307,-56.280,-26.460,73.290
10988111,0.828,0.155,0.298,-67.970,-31.920,73.010
10988128,0.891,0.120,0.314,-76.580,-24.010,71.330
10988153,0.858,0.129,0.314,-87.010,-18.620,64.050
10988171,0.778,0.053,0.305,-94.010,-28.560,58.310
10988191,0.753,-0.019,0.290,-96.250,-35.630,52.920
10988213,0.825,-0.120,0.297,-86.100,-44.520,47.180
10988232,0.864,-0.113,0.305,-68.530,-43.330,41.440
10988251,0.843,-0.107,0.333,-57.470,-50.120,37.450
10988270,0.900,-0.104,0.328,-49.840,-56.280,32.130
10988295,0.958,-0.103,0.341,-42.490,-57.260,27.650
10988315,0.921,-0.070,0.326,-43.750,-55.300,24.500
10988335,0.752,-0.081,0.306,-43.260,-57.050,21.770
10988355,0.819,-0.094,0.279,-37.170,-59.080,20.090
10988375,0.775,-0.141,0.286,-25.270,-66.430,18.060
10988395,0.824,-0.129,0.318,-7.840,-65.520,14.980
10988414,0.774,-0.091,0.273,3.990,-63.980,11.410
10988435,0.719,-0.061,0.215,8.050,-67.060,5.390
10988454,0.757,-0.124,0.234,21.910,-70.980,1.470
10988477,0.805,-0.054,0.258,33.110,-61.810,-3.220
10988494,0.808,-0.005,0.233,28.490,-56.070,-5.950
10988514,0.784,-0.005,0.196,26.390,-49.840,-9.870
10988538,0.803,-0.045,0.215,32.550,-42.910,-13.650
10988558,0.819,-0.021,0.215,36.820,-33.810,-16.940
10988578,0.935,-0.009,0.204,41.860,-22.470,-20.510
10988597,0.998,0.068,0.138,32.550,-10.360,-20.860
10988621,0.988,0.095,0.070,16.590,3.150,-20.790
10988641,0.972,0.106,0.050,5.460,7.630,-20.720
10988660,1.020,0.081,0.073,-4.480,8.400,-21.000
10988679,1.069,0.054,0.041,-2.380,11.760,-21.420
10988703,1.215,0.079,0.047,8.330,17.850,-25.620
10988723,1.254,0.181,0.005,-6.720,18.340,-29.540
10988743,1.279,0.176,-0.030,-33.740,20.440,-26.670
10988763,1.236,0.142,-0.082,-59.570,16.240,-17.290
10988783,1.154,0.163,-0.025,-55.650,4.620,-13.510
10988803,1.253,0.050,0.041,-28.350,-1.470,-12.950
10988820,1.279,0.140,0.000,-13.720,0.350,-13.300
10988839,1.194,0.142,-0.039,-12.110,-12.600,-14.700
10988864,1.290,0.180,0.012,10.080,-8.050,-11.900
10988884,1.271,0.203,0.087,8.470,-11.690,-9.940
10988901,1.236,0.297,0.091,7.910,-16.240,-9.450
10988924,1.223,0.253,0.095,0.630,-15.610,-13.160
10988945,1.270,0.209,0.099,5.810,-21.910,-16.660
10988963,1.260,0.176,0.108,12.950,-22.890,-17.920
10988985,1.220,0.132,0.156,28.980,-21.000,-15.610
10989005,1.147,0.197,0.137,35.350,-24.850,-11.830
10989028,1.095,0.225,0.131,32.760,-25.900,-8.750
10989048,1.098,0.180,0.144,28.350,-20.020,-8.190
10989067,1.069,0.191,0.095,28.630,-14.140,-8.330
10989091,1.010,0.208,0.064,21.350,-14.490,-10.010
10989113,0.990,0.174,0.071,19.600,-15.680,-8.680
10989133,0.996,0.372,0.088,12.670,-11.480,-7.210
10989154,1.033,0.154,0.098,10.290,-11.410,-7.070
10989175,1.006,0.149,0.063,33.670,-10.220,-7.070
10989194,1.000,0.231,0.097,36.750,-13.860,-8.610
10989210,1.127,0.375,0.142,21.770,-5.460,-11.760
10989235,0.985,0.294,0.097,1.960,-7.210,-18.620
10989255,1.040,0.070,0.076,28.070,-1.470,-29.610
10989275,1.012,0.144,0.076,61.180,-10.640,-29.400
10989291,1.071,0.121,0.088,63.980,-7.070,-27.160
10989315,1.114,0.218,0.092,56.070,-6.790,-20.160
10989335,1.090,0.252,0.076,30.310,-7.070,-12.810
10989355,1.144,0.236,0.103,7.420,-4.970,-6.790
10989375,1.206,0.099,0.169,-16.030,2.380,-0.840
10989395,1.166,0.136,0.149,-26.950,3.290,6.370
10989419,1.176,0.129,0.134,-31.920,5.530,7.840
10989438,1.252,0.079,0.095,-28.350,-1.470,13.090
10989458,1.389,0.093,0.047,-12.110,5.390,23.520
10989482,1.368,0.024,-0.033,15.680,2.380,47.530
10989501,1.366,0.195,-0.065,28.630,-2.520,71.820
10989523,1.517,0.326,-0.061,1.470,-4.270,96.670
10989545,1.645,0.359,-0.133,-43.750,3.710,116.900
10989568,1.619,0.267,-0.152,-100.100,10.780,129.850
10989588,1.560,0.169,-0.095,-109.690,12.670,132.790
10989610,1.515,0.020,-0.042,-117.040,4.900,131.740
10989632,1.535,-0.080,0.013,-103.180,9.030,121.240
10989652,1.459,-0.147,0.020,-84.560,13.720,108.920
10989672,1.296,-0.148,0.000,-79.870,20.160,91.280
10989692,1.191,-0.366,-0.005,-62.300,14.070,76.230
10989713,1.181,-0.252,0.048,-41.790,13.720,62.930
10989730,1.105,-0.246,0.118,-21.630,21.630,51.100
10989750,1.064,-0.263,0.190,-11.690,26.390,42.980
10989770,0.907,-0.227,0.149,-19.950,20.650,33.460
10989793,0.911,-0.357,0.162,-20.930,24.850,28.210
10989814,0.899,-0.518,0.214,14.560,31.010,27.370
10989833,0.874,-0.606,0.277,57.260,33.880,31.500
10989855,0.931,-0.523,0.336,61.250,51.730,43.680
10989880,0.951,-0.752,0.505,67.970,74.200,51.100
10989899,0.963,-1.049,0.602,138.250,114.100,76.930
10989919,0.921,-0.923,0.710,203.140,150.570,94.360
10989936,0.786,-0.470,0.767,233.310,196.630,108.290
10989960,0.668,-0.048,0.631,146.090,221.830,109.830
10989979,0.634,-0.168,0.744,83.020,231.490,87.430
10990001,0.671,-0.574,0.807,107.800,245.840,62.440
10990018,0.775,-0.791,0.809,160.300,257.810,44.170
10990042,0.819,-0.755,0.749,219.590,261.940,19.810
10990061,0.943,-0.739,0.812,243.810,258.860,1.260
10990086,0.925,-0.531,0.840,222.180,243.320,-7.910
10990104,0.985,-0.397,0.899,187.040,239.190,-14.210
10990123,0.953,-0.335,0.880,154.070,239.680,-21.700
10990147,0.834,-0.361,0.807,125.090,237.370,-30.660
10990165,0.685,-0.280,0.707,105.000,212.870,-34.720
10990189,0.719,-0.229,0.766,84.980,200.830,-45.430
10990209,0.524,-0.248,0.681,87.290,203.770,-59.500
10990225,0.418,-0.206,0.550,84.070,195.580,-69.440
10990249,0.305,-0.103,0.530,93.310,182.980,-84.420
10990269,0.274,0.030,0.557,86.520,175.420,-98.350
10990291,0.161,0.162,0.573,100.870,198.450,-125.580
10990311,0.082,0.156,0.539,65.800,178.080,-123.130
10990335,0.034,0.000,0.550,37.520,189.070,-132.860
10990351,-0.051,-0.017,0.559,38.080,186.830,-134.400
10990371,-0.158,0.198,0.465,24.080,204.540,-145.880
10990394,-0.382,0.024,0.314,-39.130,184.100,-144.060
10990412,-0.414,-0.155,0.383,-23.240,139.440,-136.990
10990432,-0.346,-0.186,0.474,-4.200,129.360,-133.560
10990456,-0.379,-0.201,0.426,7.770,124.110,-128.870
10990475,-0.440,-0.264,0.383,-3.920,135.590,-121.660
10990495,-0.601,-0.305,0.285,4.270,116.060,-100.100
10990514,-0.647,-0.131,0.321,8.330,95.130,-85.470
10990537,-0.705,-0.201,0.318,-9.450,99.680,-69.370
10990561,-0.774,-0.366,0.200,-11.690,89.110,-44.380
10990580,-0.847,-0.259,0.109,-11.620,98.000,-27.930
10990601,-1.037,-0.143,0.039,-0.980,84.070,-17.080
10990621,-1.168,-0.094,0.016,2.800,63.700,-12.040
10990640,-1.122,-0.135,-0.082,-2.940,43.470,-3.220
10990661,-1.148,-0.104,-0.158,9.660,24.080,7.630
10990679,-1.159,0.077,-0.187,30.590,7.210,13.650
10990703,-1.221,0.170,-0.190,25.690,-16.450,12.880
10990719,-1.214,0.068,-0.085,20.370,-34.160,11.410
10990738,-1.238,0.024,0.019,25.410,-71.120,5.600
10990763,-1.236,-0.004,0.084,16.030,-66.990,-2.590
10990783,-1.153,-0.030,0.042,-15.190,-78.960,-2.870
10990802,-0.979,-0.049,0.012,-49.490,-89.460,2.310
10990822,-0.853,-0.225,0.066,-68.250,-101.080,13.790
10990846,-0.737,-0.236,0.102,-60.620,-119.770,29.120
10990866,-0.607,-0.232,0.108,-55.510,-142.380,45.430
10990886,-0.485,-0.239,0.114,-40.040,-159.250,58.310
10990904,-0.368,-0.305,0.149,-20.580,-190.610,67.830
10990929,-0.199,-0.254,0.208,0.910,-216.230,80.360
10990945,-0.141,-0.223,0.192,-1.960,-208.390,81.340
10990966,-0.199,-0.347,0.305,35.910,-263.830,87.500
10990988,0.053,-0.219,0.445,61.460,-264.530,88.690
10991012,0.134,-0.159,0.503,54.810,-260.610,88.270
10991032,0.209,-0.244,0.603,76.370,-245.000,79.590
10991052,0.183,-0.092,0.528,43.820,-255.570,73.570
10991071,0.238,-0.104,0.597,38.500,-273.630,54.040
10991091,0.343,-0.149,0.732,51.170,-300.440,51.730
10991112,0.577,0.026,0.770,23.660,-277.550,41.930
10991131,0.594,0.033,0.711,-22.190,-272.370,19.810
10991150,0.619,-0.201,0.803,-21.840,-341.880,8.050
10991174,0.994,-0.285,1.020,20.790,-322.210,17.500
10991194,1.041,-0.031,0.940,-14.700,-237.790,14.630
10991211,0.985,-0.099,0.918,-10.500,-286.650,9.100
10991235,1.300,-0.041,1.058,2.520,-314.300,25.130
10991255,1.351,0.050,1.124,-41.300,-207.620,24.500
10991274,1.002,-0.054,1.087,-59.290,-200.270,23.590
10991294,1.034,-0.077,0.984,-51.870,-209.160,16.380
10991318,1.282,-0.040,0.997,-54.180,-179.270,13.160
10991333,1.095,-0.111,0.901,-60.270,-147.350,13.230
10991353,0.977,-0.157,0.788,-50.680,-128.870,13.720
10991378,0.884,-0.145,0.663,-29.330,-135.030,11.130
10991398,1.182,-0.027,0.694,-30.100,-111.650,14.210
10991416,1.051,0.010,0.610,-47.390,-83.860,16.730
10991433,0.843,0.007,0.519,-62.510,-80.150,17.360
10991457,0.714,0.110,0.416,-97.720,-78.260,12.180
10991481,0.781,0.075,0.325,-123.620,-100.030,-2.800
10991501,0.943,-0.024,0.293,-151.480,-72.520,-13.720
10991519,0.845,-0.208,0.272,-147.910,-70.910,-21.910
10991538,0.890,-0.248,0.307,-119.140,-59.220,-36.120
10991558,0.906,-0.195,0.279,-82.460,-46.480,-46.690
10991582,0.904,-0.181,0.193,-49.700,-43.680,-57.050
10991606,0.900,-0.133,0.104,-10.640,-42.490,-70.490
10991626,1.055,-0.179,0.138,31.640,-73.640,-75.040
10991646,1.419,-0.131,0.180,83.300,-49.910,-73.780
10991670,1.335,0.043,0.011,84.070,-29.680,-61.110
10991690,1.176,0.201,-0.063,55.160,-28.350,-56.420
10991710,1.192,0.132,0.036,31.150,-35.140,-54.460
10991730,1.295,-0.093,0.055,51.660,-36.610,-49.910
10991752,1.352,-0.102,-0.015,77.420,-36.050,-37.870
10991770,1.446,-0.003,-0.107,89.740,-39.830,-24.710
10991790,1.631,0.084,-0.027,97.650,-56.140,-4.480
10991814,1.593,0.432,-0.079,58.240,-8.610,22.540
10991830,1.267,0.366,-0.061,-7.490,-26.810,23.660
10991854,1.158,0.233,0.023,-2.590,-29.120,17.710
10991873,1.027,0.248,0.041,5.180,-32.620,2.100
10991890,1.056,0.260,0.043,28.280,-39.830,-12.110
10991909,1.094,0.237,0.030,44.240,-35.770,-27.090
10991934,1.139,0.117,0.014,58.240,-34.580,-35.280
10991954,1.222,0.081,0.035,87.290,-30.520,-34.580
10991974,1.343,0.246,0.090,57.470,-29.470,-28.420
10991991,1.416,0.100,0.086,44.170,-20.090,-20.370
10992014,1.345,0.097,0.102,31.430,-9.660,-6.790
10992035,1.312,0.107,0.122,19.880,-3.290,-0.210
10992056,1.285,0.088,0.119,18.060,-3.780,4.410
10992071,1.335,0.141,0.134,18.830,-0.420,5.530
10992090,1.320,0.115,0.103,4.060,8.190,8.890
10992114,1.287,0.041,0.030,-6.160,13.300,20.790
10992134,1.282,0.110,-0.032,-9.940,13.370,33.530
10992158,1.348,0.195,-0.103,-36.120,18.270,43.470
10992176,1.344,0.239,-0.154,-55.650,17.500,49.630
10992196,1.396,0.234,-0.187,-88.830,26.600,53.480
10992218,1.343,0.161,-0.205,-121.520,27.090,59.150
10992238,1.348,0.072,-0.148,-139.300,34.020,67.970
10992262,1.286,0.061,-0.113,-147.350,33.740,69.300
10992281,1.244,-0.079,-0.072,-127.750,34.020,68.880
10992305,1.204,-0.159,-0.000,-89.670,33.600,61.460
10992323,1.131,-0.128,-0.009,-70.630,32.340,56.700
10992343,1.114,-0.174,0.027,-49.350,27.160,47.530
10992363,1.072,-0.190,0.067,-17.150,25.410,41.440
10992386,1.016,-0.136,0.027,-4.690,21.630,38.290
10992405,1.012,-0.168,0.086,10.780,20.650,35.700
10992425,0.984,-0.195,0.100,25.620,23.310,33.180
10992448,0.953,-0.171,0.102,31.710,24.640,31.990
10992469,0.934,-0.189,0.121,35.630,22.680,29.330
10992489,0.946,-0.203,0.163,45.500,31.220,27.440
10992506,0.915,-0.179,0.174,48.930,36.120,25.410
10992529,0.895,-0.165,0.156,45.500,42.490,21.140
10992546,0.893,-0.143,0.122,43.050,43.750,16.800
10992565,0.858,-0.157,0.129,37.030,49.350,14.070
10992590,0.769,-0.164,0.183,40.390,48.860,7.280
10992610,0.812,-0.182,0.260,55.580,51.240,-2.450
10992628,0.855,-0.158,0.244,57.750,58.730,-12.670
10992647,0.839,-0.211,0.299,56.980,56.980,-20.370
10992668,0.995,-0.378,0.481,71.050,56.420,-25.270
10992690,1.190,-0.587,0.793,129.290,60.760,-17.080
10992710,1.589,-0.662,0.834,165.270,122.570,5.390
10992734,1.805,-0.680,0.879,174.370,229.600,5.880
10992753,1.456,-0.207,1.033,146.440,290.010,5.110
10992771,1.314,-0.034,1.191,88.130,309.960,-2.660
10992794,1.182,0.154,1.191,21.000,336.490,-4.830
10992815,1.043,0.187,1.149,-22.190,336.770,-2.590
10992835,0.888,-0.005,1.068,-18.550,325.920,-4.830
10992854,0.916,-0.130,0.986,30.170,300.510,-16.940
10992875,0.965,-0.105,0.845,100.940,296.730,-45.360
10992894,0.885,-0.060,0.655,138.810,285.670,-76.650
10992918,0.852,-0.032,0.754,160.720,232.470,-109.270
10992940,1.000,-0.136,0.877,199.780,173.110,-142.450
10992958,1.078,-0.017,0.913,230.160,170.590,-172.550
10992979,0.759,-0.017,0.817,220.780,165.410,-193.340
10993003,0.549,0.016,0.614,153.300,180.250,-208.810
10993022,0.363,0.036,0.481,87.150,190.330,-217.420
10993047,0.229,0.074,0.360,-25.060,198.100,-221.410
10993067,0.122,-0.002,0.141,-110.180,204.400,-206.710
10993088,-0.022,0.040,0.089,-211.960,218.750,-193.550
10993105,-0.199,0.106,-0.142,-251.720,258.580,-188.370
10993128,-0.818,0.160,-0.390,-225.890,247.240,-183.820
10993147,-0.654,-0.258,-0.025,-119.840,99.330,-204.960
10993166,-0.425,-0.574,0.129,-3.430,103.810,-210.350
10993187,-0.339,-0.593,0.186,129.570,69.720,-221.830
10993211,0.036,-0.595,0.258,181.790,42.840,-202.930
10993226,-0.019,-0.568,0.181,159.670,45.220,-170.100
10993251,-0.207,-0.520,0.285,117.180,41.510,-106.470
10993270,-0.676,-0.238,0.460,80.290,20.440,-68.390
10993286,-0.776,-0.294,0.569,56.840,27.440,-45.850
10993311,-0.913,-0.437,0.610,80.080,12.040,-21.910
10993331,-0.911,-0.500,0.677,121.170,13.020,-9.660
10993350,-0.911,-0.377,0.668,125.160,7.910,-2.660
10993370,-0.906,-0.335,0.645,100.940,9.100,3.570
10993391,-0.933,-0.217,0.620,79.030,9.520,8.680
10993414,-1.006,-0.227,0.627,54.880,2.520,9.310
10993434,-0.980,-0.286,0.625,41.090,-3.290,13.860
10993453,-0.972,-0.289,0.554,42.210,-4.620,21.840
10993478,-0.999,-0.245,0.463,43.820,-12.110,32.830
10993498,-1.015,-0.177,0.430,39.760,-22.050,36.890
10993515,-0.997,-0.193,0.376,35.350,-26.530,39.270
10993535,-0.948,-0.205,0.261,24.780,-32.060,38.990
10993558,-0.848,-0.282,0.248,35.770,-52.710,44.660
10993578,-0.690,-0.275,0.329,53.620,-64.330,58.380
10993600,-0.632,-0.166,0.313,56.910,-74.480,75.390
10993621,-0.626,-0.109,0.269,60.620,-89.320,89.600
10993640,-0.548,-0.043,0.249,62.440,-108.220,102.970
10993663,-0.423,0.005,0.220,55.510,-115.290,121.310
10993684,-0.375,0.218,0.164,54.530,-142.380,127.330
10993704,-0.236,0.309,0.295,68.880,-158.480,130.620
10993719,-0.116,0.291,0.337,96.600,-173.740,134.120
10993743,-0.032,0.346,0.324,112.560,-197.050,144.900
10993763,0.222,0.397,0.378,96.880,-242.410,148.120
10993787,0.447,0.502,0.484,119.840,-246.260,146.160
10993808,0.532,0.630,0.536,115.360,-238.420,138.670
10993827,0.761,0.695,0.564,106.400,-269.360,138.180
10993845,0.915,0.860,0.568,100.730,-233.730,135.310
10993863,0.933,0.893,0.593,65.800,-227.150,134.890
10993887,0.921,0.883,0.668,54.600,-244.790,120.330
10993906,1.090,0.744,0.748,39.410,-227.500,111.720
10993927,1.088,0.764,0.729,42.770,-202.860,107.870
10993945,1.095,0.669,0.822,50.330,-210.000,92.540
10993967,1.161,0.591,0.861,64.190,-217.210,90.510
10993988,1.220,0.616,0.848,61.530,-152.950,86.590
10994006,1.095,0.603,0.807,37.310,-149.100,81.340
10994026,1.141,0.462,0.876,35.490,-139.440,79.450
10994046,1.187,0.452,0.935,40.250,-120.610,85.960
10994070,1.100,0.506,0.895,17.220,-96.600,88.690
10994090,1.072,0.459,0.815,-5.390,-81.830,88.690
10994108,1.070,0.451,0.765,-15.050,-69.090,87.990
10994132,1.056,0.416,0.711,-44.450,-50.960,83.370
10994152,1.037,0.300,0.637,-49.490,-42.070,81.830
10994172,1.058,0.224,0.570,-43.680,-41.370,84.490
10994191,1.115,0.292,0.487,-42.420,-30.310,86.660
10994213,1.091,0.356,0.426,-54.670,-20.440,87.080
10994232,1.072,0.335,0.399,-64.960,-18.130,86.240
10994252,1.128,0.280,0.392,-77.840,-15.330,86.730
10994272,1.149,0.189,0.369,-78.750,-13.370,88.410
10994292,1.154,0.103,0.366,-78.960,-12.810,93.030
10994312,1.152,0.096,0.398,-58.590,-8.330,92.610
10994331,1.096,0.153,0.388,-33.460,-8.470,88.900
10994352,1.041,0.245,0.350,-42.210,-9.660,79.800
10994372,1.017,0.112,0.344,-47.110,-9.590,71.470
10994391,0.956,0.094,0.329,-43.540,-8.610,61.040
10994415,0.913,0.101,0.305,-48.440,-12.600,44.380
10994432,0.905,0.083,0.303,-51.870,-15.540,32.480
10994456,0.943,-0.028,0.309,-50.610,-16.240,13.930
10994476,0.957,-0.106,0.313,-31.990,-16.730,4.480
10994494,0.974,-0.137,0.318,-14.350,-20.300,-0.840
10994515,0.981,-0.123,0.325,-5.530,-21.630,-4.550
10994535,0.995,-0.096,0.344,-3.010,-20.510,-5.880
10994559,0.975,-0.074,0.333,-6.720,-19.670,-11.130
10994578,0.996,-0.081,0.308,-9.240,-15.680,-9.800
10994597,0.989,-0.113,0.303,-12.110,-12.740,-9.310
10994622,0.965,-0.131,0.287,-14.630,-8.400,-7.140
10994640,0.937,-0.143,0.256,-13.930,-7.140,-5.530
10994662,0.939,-0.123,0.249,-15.680,-8.470,-4.340
10994682,0.967,-0.147,0.252,-13.300,-8.470,-5.600
10994706,0.990,-0.156,0.260,-12.810,-9.380,-7.840
10994726,1.062,-0.191,0.267,-6.160,-9.380,-8.330
10994744,1.068,-0.184,0.264,-3.010,-8.750,-4.970
10994766,1.066,-0.157,0.251,-1.260,-8.050,0.420
10994790,1.028,-0.099,0.238,-3.780,-3.500,5.320
10994814,0.995,-0.098,0.245,-9.100,-4.830,7.840
10994834,0.995,-0.130,0.252,-9.800,-4.060,7.700
10994854,0.975,-0.119,0.236,-7.840,-3.850,6.650
10994874,0.971,-0.124,0.230,-3.430,-6.790,4.760
10994894,0.977,-0.120,0.235,-1.960,-6.230,1.610
10994917,0.973,-0.123,0.241,0.980,-7.980,-0.560
10994938,1.007,-0.121,0.246,1.330,-7.350,-1.680
10994954,0.993,-0.134,0.246,2.800,-7.350,-1.050
10994977,0.965,-0.123,0.243,3.080,-7.420,0.000
10994998,0.944,-0.130,0.238,2.310,-7.070,0.980
10995018,0.909,-0.149,0.240,4.270,-8.120,2.240
10995036,0.873,-0.139,0.231,6.300,-7.700,2.450
10995056,0.819,-0.136,0.232,7.420,-10.780,1.540
10995075,0.798,-0.146,0.229,10.290,-14.420,-0.630
10995100,0.772,-0.173,0.252,19.950,-22.050,-5.110
10995117,0.826,-0.158,0.241,24.500,-19.250,-7.980
10995136,0.773,-0.126,0.220,21.420,-18.130,-8.470
10995155,0.749,-0.146,0.225,18.620,-21.560,-8.750
10995177,0.828,-0.151,0.248,21.420,-23.380,-7.770
10995198,0.849,-0.140,0.240,18.970,-19.600,-7.070
10995218,0.840,-0.128,0.224,16.310,-17.010,-6.370
10995237,0.796,-0.116,0.219,9.590,-16.660,-4.620
10995262,0.785,-0.101,0.204,0.280,-14.490,-3.430
10995279,0.749,-0.126,0.182,-6.230,-11.410,-2.310
10995303,0.677,-0.082,0.169,-8.750,-8.330,-1.680
10995322,0.598,-0.045,0.130,-20.300,-9.660,-3.220
10995343,0.566,-0.024,0.093,-30.520,-12.670,-7.770
10995367,0.576,-0.039,0.073,-35.910,-18.340,-15.120
10995387,0.600,-0.065,0.044,-25.480,-20.300,-19.810
10995406,0.620,0.002,0.021,-7.350,-23.730,-25.550
10995425,0.685,-0.001,0.007,7.700,-27.020,-35.000
10995449,0.833,-0.005,-0.035,31.780,-30.520,-45.290
10995469,0.878,0.015,-0.116,44.520,-26.180,-51.100
10995489,0.948,-0.015,-0.111,73.010,-28.910,-52.500
10995509,0.974,0.075,-0.097,101.500,-36.400,-53.480
10995531,1.195,0.144,-0.079,108.080,-36.610,-54.250
10995555,1.183,0.098,-0.154,104.160,-53.550,-48.300
10995575,1.246,0.057,-0.129,125.790,-52.570,-44.030
10995593,1.488,0.109,-0.045,135.310,-39.970,-34.860
10995613,1.347,0.269,-0.090,98.280,-29.400,-21.210
10995630,1.273,0.267,-0.102,63.140,-33.880,-15.120
10995655,1.333,0.226,-0.030,36.610,-33.110,-7.980
10995679,1.367,0.201,-0.089,4.200,-28.420,-2.030
10995697,1.370,0.135,-0.098,-6.860,-25.200,2.660
10995719,1.352,0.159,-0.131,-24.150,-27.370,11.270
10995739,1.307,0.103,-0.141,-32.060,-35.280,12.880
10995763,1.368,0.022,-0.111,-17.360,-37.170,17.220
10995781,1.409,-0.089,-0.097,-14.070,-39.830,19.810
10995805,1.345,-0.255,-0.152,55.510,-36.890,17.780
10995825,1.373,0.223,0.099,87.360,-37.170,17.220
10995843,1.452,0.329,0.142,28.840,-22.820,9.940
10995864,1.335,0.221,0.159,9.590,-17.500,7.000
10995884,1.319,0.136,0.183,17.780,-12.880,4.340
10995908,1.361,0.260,0.253,5.880,-6.860,5.460
10995928,1.430,0.180,0.143,-25.200,4.410,9.030
10995946,1.383,0.078,0.055,-22.890,4.060,12.600
10995970,1.408,0.091,0.016,-9.450,4.970,14.420
10995990,1.402,0.168,-0.026,-10.570,12.040,17.080
10996010,1.349,0.185,-0.073,-18.760,16.380,20.020
10996027,1.313,0.223,-0.104,-28.070,18.550,20.020
10996048,1.335,0.272,-0.114,-42.280,19.250,18.690
10996068,1.322,0.252,-0.167,-69.720,24.220,16.660
10996088,1.308,0.181,-0.181,-78.050,28.560,11.550
10996108,1.308,0.159,-0.187,-81.690,27.860,8.890
10996129,1.360,0.094,-0.130,-77.280,28.140,10.290
10996153,1.279,0.140,-0.153,-81.760,45.920,12.320
10996171,1.167,0.102,-0.123,-82.880,42.280,12.390
10996191,1.210,-0.026,-0.056,-71.890,34.510,11.830
10996215,1.254,0.027,-0.021,-61.600,53.130,11.060
10996235,1.159,0.017,-0.093,-74.480,56.630,15.120
10996255,1.024,-0.069,-0.087,-77.280,59.710,19.250
10996270,0.927,-0.122,-0.080,-68.180,57.400,22.820
10996290,0.955,-0.154,-0.064,-53.760,52.290,29.400
10996315,0.870,-0.198,-0.041,-38.150,60.970,32.340
10996335,0.724,-0.240,-0.003,-11.130,58.380,34.300
10996353,0.674,-0.244,-0.010,1.400,54.180,33.950
10996377,0.714,-0.245,-0.014,13.230,49.140,31.290
10996396,0.657,-0.235,-0.019,16.870,52.290,26.810
10996415,0.545,-0.250,0.012,23.730,52.150,21.910
10996436,0.475,-0.295,0.058,41.160,37.660,20.160
10996460,0.488,-0.294,0.063,53.830,29.330,13.860
10996480,0.537,-0.326,0.113,80.360,17.500,10.290
10996500,0.638,-0.338,0.174,109.760,10.360,5.250
10996521,0.763,-0.281,0.253,130.130,17.360,2.800
10996541,0.818,-0.169,0.251,120.680,25.900,1.540
10996560,0.853,-0.148,0.210,98.770,25.620,1.330
10996585,0.894,-0.134,0.237,74.480,27.300,2.590
10996604,0.920,-0.094,0.288,58.870,29.610,4.970
10996627,0.934,-0.111,0.335,47.670,32.270,8.050
10996648,0.967,-0.118,0.349,42.210,34.160,10.010
10996667,1.003,-0.106,0.337,41.510,35.560,11.200
10996683,1.008,-0.067,0.399,51.170,34.790,10.220
10996703,1.036,0.033,0.466,59.010,50.120,4.900
10996727,0.929,0.198,0.395,21.280,67.480,-7.490
10996748,0.862,0.215,0.344,-19.810,58.660,-20.510
10996763,0.914,0.108,0.429,-26.250,58.800,-31.780
10996787,0.892,0.029,0.595,1.190,65.240,-49.420
10996808,0.968,0.150,0.599,13.650,70.210,-63.490
10996828,0.987,0.249,0.610,12.810,71.120,-78.330
10996848,0.977,0.258,0.807,25.130,65.800,-91.280
10996868,1.051,0.271,0.926,49.000,72.800,-108.010
10996891,1.014,0.407,0.912,57.750,81.410,-126.840
10996915,1.051,0.424,0.929,54.880,86.800,-148.750
10996935,0.994,0.354,0.912,49.700,103.180,-162.750
10996952,0.950,0.306,0.875,42.070,113.820,-172.480
10996976,0.844,0.209,0.845,45.360,125.370,-184.100
10996996,0.822,0.199,0.854,43.680,128.310,-195.370
10997011,0.892,0.212,0.820,20.300,126.140,-191.590
10997031,0.809,0.183,0.796,-25.060,135.940,-185.360
10997054,0.746,0.204,0.843,-41.020,132.160,-180.810
10997077,0.817,0.224,0.921,-49.140,125.440,-170.100
10997097,0.810,0.325,0.811,-74.130,137.620,-153.790
10997117,0.673,0.306,0.758,-79.730,156.940,-139.440
10997138,0.543,0.255,0.831,-50.610,142.730,-128.310
10997158,0.552,0.274,0.918,-22.190,153.930,-116.060
10997178,0.423,0.282,0.883,-34.720,163.030,-101.360
10997198,0.278,0.264,0.755,-55.370,168.980,-78.330
10997222,0.168,0.313,0.686,-75.320,168.910,-61.320
10997242,0.085,0.232,0.681,-77.910,168.210,-52.290
10997262,-0.024,0.374,0.671,-59.500,159.040,-50.610
10997282,-0.103,0.314,0.671,-46.760,136.080,-50.750
10997302,-0.161,0.322,0.715,-34.020,131.670,-47.880
10997319,-0.202,0.358,0.670,-37.310,131.250,-46.130
10997338,-0.313,0.396,0.617,-41.160,150.010,-50.050
10997363,-0.481,0.300,0.561,-40.460,117.390,-47.110
10997383,-0.489,0.264,0.528,-66.290,120.890,-41.720
10997403,-0.606,0.132,0.372,-94.850,146.580,-36.960
10997418,-0.793,0.050,0.203,-123.760,132.160,-19.460
10997438,-0.801,-0.026,0.091,-160.510,61.670,15.330
10997462,-0.547,0.032,0.109,-154.630,51.730,44.940
10997486,-0.686,0.092,0.101,-107.800,41.160,51.520
10997506,-0.805,0.037,0.101,-9.520,15.820,38.500
10997526,-0.914,-0.042,0.215,80.010,-15.260,28.840
10997546,-0.917,0.045,0.374,128.380,-44.590,18.690
10997563,-0.855,0.246,0.565,132.370,-60.200,12.110
10997582,-0.820,0.233,0.669,94.990,-71.960,5.880
10997607,-0.776,0.217,0.838,62.580,-83.790,7.560
10997627,-0.737,0.229,0.985,54.250,-79.520,14.210
10997645,-0.694,0.221,1.015,48.580,-85.610,31.010
10997666,-0.642,0.303,1.013,77.700,-75.320,34.020
10997690,-0.689,0.374,0.993,94.430,-72.730,36.750
10997710,-0.587,0.423,0.989,104.300,-61.320,44.800
10997728,-0.553,0.470,0.878,73.360,-66.990,48.930
10997752,-0.515,0.487,0.793,51.660,-60.690,52.640
10997772,-0.497,0.465,0.698,46.060,-69.650,52.500
10997790,-0.394,0.394,0.702,44.030,-80.780,58.730
10997809,-0.312,0.428,0.574,36.610,-69.790,64.610
10997828,-0.390,0.551,0.432,26.250,-88.970,67.900
10997848,-0.101,0.489,0.427,27.090,-107.030,75.390
10997873,-0.004,0.419,0.367,44.590,-117.740,85.050
10997893,0.072,0.446,0.493,67.550,-138.390,96.110
10997911,0.194,0.576,0.618,79.170,-150.780,93.660
10997931,0.315,0.655,0.642,67.900,-181.650,89.880
10997953,0.213,0.679,0.593,57.190,-129.150,95.760
10997973,0.309,0.654,0.702,59.640,-156.870,90.300
10997997,0.380,0.630,0.755,74.760,-154.980,107.100
10998015,0.459,0.627,0.763,64.050,-170.170,95.620
10998037,0.525,0.630,0.752,51.170,-167.440,93.870
10998057,0.672,0.633,0.761,54.110,-184.030,96.460
10998081,0.765,0.744,0.824,24.780,-147.910,96.110
10998101,0.673,0.627,0.650,-5.040,-131.950,99.540
10998121,0.676,0.491,0.598,-20.650,-156.660,109.760
10998140,0.882,0.494,0.672,-20.160,-151.830,101.640
10998161,0.915,0.565,0.633,-25.410,-116.270,108.010
10998181,0.815,0.553,0.608,-40.530,-116.270,111.930
10998201,0.930,0.509,0.575,-55.930,-134.190,115.990
10998218,1.030,0.444,0.535,-70.350,-118.090,107.170
10998242,1.025,0.283,0.615,-57.120,-81.900,110.740
10998263,0.963,0.435,0.637,-57.260,-74.480,110.880
10998282,0.941,0.475,0.630,-68.460,-70.840,100.590
10998306,0.925,0.378,0.598,-88.620,-61.950,93.310
10998326,0.912,0.294,0.615,-87.570,-61.250,87.710
10998346,0.938,0.247,0.647,-84.700,-61.600,79.730
10998364,0.955,0.134,0.648,-74.340,-55.790,74.340
10998384,0.928,0.105,0.616,-71.190,-49.140,70.770
10998403,0.918,0.006,0.617,-66.010,-49.210,62.510
10998423,0.963,-0.065,0.592,-41.300,-48.650,61.460
10998443,0.926,0.009,0.562,-26.810,-42.630,59.710
10998463,0.847,0.002,0.514,-26.320,-48.090,56.000
10998488,0.888,-0.056,0.499,-11.970,-51.310,54.110
10998507,0.899,0.003,0.450,-7.980,-47.180,51.730
10998531,0.888,0.005,0.396,-11.760,-44.030,46.830
10998551,0.861,-0.029,0.369,-7.280,-43.750,42.560
10998570,0.876,-0.033,0.375,0.420,-41.090,40.250
10998593,0.847,-0.010,0.360,2.800,-35.140,34.860
10998613,0.798,-0.029,0.318,6.160,-33.110,29.260
10998634,0.754,-0.062,0.335,13.930,-33.250,24.920
10998651,0.761,-0.163,0.363,22.610,-31.290,19.390
10998671,0.781,-0.240,0.361,54.390,-24.500,15.540
10998691,0.856,-0.239,0.357,82.250,-22.260,11.690
10998715,0.972,-0.169,0.325,94.430,-14.420,13.860
10998732,1.024,-0.014,0.264,74.130,0.490,15.120
10998751,0.941,0.070,0.221,34.160,6.300,23.730
10998775,0.870,0.114,0.201,-5.040,-1.260,32.690
10998794,0.918,0.138,0.237,-40.250,-6.370,35.280
10998816,0.839,0.113,0.241,-75.040,-5.600,31.220
10998838,0.703,-0.015,0.200,-83.650,-12.320,27.160
10998860,0.609,-0.106,0.166,-34.930,-30.590,16.100
10998879,0.775,-0.131,0.152,6.370,-41.090,2.870
10998899,0.888,-0.165,0.147,49.420,-33.950,-11.200
10998921,0.856,-0.154,0.162,98.140,-31.430,-18.270
10998945,0.819,0.014,0.170,125.370,-28.280,-21.280
10998965,0.827,0.147,0.148,108.640,-20.370,-27.160
10998980,0.879,0.148,0.110,74.690,-16.380,-32.760
10999004,0.981,0.150,0.095,28.280,-13.230,-44.800
10999025,1.089,0.080,0.044,-10.010,-1.330,-52.920
10999045,1.028,0.036,-0.045,-37.870,-2.170,-55.300
10999063,1.023,-0.033,-0.110,-42.630,-7.700,-56.700
10999082,1.084,-0.130,-0.093,-27.510,-16.380,-57.960
10999103,1.189,-0.139,-0.057,-4.480,-25.130,-59.150
10999127,1.206,-0.121,-0.096,12.110,-24.500,-54.670
10999147,1.123,-0.109,-0.088,16.590,-32.060,-46.970
10999167,1.162,-0.061,-0.025,22.470,-41.230,-38.150
10999186,1.236,-0.038,0.003,10.430,-39.690,-28.700
10999211,1.267,-0.028,0.026,0.560,-31.710,-17.430
10999231,1.205,-0.040,0.017,-5.880,-34.720,-3.500
10999251,1.220,-0.035,0.019,-4.270,-34.230,9.240
10999270,1.286,0.098,0.023,-3.850,-39.410,19.670
10999291,1.323,0.149,0.088,-36.960,-29.610,23.590
10999311,1.303,0.098,0.143,-44.380,-26.390,25.410
10999326,1.413,0.207,0.163,-61.530,-31.850,28.280
10999351,1.368,0.175,0.081,-85.890,-9.520,29.750
10999369,1.173,0.078,0.078,-71.470,-20.860,28.700
10999389,1.233,-0.008,0.149,-37.520,-29.260,24.360
10999413,1.310,-0.027,0.176,10.290,-25.970,18.480
10999433,1.320,0.125,0.160,10.500,-28.140,16.240
10999453,1.337,0.111,0.142,20.930,-18.550,9.870
10999477,1.268,0.149,0.192,9.870,-20.650,1.750
10999495,1.325,0.099,0.271,8.820,-18.760,-3.640
10999515,1.294,0.104,0.265,-9.590,-10.500,-4.550
10999539,1.288,0.014,0.193,-23.730,-7.840,-0.700
10999559,1.306,-0.052,0.135,-21.910,-6.370,6.020
10999578,1.351,-0.077,0.085,-19.110,-3.850,13.860
10999598,1.418,-0.053,0.074,-17.640,-2.310,20.440
10999622,1.432,0.030,0.052,-26.040,2.170,31.920
10999640,1.458,0.129,0.055,-47.810,8.960,41.370
10999661,1.491,0.179,0.094,-66.150,20.370,47.320
10999685,1.474,0.338,0.057,-109.620,39.270,44.170
10999705,1.388,0.540,-0.077,-192.640,63.980,32.480
10999725,1.265,0.484,-0.134,-253.260,64.750,13.230
10999743,1.198,0.274,-0.170,-277.970,62.930,-6.300
10999762,1.162,0.050,-0.218,-280.840,66.430,-22.750
10999782,1.071,-0.247,-0.157,-248.780,70.840,-47.180
10999801,1.102,-0.446,-0.058,-148.190,40.460,-42.350
10999826,0.975,-0.492,0.008,-20.020,24.430,-37.170
10999844,0.944,-0.383,0.022,48.090,14.490,-30.520
10999864,0.968,-0.373,0.143,144.340,-5.320,-24.080
10999884,1.076,-0.183,0.160,211.890,-0.210,-14.210
10999908,1.099,-0.010,0.108,212.800,1.960,0.420
10999928,1.197,-0.001,0.159,181.650,4.690,12.390
10999948,1.334,-0.092,0.212,154.420,27.790,23.870
10999970,1.307,-0.211,0.329,151.480,55.720,43.470
10999989,1.328,-0.216,0.463,161.630,84.000,62.300
11000013,1.208,-0.163,0.504,151.060,126.630,76.230
11000034,1.055,-0.022,0.500,110.390,158.060,77.350
11000051,0.932,0.061,0.483,67.410,183.330,74.690
11000075,0.700,0.105,0.442,7.420,185.500,54.950
11000095,0.660,0.061,0.505,-24.570,185.360,32.270
11000115,0.613,0.008,0.531,-37.660,191.170,10.220
11000135,0.578,-0.152,0.589,-16.800,192.850,-9.660
11000155,0.626,-0.181,0.683,27.650,174.440,-20.650
11000173,0.858,-0.164,1.053,66.290,140.630,-28.140
11000192,1.246,0.002,1.253,70.280,167.930,-39.620
11000216,1.352,0.021,1.170,39.200,226.520,-55.580
11000240,1.281,-0.015,1.086,18.760,232.540,-65.730
11000260,1.242,-0.073,1.068,-8.260,243.390,-69.440
11000280,1.110,-0.191,1.057,-27.230,254.030,-69.510
11000304,1.019,-0.314,0.909,-33.460,263.130,-68.180
11000323,0.972,-0.382,0.776,-33.810,275.380,-65.590
11000343,0.907,-0.348,0.661,-58.450,285.320,-65.310
11000362,0.724,-0.378,0.558,-104.510,299.110,-58.310
11000386,0.625,-0.366,0.465,-138.670,279.160,-48.020
11000406,0.511,-0.453,0.379,-161.420,255.570,-42.140
11000426,0.407,-0.505,0.539,-114.800,227.430,-40.740
11000446,0.265,-0.630,0.549,-55.230,225.610,-45.710
11000466,0.198,-0.524,0.510,27.510,195.510,-44.590
11000486,0.177,-0.416,0.432,61.600,198.240,-51.450
11000505,0.180,-0.455,0.412,66.500,197.120,-51.940
11000525,0.166,-0.314,0.349,35.560,214.550,-43.330
11000548,0.093,-0.276,0.256,-27.860,196.770,-20.020
11000568,-0.091,-0.175,0.320,-43.120,211.050,-3.220
11000587,-0.324,-0.166,0.253,-60.060,203.280,20.160
11000612,-0.435,-0.406,0.245,42.840,123.480,42.000
11000632,-0.505,-0.319,0.233,201.950,129.150,52.430
11000651,-0.573,0.242,0.335,227.290,143.990,53.130
11000671,-0.822,0.537,0.268,90.020,123.830,42.000
11000695,-0.709,0.257,0.403,0.700,131.880,27.300
11000710,-0.847,0.206,0.345,-73.850,130.410,20.020
11000735,-1.011,0.122,0.320,-147.070,129.500,0.000
11000752,-0.914,-0.022,0.405,-165.410,115.150,-2.590
11000776,-1.020,-0.088,0.173,-188.930,111.510,-4.970
11000795,-0.980,-0.060,-0.022,-201.250,108.360,-5.320
11000816,-1.006,-0.091,-0.029,-168.910,86.450,-7.560
11000834,-1.002,-0.176,-0.150,-139.580,77.910,1.960
11000854,-1.063,-0.194,-0.180,-97.440,58.100,13.510
11000878,-1.110,-0.072,-0.207,-50.820,36.610,-16.520
11000897,-0.998,-0.048,-0.121,6.650,36.890,42.700
11000916,-1.067,0.027,-0.221,37.520,19.040,48.720
11000935,-1.118,0.021,-0.307,62.020,8.470,52.010
11000960,-1.203,0.095,-0.312,95.690,2.870,51.030
11000980,-1.174,0.210,-0.210,100.450,-9.240,41.440
11000998,-1.187,0.254,-0.209,67.410,-13.510,29.960
11001020,-1.208,0.176,-0.271,26.670,-20.230,17.640
11001044,-1.219,0.132,-0.285,-3.710,-31.990,7.770
11001064,-1.196,0.075,-0.280,-6.020,-48.160,3.710
11001084,-1.159,0.066,-0.287,7.630,-57.540,3.710
11001103,-1.140,0.055,-0.316,10.850,-68.110,8.470
11001127,-1.139,0.080,-0.375,1.890,-79.660,16.870
11001146,-0.979,0.154,-0.518,-38.290,-105.490,27.790
11001165,-0.717,0.114,-0.590,-93.310,-134.400,31.920
11001187,-0.745,0.192,-0.497,-76.580,-162.540,32.410
11001207,-0.715,0.186,-0.409,-16.870,-193.480,19.250
11001227,-0.548,0.129,-0.273,39.830,-219.450,5.950
11001251,-0.415,0.163,-0.123,78.540,-238.070,-15.820
11001270,-0.328,0.231,-0.010,77.560,-253.470,-31.150
11001290,-0.178,0.169,0.064,52.570,-280.280,-43.190
11001311,0.072,0.083,0.222,20.440,-300.720,-52.780
11001335,0.310,-0.137,0.264,23.380,-310.170,-55.790
11001355,0.468,-0.528,0.314,193.620,-348.110,-32.970
11001374,0.811,-0.072,0.458,339.920,-384.580,1.330
11001394,0.917,0.244,0.646,338.940,-331.520,30.450
11001418,0.863,0.249,0.801,376.250,-382.830,75.320
11001438,1.138,0.469,1.059,342.090,-346.360,95.550
11001458,1.294,0.596,1.065,272.790,-265.790,115.780
11001475,1.345,0.479,1.120,243.670,-261.450,137.900
11001499,1.318,0.845,1.163,202.020,-229.390,151.270
11001518,1.319,1.103,0.977,42.560,-171.220,155.190
11001537,1.251,0.878,0.937,-31.640,-165.900,162.120
11001556,1.287,0.960,0.984,-74.830,-135.800,156.800
11001578,1.004,0.802,0.825,-124.460,-120.400,143.150
11001601,0.861,0.474,0.905,-65.520,-126.910,115.080
11001621,0.977,0.427,1.126,13.790,-124.180,90.650
11001639,0.995,0.605,1.224,37.940,-112.770,73.850
11001662,0.978,0.584,1.205,49.140,-103.320,56.070
11001683,1.017,0.651,1.185,35.280,-84.630,45.360
11001698,0.814,0.712,1.145,-15.260,-64.470,37.520
11001723,0.673,0.423,0.999,-72.660,-51.310,28.210
11001743,0.686,0.340,0.862,-126.560,-43.400,28.280
11001767,0.969,0.304,0.759,-152.530,-11.270,41.510
11001787,0.787,0.204,0.488,-195.650,9.800,50.890
11001807,0.694,0.004,0.440,-145.810,-1.330,55.720
11001823,0.755,0.082,0.420,-101.010,-2.800,59.710
11001842,0.886,0.316,0.271,-79.240,12.460,59.920
11001866,0.704,0.307,0.167,-72.100,15.960,52.850
11001886,0.630,0.273,0.102,-46.690,1.120,34.860
11001906,0.588,0.259,0.157,-44.170,-13.860,16.730
11001930,0.637,0.235,0.167,-50.820,-28.910,1.260
11001950,0.765,0.203,0.153,-64.680,-39.760,-5.460
11001968,0.764,0.165,0.111,-72.100,-51.590,-12.880
11001988,0.834,0.142,0.151,-49.630,-67.270,-20.720
11002012,0.983,0.127,0.164,-23.870,-67.690,-27.860
11002032,0.925,0.096,0.135,-16.100,-75.320,-26.880
11002050,0.956,0.016,0.188,1.400,-73.850,-26.670
11002074,0.965,-0.052,0.213,15.680,-80.920,-20.300
11002094,1.089,-0.037,0.135,26.810,-77.630,-11.410
11002114,1.143,0.088,0.190,19.180,-78.820,-10.570
11002133,1.114,0.067,0.213,43.330,-66.570,-15.890
11002157,1.221,0.103,0.228,32.620,-90.510,-16.730
11002177,1.346,0.087,0.229,25.970,-102.690,-22.400
11002197,1.333,0.037,0.268,21.630,-93.380,-20.650
11002217,1.215,0.087,0.261,40.250,-91.770,-22.470
11002240,1.309,0.102,0.377,31.570,-106.050,-27.370
11002261,1.260,0.197,0.395,7.840,-86.030,-25.550
11002279,1.124,0.293,0.317,-20.580,-80.990,-32.690
11002298,1.083,0.250,0.270,-45.640,-60.970,-28.910
11002322,1.074,0.238,0.201,-55.300,-70.630,-26.180
11002342,1.250,0.323,0.192,-80.430,-69.930,-24.990
11002361,1.430,0.128,0.100,-93.170,-51.660,-16.310
11002380,1.415,-0.017,-0.009,-74.830,-52.780,-3.500
11002404,1.459,-0.035,-0.001,-38.290,-49.140,12.810
11002424,1.555,-0.377,-0.009,67.900,-37.940,15.750
11002444,1.505,-0.011,0.176,137.200,-30.170,11.900
11002464,1.537,0.337,0.264,85.400,-34.790,21.840
11002484,1.606,0.130,0.272,21.560,-14.000,32.690
11002502,1.453,-0.384,0.165,72.870,-14.770,48.370
11002522,1.436,-0.124,0.192,184.100,-22.610,61.880
11002543,1.484,0.562,0.208,115.780,14.420,69.160
11002567,1.202,0.485,0.061,11.410,15.190,62.370
11002587,1.277,0.255,0.101,-3.220,10.780,51.380
11002604,1.313,0.325,0.109,-0.070,24.080,43.960
11002623,1.295,0.363,0.019,-38.920,33.600,33.810
11002647,1.241,0.298,-0.062,-57.120,27.930,21.840
11002666,1.287,0.208,-0.098,-66.360,30.590,10.080
11002688,1.295,0.061,-0.268,-40.250,30.590,0.210
11002707,1.257,-0.046,-0.465,14.140,25.270,-4.970
11002731,1.304,-0.198,-0.350,109.060,-8.400,-5.810
11002750,1.237,-0.127,-0.188,212.590,-22.540,-12.250
11002774,1.342,0.271,-0.088,229.180,-15.470,-22.330
11002793,1.135,0.482,-0.201,133.350,6.510,-24.150
11002814,0.908,0.462,-0.259,33.740,-0.350,-29.750
11002834,0.876,0.235,-0.184,-14.840,-7.630,-41.650
11002853,0.966,0.155,-0.160,-49.630,2.940,-52.850
11002878,0.932,0.111,-0.161,-77.420,8.540,-68.460
11002897,1.006,-0.016,-0.093,-73.360,1.330,-82.880
11002916,1.166,-0.113,-0.007,-67.410,13.300,-97.160
11002940,1.145,-0.238,-0.009,-60.270,27.650,-105.210
11002959,1.096,-0.328,0.033,-40.180,31.780,-104.370
11002984,1.014,-0.342,0.104,-22.400,40.460,-94.780
11003002,0.958,-0.498,0.203,0.490,38.850,-83.440
11003022,0.959,-0.363,0.390,30.310,54.250,-58.590
11003042,0.990,-0.142,0.493,44.800,49.980,-30.450
11003064,1.214,0.131,0.529,2.800,69.720,4.550
11003082,1.586,0.497,0.379,-113.820,124.460,37.100
11003106,1.623,0.474,0.352,-231.000,216.860,79.520
11003126,1.478,0.291,0.562,-254.870,242.900,107.870
11003144,1.448,0.183,0.764,-250.600,265.440,116.270
11003166,1.249,0.208,0.723,-216.020,309.400,101.990
11003186,0.905,0.098,0.676,-146.020,315.420,56.560
11003207,0.606,0.214,0.591,-69.720,327.110,32.060
11003231,0.236,0.495,0.591,-29.120,325.430,-40.110
11003251,-0.039,0.459,0.507,-50.680,276.710,-85.540
11003270,-0.020,0.165,0.548,-51.730,194.740,-123.480
11003291,0.364,0.085,0.677,-52.290,153.510,-159.950
11003306,0.714,0.011,0.704,-65.660,126.280,-178.220
11003331,1.137,-0.171,0.693,-61.390,125.580,-190.120
11003349,1.316,-0.252,0.750,-58.590,133.770,-178.150
11003373,1.344,-0.246,0.772,-60.830,155.400,-143.010
11003393,1.133,-0.190,0.778,-79.520,178.430,-101.290
11003412,0.846,-0.181,0.816,-113.680,192.850,-62.300
11003433,0.560,-0.291,0.785,-129.920,190.190,-27.860
11003453,0.362,-0.387,0.827,-94.570,188.300,-2.870
11003473,0.146,-0.395,0.981,-39.340,159.040,17.150
11003493,0.114,-0.363,0.973,-8.330,163.450,23.520
11003513,0.078,-0.322,0.798,-22.610,171.500,28.070
11003533,0.029,-0.396,0.764,-48.370,159.250,35.210
11003553,0.022,-0.424,0.754,-50.540,162.120,35.280
11003572,-0.036,-0.432,0.661,-56.560,176.050,31.430
11003593,-0.128,-0.487,0.590,-26.880,144.970,34.370
11003613,-0.066,-0.427,0.546,7.700,136.150,41.650
11003631,-0.086,-0.281,0.447,51.940,153.650,46.760
11003655,-0.242,0.046,0.308,73.920,199.850,42.560
11003671,-0.516,0.052,0.214,70.070,118.650,39.830
11003695,-0.433,0.139,0.322,63.840,103.180,18.340
11003715,-0.580,0.162,0.296,41.300,99.820,32.970
11003735,-0.704,0.116,0.238,17.780,55.370,34.370
11003753,-0.766,0.160,0.216,12.110,52.570,34.860
11003774,-0.812,0.148,0.267,24.570,34.370,33.390
11003794,-0.801,0.086,0.367,40.740,24.290,34.650
11003813,-0.791,0.111,0.440,52.780,11.550,37.660
11003837,-0.755,0.206,0.560,81.760,5.530,33.180
11003857,-0.798,0.266,0.562,91.350,4.830,31.080
11003877,-0.887,0.232,0.493,65.100,5.740,30.940
11003897,-0.969,0.349,0.438,54.390,1.330,24.290
11003917,-1.056,0.246,0.492,58.800,-7.070,10.500
11003936,-1.104,0.219,0.528,60.410,-8.190,-1.540
11003960,-1.174,0.151,0.500,37.660,-18.690,-10.290
11003981,-1.125,0.125,0.529,13.230,-38.570,-9.100
11004000,-1.111,0.074,0.523,4.760,-48.650,-3.150
11004018,-1.070,0.030,0.493,3.850,-56.840,8.190
11004039,-0.973,0.006,0.473,1.680,-69.790,23.240
11004063,-0.866,-0.063,0.480,-3.500,-80.710,47.880
11004083,-0.777,-0.024,0.407,-24.850,-98.000,66.360
11004101,-0.612,-0.010,0.352,-45.710,-107.240,87.150
11004120,-0.485,-0.070,0.263,-80.430,-132.230,109.340
11004140,-0.442,0.021,0.281,-58.310,-146.090,121.660
11004165,-0.468,0.006,0.270,28.490,-193.760,121.100
11004185,-0.238,0.017,0.687,123.550,-246.680,125.370
11004209,-0.254,0.432,0.742,176.610,-177.170,107.590
11004229,-0.380,0.412,0.541,138.110,-211.890,103.040
11004249,0.008,0.086,0.596,99.610,-223.860,100.030
11004268,0.280,0.129,0.687,116.410,-268.520,105.420
11004288,0.578,0.334,0.671,59.290,-214.830,108.290
11004312,0.548,0.367,0.625,-7.350,-205.240,113.680
11004328,0.652,0.283,0.713,-29.960,-215.950,119.700
11004347,0.756,0.214,0.745,-39.690,-195.510,124.880
11004371,0.808,0.090,0.683,-47.250,-207.970,135.380
11004391,0.935,0.001,0.715,-32.620,-242.130,142.030
11004410,1.184,-0.069,0.771,-10.850,-215.880,148.820
11004434,1.162,-0.026,0.563,-9.940,-181.020,156.380
11004454,1.098,-0.098,0.388,-5.390,-214.830,169.400
11004473,1.286,-0.138,0.530,16.450,-268.870,174.790
11004492,1.649,-0.075,0.768,54.880,-301.000,188.510
11004511,1.892,0.217,1.064,56.070,-188.090,182.000
11004531,1.406,0.336,0.735,-14.840,-129.920,175.840
11004555,1.174,0.214,0.508,-76.860,-144.900,142.870
11004574,1.211,-0.117,0.457,-36.750,-141.260,123.130
11004594,1.211,-0.112,0.521,-17.990,-140.700,105.560
11004613,1.382,-0.140,0.579,13.300,-146.300,94.710
11004638,1.497,-0.125,0.605,31.430,-124.320,89.040
11004657,1.325,-0.074,0.565,32.970,-109.620,88.760
11004681,1.476,-0.738,0.478,101.290,-94.010,80.990
11004701,1.518,-0.014,0.683,221.970,-62.720,88.620
11004721,1.448,1.113,1.378,-53.270,39.060,31.500
11004741,1.062,0.149,0.477,-31.500,93.100,31.640
11004761,0.692,0.120,0.007,-67.200,8.610,16.310
11004785,1.009,-0.148,0.079,-39.830,-11.830,17.990
11004805,0.872,-0.203,0.010,-16.660,-22.330,12.950
11004823,0.921,-0.170,0.049,-14.770,-17.780,7.420
11004844,0.810,-0.220,0.083,-27.860,-23.100,5.110
11004863,0.743,-0.248,0.149,-31.080,-25.130,1.260
11004886,0.756,-0.264,0.230,-39.340,-19.110,-6.860
11004904,0.719,-0.296,0.241,-42.770,-5.460,-14.630
11004925,0.669,-0.278,0.196,-49.910,4.830,-26.320
11004946,0.597,-0.252,0.150,-56.490,13.860,-38.500
11004965,0.586,-0.238,0.120,-55.790,12.250,-51.240
11004988,0.543,-0.199,0.085,-59.010,9.800,-63.210
11005012,0.550,-0.205,0.057,-70.980,-3.150,-71.330
11005031,0.650,-0.340,0.040,-51.100,-18.060,-74.760
11005055,0.721,-0.322,0.057,-19.740,-12.530,-75.950
11005075,0.662,-0.221,0.032,-10.150,-14.840,-74.200
11005095,0.705,-0.130,0.022,-13.020,-28.210,-72.730
11005114,0.878,-0.044,0.042,-15.190,-36.540,-74.550
11005137,0.921,0.031,0.031,-44.940,-19.880,-75.460
11005158,0.819,-0.111,-0.052,-57.050,-16.940,-74.270
11005177,0.818,-0.108,-0.169,-40.600,-19.390,-72.240
11005198,0.965,-0.120,-0.070,-37.590,-39.340,-70.350
11005218,0.974,-0.179,-0.154,-13.930,-40.740,-70.350
11005238,1.078,-0.318,-0.181,45.920,-54.320,-59.430
11005262,1.059,-0.161,-0.375,97.300,-43.330,-35.490
11005277,0.973,-0.151,-0.497,143.150,-56.770,-30.030
11005297,1.000,-0.030,-0.373,196.630,-75.040,-10.920
11005321,1.085,0.439,-0.230,162.190,-49.070,-0.840
11005342,0.998,0.757,-0.176,10.500,-28.560,-11.900
11005362,1.126,0.402,-0.077,-85.470,-20.720,-17.290
11005380,1.061,0.335,-0.078,-106.120,-5.110,-24.570
11005404,1.108,-0.055,-0.000,-66.920,-6.160,-26.670
11005422,1.074,0.216,0.031,-29.890,-10.500,-22.330
11005446,1.326,0.270,0.081,-27.300,-16.380,-22.680
11005465,1.347,0.363,0.075,-32.620,10.570,-19.950
11005486,1.229,0.054,0.000,-21.350,11.690,-16.520
11005504,1.223,0.011,-0.030,6.930,11.830,-13.160
11005525,1.323,0.200,0.012,22.610,7.000,-4.690
11005548,1.290,0.244,-0.157,15.680,7.490,5.530
11005566,1.361,0.099,-0.142,28.980,10.290,6.720
11005586,1.315,0.175,-0.032,41.650,10.010,12.180
11005610,1.340,0.453,0.078,-31.290,0.070,11.410
11005630,1.362,0.244,0.117,-79.100,23.730,8.260
11005647,1.308,0.029,0.014,-79.520,17.220,5.600
11005671,1.331,-0.044,-0.102,-43.960,11.620,6.580
11005691,1.337,0.070,-0.112,-25.130,6.440,9.800
11005710,1.358,0.094,-0.083,-38.920,2.310,12.670
11005730,1.325,-0.093,-0.109,-31.570,7.280,9.870
11005753,1.214,0.055,-0.027,5.460,-5.460,6.790
11005777,1.255,0.109,0.019,2.240,-10.640,4.760
11005797,1.264,0.041,0.023,-6.720,-12.530,6.160
11005817,1.296,0.051,0.045,3.920,-11.060,10.570
11005837,1.245,0.031,-0.013,9.870,-14.490,14.980
11005856,1.306,0.073,0.004,10.220,-15.120,27.160
11005876,1.380,0.259,-0.019,-21.910,-8.190,37.660
11005893,1.363,0.203,-0.093,-48.930,-2.380,45.010
11005917,1.324,0.006,-0.148,-38.080,-5.600,52.220
11005937,1.333,0.036,-0.126,5.460,-6.440,55.230
11005957,1.395,0.155,-0.057,15.680,-0.980,58.170
11005977,1.448,0.274,-0.057,-9.520,14.490,60.690
11005996,1.337,0.296,-0.091,-58.450,25.900,61.740
11006017,1.253,0.190,-0.102,-95.900,26.880,60.550
11006037,1.248,0.087,-0.041,-121.240,21.560,60.200
11006057,1.241,0.009,-0.024,-129.220,33.880,55.440
11006076,1.099,-0.041,-0.060,-129.290,33.810,53.130
11006094,1.080,-0.195,-0.017,-113.330,26.040,48.930
11006117,1.048,-0.183,0.104,-79.100,20.090,41.790
11006138,0.953,-0.146,0.061,-45.920,25.830,37.520
11006158,0.784,-0.194,0.085,2.730,34.580,33.740
11006176,0.666,-0.004,0.072,3.710,28.770,25.900
11006196,0.592,-0.057,0.083,11.060,16.380,14.350
11006219,0.580,-0.054,0.143,1.890,10.920,-0.560
11006240,0.598,-0.164,0.207,20.370,20.650,-10.710
11006260,0.481,-0.119,0.169,20.440,26.320,-27.650
11006276,0.469,-0.134,0.155,17.290,26.600,-36.610
11006296,0.458,-0.147,0.146,13.300,24.640,-46.550
11006316,0.507,-0.186,0.171,9.310,20.090,-57.120
11006340,0.622,-0.367,0.209,20.650,9.310,-66.500
11006360,0.867,-0.346,0.242,56.910,18.830,-63.560
11006380,1.005,-0.344,0.175,68.670,18.130,-57.330
11006400,1.117,-0.269,0.116,87.430,30.730,-45.710
11006420,1.191,-0.245,0.148,97.370,28.700,-29.050
11006440,1.234,-0.048,0.136,94.780,48.230,-13.860
11006464,1.114,0.103,0.148,62.370,62.090,-0.910
11006484,1.049,0.131,0.191,30.450,56.980,1.750
11006500,1.129,0.133,0.256,18.270,56.350,-4.200
11006524,1.235,0.085,0.314,10.570,58.660,-17.500
11006543,1.326,-0.002,0.329,9.590,81.410,-28.350
11006563,1.130,-0.080,0.267,29.120,81.550,-36.260
11006579,1.130,0.032,0.287,48.580,77.630,-42.140
11006599,1.090,0.168,0.317,51.590,83.370,-50.330
11006624,1.019,0.177,0.351,40.670,79.590,-56.630
11006644,1.036,0.160,0.332,38.430,79.800,-59.710
11006663,0.997,0.167,0.282,29.750,81.550,-62.580
11006683,0.960,0.057,0.219,31.150,77.560,-66.780
11006703,0.935,-0.093,0.196,62.160,76.860,-65.100
11006727,0.789,-0.053,0.206,81.690,66.570,-58.730
11006746,0.683,-0.043,0.238,94.850,52.220,-56.350
11006766,0.646,0.054,0.385,115.080,29.050,-62.860
11006787,0.751,0.148,0.474,108.290,25.480,-71.330
11006811,0.826,0.150,0.447,80.010,42.280,-77.350
11006826,0.631,0.148,0.403,63.910,52.430,-76.020
11006851,0.630,0.170,0.392,50.050,50.400,-74.620
11006866,0.647,0.223,0.412,50.890,41.510,-72.240
11006891,0.754,0.304,0.496,45.990,35.000,-66.710
11006911,0.812,0.285,0.553,47.110,36.890,-59.010
11006931,0.879,0.328,0.556,61.110,26.460,-49.910
11006955,0.874,0.400,0.556,85.540,8.050,-44.170
11006975,0.830,0.412,0.691,124.460,-5.530,-42.840
11006990,0.694,0.392,0.773,157.430,-6.510,-31.080
11007015,0.616,0.810,0.778,174.720,0.560,-37.310
11007035,0.420,1.029,0.591,73.080,25.480,-48.510
11007053,0.315,0.854,0.401,-6.930,31.920,-63.350
11007076,0.311,0.507,0.293,-43.190,35.770,-61.110
11007096,0.317,0.383,0.230,-30.450,39.760,-48.370
11007117,0.308,0.474,0.317,-46.340,43.260,-31.570
11007137,0.240,0.541,0.409,-63.490,66.150,-18.970
11007156,0.135,0.552,0.386,-41.020,56.770,-6.580
11007177,0.336,0.601,0.429,-29.820,37.590,6.300
11007196,0.508,0.930,0.356,-64.540,57.680,20.930
11007220,0.368,0.956,0.267,-154.630,48.860,25.550
11007239,0.333,0.530,0.349,-141.750,10.570,28.350
11007259,0.411,0.409,0.528,-78.540,-14.350,36.890
11007283,0.448,0.524,0.544,-22.190,-27.160,35.980
11007302,0.401,0.535,0.494,11.970,-51.870,35.840
11007326,0.511,0.590,0.500,29.750,-63.910,37.450
11007344,0.504,0.607,0.508,16.520,-67.760,36.260
11007363,0.597,0.619,0.472,1.540,-69.370,36.680
11007387,0.585,0.594,0.445,-29.190,-62.930,33.600
11007407,0.578,0.350,0.430,-36.540,-73.220,37.310
11007424,0.651,0.270,0.446,-23.940,-73.570,42.490
11007447,0.674,0.339,0.422,-17.990,-73.780,49.420
11007468,0.735,0.319,0.427,-32.900,-75.740,54.530
11007485,0.772,0.272,0.412,-41.230,-73.290,58.660
11007509,0.799,0.264,0.383,-57.190,-72.240,63.210
11007529,0.837,0.240,0.367,-72.100,-74.060,65.380
11007547,0.873,0.153,0.379,-81.830,-77.560,67.410
11007566,0.955,0.106,0.416,-80.290,-77.770,71.750
11007591,1.017,0.107,0.406,-80.640,-75.810,72.380
11007609,1.063,0.071,0.426,-80.080,-75.740,72.520
11007633,1.068,0.021,0.479,-66.290,-75.040,72.940
11007653,1.075,0.001,0.544,-45.920,-77.840,73.010
11007670,1.111,0.123,0.582,-30.660,-63.630,71.120
11007693,1.025,0.230,0.745,-45.850,-54.390,64.680
11007713,0.983,0.183,0.610,-63.630,-44.450,57.680
11007733,0.979,0.101,0.558,-78.820,-38.220,51.730
11007757,1.027,0.047,0.513,-81.130,-30.520,44.520
11007777,0.976,-0.051,0.468,-67.620,-33.110,44.380
11007795,0.953,-0.027,0.505,-45.220,-27.650,40.180
11007817,0.917,0.038,0.468,-34.720,-28.490,30.940
11007837,0.924,0.045,0.430,-36.260,-24.010,20.580
11007860,0.795,0.001,0.382,-41.300,-22.890,3.780
11007879,0.747,-0.054,0.350,-33.530,-33.950,-2.730
11007904,0.827,-0.093,0.312,-13.160,-34.440,-8.330
11007923,0.741,-0.002,0.275,2.660,-31.780,-16.660
11007947,0.658,0.010,0.250,14.490,-45.430,-30.310
11007967,0.655,-0.156,0.303,37.240,-48.650,-42.420
11007985,0.726,-0.209,0.298,69.580,-49.000,-50.960
11008004,0.843,-0.108,0.272,104.720,-51.240,-53.480
11008029,1.004,-0.033,0.205,116.270,-36.750,-48.930
11008047,0.909,0.121,0.110,106.260,-23.940,-48.510
11008067,0.891,-0.090,0.130,126.490,-23.240,-47.040
11008090,0.956,0.012,0.107,148.400,-20.020,-33.670
11008110,0.932,0.175,0.067,107.870,-7.630,-24.500
11008129,0.859,0.025,0.031,108.780,-9.310,-24.150
11008154,0.908,0.037,0.067,130.200,-9.240,-15.190
11008173,0.971,0.081,0.120,117.740,-9.660,-10.990
11008193,1.000,0.096,0.267,116.690,-7.980,-7.840
11008212,1.143,0.277,0.294,74.270,14.210,-3.430
11008232,1.276,0.255,0.149,-25.410,37.940,5.110
11008257,1.282,0.353,-0.005,-111.580,40.740,19.040
11008276,1.499,0.297,-0.019,-141.470,56.490,32.270
11008294,1.454,0.360,-0.089,-166.810,51.590,41.440
11008313,1.299,0.328,-0.028,-179.060,40.040,35.980
11008334,1.293,0.216,0.099,-168.630,20.440,22.050
11008358,1.205,-0.047,0.140,-123.060,1.890,7.350
11008376,1.122,-0.009,0.153,-55.720,-15.120,-1.680
11008396,1.208,-0.017,0.259,18.760,-29.330,-7.140
11008416,1.313,0.212,0.301,41.300,-28.560,-8.820
11008435,1.347,0.318,0.286,10.850,-21.210,-10.640
11008460,1.357,0.252,0.307,-19.390,-21.700,-10.150
11008475,1.401,0.171,0.347,-28.700,-14.840,-8.610
11008500,1.391,0.134,0.335,-32.830,-7.280,-3.360
11008520,1.345,0.099,0.210,-39.410,-7.280,1.400
11008538,1.340,0.108,0.099,-34.230,-8.540,5.600
11008561,1.440,0.120,0.091,-30.030,-19.110,13.790
11008585,1.470,0.089,0.143,-23.170,-8.260,24.010
11008605,1.308,0.175,0.080,-27.020,-12.390,23.170
11008625,1.284,0.160,0.102,-31.850,-26.390,25.620
11008645,1.426,0.127,0.131,-42.210,-20.580,25.060
11008665,1.273,0.232,0.045,-61.670,-9.100,18.970
11008683,1.080,0.264,0.018,-86.800,-13.160,8.610
11008702,1.039,0.153,0.034,-110.810,-26.880,-8.610
11008726,1.068,-0.086,0.155,-89.880,-35.840,-34.020
11008746,0.986,-0.371,0.328,-26.810,-34.440,-49.210
11008763,0.901,-0.363,0.366,20.720,-35.840,-53.970
11008787,0.854,-0.341,0.388,76.230,-36.680,-49.140
11008807,1.016,-0.162,0.366,92.820,-25.900,-34.930
11008827,0.895,-0.021,0.249,78.120,-9.520,-19.320
11008846,0.809,-0.070,0.268,69.090,-12.320,-6.090
11008870,0.886,-0.053,0.334,82.600,-4.270,13.020
11008888,0.837,0.067,0.325,85.750,10.920,20.720
11008912,0.761,0.106,0.354,77.280,23.100,19.670
11008932,0.728,-0.001,0.381,90.720,26.670,19.530
11008951,0.788,0.058,0.365,96.530,32.900,21.140
11008972,0.837,0.193,0.317,74.410,38.850,23.870
11008990,0.888,0.147,0.234,51.800,34.160,26.950
11009009,1.012,0.051,0.212,46.760,34.090,29.400
11009033,1.183,0.025,0.173,42.280,45.780,32.060
11009052,1.211,0.151,0.113,19.460,60.060,22.190
11009070,1.187,0.151,0.094,-3.220,57.960,20.580
11009093,1.218,-0.038,0.126,-5.180,57.750,18.760
11009116,1.253,-0.102,0.143,5.180,61.320,19.390
11009137,1.254,-0.118,0.090,18.760,67.970,22.260
11009156,1.230,-0.083,0.094,20.720,69.510,25.900
11009180,1.109,-0.040,0.142,25.830,70.980,25.480
11009200,0.982,0.030,0.249,22.120,75.460,20.370
11009219,0.806,0.033,0.260,8.750,69.440,14.630
11009240,0.744,0.018,0.237,-5.110,62.860,5.810
11009259,0.709,-0.017,0.236,-7.630,57.890,-3.500
11009284,0.632,-0.066,0.293,16.450,44.660,-16.170
11009302,0.614,-0.008,0.353,38.640,37.940,-30.590
11009326,0.659,0.014,0.399,56.560,26.250,-47.040
11009346,0.743,-0.018,0.416,64.540,16.800,-57.890
11009365,0.823,-0.055,0.518,87.500,21.980,-60.760
11009386,0.783,0.106,0.531,93.800,29.330,-61.600
11009405,0.781,0.165,0.471,75.950,30.940,-62.090
11009430,0.772,0.159,0.431,50.890,32.200,-63.000
11009449,0.728,0.087,0.434,43.470,27.790,-60.970
11009469,0.720,0.064,0.481,43.680,23.730,-57.330
11009490,0.745,0.035,0.522,46.270,14.280,-51.170
11009514,0.780,0.055,0.528,57.120,13.370,-40.180
11009534,0.846,0.100,0.571,61.670,10.570,-36.050
11009553,0.887,0.184,0.551,51.660,14.560,-32.900
11009572,0.972,0.182,0.535,37.380,21.000,-25.410
11009594,1.027,0.214,0.517,21.140,34.230,-14.910
11009615,0.976,0.235,0.506,9.520,40.180,-2.170
11009636,0.920,0.382,0.532,-5.740,47.040,5.180
11009656,0.859,0.463,0.516,-35.420,44.660,2.660
11009680,0.818,0.383,0.480,-58.730,43.890,-0.910
11009700,0.839,0.268,0.483,-57.470,38.920,-3.850
11009720,0.842,0.264,0.485,-45.360,38.080,-2.870
11009740,0.821,0.290,0.503,-37.170,33.460,-7.980
11009759,0.800,0.253,0.519,-30.030,32.200,-14.210
11009783,0.788,0.225,0.556,-14.210,29.400,-21.560
11009802,0.753,0.241,0.575,-2.800,28.630,-24.640
11009820,0.671,0.302,0.583,2.940,32.480,-24.640
11009843,0.522,0.369,0.548,-4.200,30.170,-25.620
11009863,0.403,0.326,0.542,-15.190,15.540,-30.100
11009887,0.357,0.220,0.565,-8.540,-7.630,-32.340
11009906,0.342,0.112,0.573,16.310,-25.900,-29.540
11009926,0.422,0.083,0.576,40.600,-41.230,-24.150
11009950,0.592,0.082,0.562,69.790,-55.790,-12.250
11009968,0.648,0.180,0.538,90.930,-53.270,4.480
11009989,0.624,0.313,0.540,103.110,-62.440,22.610
11010009,0.710,0.484,0.552,77.630,-63.840,31.150
11010033,0.684,0.481,0.533,35.770,-63.840,31.640
11010053,0.735,0.221,0.567,19.810,-75.250,35.560
11010071,0.860,0.117,0.598,30.380,-70.000,42.700
11010093,0.875,0.249,0.556,32.130,-57.330,54.810
11010113,0.912,0.328,0.497,8.890,-51.590,60.130
11010137,0.965,0.260,0.468,-16.030,-40.670,65.100
11010157,0.975,0.280,0.454,-40.180,-28.140,67.410
11010176,0.953,0.308,0.415,-71.540,-18.760,68.390
11010200,0.914,0.244,0.383,-96.180,-11.340,68.950
11010218,0.868,0.181,0.359,-104.020,-14.490,67.690
11010238,0.858,0.115,0.358,-106.330,-14.630,64.400
11010262,0.843,0.039,0.373,-97.720,-15.680,60.130
11010280,0.831,-0.009,0.372,-88.410,-18.200,57.400
11010299,0.830,-0.028,0.366,-76.510,-22.120,54.390
11010322,0.832,-0.012,0.362,-75.460,-25.690,48.440
11010338,0.856,-0.034,0.365,-73.220,-29.680,43.330
11010363,0.897,-0.062,0.371,-72.940,-33.600,33.950
11010379,0.930,-0.151,0.373,-68.250,-36.470,31.290
11010403,1.001,-0.190,0.378,-53.200,-36.330,27.930
11010426,1.004,-0.202,0.371,-37.660,-39.830,28.420
11010444,1.022,-0.193,0.361,-29.470,-40.530,30.870
11010468,1.014,-0.160,0.383,-19.880,-42.000,31.080
11010488,1.018,-0.147,0.381,-21.280,-39.200,32.270
11010507,1.028,-0.153,0.383,-25.060,-38.850,33.530
11010526,1.014,-0.165,0.379,-29.470,-35.700,33.180
11010550,1.011,-0.175,0.371,-33.250,-32.830,31.640
11010569,1.043,-0.194,0.348,-35.980,-31.710,31.150
11010590,1.089,-0.200,0.356,-34.160,-26.040,30.520
11010610,1.075,-0.205,0.376,-29.820,-22.750,30.660
11010629,1.059,-0.186,0.370,-28.350,-20.020,30.660
11010654,1.063,-0.148,0.363,-39.200,-14.910,29.610
11010671,1.026,-0.149,0.360,-48.230,-12.320,28.280
11010693,0.995,-0.163,0.352,-58.030,-9.310,25.480
11010717,1.018,-0.190,0.389,-57.890,-10.010,20.580
11010737,1.076,-0.199,0.375,-57.820,-1.120,16.310
11010757,1.059,-0.162,0.378,-63.700,1.400,11.200
11010777,1.076,-0.090,0.419,-86.590,8.400,6.510
11010797,1.082,-0.072,0.372,-122.570,16.100,1.750
11010816,1.048,-0.115,0.356,-146.580,19.460,-0.770
11010836,1.038,-0.127,0.426,-164.220,24.080,-2.450
11010860,1.033,-0.158,0.393,-189.350,34.580,-5.740
11010878,1.007,-0.224,0.297,-195.300,38.220,-9.730
11010899,0.999,-0.389,0.249,-161.910,38.080,-14.700
11010919,0.998,-0.480,0.254,-135.380,37.730,-22.820
11010938,0.995,-0.494,0.275,-87.010,38.360,-28.000
11010959,0.963,-0.480,0.276,-43.610,37.520,-35.910
11010983,0.969,-0.454,0.277,-13.370,37.590,-44.450
11011003,0.955,-0.425,0.274,9.730,33.320,-48.160
11011023,0.976,-0.383,0.295,22.610,34.020,-49.910
11011041,0.970,-0.338,0.288,20.930,31.430,-47.740
11011062,0.986,-0.365,0.305,21.770,28.000,-44.030
11011084,1.041,-0.369,0.376,35.350,27.860,-36.610
11011104,1.037,-0.336,0.383,33.180,34.300,-26.950
11011123,1.004,-0.337,0.346,31.150,33.880,-18.760
11011147,1.017,-0.356,0.389,39.060,35.980,-6.510
11011166,1.009,-0.325,0.411,44.520,41.930,4.900
11011191,0.962,-0.285,0.394,39.550,44.450,16.310
11011207,0.943,-0.245,0.399,32.270,44.450,21.070
11011231,0.956,-0.225,0.407,17.780,49.140,29.680
11011251,0.939,-0.190,0.386,-2.380,53.760,34.860
11011274,0.907,-0.211,0.365,-20.020,51.940,39.690
11011294,0.890,-0.257,0.344,-23.940,51.030,43.120
11011313,0.861,-0.273,0.317,-22.750,48.090,44.730
11011337,0.844,-0.286,0.308,-17.570,42.700,45.010
11011357,0.834,-0.291,0.285,-14.630,39.760,45.150
11011377,0.804,-0.287,0.278,-9.380,30.870,41.580
11011397,0.825,-0.288,0.282,-3.640,23.660,38.710
11011416,0.842,-0.291,0.298,1.960,18.830,35.210
11011440,0.830,-0.280,0.307,5.950,13.230,30.240
11011455,0.818,-0.273,0.303,6.510,9.100,26.250
11011480,0.804,-0.271,0.314,10.360,0.980,20.020
11011498,0.794,-0.269,0.336,15.330,-3.710,14.770
11011522,0.793,-0.256,0.346,18.060,-7.210,7.700
11011540,0.800,-0.260,0.350,19.460,-12.040,1.680
11011562,0.808,-0.264,0.371,23.170,-15.960,-5.740
11011586,0.810,-0.260,0.400,26.810,-20.510,-12.810
11011605,0.808,-0.256,0.411,28.420,-22.820,-17.360
11011625,0.829,-0.250,0.427,30.240,-26.670,-21.770
11011645,0.866,-0.238,0.454,29.400,-29.540,-26.180
11011665,0.889,-0.241,0.479,30.380,-28.420,-29.190
11011689,0.900,-0.228,0.503,29.750,-27.300,-29.540
11011709,0.902,-0.218,0.509,24.500,-25.620,-29.260
11011725,0.905,-0.200,0.503,18.620,-22.470,-28.280
11011745,0.896,-0.200,0.496,13.650,-19.600,-27.020
11011768,0.918,-0.193,0.503,8.890,-19.180,-26.320
11011789,0.916,-0.208,0.494,2.100,-15.260,-26.250
11011808,0.915,-0.225,0.491,-1.330,-12.740,-26.460
11011828,0.906,-0.242,0.488,-2.800,-10.570,-26.880
11011851,0.909,-0.249,0.481,-2.380,-8.820,-27.230
11011872,0.917,-0.253,0.477,-2.800,-7.840,-28.140
11011892,0.914,-0.261,0.462,-4.200,-6.790,-28.420
11011911,0.918,-0.274,0.456,-4.620,-6.720,-28.280
11011933,0.921,-0.286,0.452,-3.430,-6.580,-27.790
11011957,0.938,-0.292,0.435,-1.750,-5.950,-26.390
11011977,0.951,-0.305,0.427,1.400,-5.110,-24.570
11011996,0.943,-0.313,0.426,5.320,-4.410,-21.280
11012015,0.935,-0.307,0.427,8.540,-3.710,-16.590
11012035,0.920,-0.299,0.411,8.470,-2.520,-11.410
11012058,0.919,-0.297,0.407,8.190,-2.170,-4.270
11012079,0.927,-0.283,0.407,7.630,-1.540,1.750
11012098,0.932,-0.280,0.401,5.530,-1.120,7.210
11012123,0.926,-0.281,0.399,5.460,-0.070,12.810
11012141,0.930,-0.276,0.389,5.740,-0.770,16.380
11012162,0.939,-0.272,0.387,7.070,-1.120,19.950
11012186,0.934,-0.266,0.391,9.590,-1.750,23.870
11012204,0.930,-0.259,0.391,10.360,-1.330,26.040
11012224,0.904,-0.257,0.376,12.600,-2.170,28.490
11012243,0.895,-0.256,0.361,15.610,-4.270,29.750
11012267,0.898,-0.255,0.357,18.130,-7.280,30.380
11012288,0.913,-0.244,0.373,23.940,-11.550,29.540
11012308,0.955,-0.227,0.371,20.930,-9.380,28.490
11012328,0.917,-0.236,0.367,21.420,-11.760,27.020
11012348,0.909,-0.225,0.366,19.390,-13.370,25.340
11012365,0.887,-0.238,0.352,19.740,-15.190,23.380
11012385,0.873,-0.240,0.342,21.490,-18.130,20.580
11012409,0.867,-0.256,0.331,24.850,-21.700,16.240
11012428,0.869,-0.267,0.314,30.100,-25.060,13.580
11012447,0.877,-0.272,0.298,33.180,-26.460,10.710
11012472,0.877,-0.270,0.279,35.280,-30.310,8.610
11012492,0.902,-0.273,0.275,36.330,-34.300,7.070
11012512,0.934,-0.272,0.262,32.620,-31.360,7.140
11012531,0.890,-0.305,0.251,35.560,-34.230,7.770
11012555,0.937,-0.304,0.266,44.100,-36.260,7.560
11012572,0.968,-0.292,0.266,45.850,-35.910,7.210
11012592,0.978,-0.279,0.269,44.590,-34.230,6.580
11012616,0.964,-0.280,0.268,41.930,-33.040,7.770
11012636,0.982,-0.284,0.268,41.860,-33.460,9.380
11012656,1.019,-0.286,0.296,44.310,-31.710,10.990
11012674,1.047,-0.265,0.331,47.250,-28.210,13.020
11012696,1.025,-0.214,0.366,43.050,-24.710,15.120
11012720,1.031,-0.212,0.407,38.430,-17.500,16.240
11012740,0.981,-0.206,0.421,36.960,-13.440,17.290
11012759,0.952,-0.209,0.436,40.530,-11.620,17.990
11012784,0.937,-0.182,0.460,46.200,-8.120,17.500
11012803,0.932,-0.168,0.470,48.440,-5.880,16.380
11012826,0.921,-0.133,0.479,45.150,-3.360,14.350
11012847,0.942,-0.117,0.508,41.090,-2.100,12.390
11012867,0.970,-0.113,0.546,40.460,1.890,11.620
11012886,0.969,-0.107,0.557,41.650,6.580,12.320
11012908,0.946,-0.088,0.557,42.910,10.640,14.420
11012928,0.883,-0.048,0.525,35.910,17.220,15.890
11012952,0.875,-0.021,0.499,25.270,12.180,12.460
11012971,0.885,-0.027,0.485,11.690,10.990,7.770
11012990,0.907,-0.052,0.495,0.560,10.220,0.770
11013014,0.878,-0.092,0.500,-2.940,8.330,-6.860
11013035,0.859,-0.107,0.484,-3.360,3.990,-13.650
11013050,0.852,-0.105,0.459,-4.200,4.830,-16.940
11013074,0.817,-0.094,0.424,-10.220,2.660,-20.930
11013090,0.796,-0.102,0.402,-15.680,-1.050,-22.680
11013114,0.803,-0.129,0.404,-17.080,-7.000,-23.030
11013131,0.843,-0.124,0.407,-13.090,-12.950,-22.750
11013150,0.918,-0.081,0.414,-13.230,-15.750,-23.380
11013170,0.864,0.065,0.376,-29.960,-16.100,-28.280
11013193,0.833,0.181,0.296,-65.800,-32.130,-37.310
11013213,0.941,0.153,0.266,-96.670,-41.580,-45.710
11013237,1.077,0.144,0.243,-113.400,-48.300,-62.020
11013256,1.103,0.135,0.227,-122.080,-38.150,-75.950
11013275,1.008,0.080,0.215,-122.430,-36.890,-94.570
11013294,1.164,0.077,0.231,-99.540,-39.550,-105.630
11013319,0.983,-0.052,0.111,-91.560,-44.730,-115.570
11013339,1.107,-0.061,0.102,-47.040,-40.460,-125.160
11013358,1.161,-0.090,0.110,-17.150,-42.350,-132.930
11013383,1.221,-0.118,0.111,9.240,-45.010,-142.380
11013401,1.192,-0.155,0.134,24.360,-49.140,-146.580
11013420,1.096,-0.295,0.245,55.230,-55.370,-145.180
11013442,0.978,-0.340,0.315,101.920,-61.040,-137.060
11013462,0.903,-0.354,0.371,143.850,-63.350,-123.270
11013486,0.857,-0.323,0.406,169.820,-53.830,-96.810
11013506,0.808,-0.334,0.417,181.300,-46.480,-86.030
11013526,0.887,-0.305,0.416,178.920,-31.990,-68.320
11013546,0.970,-0.290,0.420,176.610,-31.150,-61.250
11013570,1.145,-0.261,0.553,168.700,-15.400,-55.860
11013589,1.224,-0.246,0.624,137.410,19.810,-46.270
11013613,1.189,-0.516,0.625,105.630,36.960,-21.490
11013638,1.375,-0.886,0.726,165.410,84.350,31.150
11013657,1.532,-0.556,0.490,231.070,134.610,77.000
11013675,1.567,-0.224,0.386,210.210,165.060,98.210
11013698,1.671,-0.020,0.304,130.340,199.990,119.210
11013718,1.737,-0.132,0.239,80.010,217.420,133.490
11013737,1.808,-0.136,0.266,48.790,227.080,148.540
11013761,1.785,-0.253,0.231,22.750,245.630,171.290
11013781,1.740,-0.350,0.237,59.150,251.090,180.180
11013802,1.650,-0.257,0.153,64.540,259.140,194.110
11013818,1.553,-0.096,0.012,81.480,286.160,192.850
11013841,1.255,0.007,-0.012,78.120,228.830,173.040
11013862,1.123,0.034,0.096,80.430,210.350,151.480
11013880,1.031,-0.072,0.108,74.550,198.100,133.350
11013904,0.957,-0.249,0.037,120.820,169.960,111.300
11013924,0.965,-0.095,0.057,181.650,152.810,92.050
11013940,0.905,0.120,0.075,170.940,152.180,79.030
11013964,0.781,0.138,0.116,143.780,136.640,63.840
11013984,0.819,0.103,0.303,126.070,132.300,51.940
11014003,0.833,0.218,0.412,100.240,138.390,42.420
11014028,0.754,0.212,0.259,54.880,146.650,37.590
11014046,0.656,0.035,0.201,46.340,133.490,37.310
11014068,0.597,0.069,0.299,66.640,124.390,40.040
11014087,0.580,0.163,0.439,59.500,119.070,42.140
11014108,0.583,0.120,0.430,49.140,113.750,46.690
11014133,0.512,0.140,0.476,53.340,102.550,49.840
11014152,0.466,0.243,0.633,35.210,97.440,53.200
11014171,0.476,0.383,0.639,-16.800,95.410,50.330
11014188,0.389,0.189,0.700,-35.980,83.230,50.890
11014208,0.322,0.120,0.859,-30.870,79.380,48.440
11014232,0.176,0.142,0.925,-20.650,81.620,44.170
11014252,0.017,0.176,0.990,-20.370,55.300,38.360
11014271,0.050,0.199,1.120,-29.890,38.710,31.290
11014291,0.011,0.115,1.278,-38.920,24.920,26.670
11014313,-0.075,0.036,1.394,-16.730,20.510,22.960
11014337,-0.148,0.045,1.586,9.730,-0.070,17.710
11014358,-0.099,0.106,1.761,18.200,-2.870,10.290
11014377,-0.166,0.191,1.784,2.590,6.510,1.190
11014401,-0.233,0.188,1.734,-19.460,-0.420,-13.230
11014420,-0.216,0.123,1.647,-33.040,-12.740,-17.920
11014440,-0.245,0.050,1.586,-42.980,-27.510,-15.260
11014461,-0.292,-0.010,1.798,-7.070,-74.270,-15.470
11014480,-0.087,0.027,1.928,26.040,-93.100,-21.490
11014503,0.138,0.101,1.873,35.910,-80.220,-38.990
11014524,0.174,0.159,1.646,22.960,-46.200,-55.300
11014543,0.137,0.138,1.564,-3.290,-36.470,-61.950
11014567,0.158,0.046,1.513,-23.380,-25.620,-64.540
11014590,0.255,-0.003,1.440,-30.240,-12.810,-62.650
11014611,0.232,-0.103,1.240,-29.820,-2.030,-56.840
11014631,0.128,-0.187,1.188,-3.710,-6.090,-49.210
11014651,0.151,-0.119,1.153,14.280,-1.400,-43.610
11014671,0.150,-0.092,1.034,21.420,6.790,-35.770
11014695,0.166,-0.028,0.890,12.600,18.410,-26.320
11014713,0.176,-0.014,0.703,0.840,13.090,-18.760
11014733,0.236,-0.018,0.550,-18.480,10.640,-10.500
11014757,0.216,-0.092,0.455,-20.160,2.310,0.420
11014776,0.093,-0.112,0.462,8.470,-21.980,4.760
11014799,0.152,0.027,0.504,30.240,-42.560,3.080
11014820,0.117,0.067,0.489,13.860,-55.790,-0.490
11014837,0.142,0.024,0.476,4.480,-70.980,-4.760
11014861,0.367,-0.008,0.435,1.190,-89.460,-8.050
11014881,0.369,-0.040,0.311,-3.640,-107.590,-9.590
11014901,0.515,-0.040,0.193,-17.990,-121.170,-8.820
11014925,0.568,-0.066,0.129,-47.810,-148.470,-7.560
11014944,0.642,-0.125,0.112,-56.420,-158.760,-8.680
11014963,0.815,-0.112,0.126,-73.920,-194.110,-14.420
11014982,1.099,-0.055,0.335,-92.960,-213.920,-17.780
11015006,1.053,-0.000,0.389,-136.990,-186.760,-40.040
11015023,1.028,-0.006,0.295,-177.730,-194.530,-55.930
11015046,1.055,-0.079,0.232,-205.520,-205.380,-80.780
11015063,1.119,-0.092,0.420,-190.120,-198.660,-94.080
11015085,1.154,-0.010,0.390,-188.300,-198.380,-119.140
11015104,1.321,0.016,0.341,-198.380,-201.880,-136.010
11015129,1.446,0.021,0.310,-218.890,-190.610,-157.290
11015148,1.560,0.080,0.275,-256.760,-168.420,-181.300
11015167,1.587,-0.003,0.228,-288.610,-159.600,-203.490
11015186,1.648,-0.102,0.215,-319.340,-151.970,-225.050
11015211,1.736,-0.251,0.229,-334.600,-139.510,-247.100
11015230,1.824,-0.425,0.267,-319.620,-133.350,-265.790
11015248,1.958,-0.621,0.364,-252.980,-120.260,-278.530
11015272,1.864,-0.781,0.415,-164.080,-84.770,-281.890
11015291,1.738,-0.881,0.437,-79.030,-70.980,-261.450
11015315,1.475,-0.935,0.436,22.820,-63.140,-221.200
11015335,1.334,-0.887,0.506,92.820,-41.160,-170.660
11015355,1.085,-0.689,0.551,155.400,-31.710,-117.950
11015374,0.915,-0.334,0.478,147.140,-7.000,-72.380
11015396,0.819,-0.129,0.436,81.900,-6.020,-33.250
11015420,0.814,-0.135,0.416,4.900,3.990,-4.760
11015440,0.834,-0.217,0.383,-37.380,21.420,16.450
11015460,0.806,-0.323,0.360,-76.580,30.940,31.640
11015476,0.784,-0.486,0.330,-72.380,37.170,45.500
11015500,0.789,-0.584,0.302,-29.470,36.750,63.770
11015520,0.854,-0.604,0.299,20.930,36.190,78.820
11015540,0.960,-0.560,0.319,70.420,41.860,91.980
11015561,1.038,-0.519,0.325,105.700,45.360,106.400
11015580,1.190,-0.530,0.348,148.400,47.250,116.620
11015599,1.505,-0.468,0.397,199.150,38.360,123.550
11015623,1.859,-0.343,0.445,226.940,76.650,130.130
11015644,1.879,-0.246,0.441,215.390,116.620,140.490
11015662,1.882,-0.124,0.391,188.930,147.210,154.070
11015683,1.815,-0.095,0.309,160.510,171.290,166.110
11015703,1.874,-0.029,0.282,146.860,180.880,169.540
11015726,1.935,0.004,0.216,117.040,203.840,171.640
11015747,1.863,-0.060,0.194,93.380,210.350,168.770
11015765,1.817,-0.138,0.240,98.770,216.440,164.780
11015786,1.724,-0.101,0.212,87.220,217.000,158.620
11015802,1.593,-0.202,0.157,88.970,208.040,159.880
11015822,1.465,-0.294,0.188,122.990,205.590,154.770
11015842,1.345,-0.185,0.210,152.390,199.080,153.020
11015867,1.125,-0.066,0.092,151.760,202.440,144.410
11015888,0.847,-0.077,0.088,161.630,165.620,133.420
11015907,0.794,-0.008,0.135,181.650,165.550,116.060
11015922,0.691,0.090,0.122,173.390,163.100,101.080
11015947,0.522,-0.007,0.152,155.820,129.780,77.140
11015967,0.565,-0.014,0.280,175.560,102.270,59.780
11015990,0.433,0.095,0.263,168.140,94.220,39.340
11016010,0.454,0.112,0.303,161.280,87.150,26.180
11016034,0.524,0.194,0.346,141.820,91.000,13.160
11016052,0.488,0.239,0.275,95.410,97.090,7.420
11016076,0.445,0.216,0.272,56.420,88.200,1.610
11016096,0.376,0.230,0.379,37.170,87.640,-1.260
11016113,0.345,0.305,0.401,10.220,83.300,-4.550
11016137,0.316,0.230,0.435,-26.740,76.090,-2.030
11016157,0.256,0.177,0.558,-27.510,73.500,4.060
11016177,0.158,0.135,0.538,-7.630,71.960,4.480
11016197,0.139,0.176,0.525,17.500,63.350,0.630
11016217,0.146,0.411,0.600,16.660,48.160,-3.500
11016237,0.178,0.448,0.655,-41.650,50.680,-11.760
11016254,0.156,0.221,0.685,-56.070,48.650,-11.060
11016273,0.091,0.155,0.769,-49.070,43.540,-9.240
11016296,0.123,0.187,0.797,-54.040,43.050,-9.380
11016319,0.033,0.152,0.831,-66.710,37.310,-11.830
11016340,0.022,0.020,1.008,-41.090,16.800,-10.010
11016360,0.074,0.145,1.113,-34.510,20.860,-8.120
11016380,0.106,0.226,1.090,-60.480,14.140,-7.490
11016404,0.008,0.002,1.084,-42.840,5.740,-8.120
11016424,-0.081,-0.081,1.451,5.110,-24.290,-5.880
11016442,-0.061,-0.030,1.844,54.670,-28.490,-8.190
11016462,-0.046,0.194,1.957,68.810,1.540,-16.380
11016484,-0.185,0.188,1.842,59.430,12.390,-29.540
11016503,-0.265,0.143,1.785,56.140,-4.620,-39.130
11016521,-0.244,0.228,1.813,35.070,-7.910,-42.700
11016544,-0.321,0.261,1.667,-21.280,0.210,-39.130
11016562,-0.446,0.117,1.485,-47.810,-29.820,-31.990
11016585,-0.321,-0.045,1.559,-26.040,-78.470,-26.950
11016606,0.032,-0.067,1.544,43.540,-99.050,-30.870
11016625,0.192,0.093,1.294,49.350,-87.780,-32.340
11016649,0.235,0.158,1.184,43.190,-94.430,-36.400
11016670,0.276,0.158,1.086,20.510,-98.140,-37.380
11016685,0.406,0.113,1.113,18.200,-94.080,-34.300
11016709,0.466,0.218,1.109,8.960,-86.030,-26.740
11016729,0.357,0.292,0.900,-39.130,-72.450,-24.920
11016746,0.391,0.191,0.737,-66.150,-81.410,-24.920
11016770,0.484,0.023,0.529,-75.740,-81.690,-27.510
11016785,0.492,-0.041,0.553,-57.960,-103.670,-23.870
11016810,0.466,-0.015,0.681,-13.930,-119.420,-27.440
11016830,0.608,0.117,0.597,-31.360,-124.810,-33.880
11016848,0.717,0.093,0.429,-59.080,-133.770,-38.570
11016865,0.769,0.023,0.193,-95.480,-134.050,-43.470
11016890,0.640,-0.336,0.146,-48.580,-230.440,-40.460
11016910,1.150,-0.212,0.491,18.480,-204.400,-44.170
11016929,1.202,0.076,0.453,0.980,-210.770,-43.330
11016948,1.270,0.056,0.314,-43.960,-213.990,-42.980
11016968,1.140,-0.122,0.351,-50.680,-237.300,-46.760
11016988,1.342,-0.139,0.430,-13.720,-273.140,-48.020
11017012,1.623,0.063,0.485,-18.620,-279.020,-48.300
11017028,1.932,0.185,0.196,-86.660,-247.590,-48.090
11017051,1.945,-0.271,-0.231,-103.320,-227.710,-60.410
11017075,1.804,-0.468,-0.044,38.710,-236.320,-37.450
11017094,1.703,-0.041,0.152,84.980,-235.550,-18.900
11017115,1.533,0.285,0.272,51.310,-232.470,-11.620
11017138,1.414,0.252,0.388,-23.520,-240.800,-19.740
11017155,1.450,0.211,0.405,-91.210,-240.240,-31.430
11017179,1.417,0.178,0.378,-154.210,-229.530,-56.560
11017197,1.344,0.060,0.357,-205.170,-217.770,-73.430
11017219,1.273,-0.055,0.371,-219.170,-192.990,-90.790
11017239,1.217,0.041,0.447,-234.010,-173.670,-101.150
11017259,1.159,0.148,0.400,-298.970,-129.150,-106.400
11017281,0.970,0.019,0.296,-361.340,-102.900,-116.200
11017305,0.942,-0.147,0.380,-365.190,-80.360,-112.350
11017324,0.937,-0.204,0.336,-369.810,-46.760,-103.530
11017344,0.930,-0.386,0.280,-356.300,-27.790,-90.300
11017363,0.910,-0.546,0.325,-310.940,-9.870,-71.120
11017389,0.821,-0.627,0.365,-237.650,13.860,-46.620
11017405,0.732,-0.744,0.417,-178.990,15.400,-28.490
11017424,0.706,-0.786,0.497,-99.890,23.800,1.540
11017444,0.625,-0.738,0.520,-17.290,30.730,32.690
11017469,0.618,-0.632,0.496,55.790,28.910,63.770
11017488,0.741,-0.465,0.447,101.430,37.310,85.610
11017509,0.849,-0.371,0.383,124.040,50.400,105.420
11017529,0.987,-0.281,0.340,131.460,57.680,118.860
11017547,1.116,-0.229,0.282,129.920,71.190,130.410
11017567,1.221,-0.215,0.194,127.960,72.800,141.820
11017589,1.404,-0.173,0.149,122.080,83.230,158.060
11017609,1.520,-0.147,0.142,106.890,93.100,163.660
11017633,1.644,-0.189,0.225,108.010,96.390,171.850
11017653,1.731,-0.344,0.264,137.410,109.830,169.470
11017672,1.791,-0.440,0.249,182.070,109.690,167.090
11017691,1.843,-0.403,0.276,239.400,101.920,163.800
11017714,1.936,-0.226,0.286,278.390,122.570,158.760
11017734,1.998,-0.091,0.147,266.840,149.590,155.470
11017753,1.953,-0.035,0.064,242.200,174.020,147.840
11017779,1.853,-0.011,0.030,231.980,185.290,138.460
11017798,1.774,0.127,0.038,193.200,198.800,130.830
11017818,1.629,0.141,0.025,140.770,209.930,126.420
11017838,1.437,0.040,0.022,105.210,205.660,123.550
11017858,1.132,-0.078,0.057,108.360,194.320,128.240
11017878,1.147,-0.061,0.148,137.480,182.910,121.310
11017898,1.088,-0.011,0.100,144.410,176.610,113.540
11017918,0.988,-0.089,0.078,157.290,179.970,101.780
11017933,0.821,-0.152,0.016,189.070,169.750,94.710
11017958,0.703,0.026,-0.046,221.690,161.350,89.320
11017978,0.528,0.091,-0.129,188.370,137.130,81.830
11017996,0.575,0.031,-0.011,200.970,96.530,73.220
11018018,0.537,0.038,0.115,240.660,84.840,54.880
11018038,0.546,0.201,0.252,268.660,69.230,38.570
11018053,0.616,0.302,0.306,263.970,72.520,24.570
11018077,0.662,0.518,0.368,207.970,82.740,4.550
11018098,0.658,0.837,0.319,42.070,108.430,-19.530
11018117,0.584,0.670,0.359,-61.250,111.580,-32.340
11018141,0.526,0.683,0.437,-126.840,119.770,-38.920
11018165,0.489,0.467,0.409,-196.490,112.350,-37.800
11018185,0.507,0.240,0.563,-157.220,99.750,-31.080
11018203,0.378,0.089,0.623,-123.690,92.820,-24.430
11018223,0.359,0.109,0.723,-78.400,76.020,-12.810
11018247,0.332,0.210,0.676,-57.050,59.780,-6.160
11018266,0.265,0.154,0.809,-39.760,46.340,-5.110
11018285,0.241,0.153,1.030,-14.910,32.270,-4.550
11018310,0.186,0.239,1.050,-23.590,36.890,-2.030
11018330,0.152,0.244,1.051,-45.220,34.650,-3.570
11018349,0.134,0.044,1.105,-28.210,23.870,-7.490
11018365,0.179,0.074,1.268,3.360,25.760,-11.480
11018387,0.154,0.197,1.443,1.050,16.310,-11.130
11018407,0.255,0.362,1.548,-44.100,32.550,-6.370
11018431,0.180,-0.031,1.596,-70.490,41.230,1.400
11018448,0.225,-0.144,1.805,-19.040,44.100,5.600
11018468,0.161,-0.009,1.980,22.680,67.900,17.920
11018487,-0.162,0.209,1.927,25.270,86.100,18.410
11018513,-0.490,0.276,1.863,9.730,56.840,7.280
11018532,-0.669,0.254,1.794,2.240,18.970,-5.740
11018551,-0.743,0.160,1.802,24.780,-51.100,-12.460
11018575,-0.468,0.176,1.894,73.710,-73.920,-21.140
11018594,-0.190,0.338,1.895,94.920,-58.870,-28.070
11018615,-0.040,0.452,1.613,75.600,-53.130,-39.690
11018630,0.152,0.411,1.432,39.550,-30.940,-53.270
11018655,0.160,0.232,1.216,9.660,-7.000,-51.240
11018674,0.122,0.227,1.021,-10.500,14.350,-48.580
11018693,0.052,0.123,0.839,-30.730,10.360,-42.210
11018716,0.099,0.075,0.704,-17.780,14.770,-37.590
11018737,0.014,0.130,0.543,-18.480,12.250,-35.070
11018756,-0.020,0.092,0.408,-22.120,-11.760,-35.700
11018780,0.021,0.025,0.358,-2.240,-38.710,-34.230
11018800,0.100,0.097,0.341,11.200,-50.190,-36.750
11018820,0.099,0.114,0.299,11.620,-70.420,-37.170
11018840,0.188,0.127,0.264,0.840,-84.840,-37.660
11018859,0.257,0.106,0.233,-8.190,-109.550,-37.030
11018881,0.314,0.118,0.350,-4.760,-132.020,-35.980
11018901,0.358,0.117,0.413,-3.850,-151.200,-39.340
11018921,0.418,0.077,0.401,-9.870,-176.680,-43.820
11018943,0.590,0.053,0.449,-18.900,-208.110,-49.910
11018963,0.753,-0.040,0.393,-40.320,-220.150,-57.190
11018987,0.847,-0.183,0.449,-39.410,-262.710,-58.240
11019008,0.959,-0.172,0.849,30.940,-284.200,-49.420
11019027,1.268,0.182,0.803,3.220,-246.890,-47.810
11019045,1.334,0.251,0.505,-85.400,-215.390,-49.770
11019066,1.411,0.203,0.253,-186.130,-211.960,-56.280
11019090,1.475,0.048,0.149,-249.900,-215.110,-64.470
11019110,1.617,-0.058,0.124,-298.200,-223.440,-73.290
11019130,1.861,-0.107,0.164,-334.320,-227.290,-76.230
11019149,1.878,-0.221,0.209,-376.670,-165.060,-91.350
11019169,1.535,-0.297,0.117,-392.280,-168.210,-105.350
11019190,1.467,-0.192,0.054,-422.800,-162.750,-126.420
11019210,1.416,-0.165,-0.004,-480.970,-158.970,-160.440
11019226,1.479,-0.407,0.005,-478.240,-147.980,-189.630
11019248,1.463,-0.702,0.053,-392.210,-116.900,-222.670
11019268,1.412,-0.806,0.066,-262.710,-100.660,-244.090
11019291,1.307,-0.858,0.133,-121.380,-87.150,-254.450
11019312,1.187,-0.883,0.267,8.050,-93.100,-249.690
11019336,1.144,-0.817,0.403,100.870,-101.710,-230.370
11019356,1.238,-0.603,0.587,137.760,-97.860,-196.770
11019372,1.252,-0.355,0.606,100.310,-87.990,-169.540
11019395,1.164,-0.380,0.628,41.510,-73.150,-130.340
11019416,1.133,-0.482,0.718,15.890,-50.120,-90.300
11019432,1.057,-0.528,0.757,11.760,-28.420,-53.550
11019453,0.960,-0.491,0.741,16.870,-8.890,-11.480
11019476,0.909,-0.483,0.688,19.040,16.520,28.420
11019494,0.885,-0.534,0.599,31.570,32.620,56.210
11019516,0.927,-0.493,0.520,47.040,44.730,81.690
11019540,1.026,-0.458,0.445,65.940,68.600,106.120
11019560,1.063,-0.410,0.386,91.840,79.030,119.490
11019580,1.219,-0.270,0.348,99.330,95.270,128.940
11019598,1.287,-0.222,0.299,92.680,101.290,135.800
11019621,1.357,-0.273,0.306,92.750,115.150,141.120
11019639,1.413,-0.301,0.340,104.440,112.700,142.030
11019663,1.464,-0.296,0.355,107.590,136.990,138.180
11019683,1.386,-0.373,0.349,131.670,121.240,134.400
11019703,1.473,-0.560,0.409,184.520,126.350,110.320
11019727,1.402,-0.597,0.478,257.530,115.150,74.900
11019746,1.499,-0.678,0.658,356.720,86.310,32.550
11019764,2.008,-0.854,1.020,462.280,88.480,-4.060
11019783,2.240,-0.518,0.697,417.480,221.410,-6.720
11019807,1.960,-0.421,0.358,323.680,282.170,7.630
11019827,1.946,-0.117,-0.031,265.370,341.390,21.350
11019851,1.856,0.083,-0.427,234.500,371.560,25.760
11019871,1.611,0.362,-0.353,162.540,324.170,18.200
11019890,1.564,0.313,-0.086,89.600,333.060,34.230
11019911,1.397,0.041,-0.056,89.460,304.640,34.860
11019930,1.316,0.005,-0.156,104.370,286.790,16.730
11019954,1.098,0.191,-0.256,63.280,253.050,-12.040
11019974,0.915,0.334,-0.158,4.130,193.480,-23.870
11019989,0.901,0.493,-0.100,-53.970,193.550,-28.910
11020014,0.764,0.495,-0.113,-173.950,188.860,-20.580
11020033,0.517,0.145,-0.092,-192.360,177.660,-10.080
11020052,0.316,-0.179,0.066,-125.510,123.410,13.930
11020072,0.311,-0.064,0.184,-32.270,111.440,24.920
11020095,0.236,0.189,0.241,-18.410,100.170,36.050
11020111,0.163,0.308,0.262,-46.270,110.320,35.700
11020135,0.121,0.077,0.402,-15.610,64.890,40.810
11020159,0.113,0.313,0.571,-13.510,67.130,43.050
11020179,0.046,0.315,0.664,-50.820,56.210,50.610
11020199,0.089,0.182,0.766,-58.030,41.790,54.320
11020218,0.084,0.151,0.848,-36.050,37.310,56.910
11020239,0.018,0.155,0.891,-3.150,27.930,49.490
11020259,-0.101,0.226,1.137,7.910,0.980,43.960
11020278,-0.066,0.344,1.394,23.660,-2.170,36.470
11020296,-0.062,0.445,1.527,-17.010,8.400,26.460
11020319,-0.066,0.367,1.602,-11.760,11.200,14.840
11020340,-0.077,0.390,1.784,-18.550,10.780,9.800
11020360,-0.126,0.360,1.896,-21.210,23.870,-0.840
11020379,-0.339,0.234,2.062,2.100,18.060,-10.780
11020397,-0.444,0.361,2.114,14.000,14.700,-14.630
11020417,-0.581,0.509,2.117,-3.780,9.100,-26.670
11020436,-0.758,0.323,2.128,7.560,-28.350,-34.720
11020461,-0.550,0.366,2.337,75.110,-72.380,-50.820
11020480,-0.163,0.533,2.370,109.550,-51.310,-72.800
11020500,-0.037,0.637,2.044,72.730,-6.790,-78.190
11020520,-0.036,0.545,1.665,2.940,18.060,-104.300
11020544,0.012,0.151,1.417,-16.310,17.220,-96.880
11020564,0.022,0.128,1.185,-33.390,53.060,-93.170
11020584,-0.109,-0.066,0.908,-39.760,45.570,-78.470
11020604,-0.072,-0.131,0.759,-23.380,33.950,-59.080
11020624,-0.088,-0.155,0.602,-19.950,39.270,-44.730
11020646,-0.103,-0.147,0.459,-8.260,32.970,-27.440
11020668,-0.132,-0.065,0.417,-0.770,16.520,-12.110
11020688,-0.143,-0.058,0.315,18.130,15.190,-3.010
11020712,-0.243,0.012,0.301,24.570,-21.140,0.280
11020733,-0.125,0.132,0.460,11.690,-27.370,-0.910
11020752,-0.208,0.097,0.431,-5.880,-43.820,-3.010
11020770,-0.098,-0.027,0.408,7.700,-60.970,-2.240
11020791,-0.002,0.119,0.270,10.850,-66.640,0.280
11020811,-0.066,0.152,0.324,-8.400,-82.670,1.190
11020835,-0.043,0.012,0.401,17.150,-115.010,-0.490
11020855,0.102,0.035,0.383,22.540,-130.270,-0.070
11020875,0.249,0.017,0.353,23.240,-143.360,1.820
11020895,0.292,0.210,0.350,-4.060,-162.260,-6.580
11020912,0.374,-0.082,0.337,-9.660,-197.190,-10.220
11020936,0.657,-0.319,0.561,79.590,-239.330,2.800
11020955,0.919,0.212,0.640,108.850,-214.060,16.100
11020977,0.702,0.484,0.403,-6.160,-209.370,12.810
11021001,0.892,0.069,0.457,-30.660,-237.230,11.340
11021021,1.102,0.117,0.438,-28.070,-231.350,11.830
11021041,1.232,0.256,0.383,-70.490,-226.660,9.380
11021061,1.357,0.219,0.328,-110.180,-235.550,3.500
11021078,1.453,0.197,0.377,-135.520,-219.380,-6.160
11021102,1.368,0.039,0.295,-158.550,-204.400,-28.490
11021121,1.359,0.098,0.221,-162.610,-199.570,-48.440
11021140,1.337,0.194,0.184,-184.380,-200.900,-58.590
11021162,1.469,0.132,0.172,-234.570,-208.110,-72.590
11021182,1.599,0.036,0.158,-267.050,-217.210,-88.270
11021203,1.743,-0.064,0.141,-289.030,-230.230,-111.300
11021226,1.961,-0.182,0.163,-283.080,-247.590,-148.190
11021242,2.088,-0.220,0.192,-266.630,-247.940,-175.770
11021262,2.136,-0.325,0.168,-245.420,-233.590,-217.420
11021286,2.110,-0.431,0.274,-195.160,-244.650,-250.250
11021310,2.113,-0.531,0.479,-128.100,-226.940,-265.440
11021330,2.082,-0.610,0.642,-70.910,-172.480,-257.250
11021347,1.728,-0.640,0.655,-32.060,-145.320,-229.180
11021370,1.464,-0.662,0.718,-3.290,-123.270,-172.270
11021391,1.194,-0.614,0.795,61.880,-102.200,-123.130
11021409,1.121,-0.403,0.833,68.460,-68.110,-76.090
11021428,1.027,-0.238,0.828,33.390,-32.760,-34.650
11021453,0.901,-0.252,0.839,-7.560,-0.350,0.140
11021468,0.854,-0.257,0.829,-31.010,23.590,20.020
11021492,0.825,-0.365,0.749,-54.390,48.300,41.160
11021516,0.863,-0.460,0.667,-44.380,67.830,63.280
11021531,0.910,-0.532,0.587,-18.830,79.520,74.760
11021556,0.982,-0.548,0.509,34.930,92.190,89.040
11021576,1.085,-0.494,0.477,77.000,95.340,96.320
11021593,1.261,-0.464,0.449,101.010,109.760,101.640
11021617,1.417,-0.482,0.482,142.030,125.020,104.720
11021635,1.600,-0.440,0.472,180.180,134.610,111.370
11021656,1.852,-0.320,0.383,197.470,165.760,113.610
11021680,2.063,-0.343,0.382,221.830,174.090,112.210
11021700,2.255,-0.199,0.319,217.700,217.490,114.520
11021720,2.248,-0.068,0.171,170.800,245.980,119.630
11021740,2.162,-0.049,0.089,122.850,262.360,132.020
11021763,2.088,-0.104,0.039,97.440,274.400,148.330
11021784,1.895,-0.085,0.024,85.470,282.730,161.560
11021803,1.866,0.025,0.012,56.350,287.210,169.400
11021821,1.693,-0.050,-0.232,30.310,266.280,183.470
11021844,1.378,-0.105,-0.011,45.710,263.270,166.670
11021860,1.217,-0.091,0.194,85.540,241.290,153.510
11021880,1.144,0.108,0.210,85.260,243.670,129.920
11021905,0.973,-0.086,0.055,79.310,232.260,102.200
11021921,0.851,-0.072,0.170,149.380,173.530,87.430
11021942,0.810,0.192,0.272,163.310,164.500,62.790
11021964,0.817,0.157,0.281,147.490,144.060,43.610
11021988,0.898,0.243,0.286,110.950,143.850,24.500
11022008,0.828,0.315,0.245,60.340,148.820,15.050
11022026,0.514,0.264,0.233,22.540,153.790,9.380
11022046,0.556,0.235,0.281,-13.860,134.050,8.890
11022066,0.532,0.127,0.203,-39.130,134.050,10.570
11022090,0.428,0.030,0.184,-33.530,115.150,19.600
11022110,0.372,0.008,0.260,-14.770,103.180,26.810
11022130,0.240,0.069,0.369,-0.840,93.940,34.510
11022148,0.192,0.019,0.407,11.340,101.360,38.570
11022167,0.052,0.083,0.390,36.540,73.780,41.300
11022190,0.140,0.202,0.508,17.430,56.560,37.940
11022212,0.065,0.117,0.719,0.980,45.360,35.560
11022230,-0.006,-0.041,0.807,19.880,40.810,35.630
11022249,0.020,0.068,0.842,37.870,40.810,37.310
11022274,0.042,0.139,0.908,29.330,34.440,33.180
11022292,0.049,0.105,0.992,40.460,35.350,32.550
11022312,0.107,0.159,1.090,36.330,30.450,32.340
11022334,0.129,0.154,1.165,58.730,41.510,35.350
11022356,0.056,0.315,1.355,69.230,37.240,42.210
11022376,0.097,0.554,1.681,75.600,42.910,40.740
11022394,-0.107,0.827,1.756,68.530,72.240,29.610
11022411,-0.305,0.957,1.800,42.000,67.830,6.440
11022436,-0.543,0.925,1.937,30.100,48.300,-17.570
11022456,-0.665,0.746,1.925,45.010,15.610,-37.800
11022474,-0.665,0.705,1.930,56.490,0.280,-41.230
11022495,-0.802,0.674,1.831,25.270,10.990,-49.630
11022515,-1.035,0.382,1.747,40.880,-26.390,-49.840
11022539,-0.896,0.390,1.918,74.830,-67.760,-42.770
11022559,-0.575,0.419,1.878,93.030,-53.830,-41.650
11022574,-0.425,0.403,1.621,91.980,-45.010,-37.940
11022594,-0.356,0.411,1.333,63.280,-26.740,-46.410
11022619,-0.199,0.426,1.132,24.920,-25.620,-52.780
11022639,-0.191,0.406,1.028,-51.940,9.240,-62.650
11022657,-0.302,0.189,0.862,-83.090,17.290,-66.640
11022676,-0.341,0.052,0.790,-89.320,6.160,-64.190
11022697,-0.331,-0.003,0.768,-72.100,1.610,-58.590
11022721,-0.300,0.049,0.704,-63.000,-4.200,-52.150
11022741,-0.229,0.067,0.577,-66.430,-6.510,-48.720
11022761,-0.159,0.083,0.459,-85.050,-6.160,-45.150
11022785,-0.079,-0.112,0.303,-68.460,-20.510,-36.470
11022806,0.021,-0.090,0.228,-46.130,-33.740,-22.190
11022823,-0.032,-0.082,0.199,-26.180,-49.630,-10.990
11022842,0.075,0.027,0.276,-12.460,-75.320,-1.680
11022862,0.159,0.061,0.151,-23.240,-86.660,0.840
11022887,0.231,-0.034,0.031,-24.500,-122.850,3.640
11022907,0.239,-0.086,0.046,-12.810,-158.550,3.290
11022925,0.317,-0.101,0.213,8.540,-200.760,8.750
11022943,0.582,0.062,0.331,10.780,-217.770,6.720
11022967,0.721,0.130,0.243,-20.720,-223.020,5.880
11022987,0.826,0.048,0.024,-61.040,-257.320,3.220
11023007,1.064,-0.090,0.031,-47.040,-297.920,0.980
11023027,1.362,0.007,0.131,-31.290,-328.510,-9.940
11023047,1.660,0.247,0.425,-19.530,-400.260,-22.610
11023070,1.942,0.327,0.535,-81.410,-319.690,-63.210
11023088,1.841,0.167,0.279,-131.110,-344.680,-85.890
11023108,1.969,0.076,0.011,-180.250,-368.970,-120.470
11023130,2.215,-0.019,0.124,-187.460,-354.970,-132.160
11023150,2.230,0.071,0.230,-219.800,-333.760,-140.000
11023171,2.177,0.110,0.249,-299.040,-320.040,-146.020
11023190,2.143,-0.004,0.242,-367.150,-301.910,-160.230
11023215,2.124,-0.202,0.282,-377.790,-272.510,-185.640
11023235,2.106,-0.386,0.301,-338.730,-238.140,-199.990
11023255,2.085,-0.659,0.260,-277.340,-174.160,-187.670
11023273,2.000,-0.709,0.327,-184.660,-170.170,-227.710
11023291,1.903,-0.868,0.337,-47.110,-178.780,-216.720
11023311,2.167,-0.548,0.713,-0.280,-113.610,-206.430
11023332,1.623,-0.678,0.808,18.830,-96.670,-162.260
11023354,1.166,-0.477,0.838,33.180,-84.140,-124.110
11023373,0.944,-0.268,0.917,-29.610,-50.680,-94.780
11023396,0.799,-0.458,0.874,-26.600,-33.250,-59.360
11023415,0.769,-0.536,0.835,-31.220,1.050,-23.940
11023439,0.746,-0.645,0.768,-4.550,18.690,8.400
11023463,0.834,-0.600,0.675,18.620,48.720,42.700
11023483,0.919,-0.525,0.583,26.320,70.280,70.490
11023503,1.008,-0.477,0.513,43.540,92.610,93.170
11023522,1.064,-0.362,0.468,55.020,103.740,113.750
11023541,1.264,-0.213,0.469,48.790,126.140,123.200
11023566,1.336,-0.242,0.394,31.640,130.620,135.590
11023585,1.505,-0.431,0.422,50.330,129.360,137.690
11023604,1.765,-0.645,0.462,129.360,144.690,134.750
11023624,1.883,-0.562,0.435,213.780,157.080,138.040
11023647,2.044,-0.360,0.344,244.440,181.300,125.790
11023666,2.118,-0.345,0.326,276.570,182.490,117.320
11023690,2.339,-0.119,0.260,269.080,213.640,105.000
11023707,2.324,-0.005,0.161,201.040,233.940,100.100
11023728,2.206,-0.180,0.196,182.350,244.650,98.280
11023752,2.181,-0.080,0.197,171.010,267.820,102.270
11023772,1.967,-0.003,0.100,125.020,280.560,111.370
11023792,1.840,-0.195,0.110,117.740,277.200,112.770
11023808,1.735,-0.126,0.134,137.270,275.030,109.620
11023832,1.724,0.082,-0.162,123.480,293.230,106.820
11023852,1.163,-0.247,-0.247,165.550,287.770,70.910
11023869,0.585,-0.650,0.260,400.400,95.480,54.810
11023888,1.149,0.324,0.724,471.240,164.080,-14.210
11023913,0.791,0.205,0.490,355.740,131.250,-63.630
11023933,1.011,0.154,0.292,275.800,141.190,-68.810
11023952,1.111,0.379,0.035,151.270,173.810,-66.990
11023977,0.934,0.449,-0.117,-26.460,203.560,-51.730
11023996,0.712,0.734,-0.065,-142.800,212.030,-21.490
11024015,0.579,0.832,-0.014,-302.400,202.160,2.240
11024035,0.698,0.337,-0.168,-357.210,204.680,26.110
11024056,0.690,-0.062,-0.462,-271.460,219.520,28.560
11024080,0.507,-0.197,-0.458,-112.560,161.700,44.030
11024100,0.434,0.162,-0.108,-5.320,134.120,38.220
11024118,0.151,0.368,0.094,23.380,123.480,19.810
11024139,-0.074,1.275,-0.166,20.370,99.750,-18.690
11024162,0.105,0.040,0.099,-48.090,54.670,-2.030
11024183,0.091,0.341,0.134,42.350,47.600,13.790
11024202,0.099,0.253,0.298,-24.430,52.500,25.410
11024221,-0.011,-0.098,0.335,14.420,64.400,52.500
11024240,-0.213,0.286,0.322,31.150,40.390,44.100
11024259,-0.336,0.309,0.586,10.780,7.980,29.540
11024284,-0.324,0.346,0.844,-10.850,-14.840,15.540
11024302,-0.348,0.360,1.060,-23.800,-42.070,6.790
11024322,-0.241,0.398,1.259,-50.820,-52.780,-5.250
11024343,-0.160,0.315,1.615,-100.240,-61.950,-15.610
11024363,-0.141,-0.125,1.830,-60.970,-36.820,-19.460
11024387,-0.053,0.208,2.029,-39.900,-17.150,-5.250
11024407,-0.048,0.266,2.081,-101.360,3.570,0.980
11024427,-0.159,-0.181,2.379,-70.140,-15.540,8.610
11024447,-0.027,-0.059,2.684,22.330,22.190,14.420
11024467,-0.606,0.323,2.519,46.410,43.470,14.420
11024485,-0.815,0.630,2.527,24.920,41.440,11.760
11024509,-1.059,0.535,2.283,-3.430,22.470,-2.590
11024529,-0.576,0.360,2.245,29.890,-29.960,-18.900
11024549,-0.324,0.312,2.063,52.710,-22.400,-31.010
11024567,-0.138,0.382,1.792,41.510,-6.790,-38.290
11024589,-0.182,0.294,1.465,25.270,7.350,-41.650
11024608,-0.216,0.197,1.313,7.630,8.820,-51.030
11024633,-0.256,0.012,1.319,34.370,-2.100,-44.940
11024653,-0.218,0.179,1.146,-3.500,2.870,-45.360
11024669,-0.112,-0.044,1.159,-37.800,-9.240,-42.280
11024692,-0.082,-0.300,1.212,22.330,3.220,-22.470
11024712,-0.108,0.081,1.082,58.030,11.620,-16.380
11024730,-0.100,0.250,0.966,45.500,11.900,-20.650
11024749,-0.061,0.356,0.733,5.320,37.310,-18.410
11024773,-0.111,0.106,0.474,-40.110,31.010,-16.520
11024789,-0.108,-0.198,0.378,17.010,39.830,-5.180
11024814,-0.290,0.091,0.353,76.860,8.610,10.850
11024834,-0.220,0.425,0.296,32.200,-1.470,4.830
11024854,-0.225,0.230,0.173,-17.780,-6.440,0.770
11024878,-0.195,0.048,0.016,-6.370,-22.610,6.230
11024897,-0.264,0.051,-0.035,10.430,-41.860,12.110
11024917,-0.379,0.084,0.032,33.530,-95.410,14.140
11024938,-0.081,0.220,0.091,-1.190,-101.290,10.990
11024953,-0.010,0.256,-0.047,-40.670,-107.310,6.090
11024977,0.073,0.076,-0.097,-62.930,-151.060,2.520
11024996,0.198,0.066,0.174,-37.940,-167.930,11.340
11025018,0.283,0.376,0.173,-91.350,-149.310,3.710
11025038,0.201,0.181,0.189,-149.310,-187.670,-3.570
11025057,0.444,0.033,0.277,-126.490,-225.680,-6.370
11025077,0.874,0.315,0.328,-124.110,-253.190,-11.410
11025101,1.144,0.287,0.215,-178.430,-170.450,-37.940
11025119,0.817,-0.039,0.181,-128.030,-213.710,-56.910
11025140,1.004,-0.220,0.416,-15.330,-211.960,-66.080
11025164,0.824,0.099,0.369,43.470,-223.370,-67.130
11025183,0.967,0.183,0.418,41.370,-230.930,-69.370
11025202,0.958,0.293,0.379,33.250,-238.770,-71.050
11025223,1.174,0.348,0.340,-19.880,-251.370,-72.730
11025244,1.428,0.374,0.193,-80.710,-271.110,-76.440
11025267,1.740,0.303,0.041,-160.720,-254.940,-93.520
11025288,1.942,-0.086,0.035,-178.360,-290.010,-111.160
11025307,2.385,-0.112,0.176,-177.870,-287.910,-107.940
11025331,2.450,-0.037,0.140,-209.650,-233.240,-126.280
11025351,2.516,-0.117,0.102,-249.550,-243.670,-139.440
11025371,2.712,-0.245,0.106,-267.750,-235.060,-151.130
11025391,2.567,-0.343,0.147,-261.380,-205.660,-162.680
11025410,2.231,-0.427,0.231,-231.560,-183.610,-173.740
11025434,1.900,-0.506,0.333,-189.350,-156.310,-174.090
11025455,1.521,-0.571,0.414,-131.670,-141.050,-166.600
11025473,1.352,-0.543,0.486,-80.990,-128.030,-151.200
11025497,1.225,-0.484,0.569,-49.630,-97.020,-121.730
11025516,1.003,-0.407,0.582,-42.140,-83.230,-97.440
11025534,0.989,-0.346,0.685,-35.910,-76.510,-78.680
11025558,1.035,-0.121,0.730,-83.860,-39.690,-48.090
11025576,0.957,-0.055,0.767,-144.130,-19.530,-33.810
11025598,0.910,-0.332,0.813,-182.910,8.680,-18.620
11025617,0.903,-0.553,0.768,-181.300,25.200,-0.210
11025638,0.926,-0.774,0.712,-141.610,47.320,27.160
11025658,0.907,-0.896,0.628,-29.680,54.600,61.320
11025677,1.010,-0.776,0.574,32.760,65.100,86.870
11025696,1.075,-0.654,0.504,97.790,78.120,106.820
11025721,1.224,-0.534,0.471,158.130,94.150,125.790
11025739,1.402,-0.301,0.390,153.300,111.440,135.450
11025760,1.561,-0.325,0.357,154.980,131.670,143.920
11025784,1.851,-0.302,0.348,175.490,144.060,148.960
11025802,2.059,-0.264,0.306,181.300,165.340,160.510
11025822,2.144,-0.187,0.255,171.360,190.050,167.580
11025843,2.001,-0.193,0.234,175.560,207.200,174.650
11025862,2.061,-0.090,0.124,166.740,213.430,179.900
11025887,1.868,-0.032,0.046,155.680,223.090,176.120
11025902,1.728,-0.130,-0.003,175.420,221.410,157.080
11025926,1.626,0.006,0.051,182.140,223.300,162.960
11025945,1.373,0.157,0.006,138.950,213.150,150.990
11025967,1.158,0.116,-0.002,114.940,201.390,136.290
11025990,1.034,0.085,0.002,112.910,201.460,112.910
11026010,0.794,0.142,0.077,111.930,165.130,100.730
11026031,0.763,0.098,0.122,99.750,144.200,84.140
