Millis,AccelX_chest,AccelY_chest,AccelZ_chest,GyroX_chest,GyroY_chest,GyroZ_chest,AccelX_right_leg,AccelY_right_leg,AccelZ_right_leg,GyroX_right_leg,GyroY_right_leg,GyroZ_right_leg,AccelX_right_arm,AccelY_right_arm,AccelZ_right_arm,GyroX_right_arm,GyroY_right_arm,GyroZ_right_arm
0.0,-0.974,-0.158,0.247,-4.34,-0.91,-11.06,-0.989,-0.25,0.01,0.0,-2.1,1.54,-0.996,0.047,-0.051,-13.58,-6.23,-1.33
20.0,-0.98,-0.165,0.252,-3.792,-1.534,-11.004,-0.984,-0.252,0.011,-0.122,-1.762,1.718,-1.009,0.074,-0.042,-12.654,-8.077,0.058
40.0,-0.983,-0.164,0.261,-3.929,-3.166,-10.819,-0.987,-0.245,0.009,-0.19,-1.797,1.88,-0.99,0.076,-0.096,-8.432,-8.326,1.572
60.0,-0.979,-0.163,0.258,-4.627,-5.351,-10.67,-0.989,-0.243,0.006,-0.582,-2.345,1.89,-0.985,0.119,-0.087,-9.703,-7.385,3.721
80.0,-0.971,-0.178,0.25,-4.464,-6.365,-10.485,-0.988,-0.245,0.005,-0.766,-2.325,2.021,-1.002,0.037,-0.047,-10.517,-10.129,3.406
100.0,-0.971,-0.185,0.244,-4.13,-5.25,-9.87,-0.985,-0.25,0.005,-0.114,-2.173,1.894,-1.008,0.063,-0.028,-5.138,-14.811,3.78
120.0,-0.979,-0.188,0.252,-4.605,-4.383,-9.212,-0.989,-0.247,0.004,0.12,-2.42,2.003,-0.996,0.135,-0.004,-10.073,-15.254,3.827
140.0,-0.977,-0.185,0.245,-6.017,-5.32,-8.748,-0.989,-0.24,0.006,-0.061,-2.635,1.845,-0.974,0.065,-0.044,-9.771,-11.706,1.246
160.0,-0.971,-0.192,0.247,-4.994,-5.104,-8.269,-0.988,-0.245,0.011,0.162,-2.509,1.701,-0.975,0.049,-0.045,-5.598,-6.19,-1.168
180.0,-0.972,-0.202,0.243,-3.583,-4.306,-7.463,-0.99,-0.241,0.011,-0.12,-2.503,1.637,-0.975,0.038,-0.046,-2.199,-2.002,-3.832
200.0,-0.971,-0.203,0.244,-3.364,-3.569,-6.73,-0.988,-0.241,0.01,-0.366,-2.434,1.47,-0.974,0.039,-0.052,1.328,-0.958,-8.498
220.0,-0.972,-0.205,0.256,-3.949,-3.644,-5.882,-0.988,-0.244,0.01,-0.493,-2.159,1.22,-0.98,0.063,-0.08,-0.041,-2.496,-14.43
240.0,-0.971,-0.205,0.259,-4.852,-5.12,-5.505,-0.988,-0.241,0.007,-0.615,-1.99,1.035,-0.982,0.073,-0.119,-4.194,-6.93,-16.769
260.0,-0.968,-0.199,0.257,-5.023,-6.269,-5.221,-0.985,-0.241,0.007,-0.111,-1.71,0.835,-0.988,0.091,-0.073,-11.689,-15.943,-16.936
280.0,-0.963,-0.19,0.251,-4.636,-6.271,-4.581,-0.987,-0.244,0.008,0.127,-1.501,0.648,-0.988,0.058,-0.045,-16.959,-21.392,-14.353
300.0,-0.958,-0.19,0.248,-3.92,-5.178,-3.633,-0.989,-0.241,0.008,-0.28,-1.575,0.431,-0.987,0.044,-0.047,-8.075,-19.446,-9.967
320.0,-0.96,-0.199,0.249,-3.898,-4.782,-3.059,-0.99,-0.244,0.004,-0.55,-1.647,0.37,-1.012,0.083,-0.039,-7.048,-19.847,-7.347
340.0,-0.969,-0.208,0.256,-3.886,-5.341,-2.153,-0.99,-0.249,0.003,-0.092,-1.66,0.506,-0.988,0.034,-0.033,-9.293,-16.623,-4.832
360.0,-0.973,-0.214,0.259,-3.986,-6.556,-1.599,-0.991,-0.245,0.005,-0.21,-2.029,0.436,-0.977,0.051,-0.019,-8.678,-10.575,-2.801
380.0,-0.976,-0.221,0.261,-3.89,-6.627,-1.241,-0.991,-0.245,0.009,-0.001,-2.068,0.24,-1.0,0.066,-0.053,-0.742,-10.113,-0.766
400.0,-0.976,-0.225,0.258,-3.525,-6.186,-0.758,-0.987,-0.24,0.014,0.047,-1.75,0.21,-0.989,0.068,-0.03,-0.71,-11.602,-1.74
420.0,-0.964,-0.227,0.267,-2.757,-5.81,-0.341,-0.984,-0.24,0.011,-1.009,-1.639,0.241,-0.999,0.091,0.015,-0.949,-13.098,-1.113
440.0,-0.955,-0.224,0.276,-2.095,-5.81,0.0,-0.984,-0.252,0.003,-0.87,-1.443,0.384,-0.971,0.068,0.122,-0.56,-9.31,-0.21
460.0,-0.955,-0.218,0.277,-0.826,-5.919,0.087,-0.99,-0.242,0.0,-1.436,-1.895,0.51,-0.987,0.055,-0.016,-0.98,-8.68,0.56
480.0,-0.958,-0.221,0.272,0.218,-6.547,0.648,-0.986,-0.247,0.001,-1.084,-2.286,0.536,-0.971,0.071,-0.016,5.64,-3.727,3.067
500.0,-0.959,-0.222,0.265,0.941,-6.897,1.285,-0.988,-0.248,0.005,-0.969,-2.659,0.35,-1.016,0.142,0.036,-2.506,-6.257,3.547
520.0,-0.959,-0.211,0.257,1.394,-5.828,1.853,-0.986,-0.248,0.002,-0.442,-2.53,0.35,-0.98,0.05,0.041,-3.15,-2.52,6.02
540.0,-0.957,-0.209,0.255,1.092,-4.118,2.17,-0.986,-0.251,0.0,-0.076,-2.648,0.226,-1.011,0.053,0.011,-2.115,-2.588,6.267
560.0,-0.956,-0.211,0.255,0.639,-2.456,2.689,-0.989,-0.245,0.002,-0.132,-2.725,0.081,-0.995,0.075,0.016,0.44,-0.265,6.916
580.0,-0.952,-0.209,0.242,-0.235,-2.611,2.881,-0.988,-0.244,0.008,0.214,-2.578,0.129,-1.0,0.058,-0.012,1.745,0.975,6.444
600.0,-0.955,-0.203,0.249,-0.965,-0.202,2.933,-0.985,-0.247,0.006,0.057,-2.387,0.075,-1.021,0.097,0.006,0.14,-1.4,6.51
620.0,-0.955,-0.203,0.252,-0.49,1.33,2.8,-0.986,-0.251,0.008,-0.415,-2.602,0.219,-0.981,0.041,0.048,-5.178,-2.94,6.872
640.0,-0.956,-0.206,0.255,-0.078,1.679,3.092,-0.987,-0.25,0.007,-0.138,-2.426,0.328,-0.968,0.041,0.049,0.078,2.121,8.647
660.0,-0.959,-0.203,0.247,-1.755,1.544,3.303,-0.985,-0.252,0.004,-0.079,-2.25,0.406,-0.975,0.052,0.049,0.906,6.808,8.222
680.0,-0.961,-0.199,0.255,-3.191,2.21,3.629,-0.986,-0.255,0.006,-0.256,-2.293,0.42,-0.985,0.045,0.042,-0.019,11.149,5.799
700.0,-0.969,-0.202,0.265,-3.566,1.625,3.64,-0.986,-0.251,0.007,-0.024,-2.266,0.42,-1.003,0.054,0.0,-0.954,12.27,3.043
720.0,-0.973,-0.201,0.272,-2.746,0.721,4.109,-0.986,-0.25,0.006,0.327,-2.24,0.338,-1.017,0.06,-0.05,0.926,9.055,1.273
740.0,-0.97,-0.198,0.275,-1.574,0.313,4.687,-0.987,-0.249,0.008,0.674,-2.24,0.28,-1.018,0.072,-0.034,-2.211,0.487,-0.418
760.0,-0.972,-0.196,0.274,-0.74,-0.505,5.371,-0.987,-0.248,0.01,0.48,-2.2,0.2,-0.998,0.041,-0.003,-2.909,-3.709,0.608
780.0,-0.97,-0.193,0.273,-0.57,-1.137,5.46,-0.986,-0.251,0.008,0.141,-2.223,0.176,-0.979,0.032,-0.007,9.841,0.77,3.559
800.0,-0.964,-0.189,0.272,-0.425,-1.723,5.661,-0.986,-0.253,0.006,0.032,-2.274,0.334,-1.005,0.1,-0.015,11.356,3.654,3.686
820.0,-0.966,-0.184,0.266,-0.354,-2.269,5.773,-0.988,-0.252,0.01,-0.274,-2.17,0.393,-0.992,0.08,-0.027,8.97,4.842,3.827
840.0,-0.967,-0.187,0.263,-1.023,-1.693,6.101,-0.984,-0.248,0.01,-0.841,-2.126,0.372,-0.993,0.086,-0.027,8.89,7.269,4.231
860.0,-0.966,-0.187,0.261,-0.675,-1.54,6.16,-0.984,-0.25,0.008,-1.05,-1.906,0.41,-0.993,0.109,-0.017,8.084,9.517,5.387
880.0,-0.97,-0.185,0.268,-0.399,-1.431,6.041,-0.984,-0.253,0.005,-0.978,-1.57,0.36,-0.994,0.11,-0.024,6.141,10.526,5.114
900.0,-0.973,-0.181,0.271,-0.252,-1.504,5.649,-0.986,-0.256,0.007,-0.475,-1.168,0.54,-1.003,0.106,-0.049,4.531,10.005,4.451
920.0,-0.975,-0.178,0.272,-0.35,-1.915,5.273,-0.984,-0.259,0.002,-0.862,-1.589,0.718,-1.02,0.11,-0.042,0.688,5.045,2.755
940.0,-0.975,-0.176,0.273,-0.44,-2.356,5.06,-0.988,-0.252,-0.003,-0.879,-1.81,0.782,-0.992,0.102,-0.04,0.93,3.598,2.227
960.0,-0.975,-0.171,0.272,-0.161,-2.739,4.97,-0.983,-0.255,-0.003,-0.49,-2.17,0.84,-0.993,0.109,-0.042,2.442,3.737,1.865
980.0,-0.973,-0.167,0.273,0.694,-3.462,5.055,-0.984,-0.254,0.005,-0.56,-2.38,0.91,-1.003,0.135,-0.04,0.821,2.121,0.804
1000.0,-0.972,-0.166,0.268,1.428,-3.878,5.115,-0.984,-0.253,0.005,-0.939,-2.48,1.016,-0.988,0.109,-0.037,-3.965,2.213,-1.034
1020.0,-0.969,-0.166,0.263,1.456,-3.845,5.069,-0.987,-0.259,0.003,-0.367,-2.544,1.212,-0.987,0.102,-0.036,-2.783,4.059,-1.681
1040.0,-0.964,-0.167,0.262,1.044,-3.237,5.11,-0.985,-0.26,0.001,0.0,-2.1,1.26,-0.997,0.138,-0.046,-5.88,2.63,-4.154
1060.0,-0.965,-0.169,0.265,1.041,-2.94,5.126,-0.982,-0.258,0.006,-0.28,-2.03,1.19,-1.004,0.152,-0.087,-22.854,-1.814,-8.619
1080.0,-0.971,-0.17,0.271,1.751,-2.97,5.222,-0.98,-0.253,0.007,0.07,-1.82,1.26,-0.997,0.032,-0.095,-25.786,-1.592,-7.986
1100.0,-0.975,-0.164,0.273,2.715,-3.065,5.301,-0.989,-0.246,0.004,0.388,-1.549,1.11,-0.985,0.058,-0.06,-12.482,-0.107,-6.395
1120.0,-0.97,-0.161,0.272,3.047,-2.709,5.112,-0.991,-0.243,0.001,-0.354,-1.998,1.014,-1.012,0.054,-0.052,-3.256,2.218,-2.428
1140.0,-0.965,-0.152,0.275,2.901,-2.24,4.882,-0.989,-0.257,0.004,-0.036,-2.211,0.917,-0.993,0.065,-0.087,-0.318,3.033,0.033
1160.0,-0.966,-0.146,0.281,2.596,-2.354,4.669,-0.984,-0.256,0.004,-0.49,-1.96,0.98,-1.001,0.097,-0.078,0.455,1.03,0.277
1180.0,-0.973,-0.144,0.283,2.688,-3.249,4.48,-0.986,-0.251,0.003,-0.84,-2.17,0.98,-0.99,0.039,-0.098,4.015,0.672,1.921
1200.0,-0.975,-0.146,0.277,3.209,-4.054,4.472,-0.985,-0.254,-0.0,-0.415,-2.238,1.055,-0.984,0.069,-0.095,5.318,2.146,2.646
1220.0,-0.969,-0.141,0.267,3.066,-3.868,4.314,-0.985,-0.254,-0.001,-0.351,-1.905,1.185,-0.998,0.081,-0.092,4.858,0.844,2.935
1240.0,-0.969,-0.149,0.266,3.017,-3.056,4.112,-0.987,-0.251,0.002,-0.81,-2.324,1.124,-1.0,0.081,-0.097,6.32,0.072,3.977
1260.0,-0.969,-0.15,0.272,3.358,-2.034,3.933,-0.992,-0.242,0.004,-0.63,-2.52,1.26,-0.986,0.094,-0.103,8.363,0.319,5.28
1280.0,-0.966,-0.142,0.276,3.019,-2.78,3.404,-0.981,-0.267,0.0,0.482,-1.677,1.204,-0.994,0.103,-0.103,7.089,-0.764,6.1
1300.0,-0.961,-0.134,0.269,3.43,-2.8,3.08,-0.986,-0.247,0.001,-0.569,-2.551,1.125,-0.99,0.087,-0.1,8.38,-0.578,6.973
1320.0,-0.966,-0.133,0.28,4.48,-1.19,3.29,-0.983,-0.251,0.004,-0.386,-2.346,1.12,-0.991,0.092,-0.081,10.676,-1.301,8.447
1340.0,-0.965,-0.138,0.272,4.822,-1.134,3.123,-0.985,-0.255,0.002,-1.134,-2.506,1.229,-1.001,0.103,-0.063,11.263,-3.11,7.858
1360.0,-0.962,-0.134,0.261,4.203,-0.44,2.51,-0.986,-0.258,-0.002,-0.896,-2.267,1.57,-1.007,0.111,-0.058,9.66,-1.82,7.84
1380.0,-0.963,-0.134,0.265,2.753,1.21,2.005,-0.985,-0.254,0.0,-0.752,-2.447,1.671,-1.011,0.099,-0.05,10.827,-1.82,5.93
1400.0,-0.968,-0.134,0.273,2.313,1.696,1.523,-0.986,-0.253,0.001,-0.508,-2.52,1.68,-0.995,0.109,-0.044,10.46,0.906,4.868
1420.0,-0.974,-0.13,0.281,3.124,2.016,1.263,-0.987,-0.255,-0.085,-0.094,-2.52,1.757,-1.008,0.093,-0.039,9.812,2.087,4.265
1440.0,-0.978,-0.13,0.285,4.366,2.096,1.445,-0.986,-0.254,-0.04,0.042,-2.553,1.928,-1.007,0.099,-0.034,9.869,1.583,3.456
1460.0,-0.977,-0.13,0.283,4.48,1.879,1.47,-0.986,-0.253,-0.001,0.224,-2.666,1.912,-1.012,0.106,-0.037,8.453,-0.133,3.089
1480.0,-0.976,-0.128,0.276,4.113,1.47,1.32,-0.987,-0.252,-0.001,0.28,-2.983,1.916,-1.013,0.106,-0.046,7.944,-1.043,2.86
1500.0,-0.975,-0.127,0.274,3.852,1.522,1.096,-0.987,-0.254,0.002,0.44,-3.118,1.992,-1.006,0.108,-0.057,6.162,-2.192,2.622
1520.0,-0.974,-0.121,0.265,3.194,1.744,0.854,-0.99,-0.255,0.003,0.245,-3.36,2.075,-1.002,0.108,-0.069,7.153,-2.123,2.975
1540.0,-0.975,-0.121,0.277,2.945,1.75,0.775,-0.989,-0.252,0.002,0.098,-3.575,2.021,-0.996,0.117,-0.078,6.451,-2.61,2.96
1560.0,-0.98,-0.118,0.268,2.891,1.128,0.512,-0.984,-0.25,0.003,0.405,-3.314,1.858,-0.996,0.121,-0.083,5.519,-3.091,2.776
1580.0,-0.978,-0.113,0.266,2.389,1.168,0.02,-0.985,-0.246,0.008,0.329,-3.129,1.799,-0.996,0.123,-0.084,4.816,-2.776,2.237
1600.0,-0.98,-0.114,0.263,1.408,1.026,-0.172,-0.988,-0.246,0.01,0.28,-2.979,1.77,-0.996,0.129,-0.083,4.338,-2.325,1.423
1620.0,-0.978,-0.111,0.264,0.71,0.922,-0.469,-0.987,-0.248,0.004,0.216,-2.638,1.82,-0.997,0.135,-0.082,4.091,-2.24,0.533
1640.0,-0.978,-0.109,0.266,0.292,0.934,-0.56,-0.987,-0.247,0.006,0.14,-2.59,1.82,-0.992,0.134,-0.081,3.945,-2.213,-0.21
1660.0,-0.979,-0.108,0.265,-0.11,1.194,-0.491,-0.988,-0.249,0.009,0.08,-2.59,1.792,-0.983,0.14,-0.077,2.734,-1.279,-0.21
1680.0,-0.979,-0.109,0.265,-0.386,1.299,-0.385,-0.988,-0.249,0.007,-0.444,-2.59,1.584,-0.994,0.141,-0.08,2.186,-1.882,-0.203
1700.0,-0.978,-0.112,0.266,-0.564,1.339,-0.328,-0.988,-0.249,0.004,-0.63,-2.596,1.564,-0.99,0.14,-0.081,1.116,-1.766,0.027
1720.0,-0.978,-0.114,0.267,-0.753,1.53,-0.227,-0.99,-0.247,0.005,-0.741,-2.726,1.666,-0.996,0.14,-0.083,0.469,-2.4,0.276
1740.0,-0.98,-0.12,0.268,-0.883,1.392,-0.168,-0.99,-0.247,0.005,-1.133,-2.966,1.618,-0.995,0.139,-0.08,-0.89,-2.519,0.027
1760.0,-0.983,-0.121,0.27,-1.107,0.858,-0.327,-0.988,-0.249,0.003,-0.583,-3.001,1.702,-0.993,0.134,-0.077,-2.899,-2.463,-0.252
1780.0,-0.983,-0.119,0.266,-1.501,0.242,-0.486,-0.986,-0.252,0.006,-0.37,-2.919,1.75,-0.996,0.131,-0.062,-3.494,-0.83,-0.517
1800.0,-0.98,-0.12,0.262,-1.571,0.157,-0.711,-0.988,-0.25,0.007,-0.57,-2.871,1.749,-1.002,0.115,-0.055,-4.491,-0.624,-1.467
1820.0,-0.977,-0.119,0.259,-1.427,0.243,-0.949,-0.989,-0.244,0.007,-0.766,-2.939,1.68,-0.992,0.1,-0.07,1.748,0.624,-1.339
1840.0,-0.977,-0.119,0.257,-1.4,0.315,-1.083,-0.989,-0.25,0.006,-0.513,-2.871,1.68,-1.003,0.149,-0.092,2.305,-0.095,-0.851
1860.0,-0.98,-0.119,0.255,-1.4,0.313,-1.14,-0.989,-0.247,0.007,-0.321,-3.007,1.527,-1.029,0.157,-0.057,-7.7,-1.96,-2.87
1880.0,-0.981,-0.123,0.256,-1.458,0.074,-1.222,-0.987,-0.244,0.006,-0.143,-2.941,1.471,-0.992,0.088,-0.065,-6.21,-4.021,-1.986
1900.0,-0.98,-0.121,0.256,-1.68,-0.095,-1.367,-0.991,-0.244,0.006,-0.14,-3.08,1.47,-0.979,0.105,-0.079,-2.678,-0.015,-0.552
1920.0,-0.982,-0.12,0.258,-1.66,-0.224,-1.604,-0.99,-0.244,0.005,0.033,-2.856,1.47,-0.998,0.122,-0.088,2.324,0.017,-0.606
1940.0,-0.981,-0.119,0.26,-1.292,-0.314,-1.541,-0.988,-0.246,0.009,0.2,-2.541,1.533,-0.997,0.14,-0.077,-16.746,0.678,-0.748
1960.0,-0.982,-0.124,0.263,-0.98,-1.718,-1.656,-0.985,-0.249,0.005,-0.137,-2.651,1.475,-1.003,0.124,-0.091,-12.662,-5.265,-1.611
1980.0,-0.976,-0.12,0.247,-0.98,-2.59,-2.001,-0.989,-0.245,0.009,-0.603,-2.61,1.47,-0.993,0.101,-0.108,-8.173,-6.021,-0.973
2000.0,-0.976,-0.12,0.258,-0.918,-2.345,-2.03,-0.985,-0.243,0.006,-0.63,-2.41,1.407,-0.988,0.098,-0.113,-4.911,-5.968,0.354
2020.0,-0.98,-0.118,0.263,-0.385,-1.407,-2.021,-0.988,-0.246,0.008,-0.319,-2.32,1.4,-0.989,0.103,-0.11,-2.879,-6.185,1.005
2040.0,-0.983,-0.123,0.255,0.239,-1.672,-1.91,-0.989,-0.244,0.008,-0.391,-2.491,1.355,-0.985,0.099,-0.099,-1.653,-6.154,1.02
2060.0,-0.978,-0.123,0.254,-0.978,-2.066,-2.348,-0.986,-0.244,0.007,-0.445,-2.529,1.33,-0.994,0.101,-0.098,-0.882,-6.827,0.235
2080.0,-0.975,-0.123,0.258,-2.1,-1.547,-2.567,-0.987,-0.244,0.008,-0.42,-2.177,1.33,-0.988,0.109,-0.092,-1.266,-6.882,-0.39
2100.0,-0.979,-0.123,0.26,-2.017,-1.74,-2.8,-0.987,-0.243,0.01,-0.651,-2.1,1.191,-0.981,0.109,-0.087,0.147,-5.497,-0.61
2120.0,-0.982,-0.126,0.259,-1.006,-1.96,-2.798,-0.985,-0.246,0.009,-0.586,-2.069,1.142,-0.986,0.117,-0.072,0.861,-3.657,-0.697
2140.0,-0.977,-0.126,0.259,-0.368,-1.871,-2.59,-0.986,-0.247,0.007,-0.389,-2.058,1.219,-0.992,0.112,-0.064,-0.808,-4.361,-0.454
2160.0,-0.976,-0.128,0.263,-0.452,-1.858,-2.605,-0.988,-0.244,0.005,-0.431,-2.23,1.26,-0.996,0.111,-0.063,0.197,-4.58,-0.073
2180.0,-0.978,-0.13,0.264,-0.073,-2.225,-2.66,-0.987,-0.246,0.005,-0.124,-2.288,1.25,-1.003,0.123,-0.065,-0.315,-6.146,-0.14
2200.0,-0.979,-0.13,0.264,0.462,-2.802,-2.66,-0.988,-0.247,0.007,0.108,-2.156,1.18,-0.998,0.114,-0.057,-1.61,-6.23,0.07
2220.0,-0.979,-0.129,0.258,0.666,-3.292,-2.618,-0.99,-0.244,0.007,0.27,-2.108,1.088,-1.0,0.108,-0.055,-0.701,-5.861,0.468
2240.0,-0.98,-0.133,0.262,0.422,-2.8,-2.313,-0.988,-0.246,0.008,0.034,-2.256,0.91,-0.996,0.115,-0.051,-0.77,-5.74,0.978
2260.0,-0.974,-0.128,0.253,0.547,-2.8,-2.508,-0.988,-0.242,0.009,-0.292,-2.362,0.895,-0.994,0.108,-0.06,-0.084,-6.22,1.038
2280.0,-0.973,-0.128,0.261,0.681,-1.891,-2.589,-0.99,-0.246,0.005,0.21,-2.149,0.77,-0.981,0.108,-0.051,1.307,-5.805,1.521
2300.0,-0.974,-0.13,0.259,1.048,-1.48,-2.382,-0.988,-0.245,0.007,0.198,-2.103,0.767,-0.999,0.116,-0.055,2.425,-3.337,1.181
2320.0,-0.975,-0.128,0.26,0.921,-1.364,-2.38,-0.986,-0.248,0.005,-0.07,-2.17,0.7,-0.984,0.11,-0.062,1.731,-1.373,0.772
2340.0,-0.977,-0.128,0.263,1.199,-0.837,-2.38,-0.989,-0.244,0.008,-0.56,-2.38,0.63,-0.988,0.114,-0.072,-0.894,-0.872,0.969
2360.0,-0.977,-0.13,0.264,1.389,-0.719,-2.38,-0.989,-0.244,0.005,-0.037,-2.386,0.63,-0.988,0.101,-0.071,0.49,0.21,1.19
2380.0,-0.975,-0.128,0.265,1.4,-0.564,-2.38,-0.991,-0.248,0.004,0.199,-2.715,0.63,-0.982,0.095,-0.071,3.85,0.84,2.73
2400.0,-0.976,-0.128,0.262,1.3,-0.336,-2.247,-0.988,-0.247,0.004,0.259,-2.78,0.63,-0.993,0.102,-0.071,4.9,-0.21,4.41
2420.0,-0.976,-0.129,0.261,1.034,-0.311,-2.17,-0.988,-0.248,0.005,0.415,-2.915,0.585,-1.005,0.14,-0.075,5.134,-1.804,4.016
2440.0,-0.977,-0.131,0.263,0.944,-0.35,-2.136,-0.988,-0.246,0.007,0.725,-2.72,0.511,-0.999,0.113,-0.072,5.653,-2.511,2.847
2460.0,-0.977,-0.132,0.262,1.084,-0.385,-1.991,-0.989,-0.244,0.007,0.422,-2.758,0.441,-0.99,0.118,-0.074,7.873,-0.506,1.785
2480.0,-0.975,-0.137,0.26,1.235,-0.325,-1.925,-0.992,-0.245,0.009,0.418,-2.91,0.315,-0.984,0.118,-0.083,7.313,0.247,2.139
2500.0,-0.974,-0.138,0.26,1.481,-0.049,-1.871,-0.991,-0.249,0.01,0.638,-2.879,0.28,-0.993,0.107,-0.085,8.102,0.83,1.946
2520.0,-0.975,-0.136,0.259,1.881,0.216,-1.738,-0.986,-0.25,0.009,0.699,-2.835,0.28,-0.996,0.12,-0.08,7.396,-1.23,1.71
2540.0,-0.978,-0.133,0.259,2.282,0.481,-1.481,-0.986,-0.248,0.008,0.56,-2.998,0.235,-0.991,0.115,-0.075,9.45,-2.485,1.88
2560.0,-0.977,-0.132,0.261,2.303,0.617,-1.346,-0.988,-0.248,0.006,0.667,-3.164,0.101,-0.991,0.105,-0.074,12.04,-3.185,2.355
2580.0,-0.976,-0.134,0.263,2.215,0.419,-1.19,-0.987,-0.249,0.008,0.633,-3.37,0.07,-0.992,0.114,-0.075,12.536,-3.467,2.126
2600.0,-0.976,-0.136,0.264,2.285,0.346,-1.146,-0.988,-0.251,0.012,0.207,-3.538,0.062,-0.988,0.108,-0.081,12.977,-3.381,1.274
2620.0,-0.979,-0.136,0.263,2.933,0.468,-0.922,-0.989,-0.262,0.003,1.073,-3.674,-0.031,-0.985,0.11,-0.083,13.115,-3.777,0.896
2640.0,-0.981,-0.132,0.268,3.44,0.495,-0.57,-0.985,-0.257,0.002,2.219,-3.7,-0.055,-0.987,0.129,-0.084,13.3,-4.126,0.093
2660.0,-0.975,-0.121,0.263,2.814,0.357,-0.429,-0.982,-0.258,0.009,4.405,-3.538,0.058,-0.983,0.125,-0.097,13.657,-3.468,-0.437
2680.0,-0.975,-0.113,0.251,2.116,-0.438,-0.479,-0.995,-0.244,0.014,4.581,-3.576,-0.237,-0.986,0.129,-0.098,15.134,-1.303,0.687
2700.0,-0.981,-0.104,0.256,1.715,1.34,0.129,-0.993,-0.267,0.015,4.008,-4.654,-0.7,-1.006,0.168,-0.095,13.906,-2.19,-1.029
2720.0,-0.99,-0.101,0.266,2.05,2.659,0.505,-0.978,-0.262,0.011,6.782,-3.355,-0.714,-0.986,0.152,-0.098,7.857,-4.008,-3.254
2740.0,-0.993,-0.104,0.262,2.564,1.818,0.569,-0.986,-0.243,0.012,5.789,-4.213,-0.984,-0.992,0.143,-0.101,4.902,-3.08,-5.239
2760.0,-0.984,-0.109,0.248,0.388,1.334,-0.29,-0.99,-0.231,0.021,4.949,-4.78,-1.825,-0.998,0.131,-0.097,4.616,-2.891,-6.041
2780.0,-0.972,-0.108,0.241,-1.223,2.342,-1.323,-0.985,-0.239,0.031,4.566,-4.179,-2.392,-0.998,0.126,-0.097,5.791,-2.109,-6.326
2800.0,-0.973,-0.106,0.239,-1.349,3.512,-1.82,-0.998,-0.229,0.022,2.922,-4.093,-2.81,-1.005,0.133,-0.097,6.842,-2.197,-6.402
2820.0,-0.974,-0.106,0.241,-0.582,4.579,-2.141,-0.983,-0.249,0.017,2.182,-3.835,-3.441,-1.007,0.134,-0.096,5.902,-3.786,-6.413
2840.0,-0.971,-0.109,0.241,-0.426,5.568,-2.719,-0.983,-0.257,0.023,3.84,-3.508,-3.569,-1.005,0.118,-0.1,5.87,-4.501,-6.111
2860.0,-0.971,-0.112,0.238,-0.509,6.775,-3.271,-0.985,-0.267,0.02,2.691,-4.452,-3.433,-1.001,0.137,-0.104,9.192,-4.331,-5.041
2880.0,-0.978,-0.11,0.237,-1.163,7.628,-3.597,-0.983,-0.25,0.022,4.122,-3.157,-3.693,-1.006,0.239,-0.101,10.82,-5.358,-4.161
2900.0,-0.983,-0.11,0.238,-1.991,7.549,-3.685,-0.989,-0.258,0.016,2.397,-4.799,-4.308,-1.005,0.115,-0.102,10.415,-6.306,-3.712
2920.0,-0.985,-0.115,0.234,-2.462,7.022,-3.927,-0.989,-0.271,0.021,2.031,-5.318,-4.47,-0.994,0.119,-0.1,11.229,-5.333,-3.808
2940.0,-0.99,-0.119,0.232,-2.794,7.116,-4.236,-0.989,-0.26,0.027,3.825,-4.961,-4.775,-0.993,0.123,-0.102,9.795,-5.487,-4.172
2960.0,-0.981,-0.122,0.22,-2.635,6.85,-4.547,-0.984,-0.259,0.022,3.873,-5.35,-5.33,-0.979,0.126,-0.099,6.788,-4.852,-4.513
2980.0,-0.976,-0.122,0.218,-2.583,7.879,-4.719,-0.975,-0.277,0.026,4.781,-5.157,-5.581,-0.984,0.122,-0.09,3.81,-5.226,-5.596
3000.0,-0.978,-0.123,0.222,-2.405,7.9,-5.003,-0.977,-0.273,0.036,3.256,-5.283,-5.6,-0.979,0.101,-0.089,3.51,-5.319,-6.09
3020.0,-0.983,-0.122,0.221,-1.85,7.067,-4.985,-0.984,-0.272,0.029,2.018,-5.633,-6.004,-0.979,0.109,-0.088,4.162,-5.162,-6.088
3040.0,-0.99,-0.124,0.217,-1.482,6.779,-4.69,-0.981,-0.284,0.031,2.042,-6.293,-6.41,-0.976,0.105,-0.087,4.925,-4.131,-5.683
3060.0,-0.995,-0.126,0.222,-0.389,6.624,-4.69,-0.982,-0.278,0.036,3.945,-5.804,-7.011,-0.985,0.104,-0.096,6.514,-3.851,-5.279
3080.0,-0.996,-0.122,0.223,1.292,5.696,-4.687,-0.982,-0.265,0.04,4.447,-4.697,-7.907,-0.997,0.101,-0.096,7.629,-4.504,-4.259
3100.0,-1.001,-0.119,0.219,1.763,4.724,-4.341,-0.985,-0.277,0.048,4.093,-4.563,-8.485,-1.014,0.087,-0.093,9.66,-5.74,-2.94
3120.0,-0.999,-0.135,0.222,3.408,3.728,-4.427,-0.978,-0.294,0.055,4.382,-4.176,-8.588,-1.009,0.079,-0.085,14.368,-6.344,-0.881
3140.0,-0.996,-0.138,0.211,5.13,3.441,-4.881,-0.962,-0.291,0.058,5.283,-1.565,-8.55,-1.009,0.063,-0.062,22.888,-5.631,2.845
3160.0,-1.002,-0.143,0.202,5.23,4.462,-5.52,-0.983,-0.292,0.068,5.638,0.06,-8.675,-1.04,0.072,-0.056,26.964,-5.056,4.703
3180.0,-0.999,-0.171,0.189,6.156,7.745,-6.572,-0.977,-0.284,0.089,3.135,1.763,-8.94,-1.043,0.046,-0.045,33.201,-9.246,5.95
3200.0,-1.002,-0.215,0.207,5.464,9.444,-8.039,-0.953,-0.275,0.087,-0.691,4.758,-8.964,-1.037,0.061,-0.033,40.969,-7.852,6.401
3220.0,-0.996,-0.241,0.199,6.19,8.612,-9.918,-0.942,-0.324,0.1,-3.282,12.344,-9.469,-1.039,0.098,0.003,40.119,-8.366,6.665
3240.0,-0.971,-0.259,0.173,8.221,11.0,-11.402,-0.947,-0.341,0.108,-3.742,22.22,-8.457,-1.04,0.095,0.055,36.819,-9.83,7.268
3260.0,-0.929,-0.283,0.163,9.718,14.892,-12.344,-0.959,-0.298,0.082,-3.541,28.415,-7.778,-1.026,0.097,0.082,22.476,-11.715,8.403
3280.0,-0.921,-0.292,0.17,10.932,16.39,-13.879,-0.972,-0.31,0.063,-11.902,32.892,-7.097,-1.008,0.096,0.107,27.241,-11.456,9.09
3300.0,-0.937,-0.284,0.188,11.831,15.219,-14.85,-0.981,-0.303,0.032,-18.13,33.81,-4.62,-1.023,0.091,0.127,27.386,-12.004,10.164
3320.0,-0.948,-0.284,0.208,11.508,12.354,-14.913,-1.027,-0.394,-0.041,-24.71,26.88,-2.03,-1.038,0.092,0.167,25.304,-11.651,12.953
3340.0,-0.962,-0.286,0.206,10.705,8.255,-14.013,-0.947,-0.45,-0.097,-19.74,24.57,0.21,-1.061,0.096,0.216,23.471,-12.744,17.512
3360.0,-0.958,-0.274,0.18,9.251,5.514,-12.202,-0.913,-0.544,-0.017,-39.08,9.298,-8.225,-1.056,0.082,0.212,26.769,-16.703,20.543
3380.0,-0.941,-0.257,0.169,6.821,4.61,-9.95,-0.874,-0.592,-0.023,-47.943,1.473,-18.152,-1.034,0.087,0.207,35.459,-26.287,23.244
3400.0,-0.941,-0.244,0.186,3.306,4.02,-7.604,-0.872,-0.691,-0.041,-31.43,1.89,-26.25,-1.063,0.155,0.219,35.637,-30.71,26.658
3420.0,-0.958,-0.231,0.2,-1.53,1.304,-5.805,-0.908,-0.588,-0.007,-18.13,-6.65,-33.32,-1.104,0.179,0.226,29.917,-26.173,28.448
3440.0,-0.958,-0.229,0.188,-5.486,-0.361,-4.927,-0.884,-0.471,0.047,-10.095,-23.678,-40.622,-1.099,0.195,0.236,23.732,-35.14,29.029
3460.0,-0.942,-0.233,0.176,-7.349,0.452,-5.058,-0.798,-0.507,-0.084,-27.333,-38.426,-41.997,-1.099,0.231,0.234,10.406,-40.982,28.501
3480.0,-0.935,-0.237,0.17,-8.725,1.924,-6.763,-0.936,-0.08,-0.168,1.077,-31.289,-30.279,-1.121,0.204,0.231,2.966,-45.328,26.228
3500.0,-0.942,-0.237,0.177,-9.551,2.998,-9.522,-0.907,0.109,-0.772,-28.016,-18.456,-9.279,-1.172,0.179,0.201,1.612,-48.409,23.129
3520.0,-1.013,-0.246,0.181,-9.456,0.239,-12.842,-1.268,0.02,-0.311,-16.092,-18.198,10.669,-1.215,0.192,0.199,3.459,-51.896,19.153
3540.0,-1.063,-0.263,0.139,-15.442,-1.794,-17.519,-1.296,0.109,0.015,-33.541,-55.989,21.926,-1.299,0.245,0.195,4.524,-56.825,15.534
3560.0,-1.064,-0.272,0.091,-22.669,0.179,-23.219,-0.853,-0.375,-0.007,-5.674,-45.799,15.966,-1.324,0.283,0.173,4.595,-67.977,13.555
3580.0,-1.007,-0.232,0.107,-28.693,8.549,-26.704,-0.782,-0.823,0.025,52.877,-2.927,10.202,-1.23,0.338,0.222,-1.252,-78.049,16.524
3600.0,-0.969,-0.193,0.12,-31.002,12.177,-27.298,-1.011,-0.39,0.137,25.167,-13.525,23.145,-1.18,0.367,0.266,-9.631,-81.265,21.056
3620.0,-0.926,-0.162,0.157,-30.423,14.732,-25.663,-0.941,-0.349,0.062,4.949,-14.253,24.266,-1.168,0.389,0.27,-21.572,-84.752,24.215
3640.0,-0.91,-0.145,0.175,-26.346,11.686,-26.5,-0.935,-0.274,0.018,-4.135,-15.375,22.124,-1.159,0.377,0.287,-31.794,-88.36,25.373
3660.0,-0.933,-0.157,0.158,-22.534,7.401,-29.505,-0.946,-0.354,-0.003,-2.374,-14.085,19.936,-1.177,0.346,0.274,-37.299,-93.589,22.214
3680.0,-0.97,-0.176,0.111,-23.793,5.57,-32.263,-0.989,-0.34,0.007,6.928,-11.876,18.68,-1.192,0.327,0.261,-42.037,-100.228,18.444
3700.0,-0.993,-0.204,0.079,-28.451,6.099,-34.751,-1.012,-0.274,0.036,-0.916,-15.567,18.317,-1.208,0.324,0.22,-42.064,-109.192,15.034
3720.0,-1.003,-0.218,0.075,-33.277,7.822,-37.006,-0.981,-0.318,0.029,-7.849,-17.088,16.954,-1.191,0.344,0.21,-39.412,-113.181,11.298
3740.0,-1.0,-0.223,0.079,-36.488,8.931,-38.624,-0.987,-0.314,0.027,-3.384,-14.99,15.578,-1.184,0.363,0.286,-39.808,-115.999,8.348
3760.0,-0.993,-0.217,0.089,-37.3,10.28,-39.379,-0.983,-0.311,0.058,1.035,-12.166,13.352,-1.167,0.374,0.299,-44.956,-117.867,5.132
3780.0,-0.981,-0.22,0.098,-37.079,12.028,-40.043,-0.961,-0.297,0.079,3.049,-7.32,11.437,-1.141,0.341,0.264,-48.236,-119.21,2.078
3800.0,-0.955,-0.251,0.097,-35.329,12.891,-41.609,-0.974,-0.236,0.079,0.386,-5.925,9.854,-1.124,0.329,0.273,-51.324,-121.323,-1.796
3820.0,-0.922,-0.28,0.083,-33.121,13.406,-44.886,-0.975,-0.276,0.062,-3.192,-5.629,8.039,-1.118,0.371,0.356,-58.17,-121.87,-7.35
3840.0,-0.898,-0.307,0.06,-32.914,13.978,-48.831,-0.972,-0.302,0.061,-0.437,-2.642,7.887,-1.146,0.346,0.36,-70.406,-128.04,-11.112
3860.0,-0.886,-0.333,0.036,-34.032,14.918,-53.402,-0.972,-0.287,0.05,-0.159,-0.847,7.504,-1.114,0.331,0.382,-73.5,-131.46,-15.47
3880.0,-0.884,-0.359,0.013,-35.583,17.676,-57.922,-0.963,-0.289,0.063,-4.24,-0.556,6.958,-1.087,0.309,0.421,-80.138,-130.834,-19.172
3900.0,-0.841,-0.39,-0.001,-35.769,22.69,-60.16,-0.966,-0.26,0.089,-7.343,1.565,7.457,-1.058,0.27,0.427,-83.146,-137.107,-21.705
3920.0,-0.778,-0.426,-0.001,-35.872,26.536,-62.174,-0.982,-0.241,0.076,-11.522,3.247,6.742,-0.964,0.238,0.472,-86.978,-136.102,-23.264
3940.0,-0.866,-0.468,0.014,-36.552,27.759,-64.661,-0.973,-0.274,0.073,-14.161,4.926,4.867,-0.95,0.236,0.562,-94.146,-135.915,-25.435
3960.0,-0.85,-0.5,0.016,-34.495,29.154,-66.933,-0.968,-0.333,0.07,-7.738,10.724,4.176,-0.928,0.206,0.633,-97.136,-137.768,-28.585
3980.0,-0.839,-0.527,0.011,-31.593,27.029,-67.288,-0.976,-0.314,0.053,-6.883,12.921,4.502,-0.843,0.155,0.607,-93.906,-142.177,-30.823
4000.0,-0.807,-0.542,-0.027,-30.266,23.647,-68.46,-0.979,-0.269,0.039,-12.088,13.439,5.303,-0.749,0.126,0.597,-88.257,-139.948,-30.841
4020.0,-0.787,-0.542,-0.068,-33.037,21.437,-68.451,-0.996,-0.294,0.01,-12.133,14.267,4.553,-0.672,0.108,0.631,-83.056,-132.436,-31.79
4040.0,-0.767,-0.54,-0.097,-36.057,23.809,-68.186,-0.974,-0.292,-0.009,-13.71,13.043,4.717,-0.662,0.138,0.722,-87.228,-129.384,-33.38
4060.0,-0.729,-0.574,-0.071,-32.226,28.335,-66.673,-0.952,-0.297,-0.023,-8.33,14.21,6.16,-0.655,0.105,0.769,-100.187,-131.934,-34.984
4080.0,-0.727,-0.61,-0.073,-29.19,30.66,-66.29,-0.962,-0.255,-0.031,-11.653,12.64,7.339,-0.602,-0.002,0.757,-104.835,-136.09,-37.553
4100.0,-0.697,-0.646,-0.13,-30.33,31.198,-64.401,-0.97,-0.272,-0.034,-8.126,11.896,7.625,-0.511,-0.128,0.71,-96.91,-139.76,-33.18
4120.0,-0.696,-0.666,-0.144,-32.899,32.825,-64.865,-0.984,-0.255,-0.021,-7.644,11.33,7.477,-0.429,-0.212,0.713,-76.904,-136.666,-31.006
4140.0,-0.699,-0.692,-0.119,-32.416,31.454,-67.81,-0.96,-0.25,0.023,-10.57,11.2,6.93,-0.382,-0.172,0.745,-63.162,-125.389,-36.499
4160.0,-0.688,-0.731,-0.16,-26.309,26.447,-73.171,-0.981,-0.384,-0.039,-11.5,11.207,7.626,-0.378,-0.13,0.752,-62.516,-118.769,-41.85
4180.0,-0.7,-0.71,-0.193,-24.268,27.022,-73.055,-1.005,-0.387,-0.041,3.141,15.795,7.641,-0.371,-0.138,0.747,-69.863,-117.789,-45.661
4200.0,-0.669,-0.702,-0.216,-27.827,29.093,-66.693,-0.992,-0.236,-0.042,4.058,15.95,9.44,-0.309,-0.205,0.71,-72.651,-118.823,-48.402
4220.0,-0.627,-0.704,-0.212,-28.183,31.426,-76.689,-1.017,-0.267,0.007,3.77,16.391,8.339,-0.221,-0.306,0.678,-67.068,-117.521,-49.532
4240.0,-0.595,-0.621,-0.189,-32.038,33.083,-73.255,-0.985,-0.28,-0.005,6.819,18.447,7.23,-0.165,-0.303,0.697,-55.593,-110.167,-49.491
4260.0,-0.566,-0.63,-0.19,-36.241,29.468,-67.474,-0.938,-0.259,-0.056,1.29,18.92,10.989,-0.126,-0.264,0.709,-54.753,-107.793,-50.073
4280.0,-0.551,-0.695,-0.237,-32.947,30.206,-67.294,-0.954,-0.312,-0.077,7.297,19.255,13.374,-0.049,-0.299,0.632,-54.936,-110.41,-50.978
4300.0,-0.53,-0.753,-0.278,-32.694,34.501,-69.017,-1.02,-0.272,-0.074,8.313,19.986,12.341,0.046,-0.404,0.58,-41.828,-110.393,-50.304
4320.0,-0.484,-0.776,-0.272,-36.38,38.212,-68.49,-0.993,-0.217,-0.03,1.998,15.812,8.78,0.103,-0.426,0.592,-22.035,-105.698,-50.31
4340.0,-0.483,-0.743,-0.265,-38.04,38.975,-67.439,-0.891,-0.251,-0.091,-4.085,20.428,8.616,0.142,-0.41,0.602,-3.942,-100.199,-47.065
4360.0,-0.467,-0.743,-0.276,-40.18,40.39,-61.46,-0.872,-0.23,-0.17,5.731,25.41,8.884,0.243,-0.447,0.545,14.004,-95.614,-44.722
4380.0,-0.455,-0.771,-0.306,-30.084,36.561,-60.092,-0.954,-0.146,-0.16,7.749,22.172,7.529,0.372,-0.474,0.524,25.93,-93.765,-44.691
4400.0,-0.431,-0.791,-0.375,-26.88,35.42,-57.482,-0.975,-0.145,-0.095,5.779,20.67,7.811,0.378,-0.363,0.52,30.856,-87.664,-40.334
4420.0,-0.408,-0.852,-0.446,-23.777,32.201,-53.446,-0.931,-0.206,-0.095,-3.095,17.726,9.37,0.379,-0.28,0.512,-19.218,-83.593,-40.991
4440.0,-0.429,-0.911,-0.463,-19.514,31.399,-47.614,-0.949,-0.273,-0.133,15.433,24.174,6.956,0.461,-0.348,0.515,-45.484,-83.784,-41.119
4460.0,-0.437,-0.941,-0.458,-17.933,30.193,-41.803,-1.011,-0.198,-0.128,14.782,19.952,7.422,0.559,-0.494,0.495,-50.387,-75.436,-37.675
4480.0,-0.45,-0.944,-0.445,-16.643,27.94,-37.768,-1.029,-0.199,-0.15,-0.835,9.304,7.836,0.636,-0.548,0.452,-28.28,-58.66,-34.79
4500.0,-0.507,-0.793,-0.402,-19.22,22.376,-27.52,-0.983,-0.338,-0.173,-4.439,6.268,6.469,0.645,-0.532,0.48,5.89,-37.726,-29.442
4520.0,-0.448,-0.849,-0.46,-14.036,24.951,-25.695,-0.992,-0.335,-0.132,12.889,11.581,6.173,0.666,-0.452,0.573,7.35,-25.87,-31.971
4540.0,-0.416,-0.86,-0.474,-13.17,26.089,-20.503,-1.005,-0.203,-0.135,8.13,10.766,6.12,0.693,-0.3,0.607,-21.49,-23.24,-33.11
4560.0,-0.382,-0.871,-0.465,-12.497,26.317,-13.875,-1.015,-0.168,-0.144,-1.712,8.494,5.435,0.747,-0.41,0.566,-47.634,-16.354,-29.935
4580.0,-0.375,-0.871,-0.488,-7.777,22.675,-11.885,-0.974,-0.187,-0.165,-2.617,7.821,3.518,0.749,-0.488,0.526,-45.656,-7.997,-28.086
4600.0,-0.38,-0.873,-0.502,-0.383,20.904,-6.556,-0.974,-0.139,-0.144,-3.941,4.828,3.51,0.71,-0.495,0.489,-34.595,4.742,-21.777
4620.0,-0.398,-0.893,-0.519,3.839,19.437,0.11,-0.96,-0.172,-0.2,-9.351,-1.369,3.994,0.695,-0.509,0.493,-23.526,12.189,-14.716
4640.0,-0.416,-0.934,-0.533,2.768,17.115,4.038,-0.956,-0.317,-0.228,-5.535,-2.235,3.861,0.728,-0.504,0.523,-10.54,25.1,-6.527
4660.0,-0.422,-0.958,-0.534,-3.802,13.997,7.389,-1.002,-0.31,-0.175,0.971,-1.913,3.422,0.671,-0.44,0.58,-3.113,39.989,-0.082
4680.0,-0.423,-0.93,-0.522,-6.155,12.245,12.465,-1.026,-0.209,-0.159,0.142,-3.612,2.847,0.622,-0.444,0.624,-5.805,43.423,7.518
4700.0,-0.421,-0.875,-0.495,-5.912,9.936,18.623,-1.007,-0.177,-0.175,-3.32,-5.21,1.198,0.62,-0.463,0.623,-3.601,49.259,13.435
4720.0,-0.408,-0.867,-0.492,-3.914,3.551,24.91,-0.966,-0.187,-0.175,0.09,-5.471,0.199,0.673,-0.525,0.566,4.258,55.644,23.661
4740.0,-0.411,-0.893,-0.526,-2.639,-3.669,29.676,-0.963,-0.181,-0.171,-0.687,-7.924,-0.16,0.681,-0.532,0.493,22.159,68.441,29.103
4760.0,-0.438,-0.903,-0.552,-2.584,-6.761,33.509,-0.978,-0.173,-0.179,-6.487,-11.71,-0.694,0.556,-0.466,0.474,33.053,84.508,33.569
4780.0,-0.448,-0.894,-0.552,-1.29,-6.58,37.453,-0.983,-0.221,-0.152,-8.763,-13.022,-1.894,0.366,-0.401,0.502,28.956,87.978,41.404
4800.0,-0.461,-0.878,-0.507,1.773,-7.184,41.718,-0.988,-0.233,-0.143,-8.509,-12.809,-2.758,0.357,-0.397,0.522,19.17,87.559,47.625
4820.0,-0.483,-0.851,-0.485,3.554,-12.769,45.588,-0.978,-0.224,-0.151,-4.081,-10.678,-3.622,0.364,-0.41,0.467,18.898,98.461,51.811
4840.0,-0.49,-0.831,-0.484,5.308,-20.528,49.15,-0.976,-0.221,-0.162,-4.304,-11.244,-4.567,0.238,-0.423,0.472,24.699,113.738,53.571
4860.0,-0.49,-0.824,-0.476,7.53,-23.554,52.221,-0.993,-0.19,-0.154,-2.944,-11.044,-6.105,0.172,-0.405,0.52,28.419,122.226,53.71
4880.0,-0.515,-0.843,-0.475,10.328,-26.379,55.101,-0.982,-0.158,-0.15,-8.75,-15.89,-6.16,0.148,-0.374,0.508,31.437,138.411,53.39
4900.0,-0.524,-0.849,-0.46,10.99,-28.437,57.457,-0.98,-0.257,-0.159,-3.15,-17.57,-7.21,-0.008,-0.361,0.427,38.147,175.747,54.134
4920.0,-0.523,-0.844,-0.433,11.332,-29.97,59.946,-0.992,-0.226,-0.154,-3.359,-20.042,-8.255,-0.343,-0.381,0.506,40.548,175.082,59.901
4940.0,-0.537,-0.813,-0.424,15.548,-33.619,64.093,-0.964,-0.259,-0.119,-0.671,-20.62,-7.237,-0.373,-0.335,0.547,49.969,153.867,60.861
4960.0,-0.545,-0.817,-0.382,21.306,-34.609,68.015,-0.967,-0.285,-0.118,4.486,-17.612,-6.608,-0.323,-0.281,0.542,53.884,168.179,61.334
4980.0,-0.551,-0.799,-0.365,25.682,-35.791,69.96,-1.004,-0.239,-0.106,5.846,-17.656,-6.838,-0.554,-0.293,0.569,46.898,195.379,69.069
5000.0,-0.561,-0.754,-0.386,27.466,-40.412,71.989,-0.99,-0.24,-0.112,8.832,-17.405,-8.61,-0.692,-0.29,0.631,42.756,168.907,67.651
5020.0,-0.571,-0.734,-0.38,28.402,-44.254,75.171,-0.961,-0.233,-0.111,9.24,-14.995,-10.272,-0.572,-0.166,0.653,40.17,156.656,56.735
5040.0,-0.587,-0.716,-0.306,29.337,-46.337,78.994,-0.956,-0.248,-0.087,9.533,-15.788,-11.691,-0.81,-0.169,0.714,21.878,198.967,60.949
5060.0,-0.602,-0.66,-0.289,31.363,-47.245,82.465,-0.937,-0.273,-0.059,11.163,-15.655,-11.166,-1.103,-0.259,0.822,5.168,168.749,56.833
5080.0,-0.644,-0.629,-0.296,34.955,-51.093,85.805,-0.964,-0.221,-0.041,11.378,-12.674,-11.043,-0.794,-0.369,0.761,22.722,125.912,55.878
5100.0,-0.665,-0.631,-0.268,38.633,-54.819,87.424,-0.992,-0.215,-0.043,6.156,-12.436,-12.055,-0.644,-0.349,0.543,64.729,141.358,54.721
5120.0,-0.675,-0.636,-0.251,41.632,-55.816,86.475,-0.992,-0.255,-0.055,1.855,-12.225,-14.467,-0.878,-0.188,0.465,91.072,157.472,50.057
5140.0,-0.694,-0.597,-0.237,41.851,-53.454,85.644,-0.981,-0.254,-0.051,1.792,-10.619,-15.188,-1.11,0.053,0.798,69.637,154.187,40.178
5160.0,-0.706,-0.549,-0.234,38.585,-51.61,84.699,-0.965,-0.284,-0.037,-1.431,-10.299,-14.579,-1.129,0.05,0.806,27.569,129.101,36.496
5180.0,-0.723,-0.514,-0.219,36.244,-52.425,84.092,-0.965,-0.312,-0.036,-1.976,-8.57,-13.685,-1.019,-0.154,0.698,36.798,105.232,34.139
5200.0,-0.762,-0.492,-0.231,34.37,-54.7,85.403,-0.969,-0.312,-0.046,-1.687,-6.737,-11.437,-0.931,-0.249,0.573,68.82,106.198,32.355
5220.0,-0.761,-0.485,-0.197,32.201,-50.76,85.921,-0.965,-0.328,-0.059,1.603,-5.18,-10.461,-0.992,-0.202,0.511,93.9,102.913,31.912
5240.0,-0.781,-0.478,-0.163,33.74,-50.12,84.56,-0.959,-0.304,-0.058,2.372,-3.935,-10.316,-0.98,-0.105,0.489,122.486,95.689,31.42
5260.0,-0.77,-0.472,-0.17,36.19,-47.18,85.05,-0.946,-0.284,-0.055,1.305,-2.786,-10.337,-0.923,0.058,0.472,131.113,100.583,27.34
5280.0,-0.761,-0.464,-0.117,36.098,-42.144,82.199,-0.956,-0.286,-0.031,-3.699,-2.933,-10.055,-1.015,0.222,0.498,120.444,106.74,16.59
5300.0,-0.808,-0.426,-0.071,34.267,-39.514,76.846,-0.949,-0.306,-0.017,-8.383,-2.56,-9.11,-1.135,0.284,0.595,76.072,103.809,4.197
5320.0,-0.852,-0.403,-0.072,34.126,-42.826,71.71,-0.944,-0.336,-0.042,-11.802,-2.45,-7.044,-1.122,0.229,0.567,37.095,96.009,-4.937
5340.0,-0.864,-0.392,-0.096,33.537,-43.428,69.426,-0.965,-0.366,-0.081,-12.333,-2.017,-4.894,-1.079,0.12,0.375,30.571,90.03,-8.234
5360.0,-0.868,-0.376,-0.088,29.306,-41.7,67.024,-0.97,-0.375,-0.107,-7.085,-2.112,-3.067,-1.1,0.116,0.327,37.512,90.822,-9.061
5380.0,-0.892,-0.32,-0.038,22.209,-36.949,65.188,-0.963,-0.349,-0.105,-0.354,-1.908,-2.81,-1.11,0.14,0.455,34.199,87.772,-8.24
5400.0,-0.922,-0.252,-0.003,17.341,-33.88,63.567,-0.963,-0.324,-0.076,1.74,-2.428,-2.668,-1.069,0.133,0.529,30.243,81.779,-4.967
5420.0,-0.941,-0.218,0.009,12.822,-33.027,65.269,-0.955,-0.341,-0.046,4.374,-1.432,-2.704,-1.043,0.097,0.512,39.497,80.264,-0.719
5440.0,-0.938,-0.193,0.001,12.25,-29.96,66.64,-0.936,-0.294,-0.02,4.171,1.646,-2.836,-1.03,0.091,0.458,52.212,77.113,1.867
5460.0,-0.93,-0.201,-0.031,15.574,-25.757,69.03,-0.949,-0.306,-0.013,-1.803,3.193,-4.029,-1.05,0.13,0.456,55.661,73.506,1.418
5480.0,-0.907,-0.225,-0.025,16.147,-20.53,71.137,-0.956,-0.287,-0.017,-4.554,7.437,-4.586,-1.105,0.147,0.474,50.016,64.063,0.249
5500.0,-0.899,-0.22,-0.007,17.096,-16.735,71.964,-0.935,-0.281,-0.029,-5.424,11.075,-6.888,-1.073,0.138,0.472,49.235,56.215,-0.145
5520.0,-0.911,-0.208,0.014,17.813,-12.875,72.828,-0.968,-0.268,-0.026,-10.041,12.23,-8.882,-1.008,0.126,0.399,56.585,50.926,0.954
5540.0,-0.926,-0.178,0.023,18.903,-9.203,74.095,-0.969,-0.309,-0.05,-12.814,14.509,-10.732,-0.968,0.121,0.332,68.215,46.728,4.02
5560.0,-0.925,-0.135,0.001,21.077,-5.306,75.814,-0.953,-0.332,-0.069,-12.25,16.87,-11.97,-0.94,0.136,0.306,74.612,45.442,7.656
5580.0,-0.901,-0.107,-0.002,23.493,2.823,77.185,-0.95,-0.319,-0.104,-13.021,17.08,-13.125,-0.934,0.148,0.276,74.718,38.744,8.675
5600.0,-0.875,-0.078,0.0,26.719,12.186,78.683,-0.968,-0.317,-0.102,-11.83,17.08,-14.35,-0.888,0.119,0.222,78.085,34.413,10.658
5620.0,-0.859,-0.047,0.005,29.672,20.749,80.42,-0.933,-0.358,-0.113,-11.06,18.34,-15.19,-0.853,0.11,0.192,88.032,34.383,12.268
5640.0,-0.858,-0.019,0.016,31.021,26.866,82.555,-0.952,-0.352,-0.113,-12.486,17.21,-14.568,-0.83,0.121,0.132,100.228,40.686,13.65
5660.0,-0.887,0.011,0.019,32.053,30.422,85.598,-0.943,-0.422,-0.218,-11.714,12.133,-12.157,-0.822,0.131,0.037,104.369,44.315,12.239
5680.0,-0.909,0.038,0.003,31.993,33.238,88.026,-0.943,-0.462,-0.213,-2.547,9.354,-11.077,-0.817,0.139,0.003,98.771,46.791,9.447
5700.0,-0.92,0.07,-0.025,32.09,36.742,90.114,-0.923,-0.405,-0.206,-0.059,5.838,-9.981,-0.863,0.129,-0.034,87.665,43.025,4.436
5720.0,-0.924,0.121,-0.045,34.807,43.487,92.754,-0.915,-0.408,-0.185,5.832,5.57,-9.94,-0.877,0.093,-0.067,81.043,36.29,0.161
5740.0,-0.926,0.17,-0.03,37.533,52.574,94.908,-0.937,-0.406,-0.182,4.983,0.651,-7.557,-0.85,0.082,-0.079,76.72,37.24,-4.83
5760.0,-0.966,0.181,0.009,38.292,54.933,96.287,-0.934,-0.355,-0.175,10.349,-0.249,-7.739,-0.87,0.053,-0.114,76.112,43.272,-9.005
5780.0,-0.966,0.198,-0.043,38.696,52.779,96.502,-0.939,-0.362,-0.126,7.854,-4.441,-8.882,-0.903,0.055,-0.104,73.903,49.169,-15.497
5800.0,-0.931,0.312,-0.081,37.555,50.685,92.462,-0.897,-0.351,-0.081,3.03,-1.712,-8.762,-0.998,0.135,-0.076,58.45,44.31,-23.52
5820.0,-0.89,0.307,-0.154,33.992,51.496,87.653,-0.941,-0.38,-0.086,0.447,-0.491,-7.374,-0.998,0.063,-0.136,44.928,34.564,-28.066
5840.0,-0.86,0.401,-0.13,29.464,56.839,87.683,-0.921,-0.447,-0.143,4.318,3.719,-6.092,-0.971,0.02,-0.193,50.449,34.26,-31.327
5860.0,-0.885,0.368,-0.143,24.425,57.608,82.913,-0.908,-0.386,-0.137,10.345,5.095,-6.178,-0.986,0.003,-0.218,53.608,32.939,-31.43
5880.0,-0.899,0.448,-0.202,18.521,53.057,80.052,-0.895,-0.383,-0.133,5.527,5.462,-7.376,-1.01,-0.002,-0.209,60.806,35.322,-30.662
5900.0,-0.918,0.487,-0.232,4.52,51.722,80.01,-0.915,-0.422,-0.09,5.942,7.838,-6.248,-1.065,0.039,-0.175,58.147,34.625,-31.86
5920.0,-0.915,0.446,-0.218,3.107,50.029,77.719,-0.931,-0.367,-0.103,5.075,11.988,-7.526,-1.035,0.029,-0.189,48.356,30.605,-32.945
5940.0,-0.9,0.437,-0.217,2.73,46.2,78.54,-0.944,-0.344,-0.13,-1.107,11.641,-10.273,-0.992,0.03,-0.212,44.69,36.125,-32.907
5960.0,-0.894,0.444,-0.221,5.438,41.06,76.322,-0.912,-0.362,-0.174,-11.16,8.202,-12.269,-1.032,0.019,-0.227,44.427,41.294,-33.701
5980.0,-0.874,0.519,-0.229,6.557,38.332,75.481,-0.909,-0.442,-0.221,-10.613,5.373,-12.401,-1.069,0.02,-0.254,43.908,40.997,-32.198
6000.0,-0.843,0.522,-0.267,10.096,41.073,73.498,-0.914,-0.452,-0.218,-5.95,2.53,-10.948,-1.114,0.048,-0.247,41.442,40.761,-33.896
6020.0,-0.815,0.565,-0.26,3.73,41.95,70.498,-0.913,-0.461,-0.183,-2.709,0.399,-8.241,-1.136,0.039,-0.277,26.037,30.202,-32.138
6040.0,-0.804,0.487,-0.305,16.45,45.57,64.54,-0.912,-0.473,-0.183,-0.231,0.356,-5.065,-1.222,-0.016,-0.327,24.223,27.774,-29.407
6060.0,-0.782,0.551,-0.323,20.368,44.002,64.603,-0.903,-0.454,-0.175,4.845,2.129,-2.682,-1.198,-0.006,-0.322,24.093,24.896,-25.038
6080.0,-0.72,0.526,-0.318,23.407,46.722,60.916,-0.903,-0.408,-0.146,6.44,3.044,-2.218,-1.149,-0.049,-0.308,26.465,17.927,-20.769
6100.0,-0.698,0.589,-0.296,30.87,47.449,61.672,-0.912,-0.402,-0.175,1.201,1.53,-2.669,-1.136,-0.124,-0.252,43.463,13.911,-15.167
6120.0,-0.723,0.558,-0.364,32.461,42.789,51.423,-0.895,-0.447,-0.208,1.152,-0.491,-3.336,-1.109,-0.031,-0.217,45.793,16.862,-13.881
6140.0,-0.713,0.589,-0.419,32.743,41.847,44.194,-0.904,-0.457,-0.168,5.811,-0.703,-1.337,-1.129,0.016,-0.22,30.741,17.205,-14.285
6160.0,-0.687,0.751,-0.383,32.411,39.337,44.095,-0.906,-0.445,-0.153,6.297,0.573,0.117,-1.156,-0.006,-0.23,15.985,14.414,-14.49
6180.0,-0.71,0.705,-0.394,30.202,39.486,40.895,-0.91,-0.416,-0.164,6.144,1.361,-0.261,-1.149,-0.129,-0.257,18.07,14.575,-11.641
6200.0,-0.693,0.667,-0.415,27.93,38.506,37.312,-0.913,-0.418,-0.182,3.532,0.012,-1.16,-1.139,-0.119,-0.264,33.52,17.174,-7.576
6220.0,-0.678,0.666,-0.443,25.219,34.719,35.396,-0.912,-0.43,-0.189,4.105,0.37,-2.522,-1.165,0.005,-0.263,27.303,20.865,-8.943
6240.0,-0.672,0.676,-0.49,22.216,30.416,33.298,-0.899,-0.418,-0.153,2.24,0.435,-3.559,-1.176,0.015,-0.259,1.798,18.208,-12.781
6260.0,-0.671,0.718,-0.534,16.158,29.159,30.748,-0.905,-0.422,-0.112,2.238,2.629,-2.055,-1.142,-0.077,-0.268,-10.41,14.722,-15.359
6280.0,-0.683,0.748,-0.525,6.518,28.586,27.691,-0.901,-0.424,-0.159,2.084,5.25,-1.821,-1.128,-0.069,-0.321,-11.721,19.31,-15.603
6300.0,-0.692,0.726,-0.505,1.558,24.201,24.423,-0.909,-0.427,-0.165,1.5,6.274,-2.191,-1.12,-0.031,-0.373,-15.597,23.965,-15.357
6320.0,-0.673,0.701,-0.507,0.469,19.063,21.407,-0.902,-0.413,-0.161,2.166,7.485,-3.247,-1.083,-0.08,-0.402,-23.543,32.689,-19.414
6340.0,-0.641,0.705,-0.513,1.509,15.214,17.722,-0.899,-0.425,-0.193,-2.694,5.683,-3.987,-1.083,-0.166,-0.402,-15.752,43.718,-23.702
6360.0,-0.641,0.699,-0.54,2.253,11.332,13.092,-0.873,-0.473,-0.186,-0.089,5.67,-2.614,-1.105,-0.209,-0.387,-3.047,54.191,-27.245
6380.0,-0.637,0.702,-0.572,3.203,8.645,8.593,-0.854,-0.483,-0.216,-4.27,4.06,-0.14,-1.131,-0.225,-0.409,9.976,57.442,-33.029
6400.0,-0.634,0.717,-0.589,4.666,8.05,4.315,-0.895,-0.473,-0.212,-4.13,1.68,1.61,-1.153,-0.128,-0.393,1.257,65.223,-36.041
6420.0,-0.655,0.731,-0.583,5.586,6.878,-0.332,-0.89,-0.462,-0.214,-1.172,0.95,4.514,-1.291,-0.053,-0.423,-15.352,47.942,-25.453
6440.0,-0.688,0.739,-0.58,5.41,2.75,-4.569,-0.849,-0.568,-0.26,-18.664,4.669,4.436,-1.431,0.04,-0.324,-82.266,-18.052,-13.116
6460.0,-0.695,0.738,-0.585,4.107,-0.972,-8.838,-0.831,-0.501,-0.259,-14.985,17.696,4.79,-1.162,-0.224,-0.23,-83.708,-25.169,0.226
6480.0,-0.688,0.725,-0.577,3.67,-5.357,-13.722,-0.991,-0.426,-0.225,9.086,-0.986,2.087,-1.277,-0.316,-0.165,-7.662,-7.258,6.74
6500.0,-0.69,0.705,-0.568,4.716,-10.018,-17.918,-0.948,-0.338,-0.177,1.708,-5.368,7.562,-1.314,-0.245,-0.122,27.226,-1.563,8.984
6520.0,-0.687,0.678,-0.563,3.783,-13.517,-22.766,-0.876,-0.413,-0.186,-4.786,-7.316,8.879,-1.29,-0.248,-0.179,73.29,-0.14,13.02
6540.0,-0.704,0.671,-0.571,3.117,-18.047,-27.225,-0.88,-0.431,-0.211,-5.787,-8.101,8.881,-1.31,0.027,-0.227,42.63,-14.98,9.31
6560.0,-0.713,0.679,-0.563,2.43,-21.993,-32.775,-0.879,-0.445,-0.21,-7.283,-9.965,10.089,-1.294,0.06,-0.216,-0.103,-29.635,7.885
6580.0,-0.732,0.694,-0.566,2.27,-28.066,-37.602,-0.88,-0.503,-0.231,-8.722,-12.529,12.759,-1.266,-0.044,-0.312,-27.23,-36.75,9.8
6600.0,-0.746,0.671,-0.587,1.046,-32.738,-42.827,-0.902,-0.454,-0.192,-3.594,-11.687,14.529,-1.29,-0.038,-0.371,-36.25,-46.879,14.243
6620.0,-0.728,0.635,-0.56,-0.226,-34.388,-48.383,-0.921,-0.429,-0.191,-0.883,-11.797,16.538,-1.181,-0.06,-0.38,-33.111,-43.327,23.172
6640.0,-0.725,0.61,-0.509,2.703,-35.07,-52.908,-0.918,-0.432,-0.196,-1.801,-13.37,18.039,-1.164,0.008,-0.367,-25.97,-40.53,31.15
6660.0,-0.761,0.592,-0.48,4.613,-39.447,-56.412,-0.9,-0.435,-0.198,-3.536,-14.552,18.876,-1.142,0.053,-0.349,-28.712,-39.825,36.025
6680.0,-0.78,0.592,-0.478,4.25,-45.093,-58.983,-0.896,-0.42,-0.199,-3.907,-15.195,19.359,-1.152,0.02,-0.306,-28.98,-38.15,40.32
6700.0,-0.778,0.598,-0.461,2.146,-48.257,-61.243,-0.914,-0.393,-0.189,-4.248,-16.694,19.674,-1.092,-0.05,-0.328,-14.333,-31.698,45.761
6720.0,-0.786,0.582,-0.446,-0.531,-52.129,-63.617,-0.927,-0.385,-0.166,-5.048,-17.644,20.0,-1.097,0.031,-0.313,-8.33,-27.44,46.62
6740.0,-0.801,0.568,-0.431,-3.226,-57.099,-66.245,-0.926,-0.388,-0.157,-4.589,-17.237,20.381,-1.085,0.047,-0.346,-11.015,-32.307,46.544
6760.0,-0.818,0.567,-0.415,-5.33,-62.758,-68.947,-0.924,-0.371,-0.184,-6.193,-18.095,20.854,-1.097,0.069,-0.358,-15.219,-41.18,46.352
6780.0,-0.828,0.545,-0.396,-6.961,-67.657,-70.944,-0.929,-0.394,-0.161,-3.099,-19.063,22.286,-1.059,0.069,-0.368,-24.645,-49.509,47.693
6800.0,-0.821,0.515,-0.372,-8.414,-71.647,-72.981,-0.924,-0.396,-0.155,-0.072,-19.136,23.005,-1.01,0.022,-0.359,-30.522,-53.643,50.321
6820.0,-0.815,0.491,-0.338,-11.27,-75.386,-73.758,-0.948,-0.349,-0.153,-0.372,-18.63,23.531,-0.96,-0.038,-0.348,-29.51,-54.046,54.095
6840.0,-0.822,0.48,-0.313,-13.907,-77.685,-74.405,-0.963,-0.356,-0.115,-1.509,-19.924,24.421,-0.94,-0.039,-0.362,-23.83,-51.275,56.134
6860.0,-0.827,0.446,-0.278,-14.372,-79.846,-75.925,-0.958,-0.339,-0.129,-2.076,-17.722,24.633,-0.952,-0.037,-0.414,-12.62,-44.28,57.471
6880.0,-0.822,0.39,-0.249,-14.517,-80.874,-78.091,-0.94,-0.315,-0.105,-2.534,-16.798,24.158,-0.951,-0.008,-0.414,-2.82,-43.308,57.752
6900.0,-0.821,0.372,-0.23,-16.24,-80.607,-79.571,-0.943,-0.325,-0.122,-3.913,-16.242,23.223,-0.886,0.052,-0.363,-6.752,-44.806,57.045
6920.0,-0.838,0.372,-0.208,-20.763,-78.327,-80.344,-0.977,-0.3,-0.14,-2.985,-17.974,21.959,-0.801,0.062,-0.36,-21.247,-42.075,54.397
6940.0,-0.861,0.375,-0.17,-25.659,-74.916,-81.026,-0.978,-0.293,-0.16,-2.82,-20.432,20.887,-0.793,0.029,-0.391,-29.724,-37.498,49.642
6960.0,-0.868,0.361,-0.114,-29.411,-73.059,-81.608,-0.986,-0.309,-0.123,-2.313,-23.845,19.973,-0.788,-0.016,-0.397,-29.596,-42.029,46.305
6980.0,-0.884,0.348,-0.046,-30.128,-71.815,-79.796,-0.982,-0.277,-0.155,-4.356,-26.919,19.706,-0.652,-0.056,-0.411,-19.525,-37.234,43.1
7000.0,-0.91,0.319,-0.03,-25.045,-75.449,-76.241,-0.982,-0.285,-0.138,-2.223,-30.18,19.002,-0.604,-0.045,-0.407,-1.485,-18.926,40.321
7020.0,-0.912,0.266,-0.066,-20.66,-78.622,-72.913,-0.989,-0.312,-0.114,0.113,-32.47,17.439,-0.636,0.065,-0.351,4.952,-6.353,35.563
7040.0,-0.876,0.193,-0.126,-17.388,-75.608,-70.324,-0.945,-0.32,-0.093,6.752,-31.124,18.797,-0.666,0.129,-0.301,0.208,0.014,28.666
7060.0,-0.82,0.139,-0.095,-13.991,-65.713,-68.065,-0.952,-0.33,-0.058,13.256,-28.444,18.97,-0.684,0.2,-0.207,-14.664,2.757,20.118
7080.0,-0.823,0.104,-0.052,-10.45,-61.298,-64.729,-0.975,-0.271,-0.03,14.5,-27.037,20.835,-0.672,0.241,-0.119,-35.624,5.599,12.355
7100.0,-0.831,0.116,-0.027,-6.601,-60.091,-60.441,-0.967,-0.221,-0.031,10.275,-27.718,20.812,-0.705,0.22,-0.102,-51.716,7.27,7.546
7120.0,-0.84,0.102,-0.028,-5.39,-53.9,-55.58,-0.951,-0.265,-0.014,8.463,-25.619,19.124,-0.746,0.161,-0.108,-51.256,10.289,5.768
7140.0,-0.863,0.083,0.024,-4.975,-46.118,-51.634,-0.983,-0.228,0.013,13.853,-19.006,18.717,-0.826,0.173,-0.055,-49.936,9.986,2.664
7160.0,-0.9,0.089,0.056,-5.65,-40.039,-48.9,-0.983,-0.114,0.07,8.983,-15.655,12.908,-0.887,0.196,-0.018,-54.8,8.809,0.211
7180.0,-0.957,0.101,0.085,-3.901,-37.03,-46.404,-0.941,-0.121,0.119,-0.162,-9.697,8.349,-0.94,0.184,-0.002,-54.828,5.26,-2.193
7200.0,-0.993,0.089,0.06,-4.602,-32.172,-45.566,-0.956,-0.138,0.127,-3.546,-1.098,5.452,-0.977,0.149,0.001,-44.275,2.85,-3.461
7220.0,-0.995,0.081,0.059,-6.0,-27.629,-41.904,-0.99,-0.197,0.041,-9.37,5.877,3.302,-1.003,0.144,0.019,-28.083,-1.575,-4.952
7240.0,-0.992,0.055,0.059,-12.316,-24.235,-41.517,-0.987,-0.251,-0.008,-9.195,7.696,1.437,-0.994,0.198,0.047,-26.748,-4.191,-7.647
7260.0,-0.979,0.052,0.059,-17.64,-17.71,-43.4,-0.986,-0.272,-0.032,1.21,10.255,1.528,-1.001,0.21,0.048,-30.984,-7.788,-11.55
7280.0,-0.976,0.043,0.115,-17.182,-12.599,-43.54,-1.012,-0.216,-0.056,5.698,9.17,1.721,-1.002,0.216,0.04,-42.728,-14.534,-15.614
7300.0,-0.923,0.019,0.1,-16.248,-9.116,-41.51,-1.021,-0.2,-0.059,3.36,5.664,0.331,-0.999,0.234,0.046,-57.981,-20.327,-19.832
7320.0,-0.909,0.002,0.097,-18.233,-7.258,-40.418,-0.997,-0.212,-0.052,0.805,3.678,-1.339,-1.009,0.264,0.068,-76.732,-26.808,-23.331
7340.0,-0.912,-0.018,0.098,-20.193,-2.249,-41.254,-0.98,-0.237,-0.047,0.277,3.217,-1.289,-1.05,0.275,0.082,-95.882,-33.319,-26.584
7360.0,-0.934,-0.054,0.11,-21.557,2.891,-43.839,-0.99,-0.244,-0.043,-0.71,2.16,-0.712,-1.092,0.261,0.091,-104.921,-36.481,-31.804
7380.0,-0.96,-0.077,0.124,-21.739,6.465,-45.959,-1.006,-0.229,-0.047,-3.644,0.092,-0.098,-1.177,0.269,0.102,-106.803,-45.501,-39.978
7400.0,-0.977,-0.108,0.138,-23.199,5.523,-49.742,-1.008,-0.231,-0.057,-4.47,-1.284,0.049,-1.181,0.223,0.125,-119.996,-49.986,-46.66
7420.0,-0.986,-0.128,0.123,-26.516,6.389,-54.226,-0.991,-0.239,-0.05,-2.018,-1.719,-0.394,-1.204,0.185,0.213,-128.021,-48.62,-50.953
7440.0,-0.981,-0.141,0.108,-27.134,10.005,-57.599,-0.984,-0.228,-0.028,-1.58,-1.371,-0.42,-1.256,0.173,0.244,-137.743,-52.633,-54.151
7460.0,-0.971,-0.163,0.101,-29.72,10.483,-61.554,-0.989,-0.232,-0.02,-2.528,-0.865,-0.252,-1.242,0.073,0.241,-133.535,-60.072,-55.974
7480.0,-0.962,-0.186,0.093,-33.443,11.321,-66.858,-0.974,-0.261,-0.017,-4.638,-0.181,0.927,-1.244,0.059,0.275,-126.513,-60.478,-59.809
7500.0,-0.941,-0.205,0.079,-37.595,12.961,-71.082,-0.977,-0.281,-0.023,-7.655,0.522,2.998,-1.247,0.037,0.337,-115.43,-62.79,-65.52
7520.0,-0.909,-0.223,0.059,-42.652,14.9,-76.105,-1.002,-0.246,-0.048,-11.95,-1.554,4.675,-1.255,0.031,0.365,-110.911,-67.379,-71.381
7540.0,-0.885,-0.246,0.047,-45.576,20.318,-82.337,-0.99,-0.244,-0.053,-11.277,-0.385,4.609,-1.241,0.017,0.366,-107.517,-74.45,-78.445
7560.0,-0.867,-0.275,0.047,-47.6,26.621,-86.3,-0.989,-0.253,-0.043,-3.633,1.155,5.214,-1.257,-0.004,0.365,-104.151,-82.145,-86.424
7580.0,-0.849,-0.313,0.052,-49.715,29.712,-91.876,-0.978,-0.221,-0.036,-5.405,1.529,5.357,-1.259,-0.025,0.363,-101.788,-88.483,-94.359
7600.0,-0.83,-0.359,0.044,-50.705,32.221,-94.461,-0.962,-0.283,-0.034,-5.95,2.59,6.65,-1.246,-0.056,0.364,-96.267,-92.633,-101.399
7620.0,-0.83,-0.412,0.007,-52.18,35.761,-96.902,-0.98,-0.247,-0.033,-0.281,5.902,8.785,-1.233,-0.106,0.368,-84.144,-94.72,-107.633
7640.0,-0.834,-0.458,-0.002,-54.614,39.927,-101.159,-0.986,-0.221,-0.043,-0.614,6.155,9.231,-1.248,-0.145,0.373,-71.578,-96.586,-113.749
7660.0,-0.835,-0.468,0.041,-55.758,40.911,-103.121,-0.993,-0.206,-0.03,-2.095,5.897,9.043,-1.227,-0.145,0.366,-58.985,-102.144,-118.239
7680.0,-0.831,-0.485,0.03,-49.712,38.454,-103.553,-1.014,-0.222,-0.058,-5.932,6.83,9.268,-1.164,-0.146,0.338,-49.036,-105.603,-120.027
7700.0,-0.783,-0.507,-0.071,-46.988,38.31,-101.198,-1.003,-0.304,-0.069,-5.146,5.091,9.897,-1.114,-0.205,0.317,-38.221,-107.389,-120.766
7720.0,-0.774,-0.567,-0.115,-48.937,40.838,-95.849,-0.954,-0.298,-0.071,2.612,11.191,14.921,-1.083,-0.229,0.353,-26.63,-110.346,-119.398
7740.0,-0.747,-0.582,-0.099,-46.608,41.154,-92.716,-1.004,-0.164,-0.097,-1.762,8.677,15.089,-1.03,-0.213,0.374,-18.576,-113.6,-118.038
7760.0,-0.72,-0.593,-0.141,-41.546,39.986,-91.238,-1.004,-0.195,-0.135,-2.567,4.98,12.978,-1.003,-0.223,0.358,-12.478,-117.688,-115.294
7780.0,-0.74,-0.628,-0.174,-37.082,41.272,-88.356,-0.998,-0.212,-0.133,3.099,1.347,12.6,-0.962,-0.267,0.325,-9.477,-121.864,-114.276
7800.0,-0.779,-0.666,-0.194,-28.48,41.304,-84.972,-1.029,-0.147,-0.106,3.857,-0.16,12.211,-0.922,-0.329,0.346,-4.404,-121.789,-111.041
7820.0,-0.788,-0.711,-0.184,-24.329,42.385,-81.811,-1.006,-0.186,-0.074,-3.393,-0.91,9.938,-0.906,-0.343,0.365,0.7,-128.8,-107.38
7840.0,-0.761,-0.697,-0.175,-22.47,39.13,-81.27,-0.996,-0.202,-0.06,-1.905,-0.675,9.675,-0.834,-0.39,0.322,7.955,-132.363,-100.641
7860.0,-0.718,-0.673,-0.194,-18.2,37.38,-78.61,-0.994,-0.187,-0.059,1.869,1.408,9.796,-0.733,-0.402,0.335,19.888,-134.913,-94.285
7880.0,-0.688,-0.696,-0.206,-13.263,36.849,-76.789,-0.982,-0.176,-0.064,1.775,3.532,9.241,-0.686,-0.371,0.382,13.714,-137.184,-89.452
7900.0,-0.647,-0.711,-0.21,-14.202,31.852,-73.813,-0.978,-0.177,-0.062,0.406,5.611,8.097,-0.605,-0.438,0.412,13.441,-137.264,-86.002
7920.0,-0.599,-0.732,-0.218,-11.715,32.581,-73.373,-0.972,-0.211,-0.033,8.418,13.022,8.134,-0.514,-0.489,0.403,22.866,-139.824,-81.542
7940.0,-0.558,-0.743,-0.234,-3.641,35.756,-73.611,-0.965,-0.226,-0.025,13.639,21.669,9.193,-0.401,-0.47,0.476,31.352,-129.77,-80.461
7960.0,-0.528,-0.798,-0.267,-5.466,34.756,-70.086,-0.967,-0.172,-0.054,12.681,28.341,8.637,-0.379,-0.407,0.531,25.708,-129.218,-80.387
7980.0,-0.53,-0.748,-0.258,-12.328,30.553,-66.913,-0.979,-0.174,-0.082,12.72,31.286,8.893,-0.277,-0.434,0.529,16.706,-129.089,-79.347
8000.0,-0.505,-0.762,-0.293,-21.542,24.218,-62.345,-0.979,-0.229,-0.119,16.452,32.593,10.091,-0.163,-0.445,0.544,5.433,-127.959,-76.733
8020.0,-0.496,-0.773,-0.338,-21.701,20.731,-56.975,-0.967,-0.091,-0.159,22.408,33.504,7.121,-0.13,-0.385,0.606,-0.306,-120.215,-78.358
8040.0,-0.495,-0.775,-0.349,-22.899,21.57,-49.648,-1.013,-0.061,-0.144,18.871,25.595,5.246,-0.078,-0.39,0.632,-0.618,-107.282,-79.1
8060.0,-0.479,-0.811,-0.335,-29.734,21.965,-45.095,-0.997,-0.059,-0.158,1.683,21.27,2.231,-0.013,-0.418,0.621,1.687,-102.611,-80.062
8080.0,-0.464,-0.819,-0.349,-32.599,19.85,-41.691,-0.967,-0.115,-0.202,-9.313,14.959,0.157,0.049,-0.41,0.626,1.395,-98.262,-78.228
8100.0,-0.456,-0.862,-0.376,-29.133,16.784,-38.844,-0.985,-0.189,-0.211,-6.868,11.692,0.552,0.105,-0.41,0.657,-2.855,-94.072,-71.878
8120.0,-0.446,-0.908,-0.398,-23.771,15.82,-36.189,-1.023,-0.157,-0.199,-3.017,10.2,-0.124,0.141,-0.411,0.701,-5.841,-88.425,-63.19
8140.0,-0.435,-0.921,-0.417,-21.16,15.725,-33.002,-1.036,-0.191,-0.19,-3.079,6.85,-0.962,0.162,-0.415,0.706,-3.105,-85.468,-52.35
8160.0,-0.427,-0.946,-0.424,-17.967,14.92,-29.775,-0.974,-0.192,-0.229,-0.118,6.363,-1.182,0.198,-0.444,0.689,4.597,-87.908,-41.212
8180.0,-0.429,-0.952,-0.411,-12.147,14.249,-26.213,-0.989,-0.154,-0.21,-1.18,4.325,-0.323,0.285,-0.434,0.751,6.169,-86.771,-33.947
8200.0,-0.432,-0.974,-0.422,-7.999,12.422,-20.881,-0.989,-0.232,-0.198,0.584,0.72,0.71,0.338,-0.463,0.803,2.754,-81.329,-23.645
8220.0,-0.421,-0.957,-0.441,-4.895,11.104,-15.805,-0.987,-0.207,-0.205,9.887,1.906,2.236,0.405,-0.507,0.741,10.958,-83.002,-13.056
8240.0,-0.41,-0.942,-0.431,-2.31,10.64,-9.38,-0.988,-0.14,-0.212,4.015,-2.069,1.863,0.528,-0.509,0.697,23.992,-78.681,-3.725
8260.0,-0.401,-0.935,-0.432,0.194,8.533,-2.296,-0.999,-0.093,-0.204,-1.416,-4.673,-0.426,0.571,-0.462,0.658,28.406,-66.191,3.107
8280.0,-0.434,-0.919,-0.432,4.34,5.11,4.06,-0.993,-0.111,-0.194,-11.277,-8.414,-1.023,0.574,-0.438,0.635,33.613,-65.263,7.255
8300.0,-0.455,-0.93,-0.436,1.327,0.291,10.869,-0.956,-0.252,-0.21,-8.236,-8.63,-0.475,0.587,-0.429,0.594,43.457,-65.742,11.161
8320.0,-0.447,-0.94,-0.418,-7.734,-4.671,15.799,-0.965,-0.237,-0.203,1.604,-5.234,-0.398,0.685,-0.402,0.531,51.165,-59.23,22.128
8340.0,-0.427,-0.932,-0.452,-8.678,-8.467,20.676,-0.984,-0.143,-0.192,-2.198,-6.014,-0.38,0.751,-0.37,0.47,62.91,-38.25,31.964
8360.0,-0.461,-0.889,-0.468,-8.507,-9.094,26.505,-0.995,-0.113,-0.181,-6.838,-7.905,-0.87,0.755,-0.326,0.467,63.379,-23.028,41.241
8380.0,-0.504,-0.896,-0.458,-6.61,-10.755,33.838,-0.998,-0.115,-0.193,-9.725,-10.264,-2.709,0.744,-0.308,0.468,62.458,-5.418,49.003
8400.0,-0.53,-0.909,-0.448,-4.226,-14.667,42.724,-0.991,-0.17,-0.194,-7.896,-10.754,-4.425,0.707,-0.301,0.489,55.916,9.632,54.216
8420.0,-0.545,-0.902,-0.443,-0.64,-14.668,52.107,-0.977,-0.191,-0.168,0.527,-8.228,-4.924,0.654,-0.288,0.475,51.52,24.36,58.8
8440.0,-0.552,-0.9,-0.413,3.706,-15.204,59.711,-0.988,-0.144,-0.149,0.796,-6.188,-5.133,0.575,-0.375,0.416,64.12,35.35,66.85
8460.0,-0.544,-0.894,-0.411,7.616,-16.998,65.644,-0.988,-0.166,-0.188,-5.477,-7.684,-6.383,0.512,-0.382,0.431,93.416,59.705,72.182
8480.0,-0.549,-0.87,-0.411,11.587,-18.54,70.429,-0.991,-0.179,-0.197,-1.418,-7.871,-7.78,0.364,-0.3,0.459,101.24,77.276,78.8
8500.0,-0.571,-0.835,-0.405,14.851,-20.15,75.1,-0.982,-0.172,-0.17,7.575,-6.627,-8.977,0.274,-0.341,0.466,107.698,82.277,85.579
8520.0,-0.595,-0.801,-0.387,17.617,-22.295,80.988,-0.993,-0.136,-0.138,8.522,-5.466,-10.801,0.265,-0.282,0.503,117.319,92.415,86.022
8540.0,-0.605,-0.768,-0.351,20.38,-24.209,87.464,-0.995,-0.144,-0.134,5.805,-5.428,-12.872,0.193,-0.212,0.534,119.352,107.867,81.029
8560.0,-0.611,-0.732,-0.321,23.855,-25.187,92.498,-0.994,-0.161,-0.148,0.038,-6.299,-15.655,0.025,-0.212,0.525,112.914,124.434,77.836
8580.0,-0.621,-0.698,-0.32,26.144,-25.681,97.833,-0.987,-0.179,-0.158,0.835,-5.957,-18.174,-0.055,-0.231,0.545,119.421,124.583,74.77
8600.0,-0.618,-0.668,-0.319,26.738,-25.891,102.407,-0.975,-0.193,-0.157,2.652,-5.577,-18.62,-0.134,-0.158,0.523,124.09,134.051,73.684
8620.0,-0.638,-0.629,-0.284,27.29,-26.892,105.754,-0.97,-0.199,-0.162,1.256,-6.107,-18.6,-0.201,-0.024,0.528,118.465,139.508,68.746
8640.0,-0.665,-0.601,-0.259,29.711,-27.344,108.57,-0.958,-0.224,-0.164,1.729,-5.142,-19.088,-0.292,0.032,0.462,104.844,145.03,62.366
8660.0,-0.676,-0.58,-0.253,31.574,-27.607,112.614,-0.961,-0.228,-0.172,0.058,-7.866,-19.757,-0.528,0.029,0.52,83.053,157.904,59.699
8680.0,-0.685,-0.54,-0.266,31.703,-24.572,116.759,-0.961,-0.289,-0.182,0.552,-10.56,-17.865,-0.559,-0.095,0.557,84.977,129.023,52.148
8700.0,-0.706,-0.515,-0.242,27.973,-22.94,119.83,-1.002,-0.279,-0.134,13.726,-8.272,-17.328,-0.488,-0.081,0.509,96.403,131.843,47.174
8720.0,-0.734,-0.494,-0.205,25.527,-23.468,121.73,-0.97,-0.221,-0.18,4.982,-10.747,-16.739,-0.546,-0.001,0.494,118.084,144.83,39.834
8740.0,-0.747,-0.462,-0.204,27.504,-23.498,123.46,-0.97,-0.3,-0.201,8.151,-12.37,-17.848,-0.679,0.087,0.513,122.383,147.796,29.782
8760.0,-0.763,-0.42,-0.206,27.86,-22.89,125.09,-0.985,-0.308,-0.138,14.683,-11.086,-17.67,-0.729,0.114,0.569,113.135,143.647,19.032
8780.0,-0.749,-0.377,-0.203,26.342,-20.907,127.146,-0.966,-0.239,-0.102,14.606,-10.179,-17.439,-0.746,0.108,0.555,102.261,136.684,12.014
8800.0,-0.742,-0.337,-0.196,22.146,-18.851,128.479,-0.965,-0.229,-0.121,8.553,-10.497,-17.719,-0.796,0.116,0.531,100.167,136.095,5.751
8820.0,-0.741,-0.305,-0.208,19.783,-14.789,128.757,-0.976,-0.252,-0.136,9.212,-10.366,-19.886,-0.841,0.163,0.55,97.696,136.094,0.071
8840.0,-0.761,-0.256,-0.226,14.91,-7.63,130.06,-0.964,-0.291,-0.111,6.771,-10.984,-20.229,-0.854,0.204,0.575,96.853,133.424,-4.98
8860.0,-0.795,-0.214,-0.192,9.367,-3.812,132.77,-0.942,-0.304,-0.127,6.32,-10.487,-19.876,-0.864,0.217,0.554,93.723,124.866,-10.745
8880.0,-0.807,-0.179,-0.184,3.568,-1.978,133.03,-0.945,-0.311,-0.1,6.713,-9.369,-19.125,-0.887,0.23,0.547,84.858,116.723,-17.105
8900.0,-0.821,-0.132,-0.212,0.557,0.962,133.85,-0.99,-0.293,-0.112,0.052,-12.633,-19.264,-0.912,0.25,0.58,72.398,110.556,-24.058
8920.0,-0.822,-0.086,-0.205,-5.392,8.629,136.412,-0.967,-0.311,-0.13,-1.678,-16.195,-20.084,-0.906,0.247,0.595,64.578,104.533,-29.562
8940.0,-0.853,-0.064,-0.171,-13.262,5.218,136.303,-0.913,-0.341,-0.137,-0.324,-16.64,-19.59,-0.885,0.182,0.498,71.399,103.556,-31.916
8960.0,-0.9,-0.024,-0.212,-11.816,5.04,133.047,-0.943,-0.348,-0.104,1.006,-16.539,-18.62,-0.907,0.192,0.42,96.889,102.137,-34.56
8980.0,-0.907,0.014,-0.246,-5.243,12.667,131.291,-0.953,-0.361,-0.069,1.399,-13.525,-16.359,-0.983,0.316,0.416,101.793,94.396,-39.473
9000.0,-0.902,0.037,-0.218,-1.191,21.363,132.184,-0.924,-0.376,-0.138,7.621,-13.422,-16.301,-1.02,0.357,0.424,92.623,87.728,-43.625
9020.0,-0.918,0.05,-0.202,1.231,21.731,131.681,-0.924,-0.407,-0.102,13.324,-12.833,-15.162,-1.037,0.354,0.354,78.783,80.814,-45.676
9040.0,-0.91,0.095,-0.209,6.001,23.954,129.147,-0.936,-0.401,-0.076,17.248,-11.177,-11.856,-1.045,0.347,0.258,72.627,77.323,-46.191
9060.0,-0.896,0.147,-0.22,15.502,26.632,125.061,-0.961,-0.353,-0.048,14.07,-12.13,-9.336,-1.068,0.346,0.18,70.222,76.967,-45.566
9080.0,-0.855,0.183,-0.219,24.918,31.853,120.602,-0.956,-0.349,-0.048,6.873,-12.386,-9.185,-1.118,0.37,0.179,62.152,76.601,-45.316
9100.0,-0.843,0.199,-0.207,27.276,32.126,116.032,-0.935,-0.393,-0.072,6.863,-11.779,-8.767,-1.132,0.364,0.191,49.718,72.746,-45.104
9120.0,-0.848,0.257,-0.256,25.132,29.012,110.498,-0.916,-0.416,-0.058,15.157,-7.775,-8.488,-1.125,0.287,0.148,43.03,70.069,-45.194
9140.0,-0.866,0.384,-0.382,16.701,32.875,103.878,-0.944,-0.352,-0.015,14.352,-7.435,-7.669,-1.132,0.239,0.101,40.913,71.68,-44.859
9160.0,-0.902,0.417,-0.325,11.444,38.636,99.733,-0.954,-0.318,-0.039,6.029,-7.453,-9.329,-1.193,0.221,0.12,41.968,71.489,-44.36
9180.0,-0.901,0.406,-0.323,14.406,38.505,94.288,-0.95,-0.344,-0.006,3.571,-5.86,-10.825,-1.205,0.226,0.101,34.792,66.366,-45.34
9200.0,-0.878,0.396,-0.318,18.097,40.423,90.146,-0.935,-0.352,-0.008,-3.679,-6.002,-10.333,-1.162,0.201,0.113,27.344,65.646,-46.566
9220.0,-0.83,0.404,-0.309,20.318,44.096,87.771,-0.916,-0.473,-0.07,0.009,-3.777,-9.812,-1.194,0.212,0.147,22.113,65.483,-49.096
9240.0,-0.803,0.451,-0.313,19.961,43.672,85.239,-0.915,-0.462,-0.043,13.7,1.702,-7.488,-1.177,0.151,0.125,18.565,59.388,-47.96
9260.0,-0.801,0.451,-0.353,14.708,36.685,80.289,-0.94,-0.388,-0.03,10.528,1.945,-5.591,-1.202,0.14,0.093,26.365,58.806,-47.994
9280.0,-0.795,0.508,-0.397,12.429,35.792,76.558,-0.937,-0.36,-0.05,8.94,1.928,-6.781,-1.253,0.162,0.055,39.789,39.458,-49.004
9300.0,-0.759,0.581,-0.396,12.528,38.52,74.971,-0.937,-0.376,-0.053,7.433,0.82,-7.462,-1.25,0.165,0.036,42.91,50.75,-49.98
9320.0,-0.705,0.54,-0.387,14.635,38.977,73.519,-0.943,-0.396,-0.039,4.097,-0.783,-7.519,-1.232,0.175,0.062,39.083,47.079,-50.117
9340.0,-0.685,0.519,-0.407,14.379,38.145,71.706,-0.919,-0.398,-0.031,6.055,1.408,-8.933,-1.15,0.164,0.101,30.73,50.05,-47.81
9360.0,-0.671,0.513,-0.427,12.691,37.497,69.761,-0.927,-0.407,-0.02,7.644,4.252,-9.348,-1.155,0.181,0.061,21.198,55.877,-48.5
9380.0,-0.643,0.536,-0.454,12.456,37.133,62.113,-0.938,-0.411,-0.037,5.01,4.213,-9.706,-1.159,0.17,-0.022,10.381,57.793,-47.576
9400.0,-0.628,0.613,-0.447,12.457,36.709,58.896,-0.925,-0.408,-0.061,-1.371,3.95,-9.786,-1.17,0.14,-0.007,-5.888,54.148,-49.808
9420.0,-0.621,0.632,-0.449,10.978,37.805,58.183,-0.871,-0.439,-0.046,-2.838,6.114,-7.142,-1.168,0.075,-0.013,-23.118,45.104,-49.326
9440.0,-0.608,0.627,-0.473,9.174,32.198,58.742,-0.828,-0.558,-0.04,17.596,12.488,-1.156,-1.153,-0.014,-0.05,-21.887,37.863,-47.197
9460.0,-0.567,0.624,-0.499,7.28,28.497,55.116,-0.928,-0.414,-0.032,22.473,17.396,3.212,-1.114,-0.026,-0.078,-2.628,34.686,-44.655
9480.0,-0.533,0.63,-0.497,7.295,30.046,50.934,-0.969,-0.302,0.011,11.185,17.35,2.357,-1.126,0.053,-0.06,5.426,30.732,-43.503
9500.0,-0.561,0.637,-0.532,8.806,31.515,47.957,-0.937,-0.299,-0.023,-3.276,15.851,-3.927,-1.114,0.039,-0.055,6.978,27.681,-42.321
9520.0,-0.507,0.56,-0.524,3.29,29.47,43.96,-0.924,-0.331,-0.008,-6.701,15.867,-9.815,-1.104,0.02,-0.086,10.656,29.25,-40.479
9540.0,-0.573,0.713,-0.583,-5.88,25.55,42.56,-0.937,-0.307,-0.133,-21.688,10.613,-14.097,-1.15,0.029,-0.096,12.242,31.387,-38.217
9560.0,-0.589,0.754,-0.588,-8.645,24.003,42.229,-0.918,-0.491,-0.124,-17.22,9.38,-16.31,-1.181,0.031,-0.101,10.621,30.929,-34.463
9580.0,-0.58,0.753,-0.61,-8.694,24.113,41.374,-0.935,-0.458,-0.14,-11.9,6.93,-13.72,-1.223,0.092,-0.153,8.489,37.716,-29.892
9600.0,-0.538,0.771,-0.591,-7.583,25.123,38.569,-0.905,-0.547,-0.15,-6.58,5.74,-10.43,-1.272,0.09,-0.156,9.274,42.662,-25.574
9620.0,-0.502,0.764,-0.617,-3.899,24.055,36.253,-0.882,-0.607,-0.164,-0.42,3.57,-5.46,-1.262,0.022,-0.172,18.774,44.001,-21.869
9640.0,-0.504,0.746,-0.6,2.86,20.172,31.086,-0.913,-0.483,-0.142,9.73,3.01,0.07,-1.23,0.072,-0.234,28.63,57.4,-16.66
9660.0,-0.51,0.752,-0.643,10.196,15.558,25.629,-0.896,-0.486,-0.121,5.95,-0.11,3.19,-1.202,0.051,-0.267,14.348,69.565,-10.362
9680.0,-0.514,0.771,-0.667,14.554,14.212,19.65,-0.888,-0.483,-0.109,7.568,-0.716,4.659,-1.231,-0.078,-0.316,16.033,90.526,-13.149
9700.0,-0.539,0.815,-0.64,13.556,10.967,14.107,-0.901,-0.464,-0.062,10.64,0.84,5.95,-1.306,-0.07,-0.272,21.98,81.57,-15.614
9720.0,-0.542,0.823,-0.67,8.547,4.813,9.199,-0.912,-0.433,-0.083,5.32,0.35,5.67,-1.254,-0.044,-0.296,10.176,92.574,-19.992
9740.0,-0.514,0.801,-0.676,3.073,2.611,3.516,-0.91,-0.435,-0.118,2.032,-0.534,3.855,-1.361,-0.092,-0.382,-10.856,72.536,-22.821
9760.0,-0.514,0.785,-0.646,3.115,-0.271,-1.759,-0.917,-0.426,-0.108,2.499,-1.403,2.84,-1.335,-0.138,-0.358,-31.502,40.244,-18.516
9780.0,-0.534,0.784,-0.65,3.473,-7.024,-6.67,-0.911,-0.446,-0.123,0.324,-4.245,2.336,-1.358,-0.122,-0.24,-46.708,13.135,-7.771
9800.0,-0.538,0.792,-0.669,2.939,-11.969,-12.061,-0.897,-0.482,-0.148,3.329,-5.51,4.09,-1.328,-0.174,-0.156,-44.809,-7.986,5.965
9820.0,-0.54,0.807,-0.644,3.697,-14.733,-16.822,-0.936,-0.454,-0.127,6.264,-7.6,5.557,-1.468,-0.26,-0.047,7.858,-11.0,22.002
9840.0,-0.553,0.816,-0.62,2.878,-15.813,-20.052,-0.897,-0.49,-0.096,4.748,-9.492,5.955,-1.44,-0.198,-0.059,76.597,-16.879,30.201
9860.0,-0.563,0.797,-0.608,0.684,-16.829,-23.126,-0.885,-0.455,-0.101,1.085,-10.174,6.741,-1.237,-0.127,-0.188,108.064,9.423,27.572
9880.0,-0.576,0.778,-0.611,0.231,-23.264,-28.62,-0.891,-0.476,-0.095,0.922,-12.48,7.836,-1.255,0.04,-0.219,89.239,22.186,15.246
9900.0,-0.594,0.797,-0.626,0.369,-29.298,-34.5,-0.906,-0.428,-0.086,-0.922,-15.12,10.315,-1.333,0.174,-0.198,19.283,15.672,4.151
9920.0,-0.627,0.777,-0.604,-0.046,-35.941,-39.252,-0.901,-0.462,-0.091,-1.646,-15.164,11.844,-1.311,0.125,-0.215,-45.249,0.698,-2.972
9940.0,-0.646,0.752,-0.579,0.455,-41.356,-44.25,-0.893,-0.466,-0.071,0.282,-12.842,13.441,-1.275,0.038,-0.337,-73.567,-2.903,-8.139
9960.0,-0.654,0.745,-0.542,2.159,-48.665,-49.46,-0.903,-0.442,-0.063,-0.142,-10.394,15.083,-1.34,0.08,-0.36,-91.461,-10.894,-8.698
9980.0,-0.654,0.772,-0.54,1.587,-54.808,-53.421,-0.923,-0.421,-0.062,-4.186,-10.623,16.52,-1.315,0.045,-0.4,-111.938,-35.123,-0.364
10000.0,-0.686,0.764,-0.556,-2.297,-60.05,-57.404,-0.925,-0.425,-0.06,-5.851,-10.901,17.569,-1.24,0.09,-0.49,-142.299,-57.011,8.09
10020.0,-0.697,0.715,-0.526,-6.93,-63.84,-61.67,-0.923,-0.44,-0.057,-5.609,-9.125,18.503,-1.232,0.101,-0.562,-142.105,-77.27,13.073
10040.0,-0.696,0.653,-0.458,-6.77,-68.044,-65.802,-0.93,-0.424,-0.046,-6.526,-8.933,19.864,-1.175,0.044,-0.576,-141.296,-97.428,19.727
10060.0,-0.732,0.617,-0.432,-3.478,-73.196,-69.031,-0.927,-0.412,-0.055,-9.239,-8.997,20.985,-1.078,-0.04,-0.446,-124.915,-86.219,16.027
10080.0,-0.755,0.626,-0.444,-4.056,-78.25,-74.186,-0.932,-0.414,-0.065,-9.016,-8.812,21.909,-1.135,0.05,-0.169,-155.167,-100.87,8.397
10100.0,-0.734,0.652,-0.43,-5.645,-76.173,-79.398,-0.945,-0.406,-0.059,-7.119,-8.551,22.569,-1.476,0.077,-0.055,-147.152,-143.516,13.753
10120.0,-0.691,0.614,-0.354,-7.724,-76.934,-83.438,-0.944,-0.371,-0.052,-6.988,-8.147,23.435,-1.181,0.19,-0.106,-118.459,-157.924,28.291
10140.0,-0.729,0.591,-0.305,-6.613,-80.992,-83.336,-0.939,-0.391,-0.067,-7.315,-7.731,24.035,-0.986,-0.001,0.049,-51.306,-140.531,52.323
10160.0,-0.757,0.585,-0.3,-7.413,-82.064,-81.507,-0.944,-0.417,-0.081,-3.99,-8.26,24.92,-0.902,0.076,0.102,0.585,-106.445,70.738
10180.0,-0.751,0.553,-0.293,-10.496,-82.308,-80.726,-0.95,-0.388,-0.077,-0.768,-8.501,25.093,-1.055,0.284,0.092,6.58,-85.96,76.3
10200.0,-0.743,0.526,-0.272,-12.235,-82.264,-80.363,-0.958,-0.327,-0.047,3.208,-7.17,25.517,-1.039,0.293,0.116,5.67,-86.38,80.85
10220.0,-0.725,0.48,-0.253,-12.411,-81.238,-80.547,-0.975,-0.24,-0.025,-2.857,-8.65,23.374,-1.073,0.382,0.079,-9.477,-93.454,75.056
10240.0,-0.693,0.42,-0.235,-11.963,-78.233,-82.221,-0.951,-0.315,-0.026,-11.573,-8.147,21.568,-1.071,0.353,0.072,-36.816,-112.808,69.687
10260.0,-0.697,0.422,-0.217,-11.478,-72.807,-83.775,-0.962,-0.299,-0.04,-11.475,-7.747,20.229,-1.048,0.224,0.041,-42.544,-122.328,62.033
10280.0,-0.722,0.424,-0.187,-11.369,-69.33,-83.369,-0.943,-0.338,-0.069,-8.212,-6.524,18.498,-0.976,0.169,0.048,-34.486,-120.591,59.029
10300.0,-0.722,0.413,-0.181,-11.185,-65.666,-81.945,-0.95,-0.317,-0.032,-4.061,-3.377,18.131,-0.958,0.158,0.042,-25.071,-117.365,55.348
10320.0,-0.718,0.396,-0.171,-10.369,-60.044,-80.012,-0.982,-0.245,-0.017,-6.971,-1.745,16.046,-0.946,0.138,0.042,-17.17,-110.202,48.924
10340.0,-0.752,0.39,-0.162,-10.277,-53.409,-77.904,-0.99,-0.253,-0.076,-11.525,-2.203,13.83,-0.96,0.202,0.086,-24.663,-104.798,37.439
10360.0,-0.798,0.377,-0.155,-10.925,-47.147,-75.771,-0.96,-0.28,-0.044,-11.138,-1.461,11.275,-0.987,0.216,0.088,-46.359,-105.906,25.906
10380.0,-0.834,0.33,-0.122,-10.549,-40.299,-73.93,-0.961,-0.294,-0.052,-10.209,0.162,9.914,-0.989,0.168,0.064,-57.364,-104.717,15.179
10400.0,-0.857,0.294,-0.103,-10.683,-34.054,-73.798,-0.98,-0.277,-0.093,-10.305,-0.347,9.089,-1.025,0.212,0.097,-64.665,-101.355,6.366
10420.0,-0.874,0.27,-0.102,-11.878,-29.002,-74.528,-0.984,-0.292,-0.088,-9.896,-2.983,7.648,-1.045,0.241,0.185,-72.24,-98.42,-3.43
10440.0,-0.894,0.232,-0.102,-13.307,-23.982,-76.891,-0.981,-0.287,-0.048,-4.559,-1.224,6.517,-1.038,0.215,0.238,-77.91,-94.36,-11.34
10460.0,-0.909,0.216,-0.082,-13.775,-18.982,-78.101,-0.979,-0.259,-0.045,-3.646,1.102,5.172,-1.041,0.156,0.237,-78.849,-92.213,-17.294
10480.0,-0.91,0.197,-0.064,-12.761,-14.706,-77.474,-0.98,-0.258,-0.039,-5.166,2.455,3.839,-1.054,0.139,0.244,-69.588,-96.872,-20.594
10500.0,-0.908,0.137,-0.059,-13.669,-12.427,-79.182,-0.979,-0.252,-0.02,-7.839,4.308,2.94,-1.008,0.174,0.281,-64.458,-97.965,-24.781
10520.0,-0.912,0.121,-0.056,-15.594,-9.981,-81.322,-0.97,-0.233,-0.028,-12.557,6.121,2.057,-0.999,0.194,0.326,-61.111,-97.594,-31.517
10540.0,-0.925,0.099,-0.055,-17.203,-6.022,-82.943,-0.967,-0.304,-0.098,-14.282,6.51,1.515,-0.998,0.2,0.359,-58.251,-98.327,-37.791
10560.0,-0.936,0.04,-0.063,-22.444,-4.313,-85.961,-0.977,-0.33,-0.126,-12.961,5.022,2.173,-0.977,0.188,0.391,-60.411,-99.991,-43.251
10580.0,-0.938,0.034,-0.07,-29.544,-3.023,-89.611,-0.984,-0.322,-0.113,-6.76,2.479,4.094,-0.918,0.173,0.445,-62.099,-100.015,-46.065
10600.0,-0.932,0.023,-0.063,-33.906,2.537,-92.31,-0.971,-0.326,-0.12,-4.133,0.332,6.612,-0.896,0.185,0.502,-64.385,-97.283,-50.554
10620.0,-0.943,-0.038,-0.055,-34.88,6.173,-95.172,-0.976,-0.28,-0.09,-3.32,-0.825,8.473,-0.913,0.177,0.544,-69.655,-94.825,-56.613
10640.0,-0.945,-0.086,-0.054,-34.575,9.297,-97.634,-0.985,-0.257,-0.069,-7.898,-2.022,9.266,-0.914,0.135,0.565,-70.374,-96.752,-63.427
10660.0,-0.928,-0.163,-0.063,-33.896,11.513,-100.317,-0.985,-0.267,-0.081,-10.133,2.492,8.981,-0.863,0.126,0.602,-74.633,-101.324,-69.034
10680.0,-0.884,-0.215,-0.054,-30.289,14.733,-105.513,-0.964,-0.276,-0.059,-10.106,16.971,9.785,-0.835,0.115,0.666,-87.818,-105.882,-73.613
10700.0,-0.848,-0.254,-0.075,-23.434,20.343,-110.247,-0.978,-0.257,-0.053,-11.719,1.013,11.911,-0.833,0.071,0.76,-101.435,-108.482,-78.68
10720.0,-0.856,-0.319,-0.083,-20.238,25.151,-113.789,-0.994,-0.299,-0.111,-17.086,-2.651,13.37,-0.817,0.007,0.795,-102.644,-112.062,-84.679
10740.0,-0.872,-0.33,-0.103,-22.314,28.553,-115.367,-0.995,-0.366,-0.137,-10.968,-3.128,16.122,-0.778,-0.046,0.807,-98.259,-114.864,-88.808
10760.0,-0.897,-0.341,-0.071,-26.441,26.149,-116.743,-0.995,-0.276,-0.084,-2.826,-0.543,19.436,-0.742,-0.119,0.823,-89.7,-114.777,-92.076
10780.0,-0.892,-0.363,-0.099,-23.521,24.02,-119.159,-0.978,-0.224,-0.111,-13.846,-5.525,19.57,-0.74,-0.158,0.882,-85.36,-115.649,-95.773
10800.0,-0.849,-0.388,-0.105,-17.5,25.41,-119.7,-0.984,-0.224,-0.079,-16.07,-5.989,19.393,-0.746,-0.157,0.918,-86.457,-124.877,-99.42
10820.0,-0.824,-0.434,-0.116,-14.7,20.23,-118.02,-0.988,-0.308,-0.039,-11.335,-0.303,19.803,-0.684,-0.233,0.872,-83.876,-134.108,-100.753
10840.0,-0.811,-0.524,-0.152,-15.607,15.335,-120.037,-0.965,-0.241,-0.03,-10.358,2.643,18.164,-0.594,-0.315,0.791,-59.322,-136.922,-100.312
10860.0,-0.808,-0.509,-0.182,-19.656,13.089,-119.415,-0.962,-0.243,-0.134,-8.501,6.108,16.068,-0.553,-0.319,0.778,-40.96,-135.837,-100.457
10880.0,-0.826,-0.491,-0.207,-19.172,15.751,-113.869,-0.946,-0.186,-0.148,-9.026,4.31,9.353,-0.536,-0.314,0.79,-30.689,-133.986,-101.043
10900.0,-0.825,-0.527,-0.248,-16.913,19.573,-105.059,-1.005,-0.102,-0.14,-8.19,2.17,10.22,-0.522,-0.314,0.813,-21.545,-134.735,-100.785
10920.0,-0.782,-0.582,-0.251,-17.615,23.157,-103.789,-0.995,-0.125,-0.117,-3.806,2.657,8.78,-0.463,-0.282,0.8,-15.872,-137.055,-98.91
10940.0,-0.764,-0.601,-0.221,-17.67,26.541,-102.491,-1.023,-0.132,-0.131,-5.554,-0.702,8.505,-0.361,-0.291,0.69,-5.364,-135.899,-98.443
10960.0,-0.766,-0.64,-0.19,-20.376,25.36,-98.846,-1.081,-0.174,-0.121,-1.792,-3.801,7.74,-0.312,-0.268,0.607,-2.719,-136.531,-98.467
10980.0,-0.743,-0.637,-0.192,-22.558,26.203,-97.378,-1.003,-0.291,-0.15,5.595,-4.992,11.507,-0.254,-0.249,0.614,-12.83,-140.685,-96.579
11000.0,-0.724,-0.607,-0.197,-22.381,28.473,-96.783,-0.972,-0.286,-0.171,20.644,-2.351,13.281,-0.18,-0.265,0.653,-13.418,-139.641,-96.142
11020.0,-0.661,-0.618,-0.225,-23.109,28.763,-94.047,-0.977,-0.236,-0.168,21.711,-3.41,13.87,-0.114,-0.252,0.603,2.119,-137.289,-95.583
11040.0,-0.598,-0.628,-0.245,-23.195,30.469,-91.506,-1.005,-0.115,-0.155,18.127,-10.508,15.385,-0.036,-0.25,0.569,16.868,-133.878,-91.22
11060.0,-0.548,-0.672,-0.231,-21.968,33.325,-88.877,-0.992,-0.183,-0.131,18.107,-11.89,18.444,0.025,-0.216,0.547,18.445,-138.86,-88.988
11080.0,-0.511,-0.765,-0.253,-13.564,34.83,-87.227,-0.94,-0.291,-0.106,29.082,-9.893,19.023,0.114,-0.212,0.462,0.68,-155.118,-76.552
11100.0,-0.511,-0.848,-0.303,-11.53,35.0,-86.138,-0.944,-0.192,-0.092,37.352,-5.154,21.043,0.24,-0.292,0.414,4.291,-152.755,-68.025
11120.0,-0.488,-0.85,-0.298,-16.108,34.922,-84.62,-1.04,-0.135,-0.076,35.418,-1.364,15.721,0.347,-0.369,0.36,21.466,-159.238,-52.257
11140.0,-0.481,-0.845,-0.286,-16.084,33.407,-80.652,-1.018,-0.202,-0.059,29.932,1.313,11.721,0.508,-0.419,0.373,52.806,-163.602,-44.774
11160.0,-0.501,-0.826,-0.312,-14.324,30.592,-75.464,-0.98,-0.225,-0.037,33.661,3.21,13.299,0.642,-0.249,0.416,54.695,-129.985,-49.208
11180.0,-0.5,-0.786,-0.335,-17.248,27.863,-69.496,-0.992,-0.173,-0.029,42.645,7.151,13.357,0.555,-0.196,0.358,34.774,-104.14,-39.108
11200.0,-0.465,-0.798,-0.336,-20.048,24.482,-61.727,-0.974,-0.051,-0.043,38.635,11.576,9.107,0.52,-0.311,0.316,28.858,-112.833,-43.462
11220.0,-0.399,-0.777,-0.359,-14.807,23.696,-57.078,-0.992,-0.072,-0.047,22.899,11.959,6.294,0.761,-0.292,0.365,30.144,-126.584,-43.744
11240.0,-0.383,-0.739,-0.363,-12.506,26.816,-51.37,-0.979,-0.04,-0.036,19.98,16.027,4.697,0.832,-0.233,0.371,32.152,-105.576,-43.452
11260.0,-0.373,-0.758,-0.379,-7.792,27.977,-46.34,-1.023,-0.067,-0.041,12.849,16.641,3.462,0.777,-0.192,0.226,31.15,-94.282,-43.212
11280.0,-0.367,-0.882,-0.421,-8.172,24.726,-41.175,-1.01,-0.066,-0.094,13.506,17.959,2.06,0.8,-0.188,0.19,36.131,-96.777,-43.258
11300.0,-0.374,-0.987,-0.427,-13.272,22.986,-37.871,-1.053,-0.064,-0.13,-1.161,10.379,1.663,0.94,-0.053,0.266,37.284,-94.6,-44.4
11320.0,-0.412,-0.92,-0.433,-15.553,17.645,-34.745,-0.986,-0.226,-0.203,-0.21,7.21,0.63,1.004,0.029,0.249,13.309,-66.269,-30.934
11340.0,-0.387,-0.906,-0.417,-15.386,15.802,-30.893,-0.899,-0.257,-0.255,12.95,5.81,0.7,0.882,-0.044,0.235,9.31,-50.4,-22.47
11360.0,-0.322,-0.962,-0.387,-8.52,16.353,-29.359,-0.919,-0.188,-0.232,23.086,9.287,-0.042,0.961,-0.082,0.272,10.01,-70.77,-17.64
11380.0,-0.303,-0.966,-0.405,-4.329,15.857,-23.699,-0.968,-0.029,-0.163,18.9,4.06,-0.91,1.109,-0.077,0.337,-4.18,-60.428,-12.288
11400.0,-0.338,-0.884,-0.437,-2.029,13.198,-21.396,-0.953,-0.118,-0.096,6.359,-2.243,1.893,1.2,-0.109,0.302,0.938,-41.994,-5.156
11420.0,-0.31,-0.875,-0.463,-4.488,11.513,-12.636,-0.969,-0.123,-0.093,13.845,1.781,3.547,1.149,-0.112,0.195,10.925,-29.634,-1.107
11440.0,-0.298,-0.906,-0.486,-2.544,10.979,-4.343,-1.048,-0.044,-0.067,5.994,2.1,1.594,1.164,-0.118,0.131,31.471,-30.509,-3.764
11460.0,-0.331,-0.949,-0.502,-8.55,9.523,1.804,-1.025,-0.068,-0.121,-8.031,-3.226,1.089,1.233,0.009,0.179,32.408,-20.494,-1.367
11480.0,-0.345,-0.924,-0.463,-15.512,4.292,8.025,-0.98,-0.104,-0.167,-9.29,-3.274,-0.279,1.236,0.039,0.158,15.783,-3.095,7.191
11500.0,-0.356,-0.947,-0.453,-16.139,1.612,15.358,-0.972,-0.123,-0.149,-6.523,-3.614,-0.109,1.186,-0.028,0.107,18.232,6.281,15.35
11520.0,-0.334,-0.97,-0.435,-17.006,-5.104,23.17,-0.974,-0.126,-0.129,-6.352,-4.781,-0.205,1.164,-0.035,0.117,24.513,17.838,25.437
11540.0,-0.325,-0.884,-0.508,-12.88,-6.72,29.47,-0.981,-0.112,-0.127,-10.473,-5.337,-1.526,1.212,-0.091,0.07,47.67,32.494,34.032
11560.0,-0.389,-0.878,-0.541,-15.258,-8.368,36.058,-0.993,-0.124,-0.127,-17.87,-6.458,-3.887,1.241,-0.126,-0.017,72.94,45.08,41.86
11580.0,-0.405,-0.903,-0.557,-14.869,-11.416,43.898,-1.024,-0.094,-0.107,-20.611,-6.203,-6.16,1.222,-0.116,-0.064,98.174,72.216,42.623
11600.0,-0.418,-0.934,-0.529,-14.905,-14.53,51.869,-1.03,-0.102,-0.111,-24.036,-6.835,-7.263,0.994,0.016,-0.002,84.448,82.499,44.287
11620.0,-0.422,-0.943,-0.519,-12.47,-15.826,60.726,-1.018,-0.196,-0.03,-20.719,-6.249,-7.829,0.959,0.01,0.081,43.46,94.074,51.106
11640.0,-0.441,-0.927,-0.491,-11.794,-15.875,65.497,-1.014,-0.215,-0.078,-14.724,-4.924,-9.986,0.933,-0.094,0.082,8.804,103.71,59.112
11660.0,-0.472,-0.902,-0.46,-7.044,-18.349,70.641,-1.01,-0.193,-0.145,-12.607,-5.368,-11.699,0.84,-0.182,0.095,5.721,129.489,61.688
11680.0,-0.473,-0.866,-0.454,-4.634,-21.024,76.68,-1.007,-0.163,-0.15,-11.966,-6.892,-13.046,0.624,-0.205,0.142,15.538,146.603,62.206
11700.0,-0.485,-0.84,-0.439,-3.126,-24.732,81.699,-1.007,-0.17,-0.152,-9.483,-7.116,-17.104,0.536,-0.322,0.223,26.33,154.766,61.457
11720.0,-0.505,-0.789,-0.423,-0.944,-27.718,87.294,-0.958,-0.188,-0.16,1.372,-6.725,-19.736,0.467,-0.32,0.303,41.65,172.344,56.042
11740.0,-0.516,-0.745,-0.411,-0.993,-29.437,91.471,-0.925,-0.2,-0.144,2.442,-5.257,-17.255,0.318,-0.308,0.36,38.505,173.356,52.676
11760.0,-0.533,-0.717,-0.407,0.188,-30.68,96.725,-1.006,-0.207,-0.095,-0.302,-1.881,-18.933,0.251,-0.286,0.393,44.888,180.683,51.541
11780.0,-0.548,-0.695,-0.395,3.495,-31.221,103.37,-1.014,-0.231,-0.061,0.616,0.144,-19.822,0.132,-0.276,0.459,62.448,188.13,52.828
11800.0,-0.581,-0.671,-0.379,4.676,-32.02,108.627,-0.998,-0.202,-0.065,-2.974,3.563,-19.949,-0.045,-0.252,0.535,81.653,186.069,53.056
11820.0,-0.599,-0.626,-0.378,5.362,-32.862,113.685,-0.988,-0.224,-0.082,-8.188,2.787,-19.914,-0.111,-0.191,0.593,95.728,182.95,48.726
11840.0,-0.63,-0.594,-0.285,3.386,-34.116,118.187,-0.993,-0.21,-0.133,-5.853,4.421,-21.139,-0.143,-0.141,0.621,99.459,187.771,42.913
11860.0,-0.661,-0.566,-0.311,3.106,-34.346,121.424,-0.966,-0.197,-0.134,-3.57,5.32,-22.96,-0.252,-0.099,0.624,94.45,191.874,39.491
11880.0,-0.688,-0.529,-0.337,4.587,-34.05,124.471,-0.986,-0.234,-0.142,-7.42,4.34,-23.17,-0.327,-0.054,0.649,89.117,173.012,36.892
11900.0,-0.714,-0.494,-0.326,4.542,-32.82,127.915,-0.993,-0.26,-0.163,-4.34,2.45,-23.52,-0.407,0.017,0.682,75.468,169.585,34.006
11920.0,-0.731,-0.473,-0.312,1.312,-32.985,130.404,-0.946,-0.295,-0.204,-0.371,1.535,-23.66,-0.483,0.038,0.687,68.291,153.312,25.836
11940.0,-0.751,-0.449,-0.271,-1.384,-34.294,131.858,-0.974,-0.286,-0.193,2.653,-0.976,-23.087,-0.476,0.008,0.635,73.967,152.871,17.842
11960.0,-0.774,-0.397,-0.267,-1.425,-34.049,133.113,-0.968,-0.29,-0.174,2.766,-3.066,-22.227,-0.539,0.022,0.636,90.507,157.636,10.451
11980.0,-0.773,-0.36,-0.277,-1.015,-32.853,134.864,-0.974,-0.286,-0.179,2.201,-5.129,-22.635,-0.583,0.071,0.644,95.107,159.366,3.969
12000.0,-0.756,-0.318,-0.274,-2.057,-31.175,137.782,-0.969,-0.302,-0.152,1.648,-7.469,-21.951,-0.649,0.125,0.613,91.26,160.793,0.856
12020.0,-0.756,-0.26,-0.293,-3.28,-27.74,138.162,-0.975,-0.316,-0.143,0.765,-8.478,-20.622,-0.677,0.153,0.596,79.577,153.221,-5.514
12040.0,-0.778,-0.227,-0.289,-4.367,-22.675,138.165,-0.959,-0.327,-0.143,-1.601,-10.125,-20.51,-0.712,0.178,0.559,71.009,145.088,-10.496
12060.0,-0.798,-0.199,-0.258,-5.365,-18.985,138.45,-0.941,-0.359,-0.152,0.366,-9.235,-19.772,-0.873,0.197,0.55,67.9,144.41,-16.1
12080.0,-0.808,-0.15,-0.247,-6.107,-18.325,138.031,-0.956,-0.357,-0.131,9.168,-6.83,-18.715,-0.826,0.166,0.577,68.11,140.21,-19.04
12100.0,-0.809,-0.098,-0.286,-5.428,-18.014,137.831,-0.96,-0.353,-0.141,10.353,-7.998,-18.291,-0.779,0.18,0.544,70.761,139.924,-22.88
12120.0,-0.822,-0.051,-0.309,-4.834,-13.323,138.064,-0.939,-0.372,-0.147,12.961,-8.68,-16.901,-0.821,0.192,0.49,73.08,142.66,-29.4
12140.0,-0.863,-0.004,-0.314,-5.883,-7.382,139.157,-0.948,-0.343,-0.12,13.553,-9.666,-14.475,-0.9,0.247,0.492,69.327,140.889,-34.145
12160.0,-0.864,0.042,-0.295,-8.081,-0.539,138.543,-0.971,-0.314,-0.082,10.148,-10.63,-13.196,-0.9,0.258,0.5,56.866,131.442,-36.254
12180.0,-0.876,0.075,-0.299,-6.566,4.771,139.22,-0.956,-0.302,-0.087,6.853,-10.011,-13.954,-0.939,0.22,0.431,56.28,127.54,-37.31
12200.0,-0.883,0.126,-0.307,-4.102,11.033,139.478,-0.924,-0.324,-0.133,4.6,-11.712,-15.609,-1.015,0.257,0.435,58.158,123.196,-39.224
12220.0,-0.895,0.159,-0.245,-1.677,15.404,140.398,-0.938,-0.376,-0.1,3.226,-12.893,-15.998,-1.032,0.272,0.412,55.3,122.57,-42.14
12240.0,-0.866,0.183,-0.246,2.024,13.4,138.172,-0.943,-0.363,-0.065,2.783,-11.384,-16.505,-1.041,0.267,0.338,50.983,123.321,-42.957
12260.0,-0.873,0.254,-0.277,0.289,9.846,138.176,-0.933,-0.355,-0.066,1.558,-8.225,-16.302,-1.067,0.257,0.299,49.466,124.877,-44.048
12280.0,-0.869,0.293,-0.327,-1.764,9.409,136.585,-0.907,-0.341,-0.035,2.539,-4.424,-17.507,-1.177,0.232,0.254,45.898,128.318,-45.663
12300.0,-0.854,0.307,-0.307,0.223,13.39,132.332,-0.92,-0.318,-0.022,0.741,-0.434,-19.12,-1.249,0.225,0.238,44.741,118.923,-47.093
12320.0,-0.834,0.327,-0.309,1.621,18.015,126.95,-0.957,-0.312,-0.053,-11.438,-0.349,-20.208,-1.236,0.218,0.205,44.787,118.987,-49.17
12340.0,-0.833,0.363,-0.297,1.378,18.318,121.001,-0.945,-0.349,-0.095,-16.16,-1.204,-21.997,-1.265,0.213,0.2,46.59,123.29,-49.21
12360.0,-0.848,0.419,-0.306,2.473,16.54,114.905,-0.902,-0.423,-0.099,-14.617,1.368,-23.021,-1.338,0.191,0.178,44.371,121.481,-49.251
12380.0,-0.844,0.473,-0.34,2.908,17.613,107.588,-0.89,-0.438,-0.09,-11.224,3.324,-22.481,-1.381,0.166,0.158,42.19,116.704,-49.773
12400.0,-0.825,0.501,-0.357,3.762,21.895,100.263,-0.928,-0.399,-0.092,-11.386,3.789,-21.137,-1.396,0.162,0.145,40.492,114.098,-51.045
12420.0,-0.795,0.521,-0.34,5.877,24.348,95.039,-0.951,-0.363,-0.096,-16.479,2.34,-20.796,-1.402,0.159,0.106,40.881,112.375,-52.748
12440.0,-0.779,0.521,-0.325,5.964,23.551,89.552,-0.934,-0.412,-0.109,-17.392,0.937,-21.389,-1.409,0.16,0.099,39.114,111.594,-55.802
12460.0,-0.771,0.518,-0.345,3.995,20.242,82.311,-0.881,-0.465,-0.144,-13.099,1.651,-22.585,-1.411,0.162,0.128,33.678,111.903,-60.684
12480.0,-0.738,0.589,-0.384,0.993,19.688,77.739,-0.873,-0.494,-0.157,-11.137,0.576,-20.966,-1.416,0.153,0.141,30.565,112.35,-65.736
12500.0,-0.718,0.613,-0.4,0.556,20.826,74.137,-0.881,-0.52,-0.132,-8.344,0.166,-16.815,-1.41,0.109,0.109,32.838,111.631,-68.909
12520.0,-0.697,0.586,-0.406,4.164,21.555,69.215,-0.88,-0.495,-0.118,-2.366,3.715,-13.597,-1.379,0.098,0.064,40.342,110.176,-70.611
12540.0,-0.642,0.549,-0.417,9.932,23.189,65.626,-0.884,-0.469,-0.105,-2.228,5.148,-12.238,-1.42,0.116,0.088,37.39,111.84,-73.376
12560.0,-0.586,0.582,-0.395,16.413,26.221,60.868,-0.855,-0.449,-0.135,-7.153,4.963,-10.963,-1.461,0.14,0.107,21.773,106.032,-74.48
12580.0,-0.584,0.565,-0.412,17.22,26.288,54.787,-0.855,-0.532,-0.22,-8.198,1.612,-8.979,-1.365,0.115,0.048,13.007,87.994,-72.524
12600.0,-0.586,0.57,-0.456,17.255,24.934,48.418,-0.891,-0.551,-0.145,2.986,2.363,-6.557,-1.304,0.075,-0.038,15.123,90.692,-73.761
12620.0,-0.587,0.654,-0.475,18.031,27.541,42.687,-0.885,-0.503,-0.127,4.313,4.283,-4.318,-1.344,0.152,-0.061,13.229,96.466,-81.643
12640.0,-0.556,0.73,-0.458,18.885,28.691,38.594,-0.871,-0.494,-0.157,0.868,3.789,-2.459,-1.564,0.391,0.08,-44.032,80.778,-89.216
12660.0,-0.559,0.802,-0.463,16.518,28.567,39.478,-0.882,-0.512,-0.143,5.44,3.857,-0.716,-1.247,0.093,0.077,-91.59,57.214,-77.372
12680.0,-0.574,0.756,-0.483,13.856,28.525,40.675,-0.897,-0.455,-0.114,7.521,3.846,1.046,-1.152,-0.049,-0.057,-60.745,86.062,-68.777
12700.0,-0.563,0.771,-0.495,11.32,26.606,38.75,-0.9,-0.44,-0.16,5.795,2.053,1.538,-1.279,-0.004,-0.161,-37.519,93.143,-53.242
12720.0,-0.568,0.804,-0.507,8.134,23.836,33.158,-0.887,-0.506,-0.199,9.293,0.83,1.567,-1.385,-0.01,-0.156,-30.712,87.014,-41.863
12740.0,-0.533,0.845,-0.516,5.67,20.803,30.31,-0.91,-0.434,-0.13,-1.06,-3.22,3.875,-1.298,-0.028,-0.09,-26.619,69.202,-33.329
12760.0,-0.503,0.798,-0.532,5.678,22.6,29.308,-0.902,-0.427,-0.122,11.804,-1.715,3.035,-1.206,-0.115,-0.168,-14.535,63.288,-22.57
12780.0,-0.517,0.775,-0.516,7.485,19.914,24.557,-0.859,-0.459,-0.15,3.639,-0.217,4.367,-1.083,-0.175,-0.318,-0.019,82.597,-15.579
12800.0,-0.524,0.808,-0.538,8.745,15.03,18.58,-0.872,-0.493,-0.145,8.209,-0.267,4.835,-1.288,0.264,-0.514,-13.954,94.01,17.376
12820.0,-0.529,0.806,-0.576,7.49,9.73,12.25,-1.998,1.306,0.981,-101.729,-68.661,6.183,-2.728,1.199,0.004,-265.78,-242.603,24.201
12840.0,-0.554,0.778,-0.568,8.512,5.221,5.727,-1.486,0.517,0.757,-316.534,58.953,21.654,-0.581,-0.92,0.193,23.076,32.744,6.36
12860.0,-0.557,0.815,-0.571,13.456,2.096,-0.974,-0.453,-0.399,-0.029,-83.259,23.46,10.838,-1.472,-0.041,0.044,91.98,51.17,9.66
12880.0,-0.575,0.869,-0.588,16.655,-0.473,-6.416,-0.765,-0.281,-0.096,6.044,8.552,1.376,-1.414,0.23,-0.229,-16.111,-43.346,1.328
12900.0,-0.597,0.855,-0.587,15.7,-5.371,-11.309,-0.959,-0.743,-0.182,11.034,0.201,-17.474,-1.239,0.056,-0.276,-29.54,12.46,-0.56
12920.0,-0.616,0.843,-0.6,14.36,-10.217,-15.982,-0.791,-0.624,-0.178,38.091,24.936,-17.018,-1.488,-0.092,-0.414,-52.877,-22.907,4.045
12940.0,-0.647,0.863,-0.601,16.537,-13.962,-19.854,-0.845,-0.281,-0.015,39.213,14.109,4.147,-1.299,-0.175,-0.402,-44.442,-25.104,19.616
12960.0,-0.68,0.864,-0.591,19.837,-18.538,-25.392,-0.924,-0.56,-0.222,32.172,5.297,16.575,-1.448,0.032,-0.323,-55.382,-43.398,28.708
12980.0,-0.681,0.837,-0.59,21.495,-24.34,-31.951,-1.006,-0.485,-0.184,15.445,-13.192,14.438,-1.423,-0.043,-0.302,-57.935,-59.44,39.532
13000.0,-0.664,0.814,-0.586,22.232,-29.964,-37.357,-0.928,-0.398,-0.083,8.624,-12.236,12.891,-1.478,-0.023,-0.249,-49.762,-74.75,50.534
13020.0,-0.653,0.792,-0.562,22.219,-35.629,-41.63,-0.91,-0.424,-0.104,6.048,-12.255,12.751,-1.419,-0.027,-0.108,-23.01,-90.026,53.711
13040.0,-0.653,0.757,-0.54,21.593,-42.039,-45.782,-0.91,-0.47,-0.103,2.748,-13.41,13.87,-1.414,0.023,0.028,-10.824,-86.702,56.731
13060.0,-0.652,0.738,-0.529,21.756,-47.66,-51.16,-0.9,-0.483,-0.114,0.506,-13.462,17.469,-1.276,-0.025,0.05,5.541,-79.266,59.975
13080.0,-0.689,0.717,-0.507,20.886,-53.066,-55.579,-0.895,-0.492,-0.113,2.649,-13.099,21.878,-1.202,-0.02,0.03,17.55,-62.241,61.964
13100.0,-0.71,0.707,-0.508,19.747,-58.999,-59.561,-0.919,-0.463,-0.112,8.117,-13.99,25.111,-1.241,0.024,0.014,42.112,-51.836,64.735
13120.0,-0.714,0.691,-0.505,15.398,-64.118,-63.806,-0.927,-0.424,-0.096,8.652,-14.153,25.849,-1.262,0.093,-0.088,49.895,-54.344,66.817
13140.0,-0.711,0.648,-0.474,11.335,-69.159,-68.753,-0.934,-0.382,-0.078,5.789,-14.259,25.417,-1.306,0.134,-0.174,49.509,-64.96,63.451
13160.0,-0.7,0.636,-0.432,10.04,-70.734,-72.984,-0.93,-0.377,-0.063,3.364,-13.973,23.231,-1.253,0.204,-0.264,36.744,-87.783,55.29
13180.0,-0.737,0.634,-0.356,5.352,-73.626,-74.531,-0.925,-0.374,-0.051,2.541,-12.835,21.691,-1.222,0.316,-0.229,7.819,-112.579,50.362
13200.0,-0.76,0.601,-0.36,-1.334,-81.355,-74.55,-0.94,-0.348,-0.034,0.227,-11.914,20.879,-1.194,0.327,-0.182,-37.161,-109.815,52.254
13220.0,-0.75,0.544,-0.34,-5.0,-84.386,-75.689,-0.937,-0.35,-0.036,-4.011,-10.349,20.265,-1.169,0.24,-0.117,-43.696,-107.363,59.116
13240.0,-0.739,0.545,-0.344,-6.496,-82.62,-77.186,-0.932,-0.345,-0.057,-3.645,-7.192,19.684,-1.09,0.215,-0.055,-35.224,-104.189,66.469
13260.0,-0.732,0.528,-0.312,-7.398,-79.363,-78.792,-0.949,-0.321,-0.058,-2.719,-5.752,17.392,-1.024,0.204,-0.023,-27.407,-100.663,72.874
13280.0,-0.753,0.503,-0.313,-8.082,-79.234,-79.41,-0.974,-0.331,-0.071,-11.244,-8.047,16.199,-0.985,0.21,0.007,-23.024,-94.156,79.172
13300.0,-0.77,0.478,-0.3,-9.586,-76.676,-78.973,-0.957,-0.372,-0.078,-10.696,-8.032,17.109,-0.989,0.256,0.034,-26.364,-93.368,79.31
13320.0,-0.777,0.437,-0.237,-10.502,-76.302,-78.001,-0.95,-0.372,-0.063,-6.422,-7.033,18.452,-1.031,0.313,0.038,-37.337,-98.595,74.897
13340.0,-0.782,0.436,-0.205,-10.35,-77.041,-77.063,-0.955,-0.316,-0.06,-9.765,-7.14,18.839,-1.041,0.31,0.017,-40.781,-107.57,66.676
13360.0,-0.79,0.447,-0.211,-11.922,-76.244,-75.36,-0.964,-0.31,-0.071,-10.612,-6.959,18.135,-0.99,0.243,0.001,-33.961,-111.253,61.34
13380.0,-0.791,0.454,-0.222,-16.408,-74.672,-73.822,-0.964,-0.352,-0.098,-4.987,-6.476,17.215,-0.864,0.219,0.025,-10.584,-110.139,58.723
13400.0,-0.796,0.44,-0.222,-22.839,-73.276,-72.637,-0.952,-0.359,-0.056,-0.236,-6.403,17.128,-0.779,0.29,0.061,-0.383,-102.817,54.195
13420.0,-0.796,0.379,-0.197,-26.074,-69.786,-71.585,-0.969,-0.29,-0.011,-0.576,-4.701,17.474,-0.87,0.326,0.052,-8.342,-98.489,49.023
13440.0,-0.811,0.345,-0.134,-25.353,-65.205,-69.621,-0.976,-0.274,-0.024,-6.56,-4.055,16.759,-0.873,0.324,0.045,-23.273,-96.127,45.488
13460.0,-0.829,0.326,-0.14,-24.007,-60.568,-66.806,-0.948,-0.276,-0.042,-6.702,-1.195,13.787,-0.875,0.349,0.075,-35.155,-92.315,42.972
13480.0,-0.839,0.282,-0.12,-22.567,-55.0,-65.774,-0.974,-0.248,-0.024,-6.435,1.56,11.2,-0.866,0.36,0.117,-39.179,-85.331,39.76
13500.0,-0.862,0.239,-0.116,-21.167,-48.328,-65.011,-0.976,-0.261,-0.02,-10.347,3.463,8.372,-0.861,0.368,0.158,-41.705,-76.774,36.383
13520.0,-0.871,0.202,-0.099,-17.517,-43.525,-66.277,-0.973,-0.23,-0.016,-10.597,7.04,5.896,-0.863,0.379,0.17,-44.615,-69.468,33.603
13540.0,-0.851,0.176,-0.102,-12.81,-37.811,-65.552,-0.95,-0.263,-0.036,-13.048,11.338,3.409,-0.882,0.391,0.177,-49.054,-66.154,30.56
13560.0,-0.862,0.163,-0.107,-9.485,-30.102,-65.549,-0.951,-0.282,-0.07,-13.043,14.09,2.5,-0.878,0.383,0.184,-55.367,-65.877,25.977
13580.0,-0.888,0.166,-0.094,-9.567,-24.528,-65.865,-0.987,-0.286,-0.117,-10.705,12.935,2.439,-0.89,0.37,0.202,-60.953,-64.985,22.659
13600.0,-0.901,0.172,-0.091,-12.748,-17.874,-66.593,-0.976,-0.297,-0.144,-7.903,10.113,2.314,-0.891,0.38,0.232,-71.522,-64.255,18.587
13620.0,-0.918,0.166,-0.059,-19.85,-10.232,-68.666,-0.994,-0.321,-0.172,-10.997,4.409,2.676,-0.867,0.365,0.286,-83.305,-64.912,12.855
13640.0,-0.939,0.133,-0.012,-24.487,-7.784,-73.724,-0.988,-0.313,-0.162,-6.952,0.259,3.725,-0.846,0.353,0.326,-95.081,-63.234,5.816
13660.0,-0.965,0.082,-0.007,-25.048,-7.032,-77.061,-0.97,-0.33,-0.154,-4.512,-2.481,5.046,-0.843,0.359,0.39,-108.49,-65.707,-2.486
13680.0,-0.977,0.022,-0.014,-24.013,-5.77,-78.744,-0.97,-0.299,-0.133,-1.671,-4.956,6.403,-0.8,0.368,0.517,-121.249,-62.383,-10.224
13700.0,-0.966,-0.048,-0.02,-20.154,-2.379,-80.625,-0.958,-0.295,-0.109,-0.243,-6.016,7.255,-0.793,0.335,0.576,-136.433,-58.219,-15.918
13720.0,-0.952,-0.074,-0.012,-16.053,2.769,-83.038,-0.962,-0.285,-0.085,0.158,-5.781,7.613,-0.782,0.23,0.583,-145.994,-63.987,-17.948
13740.0,-0.965,-0.067,0.002,-14.54,6.487,-84.647,-0.971,-0.291,-0.121,0.684,-5.971,7.88,-0.775,0.19,0.601,-146.58,-68.53,-17.01
13760.0,-0.957,-0.064,-0.009,-14.84,10.009,-84.791,-0.969,-0.301,-0.118,1.68,-7.464,8.443,-0.756,0.169,0.619,-144.291,-72.94,-15.189
13780.0,-0.948,-0.058,-0.021,-14.948,14.22,-83.73,-0.969,-0.284,-0.097,3.719,-7.726,9.289,-0.721,0.098,0.665,-136.349,-73.08,-16.691
13800.0,-0.882,-0.091,-0.023,-16.86,17.621,-83.783,-0.974,-0.275,-0.084,2.835,-8.505,9.911,-0.705,0.008,0.662,-125.336,-75.401,-19.816
13820.0,-0.855,-0.142,-0.03,-19.682,19.662,-85.254,-0.984,-0.258,-0.073,1.382,-8.204,10.162,-0.667,-0.045,0.671,-112.632,-73.403,-24.032
13840.0,-0.853,-0.184,-0.062,-20.072,25.44,-87.57,-0.985,-0.247,-0.048,-1.061,-6.65,10.367,-0.677,-0.044,0.716,-106.182,-71.5,-31.446
13860.0,-0.875,-0.228,-0.076,-19.497,30.283,-88.538,-0.966,-0.271,-0.034,-3.477,-4.518,10.271,-0.678,-0.055,0.777,-108.103,-71.079,-41.351
13880.0,-0.862,-0.265,-0.094,-22.069,33.585,-88.928,-0.965,-0.28,-0.052,-4.164,-0.457,9.931,-0.662,-0.111,0.819,-116.63,-72.257,-52.551
13900.0,-0.855,-0.332,-0.081,-24.253,36.802,-92.314,-1.004,-0.233,-0.082,-6.35,0.423,9.136,-0.631,-0.146,0.856,-124.836,-72.936,-66.694
13920.0,-0.89,-0.362,-0.066,-22.02,36.982,-95.324,-1.006,-0.21,-0.082,-9.436,-0.586,6.881,-0.588,-0.167,0.901,-132.456,-73.285,-82.001
13940.0,-0.886,-0.387,-0.089,-19.723,33.741,-98.416,-0.981,-0.254,-0.116,-8.998,-0.606,6.06,-0.562,-0.238,0.908,-139.678,-74.709,-94.101
13960.0,-0.894,-0.389,-0.12,-19.12,29.015,-99.187,-0.989,-0.273,-0.149,-0.299,-2.054,7.741,-0.538,-0.344,0.892,-140.247,-74.267,-103.208
13980.0,-0.873,-0.387,-0.163,-16.862,28.722,-98.106,-1.005,-0.227,-0.144,5.582,-2.855,8.723,-0.503,-0.386,0.898,-130.261,-72.714,-111.751
14000.0,-0.867,-0.424,-0.171,-16.247,29.25,-94.424,-1.032,-0.275,-0.189,3.258,-10.671,9.259,-0.493,-0.382,0.932,-124.723,-72.963,-124.05
14020.0,-0.84,-0.607,-0.152,-22.376,27.083,-95.313,-0.964,-0.323,-0.184,10.233,-14.174,9.664,-0.481,-0.428,0.933,-122.621,-73.294,-132.102
14040.0,-0.838,-0.519,-0.128,-25.843,27.655,-94.018,-0.958,-0.288,-0.118,14.731,-15.742,11.527,-0.443,-0.536,0.898,-112.146,-76.351,-138.203
14060.0,-0.794,-0.579,-0.125,-23.493,28.822,-94.216,-0.951,-0.282,-0.065,12.937,-17.041,12.142,-0.37,-0.609,0.839,-73.162,-78.241,-145.936
14080.0,-0.781,-0.602,-0.127,-17.824,28.245,-88.028,-0.97,-0.254,-0.038,5.866,-16.175,9.743,-0.361,-0.507,0.858,-62.961,-66.616,-146.185
14100.0,-0.759,-0.719,-0.172,-14.745,25.819,-89.311,-1.028,-0.135,-0.025,1.68,-18.34,9.73,-0.485,-0.55,0.935,-56.363,-64.68,-140.203
14120.0,-0.688,-0.748,-0.236,-7.55,28.496,-89.87,-0.998,-0.133,-0.019,4.816,-17.333,6.301,-0.421,-0.676,0.932,-28.605,-70.736,-138.126
14140.0,-0.649,-0.703,-0.169,-3.598,31.228,-87.312,-0.943,-0.163,-0.031,9.928,-11.893,5.461,-0.381,-0.544,0.952,-8.098,-64.854,-137.371
14160.0,-0.652,-0.698,-0.167,-4.682,26.636,-85.967,-0.972,-0.228,-0.057,10.765,-8.839,4.117,-0.405,-0.457,0.881,-13.424,-88.437,-143.878
14180.0,-0.684,-0.667,-0.194,-7.386,20.595,-82.008,-0.947,-0.286,-0.017,5.964,-10.853,10.976,-0.282,-0.425,0.813,-28.28,-103.11,-147.98
14200.0,-0.687,-0.664,-0.214,-10.43,17.438,-80.633,-0.938,-0.285,-0.067,15.329,-7.58,14.715,-0.224,-0.474,0.753,-19.467,-100.858,-142.091
14220.0,-0.678,-0.662,-0.224,-11.982,19.157,-80.347,-0.991,-0.249,-0.075,17.762,-8.499,15.181,-0.201,-0.405,0.702,-3.578,-107.722,-136.436
14240.0,-0.632,-0.672,-0.24,-10.987,18.983,-78.476,-0.992,-0.244,-0.074,15.111,-8.412,14.745,-0.137,-0.375,0.63,3.36,-107.38,-129.85
14260.0,-0.56,-0.726,-0.307,-10.861,20.929,-76.709,-0.958,-0.284,-0.005,23.921,-4.277,14.756,-0.102,-0.294,0.583,7.07,-111.02,-125.65
14280.0,-0.54,-0.774,-0.314,-14.497,25.269,-76.69,-0.999,-0.214,0.026,26.573,-3.853,18.209,-0.017,-0.191,0.533,-7.254,-131.148,-122.993
14300.0,-0.546,-0.763,-0.258,-19.521,26.724,-76.116,-1.017,-0.21,-0.003,18.163,-3.85,18.548,0.173,-0.288,0.487,-7.594,-129.38,-114.984
14320.0,-0.578,-0.738,-0.228,-18.372,24.889,-77.042,-1.01,-0.262,-0.029,22.172,-0.563,16.273,0.361,-0.369,0.352,15.854,-133.95,-108.866
14340.0,-0.564,-0.741,-0.226,-13.109,24.301,-76.44,-0.983,-0.181,-0.002,18.781,2.137,14.341,0.353,-0.278,0.261,47.869,-132.314,-100.437
14360.0,-0.523,-0.763,-0.241,-11.816,22.936,-71.009,-0.985,-0.112,0.042,7.265,3.303,13.003,0.412,-0.173,0.286,67.829,-143.113,-88.204
14380.0,-0.502,-0.785,-0.264,-14.476,19.347,-69.097,-0.988,-0.09,0.046,-2.487,3.049,12.26,0.534,-0.103,0.254,83.192,-137.749,-74.473
14400.0,-0.479,-0.804,-0.274,-22.346,16.483,-69.004,-0.993,-0.144,-0.002,-2.509,6.965,12.033,0.578,-0.122,0.198,106.456,-151.784,-70.009
14420.0,-0.451,-0.801,-0.283,-28.316,10.41,-63.641,-0.993,-0.182,-0.04,1.136,8.619,9.956,0.723,-0.043,0.064,109.948,-181.331,-70.203
14440.0,-0.405,-0.756,-0.355,-29.9,3.272,-59.958,-0.996,-0.122,-0.027,-1.409,7.639,6.644,0.984,0.183,-0.061,67.305,-163.993,-55.437
14460.0,-0.348,-0.891,-0.444,-21.723,8.016,-56.585,-1.017,0.014,-0.026,-12.109,4.005,3.292,1.01,0.155,-0.036,2.909,-97.609,-24.552
14480.0,-0.375,-1.018,-0.399,-11.69,16.939,-51.705,-1.024,0.045,-0.034,-32.198,-2.382,-1.323,0.983,-0.11,0.085,-10.021,-70.979,-12.791
14500.0,-0.391,-0.993,-0.389,-11.796,16.743,-46.731,-0.997,-0.046,-0.012,-43.716,-4.165,-3.21,1.043,-0.188,0.129,38.27,-66.895,-11.356
14520.0,-0.381,-0.957,-0.391,-15.449,12.741,-44.248,-0.925,-0.369,0.009,-24.552,8.014,1.786,1.106,-0.075,0.133,76.632,-32.079,-8.01
14540.0,-0.377,-0.937,-0.394,-13.687,12.917,-39.296,-0.926,-0.407,-0.019,12.15,21.775,7.355,1.079,-0.004,0.153,82.914,-15.732,1.019
14560.0,-0.339,-0.894,-0.427,-9.448,17.85,-32.192,-1.046,-0.078,-0.04,5.847,18.401,9.057,1.068,0.049,0.168,38.592,-19.788,6.133
14580.0,-0.356,-0.918,-0.428,-6.759,19.856,-24.337,-1.037,-0.079,-0.069,-13.596,9.111,6.775,1.161,0.026,0.178,-15.487,-23.475,16.483
14600.0,-0.369,-0.971,-0.407,-6.759,17.795,-17.276,-1.0,-0.198,-0.134,-10.459,9.037,6.103,1.166,-0.091,0.178,-45.356,-10.979,22.473
14620.0,-0.368,-0.952,-0.446,-9.406,13.794,-11.191,-1.003,-0.239,-0.156,1.713,9.53,7.091,1.137,-0.236,0.165,-46.295,-12.759,28.857
14640.0,-0.374,-0.934,-0.474,-10.43,13.162,-5.301,-1.002,-0.194,-0.104,8.956,9.848,6.401,1.197,-0.387,0.116,-31.27,-1.376,30.483
14660.0,-0.383,-0.934,-0.441,-13.364,14.206,3.499,-1.02,-0.098,-0.079,3.308,8.829,4.186,1.16,-0.411,0.115,-4.507,21.242,26.249
14680.0,-0.325,-0.938,-0.446,-13.474,13.957,8.689,-0.998,-0.057,-0.089,-8.61,4.48,3.5,1.071,-0.304,0.236,3.262,28.988,22.751
14700.0,-0.342,-0.948,-0.485,-12.423,13.107,15.101,-0.982,-0.141,-0.112,-9.937,1.064,3.232,1.057,-0.255,0.277,-2.172,31.692,24.883
14720.0,-0.354,-0.935,-0.523,-13.865,11.563,24.574,-1.0,-0.126,-0.088,0.901,3.76,3.011,1.064,-0.379,0.214,-5.379,43.326,31.461
14740.0,-0.385,-0.944,-0.508,-14.186,9.073,31.388,-0.998,-0.148,-0.11,-5.2,0.989,3.342,1.047,-0.448,0.19,8.066,51.316,34.165
14760.0,-0.424,-0.947,-0.481,-13.735,3.931,38.333,-1.007,-0.207,-0.12,-0.982,1.612,3.36,1.057,-0.399,0.231,17.116,61.08,36.955
14780.0,-0.434,-0.9,-0.493,-12.821,-2.911,45.153,-1.004,-0.151,-0.097,5.239,4.595,1.414,0.989,-0.37,0.256,16.45,72.24,39.97
14800.0,-0.444,-0.881,-0.548,-12.288,-8.038,51.637,-1.012,-0.058,-0.128,-3.297,0.701,-0.334,0.92,-0.368,0.273,19.788,77.74,42.777
14820.0,-0.442,-0.895,-0.556,-13.283,-8.22,58.558,-1.01,-0.105,-0.138,-3.552,-1.699,-3.806,0.854,-0.447,0.282,18.415,82.175,49.693
14840.0,-0.446,-0.911,-0.5,-14.058,-7.832,64.41,-1.009,-0.108,-0.099,-3.786,-3.796,-6.862,0.841,-0.463,0.341,33.62,89.735,50.488
14860.0,-0.507,-0.918,-0.462,-12.059,-12.448,70.794,-1.035,-0.115,-0.118,-3.323,-6.227,-9.091,0.743,-0.416,0.38,47.846,102.736,53.256
14880.0,-0.529,-0.888,-0.467,-10.244,-17.708,77.684,-1.008,-0.172,-0.15,-0.435,-7.878,-10.856,0.652,-0.382,0.374,66.46,117.368,54.008
14900.0,-0.533,-0.843,-0.45,-4.861,-23.208,82.17,-0.996,-0.185,-0.126,4.814,-7.258,-12.263,0.592,-0.259,0.443,71.699,121.794,54.093
14920.0,-0.545,-0.8,-0.446,-0.27,-27.535,86.836,-1.021,-0.137,-0.085,11.45,-8.657,-14.525,0.462,-0.241,0.47,64.019,148.352,61.381
14940.0,-0.567,-0.776,-0.43,2.488,-29.725,91.987,-0.982,-0.159,-0.106,11.114,-6.513,-17.44,0.257,-0.322,0.463,66.071,142.082,69.325
14960.0,-0.557,-0.73,-0.397,4.923,-30.168,95.678,-0.961,-0.204,-0.104,8.518,-3.256,-18.233,0.233,-0.281,0.485,73.039,131.221,69.646
14980.0,-0.577,-0.69,-0.385,7.522,-33.828,100.337,-0.971,-0.194,-0.051,12.775,-0.043,-18.13,0.233,-0.196,0.485,71.142,133.726,69.615
15000.0,-0.607,-0.654,-0.383,9.436,-35.422,104.813,-0.998,-0.137,-0.023,16.373,4.368,-19.055,0.129,-0.19,0.484,61.852,160.408,73.046
15020.0,-0.628,-0.636,-0.365,9.023,-38.598,107.369,-1.011,-0.117,-0.027,8.285,5.985,-24.013,-0.057,-0.205,0.538,58.267,159.134,72.832
15040.0,-0.636,-0.624,-0.349,6.66,-39.718,110.943,-1.0,-0.146,-0.058,-0.776,5.952,-26.797,-0.101,-0.196,0.611,61.187,142.556,68.395
15060.0,-0.661,-0.568,-0.319,3.755,-41.447,112.888,-0.971,-0.218,-0.09,-2.001,5.755,-26.945,-0.141,-0.169,0.597,63.271,160.583,69.403
15080.0,-0.704,-0.52,-0.296,2.24,-45.186,113.87,-0.988,-0.221,-0.079,1.182,6.306,-26.338,-0.273,-0.179,0.57,69.755,166.689,70.967
15100.0,-0.723,-0.489,-0.296,2.204,-48.513,114.973,-0.995,-0.211,-0.073,-3.568,6.48,-26.069,-0.38,-0.164,0.602,78.804,152.653,68.023
15120.0,-0.734,-0.466,-0.299,1.47,-50.68,117.39,-0.973,-0.289,-0.105,-6.903,6.74,-25.705,-0.385,-0.113,0.66,79.808,141.677,61.45
15140.0,-0.739,-0.426,-0.291,0.56,-51.24,120.82,-0.966,-0.303,-0.141,0.056,6.786,-24.666,-0.398,-0.078,0.666,79.182,147.074,56.599
15160.0,-0.728,-0.391,-0.288,2.66,-49.28,121.94,-0.991,-0.25,-0.108,1.61,5.39,-23.87,-0.491,-0.071,0.657,82.716,148.301,51.329
15180.0,-0.748,-0.377,-0.287,4.789,-45.553,123.663,-0.992,-0.224,-0.154,-9.31,-0.21,-23.24,-0.523,-0.083,0.63,86.664,143.785,46.253
15200.0,-0.77,-0.361,-0.291,2.243,-42.766,127.07,-0.965,-0.362,-0.175,-4.951,-1.884,-23.724,-0.512,-0.047,0.625,89.121,144.856,41.575
15220.0,-0.769,-0.348,-0.274,1.109,-39.534,127.169,-0.946,-0.357,-0.107,3.953,-0.489,-22.122,-0.598,0.001,0.633,84.406,149.608,37.207
15240.0,-0.771,-0.314,-0.25,0.999,-32.733,125.837,-0.946,-0.301,-0.108,8.009,0.795,-20.061,-0.709,-0.005,0.646,72.1,138.6,25.83
15260.0,-0.783,-0.278,-0.225,0.38,-27.315,125.678,-0.975,-0.309,-0.11,2.45,-1.54,-19.39,-0.65,-0.014,0.632,72.639,135.435,16.925
15280.0,-0.812,-0.232,-0.224,-2.42,-25.651,125.037,-0.968,-0.315,-0.138,1.972,-2.26,-19.39,-0.659,-0.004,0.566,78.89,142.94,8.26
15300.0,-0.824,-0.181,-0.245,-3.244,-23.264,125.159,-0.976,-0.271,-0.121,-2.598,-7.223,-19.332,-0.741,0.005,0.513,81.832,142.162,0.966
15320.0,-0.818,-0.138,-0.248,-4.62,-18.34,124.6,-0.965,-0.356,-0.138,-4.683,-7.286,-18.997,-0.737,0.027,0.525,85.124,142.37,-5.748
15340.0,-0.809,-0.099,-0.254,-7.106,-14.945,125.024,-0.941,-0.376,-0.125,4.134,-6.879,-17.928,-0.769,0.115,0.519,58.352,142.38,-13.157
15360.0,-0.814,-0.043,-0.301,-7.486,-10.92,123.928,-0.939,-0.374,-0.121,4.665,-6.94,-17.204,-0.802,0.137,0.489,61.372,141.753,-19.691
15380.0,-0.816,0.016,-0.326,-5.93,-1.52,124.667,-0.931,-0.377,-0.13,8.67,-7.612,-15.497,-0.85,0.132,0.386,55.136,142.092,-24.616
15400.0,-0.83,0.042,-0.289,-5.861,4.347,126.72,-0.936,-0.309,-0.136,6.584,-8.972,-16.412,-0.972,0.149,0.391,45.891,145.989,-26.553
15420.0,-0.844,0.076,-0.24,-2.931,9.053,128.866,-0.941,-0.317,-0.104,5.256,-8.507,-18.33,-1.016,0.172,0.418,36.131,134.895,-27.258
15440.0,-0.839,0.11,-0.239,6.575,13.068,130.473,-0.938,-0.37,-0.107,7.574,-6.439,-17.737,-1.015,0.156,0.416,29.247,133.582,-25.865
15460.0,-0.835,0.154,-0.258,12.314,17.349,130.138,-0.894,-0.403,-0.134,12.633,-5.74,-19.103,-1.051,0.154,0.382,28.756,134.845,-24.617
15480.0,-0.839,0.19,-0.284,12.285,20.111,129.441,-0.931,-0.433,-0.073,17.466,-6.449,-18.062,-1.107,0.146,0.348,27.541,133.746,-22.855
15500.0,-0.851,0.239,-0.284,12.056,23.207,127.537,-0.939,-0.402,-0.04,15.433,-5.469,-14.873,-1.155,0.14,0.339,26.774,131.932,-22.324
15520.0,-0.867,0.327,-0.277,13.095,26.646,126.314,-0.948,-0.289,-0.026,2.96,-5.351,-13.766,-1.195,0.132,0.319,24.171,128.124,-21.986
15540.0,-0.857,0.351,-0.274,17.934,27.318,124.469,-0.936,-0.336,-0.044,-4.358,-3.743,-15.181,-1.226,0.103,0.285,21.671,125.931,-20.836
15560.0,-0.847,0.347,-0.286,19.944,26.019,119.751,-0.936,-0.359,-0.069,-3.737,-1.055,-18.049,-1.273,0.08,0.271,23.46,130.271,-19.983
15580.0,-0.854,0.361,-0.333,19.372,26.334,112.891,-0.921,-0.415,-0.116,-3.57,-0.455,-20.376,-1.316,0.052,0.228,26.019,129.537,-20.062
15600.0,-0.848,0.419,-0.339,14.987,31.083,105.984,-0.903,-0.479,-0.132,-2.065,0.378,-20.225,-1.324,0.028,0.16,26.341,123.672,-21.359
15620.0,-0.867,0.46,-0.332,10.063,33.751,99.811,-0.908,-0.477,-0.091,4.375,1.001,-18.028,-1.34,0.017,0.144,24.276,119.786,-26.017
15640.0,-0.87,0.506,-0.342,8.318,34.528,94.581,-0.925,-0.422,-0.064,3.696,0.218,-16.369,-1.357,-0.001,0.139,22.222,117.804,-33.097
15660.0,-0.843,0.511,-0.342,10.267,34.456,88.957,-0.929,-0.402,-0.064,-1.995,-0.128,-15.457,-1.371,0.0,0.143,21.638,122.8,-39.053
15680.0,-0.792,0.514,-0.354,14.657,33.54,84.235,-0.908,-0.436,-0.103,-2.449,-0.458,-14.688,-1.399,0.023,0.129,20.621,126.921,-41.784
15700.0,-0.737,0.519,-0.371,14.774,33.54,79.027,-0.902,-0.498,-0.11,0.603,-0.529,-14.1,-1.375,0.006,0.067,18.948,122.155,-42.731
15720.0,-0.722,0.502,-0.369,12.689,33.543,73.409,-0.906,-0.466,-0.113,1.445,-1.435,-12.06,-1.348,-0.031,0.05,19.175,123.934,-43.526
15740.0,-0.73,0.523,-0.371,14.244,29.981,70.648,-0.905,-0.466,-0.123,3.427,-1.33,-10.997,-1.416,-0.023,0.068,16.784,128.089,-45.189
15760.0,-0.71,0.607,-0.36,21.306,29.339,66.296,-0.892,-0.481,-0.094,7.672,-0.795,-10.717,-1.536,0.048,0.16,7.871,125.4,-49.72
15780.0,-0.687,0.625,-0.425,28.48,28.779,62.202,-0.869,-0.49,-0.034,8.229,0.205,-9.951,-1.403,0.055,0.15,6.978,109.497,-47.161
15800.0,-0.64,0.598,-0.497,19.262,26.319,61.136,-0.868,-0.52,-0.032,9.481,6.647,-7.485,-1.314,-0.012,0.009,5.197,103.274,-39.766
15820.0,-0.599,0.593,-0.472,12.694,28.914,56.038,-0.911,-0.422,-0.046,9.842,9.468,-5.164,-1.308,-0.105,-0.063,20.096,100.099,-39.274
15840.0,-0.639,0.654,-0.428,12.25,26.25,49.77,-0.908,-0.397,-0.098,-2.912,6.825,-5.22,-1.374,0.013,0.041,23.558,89.517,-32.942
15860.0,-0.695,0.839,-0.432,6.126,19.632,47.968,-0.88,-0.472,-0.126,-2.005,6.905,-7.173,-1.386,0.035,-0.048,24.99,77.91,-28.77
15880.0,-0.711,0.798,-0.491,3.653,17.127,52.179,-0.897,-0.505,-0.124,9.248,8.881,-9.421,-1.239,-0.012,-0.199,24.88,76.593,-25.298
15900.0,-0.64,0.728,-0.473,2.483,16.392,54.868,-0.924,-0.415,-0.094,7.277,8.354,-10.576,-1.35,0.058,-0.256,30.477,92.119,-30.629
15920.0,-0.579,0.716,-0.455,7.606,13.062,51.191,-0.925,-0.414,-0.096,-0.487,5.752,-12.259,-1.518,0.237,-0.052,0.585,67.354,-29.413
15940.0,-0.597,0.723,-0.487,7.7,4.97,44.17,-0.883,-0.499,-0.114,-0.427,4.516,-12.033,-1.118,-0.128,-0.136,-13.099,67.505,-29.824
15960.0,-0.545,0.717,-0.53,6.076,3.817,38.059,-0.857,-0.523,-0.122,0.112,4.028,-10.121,-1.167,-0.189,-0.264,4.298,80.718,-27.604
15980.0,-0.525,0.737,-0.539,7.053,4.282,32.186,-0.864,-0.545,-0.115,0.035,3.57,-7.349,-1.256,-0.051,-0.183,39.943,87.083,-42.687
16000.0,-0.553,0.759,-0.525,8.288,1.642,28.334,-0.857,-0.762,-0.523,101.478,-2.525,28.767,-2.271,1.217,0.33,-42.845,33.678,-11.003
16020.0,-0.583,0.75,-0.55,8.126,-1.051,24.499,-1.134,-2.766,-3.213,757.269,-69.349,260.405,-1.19,-0.453,0.243,-156.028,-59.341,8.727
16040.0,-0.593,0.761,-0.564,10.11,-2.666,17.635,-3.778,-3.147,-0.477,-44.593,-83.545,80.277,-1.316,-0.33,0.309,-19.984,-1.165,24.114
16060.0,-0.589,0.765,-0.589,12.735,-5.81,9.419,-0.581,-0.651,-0.299,-48.492,91.84,22.015,-1.442,-0.014,0.301,24.874,-17.561,20.798
16080.0,-0.594,0.77,-0.607,15.43,-9.995,3.131,-1.158,-0.784,-0.169,11.287,7.948,10.749,-1.278,-0.119,0.032,33.947,-1.125,10.509
16100.0,-0.592,0.789,-0.625,17.777,-12.689,-1.417,-0.971,-0.67,-0.286,10.369,-16.488,-4.893,-1.271,-0.153,-0.201,38.459,16.494,4.054
16120.0,-0.63,0.817,-0.592,17.441,-13.034,-6.236,-1.071,-0.651,-0.25,25.229,-35.084,-19.943,-1.333,-0.147,-0.38,34.817,7.951,1.982
16140.0,-0.658,0.836,-0.59,14.239,-14.126,-13.914,-1.046,-0.717,-0.254,21.889,-62.703,-42.87,-1.34,-0.201,-0.577,41.047,-1.403,6.003
16160.0,-0.69,0.836,-0.554,13.593,-16.329,-21.554,-0.572,-0.219,-0.147,36.226,-33.991,-6.926,-1.36,-0.107,-0.607,33.904,-27.725,27.596
16180.0,-0.718,0.828,-0.565,15.959,-23.549,-26.682,-1.289,-0.499,-0.136,-8.757,-40.316,14.203,-1.354,-0.012,-0.495,6.488,-44.285,47.877
16200.0,-0.701,0.783,-0.596,19.558,-27.118,-32.631,-1.014,-0.614,-0.2,5.25,-19.483,11.157,-1.323,-0.002,-0.332,-1.61,-41.211,59.294
16220.0,-0.691,0.739,-0.583,22.39,-28.844,-40.175,-0.878,-0.481,-0.16,-0.315,-15.371,12.214,-1.487,0.123,-0.167,3.504,-39.948,66.971
16240.0,-0.696,0.731,-0.544,23.146,-31.598,-46.973,-0.898,-0.499,-0.158,-0.724,-17.529,15.612,-1.602,0.203,-0.067,-7.14,-73.973,73.59
16260.0,-0.715,0.735,-0.522,22.493,-37.071,-52.458,-0.897,-0.53,-0.158,3.692,-20.391,20.109,-1.488,0.098,-0.008,-15.672,-86.599,78.094
16280.0,-0.726,0.743,-0.521,19.667,-44.255,-57.133,-0.896,-0.508,-0.137,6.215,-21.046,24.125,-1.461,0.042,0.077,-9.483,-89.67,86.234
16300.0,-0.734,0.727,-0.514,14.69,-50.597,-61.429,-0.888,-0.47,-0.107,3.934,-20.285,27.169,-1.457,0.075,0.16,0.821,-96.896,93.93
16320.0,-0.743,0.677,-0.483,10.623,-55.404,-65.465,-0.902,-0.459,-0.109,6.281,-17.141,28.927,-1.401,0.291,0.191,7.596,-111.232,94.215
16340.0,-0.758,0.646,-0.457,7.464,-59.58,-68.985,-0.918,-0.415,-0.088,8.663,-16.021,29.442,-1.373,0.308,0.102,4.74,-120.699,90.725
16360.0,-0.78,0.616,-0.428,3.072,-65.13,-72.813,-0.925,-0.392,-0.088,8.124,-13.743,28.69,-1.359,0.234,-0.032,2.048,-137.283,88.77
16380.0,-0.778,0.569,-0.393,-1.034,-73.257,-78.286,-0.946,-0.36,-0.077,3.159,-13.302,27.835,-1.374,0.359,0.048,-4.155,-136.608,90.261
16400.0,-0.744,0.536,-0.374,-1.234,-76.194,-83.689,-0.936,-0.38,-0.08,-0.515,-13.007,27.032,-1.162,0.453,0.007,-32.272,-116.126,102.569
16420.0,-0.747,0.533,-0.36,-1.46,-75.817,-85.645,-0.93,-0.4,-0.088,2.016,-10.375,26.092,-1.118,0.526,0.145,-32.438,-116.824,96.145
16440.0,-0.786,0.526,-0.335,-4.618,-76.317,-85.541,-0.935,-0.34,-0.083,2.585,-9.535,24.806,-1.077,0.498,0.196,-55.02,-111.3,85.61
16460.0,-0.797,0.502,-0.312,-4.57,-77.965,-85.111,-0.944,-0.324,-0.062,0.579,-10.007,23.804,-1.033,0.392,0.233,-73.36,-101.71,73.85
16480.0,-0.756,0.465,-0.318,-4.201,-77.513,-86.68,-0.954,-0.31,-0.063,-3.389,-11.032,23.703,-1.025,0.37,0.18,-73.155,-88.687,64.127
16500.0,-0.751,0.444,-0.275,-6.906,-74.936,-87.957,-0.954,-0.317,-0.068,-4.838,-12.268,23.958,-1.008,0.283,0.065,-62.451,-86.973,58.904
16520.0,-0.777,0.438,-0.26,-8.179,-72.33,-87.522,-0.941,-0.351,-0.061,-4.804,-12.417,23.406,-1.043,0.302,0.065,-59.766,-94.846,52.132
16540.0,-0.789,0.408,-0.223,-9.03,-71.96,-88.06,-0.946,-0.337,-0.059,-2.876,-10.055,22.512,-1.076,0.338,0.084,-66.195,-101.186,38.334
16560.0,-0.777,0.402,-0.25,-10.343,-69.662,-89.463,-0.952,-0.311,-0.065,-0.721,-9.256,23.076,-1.096,0.372,0.14,-74.6,-106.722,21.619
16580.0,-0.777,0.413,-0.233,-12.903,-65.363,-90.494,-0.949,-0.295,-0.07,-2.402,-9.362,23.301,-1.072,0.36,0.163,-86.928,-106.82,4.642
16600.0,-0.81,0.427,-0.193,-16.216,-60.251,-89.749,-0.976,-0.285,-0.047,0.577,-7.022,21.676,-1.034,0.248,0.076,-89.515,-105.645,-7.033
16620.0,-0.835,0.421,-0.173,-19.484,-57.867,-87.051,-0.982,-0.244,-0.036,-5.13,-7.056,19.883,-0.999,0.207,0.052,-89.657,-115.15,-11.13
16640.0,-0.851,0.365,-0.163,-21.235,-55.667,-85.059,-0.968,-0.278,-0.069,-6.82,-6.667,17.884,-0.99,0.266,0.143,-98.461,-111.435,-15.711
16660.0,-0.868,0.319,-0.15,-24.92,-50.05,-85.05,-0.985,-0.255,-0.072,-6.838,-6.873,16.879,-1.077,0.32,0.263,-106.38,-109.627,-26.224
16680.0,-0.863,0.32,-0.107,-28.057,-46.676,-81.825,-0.997,-0.282,-0.094,-2.391,-7.387,15.668,-1.139,0.318,0.308,-114.574,-117.562,-39.675
16700.0,-0.865,0.274,-0.111,-29.575,-42.861,-79.924,-0.974,-0.29,-0.068,0.887,-8.611,15.528,-1.045,0.178,0.253,-109.177,-122.135,-46.748
16720.0,-0.874,0.197,-0.09,-32.297,-39.143,-80.004,-0.99,-0.249,-0.054,-6.156,-9.813,15.106,-0.983,0.128,0.202,-95.3,-127.741,-48.652
16740.0,-0.873,0.152,-0.089,-33.593,-35.369,-80.285,-0.98,-0.24,-0.032,-16.543,-9.883,14.728,-0.982,0.137,0.255,-81.344,-127.346,-47.982
16760.0,-0.88,0.127,-0.068,-33.338,-30.326,-81.383,-0.976,-0.235,-0.029,-4.845,-8.501,13.842,-1.02,0.149,0.388,-69.874,-126.15,-47.037
16780.0,-0.883,0.095,-0.063,-31.971,-23.587,-83.052,-0.942,-0.261,-0.032,-6.07,-5.416,12.673,-0.987,0.158,0.399,-58.53,-128.61,-47.151
16800.0,-0.888,0.048,-0.086,-36.516,-19.331,-84.869,-1.01,-0.247,-0.07,-3.5,-3.92,11.9,-0.89,0.14,0.378,-50.247,-128.312,-45.628
16820.0,-0.894,0.037,-0.063,-41.275,-12.767,-88.968,-0.985,-0.271,-0.058,-1.688,-5.081,11.064,-0.783,0.128,0.374,-38.962,-122.692,-40.354
16840.0,-0.904,0.025,-0.03,-46.693,-8.062,-89.229,-0.992,-0.231,-0.028,-2.66,-5.39,11.69,-0.757,0.144,0.424,-35.227,-116.59,-37.865
16860.0,-0.938,-0.014,-0.014,-48.937,-8.521,-90.177,-1.011,-0.233,-0.071,-8.818,-8.957,11.12,-0.749,0.152,0.537,-37.565,-114.914,-37.71
16880.0,-0.938,-0.075,-0.017,-47.04,-8.092,-92.706,-0.968,-0.234,-0.04,-8.47,-8.33,10.99,-0.717,0.134,0.57,-41.697,-117.034,-39.257
16900.0,-0.894,-0.15,-0.028,-28.558,-0.426,-94.992,-0.98,-0.226,-0.021,-8.536,-7.415,10.177,-0.638,0.114,0.558,-41.023,-115.552,-39.777
16920.0,-0.888,-0.19,-0.041,-24.567,3.297,-98.441,-0.972,-0.216,-0.035,-7.692,-4.332,9.276,-0.552,0.104,0.588,-38.935,-105.31,-37.995
16940.0,-0.892,-0.203,-0.051,-35.909,4.802,-100.78,-0.994,-0.193,-0.026,-9.302,-3.08,7.361,-0.529,0.101,0.69,-44.279,-100.784,-37.693
16960.0,-0.888,-0.239,-0.046,-35.867,7.543,-101.817,-0.991,-0.207,-0.021,-12.637,-2.583,5.264,-0.545,0.105,0.768,-54.996,-97.911,-41.849
16980.0,-0.889,-0.291,-0.041,-34.536,9.663,-102.984,-0.992,-0.203,-0.026,-13.63,-0.763,4.679,-0.513,0.116,0.815,-74.401,-97.937,-48.504
17000.0,-0.87,-0.312,-0.036,-32.971,10.426,-104.498,-0.981,-0.237,-0.043,-9.221,2.746,4.227,-0.449,0.04,0.827,-86.695,-102.702,-53.715
17020.0,-0.853,-0.313,-0.052,-28.976,10.703,-103.874,-0.964,-0.235,-0.022,-8.454,4.957,4.89,-0.399,-0.02,0.884,-89.845,-99.499,-56.164
17040.0,-0.848,-0.364,-0.096,-26.879,12.049,-103.638,-0.987,-0.22,-0.031,-8.078,9.381,4.678,-0.39,-0.114,0.868,-87.066,-99.262,-57.124
17060.0,-0.834,-0.417,-0.142,-30.839,15.954,-103.321,-1.006,-0.223,-0.04,-7.915,9.717,3.402,-0.346,-0.127,0.912,-82.701,-99.175,-57.786
17080.0,-0.828,-0.493,-0.099,-33.325,18.002,-103.625,-1.008,-0.186,-0.072,-6.507,9.348,2.287,-0.345,-0.11,0.906,-82.466,-96.22,-59.803
17100.0,-0.82,-0.52,-0.098,-32.295,19.385,-105.272,-0.988,-0.263,-0.129,-4.585,7.172,2.427,-0.323,-0.109,0.916,-86.03,-104.432,-63.097
17120.0,-0.835,-0.539,-0.106,-31.99,15.75,-103.6,-1.001,-0.184,-0.102,-2.185,3.551,2.838,-0.265,-0.196,0.893,-89.285,-106.422,-65.386
17140.0,-0.831,-0.573,-0.126,-27.65,20.16,-101.29,-1.014,-0.236,-0.09,-6.06,1.99,4.79,-0.245,-0.29,0.868,-77.262,-109.01,-66.007
17160.0,-0.822,-0.576,-0.096,-23.919,21.119,-100.054,-1.006,-0.274,-0.071,-2.22,-0.965,7.433,-0.178,-0.336,0.84,-58.315,-111.495,-63.511
17180.0,-0.772,-0.591,-0.116,-20.52,19.041,-94.487,-0.968,-0.26,-0.079,-1.327,0.32,8.209,-0.142,-0.277,0.862,-51.662,-106.176,-64.543
17200.0,-0.723,-0.634,-0.147,-19.83,19.394,-92.423,-0.976,-0.209,-0.087,-3.847,-0.179,8.765,-0.144,-0.312,0.813,-51.562,-110.405,-65.006
17220.0,-0.697,-0.646,-0.159,-18.302,23.035,-92.808,-0.994,-0.213,-0.115,-3.192,-0.308,9.885,-0.076,-0.346,0.747,-41.916,-117.427,-64.264
17240.0,-0.676,-0.647,-0.15,-20.646,24.617,-90.385,-0.991,-0.247,-0.118,-0.02,0.289,9.637,-0.024,-0.356,0.723,-31.375,-114.916,-64.517
17260.0,-0.651,-0.655,-0.149,-21.269,26.75,-89.788,-0.975,-0.251,-0.091,4.608,2.278,8.29,0.011,-0.286,0.688,-25.454,-114.45,-68.075
17280.0,-0.596,-0.67,-0.174,-19.966,27.064,-87.534,-0.929,-0.188,-0.039,4.921,2.853,10.379,0.06,-0.244,0.668,-34.184,-114.032,-65.375
17300.0,-0.56,-0.659,-0.206,-16.8,28.07,-87.161,-0.94,-0.18,-0.032,2.166,3.771,14.352,0.118,-0.337,0.602,-33.18,-120.19,-64.61
17320.0,-0.555,-0.68,-0.217,-15.857,30.475,-87.346,-1.003,-0.197,-0.05,1.084,6.088,15.178,0.18,-0.344,0.499,-6.941,-116.056,-63.703
17340.0,-0.574,-0.733,-0.196,-18.123,30.198,-84.155,-0.996,-0.214,-0.084,2.039,4.807,15.525,0.224,-0.346,0.478,11.06,-114.31,-59.99
17360.0,-0.564,-0.728,-0.195,-18.481,30.674,-82.191,-0.949,-0.24,-0.111,5.218,6.076,16.535,0.273,-0.235,0.474,5.88,-125.58,-58.8
17380.0,-0.538,-0.713,-0.222,-18.272,30.004,-81.094,-0.941,-0.238,-0.107,12.172,10.021,19.08,0.322,-0.254,0.45,-0.098,-148.209,-51.551
17400.0,-0.515,-0.72,-0.242,-18.894,29.025,-77.969,-1.002,-0.171,-0.059,13.752,8.796,20.061,0.599,-0.275,0.385,6.713,-147.369,-51.226
17420.0,-0.497,-0.76,-0.256,-20.649,28.203,-73.068,-1.027,-0.126,-0.057,3.593,6.526,17.009,0.568,-0.265,0.4,23.698,-123.776,-46.48
17440.0,-0.475,-0.811,-0.284,-22.123,26.275,-70.314,-1.0,-0.129,-0.086,-3.038,10.417,14.799,0.571,-0.176,0.469,20.287,-103.145,-44.369
17460.0,-0.405,-0.822,-0.281,-23.573,26.967,-68.441,-0.991,-0.109,-0.079,-0.835,15.985,12.903,0.593,-0.145,0.443,7.275,-107.297,-42.545
17480.0,-0.389,-0.817,-0.315,-21.434,27.578,-65.393,-0.984,-0.091,-0.047,-0.533,18.691,11.741,0.701,-0.208,0.35,-0.916,-107.258,-37.617
17500.0,-0.397,-0.83,-0.331,-21.227,28.987,-60.167,-0.995,-0.115,-0.048,-0.775,20.554,14.678,0.82,-0.302,0.294,7.915,-97.651,-33.204
17520.0,-0.402,-0.87,-0.357,-22.781,28.13,-54.3,-0.985,-0.221,-0.175,11.499,24.439,13.766,0.842,-0.29,0.327,27.712,-76.631,-31.046
17540.0,-0.414,-0.89,-0.366,-22.524,27.836,-48.157,-1.029,-0.15,-0.165,21.053,19.935,11.596,0.81,-0.15,0.281,21.537,-78.964,-31.859
17560.0,-0.393,-0.941,-0.366,-22.884,28.845,-44.019,-1.008,0.05,-0.271,0.764,11.227,10.761,0.878,-0.159,0.272,5.218,-76.333,-28.18
17580.0,-0.38,-0.966,-0.383,-21.09,27.319,-42.354,-0.971,-0.102,-0.244,-8.229,5.56,9.658,0.966,-0.211,0.31,-7.313,-62.611,-18.717
17600.0,-0.372,-0.954,-0.402,-17.033,29.876,-37.535,-0.962,-0.126,-0.158,4.41,4.97,9.1,0.98,-0.213,0.345,-14.013,-54.334,-13.842
17620.0,-0.361,-0.916,-0.407,-13.342,28.144,-31.636,-1.026,-0.071,-0.097,-0.14,5.53,7.91,0.989,-0.204,0.327,-16.668,-49.467,-11.853
17640.0,-0.349,-0.906,-0.407,-8.279,28.269,-26.199,-1.012,-0.181,-0.101,-2.222,9.12,6.188,1.007,-0.212,0.286,-12.777,-38.852,-7.676
17660.0,-0.333,-0.946,-0.427,-4.921,27.541,-20.854,-1.001,-0.129,-0.139,1.641,12.672,6.466,1.021,-0.269,0.253,-9.666,-40.957,0.365
17680.0,-0.343,-0.953,-0.447,-0.259,27.015,-16.779,-1.004,-0.049,-0.184,-4.664,6.744,5.82,1.149,-0.328,0.201,16.216,-44.127,2.782
17700.0,-0.354,-0.96,-0.47,5.81,26.04,-14.0,-0.987,-0.191,-0.273,-12.671,1.333,7.082,1.202,-0.282,0.185,9.334,-34.398,3.949
17720.0,-0.398,-0.998,-0.44,7.899,24.235,-8.322,-0.99,-0.238,-0.231,3.17,-0.69,8.803,1.114,-0.245,0.22,6.407,-4.163,14.654
17740.0,-0.378,-1.025,-0.425,2.978,20.13,-2.814,-1.028,-0.132,-0.153,11.658,1.864,8.552,1.101,-0.34,0.301,7.475,-12.461,15.82
17760.0,-0.34,-0.981,-0.462,-5.763,19.253,3.368,-1.014,-0.045,-0.157,2.807,0.096,6.863,1.213,-0.266,0.317,-0.609,-3.8,15.817
17780.0,-0.386,-0.939,-0.427,-9.869,14.463,11.495,-0.996,0.018,-0.172,-3.973,-0.403,2.755,1.236,-0.243,0.284,-1.817,8.191,15.627
17800.0,-0.381,-0.925,-0.456,-9.74,5.625,18.134,-0.975,0.022,-0.19,-10.786,-1.575,-1.198,1.171,-0.304,0.211,12.95,14.49,13.3
17820.0,-0.396,-0.937,-0.508,-10.413,2.109,24.892,-0.969,-0.058,-0.185,-13.02,-2.66,-2.891,1.079,-0.285,0.18,44.833,29.741,13.357
17840.0,-0.409,-0.982,-0.499,-11.837,-0.371,30.985,-1.01,-0.09,-0.175,-13.37,-3.064,-3.449,1.105,-0.176,0.157,71.584,39.415,18.146
17860.0,-0.426,-0.971,-0.455,-15.455,-0.427,37.241,-1.013,-0.115,-0.197,-16.94,-4.969,-4.185,1.104,-0.143,0.157,61.12,52.99,31.045
17880.0,-0.49,-0.96,-0.46,-17.808,-7.157,41.956,-1.008,-0.152,-0.205,-14.695,-6.429,-5.27,1.059,-0.095,0.214,35.707,66.268,40.195
17900.0,-0.49,-0.932,-0.502,-18.052,-11.752,47.985,-1.007,-0.143,-0.197,-4.878,-6.794,-6.732,0.94,-0.095,0.231,1.797,72.9,49.561
17920.0,-0.434,-0.908,-0.476,-19.94,-14.369,54.018,-0.997,-0.066,-0.199,-2.597,-6.515,-8.961,0.867,-0.165,0.202,-11.922,80.305,59.5
17940.0,-0.433,-0.895,-0.47,-17.716,-18.481,58.47,-1.006,-0.072,-0.158,-6.009,-9.347,-11.674,0.84,-0.237,0.234,-4.777,89.211,63.712
17960.0,-0.451,-0.894,-0.465,-16.645,-22.004,64.134,-0.994,-0.082,-0.167,-11.141,-12.272,-12.339,0.787,-0.357,0.229,21.395,97.231,61.873
17980.0,-0.471,-0.872,-0.459,-14.066,-23.023,65.995,-0.976,-0.149,-0.205,-7.104,-10.56,-11.684,0.693,-0.27,0.279,41.574,109.908,58.96
18000.0,-0.529,-0.869,-0.456,-11.186,-28.605,69.873,-0.996,-0.156,-0.192,-2.775,-10.057,-12.453,0.607,-0.204,0.333,49.427,117.914,59.793
18020.0,-0.539,-0.842,-0.458,-10.591,-32.094,76.214,-0.999,-0.163,-0.173,1.892,-9.461,-12.964,0.515,-0.194,0.335,49.116,148.845,68.579
18040.0,-0.559,-0.776,-0.455,-9.873,-32.976,84.095,-1.006,-0.143,-0.16,7.279,-7.355,-14.729,0.36,-0.291,0.313,53.349,149.581,76.296
18060.0,-0.547,-0.709,-0.434,-9.618,-35.322,89.955,-0.962,-0.111,-0.15,6.165,-7.529,-15.66,0.3,-0.294,0.302,61.599,153.587,75.848
18080.0,-0.552,-0.666,-0.4,-9.549,-38.449,97.184,-0.972,-0.107,-0.131,5.149,-7.464,-17.786,0.248,-0.184,0.295,57.237,170.019,75.621
18100.0,-0.567,-0.657,-0.387,-8.585,-40.727,104.076,-0.979,-0.119,-0.125,4.947,-6.017,-20.915,0.02,-0.186,0.305,31.166,199.716,81.956
18120.0,-0.579,-0.64,-0.392,-6.357,-41.125,109.101,-1.02,-0.082,-0.096,2.374,-5.507,-23.433,-0.209,-0.358,0.335,32.567,170.358,76.505
18140.0,-0.587,-0.581,-0.372,-8.432,-41.039,114.038,-0.985,-0.122,-0.117,-0.63,-0.377,-24.905,-0.181,-0.352,0.37,38.715,166.243,72.707
18160.0,-0.602,-0.522,-0.326,-10.789,-42.78,117.55,-0.833,-0.13,-0.086,-0.035,4.592,-31.291,-0.18,-0.284,0.418,37.778,181.765,69.538
18180.0,-0.626,-0.487,-0.333,-8.33,-45.638,120.149,-0.964,-0.12,-0.134,-6.743,-1.58,-31.744,-0.332,-0.27,0.433,36.48,202.659,67.789
18200.0,-0.638,-0.48,-0.358,-5.377,-43.608,123.31,-0.934,-0.229,-0.198,-11.991,-0.744,-30.751,-0.51,-0.271,0.451,40.135,194.329,65.408
18220.0,-0.656,-0.46,-0.361,-5.713,-38.317,126.894,-0.989,-0.288,-0.183,-3.969,-2.023,-30.972,-0.548,-0.252,0.488,48.533,179.695,60.154
18240.0,-0.688,-0.422,-0.341,-7.641,-34.5,129.795,-0.963,-0.223,-0.148,-2.219,-1.101,-30.265,-0.559,-0.242,0.489,55.511,181.183,55.809
18260.0,-0.726,-0.409,-0.303,-6.894,-33.754,131.643,-0.973,-0.179,-0.154,-6.418,-3.03,-27.869,-0.658,-0.245,0.47,60.658,180.685,51.301
18280.0,-0.742,-0.397,-0.298,-2.043,-33.44,132.877,-0.979,-0.332,-0.201,-5.88,-6.58,-26.74,-0.743,-0.251,0.47,72.487,178.651,47.199
18300.0,-0.747,-0.37,-0.318,2.231,-31.914,134.357,-0.999,-0.35,-0.162,8.341,-6.387,-22.859,-0.781,-0.19,0.479,84.419,178.985,41.039
18320.0,-0.753,-0.328,-0.324,2.588,-26.469,136.828,-0.973,-0.3,-0.17,11.746,-5.509,-19.866,-0.781,-0.126,0.499,87.672,182.23,33.307
18340.0,-0.764,-0.292,-0.307,1.042,-21.928,137.905,-0.994,-0.266,-0.161,12.522,-8.086,-18.842,-0.813,-0.072,0.419,84.191,191.15,26.479
18360.0,-0.771,-0.24,-0.305,0.099,-17.819,136.848,-0.941,-0.296,-0.168,9.8,-8.483,-19.034,-0.975,-0.061,0.41,72.15,189.641,18.21
18380.0,-0.777,-0.193,-0.279,5.334,-13.032,136.1,-0.972,-0.305,-0.164,9.245,-12.424,-17.95,-1.106,-0.032,0.609,49.046,172.183,19.153
