Timestamp,AccelX,AccelY,AccelZ,GyroX,GyroY,GyroZ
1743902744.269103,0.076,-0.075,1.027,0.350,-2.310,-0.770
1743902744.289103,0.074,-0.073,1.030,0.210,-2.380,-0.700
1743902744.309103,0.072,-0.075,1.031,0.560,-2.590,-0.700
1743902744.329103,0.071,-0.075,1.031,0.350,-2.520,-0.770
1743902744.349103,0.075,-0.074,1.026,0.560,-2.520,-0.770
1743902744.369103,0.073,-0.073,1.029,0.560,-2.590,-0.770
1743902744.340179,0.075,-0.072,1.031,0.560,-2.520,-0.700
1743902744.360179,0.073,-0.072,1.029,0.420,-2.520,-0.700
1743902744.380179,0.075,-0.073,1.030,0.490,-2.380,-0.770
1743902744.400179,0.074,-0.074,1.031,0.420,-2.450,-0.770
1743902744.420179,0.073,-0.073,1.032,0.280,-2.380,-0.770
1743902744.4401789,0.077,-0.074,1.030,0.420,-2.520,-0.770
1743902744.356482,0.075,-0.074,1.028,0.280,-2.450,-0.770
1743902744.376482,0.074,-0.072,1.030,0.280,-2.520,-0.840
1743902744.396482,0.075,-0.075,1.030,0.280,-2.380,-0.770
1743902744.416482,0.074,-0.074,1.033,0.350,-2.520,-0.770
1743902744.436482,0.074,-0.074,1.030,0.210,-2.380,-0.700
1743902744.456482,0.075,-0.073,1.032,0.420,-2.380,-0.700
1743902744.4017682,0.073,-0.076,1.034,0.350,-2.380,-0.770
1743902744.4217682,0.074,-0.074,1.031,0.420,-2.520,-0.630
1743902744.4417682,0.075,-0.075,1.030,0.420,-2.450,-0.630
1743902744.4617682,0.074,-0.074,1.031,0.280,-2.380,-0.700
1743902744.4817681,0.074,-0.073,1.030,0.350,-2.380,-0.770
1743902744.501768,0.074,-0.075,1.030,0.700,-2.590,-0.770
1743902744.4476032,0.074,-0.074,1.031,0.490,-2.450,-0.770
1743902744.4676032,0.076,-0.075,1.034,0.350,-2.310,-0.700
1743902744.4876032,0.074,-0.073,1.032,0.280,-2.520,-0.700
1743902744.5076032,0.075,-0.073,1.030,0.280,-2.380,-0.700
1743902744.5276031,0.074,-0.073,1.029,0.420,-2.520,-0.770
1743902744.5476031,0.071,-0.073,1.029,0.350,-2.520,-0.840
1743902744.4764962,0.076,-0.073,1.032,0.420,-2.450,-0.700
1743902744.4964962,0.074,-0.073,1.030,0.280,-2.380,-0.700
1743902744.5164962,0.076,-0.072,1.029,0.420,-2.590,-0.700
1743902744.5364962,0.072,-0.074,1.029,0.210,-2.590,-0.700
1743902744.5564961,0.075,-0.074,1.030,0.210,-2.240,-0.770
1743902744.5764961,0.076,-0.072,1.030,0.210,-2.520,-0.770
1743902744.5227401,0.076,-0.073,1.030,0.210,-2.590,-0.700
1743902744.54274,0.075,-0.075,1.029,0.350,-2.520,-0.770
1743902744.56274,0.076,-0.075,1.029,0.350,-2.380,-0.840
1743902744.58274,0.075,-0.074,1.031,0.350,-2.520,-0.770
1743902744.60274,0.074,-0.074,1.028,0.490,-2.450,-0.700
1743902744.62274,0.075,-0.073,1.031,0.350,-2.520,-0.630
1743902744.566673,0.074,-0.076,1.032,0.350,-2.450,-0.770
1743902744.586673,0.073,-0.075,1.033,0.350,-2.450,-0.770
1743902744.606673,0.073,-0.074,1.028,0.420,-2.380,-0.700
1743902744.626673,0.076,-0.076,1.032,0.280,-2.380,-0.770
1743902744.646673,0.071,-0.074,1.033,0.420,-2.380,-0.770
1743902744.666673,0.077,-0.075,1.033,0.350,-2.590,-0.700
1743902744.640144,0.076,-0.073,1.027,0.280,-2.380,-0.770
1743902744.660144,0.075,-0.072,1.032,0.420,-2.240,-0.700
1743902744.680144,0.073,-0.074,1.033,0.140,-2.520,-0.770
1743902744.700144,0.072,-0.075,1.030,0.560,-2.520,-0.630
1743902744.720144,0.076,-0.073,1.032,0.490,-2.520,-0.700
1743902744.740144,0.071,-0.072,1.031,0.000,-2.450,-0.700
1743902744.65692,0.075,-0.076,1.030,0.420,-2.310,-0.700
1743902744.67692,0.076,-0.074,1.031,0.630,-2.380,-0.700
1743902744.69692,0.075,-0.075,1.030,0.000,-2.660,-0.770
1743902744.71692,0.076,-0.076,1.028,0.210,-2.520,-0.770
1743902744.7369199,0.073,-0.075,1.032,0.490,-2.170,-0.770
1743902744.7569199,0.074,-0.074,1.031,0.140,-2.660,-0.770
1743902744.70316,0.074,-0.073,1.028,0.490,-2.310,-0.770
1743902744.72316,0.076,-0.075,1.030,0.350,-2.660,-0.840
1743902744.74316,0.074,-0.076,1.029,0.210,-2.450,-0.630
1743902744.76316,0.076,-0.075,1.033,0.280,-2.380,-0.700
1743902744.78316,0.075,-0.074,1.029,0.490,-2.660,-0.840
1743902744.80316,0.078,-0.075,1.031,0.420,-2.310,-0.770
1743902744.748015,0.076,-0.073,1.029,0.280,-2.590,-0.770
1743902744.768015,0.077,-0.073,1.032,0.490,-2.590,-0.700
1743902744.788015,0.075,-0.073,1.031,0.280,-2.240,-0.770
1743902744.8080149,0.072,-0.075,1.029,0.280,-2.590,-0.700
1743902744.8280149,0.073,-0.075,1.029,0.560,-2.380,-0.700
1743902744.8480148,0.074,-0.073,1.032,0.350,-2.310,-0.770
1743902744.792069,0.072,-0.074,1.032,0.350,-2.450,-0.630
1743902744.812069,0.073,-0.074,1.029,0.350,-2.590,-0.700
1743902744.832069,0.073,-0.074,1.029,0.630,-2.310,-0.770
1743902744.852069,0.074,-0.073,1.032,0.350,-2.590,-0.700
1743902744.872069,0.073,-0.072,1.032,0.420,-2.660,-0.840
1743902744.8920689,0.075,-0.075,1.027,0.350,-2.310,-0.700
1743902744.823785,0.076,-0.073,1.028,0.350,-2.520,-0.700
1743902744.843785,0.076,-0.075,1.031,0.350,-2.520,-0.630
1743902744.863785,0.073,-0.075,1.030,0.490,-2.520,-0.770
1743902744.883785,0.076,-0.073,1.029,0.280,-2.310,-0.700
1743902744.903785,0.074,-0.075,1.029,0.070,-2.520,-0.770
1743902744.923785,0.074,-0.074,1.033,0.420,-2.520,-0.770
1743902744.869188,0.074,-0.075,1.030,0.420,-2.520,-0.700
1743902744.889188,0.075,-0.073,1.030,0.490,-2.520,-0.770
1743902744.909188,0.073,-0.073,1.030,0.490,-2.450,-0.700
1743902744.929188,0.075,-0.074,1.030,0.140,-2.380,-0.770
1743902744.949188,0.075,-0.075,1.031,0.420,-2.450,-0.700
1743902744.969188,0.074,-0.074,1.029,0.350,-2.450,-0.700
1743902744.9416091,0.074,-0.074,1.033,0.350,-2.520,-0.630
1743902744.9616091,0.076,-0.075,1.032,0.350,-2.450,-0.700
1743902744.981609,0.074,-0.076,1.033,0.420,-2.450,-0.770
1743902745.001609,0.076,-0.075,1.027,0.280,-2.310,-0.630
1743902745.021609,0.075,-0.073,1.031,0.490,-2.520,-0.770
1743902745.041609,0.076,-0.075,1.033,0.350,-2.520,-0.630
1743902744.9596562,0.076,-0.074,1.032,0.420,-2.520,-0.770
1743902744.9796562,0.074,-0.074,1.028,0.280,-2.450,-0.770
1743902744.9996562,0.075,-0.074,1.029,0.420,-2.380,-0.700
1743902745.0196562,0.074,-0.073,1.030,0.420,-2.310,-0.770
1743902745.0396562,0.074,-0.072,1.031,0.420,-2.520,-0.770
1743902745.0596561,0.074,-0.075,1.028,0.280,-2.590,-0.770
1743902745.004419,0.073,-0.075,1.027,0.420,-2.520,-0.840
1743902745.024419,0.076,-0.074,1.030,0.560,-2.380,-0.700
1743902745.044419,0.075,-0.074,1.032,0.490,-2.660,-0.770
1743902745.064419,0.076,-0.073,1.030,0.280,-2.450,-0.700
1743902745.084419,0.073,-0.074,1.029,0.420,-2.380,-0.700
1743902745.104419,0.077,-0.072,1.029,0.490,-2.450,-0.700
1743902745.033354,0.075,-0.072,1.033,0.350,-2.450,-0.700
1743902745.053354,0.074,-0.074,1.032,0.350,-2.450,-0.770
1743902745.073354,0.075,-0.074,1.031,0.420,-2.450,-0.700
1743902745.093354,0.075,-0.072,1.031,0.420,-2.380,-0.700
1743902745.113354,0.074,-0.073,1.032,0.280,-2.380,-0.700
1743902745.133354,0.074,-0.073,1.032,0.420,-2.450,-0.700
1743902745.079452,0.076,-0.072,1.030,0.210,-2.520,-0.770
1743902745.099452,0.075,-0.071,1.029,0.280,-2.380,-0.770
1743902745.119452,0.075,-0.074,1.033,0.350,-2.450,-0.770
1743902745.139452,0.074,-0.075,1.035,0.140,-2.380,-0.770
1743902745.159452,0.074,-0.075,1.027,0.350,-2.590,-0.700
1743902745.179452,0.077,-0.072,1.032,0.140,-2.310,-0.700
1743902745.124247,0.072,-0.074,1.031,0.140,-2.520,-0.700
1743902745.144247,0.075,-0.076,1.032,0.630,-2.660,-0.770
1743902745.164247,0.074,-0.073,1.028,0.490,-2.590,-0.630
1743902745.184247,0.076,-0.074,1.032,0.350,-2.520,-0.700
1743902745.204247,0.074,-0.077,1.033,0.700,-2.590,-0.700
1743902745.224247,0.074,-0.073,1.030,0.490,-2.310,-0.560
1743902745.167658,0.075,-0.072,1.030,0.210,-2.450,-0.770
1743902745.187658,0.077,-0.074,1.030,0.420,-2.380,-0.770
1743902745.207658,0.076,-0.074,1.030,0.350,-2.310,-0.700
1743902745.227658,0.076,-0.072,1.034,0.280,-2.450,-0.770
1743902745.247658,0.076,-0.075,1.031,0.420,-2.380,-0.770
1743902745.267658,0.076,-0.076,1.030,0.490,-2.520,-0.770
1743902745.241121,0.077,-0.073,1.031,0.420,-2.380,-0.700
1743902745.261121,0.076,-0.076,1.032,0.490,-2.590,-0.840
1743902745.281121,0.076,-0.074,1.030,0.490,-2.380,-0.700
1743902745.301121,0.073,-0.073,1.030,0.420,-2.380,-0.700
1743902745.321121,0.073,-0.074,1.032,0.490,-2.590,-0.700
1743902745.341121,0.073,-0.074,1.031,0.560,-2.380,-0.770
1743902745.2565002,0.073,-0.074,1.026,0.350,-2.520,-0.700
1743902745.2765002,0.074,-0.073,1.025,0.350,-2.310,-0.700
1743902745.2965002,0.076,-0.073,1.031,0.210,-2.380,-0.770
1743902745.3165002,0.074,-0.074,1.031,0.350,-2.660,-0.700
1743902745.3365002,0.074,-0.075,1.027,0.350,-2.380,-0.770
1743902745.3565001,0.073,-0.072,1.031,0.420,-2.310,-0.700
1743902745.3017073,0.074,-0.071,1.031,0.350,-2.590,-0.700
1743902745.3217072,0.071,-0.074,1.029,0.350,-2.590,-0.700
1743902745.3417072,0.073,-0.076,1.031,0.280,-2.380,-0.700
1743902745.3617072,0.072,-0.072,1.030,0.210,-2.310,-0.700
1743902745.3817072,0.073,-0.073,1.031,0.350,-2.380,-0.700
1743902745.4017072,0.074,-0.073,1.034,0.490,-2.520,-0.840
1743902745.3466961,0.074,-0.074,1.029,0.280,-2.450,-0.700
1743902745.3666961,0.077,-0.074,1.028,0.420,-2.520,-0.770
1743902745.386696,0.075,-0.074,1.032,0.420,-2.380,-0.700
1743902745.406696,0.076,-0.074,1.033,0.420,-2.380,-0.700
1743902745.426696,0.078,-0.074,1.029,0.350,-2.380,-0.700
1743902745.446696,0.077,-0.074,1.027,0.280,-2.450,-0.770
1743902745.3780832,0.074,-0.072,1.031,0.350,-2.310,-0.700
1743902745.3980832,0.076,-0.076,1.032,0.420,-2.380,-0.700
1743902745.4180832,0.075,-0.073,1.031,0.420,-2.310,-0.630
1743902745.4380832,0.074,-0.075,1.028,0.420,-2.450,-0.700
1743902745.4580832,0.074,-0.076,1.030,0.490,-2.450,-0.700
1743902745.4780831,0.073,-0.073,1.032,0.560,-2.450,-0.700
1743902745.4242392,0.072,-0.073,1.033,0.420,-2.450,-0.770
1743902745.4442391,0.074,-0.076,1.025,0.560,-2.590,-0.700
1743902745.4642391,0.076,-0.071,1.031,0.420,-2.380,-0.700
1743902745.484239,0.076,-0.075,1.031,0.420,-2.450,-0.770
1743902745.504239,0.075,-0.074,1.028,0.490,-2.520,-0.630
1743902745.524239,0.074,-0.074,1.027,0.490,-2.590,-0.770
1743902745.4692402,0.073,-0.074,1.032,0.490,-2.240,-0.700
1743902745.4892402,0.076,-0.075,1.032,0.350,-2.380,-0.770
1743902745.5092402,0.075,-0.074,1.030,0.420,-2.520,-0.630
1743902745.5292401,0.073,-0.073,1.028,0.210,-2.380,-0.700
1743902745.54924,0.073,-0.072,1.030,0.420,-2.520,-0.630
1743902745.56924,0.075,-0.073,1.031,0.420,-2.520,-0.700
1743902745.556468,0.073,-0.072,1.032,0.280,-2.450,-0.770
1743902745.576468,0.076,-0.073,1.028,0.420,-2.520,-0.770
1743902745.596468,0.076,-0.072,1.029,0.350,-2.590,-0.700
1743902745.616468,0.075,-0.073,1.031,0.350,-2.380,-0.770
1743902745.636468,0.075,-0.072,1.032,0.280,-2.450,-0.770
1743902745.656468,0.073,-0.072,1.031,0.210,-2.520,-0.700
1743902745.5609632,0.075,-0.074,1.030,0.350,-2.450,-0.700
1743902745.5809631,0.075,-0.074,1.030,0.350,-2.520,-0.770
1743902745.600963,0.074,-0.075,1.029,0.420,-2.450,-0.700
1743902745.620963,0.076,-0.073,1.029,0.350,-2.450,-0.770
1743902745.640963,0.074,-0.076,1.028,0.280,-2.450,-0.770
1743902745.660963,0.075,-0.072,1.029,0.280,-2.310,-0.770
1743902745.601843,0.075,-0.074,1.030,0.350,-2.520,-0.770
1743902745.621843,0.074,-0.076,1.029,0.280,-2.380,-0.700
1743902745.641843,0.077,-0.074,1.031,0.280,-2.450,-0.630
1743902745.661843,0.074,-0.073,1.030,0.490,-2.380,-0.630
1743902745.681843,0.075,-0.074,1.029,0.350,-2.590,-0.700
1743902745.701843,0.073,-0.074,1.030,0.350,-2.380,-0.770
1743902745.634474,0.072,-0.073,1.029,0.420,-2.590,-0.700
1743902745.654474,0.075,-0.073,1.030,0.210,-2.450,-0.770
1743902745.674474,0.073,-0.073,1.031,0.350,-2.450,-0.770
1743902745.694474,0.073,-0.075,1.029,0.420,-2.590,-0.770
1743902745.714474,0.076,-0.074,1.030,0.280,-2.380,-0.700
1743902745.734474,0.076,-0.075,1.031,0.420,-2.520,-0.700
1743902745.69438,0.074,-0.074,1.031,0.280,-2.590,-0.770
1743902745.71438,0.076,-0.071,1.029,0.210,-2.380,-0.770
1743902745.73438,0.076,-0.074,1.027,0.420,-2.380,-0.700
1743902745.75438,0.074,-0.073,1.031,0.420,-2.450,-0.700
1743902745.77438,0.073,-0.074,1.031,0.420,-2.590,-0.700
1743902745.79438,0.075,-0.076,1.030,0.490,-2.590,-0.840
1743902745.739319,0.074,-0.073,1.030,0.350,-2.520,-0.770
1743902745.759319,0.077,-0.075,1.032,0.280,-2.450,-0.700
1743902745.779319,0.077,-0.075,1.029,0.420,-2.590,-0.700
1743902745.799319,0.077,-0.074,1.029,0.350,-2.380,-0.770
1743902745.819319,0.077,-0.073,1.030,0.350,-2.450,-0.770
1743902745.839319,0.075,-0.073,1.033,0.420,-2.520,-0.770
1743902745.769342,0.075,-0.073,1.033,0.350,-2.590,-0.770
1743902745.789342,0.077,-0.073,1.029,0.280,-2.450,-0.700
1743902745.809342,0.076,-0.074,1.029,0.350,-2.450,-0.700
1743902745.829342,0.075,-0.074,1.030,0.350,-2.380,-0.770
1743902745.8493419,0.075,-0.075,1.034,0.420,-2.380,-0.700
1743902745.8693419,0.077,-0.075,1.030,0.420,-2.380,-0.840
1743902745.842653,0.074,-0.075,1.031,0.350,-2.310,-0.770
1743902745.862653,0.073,-0.074,1.028,0.490,-2.450,-0.770
1743902745.882653,0.076,-0.073,1.029,0.350,-2.380,-0.770
1743902745.902653,0.074,-0.075,1.028,0.210,-2.450,-0.770
1743902745.922653,0.076,-0.074,1.031,0.490,-2.310,-0.700
1743902745.942653,0.075,-0.074,1.033,0.350,-2.590,-0.840
1743902745.8744283,0.074,-0.073,1.030,0.420,-2.520,-0.700
1743902745.8944283,0.075,-0.072,1.028,0.350,-2.310,-0.700
1743902745.9144282,0.074,-0.073,1.032,0.280,-2.380,-0.770
1743902745.9344282,0.073,-0.074,1.032,0.350,-2.520,-0.700
1743902745.9544282,0.073,-0.074,1.028,0.210,-2.520,-0.770
1743902745.9744282,0.075,-0.074,1.029,0.280,-2.450,-0.700
1743902745.9036481,0.076,-0.073,1.031,0.280,-2.380,-0.700
1743902745.923648,0.074,-0.073,1.030,0.280,-2.450,-0.840
1743902745.943648,0.075,-0.074,1.031,0.350,-2.590,-0.840
1743902745.963648,0.076,-0.074,1.028,0.420,-2.520,-0.700
1743902745.983648,0.071,-0.074,1.026,0.350,-2.450,-0.700
1743902746.003648,0.075,-0.074,1.030,0.280,-2.520,-0.840
1743902745.9476643,0.075,-0.075,1.032,0.280,-2.450,-0.700
1743902745.9676642,0.076,-0.071,1.029,0.350,-2.590,-0.700
1743902745.9876642,0.076,-0.073,1.033,0.420,-2.450,-0.770
1743902746.0076642,0.075,-0.073,1.034,0.420,-2.520,-0.700
1743902746.0276642,0.075,-0.073,1.034,0.350,-2.520,-0.700
1743902746.0476642,0.075,-0.074,1.029,0.490,-2.380,-0.700
1743902745.994285,0.076,-0.074,1.030,0.350,-2.450,-0.700
1743902746.014285,0.073,-0.074,1.031,0.490,-2.450,-0.770
1743902746.034285,0.075,-0.072,1.032,0.420,-2.520,-0.700
1743902746.054285,0.075,-0.075,1.030,0.350,-2.590,-0.700
1743902746.074285,0.074,-0.072,1.032,0.420,-2.450,-0.700
1743902746.094285,0.076,-0.075,1.031,0.420,-2.450,-0.770
1743902746.0668292,0.074,-0.072,1.028,0.420,-2.380,-0.700
1743902746.0868292,0.076,-0.072,1.028,0.280,-2.450,-0.630
1743902746.1068292,0.075,-0.072,1.028,0.420,-2.380,-0.700
1743902746.1268291,0.074,-0.073,1.032,0.350,-2.380,-0.630
1743902746.1468291,0.075,-0.072,1.029,0.420,-2.450,-0.700
1743902746.166829,0.074,-0.071,1.030,0.420,-2.380,-0.700
1743902746.084005,0.076,-0.073,1.030,0.490,-2.450,-0.770
1743902746.104005,0.075,-0.075,1.030,0.350,-2.310,-0.770
1743902746.124005,0.076,-0.073,1.029,0.350,-2.310,-0.700
1743902746.144005,0.076,-0.074,1.028,0.350,-2.380,-0.770
1743902746.164005,0.076,-0.073,1.031,0.420,-2.310,-0.770
1743902746.184005,0.075,-0.072,1.035,0.350,-2.380,-0.770
1743902746.1267161,0.074,-0.074,1.031,0.350,-2.380,-0.700
1743902746.146716,0.076,-0.075,1.028,0.280,-2.520,-0.630
1743902746.166716,0.075,-0.077,1.029,0.350,-2.310,-0.770
1743902746.186716,0.073,-0.074,1.034,0.490,-2.450,-0.700
1743902746.206716,0.075,-0.073,1.034,0.420,-2.450,-0.700
1743902746.226716,0.077,-0.076,1.030,0.350,-2.380,-0.700
1743902746.1566672,0.076,-0.076,1.031,0.350,-2.380,-0.630
1743902746.1766672,0.076,-0.074,1.034,0.490,-2.450,-0.630
1743902746.1966672,0.076,-0.076,1.032,0.560,-2.380,-0.840
1743902746.2166672,0.074,-0.073,1.030,0.420,-2.450,-0.700
1743902746.2366672,0.076,-0.073,1.028,0.350,-2.380,-0.700
1743902746.2566671,0.074,-0.074,1.032,0.490,-2.380,-0.630
1743902746.202012,0.075,-0.074,1.030,0.490,-2.520,-0.700
1743902746.222012,0.074,-0.074,1.028,0.350,-2.520,-0.700
1743902746.242012,0.075,-0.076,1.028,0.420,-2.380,-0.770
1743902746.262012,0.076,-0.076,1.031,0.420,-2.380,-0.770
1743902746.282012,0.076,-0.074,1.032,0.280,-2.380,-0.700
1743902746.302012,0.074,-0.073,1.028,0.420,-2.240,-0.770
1743902746.2601452,0.074,-0.076,1.029,0.560,-2.520,-0.770
1743902746.2801452,0.075,-0.074,1.031,0.280,-2.590,-0.630
1743902746.3001451,0.076,-0.071,1.032,0.140,-2.450,-0.770
1743902746.3201451,0.074,-0.075,1.033,0.630,-2.450,-0.840
1743902746.340145,0.072,-0.072,1.032,0.350,-2.590,-0.770
1743902746.360145,0.077,-0.075,1.030,0.420,-2.450,-0.700
1743902746.2921631,0.076,-0.076,1.033,0.560,-2.520,-0.840
1743902746.312163,0.074,-0.073,1.030,0.350,-2.450,-0.840
1743902746.332163,0.075,-0.074,1.026,0.350,-2.380,-0.700
1743902746.352163,0.074,-0.073,1.031,0.630,-2.450,-0.700
1743902746.372163,0.075,-0.074,1.032,0.350,-2.450,-0.700
1743902746.392163,0.073,-0.072,1.031,0.280,-2.450,-0.700
1743902746.3656712,0.077,-0.075,1.030,0.490,-2.380,-0.700
1743902746.3856711,0.076,-0.075,1.027,0.420,-2.310,-0.700
1743902746.4056711,0.077,-0.073,1.033,0.280,-2.380,-0.630
1743902746.425671,0.076,-0.076,1.034,0.490,-2.520,-0.770
1743902746.445671,0.075,-0.072,1.031,0.490,-2.310,-0.770
1743902746.465671,0.076,-0.076,1.029,0.350,-2.240,-0.700
1743902746.368729,0.075,-0.074,1.030,0.350,-2.520,-0.840
1743902746.388729,0.077,-0.072,1.031,0.420,-2.450,-0.700
1743902746.408729,0.075,-0.075,1.029,0.350,-2.450,-0.700
1743902746.428729,0.075,-0.074,1.030,0.420,-2.310,-0.700
1743902746.448729,0.076,-0.073,1.032,0.350,-2.380,-0.700
1743902746.468729,0.075,-0.073,1.029,0.070,-2.520,-0.700
1743902746.412573,0.076,-0.075,1.030,0.420,-2.380,-0.840
1743902746.432573,0.076,-0.074,1.033,0.280,-2.310,-0.770
1743902746.452573,0.074,-0.075,1.033,0.490,-2.730,-0.770
1743902746.472573,0.077,-0.075,1.027,0.210,-2.450,-0.630
1743902746.492573,0.074,-0.074,1.031,0.490,-2.310,-0.770
1743902746.512573,0.073,-0.074,1.032,0.560,-2.590,-0.770
1743902746.4718022,0.074,-0.073,1.029,0.140,-2.310,-0.630
1743902746.4918022,0.076,-0.076,1.025,0.350,-2.310,-0.700
1743902746.5118022,0.075,-0.073,1.033,0.560,-2.380,-0.840
1743902746.5318022,0.073,-0.073,1.032,0.140,-2.520,-0.700
1743902746.5518022,0.074,-0.074,1.030,0.420,-2.450,-0.770
1743902746.5718021,0.076,-0.076,1.029,0.280,-2.450,-0.770
1743902746.516861,0.074,-0.072,1.031,0.070,-2.660,-0.770
1743902746.536861,0.076,-0.073,1.031,0.420,-2.380,-0.700
1743902746.556861,0.072,-0.073,1.029,0.350,-2.380,-0.630
1743902746.576861,0.073,-0.073,1.030,0.280,-2.380,-0.700
1743902746.596861,0.074,-0.074,1.030,0.420,-2.450,-0.770
1743902746.6168609,0.075,-0.076,1.031,0.490,-2.450,-0.770
1743902746.561701,0.076,-0.073,1.031,0.350,-2.450,-0.840
1743902746.581701,0.076,-0.076,1.028,0.490,-2.310,-0.770
1743902746.601701,0.075,-0.074,1.030,0.490,-2.310,-0.700
1743902746.621701,0.078,-0.074,1.032,0.420,-2.450,-0.700
1743902746.641701,0.075,-0.075,1.029,0.630,-2.380,-0.700
1743902746.661701,0.075,-0.071,1.031,0.420,-2.380,-0.630
1743902746.5917273,0.076,-0.072,1.031,0.350,-2.380,-0.770
1743902746.6117272,0.076,-0.073,1.031,0.490,-2.380,-0.700
1743902746.6317272,0.074,-0.073,1.028,0.350,-2.450,-0.630
1743902746.6517272,0.075,-0.073,1.030,0.350,-2.520,-0.770
1743902746.6717272,0.075,-0.073,1.030,0.420,-2.450,-0.700
1743902746.6917272,0.075,-0.071,1.031,0.350,-2.310,-0.700
1743902746.6652281,0.075,-0.072,1.033,0.350,-2.450,-0.700
1743902746.685228,0.074,-0.073,1.030,0.420,-2.590,-0.770
1743902746.705228,0.075,-0.075,1.028,0.420,-2.310,-0.770
1743902746.725228,0.071,-0.073,1.030,0.350,-2.380,-0.770
1743902746.745228,0.074,-0.073,1.031,0.560,-2.450,-0.630
1743902746.765228,0.075,-0.073,1.030,0.420,-2.520,-0.770
1743902746.6825862,0.075,-0.075,1.030,0.350,-2.450,-0.700
1743902746.7025862,0.076,-0.074,1.030,0.350,-2.310,-0.770
1743902746.7225862,0.075,-0.074,1.030,0.350,-2.450,-0.770
1743902746.7425861,0.074,-0.072,1.030,0.350,-2.380,-0.770
1743902746.762586,0.075,-0.073,1.029,0.420,-2.310,-0.700
1743902746.782586,0.074,-0.074,1.030,0.420,-2.590,-0.770
1743902746.7270741,0.077,-0.073,1.034,0.350,-2.310,-0.630
1743902746.7470741,0.075,-0.071,1.029,0.350,-2.660,-0.700
1743902746.767074,0.074,-0.074,1.028,0.350,-2.450,-0.770
1743902746.787074,0.078,-0.075,1.032,0.350,-2.450,-0.700
1743902746.807074,0.074,-0.076,1.032,0.420,-2.520,-0.700
1743902746.827074,0.076,-0.073,1.030,0.350,-2.450,-0.840
1743902746.757091,0.074,-0.075,1.029,0.350,-2.380,-0.770
1743902746.777091,0.076,-0.074,1.032,0.350,-2.520,-0.700
1743902746.797091,0.075,-0.072,1.033,0.420,-2.380,-0.770
1743902746.817091,0.074,-0.074,1.031,0.350,-2.520,-0.700
1743902746.837091,0.075,-0.075,1.028,0.420,-2.450,-0.700
1743902746.857091,0.075,-0.072,1.030,0.280,-2.310,-0.770
1743902746.816979,0.073,-0.074,1.030,0.280,-2.380,-0.700
1743902746.836979,0.076,-0.074,1.030,0.420,-2.380,-0.770
1743902746.856979,0.075,-0.075,1.032,0.350,-2.380,-0.630
1743902746.8769789,0.075,-0.075,1.030,0.210,-2.310,-0.840
1743902746.8969789,0.075,-0.073,1.031,0.280,-2.380,-0.770
1743902746.9169788,0.075,-0.073,1.031,0.280,-2.590,-0.630
1743902746.846592,0.075,-0.073,1.029,0.350,-2.310,-0.700
1743902746.866592,0.074,-0.073,1.028,0.420,-2.520,-0.770
1743902746.886592,0.075,-0.072,1.033,0.350,-2.450,-0.700
1743902746.906592,0.075,-0.073,1.028,0.420,-2.380,-0.700
1743902746.9265919,0.075,-0.075,1.031,0.210,-2.450,-0.700
1743902746.9465919,0.076,-0.072,1.030,0.350,-2.380,-0.630
1743902746.892067,0.075,-0.073,1.031,0.490,-2.380,-0.840
1743902746.912067,0.074,-0.073,1.029,0.420,-2.450,-0.770
1743902746.932067,0.077,-0.073,1.027,0.490,-2.520,-0.700
1743902746.952067,0.075,-0.075,1.030,0.420,-2.450,-0.770
1743902746.9720669,0.075,-0.073,1.031,0.350,-2.520,-0.700
1743902746.9920669,0.076,-0.074,1.030,0.490,-2.520,-0.700
1743902746.965754,0.075,-0.073,1.029,0.490,-2.520,-0.700
1743902746.985754,0.073,-0.073,1.031,0.490,-2.380,-0.700
1743902747.005754,0.074,-0.073,1.032,0.350,-2.380,-0.700
1743902747.025754,0.075,-0.073,1.030,0.350,-2.520,-0.770
1743902747.045754,0.074,-0.073,1.028,0.350,-2.240,-0.840
1743902747.065754,0.073,-0.076,1.029,0.350,-2.380,-0.770
1743902746.981935,0.073,-0.074,1.031,0.420,-2.450,-0.770
1743902747.001935,0.075,-0.075,1.031,0.420,-2.380,-0.700
1743902747.021935,0.076,-0.076,1.029,0.350,-2.310,-0.700
1743902747.041935,0.074,-0.074,1.031,0.350,-2.380,-0.770
1743902747.061935,0.076,-0.072,1.033,0.420,-2.450,-0.700
1743902747.081935,0.075,-0.071,1.030,0.280,-2.450,-0.630
1743902747.027424,0.075,-0.073,1.028,0.490,-2.380,-0.770
1743902747.047424,0.073,-0.074,1.031,0.490,-2.450,-0.770
1743902747.067424,0.074,-0.075,1.032,0.420,-2.520,-0.700
1743902747.087424,0.075,-0.072,1.028,0.420,-2.310,-0.700
1743902747.107424,0.075,-0.072,1.027,0.350,-2.380,-0.630
1743902747.127424,0.074,-0.073,1.032,0.350,-2.520,-0.700
1743902747.071726,0.075,-0.074,1.033,0.350,-2.520,-0.770
1743902747.091726,0.075,-0.073,1.030,0.280,-2.380,-0.840
1743902747.111726,0.074,-0.072,1.029,0.420,-2.380,-0.770
1743902747.131726,0.074,-0.071,1.033,0.280,-2.310,-0.700
1743902747.151726,0.074,-0.073,1.035,0.350,-2.450,-0.840
1743902747.171726,0.074,-0.075,1.030,0.350,-2.590,-0.700
1743902747.1018372,0.075,-0.075,1.028,0.280,-2.380,-0.700
1743902747.1218371,0.076,-0.074,1.032,0.420,-2.310,-0.700
1743902747.1418371,0.072,-0.073,1.033,0.420,-2.520,-0.770
1743902747.161837,0.075,-0.070,1.031,0.350,-2.520,-0.770
1743902747.181837,0.076,-0.074,1.028,0.350,-2.450,-0.630
1743902747.201837,0.074,-0.074,1.030,0.350,-2.520,-0.700
1743902747.146946,0.076,-0.073,1.031,0.280,-2.380,-0.770
1743902747.166946,0.074,-0.073,1.030,0.280,-2.590,-0.770
1743902747.186946,0.076,-0.075,1.027,0.350,-2.380,-0.840
1743902747.206946,0.075,-0.074,1.030,0.350,-2.380,-0.770
1743902747.2269459,0.072,-0.075,1.032,0.490,-2.450,-0.700
1743902747.2469459,0.074,-0.074,1.030,0.420,-2.520,-0.700
1743902747.191723,0.076,-0.075,1.029,0.350,-2.450,-0.700
1743902747.211723,0.075,-0.074,1.032,0.280,-2.380,-0.700
1743902747.231723,0.076,-0.073,1.030,0.350,-2.450,-0.770
1743902747.251723,0.074,-0.074,1.029,0.420,-2.450,-0.840
1743902747.271723,0.074,-0.075,1.029,0.420,-2.380,-0.770
1743902747.291723,0.074,-0.073,1.033,0.420,-2.450,-0.700
1743902747.26685,0.075,-0.074,1.031,0.420,-2.380,-0.700
1743902747.28685,0.075,-0.074,1.032,0.280,-2.450,-0.770
1743902747.30685,0.074,-0.072,1.032,0.350,-2.380,-0.840
1743902747.32685,0.075,-0.073,1.031,0.350,-2.450,-0.630
1743902747.34685,0.074,-0.074,1.032,0.420,-2.380,-0.700
1743902747.36685,0.074,-0.073,1.032,0.420,-2.450,-0.770
1743902747.281717,0.075,-0.072,1.028,0.280,-2.380,-0.630
1743902747.301717,0.075,-0.074,1.028,0.420,-2.380,-0.700
1743902747.321717,0.072,-0.074,1.028,0.420,-2.450,-0.770
1743902747.341717,0.074,-0.074,1.030,0.420,-2.520,-0.770
1743902747.361717,0.074,-0.075,1.026,0.350,-2.380,-0.700
1743902747.381717,0.076,-0.073,1.034,0.280,-2.450,-0.770
1743902747.3403392,0.076,-0.073,1.029,0.420,-2.520,-0.630
1743902747.3603392,0.076,-0.075,1.030,0.350,-2.520,-0.700
1743902747.3803391,0.075,-0.074,1.028,0.420,-2.450,-0.700
1743902747.4003391,0.073,-0.074,1.029,0.280,-2.310,-0.700
1743902747.420339,0.076,-0.074,1.033,0.350,-2.380,-0.770
1743902747.440339,0.075,-0.072,1.029,0.350,-2.520,-0.700
1743902747.372139,0.075,-0.072,1.026,0.210,-2.380,-0.770
1743902747.392139,0.077,-0.073,1.029,0.350,-2.450,-0.840
1743902747.412139,0.074,-0.074,1.033,0.560,-2.450,-0.700
1743902747.432139,0.077,-0.072,1.031,0.350,-2.590,-0.630
1743902747.452139,0.073,-0.077,1.029,0.420,-2.450,-0.770
1743902747.472139,0.075,-0.074,1.028,0.350,-2.380,-0.700
1743902747.4170523,0.075,-0.073,1.030,0.420,-2.590,-0.700
1743902747.4370522,0.074,-0.073,1.032,0.350,-2.450,-0.700
1743902747.4570522,0.075,-0.074,1.027,0.350,-2.450,-0.630
1743902747.4770522,0.073,-0.074,1.028,0.350,-2.450,-0.700
1743902747.4970522,0.073,-0.074,1.032,0.350,-2.520,-0.700
1743902747.5170522,0.076,-0.072,1.029,0.280,-2.450,-0.770
1743902747.4620621,0.075,-0.073,1.029,0.280,-2.310,-0.700
1743902747.482062,0.074,-0.073,1.029,0.490,-2.450,-0.630
1743902747.502062,0.076,-0.074,1.032,0.280,-2.380,-0.770
1743902747.522062,0.075,-0.074,1.029,0.420,-2.450,-0.700
1743902747.542062,0.074,-0.074,1.031,0.420,-2.450,-0.770
1743902747.562062,0.075,-0.071,1.031,0.350,-2.380,-0.700
1743902747.506937,0.077,-0.073,1.033,0.490,-2.450,-0.700
1743902747.526937,0.075,-0.074,1.031,0.420,-2.590,-0.770
1743902747.546937,0.077,-0.075,1.027,0.420,-2.380,-0.770
1743902747.566937,0.075,-0.075,1.030,0.350,-2.520,-0.700
1743902747.586937,0.075,-0.075,1.031,0.420,-2.450,-0.770
1743902747.606937,0.075,-0.072,1.029,0.350,-2.450,-0.700
1743902747.5652301,0.075,-0.074,1.030,0.140,-2.450,-0.770
1743902747.58523,0.075,-0.076,1.031,0.280,-2.450,-0.840
1743902747.60523,0.075,-0.073,1.031,0.420,-2.450,-0.770
1743902747.62523,0.075,-0.075,1.030,0.280,-2.450,-0.700
1743902747.64523,0.074,-0.074,1.031,0.280,-2.310,-0.770
1743902747.66523,0.073,-0.072,1.033,0.350,-2.450,-0.700
1743902747.5970771,0.074,-0.073,1.028,0.210,-2.520,-0.630
1743902747.617077,0.073,-0.071,1.029,0.280,-2.380,-0.700
1743902747.637077,0.075,-0.072,1.032,0.210,-2.380,-0.770
1743902747.657077,0.072,-0.073,1.033,0.280,-2.520,-0.770
1743902747.677077,0.075,-0.073,1.029,0.280,-2.450,-0.630
1743902747.697077,0.075,-0.074,1.028,0.350,-2.450,-0.630
1743902747.6275392,0.072,-0.073,1.031,0.350,-2.520,-0.700
1743902747.6475391,0.073,-0.076,1.030,0.350,-2.450,-0.770
1743902747.6675391,0.075,-0.075,1.033,0.420,-2.450,-0.700
1743902747.687539,0.076,-0.073,1.030,0.490,-2.450,-0.700
1743902747.707539,0.075,-0.075,1.030,0.420,-2.380,-0.770
1743902747.727539,0.075,-0.074,1.033,0.420,-2.520,-0.700
1743902747.686897,0.075,-0.074,1.030,0.350,-2.520,-0.770
1743902747.706897,0.076,-0.073,1.031,0.350,-2.380,-0.700
1743902747.726897,0.076,-0.074,1.033,0.420,-2.380,-0.630
1743902747.746897,0.074,-0.075,1.032,0.490,-2.450,-0.770
1743902747.766897,0.075,-0.072,1.032,0.350,-2.520,-0.770
1743902747.786897,0.075,-0.073,1.030,0.350,-2.450,-0.700
1743902747.717564,0.074,-0.074,1.031,0.350,-2.380,-0.700
1743902747.737564,0.073,-0.074,1.033,0.350,-2.450,-0.700
1743902747.757564,0.074,-0.073,1.028,0.350,-2.450,-0.700
1743902747.777564,0.074,-0.073,1.028,0.350,-2.380,-0.770
1743902747.797564,0.074,-0.074,1.034,0.210,-2.380,-0.700
1743902747.817564,0.076,-0.070,1.032,0.350,-2.310,-0.700
1743902747.7616901,0.076,-0.072,1.028,0.350,-2.380,-0.700
1743902747.7816901,0.075,-0.074,1.030,0.350,-2.310,-0.700
1743902747.80169,0.074,-0.073,1.030,0.420,-2.380,-0.700
1743902747.82169,0.076,-0.073,1.033,0.350,-2.380,-0.630
1743902747.84169,0.075,-0.074,1.029,0.420,-2.380,-0.700
1743902747.86169,0.075,-0.074,1.030,0.350,-2.380,-0.770
1743902747.8072042,0.075,-0.074,1.032,0.420,-2.380,-0.770
1743902747.8272042,0.075,-0.072,1.032,0.280,-2.450,-0.700
1743902747.8472042,0.076,-0.074,1.030,0.280,-2.520,-0.770
1743902747.8672042,0.077,-0.072,1.029,0.350,-2.590,-0.700
1743902747.8872042,0.073,-0.071,1.028,0.350,-2.450,-0.840
1743902747.9072042,0.074,-0.071,1.029,0.420,-2.520,-0.770
1743902747.865235,0.075,-0.073,1.029,0.280,-2.520,-0.700
1743902747.885235,0.075,-0.072,1.028,0.350,-2.590,-0.700
1743902747.905235,0.076,-0.073,1.030,0.280,-2.520,-0.630
1743902747.925235,0.075,-0.073,1.033,0.350,-2.380,-0.770
1743902747.945235,0.075,-0.072,1.030,0.350,-2.450,-0.700
1743902747.965235,0.073,-0.072,1.027,0.280,-2.520,-0.770
1743902747.897134,0.073,-0.075,1.031,0.280,-2.380,-0.700
1743902747.917134,0.074,-0.074,1.033,0.420,-2.450,-0.770
1743902747.937134,0.074,-0.072,1.033,0.560,-2.380,-0.770
1743902747.957134,0.073,-0.073,1.027,0.280,-2.380,-0.700
1743902747.977134,0.074,-0.076,1.026,0.420,-2.240,-0.700
1743902747.997134,0.076,-0.075,1.032,0.420,-2.380,-0.770
1743902747.9417152,0.072,-0.071,1.034,0.210,-2.450,-0.700
1743902747.9617152,0.074,-0.075,1.030,0.350,-2.520,-0.770
1743902747.9817152,0.075,-0.072,1.026,0.280,-2.380,-0.770
1743902748.0017152,0.075,-0.074,1.029,0.350,-2.590,-0.700
1743902748.0217152,0.076,-0.075,1.030,0.280,-2.380,-0.770
1743902748.0417151,0.075,-0.074,1.028,0.420,-2.450,-0.700
1743902747.972289,0.075,-0.074,1.032,0.350,-2.450,-0.630
1743902747.992289,0.075,-0.073,1.031,0.420,-2.520,-0.630
1743902748.012289,0.075,-0.073,1.030,0.350,-2.450,-0.770
1743902748.032289,0.074,-0.074,1.027,0.350,-2.380,-0.700
1743902748.052289,0.077,-0.075,1.032,0.420,-2.450,-0.630
1743902748.072289,0.074,-0.073,1.030,0.350,-2.450,-0.700
1743902748.017014,0.074,-0.074,1.030,0.280,-2.660,-0.770
1743902748.037014,0.075,-0.074,1.028,0.420,-2.380,-0.770
1743902748.057014,0.075,-0.074,1.030,0.490,-2.380,-0.770
1743902748.077014,0.075,-0.072,1.031,0.420,-2.520,-0.770
1743902748.097014,0.074,-0.074,1.031,0.350,-2.520,-0.700
1743902748.117014,0.078,-0.074,1.029,0.350,-2.450,-0.770
1743902748.0625153,0.075,-0.072,1.031,0.420,-2.520,-0.770
1743902748.0825152,0.075,-0.075,1.030,0.490,-2.450,-0.700
1743902748.1025152,0.073,-0.075,1.031,0.350,-2.380,-0.770
1743902748.1225152,0.076,-0.075,1.031,0.280,-2.450,-0.700
1743902748.1425152,0.074,-0.074,1.030,0.350,-2.450,-0.770
1743902748.1625152,0.077,-0.073,1.028,0.280,-2.520,-0.770
1743902748.107155,0.075,-0.074,1.031,0.350,-2.450,-0.770
1743902748.127155,0.075,-0.075,1.027,0.490,-2.520,-0.700
1743902748.147155,0.077,-0.073,1.029,0.280,-2.450,-0.700
1743902748.167155,0.075,-0.074,1.031,0.280,-2.380,-0.840
1743902748.187155,0.076,-0.074,1.032,0.280,-2.520,-0.770
1743902748.207155,0.076,-0.073,1.031,0.350,-2.450,-0.630
1743902748.1652112,0.074,-0.073,1.028,0.350,-2.450,-0.700
1743902748.1852112,0.076,-0.072,1.032,0.350,-2.310,-0.700
1743902748.2052112,0.075,-0.074,1.029,0.280,-2.450,-0.770
1743902748.2252111,0.077,-0.072,1.031,0.350,-2.450,-0.770
1743902748.2452111,0.074,-0.072,1.030,0.280,-2.380,-0.630
1743902748.265211,0.077,-0.074,1.029,0.350,-2.380,-0.700
1743902748.181952,0.076,-0.074,1.034,0.490,-2.380,-0.700
1743902748.201952,0.075,-0.072,1.032,0.350,-2.310,-0.700
1743902748.221952,0.075,-0.075,1.030,0.490,-2.520,-0.700
1743902748.241952,0.075,-0.074,1.031,0.350,-2.170,-0.700
1743902748.261952,0.074,-0.076,1.034,0.490,-2.450,-0.630
1743902748.281952,0.075,-0.072,1.032,0.420,-2.520,-0.770
1743902748.227914,0.074,-0.072,1.029,0.420,-2.520,-0.700
1743902748.247914,0.077,-0.074,1.030,0.420,-2.380,-0.700
1743902748.267914,0.075,-0.076,1.031,0.350,-2.450,-0.770
1743902748.287914,0.073,-0.075,1.030,0.420,-2.380,-0.700
1743902748.307914,0.077,-0.072,1.029,0.350,-2.520,-0.770
1743902748.327914,0.077,-0.073,1.030,0.350,-2.520,-0.700
1743902748.285139,0.075,-0.073,1.030,0.280,-2.380,-0.700
1743902748.305139,0.075,-0.072,1.031,0.350,-2.450,-0.770
1743902748.325139,0.074,-0.076,1.034,0.280,-2.450,-0.700
1743902748.345139,0.075,-0.075,1.027,0.350,-2.590,-0.630
1743902748.365139,0.076,-0.075,1.032,0.280,-2.450,-0.770
1743902748.385139,0.074,-0.074,1.031,0.350,-2.450,-0.840
1743902748.315251,0.077,-0.072,1.028,0.280,-2.450,-0.770
1743902748.335251,0.077,-0.072,1.030,0.350,-2.450,-0.700
1743902748.355251,0.074,-0.073,1.029,0.350,-2.450,-0.770
1743902748.375251,0.074,-0.073,1.031,0.420,-2.450,-0.770
1743902748.395251,0.075,-0.075,1.033,0.420,-2.380,-0.700
1743902748.415251,0.076,-0.074,1.031,0.420,-2.520,-0.700
1743902748.3600802,0.074,-0.073,1.029,0.350,-2.240,-0.770
1743902748.3800802,0.076,-0.073,1.034,0.350,-2.450,-0.770
1743902748.4000802,0.074,-0.074,1.033,0.350,-2.450,-0.840
1743902748.4200802,0.074,-0.073,1.030,0.350,-2.380,-0.700
1743902748.4400802,0.074,-0.074,1.029,0.280,-2.310,-0.700
1743902748.4600801,0.075,-0.074,1.032,0.350,-2.310,-0.840
1743902748.391923,0.074,-0.075,1.033,0.350,-2.380,-0.770
1743902748.411923,0.076,-0.074,1.031,0.280,-2.590,-0.700
1743902748.431923,0.075,-0.074,1.028,0.350,-2.450,-0.770
1743902748.451923,0.073,-0.075,1.031,0.420,-2.310,-0.770
1743902748.4719229,0.075,-0.075,1.034,0.350,-2.520,-0.700
1743902748.4919229,0.074,-0.075,1.028,0.280,-2.590,-0.700
1743902748.46513,0.075,-0.073,1.028,0.490,-2.520,-0.700
1743902748.48513,0.075,-0.074,1.028,0.420,-2.450,-0.700
1743902748.50513,0.073,-0.076,1.033,0.350,-2.310,-0.770
1743902748.52513,0.076,-0.071,1.029,0.490,-2.520,-0.770
1743902748.54513,0.076,-0.074,1.029,0.490,-2.310,-0.770
1743902748.56513,0.076,-0.075,1.029,0.350,-2.450,-0.700
1743902748.482696,0.074,-0.075,1.029,0.420,-2.240,-0.700
1743902748.502696,0.078,-0.072,1.030,0.490,-2.380,-0.630
1743902748.522696,0.076,-0.073,1.028,0.560,-2.590,-0.770
1743902748.542696,0.078,-0.073,1.034,0.420,-2.170,-0.770
1743902748.562696,0.075,-0.073,1.032,0.420,-2.520,-0.770
1743902748.582696,0.074,-0.072,1.030,0.420,-2.240,-0.700
1743902748.5271282,0.076,-0.073,1.029,0.490,-2.240,-0.770
1743902748.5471282,0.075,-0.074,1.031,0.490,-2.590,-0.770
1743902748.5671282,0.076,-0.072,1.029,0.420,-2.240,-0.630
1743902748.5871282,0.074,-0.072,1.031,0.490,-2.590,-0.700
1743902748.6071281,0.074,-0.072,1.029,0.490,-2.240,-0.770
1743902748.6271281,0.072,-0.071,1.031,0.350,-2.240,-0.840
1743902748.5566611,0.073,-0.074,1.029,0.490,-2.450,-0.700
1743902748.576661,0.073,-0.074,1.028,0.560,-2.450,-0.700
1743902748.596661,0.074,-0.074,1.031,0.350,-2.310,-0.770
1743902748.616661,0.074,-0.072,1.031,0.350,-2.520,-0.700
1743902748.636661,0.073,-0.074,1.034,0.420,-2.380,-0.630
1743902748.656661,0.072,-0.073,1.032,0.420,-2.380,-0.770
1743902748.601803,0.071,-0.072,1.029,0.350,-2.520,-0.700
1743902748.621803,0.075,-0.074,1.029,0.490,-2.310,-0.700
1743902748.641803,0.074,-0.072,1.031,0.280,-2.310,-0.770
1743902748.661803,0.075,-0.072,1.032,0.350,-2.450,-0.770
1743902748.681803,0.076,-0.073,1.027,0.350,-2.240,-0.700
1743902748.701803,0.074,-0.074,1.031,0.280,-2.310,-0.700
1743902748.6467233,0.075,-0.074,1.032,0.350,-2.310,-0.630
1743902748.6667233,0.076,-0.075,1.031,0.350,-2.380,-0.700
1743902748.6867232,0.075,-0.074,1.029,0.350,-2.380,-0.630
1743902748.7067232,0.075,-0.074,1.030,0.490,-2.450,-0.770
1743902748.7267232,0.074,-0.075,1.029,0.560,-2.450,-0.700
1743902748.7467232,0.073,-0.072,1.032,0.490,-2.520,-0.700
1743902748.6917691,0.077,-0.075,1.029,0.420,-2.590,-0.700
1743902748.711769,0.078,-0.076,1.027,0.560,-2.520,-0.700
1743902748.731769,0.074,-0.077,1.030,0.490,-2.310,-0.700
1743902748.751769,0.074,-0.076,1.032,0.630,-2.660,-0.770
1743902748.771769,0.075,-0.074,1.031,0.560,-2.660,-0.770
1743902748.791769,0.078,-0.073,1.029,0.630,-2.380,-0.700
1743902748.765256,0.075,-0.072,1.031,0.770,-2.380,-0.700
1743902748.785256,0.076,-0.073,1.033,0.420,-2.450,-0.700
1743902748.805256,0.076,-0.073,1.028,0.700,-2.590,-0.700
1743902748.8252559,0.076,-0.070,1.031,0.490,-2.170,-0.700
1743902748.8452559,0.078,-0.072,1.033,0.350,-2.170,-0.700
1743902748.8652558,0.076,-0.073,1.027,0.560,-2.310,-0.770
1743902748.7802181,0.079,-0.072,1.035,0.490,-2.170,-0.630
1743902748.800218,0.077,-0.070,1.032,0.210,-2.100,-0.700
1743902748.820218,0.076,-0.075,1.026,0.210,-2.030,-0.770
1743902748.840218,0.079,-0.073,1.025,0.350,-1.750,-0.630
1743902748.860218,0.077,-0.072,1.035,0.490,-1.680,-0.630
1743902748.880218,0.074,-0.074,1.032,0.280,-2.030,-0.770
1743902748.8120291,0.074,-0.072,1.025,0.210,-2.170,-0.700
1743902748.832029,0.076,-0.076,1.024,0.490,-1.540,-0.700
1743902748.852029,0.072,-0.071,1.034,0.490,-1.680,-0.700
1743902748.872029,0.072,-0.072,1.031,0.280,-2.100,-0.770
1743902748.892029,0.073,-0.071,1.027,0.560,-1.890,-0.630
1743902748.912029,0.074,-0.069,1.027,0.350,-2.030,-0.770
1743902748.8417602,0.074,-0.071,1.033,0.210,-2.170,-0.700
1743902748.8617601,0.072,-0.072,1.033,0.210,-2.100,-0.700
1743902748.8817601,0.072,-0.071,1.028,0.210,-2.170,-0.840
1743902748.90176,0.072,-0.072,1.029,0.140,-2.170,-0.700
1743902748.92176,0.074,-0.073,1.033,0.210,-2.310,-0.700
1743902748.94176,0.072,-0.074,1.030,0.140,-2.240,-0.770
1743902748.886732,0.072,-0.075,1.031,0.140,-2.310,-0.840
1743902748.906732,0.074,-0.074,1.028,0.070,-2.310,-0.840
1743902748.926732,0.072,-0.074,1.032,0.210,-2.450,-0.840
1743902748.946732,0.074,-0.075,1.031,0.210,-2.590,-0.770
1743902748.966732,0.073,-0.073,1.031,-0.070,-2.800,-0.770
1743902748.986732,0.074,-0.076,1.027,0.210,-2.380,-0.700
1743902748.9323761,0.074,-0.076,1.030,0.210,-2.730,-0.910
1743902748.9523761,0.076,-0.075,1.034,0.070,-2.380,-0.770
1743902748.972376,0.074,-0.075,1.030,0.140,-2.730,-0.770
1743902748.992376,0.076,-0.074,1.030,0.630,-2.450,-0.700
1743902749.012376,0.074,-0.074,1.028,0.630,-2.870,-0.700
1743902749.032376,0.073,-0.074,1.031,0.630,-2.800,-0.770
1743902748.975863,0.072,-0.075,1.034,0.350,-2.940,-0.770
1743902748.995863,0.074,-0.074,1.030,0.280,-2.520,-0.770
1743902749.015863,0.073,-0.071,1.028,0.560,-2.660,-0.770
1743902749.035863,0.075,-0.074,1.033,0.490,-2.800,-0.770
1743902749.055863,0.077,-0.075,1.028,0.420,-2.450,-0.770
1743902749.075863,0.076,-0.073,1.034,0.280,-2.590,-0.630
1743902749.050325,0.073,-0.073,1.028,0.210,-2.870,-0.770
1743902749.070325,0.075,-0.072,1.028,0.630,-2.590,-0.700
1743902749.0903249,0.077,-0.072,1.034,0.420,-2.450,-0.630
1743902749.1103249,0.075,-0.074,1.029,0.140,-2.590,-0.840
1743902749.1303248,0.074,-0.072,1.033,0.700,-2.100,-0.630
1743902749.1503248,0.075,-0.072,1.033,0.140,-2.590,-0.700
1743902749.066494,0.075,-0.073,1.031,0.560,-2.380,-0.770
1743902749.086494,0.079,-0.073,1.028,0.700,-2.380,-0.700
1743902749.106494,0.075,-0.071,1.029,0.280,-2.380,-0.630
1743902749.126494,0.074,-0.070,1.030,0.280,-2.520,-0.770
1743902749.146494,0.076,-0.071,1.031,0.770,-2.450,-0.700
1743902749.166494,0.074,-0.073,1.031,0.280,-2.310,-0.770
1743902749.110137,0.075,-0.071,1.026,0.490,-2.450,-0.630
1743902749.130137,0.075,-0.074,1.032,0.420,-2.240,-0.630
1743902749.150137,0.074,-0.071,1.031,0.350,-2.380,-0.700
1743902749.170137,0.074,-0.070,1.030,0.280,-2.310,-0.770
1743902749.190137,0.076,-0.074,1.030,0.560,-2.310,-0.840
1743902749.210137,0.075,-0.074,1.030,0.350,-2.240,-0.700
1743902749.126573,0.072,-0.073,1.032,0.350,-2.520,-0.770
1743902749.146573,0.074,-0.073,1.030,0.350,-2.520,-0.840
1743902749.166573,0.074,-0.074,1.030,0.350,-2.520,-0.700
1743902749.186573,0.074,-0.074,1.032,0.210,-2.380,-0.700
1743902749.206573,0.074,-0.073,1.030,0.280,-2.590,-0.700
1743902749.226573,0.076,-0.071,1.033,0.210,-2.590,-0.700
1743902749.1873732,0.073,-0.073,1.029,0.210,-2.660,-0.700
1743902749.2073731,0.072,-0.073,1.032,0.070,-2.590,-0.840
1743902749.2273731,0.073,-0.076,1.034,0.210,-2.870,-0.630
1743902749.247373,0.074,-0.075,1.029,0.210,-2.520,-0.770
1743902749.267373,0.072,-0.074,1.030,0.140,-2.590,-0.840
1743902749.287373,0.075,-0.074,1.033,0.210,-2.730,-0.770
1743902749.2166672,0.072,-0.074,1.031,0.210,-2.730,-0.840
1743902749.2366672,0.076,-0.075,1.028,0.280,-2.590,-0.840
1743902749.2566671,0.075,-0.075,1.029,0.420,-2.590,-0.770
1743902749.276667,0.076,-0.071,1.029,0.280,-2.590,-0.770
1743902749.296667,0.076,-0.074,1.035,0.280,-2.590,-0.700
1743902749.316667,0.075,-0.074,1.034,0.280,-2.660,-0.700
1743902749.2617831,0.076,-0.074,1.029,0.350,-2.660,-0.630
1743902749.281783,0.074,-0.074,1.029,0.280,-2.590,-0.700
1743902749.301783,0.072,-0.074,1.032,0.280,-2.450,-0.770
1743902749.321783,0.071,-0.072,1.029,0.350,-2.520,-0.700
1743902749.341783,0.077,-0.076,1.028,0.350,-2.590,-0.630
1743902749.361783,0.074,-0.074,1.030,0.420,-2.450,-0.770
1743902749.366413,0.077,-0.073,1.032,0.210,-2.380,-0.700
1743902749.386413,0.073,-0.074,1.032,0.280,-2.450,-0.700
1743902749.406413,0.074,-0.073,1.027,0.420,-2.730,-0.700
1743902749.426413,0.072,-0.072,1.028,0.420,-2.450,-0.630
1743902749.446413,0.075,-0.072,1.034,0.490,-2.520,-0.700
1743902749.466413,0.073,-0.074,1.031,0.350,-2.520,-0.770
1743902749.3989751,0.076,-0.072,1.027,0.490,-2.380,-0.700
1743902749.418975,0.075,-0.072,1.036,0.490,-2.380,-0.700
1743902749.438975,0.076,-0.074,1.034,0.350,-2.590,-0.770
1743902749.458975,0.078,-0.075,1.029,0.490,-2.310,-0.700
1743902749.478975,0.077,-0.074,1.029,0.420,-2.310,-0.770
1743902749.498975,0.072,-0.073,1.032,0.210,-2.310,-0.700
1743902749.400854,0.074,-0.073,1.034,0.420,-2.590,-0.700
1743902749.420854,0.074,-0.075,1.033,0.490,-2.380,-0.770
1743902749.440854,0.073,-0.074,1.028,0.630,-2.450,-0.630
1743902749.460854,0.074,-0.072,1.030,0.350,-2.310,-0.560
1743902749.480854,0.072,-0.074,1.032,0.490,-2.450,-0.630
1743902749.500854,0.074,-0.073,1.032,0.420,-2.520,-0.700
1743902749.4418972,0.074,-0.072,1.030,0.350,-2.450,-0.700
1743902749.4618971,0.076,-0.074,1.030,0.280,-2.450,-0.630
1743902749.481897,0.074,-0.071,1.033,0.350,-2.450,-0.630
1743902749.501897,0.075,-0.073,1.027,0.350,-2.730,-0.700
1743902749.521897,0.078,-0.075,1.029,0.420,-2.380,-0.770
1743902749.541897,0.074,-0.072,1.030,0.350,-2.590,-0.700
1743902749.488182,0.074,-0.073,1.031,0.350,-2.660,-0.700
1743902749.508182,0.075,-0.074,1.030,0.420,-2.730,-0.630
1743902749.528182,0.077,-0.074,1.027,0.490,-2.590,-0.700
1743902749.548182,0.077,-0.073,1.031,0.280,-2.590,-0.770
1743902749.568182,0.074,-0.074,1.032,0.560,-2.730,-0.770
1743902749.588182,0.074,-0.073,1.028,0.140,-2.450,-0.840
1743902749.518835,0.075,-0.074,1.031,0.070,-2.380,-0.770
1743902749.538835,0.073,-0.074,1.032,0.420,-2.380,-0.770
1743902749.558835,0.075,-0.074,1.032,0.280,-2.660,-0.770
1743902749.578835,0.072,-0.075,1.030,0.210,-2.520,-0.770
1743902749.598835,0.076,-0.074,1.029,0.280,-2.450,-0.770
1743902749.618835,0.074,-0.073,1.033,0.350,-2.450,-0.700
1743902749.5906541,0.076,-0.075,1.029,0.420,-2.450,-0.770
1743902749.610654,0.074,-0.076,1.030,0.420,-2.590,-0.770
1743902749.630654,0.076,-0.074,1.029,0.350,-2.450,-0.770
1743902749.650654,0.076,-0.073,1.034,0.350,-2.380,-0.700
1743902749.670654,0.074,-0.075,1.031,0.420,-2.450,-0.770
1743902749.690654,0.075,-0.074,1.030,0.420,-2.450,-0.840
1743902749.607924,0.075,-0.075,1.028,0.350,-2.310,-0.770
1743902749.627924,0.074,-0.074,1.031,0.350,-2.380,-0.700
1743902749.647924,0.075,-0.074,1.031,0.350,-2.310,-0.700
1743902749.667924,0.075,-0.075,1.030,0.490,-2.310,-0.630
1743902749.687924,0.074,-0.073,1.027,0.420,-2.520,-0.700
1743902749.707924,0.075,-0.072,1.030,0.280,-2.380,-0.770
1743902749.6524181,0.074,-0.074,1.031,0.560,-2.380,-0.700
1743902749.672418,0.076,-0.073,1.030,0.280,-2.520,-0.770
1743902749.692418,0.076,-0.075,1.029,0.490,-2.590,-0.700
1743902749.712418,0.078,-0.073,1.029,0.630,-2.450,-0.700
1743902749.732418,0.076,-0.073,1.031,0.420,-2.240,-0.700
1743902749.752418,0.074,-0.070,1.032,0.070,-2.660,-0.700
1743902749.682396,0.073,-0.073,1.031,0.350,-2.380,-0.700
1743902749.702396,0.077,-0.074,1.028,0.630,-2.520,-0.700
1743902749.722396,0.076,-0.075,1.032,0.350,-2.520,-0.700
1743902749.7423959,0.074,-0.073,1.031,0.560,-2.590,-0.700
1743902749.7623959,0.073,-0.074,1.032,0.420,-2.520,-0.770
1743902749.7823958,0.074,-0.073,1.027,0.350,-2.730,-0.770
1743902749.7412372,0.075,-0.074,1.029,0.140,-2.520,-0.770
1743902749.7612371,0.075,-0.073,1.030,0.210,-2.240,-0.700
1743902749.7812371,0.075,-0.071,1.029,0.280,-2.450,-0.700
1743902749.801237,0.076,-0.073,1.029,0.280,-2.310,-0.700
1743902749.821237,0.074,-0.075,1.029,0.490,-2.380,-0.770
1743902749.841237,0.076,-0.073,1.029,0.350,-2.450,-0.770
1743902749.770472,0.074,-0.074,1.032,0.420,-2.590,-0.770
1743902749.790472,0.076,-0.074,1.030,0.350,-2.520,-0.700
1743902749.810472,0.073,-0.075,1.031,0.490,-2.660,-0.700
1743902749.830472,0.075,-0.075,1.031,0.350,-2.380,-0.700
1743902749.850472,0.073,-0.074,1.034,0.280,-2.380,-0.770
1743902749.870472,0.074,-0.074,1.030,0.350,-2.380,-0.700
1743902749.817697,0.076,-0.074,1.026,0.420,-2.310,-0.770
1743902749.837697,0.076,-0.075,1.029,0.490,-2.380,-0.700
1743902749.857697,0.075,-0.075,1.032,0.420,-2.450,-0.700
1743902749.877697,0.077,-0.073,1.027,0.420,-2.380,-0.770
1743902749.897697,0.074,-0.075,1.027,0.280,-2.310,-0.700
1743902749.917697,0.073,-0.074,1.033,0.420,-2.380,-0.770
1743902749.877912,0.074,-0.076,1.034,0.350,-2.450,-0.770
1743902749.897912,0.075,-0.074,1.025,0.350,-2.380,-0.630
1743902749.917912,0.075,-0.072,1.033,0.490,-2.380,-0.700
1743902749.937912,0.074,-0.074,1.029,0.350,-2.450,-0.770
1743902749.957912,0.076,-0.074,1.029,0.420,-2.450,-0.770
1743902749.977912,0.076,-0.073,1.027,0.420,-2.520,-0.700
1743902749.9206011,0.076,-0.075,1.031,0.280,-2.380,-0.840
1743902749.940601,0.073,-0.075,1.032,0.490,-2.450,-0.770
1743902749.960601,0.077,-0.074,1.030,0.350,-2.520,-0.630
1743902749.980601,0.075,-0.073,1.029,0.420,-2.520,-0.630
1743902750.000601,0.075,-0.074,1.032,0.350,-2.310,-0.770
1743902750.020601,0.076,-0.075,1.031,0.490,-2.450,-0.700
1743902749.9505281,0.072,-0.075,1.032,0.210,-2.310,-0.770
1743902749.9705281,0.074,-0.074,1.030,0.560,-2.450,-0.770
1743902749.990528,0.076,-0.075,1.027,0.350,-2.520,-0.770
1743902750.010528,0.075,-0.072,1.029,0.490,-2.730,-0.770
1743902750.030528,0.075,-0.074,1.031,0.210,-2.310,-0.700
1743902750.050528,0.076,-0.073,1.032,0.560,-2.520,-0.560
1743902749.98266,0.075,-0.073,1.031,0.140,-2.310,-0.630
1743902750.00266,0.075,-0.074,1.030,0.280,-2.310,-0.840
1743902750.02266,0.075,-0.074,1.031,0.280,-2.520,-0.700
1743902750.04266,0.075,-0.072,1.030,0.490,-2.520,-0.700
1743902750.06266,0.075,-0.072,1.028,0.350,-2.520,-0.770
1743902750.08266,0.074,-0.074,1.030,0.630,-2.380,-0.770
1743902750.0126572,0.072,-0.074,1.033,0.210,-2.310,-0.700
1743902750.0326571,0.074,-0.073,1.031,0.000,-2.310,-0.630
1743902750.0526571,0.074,-0.072,1.029,0.560,-2.450,-0.840
1743902750.072657,0.074,-0.072,1.029,0.140,-2.450,-0.770
1743902750.092657,0.074,-0.070,1.033,0.210,-2.380,-0.630
1743902750.112657,0.076,-0.072,1.030,0.070,-2.520,-0.700
1743902750.075654,0.074,-0.075,1.031,0.280,-2.380,-0.700
1743902750.095654,0.075,-0.072,1.029,0.490,-2.590,-0.630
1743902750.115654,0.074,-0.073,1.030,0.490,-2.520,-0.630
1743902750.135654,0.075,-0.074,1.029,0.490,-2.660,-0.700
1743902750.155654,0.073,-0.074,1.030,0.560,-2.590,-0.700
1743902750.175654,0.075,-0.075,1.032,0.280,-2.450,-0.770
1743902750.1020641,0.076,-0.073,1.028,0.070,-2.590,-0.840
1743902750.122064,0.073,-0.073,1.030,0.280,-2.310,-0.700
1743902750.142064,0.074,-0.075,1.028,0.490,-2.450,-0.770
1743902750.162064,0.074,-0.072,1.028,0.490,-2.520,-0.700
1743902750.182064,0.075,-0.074,1.033,0.490,-2.240,-0.700
1743902750.202064,0.074,-0.075,1.031,0.560,-2.590,-0.770
1743902750.1475792,0.076,-0.074,1.030,0.490,-2.520,-0.700
1743902750.1675792,0.074,-0.072,1.032,0.560,-2.590,-0.630
1743902750.1875792,0.072,-0.075,1.029,0.630,-2.590,-0.700
1743902750.2075791,0.073,-0.077,1.032,0.560,-2.660,-0.770
1743902750.227579,0.076,-0.075,1.033,0.490,-2.380,-0.700
1743902750.247579,0.076,-0.072,1.028,0.350,-2.310,-0.700
1743902750.193235,0.076,-0.075,1.034,0.140,-2.170,-0.700
1743902750.213235,0.077,-0.074,1.031,0.490,-2.590,-0.700
1743902750.233235,0.075,-0.075,1.035,0.490,-2.520,-0.630
1743902750.2532349,0.074,-0.072,1.028,0.210,-2.240,-0.770
1743902750.2732348,0.074,-0.074,1.032,-0.070,-2.240,-0.770
1743902750.2932348,0.077,-0.073,1.032,0.070,-2.240,-0.700
1743902750.251213,0.076,-0.075,1.027,0.070,-2.380,-0.700
1743902750.271213,0.076,-0.072,1.026,0.420,-2.240,-0.630
1743902750.291213,0.075,-0.071,1.031,0.560,-2.520,-0.700
1743902750.311213,0.074,-0.073,1.031,0.210,-2.730,-0.700
1743902750.331213,0.073,-0.072,1.029,0.350,-2.380,-0.700
1743902750.351213,0.074,-0.072,1.027,0.280,-2.310,-0.840
1743902750.282106,0.072,-0.072,1.030,0.420,-2.380,-0.770
1743902750.302106,0.075,-0.073,1.031,0.420,-2.590,-0.700
1743902750.322106,0.073,-0.074,1.028,0.350,-2.450,-0.840
1743902750.3421059,0.076,-0.075,1.029,0.280,-2.310,-0.700
1743902750.3621058,0.076,-0.074,1.032,0.210,-2.450,-0.770
1743902750.3821058,0.077,-0.074,1.033,0.490,-2.450,-0.770
1743902750.312051,0.077,-0.071,1.028,0.490,-2.660,-0.770
1743902750.332051,0.075,-0.074,1.032,0.140,-2.380,-0.630
1743902750.352051,0.076,-0.074,1.031,0.420,-2.450,-0.700
1743902750.372051,0.074,-0.074,1.031,0.420,-2.520,-0.700
1743902750.392051,0.076,-0.071,1.030,0.210,-2.380,-0.700
1743902750.412051,0.076,-0.075,1.029,0.210,-2.520,-0.700
1743902750.357387,0.076,-0.075,1.029,0.630,-2.310,-0.770
1743902750.377387,0.076,-0.075,1.035,0.140,-2.590,-0.700
1743902750.397387,0.070,-0.074,1.030,0.770,-2.730,-0.770
1743902750.417387,0.080,-0.073,1.027,0.770,-2.240,-0.700
1743902750.437387,0.070,-0.071,1.033,0.210,-2.450,-0.700
1743902750.457387,0.077,-0.076,1.030,0.630,-2.380,-0.770
1743902750.417368,0.078,-0.073,1.031,0.350,-1.890,-0.700
1743902750.437368,0.075,-0.072,1.031,-0.070,-2.870,-0.770
1743902750.457368,0.075,-0.075,1.030,0.420,-1.960,-0.700
1743902750.4773679,0.078,-0.075,1.030,0.350,-1.750,-0.700
1743902750.4973679,0.071,-0.074,1.028,0.140,-3.010,-0.770
1743902750.5173678,0.078,-0.075,1.032,0.210,-1.960,-0.770
1743902750.447732,0.075,-0.073,1.031,0.490,-2.310,-0.770
1743902750.467732,0.073,-0.073,1.032,0.210,-2.940,-0.700
1743902750.487732,0.079,-0.074,1.035,0.140,-1.890,-0.630
1743902750.507732,0.071,-0.073,1.032,0.280,-2.870,-0.630
1743902750.527732,0.075,-0.073,1.031,0.350,-1.820,-0.630
1743902750.5477319,0.079,-0.076,1.029,0.350,-2.730,-0.700
1743902750.476924,0.074,-0.074,1.030,0.700,-2.940,-0.770
1743902750.496924,0.078,-0.074,1.033,0.210,-2.240,-0.770
1743902750.516924,0.076,-0.073,1.032,0.140,-2.660,-0.770
1743902750.536924,0.073,-0.077,1.030,0.490,-2.660,-0.770
1743902750.5569239,0.077,-0.073,1.032,0.420,-1.960,-0.700
1743902750.5769238,0.074,-0.074,1.032,0.280,-2.380,-0.700
1743902750.51083,0.076,-0.076,1.028,0.420,-2.450,-0.770
1743902750.53083,0.077,-0.075,1.029,0.490,-2.100,-0.700
1743902750.55083,0.076,-0.074,1.032,0.350,-2.590,-0.770
1743902750.5708299,0.076,-0.074,1.034,0.350,-2.590,-0.700
1743902750.5908298,0.077,-0.073,1.030,0.490,-2.380,-0.700
1743902750.6108298,0.074,-0.075,1.028,0.420,-2.450,-0.700
1743902750.5527601,0.077,-0.075,1.029,0.350,-2.730,-0.700
1743902750.57276,0.076,-0.074,1.032,0.420,-2.310,-0.700
1743902750.59276,0.074,-0.074,1.037,0.560,-2.380,-0.770
1743902750.61276,0.074,-0.073,1.028,0.350,-2.590,-0.770
1743902750.63276,0.077,-0.076,1.030,0.280,-2.100,-0.770
1743902750.65276,0.074,-0.077,1.032,0.420,-2.450,-0.840
1743902750.597496,0.074,-0.073,1.033,0.420,-2.450,-0.700
1743902750.617496,0.078,-0.071,1.034,0.280,-2.380,-0.770
1743902750.637496,0.075,-0.075,1.030,0.280,-2.380,-0.770
1743902750.657496,0.074,-0.074,1.029,0.350,-2.520,-0.700
1743902750.677496,0.075,-0.072,1.032,0.420,-2.240,-0.770
1743902750.697496,0.073,-0.073,1.031,0.280,-2.520,-0.840
1743902750.6272712,0.078,-0.075,1.028,0.490,-2.310,-0.700
1743902750.6472712,0.076,-0.074,1.029,0.420,-2.380,-0.700
1743902750.6672711,0.076,-0.073,1.032,0.560,-2.660,-0.700
1743902750.687271,0.076,-0.073,1.032,0.350,-2.380,-0.700
1743902750.707271,0.075,-0.073,1.031,0.350,-2.520,-0.770
1743902750.727271,0.075,-0.075,1.029,0.490,-2.450,-0.770
1743902750.6870031,0.077,-0.076,1.029,0.140,-2.240,-0.700
1743902750.707003,0.073,-0.074,1.031,0.350,-2.520,-0.770
1743902750.727003,0.077,-0.074,1.026,0.140,-2.520,-0.840
1743902750.747003,0.076,-0.074,1.031,0.210,-2.450,-0.770
1743902750.767003,0.075,-0.073,1.032,0.350,-2.520,-0.770
1743902750.787003,0.077,-0.076,1.034,0.560,-2.520,-0.770
1743902750.717667,0.076,-0.074,1.031,0.420,-2.520,-0.630
1743902750.737667,0.077,-0.074,1.033,0.280,-2.310,-0.700
1743902750.757667,0.076,-0.074,1.030,0.490,-2.240,-0.770
1743902750.777667,0.073,-0.074,1.030,0.210,-2.520,-0.700
1743902750.797667,0.076,-0.072,1.029,0.350,-2.450,-0.700
1743902750.817667,0.077,-0.073,1.029,0.420,-2.380,-0.700
1743902750.7619352,0.074,-0.072,1.034,0.420,-2.380,-0.700
1743902750.7819352,0.075,-0.074,1.029,0.350,-2.520,-0.700
1743902750.8019352,0.073,-0.074,1.026,0.420,-2.310,-0.630
1743902750.8219352,0.075,-0.072,1.030,0.350,-2.520,-0.770
1743902750.8419352,0.074,-0.075,1.033,0.280,-2.380,-0.700
1743902750.8619351,0.075,-0.073,1.031,0.420,-2.450,-0.700
1743902750.820427,0.076,-0.072,1.030,0.280,-2.450,-0.700
1743902750.840427,0.076,-0.072,1.030,0.350,-2.450,-0.770
1743902750.860427,0.075,-0.073,1.032,0.350,-2.380,-0.700
1743902750.880427,0.074,-0.074,1.033,0.350,-2.450,-0.700
1743902750.9004269,0.073,-0.075,1.029,0.420,-2.520,-0.700
1743902750.9204268,0.076,-0.075,1.028,0.420,-2.450,-0.840
1743902750.8523262,0.073,-0.075,1.031,0.420,-2.520,-0.700
1743902750.8723261,0.075,-0.074,1.031,0.350,-2.450,-0.770
1743902750.892326,0.077,-0.074,1.031,0.280,-2.520,-0.700
1743902750.912326,0.075,-0.073,1.025,0.420,-2.450,-0.770
1743902750.932326,0.074,-0.074,1.030,0.420,-2.380,-0.700
1743902750.952326,0.075,-0.073,1.031,0.350,-2.310,-0.770
1743902750.8822212,0.074,-0.073,1.032,0.420,-2.380,-0.700
1743902750.9022212,0.076,-0.072,1.031,0.420,-2.590,-0.700
1743902750.9222212,0.076,-0.073,1.027,0.350,-2.310,-0.700
1743902750.9422212,0.074,-0.071,1.032,0.420,-2.450,-0.700
1743902750.9622211,0.074,-0.074,1.029,0.350,-2.520,-0.700
1743902750.9822211,0.076,-0.077,1.028,0.280,-2.450,-0.630
1743902750.9267592,0.075,-0.074,1.028,0.350,-2.310,-0.700
1743902750.9467592,0.073,-0.075,1.032,0.280,-2.310,-0.770
1743902750.9667592,0.075,-0.074,1.033,0.350,-2.520,-0.700
1743902750.9867592,0.075,-0.074,1.031,0.490,-2.520,-0.700
1743902751.0067592,0.076,-0.074,1.031,0.420,-2.380,-0.700
1743902751.0267591,0.072,-0.075,1.030,0.350,-2.380,-0.700
1743902750.9734592,0.077,-0.071,1.034,0.490,-2.520,-0.700
1743902750.9934592,0.074,-0.075,1.033,0.350,-2.450,-0.700
1743902751.0134592,0.074,-0.073,1.027,0.350,-2.450,-0.630
1743902751.0334592,0.075,-0.073,1.028,0.280,-2.310,-0.700
1743902751.0534592,0.074,-0.072,1.032,0.350,-2.380,-0.700
1743902751.0734591,0.077,-0.073,1.031,0.420,-2.450,-0.770
1743902751.0024,0.076,-0.075,1.028,0.280,-2.310,-0.700
1743902751.0224,0.074,-0.072,1.032,0.280,-2.380,-0.700
1743902751.0424,0.075,-0.073,1.032,0.350,-2.520,-0.630
1743902751.0623999,0.075,-0.074,1.030,0.350,-2.380,-0.700
1743902751.0823998,0.074,-0.073,1.028,0.350,-2.590,-0.700
1743902751.1023998,0.074,-0.075,1.031,0.280,-2.310,-0.700
1743902751.062328,0.076,-0.074,1.034,0.280,-2.660,-0.700
1743902751.082328,0.076,-0.075,1.034,0.350,-2.520,-0.770
1743902751.102328,0.075,-0.075,1.028,0.280,-2.380,-0.700
1743902751.122328,0.075,-0.072,1.033,0.350,-2.380,-0.700
1743902751.142328,0.074,-0.076,1.031,0.420,-2.520,-0.770
1743902751.162328,0.075,-0.072,1.033,0.280,-2.520,-0.840
1743902751.1095061,0.075,-0.072,1.030,0.350,-2.520,-0.700
1743902751.129506,0.075,-0.075,1.032,0.420,-2.520,-0.630
1743902751.149506,0.076,-0.071,1.032,0.420,-2.660,-0.630
1743902751.169506,0.074,-0.075,1.028,0.350,-2.520,-0.770
1743902751.189506,0.074,-0.074,1.029,0.420,-2.450,-0.700
1743902751.209506,0.074,-0.070,1.030,0.350,-2.450,-0.700
1743902751.151165,0.076,-0.073,1.029,0.420,-2.520,-0.700
1743902751.171165,0.074,-0.072,1.029,0.420,-2.520,-0.700
1743902751.191165,0.076,-0.073,1.029,0.210,-2.450,-0.630
1743902751.211165,0.074,-0.073,1.032,0.350,-2.450,-0.700
1743902751.231165,0.075,-0.072,1.029,0.350,-2.450,-0.560
1743902751.251165,0.076,-0.072,1.027,0.210,-2.450,-0.700
1743902751.167058,0.076,-0.072,1.032,0.210,-2.590,-0.700
1743902751.187058,0.073,-0.075,1.030,0.280,-2.520,-0.770
1743902751.207058,0.076,-0.076,1.032,0.350,-2.590,-0.770
1743902751.227058,0.073,-0.074,1.031,0.280,-2.520,-0.770
1743902751.247058,0.074,-0.073,1.031,0.420,-2.590,-0.700
1743902751.267058,0.074,-0.071,1.030,0.350,-2.520,-0.770
1743902751.2273812,0.077,-0.072,1.031,0.280,-2.520,-0.770
1743902751.2473812,0.074,-0.073,1.032,0.210,-2.590,-0.700
1743902751.2673812,0.075,-0.073,1.030,0.210,-2.450,-0.770
1743902751.2873812,0.074,-0.072,1.030,0.350,-2.520,-0.630
1743902751.3073812,0.075,-0.074,1.032,0.280,-2.380,-0.770
1743902751.3273811,0.075,-0.073,1.035,0.490,-2.380,-0.700
1743902751.257141,0.074,-0.076,1.031,0.350,-2.380,-0.770
1743902751.277141,0.075,-0.072,1.029,0.280,-2.380,-0.840
1743902751.297141,0.075,-0.073,1.030,0.420,-2.380,-0.700
1743902751.317141,0.075,-0.073,1.033,0.350,-2.450,-0.770
1743902751.337141,0.073,-0.074,1.029,0.420,-2.590,-0.700
1743902751.357141,0.074,-0.074,1.030,0.420,-2.520,-0.700
1743902751.303484,0.075,-0.074,1.029,0.420,-2.450,-0.700
1743902751.323484,0.075,-0.073,1.030,0.420,-2.590,-0.770
1743902751.343484,0.075,-0.075,1.031,0.280,-2.520,-0.770
1743902751.363484,0.073,-0.072,1.028,0.420,-2.380,-0.700
1743902751.383484,0.075,-0.074,1.027,0.490,-2.520,-0.700
1743902751.4034839,0.074,-0.073,1.033,0.210,-2.450,-0.770
1743902751.332747,0.075,-0.073,1.031,0.420,-2.520,-0.700
1743902751.352747,0.075,-0.075,1.031,0.560,-2.520,-0.630
1743902751.372747,0.075,-0.074,1.029,0.420,-2.520,-0.700
1743902751.392747,0.076,-0.071,1.029,0.350,-2.450,-0.700
1743902751.412747,0.076,-0.076,1.033,0.350,-2.380,-0.700
1743902751.432747,0.077,-0.074,1.031,0.490,-2.590,-0.700
1743902751.3770342,0.076,-0.074,1.029,0.420,-2.590,-0.770
1743902751.3970342,0.077,-0.073,1.029,0.210,-2.380,-0.630
1743902751.4170341,0.074,-0.075,1.030,0.420,-2.380,-0.770
1743902751.4370341,0.074,-0.075,1.032,0.490,-2.380,-0.630
1743902751.457034,0.076,-0.074,1.031,0.420,-2.450,-0.770
1743902751.477034,0.075,-0.074,1.029,0.490,-2.450,-0.700
1743902751.4240491,0.075,-0.073,1.032,0.350,-2.380,-0.770
1743902751.4440491,0.075,-0.073,1.033,0.280,-2.520,-0.770
1743902751.464049,0.074,-0.076,1.030,0.490,-2.520,-0.700
1743902751.484049,0.076,-0.074,1.030,0.490,-2.520,-0.630
1743902751.504049,0.077,-0.074,1.031,0.350,-2.240,-0.770
1743902751.524049,0.076,-0.074,1.032,0.490,-2.520,-0.840
1743902751.468906,0.076,-0.075,1.032,0.420,-2.450,-0.700
1743902751.488906,0.073,-0.073,1.030,0.350,-2.520,-0.770
1743902751.508906,0.074,-0.074,1.029,0.420,-2.450,-0.630
1743902751.5289059,0.074,-0.075,1.030,0.420,-2.450,-0.770
1743902751.5489058,0.075,-0.076,1.029,0.350,-2.520,-0.700
1743902751.5689058,0.075,-0.074,1.029,0.280,-2.520,-0.700
1743902751.498274,0.075,-0.074,1.029,0.350,-2.450,-0.700
1743902751.518274,0.073,-0.073,1.032,0.350,-2.450,-0.770
1743902751.538274,0.075,-0.073,1.029,0.280,-2.520,-0.700
1743902751.558274,0.074,-0.072,1.031,0.350,-2.450,-0.770
1743902751.578274,0.076,-0.075,1.028,0.420,-2.380,-0.770
1743902751.598274,0.074,-0.072,1.031,0.280,-2.450,-0.770
1743902751.5855951,0.077,-0.074,1.031,0.350,-2.450,-0.840
1743902751.605595,0.076,-0.073,1.029,0.350,-2.450,-0.770
1743902751.625595,0.077,-0.072,1.028,0.350,-2.450,-0.770
1743902751.645595,0.077,-0.075,1.032,0.350,-2.380,-0.700
1743902751.665595,0.075,-0.073,1.030,0.350,-2.520,-0.770
1743902751.685595,0.075,-0.074,1.029,0.280,-2.520,-0.770
1743902751.588998,0.078,-0.075,1.030,0.280,-2.450,-0.700
1743902751.608998,0.076,-0.074,1.031,0.420,-2.380,-0.770
1743902751.628998,0.075,-0.074,1.030,0.350,-2.380,-0.840
1743902751.648998,0.073,-0.072,1.030,0.210,-2.520,-0.700
1743902751.668998,0.076,-0.073,1.029,0.420,-2.450,-0.630
1743902751.688998,0.076,-0.075,1.030,0.420,-2.520,-0.630
1743902751.632124,0.076,-0.076,1.031,0.280,-2.520,-0.630
1743902751.652124,0.075,-0.074,1.031,0.210,-2.380,-0.770
1743902751.672124,0.074,-0.074,1.031,0.350,-2.590,-0.770
1743902751.692124,0.075,-0.075,1.027,0.350,-2.450,-0.770
1743902751.7121239,0.073,-0.077,1.033,0.490,-2.520,-0.770
1743902751.7321239,0.074,-0.075,1.031,0.490,-2.730,-0.770
1743902751.6615043,0.075,-0.076,1.028,0.350,-2.730,-0.700
1743902751.6815042,0.076,-0.075,1.028,0.350,-2.520,-0.630
1743902751.7015042,0.075,-0.075,1.032,0.350,-2.520,-0.700
1743902751.7215042,0.075,-0.074,1.030,0.350,-2.590,-0.770
1743902751.7415042,0.076,-0.074,1.031,0.420,-2.520,-0.840
1743902751.7615042,0.075,-0.072,1.029,0.420,-2.450,-0.630
1743902751.707274,0.076,-0.071,1.033,0.280,-2.450,-0.700
1743902751.727274,0.075,-0.074,1.031,0.350,-2.590,-0.630
1743902751.747274,0.074,-0.073,1.030,0.420,-2.520,-0.700
1743902751.767274,0.076,-0.072,1.032,0.350,-2.450,-0.700
1743902751.787274,0.074,-0.073,1.032,0.280,-2.380,-0.700
1743902751.8072739,0.076,-0.072,1.032,0.350,-2.450,-0.630
1743902751.752165,0.074,-0.074,1.028,0.210,-2.380,-0.700
1743902751.772165,0.077,-0.072,1.029,0.350,-2.310,-0.770
1743902751.792165,0.074,-0.072,1.034,0.420,-2.450,-0.700
1743902751.812165,0.078,-0.074,1.031,0.350,-2.310,-0.700
1743902751.832165,0.075,-0.073,1.028,0.350,-2.310,-0.700
1743902751.852165,0.076,-0.074,1.031,0.490,-2.380,-0.700
1743902751.7967582,0.075,-0.074,1.033,0.420,-2.310,-0.700
1743902751.8167582,0.075,-0.075,1.034,0.490,-2.310,-0.700
1743902751.8367581,0.075,-0.073,1.030,0.420,-2.380,-0.700
1743902751.856758,0.077,-0.073,1.030,0.420,-2.170,-0.770
1743902751.876758,0.075,-0.074,1.031,0.420,-2.450,-0.770
1743902751.896758,0.074,-0.073,1.031,0.490,-2.380,-0.770
1743902751.886305,0.074,-0.072,1.027,0.350,-2.240,-0.840
1743902751.906305,0.077,-0.073,1.029,0.420,-2.240,-0.770
1743902751.926305,0.076,-0.072,1.032,0.350,-2.380,-0.770
1743902751.946305,0.074,-0.074,1.030,0.350,-2.450,-0.700
1743902751.966305,0.073,-0.074,1.029,0.350,-2.520,-0.770
1743902751.986305,0.077,-0.076,1.027,0.280,-2.380,-0.840
1743902751.9016542,0.074,-0.073,1.031,0.280,-2.380,-0.840
1743902751.9216542,0.074,-0.074,1.032,0.210,-2.450,-0.770
1743902751.9416542,0.075,-0.074,1.030,0.210,-2.450,-0.840
1743902751.9616542,0.074,-0.073,1.029,0.210,-2.380,-0.770
1743902751.9816542,0.076,-0.072,1.031,0.280,-2.310,-0.700
1743902752.0016541,0.076,-0.072,1.030,0.070,-2.310,-0.840
1743902751.9343162,0.078,-0.073,1.030,0.210,-2.450,-0.770
1743902751.9543161,0.075,-0.074,1.031,0.210,-2.450,-0.770
1743902751.9743161,0.077,-0.073,1.032,0.350,-2.450,-0.770
1743902751.994316,0.076,-0.075,1.030,0.420,-2.520,-0.770
1743902752.014316,0.075,-0.074,1.031,0.420,-2.380,-0.840
1743902752.034316,0.076,-0.072,1.028,0.280,-2.450,-0.770
1743902751.9704201,0.076,-0.073,1.027,0.420,-2.310,-0.840
1743902751.99042,0.076,-0.073,1.031,0.350,-2.450,-0.700
1743902752.01042,0.077,-0.071,1.031,0.420,-2.590,-0.840
1743902752.03042,0.076,-0.075,1.028,0.420,-2.380,-0.770
1743902752.05042,0.076,-0.074,1.032,0.420,-2.450,-0.630
1743902752.07042,0.075,-0.075,1.033,0.560,-2.450,-0.700
1743902751.994091,0.076,-0.076,1.033,0.560,-2.450,-0.700
1743902752.014091,0.072,-0.075,1.033,0.490,-2.450,-0.770
1743902752.034091,0.074,-0.074,1.029,0.420,-2.520,-0.630
1743902752.054091,0.078,-0.074,1.031,0.560,-2.310,-0.700
1743902752.074091,0.075,-0.074,1.030,0.420,-2.380,-0.770
1743902752.094091,0.074,-0.075,1.031,0.420,-2.380,-0.840
1743902752.0368161,0.075,-0.072,1.029,0.420,-2.240,-0.700
1743902752.056816,0.074,-0.073,1.028,0.490,-2.380,-0.630
1743902752.076816,0.075,-0.075,1.030,0.350,-2.380,-0.700
1743902752.096816,0.076,-0.075,1.030,0.420,-2.380,-0.700
1743902752.116816,0.076,-0.072,1.031,0.420,-2.380,-0.770
1743902752.136816,0.075,-0.074,1.028,0.350,-2.380,-0.770
1743902752.095097,0.075,-0.072,1.030,0.350,-2.240,-0.700
1743902752.115097,0.075,-0.072,1.033,0.420,-2.380,-0.700
1743902752.135097,0.075,-0.072,1.029,0.350,-2.380,-0.770
1743902752.155097,0.075,-0.074,1.027,0.420,-2.380,-0.770
1743902752.175097,0.075,-0.073,1.032,0.350,-2.380,-0.630
1743902752.195097,0.075,-0.073,1.032,0.350,-2.380,-0.770
1743902752.11173,0.077,-0.074,1.028,0.350,-2.520,-0.700
1743902752.13173,0.073,-0.072,1.030,0.210,-2.380,-0.700
1743902752.15173,0.074,-0.071,1.029,0.280,-2.380,-0.630
1743902752.17173,0.074,-0.074,1.032,0.420,-2.380,-0.700
1743902752.19173,0.075,-0.075,1.028,0.350,-2.520,-0.700
1743902752.21173,0.076,-0.073,1.030,0.350,-2.380,-0.770
1743902752.1851892,0.075,-0.073,1.032,0.280,-2.520,-0.770
1743902752.2051892,0.074,-0.072,1.030,0.420,-2.310,-0.840
1743902752.2251892,0.075,-0.076,1.031,0.420,-2.380,-0.770
1743902752.2451892,0.076,-0.073,1.030,0.420,-2.310,-0.770
1743902752.2651892,0.074,-0.074,1.030,0.490,-2.380,-0.700
1743902752.2851892,0.076,-0.076,1.031,0.560,-2.520,-0.770
1743902752.2020001,0.076,-0.074,1.029,0.280,-2.450,-0.770
1743902752.2220001,0.076,-0.073,1.027,0.420,-2.520,-0.700
1743902752.242,0.075,-0.077,1.032,0.490,-2.310,-0.700
1743902752.262,0.074,-0.073,1.032,0.490,-2.590,-0.700
1743902752.282,0.074,-0.075,1.033,0.420,-2.520,-0.770
1743902752.302,0.076,-0.073,1.028,0.420,-2.380,-0.770
1743902752.247171,0.075,-0.072,1.027,0.490,-2.520,-0.700
1743902752.267171,0.076,-0.076,1.032,0.280,-2.380,-0.700
1743902752.287171,0.074,-0.071,1.034,0.490,-2.450,-0.700
1743902752.3071709,0.075,-0.075,1.025,0.280,-2.380,-0.700
1743902752.3271708,0.075,-0.074,1.028,0.420,-2.450,-0.770
1743902752.3471708,0.075,-0.073,1.034,0.350,-2.380,-0.770
1743902752.292131,0.078,-0.072,1.032,0.420,-2.450,-0.700
1743902752.312131,0.075,-0.075,1.028,0.350,-2.520,-0.700
1743902752.332131,0.076,-0.072,1.032,0.210,-2.380,-0.700
1743902752.352131,0.075,-0.075,1.033,0.350,-2.520,-0.700
1743902752.3721309,0.075,-0.074,1.027,0.350,-2.520,-0.770
1743902752.3921309,0.073,-0.074,1.027,0.420,-2.310,-0.700
1743902752.337089,0.074,-0.074,1.033,0.350,-2.380,-0.770
1743902752.357089,0.075,-0.072,1.033,0.350,-2.450,-0.700
1743902752.377089,0.075,-0.074,1.031,0.350,-2.450,-0.840
1743902752.397089,0.075,-0.072,1.029,0.350,-2.450,-0.700
1743902752.417089,0.077,-0.075,1.031,0.350,-2.380,-0.630
1743902752.437089,0.075,-0.074,1.033,0.420,-2.380,-0.770
1743902752.3821301,0.074,-0.073,1.030,0.420,-2.520,-0.700
1743902752.4021301,0.075,-0.073,1.029,0.280,-2.380,-0.770
1743902752.42213,0.072,-0.074,1.030,0.350,-2.310,-0.700
1743902752.44213,0.076,-0.075,1.030,0.490,-2.380,-0.840
1743902752.46213,0.076,-0.075,1.030,0.420,-2.380,-0.770
1743902752.48213,0.075,-0.072,1.031,0.350,-2.380,-0.770
1743902752.426868,0.073,-0.073,1.033,0.490,-2.450,-0.770
1743902752.446868,0.077,-0.074,1.030,0.350,-2.590,-0.770
1743902752.466868,0.075,-0.074,1.029,0.350,-2.380,-0.700
1743902752.486868,0.076,-0.074,1.030,0.420,-2.450,-0.700
1743902752.506868,0.075,-0.075,1.032,0.280,-2.520,-0.700
1743902752.5268679,0.074,-0.074,1.032,0.280,-2.450,-0.770
1743902752.4868212,0.075,-0.073,1.031,0.210,-2.520,-0.770
1743902752.5068212,0.076,-0.073,1.028,0.420,-2.380,-0.700
1743902752.5268211,0.074,-0.075,1.032,0.350,-2.380,-0.700
1743902752.546821,0.073,-0.073,1.032,0.420,-2.520,-0.700
1743902752.566821,0.075,-0.074,1.029,0.350,-2.310,-0.700
1743902752.586821,0.074,-0.072,1.029,0.350,-2.310,-0.770
1743902752.502443,0.074,-0.075,1.032,0.420,-2.380,-0.700
1743902752.522443,0.075,-0.072,1.032,0.350,-2.520,-0.700
1743902752.542443,0.077,-0.072,1.027,0.420,-2.380,-0.770
1743902752.562443,0.075,-0.075,1.028,0.350,-2.450,-0.770
1743902752.582443,0.075,-0.074,1.032,0.490,-2.240,-0.700
1743902752.602443,0.075,-0.074,1.030,0.420,-2.380,-0.770
1743902752.560933,0.076,-0.073,1.030,0.420,-2.450,-0.700
1743902752.580933,0.076,-0.075,1.032,0.490,-2.310,-0.770
1743902752.600933,0.075,-0.075,1.033,0.280,-2.450,-0.770
1743902752.620933,0.076,-0.074,1.029,0.420,-2.450,-0.700
1743902752.640933,0.074,-0.073,1.029,0.420,-2.240,-0.770
1743902752.660933,0.075,-0.073,1.033,0.350,-2.450,-0.700
1743902752.606833,0.076,-0.073,1.033,0.420,-2.520,-0.770
1743902752.626833,0.076,-0.075,1.031,0.420,-2.310,-0.700
1743902752.646833,0.076,-0.076,1.028,0.420,-2.170,-0.770
1743902752.666833,0.076,-0.075,1.030,0.420,-2.310,-0.700
1743902752.686833,0.075,-0.073,1.035,0.420,-2.310,-0.630
1743902752.706833,0.075,-0.073,1.028,0.420,-2.380,-0.840
1743902752.6652792,0.074,-0.074,1.029,0.490,-2.380,-0.700
1743902752.6852791,0.077,-0.074,1.032,0.350,-2.240,-0.700
1743902752.705279,0.075,-0.074,1.030,0.350,-2.450,-0.770
1743902752.725279,0.077,-0.075,1.030,0.350,-2.450,-0.700
1743902752.745279,0.074,-0.072,1.030,0.280,-2.380,-0.770
1743902752.765279,0.074,-0.074,1.029,0.210,-2.380,-0.700
1743902752.682336,0.075,-0.074,1.029,0.280,-2.380,-0.770
1743902752.702336,0.072,-0.072,1.033,0.350,-2.380,-0.840
1743902752.722336,0.074,-0.072,1.029,0.140,-2.380,-0.560
1743902752.742336,0.075,-0.075,1.033,0.140,-2.450,-0.700
1743902752.762336,0.073,-0.074,1.032,0.140,-2.590,-0.700
1743902752.782336,0.074,-0.074,1.030,0.070,-2.450,-0.770
1743902752.7267632,0.073,-0.074,1.028,0.210,-2.520,-0.700
1743902752.7467632,0.074,-0.075,1.026,0.280,-2.450,-0.770
1743902752.7667632,0.075,-0.073,1.034,0.280,-2.520,-0.700
1743902752.7867632,0.076,-0.075,1.034,0.140,-2.660,-0.700
1743902752.8067632,0.074,-0.075,1.030,0.420,-2.590,-0.700
1743902752.8267632,0.077,-0.075,1.030,0.350,-2.380,-0.630
1743902752.776349,0.078,-0.075,1.032,0.350,-2.590,-0.700
1743902752.796349,0.076,-0.074,1.031,0.700,-2.590,-0.700
1743902752.816349,0.074,-0.075,1.029,0.630,-2.450,-0.700
1743902752.836349,0.073,-0.073,1.032,0.490,-2.450,-0.700
1743902752.856349,0.077,-0.073,1.033,0.630,-2.520,-0.700
1743902752.876349,0.077,-0.071,1.032,0.560,-2.380,-0.700
1743902752.8175392,0.076,-0.073,1.030,0.560,-2.310,-0.770
1743902752.8375392,0.075,-0.071,1.028,0.630,-2.450,-0.700
1743902752.8575392,0.075,-0.074,1.029,0.420,-2.240,-0.700
1743902752.8775392,0.075,-0.074,1.032,0.700,-2.310,-0.770
1743902752.8975391,0.075,-0.070,1.028,0.280,-2.170,-0.700
1743902752.9175391,0.074,-0.071,1.029,0.630,-2.240,-0.770
1743902752.864315,0.073,-0.071,1.032,0.700,-2.100,-0.770
1743902752.884315,0.074,-0.072,1.031,0.280,-2.450,-0.700
1743902752.904315,0.075,-0.074,1.028,0.560,-2.310,-0.700
1743902752.924315,0.074,-0.073,1.032,0.350,-2.240,-0.700
1743902752.944315,0.072,-0.073,1.032,0.280,-2.380,-0.840
1743902752.964315,0.074,-0.077,1.028,0.490,-2.310,-0.770
1743902752.891797,0.075,-0.074,1.029,0.630,-2.170,-0.630
1743902752.911797,0.075,-0.075,1.034,1.540,-2.310,-0.700
1743902752.931797,0.071,-0.071,1.034,0.140,-2.450,-0.700
1743902752.951797,0.074,-0.069,1.028,0.070,-2.310,-0.770
1743902752.971797,0.075,-0.076,1.030,0.770,-2.450,-0.700
1743902752.991797,0.075,-0.069,1.032,0.140,-2.310,-0.700
1743902752.9367952,0.072,-0.076,1.031,0.560,-2.520,-0.770
1743902752.9567952,0.079,-0.076,1.032,0.700,-2.100,-0.630
1743902752.9767952,0.073,-0.069,1.033,0.140,-2.520,-0.770
1743902752.9967952,0.076,-0.073,1.027,0.560,-2.240,-0.770
1743902753.0167952,0.073,-0.072,1.032,0.770,-2.310,-0.770
1743902753.0367951,0.072,-0.074,1.034,-0.140,-2.730,-0.630
1743902752.9817421,0.076,-0.075,1.031,-0.070,-2.870,-0.630
1743902753.0017421,0.074,-0.074,1.030,0.280,-2.660,-0.840
1743902753.021742,0.075,-0.075,1.027,-0.210,-2.590,-0.630
1743902753.041742,0.080,-0.075,1.033,0.910,-2.380,-0.770
1743902753.061742,0.077,-0.072,1.031,-0.560,-2.730,-0.560
1743902753.081742,0.074,-0.073,1.020,0.910,-2.380,-0.700
1743902753.026838,0.073,-0.073,1.030,1.120,-2.520,-0.700
1743902753.046838,0.075,-0.072,1.033,-0.350,-2.660,-0.700
1743902753.066838,0.078,-0.077,1.030,0.910,-2.380,-0.700
1743902753.086838,0.075,-0.069,1.032,-0.070,-2.520,-0.770
1743902753.106838,0.077,-0.074,1.031,0.280,-2.380,-0.700
1743902753.126838,0.075,-0.080,1.030,0.770,-2.520,-0.840
1743902753.0867352,0.075,-0.069,1.032,0.770,-2.450,-0.630
1743902753.1067352,0.074,-0.074,1.032,0.140,-2.380,-0.700
1743902753.1267352,0.074,-0.078,1.030,1.050,-2.520,-0.770
1743902753.1467352,0.076,-0.070,1.032,0.840,-2.310,-0.840
1743902753.1667352,0.077,-0.069,1.030,0.630,-2.310,-0.630
1743902753.1867352,0.072,-0.075,1.030,0.280,-2.380,-0.700
1743902753.116754,0.075,-0.071,1.032,0.840,-2.310,-0.770
1743902753.136754,0.075,-0.069,1.029,0.140,-2.380,-0.630
1743902753.156754,0.075,-0.073,1.025,0.560,-2.380,-0.700
1743902753.176754,0.075,-0.072,1.032,0.840,-2.450,-0.630
1743902753.196754,0.073,-0.071,1.032,0.140,-2.310,-0.700
1743902753.216754,0.076,-0.074,1.027,0.560,-2.380,-0.700
1743902753.1619492,0.074,-0.070,1.030,0.840,-2.450,-0.770
1743902753.1819491,0.075,-0.069,1.030,-0.070,-2.310,-0.700
1743902753.2019491,0.075,-0.072,1.033,-0.070,-2.590,-0.770
1743902753.221949,0.074,-0.072,1.029,0.770,-2.520,-0.700
1743902753.241949,0.075,-0.073,1.031,-0.140,-2.380,-0.700
1743902753.261949,0.073,-0.076,1.032,0.630,-2.520,-0.700
1743902753.221723,0.076,-0.073,1.031,0.350,-2.520,-0.700
1743902753.241723,0.074,-0.071,1.027,0.000,-2.450,-0.770
1743902753.261723,0.073,-0.076,1.029,0.490,-2.450,-0.700
1743902753.281723,0.074,-0.071,1.034,0.350,-2.380,-0.700
1743902753.301723,0.074,-0.071,1.029,-0.070,-2.660,-0.700
1743902753.321723,0.076,-0.077,1.029,0.280,-2.380,-0.700
1743902753.2521372,0.075,-0.072,1.034,0.420,-2.380,-0.700
1743902753.2721372,0.072,-0.072,1.034,0.140,-2.590,-0.700
1743902753.2921371,0.076,-0.072,1.030,0.490,-2.380,-0.700
1743902753.3121371,0.074,-0.071,1.031,0.070,-2.660,-0.700
1743902753.332137,0.075,-0.075,1.030,0.000,-2.380,-0.770
1743902753.352137,0.074,-0.076,1.034,0.490,-2.590,-0.770
1743902753.282062,0.075,-0.072,1.030,0.280,-2.520,-0.770
1743902753.302062,0.079,-0.076,1.028,0.350,-2.310,-0.700
1743902753.322062,0.073,-0.074,1.032,0.770,-2.590,-0.770
1743902753.342062,0.076,-0.072,1.033,0.350,-2.380,-0.770
1743902753.362062,0.075,-0.073,1.031,0.280,-2.240,-0.770
1743902753.382062,0.077,-0.075,1.029,0.770,-2.590,-0.630
1743902753.3704863,0.078,-0.073,1.031,0.350,-1.960,-0.700
1743902753.3904862,0.073,-0.072,1.033,-0.420,-2.450,-0.700
1743902753.4104862,0.073,-0.074,1.031,0.420,-2.240,-0.700
1743902753.4304862,0.071,-0.073,1.030,0.770,-2.660,-0.700
1743902753.4504862,0.078,-0.070,1.035,0.000,-2.030,-0.700
1743902753.4704862,0.075,-0.072,1.032,0.140,-2.590,-0.700
1743902753.3864722,0.074,-0.076,1.027,0.490,-2.310,-0.630
1743902753.4064722,0.073,-0.074,1.031,0.700,-2.590,-0.630
1743902753.4264722,0.078,-0.072,1.032,0.350,-2.100,-0.700
1743902753.4464722,0.071,-0.071,1.027,0.910,-2.310,-0.700
1743902753.4664721,0.077,-0.071,1.030,0.140,-2.030,-0.840
1743902753.4864721,0.078,-0.075,1.031,0.490,-2.870,-0.700
1743902753.4317691,0.075,-0.074,1.032,0.840,-2.170,-0.700
1743902753.451769,0.076,-0.070,1.031,0.000,-1.820,-0.700
1743902753.471769,0.070,-0.074,1.028,0.140,-2.730,-0.840
1743902753.491769,0.073,-0.072,1.028,0.630,-2.170,-0.770
1743902753.511769,0.078,-0.074,1.034,0.140,-2.660,-0.630
1743902753.531769,0.071,-0.074,1.032,0.350,-2.870,-0.840
1743902753.46178,0.078,-0.072,1.028,0.420,-2.100,-0.770
1743902753.48178,0.074,-0.073,1.030,0.420,-2.590,-0.770
1743902753.50178,0.077,-0.075,1.034,0.770,-2.310,-0.770
1743902753.52178,0.075,-0.073,1.031,0.280,-2.730,-0.700
1743902753.54178,0.073,-0.074,1.026,0.490,-2.520,-0.700
1743902753.56178,0.075,-0.073,1.033,0.700,-2.100,-0.700
1743902753.506886,0.074,-0.071,1.033,0.490,-2.590,-0.700
1743902753.526886,0.078,-0.070,1.028,0.490,-2.170,-0.700
1743902753.546886,0.074,-0.071,1.026,0.350,-2.520,-0.770
1743902753.566886,0.074,-0.073,1.031,0.490,-2.450,-0.700
1743902753.586886,0.075,-0.071,1.035,0.630,-2.170,-0.770
1743902753.606886,0.072,-0.070,1.028,0.350,-2.800,-0.910
1743902753.5668561,0.075,-0.071,1.028,0.350,-2.380,-0.770
1743902753.5868561,0.074,-0.074,1.030,0.490,-3.640,-0.700
1743902753.606856,0.079,-0.070,1.031,0.770,-2.100,-0.770
1743902753.626856,0.077,-0.070,1.032,0.140,-2.170,-0.770
1743902753.646856,0.068,-0.078,1.029,0.280,-2.520,-0.840
1743902753.666856,0.083,-0.074,1.035,0.910,-2.380,-0.700
1743902753.614258,0.070,-0.073,1.031,0.490,-3.150,-0.560
1743902753.634258,0.081,-0.077,1.028,0.700,-1.820,-0.630
1743902753.654258,0.069,-0.071,1.032,0.490,-2.870,-0.770
1743902753.674258,0.073,-0.073,1.033,0.420,-2.100,-0.770
1743902753.694258,0.077,-0.074,1.027,0.980,-2.380,-0.840
1743902753.714258,0.074,-0.070,1.032,0.490,-2.520,-0.770
1743902753.686985,0.078,-0.071,1.030,0.070,-1.960,-0.840
1743902753.706985,0.070,-0.073,1.032,0.560,-2.730,-0.700
1743902753.726985,0.075,-0.076,1.030,0.420,-2.310,-0.840
1743902753.746985,0.077,-0.074,1.032,0.630,-2.450,-0.700
1743902753.766985,0.068,-0.067,1.022,-1.190,-4.060,-0.630
1743902753.786985,0.084,-0.083,1.037,0.700,-1.120,-0.700
1743902753.691354,0.065,-0.064,1.030,0.980,-3.850,-0.770
1743902753.711354,0.076,-0.075,1.024,-0.840,-1.400,-0.700
1743902753.731354,0.075,-0.084,1.026,1.820,-2.520,-0.770
1743902753.751354,0.069,-0.068,1.038,1.260,-2.590,-0.700
1743902753.771354,0.079,-0.070,1.032,-0.910,-1.750,-0.560
1743902753.791354,0.071,-0.076,1.021,1.540,-2.940,-0.840
1743902753.7468653,0.074,-0.069,1.034,-0.140,-1.960,-0.700
1743902753.7668653,0.078,-0.068,1.036,-0.420,-2.940,-0.700
1743902753.7868652,0.071,-0.078,1.026,1.190,-2.100,-0.700
1743902753.8068652,0.080,-0.067,1.031,0.070,-1.820,-0.630
1743902753.8268652,0.073,-0.076,1.032,-0.420,-2.800,-0.770
1743902753.8468652,0.075,-0.071,1.034,1.400,-2.100,-0.700
1743902753.7918682,0.076,-0.066,1.028,-0.350,-2.660,-0.630
1743902753.8118682,0.074,-0.072,1.029,-0.210,-2.100,-0.770
1743902753.8318682,0.074,-0.074,1.034,1.120,-2.170,-0.770
1743902753.8518682,0.073,-0.068,1.029,-0.280,-2.730,-0.700
1743902753.8718681,0.075,-0.076,1.026,0.630,-2.030,-0.700
1743902753.891868,0.073,-0.076,1.030,0.350,-2.800,-0.630
1743902753.836771,0.075,-0.070,1.034,-0.070,-2.310,-0.630
1743902753.856771,0.074,-0.075,1.025,0.210,-2.450,-0.700
1743902753.876771,0.075,-0.070,1.028,0.700,-2.520,-0.700
1743902753.896771,0.075,-0.071,1.033,-0.560,-2.310,-0.630
1743902753.916771,0.073,-0.074,1.031,0.140,-2.800,-0.630
1743902753.936771,0.073,-0.074,1.028,0.420,-2.450,-0.630
1743902753.881874,0.077,-0.069,1.030,-0.420,-2.380,-0.630
1743902753.901874,0.077,-0.073,1.032,-0.280,-2.660,-0.700
1743902753.921874,0.078,-0.073,1.032,0.420,-2.520,-0.700
1743902753.941874,0.076,-0.073,1.030,-0.280,-2.660,-0.700
1743902753.961874,0.075,-0.075,1.027,-0.210,-2.660,-0.840
1743902753.981874,0.077,-0.075,1.034,0.490,-2.310,-0.770
1743902753.911735,0.074,-0.072,1.031,0.280,-2.730,-0.700
1743902753.931735,0.074,-0.073,1.028,-0.070,-2.730,-0.770
1743902753.951735,0.078,-0.075,1.028,0.420,-2.310,-0.770
1743902753.971735,0.074,-0.073,1.032,0.280,-2.730,-0.770
1743902753.991735,0.078,-0.074,1.031,0.140,-2.660,-0.630
1743902754.011735,0.075,-0.075,1.029,0.420,-2.450,-0.700
1743902753.98759,0.074,-0.072,1.030,0.350,-2.590,-0.700
1743902754.00759,0.073,-0.072,1.032,0.210,-2.450,-0.770
1743902754.02759,0.076,-0.074,1.031,0.280,-2.590,-0.770
1743902754.04759,0.074,-0.072,1.028,0.280,-2.450,-0.770
1743902754.06759,0.076,-0.073,1.031,0.140,-2.380,-0.770
1743902754.08759,0.075,-0.073,1.033,0.210,-2.590,-0.770
1743902754.001866,0.075,-0.074,1.030,0.280,-2.590,-0.700
1743902754.021866,0.073,-0.073,1.029,0.140,-2.590,-0.700
1743902754.041866,0.075,-0.072,1.031,0.280,-2.520,-0.630
1743902754.061866,0.075,-0.074,1.032,0.350,-2.590,-0.700
1743902754.081866,0.075,-0.071,1.029,0.140,-2.590,-0.770
1743902754.101866,0.074,-0.074,1.028,0.560,-2.450,-0.700
1743902754.046822,0.074,-0.070,1.034,0.490,-2.520,-0.700
1743902754.066822,0.074,-0.073,1.033,0.280,-2.520,-0.700
1743902754.086822,0.076,-0.073,1.027,0.350,-2.450,-0.700
1743902754.106822,0.076,-0.072,1.030,0.350,-2.450,-0.630
1743902754.126822,0.074,-0.072,1.032,0.350,-2.450,-0.770
1743902754.146822,0.073,-0.076,1.031,0.350,-2.520,-0.770
1743902754.091794,0.075,-0.072,1.029,0.420,-2.520,-0.770
1743902754.111794,0.075,-0.073,1.027,0.280,-2.450,-0.700
1743902754.131794,0.073,-0.074,1.034,0.350,-2.520,-0.770
1743902754.151794,0.075,-0.073,1.035,0.420,-2.590,-0.770
1743902754.171794,0.075,-0.075,1.028,0.210,-2.380,-0.770
1743902754.191794,0.079,-0.074,1.027,0.420,-2.450,-0.770
1743902754.136989,0.075,-0.073,1.035,0.350,-2.450,-0.770
1743902754.156989,0.076,-0.072,1.030,0.280,-2.520,-0.700
1743902754.176989,0.075,-0.073,1.030,0.280,-2.450,-0.700
1743902754.196989,0.079,-0.071,1.031,0.280,-2.450,-0.840
1743902754.216989,0.074,-0.074,1.031,0.280,-2.450,-0.770
1743902754.236989,0.075,-0.071,1.030,0.280,-2.380,-0.700
1743902754.181853,0.075,-0.070,1.029,0.350,-2.380,-0.770
1743902754.201853,0.074,-0.073,1.031,0.280,-2.380,-0.700
1743902754.221853,0.074,-0.074,1.031,0.350,-2.450,-0.700
1743902754.241853,0.075,-0.073,1.031,0.280,-2.240,-0.700
1743902754.261853,0.074,-0.073,1.030,0.280,-2.310,-0.700
1743902754.281853,0.075,-0.073,1.030,0.420,-2.450,-0.700
1743902754.229311,0.075,-0.076,1.028,0.350,-2.450,-0.700
1743902754.249311,0.075,-0.074,1.030,0.420,-2.520,-0.770
1743902754.269311,0.077,-0.073,1.028,0.350,-2.520,-0.770
1743902754.289311,0.075,-0.073,1.028,0.280,-2.380,-0.770
1743902754.309311,0.077,-0.073,1.034,0.350,-2.520,-0.700
1743902754.329311,0.075,-0.074,1.031,0.350,-2.520,-0.700
1743902754.289651,0.076,-0.074,1.030,0.350,-2.520,-0.630
1743902754.309651,0.074,-0.072,1.027,0.280,-2.450,-0.700
1743902754.3296509,0.074,-0.074,1.028,0.280,-2.520,-0.700
1743902754.3496509,0.076,-0.073,1.031,0.420,-2.520,-0.630
1743902754.3696508,0.077,-0.075,1.028,0.280,-2.520,-0.700
1743902754.3896508,0.076,-0.074,1.028,0.420,-2.450,-0.700
1743902754.2911751,0.075,-0.072,1.027,0.350,-2.380,-0.840
1743902754.311175,0.075,-0.075,1.033,0.350,-2.520,-0.630
1743902754.331175,0.074,-0.072,1.033,0.350,-2.520,-0.630
1743902754.351175,0.077,-0.072,1.029,0.350,-2.520,-0.770
1743902754.371175,0.075,-0.074,1.028,0.350,-2.450,-0.700
1743902754.391175,0.075,-0.074,1.031,0.350,-2.380,-0.770
1743902754.3323092,0.075,-0.072,1.031,0.420,-2.590,-0.630
1743902754.3523092,0.074,-0.073,1.033,0.420,-2.450,-0.700
1743902754.3723092,0.077,-0.075,1.029,0.420,-2.450,-0.700
1743902754.3923092,0.076,-0.073,1.029,0.350,-2.380,-0.700
1743902754.4123092,0.074,-0.073,1.033,0.350,-2.450,-0.700
1743902754.4323092,0.075,-0.075,1.031,0.420,-2.450,-0.770
1743902754.3774772,0.076,-0.072,1.030,0.280,-2.450,-0.770
1743902754.3974771,0.076,-0.073,1.031,0.350,-2.380,-0.700
1743902754.4174771,0.076,-0.074,1.031,0.350,-2.450,-0.560
1743902754.437477,0.077,-0.075,1.029,0.350,-2.520,-0.700
1743902754.457477,0.077,-0.073,1.029,0.350,-2.380,-0.700
1743902754.477477,0.075,-0.072,1.031,0.350,-2.520,-0.770
1743902754.437212,0.076,-0.074,1.030,0.350,-2.450,-0.770
1743902754.457212,0.077,-0.073,1.031,0.350,-2.380,-0.700
1743902754.477212,0.076,-0.071,1.029,0.350,-2.520,-0.770
1743902754.497212,0.075,-0.071,1.031,0.420,-2.380,-0.700
1743902754.517212,0.074,-0.073,1.031,0.350,-2.450,-0.770
1743902754.537212,0.074,-0.073,1.029,0.420,-2.520,-0.630
1743902754.495562,0.076,-0.071,1.031,0.420,-2.240,-0.700
1743902754.515562,0.076,-0.074,1.032,0.350,-2.450,-0.770
1743902754.535562,0.077,-0.073,1.032,0.280,-2.450,-0.770
1743902754.555562,0.075,-0.072,1.029,0.350,-2.520,-0.700
1743902754.575562,0.073,-0.073,1.027,0.350,-2.450,-0.770
1743902754.595562,0.074,-0.074,1.030,0.420,-2.380,-0.840
1743902754.527156,0.074,-0.073,1.029,0.350,-2.380,-0.770
1743902754.547156,0.074,-0.072,1.026,0.280,-2.520,-0.700
1743902754.567156,0.075,-0.073,1.027,0.350,-2.380,-0.700
1743902754.587156,0.076,-0.074,1.033,0.350,-2.450,-0.840
1743902754.607156,0.074,-0.075,1.029,0.350,-2.450,-0.630
1743902754.627156,0.075,-0.075,1.027,0.350,-2.310,-0.700
1743902754.5732112,0.075,-0.072,1.028,0.350,-2.520,-0.700
1743902754.5932112,0.076,-0.075,1.034,0.350,-2.450,-0.770
1743902754.6132112,0.075,-0.074,1.031,0.420,-2.380,-0.700
1743902754.6332111,0.077,-0.075,1.029,0.280,-2.380,-0.770
1743902754.653211,0.076,-0.073,1.031,0.420,-2.380,-0.770
1743902754.673211,0.075,-0.073,1.031,0.420,-2.380,-0.770
1743902754.602204,0.075,-0.073,1.031,0.420,-2.520,-0.700
1743902754.622204,0.076,-0.072,1.027,0.420,-2.450,-0.770
1743902754.642204,0.077,-0.073,1.032,0.420,-2.380,-0.770
1743902754.662204,0.075,-0.074,1.033,0.280,-2.520,-0.700
1743902754.682204,0.077,-0.072,1.030,0.280,-2.380,-0.770
1743902754.702204,0.075,-0.074,1.029,0.350,-2.520,-0.700
1743902754.646915,0.076,-0.072,1.032,0.350,-2.450,-0.700
1743902754.666915,0.074,-0.074,1.031,0.350,-2.590,-0.700
1743902754.686915,0.075,-0.074,1.030,0.350,-2.520,-0.630
1743902754.706915,0.074,-0.074,1.030,0.420,-2.520,-0.700
1743902754.726915,0.076,-0.074,1.029,0.420,-2.450,-0.770
1743902754.7469149,0.074,-0.074,1.033,0.350,-2.520,-0.840
1743902754.692228,0.076,-0.076,1.028,0.420,-2.450,-0.770
1743902754.712228,0.077,-0.075,1.033,0.350,-2.380,-0.700
1743902754.732228,0.075,-0.073,1.031,0.350,-2.380,-0.700
1743902754.752228,0.076,-0.075,1.030,0.350,-2.520,-0.700
1743902754.772228,0.077,-0.072,1.030,0.350,-2.520,-0.700
1743902754.792228,0.076,-0.074,1.031,0.420,-2.450,-0.630
1743902754.7371922,0.074,-0.074,1.032,0.350,-2.450,-0.630
1743902754.7571921,0.075,-0.072,1.030,0.210,-2.450,-0.700
1743902754.777192,0.075,-0.072,1.032,0.280,-2.450,-0.700
1743902754.797192,0.074,-0.074,1.028,0.350,-2.520,-0.700
1743902754.817192,0.075,-0.075,1.030,0.280,-2.380,-0.700
1743902754.837192,0.075,-0.072,1.032,0.350,-2.380,-0.700
1743902754.797223,0.075,-0.074,1.028,0.280,-2.450,-0.700
1743902754.817223,0.075,-0.073,1.029,0.280,-2.380,-0.700
1743902754.837223,0.075,-0.073,1.031,0.420,-2.450,-0.700
1743902754.857223,0.075,-0.075,1.032,0.420,-2.520,-0.840
1743902754.877223,0.074,-0.074,1.030,0.210,-2.520,-0.770
1743902754.897223,0.077,-0.071,1.029,0.420,-2.380,-0.770
1743902754.8275452,0.074,-0.075,1.030,0.350,-2.450,-0.770
1743902754.8475451,0.078,-0.072,1.034,0.280,-2.450,-0.700
1743902754.8675451,0.076,-0.071,1.029,0.350,-2.520,-0.770
1743902754.887545,0.075,-0.073,1.029,0.420,-2.380,-0.770
1743902754.907545,0.076,-0.076,1.030,0.350,-2.450,-0.770
1743902754.927545,0.075,-0.073,1.033,0.420,-2.520,-0.700
1743902754.8576741,0.078,-0.072,1.029,0.420,-2.450,-0.840
1743902754.877674,0.077,-0.073,1.029,0.350,-2.520,-0.700
1743902754.897674,0.077,-0.072,1.030,0.280,-2.450,-0.700
1743902754.917674,0.075,-0.072,1.032,0.280,-2.590,-0.770
1743902754.937674,0.074,-0.074,1.032,0.350,-2.520,-0.770
1743902754.957674,0.077,-0.074,1.028,0.350,-2.380,-0.700
1743902754.9022202,0.073,-0.074,1.032,0.350,-2.310,-0.700
1743902754.9222202,0.076,-0.075,1.032,0.280,-2.520,-0.840
1743902754.9422202,0.077,-0.072,1.032,0.420,-2.450,-0.770
1743902754.9622202,0.076,-0.075,1.029,0.210,-2.310,-0.840
1743902754.9822202,0.075,-0.074,1.031,0.280,-2.380,-0.700
1743902755.0022202,0.076,-0.074,1.031,0.350,-2.450,-0.700
1743902754.9472752,0.075,-0.071,1.031,0.350,-2.660,-0.630
1743902754.9672751,0.077,-0.073,1.028,0.210,-2.520,-0.700
1743902754.9872751,0.076,-0.074,1.026,0.420,-2.380,-0.700
1743902755.007275,0.076,-0.074,1.033,0.350,-2.380,-0.770
1743902755.027275,0.077,-0.075,1.031,0.350,-2.590,-0.700
1743902755.047275,0.076,-0.075,1.028,0.350,-2.450,-0.770
1743902754.9923782,0.073,-0.073,1.032,0.560,-2.450,-0.700
1743902755.0123782,0.076,-0.076,1.032,0.420,-2.590,-0.770
1743902755.0323782,0.076,-0.073,1.033,0.420,-2.450,-0.770
1743902755.0523782,0.076,-0.073,1.028,0.350,-2.520,-0.700
1743902755.0723782,0.075,-0.075,1.031,0.350,-2.380,-0.630
1743902755.0923781,0.077,-0.075,1.030,0.420,-2.310,-0.700
1743902755.037336,0.075,-0.074,1.028,0.350,-2.450,-0.770
1743902755.057336,0.075,-0.075,1.030,0.560,-2.310,-0.700
1743902755.077336,0.075,-0.076,1.031,0.350,-2.380,-0.700
1743902755.097336,0.074,-0.074,1.032,0.280,-2.450,-0.630
1743902755.117336,0.077,-0.074,1.030,0.490,-2.520,-0.700
1743902755.137336,0.078,-0.074,1.027,0.420,-2.310,-0.770
1743902755.0973392,0.075,-0.074,1.034,0.420,-2.310,-0.770
1743902755.1173391,0.073,-0.073,1.034,0.350,-2.520,-0.700
1743902755.137339,0.076,-0.072,1.032,0.350,-2.310,-0.700
1743902755.157339,0.077,-0.072,1.029,0.280,-2.240,-0.770
1743902755.177339,0.076,-0.073,1.033,0.420,-2.380,-0.700
1743902755.197339,0.075,-0.073,1.031,0.350,-2.520,-0.770
1743902755.1268692,0.074,-0.071,1.028,0.350,-2.380,-0.770
1743902755.1468692,0.075,-0.072,1.030,0.420,-2.310,-0.700
1743902755.1668692,0.072,-0.073,1.033,0.280,-2.380,-0.840
1743902755.1868691,0.078,-0.071,1.029,0.350,-2.450,-0.700
1743902755.2068691,0.077,-0.072,1.026,0.490,-2.590,-0.770
1743902755.226869,0.074,-0.073,1.028,0.420,-2.450,-0.700
1743902755.15683,0.077,-0.075,1.031,0.350,-2.310,-0.700
1743902755.17683,0.074,-0.072,1.032,0.280,-2.450,-0.770
1743902755.19683,0.075,-0.074,1.028,0.280,-2.450,-0.770
1743902755.21683,0.076,-0.072,1.028,0.350,-2.520,-0.700
1743902755.23683,0.075,-0.073,1.029,0.210,-2.380,-0.630
1743902755.25683,0.076,-0.074,1.031,0.420,-2.380,-0.700
1743902755.201975,0.075,-0.074,1.030,0.280,-2.380,-0.770
1743902755.221975,0.076,-0.074,1.029,0.420,-2.380,-0.770
1743902755.241975,0.076,-0.073,1.032,0.420,-2.380,-0.770
1743902755.261975,0.078,-0.075,1.031,0.350,-2.450,-0.700
1743902755.281975,0.075,-0.073,1.032,0.420,-2.310,-0.630
1743902755.301975,0.075,-0.074,1.029,0.350,-2.450,-0.700
1743902755.233066,0.075,-0.074,1.029,0.350,-2.240,-0.700
1743902755.253066,0.074,-0.073,1.030,0.350,-2.380,-0.770
1743902755.273066,0.078,-0.074,1.031,0.490,-2.590,-0.770
1743902755.293066,0.075,-0.074,1.030,0.490,-2.380,-0.910
1743902755.313066,0.077,-0.074,1.027,0.350,-2.170,-0.700
1743902755.333066,0.075,-0.074,1.030,0.280,-2.450,-0.700
1743902755.291864,0.077,-0.075,1.030,0.350,-2.450,-0.700
1743902755.311864,0.076,-0.074,1.030,0.210,-2.520,-0.630
1743902755.3318639,0.076,-0.075,1.028,0.280,-2.310,-0.700
1743902755.3518639,0.074,-0.073,1.033,0.420,-2.380,-0.700
1743902755.3718638,0.073,-0.072,1.031,0.280,-2.520,-0.770
1743902755.3918638,0.075,-0.074,1.029,0.350,-2.450,-0.770
1743902755.322227,0.078,-0.075,1.028,0.420,-2.450,-0.770
1743902755.342227,0.075,-0.075,1.033,0.420,-2.450,-0.630
1743902755.362227,0.073,-0.074,1.032,0.350,-2.450,-0.700
1743902755.382227,0.077,-0.073,1.032,0.350,-2.450,-0.700
1743902755.402227,0.076,-0.075,1.028,0.420,-2.380,-0.700
1743902755.422227,0.075,-0.073,1.028,0.420,-2.380,-0.700
1743902755.396876,0.075,-0.071,1.031,0.420,-2.380,-0.700
1743902755.416876,0.075,-0.074,1.029,0.350,-2.520,-0.700
1743902755.436876,0.074,-0.073,1.028,0.420,-2.380,-0.770
1743902755.456876,0.077,-0.074,1.030,0.420,-2.380,-0.700
1743902755.476876,0.075,-0.072,1.030,0.350,-2.590,-0.770
1743902755.496876,0.077,-0.072,1.028,0.350,-2.590,-0.770
1743902755.411889,0.076,-0.072,1.030,0.420,-2.450,-0.770
1743902755.431889,0.076,-0.075,1.033,0.350,-2.310,-0.770
1743902755.451889,0.078,-0.073,1.032,0.350,-2.450,-0.700
1743902755.471889,0.076,-0.073,1.031,0.420,-2.380,-0.630
1743902755.491889,0.077,-0.073,1.030,0.420,-2.380,-0.700
1743902755.511889,0.075,-0.074,1.031,0.490,-2.380,-0.630
1743902755.456912,0.075,-0.072,1.032,0.350,-2.450,-0.700
1743902755.476912,0.074,-0.073,1.032,0.420,-2.450,-0.700
1743902755.496912,0.077,-0.072,1.029,0.350,-2.380,-0.840
1743902755.516912,0.076,-0.072,1.031,0.420,-2.380,-0.700
1743902755.536912,0.076,-0.072,1.032,0.350,-2.450,-0.700
1743902755.556912,0.076,-0.074,1.030,0.350,-2.380,-0.700
1743902755.5019512,0.078,-0.077,1.028,0.420,-2.380,-0.770
1743902755.5219512,0.076,-0.073,1.030,0.350,-2.520,-0.700
1743902755.5419512,0.078,-0.075,1.029,0.350,-2.450,-0.700
1743902755.5619512,0.076,-0.074,1.030,0.350,-2.450,-0.700
1743902755.5819511,0.074,-0.073,1.031,0.420,-2.380,-0.840
1743902755.6019511,0.075,-0.075,1.030,0.280,-2.450,-0.770
1743902755.546916,0.075,-0.073,1.032,0.350,-2.380,-0.840
1743902755.566916,0.076,-0.071,1.029,0.420,-2.380,-0.770
1743902755.586916,0.076,-0.073,1.031,0.420,-2.380,-0.770
1743902755.606916,0.073,-0.074,1.032,0.350,-2.450,-0.700
1743902755.626916,0.074,-0.074,1.032,0.350,-2.450,-0.700
1743902755.646916,0.074,-0.074,1.030,0.350,-2.450,-0.700
1743902755.576842,0.075,-0.071,1.027,0.350,-2.380,-0.630
1743902755.596842,0.077,-0.074,1.031,0.420,-2.450,-0.770
1743902755.616842,0.076,-0.073,1.032,0.350,-2.450,-0.700
1743902755.636842,0.075,-0.073,1.030,0.280,-2.520,-0.840
1743902755.656842,0.077,-0.072,1.027,0.420,-2.450,-0.770
1743902755.676842,0.078,-0.074,1.032,0.350,-2.310,-0.700
1743902755.6219,0.076,-0.073,1.032,0.350,-2.450,-0.700
1743902755.6419,0.075,-0.074,1.030,0.420,-2.450,-0.770
1743902755.6619,0.076,-0.071,1.027,0.420,-2.450,-0.840
1743902755.6819,0.075,-0.075,1.029,0.350,-2.240,-0.700
1743902755.7019,0.075,-0.073,1.034,0.350,-2.450,-0.700
1743902755.7219,0.078,-0.073,1.031,0.490,-2.380,-0.770
1743902755.700591,0.076,-0.072,1.030,0.420,-2.380,-0.630
1743902755.720591,0.076,-0.072,1.030,0.420,-2.310,-0.700
1743902755.740591,0.074,-0.073,1.032,0.420,-2.380,-0.700
1743902755.760591,0.077,-0.073,1.030,0.420,-2.310,-0.840
1743902755.780591,0.078,-0.072,1.026,0.350,-2.380,-0.770
1743902755.800591,0.075,-0.075,1.024,0.350,-2.450,-0.770
1743902755.712709,0.075,-0.072,1.031,0.350,-2.380,-0.770
1743902755.732709,0.074,-0.073,1.032,0.490,-2.450,-0.700
1743902755.752709,0.076,-0.075,1.031,0.420,-2.380,-0.770
1743902755.772709,0.076,-0.071,1.029,0.420,-2.310,-0.770
1743902755.7927089,0.075,-0.072,1.034,0.420,-2.310,-0.770
1743902755.8127089,0.075,-0.071,1.032,0.350,-2.380,-0.700
1743902755.742444,0.075,-0.071,1.029,0.350,-2.380,-0.700
1743902755.762444,0.077,-0.071,1.028,0.350,-2.450,-0.770
1743902755.782444,0.077,-0.073,1.033,0.490,-2.450,-0.700
1743902755.802444,0.075,-0.073,1.032,0.280,-2.520,-0.700
1743902755.822444,0.074,-0.072,1.026,0.420,-2.380,-0.770
1743902755.842444,0.076,-0.071,1.031,0.490,-2.310,-0.770
1743902755.787254,0.078,-0.072,1.031,0.280,-2.310,-0.700
1743902755.807254,0.073,-0.072,1.030,0.420,-2.450,-0.700
1743902755.827254,0.078,-0.074,1.028,0.420,-2.450,-0.700
1743902755.847254,0.076,-0.076,1.028,0.490,-2.310,-0.630
1743902755.867254,0.074,-0.073,1.030,0.350,-2.380,-0.700
1743902755.887254,0.074,-0.072,1.034,0.420,-2.520,-0.770
1743902755.831849,0.075,-0.074,1.031,0.350,-2.590,-0.770
1743902755.851849,0.075,-0.074,1.027,0.420,-2.380,-0.770
1743902755.871849,0.076,-0.073,1.031,0.350,-2.520,-0.770
1743902755.891849,0.077,-0.074,1.030,0.350,-2.450,-0.700
1743902755.911849,0.076,-0.072,1.027,0.280,-2.380,-0.840
1743902755.931849,0.078,-0.071,1.029,0.350,-2.380,-0.700
1743902755.877221,0.074,-0.073,1.033,0.280,-2.590,-0.770
1743902755.897221,0.075,-0.074,1.032,0.420,-2.450,-0.770
1743902755.917221,0.075,-0.072,1.029,0.420,-2.450,-0.630
1743902755.937221,0.074,-0.073,1.032,0.350,-2.380,-0.700
1743902755.957221,0.075,-0.074,1.032,0.350,-2.450,-0.840
1743902755.977221,0.075,-0.074,1.032,0.350,-2.380,-0.840
1743902755.92229,0.076,-0.073,1.030,0.350,-2.450,-0.630
1743902755.94229,0.074,-0.073,1.028,0.350,-2.450,-0.770
1743902755.96229,0.075,-0.074,1.031,0.420,-2.240,-0.700
1743902755.98229,0.075,-0.073,1.030,0.350,-2.520,-0.840
1743902756.00229,0.074,-0.073,1.030,0.350,-2.380,-0.770
1743902756.02229,0.074,-0.072,1.028,0.350,-2.380,-0.700
1743902755.995747,0.073,-0.074,1.033,0.490,-2.450,-0.560
1743902756.015747,0.075,-0.072,1.033,0.350,-2.380,-0.770
1743902756.035747,0.076,-0.072,1.030,0.490,-2.310,-0.770
1743902756.055747,0.074,-0.074,1.029,0.420,-2.450,-0.700
1743902756.075747,0.076,-0.071,1.030,0.420,-2.310,-0.770
1743902756.095747,0.076,-0.075,1.033,0.350,-2.450,-0.770
1743902755.999126,0.076,-0.072,1.030,0.350,-2.450,-0.630
1743902756.019126,0.075,-0.073,1.028,0.350,-2.240,-0.770
1743902756.039126,0.077,-0.072,1.032,0.420,-2.310,-0.770
1743902756.059126,0.077,-0.071,1.032,0.350,-2.520,-0.770
1743902756.079126,0.076,-0.073,1.029,0.280,-2.380,-0.770
1743902756.0991259,0.074,-0.071,1.029,0.350,-2.380,-0.700
1743902756.0423632,0.074,-0.072,1.031,0.350,-2.520,-0.700
1743902756.0623631,0.075,-0.073,1.032,0.420,-2.450,-0.700
1743902756.0823631,0.074,-0.074,1.031,0.210,-2.450,-0.700
1743902756.102363,0.078,-0.074,1.029,0.280,-2.310,-0.700
1743902756.122363,0.075,-0.074,1.032,0.280,-2.380,-0.700
1743902756.142363,0.075,-0.073,1.032,0.350,-2.520,-0.770
1743902756.0873442,0.075,-0.072,1.026,0.350,-2.520,-0.700
1743902756.1073442,0.075,-0.071,1.029,0.350,-2.380,-0.700
1743902756.1273441,0.076,-0.075,1.030,0.350,-2.450,-0.770
1743902756.147344,0.076,-0.073,1.033,0.420,-2.520,-0.770
1743902756.167344,0.074,-0.074,1.030,0.350,-2.450,-0.770
1743902756.187344,0.075,-0.075,1.027,0.280,-2.380,-0.770
1743902756.132312,0.076,-0.073,1.032,0.420,-2.520,-0.700
1743902756.152312,0.078,-0.072,1.032,0.350,-2.520,-0.700
1743902756.172312,0.077,-0.072,1.029,0.420,-2.450,-0.770
1743902756.192312,0.074,-0.074,1.028,0.420,-2.380,-0.700
1743902756.212312,0.074,-0.073,1.031,0.350,-2.310,-0.770
1743902756.232312,0.078,-0.073,1.032,0.350,-2.520,-0.770
1743902756.177238,0.077,-0.073,1.028,0.280,-2.380,-0.700
1743902756.197238,0.077,-0.071,1.029,0.210,-2.450,-0.700
1743902756.217238,0.074,-0.074,1.032,0.280,-2.450,-0.700
1743902756.237238,0.075,-0.072,1.032,0.280,-2.520,-0.700
1743902756.257238,0.077,-0.073,1.028,0.210,-2.450,-0.770
1743902756.277238,0.075,-0.073,1.028,0.350,-2.520,-0.700
1743902756.207559,0.076,-0.073,1.030,0.350,-2.450,-0.700
1743902756.227559,0.074,-0.073,1.031,0.420,-2.520,-0.700
1743902756.247559,0.077,-0.073,1.031,0.420,-2.590,-0.700
1743902756.267559,0.077,-0.076,1.032,0.560,-2.520,-0.770
1743902756.287559,0.076,-0.071,1.029,0.490,-2.450,-0.770
1743902756.307559,0.075,-0.073,1.030,0.420,-2.520,-0.770
1743902756.296391,0.076,-0.072,1.029,0.420,-2.450,-0.770
1743902756.316391,0.076,-0.075,1.031,0.490,-2.520,-0.770
1743902756.336391,0.075,-0.072,1.029,0.280,-2.240,-0.770
1743902756.356391,0.074,-0.072,1.032,0.350,-2.520,-0.700
1743902756.376391,0.074,-0.073,1.032,0.490,-2.520,-0.770
1743902756.396391,0.078,-0.071,1.032,0.420,-2.450,-0.700
1743902756.2992651,0.075,-0.073,1.028,0.420,-2.310,-0.770
1743902756.3192651,0.076,-0.074,1.031,0.350,-2.380,-0.770
1743902756.339265,0.074,-0.074,1.031,0.280,-2.380,-0.770
1743902756.359265,0.075,-0.073,1.028,0.420,-2.380,-0.770
1743902756.379265,0.078,-0.073,1.030,0.350,-2.450,-0.700
1743902756.399265,0.074,-0.074,1.030,0.350,-2.380,-0.700
1743902756.3419652,0.075,-0.072,1.031,0.350,-2.520,-0.700
1743902756.3619652,0.076,-0.071,1.028,0.280,-2.520,-0.700
1743902756.3819652,0.075,-0.073,1.029,0.280,-2.450,-0.770
1743902756.4019651,0.073,-0.074,1.032,0.420,-2.450,-0.700
1743902756.4219651,0.077,-0.072,1.032,0.350,-2.520,-0.770
1743902756.441965,0.075,-0.074,1.028,0.420,-2.240,-0.770
1743902756.3877301,0.076,-0.074,1.028,0.350,-2.450,-0.630
1743902756.40773,0.076,-0.073,1.033,0.350,-2.520,-0.700
1743902756.42773,0.075,-0.074,1.030,0.350,-2.520,-0.700
1743902756.44773,0.074,-0.072,1.028,0.280,-2.380,-0.840
1743902756.46773,0.077,-0.072,1.031,0.350,-2.380,-0.840
1743902756.48773,0.073,-0.073,1.031,0.420,-2.520,-0.770
1743902756.4323282,0.077,-0.074,1.029,0.280,-2.520,-0.840
1743902756.4523282,0.076,-0.073,1.027,0.280,-2.450,-0.770
1743902756.4723282,0.076,-0.075,1.030,0.350,-2.590,-0.700
1743902756.4923282,0.076,-0.073,1.034,0.280,-2.520,-0.700
1743902756.5123281,0.075,-0.076,1.031,0.280,-2.520,-0.770
1743902756.5323281,0.077,-0.075,1.030,0.350,-2.450,-0.770
1743902756.4769812,0.077,-0.073,1.030,0.420,-2.380,-0.770
1743902756.4969811,0.075,-0.074,1.031,0.420,-2.380,-0.770
1743902756.5169811,0.077,-0.074,1.028,0.420,-2.520,-0.770
1743902756.536981,0.074,-0.074,1.029,0.490,-2.380,-0.700
1743902756.556981,0.077,-0.072,1.028,0.350,-2.380,-0.630
1743902756.576981,0.075,-0.073,1.031,0.350,-2.450,-0.630
1743902756.5218961,0.075,-0.075,1.032,0.420,-2.450,-0.630
1743902756.541896,0.073,-0.073,1.028,0.280,-2.380,-0.700
1743902756.561896,0.075,-0.074,1.031,0.350,-2.380,-0.700
1743902756.581896,0.076,-0.075,1.032,0.490,-2.590,-0.700
1743902756.601896,0.075,-0.072,1.032,0.420,-2.520,-0.630
1743902756.621896,0.074,-0.072,1.026,0.280,-2.380,-0.630
1743902756.5968542,0.075,-0.073,1.031,0.420,-2.450,-0.770
1743902756.6168542,0.074,-0.072,1.032,0.420,-2.520,-0.700
1743902756.6368542,0.077,-0.075,1.031,0.490,-2.590,-0.630
1743902756.6568542,0.076,-0.072,1.030,0.350,-2.380,-0.700
1743902756.6768541,0.076,-0.072,1.029,0.350,-2.310,-0.630
1743902756.696854,0.074,-0.072,1.035,0.280,-2.380,-0.770
1743902756.600428,0.074,-0.071,1.033,0.420,-2.450,-0.770
1743902756.620428,0.075,-0.073,1.029,0.280,-2.520,-0.770
1743902756.640428,0.074,-0.072,1.029,0.350,-2.380,-0.700
1743902756.660428,0.075,-0.074,1.031,0.210,-2.380,-0.700
1743902756.680428,0.076,-0.074,1.030,0.420,-2.590,-0.700
1743902756.700428,0.075,-0.073,1.028,0.280,-2.520,-0.770
1743902756.6419492,0.075,-0.071,1.032,0.280,-2.520,-0.770
1743902756.6619492,0.075,-0.072,1.032,0.420,-2.520,-0.630
1743902756.6819491,0.077,-0.074,1.030,0.280,-2.380,-0.700
1743902756.7019491,0.078,-0.073,1.028,0.420,-2.450,-0.700
1743902756.721949,0.075,-0.073,1.031,0.420,-2.380,-0.770
1743902756.741949,0.076,-0.074,1.034,0.350,-2.590,-0.700
1743902756.702477,0.076,-0.072,1.030,0.350,-2.520,-0.770
1743902756.722477,0.075,-0.073,1.028,0.350,-2.380,-0.700
1743902756.742477,0.074,-0.074,1.033,0.280,-2.310,-0.700
1743902756.762477,0.076,-0.075,1.035,0.350,-2.450,-0.770
1743902756.782477,0.074,-0.074,1.027,0.420,-2.520,-0.700
1743902756.802477,0.075,-0.074,1.027,0.280,-2.240,-0.770
1743902756.7321541,0.076,-0.073,1.034,0.350,-2.450,-0.770
1743902756.752154,0.075,-0.073,1.029,0.280,-2.590,-0.700
1743902756.772154,0.075,-0.074,1.028,0.420,-2.450,-0.700
1743902756.792154,0.076,-0.074,1.030,0.280,-2.310,-0.770
1743902756.812154,0.073,-0.074,1.032,0.350,-2.450,-0.630
1743902756.832154,0.075,-0.075,1.029,0.280,-2.520,-0.700
1743902756.7770221,0.074,-0.074,1.027,0.350,-2.380,-0.770
1743902756.797022,0.073,-0.073,1.030,0.350,-2.380,-0.770
1743902756.817022,0.073,-0.073,1.033,0.280,-2.450,-0.700
1743902756.837022,0.077,-0.073,1.032,0.350,-2.520,-0.700
1743902756.857022,0.074,-0.073,1.027,0.420,-2.520,-0.770
1743902756.877022,0.075,-0.072,1.031,0.280,-2.590,-0.630
1743902756.82203,0.075,-0.071,1.031,0.420,-2.520,-0.770
1743902756.84203,0.074,-0.074,1.032,0.350,-2.380,-0.700
1743902756.86203,0.076,-0.075,1.030,0.350,-2.590,-0.700
1743902756.88203,0.076,-0.072,1.029,0.350,-2.450,-0.700
1743902756.90203,0.075,-0.072,1.030,0.420,-2.450,-0.560
1743902756.92203,0.074,-0.073,1.034,0.350,-2.590,-0.770
1743902756.8965971,0.076,-0.073,1.030,0.420,-2.450,-0.770
1743902756.9165971,0.076,-0.073,1.029,0.420,-2.380,-0.700
1743902756.936597,0.077,-0.072,1.035,0.350,-2.450,-0.770
1743902756.956597,0.077,-0.073,1.033,0.350,-2.450,-0.700
1743902756.976597,0.076,-0.073,1.031,0.350,-2.380,-0.700
1743902756.996597,0.075,-0.071,1.028,0.350,-2.450,-0.700
1743902756.9000921,0.075,-0.075,1.033,0.420,-2.380,-0.630
1743902756.920092,0.075,-0.073,1.034,0.280,-2.450,-0.770
1743902756.940092,0.076,-0.075,1.033,0.350,-2.520,-0.700
1743902756.960092,0.074,-0.071,1.028,0.420,-2.380,-0.700
1743902756.980092,0.077,-0.073,1.030,0.420,-2.380,-0.770
1743902757.000092,0.074,-0.074,1.032,0.350,-2.520,-0.770
1743902756.94212,0.074,-0.073,1.029,0.350,-2.380,-0.770
1743902756.96212,0.075,-0.072,1.028,0.280,-2.310,-0.700
1743902756.98212,0.075,-0.075,1.029,0.420,-2.520,-0.700
1743902757.00212,0.075,-0.072,1.033,0.350,-2.380,-0.770
1743902757.02212,0.076,-0.074,1.031,0.350,-2.450,-0.840
1743902757.04212,0.077,-0.077,1.027,0.280,-2.450,-0.700
1743902756.9892151,0.076,-0.076,1.029,0.350,-2.380,-0.700
1743902757.009215,0.074,-0.073,1.031,0.350,-2.520,-0.700
1743902757.029215,0.076,-0.073,1.031,0.350,-2.380,-0.770
1743902757.049215,0.075,-0.073,1.028,0.350,-2.450,-0.700
1743902757.069215,0.076,-0.075,1.030,0.280,-2.380,-0.700
1743902757.089215,0.076,-0.075,1.032,0.420,-2.520,-0.840
1743902757.034307,0.075,-0.073,1.031,0.420,-2.520,-0.630
1743902757.054307,0.078,-0.072,1.027,0.420,-2.590,-0.770
1743902757.074307,0.077,-0.071,1.031,0.420,-2.450,-0.700
1743902757.094307,0.077,-0.072,1.034,0.350,-2.590,-0.700
1743902757.114307,0.077,-0.074,1.029,0.280,-2.520,-0.700
1743902757.134307,0.078,-0.074,1.030,0.280,-2.520,-0.700
1743902757.076901,0.076,-0.074,1.032,0.420,-2.590,-0.700
1743902757.096901,0.075,-0.074,1.031,0.420,-2.590,-0.700
1743902757.116901,0.075,-0.072,1.031,0.280,-2.450,-0.770
1743902757.136901,0.075,-0.072,1.029,0.350,-2.450,-0.770
1743902757.156901,0.073,-0.073,1.028,0.280,-2.380,-0.700
1743902757.1769009,0.077,-0.073,1.031,0.280,-2.450,-0.700
1743902757.121977,0.076,-0.072,1.028,0.280,-2.450,-0.770
1743902757.141977,0.077,-0.072,1.030,0.420,-2.450,-0.630
1743902757.161977,0.076,-0.072,1.030,0.210,-2.450,-0.840
1743902757.181977,0.074,-0.073,1.032,0.210,-2.450,-0.700
1743902757.201977,0.076,-0.072,1.028,0.420,-2.450,-0.700
1743902757.221977,0.075,-0.072,1.030,0.420,-2.380,-0.630
1743902757.197046,0.076,-0.073,1.033,0.350,-2.450,-0.770
1743902757.217046,0.075,-0.075,1.030,0.490,-2.450,-0.630
1743902757.237046,0.077,-0.071,1.028,0.280,-2.380,-0.700
1743902757.257046,0.074,-0.075,1.030,0.350,-2.310,-0.770
1743902757.277046,0.075,-0.074,1.033,0.350,-2.380,-0.700
1743902757.297046,0.075,-0.074,1.032,0.280,-2.450,-0.700
1743902757.2119732,0.076,-0.075,1.029,0.280,-2.450,-0.700
1743902757.2319732,0.076,-0.073,1.030,0.420,-2.380,-0.770
1743902757.2519732,0.074,-0.073,1.027,0.420,-2.450,-0.700
1743902757.2719731,0.076,-0.074,1.030,0.420,-2.450,-0.700
1743902757.291973,0.075,-0.073,1.028,0.420,-2.450,-0.630
1743902757.311973,0.078,-0.073,1.029,0.350,-2.310,-0.700
1743902757.256966,0.076,-0.073,1.032,0.350,-2.520,-0.770
1743902757.276966,0.077,-0.074,1.031,0.420,-2.520,-0.700
1743902757.296966,0.073,-0.071,1.029,0.350,-2.450,-0.560
1743902757.316966,0.074,-0.074,1.031,0.350,-2.450,-0.700
1743902757.336966,0.075,-0.072,1.034,0.350,-2.450,-0.700
1743902757.356966,0.077,-0.071,1.031,0.280,-2.450,-0.700
1743902757.286935,0.075,-0.075,1.031,0.420,-2.450,-0.630
1743902757.306935,0.076,-0.074,1.029,0.350,-2.450,-0.700
1743902757.326935,0.073,-0.070,1.032,0.420,-2.520,-0.700
1743902757.346935,0.077,-0.074,1.033,0.350,-2.520,-0.630
1743902757.366935,0.078,-0.074,1.029,0.420,-2.520,-0.700
1743902757.386935,0.076,-0.073,1.030,0.350,-2.380,-0.770
1743902757.332034,0.075,-0.075,1.032,0.280,-2.590,-0.630
1743902757.352034,0.075,-0.074,1.028,0.420,-2.520,-0.700
1743902757.372034,0.077,-0.072,1.027,0.280,-2.380,-0.700
1743902757.392034,0.076,-0.074,1.029,0.350,-2.450,-0.770
1743902757.412034,0.076,-0.072,1.032,0.350,-2.450,-0.770
1743902757.432034,0.076,-0.074,1.034,0.420,-2.380,-0.700
1743902757.3920102,0.076,-0.072,1.029,0.420,-2.450,-0.700
1743902757.4120102,0.076,-0.072,1.028,0.210,-2.520,-0.700
1743902757.4320102,0.076,-0.073,1.034,0.280,-2.590,-0.770
1743902757.4520102,0.077,-0.073,1.030,0.350,-2.520,-0.700
1743902757.4720101,0.075,-0.075,1.031,0.420,-2.450,-0.630
1743902757.49201,0.078,-0.074,1.030,0.420,-2.380,-0.700
1743902757.4282832,0.075,-0.074,1.033,0.350,-2.520,-0.770
1743902757.4482832,0.075,-0.073,1.031,0.280,-2.450,-0.770
1743902757.4682832,0.075,-0.073,1.030,0.280,-2.590,-0.630
1743902757.4882832,0.075,-0.072,1.030,0.420,-2.380,-0.770
1743902757.5082831,0.075,-0.073,1.032,0.350,-2.520,-0.770
1743902757.528283,0.075,-0.075,1.033,0.280,-2.590,-0.770
1743902757.497148,0.075,-0.073,1.030,0.420,-2.520,-0.700
1743902757.517148,0.076,-0.072,1.030,0.350,-2.380,-0.700
1743902757.537148,0.076,-0.074,1.031,0.280,-2.310,-0.630
1743902757.557148,0.077,-0.073,1.031,0.350,-2.450,-0.700
1743902757.577148,0.076,-0.075,1.030,0.350,-2.450,-0.770
1743902757.597148,0.076,-0.073,1.031,0.280,-2.450,-0.770
1743902757.499536,0.076,-0.072,1.030,0.350,-2.380,-0.630
1743902757.519536,0.075,-0.072,1.032,0.350,-2.520,-0.630
1743902757.539536,0.077,-0.072,1.032,0.420,-2.590,-0.700
1743902757.559536,0.076,-0.075,1.029,0.490,-2.380,-0.770
1743902757.579536,0.075,-0.071,1.033,0.490,-2.310,-0.700
1743902757.599536,0.076,-0.073,1.032,0.350,-2.380,-0.700
1743902757.541963,0.075,-0.074,1.028,0.350,-2.450,-0.770
1743902757.561963,0.077,-0.075,1.029,0.350,-2.450,-0.700
1743902757.581963,0.075,-0.073,1.030,0.350,-2.520,-0.840
1743902757.601963,0.076,-0.073,1.031,0.280,-2.450,-0.770
1743902757.621963,0.074,-0.073,1.030,0.350,-2.520,-0.700
1743902757.641963,0.077,-0.074,1.030,0.210,-2.450,-0.700
1743902757.60046,0.073,-0.073,1.032,0.280,-2.520,-0.700
1743902757.62046,0.075,-0.075,1.031,0.350,-2.590,-0.770
1743902757.64046,0.076,-0.075,1.028,0.210,-2.380,-0.700
1743902757.66046,0.076,-0.072,1.029,0.280,-2.450,-0.770
1743902757.68046,0.075,-0.072,1.033,0.280,-2.520,-0.700
1743902757.70046,0.075,-0.075,1.031,0.280,-2.590,-0.700
1743902757.6322641,0.075,-0.078,1.031,0.420,-2.590,-0.700
1743902757.652264,0.076,-0.073,1.029,0.350,-2.380,-0.770
1743902757.672264,0.076,-0.071,1.030,0.420,-2.310,-0.700
1743902757.692264,0.076,-0.074,1.031,0.350,-2.590,-0.700
1743902757.712264,0.075,-0.072,1.032,0.350,-2.450,-0.700
1743902757.732264,0.077,-0.075,1.030,0.280,-2.310,-0.700
1743902757.6772652,0.076,-0.071,1.033,0.420,-2.310,-0.700
1743902757.6972651,0.076,-0.073,1.033,0.280,-2.590,-0.770
1743902757.7172651,0.076,-0.074,1.029,0.350,-2.450,-0.700
1743902757.737265,0.074,-0.074,1.027,0.420,-2.380,-0.700
1743902757.757265,0.076,-0.073,1.032,0.350,-2.380,-0.840
1743902757.777265,0.073,-0.074,1.032,0.280,-2.380,-0.700
1743902757.7069073,0.074,-0.074,1.030,0.350,-2.450,-0.840
1743902757.7269073,0.076,-0.073,1.028,0.350,-2.450,-0.770
1743902757.7469072,0.075,-0.072,1.030,0.420,-2.380,-0.630
1743902757.7669072,0.075,-0.072,1.030,0.350,-2.520,-0.770
1743902757.7869072,0.075,-0.072,1.030,0.420,-2.450,-0.700
1743902757.8069072,0.075,-0.075,1.030,0.280,-2.380,-0.770
1743902757.795469,0.075,-0.076,1.032,0.210,-2.450,-0.700
1743902757.815469,0.075,-0.075,1.032,0.420,-2.450,-0.700
1743902757.835469,0.077,-0.074,1.032,0.350,-2.450,-0.700
1743902757.855469,0.076,-0.073,1.029,0.140,-2.450,-0.700
1743902757.875469,0.075,-0.074,1.029,0.350,-2.450,-0.770
1743902757.895469,0.076,-0.073,1.031,0.350,-2.520,-0.700
1743902757.8137531,0.076,-0.074,1.032,0.210,-2.520,-0.700
1743902757.833753,0.074,-0.072,1.027,0.350,-2.450,-0.700
1743902757.853753,0.075,-0.074,1.031,0.350,-2.450,-0.630
1743902757.873753,0.079,-0.075,1.029,0.280,-2.520,-0.700
1743902757.893753,0.076,-0.075,1.030,0.420,-2.590,-0.770
1743902757.913753,0.077,-0.074,1.029,0.350,-2.520,-0.630
1743902757.857141,0.075,-0.073,1.032,0.280,-2.450,-0.700
1743902757.877141,0.074,-0.073,1.031,0.280,-2.450,-0.770
1743902757.897141,0.076,-0.074,1.029,0.350,-2.380,-0.700
1743902757.917141,0.077,-0.073,1.033,0.350,-2.450,-0.700
1743902757.937141,0.077,-0.072,1.035,0.350,-2.520,-0.770
1743902757.957141,0.076,-0.072,1.032,0.280,-2.590,-0.700
1743902757.886796,0.078,-0.072,1.027,0.280,-2.450,-0.700
1743902757.906796,0.077,-0.076,1.028,0.350,-2.450,-0.770
1743902757.926796,0.077,-0.073,1.031,0.420,-2.450,-0.770
1743902757.946796,0.074,-0.074,1.035,0.350,-2.450,-0.700
1743902757.966796,0.076,-0.074,1.030,0.420,-2.520,-0.700
1743902757.986796,0.075,-0.075,1.028,0.420,-2.450,-0.700
1743902757.9456282,0.075,-0.073,1.032,0.350,-2.450,-0.700
1743902757.9656281,0.078,-0.073,1.030,0.420,-2.450,-0.700
1743902757.9856281,0.076,-0.072,1.030,0.350,-2.310,-0.840
1743902758.005628,0.077,-0.072,1.031,0.280,-2.170,-0.770
1743902758.025628,0.075,-0.075,1.033,0.490,-2.380,-0.700
1743902758.045628,0.074,-0.071,1.032,0.280,-2.380,-0.700
1743902757.9903202,0.075,-0.073,1.030,0.420,-2.380,-0.700
1743902758.0103202,0.077,-0.073,1.029,0.420,-2.380,-0.770
1743902758.0303202,0.076,-0.071,1.030,0.420,-2.450,-0.770
1743902758.0503201,0.074,-0.073,1.029,0.280,-2.310,-0.700
1743902758.0703201,0.075,-0.074,1.031,0.350,-2.380,-0.770
1743902758.09032,0.077,-0.072,1.030,0.420,-2.380,-0.770
1743902758.022274,0.074,-0.071,1.028,0.350,-2.380,-0.700
1743902758.042274,0.077,-0.073,1.030,0.350,-2.520,-0.770
1743902758.062274,0.073,-0.072,1.032,0.280,-2.520,-0.700
1743902758.082274,0.074,-0.074,1.027,0.420,-2.380,-0.700
1743902758.102274,0.076,-0.072,1.031,0.350,-2.520,-0.700
1743902758.122274,0.075,-0.070,1.034,0.420,-2.590,-0.840
1743902758.096488,0.074,-0.075,1.029,0.350,-2.310,-0.770
1743902758.116488,0.075,-0.075,1.030,0.490,-2.590,-0.770
1743902758.136488,0.076,-0.076,1.027,0.420,-2.450,-0.700
1743902758.156488,0.075,-0.073,1.030,0.420,-2.450,-0.700
1743902758.176488,0.076,-0.074,1.034,0.350,-2.520,-0.770
1743902758.196488,0.073,-0.074,1.032,0.350,-2.380,-0.770
1743902758.0992522,0.077,-0.075,1.029,0.420,-2.380,-0.840
1743902758.1192522,0.077,-0.073,1.029,0.420,-2.380,-0.770
1743902758.1392522,0.077,-0.074,1.034,0.350,-2.520,-0.770
1743902758.1592522,0.075,-0.074,1.031,0.420,-2.590,-0.700
1743902758.1792521,0.077,-0.074,1.031,0.420,-2.450,-0.770
1743902758.1992521,0.075,-0.072,1.030,0.420,-2.310,-0.700
1743902758.14217,0.074,-0.070,1.030,0.420,-2.520,-0.700
1743902758.16217,0.075,-0.073,1.029,0.350,-2.450,-0.700
1743902758.18217,0.077,-0.073,1.029,0.420,-2.310,-0.770
1743902758.20217,0.077,-0.072,1.032,0.280,-2.450,-0.700
1743902758.2221699,0.076,-0.072,1.033,0.350,-2.520,-0.700
1743902758.2421699,0.078,-0.073,1.030,0.350,-2.450,-0.630
1743902758.187304,0.078,-0.072,1.030,0.280,-2.450,-0.700
1743902758.207304,0.077,-0.073,1.033,0.280,-2.450,-0.700
1743902758.227304,0.075,-0.072,1.030,0.420,-2.520,-0.700
1743902758.247304,0.076,-0.072,1.029,0.350,-2.520,-0.770
1743902758.267304,0.076,-0.072,1.029,0.350,-2.450,-0.630
1743902758.287304,0.078,-0.073,1.032,0.420,-2.520,-0.770
1743902758.232235,0.076,-0.072,1.029,0.420,-2.520,-0.770
1743902758.252235,0.077,-0.074,1.028,0.350,-2.590,-0.770
1743902758.272235,0.076,-0.073,1.028,0.280,-2.450,-0.770
1743902758.292235,0.073,-0.073,1.029,0.350,-2.450,-0.630
1743902758.3122349,0.074,-0.075,1.031,0.420,-2.520,-0.770
1743902758.3322349,0.075,-0.073,1.030,0.210,-2.310,-0.700
1743902758.277309,0.076,-0.071,1.030,0.280,-2.380,-0.700
1743902758.297309,0.076,-0.073,1.030,0.350,-2.520,-0.700
1743902758.317309,0.076,-0.074,1.033,0.350,-2.590,-0.700
1743902758.337309,0.076,-0.071,1.030,0.280,-2.520,-0.700
1743902758.3573089,0.078,-0.074,1.028,0.280,-2.590,-0.630
1743902758.3773088,0.075,-0.073,1.033,0.490,-2.310,-0.770
1743902758.3071222,0.075,-0.073,1.030,0.420,-2.520,-0.630
1743902758.3271222,0.074,-0.075,1.031,0.350,-2.450,-0.770
1743902758.3471222,0.076,-0.074,1.029,0.420,-2.450,-0.770
1743902758.3671222,0.079,-0.074,1.029,0.350,-2.310,-0.700
1743902758.3871222,0.077,-0.072,1.031,0.350,-2.520,-0.770
1743902758.4071221,0.076,-0.072,1.031,0.350,-2.520,-0.700
1743902758.3971531,0.079,-0.073,1.028,0.280,-2.450,-0.770
1743902758.4171531,0.076,-0.072,1.029,0.420,-2.380,-0.700
1743902758.437153,0.075,-0.072,1.029,0.350,-2.450,-0.560
1743902758.457153,0.075,-0.074,1.031,0.280,-2.450,-0.770
1743902758.477153,0.077,-0.074,1.030,0.350,-2.380,-0.770
1743902758.497153,0.075,-0.073,1.033,0.420,-2.380,-0.700
1743902758.4000921,0.075,-0.073,1.033,0.350,-2.380,-0.770
1743902758.420092,0.077,-0.073,1.028,0.420,-2.520,-0.700
1743902758.440092,0.077,-0.074,1.029,0.280,-2.450,-0.770
1743902758.460092,0.077,-0.074,1.032,0.490,-2.310,-0.700
1743902758.480092,0.076,-0.075,1.029,0.420,-2.450,-0.700
1743902758.500092,0.075,-0.076,1.029,0.420,-2.450,-0.700
1743902758.4418972,0.074,-0.072,1.026,0.350,-2.310,-0.770
1743902758.4618971,0.076,-0.073,1.032,0.350,-2.380,-0.770
1743902758.481897,0.076,-0.075,1.031,0.350,-2.590,-0.700
1743902758.501897,0.076,-0.074,1.029,0.420,-2.380,-0.770
1743902758.521897,0.076,-0.073,1.030,0.350,-2.310,-0.700
1743902758.541897,0.076,-0.074,1.034,0.350,-2.380,-0.840
1743902758.486962,0.076,-0.071,1.032,0.350,-2.450,-0.700
1743902758.506962,0.076,-0.074,1.028,0.350,-2.380,-0.770
1743902758.526962,0.077,-0.073,1.030,0.350,-2.380,-0.700
1743902758.546962,0.076,-0.073,1.034,0.280,-2.590,-0.770
1743902758.566962,0.076,-0.074,1.031,0.210,-2.450,-0.700
1743902758.586962,0.077,-0.073,1.029,0.490,-2.450,-0.700
1743902758.534493,0.076,-0.074,1.028,0.420,-2.310,-0.700
1743902758.554493,0.074,-0.075,1.032,0.420,-2.380,-0.770
1743902758.574493,0.075,-0.075,1.031,0.280,-2.520,-0.700
1743902758.594493,0.075,-0.074,1.027,0.280,-2.450,-0.770
1743902758.614493,0.076,-0.073,1.029,0.280,-2.240,-0.700
1743902758.6344929,0.078,-0.072,1.031,0.280,-2.450,-0.770
1743902758.577343,0.075,-0.073,1.029,0.280,-2.380,-0.700
1743902758.597343,0.077,-0.072,1.029,0.350,-2.380,-0.700
1743902758.617343,0.076,-0.074,1.031,0.350,-2.380,-0.560
1743902758.637343,0.075,-0.075,1.030,0.350,-2.310,-0.700
1743902758.657343,0.076,-0.076,1.029,0.420,-2.520,-0.700
1743902758.677343,0.076,-0.075,1.030,0.350,-2.380,-0.840
1743902758.6220713,0.077,-0.074,1.028,0.350,-2.310,-0.700
1743902758.6420712,0.073,-0.073,1.031,0.420,-2.240,-0.770
1743902758.6620712,0.078,-0.074,1.030,0.280,-2.520,-0.700
1743902758.6820712,0.076,-0.073,1.027,0.280,-2.450,-0.700
1743902758.7020712,0.074,-0.072,1.030,0.420,-2.450,-0.700
1743902758.7220712,0.074,-0.075,1.030,0.350,-2.590,-0.770
1743902758.698833,0.074,-0.073,1.031,0.210,-2.590,-0.700
1743902758.718833,0.078,-0.074,1.030,0.420,-2.450,-0.840
1743902758.738833,0.076,-0.075,1.031,0.210,-2.380,-0.700
1743902758.758833,0.075,-0.075,1.031,0.420,-2.520,-0.700
1743902758.778833,0.075,-0.075,1.032,0.420,-2.450,-0.700
1743902758.798833,0.075,-0.074,1.029,0.280,-2.450,-0.700
1743902758.7269042,0.076,-0.074,1.031,0.490,-2.310,-0.700
1743902758.7469041,0.075,-0.072,1.034,0.490,-2.590,-0.770
1743902758.766904,0.075,-0.072,1.032,0.280,-2.520,-0.770
1743902758.786904,0.078,-0.075,1.028,0.420,-2.450,-0.700
1743902758.806904,0.076,-0.073,1.032,0.490,-2.380,-0.700
1743902758.826904,0.076,-0.073,1.030,0.280,-2.380,-0.700
1743902758.756958,0.075,-0.073,1.031,0.490,-2.380,-0.700
1743902758.776958,0.076,-0.072,1.029,0.420,-2.380,-0.770
1743902758.796958,0.077,-0.075,1.031,0.280,-2.450,-0.700
1743902758.816958,0.077,-0.074,1.033,0.280,-2.310,-0.840
1743902758.836958,0.076,-0.075,1.027,0.280,-2.520,-0.770
1743902758.856958,0.074,-0.070,1.032,0.210,-2.240,-0.770
1743902758.7868972,0.076,-0.073,1.030,0.280,-2.380,-0.770
1743902758.8068972,0.075,-0.073,1.030,0.420,-2.380,-0.770
1743902758.8268971,0.077,-0.073,1.032,0.350,-2.380,-0.700
1743902758.8468971,0.076,-0.074,1.028,0.280,-2.380,-0.770
1743902758.866897,0.076,-0.072,1.030,0.420,-2.310,-0.700
1743902758.886897,0.075,-0.071,1.031,0.280,-2.380,-0.700
1743902758.847004,0.075,-0.072,1.030,0.280,-2.520,-0.700
1743902758.867004,0.074,-0.075,1.028,0.280,-2.450,-0.700
1743902758.887004,0.072,-0.072,1.032,0.210,-2.450,-0.770
1743902758.9070039,0.075,-0.073,1.031,0.350,-2.520,-0.840
1743902758.9270039,0.075,-0.073,1.029,0.350,-2.380,-0.700
1743902758.9470038,0.075,-0.073,1.027,0.350,-2.380,-0.700
1743902758.877029,0.077,-0.075,1.030,0.350,-2.450,-0.630
1743902758.897029,0.074,-0.074,1.032,0.280,-2.450,-0.700
1743902758.917029,0.076,-0.071,1.028,0.420,-2.380,-0.770
1743902758.937029,0.076,-0.074,1.027,0.350,-2.520,-0.700
1743902758.9570289,0.075,-0.074,1.029,0.420,-2.520,-0.700
1743902758.9770288,0.076,-0.073,1.032,0.350,-2.520,-0.770
1743902758.9220343,0.075,-0.074,1.028,0.420,-2.520,-0.770
1743902758.9420342,0.076,-0.074,1.031,0.420,-2.450,-0.770
1743902758.9620342,0.075,-0.074,1.034,0.280,-2.450,-0.700
1743902758.9820342,0.075,-0.072,1.031,0.210,-2.380,-0.700
1743902759.0020342,0.077,-0.071,1.030,0.420,-2.450,-0.770
1743902759.0220342,0.073,-0.075,1.030,0.420,-2.450,-0.770
1743902758.997199,0.075,-0.076,1.029,0.350,-2.310,-0.700
1743902759.017199,0.078,-0.073,1.033,0.420,-2.310,-0.840
1743902759.037199,0.076,-0.075,1.032,0.420,-2.450,-0.770
1743902759.057199,0.077,-0.075,1.031,0.420,-2.450,-0.700
1743902759.077199,0.077,-0.073,1.030,0.350,-2.240,-0.840
1743902759.097199,0.076,-0.075,1.031,0.350,-2.380,-0.770
1743902759.0144951,0.078,-0.074,1.029,0.420,-2.310,-0.770
1743902759.034495,0.074,-0.075,1.030,0.350,-2.380,-0.700
1743902759.054495,0.075,-0.075,1.029,0.280,-2.310,-0.700
1743902759.074495,0.075,-0.076,1.032,0.420,-2.450,-0.700
1743902759.094495,0.072,-0.072,1.031,0.350,-2.520,-0.700
1743902759.114495,0.076,-0.074,1.027,0.210,-2.380,-0.700
1743902759.056997,0.075,-0.073,1.030,0.420,-2.380,-0.700
1743902759.076997,0.075,-0.072,1.033,0.420,-2.520,-0.770
1743902759.096997,0.075,-0.075,1.028,0.420,-2.590,-0.700
1743902759.116997,0.075,-0.074,1.027,0.420,-2.590,-0.700
1743902759.136997,0.076,-0.075,1.031,0.350,-2.310,-0.770
1743902759.156997,0.076,-0.073,1.031,0.350,-2.450,-0.700
1743902759.1021032,0.077,-0.076,1.029,0.420,-2.450,-0.700
1743902759.1221032,0.075,-0.071,1.030,0.280,-2.520,-0.770
1743902759.1421032,0.073,-0.072,1.028,0.420,-2.450,-0.770
1743902759.1621032,0.075,-0.072,1.029,0.350,-2.450,-0.630
1743902759.1821032,0.076,-0.074,1.030,0.350,-2.450,-0.700
1743902759.2021031,0.076,-0.075,1.029,0.420,-2.450,-0.700
1743902759.13369,0.075,-0.074,1.029,0.420,-2.450,-0.700
1743902759.15369,0.076,-0.076,1.031,0.350,-2.380,-0.700
