Millis,AccelX,AccelY,AccelZ,GyroX,GyroY,GyroZ
118851,0.168,-0.964,0.305,4.130,-1.120,0.000
118860,0.166,-0.956,0.315,4.270,-1.400,-0.070
118864,0.168,-0.949,0.322,3.290,-1.750,0.140
118872,0.168,-0.949,0.325,1.400,-2.100,0.280
118880,0.164,-0.949,0.323,0.770,-2.450,0.000
118889,0.167,-0.953,0.318,0.490,-2.520,-0.630
118950,0.169,-0.954,0.315,-1.610,-2.800,-1.050
118954,0.171,-0.954,0.314,-1.820,-2.660,-0.700
118963,0.171,-0.957,0.314,-1.610,-2.520,-0.630
118972,0.168,-0.957,0.311,-0.630,-2.310,-0.560
118981,0.167,-0.956,0.311,-0.070,-2.240,-0.280
118985,0.169,-0.955,0.312,0.840,-2.030,-0.210
119043,0.169,-0.954,0.321,3.500,-1.890,0.980
119052,0.163,-0.953,0.322,2.940,-1.680,0.980
119061,0.153,-0.946,0.325,1.960,-2.660,0.700
119069,0.165,-0.946,0.325,1.260,-3.010,0.840
119078,0.178,-0.953,0.324,-0.560,-2.800,0.070
119082,0.176,-0.956,0.316,-0.560,-2.590,-0.070
119133,0.167,-0.954,0.316,-1.050,-2.520,-1.330
119141,0.170,-0.953,0.319,-1.260,-2.520,-1.260
119149,0.166,-0.952,0.317,-1.330,-2.660,-1.120
119158,0.167,-0.956,0.318,-1.330,-2.520,-0.910
119162,0.168,-0.957,0.314,-0.630,-2.240,-0.840
119171,0.166,-0.955,0.317,0.140,-2.310,-0.630
119232,0.166,-0.955,0.319,1.190,-2.170,0.070
119241,0.168,-0.953,0.320,1.260,-2.170,0.070
119250,0.166,-0.955,0.321,1.260,-2.100,0.000
119254,0.168,-0.955,0.321,0.980,-2.240,0.000
119263,0.167,-0.956,0.321,0.840,-2.310,0.000
119272,0.166,-0.956,0.319,0.910,-2.240,-0.140
119326,0.164,-0.954,0.321,0.490,-2.450,-0.700
119335,0.167,-0.954,0.317,0.350,-2.520,-0.770
119339,0.167,-0.952,0.319,0.070,-2.380,-0.840
119346,0.166,-0.954,0.318,0.210,-2.450,-0.700
119353,0.167,-0.957,0.317,0.280,-2.520,-0.700
119362,0.166,-0.954,0.319,0.420,-2.310,-0.700
119423,0.168,-0.954,0.320,0.280,-2.450,-0.700
119432,0.168,-0.953,0.319,0.280,-2.450,-0.770
119436,0.165,-0.952,0.319,0.140,-2.450,-0.910
119443,0.166,-0.954,0.319,0.000,-2.450,-0.980
119452,0.166,-0.955,0.318,-0.070,-2.590,-0.910
119461,0.169,-0.953,0.319,-0.070,-2.520,-0.980
119520,0.168,-0.955,0.320,0.980,-2.100,0.070
119524,0.168,-0.955,0.319,1.050,-2.170,0.000
119531,0.169,-0.955,0.321,0.980,-2.170,0.070
119540,0.168,-0.952,0.319,0.980,-2.100,0.070
119547,0.166,-0.955,0.319,1.050,-2.100,0.000
119551,0.167,-0.954,0.318,1.050,-2.170,-0.140
119603,0.167,-0.953,0.319,0.770,-2.240,-0.070
119612,0.165,-0.954,0.321,0.770,-2.310,-0.140
119619,0.168,-0.954,0.322,0.630,-2.240,-0.140
119623,0.164,-0.955,0.323,0.840,-2.170,0.000
119632,0.164,-0.956,0.320,0.980,-2.170,0.070
119639,0.166,-0.955,0.318,0.910,-2.170,0.070
119696,0.173,-0.956,0.317,0.350,-2.310,-0.350
119704,0.163,-0.952,0.319,1.190,-2.310,-0.630
119713,0.170,-0.952,0.321,0.700,-2.170,-0.350
119721,0.164,-0.952,0.322,-17.920,-2.380,-0.280
119730,0.166,-0.956,0.324,-0.280,-2.310,-0.350
119734,0.163,-0.955,0.319,0.210,-2.240,-0.280
119784,0.164,-0.952,0.320,0.910,-2.030,0.140
119793,0.161,-0.953,0.321,0.840,-2.170,0.070
119799,0.164,-0.952,0.322,0.770,-2.170,0.070
119808,0.162,-0.955,0.322,0.700,-2.310,0.000
119812,0.164,-0.953,0.319,0.840,-2.170,0.000
119821,0.164,-0.954,0.323,0.910,-2.170,0.000
119899,0.165,-0.954,0.319,0.560,-2.240,-0.140
119908,0.165,-0.955,0.321,0.630,-2.240,-0.280
119912,0.163,-0.953,0.322,0.770,-2.380,-0.280
119919,0.163,-0.952,0.320,0.770,-2.240,-0.210
119926,0.163,-0.953,0.320,0.910,-2.380,-0.210
119935,0.163,-0.954,0.320,0.910,-2.310,-0.280
119999,0.165,-0.956,0.320,-1.190,-2.940,0.000
120008,0.181,-0.957,0.318,0.000,-2.800,-0.210
120012,0.166,-0.956,0.318,0.980,-2.170,-0.560
120020,0.153,-0.953,0.323,1.050,-2.310,-0.490
120028,0.165,-0.951,0.322,0.490,-2.380,-0.140
120037,0.162,-0.951,0.320,0.140,-2.310,-0.280
120085,0.151,-0.952,0.322,-0.140,-2.870,0.000
120094,0.156,-0.952,0.320,-0.630,-2.940,0.210
120098,0.168,-0.955,0.320,-0.700,-2.870,0.070
120107,0.174,-0.959,0.321,-0.490,-2.730,-0.210
120115,0.178,-0.959,0.320,0.490,-2.170,-0.490
120124,0.156,-0.953,0.318,0.910,-2.520,-1.120
120176,0.162,-0.954,0.319,-0.630,-2.660,-1.050
120185,0.160,-0.956,0.321,-0.630,-2.660,-1.120
120192,0.163,-0.954,0.319,-0.420,-2.520,-1.120
120196,0.164,-0.954,0.319,-0.070,-2.450,-0.980
120205,0.163,-0.956,0.318,-0.070,-2.520,-0.980
120214,0.164,-0.954,0.318,0.000,-2.450,-0.910
120267,0.160,-0.955,0.321,0.700,-2.800,0.280
120276,0.163,-0.955,0.319,0.700,-2.870,0.490
120285,0.163,-0.956,0.316,1.260,-2.590,0.700
120293,0.162,-0.955,0.315,1.680,-2.380,0.770
120302,0.162,-0.955,0.318,2.100,-2.660,0.840
120306,0.161,-0.955,0.323,2.240,-3.010,0.910
120352,0.162,-0.951,0.322,1.330,-2.310,-0.210
120360,0.161,-0.950,0.322,0.910,-2.240,-0.420
120369,0.162,-0.952,0.322,0.700,-2.310,-0.770
120378,0.164,-0.954,0.325,0.280,-2.450,-0.980
120385,0.161,-0.953,0.325,-0.210,-2.520,-1.050
120389,0.162,-0.952,0.322,-0.910,-2.730,-1.190
120451,0.164,-0.958,0.319,-1.400,-2.730,-0.910
120460,0.164,-0.956,0.317,-1.050,-2.590,-0.700
120464,0.163,-0.958,0.318,-0.490,-2.450,-0.490
120471,0.163,-0.955,0.318,-0.210,-2.380,-0.280
120476,0.163,-0.955,0.316,0.280,-2.310,-0.210
120485,0.163,-0.955,0.317,0.420,-2.310,-0.210
120549,0.167,-0.954,0.319,1.400,-2.170,0.000
120553,0.163,-0.956,0.321,1.330,-2.100,0.000
120562,0.162,-0.953,0.320,1.260,-2.170,0.000
120568,0.165,-0.954,0.322,1.330,-2.100,-0.070
120577,0.164,-0.954,0.321,1.260,-2.240,-0.140
120584,0.161,-0.955,0.322,1.190,-2.380,-0.490
120641,0.162,-0.956,0.321,-0.840,-2.730,-1.190
120649,0.162,-0.958,0.320,-0.420,-2.730,-1.050
120658,0.163,-0.956,0.319,0.070,-2.450,-1.050
120667,0.162,-0.954,0.318,0.070,-2.380,-0.770
120671,0.160,-0.952,0.324,-0.280,-2.520,-0.700
120679,0.162,-0.958,0.320,-0.350,-2.520,-0.700
120743,0.164,-0.954,0.319,0.910,-2.310,-0.490
120747,0.162,-0.953,0.322,0.700,-2.240,-0.490
120754,0.162,-0.955,0.322,0.560,-2.450,-0.490
120763,0.163,-0.956,0.320,0.490,-2.450,-0.630
120772,0.163,-0.955,0.322,0.350,-2.310,-0.700
120776,0.162,-0.953,0.324,0.350,-2.380,-0.770
120829,0.163,-0.953,0.325,-1.050,-2.660,-1.540
120833,0.163,-0.954,0.322,-0.910,-2.730,-1.400
120842,0.165,-0.956,0.320,-0.630,-2.660,-1.190
120850,0.165,-0.956,0.320,-0.140,-2.520,-0.980
120859,0.164,-0.955,0.317,-0.070,-2.450,-0.840
120866,0.162,-0.954,0.317,0.350,-2.380,-0.630
120917,0.163,-0.956,0.319,1.540,-1.960,0.070
120926,0.161,-0.951,0.323,1.400,-2.030,-0.070
120935,0.162,-0.955,0.323,1.120,-2.170,-0.140
120942,0.163,-0.953,0.324,0.980,-2.310,-0.210
120951,0.162,-0.954,0.323,0.840,-2.310,-0.420
120955,0.162,-0.952,0.323,0.770,-2.310,-0.490
121011,0.163,-0.954,0.325,-17.850,-2.590,-0.840
121015,0.163,-0.952,0.324,-0.280,-2.380,-0.910
121024,0.163,-0.955,0.324,-0.350,-2.590,-0.700
121033,0.163,-0.955,0.322,-0.420,-2.660,-0.630
121040,0.163,-0.954,0.322,-0.420,-2.380,-0.700
121044,0.163,-0.956,0.320,-0.070,-2.310,-0.630
121101,0.163,-0.954,0.319,0.210,-2.450,-0.770
121110,0.163,-0.953,0.321,0.070,-2.310,-0.700
121114,0.165,-0.954,0.320,0.140,-2.520,-0.840
121123,0.162,-0.953,0.319,0.350,-2.520,-0.630
121132,0.164,-0.956,0.319,0.420,-2.450,-0.700
121139,0.163,-0.954,0.319,0.420,-2.450,-0.560
121197,0.162,-0.954,0.320,0.490,-2.380,-0.420
121206,0.163,-0.953,0.319,0.420,-2.450,-0.630
121215,0.162,-0.955,0.318,0.280,-2.450,-0.700
121219,0.163,-0.956,0.320,0.140,-2.450,-0.770
121227,0.163,-0.955,0.321,0.210,-2.450,-0.700
121236,0.164,-0.955,0.322,0.280,-2.450,-0.770
121296,0.164,-0.956,0.320,0.630,-2.240,-0.560
121304,0.163,-0.954,0.320,0.700,-2.240,-0.560
121313,0.163,-0.955,0.321,0.770,-2.240,-0.420
121320,0.163,-0.954,0.320,0.770,-2.240,-0.350
121329,0.162,-0.956,0.320,0.770,-2.310,-0.490
121333,0.163,-0.955,0.321,0.840,-2.240,-0.350
121394,0.163,-0.953,0.322,0.490,-2.380,-0.770
121401,0.165,-0.954,0.320,0.280,-2.450,-0.700
121410,0.163,-0.955,0.321,0.140,-2.450,-0.700
121417,0.164,-0.954,0.323,0.000,-2.520,-0.630
121422,0.162,-0.953,0.321,0.140,-2.450,-0.630
121426,0.164,-0.956,0.321,0.140,-2.450,-0.560
121479,0.161,-0.953,0.320,-0.280,-2.520,-0.980
121483,0.161,-0.952,0.321,-0.350,-2.520,-0.980
121492,0.163,-0.955,0.320,-0.280,-2.520,-0.980
121499,0.164,-0.953,0.319,-0.070,-2.520,-0.910
121508,0.163,-0.956,0.317,0.070,-2.450,-0.840
121517,0.164,-0.956,0.322,0.210,-2.380,-0.700
121572,0.163,-0.954,0.320,0.910,-2.240,-0.280
121581,0.164,-0.953,0.321,0.910,-2.310,-0.140
121590,0.162,-0.953,0.320,0.840,-2.310,-0.210
121594,0.163,-0.954,0.318,0.560,-2.310,-0.350
121601,0.164,-0.954,0.319,0.630,-2.310,-0.420
121610,0.163,-0.955,0.321,0.490,-2.310,-0.350
121662,0.165,-0.953,0.319,-0.070,-2.380,-0.560
121671,0.164,-0.955,0.323,0.000,-2.380,-0.350
121680,0.165,-0.955,0.321,0.210,-2.380,-0.210
121688,0.163,-0.954,0.321,0.000,-2.310,-0.420
121696,0.163,-0.954,0.322,0.210,-2.310,-0.560
121700,0.162,-0.954,0.322,0.210,-2.450,-0.490
121765,0.163,-0.956,0.318,-0.070,-2.380,-0.840
121772,0.163,-0.954,0.317,0.070,-2.520,-0.770
121781,0.163,-0.955,0.317,0.070,-2.310,-0.630
121785,0.161,-0.956,0.322,0.280,-2.380,-0.700
121794,0.163,-0.955,0.321,0.490,-2.310,-0.630
121802,0.163,-0.954,0.317,0.490,-2.450,-0.700
121862,0.164,-0.955,0.320,0.770,-2.240,-0.350
121871,0.164,-0.953,0.321,0.840,-2.310,-0.350
121880,0.165,-0.954,0.321,0.700,-2.380,-0.350
121887,0.164,-0.952,0.322,0.560,-2.310,-0.420
121896,0.163,-0.956,0.324,0.420,-2.380,-0.490
121900,0.162,-0.951,0.323,0.280,-2.380,-0.630
121949,0.163,-0.956,0.320,0.630,-2.450,-0.700
121953,0.163,-0.955,0.321,0.630,-2.380,-0.700
121962,0.163,-0.956,0.322,0.630,-2.380,-0.560
121971,0.164,-0.954,0.321,0.560,-2.380,-0.560
121980,0.163,-0.954,0.322,0.420,-2.310,-0.560
121988,0.163,-0.952,0.322,0.420,-2.450,-0.630
122038,0.163,-0.955,0.319,0.350,-2.310,-0.490
122042,0.161,-0.954,0.320,0.420,-2.380,-0.560
122049,0.163,-0.953,0.323,0.350,-2.450,-0.490
122058,0.164,-0.954,0.321,0.210,-2.310,-0.560
122065,0.163,-0.954,0.323,0.350,-2.450,-0.560
122074,0.163,-0.952,0.320,0.280,-2.310,-0.490
122126,0.164,-0.955,0.317,0.490,-2.310,-0.560
122130,0.164,-0.954,0.321,0.490,-2.310,-0.560
122139,0.162,-0.954,0.321,0.420,-2.380,-0.560
122148,0.162,-0.951,0.321,0.350,-2.310,-0.630
122156,0.164,-0.955,0.322,0.350,-2.380,-0.700
122164,0.164,-0.955,0.322,0.350,-2.310,-0.630
122210,0.164,-0.956,0.322,0.840,-2.310,-0.280
122218,0.163,-0.954,0.323,0.980,-2.170,-0.210
122227,0.164,-0.955,0.322,0.980,-2.310,-0.350
122235,0.164,-0.954,0.323,0.910,-2.240,-0.280
122243,0.164,-0.952,0.323,0.840,-2.310,-0.350
122247,0.163,-0.953,0.323,0.560,-2.240,-0.350
122292,0.163,-0.955,0.322,0.210,-2.240,-0.560
122301,0.163,-0.954,0.323,0.210,-2.450,-0.490
122310,0.164,-0.952,0.323,0.070,-2.380,-0.490
122314,0.163,-0.954,0.325,-0.140,-2.450,-0.700
122322,0.163,-0.952,0.322,-0.490,-2.450,-0.770
122331,0.164,-0.955,0.323,-0.770,-2.590,-0.980
122385,0.164,-0.954,0.319,17.850,-2.450,-0.700
122393,0.161,-0.954,0.318,-0.070,-2.520,-0.700
122397,0.163,-0.955,0.320,0.070,-2.450,-0.700
122406,0.165,-0.956,0.321,0.070,-2.590,-0.770
122415,0.164,-0.954,0.321,-0.070,-2.590,-0.910
122424,0.163,-0.954,0.319,-0.070,-2.450,-0.980
122479,0.165,-0.954,0.321,0.490,-2.310,-0.490
122483,0.163,-0.954,0.322,0.420,-2.310,-0.490
122492,0.164,-0.956,0.320,0.560,-2.240,-0.420
122500,0.164,-0.956,0.320,0.630,-2.240,-0.350
122509,0.165,-0.955,0.322,0.770,-2.240,-0.280
122516,0.162,-0.955,0.317,0.910,-2.240,-0.350
122559,0.163,-0.954,0.320,0.280,-2.380,-0.840
122568,0.163,-0.953,0.320,0.000,-2.520,-1.120
122576,0.164,-0.953,0.319,-0.140,-2.520,-1.330
122585,0.163,-0.955,0.319,-0.490,-2.450,-1.470
122589,0.164,-0.954,0.320,-0.490,-2.590,-1.400
122596,0.167,-0.953,0.322,-0.630,-2.520,-1.470
122658,0.166,-0.957,0.318,2.100,-1.890,0.980
122662,0.164,-0.957,0.318,2.660,-1.890,1.050
122671,0.163,-0.955,0.320,3.150,-1.820,1.120
122680,0.162,-0.953,0.321,3.220,-1.610,1.050
122689,0.163,-0.953,0.322,2.940,-1.750,0.770
122696,0.162,-0.950,0.323,2.450,-1.750,0.420
122752,0.165,-0.953,0.318,-0.980,-2.520,-1.400
122756,0.165,-0.954,0.321,-0.700,-2.590,-1.120
122764,0.163,-0.953,0.319,-0.630,-2.520,-1.050
122773,0.164,-0.955,0.320,-0.350,-2.520,-0.700
122782,0.163,-0.952,0.322,-0.070,-2.520,-0.560
122786,0.163,-0.954,0.321,0.280,-2.310,-0.630
122846,0.163,-0.953,0.323,0.420,-2.380,-0.630
122850,0.162,-0.950,0.321,0.140,-2.450,-0.770
122859,0.161,-0.950,0.322,-0.070,-2.660,-1.120
122868,0.164,-0.953,0.324,-0.490,-2.660,-1.330
122876,0.164,-0.951,0.327,-0.770,-2.590,-1.610
122885,0.163,-0.954,0.323,-1.260,-2.870,-1.610
122938,0.164,-0.954,0.319,-0.070,-2.380,-0.770
122947,0.162,-0.956,0.316,0.350,-2.450,-0.700
122956,0.164,-0.956,0.320,0.420,-2.380,-0.700
122964,0.164,-0.953,0.319,0.560,-2.380,-0.700
122971,0.166,-0.955,0.320,0.630,-2.380,-0.770
122975,0.165,-0.954,0.321,0.770,-2.310,-0.840
123031,0.159,-0.954,0.318,0.420,-2.450,-0.630
123038,0.167,-0.952,0.320,0.000,-2.380,-0.490
123042,0.163,-0.954,0.323,-0.210,-2.310,-0.420
123051,0.166,-0.954,0.320,-0.210,-2.380,-0.630
123060,0.163,-0.955,0.321,0.000,-2.450,-0.560
123069,0.164,-0.952,0.323,-0.070,-2.380,-0.630
123126,0.167,-0.955,0.316,0.350,-2.450,-0.420
123130,0.166,-0.954,0.319,0.700,-2.100,-0.420
123139,0.164,-0.956,0.319,0.770,-2.310,-0.350
123147,0.164,-0.956,0.320,0.840,-2.240,-0.350
123156,0.165,-0.956,0.320,0.980,-2.100,-0.350
123165,0.163,-0.956,0.318,1.190,-2.030,-0.210
123234,0.164,-0.953,0.324,0.910,-2.380,-0.280
123241,0.165,-0.955,0.321,0.910,-2.100,-0.280
123245,0.163,-0.956,0.321,1.050,-2.240,-0.280
123251,0.163,-0.953,0.322,0.910,-2.380,-0.350
123260,0.163,-0.953,0.323,0.630,-2.380,-0.490
123267,0.162,-0.951,0.321,0.350,-2.240,-0.630
123326,0.166,-0.953,0.322,-0.070,-2.380,-0.910
123335,0.167,-0.953,0.321,-0.070,-2.450,-0.980
123339,0.163,-0.954,0.319,-0.140,-2.590,-0.840
123346,0.165,-0.953,0.323,-0.210,-2.380,-0.840
123354,0.164,-0.955,0.324,0.000,-2.590,-0.700
123361,0.163,-0.953,0.323,0.000,-2.450,-0.700
123416,0.165,-0.955,0.322,0.490,-2.380,-0.560
123425,0.165,-0.954,0.321,0.560,-2.310,-0.560
123434,0.164,-0.953,0.321,0.700,-2.240,-0.700
123442,0.165,-0.952,0.323,0.560,-2.380,-0.700
123449,0.164,-0.953,0.322,0.700,-2.450,-0.630
123453,0.165,-0.956,0.321,0.630,-2.450,-0.630
123503,0.165,-0.953,0.321,0.490,-2.310,-0.280
123512,0.164,-0.955,0.321,0.560,-2.170,-0.420
123519,0.164,-0.952,0.322,0.560,-2.310,-0.490
123528,0.164,-0.953,0.321,0.420,-2.380,-0.490
123536,0.165,-0.953,0.324,0.280,-2.380,-0.560
123540,0.167,-0.955,0.322,0.210,-2.380,-0.560
123590,0.160,-0.955,0.321,0.140,-2.380,-0.630
123599,0.163,-0.953,0.322,0.210,-2.380,-0.630
123603,0.162,-0.954,0.322,0.420,-2.380,-0.630
123611,0.163,-0.955,0.322,0.490,-2.450,-0.630
123619,0.166,-0.952,0.323,0.490,-2.450,-0.490
123628,0.165,-0.954,0.322,0.420,-2.380,-0.560
123680,0.165,-0.955,0.320,-0.350,-2.590,-0.910
123689,0.164,-0.956,0.321,-0.280,-2.450,-0.910
123693,0.165,-0.955,0.320,-0.210,-2.380,-0.700
123701,0.165,-0.955,0.322,-0.070,-2.520,-0.560
123710,0.163,-0.956,0.321,0.140,-2.450,-0.350
123717,0.164,-0.956,0.321,0.070,-2.170,-0.280
123768,0.162,-0.954,0.320,0.210,-2.450,-0.700
123777,0.163,-0.951,0.321,0.140,-2.450,-0.910
123781,0.166,-0.954,0.321,0.000,-2.590,-1.050
123790,0.165,-0.953,0.319,-0.070,-2.730,-1.120
123797,0.163,-0.954,0.323,-0.210,-2.660,-1.330
123805,0.163,-0.955,0.322,-0.350,-2.590,-1.330
123875,0.165,-0.954,0.319,-0.210,-2.520,-0.770
123879,0.164,-0.953,0.320,-0.070,-2.450,-0.770
123888,0.165,-0.953,0.320,0.000,-2.310,-0.770
123895,0.165,-0.955,0.318,0.070,-2.520,-0.700
123904,0.168,-0.957,0.319,0.070,-2.450,-0.840
123913,0.172,-0.958,0.318,0.140,-2.380,-0.700
123963,0.166,-0.954,0.321,1.610,-2.030,0.280
123970,0.165,-0.956,0.321,1.470,-2.030,0.350
123979,0.166,-0.956,0.320,1.680,-2.030,0.420
123983,0.165,-0.957,0.319,1.890,-1.890,0.420
123990,0.166,-0.954,0.319,2.170,-1.960,0.490
123999,0.165,-0.954,0.319,2.100,-1.820,0.630
124044,0.163,-0.954,0.322,1.400,-2.030,0.350
124053,0.164,-0.954,0.322,1.400,-2.030,0.280
124062,0.163,-0.952,0.323,1.190,-2.100,0.140
124069,0.163,-0.953,0.319,1.120,-2.240,0.070
124076,0.164,-0.951,0.324,1.050,-2.170,0.070
124080,0.165,-0.952,0.325,0.910,-2.100,0.000
124132,0.162,-0.954,0.322,0.210,-2.380,-0.560
124139,0.163,-0.954,0.323,0.070,-2.450,-0.490
124148,0.164,-0.954,0.323,0.210,-2.450,-0.490
124152,0.164,-0.956,0.321,0.280,-2.380,-0.490
124161,0.164,-0.953,0.322,0.350,-2.240,-0.420
124168,0.162,-0.951,0.320,0.630,-2.240,-0.210
124217,0.162,-0.952,0.325,1.120,-2.170,0.070
124226,0.163,-0.952,0.322,1.120,-2.170,-0.070
124235,0.162,-0.955,0.322,0.980,-2.240,-0.140
124242,0.161,-0.952,0.320,1.050,-2.240,-0.070
124246,0.163,-0.955,0.323,1.120,-2.240,0.000
124255,0.165,-0.955,0.325,1.050,-2.240,-0.140
124321,0.163,-0.954,0.325,0.210,-2.450,-0.560
124329,0.162,-0.951,0.324,0.070,-2.520,-0.490
124333,0.164,-0.954,0.325,0.210,-2.450,-0.560
124342,0.163,-0.955,0.325,0.140,-2.450,-0.560
124351,0.162,-0.954,0.324,0.000,-2.450,-0.560
124360,0.162,-0.954,0.325,-0.070,-2.450,-0.630
124418,0.161,-0.953,0.325,0.070,-2.450,-0.560
124422,0.163,-0.955,0.324,0.070,-2.520,-0.630
124431,0.162,-0.954,0.321,0.070,-2.450,-0.560
124440,0.162,-0.955,0.321,0.140,-2.380,-0.630
124447,0.162,-0.953,0.322,0.420,-2.380,-0.630
124451,0.162,-0.955,0.320,0.350,-2.310,-0.630
124512,0.160,-0.956,0.321,0.490,-2.310,-0.140
124521,0.163,-0.954,0.321,0.630,-2.100,0.000
124529,0.155,-0.951,0.322,0.560,-1.960,0.070
124538,0.163,-0.953,0.324,0.490,-2.030,0.280
124542,0.159,-0.954,0.320,0.420,-1.750,0.070
124551,0.155,-0.956,0.318,0.910,-2.030,-0.280
124613,0.163,-0.952,0.328,-0.980,-3.920,-2.030
124617,0.165,-0.953,0.324,-1.190,-4.270,-2.030
124626,0.164,-0.953,0.325,-1.400,-4.550,-1.750
124634,0.164,-0.954,0.326,-1.820,-4.550,-1.680
124643,0.164,-0.955,0.323,-1.820,-3.920,-1.540
124651,0.163,-0.955,0.319,-1.400,-3.780,-1.540
124709,0.165,-0.952,0.322,-1.610,-3.010,-1.400
124713,0.171,-0.958,0.317,-1.610,-2.940,-1.540
124722,0.162,-0.958,0.320,-0.980,-2.730,-1.680
124731,0.161,-0.956,0.319,-0.840,-2.590,-1.330
124738,0.160,-0.954,0.319,-0.490,-2.450,-0.630
124747,0.159,-0.957,0.319,-0.140,-2.380,-0.350
124812,0.134,-0.952,0.319,4.480,1.890,3.430
124820,0.127,-0.947,0.325,3.010,1.190,3.640
124829,0.137,-0.942,0.326,1.960,0.000,3.780
124838,0.183,-0.951,0.327,-0.560,-0.350,3.780
124842,0.186,-0.959,0.325,0.560,-0.770,2.100
124849,0.190,-0.954,0.317,1.400,-0.350,-3.430
124902,0.162,-0.950,0.334,-0.980,-2.520,-0.630
124911,0.156,-0.957,0.326,-1.260,-3.080,-1.890
124918,0.160,-0.964,0.322,-0.070,-3.150,-2.240
124927,0.160,-0.951,0.319,0.280,-2.660,-1.820
124931,0.163,-0.947,0.324,0.140,-2.590,-1.190
124938,0.161,-0.957,0.327,-0.560,-2.660,-0.630
124999,0.158,-0.955,0.321,1.330,-1.890,0.700
125003,0.156,-0.952,0.323,1.400,-1.750,0.840
125012,0.157,-0.956,0.323,1.400,-1.890,0.700
125021,0.156,-0.955,0.324,1.470,-2.100,0.700
125029,0.155,-0.956,0.324,1.260,-1.890,0.840
125038,0.155,-0.954,0.325,1.470,-1.960,1.330
125090,0.146,-0.946,0.324,-0.490,-2.800,-1.750
125094,0.160,-0.949,0.325,-1.330,-2.520,-1.540
125102,0.156,-0.957,0.325,-1.960,-2.940,-2.030
125111,0.155,-0.957,0.325,-1.680,-3.010,-2.100
125118,0.156,-0.956,0.321,-1.330,-2.870,-1.960
125122,0.157,-0.956,0.320,-0.700,-2.800,-1.750
125201,0.154,-0.950,0.325,1.190,-2.240,-0.490
125205,0.157,-0.952,0.327,0.560,-2.310,-0.630
125214,0.155,-0.953,0.326,-0.210,-2.520,-0.840
125221,0.155,-0.952,0.325,-0.630,-2.590,-1.120
125230,0.156,-0.953,0.325,-0.910,-2.730,-1.330
125239,0.156,-0.952,0.324,-1.050,-2.800,-1.610
125308,0.162,-0.955,0.320,-0.770,-2.800,-2.310
125317,0.160,-0.953,0.322,-0.560,-2.730,-2.450
125326,0.161,-0.952,0.323,-0.560,-3.010,-2.520
125334,0.158,-0.952,0.321,-0.770,-3.150,-2.660
125342,0.165,-0.955,0.323,-0.980,-3.220,-2.940
125346,0.171,-0.954,0.322,-0.840,-3.080,-3.150
125402,0.154,-0.954,0.322,-0.700,-3.080,-3.150
125411,0.163,-0.954,0.322,-1.190,-2.940,-2.870
125418,0.160,-0.954,0.324,-1.540,-2.940,-2.800
125426,0.165,-0.956,0.320,-1.680,-3.010,-2.380
125430,0.170,-0.955,0.318,-1.190,-2.660,-2.170
125439,0.164,-0.956,0.318,-0.630,-2.520,-1.960
125490,0.168,-0.954,0.316,1.190,-2.240,-0.140
125499,0.164,-0.952,0.318,1.050,-2.170,-0.070
125507,0.165,-0.956,0.318,0.980,-2.310,-0.070
125514,0.164,-0.954,0.317,1.050,-2.240,-0.140
125523,0.165,-0.955,0.315,1.330,-2.240,0.070
125527,0.165,-0.956,0.318,1.610,-2.030,0.070
125590,0.165,-0.954,0.321,1.050,-2.240,0.420
125599,0.164,-0.955,0.322,0.980,-2.030,0.350
125603,0.162,-0.952,0.321,0.840,-2.100,0.420
125612,0.162,-0.956,0.321,0.630,-2.100,0.350
125620,0.164,-0.958,0.321,0.770,-2.100,0.210
125629,0.161,-0.956,0.319,0.840,-2.100,0.420
125681,0.161,-0.953,0.323,0.700,-1.960,0.910
125685,0.160,-0.956,0.317,0.700,-1.820,0.700
125694,0.162,-0.953,0.319,0.770,-1.750,0.280
125701,0.160,-0.953,0.319,0.980,-1.470,-0.140
125710,0.159,-0.953,0.319,1.050,-1.680,-0.420
125714,0.164,-0.952,0.321,1.120,-1.610,-0.420
125774,0.160,-0.953,0.320,0.560,-2.310,-0.420
125783,0.161,-0.953,0.322,0.420,-2.030,-0.070
125792,0.149,-0.953,0.325,0.490,-1.960,-0.350
125796,0.155,-0.957,0.320,0.840,-1.400,-0.350
125804,0.174,-0.956,0.321,1.330,-1.680,-0.210
125813,0.176,-0.956,0.325,1.190,-2.240,-0.210
125886,0.163,-0.953,0.322,-0.980,-2.800,-2.100
125895,0.163,-0.954,0.321,-1.120,-3.010,-2.100
125904,0.163,-0.955,0.322,-1.190,-2.940,-1.960
125913,0.166,-0.956,0.321,-0.910,-3.010,-2.030
125920,0.162,-0.958,0.322,-0.980,-3.010,-1.960
125924,0.161,-0.952,0.320,-0.630,-2.870,-1.890
125990,0.162,-0.954,0.322,-0.140,-2.450,-0.770
125998,0.163,-0.956,0.320,-0.070,-2.380,-0.700
126002,0.163,-0.955,0.322,0.140,-2.380,-0.700
126011,0.165,-0.955,0.320,0.350,-2.450,-0.700
126020,0.163,-0.955,0.321,0.350,-2.310,-0.630
126027,0.164,-0.956,0.321,0.420,-2.450,-0.700
126088,0.164,-0.956,0.318,0.980,-2.310,-0.350
126097,0.164,-0.955,0.318,1.540,-2.170,-0.140
126105,0.165,-0.955,0.319,1.750,-2.170,-0.070
126114,0.164,-0.955,0.320,2.100,-2.240,0.000
126122,0.163,-0.955,0.317,2.310,-2.240,0.000
126126,0.161,-0.955,0.319,2.660,-2.170,-0.140
126177,0.166,-0.955,0.323,0.700,-2.380,-0.490
126181,0.167,-0.952,0.325,0.630,-2.310,-0.420
126190,0.166,-0.951,0.325,0.280,-2.450,-0.490
126197,0.164,-0.950,0.324,-0.210,-2.380,-0.490
126206,0.166,-0.952,0.325,-0.560,-2.380,-0.560
126210,0.163,-0.952,0.323,-0.910,-2.450,-0.700
126278,0.164,-0.955,0.319,-0.420,-2.520,-0.770
126286,0.163,-0.954,0.318,0.070,-2.450,-0.770
126295,0.163,-0.956,0.320,0.420,-2.380,-0.770
126304,0.162,-0.956,0.320,0.490,-2.380,-0.700
126308,0.163,-0.955,0.318,0.350,-2.380,-0.700
126317,0.163,-0.954,0.320,0.420,-2.450,-0.700
126375,0.165,-0.956,0.322,0.210,-2.380,-0.560
126379,0.163,-0.954,0.319,0.210,-2.240,-0.490
126388,0.166,-0.955,0.318,0.280,-2.240,-0.420
126395,0.163,-0.952,0.318,0.490,-2.240,-0.350
126404,0.164,-0.958,0.317,0.560,-2.170,-0.280
126413,0.165,-0.956,0.320,0.700,-2.030,-0.210
126470,0.163,-0.954,0.319,0.770,-2.240,0.140
126479,0.165,-0.955,0.321,0.770,-2.100,0.140
126488,0.163,-0.954,0.320,0.910,-2.100,0.070
126496,0.165,-0.953,0.320,0.840,-2.100,-0.070
126505,0.163,-0.953,0.321,0.700,-2.100,-0.140
126509,0.163,-0.951,0.321,0.350,-2.170,-0.210
126565,0.164,-0.955,0.323,0.560,-2.380,-0.700
126569,0.162,-0.952,0.321,0.560,-2.310,-0.700
126577,0.163,-0.953,0.322,0.420,-2.380,-0.840
126586,0.165,-0.952,0.323,0.280,-2.380,-0.840
126594,0.163,-0.954,0.322,0.280,-2.450,-0.700
126598,0.166,-0.955,0.321,0.350,-2.450,-0.770
126649,0.163,-0.955,0.322,0.210,-2.310,-0.560
126658,0.161,-0.954,0.322,0.140,-2.380,-0.490
126664,0.164,-0.955,0.320,0.070,-2.240,-0.490
126673,0.163,-0.954,0.318,0.280,-2.170,-0.420
126677,0.167,-0.953,0.321,0.350,-2.310,-0.280
126686,0.165,-0.955,0.320,0.490,-2.240,-0.350
126728,0.166,-0.954,0.321,0.980,-2.170,-0.070
126737,0.162,-0.955,0.321,1.050,-2.240,-0.070
126746,0.162,-0.955,0.321,0.980,-2.310,-0.140
126755,0.163,-0.954,0.320,0.980,-2.380,-0.350
126764,0.162,-0.951,0.320,0.700,-2.310,-0.490
126768,0.163,-0.954,0.324,0.420,-2.380,-0.560
126834,0.165,-0.953,0.321,0.560,-2.170,-0.420
126843,0.163,-0.953,0.323,0.490,-2.310,-0.350
126852,0.165,-0.956,0.324,0.420,-2.170,-0.280
126861,0.163,-0.954,0.324,0.490,-2.380,-0.210
126868,0.162,-0.953,0.321,0.560,-2.100,-0.280
126872,0.163,-0.953,0.320,0.770,-2.240,-0.210
126943,0.162,-0.952,0.321,0.000,-2.380,-0.420
126952,0.162,-0.952,0.323,0.070,-2.310,-0.490
126961,0.162,-0.956,0.322,0.000,-2.380,-0.490
126969,0.164,-0.955,0.323,0.070,-2.450,-0.490
126978,0.163,-0.952,0.321,0.070,-2.310,-0.560
126982,0.161,-0.954,0.318,0.210,-2.240,-0.630
127033,0.163,-0.952,0.318,0.350,-2.450,-0.630
127042,0.164,-0.955,0.323,0.350,-2.310,-0.700
127049,0.164,-0.955,0.323,0.350,-2.450,-0.700
127058,0.164,-0.955,0.323,0.280,-2.380,-0.700
127067,0.164,-0.954,0.320,0.280,-2.450,-0.700
127071,0.163,-0.955,0.323,0.280,-2.380,-0.770
127129,0.164,-0.953,0.322,0.000,-2.520,-0.980
127137,0.164,-0.952,0.324,0.070,-2.380,-0.840
127144,0.163,-0.953,0.323,0.070,-2.380,-0.770
127152,0.163,-0.956,0.320,0.140,-2.450,-0.770
127156,0.162,-0.953,0.320,0.140,-2.380,-0.770
127165,0.163,-0.953,0.320,0.210,-2.380,-0.700
127222,0.163,-0.951,0.322,0.140,-2.310,-0.700
127226,0.164,-0.955,0.320,0.210,-2.450,-0.700
127234,0.162,-0.955,0.323,0.210,-2.380,-0.770
127243,0.165,-0.955,0.320,0.210,-2.380,-0.700
127252,0.164,-0.954,0.318,0.280,-2.310,-0.630
127261,0.162,-0.954,0.321,0.350,-2.310,-0.700
127315,0.163,-0.955,0.321,0.560,-2.310,-0.420
127324,0.164,-0.954,0.324,0.490,-2.380,-0.350
127328,0.163,-0.954,0.321,0.560,-2.310,-0.420
127337,0.164,-0.955,0.320,0.560,-2.310,-0.420
127345,0.163,-0.956,0.319,0.630,-2.310,-0.490
127353,0.163,-0.954,0.323,0.490,-2.310,-0.490
127424,0.161,-0.955,0.323,0.280,-2.450,-0.700
127428,0.166,-0.953,0.321,0.210,-2.520,-0.630
127437,0.165,-0.953,0.321,0.210,-2.380,-0.700
127444,0.163,-0.954,0.323,0.280,-2.380,-0.490
127452,0.162,-0.954,0.324,0.350,-2.380,-0.630
127461,0.163,-0.956,0.323,0.210,-2.380,-0.630
127515,0.163,-0.956,0.320,0.350,-2.310,-0.420
127524,0.162,-0.953,0.321,0.490,-2.240,-0.210
127533,0.164,-0.955,0.322,0.560,-2.170,-0.210
127537,0.164,-0.956,0.323,0.770,-2.170,0.000
127544,0.163,-0.956,0.320,1.050,-2.240,0.070
127552,0.161,-0.953,0.321,1.120,-2.170,0.280
127615,0.159,-0.952,0.319,0.700,-1.120,-1.120
127622,0.173,-0.951,0.319,1.330,-2.030,-1.470
127631,0.168,-0.948,0.324,0.770,-2.240,-1.820
127635,0.163,-0.946,0.324,-1.540,-3.080,-2.100
127644,0.169,-0.948,0.317,-2.450,-3.220,-2.310
127653,0.162,-0.953,0.316,-1.470,-2.940,-2.590
127710,0.163,-0.955,0.323,1.540,-2.380,-0.070
127719,0.159,-0.956,0.321,1.750,-2.030,0.490
127728,0.157,-0.956,0.321,2.170,-1.960,0.700
127737,0.166,-0.956,0.321,2.380,-1.750,0.980
127744,0.162,-0.954,0.323,2.520,-1.890,1.050
127748,0.164,-0.953,0.324,2.450,-1.750,1.050
127798,0.162,-0.950,0.322,-0.350,-2.520,-0.420
127807,0.161,-0.951,0.324,-0.910,-2.590,-0.910
127816,0.161,-0.951,0.321,-1.190,-2.730,-1.400
127824,0.163,-0.951,0.321,-1.330,-2.940,-1.750
127833,0.164,-0.952,0.322,-1.540,-2.870,-2.030
127837,0.163,-0.951,0.323,-1.750,-2.940,-2.240
127902,0.168,-0.955,0.319,0.420,-2.590,-0.980
127911,0.165,-0.956,0.320,0.910,-2.240,-0.490
127919,0.165,-0.956,0.317,1.540,-2.170,-0.210
127928,0.164,-0.956,0.320,1.540,-2.240,0.070
127932,0.164,-0.954,0.321,1.820,-2.030,0.280
127941,0.163,-0.955,0.321,2.100,-1.890,0.490
128007,0.163,-0.951,0.324,0.770,-2.100,0.140
128016,0.162,-0.951,0.325,0.490,-2.170,0.000
128020,0.163,-0.951,0.326,-0.630,-2.380,-0.210
128029,0.160,-0.952,0.323,-1.120,-2.450,-0.560
128036,0.159,-0.954,0.325,-1.330,-2.590,-0.910
128045,0.160,-0.953,0.325,-1.400,-2.660,-1.120
128103,0.166,-0.957,0.322,0.070,-2.380,-0.700
128107,0.163,-0.953,0.319,0.560,-2.450,-0.420
128116,0.164,-0.953,0.323,0.770,-2.380,-0.350
128123,0.163,-0.956,0.322,1.050,-2.520,-0.350
128132,0.164,-0.953,0.319,0.980,-2.450,-0.420
128136,0.164,-0.953,0.318,1.120,-2.310,-0.420
128198,0.165,-0.952,0.321,-1.190,-2.660,-1.260
128207,0.164,-0.955,0.322,-1.050,-2.660,-1.190
128214,0.166,-0.955,0.320,-1.190,-2.590,-1.120
128218,0.164,-0.954,0.318,-1.120,-2.590,-1.120
128227,0.167,-0.954,0.322,-0.840,-2.520,-0.840
128236,0.166,-0.956,0.318,-0.280,-2.240,-0.630
128288,0.163,-0.954,0.318,1.610,-2.100,0.000
128292,0.165,-0.953,0.318,1.470,-2.170,-0.140
128300,0.163,-0.951,0.320,1.190,-2.310,-0.350
128309,0.163,-0.954,0.321,0.980,-2.380,-0.560
128318,0.163,-0.950,0.322,0.630,-2.450,-0.840
128325,0.163,-0.954,0.322,0.490,-2.450,-1.050
128387,0.164,-0.956,0.321,-0.210,-2.520,-0.980
128394,0.163,-0.953,0.319,-0.210,-2.380,-0.980
128398,0.166,-0.953,0.320,-0.350,-2.590,-0.910
128406,0.167,-0.954,0.318,-0.350,-2.520,-0.840
128415,0.164,-0.955,0.320,-0.140,-2.450,-0.840
128424,0.164,-0.956,0.320,-0.070,-2.380,-0.700
128496,0.164,-0.954,0.319,0.840,-2.310,-0.070
128505,0.167,-0.954,0.318,0.840,-2.240,-0.070
128509,0.164,-0.954,0.320,0.770,-2.170,-0.070
128516,0.163,-0.953,0.319,0.910,-2.240,-0.210
128525,0.165,-0.950,0.320,0.840,-2.310,-0.280
128534,0.164,-0.952,0.320,0.770,-2.240,-0.420
128605,0.164,-0.954,0.319,0.350,-2.310,-0.350
128614,0.164,-0.954,0.321,0.420,-2.310,-0.350
128621,0.163,-0.955,0.322,0.140,-2.240,-0.280
128630,0.164,-0.955,0.322,0.140,-2.380,-0.280
128639,0.163,-0.954,0.324,0.280,-2.240,-0.280
128643,0.164,-0.954,0.318,0.350,-2.170,-0.140
128698,0.165,-0.953,0.320,0.490,-2.310,-0.420
128707,0.165,-0.953,0.319,0.700,-2.310,-0.350
128716,0.165,-0.954,0.320,0.700,-2.310,-0.280
128724,0.162,-0.956,0.319,0.630,-2.310,-0.280
128733,0.165,-0.956,0.318,0.840,-2.380,-0.350
128737,0.164,-0.953,0.321,0.910,-2.310,-0.140
128800,0.163,-0.956,0.320,0.560,-2.450,-0.420
128809,0.164,-0.956,0.321,0.490,-2.450,-0.560
128813,0.164,-0.953,0.321,0.420,-2.240,-0.560
128819,0.165,-0.954,0.320,0.420,-2.380,-0.560
128827,0.165,-0.952,0.322,0.420,-2.380,-0.560
128836,0.164,-0.954,0.322,0.420,-2.380,-0.560
128911,0.163,-0.952,0.319,0.280,-2.310,-0.560
128918,0.163,-0.953,0.318,0.420,-2.310,-0.560
128927,0.163,-0.954,0.318,0.420,-2.450,-0.700
128931,0.163,-0.953,0.320,0.350,-2.310,-0.700
128938,0.161,-0.955,0.319,0.350,-2.450,-0.770
128946,0.161,-0.954,0.320,0.420,-2.310,-0.700
129004,0.162,-0.955,0.321,0.280,-2.310,-0.560
129013,0.166,-0.952,0.319,0.210,-2.520,-0.630
129021,0.163,-0.954,0.321,0.280,-2.240,-0.630
129025,0.165,-0.955,0.321,0.280,-2.310,-0.630
129030,0.163,-0.954,0.320,0.280,-2.450,-0.560
129039,0.163,-0.956,0.322,0.350,-2.380,-0.630
129114,0.162,-0.953,0.321,0.140,-2.520,-0.910
129118,0.165,-0.953,0.323,0.000,-2.520,-0.770
129127,0.167,-0.953,0.322,0.000,-2.450,-0.910
129136,0.164,-0.954,0.322,0.140,-2.380,-0.700
129144,0.164,-0.955,0.322,0.000,-2.310,-0.560
129148,0.164,-0.955,0.322,0.210,-2.380,-0.560
129243,0.162,-0.953,0.319,0.210,-2.310,-0.490
129247,0.163,-0.954,0.320,0.070,-2.520,-0.630
129254,0.161,-0.955,0.320,0.210,-2.520,-0.630
129263,0.165,-0.954,0.320,0.140,-2.450,-0.700
129270,0.162,-0.955,0.321,0.210,-2.450,-0.700
129274,0.164,-0.953,0.320,0.140,-2.380,-0.700
129339,0.163,-0.954,0.322,0.560,-2.450,-0.490
129347,0.163,-0.951,0.320,0.560,-2.380,-0.560
129356,0.163,-0.952,0.321,0.420,-2.450,-0.630
129365,0.161,-0.955,0.322,0.420,-2.380,-0.700
129373,0.164,-0.956,0.320,0.210,-2.450,-0.630
129377,0.163,-0.955,0.318,0.280,-2.380,-0.630
129447,0.163,-0.956,0.320,0.350,-2.240,-0.490
129455,0.163,-0.954,0.319,0.350,-2.240,-0.350
129464,0.163,-0.954,0.320,0.490,-2.240,-0.350
129473,0.163,-0.956,0.322,0.560,-2.310,-0.420
129481,0.165,-0.955,0.320,0.490,-2.310,-0.420
129490,0.162,-0.952,0.322,0.420,-2.380,-0.350
129542,0.163,-0.953,0.321,0.140,-2.380,-0.700
129550,0.164,-0.953,0.322,0.280,-2.450,-0.630
129559,0.165,-0.954,0.320,0.140,-2.450,-0.700
129566,0.164,-0.952,0.322,0.140,-2.520,-0.630
129570,0.163,-0.954,0.322,0.280,-2.380,-0.700
129579,0.163,-0.955,0.321,0.350,-2.310,-0.700
129637,0.163,-0.955,0.320,0.420,-2.310,-0.560
129646,0.164,-0.955,0.322,0.490,-2.450,-0.560
129654,0.163,-0.954,0.321,0.630,-2.240,-0.420
129663,0.165,-0.955,0.321,0.700,-2.310,-0.560
129670,0.163,-0.955,0.320,0.560,-2.240,-0.630
129674,0.166,-0.954,0.320,0.420,-2.310,-0.630
129731,0.164,-0.954,0.320,-0.210,-2.450,-0.980
129735,0.163,-0.955,0.321,-0.210,-2.450,-0.840
129744,0.165,-0.956,0.319,0.000,-2.380,-0.770
129752,0.163,-0.956,0.320,0.070,-2.520,-0.770
129761,0.163,-0.954,0.321,0.000,-2.380,-0.630
129765,0.166,-0.953,0.320,0.070,-2.380,-0.560
129825,0.164,-0.955,0.321,-0.140,-2.450,-0.840
129834,0.161,-0.953,0.321,-0.070,-2.450,-0.980
129843,0.163,-0.953,0.320,-0.210,-2.450,-0.910
129851,0.164,-0.953,0.319,-0.350,-2.520,-0.980
129860,0.164,-0.955,0.320,-0.280,-2.450,-0.980
129864,0.164,-0.953,0.319,-0.140,-2.520,-1.050
129926,0.166,-0.954,0.318,0.490,-2.310,-0.070
129935,0.162,-0.953,0.319,0.560,-2.380,-0.210
129942,0.165,-0.954,0.318,0.420,-2.380,-0.280
129946,0.165,-0.955,0.319,0.350,-2.240,-0.420
129955,0.164,-0.954,0.320,0.350,-2.310,-0.350
129963,0.167,-0.954,0.317,0.280,-2.450,-0.490
130025,0.165,-0.956,0.318,0.420,-2.520,-0.910
130034,0.165,-0.955,0.320,0.560,-2.450,-0.910
130043,0.167,-0.956,0.317,0.630,-2.380,-0.770
130050,0.166,-0.954,0.319,0.630,-2.310,-0.630
130059,0.165,-0.953,0.320,0.770,-2.310,-0.490
130063,0.164,-0.954,0.321,0.700,-2.310,-0.560
130124,0.164,-0.956,0.318,-0.140,-2.450,-0.700
130133,0.165,-0.957,0.320,-0.140,-2.450,-0.630
130142,0.163,-0.957,0.321,-0.140,-2.310,-0.490
130146,0.165,-0.952,0.317,-0.070,-2.380,-0.420
130155,0.165,-0.956,0.322,0.070,-2.240,-0.280
130164,0.164,-0.956,0.319,0.140,-2.380,-0.280
130235,0.164,-0.955,0.317,1.260,-2.030,0.140
130242,0.166,-0.955,0.318,1.400,-2.030,0.070
130246,0.163,-0.956,0.321,1.470,-2.170,0.070
130255,0.165,-0.954,0.321,1.400,-2.170,0.140
130264,0.163,-0.954,0.319,1.330,-2.170,0.140
130272,0.164,-0.953,0.322,1.260,-2.100,0.280
130336,0.162,-0.954,0.323,1.190,-2.100,0.490
130344,0.162,-0.953,0.319,1.260,-2.100,0.490
130353,0.165,-0.950,0.325,1.190,-2.030,0.420
130362,0.163,-0.954,0.321,1.190,-2.100,0.560
130371,0.161,-0.953,0.319,1.260,-2.030,0.630
130375,0.162,-0.954,0.324,1.190,-1.960,0.700
130442,0.163,-0.951,0.322,-0.770,-2.520,-0.910
130451,0.161,-0.950,0.324,-1.050,-2.590,-1.330
130460,0.160,-0.952,0.325,-1.120,-2.730,-1.610
130467,0.161,-0.953,0.323,-1.330,-2.730,-1.890
130476,0.162,-0.953,0.323,-1.610,-2.730,-2.030
130480,0.162,-0.952,0.322,-1.820,-2.800,-2.100
130544,0.161,-0.957,0.320,0.280,-2.380,-1.120
130553,0.165,-0.958,0.320,0.350,-2.380,-0.700
130562,0.165,-0.955,0.320,0.770,-2.240,-0.140
130570,0.162,-0.958,0.316,1.120,-2.170,-0.070
130579,0.163,-0.958,0.315,1.400,-2.100,0.000
130583,0.162,-0.956,0.321,1.680,-2.030,0.070
130623,0.163,-0.954,0.321,1.610,-2.030,0.210
130627,0.162,-0.953,0.324,1.540,-2.030,0.210
130636,0.162,-0.953,0.322,1.260,-2.170,0.000
130645,0.161,-0.955,0.322,1.120,-2.170,-0.070
130652,0.163,-0.953,0.322,0.980,-2.240,-0.210
130661,0.162,-0.953,0.321,0.840,-2.310,-0.350
130742,0.165,-0.955,0.319,0.560,-2.170,-0.840
130746,0.164,-0.958,0.321,0.700,-2.310,-0.700
130752,0.159,-0.954,0.325,0.490,-2.520,-0.630
130761,0.161,-0.953,0.322,0.350,-2.310,-0.560
130767,0.163,-0.954,0.321,0.350,-2.310,-0.560
130776,0.163,-0.953,0.321,0.630,-2.310,-0.490
130839,0.162,-0.954,0.318,0.140,-2.380,-0.420
130845,0.162,-0.952,0.320,0.140,-2.450,-0.630
130854,0.162,-0.956,0.323,-0.070,-2.380,-0.770
130861,0.163,-0.953,0.323,-0.210,-2.450,-0.770
130870,0.160,-0.953,0.319,-0.350,-2.450,-0.770
130874,0.160,-0.956,0.322,-0.490,-2.450,-0.700
130947,0.161,-0.954,0.321,0.770,-2.310,-0.210
130956,0.162,-0.955,0.320,0.770,-2.240,-0.280
130964,0.164,-0.955,0.323,0.840,-2.240,-0.280
130972,0.163,-0.955,0.321,0.770,-2.380,-0.210
130981,0.163,-0.954,0.320,0.700,-2.170,-0.280
130985,0.162,-0.956,0.322,0.630,-2.380,-0.280
131050,0.162,-0.956,0.319,-0.350,-2.450,-0.840
131059,0.163,-0.955,0.321,-0.350,-2.520,-0.770
131063,0.163,-0.952,0.322,-0.350,-2.520,-0.770
131072,0.163,-0.955,0.319,-0.490,-2.450,-0.840
131080,0.163,-0.956,0.319,-0.350,-2.380,-0.840
131089,0.162,-0.952,0.323,-0.280,-2.380,-0.840
131150,0.161,-0.957,0.319,1.260,-2.240,-0.280
131159,0.163,-0.956,0.322,1.330,-2.100,-0.210
131166,0.163,-0.956,0.322,1.330,-2.030,-0.070
131174,0.163,-0.955,0.323,1.400,-2.170,-0.070
131183,0.162,-0.954,0.322,1.400,-2.170,-0.070
131187,0.163,-0.954,0.323,1.330,-2.170,-0.070
131253,0.163,-0.952,0.323,-0.630,-2.730,-1.190
131257,0.161,-0.952,0.321,-0.770,-2.660,-1.330
131264,0.163,-0.954,0.322,-0.840,-2.660,-1.470
131273,0.160,-0.955,0.319,-0.700,-2.730,-1.540
131282,0.160,-0.955,0.321,-0.700,-2.660,-1.400
131290,0.162,-0.955,0.322,-0.700,-2.660,-1.400
131352,0.164,-0.956,0.319,0.840,-2.310,-0.420
131361,0.162,-0.954,0.320,0.770,-2.310,-0.350
131365,0.162,-0.954,0.320,0.840,-2.170,-0.280
131372,0.164,-0.955,0.321,0.910,-2.240,-0.210
131381,0.165,-0.956,0.324,0.770,-2.310,-0.350
131390,0.166,-0.953,0.320,0.700,-2.310,-0.350
131451,0.161,-0.954,0.322,0.000,-2.310,-0.490
131459,0.162,-0.954,0.320,0.070,-2.380,-0.630
131468,0.162,-0.953,0.322,0.140,-2.380,-0.630
131476,0.163,-0.954,0.319,0.000,-2.450,-0.630
131485,0.162,-0.953,0.321,0.070,-2.310,-0.700
131489,0.164,-0.953,0.321,0.000,-2.450,-0.630
131548,0.163,-0.956,0.323,0.210,-2.380,-0.490
131557,0.163,-0.954,0.320,0.210,-2.450,-0.490
131566,0.163,-0.953,0.320,0.280,-2.520,-0.560
131572,0.162,-0.955,0.321,0.140,-2.450,-0.700
131581,0.163,-0.955,0.318,0.140,-2.520,-0.630
131585,0.162,-0.954,0.323,0.210,-2.520,-0.700
131645,0.160,-0.953,0.322,0.000,-2.450,-0.350
131654,0.163,-0.953,0.322,-0.210,-2.520,-0.350
131658,0.163,-0.954,0.323,-0.280,-2.450,-0.280
131667,0.162,-0.955,0.322,-0.280,-2.380,-0.490
131676,0.162,-0.954,0.320,-0.210,-2.380,-0.700
131685,0.164,-0.954,0.318,-0.280,-2.240,-0.770
131747,0.163,-0.957,0.319,0.560,-2.310,-0.420
131756,0.162,-0.954,0.318,0.840,-2.380,-0.420
131760,0.161,-0.956,0.320,0.980,-2.310,-0.350
131769,0.160,-0.955,0.319,1.120,-2.240,-0.210
131778,0.164,-0.956,0.318,1.120,-2.240,-0.210
131787,0.163,-0.956,0.322,1.260,-2.310,-0.210
131845,0.162,-0.954,0.324,0.420,-2.310,-0.560
131849,0.162,-0.956,0.321,0.210,-2.520,-0.630
131858,0.161,-0.955,0.321,0.070,-2.380,-0.630
131867,0.164,-0.956,0.320,0.070,-2.380,-0.700
131875,0.162,-0.956,0.320,0.140,-2.450,-0.770
131884,0.163,-0.955,0.319,0.070,-2.380,-0.840
131934,0.161,-0.954,0.323,0.000,-2.660,-1.120
131940,0.163,-0.954,0.322,-0.070,-2.590,-0.980
131949,0.164,-0.955,0.320,-0.070,-2.520,-0.840
131953,0.163,-0.956,0.322,0.140,-2.450,-0.910
131962,0.162,-0.955,0.319,0.140,-2.450,-0.770
131971,0.162,-0.955,0.320,0.140,-2.450,-0.560
132033,0.161,-0.953,0.320,1.750,-1.820,0.770
132041,0.163,-0.954,0.320,1.820,-1.960,0.770
132050,0.163,-0.954,0.324,1.540,-1.820,0.770
132054,0.160,-0.953,0.323,1.260,-1.890,0.700
132062,0.163,-0.954,0.322,1.330,-2.030,0.560
132071,0.161,-0.953,0.319,1.120,-2.100,0.350
132117,0.161,-0.955,0.322,0.490,-2.240,-0.210
132121,0.163,-0.955,0.319,0.560,-2.310,-0.280
132130,0.160,-0.954,0.323,0.630,-2.450,-0.350
132139,0.160,-0.954,0.322,0.560,-2.240,-0.350
132147,0.158,-0.953,0.324,0.280,-2.240,-0.560
132156,0.162,-0.954,0.321,0.280,-2.380,-0.420
132218,0.162,-0.956,0.322,0.070,-2.450,-0.560
132226,0.162,-0.956,0.318,0.140,-2.380,-0.700
132235,0.160,-0.956,0.322,0.070,-2.520,-0.770
132239,0.162,-0.953,0.321,0.140,-2.520,-0.770
132246,0.163,-0.950,0.324,-0.070,-2.450,-0.910
132251,0.161,-0.955,0.321,-0.140,-2.520,-0.980
132314,0.162,-0.956,0.323,-1.190,-2.730,-1.470
132321,0.161,-0.955,0.320,-1.400,-2.800,-1.330
132330,0.163,-0.953,0.318,-1.330,-2.730,-1.470
132339,0.162,-0.956,0.318,-1.330,-2.660,-1.540
132343,0.162,-0.956,0.319,-1.400,-2.800,-1.680
132352,0.161,-0.957,0.317,-1.120,-2.660,-1.680
132428,0.164,-0.956,0.317,0.770,-2.240,-0.630
132437,0.163,-0.956,0.319,0.980,-2.240,-0.560
132441,0.164,-0.955,0.320,1.120,-2.240,-0.560
132448,0.162,-0.953,0.318,0.910,-2.380,-0.560
132457,0.163,-0.955,0.319,0.560,-2.380,-0.420
132466,0.163,-0.953,0.319,0.630,-2.450,-0.420
132519,0.166,-0.954,0.319,1.330,-2.170,-0.070
132527,0.164,-0.955,0.321,1.330,-2.030,0.000
132531,0.163,-0.953,0.322,1.400,-2.100,0.000
132540,0.164,-0.954,0.320,1.330,-2.100,-0.070
132549,0.160,-0.950,0.322,1.050,-2.170,-0.210
132557,0.160,-0.950,0.321,0.770,-2.240,-0.420
132619,0.164,-0.956,0.321,-0.420,-2.450,-0.840
132623,0.166,-0.956,0.320,-0.420,-2.590,-0.840
132630,0.166,-0.956,0.322,-0.490,-2.450,-0.630
132639,0.164,-0.954,0.318,-0.280,-2.450,-0.490
132646,0.164,-0.956,0.318,0.000,-2.310,-0.490
132655,0.163,-0.957,0.320,0.210,-2.380,-0.350
132711,0.161,-0.956,0.320,0.770,-2.240,-0.770
132715,0.163,-0.953,0.321,0.630,-2.310,-0.630
132722,0.162,-0.955,0.323,0.420,-2.450,-0.700
132731,0.165,-0.956,0.321,0.350,-2.520,-0.700
132740,0.161,-0.955,0.322,0.280,-2.450,-0.700
132747,0.163,-0.952,0.321,0.280,-2.450,-0.700
132800,0.162,-0.954,0.321,-0.490,-2.380,-0.700
132809,0.163,-0.956,0.319,-0.490,-2.450,-0.770
132816,0.163,-0.956,0.319,-0.210,-2.450,-0.700
132823,0.163,-0.955,0.319,-0.140,-2.450,-0.560
132832,0.164,-0.954,0.318,-0.140,-2.450,-0.490
132836,0.163,-0.956,0.320,0.140,-2.310,-0.420
132917,0.163,-0.954,0.320,0.560,-2.310,-0.210
132921,0.162,-0.955,0.324,0.490,-2.310,-0.210
132930,0.161,-0.955,0.320,0.210,-2.450,-0.280
132939,0.164,-0.956,0.319,0.280,-2.240,-0.280
132947,0.163,-0.956,0.317,0.350,-2.310,-0.350
132956,0.162,-0.954,0.318,0.560,-2.310,-0.560
133016,0.164,-0.957,0.318,0.700,-2.310,-0.070
133020,0.164,-0.955,0.318,0.770,-2.170,0.000
133027,0.161,-0.954,0.319,1.050,-2.100,0.070
133036,0.163,-0.955,0.319,0.980,-2.240,0.000
133045,0.164,-0.954,0.319,0.910,-2.240,0.000
133054,0.161,-0.951,0.321,0.980,-2.240,-0.070
133124,0.163,-0.954,0.322,-0.140,-2.450,-0.840
133133,0.163,-0.954,0.321,-0.210,-2.380,-0.700
133137,0.163,-0.955,0.323,-0.140,-2.450,-0.700
133145,0.163,-0.955,0.319,0.070,-2.450,-0.630
133154,0.162,-0.955,0.319,-0.070,-2.380,-0.630
133163,0.162,-0.954,0.320,-17.850,-2.520,-0.700
133240,0.162,-0.954,0.320,0.490,-2.450,-0.840
133244,0.163,-0.957,0.320,0.490,-2.310,-0.770
133251,0.163,-0.957,0.322,0.840,-2.240,-0.630
133260,0.162,-0.955,0.317,0.980,-1.890,-1.680
133268,0.154,-0.954,0.309,1.820,-1.400,3.290
133276,0.174,-0.962,0.314,4.340,0.210,-2.240
133335,0.152,-0.951,0.333,1.750,-1.050,6.440
133344,0.142,-0.968,0.332,1.330,-1.960,1.680
133352,0.140,-0.967,0.324,2.030,-2.380,-2.240
133361,0.164,-0.947,0.323,2.310,-1.820,-0.280
133370,0.161,-0.944,0.326,1.750,-1.750,-0.280
133374,0.160,-0.953,0.334,0.140,-2.450,-0.210
133444,0.159,-0.956,0.328,-0.280,-2.520,-0.980
133453,0.159,-0.954,0.330,-0.770,-2.590,-0.840
133457,0.161,-0.954,0.323,-0.630,-2.310,-0.560
133466,0.160,-0.955,0.324,-0.140,-2.240,-0.280
133474,0.162,-0.954,0.324,-0.070,-2.380,-0.350
133483,0.159,-0.955,0.325,-0.140,-2.450,-0.280
133546,0.159,-0.953,0.324,0.350,-2.380,-0.700
133550,0.160,-0.955,0.325,0.210,-2.450,-0.700
133559,0.160,-0.954,0.322,0.280,-2.310,-0.630
133568,0.159,-0.954,0.324,0.560,-2.450,-0.700
133574,0.161,-0.954,0.321,0.560,-2.310,-0.560
133583,0.162,-0.955,0.325,0.560,-2.380,-0.350
133642,0.158,-0.950,0.324,0.350,-2.310,-0.560
133649,0.156,-0.950,0.325,0.210,-2.450,-0.910
133658,0.160,-0.951,0.326,-0.280,-2.590,-1.050
133665,0.161,-0.952,0.325,-0.490,-2.450,-1.260
133669,0.159,-0.950,0.326,-0.630,-2.590,-1.190
133677,0.161,-0.956,0.326,-0.840,-2.730,-1.330
133737,0.160,-0.953,0.322,0.420,-2.380,-0.910
133745,0.162,-0.954,0.323,0.630,-2.310,-0.980
133750,0.161,-0.956,0.325,0.700,-2.310,-0.840
133759,0.163,-0.955,0.325,0.630,-2.380,-0.770
133763,0.161,-0.955,0.325,0.770,-2.380,-0.560
133770,0.160,-0.953,0.327,0.770,-2.380,-0.420
133828,0.160,-0.953,0.323,0.210,-2.380,-0.840
133837,0.159,-0.952,0.325,-0.070,-2.450,-0.980
133844,0.161,-0.951,0.325,-0.210,-2.380,-1.050
133853,0.161,-0.955,0.326,-0.140,-2.730,-0.980
133862,0.173,-0.954,0.326,-0.350,-2.940,-0.980
133866,0.149,-0.953,0.325,-0.980,-2.590,-0.980
133936,0.160,-0.956,0.325,-0.140,-2.310,-0.630
133945,0.162,-0.956,0.324,-0.280,-2.380,-0.490
133954,0.163,-0.954,0.322,-0.140,-2.170,-0.420
133958,0.160,-0.956,0.322,0.070,-2.310,-0.210
133967,0.163,-0.956,0.322,0.140,-2.170,-0.140
133976,0.161,-0.955,0.322,0.420,-2.240,0.210
134030,0.159,-0.954,0.324,2.240,-1.260,0.770
134037,0.161,-0.951,0.324,1.820,-1.190,0.770
134041,0.160,-0.951,0.325,1.750,-0.980,0.700
134050,0.158,-0.955,0.322,1.750,-1.050,0.350
134058,0.160,-0.954,0.323,2.030,-0.630,0.000
134066,0.159,-0.953,0.323,1.820,-1.330,-0.070
134131,0.156,-0.961,0.328,2.660,-0.560,1.960
134138,0.149,-0.958,0.326,3.500,-0.280,2.170
134142,0.141,-0.951,0.327,4.340,0.210,2.240
134150,0.142,-0.948,0.327,3.570,-0.210,2.590
134155,0.150,-0.947,0.328,3.150,-0.350,2.730
134164,0.156,-0.950,0.332,2.800,-0.980,2.800
134230,0.153,-0.953,0.327,0.210,-2.380,-0.490
134239,0.152,-0.952,0.328,0.070,-2.380,-0.490
134243,0.151,-0.954,0.329,0.070,-2.310,-0.560
134250,0.152,-0.955,0.333,-0.210,-2.450,-0.560
134259,0.151,-0.955,0.330,-0.420,-2.380,-0.700
134268,0.152,-0.953,0.328,-0.350,-2.450,-0.840
134322,0.153,-0.958,0.327,-0.490,-2.450,-1.120
134329,0.156,-0.957,0.326,-0.560,-2.660,-1.190
134338,0.155,-0.952,0.323,-0.070,-2.450,-0.700
134347,0.154,-0.953,0.325,0.490,-2.310,-0.560
134356,0.154,-0.959,0.327,0.630,-2.240,-0.210
134360,0.155,-0.957,0.329,0.770,-2.170,0.000
134407,0.154,-0.955,0.330,1.190,-2.030,0.350
134412,0.152,-0.952,0.329,1.190,-2.170,0.210
134421,0.151,-0.954,0.327,0.910,-2.170,0.070
134430,0.153,-0.950,0.330,0.770,-2.310,-0.140
134439,0.153,-0.952,0.330,0.490,-2.170,-0.350
134443,0.151,-0.952,0.328,0.210,-2.240,-0.490
134517,0.152,-0.953,0.328,1.540,-1.890,0.420
134524,0.149,-0.952,0.329,1.750,-1.890,0.420
134533,0.152,-0.952,0.332,1.470,-1.680,0.280
134542,0.152,-0.955,0.330,1.330,-1.820,0.070
134546,0.149,-0.953,0.329,1.120,-1.750,-0.070
134553,0.144,-0.950,0.328,1.190,-1.540,-0.140
134609,0.151,-0.954,0.331,0.000,-2.590,-0.840
134615,0.151,-0.951,0.328,0.000,-2.520,-0.980
134619,0.153,-0.951,0.329,-0.070,-2.450,-0.980
134627,0.151,-0.952,0.332,-0.070,-2.450,-1.120
134636,0.152,-0.954,0.332,-0.350,-2.450,-0.980
134642,0.152,-0.956,0.329,-0.350,-2.520,-0.910
134694,0.151,-0.951,0.330,0.070,-2.380,-0.980
134703,0.153,-0.952,0.328,-0.140,-2.520,-0.980
134710,0.151,-0.953,0.329,-0.070,-2.450,-1.120
134714,0.150,-0.955,0.329,-0.280,-2.520,-1.050
134723,0.152,-0.952,0.325,-0.280,-2.590,-1.260
134732,0.151,-0.953,0.326,-0.140,-2.520,-1.470
134798,0.160,-0.954,0.326,-1.820,-3.710,-3.780
134802,0.157,-0.956,0.330,-1.610,-3.570,-3.990
134811,0.159,-0.955,0.326,-1.540,-3.570,-4.200
134818,0.160,-0.955,0.328,-1.680,-3.220,-3.920
134827,0.158,-0.955,0.328,-1.540,-3.220,-3.640
134834,0.155,-0.953,0.327,-1.330,-2.940,-3.360
134899,0.158,-0.957,0.321,1.190,-1.680,0.560
134907,0.159,-0.957,0.322,1.820,-1.680,0.980
134916,0.156,-0.956,0.323,2.800,-1.400,1.050
134924,0.158,-0.954,0.324,3.080,-1.680,1.190
134933,0.156,-0.954,0.326,3.220,-1.540,1.120
134937,0.156,-0.952,0.326,3.290,-1.680,1.050
134997,0.151,-0.950,0.329,1.610,-2.170,0.630
135005,0.156,-0.952,0.328,1.330,-2.170,0.560
135014,0.156,-0.951,0.331,1.260,-2.240,0.420
135022,0.159,-0.954,0.330,1.050,-2.170,0.140
135031,0.155,-0.953,0.329,1.400,-2.310,0.000
135035,0.154,-0.951,0.330,1.470,-2.170,0.000
135089,0.155,-0.954,0.330,0.910,-2.170,0.280
135093,0.154,-0.951,0.331,0.840,-2.100,0.280
135102,0.152,-0.950,0.331,0.560,-2.170,0.280
135111,0.165,-0.945,0.331,-17.640,-2.100,0.980
135118,0.144,-0.957,0.329,0.210,-2.590,-0.280
135127,0.155,-0.959,0.334,0.490,-2.590,-0.280
135180,0.152,-0.950,0.330,0.350,-1.890,0.000
135189,0.150,-0.957,0.332,0.140,-2.030,-0.280
135197,0.154,-0.959,0.334,-0.280,-2.310,-0.210
135206,0.161,-0.946,0.325,0.140,-2.100,0.070
135215,0.159,-0.952,0.330,0.420,-2.100,-0.630
135219,0.151,-0.961,0.331,-0.070,-2.520,-0.700
135263,0.154,-0.950,0.325,0.070,-2.240,-0.420
135268,0.150,-0.964,0.328,0.910,-2.380,-0.910
135276,0.153,-0.953,0.332,1.120,-2.590,-1.120
135285,0.154,-0.947,0.332,0.210,-2.310,-0.490
135294,0.153,-0.949,0.330,0.210,-2.520,-0.770
135303,0.154,-0.957,0.328,0.630,-2.520,-0.840
135350,0.154,-0.953,0.332,-0.070,-2.590,-0.910
135359,0.152,-0.950,0.331,-0.210,-2.660,-1.190
135363,0.157,-0.951,0.331,-0.350,-2.660,-1.190
135370,0.153,-0.953,0.332,-0.280,-2.730,-1.260
135379,0.154,-0.954,0.328,-0.630,-2.730,-1.400
135386,0.153,-0.950,0.329,-0.770,-2.730,-1.400
135444,0.158,-0.953,0.327,-0.210,-2.450,-0.980
135448,0.155,-0.952,0.325,0.070,-2.520,-0.910
135457,0.153,-0.955,0.330,0.210,-2.310,-1.120
135466,0.154,-0.952,0.329,-0.350,-2.660,-1.190
135472,0.153,-0.949,0.326,-0.350,-2.660,-1.120
135481,0.150,-0.952,0.327,-0.210,-2.590,-1.470
135538,0.156,-0.952,0.329,-0.350,-2.590,-0.700
135542,0.157,-0.952,0.329,-0.210,-2.450,-0.630
135551,0.155,-0.954,0.325,0.420,-2.310,-0.350
135560,0.155,-0.953,0.325,0.770,-2.100,-0.350
135569,0.152,-0.954,0.328,0.770,-2.240,-0.210
135578,0.153,-0.954,0.327,0.910,-2.240,-0.140
135637,0.156,-0.953,0.328,1.050,-2.310,-0.280
135642,0.157,-0.950,0.329,0.910,-2.310,-0.280
135651,0.156,-0.949,0.330,0.560,-2.380,-0.420
135660,0.156,-0.952,0.328,0.350,-2.520,-0.630
135669,0.152,-0.949,0.330,0.000,-2.520,-0.910
135678,0.157,-0.953,0.329,-0.140,-2.520,-0.910
135735,0.156,-0.954,0.330,-0.070,-2.450,-0.700
135743,0.156,-0.952,0.327,-0.140,-2.310,-0.630
135747,0.155,-0.954,0.329,0.140,-2.380,-0.420
135755,0.156,-0.954,0.328,0.280,-2.310,-0.350
135760,0.159,-0.954,0.330,0.490,-2.240,-0.280
135767,0.153,-0.953,0.326,0.490,-2.310,-0.280
135828,0.154,-0.954,0.329,0.140,-2.520,-0.770
135834,0.154,-0.953,0.329,0.210,-2.450,-0.630
135838,0.154,-0.953,0.329,0.210,-2.450,-0.700
135847,0.155,-0.954,0.329,0.070,-2.450,-0.770
135856,0.157,-0.952,0.328,0.140,-2.520,-0.910
135862,0.156,-0.952,0.328,0.000,-2.590,-0.840
135910,0.156,-0.953,0.327,0.280,-2.310,-0.770
135914,0.155,-0.954,0.325,0.350,-2.380,-0.770
135921,0.157,-0.952,0.328,0.350,-2.450,-0.700
135926,0.155,-0.955,0.325,0.280,-2.450,-0.770
135935,0.158,-0.955,0.331,0.210,-2.450,-0.700
135942,0.155,-0.951,0.329,0.140,-2.380,-0.700
135989,0.159,-0.953,0.326,0.140,-2.450,-0.770
135993,0.156,-0.953,0.327,0.210,-2.450,-0.700
136001,0.158,-0.953,0.327,0.070,-2.450,-0.630
136010,0.157,-0.952,0.328,0.210,-2.450,-0.630
136017,0.156,-0.952,0.328,0.210,-2.380,-0.630
136026,0.156,-0.953,0.326,0.210,-2.450,-0.630
136075,0.157,-0.954,0.331,0.350,-2.380,-0.770
136084,0.154,-0.951,0.327,0.490,-2.450,-0.770
136092,0.155,-0.954,0.329,0.350,-2.450,-0.770
136101,0.157,-0.952,0.330,0.350,-2.450,-0.770
136110,0.157,-0.954,0.329,0.280,-2.310,-0.770
136114,0.158,-0.952,0.331,0.210,-2.450,-0.700
136175,0.157,-0.954,0.325,-0.140,-2.520,-1.190
136184,0.160,-0.954,0.326,-0.210,-2.660,-1.190
136191,0.157,-0.951,0.327,-0.140,-2.590,-1.190
136195,0.158,-0.953,0.327,-0.140,-2.520,-1.050
136203,0.157,-0.953,0.326,-0.070,-2.660,-0.980
136212,0.156,-0.952,0.326,0.070,-2.450,-0.910
136263,0.158,-0.951,0.325,0.490,-2.450,-0.560
136271,0.158,-0.953,0.327,0.490,-2.310,-0.490
136280,0.158,-0.952,0.323,0.630,-2.310,-0.490
136289,0.157,-0.954,0.328,0.490,-2.310,-0.420
136293,0.157,-0.953,0.328,0.350,-2.240,-0.490
136302,0.157,-0.951,0.327,0.280,-2.310,-0.490
136367,0.157,-0.954,0.328,0.140,-2.730,-0.910
136371,0.166,-0.954,0.326,-17.850,-2.870,-0.630
136376,0.163,-0.954,0.327,-0.210,-3.010,-0.700
136385,0.150,-0.952,0.328,-0.140,-2.450,-0.770
136392,0.146,-0.951,0.328,-0.070,-2.520,-0.490
136396,0.165,-0.954,0.326,-0.140,-2.310,-0.350
136450,0.158,-0.953,0.325,0.420,-2.170,-0.210
136459,0.157,-0.954,0.327,0.490,-2.380,-0.280
136463,0.156,-0.952,0.325,0.560,-2.310,-0.280
136470,0.154,-0.954,0.326,0.630,-2.310,-0.350
136478,0.156,-0.953,0.325,0.560,-2.310,-0.490
136487,0.158,-0.953,0.325,0.560,-2.310,-0.420
136539,0.159,-0.954,0.330,0.630,-2.380,-0.420
136548,0.158,-0.954,0.329,0.490,-2.240,-0.280
136552,0.158,-0.951,0.328,0.630,-2.240,-0.350
136561,0.158,-0.952,0.327,0.420,-2.170,-0.490
136568,0.156,-0.952,0.327,0.420,-2.380,-0.490
136575,0.158,-0.953,0.330,0.350,-2.240,-0.490
136627,0.158,-0.953,0.328,0.420,-2.240,-0.420
136636,0.157,-0.952,0.329,0.420,-2.310,-0.490
136640,0.157,-0.953,0.327,0.490,-2.380,-0.490
136648,0.157,-0.953,0.329,0.560,-2.310,-0.490
136657,0.152,-0.954,0.328,0.490,-2.380,-0.490
136664,0.157,-0.953,0.327,0.420,-2.380,-0.490
136729,0.157,-0.954,0.329,0.070,-2.520,-0.910
136737,0.156,-0.954,0.326,0.140,-2.380,-0.700
136744,0.160,-0.953,0.328,0.070,-2.520,-0.770
136749,0.158,-0.955,0.327,0.070,-2.450,-0.700
136753,0.158,-0.956,0.327,0.210,-2.450,-0.560
136762,0.157,-0.954,0.325,0.280,-2.380,-0.560
136817,0.156,-0.952,0.327,0.210,-2.310,-0.630
136821,0.158,-0.953,0.327,0.210,-2.380,-0.560
136830,0.159,-0.952,0.327,0.280,-2.380,-0.700
136837,0.158,-0.954,0.328,0.280,-2.380,-0.700
136844,0.155,-0.954,0.326,0.210,-2.520,-0.630
136853,0.157,-0.953,0.326,0.210,-2.380,-0.630
136913,0.155,-0.954,0.327,0.420,-2.310,-0.420
136917,0.157,-0.956,0.327,0.420,-2.310,-0.490
136925,0.158,-0.952,0.325,0.490,-2.310,-0.490
136930,0.156,-0.952,0.328,0.630,-2.380,-0.560
136939,0.157,-0.952,0.326,0.700,-2.380,-0.560
136943,0.159,-0.953,0.327,0.420,-2.310,-0.560
137004,0.158,-0.954,0.330,0.140,-2.310,-0.560
137008,0.156,-0.953,0.329,0.070,-2.310,-0.490
137017,0.155,-0.954,0.327,0.000,-2.380,-0.420
137024,0.158,-0.954,0.327,-0.140,-2.450,-0.420
137033,0.157,-0.954,0.326,0.000,-2.380,-0.490
137042,0.157,-0.953,0.325,0.000,-2.380,-0.420
137095,0.157,-0.955,0.327,0.350,-2.450,-0.630
137099,0.155,-0.951,0.327,0.280,-2.520,-0.700
137108,0.157,-0.953,0.325,0.280,-2.380,-0.560
137116,0.156,-0.954,0.326,0.350,-2.380,-0.630
137124,0.159,-0.952,0.327,0.350,-2.310,-0.490
137133,0.155,-0.956,0.325,0.490,-2.450,-0.630
137183,0.155,-0.954,0.325,0.350,-2.240,-0.630
137187,0.155,-0.953,0.325,0.280,-2.450,-0.560
137196,0.157,-0.954,0.327,0.280,-2.450,-0.560
137205,0.157,-0.955,0.325,0.280,-2.450,-0.700
137214,0.157,-0.952,0.326,0.280,-2.380,-0.630
137218,0.158,-0.954,0.328,0.140,-2.520,-0.700
137268,0.155,-0.953,0.326,0.210,-2.380,-0.630
137272,0.157,-0.954,0.326,0.280,-2.380,-0.560
137277,0.158,-0.952,0.325,0.490,-2.380,-0.700
137286,0.158,-0.955,0.325,0.560,-2.380,-0.630
137293,0.155,-0.953,0.327,0.630,-2.380,-0.630
137302,0.159,-0.952,0.326,0.560,-2.310,-0.630
137355,0.156,-0.954,0.324,0.140,-2.380,-0.840
137364,0.159,-0.955,0.326,0.070,-2.450,-0.700
137371,0.159,-0.951,0.327,0.140,-2.590,-0.630
137380,0.158,-0.955,0.326,0.070,-2.450,-0.700
137388,0.158,-0.954,0.326,0.000,-2.450,-0.910
137392,0.158,-0.953,0.324,0.070,-2.450,-0.980
137453,0.177,-0.954,0.328,0.280,-3.710,-1.540
137457,0.167,-0.953,0.327,-0.910,-4.060,-1.610
137466,0.157,-0.948,0.323,-0.070,-3.430,-1.470
137474,0.143,-0.948,0.324,0.350,-3.220,-1.400
137483,0.149,-0.953,0.327,0.210,-2.870,-1.260
137487,0.156,-0.955,0.324,0.070,-2.800,-1.260
137554,0.154,-0.958,0.322,0.630,-2.100,0.490
137562,0.157,-0.956,0.324,1.190,-1.960,0.140
137571,0.157,-0.954,0.323,1.750,-1.960,0.350
137580,0.157,-0.954,0.323,2.100,-1.820,0.840
137588,0.154,-0.952,0.323,2.240,-1.960,0.980
137592,0.158,-0.956,0.326,2.590,-1.960,1.260
137645,0.157,-0.953,0.321,0.350,-2.520,0.770
137654,0.165,-0.953,0.325,1.120,-1.960,-0.560
137663,0.169,-0.953,0.329,1.330,-2.030,-1.470
137669,0.164,-0.947,0.331,0.420,-2.520,-1.820
137678,0.149,-0.944,0.336,-1.190,-3.080,-2.100
137682,0.158,-0.947,0.331,-2.800,-3.080,-1.960
137749,0.157,-0.952,0.325,-1.400,-2.730,-1.960
137753,0.161,-0.955,0.325,-1.470,-2.660,-2.030
137760,0.161,-0.952,0.326,-1.470,-2.660,-2.170
137769,0.161,-0.953,0.325,-1.400,-2.800,-2.450
137777,0.161,-0.952,0.325,-1.540,-2.800,-2.660
137786,0.161,-0.953,0.325,-1.260,-2.940,-2.450
137868,0.168,-0.955,0.320,-0.140,-3.360,-3.920
137872,0.162,-0.956,0.324,0.280,-3.570,-3.780
137879,0.162,-0.955,0.325,-0.140,-3.990,-3.430
137888,0.156,-0.953,0.326,-0.420,-4.270,-2.730
137897,0.156,-0.956,0.323,-0.490,-4.060,-1.680
137901,0.159,-0.957,0.325,0.140,-4.200,-1.400
137957,0.159,-0.954,0.325,3.710,-2.310,1.190
137966,0.162,-0.954,0.328,3.080,-1.960,1.610
137972,0.161,-0.953,0.328,2.730,-2.310,2.030
137981,0.160,-0.954,0.327,2.240,-2.520,2.450
137985,0.162,-0.956,0.320,1.820,-1.750,2.520
137994,0.160,-0.955,0.320,3.010,-1.260,2.380
138052,0.162,-0.954,0.324,-1.050,-1.820,-1.820
138056,0.166,-0.956,0.327,-1.400,-1.890,-1.680
138065,0.165,-0.954,0.325,-1.820,-2.170,-1.470
138074,0.163,-0.952,0.326,-1.820,-2.030,-1.400
138083,0.163,-0.954,0.320,-1.610,-2.100,-0.840
138090,0.164,-0.956,0.319,-0.560,-2.030,-0.630
138155,0.156,-0.945,0.330,1.610,-4.760,0.840
138159,0.152,-0.944,0.334,-0.770,-6.650,0.700
138166,0.153,-0.946,0.332,-2.660,-8.540,0.630
138175,0.159,-0.948,0.327,-4.550,-7.700,-0.490
138184,0.164,-0.954,0.319,-4.410,-7.000,-1.890
138191,0.165,-0.958,0.319,-2.240,-6.300,-2.380
138247,0.148,-0.955,0.319,-2.380,-0.700,-2.800
138252,0.137,-0.956,0.322,-1.960,-0.980,-2.450
138256,0.147,-0.959,0.326,-2.030,-1.330,-1.890
138265,0.172,-0.966,0.314,-2.940,1.400,-1.190
138273,0.166,-0.971,0.308,2.870,4.130,-1.190
138282,0.162,-0.971,0.301,4.480,6.650,-0.350
138333,0.160,-0.951,0.319,5.110,1.750,4.130
138341,0.177,-0.952,0.333,4.970,-0.070,3.850
138348,0.200,-0.958,0.338,3.570,-1.610,3.710
138357,0.184,-0.956,0.333,3.290,-2.170,3.360
138361,0.150,-0.945,0.324,4.130,-3.010,3.710
138369,0.142,-0.944,0.325,4.620,-3.570,4.200
138416,0.156,-0.953,0.325,2.730,-3.010,-0.840
138424,0.158,-0.947,0.331,1.750,-2.520,-1.680
138433,0.158,-0.945,0.335,1.260,-2.660,-2.310
138437,0.158,-0.945,0.340,-1.260,-3.150,-2.730
138444,0.153,-0.945,0.337,-3.010,-3.290,-3.080
138453,0.158,-0.944,0.329,-4.410,-3.010,-6.090
138512,0.172,-0.953,0.318,-3.290,1.820,-1.960
138516,0.153,-0.962,0.321,-2.380,1.750,-3.220
138525,0.146,-0.962,0.321,-1.610,1.610,-6.580
138534,0.146,-0.958,0.319,-0.910,1.190,-6.440
138541,0.162,-0.952,0.318,-0.280,1.190,-4.760
138550,0.162,-0.956,0.320,0.140,1.050,-3.360
138609,0.169,-0.963,0.313,0.910,-2.590,-2.590
138618,0.164,-0.957,0.316,2.730,-2.520,-3.360
138627,0.170,-0.947,0.319,2.590,-2.380,-3.360
138631,0.167,-0.949,0.328,1.610,-3.430,-3.360
138640,0.168,-0.953,0.328,0.210,-4.410,-3.290
138647,0.163,-0.955,0.328,0.140,-4.620,-3.220
138703,0.169,-0.958,0.323,-0.630,-2.310,0.140
138712,0.158,-0.956,0.322,-0.140,-2.100,0.210
138719,0.165,-0.956,0.321,0.000,-2.030,0.490
138728,0.162,-0.954,0.321,0.350,-1.750,0.770
138737,0.161,-0.954,0.324,0.350,-1.540,0.840
138741,0.163,-0.956,0.320,0.350,-0.980,0.770
138799,0.155,-0.954,0.317,2.520,-0.280,0.560
138803,0.158,-0.955,0.319,3.360,-0.280,-0.210
138808,0.156,-0.951,0.322,3.780,0.000,-0.210
138816,0.173,-0.945,0.322,3.220,-1.330,3.290
138825,0.172,-0.944,0.335,1.680,-2.100,2.660
138834,0.149,-0.955,0.334,-0.420,-2.450,1.260
138882,0.163,-0.952,0.322,-0.630,-2.590,-1.820
138891,0.162,-0.950,0.324,-0.840,-2.030,-1.400
138898,0.164,-0.953,0.327,-1.540,-1.960,-1.330
138907,0.161,-0.958,0.327,-1.680,-2.380,-1.400
138916,0.159,-0.955,0.326,-1.470,-2.380,-1.260
138920,0.162,-0.951,0.325,-1.260,-2.240,-1.050
138960,0.161,-0.952,0.325,0.420,-1.750,-0.140
138969,0.160,-0.952,0.325,0.140,-2.310,-0.140
138977,0.161,-0.952,0.323,-0.140,-2.380,-0.140
138986,0.159,-0.955,0.322,0.490,-2.380,-0.280
138995,0.160,-0.956,0.320,0.840,-2.310,-0.070
138999,0.160,-0.954,0.321,1.330,-2.170,-0.210
139064,0.157,-0.952,0.325,1.890,-2.100,-0.140
139068,0.157,-0.953,0.328,1.610,-2.100,-0.280
139077,0.160,-0.955,0.326,1.120,-2.100,-0.350
139086,0.159,-0.952,0.324,1.120,-2.170,-0.280
139093,0.160,-0.955,0.327,1.050,-2.170,-0.420
139097,0.159,-0.953,0.326,1.120,-2.170,-0.420
139169,0.162,-0.950,0.325,-1.050,-1.540,-0.700
139178,0.159,-0.956,0.322,0.420,-1.540,-0.700
139182,0.162,-0.956,0.324,1.540,-0.910,-0.630
139191,0.162,-0.955,0.327,1.890,-0.700,-0.420
139200,0.159,-0.952,0.331,1.400,-1.400,-0.280
139209,0.163,-0.950,0.329,1.190,-2.100,0.070
139264,0.157,-0.953,0.328,0.630,-2.240,-0.070
139273,0.158,-0.954,0.329,0.350,-2.380,-0.210
139282,0.153,-0.949,0.329,0.560,-2.520,-0.910
139289,0.155,-0.949,0.328,0.980,-2.240,-1.050
139293,0.157,-0.947,0.333,0.140,-2.520,-1.050
139302,0.156,-0.953,0.330,-0.770,-2.590,-0.630
139356,0.159,-0.955,0.328,1.050,-1.960,0.210
139364,0.159,-0.953,0.329,1.750,-1.960,0.420
139373,0.157,-0.952,0.329,1.750,-1.960,0.770
139382,0.155,-0.956,0.330,1.680,-1.960,1.190
139391,0.160,-0.953,0.330,1.610,-1.960,1.400
139395,0.156,-0.953,0.328,1.680,-1.820,1.680
139454,0.161,-0.956,0.323,-0.070,-3.360,2.520
139461,0.165,-0.955,0.325,0.350,-3.290,1.820
139470,0.172,-0.954,0.326,0.700,-3.080,0.980
139479,0.169,-0.952,0.330,0.910,-3.010,0.560
139483,0.152,-0.950,0.327,1.190,-2.800,0.070
139492,0.144,-0.948,0.333,0.700,-3.430,-0.630
139538,0.157,-0.956,0.324,-0.630,-3.360,-2.240
139547,0.157,-0.956,0.329,-0.770,-3.150,-2.100
139556,0.160,-0.954,0.333,-1.260,-3.290,-1.540
139560,0.158,-0.953,0.331,-1.540,-3.360,-1.330
139569,0.158,-0.957,0.326,-0.770,-2.940,-1.050
139576,0.156,-0.958,0.327,-0.140,-2.730,-0.770
139635,0.154,-0.954,0.327,1.610,-1.960,0.770
139639,0.153,-0.955,0.325,1.960,-1.820,0.980
139648,0.150,-0.956,0.329,2.380,-1.680,1.190
139657,0.152,-0.956,0.330,2.450,-1.680,0.980
139666,0.152,-0.952,0.329,2.240,-2.170,0.910
139675,0.147,-0.947,0.330,1.540,-2.170,0.840
139732,0.155,-0.949,0.329,-2.800,-3.360,-2.730
139736,0.157,-0.954,0.323,-2.660,-3.710,-3.080
139743,0.160,-0.953,0.327,-2.590,-4.130,-3.290
139751,0.166,-0.954,0.329,-3.710,-5.530,-2.870
139760,0.172,-0.953,0.329,-4.200,-6.090,-2.450
139768,0.181,-0.957,0.328,-3.920,-6.160,-2.100
139830,0.154,-0.961,0.326,3.850,-1.400,3.220
139834,0.155,-0.954,0.328,4.130,-1.120,3.570
139843,0.152,-0.954,0.327,3.850,-1.260,3.430
139852,0.150,-0.953,0.329,3.500,-1.610,3.080
139860,0.143,-0.949,0.331,3.080,-2.240,2.800
139869,0.146,-0.947,0.331,1.890,-2.520,2.170
139923,0.152,-0.950,0.331,-1.820,-3.150,-2.380
139927,0.152,-0.950,0.326,-2.100,-3.290,-2.380
139936,0.152,-0.952,0.326,-2.380,-3.220,-2.800
139945,0.153,-0.952,0.329,-2.590,-3.360,-3.080
139954,0.153,-0.953,0.328,-2.730,-3.430,-3.150
139963,0.152,-0.956,0.327,-2.730,-3.290,-3.220
140020,0.160,-0.956,0.324,0.770,-2.170,0.070
140024,0.158,-0.955,0.323,0.840,-2.100,0.280
140033,0.158,-0.956,0.325,1.190,-2.030,0.490
140042,0.157,-0.955,0.323,1.610,-1.890,0.840
140051,0.153,-0.957,0.322,1.890,-1.820,0.980
140060,0.153,-0.956,0.324,2.380,-1.610,1.050
140099,0.154,-0.949,0.329,1.400,-2.310,-0.140
140108,0.151,-0.952,0.330,0.630,-2.450,-0.350
140116,0.153,-0.953,0.331,0.490,-2.520,-0.630
140125,0.153,-0.952,0.329,0.140,-2.450,-0.700
140129,0.153,-0.951,0.331,-0.140,-2.520,-0.700
140138,0.155,-0.951,0.328,-0.630,-2.590,-0.980
140198,0.156,-0.954,0.323,-1.680,-3.150,-2.030
140207,0.153,-0.958,0.325,-1.260,-3.010,-2.100
140211,0.154,-0.958,0.321,-0.560,-3.010,-1.960
140217,0.157,-0.954,0.324,-0.560,-3.010,-1.750
140226,0.156,-0.954,0.326,-0.910,-2.870,-1.750
140235,0.152,-0.954,0.327,-0.840,-2.940,-1.680
140290,0.162,-0.957,0.325,1.120,-2.100,0.420
140294,0.156,-0.956,0.323,1.330,-2.030,0.490
140303,0.158,-0.956,0.322,1.610,-1.890,0.840
140311,0.158,-0.956,0.326,1.820,-1.890,1.050
140320,0.155,-0.956,0.325,2.170,-1.960,1.120
140329,0.154,-0.951,0.324,2.240,-1.750,1.260
140383,0.151,-0.955,0.327,1.540,-1.820,0.770
140387,0.149,-0.954,0.325,1.400,-1.960,0.770
140396,0.151,-0.951,0.327,1.330,-2.100,0.350
140403,0.150,-0.952,0.327,1.050,-2.170,0.210
140411,0.151,-0.950,0.327,0.630,-2.310,-0.070
140420,0.154,-0.950,0.327,0.560,-2.240,-0.280
140484,0.152,-0.956,0.327,0.770,-2.520,-0.420
140491,0.155,-0.955,0.328,0.910,-2.380,-0.210
140499,0.155,-0.954,0.329,1.120,-2.310,-0.070
140503,0.153,-0.954,0.327,1.260,-2.240,0.000
140512,0.153,-0.951,0.329,1.400,-2.310,0.140
140519,0.154,-0.952,0.327,1.260,-2.450,0.070
140595,0.144,-0.952,0.327,-1.820,-2.240,1.540
140604,0.136,-0.956,0.325,-0.840,-1.960,1.540
140612,0.132,-0.952,0.327,-0.630,-1.470,1.400
140621,0.138,-0.954,0.325,-0.490,-0.700,1.330
140625,0.155,-0.952,0.324,0.000,-0.560,1.330
140634,0.170,-0.960,0.322,0.280,-1.260,1.120
140694,0.161,-0.957,0.324,2.380,-1.190,-0.630
140703,0.157,-0.954,0.329,0.420,-1.890,0.000
140712,0.157,-0.955,0.326,-0.070,-1.190,0.560
140718,0.146,-0.960,0.324,1.120,-0.280,0.420
140727,0.142,-0.957,0.325,2.870,-0.280,0.840
140731,0.155,-0.956,0.325,3.150,-0.350,1.050
140780,0.121,-0.951,0.338,2.310,-2.940,1.190
140788,0.118,-0.941,0.342,0.350,-4.690,1.050
140795,0.142,-0.949,0.336,-1.190,-5.040,1.120
140804,0.151,-0.948,0.338,-2.590,-4.200,0.070
140813,0.163,-0.955,0.324,-1.750,-3.920,-1.260
140817,0.161,-0.956,0.323,-0.350,-3.010,-1.680
140887,0.190,-0.959,0.320,-7.490,-6.370,-7.980
140891,0.194,-0.966,0.317,-6.510,-7.490,-7.980
140898,0.186,-0.960,0.324,-5.320,-7.700,-7.840
140907,0.180,-0.956,0.316,-5.460,-8.120,-6.720
140916,0.166,-0.960,0.311,-4.480,-7.490,-5.670
140923,0.143,-0.964,0.312,-3.290,-7.560,-5.530
140989,0.160,-0.968,0.323,5.950,-7.070,6.860
140996,0.153,-0.953,0.328,3.640,-6.930,6.580
141000,0.155,-0.944,0.323,3.710,-7.770,7.980
141009,0.156,-0.944,0.326,0.630,-9.660,8.890
141018,0.149,-0.952,0.325,1.400,-10.150,7.980
141025,0.153,-0.955,0.323,1.400,-10.150,7.210
141065,0.152,-0.965,0.308,3.570,-4.270,-4.620
141070,0.151,-0.958,0.308,4.900,-4.340,-4.130
141079,0.155,-0.954,0.321,5.320,-4.550,-0.980
141083,0.160,-0.946,0.332,2.170,-4.760,-0.140
141092,0.151,-0.955,0.335,-0.770,-6.790,1.890
141101,0.146,-0.960,0.324,-1.050,-6.300,1.610
141155,0.104,-0.962,0.323,2.940,-0.280,10.850
141164,0.121,-0.960,0.323,4.830,0.210,9.100
141173,0.142,-0.965,0.320,6.650,1.820,6.790
141177,0.161,-0.958,0.320,4.410,3.220,5.810
141186,0.145,-0.936,0.320,1.680,2.030,6.720
141193,0.140,-0.947,0.318,2.800,1.890,6.020
141244,0.173,-0.951,0.331,-3.010,7.980,-6.300
141251,0.144,-0.953,0.328,1.120,8.890,-7.770
141255,0.159,-0.937,0.334,-1.400,9.030,-8.680
141264,0.168,-0.944,0.333,-4.200,6.650,-9.450
141271,0.193,-0.947,0.335,-7.140,6.230,-10.500
141280,0.172,-0.949,0.330,-7.000,6.300,-12.110
141341,0.188,-0.967,0.315,-1.680,-2.030,-9.800
141345,0.152,-0.972,0.321,-0.700,-3.920,-10.080
141354,0.140,-0.965,0.328,-1.610,-7.840,-10.360
141363,0.153,-0.954,0.323,-1.540,-9.870,-4.900
141370,0.140,-0.958,0.324,-0.770,-10.570,-1.680
141379,0.122,-0.959,0.324,0.280,-10.990,0.560
141435,0.142,-0.961,0.329,3.990,-10.290,11.900
141442,0.138,-0.955,0.320,4.200,-9.030,11.900
141451,0.120,-0.952,0.322,4.760,-8.540,11.620
141455,0.100,-0.942,0.334,3.430,-7.350,10.290
141462,0.104,-0.943,0.333,1.890,-5.880,9.380
141471,0.111,-0.942,0.331,0.770,-4.200,6.650
141538,0.159,-0.952,0.318,-6.440,-1.400,-8.680
141547,0.170,-0.956,0.317,-6.370,-1.050,-9.660
141556,0.178,-0.962,0.305,-4.200,-1.470,-10.710
141564,0.185,-0.964,0.307,-3.640,-1.260,-10.780
141571,0.187,-0.964,0.311,-1.610,-1.400,-10.150
141575,0.170,-0.961,0.319,-0.070,-2.100,-9.240
141642,0.092,-0.954,0.331,6.370,1.330,10.010
141651,0.083,-0.946,0.329,5.110,1.610,12.600
141660,0.055,-0.952,0.326,3.850,3.430,8.050
141668,0.138,-0.941,0.314,2.380,2.170,11.270
141677,0.143,-0.959,0.317,2.030,2.660,10.710
141681,0.192,-0.972,0.317,5.180,4.900,9.240
141746,0.186,-0.956,0.320,-8.330,-9.240,-8.540
141753,0.202,-0.964,0.315,-7.840,-11.060,-10.080
141761,0.221,-0.965,0.316,-6.860,-10.640,-9.030
141770,0.203,-0.962,0.314,-7.910,-9.520,-11.480
141774,0.178,-0.970,0.306,-0.840,-8.470,-11.970
141781,0.178,-0.955,0.324,-3.780,-8.680,-11.760
141835,0.118,-0.962,0.311,-6.720,-5.880,-4.760
141844,0.120,-0.963,0.307,-6.090,-4.340,-4.760
141851,0.120,-0.965,0.308,-4.690,-3.360,-4.830
141855,0.130,-0.964,0.311,-3.780,-2.660,-3.570
141864,0.161,-0.965,0.322,-5.600,-1.820,-0.980
141873,0.167,-0.965,0.320,-6.370,0.700,-0.840
141936,0.170,-0.951,0.307,5.250,0.630,2.730
141945,0.181,-0.961,0.311,5.530,-2.660,2.870
141954,0.182,-0.966,0.310,6.930,-4.690,2.450
141961,0.168,-0.959,0.315,7.210,-6.160,3.430
141965,0.153,-0.948,0.320,7.210,-9.940,4.480
141973,0.144,-0.938,0.336,2.240,-13.860,6.650
142031,0.150,-0.948,0.325,4.620,-4.200,4.760
142039,0.162,-0.960,0.324,4.340,-3.360,4.900
142043,0.153,-0.964,0.321,4.480,-1.820,4.410
142052,0.153,-0.956,0.321,4.550,-0.490,3.500
142061,0.150,-0.953,0.328,2.800,-0.490,3.500
142069,0.148,-0.948,0.331,2.310,-0.490,3.290
142136,0.166,-0.959,0.313,-1.470,-1.400,2.660
142145,0.181,-0.965,0.314,0.210,-1.960,2.100
142154,0.165,-0.965,0.319,1.260,-2.100,1.260
142162,0.152,-0.944,0.318,0.140,-3.500,0.280
142169,0.171,-0.948,0.315,-0.560,-3.990,0.910
142173,0.167,-0.966,0.321,-0.140,-3.290,1.050
142248,0.138,-0.949,0.328,-2.170,-2.800,-1.890
142252,0.138,-0.958,0.319,-3.500,-2.940,-2.870
142260,0.142,-0.960,0.317,-2.310,-1.820,-2.520
142269,0.149,-0.964,0.318,0.070,1.540,-1.260
142277,0.146,-0.975,0.310,1.120,3.430,-5.950
142281,0.130,-0.960,0.308,5.600,3.010,-4.830
142337,0.147,-0.962,0.321,5.460,-4.550,1.680
142341,0.138,-0.961,0.326,3.780,-7.770,2.450
142348,0.142,-0.954,0.326,3.080,-9.870,3.640
142357,0.144,-0.958,0.322,3.010,-11.550,5.530
142363,0.141,-0.959,0.322,3.570,-13.160,6.510
142371,0.139,-0.961,0.330,3.990,-13.580,7.210
142430,0.106,-0.956,0.323,-3.360,-12.320,8.680
142439,0.141,-0.957,0.314,-3.850,-10.640,8.050
142443,0.161,-0.947,0.319,-3.080,-6.580,1.890
142452,0.177,-0.943,0.319,-2.660,-3.780,-3.150
142461,0.219,-0.945,0.319,-0.980,-3.010,-6.510
142470,0.203,-0.930,0.344,-4.970,-3.290,-10.850
142554,0.158,-0.963,0.309,-7.840,-0.420,-16.100
142563,0.153,-0.967,0.294,-4.830,-0.350,-14.070
142570,0.150,-0.968,0.296,-1.960,-0.350,-9.800
142579,0.139,-0.979,0.302,-0.280,-1.960,-4.060
142587,0.121,-0.979,0.304,-1.330,-2.590,-1.610
142591,0.116,-0.971,0.299,1.260,-3.080,0.070
142650,0.145,-0.962,0.311,8.540,-9.660,15.750
142659,0.134,-0.958,0.313,8.610,-11.690,14.630
142666,0.117,-0.951,0.321,6.650,-11.270,13.790
142670,0.114,-0.949,0.316,7.630,-11.620,14.770
142678,0.105,-0.945,0.323,6.300,-11.760,15.260
142687,0.095,-0.947,0.328,2.520,-11.900,14.910
142746,0.138,-0.941,0.332,-1.050,-0.910,-4.760
142750,0.113,-0.941,0.326,-4.200,1.820,-5.880
142759,0.111,-0.945,0.317,-4.410,4.410,-7.840
142766,0.136,-0.949,0.314,-3.500,5.670,-8.470
142773,0.171,-0.957,0.319,-4.480,6.160,-9.660
142782,0.187,-0.963,0.313,-6.370,6.300,-9.940
142847,0.157,-0.969,0.309,-0.770,4.340,-1.050
142856,0.158,-0.969,0.311,1.260,4.480,3.990
142863,0.165,-0.969,0.310,2.660,2.800,8.190
142871,0.139,-0.971,0.312,3.990,6.160,8.260
142880,0.128,-0.962,0.299,8.890,6.020,11.480
142884,0.119,-0.955,0.316,7.140,3.920,13.090
142947,0.169,-0.943,0.317,7.700,-7.140,9.030
142956,0.225,-0.928,0.310,5.180,-7.910,3.710
142960,0.232,-0.931,0.307,5.950,-11.130,2.730
142967,0.221,-0.928,0.313,3.710,-13.300,0.560
142976,0.146,-0.929,0.331,-2.870,-20.930,-2.730
142985,0.164,-0.938,0.332,-5.040,-23.660,-3.220
143054,0.154,-0.955,0.321,-8.540,-6.650,-13.160
143063,0.160,-0.945,0.311,-7.910,-3.570,-12.600
143070,0.180,-0.947,0.309,-7.490,-0.980,-13.300
143079,0.189,-0.961,0.308,-7.980,1.540,-14.910
143088,0.194,-0.971,0.307,-5.390,2.800,-15.190
143092,0.163,-0.978,0.309,-2.170,7.980,-14.140
143155,0.167,-0.947,0.299,7.560,9.170,4.900
143159,0.155,-0.938,0.327,4.690,7.770,6.650
143168,0.154,-0.955,0.327,0.910,2.660,9.660
143177,0.144,-0.963,0.326,1.470,0.910,8.820
143185,0.141,-0.971,0.306,2.310,0.560,7.490
143189,0.133,-0.962,0.301,6.090,0.350,7.350
143246,0.179,-0.954,0.317,2.030,-9.730,6.090
143255,0.172,-0.963,0.315,2.380,-9.310,4.900
143259,0.151,-0.965,0.315,4.410,-6.650,2.940
143266,0.144,-0.952,0.321,4.200,-6.230,2.170
143274,0.130,-0.945,0.324,2.520,-5.320,1.610
143283,0.142,-0.946,0.330,1.050,-4.270,1.400
143328,0.130,-0.957,0.318,0.420,2.240,-3.640
143336,0.144,-0.958,0.318,0.700,3.640,-3.990
143345,0.153,-0.959,0.316,1.190,3.780,-3.640
143349,0.162,-0.961,0.317,1.470,3.990,-3.150
143358,0.155,-0.960,0.316,1.470,5.040,-2.240
143367,0.153,-0.963,0.316,3.220,5.600,-1.680
143419,0.140,-0.953,0.332,4.760,1.960,2.030
143428,0.133,-0.949,0.328,2.800,0.910,1.120
143437,0.142,-0.946,0.328,2.030,-1.050,2.520
143444,0.151,-0.948,0.332,0.210,-1.680,2.100
143453,0.154,-0.954,0.330,-0.630,-2.240,2.450
143457,0.155,-0.962,0.321,-0.420,-2.730,0.630
143524,0.176,-0.958,0.319,-3.080,-5.530,-7.280
143532,0.181,-0.959,0.314,-3.220,-6.370,-7.560
143541,0.187,-0.962,0.312,-0.910,-7.070,-7.490
143548,0.175,-0.958,0.318,-1.050,-7.070,-6.650
143557,0.145,-0.956,0.324,-1.820,-6.860,-4.270
143561,0.126,-0.965,0.327,-0.280,-6.510,-4.340
143631,0.149,-0.955,0.325,2.170,-3.500,-0.910
143635,0.152,-0.948,0.328,0.420,-4.340,-1.330
143642,0.154,-0.944,0.329,-1.890,-5.320,-0.910
143650,0.156,-0.946,0.325,-3.500,-5.950,-0.700
143659,0.150,-0.957,0.322,-3.150,-4.760,-1.470
143667,0.150,-0.964,0.314,-2.590,-4.200,-2.240
143741,0.155,-0.975,0.317,-1.960,-3.220,-1.260
143750,0.160,-0.976,0.307,-0.490,-2.660,-1.960
143757,0.146,-0.952,0.311,1.610,-2.520,-2.030
143761,0.147,-0.944,0.317,1.050,-2.520,-1.050
143770,0.153,-0.956,0.322,-0.350,-3.010,-0.910
143778,0.152,-0.964,0.320,0.000,-3.220,-2.030
143831,0.160,-0.955,0.314,1.260,-3.430,-1.610
143840,0.159,-0.950,0.315,1.120,-4.620,-0.560
143849,0.164,-0.952,0.325,-17.920,-4.480,-0.630
143853,0.160,-0.956,0.318,-1.680,-4.550,-0.840
143862,0.163,-0.954,0.310,-0.980,-3.150,-1.050
143871,0.162,-0.954,0.306,0.770,-2.310,-0.840
143927,0.168,-0.950,0.330,-5.810,-9.660,0.980
143936,0.161,-0.958,0.308,-5.810,-9.730,0.700
143943,0.160,-0.960,0.305,-2.870,-10.080,0.350
143951,0.164,-0.962,0.305,-0.980,-10.360,0.210
143960,0.163,-0.957,0.316,-0.910,-10.220,3.500
143964,0.131,-0.975,0.314,-2.380,-7.980,1.120
144023,0.156,-0.958,0.301,1.330,-6.860,3.080
144028,0.155,-0.968,0.307,2.310,-6.090,2.170
144037,0.156,-0.971,0.317,2.590,-5.600,1.750
144044,0.156,-0.960,0.319,2.590,-5.180,1.960
144053,0.157,-0.952,0.317,0.840,-4.620,2.240
144057,0.158,-0.958,0.309,0.910,-3.920,2.450
144127,0.147,-0.961,0.318,-0.070,-4.270,0.910
144136,0.148,-0.956,0.320,-1.120,-4.060,1.260
144140,0.149,-0.958,0.313,-1.820,-3.920,1.400
144147,0.144,-0.960,0.311,-1.820,-3.640,1.260
144155,0.140,-0.959,0.310,-1.540,-3.430,1.120
144164,0.143,-0.951,0.315,-3.150,-2.450,0.350
144228,0.160,-0.960,0.305,-4.200,-3.570,-5.110
144232,0.164,-0.959,0.303,-4.200,-3.990,-5.740
144241,0.166,-0.959,0.301,-4.130,-3.990,-6.790
144248,0.178,-0.958,0.300,-3.920,-3.990,-7.140
144257,0.187,-0.960,0.302,-3.430,-4.130,-7.700
144264,0.202,-0.966,0.300,-3.430,-3.920,-6.510
144325,0.174,-0.963,0.289,0.910,-0.700,-2.030
144334,0.177,-0.955,0.294,2.030,-0.070,-0.700
144338,0.165,-0.966,0.302,2.590,0.000,-0.770
144345,0.166,-0.970,0.304,2.800,-0.490,-1.190
144354,0.166,-0.968,0.302,3.220,-0.630,-0.630
144363,0.158,-0.960,0.296,4.690,-0.840,0.070
144424,0.158,-0.958,0.322,7.420,-1.190,3.150
144433,0.149,-0.957,0.319,6.300,-1.050,3.430
144437,0.148,-0.953,0.322,5.040,-1.330,4.270
144444,0.145,-0.952,0.322,2.940,-1.400,4.760
144451,0.136,-0.952,0.322,1.680,-0.350,4.760
144460,0.120,-0.954,0.318,1.190,2.730,4.130
144530,0.151,-0.956,0.319,4.480,11.970,-3.290
144539,0.147,-0.956,0.320,4.550,11.060,-3.080
144548,0.148,-0.954,0.325,4.410,10.920,-2.730
144552,0.140,-0.957,0.325,5.180,11.200,-4.410
144561,0.145,-0.950,0.324,4.830,10.360,-1.540
144568,0.143,-0.951,0.327,3.500,9.100,-0.700
144626,0.132,-0.969,0.331,4.340,4.480,0.490
144635,0.151,-0.960,0.324,4.270,4.340,0.420
144639,0.144,-0.950,0.321,5.180,4.480,0.140
144646,0.148,-0.942,0.325,5.250,3.010,-0.350
144655,0.179,-0.942,0.334,2.310,-0.350,-0.280
144664,0.174,-0.949,0.337,1.680,-2.380,-0.700
144714,0.155,-0.948,0.332,-0.700,-5.670,-2.730
144722,0.155,-0.946,0.335,-3.220,-7.980,-2.870
144731,0.164,-0.946,0.333,-5.950,-10.710,-3.500
144738,0.171,-0.949,0.329,-6.720,-10.710,-4.270
144742,0.170,-0.950,0.326,-4.900,-9.590,-4.480
144746,0.166,-0.948,0.326,-6.020,-9.310,-4.410
144816,0.132,-0.950,0.327,-1.540,-2.940,-4.060
144821,0.132,-0.951,0.328,-1.610,-2.450,-2.730
144830,0.137,-0.951,0.329,-1.540,-2.030,-0.630
144837,0.139,-0.965,0.331,-1.260,-2.240,-0.210
144845,0.167,-0.969,0.331,-1.330,-1.820,0.280
144849,0.156,-0.964,0.319,-1.610,1.260,0.280
144903,0.131,-0.932,0.337,6.720,5.600,0.490
144912,0.148,-0.939,0.333,-1.820,0.980,0.070
144919,0.198,-0.943,0.337,-4.130,-0.770,-0.560
144927,0.224,-0.957,0.330,-4.480,-2.660,-4.690
144936,0.213,-0.949,0.325,-5.880,-3.080,-4.550
144940,0.126,-0.927,0.326,-6.790,-3.290,-7.560
144997,0.167,-0.973,0.308,0.000,8.260,-9.870
145001,0.160,-0.968,0.324,1.540,7.770,-8.470
145010,0.165,-0.962,0.327,0.490,7.630,-5.460
145015,0.156,-0.961,0.320,1.960,7.840,-5.180
145024,0.146,-0.961,0.318,4.900,7.000,-2.870
145033,0.130,-0.960,0.318,5.530,6.300,-0.840
145100,0.146,-0.939,0.361,-0.280,-19.110,16.380
145105,0.143,-0.948,0.337,-0.140,-19.530,16.730
145113,0.147,-0.953,0.328,3.640,-16.030,15.610
145122,0.138,-0.959,0.313,5.460,-14.350,14.490
145126,0.129,-0.958,0.320,9.590,-12.810,13.930
145135,0.128,-0.948,0.340,8.960,-10.430,10.570
145169,0.140,-0.952,0.340,3.570,-6.090,8.400
145178,0.132,-0.945,0.342,1.820,-5.180,4.130
145187,0.148,-0.942,0.335,0.490,-4.130,1.190
145194,0.160,-0.941,0.338,0.140,-3.010,-1.540
145203,0.162,-0.944,0.345,-0.280,-2.450,-4.550
145207,0.151,-0.943,0.353,-3.710,-2.870,-5.040
145274,0.168,-0.954,0.324,-9.870,4.970,-14.070
145278,0.172,-0.965,0.313,-7.700,5.880,-13.510
145287,0.162,-0.957,0.326,-5.530,4.900,-13.580
145294,0.167,-0.954,0.328,-6.580,4.060,-12.880
145302,0.176,-0.955,0.326,-7.140,3.640,-12.530
145311,0.180,-0.958,0.322,-6.370,3.220,-10.850
145381,0.167,-0.963,0.314,6.720,-1.540,1.050
145390,0.165,-0.956,0.322,7.560,-2.030,2.380
145397,0.165,-0.955,0.325,7.490,-2.730,3.220
145406,0.164,-0.956,0.326,7.490,-3.500,4.690
145410,0.160,-0.950,0.338,7.630,-8.050,5.740
145419,0.160,-0.940,0.347,2.590,-11.550,6.860
145473,0.162,-0.939,0.338,-4.060,-10.990,-2.450
145481,0.175,-0.943,0.336,-6.790,-11.060,-5.390
145490,0.179,-0.947,0.328,-7.000,-11.900,-7.840
145497,0.188,-0.947,0.328,-7.560,-12.180,-9.870
145506,0.192,-0.951,0.330,-8.750,-12.040,-7.980
145510,0.181,-0.963,0.324,-8.190,-10.080,-9.240
145580,0.163,-0.969,0.304,3.710,8.750,-4.060
145588,0.144,-0.969,0.309,5.040,8.050,-2.030
145597,0.138,-0.955,0.317,6.090,5.670,0.700
145606,0.133,-0.952,0.322,5.810,2.940,5.250
145613,0.146,-0.953,0.325,5.880,0.840,7.630
145617,0.179,-0.964,0.315,5.390,0.490,8.400
145690,0.168,-0.963,0.324,0.980,-21.560,6.580
145694,0.178,-0.960,0.319,4.340,-20.510,5.600
145701,0.184,-0.958,0.319,5.110,-19.810,5.600
145710,0.185,-0.953,0.332,5.880,-19.880,7.210
145717,0.166,-0.941,0.340,3.780,-21.280,7.490
145725,0.152,-0.937,0.342,-0.560,-21.630,6.650
145783,0.161,-0.951,0.333,-1.820,-7.770,-3.220
145792,0.161,-0.951,0.325,-2.240,-6.300,-3.570
145799,0.159,-0.952,0.323,-1.750,-4.690,-3.710
145808,0.160,-0.951,0.325,-2.240,-3.920,-3.710
145815,0.161,-0.949,0.332,-2.730,-3.570,-3.430
145819,0.163,-0.951,0.336,-4.620,-3.850,-3.640
145885,0.173,-0.956,0.304,-8.050,0.700,-6.930
145889,0.179,-0.957,0.306,-6.230,1.190,-6.930
145897,0.178,-0.961,0.308,-5.110,1.890,-7.280
145905,0.183,-0.961,0.304,-4.130,2.100,-6.860
145914,0.187,-0.961,0.303,-1.190,3.710,-4.970
145921,0.174,-0.966,0.302,0.000,2.170,-5.320
145972,0.148,-0.966,0.308,4.550,-0.980,2.380
145981,0.141,-0.958,0.310,5.880,-1.050,3.850
145988,0.183,-0.967,0.305,7.000,-0.490,5.740
145992,0.159,-0.975,0.305,10.220,-0.490,5.740
146000,0.168,-0.967,0.314,12.670,-0.280,6.930
146008,0.163,-0.965,0.323,13.720,-0.350,8.470
146062,0.193,-0.967,0.319,2.660,-5.250,9.030
146071,0.184,-0.954,0.312,5.180,-3.920,4.830
146080,0.187,-0.944,0.319,3.570,-2.590,3.360
146089,0.185,-0.944,0.318,3.010,-1.680,1.260
146098,0.166,-0.953,0.328,3.010,-1.680,0.210
146102,0.147,-0.944,0.333,0.490,-2.030,-1.890
146174,0.174,-0.965,0.312,-3.570,1.960,-10.150
146178,0.179,-0.963,0.314,-2.800,2.520,-9.450
146187,0.166,-0.959,0.314,-2.590,1.260,-8.120
146196,0.175,-0.957,0.315,-0.770,1.400,-6.440
146205,0.145,-0.956,0.320,-1.400,-0.420,-4.060
146214,0.142,-0.960,0.321,-1.960,-1.680,-1.190
146278,0.163,-0.953,0.315,7.210,-0.700,5.250
146282,0.161,-0.953,0.321,7.070,-1.470,4.690
146291,0.171,-0.952,0.321,5.600,-2.240,4.200
146298,0.179,-0.948,0.323,5.110,-2.590,3.570
146306,0.169,-0.947,0.320,4.620,-2.870,2.730
146315,0.153,-0.945,0.325,4.270,-3.220,2.450
146369,0.159,-0.949,0.334,-3.500,-4.410,-3.430
146378,0.152,-0.952,0.328,-4.970,-4.550,-3.570
146385,0.150,-0.954,0.321,-5.600,-3.990,-3.920
146394,0.145,-0.956,0.320,-5.040,-3.710,-4.200
146403,0.162,-0.955,0.321,-4.900,-3.500,-4.130
146407,0.161,-0.958,0.317,-5.320,-3.150,-4.130
146487,0.172,-0.940,0.339,4.550,2.660,5.740
146491,0.163,-0.944,0.341,1.680,2.380,6.440
146500,0.149,-0.969,0.321,0.700,1.120,5.880
146509,0.143,-0.968,0.309,3.990,2.870,3.920
146516,0.145,-0.963,0.308,5.530,4.550,3.360
146525,0.142,-0.953,0.309,6.930,4.480,3.360
146580,0.146,-0.945,0.327,-3.010,-3.220,-3.220
146584,0.168,-0.948,0.321,-3.500,-3.640,-3.570
146592,0.170,-0.953,0.316,-2.590,-3.920,-3.990
146601,0.165,-0.955,0.319,-1.540,-3.780,-4.480
146610,0.167,-0.958,0.318,-1.400,-4.130,-4.270
146619,0.173,-0.958,0.324,-1.400,-4.410,-3.850
146676,0.152,-0.958,0.324,0.630,-2.240,0.000
146683,0.165,-0.952,0.321,0.210,-2.100,-0.070
146691,0.155,-0.953,0.321,-0.490,-2.310,-0.420
146699,0.159,-0.952,0.321,-0.770,-2.380,-1.050
146708,0.158,-0.953,0.322,-1.400,-2.450,-1.190
146712,0.159,-0.953,0.318,-2.170,-2.450,-2.100
146779,0.153,-0.956,0.309,1.540,1.610,-2.660
146788,0.147,-0.953,0.325,1.750,-0.770,-4.550
146797,0.165,-0.951,0.332,-1.610,-1.260,-2.380
146805,0.166,-0.954,0.324,-2.870,-1.610,-2.940
146814,0.166,-0.956,0.311,-2.730,-1.540,-2.800
146818,0.163,-0.957,0.307,0.070,-1.120,-3.080
146869,0.158,-0.957,0.316,2.660,1.890,0.910
146877,0.141,-0.954,0.319,3.010,0.000,-3.150
146886,0.163,-0.950,0.327,0.630,0.350,-3.430
146890,0.167,-0.957,0.321,-0.280,1.260,-1.190
146899,0.162,-0.962,0.311,0.910,1.890,-2.310
146907,0.162,-0.960,0.312,2.800,2.870,-2.170
146973,0.162,-0.944,0.323,5.460,1.330,0.560
146982,0.158,-0.945,0.335,3.710,-0.840,1.750
146991,0.161,-0.956,0.330,0.840,-1.610,1.750
146995,0.157,-0.957,0.317,1.750,-1.680,1.680
147003,0.156,-0.954,0.314,3.990,-1.330,1.540
147011,0.154,-0.953,0.316,5.250,-0.910,1.400
147076,0.158,-0.947,0.329,-0.280,-2.660,-1.610
147080,0.161,-0.949,0.330,-1.120,-2.730,-1.820
147087,0.160,-0.951,0.330,-1.680,-2.870,-2.030
147096,0.156,-0.955,0.330,-2.450,-2.940,-2.240
147105,0.158,-0.952,0.326,-2.520,-3.080,-2.240
147112,0.159,-0.952,0.327,-2.870,-3.010,-2.310
147183,0.161,-0.954,0.319,-1.610,-2.170,-1.820
147192,0.163,-0.956,0.319,-1.540,-1.960,-1.960
147200,0.165,-0.957,0.318,-0.700,-1.890,-2.240
147209,0.164,-0.959,0.316,-0.210,-1.120,-2.310
147216,0.162,-0.958,0.316,0.980,-0.980,-2.240
147220,0.159,-0.956,0.317,1.750,-1.470,-2.100
147296,0.161,-0.953,0.322,2.590,-2.240,0.420
147304,0.162,-0.954,0.324,2.520,-2.100,0.210
147313,0.157,-0.953,0.325,2.380,-2.030,0.070
147317,0.161,-0.951,0.327,1.400,-2.240,-0.070
147324,0.161,-0.949,0.327,0.770,-2.380,-0.280
147329,0.162,-0.949,0.325,0.280,-2.450,-0.350
147387,0.163,-0.955,0.323,-1.750,-2.800,-1.820
147394,0.162,-0.955,0.321,-1.820,-2.660,-1.820
147403,0.163,-0.955,0.323,-1.680,-2.800,-1.750
147407,0.161,-0.955,0.322,-1.400,-2.660,-1.610
147416,0.161,-0.957,0.321,-1.120,-2.590,-1.540
147424,0.163,-0.957,0.321,-0.560,-2.660,-1.330
147485,0.164,-0.955,0.324,1.190,-2.170,-0.140
147489,0.164,-0.956,0.323,1.120,-2.170,-0.210
147498,0.162,-0.952,0.322,1.190,-2.170,-0.350
147505,0.163,-0.954,0.322,1.120,-2.310,-0.350
147514,0.161,-0.952,0.322,0.910,-2.310,-0.350
147520,0.162,-0.956,0.324,0.910,-2.380,-0.490
147594,0.160,-0.953,0.320,0.070,-2.450,-0.630
147598,0.163,-0.954,0.322,0.070,-2.450,-0.490
147607,0.163,-0.956,0.319,0.140,-2.380,-0.700
147614,0.163,-0.955,0.320,0.140,-2.520,-0.700
147622,0.165,-0.954,0.320,0.350,-2.380,-0.630
147627,0.163,-0.954,0.321,0.350,-2.310,-0.490
147679,0.160,-0.950,0.325,0.980,-2.170,-0.560
147688,0.160,-0.950,0.327,-0.280,-2.590,-0.770
147695,0.161,-0.948,0.327,-1.190,-2.940,-0.980
147703,0.163,-0.951,0.325,-1.400,-2.800,-1.190
147712,0.164,-0.958,0.320,-0.980,-2.730,-1.190
147716,0.166,-0.958,0.321,-0.420,-2.590,-0.840
147790,0.165,-0.956,0.318,1.330,-2.030,0.140
147799,0.161,-0.955,0.321,2.100,-1.890,0.280
147803,0.163,-0.956,0.321,2.520,-1.960,0.280
147812,0.161,-0.956,0.323,2.940,-1.960,0.630
147821,0.160,-0.957,0.325,3.430,-1.890,0.910
147830,0.160,-0.957,0.324,3.360,-2.100,1.050
147895,0.162,-0.948,0.325,-0.140,-2.520,-0.770
147899,0.162,-0.949,0.324,-0.630,-2.590,-1.050
147908,0.159,-0.949,0.325,-1.120,-2.800,-1.260
147915,0.161,-0.952,0.325,-1.540,-2.870,-1.330
147924,0.161,-0.953,0.323,-1.540,-2.730,-1.190
147933,0.163,-0.954,0.324,-1.470,-2.800,-1.260
147981,0.163,-0.956,0.322,0.910,-2.100,-0.140
147990,0.162,-0.953,0.324,1.190,-2.100,0.000
147994,0.162,-0.951,0.323,1.260,-2.100,0.000
148002,0.161,-0.952,0.324,1.330,-2.100,0.070
148011,0.162,-0.952,0.325,1.190,-2.100,0.000
148018,0.161,-0.951,0.325,1.120,-2.310,-0.210
148077,0.161,-0.950,0.323,-1.330,-2.800,-1.470
148086,0.159,-0.951,0.321,-1.330,-2.730,-1.540
148093,0.161,-0.954,0.325,-1.330,-2.800,-1.610
148102,0.161,-0.952,0.324,-1.330,-2.730,-1.680
148106,0.162,-0.954,0.325,-1.190,-2.870,-1.540
148113,0.161,-0.954,0.325,-1.190,-2.800,-1.400
148176,0.164,-0.955,0.325,1.190,-2.100,-0.280
148183,0.162,-0.954,0.325,1.050,-2.240,-0.280
148192,0.162,-0.955,0.325,0.980,-2.170,-0.280
148199,0.161,-0.954,0.325,1.050,-2.170,-0.280
148203,0.162,-0.953,0.326,1.120,-2.170,-0.280
148212,0.163,-0.953,0.325,0.840,-2.310,-0.350
148272,0.160,-0.955,0.323,-0.140,-2.380,-0.700
148281,0.161,-0.954,0.322,-0.210,-2.520,-0.700
148288,0.162,-0.953,0.322,-0.070,-2.450,-0.700
148292,0.163,-0.954,0.322,0.000,-2.450,-0.560
148301,0.163,-0.955,0.323,0.070,-2.310,-0.630
148310,0.161,-0.954,0.323,0.070,-2.380,-0.490
148368,0.164,-0.956,0.322,0.630,-2.240,-0.420
148377,0.162,-0.953,0.325,0.630,-2.310,-0.280
148384,0.161,-0.954,0.323,0.700,-2.310,-0.350
148392,0.161,-0.953,0.324,0.700,-2.310,-0.350
148396,0.164,-0.954,0.324,0.490,-2.240,-0.280
148405,0.163,-0.953,0.323,0.350,-2.310,-0.420
148462,0.161,-0.955,0.324,0.560,-2.100,-0.210
148469,0.160,-0.955,0.324,0.630,-2.100,0.000
148478,0.162,-0.953,0.322,0.770,-2.100,0.000
148487,0.161,-0.954,0.325,0.770,-2.030,0.000
148494,0.160,-0.952,0.325,0.700,-2.030,-0.070
148498,0.162,-0.954,0.325,0.770,-2.030,-0.140
148549,0.163,-0.954,0.323,-0.140,-2.450,-1.190
148553,0.160,-0.950,0.321,-0.420,-2.520,-1.330
148562,0.162,-0.951,0.325,-0.840,-2.660,-1.610
148571,0.162,-0.951,0.324,-0.770,-2.800,-1.750
148580,0.162,-0.954,0.323,-0.630,-2.870,-1.960
148589,0.162,-0.953,0.321,-0.560,-2.660,-1.960
148645,0.174,-0.955,0.324,0.770,-2.730,-1.120
148654,0.168,-0.953,0.324,0.350,-2.730,-1.050
148661,0.154,-0.952,0.324,0.350,-2.660,-0.980
148670,0.156,-0.950,0.325,0.140,-2.590,-0.770
148678,0.166,-0.955,0.325,0.070,-2.450,-0.630
148682,0.161,-0.955,0.322,0.000,-2.590,-0.980
148744,0.181,-0.958,0.321,0.210,-2.590,-1.190
148748,0.172,-0.954,0.323,0.210,-3.150,-1.260
148755,0.170,-0.953,0.321,0.350,-2.800,-1.120
148764,0.160,-0.952,0.320,0.770,-2.800,-0.840
148772,0.154,-0.953,0.322,0.840,-2.870,-0.420
148781,0.152,-0.954,0.324,0.350,-2.380,-0.280
148852,0.163,-0.953,0.326,1.050,-2.100,0.700
148861,0.162,-0.951,0.324,0.980,-2.240,0.630
148867,0.163,-0.951,0.321,0.700,-2.100,0.630
148871,0.160,-0.952,0.321,0.560,-2.100,0.630
148879,0.160,-0.953,0.324,0.350,-2.240,0.420
148886,0.159,-0.951,0.325,-0.070,-2.240,0.420
148968,0.161,-0.954,0.324,0.700,-1.820,0.280
148977,0.163,-0.955,0.321,0.840,-2.030,0.280
148986,0.162,-0.956,0.322,0.980,-1.890,0.210
148993,0.162,-0.954,0.323,1.120,-1.820,0.000
148997,0.162,-0.953,0.323,0.910,-2.170,-0.070
149006,0.165,-0.953,0.322,0.420,-2.240,-0.070
149060,0.160,-0.953,0.324,1.050,-2.380,-0.280
149068,0.161,-0.953,0.325,1.120,-2.380,-0.490
149077,0.159,-0.951,0.325,1.050,-2.380,-0.560
149086,0.163,-0.951,0.324,0.770,-2.450,-0.770
149095,0.160,-0.952,0.322,0.980,-2.380,-1.050
149098,0.161,-0.954,0.328,1.400,-2.380,-1.120
149169,0.161,-0.953,0.324,-1.750,-2.940,-2.450
149178,0.161,-0.956,0.323,-1.470,-2.800,-2.450
149186,0.163,-0.957,0.323,-1.260,-2.660,-2.380
149190,0.159,-0.954,0.323,-1.120,-2.730,-2.170
149197,0.160,-0.955,0.323,-1.400,-2.660,-1.820
149206,0.162,-0.952,0.323,-1.260,-2.240,-2.170
149273,0.166,-0.961,0.307,10.570,6.370,4.900
149281,0.159,-0.958,0.314,15.190,8.470,4.900
149290,0.160,-0.954,0.325,16.800,11.200,6.020
149297,0.176,-0.949,0.322,19.320,13.860,8.470
149305,0.173,-0.956,0.320,23.240,14.420,10.430
149309,0.169,-0.965,0.317,31.570,18.760,11.620
149353,0.154,-0.958,0.376,59.360,35.070,34.230
149362,0.155,-0.941,0.387,60.130,33.740,36.960
149369,0.142,-0.931,0.392,57.120,29.820,39.480
149378,0.131,-0.925,0.400,54.880,27.860,44.170
149387,0.150,-0.927,0.397,55.440,26.810,47.810
149391,0.157,-0.936,0.419,52.500,23.240,56.070
149451,0.113,-0.826,0.515,90.090,-0.140,62.510
149459,0.141,-0.788,0.505,15.050,-30.240,83.720
149468,0.131,-0.854,0.472,11.620,-36.050,89.670
149476,0.121,-0.933,0.438,20.790,-38.290,81.130
149484,0.124,-0.899,0.517,13.300,-31.710,72.030
149488,0.032,-0.970,0.468,45.150,-36.750,68.040
149547,-0.033,-0.798,0.443,-45.290,-81.060,47.180
149556,-0.035,-0.838,0.427,-61.600,-83.720,36.890
149565,-0.104,-0.923,0.421,-41.160,-70.210,13.930
149572,-0.179,-0.972,0.507,-35.000,-65.100,-9.170
149576,-0.121,-0.955,0.474,-40.670,-47.810,-14.420
149585,-0.138,-0.968,0.430,-2.730,-22.120,-26.740
149648,-0.102,-0.933,0.474,-21.770,-21.280,-24.080
149657,-0.074,-0.943,0.438,-10.500,-15.890,-20.720
149663,-0.150,-0.952,0.455,-7.700,-13.370,-14.700
149672,-0.114,-0.957,0.477,-6.650,-13.790,-4.900
149676,-0.094,-0.964,0.449,-16.100,-12.460,-1.330
149683,-0.074,-0.975,0.419,-8.120,-10.430,2.450
149733,0.023,-0.915,0.427,-0.630,-4.620,0.350
149739,0.017,-0.914,0.421,-1.330,-4.480,-0.210
149743,0.018,-0.930,0.422,-0.560,-3.850,-0.910
149751,0.017,-0.931,0.429,0.210,-3.500,-1.610
149760,0.018,-0.925,0.426,-0.910,-3.080,-1.890
149768,0.020,-0.920,0.422,-0.980,-2.800,-2.520
149829,0.022,-0.928,0.424,-0.770,-2.310,-2.100
149833,0.022,-0.931,0.423,-1.120,-2.450,-1.610
149842,0.022,-0.930,0.424,-0.840,-2.450,-1.260
149851,0.021,-0.930,0.425,-0.770,-2.170,-0.910
149860,0.021,-0.932,0.424,-0.770,-2.030,-0.560
149864,0.020,-0.929,0.425,-0.630,-2.030,-0.420
149934,0.019,-0.929,0.421,0.000,-1.820,-0.350
149938,0.020,-0.929,0.422,0.210,-1.680,-0.350
149947,0.020,-0.930,0.424,0.630,-1.540,-0.420
149956,0.020,-0.932,0.421,1.260,-1.330,-0.280
149965,0.019,-0.930,0.422,1.330,-1.330,-0.070
149974,0.022,-0.929,0.424,1.330,-1.330,0.210
150039,0.017,-0.890,0.416,-4.970,-7.840,3.430
150043,0.013,-0.954,0.422,1.610,-5.530,-0.630
150050,0.020,-0.949,0.438,3.080,-2.730,0.420
150058,0.029,-0.937,0.441,1.750,-0.700,0.280
150067,0.020,-0.908,0.427,-0.280,-0.910,0.420
150075,0.017,-0.919,0.415,-0.980,-1.680,0.280
150136,0.021,-0.927,0.428,-0.700,-2.730,-1.190
150145,0.021,-0.933,0.422,-0.700,-2.310,-1.050
150154,0.020,-0.932,0.423,-0.280,-2.380,-0.630
150160,0.019,-0.928,0.421,-0.070,-2.240,-0.420
150169,0.019,-0.930,0.427,0.420,-2.100,-0.210
150173,0.019,-0.930,0.428,0.560,-1.750,-0.140
150243,0.025,-0.916,0.409,-5.110,-7.210,1.890
150247,0.008,-0.951,0.423,1.400,-4.620,-1.120
150254,0.028,-0.954,0.439,2.730,-1.610,-0.140
150263,0.028,-0.940,0.441,0.700,0.840,0.280
150272,0.018,-0.912,0.426,0.000,0.770,0.210
150276,0.016,-0.917,0.407,0.000,-0.770,0.280
150351,0.020,-0.930,0.421,0.210,-2.520,-0.560
150360,0.020,-0.931,0.421,0.630,-2.660,-0.420
150367,0.020,-0.927,0.422,0.700,-2.730,-0.350
150371,0.020,-0.926,0.424,0.630,-3.080,-0.420
150380,0.021,-0.925,0.426,0.280,-3.360,-0.420
150387,0.020,-0.928,0.424,0.070,-3.290,-0.490
150442,0.019,-0.931,0.423,-0.980,-4.340,-0.280
150449,0.019,-0.928,0.424,-0.910,-4.550,-0.210
150458,0.020,-0.928,0.422,-1.050,-4.480,17.780
150462,0.019,-0.930,0.420,-1.540,-4.620,0.000
150469,0.017,-0.928,0.421,-1.680,-4.830,0.000
150476,0.020,-0.929,0.423,-1.750,-5.040,0.000
150542,0.023,-0.950,0.417,-7.350,-9.730,0.700
150546,0.029,-0.940,0.415,-3.990,-7.000,0.560
150555,0.023,-0.922,0.416,-2.800,-5.250,0.140
150564,0.020,-0.923,0.413,-2.660,-4.760,-0.210
150571,0.019,-0.935,0.413,-2.450,-5.880,-0.140
150580,0.021,-0.935,0.415,-3.500,-6.860,0.490
150629,0.019,-0.921,0.409,-10.850,-13.230,-0.910
150638,0.016,-0.915,0.404,-9.240,-11.480,-3.920
150645,0.020,-0.934,0.399,-8.050,-7.700,-4.970
150654,0.016,-0.945,0.406,-3.780,-5.950,-5.180
150658,0.036,-0.953,0.417,-1.890,-3.290,-4.760
150666,0.031,-0.943,0.410,-3.290,-4.200,-3.150
150720,0.029,-0.937,0.402,-0.420,-3.290,-1.960
150729,0.031,-0.940,0.405,0.070,-3.010,-1.050
150738,0.032,-0.943,0.405,0.350,-2.660,0.000
150746,0.033,-0.939,0.401,1.050,-2.800,-0.560
150752,0.026,-0.931,0.405,0.840,-2.590,-0.840
150756,0.030,-0.934,0.406,0.070,-2.520,-0.700
150818,0.026,-0.935,0.401,-1.330,-3.290,-1.750
150827,0.029,-0.937,0.401,-1.190,-3.290,-1.890
150836,0.029,-0.937,0.403,-1.050,-3.430,-2.030
150842,0.029,-0.938,0.405,-1.120,-3.360,-1.960
150849,0.033,-0.938,0.404,-1.330,-3.430,-1.680
150853,0.030,-0.938,0.402,-1.610,-3.430,-1.750
150908,0.029,-0.939,0.400,0.980,-2.520,-0.490
150912,0.029,-0.938,0.400,1.470,-2.590,-0.210
150920,0.028,-0.938,0.402,1.820,-2.450,-0.070
150929,0.034,-0.938,0.400,1.890,-2.520,0.140
150938,0.032,-0.937,0.404,1.890,-2.450,0.420
150942,0.031,-0.935,0.405,1.680,-2.660,0.560
150997,0.027,-0.931,0.404,-0.630,-4.060,0.140
151006,0.027,-0.933,0.407,-1.820,-4.410,-0.140
151010,0.029,-0.936,0.403,-2.100,-4.480,-0.140
151018,0.034,-0.936,0.399,-1.820,-4.270,-0.280
151025,0.032,-0.932,0.404,-1.890,-4.270,-0.420
151034,0.030,-0.938,0.404,-1.890,-3.920,-0.420
151102,0.027,-0.939,0.399,0.210,-2.310,0.000
151106,0.030,-0.941,0.399,0.630,-2.240,0.000
151115,0.030,-0.939,0.402,0.770,-2.800,0.140
151121,0.029,-0.935,0.399,0.490,-2.870,0.420
151130,0.029,-0.937,0.401,0.630,-3.220,0.140
151137,0.029,-0.936,0.399,-0.070,-3.850,0.140
151196,0.021,-0.920,0.400,5.320,-1.190,0.840
151200,0.033,-0.913,0.404,2.800,-1.470,1.470
151209,0.034,-0.938,0.402,1.330,-1.960,1.400
151216,0.028,-0.951,0.402,3.010,-1.680,0.560
151225,0.028,-0.946,0.402,3.290,-2.170,0.910
151234,0.029,-0.927,0.405,1.400,-2.240,0.980
151294,0.028,-0.933,0.400,-0.560,-2.730,-1.330
151298,0.029,-0.935,0.401,-0.560,-2.870,-1.470
151307,0.030,-0.939,0.403,-0.700,-3.150,-1.470
151316,0.030,-0.939,0.400,-0.840,-3.290,-1.330
151325,0.030,-0.938,0.401,-0.770,-3.290,-1.050
151329,0.029,-0.938,0.400,-0.840,-3.430,-0.980
151395,0.026,-0.935,0.399,0.560,-2.170,-0.560
151404,0.027,-0.936,0.398,0.350,-2.310,-0.630
151412,0.026,-0.936,0.398,0.420,-2.450,-0.770
151420,0.029,-0.939,0.399,0.420,-2.240,-0.840
151429,0.030,-0.939,0.401,0.420,-2.310,-0.910
151433,0.028,-0.939,0.397,0.630,-2.240,-0.840
151502,0.031,-0.936,0.402,0.420,-2.030,0.210
151509,0.025,-0.936,0.403,0.140,-2.100,0.070
151518,0.028,-0.935,0.400,0.070,-2.030,-0.140
151524,0.030,-0.936,0.400,0.000,-1.890,-0.280
151528,0.029,-0.937,0.398,0.000,-2.030,-0.490
151537,0.032,-0.936,0.399,-0.140,-2.170,-0.560
151589,0.031,-0.938,0.399,0.560,-2.590,-0.420
151598,0.030,-0.938,0.400,0.840,-2.380,-0.280
151607,0.027,-0.937,0.403,0.910,-2.520,-0.210
151616,0.029,-0.938,0.403,0.910,-2.520,-0.210
151623,0.028,-0.936,0.401,0.980,-2.520,-0.280
151627,0.030,-0.936,0.401,0.840,-2.380,-0.280
151671,0.030,-0.936,0.400,-0.280,-2.100,-0.770
151680,0.029,-0.937,0.400,-0.490,-2.170,-0.770
151687,0.028,-0.938,0.402,-0.560,-2.030,-0.700
151694,0.028,-0.937,0.399,-0.490,-2.030,-0.840
151701,0.027,-0.938,0.400,-0.420,-1.890,-0.840
151705,0.030,-0.939,0.398,-0.350,-2.030,-0.700
151755,0.027,-0.937,0.399,0.840,-1.680,-0.140
151764,0.029,-0.939,0.399,0.840,-1.890,-0.140
151771,0.032,-0.937,0.398,0.840,-1.960,-0.210
151780,0.026,-0.936,0.399,0.770,-2.310,-0.280
151789,0.026,-0.936,0.398,0.630,-2.310,-0.490
151793,0.026,-0.937,0.399,0.630,-2.380,-0.560
151854,0.032,-0.937,0.400,0.560,-1.960,-0.280
151863,0.027,-0.938,0.399,0.490,-1.890,-0.210
151870,0.029,-0.936,0.402,0.420,-1.890,-0.280
151879,0.027,-0.935,0.401,0.490,-1.960,-0.350
151883,0.027,-0.939,0.399,0.420,-1.960,-0.350
151892,0.027,-0.939,0.399,0.280,-2.170,-0.420
151961,0.027,-0.936,0.400,0.280,-2.310,-0.630
151965,0.027,-0.938,0.402,0.280,-2.450,-0.560
151972,0.026,-0.936,0.402,0.140,-2.380,-0.770
151977,0.028,-0.938,0.399,0.140,-2.450,-0.700
151986,0.027,-0.935,0.400,0.140,-2.450,-0.630
151993,0.028,-0.939,0.401,0.210,-2.310,-0.770
152061,0.029,-0.935,0.398,0.560,-1.820,-0.560
152070,0.027,-0.937,0.400,0.630,-1.890,-0.490
152079,0.027,-0.940,0.401,0.490,-2.170,-0.700
152088,0.026,-0.938,0.400,0.490,-2.240,-0.560
152095,0.027,-0.939,0.398,0.420,-2.240,-0.560
152099,0.027,-0.937,0.398,0.420,-2.170,-0.630
152160,0.030,-0.937,0.400,0.210,-2.520,-0.840
152164,0.026,-0.939,0.399,0.070,-2.590,-0.840
152173,0.027,-0.937,0.399,0.070,-2.590,-0.910
152182,0.028,-0.937,0.400,0.210,-2.590,-0.840
152190,0.029,-0.938,0.401,0.210,-2.520,-0.910
152199,0.029,-0.937,0.400,0.070,-2.450,-0.770
152259,0.030,-0.937,0.397,0.910,-0.980,-1.400
152266,0.029,-0.939,0.396,2.030,-0.700,-1.750
152270,0.030,-0.939,0.396,3.290,0.140,-2.240
152279,0.031,-0.940,0.397,4.550,1.260,-2.520
152288,0.031,-0.936,0.400,4.690,1.540,-2.730
152295,0.030,-0.937,0.401,4.970,1.680,-2.590
152356,0.029,-0.934,0.411,5.950,2.730,-1.190
152364,0.027,-0.934,0.408,3.780,1.260,-0.770
152368,0.028,-0.935,0.410,1.540,-1.540,0.910
152376,0.029,-0.937,0.406,1.050,-2.100,1.330
152385,0.030,-0.937,0.404,2.520,-0.770,1.050
152392,0.029,-0.935,0.409,2.590,-0.490,1.050
152443,0.027,-0.931,0.410,-0.910,-4.480,-0.280
152447,0.027,-0.931,0.407,-1.400,-4.970,-0.140
152456,0.028,-0.933,0.409,-1.260,-4.970,-0.420
152465,0.026,-0.933,0.410,-1.820,-4.690,-0.910
152472,0.028,-0.930,0.414,-2.030,-3.850,-1.470
152481,0.027,-0.930,0.408,-1.750,-3.640,-1.680
152536,0.029,-0.939,0.406,-1.050,-1.960,-1.120
152545,0.029,-0.937,0.403,-0.490,-1.890,-0.770
152554,0.029,-0.938,0.402,-0.280,-1.890,-0.490
152560,0.029,-0.938,0.405,-0.140,-1.820,-0.420
152568,0.029,-0.935,0.404,0.350,-1.820,-0.210
152572,0.030,-0.937,0.406,0.980,-1.890,-0.210
152627,0.030,-0.932,0.406,0.700,-2.940,-0.490
152634,0.028,-0.936,0.407,0.350,-2.940,-0.490
152638,0.030,-0.934,0.408,0.280,-3.010,-0.560
152646,0.028,-0.934,0.408,0.210,-2.800,-0.700
152655,0.027,-0.934,0.407,0.140,-2.520,-0.980
152664,0.027,-0.933,0.409,0.140,-2.520,-0.980
152715,0.032,-0.936,0.406,1.120,-1.540,-0.420
152724,0.029,-0.935,0.408,1.260,-1.610,-0.280
152728,0.029,-0.935,0.406,1.190,-1.680,0.000
152737,0.025,-0.935,0.407,1.260,-1.960,0.070
152744,0.028,-0.935,0.407,1.190,-2.170,0.210
152752,0.029,-0.933,0.407,1.190,-2.170,0.280
152811,0.028,-0.932,0.406,0.350,-2.450,-0.700
152820,0.030,-0.933,0.408,0.350,-2.520,-0.700
152829,0.029,-0.935,0.409,0.210,-2.660,-0.770
152838,0.028,-0.934,0.408,0.000,-2.590,-0.700
152842,0.030,-0.934,0.407,-0.140,-2.590,-0.770
152851,0.027,-0.934,0.408,-0.140,-2.660,-0.770
152912,0.029,-0.936,0.407,0.420,-2.380,-0.770
152921,0.029,-0.935,0.405,0.490,-2.240,-0.630
152930,0.029,-0.936,0.408,0.980,-2.310,-0.490
152938,0.031,-0.935,0.407,0.980,-2.450,-0.210
152947,0.030,-0.934,0.407,0.980,-2.170,-0.070
152951,0.028,-0.935,0.404,1.050,-2.240,-0.070
153015,0.030,-0.932,0.408,0.210,-2.520,-0.770
153019,0.030,-0.934,0.407,0.350,-2.240,-0.770
153027,0.030,-0.935,0.406,0.770,-2.030,-0.770
153036,0.028,-0.934,0.408,0.840,-1.960,-0.910
153043,0.029,-0.933,0.408,0.630,-2.170,-0.840
153052,0.028,-0.934,0.409,0.140,-2.310,-0.630
153120,0.027,-0.936,0.407,1.050,-1.750,-0.140
153127,0.030,-0.934,0.410,1.400,-1.680,-0.070
153131,0.028,-0.933,0.409,1.120,-1.820,-0.140
153140,0.028,-0.933,0.409,0.770,-2.100,-0.210
153149,0.027,-0.933,0.408,0.770,-2.310,-0.490
153158,0.027,-0.934,0.410,0.770,-2.310,-0.630
153220,0.031,-0.935,0.411,-0.490,-2.590,-0.840
153224,0.030,-0.935,0.407,-0.280,-2.590,-0.770
153233,0.029,-0.934,0.407,-0.140,-2.450,-0.700
153240,0.028,-0.934,0.413,0.070,-2.520,-0.630
153248,0.027,-0.936,0.409,0.210,-2.590,-0.490
153253,0.028,-0.935,0.409,0.350,-2.380,-0.420
153307,0.027,-0.933,0.409,0.210,-2.030,-0.630
153311,0.028,-0.933,0.407,0.140,-2.100,-0.560
153318,0.026,-0.933,0.408,0.140,-2.240,-0.840
153327,0.027,-0.931,0.409,-0.140,-2.450,-0.840
153335,0.028,-0.934,0.408,-0.140,-2.450,-0.840
153342,0.026,-0.933,0.411,-0.070,-2.520,-0.770
153416,0.028,-0.933,0.407,-0.070,-2.380,-0.700
153420,0.027,-0.935,0.407,-0.070,-2.310,-0.770
153428,0.026,-0.934,0.408,0.000,-2.310,-0.700
153437,0.028,-0.936,0.407,-0.070,-2.310,-0.630
153446,0.028,-0.934,0.406,-0.070,-2.450,-0.770
153450,0.029,-0.937,0.409,0.000,-2.590,-0.840
153515,0.031,-0.938,0.408,0.560,-2.520,-0.630
153522,0.029,-0.934,0.407,0.560,-2.450,-0.560
153526,0.030,-0.935,0.409,0.630,-2.380,-0.420
153535,0.028,-0.935,0.408,0.840,-2.310,-0.490
153542,0.029,-0.934,0.409,0.980,-2.450,-0.420
153551,0.029,-0.935,0.408,0.770,-2.310,-0.350
153609,0.029,-0.933,0.408,0.280,-2.170,-1.260
153617,0.026,-0.931,0.410,-0.070,-2.450,-1.260
153621,0.029,-0.934,0.407,-0.280,-2.170,-1.050
153629,0.029,-0.936,0.405,0.280,-2.310,-1.260
153638,0.028,-0.935,0.407,0.070,-2.660,-0.980
153645,0.029,-0.936,0.409,0.000,-2.660,-0.910
153695,0.028,-0.935,0.407,0.840,-2.450,0.000
153704,0.027,-0.935,0.408,0.840,-2.380,0.070
153713,0.030,-0.934,0.409,0.700,-2.450,0.070
153717,0.028,-0.934,0.407,0.490,-2.590,0.140
153724,0.028,-0.936,0.408,0.350,-2.590,0.000
153732,0.030,-0.937,0.411,0.560,-2.590,0.070
153777,0.029,-0.932,0.408,0.350,-2.030,-0.280
153781,0.028,-0.935,0.409,0.910,-1.960,-0.560
153790,0.026,-0.931,0.413,0.560,-2.310,-0.700
153799,0.027,-0.931,0.408,-0.070,-2.450,-0.980
153808,0.026,-0.932,0.407,-0.140,-2.590,-1.260
153812,0.029,-0.935,0.409,-0.140,-2.940,-1.400
153874,0.029,-0.935,0.406,0.840,-2.240,-0.350
153878,0.028,-0.931,0.408,0.700,-2.520,-0.140
153886,0.029,-0.931,0.409,0.630,-2.380,-0.280
153895,0.029,-0.935,0.410,0.560,-2.240,-0.280
153902,0.028,-0.935,0.408,0.490,-2.310,-0.420
153911,0.028,-0.932,0.408,0.420,-2.380,-0.560
153971,0.029,-0.936,0.406,-0.070,-2.800,-1.050
153975,0.028,-0.934,0.409,0.210,-2.870,-1.120
153984,0.031,-0.935,0.407,0.210,-2.730,-1.190
153993,0.030,-0.935,0.409,0.280,-2.660,-1.050
154001,0.028,-0.935,0.408,0.140,-2.520,-0.840
154005,0.031,-0.935,0.409,0.280,-2.520,-0.840
154059,0.026,-0.934,0.410,0.140,-2.380,-0.420
154066,0.027,-0.934,0.408,0.000,-2.310,-0.560
154070,0.028,-0.935,0.408,-0.070,-2.380,-0.560
154079,0.027,-0.935,0.408,0.210,-2.310,-0.420
154088,0.030,-0.935,0.405,0.420,-2.100,-0.420
154095,0.031,-0.936,0.408,0.560,-2.030,-0.210
154150,0.029,-0.936,0.407,0.700,-2.380,-0.280
154159,0.028,-0.937,0.406,0.770,-2.310,-0.280
154163,0.030,-0.933,0.407,0.980,-2.170,-0.140
154170,0.028,-0.934,0.409,0.910,-2.100,-0.280
154178,0.030,-0.932,0.410,0.840,-2.240,-0.210
154187,0.028,-0.934,0.405,0.700,-2.310,-0.420
154248,0.030,-0.933,0.411,0.140,-2.520,-0.770
154252,0.028,-0.935,0.409,0.000,-2.310,-0.700
154260,0.027,-0.933,0.408,-0.070,-2.450,-0.630
154269,0.029,-0.934,0.408,0.070,-2.520,-0.490
154277,0.031,-0.936,0.407,0.280,-2.520,-0.280
154286,0.030,-0.937,0.408,0.280,-2.450,-0.280
154347,0.029,-0.935,0.408,0.420,-2.800,-0.700
154356,0.028,-0.932,0.407,0.350,-2.940,-0.630
154360,0.029,-0.934,0.409,0.280,-2.940,-0.630
154369,0.029,-0.934,0.407,0.210,-2.800,-0.560
154378,0.028,-0.934,0.409,0.350,-2.450,-0.560
154387,0.028,-0.934,0.407,0.560,-2.240,-0.420
154455,0.030,-0.937,0.409,0.210,-2.310,-0.560
154459,0.028,-0.934,0.406,0.420,-2.240,-0.420
154468,0.026,-0.935,0.408,0.420,-2.100,-0.560
154477,0.027,-0.935,0.407,0.210,-2.380,-0.560
154485,0.028,-0.932,0.408,0.140,-2.450,-0.770
154494,0.027,-0.934,0.409,0.000,-2.450,-0.910
154549,0.027,-0.935,0.407,0.210,-2.380,-0.560
154553,0.028,-0.937,0.410,0.490,-2.310,-0.490
154562,0.030,-0.937,0.405,0.700,-2.240,-0.280
154569,0.028,-0.936,0.407,0.840,-2.030,-0.210
154576,0.029,-0.935,0.407,1.120,-2.030,-0.070
154585,0.028,-0.936,0.407,1.400,-2.100,-0.070
154637,0.027,-0.932,0.407,0.770,-2.520,-0.910
154641,0.025,-0.934,0.410,0.490,-2.590,-0.980
154650,0.027,-0.932,0.411,0.280,-2.450,-1.050
154659,0.030,-0.933,0.410,-0.070,-2.520,-1.190
154667,0.030,-0.932,0.409,-0.280,-2.590,-1.260
154676,0.027,-0.934,0.409,-0.560,-2.940,-1.470
154740,0.032,-0.940,0.405,-0.210,-2.240,-0.630
154744,0.032,-0.937,0.406,0.210,-2.030,-0.420
154752,0.030,-0.935,0.411,0.280,-2.170,-0.350
154761,0.028,-0.933,0.407,0.000,-2.310,-0.420
154770,0.027,-0.932,0.407,0.070,-2.380,-0.560
154774,0.028,-0.934,0.407,0.350,-2.310,-0.420
154833,0.029,-0.935,0.409,0.770,-2.100,-0.070
154842,0.029,-0.932,0.407,0.560,-2.100,-0.070
154851,0.028,-0.933,0.408,0.490,-2.100,-0.280
154860,0.029,-0.935,0.407,0.350,-1.960,-0.420
154864,0.028,-0.931,0.407,0.350,-1.890,-0.350
154873,0.025,-0.934,0.407,0.280,-1.890,-0.350
154926,0.030,-0.935,0.407,0.560,-1.960,0.140
154935,0.029,-0.937,0.406,1.260,-1.890,0.070
154943,0.026,-0.934,0.410,1.610,-2.170,-0.350
154948,0.026,-0.929,0.412,0.840,-2.450,-0.420
154952,0.025,-0.926,0.409,0.140,-2.660,-0.560
154961,0.024,-0.933,0.407,-0.210,-2.940,-1.120
155019,0.031,-0.933,0.407,-0.070,-2.030,-0.420
155023,0.028,-0.934,0.409,0.140,-2.240,-0.490
155030,0.029,-0.935,0.408,0.000,-2.030,-0.420
155039,0.029,-0.937,0.406,0.070,-2.030,-0.280
155045,0.028,-0.935,0.404,0.490,-1.820,-0.350
155054,0.028,-0.938,0.407,0.770,-1.890,-0.210
155109,0.027,-0.934,0.408,0.980,-2.520,-0.420
155118,0.027,-0.935,0.410,0.770,-2.730,-0.560
155126,0.031,-0.933,0.408,0.630,-2.730,-0.770
155130,0.027,-0.933,0.409,0.420,-2.730,-0.840
155139,0.030,-0.933,0.411,0.280,-2.730,-0.910
155146,0.030,-0.929,0.408,-0.070,-2.730,-0.980
155195,0.030,-0.933,0.407,-0.280,-2.030,-0.420
155204,0.030,-0.935,0.407,0.000,-1.960,-0.350
155213,0.029,-0.938,0.406,0.350,-1.960,-0.350
155222,0.026,-0.934,0.409,0.560,-2.030,-0.350
155230,0.028,-0.933,0.407,0.560,-2.100,-0.490
155234,0.027,-0.933,0.407,0.700,-2.240,-0.490
155294,0.029,-0.934,0.408,0.140,-2.590,-0.840
155298,0.028,-0.935,0.407,0.140,-2.660,-0.910
155307,0.028,-0.933,0.412,-0.070,-2.730,-0.770
155316,0.028,-0.934,0.407,-0.070,-2.520,-0.770
155323,0.028,-0.934,0.407,-0.070,-2.590,-0.700
155332,0.027,-0.933,0.406,-0.140,-2.450,-0.630
155373,0.027,-0.935,0.407,0.420,-2.520,-0.700
155382,0.029,-0.935,0.407,0.280,-2.590,-0.700
155386,0.029,-0.935,0.411,0.350,-2.590,-0.700
155395,0.027,-0.933,0.408,0.350,-2.450,-0.630
155404,0.029,-0.933,0.408,0.350,-2.590,-0.770
155413,0.026,-0.933,0.407,0.280,-2.520,-0.700
155464,0.029,-0.935,0.407,0.210,-2.660,-1.050
155473,0.031,-0.935,0.406,0.210,-2.730,-0.980
155482,0.031,-0.935,0.408,0.350,-2.730,-0.910
155489,0.029,-0.937,0.409,0.210,-2.730,-0.770
155497,0.030,-0.935,0.407,0.280,-2.660,-0.560
155501,0.030,-0.933,0.408,0.210,-2.660,-0.560
155546,0.030,-0.936,0.408,0.420,-2.170,-0.350
155555,0.029,-0.938,0.408,0.420,-2.240,-0.210
155564,0.030,-0.935,0.407,0.490,-1.960,-0.210
155568,0.028,-0.935,0.409,0.560,-1.960,-0.070
155577,0.027,-0.935,0.408,0.490,-2.030,0.000
155586,0.029,-0.935,0.409,0.560,-1.960,0.000
155638,0.028,-0.936,0.405,0.490,-2.240,-0.350
155647,0.027,-0.936,0.409,0.700,-2.380,-0.280
155654,0.029,-0.934,0.407,0.700,-2.310,-0.210
155663,0.027,-0.935,0.409,0.350,-2.520,-0.210
155670,0.027,-0.934,0.407,0.420,-2.520,-0.280
155674,0.027,-0.935,0.407,0.490,-2.450,-0.140
155745,0.030,-0.930,0.408,0.560,-2.170,-0.490
155749,0.028,-0.932,0.407,0.350,-2.240,-0.700
155757,0.028,-0.932,0.407,0.280,-2.520,-1.050
155766,0.028,-0.929,0.409,-0.210,-2.660,-1.260
155774,0.026,-0.933,0.409,-0.420,-2.870,-1.330
155783,0.026,-0.936,0.407,-0.630,-2.730,-1.400
155845,0.029,-0.935,0.408,1.330,-2.450,-0.210
155854,0.029,-0.936,0.409,1.190,-2.450,-0.210
155858,0.029,-0.934,0.409,1.120,-2.450,-0.280
155865,0.027,-0.934,0.408,1.330,-2.520,-0.210
155874,0.026,-0.934,0.411,1.120,-2.590,-0.210
155882,0.029,-0.935,0.409,0.840,-2.520,-0.280
155950,0.031,-0.934,0.407,0.070,-2.310,-0.910
155959,0.027,-0.933,0.409,-0.070,-2.310,-0.980
155963,0.029,-0.934,0.409,-0.210,-2.310,-1.120
155972,0.028,-0.935,0.407,0.000,-2.520,-1.120
155981,0.029,-0.935,0.409,0.000,-2.660,-1.120
155990,0.029,-0.935,0.409,-0.140,-2.660,-0.910
156048,0.029,-0.936,0.405,0.210,-2.800,-0.840
156057,0.030,-0.936,0.407,0.700,-2.730,-0.630
156065,0.030,-0.937,0.405,0.770,-2.660,-0.420
156072,0.031,-0.937,0.408,1.120,-2.590,-0.280
156076,0.033,-0.936,0.407,1.190,-2.450,-0.070
156085,0.032,-0.933,0.408,1.400,-2.310,0.070
156147,0.029,-0.934,0.407,-1.820,-3.920,-1.120
156156,0.029,-0.936,0.404,-1.470,-3.290,-1.470
156165,0.033,-0.937,0.406,-0.700,-2.870,-1.540
156169,0.030,-0.935,0.408,-0.280,-2.310,-1.120
156178,0.031,-0.937,0.406,-0.140,-2.240,-0.630
156187,0.029,-0.937,0.406,0.280,-2.100,-0.490
156246,0.029,-0.934,0.408,1.120,-2.380,0.070
156250,0.027,-0.933,0.406,1.190,-2.380,-0.280
156259,0.028,-0.932,0.407,1.120,-2.660,-0.560
156268,0.028,-0.933,0.407,0.770,-2.800,-0.700
156277,0.029,-0.933,0.410,0.560,-2.730,-0.700
156286,0.031,-0.933,0.408,0.350,-2.660,-0.700
156343,0.029,-0.934,0.407,0.000,-1.890,-0.280
156351,0.030,-0.937,0.409,0.350,-1.820,-0.280
156355,0.032,-0.934,0.406,0.490,-1.540,-0.070
156364,0.029,-0.936,0.407,0.560,-1.400,-0.070
156372,0.030,-0.935,0.407,0.770,-1.470,0.140
156381,0.029,-0.934,0.408,0.630,-1.470,0.140
156444,0.029,-0.934,0.408,0.350,-2.590,-0.560
156448,0.027,-0.934,0.412,0.280,-2.450,-0.560
156456,0.029,-0.935,0.409,0.140,-2.520,-0.560
156465,0.029,-0.936,0.408,0.140,-2.380,-0.490
156473,0.031,-0.935,0.408,0.210,-2.100,-0.280
156482,0.030,-0.935,0.408,0.350,-1.960,-0.280
156549,0.027,-0.935,0.408,0.000,-2.660,-0.910
156557,0.027,-0.934,0.408,-0.070,-2.520,-1.050
156566,0.029,-0.935,0.409,0.140,-2.450,-1.050
156574,0.033,-0.936,0.406,0.000,-2.520,-0.910
156583,0.030,-0.935,0.407,0.070,-2.450,-0.910
156587,0.030,-0.935,0.407,0.210,-2.450,-0.840
156649,0.027,-0.935,0.407,-0.140,-2.940,-1.050
156658,0.030,-0.936,0.410,-0.210,-2.870,-0.840
156662,0.028,-0.936,0.407,0.000,-2.800,-0.700
156671,0.030,-0.936,0.409,0.490,-2.450,-0.350
156680,0.029,-0.937,0.409,0.770,-2.310,0.000
156689,0.030,-0.937,0.409,0.910,-2.240,0.280
156746,0.026,-0.929,0.408,0.630,-1.540,0.140
156755,0.027,-0.927,0.408,0.350,-1.750,-0.700
156759,0.025,-0.929,0.409,-0.350,-2.100,-0.840
156765,0.027,-0.932,0.407,-0.630,-2.380,-1.190
156774,0.027,-0.931,0.407,-0.910,-2.660,-1.540
156782,0.028,-0.933,0.406,-0.980,-2.660,-1.470
156848,0.029,-0.936,0.410,1.330,-2.870,-0.280
156857,0.026,-0.935,0.410,1.120,-2.730,-0.140
156861,0.030,-0.934,0.412,1.050,-2.590,-0.140
156868,0.029,-0.932,0.410,0.980,-2.520,-0.210
156877,0.029,-0.935,0.411,0.700,-2.310,-0.210
156886,0.030,-0.931,0.408,0.630,-2.240,-0.280
156940,0.031,-0.936,0.406,-0.840,-2.590,-1.330
156944,0.028,-0.935,0.406,-0.420,-2.730,-1.400
156953,0.029,-0.935,0.405,-0.070,-2.590,-1.330
156962,0.030,-0.935,0.407,0.000,-2.660,-1.260
156970,0.031,-0.935,0.407,-0.070,-2.800,-0.980
156979,0.030,-0.935,0.405,0.140,-2.520,-0.840
157036,0.030,-0.936,0.409,0.630,-2.240,-0.560
157040,0.032,-0.935,0.411,0.490,-2.380,-0.490
157049,0.028,-0.934,0.410,0.280,-2.240,-0.210
157058,0.030,-0.933,0.407,0.280,-2.030,-0.140
157065,0.028,-0.935,0.407,0.280,-2.030,-0.280
157069,0.028,-0.934,0.408,0.140,-1.960,-0.140
157119,0.031,-0.935,0.408,0.210,-2.380,-0.490
157123,0.027,-0.936,0.406,0.210,-2.240,-0.420
157132,0.029,-0.935,0.404,0.560,-2.100,-0.280
157141,0.030,-0.936,0.405,0.910,-1.960,-0.210
157148,0.030,-0.936,0.407,1.050,-2.030,-0.140
157152,0.029,-0.935,0.407,1.120,-2.170,-0.070
157213,0.029,-0.935,0.410,0.350,-2.240,-0.630
157222,0.029,-0.934,0.407,0.280,-2.240,-0.560
157229,0.030,-0.935,0.410,0.210,-2.240,-0.490
157238,0.028,-0.935,0.408,0.280,-2.310,-0.560
157247,0.026,-0.932,0.406,0.280,-2.170,-0.280
157251,0.029,-0.936,0.407,0.490,-2.240,-0.350
157308,0.028,-0.935,0.408,1.400,-2.100,-0.070
157315,0.027,-0.936,0.410,1.400,-1.960,-0.210
157319,0.025,-0.931,0.409,1.260,-1.960,-0.420
157328,0.027,-0.931,0.409,0.910,-2.240,-0.420
157337,0.028,-0.933,0.408,0.910,-2.380,-0.350
157343,0.024,-0.936,0.413,0.980,-2.450,-0.350
157395,0.027,-0.930,0.410,-0.490,-2.240,-1.120
157404,0.028,-0.935,0.410,-0.770,-2.380,-1.120
157413,0.027,-0.933,0.407,-0.910,-2.660,-1.050
157420,0.029,-0.935,0.409,-0.910,-2.730,-0.910
157424,0.027,-0.935,0.407,-0.700,-2.730,-0.840
157433,0.027,-0.936,0.406,-0.350,-2.660,-0.630
157491,0.027,-0.932,0.408,0.770,-2.870,-0.490
157500,0.027,-0.935,0.409,0.980,-2.800,-0.840
157509,0.025,-0.931,0.416,0.350,-3.220,-1.400
157517,0.027,-0.925,0.412,-0.630,-3.850,-1.680
157526,0.025,-0.930,0.409,-1.260,-3.850,-2.240
157530,0.031,-0.935,0.409,-1.470,-3.640,-2.240
157600,0.030,-0.939,0.408,0.560,-1.820,-0.210
157604,0.030,-0.938,0.403,0.910,-1.610,-0.140
157613,0.030,-0.937,0.404,1.190,-1.750,-0.210
157622,0.031,-0.935,0.407,1.400,-2.030,0.000
157631,0.028,-0.937,0.408,1.330,-2.030,0.210
157640,0.028,-0.934,0.411,1.330,-1.960,0.070
157697,0.032,-0.937,0.409,-0.280,-2.590,-0.980
157705,0.032,-0.934,0.409,-0.280,-2.520,-0.630
157714,0.030,-0.936,0.407,0.000,-2.380,-0.490
157720,0.032,-0.934,0.406,0.140,-2.310,-0.420
157729,0.029,-0.935,0.407,0.210,-2.030,-0.420
157733,0.031,-0.936,0.408,0.140,-1.960,-0.280
157789,0.031,-0.935,0.406,0.560,-2.450,-0.420
157796,0.029,-0.935,0.407,0.560,-2.380,-0.350
157800,0.028,-0.935,0.406,0.770,-2.380,-0.490
157809,0.029,-0.933,0.407,0.770,-2.520,-0.560
157816,0.031,-0.937,0.408,0.700,-2.520,-0.560
157824,0.029,-0.932,0.407,0.630,-2.590,-0.630
157884,0.031,-0.932,0.408,0.070,-2.310,-0.700
157888,0.028,-0.934,0.408,-0.280,-2.240,-0.700
157895,0.029,-0.935,0.410,-0.420,-2.450,-0.630
157904,0.031,-0.935,0.407,-0.420,-2.170,-0.770
157912,0.029,-0.933,0.407,-0.630,-2.450,-0.910
157919,0.028,-0.935,0.407,-0.770,-2.450,-0.980
157977,0.030,-0.935,0.407,0.770,-2.380,-0.560
157986,0.031,-0.935,0.407,0.700,-2.380,-0.280
157993,0.030,-0.935,0.408,0.840,-2.240,-0.280
158002,0.030,-0.933,0.406,0.840,-2.380,-0.280
158011,0.029,-0.935,0.407,0.910,-2.380,-0.350
158015,0.028,-0.933,0.410,0.840,-2.310,-0.350
158079,0.028,-0.933,0.409,-0.210,-2.520,-0.980
158083,0.030,-0.934,0.406,-0.210,-2.520,-0.980
158092,0.031,-0.937,0.407,-0.070,-2.450,-0.910
158101,0.030,-0.937,0.407,0.000,-2.520,-0.770
158110,0.031,-0.935,0.405,0.140,-2.380,-0.350
158114,0.031,-0.938,0.406,0.560,-2.170,-0.350
158173,0.031,-0.935,0.408,0.630,-2.170,-0.280
158182,0.027,-0.932,0.407,0.420,-2.310,-0.350
158191,0.029,-0.932,0.407,0.350,-2.310,-0.490
158197,0.030,-0.935,0.406,0.280,-2.590,-0.700
158206,0.027,-0.933,0.407,0.210,-2.450,-0.910
158210,0.028,-0.931,0.406,0.070,-2.590,-0.980
158268,0.032,-0.934,0.409,0.560,-2.240,-0.280
158277,0.031,-0.935,0.405,0.700,-2.240,-0.350
158281,0.027,-0.935,0.407,0.840,-2.240,-0.350
158290,0.030,-0.935,0.409,0.770,-2.240,-0.350
158297,0.031,-0.935,0.405,0.840,-2.100,-0.280
158306,0.029,-0.934,0.407,0.770,-2.170,-0.490
158355,0.029,-0.935,0.406,-0.280,-3.010,-1.400
158364,0.029,-0.936,0.407,-0.070,-3.080,-1.470
158371,0.030,-0.935,0.407,-0.210,-3.080,-1.400
158375,0.031,-0.935,0.408,-0.140,-3.220,-1.470
158384,0.031,-0.935,0.407,-0.140,-3.010,-1.190
158393,0.033,-0.935,0.409,0.070,-2.590,-0.910
158459,0.030,-0.935,0.407,0.140,-2.380,-0.700
158466,0.030,-0.935,0.406,0.140,-2.170,-0.560
158470,0.030,-0.935,0.409,0.280,-2.170,-0.630
158475,0.031,-0.936,0.405,0.420,-2.240,-0.560
158484,0.031,-0.936,0.409,0.280,-2.310,-0.490
158493,0.032,-0.935,0.408,0.280,-2.170,-0.420
158548,0.032,-0.936,0.405,0.560,-2.380,-0.490
158557,0.033,-0.935,0.406,0.630,-2.310,-0.560
158561,0.030,-0.934,0.405,0.630,-2.310,-0.490
158568,0.031,-0.933,0.411,0.490,-2.450,-0.490
158577,0.032,-0.934,0.407,0.350,-2.380,-0.420
158585,0.030,-0.936,0.406,0.420,-2.380,-0.420
158648,0.029,-0.935,0.408,0.560,-2.380,-0.490
158657,0.030,-0.935,0.407,0.420,-2.240,-0.630
158666,0.031,-0.935,0.406,0.840,-2.380,-0.700
158672,0.029,-0.936,0.408,0.770,-2.310,-0.700
158681,0.031,-0.936,0.409,0.630,-2.450,-0.910
158685,0.031,-0.931,0.406,0.630,-2.590,-0.910
158748,0.031,-0.933,0.407,-0.070,-3.990,-2.100
158752,0.032,-0.933,0.406,0.350,-4.060,-2.450
158761,0.030,-0.935,0.408,0.560,-4.060,-2.450
158769,0.032,-0.935,0.409,-0.070,-4.200,-2.170
158778,0.035,-0.935,0.408,-0.140,-4.620,-1.540
158785,0.037,-0.939,0.407,-1.330,-4.760,-1.050
158845,0.037,-0.935,0.405,-0.700,-4.760,1.960
158854,0.032,-0.936,0.405,-2.450,-5.670,2.660
158861,0.032,-0.937,0.399,-2.520,-6.020,2.870
158870,0.036,-0.939,0.399,-1.680,-5.740,1.890
158874,0.028,-0.936,0.402,1.050,-3.850,1.050
158883,0.032,-0.927,0.409,1.890,-1.330,0.070
158939,0.030,-0.933,0.402,0.560,-0.560,0.770
158946,0.031,-0.933,0.405,0.840,-0.490,0.560
158955,0.028,-0.935,0.406,0.840,-0.350,0.280
158964,0.028,-0.937,0.405,0.630,-0.140,0.070
158968,0.028,-0.935,0.403,0.490,-0.070,-0.140
158976,0.028,-0.935,0.400,0.770,-0.280,-0.420
159023,0.032,-0.932,0.401,-1.400,-2.870,-1.680
159031,0.033,-0.936,0.399,-1.400,-3.430,-1.890
159040,0.031,-0.936,0.400,-1.260,-3.780,-2.030
159048,0.033,-0.937,0.404,-1.260,-3.920,-1.960
159055,0.033,-0.936,0.397,-1.260,-3.780,-1.960
159059,0.032,-0.939,0.403,-1.050,-3.640,-1.750
159127,0.030,-0.938,0.399,1.890,-0.980,1.400
159136,0.030,-0.935,0.401,2.310,-0.980,1.400
159145,0.027,-0.937,0.405,2.310,-1.120,1.260
159153,0.028,-0.937,0.403,2.310,-1.190,1.190
159162,0.027,-0.935,0.402,2.170,-1.190,1.120
159166,0.028,-0.935,0.404,2.170,-1.330,1.050
159217,0.029,-0.935,0.404,0.560,-1.960,-0.070
159225,0.027,-0.936,0.407,0.210,-1.820,0.000
159229,0.029,-0.936,0.405,0.140,-1.750,0.000
159238,0.029,-0.936,0.403,0.070,-1.540,0.140
159247,0.027,-0.937,0.404,0.140,-1.330,0.210
159256,0.030,-0.936,0.407,0.280,-1.120,0.350
159317,0.023,-0.940,0.406,3.500,2.520,-1.540
159325,0.019,-0.922,0.392,4.970,-4.060,-1.890
159334,0.024,-0.887,0.391,-4.970,-8.050,2.660
159338,0.030,-0.972,0.409,-2.100,-5.600,-0.280
159347,0.026,-0.986,0.429,3.920,-0.420,-1.050
159356,0.038,-0.963,0.431,-0.070,2.940,0.910
159412,0.021,-0.936,0.386,0.980,2.450,-3.150
159416,0.021,-0.931,0.398,3.780,1.330,-3.500
159423,0.023,-0.925,0.414,0.980,-1.820,-2.940
159431,0.020,-0.923,0.415,-3.430,-5.320,-2.660
159440,0.022,-0.935,0.404,-4.270,-4.970,-3.570
159449,0.026,-0.936,0.395,-1.470,-4.690,-3.850
159502,0.026,-0.939,0.405,-0.490,-3.990,-1.400
159506,0.029,-0.940,0.403,0.070,-3.220,-1.050
159514,0.033,-0.941,0.403,0.490,-2.800,-0.350
159523,0.031,-0.939,0.402,0.980,-2.380,0.210
159532,0.031,-0.941,0.402,1.260,-1.960,0.630
159540,0.030,-0.938,0.402,1.400,-1.890,0.770
159600,0.024,-0.933,0.404,0.630,-3.290,-0.350
159604,0.027,-0.932,0.404,0.490,-3.570,-0.770
159613,0.027,-0.931,0.405,0.070,-4.060,-1.400
159622,0.028,-0.931,0.404,-0.420,-4.270,-1.470
159631,0.028,-0.935,0.406,-0.700,-4.270,-1.400
159639,0.031,-0.936,0.405,-0.840,-4.340,-1.050
159692,0.028,-0.935,0.403,0.140,-2.520,-0.980
159701,0.028,-0.933,0.404,0.140,-2.870,-1.050
159710,0.028,-0.935,0.402,0.210,-3.010,-1.330
159714,0.028,-0.936,0.405,0.000,-2.870,-1.400
159721,0.027,-0.936,0.404,-0.140,-2.800,-1.190
159729,0.030,-0.939,0.404,0.210,-2.520,-0.980
159778,0.030,-0.940,0.401,1.190,0.840,1.680
159787,0.029,-0.937,0.403,1.750,0.840,1.750
159796,0.027,-0.936,0.399,1.820,0.770,1.470
159805,0.025,-0.934,0.399,1.820,0.140,0.980
159814,0.024,-0.930,0.400,1.680,-0.560,0.350
159818,0.024,-0.929,0.398,0.840,-2.240,-0.070
159865,0.029,-0.938,0.407,-0.980,-7.000,-2.730
159872,0.030,-0.939,0.409,-1.330,-6.930,-2.380
159879,0.031,-0.939,0.410,-2.170,-6.720,-1.820
159888,0.038,-0.938,0.410,-2.380,-6.790,-0.280
159892,0.041,-0.942,0.405,-4.340,-6.790,0.350
159900,0.024,-0.946,0.400,-1.540,-4.760,0.070
159952,0.027,-0.937,0.403,0.700,0.700,0.630
159961,0.026,-0.937,0.397,0.630,-0.140,-0.140
159968,0.026,-0.933,0.394,0.840,-0.980,-0.630
159977,0.025,-0.929,0.398,0.630,-1.890,-1.330
159981,0.022,-0.931,0.401,-0.350,-3.640,-1.610
159989,0.026,-0.934,0.401,-0.700,-4.480,-2.590
160047,0.053,-0.945,0.407,-1.610,-8.540,0.070
160056,0.048,-0.937,0.407,-1.890,-6.580,0.070
160065,0.005,-0.938,0.405,-1.260,-3.430,-0.280
160074,-0.018,-0.941,0.403,1.190,-2.520,-0.280
160078,0.023,-0.942,0.407,1.890,-2.310,-0.490
160087,0.055,-0.935,0.404,1.190,-1.540,1.610
160146,0.027,-0.932,0.397,1.540,1.960,0.770
160155,0.028,-0.934,0.397,2.170,2.030,0.000
160164,0.027,-0.934,0.402,1.750,1.050,0.140
160172,0.028,-0.932,0.402,1.330,-0.210,0.140
160179,0.025,-0.935,0.400,0.350,-0.490,-0.070
160183,0.025,-0.935,0.398,0.630,-0.700,-0.210
160244,0.028,-0.939,0.402,0.910,-2.380,0.140
160248,0.028,-0.939,0.400,1.470,-2.240,0.560
160255,0.027,-0.941,0.403,1.890,-2.100,0.910
160264,0.029,-0.939,0.406,1.960,-1.680,1.400
160271,0.027,-0.937,0.404,1.890,-1.540,1.610
160280,0.026,-0.938,0.403,1.750,-1.330,1.680
160332,0.029,-0.960,0.413,1.330,-1.890,-1.260
160341,0.023,-0.904,0.407,-0.070,-3.220,-0.420
160349,0.026,-0.927,0.391,-2.520,-3.500,-1.330
160353,0.020,-0.950,0.396,1.400,-4.410,-2.310
160362,0.021,-0.934,0.413,0.490,-5.180,-2.240
160369,0.028,-0.924,0.412,-2.380,-4.900,-1.960
160447,0.028,-0.938,0.401,-0.280,-2.170,-0.350
160454,0.030,-0.940,0.401,-0.140,-1.820,0.000
160458,0.028,-0.942,0.399,0.210,-1.890,0.070
160467,0.028,-0.938,0.397,0.980,-1.610,0.490
160476,0.028,-0.940,0.398,1.330,-1.540,0.700
160485,0.028,-0.939,0.400,1.330,-1.400,0.840
160543,0.026,-0.936,0.405,2.240,-0.770,1.750
160552,0.025,-0.935,0.401,2.030,-0.980,1.190
160559,0.022,-0.935,0.403,1.750,-1.120,1.050
160563,0.024,-0.935,0.403,1.610,-1.400,0.770
