Millis,AccelX,AccelY,AccelZ,GyroX,GyroY,GyroZ
16568544,-0.972,-0.240,-0.044,0.700,-2.590,-0.910
16568562,-0.975,-0.239,-0.042,0.700,-2.870,-0.630
16568586,-0.969,-0.241,-0.045,0.840,-2.870,-0.700
16568606,-0.981,-0.235,-0.045,1.330,-3.780,-0.840
16568621,-0.978,-0.233,-0.053,0.630,-3.850,-0.910
16568641,-0.971,-0.240,-0.036,1.610,-3.990,-0.980
16568663,-0.969,-0.237,-0.035,1.400,-3.290,-0.910
16568685,-0.972,-0.231,-0.038,0.490,-3.150,-1.330
16568709,-0.977,-0.240,-0.040,1.050,-3.500,-0.840
16568729,-0.977,-0.234,-0.034,1.260,-3.010,-1.400
16568749,-0.973,-0.232,-0.035,0.700,-2.800,-1.890
16568769,-0.974,-0.244,-0.041,0.350,-2.660,-1.820
16568785,-0.972,-0.235,-0.042,0.350,-2.660,-1.750
16568804,-0.977,-0.236,-0.044,0.700,-2.800,-1.820
16568829,-0.980,-0.239,-0.044,1.540,-3.500,-1.960
16568848,-0.985,-0.234,-0.047,1.120,-4.270,-2.170
16568869,-0.980,-0.230,-0.050,0.770,-4.690,-2.450
16568893,-0.985,-0.237,-0.053,0.840,-5.390,-2.310
16568913,-0.975,-0.239,-0.046,1.120,-5.950,-2.450
16568933,-0.975,-0.248,-0.053,2.240,-6.650,-1.890
16568951,-0.983,-0.244,-0.044,3.290,-8.120,-1.680
16568972,-0.989,-0.222,-0.063,0.280,-10.710,-1.260
16568990,-0.983,-0.242,-0.048,-0.350,-11.970,-1.120
16569014,-0.975,-0.237,-0.028,-1.330,-12.320,-0.420
16569034,-0.958,-0.238,0.005,-3.710,-11.970,-0.350
16569058,-0.966,-0.246,-0.003,-3.430,-10.570,0.140
16569076,-0.955,-0.233,0.010,-4.410,-7.840,-0.420
16569098,-0.965,-0.225,0.012,-2.450,-5.880,-1.400
16569116,-0.956,-0.229,0.014,-0.560,-3.570,-2.100
16569136,-0.960,-0.234,0.014,-0.140,-1.610,-2.870
16569157,-0.965,-0.240,0.003,1.540,0.280,-3.430
16569181,-0.971,-0.243,0.001,2.310,1.610,-3.850
16569201,-0.976,-0.241,-0.017,1.890,2.450,-3.990
16569219,-0.977,-0.242,-0.022,1.050,2.240,-3.640
16569239,-0.978,-0.245,-0.034,1.120,1.470,-3.150
16569263,-0.978,-0.249,-0.034,0.840,0.560,-2.730
16569279,-0.983,-0.241,-0.040,1.120,-0.350,-2.450
16569300,-0.982,-0.241,-0.041,0.000,-1.540,-2.590
16569319,-0.976,-0.240,-0.026,-0.210,-1.890,-2.590
16569342,-0.971,-0.249,-0.020,-0.350,-1.330,-2.590
16569364,-0.976,-0.247,-0.031,0.000,-1.120,-2.380
16569384,-0.979,-0.245,-0.034,-0.700,-1.260,-2.170
16569404,-0.981,-0.237,-0.037,-0.560,-1.820,-2.170
16569423,-0.978,-0.244,-0.035,-0.980,-2.380,-1.960
16569443,-0.975,-0.251,-0.033,-1.400,-2.800,-1.960
16569462,-0.970,-0.247,-0.026,-1.050,-2.800,-1.540
16569487,-0.969,-0.248,-0.021,-0.280,-2.310,-1.540
16569506,-0.974,-0.251,-0.029,0.280,-2.310,-1.540
16569522,-0.968,-0.246,-0.030,0.350,-2.170,-1.190
16569545,-0.974,-0.243,-0.024,-0.490,-1.750,-1.190
16569565,-0.967,-0.250,-0.023,0.700,-0.980,-1.330
16569584,-0.976,-0.241,-0.037,1.050,-1.050,-1.050
16569604,-0.983,-0.241,-0.034,-0.350,-1.610,-1.190
16569628,-0.979,-0.244,-0.035,-0.140,-1.610,-1.190
16569643,-0.981,-0.245,-0.033,0.350,-1.610,-1.050
16569668,-0.974,-0.237,-0.037,0.280,-1.750,-1.260
16569688,-0.974,-0.240,-0.037,0.980,-1.540,-1.260
16569708,-0.972,-0.236,-0.034,1.540,-1.610,-1.330
16569727,-0.976,-0.245,-0.035,1.400,-2.170,-1.750
16569744,-0.984,-0.239,-0.057,1.960,-1.890,-1.470
16569768,-0.997,-0.245,0.028,2.940,-6.930,-3.780
16569788,-0.971,-0.282,-0.022,6.930,-6.020,-0.630
16569807,-0.998,-0.224,-0.045,-0.770,-1.750,-0.910
16569827,-0.975,-0.238,-0.035,-0.070,-3.150,-1.120
16569851,-0.985,-0.228,-0.037,0.910,-3.010,-1.470
16569871,-0.983,-0.242,-0.030,1.050,-2.730,-1.400
16569886,-0.976,-0.243,-0.035,0.280,-2.170,-1.330
16569911,-0.972,-0.245,-0.035,1.400,-1.820,-0.910
16569931,-0.981,-0.235,-0.030,0.910,-2.240,-1.190
16569950,-0.979,-0.241,-0.042,0.490,-2.660,-1.050
16569969,-0.973,-0.244,-0.037,1.050,-2.730,-1.050
16569993,-0.976,-0.242,-0.037,1.120,-2.800,-1.050
16570014,-0.975,-0.244,-0.039,1.330,-2.310,-1.050
16570034,-0.974,-0.244,-0.032,1.260,-2.380,-0.980
16570051,-0.976,-0.243,-0.034,1.260,-2.170,-1.050
16570075,-0.978,-0.240,-0.037,1.400,-2.380,-1.120
16570093,-0.976,-0.241,-0.035,1.050,-2.660,-1.190
16570113,-0.976,-0.240,-0.042,1.470,-2.520,-0.980
16570135,-0.973,-0.240,-0.042,0.910,-2.800,-1.120
16570154,-0.972,-0.238,-0.035,0.350,-3.220,-1.190
16570178,-0.974,-0.241,-0.033,0.210,-3.010,-0.980
16570197,-0.977,-0.238,-0.038,0.350,-2.940,-0.980
16570216,-0.974,-0.237,-0.034,-0.070,-2.940,-1.190
16570241,-0.979,-0.242,-0.031,0.280,-3.220,-1.330
16570260,-0.978,-0.239,-0.042,0.280,-3.640,-1.190
16570284,-0.976,-0.236,-0.041,0.140,-4.200,-1.050
16570303,-0.973,-0.238,-0.035,0.000,-4.200,-1.190
16570321,-0.973,-0.239,-0.033,0.210,-4.130,-1.190
16570345,-0.973,-0.242,-0.032,0.350,-4.060,-1.120
16570365,-0.973,-0.240,-0.029,0.210,-3.920,-1.050
16570385,-0.976,-0.241,-0.031,0.490,-3.710,-1.120
16570405,-0.975,-0.243,-0.033,0.630,-3.360,-1.260
16570425,-0.970,-0.236,-0.029,0.490,-3.290,-1.400
16570442,-0.972,-0.238,-0.034,0.140,-2.940,-1.400
16570462,-0.972,-0.239,-0.028,0.280,-3.010,-1.260
16570486,-0.974,-0.241,-0.029,0.350,-2.800,-1.190
16570501,-0.975,-0.232,-0.033,0.630,-2.800,-1.190
16570521,-0.979,-0.236,-0.038,0.350,-3.010,-1.260
16570541,-0.977,-0.242,-0.035,0.210,-3.220,-1.330
16570566,-0.974,-0.236,-0.031,0.000,-3.010,-1.540
16570589,-0.973,-0.236,-0.025,0.000,-2.870,-1.400
16570613,-0.973,-0.238,-0.034,0.000,-2.870,-1.330
16570632,-0.978,-0.237,-0.034,-0.140,-3.150,-1.330
16570657,-0.975,-0.242,-0.028,0.490,-3.220,-1.470
16570677,-0.977,-0.235,-0.030,0.350,-3.220,-1.330
16570695,-0.977,-0.238,-0.034,0.000,-2.940,-1.470
16570713,-0.976,-0.238,-0.031,0.210,-2.940,-1.540
16570733,-0.974,-0.236,-0.026,0.350,-2.520,-1.680
16570753,-0.974,-0.237,-0.023,0.210,-2.380,-1.820
16570777,-0.975,-0.233,-0.031,0.070,-2.310,-1.890
16570796,-0.974,-0.239,-0.034,0.420,-2.520,-1.960
16570817,-0.974,-0.233,-0.026,0.280,-2.310,-2.100
16570836,-0.976,-0.240,-0.030,0.420,-2.450,-2.100
16570857,-0.972,-0.242,-0.034,0.280,-2.380,-2.030
16570880,-0.975,-0.232,-0.032,-0.350,-2.520,-2.170
16570904,-0.976,-0.231,-0.035,0.350,-2.660,-2.310
16570923,-0.984,-0.240,-0.037,0.700,-3.290,-2.240
16570942,-0.977,-0.241,-0.034,0.490,-3.010,-2.310
16570965,-0.972,-0.237,-0.033,0.280,-2.660,-2.310
16570986,-0.976,-0.240,-0.030,0.140,-2.660,-2.520
16571005,-0.974,-0.245,-0.024,0.700,-2.170,-2.660
16571024,-0.970,-0.247,-0.031,0.840,-1.750,-2.590
16571049,-0.973,-0.240,-0.032,0.630,-1.820,-2.450
16571068,-0.977,-0.241,-0.033,0.630,-1.820,-2.520
16571087,-0.970,-0.243,-0.029,0.770,-1.680,-2.660
16571108,-0.975,-0.243,-0.029,0.630,-1.540,-2.800
16571131,-0.981,-0.236,-0.048,0.980,-1.400,-2.800
16571150,-0.988,-0.253,0.030,7.000,-2.800,-3.080
16571175,-0.935,-0.315,-0.039,2.800,0.350,-2.940
16571195,-0.953,-0.227,-0.035,2.100,-1.120,-3.290
16571213,-0.981,-0.240,-0.041,0.630,-2.660,-3.150
16571233,-0.981,-0.235,-0.032,1.960,-2.520,-3.780
16571257,-0.976,-0.239,-0.045,1.400,-2.590,-4.690
16571277,-0.975,-0.254,-0.032,2.590,-3.220,-5.390
16571295,-0.983,-0.230,-0.045,2.870,-4.200,-6.160
16571313,-0.976,-0.237,-0.042,2.870,-4.060,-6.930
16571332,-0.966,-0.244,-0.042,2.450,-4.410,-7.490
16571354,-0.972,-0.259,-0.033,3.010,-4.970,-7.350
16571377,-0.965,-0.262,-0.033,2.240,-4.900,-7.000
16571396,-0.965,-0.253,-0.022,1.610,-4.340,-7.210
16571416,-0.966,-0.261,-0.026,2.100,-3.710,-7.630
16571440,-0.967,-0.249,-0.029,2.100,-3.220,-8.260
16571459,-0.966,-0.258,-0.029,1.540,-3.290,-8.680
16571479,-0.964,-0.268,-0.021,1.260,-2.940,-8.960
16571503,-0.962,-0.266,-0.017,2.380,-1.820,-9.170
16571523,-0.968,-0.277,-0.020,2.450,-1.890,-9.240
16571542,-0.964,-0.255,-0.009,1.750,-0.560,-10.640
16571561,-0.964,-0.271,-0.038,3.640,-0.630,-11.620
16571585,-0.968,-0.275,-0.043,5.320,-1.190,-12.110
16571605,-0.961,-0.233,-0.028,5.180,-2.240,-14.210
16571620,-0.966,-0.272,-0.033,2.660,-2.170,-15.260
16571640,-0.959,-0.318,-0.042,7.490,-1.330,-16.240
16571665,-0.949,-0.244,-0.019,9.170,-1.820,-17.850
16571683,-0.962,-0.334,-0.029,10.290,-2.450,-17.640
16571707,-0.951,-0.326,-0.032,12.180,-2.100,-15.330
16571727,-0.963,-0.354,-0.013,7.350,-3.360,-13.440
16571747,-0.950,-0.392,-0.025,11.410,-2.520,-10.010
16571767,-0.942,-0.331,-0.022,6.790,-3.290,-6.860
16571786,-0.933,-0.358,-0.015,9.030,-2.660,-4.690
16571806,-0.946,-0.341,-0.027,7.980,-2.660,-3.920
16571830,-0.952,-0.339,-0.021,7.420,-2.870,-2.940
16571850,-0.953,-0.337,-0.012,5.670,-2.520,-1.540
16571865,-0.949,-0.342,-0.011,4.690,-2.310,-0.140
16571885,-0.934,-0.325,-0.010,6.370,-1.890,0.560
16571905,-0.948,-0.305,-0.002,0.280,-0.770,-0.840
16571930,-0.943,-0.352,-0.006,2.310,1.680,-0.140
16571949,-0.942,-0.351,-0.016,2.030,1.960,1.260
16571968,-0.940,-0.347,-0.019,-3.640,1.960,3.710
16571986,-0.932,-0.372,-0.021,-0.700,1.960,5.880
16572010,-0.951,-0.303,-0.029,0.140,3.430,6.860
16572030,-0.962,-0.371,-0.052,0.350,2.520,9.240
16572049,-0.953,-0.406,-0.044,-3.570,1.260,15.330
16572068,-0.944,-0.409,-0.043,-9.170,0.000,22.470
16572091,-0.973,-0.307,-0.034,-11.060,-0.910,26.320
16572112,-0.995,-0.188,-0.065,-15.260,-4.480,21.490
16572132,-0.997,-0.150,-0.069,-16.940,-7.420,14.910
16572151,-0.992,-0.216,-0.083,-15.820,-10.850,10.710
16572170,-1.006,-0.252,-0.079,-15.610,-14.280,10.430
16572190,-0.966,-0.261,-0.041,-20.930,-16.940,11.130
16572209,-0.940,-0.281,-0.010,-21.490,-14.630,10.850
16572233,-0.949,-0.277,-0.013,-14.910,-11.410,10.640
16572253,-0.957,-0.245,-0.014,-10.430,-8.750,10.220
16572273,-0.973,-0.250,-0.015,-9.100,-8.400,9.310
16572291,-0.968,-0.219,-0.017,-6.930,-8.890,8.190
16572311,-0.959,-0.238,-0.001,-8.960,-8.330,7.140
16572335,-0.955,-0.235,0.021,-7.560,-5.740,6.300
16572354,-0.953,-0.228,0.008,-3.920,-2.450,5.880
16572377,-0.964,-0.229,0.006,-5.740,-0.280,4.410
16572396,-0.976,-0.239,-0.006,-1.750,1.260,4.410
16572420,-0.947,-0.245,-0.018,1.960,4.060,4.690
16572440,-0.960,-0.244,-0.007,5.530,7.490,4.480
16572459,-0.964,-0.236,-0.009,2.800,10.570,4.830
16572479,-0.956,-0.242,0.005,2.730,13.720,6.440
16572498,-0.967,-0.214,0.007,-0.490,14.560,6.790
16572523,-0.982,-0.183,-0.025,-7.700,17.290,5.740
16572542,-0.986,-0.228,-0.031,-7.070,19.180,5.320
16572563,-1.028,-0.132,-0.032,-9.730,22.610,5.530
16572581,-0.883,-0.227,-0.158,-14.840,35.700,4.410
16572600,-0.992,-0.188,-0.060,-11.060,12.320,5.110
16572620,-0.982,-0.225,-0.068,-10.430,16.240,6.300
16572640,-0.958,-0.253,-0.116,-0.350,17.220,7.000
16572664,-0.973,-0.230,-0.155,2.240,15.330,8.050
16572685,-1.028,-0.163,-0.144,-2.380,10.570,8.330
16572704,-1.012,-0.180,-0.126,-5.530,9.870,8.330
16572723,-0.994,-0.187,-0.119,-7.560,10.010,8.470
16572744,-0.972,-0.217,-0.116,-7.000,10.360,11.480
16572765,-0.996,-0.178,-0.141,-9.800,6.160,12.250
16572784,-0.986,-0.176,-0.190,-6.650,8.050,12.600
16572809,-1.029,-0.087,-0.161,-13.510,2.800,10.360
16572828,-1.002,-0.173,-0.117,-5.740,1.260,4.830
16572844,-0.984,-0.126,-0.163,-17.290,2.730,4.480
16572869,-0.957,-0.194,-0.139,-7.350,5.110,4.830
16572889,-0.967,-0.192,-0.148,-8.260,6.790,5.530
16572906,-0.981,-0.139,-0.127,-6.720,7.700,6.720
16572930,-0.984,-0.144,-0.119,-3.780,10.570,3.990
16572950,-0.973,-0.112,-0.172,-4.690,10.570,3.080
16572967,-0.979,-0.128,-0.152,-4.410,10.780,2.310
16572986,-0.985,-0.109,-0.207,-5.110,10.710,1.610
16573011,-0.995,-0.160,-0.203,-3.710,7.420,1.890
16573031,-0.985,-0.128,-0.193,-5.320,6.020,2.310
16573051,-0.983,-0.167,-0.212,-2.030,4.970,2.240
16573068,-0.992,-0.112,-0.186,1.120,4.760,1.890
16573087,-0.977,-0.129,-0.163,-1.190,6.510,-0.560
16573112,-0.972,-0.136,-0.178,1.120,8.960,-1.820
16573132,-0.969,-0.114,-0.240,3.500,6.510,-2.660
16573151,-0.987,-0.094,-0.235,0.140,3.010,-3.080
16573170,-1.024,-0.134,-0.264,2.520,-0.490,-1.330
16573194,-0.993,-0.111,-0.222,5.110,-4.410,-3.920
16573209,-0.974,-0.162,-0.224,3.920,-8.050,-4.480
16573229,-0.970,-0.140,-0.210,4.270,-9.730,-4.410
16573249,-0.959,-0.145,-0.197,4.550,-10.850,-5.670
16573274,-0.875,-0.108,-0.203,7.140,-11.200,-6.300
16573294,-0.987,-0.086,-0.212,0.910,-12.810,-8.750
16573312,-0.991,-0.136,-0.216,0.910,-13.860,-9.940
16573331,-0.973,-0.127,-0.218,0.210,-15.610,-10.710
16573353,-0.974,-0.163,-0.205,0.420,-18.760,-10.920
16573377,-0.989,-0.151,-0.181,1.470,-19.880,-10.920
16573396,-0.979,-0.139,-0.176,1.190,-20.090,-11.410
16573416,-0.965,-0.175,-0.142,2.660,-18.760,-11.340
16573434,-0.969,-0.194,-0.134,5.110,-17.150,-10.010
16573458,-0.951,-0.188,-0.151,5.390,-15.890,-8.890
16573474,-0.970,-0.179,-0.124,6.790,-15.470,-7.840
16573498,-0.964,-0.181,-0.131,7.350,-13.720,-7.840
16573518,-0.971,-0.178,-0.136,11.200,-12.180,-7.210
16573536,-0.964,-0.182,-0.106,11.340,-10.710,-7.210
16573556,-0.972,-0.182,-0.134,13.790,-9.800,-7.210
16573578,-0.971,-0.157,-0.109,13.790,-8.540,-7.700
16573602,-0.980,-0.188,-0.091,11.760,-7.700,-9.520
16573618,-0.995,-0.184,-0.092,11.130,-7.350,-10.150
16573638,-0.975,-0.171,-0.123,10.010,-6.090,-10.640
16573657,-0.986,-0.198,-0.113,8.540,-7.980,-10.920
16573682,-0.977,-0.195,-0.104,9.030,-5.950,-10.990
16573699,-0.958,-0.198,-0.119,7.980,-5.880,-10.990
16573719,-0.964,-0.211,-0.111,7.770,-6.300,-10.640
16573738,-0.975,-0.209,-0.089,4.410,-6.860,-10.500
16573763,-0.976,-0.201,-0.124,3.290,-6.580,-9.800
16573783,-0.990,-0.247,-0.084,4.970,-7.420,-10.010
16573801,-1.004,-0.208,-0.123,4.410,-8.470,-9.730
16573825,-0.971,-0.226,-0.114,2.170,-9.730,-8.820
16573843,-0.987,-0.229,-0.127,0.280,-12.530,-8.400
16573864,-0.954,-0.260,-0.116,2.030,-12.250,-6.580
16573884,-0.967,-0.225,-0.104,-0.210,-13.370,-6.370
16573908,-0.954,-0.256,-0.057,-0.420,-12.110,-5.740
16573928,-0.951,-0.247,-0.042,1.050,-7.770,-5.320
16573947,-0.961,-0.244,-0.056,2.240,-7.070,-6.160
16573968,-0.969,-0.249,-0.057,-0.490,-5.250,-5.810
16573987,-0.973,-0.216,-0.069,1.120,-3.640,-6.650
16574012,-0.974,-0.224,-0.085,-1.050,-4.410,-7.140
16574032,-0.988,-0.212,-0.082,-1.750,-5.040,-9.030
16574051,-0.996,-0.232,-0.084,-3.360,-6.300,-10.150
16574073,-0.976,-0.260,-0.085,-0.700,-9.170,-9.730
16574093,-0.976,-0.222,-0.083,3.010,-10.570,-10.010
16574113,-0.974,-0.224,-0.080,0.350,-9.380,-11.690
16574137,-0.966,-0.282,-0.074,4.760,-8.120,-13.090
16574157,-0.968,-0.271,-0.061,9.590,-8.330,-12.880
16574177,-0.968,-0.226,-0.052,6.160,-10.920,-14.560
16574193,-0.976,-0.228,-0.045,3.850,-9.800,-15.330
16574213,-0.959,-0.301,-0.048,6.440,-6.930,-16.030
16574233,-0.954,-0.291,-0.047,7.560,-4.830,-15.470
16574255,-0.977,-0.212,-0.069,6.440,-5.040,-15.890
16574278,-1.021,-0.107,0.075,-11.830,-7.280,-13.300
16574298,-0.818,-0.410,-0.063,6.720,-5.320,-12.950
16574315,-0.951,-0.375,-0.056,6.440,-8.120,-8.680
16574334,-0.942,-0.263,-0.065,4.340,-10.780,-8.750
16574359,-0.930,-0.311,-0.044,-0.350,-10.570,-11.060
16574379,-0.958,-0.331,-0.030,2.380,-11.900,-9.660
16574398,-0.981,-0.293,0.000,0.840,-8.680,-6.650
16574419,-0.958,-0.298,0.000,-3.360,-7.630,-7.560
16574435,-0.916,-0.294,-0.004,-2.800,-5.600,-7.490
16574458,-0.900,-0.361,-0.032,1.890,1.890,-9.590
16574479,-0.953,-0.343,-0.015,12.390,0.980,-9.660
16574499,-1.003,-0.271,-0.032,8.750,-0.490,-9.520
16574518,-0.906,-0.340,-0.033,4.340,1.960,-7.000
16574538,-0.949,-0.361,-0.020,8.400,5.320,-6.300
16574562,-0.905,-0.332,0.008,6.090,7.630,-4.620
16574578,-0.877,-0.393,0.019,7.630,11.760,-3.920
16574602,-0.963,-0.263,0.051,1.890,19.040,-5.740
16574622,-0.913,-0.326,-0.044,-16.450,20.790,-3.430
16574641,-0.952,-0.422,-0.120,-5.600,18.340,-1.330
16574662,-0.925,-0.321,-0.112,-2.380,16.660,17.850
16574686,-0.967,-0.341,-0.097,-10.010,12.600,-0.070
16574706,-0.883,-0.362,-0.071,-1.750,15.050,-0.980
16574726,-0.971,-0.275,-0.088,-7.420,13.300,-2.380
16574744,-0.988,-0.242,-0.178,-9.520,7.840,-4.480
16574764,-0.960,-0.308,-0.170,-7.420,4.060,-7.070
16574786,-0.932,-0.347,-0.137,-0.840,0.560,-5.040
16574810,-0.960,-0.312,-0.075,2.100,-0.630,-4.060
16574834,-0.951,-0.280,-0.062,-9.870,1.120,-5.110
16574854,-0.938,-0.355,-0.107,-10.360,2.380,-4.480
16574874,-0.921,-0.343,-0.102,-6.440,3.780,-3.640
16574893,-0.920,-0.321,-0.138,-3.780,0.630,-2.870
16574912,-0.916,-0.357,-0.138,-6.650,-1.750,-1.750
16574936,-0.915,-0.376,-0.139,-0.700,-1.540,-0.910
16574960,-0.952,-0.385,-0.102,2.800,-2.520,0.630
16574980,-0.955,-0.324,-0.119,5.880,-4.270,1.260
16574999,-0.940,-0.339,-0.140,2.170,-5.110,1.750
16575019,-0.927,-0.334,-0.110,1.610,-4.620,1.960
16575041,-0.936,-0.330,-0.125,-1.330,-5.950,2.590
16575065,-0.933,-0.350,-0.149,-0.210,-7.770,4.130
16575085,-0.955,-0.313,-0.130,-0.910,-9.660,5.390
16575104,-0.951,-0.329,-0.118,-0.840,-10.850,6.370
16575128,-0.938,-0.360,-0.075,2.030,-10.430,7.490
16575148,-0.933,-0.313,-0.103,-1.190,-10.500,9.030
16575167,-0.933,-0.333,-0.104,-4.410,-11.620,10.360
16575186,-0.943,-0.342,-0.107,-3.570,-11.620,11.620
16575210,-0.953,-0.277,-0.099,-3.220,-12.250,12.040
16575230,-0.962,-0.298,-0.078,-9.240,-11.760,14.000
16575250,-0.942,-0.344,-0.091,-3.430,-8.540,13.160
16575269,-0.934,-0.237,-0.056,-11.550,-6.720,14.770
16575290,-0.942,-0.319,-0.059,-20.230,-5.460,16.730
16575308,-0.952,-0.347,-0.045,-13.510,-1.400,18.410
16575332,-0.930,-0.283,-0.040,-12.040,1.540,20.300
16575352,-0.953,-0.309,-0.061,-8.820,5.180,20.930
16575372,-0.977,-0.245,-0.086,-5.320,8.260,20.930
16575390,-0.956,-0.219,-0.068,-6.720,9.450,20.510
16575409,-0.969,-0.248,-0.091,-7.140,10.430,19.250
16575434,-0.978,-0.235,-0.122,-2.310,8.680,19.110
16575454,-0.981,-0.202,-0.160,-4.200,3.710,19.460
16575474,-0.987,-0.231,-0.179,-2.380,1.260,18.830
16575494,-0.976,-0.183,-0.203,0.770,-4.270,17.920
16575514,-1.008,-0.144,-0.168,-1.120,-8.540,15.960
16575534,-1.038,-0.153,-0.127,-1.960,-11.620,12.880
16575551,-1.022,-0.158,-0.146,-1.680,-13.300,10.990
16575571,-0.997,-0.185,-0.153,-1.890,-16.240,10.010
16575595,-0.967,-0.186,-0.116,0.490,-13.930,8.960
16575615,-1.017,-0.165,-0.124,3.780,-17.430,7.560
16575635,-0.988,-0.131,-0.092,0.770,-16.940,5.040
16575655,-0.972,-0.129,-0.064,-0.210,-16.520,2.450
16575672,-0.972,-0.160,-0.050,0.000,-14.140,0.420
16575692,-0.966,-0.174,-0.052,2.520,-11.130,-0.770
16575716,-0.980,-0.198,-0.018,2.030,-9.030,-0.560
16575736,-0.969,-0.136,-0.048,0.770,-3.710,-0.420
16575756,-0.995,-0.171,-0.042,-2.380,-1.890,-1.260
16575774,-0.979,-0.181,-0.059,-3.990,0.560,-1.190
16575795,-0.996,-0.163,-0.122,-2.730,-3.150,-0.560
16575816,-0.990,-0.156,-0.106,-4.060,-6.020,-1.820
16575836,-1.008,-0.140,-0.091,-6.020,-7.560,-2.730
16575855,-0.982,-0.187,-0.076,-4.270,-7.910,-3.150
16575877,-0.979,-0.199,-0.070,-0.350,-6.020,-2.450
16575897,-0.971,-0.155,-0.067,1.260,-5.040,-2.590
16575914,-0.993,-0.168,-0.073,-0.070,-4.410,-3.150
16575938,-0.990,-0.195,-0.080,0.140,-4.760,-2.520
16575958,-0.974,-0.157,-0.081,-0.280,-4.620,-1.470
16575978,-0.985,-0.188,-0.068,-4.060,-4.480,-1.120
16576002,-1.014,-0.375,0.058,-1.610,-7.280,1.540
16576021,-0.994,-0.245,-0.082,10.360,2.800,3.150
16576042,-0.926,-0.202,-0.061,4.270,-1.610,4.270
16576061,-0.985,-0.211,-0.070,10.430,-4.900,5.810
16576086,-0.990,-0.206,-0.078,12.110,-4.410,9.520
16576106,-1.011,-0.163,-0.065,12.040,-3.570,9.730
16576124,-0.958,-0.148,-0.049,5.810,-3.430,10.780
16576148,-0.972,-0.169,-0.051,11.060,-0.630,10.920
16576167,-1.015,-0.147,-0.061,11.480,0.420,10.990
16576191,-0.942,-0.103,-0.037,5.180,0.910,10.920
16576210,-0.975,-0.129,-0.041,0.210,4.060,9.730
16576229,-0.993,-0.151,-0.032,-0.630,5.530,9.660
16576252,-1.001,-0.105,-0.018,-0.350,9.800,8.120
16576272,-1.014,-0.112,-0.090,-1.260,11.200,8.330
16576290,-0.974,-0.086,-0.110,-6.300,9.170,8.470
16576309,-0.995,-0.089,-0.038,-9.520,9.940,8.050
16576334,-0.951,-0.125,-0.037,-6.510,18.970,7.070
16576354,-0.999,-0.154,-0.098,-5.810,18.480,7.420
16576374,-0.966,-0.129,-0.050,-10.990,23.730,9.660
16576391,-0.963,-0.167,-0.120,-3.150,24.920,9.730
16576415,-1.014,-0.065,-0.146,1.330,25.200,8.820
16576435,-0.984,-0.118,-0.254,4.410,21.140,10.080
16576453,-1.013,-0.086,-0.217,3.780,20.020,12.390
16576473,-0.963,-0.033,-0.162,3.500,21.770,10.290
16576497,-0.946,-0.039,-0.138,5.670,22.050,7.070
16576516,-0.965,-0.140,-0.189,9.030,22.260,4.760
16576534,-1.032,-0.023,-0.201,-3.290,16.870,2.870
16576558,-1.026,-0.062,-0.264,1.260,14.980,3.990
16576574,-1.024,-0.009,-0.209,-4.340,10.080,2.520
16576594,-0.989,-0.060,-0.254,-11.200,6.160,0.630
16576613,-0.979,-0.091,-0.243,-7.700,4.200,0.910
16576638,-0.996,-0.054,-0.217,-5.460,2.590,0.140
16576658,-0.974,-0.088,-0.210,-7.000,1.260,-1.400
16576678,-1.010,-0.084,-0.206,-3.990,-0.350,-0.560
16576697,-0.978,-0.068,-0.239,-2.450,-2.450,-1.120
16576718,-0.993,-0.043,-0.223,-3.780,-3.640,-2.100
16576742,-0.961,-0.061,-0.218,0.070,-1.470,6.300
16576762,-0.637,-0.318,-0.157,40.320,33.670,21.350
16576779,-0.640,-0.143,-0.142,-1.400,-30.730,-10.430
16576798,-1.080,-0.141,-0.139,14.140,-30.520,-4.760
16576818,-1.472,0.104,-0.313,0.210,-22.260,-0.140
16576843,-1.094,-0.113,-0.239,2.450,-11.200,-1.330
16576863,-1.033,-0.019,-0.274,2.380,-15.120,-3.920
16576883,-1.042,0.023,-0.278,-8.890,-31.220,-10.220
16576899,-0.750,-0.036,-0.198,-5.600,-13.090,-22.890
16576918,-0.929,-0.077,-0.181,-7.770,-30.030,-25.060
16576943,-1.034,-0.134,-0.164,-0.560,-24.010,-18.200
16576963,-0.983,-0.112,-0.160,-1.190,-18.760,-15.470
16576987,-1.014,-0.068,-0.148,-1.470,-19.110,-16.450
16577005,-0.996,-0.110,-0.178,-0.910,-17.710,-17.290
16577027,-0.998,-0.104,-0.141,2.870,-18.060,-19.250
16577045,-0.986,-0.113,-0.181,6.930,-18.480,-19.950
16577066,-0.986,-0.134,-0.149,6.510,-19.670,-18.620
16577089,-0.977,-0.121,-0.118,7.000,-19.040,-19.460
16577109,-0.974,-0.138,-0.113,6.300,-18.130,-19.740
16577133,-0.963,-0.125,-0.130,4.480,-18.620,-19.180
16577151,-0.968,-0.165,-0.087,6.860,-19.460,-18.550
16577175,-0.983,-0.180,-0.112,6.440,-17.570,-18.200
16577195,-0.976,-0.138,-0.084,9.240,-17.220,-18.550
16577215,-1.003,-0.128,-0.107,7.840,-16.800,-18.760
16577235,-0.965,-0.185,-0.115,8.890,-15.680,-17.920
16577254,-0.993,-0.180,-0.073,9.730,-16.870,-35.770
16577278,-0.971,-0.188,-0.091,11.690,-14.420,-19.040
16577298,-0.981,-0.193,-0.081,7.490,-15.260,-18.340
16577318,-0.978,-0.209,-0.082,11.410,-16.380,-19.110
16577338,-0.965,-0.200,-0.055,7.070,-17.850,-20.370
16577362,-0.976,-0.207,-0.041,6.090,-0.630,-20.930
16577381,-0.960,-0.229,-0.001,7.770,-14.000,-21.770
16577404,-0.943,-0.233,-0.023,10.850,-9.660,-22.680
16577423,-0.988,-0.248,-0.018,12.320,-7.770,-22.540
16577447,-1.008,-0.173,-0.122,9.380,-11.200,-24.080
16577464,-0.995,-0.204,-0.101,3.150,-13.020,-23.800
16577483,-0.982,-0.291,-0.031,9.660,-16.590,-24.570
16577508,-0.944,-0.302,-0.065,16.450,-13.440,-21.630
16577528,-0.985,-0.249,-0.057,18.130,-15.120,-20.090
16577548,-0.965,-0.254,0.017,12.670,-16.450,-22.820
16577568,-0.969,-0.307,-0.005,8.260,-18.760,-20.580
16577588,-0.940,-0.259,-0.068,25.480,-10.360,-16.520
16577608,-0.950,-0.146,0.061,4.270,-12.110,-16.870
16577625,-0.904,-0.383,0.019,7.910,-6.650,-16.030
16577647,-0.965,-0.300,-0.024,5.110,-6.440,-13.860
16577666,-0.960,-0.278,-0.036,3.780,-8.190,-13.510
16577686,-0.971,-0.327,0.005,1.960,-11.200,-13.440
16577709,-0.940,-0.316,-0.006,-4.900,-12.810,-11.410
16577728,-0.936,-0.357,0.025,-6.370,-13.090,-8.190
16577753,-0.950,-0.293,0.049,-5.600,-8.610,-10.920
16577768,-0.915,-0.313,0.074,-5.740,-3.640,-12.600
16577793,-0.936,-0.327,0.026,-9.870,-0.490,-11.760
16577813,-0.915,-0.405,0.045,-5.180,6.510,-8.750
16577833,-0.965,-0.334,0.016,-8.820,3.220,-6.230
16577852,-0.913,-0.346,0.032,-10.990,3.850,-6.930
16577870,-0.929,-0.322,0.031,-7.140,6.790,-8.050
16577894,-0.963,-0.310,0.019,-11.760,4.480,-8.190
16577914,-0.902,-0.365,-0.023,-13.790,6.510,-8.960
16577934,-0.946,-0.328,-0.068,0.910,6.300,-6.930
16577952,-0.928,-0.235,-0.026,-7.210,4.690,-8.470
16577976,-0.895,-0.352,0.017,-11.620,4.480,-9.800
16577995,-0.894,-0.422,0.020,-4.130,7.910,-7.420
16578016,-0.922,-0.415,0.007,-15.120,6.790,-6.370
16578036,-0.951,-0.379,-0.111,-15.260,5.880,-6.160
16578056,-0.964,-0.344,-0.142,-16.940,3.500,-7.840
16578076,-1.055,-0.315,-0.124,-7.140,0.840,-9.590
16578094,-0.969,-0.305,-0.081,-10.360,1.750,-8.260
16578117,-0.897,-0.417,0.026,-8.400,-4.620,-5.670
16578139,-0.875,-0.444,0.048,-3.570,3.500,-1.960
16578157,-0.863,-0.397,-0.020,-4.620,4.340,-1.610
16578181,-0.809,-0.473,-0.060,-0.980,3.290,0.210
16578205,-0.850,-0.440,-0.065,8.890,1.050,0.280
16578225,-0.956,-0.357,-0.021,7.140,1.680,0.630
16578245,-0.944,-0.387,-0.058,12.460,3.710,1.330
16578260,-0.951,-0.353,-0.061,11.690,3.780,1.960
16578280,-0.937,-0.337,-0.067,8.890,2.170,1.120
16578305,-0.921,-0.380,-0.076,3.990,-0.490,1.120
16578324,-0.935,-0.424,-0.105,9.800,-1.680,2.520
16578344,-0.942,-0.354,-0.051,12.040,-2.800,3.570
16578364,-0.944,-0.372,-0.056,10.920,-4.270,5.110
16578388,-0.936,-0.397,-0.084,14.560,-5.670,6.230
16578404,-0.929,-0.343,-0.072,13.860,-6.930,7.210
16578424,-0.945,-0.313,-0.033,7.280,-9.520,7.210
16578446,-0.918,-0.379,-0.031,7.910,-7.980,7.210
16578468,-0.935,-0.332,-0.040,8.960,-8.890,8.680
16578486,-0.941,-0.325,-0.011,-0.070,-8.610,8.610
16578506,-0.933,-0.379,0.003,-0.420,-7.490,10.990
16578530,-0.932,-0.375,-0.005,1.610,-3.220,12.600
16578549,-0.923,-0.335,-0.027,-1.610,-2.870,14.770
16578570,-0.918,-0.340,-0.016,-10.150,-2.800,16.170
16578590,-0.924,-0.350,-0.008,-10.850,0.000,19.250
16578609,-0.945,-0.352,-0.002,-11.900,1.680,21.560
16578633,-0.946,-0.313,-0.033,-10.220,6.090,23.660
16578653,-0.973,-0.236,-0.046,-10.360,4.060,22.120
16578669,-1.006,-0.251,-0.063,-16.100,1.680,21.980
16578692,-0.987,-0.322,-0.100,-12.250,0.070,21.000
16578713,-0.987,-0.248,-0.066,-12.600,-2.520,20.720
16578737,-0.975,-0.241,-0.036,-14.770,-2.870,18.550
16578757,-0.980,-0.200,-0.005,-14.700,-2.450,16.450
16578777,-0.958,-0.303,-0.051,-4.970,3.290,16.310
16578795,-0.969,-0.272,-0.046,2.170,3.780,16.730
16578817,-0.974,-0.171,-0.061,-2.100,3.220,14.980
16578840,-0.991,-0.177,-0.103,-9.380,1.470,13.580
16578860,-0.989,-0.191,-0.072,-8.050,1.610,10.780
16578879,-0.972,-0.188,-0.065,-3.710,1.890,8.190
16578899,-1.005,-0.196,-0.098,-5.530,1.330,5.810
16578919,-0.987,-0.209,-0.131,-2.520,0.000,5.600
16578944,-0.992,-0.175,-0.136,-4.620,-5.390,4.060
16578964,-0.967,-0.204,-0.089,-3.990,-7.840,2.520
16578979,-0.999,-0.187,-0.076,0.070,-10.430,1.680
16579003,-0.980,-0.176,-0.105,-3.710,-11.830,0.700
16579027,-1.011,-0.239,-0.113,0.210,-16.030,0.630
16579046,-0.994,-0.184,-0.084,-2.870,-18.270,1.330
16579067,-0.975,-0.251,-0.033,-4.480,-17.010,1.540
16579086,-0.952,-0.248,-0.032,2.870,-16.170,3.500
16579110,-0.964,-0.241,-0.020,5.810,-12.250,5.810
16579125,-1.002,-0.233,-0.015,9.800,-12.040,7.280
16579150,-0.989,-0.179,-0.040,10.010,-10.710,8.750
16579169,-1.025,-0.124,-0.048,3.710,-13.720,8.400
16579190,-1.005,-0.215,-0.041,1.260,-14.770,9.590
16579208,-0.967,-0.227,-0.026,3.640,-14.420,12.320
16579227,-0.961,-0.198,0.005,3.640,-12.530,13.370
16579252,-0.969,-0.190,-0.008,1.400,-11.410,12.810
16579272,-1.003,-0.179,-0.033,-3.990,-10.010,12.390
16579292,-1.045,0.266,0.017,-24.570,-9.590,11.060
16579316,-0.861,-0.323,-0.030,-6.860,-9.100,13.230
16579336,-0.909,-0.142,0.048,-1.960,-6.090,13.160
16579356,-0.936,-0.136,0.037,6.020,-2.380,11.690
16579372,-0.978,-0.106,0.052,6.440,0.980,10.920
16579396,-1.008,-0.115,0.032,4.830,4.900,9.800
16579415,-1.010,-0.097,0.010,-0.210,5.880,9.940
16579436,-0.981,-0.144,-0.020,-0.840,7.350,9.450
16579456,-0.935,-0.141,-0.018,0.000,9.380,9.380
16579475,-0.965,-0.164,0.015,0.490,12.390,9.520
16579496,-1.031,-0.124,0.024,-0.560,14.490,10.990
16579516,-0.987,-0.099,0.015,-7.770,17.570,11.130
16579535,-0.996,-0.130,-0.027,-7.770,19.320,11.830
16579556,-0.994,-0.077,-0.064,-7.560,19.390,12.180
16579580,-0.997,-0.076,-0.079,-16.940,16.870,11.970
16579599,-0.999,-0.125,-0.128,-17.500,12.670,12.180
16579620,-0.957,-0.084,-0.108,-8.260,17.570,11.130
16579639,-0.969,-0.148,-0.084,4.130,14.770,11.830
16579660,-0.970,-0.108,-0.068,15.960,18.340,11.130
16579684,-0.981,-0.074,-0.104,10.080,16.730,7.910
16579704,-1.014,-0.018,-0.059,6.090,15.400,7.980
16579722,-0.981,-0.041,-0.072,4.620,19.600,4.970
16579745,-1.004,-0.065,-0.142,6.300,16.590,1.820
16579764,-1.014,-0.001,-0.140,-1.260,14.140,2.100
16579785,-0.993,-0.090,-0.167,0.630,10.920,1.400
16579809,-1.016,-0.074,-0.213,5.530,7.350,3.220
16579829,-1.024,-0.057,-0.191,6.020,1.960,2.380
16579848,-1.012,-0.023,-0.136,1.470,4.200,0.560
16579872,-0.971,-0.033,-0.168,-2.660,5.670,-2.660
16579887,-0.988,-0.007,-0.133,-4.620,4.900,-2.870
16579912,-1.014,-0.050,-0.043,-3.920,4.760,-5.250
16579932,-0.959,-0.098,-0.186,0.630,7.140,-5.740
16579956,-1.263,0.436,-0.333,-13.300,13.510,1.260
16579976,0.376,-0.228,-0.536,-20.510,90.930,0.560
16579991,-0.981,0.359,-0.162,-2.520,-35.840,-15.750
16580016,-1.409,0.000,-0.246,-7.560,-16.100,-4.830
16580035,-1.112,-0.005,-0.166,-18.270,-7.000,3.920
16580056,-1.004,-0.015,-0.199,-23.170,-6.370,6.510
16580079,-0.881,-0.064,-0.286,1.680,-18.270,-24.080
16580097,-1.022,-0.071,-0.185,6.300,-18.900,-24.150
16580121,-1.049,-0.104,-0.140,2.800,-22.050,-19.740
16580141,-1.016,-0.049,-0.173,-5.460,-24.290,-17.150
16580161,-0.972,-0.098,-0.153,-3.640,-26.600,-16.590
16580181,-1.022,-0.069,-0.131,-4.060,-29.610,-16.310
16580203,-0.977,-0.125,-0.107,-4.830,-30.450,-16.730
16580227,-0.973,-0.128,-0.081,-4.410,-29.610,-16.170
16580245,-0.966,-0.112,-0.098,1.610,-28.280,-14.630
16580264,-0.985,-0.113,-0.066,0.840,-27.790,-15.050
16580288,-0.992,-0.127,-0.041,-2.870,-26.250,-17.150
16580311,-0.971,-0.160,-0.020,0.840,-23.310,-16.870
16580332,-0.980,-0.162,-0.001,2.170,-19.040,-17.360
16580350,-0.977,-0.127,-0.017,-1.190,-15.890,-18.340
16580371,-1.018,-0.138,-0.018,-1.960,-16.030,-19.180
16580391,-0.996,-0.144,-0.042,0.000,-16.170,-19.950
16580415,-0.983,-0.169,-0.043,2.030,-15.820,-20.300
16580435,-0.996,-0.197,-0.025,2.870,-17.150,-20.020
16580453,-0.993,-0.205,-0.014,4.900,-15.890,-19.810
16580473,-0.972,-0.190,-0.007,8.470,-15.400,-20.090
16580495,-0.980,-0.195,0.015,6.090,-14.140,-20.790
16580514,-0.969,-0.176,0.033,7.560,-12.600,-22.260
16580539,-0.966,-0.217,0.033,6.230,-8.470,-24.150
16580559,-0.975,-0.233,0.042,10.220,-6.090,-23.170
16580578,-0.966,-0.233,0.040,12.810,-4.760,-23.170
16580602,-0.958,-0.183,0.080,13.790,-0.910,-26.180
16580617,-0.970,-0.262,0.004,4.060,2.590,-24.920
16580642,-0.975,-0.292,-0.034,12.180,-1.330,-22.750
16580662,-0.952,-0.241,-0.001,8.960,-0.350,-23.380
16580682,-0.953,-0.290,0.018,13.300,-0.560,-23.240
16580700,-0.998,-0.204,-0.015,7.560,-3.290,-23.450
16580718,-0.989,-0.290,0.015,6.650,-2.940,-22.960
16580742,-0.981,-0.314,0.052,8.050,-4.760,-22.400
16580761,-0.975,-0.339,0.040,10.430,-9.870,-22.890
16580785,-0.971,-0.309,-0.024,9.870,-7.630,-21.910
16580802,-0.969,-0.268,0.037,10.780,-3.780,-20.020
16580820,-0.973,-0.217,0.008,-0.910,-6.090,-21.350
16580843,-0.918,-0.347,-0.012,-2.100,-5.320,-20.510
16580865,-0.891,-0.354,0.023,1.400,-4.550,-20.790
16580885,-0.917,-0.338,0.066,-3.220,0.560,-19.950
16580905,-0.946,-0.398,0.059,-1.610,6.020,-13.720
16580925,-0.889,-0.346,0.035,-0.770,8.470,-12.740
16580944,-0.917,-0.403,0.041,-2.310,9.940,-14.210
16580962,-0.972,-0.351,0.021,-7.840,10.220,-11.480
16580986,-0.957,-0.399,-0.019,-3.360,12.320,-8.050
16581005,-0.897,-0.390,-0.015,2.590,14.140,-7.140
16581026,-0.895,-0.358,0.002,2.380,13.650,-6.650
16581046,-0.899,-0.366,-0.019,1.470,13.720,-5.180
16581065,-0.948,-0.360,-0.016,-1.540,13.930,-3.220
16581085,-0.975,-0.385,0.023,-5.530,15.890,-0.840
16581104,-0.932,-0.394,-0.036,0.910,19.460,-1.470
16581128,-0.921,-0.335,-0.060,-3.780,19.740,-0.560
16581148,-0.920,-0.383,-0.155,0.140,13.230,-2.240
16581168,-0.937,-0.305,-0.101,-6.790,8.190,-2.730
16581187,-0.983,-0.332,-0.044,-6.790,4.550,-4.270
16581206,-0.996,-0.308,-0.105,-2.100,8.610,-4.830
16581226,-0.962,-0.344,-0.148,5.110,3.220,-3.360
16581250,-0.963,-0.303,-0.079,2.660,-1.260,-5.250
16581271,-0.964,-0.317,-0.084,-4.830,-7.350,-7.770
16581291,-0.932,-0.369,-0.072,-6.510,-5.740,-4.690
16581311,-0.897,-0.381,-0.080,-4.340,-6.790,-1.820
16581335,-0.877,-0.429,-0.025,3.220,-4.620,-3.010
16581351,-0.883,-0.406,-0.020,0.420,-4.410,-2.590
16581374,-0.882,-0.395,-0.025,1.400,-2.240,-0.910
16581394,-0.895,-0.379,-0.036,-2.730,-1.400,-0.560
16581417,-0.930,-0.426,-0.076,2.730,-0.560,1.190
16581434,-0.976,-0.353,-0.109,5.880,-2.590,2.520
16581453,-0.952,-0.371,-0.101,4.760,-4.480,2.240
16581477,-0.930,-0.416,-0.069,9.590,-6.090,3.010
16581497,-0.950,-0.402,-0.056,13.650,-5.880,6.090
16581518,-0.938,-0.388,-0.051,12.180,-6.720,8.750
16581538,-0.932,-0.346,-0.032,7.000,-7.910,9.870
16581557,-0.933,-0.335,-0.026,3.710,-8.330,9.660
16581581,-0.923,-0.373,-0.038,1.610,-6.720,9.380
16581601,-0.916,-0.355,-0.058,4.970,-5.600,10.570
16581619,-0.926,-0.338,-0.051,1.890,-5.390,12.040
16581641,-0.943,-0.308,-0.027,-2.030,-6.020,12.600
16581661,-0.944,-0.310,-0.052,-10.010,-5.670,13.650
16581683,-0.970,-0.313,-0.041,-8.820,-5.460,14.140
16581705,-0.916,-0.290,0.014,-17.430,-3.920,13.860
16581729,-0.943,-0.370,-0.014,-16.310,-2.730,15.400
16581746,-0.954,-0.334,-0.046,-8.960,-0.630,16.240
16581765,-0.959,-0.327,-0.065,-7.140,-0.420,17.010
16581789,-0.964,-0.267,-0.060,-12.320,-0.630,17.500
16581806,-0.972,-0.219,-0.064,-13.720,-1.330,17.500
16581830,-0.975,-0.246,-0.053,-21.420,-0.840,16.450
16581850,-0.954,-0.308,-0.019,-16.660,0.560,15.330
16581870,-0.941,-0.287,-0.022,-9.800,2.800,15.330
16581889,-0.940,-0.284,-0.059,-7.350,5.810,16.240
16581907,-0.962,-0.229,-0.084,-7.840,6.790,16.520
16581930,-0.992,-0.234,-0.047,-7.140,5.740,14.980
16581946,-1.009,-0.211,-0.063,-6.860,5.110,13.440
16581971,-0.990,-0.200,-0.105,-6.230,3.780,11.830
16581986,-0.972,-0.183,-0.107,-6.650,2.800,9.520
16582011,-0.985,-0.213,-0.094,-4.270,0.980,6.650
16582031,-0.950,-0.234,-0.104,-0.210,1.750,5.530
16582051,-0.959,-0.209,-0.096,1.540,1.820,4.760
16582069,-1.001,-0.168,-0.079,-2.940,-0.700,3.570
16582092,-0.973,-0.243,-0.085,-4.060,-0.630,2.450
16582110,-0.970,-0.239,-0.112,-0.770,-0.630,2.590
16582130,-0.979,-0.221,-0.129,1.750,-2.310,2.870
16582149,-0.999,-0.194,-0.140,-2.170,-5.390,3.010
16582173,-1.003,-0.177,-0.101,-7.980,-10.500,2.030
16582193,-0.992,-0.227,-0.100,-4.900,-13.020,1.750
16582214,-0.974,-0.236,-0.096,-1.120,-12.950,2.520
16582234,-0.971,-0.251,-0.077,4.130,-10.990,3.710
16582254,-0.940,-0.209,-0.058,3.500,-8.190,3.710
16582274,-1.000,-0.221,-0.080,2.660,-8.330,2.730
16582294,-0.884,-0.175,-0.116,2.590,-12.180,3.360
16582313,-0.999,-0.194,-0.111,6.650,-10.710,4.830
16582337,-0.973,0.289,0.031,17.290,-6.580,9.520
16582355,-0.791,-0.310,-0.101,11.760,-1.750,0.700
16582374,-0.963,-0.304,-0.045,13.510,-12.880,4.760
16582394,-0.987,-0.195,-0.075,22.190,-12.810,7.140
16582418,-0.991,-0.122,-0.052,7.420,-13.300,5.250
16582438,-0.969,-0.192,-0.028,3.150,-12.390,4.200
16582462,-0.967,-0.232,0.012,6.860,-8.540,4.830
16582486,-0.971,-0.164,-0.031,6.370,-6.650,5.110
16582506,-0.952,-0.160,-0.004,-1.680,-5.320,4.760
16582525,-1.001,-0.217,0.001,0.630,-2.590,5.320
16582544,-1.007,-0.159,-0.030,1.050,0.210,6.860
16582566,-0.971,-0.146,-0.010,-2.030,1.680,5.810
16582589,-0.994,-0.154,-0.038,0.980,3.780,4.270
16582608,-1.011,-0.180,-0.033,2.800,3.990,3.920
16582633,-1.002,-0.123,-0.060,-0.630,1.890,3.570
16582653,-0.980,-0.156,-0.038,-5.460,1.890,2.870
16582672,-0.983,-0.185,-0.031,-0.280,3.570,2.870
16582691,-0.992,-0.160,-0.019,-1.750,2.800,4.480
16582714,-0.934,-0.197,-0.034,1.400,4.620,5.250
16582733,-0.963,-0.206,-0.016,3.990,9.240,6.510
16582758,-0.971,-0.193,-0.042,4.550,13.440,7.140
16582778,-0.980,-0.137,-0.031,-3.710,17.290,6.930
16582796,-0.976,-0.186,-0.021,-8.330,18.550,7.770
16582817,-1.011,-0.140,-0.113,-11.200,18.550,8.330
16582841,-0.977,-0.232,-0.126,0.000,11.480,11.760
16582859,-0.992,-0.140,-0.142,2.520,15.400,14.210
16582882,-1.031,-0.132,-0.164,-3.640,10.360,14.980
16582901,-0.977,-0.084,-0.174,-1.540,7.840,14.980
16582926,-1.027,-0.087,-0.145,1.470,5.040,14.420
16582946,-1.017,-0.057,-0.085,-4.270,5.740,10.430
16582965,-0.996,-0.070,-0.113,-7.350,6.440,7.700
16582989,-0.996,-0.056,-0.118,-11.900,5.740,6.510
16583009,-1.002,-0.085,-0.108,-16.380,5.180,5.390
16583029,-0.991,-0.106,-0.073,-8.890,5.880,6.790
16583053,-0.993,-0.043,-0.154,-10.010,8.820,2.730
16583072,-0.970,-0.132,-0.124,-7.000,9.310,2.870
16583092,-0.976,-0.151,-0.133,-0.630,10.290,4.060
16583113,-1.012,-0.125,-0.150,-4.060,9.660,12.880
16583133,-0.656,1.148,-0.301,-25.410,46.200,3.570
16583152,-0.090,-0.442,-0.046,-24.360,12.180,-27.160
16583171,-1.620,-0.196,-0.157,-11.060,-24.780,5.390
16583190,-0.983,-0.127,-0.096,16.870,3.080,7.490
16583214,-1.023,0.046,-0.237,16.870,17.850,15.400
16583234,-1.159,0.175,-0.272,12.810,-1.330,10.010
16583254,-0.869,-0.079,0.034,37.800,-12.740,-29.260
16583275,-0.980,-0.073,-0.189,14.910,-18.760,-12.670
16583295,-1.083,0.014,-0.210,14.910,-16.240,-10.080
16583319,-1.011,-0.069,-0.185,2.800,-16.520,-10.710
16583334,-0.987,-0.043,-0.195,5.950,-18.900,-11.690
16583359,-1.016,-0.013,-0.204,2.450,-24.990,-16.170
16583378,-1.013,-0.062,-0.170,1.330,-33.320,-19.530
16583399,-1.004,-0.073,-0.139,0.630,-31.640,-21.070
16583419,-0.992,-0.074,-0.135,-2.380,-30.030,-21.840
16583438,-0.993,-0.115,-0.116,-5.460,-30.940,-22.050
16583462,-0.978,-0.131,-0.072,-5.530,-29.120,-21.560
16583481,-0.985,-0.175,-0.029,-3.500,-25.970,-21.000
16583501,-0.963,-0.165,-0.065,-0.700,-21.980,-19.880
16583521,-0.963,-0.163,-0.056,-0.910,-21.140,-18.480
16583541,-0.977,-0.170,-0.031,2.170,-19.460,-17.430
16583565,-0.985,-0.154,-0.060,6.090,-18.200,-17.920
16583585,-1.009,-0.132,-0.072,5.950,-19.600,-18.900
16583604,-0.982,-0.192,-0.006,3.780,-16.380,-21.000
16583625,-0.971,-0.172,-0.030,2.450,-15.050,-21.630
16583649,-0.992,-0.193,-0.004,-0.490,-13.790,-23.030
16583669,-1.008,-0.183,-0.027,-1.470,-13.860,-24.500
16583689,-0.986,-0.201,-0.023,1.050,-13.090,-22.890
16583705,-0.973,-0.258,-0.020,6.020,-9.520,-22.400
16583729,-0.989,-0.208,-0.037,10.290,-9.450,-21.910
16583748,-1.012,-0.205,-0.007,6.160,-12.530,-22.750
16583769,-0.982,-0.198,0.004,1.890,-13.020,-23.590
16583789,-0.961,-0.252,0.035,4.690,-9.590,-23.660
16583809,-0.965,-0.285,0.027,8.120,-8.680,-22.750
16583832,-0.955,-0.258,0.012,11.620,-3.430,-22.610
16583856,-0.971,-0.254,-0.010,9.380,-1.540,-23.100
16583875,-0.966,-0.298,0.002,10.500,-0.770,-22.960
16583896,-0.972,-0.239,-0.047,11.200,-1.820,-23.870
16583916,-1.031,-0.256,-0.039,13.370,-7.350,-23.870
16583939,-0.972,-0.223,-0.016,4.970,-7.070,-25.270
16583960,-0.898,-0.345,0.025,7.700,-2.730,-25.970
16583979,-0.943,-0.328,0.019,11.340,-1.890,-24.290
16583995,-0.966,-0.293,0.018,6.790,-1.470,-24.010
16584019,-0.991,-0.304,-0.014,4.410,-3.150,-23.170
16584040,-0.912,-0.297,-0.004,-0.560,-2.170,-22.890
16584058,-0.959,-0.317,-0.014,2.380,-4.340,-22.750
16584077,-0.943,-0.394,-0.025,3.080,-4.550,-21.000
16584100,-0.959,-0.344,0.021,6.930,-6.020,-20.370
16584119,-0.929,-0.386,0.033,-2.310,-7.980,-18.340
16584139,-0.908,-0.395,0.050,1.050,-4.130,-17.500
16584163,-0.923,-0.362,0.028,-4.830,3.010,-13.790
16584182,-0.911,-0.374,0.021,-5.110,3.850,-14.070
16584201,-0.857,-0.473,0.020,1.820,9.660,-15.120
16584223,-0.905,-0.415,0.022,6.720,12.670,-13.860
16584243,-0.893,-0.353,0.034,-7.840,13.370,-11.480
16584267,-0.810,-0.386,0.020,-6.720,27.510,-5.950
16584287,-0.887,-0.323,0.071,-26.880,24.780,-5.250
16584307,-0.914,-0.500,0.003,-19.530,26.180,-5.460
16584324,-0.941,-0.420,-0.083,-6.510,24.220,-4.690
16584344,-0.920,-0.367,-0.107,-0.140,22.260,-5.040
16584364,-0.935,-0.417,-0.143,2.800,19.600,-5.250
16584384,-0.926,-0.356,-0.110,-1.120,15.820,-6.370
16584403,-0.952,-0.330,-0.087,-8.330,10.500,-6.090
16584428,-0.957,-0.366,-0.114,-16.240,8.750,-6.720
16584443,-0.880,-0.487,-0.134,-8.400,10.430,-5.950
16584466,-0.843,-0.443,-0.114,2.800,10.570,-7.000
16584485,-0.915,-0.437,-0.022,4.900,10.640,-4.550
16584505,-0.923,-0.410,-0.082,7.000,10.360,-2.730
16584529,-0.900,-0.412,-0.136,4.410,9.030,-3.080
16584549,-0.890,-0.387,-0.151,3.500,7.770,-2.800
16584565,-0.886,-0.412,-0.114,2.520,6.790,-2.660
16584590,-0.909,-0.438,-0.112,5.950,4.200,-2.310
16584609,-0.906,-0.431,-0.144,7.910,3.220,-2.520
16584629,-0.905,-0.412,-0.122,3.360,2.170,-1.330
16584653,-0.899,-0.446,-0.163,1.470,0.770,1.050
16584671,-0.944,-0.415,-0.127,2.310,-0.350,4.130
16584692,-0.927,-0.426,-0.145,6.440,-2.870,4.270
16584713,-0.924,-0.428,-0.137,5.460,-3.990,7.280
16584731,-0.916,-0.418,-0.140,4.200,-6.090,7.840
16584750,-0.933,-0.391,-0.102,2.730,-6.790,10.430
16584774,-0.895,-0.411,-0.119,0.280,-8.820,12.390
16584794,-0.891,-0.392,-0.123,-1.330,-9.100,13.370
16584815,-0.896,-0.420,-0.005,-1.750,-8.890,15.330
16584835,-0.933,-0.383,-0.123,0.350,-8.750,16.170
16584854,-0.963,-0.320,-0.103,-4.340,-11.130,16.660
16584874,-0.953,-0.358,-0.076,-8.750,-8.820,15.260
16584898,-0.940,-0.352,-0.066,-8.120,-7.980,17.080
16584916,-0.901,-0.436,-0.132,-1.190,-6.230,18.130
16584933,-0.957,-0.337,-0.119,-3.430,-8.540,21.210
16584958,-0.945,-0.304,-0.103,-10.570,-9.310,20.020
16584978,-0.973,-0.290,-0.096,-17.850,-10.640,20.370
16584996,-0.931,-0.365,-0.100,-15.260,-7.770,20.230
16585018,-0.957,-0.286,-0.067,-12.180,-8.190,19.600
16585040,-0.946,-0.317,-0.082,-13.440,-7.070,19.180
16585064,-0.953,-0.305,-0.076,-9.730,-5.250,18.480
16585083,-0.947,-0.289,-0.101,-4.970,-2.660,17.920
16585103,-0.967,-0.307,-0.113,-0.070,-3.990,17.780
16585122,-0.961,-0.220,-0.140,0.910,-6.230,17.290
16585146,-0.979,-0.244,-0.136,-3.360,-8.890,14.980
16585165,-0.995,-0.226,-0.135,-2.660,-12.110,13.300
16585182,-0.972,-0.205,-0.119,-6.720,-13.020,11.340
16585206,-0.980,-0.256,-0.097,-3.850,-15.330,8.470
16585223,-0.957,-0.211,-0.060,-7.140,-18.340,7.630
16585242,-0.941,-0.284,-0.100,-4.060,-16.800,6.580
16585266,-0.947,-0.251,-0.075,-2.730,-14.350,7.280
16585286,-0.971,-0.247,-0.056,-2.800,-11.270,7.770
16585308,-0.949,-0.265,0.012,-1.890,-6.930,6.510
16585332,-0.973,-0.260,-0.056,2.870,-3.290,7.070
16585352,-0.978,-0.242,-0.124,4.620,-5.390,7.420
16585372,-0.995,-0.183,-0.162,9.520,-7.840,7.980
16585390,-1.100,-0.019,-0.045,4.830,-20.720,6.230
16585410,-0.982,-0.316,-0.099,8.680,-12.530,3.150
16585434,-0.961,-0.291,-0.060,11.830,-13.510,6.860
16585453,-0.926,-0.198,-0.077,15.540,-12.950,6.300
16585473,-0.960,-0.144,-0.017,1.260,-18.060,4.830
16585497,-0.980,-0.201,-0.028,0.000,-16.520,3.080
16585516,-0.976,-0.209,-0.008,-0.210,-13.510,2.590
16585537,-0.966,-0.212,0.013,-3.640,-11.270,3.920
16585561,-0.923,-0.269,0.051,-1.680,-3.780,3.290
16585585,-0.974,-0.244,0.048,4.200,0.700,4.480
16585605,-0.975,-0.219,-0.008,6.720,5.320,5.880
16585625,-0.959,-0.228,-0.019,7.420,7.770,7.420
16585641,-0.963,-0.170,-0.032,4.620,9.240,7.700
16585661,-0.976,-0.193,-0.014,-2.450,11.410,7.420
16585684,-0.978,-0.242,-0.036,0.630,12.670,9.310
16585704,-0.973,-0.201,-0.050,0.770,13.370,10.920
16585724,-0.996,-0.167,-0.057,0.700,13.370,10.780
16585744,-0.975,-0.191,-0.036,-0.280,15.330,9.870
16585767,-0.974,-0.168,-0.060,0.420,16.940,10.500
16585788,-0.938,-0.164,-0.037,-7.840,20.650,10.010
16585808,-0.981,-0.198,-0.094,-12.950,20.930,12.110
16585828,-1.011,-0.170,-0.071,-13.720,20.300,12.950
16585847,-0.920,-0.179,-0.140,-6.510,24.850,14.700
16585864,-1.021,-0.120,-0.124,-5.250,18.760,14.070
16585883,-0.978,-0.163,-0.151,-5.670,21.140,12.250
16585908,-0.986,-0.165,-0.147,-6.160,19.180,14.490
16585928,-1.057,-0.087,-0.213,-10.150,14.840,15.610
16585948,-1.000,-0.123,-0.153,-8.890,14.420,15.750
16585967,-1.006,-0.145,-0.164,-6.440,14.140,16.730
16585987,-0.999,-0.142,-0.213,-3.500,7.630,14.210
16586011,-1.010,-0.058,-0.206,-2.870,4.130,9.590
16586031,-1.021,-0.024,-0.207,-7.140,-1.750,6.930
16586046,-1.024,-0.061,-0.231,-2.450,-2.520,4.830
16586071,-1.002,0.023,-0.206,-14.000,-4.830,-0.420
16586091,-0.990,-0.112,-0.137,-17.920,-5.040,-2.800
16586111,-0.979,-0.187,-0.155,-8.400,-1.610,1.330
16586130,-0.968,-0.266,-0.075,-0.770,0.560,7.490
16586153,-0.946,-0.133,-0.150,9.240,6.650,12.320
16586174,-0.946,-0.138,-0.163,9.660,8.540,12.390
16586194,-1.004,-0.040,-0.181,9.240,7.840,9.870
16586214,-0.912,-0.021,-0.062,12.740,17.430,20.720
16586237,-1.047,-0.124,-0.047,-36.540,-73.080,-31.360
16586258,-1.802,-0.017,-0.244,22.400,-33.530,-4.060
16586276,-0.774,-0.231,-0.196,35.000,15.120,-0.490
16586294,-1.049,0.112,-0.252,37.870,5.810,6.370
16586318,-0.992,0.007,-0.177,-1.820,2.310,0.910
16586336,-1.097,-0.005,-0.236,-4.620,-8.260,0.560
16586360,-0.803,-0.038,-0.184,-10.780,-13.510,-15.540
16586380,-1.125,0.046,-0.283,-14.490,-22.050,-15.400
16586400,-1.049,-0.125,-0.252,-0.910,-15.190,-11.970
16586419,-0.951,-0.069,-0.177,0.770,-19.110,-12.390
16586440,-0.990,-0.068,-0.146,-4.130,-23.240,-14.630
16586456,-1.003,-0.065,-0.163,-4.200,-24.780,-16.590
16586480,-0.997,-0.067,-0.174,-9.310,-24.640,-19.110
16586498,-0.981,-0.117,-0.185,-5.460,-24.920,-19.530
16586520,-0.985,-0.112,-0.150,-8.120,-28.560,-20.300
16586537,-1.001,-0.137,-0.149,-10.080,-30.380,-19.880
16586557,-0.998,-0.139,-0.101,-5.600,-31.360,-19.880
16586576,-1.000,-0.155,-0.099,-5.670,-31.430,-19.600
16586601,-0.976,-0.154,-0.104,-2.240,-30.310,-18.760
16586621,-0.965,-0.134,-0.067,-1.050,-28.630,-19.250
16586641,-0.984,-0.147,-0.051,-1.610,-27.790,-20.650
16586660,-0.981,-0.158,-0.020,-1.400,-25.130,-21.910
16586681,-0.965,-0.170,-0.030,1.050,-22.120,-23.730
16586699,-0.974,-0.191,-0.042,2.520,-19.880,-23.170
16586719,-0.951,-0.192,0.028,0.770,-18.690,-24.010
16586739,-0.973,-0.208,0.004,5.110,-14.280,-24.640
16586763,-0.980,-0.193,-0.010,5.040,-12.390,-24.640
16586781,-0.974,-0.203,-0.034,8.120,-12.670,-24.080
16586805,-0.981,-0.211,0.012,9.940,-11.200,-26.040
16586825,-0.960,-0.273,0.012,11.060,-7.210,-27.090
16586845,-0.977,-0.251,-0.012,14.910,-7.350,-27.230
16586865,-0.969,-0.252,0.002,7.210,-6.510,-26.110
16586889,-0.943,-0.274,0.008,12.600,-3.990,-27.020
16586909,-0.944,-0.252,-0.032,18.130,-0.630,-25.410
16586929,-0.973,-0.277,0.026,19.250,-2.100,-25.270
16586949,-0.970,-0.268,0.007,15.050,-0.140,-25.480
16586968,-0.959,-0.302,-0.048,15.540,-3.500,-22.540
16586991,-0.914,-0.344,0.016,17.080,1.540,-22.120
16587011,-0.949,-0.302,0.041,15.260,3.500,-22.190
16587032,-0.972,-0.265,-0.009,11.340,4.690,-21.280
16587052,-0.913,-0.354,-0.033,7.630,4.130,-21.350
16587071,-0.966,-0.324,-0.034,7.000,-1.750,-22.470
16587090,-0.929,-0.383,-0.000,6.440,1.470,-19.600
16587114,-0.996,-0.269,-0.007,-0.420,1.190,-17.920
16587138,-0.991,-0.249,-0.043,-4.200,-0.280,-21.490
16587158,-0.927,-0.279,-0.056,-9.170,-3.570,-24.150
16587178,-0.882,-0.484,-0.071,6.230,-4.760,-23.310
16587197,-0.959,-0.473,-0.059,26.950,-4.340,-18.480
16587217,-0.994,-0.283,0.018,18.480,-8.540,-16.520
16587236,-0.993,-0.240,0.032,6.300,-10.010,-18.830
16587261,-0.924,-0.351,0.007,-3.080,-8.120,-19.810
16587280,-0.875,-0.541,-0.008,14.140,-2.800,-13.720
16587300,-0.882,-0.460,0.024,13.300,0.070,-10.010
16587324,-0.887,-0.418,0.045,9.800,0.980,-10.990
16587344,-0.902,-0.372,0.060,2.800,5.740,-10.080
16587363,-0.907,-0.369,-0.001,-5.110,6.860,-6.370
16587384,-0.902,-0.447,-0.019,-2.730,5.950,-6.370
16587407,-0.887,-0.481,0.011,4.830,9.030,-3.710
16587431,-0.914,-0.441,0.018,10.290,9.660,-0.350
16587450,-0.915,-0.339,0.028,-0.840,9.940,-2.030
16587469,-0.914,-0.367,-0.021,-8.400,8.470,-3.850
16587489,-0.919,-0.449,-0.058,-4.480,7.630,-3.500
16587514,-0.904,-0.412,-0.042,-0.630,6.370,-2.450
16587530,-0.920,-0.400,-0.036,-5.670,5.810,-1.190
16587554,-0.905,-0.435,-0.041,-6.650,5.390,0.280
16587574,-0.897,-0.403,-0.014,-8.400,4.270,1.120
16587594,-0.890,-0.500,-0.064,-0.280,4.480,3.010
16587614,-0.918,-0.456,-0.089,2.520,2.660,6.790
16587638,-0.918,-0.395,-0.062,4.200,0.350,8.820
16587658,-0.921,-0.358,-0.041,1.820,0.980,8.960
16587678,-0.947,-0.398,-0.062,2.450,-0.140,9.940
16587697,-0.928,-0.395,-0.075,0.770,-1.610,11.270
16587714,-0.933,-0.386,-0.081,-1.330,-3.290,11.620
16587738,-0.931,-0.355,-0.067,-5.740,-4.830,12.950
16587758,-0.939,-0.348,-0.045,-8.470,-5.950,12.810
16587774,-0.944,-0.334,-0.040,-11.550,-4.970,12.950
16587794,-0.950,-0.406,-0.006,-12.110,-4.690,13.720
16587817,-0.915,-0.368,-0.070,-9.660,-6.020,14.140
16587837,-0.925,-0.388,-0.075,-8.120,-6.930,15.890
16587858,-0.950,-0.330,-0.068,-9.100,-7.000,17.010
16587882,-0.955,-0.310,-0.063,-10.850,-8.190,17.430
16587900,-0.948,-0.349,-0.093,-12.040,-8.890,16.730
16587924,-0.978,-0.316,-0.052,-11.690,-11.130,17.080
16587944,-0.968,-0.293,-0.044,-13.650,-11.200,16.030
16587964,-0.965,-0.325,0.004,-14.000,-10.990,15.260
16587984,-0.935,-0.333,-0.014,-8.890,-6.930,16.100
16588003,-0.932,-0.336,-0.025,-5.740,-3.500,17.430
16588027,-0.941,-0.292,-0.069,-1.260,-3.290,18.200
16588046,-0.998,-0.238,-0.079,-1.750,-6.440,17.150
16588067,-0.993,-0.243,-0.063,-2.590,-8.050,16.170
16588087,-0.976,-0.258,-0.019,-3.850,-8.330,14.490
16588106,-0.959,-0.271,-0.022,-1.750,-7.210,13.580
16588131,-0.944,-0.232,-0.057,-4.340,-4.690,12.040
16588151,-0.977,-0.231,-0.047,-1.680,-5.250,10.640
16588170,-0.979,-0.206,-0.072,-5.810,-5.530,9.590
16588191,-0.976,-0.256,-0.081,-9.310,-10.360,9.170
16588211,-0.955,-0.250,-0.049,-10.080,-11.900,9.660
16588235,-0.969,-0.252,-0.019,-8.470,-13.650,9.450
16588255,-0.996,-0.230,-0.038,-2.730,-12.810,9.380
16588279,-0.971,-0.240,-0.020,-4.620,-13.510,9.730
16588298,-0.960,-0.272,0.018,-2.310,-12.250,10.150
16588318,-0.956,-0.255,-0.017,-0.140,-8.890,11.270
16588338,-0.988,-0.223,-0.018,1.890,-8.610,11.270
16588361,-0.956,-0.244,0.001,0.700,-6.230,11.690
16588382,-0.962,-0.246,-0.019,7.840,-4.760,13.300
16588402,-0.966,-0.226,-0.007,11.270,-3.220,13.160
16588422,-0.990,-0.193,-0.014,11.760,-5.670,13.300
16588442,-1.028,-0.171,-0.023,10.990,-4.760,13.020
16588461,-0.976,-0.181,-0.021,10.010,-6.090,12.670
16588485,-0.930,-0.191,0.000,14.980,-3.290,12.600
16588505,-0.965,-0.206,0.018,19.670,-1.820,12.740
16588520,-0.986,-0.166,0.014,17.430,0.420,12.670
16588540,-0.991,-0.168,-0.020,12.880,0.840,13.650
16588565,-0.953,-0.160,-0.008,11.410,0.770,13.580
16588584,-0.984,-0.111,-0.015,10.150,1.960,12.390
16588605,-0.994,-0.117,0.013,6.230,1.680,10.850
16588627,-0.979,-0.164,0.028,5.180,7.630,9.660
16588648,-0.954,-0.171,0.063,2.870,9.870,11.340
16588669,-0.991,-0.152,0.015,1.820,15.960,12.040
16588688,-0.985,-0.104,-0.018,-1.750,16.380,11.830
16588712,-0.976,-0.144,0.003,-0.700,20.510,10.570
16588731,-1.026,-0.074,-0.038,-10.640,17.080,10.150
16588750,-1.007,-0.101,-0.089,-17.850,15.820,8.120
16588774,-1.017,-0.121,-0.068,-16.520,12.460,9.520
16588795,-1.023,-0.130,-0.044,-0.350,16.660,9.940
16588815,-1.025,-0.143,-0.085,5.110,17.780,7.420
16588835,-0.965,-0.077,-0.111,-2.170,17.780,6.440
16588855,-1.059,-0.061,-0.123,-8.050,14.420,7.840
16588875,-1.026,-0.102,-0.088,-10.290,11.830,8.050
16588891,-0.988,-0.155,-0.104,-3.430,11.970,7.350
16588911,-1.014,-0.125,-0.123,0.000,11.480,7.560
16588931,-1.016,0.022,-0.102,1.890,10.010,5.390
16588955,-1.000,0.013,-0.139,-13.090,7.910,-0.840
16588975,-1.028,-0.049,-0.157,-16.940,2.590,-3.010
16588994,-0.982,-0.107,-0.153,-12.320,0.560,-2.590
16589014,-0.992,-0.122,-0.161,-10.010,0.420,-1.470
16589035,-0.969,-0.133,-0.087,-10.290,3.290,1.120
16589055,-0.969,-0.158,-0.066,-4.900,6.930,3.430
16589074,-0.982,-0.119,-0.142,3.710,7.000,5.110
16589094,-0.993,-0.059,-0.159,2.240,6.090,4.270
16589113,-1.019,-0.007,-0.145,-2.170,4.900,2.310
16589138,-1.003,0.055,0.047,-9.800,5.460,-5.180
16589158,-0.966,-0.282,-0.098,13.020,22.400,10.220
16589178,-1.124,0.097,-0.141,1.680,4.760,-1.890
16589196,-1.171,-0.005,-0.206,13.370,-1.540,0.980
16589214,-0.996,-0.030,-0.185,4.130,0.210,-4.760
16589238,-1.016,-0.025,-0.168,-3.290,-0.840,-5.110
16589262,-1.072,-0.079,-0.199,-2.800,-1.750,0.840
16589281,-0.923,-0.113,-0.186,-2.030,-13.300,-4.060
16589304,-0.988,-0.035,-0.224,3.290,-17.640,-10.010
16589325,-1.019,-0.071,-0.194,-17.920,-20.370,-9.170
16589345,-0.968,-0.122,-0.159,3.990,-18.550,-8.750
16589365,-1.002,-0.045,-0.137,4.550,-19.670,-7.840
16589389,-1.002,-0.010,-0.156,-1.610,-21.560,-10.290
16589406,-1.015,-0.018,-0.139,-5.180,-24.290,-13.370
16589427,-1.015,-0.086,-0.105,-2.030,-25.410,-16.660
16589447,-0.999,-0.102,-0.144,-0.910,-26.320,-16.520
16589471,-0.973,-0.126,-0.115,-1.610,-28.490,-16.030
16589490,-0.994,-0.108,-0.085,0.420,-27.510,-15.400
16589511,-0.987,-0.093,-0.068,0.140,-25.550,-16.660
16589531,-0.996,-0.089,-0.055,-1.470,-24.570,-17.850
16589551,-0.992,-0.132,-0.062,-0.070,-23.660,-16.520
16589575,-0.967,-0.148,-0.046,2.660,-22.540,-17.430
16589594,-0.991,-0.141,-0.033,0.140,-22.260,-17.220
16589615,-0.991,-0.190,-0.006,0.070,-23.170,-18.060
16589631,-0.975,-0.163,-0.041,3.220,-19.810,-17.640
16589654,-1.018,-0.144,-0.022,6.580,-20.860,-17.570
16589674,-0.978,-0.127,0.011,9.590,-18.480,-18.830
16589692,-0.993,-0.117,-0.002,4.620,-17.360,-21.000
16589711,-0.957,-0.152,0.036,-0.070,-16.590,-22.610
16589736,-0.953,-0.222,0.016,1.190,-13.090,-21.840
16589755,-0.965,-0.208,0.035,4.270,-11.760,-22.470
16589779,-0.976,-0.214,0.035,10.430,-8.330,-22.540
16589797,-0.970,-0.173,0.054,-17.570,-7.070,-21.980
16589816,-0.956,-0.222,0.051,1.120,-5.250,-23.520
16589841,-0.955,-0.218,0.044,1.750,0.000,-25.410
16589861,-1.015,-0.283,0.007,5.460,-1.820,-25.690
16589881,-0.979,-0.251,0.025,7.770,-2.240,-24.570
16589900,-0.985,-0.199,-0.024,3.570,-3.150,-23.800
16589919,-0.968,-0.308,0.117,3.290,-3.920,-23.100
16589942,-0.968,-0.271,0.063,4.900,-3.500,-23.100
16589963,-0.973,-0.336,0.013,12.880,-0.350,-21.000
16589987,-0.965,-0.138,-0.009,17.780,-0.490,-19.460
16590007,-0.973,-0.257,0.024,14.280,0.280,-20.370
16590027,-0.983,-0.304,0.040,10.290,2.240,-19.530
16590047,-0.996,-0.267,0.006,11.550,4.270,-19.320
16590066,-0.977,-0.333,-0.007,13.650,3.850,-18.970
16590085,-0.972,-0.280,-0.037,13.440,2.450,-18.270
16590110,-1.036,-0.122,0.021,-5.950,-11.130,-16.940
16590130,-0.933,-0.326,-0.068,12.390,-3.570,-18.340
16590150,-0.907,-0.392,-0.020,16.730,-6.860,-17.360
16590170,-0.941,-0.339,0.017,14.980,-11.060,-18.550
16590194,-0.918,-0.324,0.017,9.380,-9.940,-16.730
16590214,-0.929,-0.373,0.017,11.620,-6.020,-14.280
16590233,-0.973,-0.240,0.049,8.260,-3.640,-16.380
16590254,-0.921,-0.312,0.062,-14.770,-3.570,-17.850
16590274,-0.919,-0.447,0.067,-20.370,-3.500,-15.330
16590298,-0.886,-0.445,0.081,-12.390,5.250,-6.300
16590316,-0.963,-0.308,0.087,-12.740,10.080,-5.950
16590337,-0.917,-0.344,0.016,-14.840,12.880,-7.630
16590361,-0.953,-0.389,-0.066,-7.420,10.080,-6.720
16590379,-0.902,-0.438,-0.053,0.070,7.420,-6.090
16590400,-0.933,-0.355,-0.025,1.960,1.820,-6.930
16590421,-0.981,-0.353,0.004,-4.550,2.730,-3.990
16590441,-0.956,-0.344,-0.010,-10.220,6.300,-4.760
16590465,-0.902,-0.473,0.024,-1.540,9.660,-3.360
16590485,-0.878,-0.393,-0.009,-0.210,8.960,-2.240
16590505,-0.872,-0.458,-0.003,-5.110,9.940,-2.380
16590525,-0.873,-0.414,0.011,-1.680,10.990,-0.490
16590545,-0.911,-0.411,-0.028,-3.080,12.040,0.490
16590564,-0.916,-0.385,-0.070,2.730,12.810,1.470
16590589,-0.943,-0.306,-0.067,0.840,9.800,0.350
16590608,-0.933,-0.334,-0.059,-5.600,5.740,-1.400
16590629,-0.924,-0.396,-0.066,-0.280,4.130,-1.190
16590649,-0.912,-0.395,-0.073,2.940,3.010,0.210
16590667,-0.932,-0.382,-0.054,-2.660,0.490,0.560
16590691,-0.966,-0.385,-0.109,-4.410,-2.240,3.850
16590711,-0.983,-0.394,-0.133,3.290,-5.110,7.420
16590729,-0.983,-0.381,-0.108,5.740,-8.820,9.450
16590753,-0.962,-0.373,-0.099,8.750,-11.270,13.160
16590768,-0.956,-0.363,-0.068,3.500,-11.830,15.470
16590793,-0.965,-0.325,-0.006,-3.640,-10.850,20.650
16590813,-0.979,-0.361,0.078,-14.070,-8.190,25.130
16590833,-0.925,-0.394,0.110,-16.240,0.630,28.700
16590853,-0.956,-0.350,0.136,-11.830,9.030,29.330
16590877,-0.951,-0.333,-0.159,-5.390,32.060,31.710
16590897,-1.386,0.055,-0.129,-0.910,78.260,60.690
16590916,-1.153,-0.073,-0.145,50.260,85.050,68.180
16590939,-1.093,0.326,-0.230,-37.100,51.450,42.910
16590958,-1.201,0.249,-0.012,-62.160,13.370,49.630
16590983,-1.024,0.062,0.179,-72.520,-17.010,50.540
16591002,-0.868,-0.255,0.192,-23.940,-30.590,50.820
16591021,-0.947,-0.315,-0.109,-1.400,-47.530,51.870
16591041,-1.000,-0.511,-0.223,38.780,-47.530,38.360
16591061,-0.806,-0.421,-0.202,62.090,-50.540,38.920
16591085,-0.691,-0.397,-0.358,55.720,-31.990,35.910
16591104,-0.969,-0.159,-0.905,-10.990,-25.760,26.320
16591128,-0.813,-1.076,0.142,-17.360,-33.460,-2.100
16591147,-0.980,-0.334,0.144,46.340,-35.910,-1.400
16591167,-1.078,0.020,-0.037,-7.560,-22.890,0.070
16591186,-0.977,-0.085,-0.031,-26.740,-18.130,-2.660
16591209,-1.072,-0.102,0.098,-23.940,-15.680,-6.510
16591229,-1.010,-0.098,0.062,-21.350,-9.870,-4.690
16591253,-1.009,-0.111,0.023,-21.070,-0.350,-3.430
16591273,-1.129,-0.065,0.088,-8.190,2.660,-2.310
16591292,-1.067,0.004,-0.033,-11.200,9.100,-0.350
16591312,-1.057,-0.043,-0.083,-6.300,7.630,-4.340
16591337,-0.986,-0.083,-0.085,-3.640,5.530,-5.740
16591355,-0.986,-0.166,-0.065,-2.380,3.080,-4.900
16591379,-0.990,-0.218,-0.069,5.320,1.610,-3.080
16591399,-1.019,-0.122,-0.052,8.330,0.980,-1.680
16591420,-0.982,-0.083,-0.068,5.460,0.560,-2.520
16591440,-0.988,-0.130,-0.060,4.900,-0.560,-2.310
16591459,-0.994,-0.147,-0.084,8.750,-0.980,-1.610
16591484,-1.044,-0.118,-0.084,13.650,-4.970,-0.070
16591508,-1.027,-0.071,-0.061,2.310,-6.790,-0.770
16591527,-0.986,-0.115,-0.067,-0.280,-5.600,-0.770
16591547,-0.971,-0.107,-0.047,1.680,-3.570,-0.280
16591566,-0.961,-0.091,-0.034,-0.910,-3.290,-1.260
16591590,-0.962,-0.123,-0.063,-1.820,-1.050,-0.140
16591611,-0.977,-0.136,-0.084,1.120,-1.960,1.260
16591631,-1.050,-0.145,-0.061,4.340,-4.130,3.290
16591655,-1.026,-0.129,-0.068,3.010,-5.810,4.620
16591674,-0.912,-0.060,-0.063,0.840,-4.480,4.060
16591695,-0.958,-0.144,0.026,5.530,0.560,2.800
16591714,-1.038,-0.146,-0.032,6.510,3.500,4.060
16591738,-1.008,-0.112,-0.036,-3.010,3.500,6.230
16591758,-1.003,-0.092,-0.029,-4.550,4.060,6.020
16591777,-0.984,-0.100,-0.039,1.540,7.490,4.900
16591798,-0.996,-0.118,0.029,7.980,15.120,4.690
16591817,-0.957,-0.122,0.041,8.820,22.610,3.430
16591836,-0.976,-0.066,0.057,-0.700,27.230,2.520
16591860,-0.969,-0.148,-0.028,1.750,34.160,2.100
16591880,-0.995,-0.052,-0.345,4.830,25.690,1.820
16591900,-1.083,-0.026,-0.277,4.900,14.770,5.040
16591920,-1.061,0.006,-0.200,8.120,5.530,3.290
16591936,-0.991,-0.031,-0.086,2.450,4.760,-0.420
16591960,-0.932,-0.118,-0.135,-0.630,6.160,-2.590
16591980,-0.973,-0.081,-0.155,-1.540,4.060,-1.260
16591995,-0.988,-0.022,-0.206,-3.850,1.120,-2.940
16592015,-1.058,-0.053,-0.112,-8.050,-0.770,-3.850
16592040,-0.950,-0.100,-0.106,-6.160,1.890,-6.720
16592060,-0.976,-0.140,-0.114,-11.550,4.340,-5.810
16592077,-0.987,-0.146,-0.177,-8.610,3.220,0.280
16592101,-0.983,-0.135,-0.127,-4.690,1.400,4.480
16592121,-1.010,-0.085,-0.174,-2.380,4.970,3.710
16592141,-0.989,-0.148,-0.098,13.860,7.490,3.640
16592161,-1.015,-0.209,-0.135,8.050,17.850,13.230
16592183,-0.676,-0.053,-0.079,-6.300,26.880,-8.400
16592203,-0.910,0.038,-0.233,8.400,5.670,-1.330
16592227,-0.869,-0.078,-0.169,-9.170,6.930,-7.560
16592243,-1.124,-0.151,-0.168,10.360,4.200,-4.970
16592262,-0.986,-0.073,-0.182,7.770,5.110,-3.360
16592287,-1.029,-0.047,-0.214,0.840,-4.340,-2.450
16592307,-1.029,-0.025,-0.210,-4.760,-7.140,-4.970
16592325,-1.046,-0.070,-0.196,-5.530,-6.020,-5.880
16592348,-1.051,-0.111,-0.175,-5.740,-7.980,-4.130
16592368,-1.033,-0.091,-0.196,-6.790,-9.940,-1.680
16592389,-0.952,-0.078,-0.192,-7.070,-14.350,-5.530
16592409,-0.858,-0.100,-0.196,2.380,-9.660,-8.540
16592428,-0.999,-0.078,-0.167,4.270,-15.330,-9.310
16592448,-1.017,-0.086,-0.138,2.590,-15.750,-8.680
16592471,-1.007,-0.088,-0.129,1.680,-15.330,-9.870
16592492,-0.968,-0.067,-0.161,1.680,-14.490,-10.570
16592512,-1.001,-0.068,-0.116,1.750,-15.890,-12.110
16592532,-0.997,-0.075,-0.106,0.560,-14.560,-14.840
16592550,-0.990,-0.084,-0.124,0.420,-13.860,-16.520
16592574,-0.972,-0.113,-0.112,0.350,-12.390,-17.150
16592592,-0.972,-0.130,-0.143,2.240,-10.920,-16.170
16592614,-0.990,-0.120,-0.129,3.360,-12.110,-15.890
16592634,-0.983,-0.159,-0.121,4.900,-12.110,-15.470
16592653,-0.992,-0.119,-0.153,4.550,-13.370,-15.610
16592678,-1.015,-0.116,-0.100,1.960,-15.050,-16.800
16592696,-1.012,-0.116,-0.100,-0.630,-15.400,-17.780
16592718,-0.998,-0.168,-0.114,-0.420,-15.470,-18.760
16592733,-0.978,-0.177,-0.109,3.360,-15.540,-17.640
16592754,-1.026,-0.200,-0.111,7.630,-14.770,-16.660
16592775,-0.996,-0.164,-0.112,9.170,-18.830,-15.050
16592795,-0.991,-0.174,-0.079,13.020,-18.200,-15.750
16592818,-0.995,-0.150,-0.057,7.630,-19.390,-16.170
16592839,-0.953,-0.222,-0.041,6.650,-17.990,-15.680
16592863,-0.964,-0.257,-0.014,9.520,-15.330,-13.160
16592878,-0.968,-0.222,-0.001,10.220,-13.300,-12.320
16592903,-0.971,-0.159,-0.009,5.600,-9.100,-13.230
16592921,-0.988,-0.142,-0.029,0.280,-6.930,-15.750
16592942,-0.951,-0.209,-0.030,6.020,-6.860,-15.260
16592961,-0.964,-0.220,-0.025,4.270,-3.500,-16.730
16592985,-0.988,-0.240,-0.042,6.860,-5.600,-14.980
16593005,-0.976,-0.198,-0.055,3.780,-6.860,-14.630
16593025,-0.987,-0.223,-0.080,1.680,-10.150,-15.190
16593044,-0.970,-0.274,-0.041,4.060,-8.820,-14.070
16593064,-1.004,-0.250,-0.005,8.610,-6.090,-11.900
16593088,-0.996,-0.215,-0.022,3.010,-4.480,-11.690
16593103,-0.985,-0.217,-0.036,-2.030,-5.320,-12.180
16593128,-0.959,-0.230,-0.104,-4.480,-8.540,-13.930
16593148,-1.017,-0.261,-0.090,3.570,-12.110,-15.050
16593168,-0.993,-0.213,-0.027,-0.770,-12.950,-16.730
16593183,-0.993,-0.263,-0.014,-2.100,-13.160,-15.330
16593208,-0.926,-0.331,0.041,4.200,-9.940,-13.790
16593227,-0.910,-0.303,0.039,7.420,-7.910,-13.440
16593245,-0.942,-0.312,0.009,9.730,-2.450,-11.900
16593269,-0.975,-0.256,0.021,7.910,-0.910,-10.080
16593289,-0.948,-0.288,0.020,4.410,1.190,-10.150
16593308,-0.965,-0.297,0.017,3.080,2.380,-8.610
16593327,-0.908,-0.304,0.002,2.800,6.930,-9.800
16593352,-0.932,-0.333,0.000,4.060,8.540,-9.450
16593372,-1.005,-0.324,-0.029,14.070,12.810,-4.620
16593390,-0.978,-0.270,-0.032,7.210,11.060,-2.240
16593414,-0.984,-0.228,-0.035,-5.110,6.300,-4.060
16593431,-0.971,-0.277,-0.066,-6.090,3.780,-5.320
16593455,-0.968,-0.321,-0.118,-9.380,2.520,-5.600
16593475,-0.953,-0.339,-0.076,2.100,4.130,-4.900
16593495,-0.973,-0.191,-0.026,-2.660,0.140,-7.490
16593514,-0.962,-0.267,-0.008,-13.160,1.470,-6.720
16593534,-0.943,-0.399,-0.052,0.350,2.450,-5.460
16593557,-0.955,-0.378,0.000,1.190,-3.640,-3.150
16593575,-0.925,-0.343,-0.039,-4.690,1.610,-1.330
16593594,-0.934,-0.317,-0.082,-5.110,-0.560,-1.680
16593618,-0.927,-0.323,-0.090,-4.340,-1.610,-1.330
16593637,-0.921,-0.317,-0.030,-4.340,-0.560,-0.770
16593656,-0.922,-0.329,-0.032,-3.360,-0.630,-0.630
16593681,-0.929,-0.304,-0.043,-5.320,0.140,0.560
16593699,-0.949,-0.338,-0.063,-4.760,0.210,1.820
16593721,-0.968,-0.355,-0.100,2.940,1.050,4.690
16593741,-0.972,-0.291,-0.081,3.990,0.350,6.370
16593761,-0.962,-0.315,-0.066,4.480,-0.980,6.650
16593777,-0.973,-0.316,-0.108,7.910,-2.380,8.120
16593796,-0.976,-0.267,-0.095,6.930,-4.060,8.680
16593821,-0.972,-0.277,-0.083,0.210,-6.440,9.730
16593841,-0.959,-0.296,-0.070,0.770,-7.280,10.430
16593861,-0.967,-0.250,-0.055,0.910,-6.510,11.410
16593880,-0.970,-0.258,-0.056,-4.690,-8.260,11.200
16593904,-0.959,-0.268,-0.054,-6.510,-10.850,12.600
16593923,-0.972,-0.282,-0.042,-3.290,-11.340,13.300
16593942,-0.960,-0.257,-0.040,-4.270,-8.470,13.790
16593964,-0.966,-0.232,0.008,-10.570,-6.580,14.000
16593984,-0.941,-0.299,-0.019,-10.150,-3.850,16.100
16594004,-0.946,-0.329,-0.069,3.080,-3.290,17.710
16594028,-1.017,-0.191,-0.120,5.740,-3.570,18.760
16594048,-1.003,-0.175,-0.070,1.610,-6.720,16.590
16594067,-1.009,-0.152,-0.047,-5.180,-10.290,13.440
16594083,-1.002,-0.199,-0.090,-8.890,-10.990,11.410
16594108,-1.031,-0.192,-0.074,-5.250,-16.800,11.760
16594124,-0.978,-0.179,-0.058,-7.070,-19.460,10.780
16594144,-0.977,-0.208,-0.018,-6.580,-21.140,9.380
16594167,-1.000,-0.145,-0.041,-8.400,-19.250,9.450
16594188,-0.957,-0.210,0.006,-8.820,-18.340,7.560
16594208,-0.948,-0.201,0.004,-5.950,-14.000,6.300
16594227,-0.954,-0.176,0.025,-5.880,-9.940,5.600
16594248,-0.981,-0.177,0.029,-3.920,-7.140,5.040
16594265,-0.979,-0.176,0.027,-1.820,-4.830,4.130
16594284,-0.973,-0.180,0.031,-4.550,-1.190,2.870
16594309,-0.965,-0.191,-0.020,-2.030,2.100,2.870
16594329,-0.970,-0.180,-0.001,-0.700,2.940,1.260
16594347,-0.989,-0.163,-0.021,0.770,3.990,1.330
16594369,-1.001,-0.195,-0.043,1.120,2.240,1.680
16594389,-1.059,0.110,-0.225,0.630,-3.710,7.770
16594409,-0.878,-0.191,-0.041,-12.670,-8.960,2.940
16594428,-0.999,-0.173,0.003,8.260,-4.830,4.410
16594452,-1.031,-0.163,-0.030,11.340,-1.820,4.760
16594469,-0.995,-0.184,-0.061,12.600,-3.780,5.320
16594489,-0.999,-0.146,-0.054,11.060,-6.860,6.650
16594509,-1.028,-0.156,-0.035,6.230,-10.080,7.280
16594533,-0.997,-0.213,-0.009,5.460,-13.860,10.150
16594553,-0.959,-0.203,-0.032,10.780,-11.270,11.690
16594569,-0.980,-0.163,-0.023,11.970,-12.040,12.320
16594592,-1.010,-0.142,0.029,9.170,-11.620,12.320
16594613,-0.955,-0.154,0.016,4.550,-5.460,12.880
16594633,-0.996,-0.176,0.027,1.750,-3.430,14.350
16594653,-1.008,-0.115,0.010,3.010,-2.730,15.680
16594673,-0.982,-0.102,-0.005,-0.420,-1.050,15.260
16594689,-1.058,-0.051,-0.011,-6.090,-2.380,13.160
16594713,-1.010,-0.107,0.041,-15.400,-6.790,9.940
16594733,-0.999,-0.117,0.013,-8.190,-3.150,9.450
16594752,-0.989,-0.093,0.050,-6.300,0.070,8.260
16594773,-0.982,-0.093,0.027,-4.480,2.520,6.510
16594792,-1.001,-0.097,0.001,-7.350,4.340,5.950
16594809,-1.005,-0.135,0.036,-6.020,5.110,6.580
16594832,-0.942,-0.160,0.021,-2.310,9.170,8.820
16594856,-1.025,-0.034,-0.012,-4.830,11.340,7.140
16594876,-1.023,-0.021,0.047,-14.070,9.660,3.570
16594895,-0.996,-0.057,-0.022,-14.700,15.400,1.960
16594913,-0.982,-0.123,0.042,-14.210,17.080,1.890
16594937,-0.962,-0.127,-0.079,-2.170,20.370,3.080
16594957,-1.004,-0.066,-0.078,-6.720,16.030,3.430
16594975,-1.016,-0.049,-0.024,-6.160,15.470,1.260
16594995,-0.998,-0.273,-0.106,-2.030,16.170,0.770
16595015,-1.007,-0.122,-0.176,2.380,17.640,5.530
16595034,-1.012,-0.045,-0.123,1.120,14.210,7.840
16595058,-0.989,-0.107,-0.119,0.420,11.620,8.190
16595077,-1.014,-0.042,-0.068,2.870,10.850,6.580
16595101,-0.761,0.156,-0.119,-16.170,13.720,24.570
16595121,-1.159,-0.468,-0.120,1.120,9.030,-6.370
16595139,-0.981,-0.029,-0.178,-31.430,-3.220,-8.260
16595163,-0.990,-0.120,-0.139,13.440,3.710,0.980
16595178,-0.950,-0.031,-0.130,9.660,3.430,-0.630
16595202,-1.032,-0.080,-0.141,20.020,0.770,-0.210
16595223,-1.072,0.033,-0.157,4.690,-5.880,-1.890
16595244,-1.080,0.025,-0.161,-7.560,-13.720,-3.500
16595265,-1.055,0.000,-0.128,-13.790,-20.790,-5.530
16595288,-0.949,-0.071,-0.136,-13.370,-28.140,-12.040
16595309,-0.948,-0.158,-0.070,15.050,-15.050,-14.560
16595328,-1.035,0.019,-0.049,16.520,-17.640,-13.090
16595352,-1.041,-0.102,-0.094,-1.050,-22.400,-10.570
16595372,-1.027,-0.103,-0.054,3.080,-22.890,-10.780
16595391,-0.998,-0.034,-0.055,-1.400,-21.560,-12.180
16595411,-0.987,-0.055,-0.031,0.350,-22.400,-13.650
16595435,-1.017,-0.053,-0.011,-3.850,-22.680,-14.770
16595455,-0.986,-0.097,-0.025,-3.990,-21.560,-15.750
16595475,-1.000,-0.117,-0.019,1.260,-20.580,-13.790
16595494,-1.001,-0.121,-0.002,0.560,-18.830,-13.580
16595512,-0.984,-0.101,-0.016,2.170,-19.040,-13.020
16595536,-1.009,-0.089,0.012,-0.490,-19.250,-14.000
16595559,-0.990,-0.135,0.011,-0.140,-17.500,-14.420
16595583,-0.998,-0.139,0.038,-1.890,-16.800,-14.420
16595603,-0.979,-0.194,0.004,5.040,-15.610,-13.860
16595623,-0.983,-0.124,0.050,5.390,-14.000,-12.180
16595643,-0.995,-0.110,0.039,4.130,-10.780,-14.560
16595663,-1.052,-0.153,0.060,-2.800,-14.560,-15.750
16595680,-0.959,-0.171,0.016,16.100,-8.820,-19.390
16595699,-0.980,-0.178,0.065,7.770,-8.050,-17.780
16595719,-0.963,-0.183,0.043,10.500,-5.530,-17.780
16595744,-0.979,-0.193,0.041,16.310,-3.220,-16.590
16595764,-0.999,-0.112,0.039,14.420,-0.420,-17.640
16595782,-0.993,-0.111,0.045,9.730,0.700,-20.440
16595806,-0.976,-0.196,0.075,5.390,2.590,-22.610
16595825,-0.976,-0.241,0.091,7.630,3.640,-23.030
16595844,-0.952,-0.242,-0.020,12.320,5.180,-20.930
16595868,-0.993,-0.232,-0.026,12.320,3.150,-19.810
16595889,-0.994,-0.196,0.032,13.650,3.010,-19.390
16595909,-0.971,-0.221,0.031,14.070,4.130,-19.670
16595926,-0.992,-0.182,-0.008,11.900,4.340,-17.850
16595950,-1.016,-0.209,0.004,3.990,1.540,-16.940
16595968,-0.982,-0.212,0.000,-3.990,-1.890,-16.240
16595985,-0.947,-0.344,0.026,0.700,-3.360,-14.840
16596006,-0.961,-0.277,0.066,11.130,-1.330,-14.070
16596029,-1.010,-0.216,0.036,0.490,0.000,-13.020
16596049,-0.959,-0.218,0.068,-5.110,2.660,-12.670
16596069,-0.944,-0.293,0.014,-5.670,7.280,-13.370
16596086,-0.947,-0.271,0.000,3.710,6.860,-13.720
16596105,-0.970,-0.318,-0.025,6.090,7.000,-12.180
16596130,-0.995,-0.224,-0.008,9.170,4.970,-11.760
16596150,-1.006,-0.190,0.050,-10.570,5.460,-14.140
16596170,-0.981,-0.232,0.010,-14.070,3.990,-15.050
16596189,-0.954,-0.307,-0.061,-13.720,1.120,-16.870
16596209,-0.943,-0.353,-0.055,6.930,6.720,-14.280
16596233,-0.958,-0.328,0.006,9.100,1.820,-8.330
16596250,-0.990,-0.214,0.048,-0.350,4.130,-9.660
16596271,-0.955,-0.251,-0.001,-13.720,5.180,-9.940
16596295,-0.942,-0.364,-0.020,-4.760,8.540,-9.870
16596315,-0.947,-0.315,0.011,-3.010,9.450,-8.610
16596334,-0.912,-0.315,-0.035,-8.750,8.260,-8.680
16596355,-0.910,-0.341,-0.057,-10.920,8.260,-6.510
16596373,-0.956,-0.300,-0.030,-11.620,7.350,-5.390
16596393,-0.944,-0.316,-0.013,-16.310,7.490,-3.570
16596417,-0.948,-0.337,-0.052,-7.770,8.890,-2.870
16596436,-0.964,-0.276,-0.081,-6.230,7.630,-2.730
16596459,-0.951,-0.315,-0.063,-7.490,6.370,-2.870
16596476,-0.949,-0.344,-0.087,-2.590,5.460,-2.380
16596501,-0.937,-0.346,-0.099,-0.980,3.850,-0.700
16596518,-0.955,-0.342,-0.074,1.190,3.150,0.210
16596541,-0.963,-0.300,-0.077,-1.680,0.840,1.540
16596564,-0.968,-0.339,-0.100,0.980,0.560,4.270
16596583,-0.968,-0.330,-0.103,8.050,-1.680,5.460
16596603,-0.960,-0.331,-0.085,10.570,-3.500,7.000
16596624,-0.965,-0.286,-0.102,11.760,-4.410,7.630
16596644,-0.977,-0.270,-0.069,3.990,-6.370,9.100
16596667,-0.965,-0.315,-0.060,3.430,-7.210,9.940
16596686,-0.948,-0.289,-0.072,7.000,-7.700,9.730
16596710,-0.968,-0.246,-0.082,2.240,-10.290,11.060
16596729,-0.969,-0.285,-0.048,-1.260,-9.870,11.130
16596748,-0.976,-0.278,-0.024,0.840,-8.960,12.250
16596773,-0.960,-0.271,-0.040,-4.690,-7.980,13.160
16596790,-0.946,-0.308,-0.031,-3.570,-5.950,13.370
16596814,-0.982,-0.244,-0.025,-0.980,-3.710,13.930
16596834,-0.974,-0.215,-0.011,-9.310,-3.570,13.580
16596854,-0.943,-0.268,-0.061,-2.800,-1.960,13.230
16596874,-0.967,-0.210,-0.021,-2.100,-1.190,13.160
16596898,-0.994,-0.214,-0.037,-4.200,-0.770,12.390
16596917,-0.994,-0.190,-0.059,-3.290,-0.630,10.220
16596936,-1.002,-0.162,-0.096,-9.520,-3.710,9.170
16596961,-0.991,-0.218,-0.128,-6.650,-7.630,7.770
16596981,-1.005,-0.179,-0.048,-7.070,-9.590,5.180
16596999,-0.972,-0.211,-0.009,-12.810,-8.540,3.360
16597019,-0.950,-0.285,-0.027,-11.550,-7.350,4.200
16597043,-0.956,-0.254,-0.051,-5.390,-4.340,7.000
16597063,-0.963,-0.231,-0.033,-3.780,-0.630,7.000
16597079,-0.952,-0.193,-0.019,-5.740,1.960,8.540
16597099,-0.943,-0.233,-0.085,-3.220,4.760,9.660
16597123,-0.980,-0.219,-0.043,0.350,5.180,12.180
16597143,-1.018,-0.005,-0.161,-7.910,16.870,10.080
16597163,-0.779,-0.267,-0.083,-14.700,21.840,9.170
16597182,-0.984,-0.163,-0.108,0.560,9.030,11.970
16597202,-1.028,-0.219,-0.125,10.430,3.570,13.300
16597223,-0.980,-0.141,-0.075,7.420,0.910,13.300
16597244,-0.993,-0.146,-0.066,3.360,0.630,11.270
16597264,-0.991,-0.133,-0.044,0.350,3.360,10.220
16597288,-0.983,-0.173,-0.115,-5.880,0.210,11.900
16597308,-0.986,-0.171,-0.107,-2.660,-3.500,13.790
16597329,-0.986,-0.170,-0.004,-3.640,-2.100,13.930
16597353,-0.955,-0.154,-0.050,5.390,7.490,13.090
16597370,-0.989,-0.117,-0.047,-1.890,7.560,12.950
16597389,-1.026,-0.134,-0.117,-5.040,6.930,13.230
16597412,-0.954,-0.134,-0.049,-2.800,5.250,14.700
16597431,-0.984,-0.239,-0.036,-6.510,9.660,14.140
16597452,-0.993,-0.211,-0.049,4.830,17.010,17.360
16597476,-0.952,-0.042,-0.080,-1.960,19.250,16.240
16597493,-0.977,-0.107,-0.166,-0.210,16.030,17.010
16597516,-1.035,-0.077,-0.109,0.280,15.820,17.360
16597539,-1.001,-0.022,-0.139,-1.960,15.890,13.790
16597563,-0.987,-0.115,-0.152,-3.640,17.990,13.160
16597583,-0.986,-0.113,-0.116,-1.540,17.010,12.530
16597603,-0.994,-0.128,-0.151,-1.540,17.360,14.070
16597627,-1.009,-0.049,-0.183,-0.700,16.660,14.420
16597646,-0.981,-0.040,-0.199,-2.800,14.910,14.210
16597666,-0.989,-0.081,-0.224,-1.540,12.040,13.230
16597687,-1.002,-0.047,-0.168,2.310,11.620,12.530
16597704,-0.982,-0.111,-0.223,8.330,12.040,12.180
16597728,-1.021,-0.025,-0.225,7.980,8.540,13.370
16597748,-1.142,0.053,-0.260,-7.910,-2.030,22.960
16597766,-0.903,0.021,-0.206,-3.010,0.280,2.310
16597790,-1.767,-0.061,-0.278,13.160,-14.630,2.800
16597814,-0.865,0.045,-0.120,-11.410,-2.730,-5.880
16597830,-0.957,-0.096,-0.250,3.500,1.190,-7.000
16597854,-1.063,0.050,-0.231,10.990,-1.400,-4.340
16597874,-1.005,-0.023,-0.259,0.490,-6.090,-5.390
16597894,-1.060,0.014,-0.246,-1.050,-9.240,-6.370
16597909,-1.035,0.004,-0.203,-3.010,-10.640,-7.770
16597934,-1.034,-0.031,-0.203,-3.220,-14.280,-8.960
16597954,-1.016,-0.011,-0.212,-0.070,-21.630,-11.200
16597972,-0.722,-0.032,-0.171,5.670,-14.420,-22.400
16597989,-1.048,-0.077,-0.198,4.830,-14.910,-22.470
16598014,-1.026,-0.065,-0.181,13.230,-15.750,-22.260
16598034,-1.121,0.004,-0.167,8.750,-13.510,-25.130
16598054,-1.030,-0.039,-0.182,3.430,-16.380,-25.690
16598072,-0.987,-0.047,-0.192,-1.260,-18.690,-26.320
16598091,-1.022,-0.093,-0.213,-0.210,-21.560,-26.180
16598110,-1.006,-0.097,-0.219,-0.070,-24.500,-25.270
16598135,-1.007,-0.151,-0.136,-8.400,-29.260,-22.680
16598150,-0.966,-0.184,-0.147,-5.740,-27.440,-18.900
16598175,-0.963,-0.229,-0.136,0.840,-27.020,-13.580
16598195,-0.946,-0.176,-0.127,5.460,-26.530,-8.820
16598213,-0.973,-0.113,-0.091,6.090,-24.850,-8.540
16598233,-0.984,-0.096,-0.081,5.250,-23.730,-11.550
16598257,-0.978,-0.126,-0.048,0.210,-22.330,-12.950
16598277,-0.970,-0.193,-0.064,6.090,-18.900,-12.460
16598297,-0.984,-0.125,-0.086,4.830,-18.550,-11.620
16598316,-0.993,-0.144,-0.082,6.510,-20.930,-12.040
16598340,-1.018,-0.102,-0.057,4.060,-22.120,-14.280
16598360,-0.946,-0.107,-0.023,-1.190,-15.330,-18.060
16598380,-0.983,-0.184,0.021,1.680,-13.930,-19.110
16598400,-0.950,-0.210,-0.021,4.620,-12.390,-19.110
16598418,-0.963,-0.192,-0.066,6.790,-9.520,-17.290
16598442,-0.979,-0.167,-0.030,6.930,-7.840,-17.150
16598462,-0.977,-0.201,0.010,5.460,-2.520,-18.900
16598482,-0.978,-0.190,-0.034,7.210,0.770,-19.670
16598500,-0.993,-0.197,-0.054,6.580,-1.750,-20.370
16598524,-1.009,-0.160,-0.092,4.900,-2.940,-21.910
16598542,-0.999,-0.206,-0.102,3.430,-5.600,-22.750
16598561,-0.993,-0.205,-0.062,5.320,-7.490,-23.240
16598586,-1.015,-0.208,-0.090,4.690,-8.050,-23.170
16598604,-0.991,-0.174,-0.090,5.180,-12.950,-24.220
16598627,-0.959,-0.224,-0.050,1.400,-14.840,-25.760
16598648,-0.948,-0.320,0.012,6.370,-13.580,-25.200
16598668,-0.908,-0.327,0.022,9.030,-10.360,-24.500
16598688,-1.000,-0.207,0.025,4.690,-8.540,-23.450
16598708,-0.981,-0.205,-0.049,-39.690,7.350,-28.000
16598727,-0.786,-0.668,-0.013,-12.180,3.570,-23.870
16598751,-0.925,-0.390,-0.051,12.950,2.170,-15.820
16598770,-1.000,-0.358,-0.030,15.960,0.210,-12.740
16598787,-1.024,-0.273,-0.012,9.310,4.830,-11.130
16598806,-0.933,-0.258,0.018,5.460,7.910,-11.060
16598831,-0.939,-0.296,0.010,-2.520,10.850,-12.810
16598851,-0.879,-0.397,-0.046,-3.570,12.670,-10.990
16598868,-0.958,-0.323,-0.133,-4.410,5.740,-4.830
16598889,-0.951,-0.367,-0.101,1.470,6.440,-0.770
16598909,-0.991,-0.256,-0.035,3.150,7.280,-0.350
16598933,-1.000,-0.288,-0.016,-4.480,8.680,-1.050
16598953,-0.973,-0.274,-0.015,-12.530,9.030,-2.940
16598973,-0.922,-0.389,-0.147,-11.900,6.020,-1.960
16598991,-0.984,-0.373,-0.134,1.330,3.570,0.490
16599015,-0.977,-0.297,-0.112,8.330,-0.910,0.210
16599035,-0.989,-0.236,-0.039,1.470,0.770,-0.910
16599054,-0.937,-0.314,-0.050,3.220,-0.490,0.560
16599074,-0.929,-0.316,-0.048,1.400,0.210,0.910
16599093,-0.924,-0.324,-0.045,-3.080,0.350,1.890
16599113,-0.915,-0.362,-0.021,-5.530,1.610,3.710
16599133,-0.910,-0.327,-0.068,-1.820,2.310,4.620
16599158,-0.949,-0.330,-0.069,-2.030,3.570,6.160
16599178,-0.965,-0.318,-0.056,0.490,6.090,7.770
16599197,-0.961,-0.338,-0.057,0.700,6.930,9.450
16599218,-0.939,-0.311,-0.108,0.980,5.670,10.850
16599242,-0.975,-0.286,-0.091,0.280,4.620,11.690
16599263,-0.988,-0.278,-0.111,5.600,1.610,9.870
16599282,-1.004,-0.202,-0.118,0.560,-1.470,8.330
16599302,-0.966,-0.246,-0.106,-4.340,-3.710,6.580
16599321,-0.943,-0.301,-0.060,-5.810,-2.240,6.650
16599346,-0.941,-0.338,-0.066,-3.360,0.000,8.960
16599364,-0.946,-0.286,-0.102,-2.380,-0.350,11.060
16599382,-0.947,-0.249,-0.085,-5.180,-0.210,11.270
16599401,-0.971,-0.250,-0.044,-8.260,1.260,11.060
16599425,-1.000,-0.250,-0.083,-5.460,1.400,10.010
16599443,-0.963,-0.246,-0.140,-3.150,1.890,9.660
16599463,-0.976,-0.229,-0.127,-3.500,-1.120,9.170
16599487,-0.991,-0.230,-0.125,-2.520,-4.200,7.420
16599507,-1.000,-0.229,-0.147,-7.840,-6.020,6.580
16599531,-1.005,-0.215,-0.113,-4.970,-11.690,5.180
16599551,-1.005,-0.181,-0.138,-9.730,-13.510,4.060
16599570,-0.978,-0.230,-0.113,-12.600,-15.680,3.430
16599591,-0.954,-0.283,-0.077,-8.470,-15.400,4.480
16599609,-0.964,-0.270,-0.077,-2.450,-14.560,5.110
16599631,-0.944,-0.140,-0.104,-5.110,-14.980,5.390
16599649,-0.945,-0.217,-0.072,-13.790,-15.400,7.140
16599671,-0.995,-0.265,-0.054,-2.100,-13.440,7.770
16599690,-0.958,-0.185,-0.029,-5.250,-11.760,6.580
16599711,-0.942,-0.231,-0.008,-7.000,-7.770,7.700
16599731,-0.955,-0.249,-0.022,-2.730,-1.260,8.890
16599751,-0.985,-0.244,-0.036,-1.050,0.840,9.590
16599769,-0.969,-0.215,-0.049,3.640,5.810,11.200
16599789,-0.969,-0.227,-0.072,10.010,7.910,12.320
16599808,-1.006,-0.174,-0.076,8.540,8.540,12.810
16599833,-0.970,-0.192,-0.081,4.620,8.610,11.760
16599853,-0.994,-0.159,-0.108,3.850,7.280,10.850
16599877,-1.033,0.034,-0.267,-6.860,6.090,7.350
16599896,-0.923,-0.298,-0.148,6.300,2.660,7.210
16599916,-0.978,-0.245,-0.086,11.340,3.500,10.080
16599938,-0.975,-0.151,-0.051,8.610,11.480,11.830
16599959,-1.009,-0.187,-0.073,5.460,11.200,12.180
16599978,-0.971,-0.184,-0.102,6.650,9.660,13.440
16600003,-0.967,-0.088,-0.133,2.170,9.730,13.230
16600023,-0.994,-0.162,-0.113,3.150,9.100,12.180
16600042,-0.961,-0.124,-0.090,1.470,11.900,11.690
16600066,-0.977,-0.139,-0.050,2.100,17.010,9.520
16600084,-0.988,-0.134,-0.144,2.590,20.580,10.150
16600108,-1.020,-0.068,-0.198,-8.610,13.720,8.890
16600125,-1.006,-0.130,-0.144,-13.300,8.820,9.520
16600148,-1.022,-0.093,-0.188,-17.430,4.900,10.570
16600169,-1.018,-0.153,-0.122,-11.200,10.360,11.270
16600188,-0.981,-0.143,-0.184,-3.080,11.060,8.820
16600204,-1.006,-0.054,-0.235,-12.530,7.420,10.360
16600229,-0.990,-0.067,-0.224,-12.740,4.830,9.170
16600246,-0.998,-0.122,-0.170,-12.600,2.730,7.630
16600266,-0.979,-0.145,-0.173,-4.550,4.130,6.790
16600289,-0.992,-0.123,-0.183,1.260,3.850,9.870
16600312,-0.980,-0.058,-0.203,1.540,4.830,10.850
16600332,-1.007,-0.061,-0.164,-1.540,3.570,9.030
16600353,-0.990,-0.113,-0.199,5.040,4.620,5.810
16600375,-1.006,-0.011,-0.189,2.590,4.060,4.690
16600395,-0.981,-0.053,-0.157,-1.680,5.320,2.100
16600414,-0.995,-0.038,-0.160,-2.520,7.070,-0.770
16600439,-0.982,-0.072,-0.190,-3.570,7.000,-1.820
16600459,-0.962,-0.081,-0.223,-2.940,7.210,0.140
16600483,-0.960,-0.096,-0.205,1.190,7.350,0.490
16600503,-0.985,-0.052,-0.244,0.210,6.300,0.770
16600522,-0.474,-0.818,0.048,28.280,45.990,6.790
16600542,-0.880,-0.397,-0.405,93.730,35.770,3.080
16600562,-0.890,-0.060,-0.227,45.780,34.510,-13.580
16600584,-1.037,0.046,-0.217,6.790,-3.430,-0.490
16600604,-1.025,-0.120,-0.273,57.120,18.760,0.070
16600628,-1.062,0.061,-0.306,27.790,5.390,5.320
16600647,-1.111,0.123,-0.359,-4.900,-11.830,5.600
16600667,-1.090,0.082,-0.359,-40.600,-50.330,-5.040
16600686,-0.914,-0.094,-0.214,-40.460,-32.550,-16.380
16600711,-0.943,0.051,-0.257,-10.430,-31.570,-19.040
16600731,-1.044,-0.173,-0.221,4.830,-28.070,-12.810
16600748,-0.947,-0.041,-0.194,3.150,-25.550,-13.370
16600772,-0.998,-0.020,-0.208,-2.030,-27.790,-17.640
16600792,-0.969,-0.067,-0.203,-5.600,-28.070,-20.370
16600808,-1.006,-0.158,-0.212,-3.990,-28.700,-19.740
16600827,-1.007,-0.104,-0.202,-0.490,-32.480,-18.620
16600852,-0.991,-0.086,-0.163,-5.880,-34.650,-20.300
16600872,-1.009,-0.126,-0.192,-10.710,-40.740,-18.970
16600891,-0.988,-0.172,-0.222,-8.890,-44.310,-15.890
16600910,-1.019,-0.133,-0.161,-6.230,-50.890,-12.530
16600935,-0.995,-0.193,-0.112,-11.550,-53.200,-10.010
16600955,-0.973,-0.191,-0.095,-9.310,-51.730,-7.350
16600973,-0.964,-0.194,-0.015,-3.220,-51.590,-5.740
16600995,-0.951,-0.217,-0.038,1.050,-50.890,-4.620
16601015,-0.989,-0.137,0.003,6.930,-47.390,-5.180
16601035,-0.997,-0.089,0.022,5.810,-43.820,-9.800
16601059,-0.972,-0.114,0.061,1.330,-38.220,-14.630
16601079,-0.951,-0.230,0.055,11.060,-37.240,-12.880
16601097,-0.965,-0.135,0.104,14.700,-35.000,-13.370
16601114,-0.976,-0.103,0.093,9.520,-30.940,-15.190
16601138,-0.963,-0.134,0.146,4.830,-26.530,-18.690
16601159,-0.908,-0.184,0.145,5.040,-13.860,-19.320
16601179,-0.903,-0.243,0.224,2.660,-6.230,-19.950
16601202,-0.917,-0.312,0.183,5.880,5.110,-16.940
16601223,-0.957,-0.218,0.132,16.800,18.410,-15.820
16601243,-1.000,-0.160,0.034,15.330,18.340,-15.190
16601262,-1.013,-0.164,0.012,7.070,15.610,-15.190
16601283,-1.035,-0.226,0.003,6.860,7.840,-15.610
16601302,-1.003,-0.207,0.020,10.570,7.210,-16.100
16601323,-1.030,-0.021,-0.168,6.020,3.570,-15.120
16601342,-0.927,-0.230,0.002,0.770,4.970,-20.020
16601365,-1.026,-0.211,-0.001,2.030,-2.660,-17.710
16601384,-1.018,-0.270,0.016,5.250,-3.360,-16.730
16601409,-0.977,-0.233,0.058,6.020,-3.360,-15.610
16601429,-0.957,-0.236,0.078,7.210,0.070,-15.960
16601449,-0.995,-0.262,0.041,3.780,1.890,-14.280
16601472,-1.048,-0.216,0.014,-0.560,0.490,-11.760
16601492,-0.980,-0.193,0.030,-4.620,0.140,-14.420
16601513,-0.916,-0.292,0.095,6.580,7.070,-15.330
16601533,-0.934,-0.267,0.106,16.870,7.350,-17.220
16601548,-0.897,-0.299,0.030,5.950,7.490,-15.050
16601568,-0.929,-0.314,0.007,-3.430,7.840,-14.280
16601592,-0.917,-0.271,-0.020,-8.680,2.170,-16.590
16601613,-0.958,-0.333,0.004,1.120,4.340,-16.380
16601633,-0.953,-0.265,0.056,4.550,8.610,-14.350
16601652,-1.012,-0.261,0.091,1.540,7.630,-14.700
16601673,-0.993,-0.314,0.045,-4.060,13.160,-10.150
16601691,-0.913,-0.335,-0.003,-3.290,14.560,-8.960
16601711,-0.859,-0.430,-0.018,5.530,22.330,-4.200
16601735,-0.969,-0.280,-0.019,4.900,18.130,-3.990
16601753,-0.966,-0.304,-0.001,1.820,17.920,-3.500
16601771,-0.893,-0.336,0.027,0.280,19.670,-3.430
16601791,-0.880,-0.334,-0.044,-2.660,17.920,-3.150
16601815,-0.935,-0.388,-0.068,-3.570,17.430,0.630
16601835,-0.965,-0.319,-0.068,5.040,16.240,0.770
16601853,-0.970,-0.171,-0.060,-8.260,13.510,-0.490
16601877,-0.959,-0.295,-0.048,-15.820,10.920,-0.910
16601895,-0.975,-0.405,-0.077,-6.510,9.240,-0.070
16601917,-0.974,-0.264,-0.152,0.980,5.110,1.050
16601939,-0.983,-0.279,-0.143,-6.090,-0.210,1.960
16601963,-0.927,-0.330,-0.048,-7.630,-2.520,2.870
16601978,-0.926,-0.356,-0.035,-4.970,-0.630,4.970
16602003,-0.918,-0.366,-0.099,-2.940,-0.280,6.650
16602018,-0.932,-0.305,-0.105,-2.380,-1.750,7.140
16602043,-0.966,-0.286,-0.078,-2.590,-3.570,7.630
16602063,-0.996,-0.309,-0.100,3.080,-4.060,10.920
16602079,-1.000,-0.283,-0.102,6.510,-5.950,13.370
16602103,-0.967,-0.272,-0.052,-3.640,-8.820,14.770
16602120,-0.957,-0.285,-0.055,-8.120,-7.910,16.100
16602140,-0.959,-0.352,-0.094,-4.060,-7.910,18.200
16602159,-0.984,-0.245,-0.077,-4.270,-9.030,21.560
16602183,-0.982,-0.262,-0.045,-10.080,-8.610,24.290
16602207,-0.969,-0.260,-0.039,-12.530,-5.950,27.510
16602224,-0.987,-0.280,-0.027,-16.450,-0.980,30.520
16602244,-0.980,-0.279,-0.007,-14.700,2.520,35.000
16602264,-0.967,-0.261,0.008,-16.100,8.610,39.410
16602288,-1.025,-0.266,0.043,-10.780,6.650,42.560
16602307,-1.010,-0.222,-0.008,-6.020,13.160,39.690
16602323,-1.071,-0.156,0.005,-8.470,12.250,37.940
16602347,-1.021,-0.130,-0.069,-12.950,17.570,35.910
16602365,-1.000,-0.164,-0.076,-21.070,22.050,32.270
16602384,-0.986,-0.244,-0.152,-30.240,26.600,25.550
16602409,-0.973,-0.295,-0.214,-50.330,26.180,7.910
16602429,-0.923,-0.397,-0.267,-51.170,27.370,-4.690
16602449,-0.888,-0.318,-0.384,-40.950,32.550,-6.020
16602465,-0.918,-0.133,-0.450,-28.140,40.320,2.170
16602484,-0.971,-0.145,-0.335,-38.010,37.940,1.190
16602509,-0.876,-0.237,-0.259,-15.820,40.950,-12.110
16602527,-0.877,-0.141,-0.272,-4.690,42.210,-14.770
16602548,-0.899,-0.069,-0.262,2.380,39.550,-13.860
16602569,-0.896,-0.060,-0.211,7.210,34.790,-13.720
16602592,-0.900,0.014,-0.200,16.590,30.380,-12.600
16602611,-0.896,0.086,-0.179,17.990,20.020,-10.990
16602631,-0.911,0.002,-0.215,24.080,14.000,-7.560
16602650,-0.888,-0.078,-0.177,44.730,8.540,-3.150
16602675,-0.921,0.124,-0.171,70.840,2.450,0.490
16602695,-0.909,0.038,-0.206,67.270,-8.400,0.070
16602713,-0.899,-0.011,-0.143,64.680,-17.290,-0.420
16602733,-0.925,-0.153,-0.409,43.050,-5.320,-6.720
16602757,-0.808,0.423,-0.707,54.600,-2.730,-0.910
16602776,-1.161,-0.020,0.062,-12.670,-32.760,-9.660
16602795,-0.919,-0.118,-0.313,34.930,-30.450,-15.120
16602819,-1.180,-0.075,-0.264,13.230,-29.540,-27.370
16602839,-1.577,0.061,0.131,-0.630,-42.490,-25.760
16602859,-1.216,-0.366,-0.130,28.000,-16.380,-28.980
16602883,-0.894,-0.236,-0.284,6.020,-11.690,-22.820
16602903,-0.917,-0.155,-0.288,-7.280,-22.260,-18.760
16602922,-0.952,-0.247,-0.328,-2.660,-45.010,-19.950
16602942,-0.950,-0.305,-0.289,17.360,-45.640,-19.250
16602963,-1.007,-0.301,-0.188,25.830,-47.180,-16.520
16602983,-0.981,-0.132,-0.166,23.940,-46.410,-19.110
16603003,-0.945,-0.168,-0.100,21.770,-41.650,-22.470
16603021,-0.998,-0.216,-0.002,18.690,-38.780,-25.410
16603040,-0.975,-0.326,0.003,17.080,-30.730,-25.690
16603064,-0.935,-0.325,-0.002,14.350,-23.310,-20.720
16603087,-0.895,-0.344,0.011,15.610,-14.630,-15.680
16603108,-0.934,-0.319,0.006,10.640,-7.840,-11.900
16603128,-0.956,-0.294,-0.056,7.770,-4.690,-7.490
16603147,-0.978,-0.296,-0.067,0.420,-5.180,-4.970
16603167,-0.950,-0.321,-0.028,-2.310,-4.970,-2.660
16603191,-0.927,-0.326,-0.048,-2.870,-1.050,-0.840
16603210,-0.940,-0.285,-0.041,-2.660,1.470,-0.630
16603228,-0.978,-0.343,-0.166,15.890,6.090,0.420
16603252,-0.759,-0.238,-0.115,-30.450,-1.680,-5.460
16603272,-0.999,-0.248,-0.054,-0.910,1.960,-1.820
16603292,-1.025,-0.325,-0.103,3.570,0.560,-1.540
16603311,-0.996,-0.239,-0.100,1.610,1.680,-2.940
16603332,-0.981,-0.301,-0.096,-0.700,2.380,-2.590
16603352,-0.943,-0.391,-0.065,2.100,5.530,1.890
16603372,-0.957,-0.325,-0.046,3.500,8.120,6.370
16603392,-0.952,-0.286,-0.049,-0.210,12.670,7.630
16603411,-0.937,-0.299,-0.037,-3.780,17.360,9.520
16603433,-0.912,-0.285,-0.011,-1.890,28.490,11.760
16603453,-0.874,-0.262,0.039,-8.680,43.260,11.340
16603474,-0.864,-0.206,0.059,-15.610,60.690,8.750
16603496,-0.981,-0.273,0.058,-18.550,72.310,7.280
16603515,-0.950,-0.210,-0.182,-20.160,74.060,2.660
16603538,-1.027,-0.130,-0.284,-25.690,72.800,0.770
16603562,-0.957,-0.220,-0.277,-31.150,66.430,-5.740
16603579,-0.904,-0.277,-0.068,-23.240,75.390,-6.860
16603602,-0.755,-0.177,-0.396,-0.770,70.560,-16.800
16603622,-0.666,0.076,-0.651,-11.340,68.810,-22.610
16603643,-1.007,-0.203,-0.288,-48.160,59.290,-22.540
16603661,-1.218,-0.507,0.131,-26.600,78.470,-30.660
16603681,-0.853,-0.091,-0.611,-36.540,65.170,-35.840
16603705,-0.793,-0.019,-0.497,-38.920,79.030,-45.640
16603723,-0.875,-0.122,-0.543,-71.820,68.390,-44.730
16603743,-1.092,-0.652,-0.369,-43.610,85.540,-40.460
16603767,-1.055,-0.256,-0.422,-13.860,73.500,-39.620
16603786,-0.604,-0.015,-0.667,-35.210,77.350,-39.340
16603807,-0.463,-0.273,-0.715,-26.670,62.440,-37.520
16603831,-0.442,-0.305,-0.789,-10.010,41.580,-32.550
16603851,-0.360,-0.244,-0.882,9.870,24.850,-23.170
16603870,-0.573,-0.355,-0.971,9.030,-6.370,-24.430
16603891,-1.063,-0.434,-0.984,4.690,-31.990,-29.190
16603910,-1.266,-0.447,-1.065,7.420,-64.890,-26.670
16603935,-1.183,-0.487,-1.090,7.140,-108.290,-11.340
16603952,-1.009,-0.434,-0.980,-13.020,-123.410,-0.980
16603976,-1.409,-0.403,-0.925,-50.330,-166.740,20.510
16603995,-1.779,-0.526,-0.449,-66.570,-176.330,38.990
16604011,-2.152,-0.397,-0.015,-76.440,-195.790,51.170
16604036,-2.008,-0.492,0.670,-39.830,-218.540,28.350
16604052,-0.526,-0.122,-0.094,-45.150,-141.750,27.650
16604071,-0.029,0.022,-0.207,-25.340,-96.320,28.490
16604091,-0.352,0.402,-0.074,-64.400,-87.150,48.720
16604116,-0.167,0.241,-0.150,-73.150,-84.350,5.530
16604136,-0.390,0.878,0.447,-102.480,-81.060,44.380
16604155,-0.448,0.352,0.364,-97.020,-81.690,66.430
16604176,-0.260,0.186,-0.124,-16.520,-44.030,69.580
16604199,-0.069,-0.119,-0.031,52.150,13.580,84.630
16604220,0.010,-0.918,-0.125,166.810,52.850,95.060
16604238,-0.087,-0.549,-1.376,259.700,104.650,96.110
16604262,0.275,-0.054,-2.400,243.810,235.270,82.950
16604282,-2.317,-0.957,1.485,150.850,325.290,71.120
16604302,-0.408,-0.722,0.676,204.120,175.840,-3.850
16604317,-0.480,-1.416,-2.089,2.030,179.130,-67.690
16604341,-2.501,0.407,-0.159,-22.050,44.590,-49.770
16604360,-0.447,1.622,-0.509,-114.590,106.190,-8.050
16604379,-0.966,0.618,-1.134,-149.660,91.700,-17.290
16604404,-2.160,-1.101,-1.211,14.910,7.140,-44.240
16604423,-1.333,-0.015,-1.267,23.450,-11.550,-63.210
16604439,-1.646,0.231,-1.278,-38.640,-35.070,-53.130
16604464,-1.223,-0.906,-1.212,-16.940,-93.240,-29.540
16604483,-1.270,-0.723,-1.087,-7.700,-122.500,10.150
16604504,-1.429,-0.607,-0.784,-31.850,-151.480,41.580
16604524,-1.665,-0.769,-0.275,-37.380,-167.440,69.510
16604548,-2.525,-1.557,0.422,-12.110,-214.970,30.730
16604564,-0.611,-0.993,0.192,-45.780,-171.780,-45.010
16604587,-0.147,-0.719,-0.848,-139.300,-166.670,-143.850
16604608,0.173,-0.813,-0.519,-191.240,-21.560,-134.960
16604632,-0.225,-1.419,0.112,50.820,19.950,-106.750
16604652,-0.095,-0.995,0.157,326.410,48.860,-85.610
16604670,-0.199,0.626,0.035,378.140,61.950,-46.550
16604687,-0.334,1.122,0.089,287.280,65.310,-33.880
16604712,-0.245,0.711,-0.329,119.140,45.710,-13.790
16604736,-0.133,0.163,-0.376,103.180,75.810,-36.610
16604756,-0.169,-0.641,-1.027,200.200,103.530,-72.170
16604776,-0.595,1.962,-0.982,39.410,137.550,-10.570
16604795,0.625,-0.654,-1.767,-74.410,166.110,-6.020
16604820,-2.390,0.501,0.972,-12.250,78.190,-26.110
16604840,-2.136,-0.832,-0.586,134.540,106.750,-88.830
16604855,-1.831,1.776,-1.210,78.540,138.950,-66.570
16604878,-1.481,-0.969,-0.312,-130.970,60.200,-62.860
16604900,-1.465,0.222,-1.375,-9.730,-2.520,-53.410
16604917,-0.757,-0.880,-1.053,-16.940,5.250,-30.450
16604941,-1.151,-0.620,-1.063,7.700,-53.900,-24.710
16604958,-1.092,-0.575,-1.132,1.330,-96.880,-11.340
16604982,-1.277,-0.682,-1.011,-34.650,-145.040,24.780
16605002,-1.371,-0.706,-0.896,-88.200,-189.000,43.750
16605020,-1.521,-0.918,-0.427,-82.460,-213.710,56.560
16605042,-2.213,-0.507,0.109,-58.310,-214.480,47.880
16605057,-2.665,0.074,0.555,-84.210,-335.370,46.760
16605077,-0.461,0.385,-0.292,-118.650,-177.800,65.310
16605102,-0.355,-0.532,-0.459,-117.530,-152.530,39.270
16605122,-0.071,0.296,-0.773,-135.240,-109.550,25.690
16605141,-0.481,0.523,-0.186,-126.000,-80.220,3.570
16605161,0.047,0.365,0.150,-198.870,-52.990,47.320
16605185,0.081,-0.095,-0.058,-75.530,17.990,78.050
16605204,-0.102,0.253,-0.219,27.720,35.070,79.520
16605227,-0.118,-0.149,-0.075,86.450,100.170,111.930
16605248,-0.261,-0.305,-0.044,157.220,144.060,106.120
16605265,-0.227,-0.197,-0.074,198.240,162.400,98.560
16605284,-0.304,0.137,-0.011,212.870,193.200,91.210
16605308,-0.466,0.200,-0.365,131.320,169.960,90.440
16605329,-1.373,-0.156,1.444,-108.920,344.750,91.560
16605348,0.662,-0.884,-1.118,192.080,107.310,71.680
16605371,-0.991,-2.286,0.087,-115.780,304.360,16.310
16605395,-2.903,-0.378,-0.347,204.890,109.690,-112.560
16605415,-4.207,4.895,-2.668,-83.090,257.110,6.230
16605435,-2.752,-2.210,-1.348,-274.050,-76.090,-93.030
16605455,1.030,-0.393,-1.250,39.480,65.660,-115.780
16605473,-1.572,0.741,-1.488,-27.720,-67.760,-67.970
16605490,-0.815,-1.053,-1.082,8.610,-112.280,-63.700
16605514,-1.174,-0.152,-1.162,-62.860,-152.810,-12.110
16605535,-0.997,-1.009,-0.896,-72.730,-192.920,26.110
16605557,-1.327,-1.042,-0.532,-64.680,-204.750,42.000
16605580,-2.498,-0.804,-0.001,-31.290,-270.200,28.420
16605601,-2.356,-1.089,0.214,3.430,-376.740,-16.380
16605619,-0.387,-0.530,-0.321,-144.130,-249.760,-70.000
16605640,-0.319,-0.837,-0.919,-227.220,-174.300,-131.600
16605662,0.146,-0.570,-1.357,-79.870,-78.750,-143.220
16605683,0.447,0.025,0.128,-2.940,45.570,-99.260
16605705,0.357,-0.383,-0.049,139.090,97.230,-58.240
16605729,-0.030,-0.267,-0.191,301.630,143.080,-51.030
16605746,-0.231,0.247,-0.297,349.580,196.280,-44.240
16605766,-0.737,1.154,-0.379,311.430,192.290,-34.300
16605786,-0.528,1.466,-0.183,113.190,186.480,-53.410
16605807,-1.227,0.512,0.591,-124.880,117.180,-80.010
16605827,-1.066,1.933,0.309,-103.040,119.280,16.450
16605851,-0.396,-0.501,0.358,-291.900,140.700,18.410
16605870,0.197,-1.585,-1.930,162.260,247.660,15.680
16605889,-2.052,-2.135,0.761,227.920,184.310,6.090
16605909,-0.693,0.881,-1.177,141.050,138.460,-40.180
16605932,-7.341,-1.092,-0.959,-419.860,316.680,-74.410
16605956,1.848,-0.057,-2.829,-26.040,-186.620,-39.060
16605976,-2.879,0.652,-1.459,-29.330,-65.450,-83.720
16605995,-0.024,-0.531,-1.323,-46.130,-102.060,-78.050
16606019,-1.478,-0.815,-1.015,-87.500,-193.970,-39.830
16606039,-1.369,-0.949,-0.795,-82.250,-211.050,-8.610
16606057,-1.780,-0.915,0.008,-30.800,-204.190,-5.110
16606081,-2.667,-0.254,0.703,-36.890,-257.670,17.150
16606099,-0.465,0.988,-0.183,-70.840,-282.590,32.690
16606123,-0.172,0.525,-0.834,-111.720,-98.700,30.940
16606143,-0.332,0.665,-0.007,-108.570,-78.890,52.010
16606161,-0.164,0.194,-0.243,-92.120,-38.710,32.620
16606182,-0.322,1.185,0.602,-62.790,-52.640,77.770
16606202,-0.561,0.669,0.325,-138.810,-82.250,99.890
16606226,-0.387,0.217,0.173,-75.390,-52.360,110.320
16606246,-0.430,-0.220,-0.123,-6.650,-15.330,102.900
16606261,-0.283,-0.438,0.004,60.270,-5.460,114.030
16606281,-0.006,-0.688,-0.094,124.180,46.480,120.960
16606306,-0.061,-0.396,-0.357,111.580,93.030,111.930
16606325,-0.151,-0.158,-1.953,112.140,157.920,119.770
16606345,0.327,-1.371,-2.379,-213.430,340.550,115.990
16606365,-2.946,-3.154,1.465,259.000,220.430,24.290
16606389,1.089,-1.485,-1.671,104.370,230.930,-100.800
16606409,-2.404,0.444,0.067,32.970,99.820,-83.160
16606426,-2.236,2.871,-1.940,-90.510,116.200,-36.750
16606450,-2.901,-0.479,-0.556,-172.200,8.540,-79.730
16606470,-0.330,-0.540,-1.428,81.830,3.990,-82.880
16606490,-1.054,0.219,-1.211,-6.370,36.540,-64.470
16606506,-0.998,-0.640,-1.033,13.580,-76.230,-66.990
16606526,-1.240,-0.214,-1.120,-48.230,-100.730,-32.340
16606550,-0.946,-1.099,-1.091,-67.270,-123.620,36.470
16606568,-1.125,-1.042,-0.943,-38.080,-159.950,61.950
16606587,-1.951,-0.673,-0.482,-31.220,-168.980,70.210
16606611,-3.130,-1.119,0.351,19.110,-312.480,39.900
16606626,-1.027,-0.795,-0.324,-86.170,-228.270,-48.790
16606647,-0.237,-0.871,-0.824,-209.930,-205.870,-128.030
16606666,0.282,-0.448,-0.259,-146.090,-78.470,-171.010
16606690,-0.148,-0.445,-0.364,-64.890,-3.360,-134.820
16606709,-0.232,-1.036,0.153,163.240,39.480,-110.810
16606733,-0.092,0.020,0.148,382.060,74.060,-48.020
16606753,0.017,0.833,0.045,383.880,118.930,-34.370
16606773,-0.407,1.336,-0.163,234.850,117.460,-27.370
16606791,-0.484,0.566,-0.267,111.230,107.030,-35.350
16606815,-0.464,0.306,-0.308,147.000,126.140,-24.990
16606835,-0.494,-0.018,-1.170,32.830,156.240,-40.460
16606853,-1.152,1.515,-0.238,37.940,228.480,-19.460
16606877,-0.768,-0.309,0.006,137.690,209.300,41.440
16606897,-0.950,-0.729,-0.749,23.450,174.160,-21.420
16606912,-0.629,-0.652,-1.365,-12.810,188.510,-49.280
16606937,-0.577,-0.069,-0.809,20.930,52.220,-105.420
16606954,-1.984,0.948,-1.244,-69.020,92.120,-68.250
16606973,-1.720,-1.842,-1.234,-45.640,-7.420,-65.870
16606998,-1.502,-0.437,-1.436,-1.190,-68.670,-72.240
16607018,-1.420,-0.281,-1.255,-33.460,-136.920,-48.930
16607038,-1.188,-0.747,-1.101,-73.570,-172.690,-35.140
16607058,-1.442,-0.779,-0.887,-113.680,-249.620,7.350
16607078,-1.888,-0.607,-0.253,-93.800,-250.600,44.730
16607096,-2.432,0.109,0.374,-22.470,-286.230,90.370
16607115,-0.479,0.180,-0.696,-242.620,-213.710,105.910
16607140,-0.151,-0.206,-0.114,-35.630,-141.190,49.350
16607164,-0.135,-0.387,-1.154,-231.700,-146.090,35.070
16607182,-0.358,0.226,-0.036,-108.150,-114.940,17.360
16607201,-0.399,1.050,0.500,-183.960,-107.870,40.320
16607226,-0.304,0.275,0.328,-86.310,-67.060,58.240
16607244,-0.192,0.114,-0.100,-6.790,-22.890,78.750
16607264,-0.268,0.193,-0.250,67.900,30.240,94.710
16607286,-0.145,-0.070,-0.053,77.770,60.200,109.900
16607306,-0.029,-0.586,-0.174,153.650,102.060,105.350
16607330,-0.129,-0.062,-0.332,170.030,160.020,109.270
16607349,-0.244,0.005,-0.291,110.320,173.740,114.240
16607370,-0.757,-0.499,0.712,-82.390,345.800,121.310
16607390,0.707,-1.652,0.091,278.460,170.170,59.570
16607405,-1.107,-0.877,-0.820,113.050,184.730,18.690
16607429,-0.017,-2.331,-0.309,93.660,189.420,-75.460
16607448,-2.986,1.033,0.170,141.820,184.660,-16.520
16607472,-6.706,1.416,-1.722,-580.300,153.720,-127.120
16607492,-0.545,-0.941,-1.482,120.750,-311.710,-120.960
16607512,1.335,0.831,-1.589,-156.730,169.190,-58.240
16607527,-2.459,-1.554,-0.917,22.540,-126.840,-71.960
16607552,-0.856,-0.045,-1.190,-34.580,-87.780,9.800
16607572,-1.179,-0.959,-0.848,-59.430,-148.540,46.200
16607591,-1.315,-1.036,-0.677,-69.650,-187.670,40.530
16607609,-1.930,-0.773,-0.077,-30.450,-173.670,35.840
16607629,-2.904,-1.539,0.319,-25.270,-307.230,-20.230
16607653,-0.522,-0.437,-0.468,-165.060,-200.480,-104.300
16607671,0.185,-0.560,-0.763,-197.820,-142.450,-162.610
16607691,0.104,-0.662,-1.201,-181.930,-4.480,-159.110
16607715,0.177,-0.847,0.218,28.490,59.780,-119.420
16607735,-0.364,-1.035,0.174,309.330,88.200,-77.630
16607755,-0.182,0.013,-0.044,391.720,102.620,-42.000
16607775,-0.348,0.791,-0.016,355.110,101.010,-29.540
16607793,-0.404,0.633,0.023,282.240,101.570,-38.430
16607812,-0.445,0.636,0.030,190.890,86.800,-44.870
16607837,-0.312,0.257,-0.320,160.090,106.820,-43.610
16607855,-0.172,0.130,-1.246,-31.780,121.660,-78.190
16607879,-1.062,2.670,-1.567,156.170,215.670,-80.920
16607903,-2.376,2.146,1.436,-209.230,172.130,24.640
16607923,-0.921,-0.861,-0.618,-85.750,156.660,1.400
16607941,-1.694,-1.667,-0.346,136.990,303.100,-29.820
16607961,-1.868,1.064,-1.191,54.740,33.040,-58.590
16607985,-1.132,-0.276,-1.164,-82.390,-18.690,-92.750
16608005,-0.486,-0.578,-1.427,-31.290,-10.570,-103.390
16608025,-1.537,-0.562,-1.365,-11.480,-74.480,-101.850
16608045,-1.318,-0.449,-1.209,-58.100,-148.470,-68.880
16608065,-1.240,-0.836,-0.950,-101.360,-201.460,-34.020
16608084,-1.332,-0.889,-0.385,-114.380,-230.090,5.950
16608107,-1.949,-0.688,0.025,-79.380,-232.540,59.850
16608128,-2.912,0.207,0.210,-37.870,-338.940,127.190
16608145,-0.337,-0.343,-0.345,-151.970,-177.660,101.780
16608164,-0.475,-0.286,-0.381,-63.980,-143.710,56.420
16608188,0.003,-0.172,-1.162,-264.040,-98.210,27.860
16608206,-0.447,0.124,-0.105,-171.010,-135.310,-2.730
16608230,-0.249,0.574,0.568,-168.560,-95.340,46.200
16608248,-0.224,0.342,0.174,-68.530,-49.070,66.850
16608268,-0.148,0.272,0.034,-21.070,-12.530,77.490
16608290,-0.356,0.170,-0.244,42.420,27.230,96.600
16608310,-0.159,0.106,-0.221,85.190,55.720,123.410
16608334,-0.195,-0.481,-0.074,116.830,85.050,119.210
16608353,-0.156,-0.274,-0.136,164.710,132.090,111.510
16608371,-0.316,-0.046,-0.267,132.440,159.040,111.650
16608394,-0.393,0.019,-1.128,60.270,196.630,133.910
16608414,-0.638,0.148,1.323,-216.020,257.740,107.100
16608431,0.045,-2.115,-0.422,176.750,214.900,58.590
16608455,-0.284,-0.999,-0.848,169.750,109.410,-16.730
16608475,-0.339,-2.344,-0.242,69.160,283.220,-73.570
16608495,-5.651,6.753,-2.765,-546.490,510.160,19.740
16608515,-2.155,-2.716,-2.783,257.320,-350.280,-83.650
16608534,3.385,1.440,-0.472,-188.300,12.600,-71.470
16608559,-2.770,-2.290,-1.287,22.680,-198.450,-60.060
16608578,-0.870,-0.278,-1.208,1.680,-100.940,3.360
16608602,-1.501,-0.560,-0.906,-63.140,-182.280,29.750
16608620,-1.387,-1.108,-0.631,-116.200,-231.420,7.420
16608639,-2.576,-0.817,0.215,0.420,-235.970,-10.220
16608664,0.040,-0.376,-1.210,-149.240,-224.840,-89.600
16608684,-0.313,-0.824,-1.663,-303.170,-194.880,-161.910
16608701,1.015,-1.557,-1.474,-210.210,-130.130,-201.390
16608725,0.494,-0.468,-0.462,15.050,59.780,-110.180
16608745,-0.058,-0.441,-0.031,110.810,144.410,-72.520
16608760,-0.152,-0.072,-0.122,307.930,195.650,-55.930
16608780,-0.430,0.703,-0.020,345.870,211.750,-24.990
16608800,-0.731,0.829,-0.083,269.360,212.660,-25.550
16608825,-0.691,1.161,0.092,166.390,161.280,-39.760
16608845,-0.577,0.899,0.067,65.310,146.860,-22.330
16608864,-0.205,-0.141,-0.559,-49.350,137.270,-63.700
16608881,-0.914,1.097,0.474,201.880,152.600,-37.660
16608900,-0.501,0.859,0.173,-101.780,125.440,-14.070
16608920,-0.164,-1.049,-1.816,-137.550,212.170,54.460
16608944,-1.449,-0.930,-0.374,112.280,115.080,23.940
16608963,-2.105,0.533,-0.799,97.440,83.510,-14.560
16608987,-1.055,0.025,-1.077,1.750,67.410,-19.880
16609007,-1.854,-0.536,-1.314,37.170,29.190,-31.710
16609026,-3.618,-0.067,-1.685,-22.190,-60.340,-44.170
16609046,-0.764,-0.193,-1.599,-59.500,-143.850,-45.150
16609066,-0.671,-0.864,-1.146,-82.810,-147.910,-22.190
16609088,-1.578,-0.976,-0.774,-93.590,-206.920,8.120
16609106,-2.267,-0.890,-0.154,-106.050,-239.050,33.810
16609130,-2.137,-0.251,0.397,-65.660,-276.990,40.040
16609148,-1.431,0.177,0.253,-113.260,-265.020,31.780
16609170,0.053,0.940,-0.336,-99.890,-147.630,29.120
16609189,-0.495,0.443,-0.246,-197.260,-122.780,10.010
16609212,0.298,-0.439,-0.838,-223.230,-59.290,35.980
16609229,-0.320,-0.335,0.173,-137.690,-109.270,1.890
16609250,-0.428,0.349,0.631,-23.240,-101.500,31.850
16609271,-0.221,0.701,0.404,16.380,-92.890,72.030
16609291,-0.221,0.218,0.187,-3.500,-65.590,82.600
16609314,-0.201,-0.290,-0.179,49.840,-19.950,79.590
16609334,-0.047,-0.436,-0.298,159.250,28.490,76.230
16609354,-0.052,-0.127,-0.405,175.280,75.110,84.840
16609376,-0.117,0.178,-0.612,123.480,130.060,82.460
16609395,-0.302,0.250,-0.716,14.840,138.530,69.440
16609419,0.024,-0.519,-3.309,-62.090,335.370,74.410
16609440,-4.246,-4.670,1.897,136.570,276.080,37.100
16609456,-0.671,-1.904,-1.240,279.370,-38.570,-61.880
16609480,-0.588,0.985,-1.259,126.910,256.130,-114.240
16609496,-2.236,3.030,-1.345,-80.850,64.050,-70.280
16609516,-2.234,1.224,-1.165,-190.400,56.910,-29.120
16609539,-3.377,-4.222,-1.512,46.410,-80.920,-77.560
16609557,-0.001,1.067,-1.463,25.830,-129.360,-18.060
16609581,-0.830,-0.694,-0.814,-61.390,-59.500,-11.060
16609601,-1.508,-0.926,-0.689,-82.250,-197.680,37.870
16609616,-2.352,-0.964,-0.276,-135.590,-171.010,62.020
16609641,-2.315,-2.190,0.403,-28.700,-268.030,32.060
16609665,-0.276,-0.779,-0.822,-26.530,-197.750,-74.550
16609685,-0.024,-0.635,-0.383,-231.910,-120.400,-146.440
16609704,0.580,-0.628,-0.633,-153.860,6.650,-136.360
16609727,-0.119,-0.400,0.345,4.200,45.220,-125.090
16609748,-0.506,-0.527,0.298,170.870,31.500,-94.220
16609768,-0.178,-0.138,0.094,279.440,45.920,-63.490
16609788,-0.103,0.102,-0.032,333.620,56.980,-42.210
16609807,-0.208,1.023,-0.167,339.360,62.160,-26.810
16609826,-0.336,1.073,-0.431,170.170,81.200,-31.150
16609851,-0.226,0.787,-0.384,85.960,81.200,-44.800
16609868,-0.092,0.835,-0.642,-68.740,99.470,-44.940
16609890,0.019,-0.523,-1.764,40.040,161.140,-93.800
16609914,-0.326,-1.104,-1.137,80.220,253.680,5.810
16609932,-1.300,0.707,0.484,-55.580,125.020,5.670
16609956,-1.528,-2.304,-0.005,52.570,175.980,15.260
16609976,-4.830,1.567,-2.669,129.430,340.060,62.790
16609991,-3.523,-1.813,-1.938,-100.870,-75.320,-95.270
16610016,2.546,-0.396,-1.556,-84.210,241.220,-82.040
16610040,-2.176,-0.937,-1.294,-1.820,-135.590,-47.950
16610060,-1.502,-0.535,-1.103,-32.340,-139.370,-36.610
16610079,-1.350,-0.795,-1.010,-71.260,-150.290,-11.550
16610098,-1.520,-0.813,-0.431,-56.280,-195.510,8.960
16610123,-2.612,-0.270,0.223,-77.560,-248.080,34.720
16610143,-2.018,0.743,0.306,-119.000,-213.920,26.040
16610161,-1.215,-0.183,-0.027,-15.050,-307.090,16.170
16610181,-0.116,1.229,-0.174,-151.130,-82.180,54.810
16610205,-0.162,0.169,-0.035,-195.090,-69.300,18.130
16610225,0.203,-0.896,-0.559,-80.570,-40.180,34.300
16610240,-0.187,0.552,0.583,38.990,-49.420,65.800
16610260,-0.517,1.048,0.532,-57.610,-63.560,96.810
16610285,-0.375,0.552,0.032,-66.080,-47.460,105.910
16610303,-0.403,-0.067,-0.131,-27.510,-13.440,97.790
16610326,-0.306,-0.032,-0.131,18.830,3.360,124.110
16610344,-0.250,-0.479,-0.266,125.650,49.280,134.820
16610368,-0.227,-0.228,-0.358,171.150,106.050,136.220
16610387,-0.267,-0.016,-0.337,105.350,134.330,135.450
16610408,-0.679,0.379,-2.688,91.070,217.070,134.120
16610426,-1.911,-3.009,-0.032,-73.780,202.790,103.390
16610450,-1.528,-4.473,0.418,167.020,223.580,-2.100
16610470,-1.110,-2.264,-0.073,125.860,253.400,-116.480
16610485,-2.611,1.842,-0.775,40.530,120.470,-147.000
16610510,-0.892,3.158,-2.899,-50.820,-59.360,-57.820
16610530,-2.204,-1.981,-1.186,-350.840,73.990,-82.880
16610549,-1.791,-0.386,-1.557,103.250,-60.760,-99.890
16610568,-0.311,-0.010,-1.300,37.170,-96.670,-50.540
16610592,-1.037,-0.778,-0.915,-17.710,-116.340,-10.850
16610612,-1.053,-0.630,-0.814,-36.190,-158.410,38.080
16610632,-1.752,-0.778,-0.602,-62.370,-170.520,55.790
16610651,-2.594,-1.439,0.077,-61.530,-234.640,32.690
16610670,-1.865,-1.236,-0.309,-72.170,-332.570,-52.360
16610689,-0.553,-0.633,-0.531,-239.890,-180.110,-123.690
16610714,0.849,-0.823,-0.327,-160.720,-47.180,-182.700
16610729,-0.474,-0.487,-0.755,-40.810,13.160,-160.580
16610749,-0.008,-0.933,0.305,24.710,62.020,-131.320
16610774,-0.462,-0.783,-0.225,351.820,92.540,-71.260
16610794,-0.191,0.685,-0.013,439.390,127.120,-62.370
16610814,-0.538,1.180,-0.083,371.070,92.890,-38.780
16610838,-0.871,1.598,-0.243,130.270,80.360,-39.340
16610856,-0.462,0.876,-0.231,70.560,109.550,-28.770
16610878,-0.973,0.179,-0.475,104.790,78.190,-5.390
16610897,-0.509,1.167,-2.178,-72.730,204.890,34.720
16610921,-0.158,-0.643,0.823,-24.710,260.540,53.620
16610940,-0.786,-1.591,-0.581,93.170,138.810,-0.420
16610961,-1.704,0.057,-0.614,131.530,188.160,-30.590
16610984,-2.716,0.696,-1.108,-39.060,119.980,-45.010
16611000,-2.534,-0.671,-1.266,-78.120,-13.370,-100.660
16611023,-0.805,-0.778,-1.501,-44.870,-15.960,-72.170
16611045,-1.133,-0.647,-1.247,-14.140,-75.670,-61.600
16611064,-1.384,-0.611,-1.221,-53.060,-112.280,-45.850
16611088,-1.665,-1.026,-0.903,-106.190,-173.810,1.750
16611104,-1.712,-1.009,-0.346,-104.090,-202.230,15.190
16611124,-2.135,-0.362,0.195,-67.060,-222.040,10.710
16611144,-2.404,0.549,0.469,-66.150,-253.820,25.690
16611167,0.350,0.852,-0.317,-149.660,-159.600,55.580
16611188,-0.512,0.127,-0.261,-107.660,-111.160,48.650
16611206,-0.057,-0.003,-0.183,-200.830,-133.350,32.970
16611229,-0.882,0.444,0.033,-73.640,-110.390,36.470
16611253,-0.365,0.544,0.497,-155.330,-65.100,47.320
16611273,-0.080,0.172,0.348,-82.880,-68.880,65.240
16611291,-0.208,0.061,0.156,-25.480,-44.660,78.820
16611315,-0.303,-0.212,-0.012,45.220,-10.920,95.270
16611335,-0.247,-0.273,-0.073,139.300,16.730,104.720
16611354,-0.205,-0.158,-0.081,190.120,54.740,120.470
16611378,-0.148,0.002,-0.084,181.370,91.070,124.810
16611398,-0.206,-0.073,-0.192,133.420,126.000,138.880
16611417,-0.305,0.621,-3.518,97.300,192.570,163.590
16611438,-0.430,-2.864,4.109,-437.990,691.810,40.460
16611454,-3.719,-2.684,-0.786,173.880,-40.810,-20.930
16611477,-1.632,-0.117,-0.170,215.390,306.460,-146.860
16611501,-2.371,5.831,-3.022,-38.500,81.970,-18.760
16611525,-1.996,-4.595,-1.653,-367.850,-101.010,-94.430
16611545,-0.967,0.000,-1.568,-27.090,-75.950,-49.490
16611565,-0.381,-0.732,-1.022,40.180,-50.400,-17.780
16611584,-0.925,-0.596,-0.929,20.300,-117.320,10.640
16611603,-1.580,-0.467,-0.885,-59.290,-160.160,56.630
16611628,-1.802,-0.886,-0.652,-43.890,-193.060,43.050
16611648,-2.332,-0.707,0.147,-87.220,-270.410,15.680
16611667,-1.810,-1.038,-0.405,-101.430,-360.850,-81.340
16611690,-0.551,-0.937,-1.199,-281.050,-195.510,-175.700
16611711,0.844,-0.520,-1.192,-127.190,-23.240,-183.890
16611731,0.165,-0.333,-0.618,-13.860,56.630,-128.310
16611751,-0.101,-0.732,0.191,99.890,101.500,-81.130
16611771,-0.161,-0.081,-0.161,293.160,147.350,-50.680
16611791,-0.350,0.568,-0.105,350.630,166.530,-32.550
16611815,-0.520,0.630,-0.089,300.370,145.530,-26.460
16611835,-0.233,0.798,0.046,227.780,171.570,-33.040
16611852,-0.342,0.856,-0.048,164.780,151.410,-24.500
16611873,-0.036,0.392,-1.026,53.060,160.580,-46.830
16611897,-1.778,0.840,-0.104,412.300,152.810,23.450
16611917,0.160,1.028,1.109,-214.060,278.110,59.220
16611932,-0.880,-0.119,-0.365,-83.510,135.450,50.540
16611957,-1.077,-1.089,-0.930,174.370,185.780,12.320
16611977,-4.071,2.655,-1.170,245.770,247.940,2.590
16611996,-4.223,-1.072,-2.223,-47.950,-76.230,-119.910
16612015,1.761,-0.203,-1.019,-115.290,-169.960,-113.540
16612035,-1.873,-0.994,-1.550,-23.870,-41.580,-90.650
16612058,-0.917,-0.999,-1.236,-49.910,-168.420,-38.430
16612079,-1.380,-0.930,-0.931,-108.290,-213.710,50.330
16612094,-1.749,-1.202,-0.327,-90.650,-241.430,54.530
16612114,-2.380,-0.664,0.382,-23.870,-283.290,35.700
16612134,-2.495,0.433,0.654,-77.070,-334.670,32.620
16612159,0.208,1.098,-0.468,-122.220,-153.790,20.720
16612178,-0.555,0.425,-0.928,-162.120,-115.850,43.050
16612198,0.148,0.167,-1.060,-200.130,-79.590,-7.350
16612222,-0.353,0.656,0.270,-210.070,-47.600,33.460
16612246,-0.131,-0.079,0.285,-158.830,-9.030,52.780
16612266,-0.120,0.446,0.046,-43.470,4.410,96.600
16612285,-0.306,0.060,-0.013,-27.300,39.410,139.090
16612310,-0.283,-0.512,-0.182,85.050,71.260,123.410
16612328,-0.281,-0.228,-0.122,129.850,94.360,127.610
16612347,-0.408,0.041,-0.058,131.600,109.620,135.170
16612369,-0.283,0.035,-0.074,77.980,135.380,131.110
16612389,-0.259,0.424,-1.730,90.160,196.070,142.450
16612412,-1.814,-3.570,0.028,-281.190,175.210,119.560
16612431,-0.228,-1.896,-0.570,313.460,296.870,76.300
16612456,-0.219,-1.770,-1.080,165.830,223.440,-54.530
16612473,-3.455,1.601,-0.461,102.130,59.780,-85.540
16612492,-4.596,6.712,-2.327,-234.010,210.700,2.940
16612517,-1.534,-4.973,-1.729,61.950,-189.350,-122.990
16612537,0.555,1.301,-1.361,-114.730,-26.740,-19.740
16612557,-1.299,-1.871,-1.104,1.680,-90.160,-36.330
16612576,-1.205,-0.505,-0.982,8.540,-130.340,18.830
16612593,-1.678,-0.449,-0.974,-84.280,-173.460,47.670
16612612,-1.930,-1.160,-0.404,-73.990,-202.790,18.830
16612637,-2.512,-1.133,0.108,-49.700,-253.470,-47.040
16612657,-1.158,-0.641,-0.521,-151.550,-220.080,-129.500
16612675,-0.007,-0.665,-1.128,-225.890,-153.300,-197.260
16612696,0.758,-0.722,-0.924,-238.350,-20.650,-190.260
16612720,0.325,-1.265,-0.170,21.420,75.810,-110.950
16612738,-0.490,-0.961,0.427,300.230,98.210,-71.260
16612760,-0.372,0.529,-0.041,420.420,76.790,-20.440
16612780,-0.532,1.267,-0.033,387.310,78.820,-18.970
16612799,-0.663,1.517,0.151,227.220,46.200,-17.360
16612819,-0.344,0.775,0.000,88.830,40.390,-33.950
16612843,-0.464,0.453,-0.336,64.470,68.250,-37.940
16612863,-0.230,0.421,-0.659,-3.640,87.920,-48.160
16612881,0.228,-0.980,-2.542,-12.390,164.850,-89.180
16612904,-1.886,2.395,1.800,-170.170,264.040,-26.810
16612925,-1.081,0.033,-0.741,-43.890,40.740,-48.440
16612943,-1.150,-0.772,-2.126,98.070,241.290,-25.410
16612967,-1.014,0.123,-1.139,-26.390,49.140,-93.520
16612982,-1.813,0.087,-0.956,-72.240,12.320,-95.340
16613007,-1.747,-0.872,-1.654,-21.420,-60.200,-68.600
16613027,-1.449,-0.516,-1.304,-58.170,-127.820,-37.730
16613045,-1.364,-0.891,-0.983,-81.060,-157.570,-10.850
16613063,-1.586,-0.992,-0.671,-95.340,-212.310,22.540
16613083,-1.729,-0.596,0.091,-70.840,-215.320,30.030
16613103,-2.296,0.379,0.090,-38.220,-235.970,74.760
16613127,-1.383,0.249,0.486,-143.150,-280.420,64.260
16613146,0.084,0.158,-0.497,-110.950,-92.260,43.050
16613165,-0.856,-0.104,-0.266,-87.430,-120.400,22.330
16613183,0.281,0.116,-1.037,-342.090,-106.540,-8.470
16613203,-0.649,0.210,0.358,-144.340,-142.520,14.910
16613227,-0.336,0.639,0.697,-75.600,-72.590,64.960
16613242,-0.280,0.420,0.325,-51.730,-62.860,82.460
16613266,-0.092,0.069,0.287,-7.070,-19.320,83.860
16613286,-0.322,-0.099,-0.075,110.950,7.350,96.880
16613306,-0.173,0.208,-0.170,152.950,46.900,129.570
16613329,-0.260,-0.194,-0.105,157.360,84.840,129.710
16613348,-0.146,-0.252,-0.203,169.190,107.380,128.450
16613373,0.058,0.376,-3.484,193.340,173.250,143.010
16613391,0.142,-1.475,-0.040,-70.210,375.200,104.580
16613414,-4.067,-1.959,0.711,78.820,86.310,29.960
16613435,-0.190,-1.912,-0.901,180.600,251.720,-131.530
16613453,-3.127,1.607,-0.948,78.050,207.900,-136.360
16613477,-0.737,3.133,-2.409,-203.280,-112.630,-58.940
16613496,-0.830,-1.065,-1.191,-220.570,22.190,-9.380
16613516,-2.705,-0.846,-1.144,70.490,0.490,-22.470
16613536,-1.515,-0.401,-1.216,60.410,-117.600,-7.700
16613559,-0.254,-0.275,-0.901,-10.080,-144.620,20.160
16613579,-1.491,-0.522,-0.677,-35.770,-167.300,58.170
16613603,-2.233,-0.579,-0.253,-46.130,-214.550,49.420
16613622,-3.098,-1.384,0.247,-44.730,-387.800,-29.330
16613641,-1.254,-0.670,-0.694,-235.830,-186.760,-146.860
16613661,0.431,-1.105,-1.317,-216.090,-162.820,-221.550
16613685,0.122,-0.091,-1.201,-130.480,-16.940,-152.600
16613704,0.143,-0.453,0.081,-55.090,85.260,-100.940
16613728,0.072,-0.897,0.070,196.770,133.420,-51.240
16613748,-0.406,-0.095,-0.118,402.220,174.370,-30.940
16613766,-0.471,0.799,-0.013,420.770,172.200,-10.220
16613790,-0.575,1.855,0.206,283.920,122.360,-36.610
16613809,-0.408,1.835,-0.140,97.930,85.820,-48.510
16613834,-0.675,-0.983,0.926,69.090,-1.330,-88.410
16613858,-0.383,0.462,-0.072,-206.430,82.390,-28.280
16613878,-0.036,0.320,-1.129,-90.160,273.630,4.060
16613896,-3.043,-1.565,-0.188,225.540,-147.560,13.090
16613916,-2.482,1.461,0.233,132.580,189.350,98.490
16613936,-4.759,0.414,-0.720,10.780,19.670,74.620
16613960,-1.329,-0.346,-1.275,-3.150,33.950,-35.630
16613980,-0.843,0.022,-0.906,-60.340,-126.700,-18.200
16613999,-0.960,-0.798,-0.409,-73.290,-117.530,-11.060
16614023,-1.496,-0.590,-0.218,10.640,-205.100,-0.700
16614043,-0.245,-0.163,-0.259,-28.700,-112.140,-7.140
16614063,-0.195,-0.317,-0.064,-6.650,-117.110,-10.990
16614084,-0.076,-0.133,-0.094,28.070,-48.650,-3.640
16614103,-0.138,0.072,-0.145,39.340,-33.390,-3.290
16614121,-0.282,0.002,-0.224,15.120,-6.160,-3.640
16614141,-0.448,-0.478,-0.111,9.520,4.620,-20.930
16614160,-0.279,-0.782,-0.192,25.130,10.990,-19.320
16614185,-0.662,-1.004,0.063,34.090,9.240,-22.330
16614204,-1.729,-0.091,0.064,115.010,12.600,10.010
16614223,-3.657,1.012,0.131,25.970,45.010,47.460
16614243,-0.641,-0.144,0.052,-33.670,-62.510,-39.340
16614268,-1.016,-0.710,-0.495,-48.580,-24.220,0.070
16614288,-0.644,-0.579,-0.473,4.270,-22.820,11.550
16614308,-0.920,0.061,-0.295,-6.160,-36.330,1.190
16614325,-1.038,-0.143,-0.215,4.130,-48.790,-11.200
16614348,-0.792,-0.458,-0.134,30.800,-50.470,-13.370
16614372,-0.874,-0.313,-0.016,43.260,-47.530,-18.200
16614392,-0.961,-0.222,0.027,16.100,-39.760,-17.290
16614412,-0.924,-0.394,-0.011,8.820,-35.070,-16.520
16614431,-0.961,-0.396,0.027,0.980,-28.000,-18.620
16614449,-0.938,-0.418,0.037,2.730,-23.660,-14.000
16614468,-0.863,-0.430,0.041,-5.600,-22.820,-8.050
16614487,-0.833,-0.436,0.041,-1.610,-12.320,-2.660
16614512,-0.864,-0.391,0.020,0.560,-4.130,-0.420
16614532,-0.968,-0.328,-0.036,6.440,-7.070,-1.960
16614551,-0.936,-0.310,-0.035,6.790,-8.470,-6.650
16614572,-0.957,-0.348,-0.021,9.030,-8.680,-12.670
16614596,-0.967,-0.375,-0.010,10.290,-8.400,-15.190
16614616,-0.948,-0.372,-0.036,7.910,-9.100,-14.840
16614636,-0.936,-0.447,0.016,7.910,-10.360,-10.150
16614656,-0.910,-0.389,0.034,11.060,-6.370,-5.600
16614676,-0.916,-0.414,0.038,9.100,-2.730,-2.520
16614695,-0.902,-0.420,0.054,7.560,-0.630,0.070
16614716,-0.904,-0.393,0.022,1.050,1.820,2.520
16614735,-0.915,-0.411,-0.005,-0.630,1.820,5.950
16614754,-0.928,-0.398,-0.008,2.240,0.840,8.890
16614775,-0.962,-0.359,-0.010,2.940,-0.630,7.630
16614796,-0.958,-0.346,-0.022,2.240,-3.220,5.670
16614819,-0.943,-0.363,-0.020,3.850,-5.180,4.200
16614839,-0.953,-0.344,-0.028,7.700,-6.930,3.360
16614858,-0.958,-0.376,-0.013,7.770,-8.960,1.820
16614882,-0.950,-0.358,-0.004,8.190,-10.570,-0.070
16614903,-0.962,-0.359,-0.000,8.820,-12.180,-0.700
16614922,-0.940,-0.373,0.003,7.350,-12.180,0.560
16614940,-0.928,-0.413,0.003,7.070,-12.250,3.150
16614964,-0.940,-0.399,0.030,5.880,-12.320,7.350
16614984,-0.916,-0.393,0.051,7.420,-9.170,9.800
16615003,-0.931,-0.369,0.054,7.980,-8.400,10.290
16615021,-0.972,-0.205,0.012,-7.420,-7.700,7.980
16615040,-0.912,-0.378,0.003,-3.570,-7.630,7.490
16615061,-0.973,-0.345,0.029,12.530,-9.450,8.680
16615082,-0.954,-0.301,0.006,6.650,-14.350,7.280
16615106,-0.972,-0.290,0.012,5.950,-20.370,5.810
16615125,-0.945,-0.300,0.028,3.640,-20.510,3.010
16615146,-0.955,-0.327,0.046,5.320,-21.980,0.980
16615166,-0.984,-0.294,0.051,2.730,-24.570,-1.890
16615190,-0.989,-0.337,0.052,2.590,-24.290,-2.240
16615210,-1.003,-0.315,0.102,9.800,-29.680,-1.050
16615229,-0.874,-0.294,0.070,5.670,-25.620,-1.120
16615249,-1.006,-0.307,0.073,1.400,-27.860,-1.050
16615271,-1.025,-0.276,0.084,-7.490,-29.050,0.350
16615290,-0.927,-0.283,0.018,-16.590,-24.640,-2.310
16615314,-0.969,-0.322,0.072,-11.270,-22.680,-2.590
16615338,-0.958,-0.360,0.078,-16.030,-16.520,-7.980
16615358,-1.022,-0.174,0.108,-19.460,-17.220,-1.190
16615377,-1.078,-0.054,0.137,-51.380,-21.560,-3.150
16615398,-1.062,0.074,0.031,-83.440,-19.320,-1.400
16615418,-0.968,-0.015,-0.021,-108.010,-20.720,-9.660
16615434,-0.957,-0.119,-0.092,-127.050,-14.490,-5.390
16615456,-0.981,-0.074,-0.102,-118.300,2.730,5.740
16615479,-0.918,-0.115,-0.154,-93.310,21.910,26.600
16615499,-0.966,-0.064,-0.141,-59.290,33.180,39.900
16615518,-0.977,-0.080,-0.096,-50.190,46.410,44.870
16615542,-1.011,-0.148,-0.111,-33.040,55.790,52.010
16615563,-0.994,-0.202,-0.152,-11.130,57.190,55.860
16615583,-1.019,-0.191,-0.140,0.420,60.690,60.620
16615602,-0.986,-0.189,-0.084,1.330,62.720,64.610
16615622,-0.945,-0.265,-0.074,-5.600,60.760,62.440
16615641,-0.905,-0.404,-0.064,1.680,56.980,55.930
16615661,-0.919,-0.408,-0.039,25.060,47.880,52.290
16615684,-0.892,-0.405,0.106,34.020,30.660,44.450
16615708,-0.840,-0.522,-0.002,44.030,13.650,31.220
16615727,-1.368,-0.370,0.095,-11.340,-14.000,24.710
16615745,-0.691,-0.851,0.285,13.370,-25.760,7.280
16615765,-0.887,-1.787,0.072,11.130,-69.370,-52.290
16615784,-0.850,-0.299,-0.257,89.670,-22.610,-25.760
16615808,-1.030,-0.390,-0.152,-8.540,-59.710,-32.970
16615829,-1.553,0.045,0.132,20.300,-68.740,-3.640
16615848,-1.165,0.079,-0.099,-12.040,-28.420,-14.490
16615872,-1.191,-0.024,0.104,-19.390,-42.980,-32.620
16615891,-0.882,-0.247,0.038,-14.700,-19.530,-36.190
16615912,-0.837,-0.317,-0.010,-10.080,-19.880,-31.010
16615927,-0.906,-0.292,-0.004,-17.500,-16.520,-24.080
16615951,-0.978,-0.300,0.026,-11.620,-13.370,-16.450
16615972,-0.955,-0.244,0.037,4.270,-7.910,-17.220
16615991,-0.945,-0.184,0.007,3.360,-3.430,-19.530
16616008,-1.030,-0.259,-0.012,4.760,-5.740,-19.740
16616028,-0.973,-0.252,-0.018,9.100,-14.420,-17.850
16616049,-1.122,-0.283,-0.014,7.420,-9.590,-18.550
16616071,-0.956,-0.215,-0.024,11.900,-14.070,-17.150
16616093,-0.944,-0.294,0.020,9.310,-12.180,-18.760
16616113,-0.906,-0.197,-0.026,9.450,-12.460,-20.440
16616134,-0.951,-0.294,0.014,8.820,-5.390,-22.260
16616158,-0.963,-0.303,0.026,10.710,-5.600,-22.750
16616178,-0.943,-0.316,0.047,12.880,-1.890,-21.630
16616198,-0.939,-0.317,0.062,12.460,2.380,-20.230
16616216,-0.925,-0.376,0.031,16.450,4.480,-17.570
16616234,-0.962,-0.307,0.035,14.140,6.650,-15.610
16616254,-0.956,-0.293,-0.004,12.670,6.790,-16.520
16616278,-0.967,-0.311,0.011,10.710,8.610,-17.850
16616298,-0.932,-0.329,0.013,10.850,10.850,-17.990
16616318,-0.930,-0.370,0.050,15.190,12.180,-15.820
16616336,-0.925,-0.391,0.018,16.310,15.120,-12.810
16616355,-0.927,-0.382,0.028,26.250,20.090,-7.420
16616377,-0.961,-0.299,-0.009,21.280,19.320,-9.240
16616399,-0.920,-0.360,-0.044,21.910,19.460,-8.960
16616417,-0.948,-0.337,-0.028,21.140,17.500,-9.450
16616437,-0.958,-0.365,-0.060,24.710,16.450,-8.190
16616461,-0.951,-0.365,-0.046,26.600,15.050,-6.160
16616476,-0.951,-0.316,-0.026,24.570,14.070,-6.370
16616501,-0.963,-0.348,-0.030,12.390,8.960,-6.510
16616521,-0.935,-0.434,-0.047,25.690,17.990,-0.490
16616539,-0.950,-0.321,-0.047,20.440,17.500,-0.070
16616563,-0.946,-0.374,-0.048,17.150,13.440,2.030
16616582,-0.929,-0.319,-0.045,12.250,13.230,1.820
16616603,-0.950,-0.347,-0.063,9.380,11.760,1.400
16616621,-0.951,-0.336,-0.053,13.790,9.520,1.890
16616643,-0.934,-0.343,-0.059,12.250,8.890,2.170
16616663,-0.941,-0.369,-0.068,11.200,7.840,3.570
16616683,-0.932,-0.345,-0.063,11.900,7.280,3.920
16616703,-0.965,-0.313,-0.065,7.840,3.640,3.570
16616721,-0.950,-0.322,-0.073,3.150,3.640,2.380
16616740,-0.951,-0.360,-0.071,1.960,1.260,2.100
16616764,-0.957,-0.335,-0.090,0.350,-1.400,1.470
16616785,-1.001,-0.617,-0.101,-16.590,-8.120,-0.140
16616805,-0.997,-0.403,-0.069,0.700,-5.250,1.470
16616824,-0.946,-0.303,-0.149,-4.620,-6.440,3.360
16616842,-0.956,-0.317,-0.082,-4.060,-10.640,4.970
