Millis,AccelX,AccelY,AccelZ,GyroX,GyroY,GyroZ
16626145,-0.996,0.047,-0.051,-13.580,-6.230,-1.330
16626169,-1.009,0.075,-0.042,-12.320,-8.190,0.350
16626188,-0.988,0.076,-0.100,-8.190,-8.330,1.820
16626212,-0.985,0.130,-0.078,-10.220,-7.140,4.060
16626232,-1.009,0.001,-0.034,-10.570,-12.110,3.150
16626256,-1.005,0.121,-0.023,-0.910,-15.960,4.270
16626271,-0.989,0.139,0.005,-15.050,-14.420,3.290
16626291,-0.971,0.045,-0.058,-7.560,-10.290,0.350
16626313,-0.977,0.051,-0.040,-4.550,-4.200,-2.100
16626337,-0.973,0.026,-0.052,0.070,-0.910,-6.090
16626357,-0.976,0.064,-0.052,2.450,-1.190,-12.460
16626376,-0.984,0.061,-0.124,-4.130,-5.460,-16.240
16626397,-0.978,0.091,-0.102,-4.270,-9.380,-17.080
16626415,-1.001,0.091,-0.042,-21.980,-23.310,-16.450
16626436,-0.974,0.021,-0.049,-9.940,-19.180,-11.340
16626460,-1.015,0.093,-0.040,-6.580,-20.020,-8.050
16626479,-0.994,0.032,-0.037,-9.310,-18.200,-5.460
16626503,-0.976,0.049,-0.018,-9.030,-10.710,-3.080
16626520,-1.002,0.065,-0.055,-0.770,-10.010,-0.630
16626543,-0.989,0.067,-0.033,-0.700,-11.410,-1.750
16626561,-1.001,0.092,-0.001,-0.980,-13.370,-1.260
16626585,-0.971,0.068,0.122,-0.560,-9.310,-0.210
16626605,-0.987,0.055,-0.016,-0.980,-8.680,0.560
16626623,-0.969,0.067,-0.017,5.880,-3.640,3.010
16626642,-1.018,0.146,0.034,-2.310,-6.440,3.360
16626665,-0.980,0.050,0.041,-3.150,-2.520,6.020
16626687,-1.012,0.054,0.010,-1.960,-2.590,6.300
16626707,-0.994,0.076,0.016,0.630,-0.070,6.930
16626726,-1.001,0.058,-0.012,1.750,0.980,6.440
16626745,-1.021,0.097,0.006,0.140,-1.400,6.510
16626769,-0.976,0.037,0.051,-5.530,-3.010,7.000
16626788,-0.968,0.042,0.049,0.560,3.080,8.750
16626807,-0.976,0.052,0.049,0.910,7.210,8.120
16626832,-0.990,0.043,0.037,-0.420,11.900,4.760
16626851,-1.008,0.058,-0.018,-1.050,12.320,2.380
16626871,-1.018,0.061,-0.055,1.470,6.930,0.840
16626892,-1.018,0.076,-0.021,-3.500,-1.820,-0.700
16626912,-0.987,0.027,0.001,-2.170,-4.060,1.610
16626932,-0.978,0.037,-0.012,14.280,3.010,4.060
16626951,-1.013,0.118,-0.016,10.080,3.920,3.570
16626969,-0.989,0.075,-0.028,8.890,5.180,3.920
16626989,-0.994,0.090,-0.027,8.890,7.770,4.340
16627010,-0.993,0.111,-0.015,7.700,9.870,5.530
16627029,-0.994,0.110,-0.027,5.740,10.570,4.970
16627049,-1.006,0.106,-0.051,4.130,9.730,4.270
16627068,-1.021,0.110,-0.041,0.490,4.550,2.590
16627088,-0.990,0.102,-0.040,1.050,3.570,2.170
16627112,-0.995,0.114,-0.043,2.730,3.780,1.680
16627132,-1.005,0.141,-0.038,-0.700,1.470,0.210
16627152,-0.982,0.097,-0.037,-4.830,2.800,-1.470
16627176,-0.994,0.112,-0.036,-1.190,4.690,-1.890
16627200,-1.002,0.183,-0.079,-19.810,-1.820,-8.680
16627218,-1.008,0.020,-0.102,-28.070,-1.750,-8.190
16627237,-0.972,0.060,-0.073,-17.640,-0.980,-7.490
16627259,-1.015,0.053,-0.046,-4.830,1.750,-3.500
16627283,-0.993,0.063,-0.087,-0.420,3.080,0.000
16627303,-1.001,0.099,-0.077,0.280,1.120,0.210
16627322,-0.992,0.038,-0.098,3.640,0.560,1.750
16627341,-0.983,0.065,-0.096,5.390,2.240,2.590
16627360,-0.997,0.081,-0.092,4.760,1.120,2.800
16627384,-1.000,0.081,-0.097,6.230,0.070,3.920
16627403,-0.986,0.093,-0.103,8.400,0.350,5.180
16627423,-0.994,0.103,-0.103,7.070,-0.770,6.020
16627442,-0.990,0.087,-0.101,8.120,-0.560,6.790
16627467,-0.991,0.093,-0.079,10.780,-1.400,8.470
16627487,-1.002,0.104,-0.062,11.270,-3.150,7.840
16627505,-1.007,0.111,-0.058,9.660,-1.820,7.840
16627529,-1.011,0.098,-0.049,10.920,-1.820,5.600
16627548,-0.994,0.110,-0.043,10.360,1.260,4.760
16627567,-1.008,0.092,-0.039,9.800,2.100,4.200
16627586,-1.007,0.099,-0.034,9.870,1.540,3.430
16627611,-1.013,0.107,-0.039,8.120,-0.560,3.010
16627631,-1.013,0.106,-0.049,7.840,-1.260,2.800
16627651,-1.004,0.109,-0.060,5.740,-2.380,2.590
16627668,-1.002,0.108,-0.071,7.280,-2.100,3.010
16627689,-0.996,0.119,-0.079,6.230,-2.730,2.940
16627712,-0.996,0.122,-0.084,5.250,-3.150,2.660
16627735,-0.996,0.124,-0.084,4.550,-2.450,1.820
16627759,-0.997,0.135,-0.082,4.130,-2.240,0.840
16627783,-0.993,0.134,-0.081,3.990,-2.240,-0.210
16627803,-0.983,0.140,-0.077,2.800,-1.260,-0.210
16627822,-0.994,0.141,-0.080,2.310,-1.890,-0.210
16627843,-0.990,0.140,-0.081,1.190,-1.750,0.000
16627863,-0.996,0.140,-0.083,0.560,-2.380,0.280
16627887,-0.995,0.139,-0.080,-1.050,-2.520,0.000
16627907,-0.993,0.134,-0.076,-3.010,-2.450,-0.280
16627927,-0.996,0.130,-0.061,-3.570,-0.770,-0.560
16627942,-1.002,0.118,-0.055,-4.760,-0.700,-1.470
16627966,-0.992,0.100,-0.071,1.820,0.630,-1.330
16627987,-1.005,0.151,-0.092,2.310,-0.210,-0.840
16628005,-1.029,0.157,-0.057,-7.700,-1.960,-2.870
16628029,-0.987,0.082,-0.067,-5.740,-4.130,-1.750
16628048,-0.979,0.109,-0.081,-2.030,0.280,-0.490
16628068,-0.999,0.124,-0.088,2.520,0.000,-0.630
16628087,-0.997,0.140,-0.077,-17.360,0.700,-0.770
16628111,-1.004,0.117,-0.096,-10.920,-6.370,-1.750
16628135,-0.986,0.095,-0.113,-6.510,-5.810,-0.210
16628159,-0.991,0.103,-0.113,-3.220,-6.230,0.910
16628179,-0.981,0.100,-0.099,-2.240,-6.020,1.120
16628197,-0.995,0.097,-0.100,-0.630,-6.650,0.560
16628219,-0.991,0.110,-0.093,-1.470,-7.000,-0.280
16628239,-0.981,0.107,-0.090,-0.210,-6.090,-0.560
16628263,-0.985,0.117,-0.073,0.910,-3.640,-0.700
16628283,-0.992,0.112,-0.064,-0.840,-4.340,-0.490
16628302,-0.995,0.110,-0.063,0.210,-4.480,-0.070
16628326,-1.003,0.123,-0.065,-0.350,-6.160,-0.140
16628345,-0.998,0.114,-0.057,-1.610,-6.230,0.070
16628363,-1.000,0.108,-0.055,-0.700,-5.880,0.420
16628386,-0.996,0.115,-0.051,-0.770,-5.740,0.980
16628401,-0.996,0.108,-0.061,-0.280,-6.230,0.980
16628421,-0.979,0.107,-0.051,0.980,-6.020,1.540
16628441,-1.000,0.116,-0.054,2.450,-3.780,1.260
16628466,-0.984,0.110,-0.062,1.680,-1.330,0.770
16628486,-0.988,0.114,-0.072,-0.910,-0.840,0.980
16628505,-0.988,0.101,-0.071,0.490,0.210,1.190
16628525,-0.982,0.095,-0.071,3.850,0.840,2.730
16628545,-0.993,0.102,-0.071,4.900,-0.210,4.410
16628568,-1.005,0.142,-0.075,5.180,-1.960,3.920
16628587,-0.998,0.112,-0.072,5.740,-2.520,2.730
16628608,-0.989,0.118,-0.075,7.980,-0.280,1.750
16628632,-0.983,0.118,-0.085,7.140,0.420,2.240
16628651,-0.996,0.104,-0.085,8.400,0.910,1.820
16628675,-0.996,0.130,-0.076,6.790,-2.520,1.680
16628695,-0.987,0.099,-0.075,12.110,-2.450,2.170
16628715,-0.995,0.112,-0.074,11.970,-3.920,2.450
16628734,-0.989,0.115,-0.076,13.020,-3.080,1.680
16628753,-0.987,0.103,-0.084,12.950,-3.640,1.050
16628778,-0.984,0.122,-0.082,13.300,-3.920,0.700
16628798,-0.993,0.139,-0.093,13.300,-4.480,-1.190
16628816,-0.964,0.097,-0.101,14.630,-1.400,1.050
16628836,-1.015,0.172,-0.095,15.470,-1.260,-0.210
16628860,-0.986,0.155,-0.097,9.030,-4.200,-2.660
16628879,-0.989,0.146,-0.103,5.320,-3.080,-4.830
16628897,-0.998,0.136,-0.097,4.480,-3.080,-5.810
16628920,-0.997,0.125,-0.097,5.320,-2.240,-6.300
16628938,-1.003,0.130,-0.098,7.070,-1.890,-6.370
16628957,-1.007,0.137,-0.095,6.160,-3.220,-6.440
16628981,-1.006,0.122,-0.099,5.600,-4.550,-6.230
16628998,-1.000,0.108,-0.105,8.190,-4.200,-5.390
16629022,-1.006,0.247,-0.101,10.850,-5.180,-4.270
16629042,-1.006,0.115,-0.102,10.360,-6.370,-3.710
16629062,-0.994,0.118,-0.100,11.270,-5.320,-3.780
16629082,-0.994,0.122,-0.102,10.080,-5.530,-4.130
16629102,-0.979,0.126,-0.100,7.350,-4.830,-4.410
16629120,-0.985,0.125,-0.091,3.990,-5.180,-5.390
16629143,-0.979,0.101,-0.089,3.500,-5.320,-6.090
16629164,-0.979,0.109,-0.088,4.130,-5.180,-6.090
16629182,-0.976,0.105,-0.087,4.760,-4.200,-5.740
16629206,-0.985,0.104,-0.096,6.580,-3.850,-5.250
16629226,-0.998,0.101,-0.096,7.700,-4.550,-4.200
16629245,-1.014,0.087,-0.093,9.660,-5.740,-2.940
16629269,-1.009,0.077,-0.083,15.610,-6.370,-0.350
16629289,-1.009,0.062,-0.059,24.220,-5.460,3.430
16629308,-1.042,0.073,-0.055,27.580,-5.040,4.900
16629327,-1.043,0.045,-0.044,33.880,-9.380,6.020
16629352,-1.035,0.071,-0.026,42.070,-7.490,6.510
16629373,-1.041,0.107,0.025,38.430,-9.100,6.790
16629392,-1.038,0.090,0.068,35.420,-10.290,7.630
16629412,-1.019,0.100,0.089,17.990,-12.110,8.750
16629432,-1.006,0.094,0.116,30.870,-11.200,9.310
16629452,-1.032,0.090,0.135,25.760,-12.320,10.850
16629476,-1.043,0.095,0.197,24.920,-11.130,15.260
16629493,-1.073,0.097,0.224,22.470,-14.910,19.250
16629517,-1.036,0.068,0.200,32.900,-19.110,21.770
16629536,-1.032,0.131,0.218,37.450,-35.770,25.410
16629556,-1.105,0.174,0.220,31.850,-23.870,27.790
16629580,-1.100,0.185,0.237,26.250,-33.460,29.050
16629600,-1.098,0.233,0.233,13.160,-39.620,28.770
16629619,-1.109,0.216,0.239,4.340,-44.310,26.950
16629638,-1.159,0.178,0.202,1.330,-47.250,24.360
16629662,-1.204,0.188,0.199,3.220,-51.380,19.740
16629679,-1.284,0.233,0.199,4.410,-54.600,16.520
16629703,-1.326,0.278,0.172,4.690,-66.850,13.510
16629722,-1.241,0.333,0.214,-0.280,-77.350,15.960
16629741,-1.184,0.361,0.265,-7.630,-80.570,20.300
16629763,-1.170,0.389,0.269,-20.370,-84.420,23.940
16629779,-1.157,0.383,0.289,-29.680,-87.080,25.690
16629803,-1.176,0.349,0.275,-36.680,-93.030,22.540
16629822,-1.189,0.328,0.265,-42.000,-98.980,18.970
16629843,-1.208,0.324,0.222,-42.140,-108.640,15.400
16629863,-1.192,0.342,0.208,-39.410,-112.840,11.620
16629882,-1.186,0.360,0.281,-39.550,-115.640,8.820
16629901,-1.171,0.376,0.303,-44.170,-117.600,5.740
16629921,-1.146,0.346,0.264,-47.670,-118.790,2.730
16629941,-1.126,0.326,0.266,-50.470,-121.170,-0.840
16629965,-1.118,0.371,0.356,-58.170,-121.870,-7.350
16629981,-1.148,0.350,0.358,-69.440,-127.050,-10.290
16630005,-1.114,0.331,0.382,-73.500,-131.460,-15.470
16630026,-1.086,0.308,0.422,-80.360,-130.830,-19.320
16630050,-1.047,0.261,0.429,-83.930,-137.900,-22.190
16630069,-0.954,0.236,0.487,-87.990,-135.870,-23.590
16630089,-0.949,0.236,0.578,-95.130,-135.940,-25.970
16630110,-0.917,0.194,0.639,-97.300,-138.600,-29.260
16630129,-0.822,0.147,0.602,-92.750,-142.520,-30.940
16630154,-0.713,0.117,0.596,-85.890,-137.410,-30.800
16630170,-0.664,0.106,0.654,-82.530,-130.900,-32.340
16630191,-0.661,0.146,0.742,-90.160,-129.220,-33.810
16630211,-0.651,0.077,0.773,-102.900,-133.420,-35.560
16630231,-0.575,-0.039,0.746,-105.070,-137.130,-37.940
16630255,-0.467,-0.178,0.695,-87.360,-140.700,-30.310
16630272,-0.409,-0.222,0.729,-70.700,-132.440,-31.990
16630295,-0.373,-0.135,0.751,-60.620,-121.240,-40.110
16630316,-0.384,-0.128,0.752,-66.290,-117.460,-43.540
16630336,-0.340,-0.165,0.732,-72.800,-118.440,-47.810
16630353,-0.277,-0.246,0.692,-72.310,-119.000,-48.790
16630376,-0.180,-0.336,0.672,-60.200,-114.730,-49.910
16630395,-0.150,-0.264,0.727,-52.640,-106.260,-49.000
16630416,-0.091,-0.265,0.672,-57.190,-109.900,-51.310
16630440,0.027,-0.390,0.579,-45.780,-110.810,-50.260
16630460,0.092,-0.429,0.587,-26.530,-106.820,-50.540
16630480,0.130,-0.408,0.610,-8.820,-101.920,-48.160
16630498,0.183,-0.427,0.559,8.540,-96.110,-44.450
16630519,0.367,-0.486,0.526,22.890,-94.850,-45.500
16630543,0.378,-0.373,0.521,31.850,-88.200,-40.320
16630563,0.378,-0.279,0.512,-15.470,-83.580,-40.950
16630582,0.448,-0.333,0.515,-44.170,-84.000,-41.230
16630606,0.563,-0.498,0.494,-50.400,-74.900,-37.520
16630625,0.636,-0.548,0.452,-28.280,-58.660,-34.790
16630649,0.647,-0.526,0.490,7.840,-34.650,-29.120
16630669,0.671,-0.427,0.587,7.070,-24.850,-32.480
16630685,0.693,-0.300,0.607,-21.490,-23.240,-33.110
16630710,0.752,-0.436,0.554,-49.420,-14.280,-29.190
16630729,0.748,-0.493,0.519,-44.100,-6.020,-27.650
16630749,0.704,-0.496,0.487,-32.130,6.930,-20.160
16630773,0.694,-0.513,0.499,-19.040,15.330,-11.830
16630792,0.743,-0.493,0.542,-6.790,31.080,-3.710
16630809,0.652,-0.433,0.590,-2.800,41.440,1.120
16630828,0.621,-0.447,0.625,-6.020,43.890,8.610
16630850,0.620,-0.470,0.621,-2.380,51.030,15.120
16630873,0.693,-0.542,0.532,9.310,58.870,27.160
16630897,0.650,-0.509,0.473,31.990,78.960,30.940
16630916,0.403,-0.408,0.479,33.670,88.970,38.080
16630937,0.344,-0.397,0.533,20.580,86.450,45.430
16630957,0.382,-0.397,0.490,18.200,91.910,50.330
16630975,0.316,-0.427,0.448,20.860,108.220,53.060
16630994,0.184,-0.416,0.501,27.650,117.950,53.760
16631019,0.160,-0.386,0.533,29.330,129.290,53.550
16631039,0.092,-0.352,0.417,37.870,168.350,52.990
16631057,-0.278,-0.385,0.472,38.570,184.380,58.380
16631079,-0.398,-0.359,0.549,46.900,153.440,61.390
16631098,-0.292,-0.280,0.540,55.090,157.150,59.150
16631120,-0.488,-0.287,0.556,48.300,198.520,68.740
16631139,-0.712,-0.311,0.623,43.540,174.860,69.510
16631164,-0.571,-0.166,0.651,40.460,156.310,56.700
16631183,-0.781,-0.167,0.705,23.800,199.430,61.040
16631204,-1.104,-0.254,0.822,5.110,170.450,56.910
16631228,-0.761,-0.373,0.747,26.530,124.460,55.720
16631252,-0.628,-0.328,0.488,77.560,148.820,54.040
16631270,-0.972,-0.125,0.463,92.750,158.620,48.020
16631290,-1.125,0.074,0.860,59.710,151.480,38.500
16631314,-1.130,0.017,0.756,17.920,115.570,35.560
16631334,-0.935,-0.264,0.647,57.190,101.290,33.180
16631354,-0.930,-0.227,0.529,77.910,109.830,31.990
16631373,-1.030,-0.177,0.502,105.560,97.720,31.850
16631394,-0.939,-0.035,0.481,129.640,95.130,30.730
16631414,-0.918,0.133,0.468,131.530,105.350,22.960
16631434,-1.103,0.268,0.539,103.810,107.170,10.920
16631452,-1.142,0.287,0.614,59.640,100.730,0.560
16631476,-1.097,0.160,0.489,28.000,92.540,-7.630
16631494,-1.068,0.098,0.294,34.370,88.690,-8.610
16631514,-1.124,0.133,0.375,38.780,92.400,-9.240
16631537,-1.083,0.143,0.521,28.980,82.110,-6.230
16631556,-1.052,0.109,0.533,34.230,81.410,-3.010
16631579,-1.033,0.086,0.464,49.070,77.770,1.890
16631599,-1.026,0.117,0.451,56.980,75.460,1.680
16631616,-1.109,0.148,0.470,51.520,68.180,0.700
16631640,-1.085,0.141,0.478,48.720,57.750,-0.210
16631661,-1.017,0.128,0.414,54.740,52.080,0.630
16631681,-0.977,0.120,0.339,66.080,46.970,3.220
16631701,-0.940,0.132,0.311,74.620,46.060,7.420
16631720,-0.939,0.152,0.289,74.550,40.600,8.260
16631738,-0.902,0.125,0.234,76.230,34.720,10.080
16631762,-0.858,0.110,0.198,86.310,34.090,11.970
16631781,-0.832,0.119,0.150,98.420,39.830,13.720
16631800,-0.824,0.128,0.049,104.720,43.330,12.670
16631822,-0.815,0.139,0.009,99.960,46.900,10.010
16631842,-0.860,0.132,-0.029,88.900,43.820,5.110
16631866,-0.877,0.092,-0.068,80.780,36.260,-0.070
16631885,-0.850,0.082,-0.079,76.720,37.240,-4.830
16631904,-0.869,0.053,-0.114,76.160,42.980,-8.750
16631928,-0.911,0.056,-0.102,73.290,49.350,-16.590
16631945,-0.998,0.135,-0.076,58.450,44.310,-23.520
16631967,-0.998,0.057,-0.142,44.730,34.370,-28.420
16631988,-0.969,0.016,-0.198,51.240,34.230,-31.430
16632007,-0.988,0.002,-0.218,53.970,32.900,-31.430
16632031,-1.020,-0.002,-0.204,61.810,35.770,-30.520
16632051,-1.075,0.050,-0.169,55.720,33.810,-32.410
16632068,-1.027,0.027,-0.193,47.390,30.380,-32.970
16632089,-0.990,0.030,-0.216,44.520,37.450,-32.900
16632111,-1.049,0.017,-0.232,44.380,41.790,-33.880
16632130,-1.077,0.022,-0.258,43.610,40.810,-31.850
16632149,-1.121,0.051,-0.246,40.460,40.740,-34.160
16632173,-1.146,0.028,-0.298,21.630,26.530,-30.800
16632191,-1.246,-0.029,-0.334,25.130,28.210,-28.560
16632212,-1.172,0.002,-0.315,23.730,22.470,-23.240
16632228,-1.146,-0.062,-0.305,27.510,17.150,-20.160
16632253,-1.131,-0.136,-0.231,47.740,13.370,-14.000
16632272,-1.102,0.016,-0.214,43.470,18.410,-13.860
16632293,-1.147,0.015,-0.225,22.750,16.100,-14.490
16632308,-1.157,-0.014,-0.232,15.540,14.280,-14.490
16632332,-1.145,-0.154,-0.263,20.160,14.840,-10.150
16632351,-1.138,-0.093,-0.264,37.100,18.410,-7.070
16632376,-1.183,0.055,-0.262,14.420,21.840,-11.200
16632396,-1.159,-0.053,-0.255,-9.450,13.300,-14.420
16632416,-1.128,-0.091,-0.297,-11.130,17.710,-15.960
16632439,-1.128,-0.027,-0.359,-12.950,22.050,-14.910
16632460,-1.084,-0.062,-0.399,-24.150,30.450,-18.340
16632480,-1.081,-0.151,-0.406,-17.920,40.250,-22.890
16632499,-1.098,-0.199,-0.383,-7.980,52.990,-25.830
16632523,-1.129,-0.228,-0.410,10.290,56.770,-32.480
16632541,-1.145,-0.137,-0.386,1.120,65.240,-36.750
16632558,-1.209,-0.104,-0.438,2.100,64.960,-29.120
16632580,-1.477,0.068,-0.348,-77.420,-12.810,-16.590
16632601,-1.152,-0.185,-0.245,-90.230,-26.810,-1.820
16632620,-1.261,-0.325,-0.181,-18.690,-9.590,5.950
16632644,-1.314,-0.245,-0.122,25.060,-1.680,8.820
16632665,-1.290,-0.248,-0.179,73.290,-0.140,13.020
16632685,-1.310,0.027,-0.227,42.630,-14.980,9.310
16632700,-1.300,0.072,-0.208,8.820,-27.300,7.770
16632725,-1.266,-0.044,-0.312,-27.230,-36.750,9.800
16632744,-1.291,-0.038,-0.370,-36.260,-46.900,13.930
16632760,-1.189,-0.065,-0.381,-34.510,-44.170,21.000
16632785,-1.164,0.008,-0.367,-25.970,-40.530,31.150
16632802,-1.142,0.054,-0.354,-28.630,-39.970,35.350
16632825,-1.152,0.020,-0.306,-28.980,-38.150,40.320
16632846,-1.092,-0.050,-0.328,-13.860,-31.430,45.850
16632865,-1.097,0.031,-0.313,-8.330,-27.440,46.620
16632884,-1.085,0.046,-0.345,-10.850,-31.990,46.550
16632909,-1.098,0.070,-0.360,-16.380,-42.910,46.340
16632930,-1.044,0.068,-0.369,-26.670,-50.890,48.300
16632953,-0.992,-0.007,-0.353,-31.290,-54.180,51.590
16632973,-0.947,-0.048,-0.346,-27.440,-53.830,55.370
16632996,-0.938,-0.032,-0.387,-19.250,-47.600,56.700
16633015,-0.969,-0.042,-0.435,-5.810,-41.930,58.030
16633033,-0.926,0.026,-0.390,-1.820,-44.450,57.400
16633057,-0.840,0.064,-0.349,-15.330,-44.940,56.490
16633076,-0.764,0.056,-0.383,-27.790,-37.450,50.680
16633095,-0.826,-0.006,-0.396,-30.660,-37.660,48.580
16633113,-0.739,-0.024,-0.398,-27.720,-45.080,44.520
16633137,-0.596,-0.079,-0.423,-8.470,-24.850,41.720
16633157,-0.626,0.039,-0.365,5.320,-11.060,37.660
16633176,-0.649,0.096,-0.331,3.570,-1.610,32.130
16633199,-0.686,0.181,-0.239,-9.380,1.820,22.680
16633223,-0.672,0.241,-0.122,-33.810,5.390,12.950
16633247,-0.709,0.217,-0.102,-51.940,7.490,7.280
16633264,-0.743,0.161,-0.108,-51.310,10.290,5.880
16633284,-0.823,0.172,-0.057,-49.910,10.010,2.800
16633308,-0.895,0.197,-0.015,-55.020,8.540,-0.140
16633331,-0.953,0.177,0.000,-54.670,4.200,-2.730
16633352,-0.986,0.142,0.002,-37.800,2.030,-3.850
16633371,-1.006,0.146,0.028,-26.250,-2.940,-5.600
16633389,-0.992,0.206,0.049,-27.020,-4.620,-8.330
16633413,-1.004,0.212,0.047,-34.300,-9.940,-13.230
16633433,-1.000,0.220,0.036,-49.350,-17.500,-17.220
16633455,-0.998,0.249,0.059,-65.870,-22.750,-21.840
16633479,-1.040,0.278,0.079,-91.490,-32.270,-25.410
16633503,-1.085,0.261,0.090,-104.720,-35.910,-31.150
16633522,-1.176,0.271,0.100,-105.980,-44.450,-38.850
16633543,-1.180,0.228,0.120,-119.140,-50.050,-46.130
16633560,-1.193,0.189,0.200,-125.300,-48.370,-49.980
16633584,-1.256,0.175,0.244,-137.760,-52.360,-54.040
16633603,-1.242,0.075,0.241,-134.050,-59.990,-55.720
16633627,-1.244,0.057,0.279,-125.650,-60.550,-60.270
16633645,-1.247,0.037,0.337,-115.430,-62.790,-65.520
16633669,-1.256,0.029,0.366,-110.180,-68.530,-72.660
16633688,-1.240,0.014,0.366,-107.030,-75.600,-79.590
16633711,-1.260,-0.011,0.364,-103.250,-84.210,-88.830
16633735,-1.257,-0.037,0.363,-100.380,-90.860,-98.070
16633759,-1.229,-0.089,0.366,-87.570,-94.360,-105.770
16633779,-1.249,-0.141,0.373,-75.670,-95.480,-111.860
16633798,-1.241,-0.149,0.371,-62.720,-100.380,-117.250
16633818,-1.185,-0.136,0.349,-52.640,-104.860,-119.490
16633842,-1.119,-0.199,0.316,-39.970,-107.030,-120.820
16633862,-1.090,-0.230,0.348,-28.070,-109.900,-119.560
16633880,-1.038,-0.212,0.375,-20.440,-112.700,-118.580
16633904,-1.005,-0.222,0.359,-12.670,-117.460,-115.360
16633923,-0.966,-0.261,0.325,-9.870,-121.870,-114.450
16633943,-0.924,-0.327,0.344,-4.900,-121.660,-111.370
16633965,-0.906,-0.343,0.365,0.700,-128.800,-107.380
16633986,-0.830,-0.391,0.322,8.400,-132.510,-100.310
16634006,-0.730,-0.402,0.336,19.950,-135.030,-94.010
16634026,-0.683,-0.371,0.384,13.650,-137.200,-89.250
16634046,-0.601,-0.441,0.412,13.440,-137.270,-85.820
16634070,-0.489,-0.493,0.402,25.480,-140.140,-80.990
16634088,-0.393,-0.464,0.488,31.640,-128.940,-80.430
16634112,-0.371,-0.396,0.537,22.330,-129.290,-80.360
16634132,-0.222,-0.449,0.526,13.370,-128.870,-78.540
16634150,-0.149,-0.442,0.555,3.290,-127.330,-76.440
16634173,-0.119,-0.365,0.624,-0.980,-115.220,-79.100
16634192,-0.052,-0.406,0.633,-0.210,-104.230,-79.100
16634211,0.005,-0.420,0.617,2.170,-101.850,-80.360
16634236,0.081,-0.403,0.640,0.070,-95.410,-75.110
16634256,0.129,-0.419,0.681,-5.950,-92.330,-67.060
16634276,0.153,-0.400,0.716,-5.460,-84.560,-57.960
16634300,0.182,-0.447,0.685,3.220,-87.710,-43.120
16634319,0.266,-0.432,0.726,7.140,-88.200,-36.610
16634340,0.326,-0.452,0.810,2.240,-80.990,-26.250
16634360,0.377,-0.503,0.753,7.980,-83.160,-15.680
16634380,0.510,-0.513,0.709,22.120,-81.060,-5.670
16634400,0.565,-0.473,0.663,27.790,-67.480,1.330
16634417,0.579,-0.440,0.647,29.750,-64.540,6.580
16634436,0.567,-0.436,0.614,40.600,-66.430,8.120
16634461,0.665,-0.407,0.549,48.370,-61.810,20.160
16634479,0.746,-0.384,0.471,62.370,-42.910,29.050
16634498,0.756,-0.337,0.468,63.420,-29.050,38.080
16634521,0.748,-0.310,0.465,63.000,-8.610,47.740
16634541,0.715,-0.303,0.490,57.050,6.580,53.270
16634565,0.654,-0.288,0.475,51.520,24.360,58.800
16634585,0.575,-0.375,0.416,64.120,35.350,66.850
16634602,0.527,-0.388,0.427,91.490,56.140,71.330
16634621,0.392,-0.295,0.458,99.960,75.950,77.140
16634641,0.276,-0.344,0.463,105.840,80.850,85.190
16634661,0.269,-0.299,0.494,116.200,90.090,86.380
16634681,0.217,-0.212,0.535,120.050,103.810,81.760
16634702,0.041,-0.211,0.524,112.700,124.390,78.330
16634726,-0.059,-0.231,0.545,119.700,124.600,74.690
16634744,-0.130,-0.163,0.523,124.110,133.700,73.780
16634764,-0.197,-0.028,0.528,118.860,139.230,69.020
16634788,-0.311,0.033,0.459,102.340,146.160,61.740
16634807,-0.537,0.028,0.525,82.600,158.200,59.360
16634831,-0.561,-0.117,0.560,86.520,123.620,49.980
16634850,-0.473,-0.063,0.497,100.940,135.450,45.990
16634870,-0.578,0.020,0.494,120.820,146.370,37.450
16634890,-0.700,0.099,0.523,122.500,147.910,27.160
16634910,-0.735,0.115,0.576,109.760,141.890,16.800
16634934,-0.754,0.105,0.540,100.240,135.170,9.380
16634954,-0.829,0.133,0.527,100.100,136.780,2.940
16634974,-0.848,0.186,0.570,95.970,135.030,-2.170
16634992,-0.858,0.211,0.576,97.300,131.880,-6.860
16635014,-0.869,0.221,0.542,89.670,119.910,-13.580
16635038,-0.908,0.242,0.561,78.050,113.330,-21.420
16635057,-0.916,0.260,0.610,64.750,106.120,-28.070
16635078,-0.886,0.205,0.539,64.470,103.180,-31.290
16635096,-0.885,0.156,0.438,89.320,104.300,-32.900
16635118,-0.963,0.281,0.408,102.690,96.460,-37.730
16635138,-1.011,0.358,0.435,97.230,90.580,-42.490
16635156,-1.031,0.355,0.387,83.860,83.300,-44.940
16635180,-1.044,0.352,0.287,73.150,77.910,-46.340
16635196,-1.047,0.331,0.199,71.750,76.580,-45.640
16635215,-1.099,0.366,0.171,67.550,77.420,-45.500
16635240,-1.133,0.373,0.194,52.150,73.920,-45.080
16635259,-1.125,0.305,0.166,44.380,69.790,-45.220
16635282,-1.128,0.244,0.099,40.810,71.610,-44.940
16635301,-1.188,0.221,0.122,42.350,71.890,-44.310
16635324,-1.205,0.226,0.101,35.140,66.430,-45.290
16635344,-1.162,0.201,0.112,27.650,65.660,-46.480
16635367,-1.195,0.212,0.148,21.700,65.450,-49.140
16635386,-1.177,0.150,0.123,18.550,59.290,-47.950
16635410,-1.211,0.139,0.084,29.190,58.590,-48.020
16635430,-1.259,0.166,0.048,41.650,35.980,-49.350
16635445,-1.250,0.165,0.036,42.910,50.750,-49.980
16635468,-1.227,0.176,0.067,38.220,46.900,-50.120
16635485,-1.150,0.164,0.101,30.730,50.050,-47.810
16635510,-1.156,0.183,0.046,18.620,56.700,-48.580
16635530,-1.160,0.163,-0.031,7.140,57.890,-47.390
16635549,-1.171,0.132,-0.004,-9.240,52.710,-50.120
16635573,-1.165,0.042,-0.022,-26.110,41.650,-48.650
16635597,-1.133,-0.048,-0.074,-13.160,35.350,-45.570
16635613,-1.102,0.009,-0.079,5.110,34.020,-43.960
16635635,-1.144,0.072,-0.046,5.670,28.350,-43.120
16635654,-1.088,0.011,-0.068,8.610,27.440,-41.440
16635679,-1.140,0.034,-0.101,12.320,31.850,-39.060
16635698,-1.171,0.011,-0.081,11.690,29.890,-35.910
16635718,-1.200,0.086,-0.152,8.470,35.210,-31.500
16635741,-1.272,0.098,-0.155,8.680,42.490,-26.320
16635761,-1.265,0.018,-0.166,16.660,43.120,-22.750
16635785,-1.230,0.072,-0.234,28.630,57.400,-16.660
16635808,-1.201,0.045,-0.272,13.650,71.750,-10.150
16635829,-1.242,-0.089,-0.319,16.870,91.980,-13.860
16635847,-1.308,-0.067,-0.270,22.120,81.200,-15.890
16635869,-1.249,-0.043,-0.305,6.510,93.660,-20.720
16635889,-1.374,-0.104,-0.389,-15.190,65.870,-22.960
16635910,-1.328,-0.141,-0.341,-35.630,32.830,-16.380
16635933,-1.370,-0.115,-0.191,-49.140,4.410,-2.380
16635953,-1.305,-0.221,-0.132,-38.080,-11.830,11.830
16635971,-1.525,-0.268,-0.025,33.810,-10.710,25.620
16635993,-1.366,-0.153,-0.093,92.960,-19.530,31.150
16636012,-1.198,-0.107,-0.220,111.440,22.260,24.080
16636037,-1.318,0.161,-0.218,51.030,21.980,7.280
16636057,-1.344,0.183,-0.163,-27.930,2.520,0.210
16636077,-1.250,0.019,-0.323,-64.050,-1.260,-6.860
16636100,-1.341,0.088,-0.353,-87.710,-7.280,-9.380
16636120,-1.331,0.040,-0.385,-102.690,-29.400,-2.660
16636140,-1.241,0.082,-0.465,-142.310,-52.080,6.790
16636160,-1.237,0.105,-0.555,-142.170,-71.120,11.270
16636184,-1.179,0.047,-0.576,-141.470,-97.510,19.740
16636204,-1.078,-0.041,-0.455,-124.670,-86.170,16.310
16636223,-1.120,0.046,-0.187,-155.260,-98.350,8.330
16636244,-1.478,0.074,-0.055,-147.770,-142.380,13.370
16636264,-1.193,0.192,-0.107,-120.540,-157.990,27.370
16636283,-1.001,-0.002,0.040,-57.960,-143.010,50.050
16636302,-0.895,0.055,0.103,-1.190,-110.600,69.440
16636325,-1.055,0.284,0.092,6.580,-85.960,76.300
16636345,-1.039,0.293,0.116,5.670,-86.380,80.850
16636361,-1.073,0.383,0.080,-4.410,-90.790,76.090
16636381,-1.072,0.365,0.075,-34.790,-110.110,71.050
16636406,-1.046,0.220,0.041,-42.560,-122.360,61.810
16636426,-0.974,0.168,0.048,-34.020,-120.470,58.870
16636444,-0.959,0.159,0.042,-25.550,-117.600,55.580
16636463,-0.946,0.137,0.041,-17.080,-110.880,49.770
16636484,-0.959,0.201,0.086,-24.080,-104.790,38.010
16636504,-0.987,0.216,0.088,-45.640,-105.910,26.460
16636528,-0.990,0.166,0.063,-58.660,-104.440,13.720
16636547,-1.028,0.216,0.103,-65.380,-101.010,5.460
16636565,-1.045,0.241,0.185,-72.240,-98.420,-3.430
16636585,-1.038,0.215,0.238,-77.910,-94.360,-11.340
16636604,-1.041,0.157,0.237,-78.890,-92.190,-17.080
16636628,-1.054,0.139,0.246,-68.460,-97.230,-21.140
16636649,-1.002,0.181,0.290,-63.700,-98.000,-25.830
16636667,-0.999,0.195,0.330,-60.830,-97.580,-32.200
16636690,-0.997,0.200,0.367,-58.030,-98.630,-39.200
16636711,-0.964,0.183,0.403,-61.320,-100.240,-44.450
16636729,-0.910,0.172,0.457,-62.370,-99.890,-46.620
16636753,-0.894,0.190,0.521,-65.800,-95.970,-52.920
16636773,-0.924,0.163,0.556,-71.190,-94.500,-59.220
16636793,-0.902,0.125,0.573,-69.930,-98.910,-66.010
16636810,-0.851,0.126,0.617,-77.560,-102.340,-70.210
16636834,-0.832,0.102,0.700,-94.010,-107.520,-75.740
16636851,-0.833,0.051,0.782,-103.250,-109.060,-80.360
16636874,-0.800,-0.020,0.801,-101.780,-113.750,-87.010
16636898,-0.753,-0.080,0.815,-92.330,-115.500,-90.720
16636915,-0.732,-0.163,0.842,-86.800,-113.540,-94.080
16636937,-0.751,-0.152,0.920,-84.560,-120.750,-97.720
16636955,-0.729,-0.174,0.912,-89.110,-130.130,-100.800
16636974,-0.635,-0.288,0.826,-74.970,-136.220,-100.660
16636994,-0.570,-0.324,0.777,-47.740,-137.130,-100.100
16637019,-0.539,-0.311,0.782,-34.230,-133.980,-101.010
16637039,-0.529,-0.324,0.813,-23.240,-134.050,-101.080
16637059,-0.491,-0.279,0.811,-18.200,-137.130,-99.330
16637079,-0.380,-0.292,0.732,-9.030,-136.500,-98.280
16637097,-0.331,-0.283,0.614,0.140,-134.680,-98.910
16637119,-0.276,-0.243,0.602,-11.130,-140.840,-97.020
16637139,-0.198,-0.270,0.658,-15.120,-139.860,-95.900
16637159,-0.139,-0.249,0.620,-3.080,-139.020,-97.020
16637176,-0.064,-0.260,0.575,11.620,-133.630,-91.630
16637200,0.008,-0.222,0.561,21.770,-135.310,-90.650
16637220,0.086,-0.203,0.474,0.490,-155.610,-78.610
16637240,0.212,-0.278,0.431,2.870,-152.460,-70.910
16637260,0.320,-0.335,0.364,13.510,-156.100,-56.910
16637278,0.426,-0.457,0.355,48.020,-168.700,-42.560
16637299,0.653,-0.280,0.423,57.540,-140.490,-51.100
16637323,0.561,-0.193,0.363,35.770,-104.020,-38.990
16637343,0.515,-0.311,0.315,28.840,-111.580,-43.400
16637363,0.748,-0.295,0.363,29.960,-126.980,-43.750
16637383,0.834,-0.239,0.374,32.200,-107.380,-43.470
16637401,0.778,-0.189,0.251,30.800,-93.870,-43.330
16637418,0.775,-0.210,0.168,34.370,-96.810,-42.700
16637441,0.921,-0.075,0.267,39.130,-96.460,-45.220
16637464,1.005,0.029,0.250,13.650,-67.270,-31.430
16637485,0.882,-0.044,0.235,9.310,-50.400,-22.470
16637505,0.961,-0.082,0.272,10.010,-70.770,-17.640
16637524,1.103,-0.077,0.337,-4.200,-61.110,-12.600
16637544,1.200,-0.109,0.305,0.630,-42.840,-5.460
16637562,1.149,-0.111,0.211,8.120,-29.540,-0.910
16637581,1.157,-0.126,0.127,31.080,-30.940,-3.850
16637606,1.234,0.012,0.179,32.410,-19.880,-1.190
16637623,1.237,0.041,0.162,15.750,-4.270,6.370
16637641,1.193,-0.026,0.106,17.570,4.200,13.510
16637666,1.164,-0.036,0.117,24.990,18.480,25.900
16637686,1.214,-0.093,0.067,48.930,33.180,34.440
16637705,1.241,-0.126,-0.017,72.940,45.080,41.860
16637728,1.216,-0.113,-0.065,98.980,74.830,42.770
16637749,0.969,0.029,0.015,79.100,84.350,44.870
16637770,0.956,-0.001,0.088,33.390,97.020,53.200
16637794,0.909,-0.148,0.079,2.450,109.200,61.110
16637814,0.759,-0.199,0.117,10.220,143.570,61.950
16637834,0.548,-0.212,0.169,20.300,148.820,62.300
16637850,0.529,-0.354,0.247,29.330,158.130,60.760
16637869,0.445,-0.314,0.316,42.770,173.670,55.020
16637889,0.295,-0.306,0.369,38.010,173.320,52.360
16637914,0.222,-0.278,0.410,51.520,185.220,51.380
16637934,0.046,-0.274,0.502,72.030,189.210,53.900
16637957,-0.106,-0.213,0.566,90.440,182.490,51.030
16637977,-0.117,-0.159,0.620,100.450,184.730,44.660
16638001,-0.235,-0.107,0.622,95.200,194.110,40.110
16638020,-0.309,-0.070,0.641,91.420,173.600,37.450
16638041,-0.386,0.008,0.678,77.910,171.780,35.000
16638061,-0.484,0.042,0.693,68.110,153.790,27.440
16638081,-0.471,0.008,0.636,71.680,152.390,19.320
16638100,-0.529,0.016,0.634,88.060,157.220,12.530
16638121,-0.569,0.059,0.648,95.200,158.620,4.480
16638137,-0.632,0.110,0.620,94.010,161.910,2.800
16638161,-0.673,0.148,0.602,81.690,155.120,-4.480
16638181,-0.694,0.173,0.562,72.030,145.320,-9.380
16638205,-0.873,0.197,0.550,67.900,144.410,-16.100
16638225,-0.826,0.166,0.577,68.110,140.210,-19.040
16638242,-0.778,0.178,0.551,70.350,139.790,-22.120
16638265,-0.821,0.192,0.490,73.080,142.660,-29.400
16638282,-0.900,0.243,0.491,70.700,141.610,-33.670
16638301,-0.898,0.261,0.506,57.120,132.510,-35.980
16638325,-0.939,0.220,0.431,56.280,127.540,-37.310
16638346,-1.017,0.258,0.435,58.170,123.130,-39.340
16638365,-1.032,0.272,0.412,55.300,122.570,-42.140
16638384,-1.040,0.267,0.341,51.100,123.270,-42.910
16638409,-1.076,0.254,0.291,49.070,125.300,-44.310
16638429,-1.198,0.229,0.248,45.430,128.590,-45.990
16638447,-1.250,0.224,0.236,44.730,118.580,-47.250
16638467,-1.236,0.217,0.204,44.800,119.070,-49.210
16638490,-1.277,0.211,0.199,46.830,123.830,-49.210
16638510,-1.354,0.184,0.171,43.540,120.400,-49.280
16638534,-1.390,0.161,0.152,41.510,115.010,-50.260
16638553,-1.399,0.163,0.139,40.110,113.540,-51.730
16638573,-1.404,0.157,0.091,41.300,111.860,-53.620
16638595,-1.411,0.163,0.111,36.260,111.510,-58.100
16638617,-1.411,0.159,0.143,31.290,112.420,-63.840
16638637,-1.426,0.134,0.131,30.030,112.070,-68.040
16638656,-1.382,0.082,0.074,38.500,110.810,-69.860
16638675,-1.378,0.116,0.059,41.300,109.760,-71.540
16638696,-1.469,0.116,0.121,29.400,114.240,-74.830
16638715,-1.440,0.169,0.077,15.120,93.520,-73.710
16638734,-1.309,0.069,0.017,12.250,85.750,-71.820
16638759,-1.302,0.098,-0.087,19.250,97.790,-78.820
16638783,-1.571,0.397,0.079,-38.150,83.020,-89.460
16638802,-1.274,0.128,0.082,-92.750,55.790,-78.680
16638822,-1.147,-0.052,-0.035,-65.100,83.860,-70.630
16638841,-1.255,-0.004,-0.161,-39.690,93.380,-55.860
16638866,-1.385,-0.010,-0.156,-30.450,86.590,-41.370
16638886,-1.294,-0.030,-0.090,-26.320,68.600,-32.830
16638901,-1.235,-0.093,-0.149,-17.570,62.580,-23.520
16638921,-1.079,-0.194,-0.268,-1.890,75.530,-19.670
16638941,-1.159,0.125,-0.546,4.690,118.930,14.980
16638966,-2.735,1.203,0.018,-267.050,-244.300,24.220
16638986,-0.565,-0.936,0.194,30.030,36.120,6.230
16639005,-1.472,-0.041,0.044,91.980,51.170,9.660
16639021,-1.438,0.239,-0.213,-11.270,-47.810,2.030
16639045,-1.239,0.056,-0.276,-29.540,12.460,-0.560
16639066,-1.490,-0.097,-0.415,-52.990,-23.310,4.410
16639086,-1.298,-0.175,-0.401,-44.380,-25.270,20.230
16639106,-1.449,0.034,-0.321,-55.650,-44.310,29.190
16639124,-1.423,-0.043,-0.303,-57.960,-58.660,38.990
16639148,-1.480,-0.022,-0.237,-47.810,-76.930,51.380
16639168,-1.415,-0.027,-0.086,-19.880,-90.580,54.110
16639187,-1.414,0.025,0.033,-9.590,-86.100,57.050
16639204,-1.281,-0.025,0.050,4.830,-79.800,59.850
16639228,-1.200,-0.019,0.027,19.880,-60.270,62.300
16639248,-1.247,0.034,0.010,44.310,-51.520,65.100
16639267,-1.264,0.099,-0.099,49.980,-54.880,66.850
16639292,-1.314,0.150,-0.201,49.070,-70.770,61.320
16639312,-1.226,0.238,-0.280,26.740,-97.090,52.710
16639332,-1.219,0.336,-0.200,-4.060,-116.200,49.910
16639352,-1.180,0.317,-0.171,-46.200,-107.310,54.320
16639371,-1.162,0.218,-0.093,-41.790,-107.380,61.460
16639393,-1.050,0.214,-0.039,-31.500,-102.060,69.160
16639412,-1.012,0.200,-0.014,-25.620,-99.680,74.900
16639432,-0.979,0.220,0.017,-22.470,-92.400,80.220
16639456,-1.006,0.290,0.041,-31.920,-95.200,77.630
16639475,-1.051,0.327,0.032,-41.300,-103.390,70.840
16639498,-1.012,0.267,-0.000,-38.780,-111.020,62.300
16639518,-0.927,0.209,0.009,-18.410,-111.440,59.920
16639539,-0.752,0.267,0.062,0.350,-104.650,55.720
16639558,-0.869,0.329,0.058,-4.830,-99.470,50.680
16639578,-0.871,0.318,0.041,-17.290,-97.020,46.410
16639597,-0.876,0.343,0.063,-32.480,-94.290,44.100
16639621,-0.868,0.358,0.106,-38.570,-86.870,40.460
16639637,-0.861,0.364,0.149,-40.670,-80.220,37.590
16639662,-0.862,0.377,0.169,-44.100,-70.280,34.020
16639682,-0.882,0.391,0.176,-48.230,-66.220,31.150
16639702,-0.878,0.385,0.182,-54.600,-65.940,26.530
16639720,-0.887,0.367,0.197,-59.010,-65.380,23.520
16639738,-0.895,0.382,0.216,-67.620,-63.910,20.230
16639759,-0.875,0.370,0.273,-79.870,-65.240,14.700
16639783,-0.846,0.353,0.321,-93.800,-63.140,6.580
16639801,-0.847,0.357,0.370,-105.980,-65.870,-0.840
16639821,-0.802,0.369,0.499,-118.370,-63.280,-8.820
16639843,-0.794,0.341,0.575,-135.030,-58.100,-15.540
16639861,-0.784,0.242,0.581,-145.740,-63.000,-17.990
16639885,-0.775,0.190,0.601,-146.580,-68.530,-17.010
16639908,-0.752,0.164,0.623,-143.710,-73.080,-15.120
16639929,-0.716,0.080,0.669,-134.260,-73.080,-17.220
16639949,-0.702,-0.006,0.661,-122.990,-75.670,-20.580
16639969,-0.664,-0.048,0.676,-110.880,-72.870,-25.130
16639993,-0.682,-0.043,0.740,-105.350,-71.190,-35.210
16640014,-0.672,-0.073,0.801,-111.650,-71.050,-46.340
16640034,-0.651,-0.137,0.833,-120.820,-73.150,-58.170
16640058,-0.603,-0.156,0.884,-129.430,-72.660,-77.140
16640075,-0.570,-0.192,0.916,-136.500,-74.480,-88.340
16640098,-0.552,-0.310,0.894,-141.960,-74.830,-100.590
16640119,-0.508,-0.388,0.890,-132.930,-72.660,-108.290
16640139,-0.496,-0.378,0.930,-125.300,-72.940,-121.030
16640160,-0.486,-0.411,0.935,-123.620,-73.010,-130.410
16640184,-0.446,-0.531,0.900,-113.050,-76.230,-137.830
16640204,-0.371,-0.610,0.839,-73.990,-78.330,-145.880
16640222,-0.354,-0.506,0.851,-64.050,-67.200,-146.440
16640244,-0.485,-0.546,0.935,-56.980,-64.610,-140.350
16640261,-0.435,-0.685,0.929,-34.790,-71.610,-138.530
16640281,-0.377,-0.566,0.956,-7.910,-63.210,-136.920
16640301,-0.412,-0.468,0.894,-11.410,-84.560,-142.800
16640325,-0.282,-0.425,0.813,-28.280,-103.110,-147.980
16640343,-0.227,-0.475,0.758,-20.720,-100.660,-142.660
16640363,-0.205,-0.409,0.708,-4.550,-107.730,-137.060
16640385,-0.137,-0.375,0.630,3.360,-107.380,-129.850
16640405,-0.102,-0.294,0.583,7.070,-111.020,-125.650
16640429,0.008,-0.185,0.523,-8.400,-132.580,-122.220
16640448,0.203,-0.305,0.477,-7.280,-129.150,-113.750
16640468,0.368,-0.371,0.334,20.650,-134.260,-107.870
16640492,0.349,-0.232,0.251,56.910,-131.810,-96.740
16640510,0.443,-0.155,0.294,71.680,-145.740,-84.910
16640534,0.568,-0.089,0.222,90.930,-134.050,-70.980
16640554,0.588,-0.146,0.172,114.240,-170.030,-69.720
16640574,0.865,0.076,-0.021,101.780,-185.500,-70.560
16640594,1.031,0.227,-0.074,33.460,-135.590,-38.360
16640618,0.982,-0.006,0.043,-17.010,-68.250,-14.350
16640636,0.990,-0.230,0.129,13.930,-76.370,-11.550
16640656,1.110,-0.108,0.128,65.100,-46.830,-11.130
16640680,1.088,-0.027,0.149,86.590,-15.610,0.000
16640699,1.055,0.050,0.163,53.200,-17.080,3.430
16640719,1.136,0.043,0.177,0.280,-27.790,14.490
16640738,1.200,-0.051,0.179,-41.440,-9.520,20.090
16640756,1.100,-0.163,0.173,-48.160,-13.860,26.110
16640776,1.191,-0.323,0.149,-40.810,-9.310,30.800
16640796,1.200,-0.432,0.082,-16.170,11.830,29.470
16640816,1.092,-0.360,0.185,4.130,28.490,22.610
16640839,1.054,-0.238,0.287,0.070,29.610,23.450
16640859,1.067,-0.345,0.228,-7.070,40.740,30.380
16640882,1.047,-0.450,0.189,6.440,49.980,33.740
16640906,1.057,-0.397,0.233,17.150,61.600,37.100
16640925,0.989,-0.370,0.256,16.450,72.240,39.970
16640946,0.917,-0.368,0.274,19.810,77.980,42.980
16640964,0.855,-0.445,0.281,18.340,81.900,49.630
16640983,0.844,-0.464,0.336,32.200,88.760,50.330
16641004,0.748,-0.418,0.380,47.040,102.060,53.200
16641028,0.641,-0.374,0.374,67.830,118.580,54.040
16641048,0.581,-0.251,0.451,71.820,122.710,54.110
16641067,0.446,-0.241,0.470,63.770,149.100,62.230
16641091,0.233,-0.337,0.462,67.340,139.020,70.140
16641111,0.233,-0.252,0.491,74.270,129.780,69.510
16641131,0.232,-0.186,0.483,69.020,136.990,69.720
16641150,0.081,-0.193,0.485,60.200,164.570,73.710
16641170,-0.081,-0.207,0.559,58.100,156.310,72.310
16641189,-0.107,-0.192,0.615,61.950,141.190,67.970
16641213,-0.168,-0.163,0.585,64.190,167.370,70.210
16641233,-0.336,-0.187,0.565,73.990,165.620,71.190
16641257,-0.400,-0.129,0.649,81.340,140.630,63.280
16641274,-0.367,-0.097,0.666,77.980,143.850,59.500
16641298,-0.460,-0.065,0.664,81.690,149.660,53.060
16641318,-0.531,-0.086,0.636,84.770,144.340,48.160
16641338,-0.501,-0.067,0.624,89.530,143.290,42.840
16641361,-0.577,0.001,0.631,86.100,150.360,38.640
16641385,-0.709,-0.005,0.646,72.100,138.600,25.830
16641409,-0.645,-0.015,0.627,72.870,135.310,15.190
16641425,-0.659,-0.004,0.566,78.890,142.940,8.260
16641449,-0.747,0.008,0.511,82.390,142.100,-0.420
16641467,-0.737,0.031,0.526,85.190,142.380,-6.440
16641489,-0.777,0.125,0.516,55.790,142.380,-14.560
16641509,-0.810,0.138,0.479,62.020,141.680,-20.790
16641528,-0.861,0.132,0.381,53.620,142.240,-25.060
16641546,-0.975,0.150,0.392,45.430,146.020,-26.600
16641570,-1.019,0.174,0.420,34.160,133.490,-27.300
16641589,-1.015,0.154,0.414,28.840,133.630,-25.480
16641613,-1.076,0.154,0.365,28.700,135.240,-24.150
16641632,-1.124,0.142,0.342,26.950,132.720,-22.400
16641656,-1.179,0.138,0.336,26.600,131.110,-22.260
16641676,-1.212,0.119,0.293,21.070,124.810,-21.420
16641692,-1.238,0.091,0.280,22.400,127.330,-20.440
16641716,-1.301,0.071,0.260,24.500,131.740,-19.810
16641736,-1.326,0.031,0.181,27.370,125.370,-20.720
16641752,-1.322,0.026,0.151,25.270,122.500,-22.120
16641776,-1.356,0.008,0.141,23.450,118.230,-30.240
16641795,-1.359,-0.008,0.138,21.280,117.600,-36.050
16641816,-1.389,0.014,0.148,22.050,128.800,-41.300
16641836,-1.405,0.029,0.091,18.690,123.550,-42.210
16641855,-1.340,-0.025,0.051,19.250,121.380,-43.260
16641879,-1.377,-0.035,0.050,18.830,128.170,-43.960
16641901,-1.545,0.041,0.156,7.980,127.120,-49.770
16641919,-1.441,0.061,0.168,7.630,112.420,-48.930
16641942,-1.317,0.002,0.026,4.410,103.810,-39.830
16641962,-1.305,-0.110,-0.068,19.250,100.940,-39.550
16641986,-1.375,0.015,0.042,23.660,88.970,-32.690
16642005,-1.386,0.035,-0.048,24.990,77.910,-28.770
16642024,-1.239,-0.012,-0.195,24.850,76.510,-25.270
16642048,-1.370,0.073,-0.257,30.730,92.820,-30.870
16642069,-1.529,0.251,-0.031,-4.620,64.680,-29.260
16642089,-1.070,-0.176,-0.165,-13.580,68.740,-29.890
16642108,-1.186,-0.189,-0.269,8.610,82.250,-27.440
16642131,-1.299,0.051,-0.124,44.450,87.570,-45.780
16642150,-2.461,1.436,0.411,-77.770,9.590,-0.630
16642171,-0.876,-0.920,0.202,-167.510,-70.350,12.040
16642193,-1.505,-0.055,0.355,43.400,28.560,27.580
16642212,-1.388,-0.007,0.242,16.660,-38.010,15.890
16642234,-1.237,-0.183,-0.112,43.890,20.090,7.560
16642257,-1.320,-0.118,-0.290,32.270,10.290,1.960
16642277,-1.343,-0.200,-0.513,40.180,4.060,2.100
16642296,-1.336,-0.201,-0.626,41.580,-12.670,17.010
16642314,-1.383,-0.013,-0.568,21.280,-39.900,38.150
16642338,-1.316,-0.011,-0.386,-4.410,-46.410,56.490
16642356,-1.357,0.034,-0.246,3.920,-30.940,63.000
16642376,-1.638,0.218,-0.091,2.030,-59.360,71.400
16642395,-1.539,0.168,-0.044,-16.940,-84.910,75.740
16642415,-1.460,0.045,0.034,-13.090,-87.850,80.920
16642440,-1.464,0.041,0.140,-2.240,-93.730,93.380
16642459,-1.413,0.265,0.198,7.980,-108.990,94.710
16642479,-1.380,0.322,0.143,5.460,-115.710,91.630
16642503,-1.358,0.232,-0.034,2.380,-137.270,88.760
16642523,-1.380,0.349,0.050,-2.450,-137.340,89.670
16642541,-1.176,0.430,-0.006,-32.480,-115.990,102.900
16642560,-1.129,0.528,0.127,-30.660,-117.180,98.070
16642585,-1.077,0.498,0.196,-55.020,-111.300,85.610
16642605,-1.033,0.392,0.233,-73.360,-101.710,73.850
16642624,-1.026,0.372,0.184,-73.220,-88.830,64.470
16642648,-1.007,0.280,0.061,-61.600,-86.940,58.030
16642668,-1.049,0.307,0.066,-59.710,-96.180,50.750
16642688,-1.080,0.343,0.089,-67.550,-101.990,35.910
16642707,-1.096,0.373,0.144,-75.530,-106.820,19.950
16642731,-1.061,0.350,0.165,-88.760,-106.820,0.420
16642746,-1.032,0.244,0.073,-89.530,-105.630,-7.350
16642766,-0.998,0.207,0.052,-89.670,-115.220,-11.340
16642786,-0.990,0.269,0.148,-98.910,-111.300,-16.030
16642806,-1.081,0.320,0.266,-106.750,-109.620,-26.810
16642831,-1.145,0.317,0.312,-115.430,-119.840,-42.630
16642847,-1.035,0.167,0.246,-108.010,-122.500,-47.040
16642871,-0.978,0.125,0.197,-90.930,-128.450,-48.790
16642891,-0.985,0.143,0.290,-77.560,-126.840,-47.600
16642910,-1.027,0.151,0.402,-67.200,-126.070,-46.970
16642935,-0.942,0.160,0.394,-53.550,-129.990,-47.250
16642953,-0.847,0.126,0.368,-47.460,-126.070,-43.540
16642973,-0.760,0.131,0.383,-35.490,-120.400,-38.850
16642997,-0.754,0.155,0.486,-35.140,-114.380,-37.450
16643015,-0.739,0.145,0.580,-41.230,-116.060,-38.360
16643038,-0.671,0.119,0.556,-41.930,-117.810,-40.110
16643059,-0.570,0.106,0.570,-38.430,-107.100,-38.430
16643079,-0.526,0.101,0.664,-42.350,-102.130,-37.310
16643102,-0.546,0.104,0.758,-52.780,-98.000,-41.090
16643122,-0.519,0.119,0.813,-72.030,-97.650,-47.600
16643143,-0.456,0.045,0.823,-85.960,-102.830,-53.340
16643159,-0.402,0.008,0.887,-90.090,-99.680,-55.720
16643183,-0.392,-0.112,0.867,-87.430,-99.260,-57.050
16643203,-0.346,-0.127,0.912,-82.810,-99.330,-57.680
16643220,-0.346,-0.112,0.904,-82.250,-95.270,-59.150
16643243,-0.327,-0.107,0.917,-85.470,-104.160,-62.790
16643258,-0.273,-0.163,0.901,-90.650,-105.630,-64.890
16643283,-0.249,-0.283,0.871,-78.750,-108.710,-66.080
16643303,-0.183,-0.338,0.839,-59.430,-111.650,-63.490
16643323,-0.142,-0.276,0.863,-51.660,-106.120,-64.470
16643343,-0.145,-0.308,0.819,-51.730,-109.760,-65.030
16643362,-0.085,-0.343,0.752,-43.400,-117.530,-64.260
16643386,-0.022,-0.356,0.722,-30.940,-114.870,-64.540
16643402,0.005,-0.295,0.692,-25.060,-114.520,-68.180
16643426,0.063,-0.244,0.666,-34.230,-114.030,-65.310
16643445,0.118,-0.337,0.602,-33.180,-120.190,-64.610
16643466,0.183,-0.344,0.497,-5.810,-115.920,-63.630
16643485,0.224,-0.346,0.478,11.060,-114.310,-59.990
16643505,0.273,-0.235,0.474,5.880,-125.580,-58.800
16643529,0.339,-0.258,0.443,-0.420,-149.590,-51.030
16643548,0.616,-0.276,0.382,8.540,-146.580,-51.240
16643571,0.558,-0.257,0.411,25.970,-115.850,-45.150
16643592,0.580,-0.149,0.486,16.030,-100.660,-43.960
16643612,0.605,-0.144,0.410,3.500,-109.900,-41.440
16643632,0.756,-0.249,0.325,-1.820,-104.720,-35.630
16643652,0.836,-0.314,0.288,15.260,-92.400,-32.270
16643667,0.842,-0.284,0.329,28.140,-76.020,-31.010
16643692,0.803,-0.124,0.270,17.360,-79.660,-32.060
16643716,0.949,-0.196,0.276,-4.060,-70.770,-22.890
16643735,0.976,-0.219,0.347,-10.150,-55.160,-15.120
16643759,0.984,-0.204,0.336,-17.570,-53.340,-12.530
16643778,1.004,-0.205,0.297,-13.230,-38.640,-10.010
16643802,1.014,-0.258,0.260,-11.830,-40.460,-0.350
16643821,1.124,-0.331,0.209,16.800,-44.310,2.870
16643839,1.216,-0.298,0.182,10.850,-41.230,2.170
16643863,1.117,-0.242,0.215,6.370,-3.920,14.420
16643883,1.098,-0.342,0.298,7.700,-12.600,15.820
16643902,1.207,-0.271,0.318,-0.280,-5.320,15.820
16643926,1.236,-0.243,0.282,-1.820,8.610,15.610
16643945,1.171,-0.304,0.211,12.950,14.490,13.300
16643963,1.078,-0.289,0.183,41.860,28.560,13.300
16643987,1.106,-0.170,0.157,71.960,40.530,18.830
16644011,1.103,-0.134,0.157,55.300,57.120,34.790
16644029,1.040,-0.091,0.224,29.330,68.180,41.790
16644046,0.935,-0.096,0.231,0.770,73.220,50.050
16644066,0.865,-0.169,0.202,-11.970,80.710,59.780
16644091,0.830,-0.263,0.239,-0.630,91.840,64.050
16644109,0.772,-0.367,0.227,27.020,99.050,61.180
16644129,0.674,-0.249,0.292,43.750,112.210,58.800
16644149,0.590,-0.200,0.336,49.770,119.980,60.270
16644172,0.476,-0.193,0.334,48.930,155.890,72.170
16644191,0.324,-0.321,0.305,56.000,147.630,77.000
16644211,0.289,-0.275,0.301,62.580,157.710,75.530
16644235,0.197,-0.142,0.293,49.420,181.510,75.810
16644250,-0.065,-0.220,0.313,26.040,204.260,84.070
16644270,-0.223,-0.377,0.343,34.720,164.080,74.480
16644294,-0.161,-0.328,0.388,39.690,169.120,71.750
16644315,-0.221,-0.258,0.434,36.120,195.020,68.040
16644334,-0.439,-0.280,0.432,37.240,205.940,67.550
16644358,-0.551,-0.256,0.481,45.500,179.410,61.600
16644378,-0.542,-0.247,0.495,53.900,180.740,57.540
16644398,-0.628,-0.235,0.471,58.240,181.720,52.570
16644416,-0.704,-0.264,0.469,65.800,178.640,49.350
16644439,-0.781,-0.208,0.474,82.460,178.710,43.120
16644463,-0.781,-0.132,0.501,87.710,181.720,34.020
16644487,-0.818,-0.070,0.416,83.650,191.310,25.760
16644507,-0.992,-0.060,0.410,70.420,189.280,18.060
16644524,-1.106,-0.032,0.610,49.350,172.970,19.180
16644542,-1.037,-0.071,0.465,46.200,161.490,14.770
16644567,-0.982,-0.070,0.388,58.100,167.300,9.520
16644590,-1.078,-0.018,0.361,70.770,169.890,0.350
16644611,-1.194,-0.017,0.312,75.670,169.820,-4.410
16644630,-1.165,-0.000,0.305,77.630,164.990,-8.050
16644649,-1.170,0.035,0.302,75.950,169.190,-13.580
16644674,-1.368,0.104,0.280,59.010,162.470,-20.440
16644692,-1.281,0.031,0.273,53.410,148.890,-22.050
16644712,-1.182,-0.006,0.275,64.540,149.730,-20.580
16644734,-1.181,0.025,0.184,73.850,147.000,-19.950
16644753,-1.328,0.080,0.129,82.320,155.400,-24.920
16644778,-1.571,0.124,0.168,68.670,140.000,-33.390
16644798,-1.435,0.079,0.090,52.430,128.030,-17.990
16644818,-1.334,-0.001,0.091,50.400,122.850,-34.370
16644838,-1.307,0.033,0.123,49.840,125.090,-35.840
16644862,-1.422,0.076,0.084,49.770,126.420,-37.800
16644882,-1.475,0.106,0.016,45.850,114.310,-38.570
16644901,-1.484,0.080,0.022,46.340,104.860,-38.500
16644924,-1.448,0.082,0.000,37.940,94.150,-35.910
16644945,-1.418,0.121,-0.059,35.700,96.810,-30.940
16644964,-1.430,0.122,-0.092,29.680,97.510,-27.300
16644986,-1.460,0.101,-0.098,22.470,92.540,-25.410
16645005,-1.388,0.057,-0.102,22.750,87.220,-20.790
16645028,-1.394,0.116,-0.129,20.650,96.880,-18.340
16645045,-1.416,0.135,-0.148,5.390,98.560,-17.430
16645064,-1.418,-0.071,-0.234,8.680,98.210,-21.910
16645088,-1.367,-0.073,-0.302,27.090,89.530,-25.410
16645110,-1.338,0.173,-0.275,21.910,89.530,-30.450
16645129,-1.899,1.065,-0.080,-109.340,67.200,-19.320
16645151,-1.998,-0.588,0.606,-278.600,-108.430,26.040
16645170,-1.363,-0.901,0.515,172.620,-20.930,43.540
16645193,-1.440,0.447,0.187,63.770,-27.650,7.910
16645214,-1.438,0.097,-0.124,-67.060,16.660,-20.580
16645230,-1.629,0.072,-0.219,-95.410,2.590,-18.900
16645253,-1.565,-0.040,-0.330,-106.890,-14.840,4.130
16645274,-1.450,-0.215,-0.289,-47.250,-29.190,28.140
16645294,-1.554,0.038,-0.172,-44.870,-56.280,43.960
16645313,-1.443,0.059,-0.193,-56.070,-75.880,56.070
16645332,-1.478,0.073,-0.104,-51.170,-62.230,87.570
16645352,-1.615,0.237,0.006,-64.540,-94.570,68.950
16645377,-1.519,0.157,0.005,-68.530,-104.440,62.440
16645396,-1.457,0.101,-0.022,-54.320,-102.480,62.510
16645417,-1.390,0.082,-0.054,-34.580,-102.970,53.830
16645436,-1.362,0.146,-0.071,-22.120,-105.630,49.350
16645461,-1.342,0.207,-0.073,-23.590,-120.890,40.180
16645478,-1.325,0.219,-0.044,-24.150,-126.770,35.630
16645499,-1.301,0.254,-0.031,-26.740,-135.870,33.530
16645521,-1.240,0.246,-0.051,-22.400,-144.060,34.720
16645543,-1.197,0.239,-0.081,-11.830,-144.830,36.540
16645563,-1.205,0.278,-0.085,-12.740,-147.490,37.590
16645582,-1.155,0.277,-0.074,-14.910,-151.270,39.060
16645607,-1.085,0.225,-0.065,-13.300,-152.880,42.420
16645627,-0.988,0.146,-0.071,-6.930,-148.050,45.570
16645647,-0.946,0.131,-0.077,5.390,-139.930,47.810
16645665,-0.915,0.202,-0.059,10.080,-130.830,45.780
16645689,-0.921,0.240,-0.048,-1.820,-128.030,40.740
16645709,-0.904,0.248,-0.058,-12.740,-124.880,39.900
16645728,-0.891,0.257,-0.031,-20.230,-121.590,39.760
16645749,-0.878,0.252,0.041,-33.250,-115.080,38.430
16645769,-0.867,0.205,0.092,-42.000,-106.260,36.820
16645789,-0.833,0.170,0.164,-46.550,-98.770,34.370
16645813,-0.815,0.167,0.204,-47.320,-91.140,28.490
16645833,-0.787,0.180,0.262,-49.140,-83.930,23.450
16645848,-0.789,0.190,0.330,-58.380,-81.550,19.880
16645872,-0.808,0.186,0.455,-77.070,-80.010,8.400
16645893,-0.740,0.086,0.486,-81.690,-81.340,-0.840
16645912,-0.672,0.056,0.495,-75.250,-73.640,-10.010
16645936,-0.640,0.062,0.546,-70.420,-66.850,-24.220
16645956,-0.603,0.090,0.638,-70.350,-61.250,-37.310
16645976,-0.627,0.119,0.712,-82.530,-55.160,-52.220
16645994,-0.678,0.163,0.766,-100.100,-56.910,-68.880
16646015,-0.665,0.093,0.776,-119.980,-58.450,-83.370
16646036,-0.662,0.028,0.783,-122.430,-55.790,-95.200
16646052,-0.631,-0.060,0.793,-112.210,-54.390,-102.690
16646076,-0.647,-0.015,0.810,-100.870,-52.640,-111.230
16646091,-0.692,-0.013,0.874,-105.210,-60.200,-119.140
16646115,-0.676,-0.127,0.887,-108.360,-64.190,-125.300
16646135,-0.661,-0.182,0.918,-98.770,-66.150,-125.720
16646156,-0.656,-0.194,0.953,-88.410,-58.730,-128.730
16646176,-0.676,-0.158,0.966,-94.080,-67.200,-133.140
16646196,-0.591,-0.215,0.935,-107.240,-81.410,-134.470
16646220,-0.529,-0.285,0.901,-95.060,-83.650,-133.000
16646239,-0.494,-0.335,0.908,-79.590,-86.170,-130.550
16646260,-0.462,-0.386,0.941,-57.750,-91.490,-131.810
16646280,-0.368,-0.376,0.873,-42.210,-95.480,-126.630
16646304,-0.294,-0.336,0.790,-30.100,-102.410,-121.660
16646324,-0.258,-0.339,0.745,-33.740,-106.820,-120.190
16646339,-0.179,-0.393,0.789,-33.180,-111.020,-119.490
16646363,-0.110,-0.384,0.758,-7.420,-111.650,-115.850
16646380,-0.074,-0.392,0.621,13.930,-113.960,-106.680
16646404,0.003,-0.338,0.592,43.400,-110.530,-100.870
16646423,0.045,-0.173,0.617,30.940,-112.840,-96.320
16646441,0.125,-0.191,0.556,18.200,-124.950,-86.380
16646462,0.244,-0.241,0.448,20.860,-142.310,-78.540
16646483,0.394,-0.260,0.430,40.530,-128.660,-70.210
16646507,0.404,-0.197,0.461,57.400,-115.290,-62.440
16646526,0.444,-0.191,0.458,63.350,-124.110,-66.150
16646546,0.499,-0.124,0.426,65.450,-146.510,-69.930
16646570,0.671,-0.042,0.384,46.270,-161.560,-63.490
16646589,0.958,-0.040,0.394,21.560,-114.170,-47.880
16646608,0.952,-0.086,0.317,16.450,-76.300,-32.620
16646628,0.913,-0.208,0.280,16.030,-57.680,-19.740
16646651,0.909,-0.194,0.385,17.850,-39.130,-11.620
16646671,0.855,-0.179,0.410,4.970,-41.720,-8.470
16646691,0.947,-0.274,0.363,-1.820,-41.860,2.240
16646715,0.986,-0.374,0.355,11.480,-30.380,1.540
16646738,1.008,-0.247,0.482,17.430,-16.240,-8.750
16646759,0.952,-0.200,0.490,-14.770,-12.320,-4.130
16646776,0.989,-0.346,0.484,-15.190,-7.560,-4.200
16646800,0.967,-0.290,0.485,-3.500,-7.000,-8.750
16646820,0.991,-0.234,0.475,-1.190,-4.550,-6.720
16646838,0.983,-0.198,0.461,4.200,3.990,-7.210
16646857,0.969,-0.164,0.465,8.470,8.260,0.910
16646882,1.014,-0.162,0.446,8.470,11.620,5.250
16646898,1.009,-0.121,0.448,10.150,17.780,6.510
16646917,1.012,-0.057,0.468,5.250,22.190,13.790
16646941,0.998,-0.034,0.463,-0.210,35.280,26.320
16646958,0.996,-0.055,0.450,4.340,40.460,33.950
16646982,1.021,-0.092,0.398,12.670,47.740,46.060
16646999,0.994,-0.045,0.338,24.360,56.840,48.090
16647019,0.810,0.058,0.293,17.080,74.550,63.560
16647043,0.697,-0.043,0.288,12.110,73.850,83.230
16647063,0.711,-0.161,0.313,19.600,92.190,92.960
16647083,0.607,-0.205,0.340,23.170,105.070,100.590
16647102,0.461,-0.204,0.417,28.000,117.880,99.610
16647120,0.358,-0.253,0.443,25.900,121.240,99.890
16647140,0.325,-0.323,0.446,32.900,131.180,95.970
16647164,0.192,-0.316,0.462,30.870,153.720,100.380
16647181,0.041,-0.274,0.678,19.530,164.710,104.230
16647204,-0.117,-0.302,0.698,5.180,154.490,110.040
16647222,-0.204,-0.393,0.671,11.270,157.570,112.840
16647239,-0.312,-0.472,0.697,26.810,158.900,117.040
16647264,-0.409,-0.538,0.767,48.650,131.460,115.010
16647284,-0.397,-0.447,0.827,75.460,116.830,105.630
16647308,-0.397,-0.330,0.819,77.840,130.970,99.890
16647328,-0.555,-0.421,0.747,84.840,143.780,107.730
16647348,-0.610,-0.461,0.787,116.060,105.560,96.880
16647367,-0.415,-0.394,0.762,145.180,79.660,86.030
16647387,-0.287,-0.184,0.677,165.200,101.080,70.350
16647407,-0.456,-0.063,0.603,157.080,119.840,60.830
16647426,-0.560,-0.020,0.542,148.750,120.610,43.050
16647449,-0.531,0.050,0.384,134.190,109.270,24.430
16647469,-0.489,0.084,0.456,121.240,109.690,18.690
16647489,-0.538,0.119,0.401,106.190,125.230,7.630
16647513,-0.631,0.141,0.340,93.170,133.840,-0.980
16647533,-0.666,0.132,0.295,84.210,137.270,-9.030
16647552,-0.715,0.149,0.269,80.150,139.370,-16.940
16647572,-0.813,0.186,0.294,72.800,137.480,-26.180
16647592,-0.868,0.201,0.320,57.750,137.900,-33.950
16647613,-0.840,0.171,0.295,50.400,138.110,-40.810
16647630,-0.812,0.157,0.242,51.380,145.250,-42.210
16647654,-0.934,0.178,0.195,52.220,153.930,-47.600
16647674,-1.040,0.184,0.194,48.160,150.500,-48.020
16647694,-1.069,0.199,0.165,38.570,136.290,-52.430
16647712,-1.052,0.167,0.143,35.980,138.390,-52.640
16647736,-1.151,0.191,0.102,31.430,148.260,-57.610
16647756,-1.281,0.201,0.110,21.490,144.340,-57.330
16647776,-1.275,0.168,0.048,17.570,136.080,-57.960
16647796,-1.319,0.121,-0.008,23.800,136.080,-54.950
16647819,-1.368,0.073,-0.041,32.970,126.840,-49.630
16647839,-1.293,0.082,-0.029,43.400,122.570,-47.460
16647859,-1.308,0.120,0.010,41.930,128.100,-48.230
16647883,-1.437,0.110,-0.003,25.060,131.390,-54.320
16647903,-1.499,0.046,-0.035,18.760,116.760,-61.110
16647922,-1.390,0.074,-0.042,11.830,112.000,-67.060
16647938,-1.412,0.110,-0.046,-3.990,115.500,-70.070
16647963,-1.467,-0.006,-0.117,-7.000,107.450,-70.700
16647980,-1.499,-0.054,-0.126,5.810,106.680,-67.550
16648000,-1.544,-0.009,-0.206,28.000,97.510,-60.900
16648024,-1.479,0.107,-0.199,14.490,95.480,-49.700
16648044,-1.535,0.109,-0.136,-0.910,88.760,-36.540
16648061,-1.568,0.021,-0.207,8.120,77.560,-25.690
16648084,-1.463,-0.008,-0.259,17.220,77.350,-16.170
16648104,-1.408,-0.102,-0.262,25.410,72.730,-13.440
16648121,-1.365,-0.027,-0.246,23.030,68.180,-18.410
16648140,-1.212,-0.150,-0.281,-0.490,70.630,-13.510
16648160,-1.289,-0.078,-0.343,22.400,97.160,-12.950
16648185,-2.009,-0.680,0.926,114.590,-33.810,63.630
16648205,-1.732,0.759,0.565,25.410,-61.180,28.630
16648223,-0.956,-0.038,0.172,-2.590,13.650,6.300
16648245,-1.466,0.265,0.017,-35.840,10.080,-10.920
16648265,-1.293,0.024,-0.117,-68.250,-8.960,-15.050
16648286,-1.382,-0.121,-0.455,-72.660,-3.850,-12.600
16648304,-1.349,-0.089,-0.494,-44.940,-3.640,-0.910
16648324,-1.376,-0.132,-0.555,-33.460,-5.740,19.390
16648343,-1.370,-0.064,-0.446,-11.690,-13.790,39.200
16648363,-1.360,-0.000,-0.348,-16.870,-25.200,57.610
16648387,-1.361,0.046,-0.213,-30.660,-32.130,64.960
16648405,-1.430,0.056,-0.156,-40.530,-37.100,63.490
16648429,-1.421,0.015,-0.127,-47.600,-61.390,66.010
16648447,-1.366,-0.012,-0.105,-38.710,-65.730,61.460
16648469,-1.377,0.163,-0.156,-27.020,-74.410,52.150
16648489,-1.346,0.303,-0.082,-58.170,-93.520,40.390
16648509,-1.286,0.252,-0.055,-108.010,-123.970,25.200
16648533,-1.214,0.041,-0.114,-120.750,-131.600,12.950
16648553,-1.269,-0.053,-0.111,-82.460,-128.870,9.800
16648571,-1.230,0.006,-0.087,-37.100,-124.180,13.510
16648592,-1.142,0.067,-0.102,-13.440,-116.060,17.570
16648615,-1.117,0.093,-0.159,3.780,-112.210,20.860
16648636,-1.083,0.063,-0.208,29.610,-107.380,25.900
16648656,-1.053,0.137,-0.225,39.690,-108.570,29.750
16648674,-1.001,0.204,-0.208,33.040,-113.540,31.010
16648695,-0.924,0.198,-0.221,18.760,-115.990,33.110
16648714,-0.913,0.166,-0.242,16.100,-115.290,35.070
16648738,-0.957,0.129,-0.271,23.870,-112.490,37.590
16648758,-0.970,0.155,-0.259,29.120,-111.720,38.500
16648776,-0.935,0.181,-0.243,30.800,-108.920,39.620
16648800,-0.909,0.187,-0.227,31.990,-100.240,41.860
16648817,-0.911,0.190,-0.170,29.610,-91.350,42.700
16648841,-0.930,0.239,-0.079,15.610,-82.040,40.670
16648861,-0.946,0.281,0.008,-2.590,-73.080,38.150
16648881,-0.965,0.279,0.060,-12.110,-73.360,38.150
16648900,-0.924,0.342,0.270,-27.300,-69.230,34.300
16648923,-0.987,0.326,0.376,-69.510,-73.010,25.340
16648939,-0.975,0.243,0.383,-88.060,-80.500,20.440
16648962,-0.936,0.225,0.434,-94.780,-86.450,15.050
16648979,-0.947,0.253,0.495,-98.910,-90.440,8.680
16649004,-0.953,0.224,0.590,-95.760,-96.390,-2.310
16649022,-0.935,0.218,0.669,-97.300,-99.260,-10.920
16649044,-0.907,0.197,0.712,-101.990,-97.510,-20.510
16649064,-0.935,0.157,0.727,-96.110,-100.590,-27.230
16649084,-0.891,0.135,0.719,-82.110,-102.480,-31.360
16649100,-0.853,0.100,0.688,-71.050,-105.140,-35.630
16649124,-0.832,0.133,0.708,-57.820,-100.310,-41.580
16649144,-0.847,0.169,0.785,-62.650,-100.100,-50.050
16649164,-0.852,0.180,0.820,-73.710,-104.230,-59.990
16649184,-0.801,0.176,0.760,-83.440,-106.050,-69.510
16649203,-0.765,0.115,0.746,-90.090,-112.490,-76.160
16649227,-0.757,0.090,0.830,-98.840,-112.070,-84.000
16649247,-0.756,0.047,0.815,-98.770,-117.880,-89.390
16649265,-0.756,0.022,0.752,-88.690,-115.640,-91.770
16649282,-0.692,-0.026,0.751,-77.980,-121.870,-90.860
16649307,-0.592,-0.065,0.794,-70.210,-123.060,-84.700
16649325,-0.513,-0.094,0.815,-64.890,-125.580,-78.330
16649343,-0.467,-0.165,0.749,-56.770,-129.570,-77.700
16649363,-0.400,-0.199,0.760,-49.980,-129.920,-78.260
16649384,-0.326,-0.159,0.749,-42.070,-131.670,-80.150
16649405,-0.244,-0.176,0.724,-43.890,-128.310,-78.260
16649425,-0.198,-0.264,0.702,-31.010,-124.950,-74.970
16649448,-0.163,-0.246,0.681,-24.710,-118.720,-72.590
16649467,-0.147,-0.263,0.661,-26.110,-125.930,-71.260
16649489,-0.058,-0.281,0.536,-5.600,-132.440,-69.510
16649512,-0.017,-0.248,0.474,13.300,-124.110,-68.530
16649536,0.054,-0.171,0.595,9.240,-126.910,-72.240
16649556,0.149,-0.081,0.601,-11.060,-126.140,-69.090
16649574,0.214,-0.151,0.555,-17.570,-117.740,-62.580
16649593,0.270,-0.215,0.519,-9.450,-117.320,-56.350
16649618,0.359,-0.220,0.547,1.540,-126.000,-49.140
16649638,0.437,-0.294,0.471,6.160,-105.420,-39.200
16649654,0.546,-0.361,0.442,14.000,-120.610,-29.470
16649678,0.614,-0.221,0.485,4.060,-105.420,-28.700
16649696,0.639,-0.192,0.537,-17.430,-118.160,-26.600
16649718,0.789,-0.309,0.482,-23.030,-85.680,-18.760
16649741,0.823,-0.389,0.509,1.750,-79.380,-13.650
16649762,0.873,-0.275,0.516,9.450,-70.910,-14.000
16649780,0.905,-0.212,0.442,-0.490,-64.050,-13.300
16649804,0.913,-0.233,0.392,-8.120,-55.160,-9.100
16649824,0.978,-0.367,0.299,5.320,-56.840,-0.770
16649840,1.032,-0.397,0.264,27.020,-46.550,-0.350
16649860,1.059,-0.238,0.258,31.780,-32.550,-5.320
16649879,1.041,-0.155,0.254,13.790,-18.760,4.830
16649904,1.040,-0.284,0.180,8.610,-4.900,14.490
16649923,1.078,-0.271,0.224,10.500,8.820,15.330
16649942,1.072,-0.205,0.304,-3.150,21.770,18.130
16649962,0.991,-0.243,0.321,-11.900,42.980,23.940
16649986,0.884,-0.312,0.350,-5.250,57.050,33.250
16650004,0.911,-0.374,0.397,1.610,63.840,40.530
16650025,0.908,-0.364,0.458,4.620,75.880,45.780
16650049,0.809,-0.352,0.516,2.940,85.190,44.940
16650067,0.761,-0.339,0.628,0.280,88.900,44.450
16650084,0.657,-0.346,0.668,17.780,93.450,40.040
16650107,0.604,-0.451,0.643,28.560,95.270,54.460
16650131,0.541,-0.386,0.619,52.570,98.420,64.890
16650149,0.483,-0.320,0.619,51.240,102.270,71.400
16650172,0.383,-0.243,0.614,51.800,111.020,74.130
16650193,0.267,-0.232,0.611,51.450,104.720,75.460
16650212,0.235,-0.321,0.575,52.220,119.210,83.720
16650237,0.145,-0.477,0.590,70.140,120.820,79.660
16650257,0.139,-0.257,0.554,92.190,122.150,65.170
16650277,0.127,-0.110,0.497,84.560,147.980,56.420
16650295,-0.059,-0.148,0.558,63.980,179.480,65.030
16650317,-0.284,-0.372,0.588,63.770,145.880,52.990
16650341,-0.163,-0.201,0.559,84.700,135.100,40.600
16650360,-0.257,-0.104,0.650,75.600,151.200,40.950
16650384,-0.412,-0.099,0.674,61.950,157.290,34.020
16650403,-0.470,-0.111,0.645,59.080,145.670,29.890
16650422,-0.489,-0.098,0.644,60.130,144.060,28.980
16650442,-0.553,-0.075,0.657,71.330,139.020,28.980
16650467,-0.566,-0.093,0.640,83.230,134.050,25.200
16650484,-0.608,-0.018,0.599,92.680,135.100,22.400
16650503,-0.621,0.043,0.584,87.710,134.610,18.480
16650522,-0.650,0.043,0.544,84.560,136.710,14.700
16650546,-0.723,0.065,0.471,76.230,137.200,8.330
16650567,-0.781,0.081,0.404,72.240,130.760,0.770
16650587,-0.808,0.085,0.357,66.010,126.560,-5.810
16650611,-0.803,0.093,0.329,65.030,126.490,-9.730
16650630,-0.866,0.118,0.294,70.630,128.520,-13.720
16650653,-0.964,0.122,0.224,66.150,138.180,-18.270
16650670,-1.022,0.114,0.184,69.440,122.640,-24.080
16650689,-0.990,0.173,0.203,65.870,125.020,-30.240
16650714,-1.059,0.170,0.177,57.610,131.740,-38.570
16650738,-1.152,0.181,0.119,55.090,134.120,-44.450
16650758,-1.232,0.211,0.082,52.290,129.080,-45.780
16650778,-1.239,0.212,0.077,49.350,125.580,-44.940
16650798,-1.301,0.219,0.047,44.800,127.680,-45.990
16650817,-1.385,0.235,0.041,37.590,129.010,-48.580
16650841,-1.382,0.229,0.051,24.640,123.690,-51.170
16650861,-1.340,0.188,0.053,23.380,126.560,-51.590
16650880,-1.346,0.124,0.007,23.380,128.030,-50.610
16650900,-1.383,0.108,0.007,28.210,128.590,-52.360
16650919,-1.412,0.153,0.045,22.190,121.590,-56.000
16650939,-1.384,0.005,0.083,8.260,116.760,-57.960
16650964,-1.317,0.071,0.028,-10.570,113.610,-57.890
16650988,-1.307,-0.070,-0.040,-11.900,116.340,-58.450
16651012,-1.415,-0.039,-0.073,8.540,116.200,-61.880
16651031,-1.424,0.029,-0.032,5.810,107.380,-63.070
16651055,-1.414,0.001,-0.139,-2.240,98.630,-65.030
16651074,-1.328,-0.072,-0.186,0.910,101.570,-62.860
16651095,-1.396,0.047,-0.224,-4.620,99.470,-59.920
16651113,-1.411,0.118,-0.258,-34.090,91.140,-54.880
16651137,-1.450,-0.078,-0.297,-42.070,87.640,-34.090
16651152,-1.411,-0.206,-0.328,-17.360,73.430,-22.960
16651177,-1.264,-0.241,-0.338,29.470,79.030,-11.130
16651196,-1.301,-0.216,-0.177,35.140,84.490,88.270
16651214,-2.508,0.596,0.858,167.370,-13.860,62.300
16651238,-1.312,0.275,0.228,44.660,-49.210,41.580
16651258,-1.206,0.478,-0.029,-40.530,7.000,12.600
16651275,-1.557,0.370,-0.101,-125.650,-22.610,-4.620
16651295,-1.323,0.041,-0.194,-150.220,-21.210,-17.990
16651319,-1.382,-0.188,-0.417,-149.940,-29.260,-12.250
16651336,-1.444,-0.161,-0.468,-115.360,-36.470,1.540
16651355,-1.329,-0.149,-0.499,-71.820,-46.550,17.710
16651379,-1.281,-0.044,-0.355,-46.620,-33.670,41.930
16651396,-1.385,-0.071,-0.223,-31.080,-39.690,54.810
16651415,-1.420,0.011,-0.097,-16.590,-56.700,59.990
16651440,-1.451,0.064,-0.026,-13.440,-77.490,70.140
16651460,-1.436,0.038,0.012,1.190,-97.440,67.270
16651479,-1.459,0.212,0.046,0.140,-103.320,66.430
16651499,-1.365,0.305,0.067,-36.610,-113.050,61.670
16651522,-1.339,0.272,0.161,-61.250,-126.280,54.530
16651539,-1.283,0.077,0.026,-75.740,-136.500,57.050
16651563,-1.181,0.038,0.119,-46.060,-131.810,55.790
16651583,-1.252,0.127,0.179,-31.640,-127.750,49.140
16651603,-1.245,0.194,0.171,-34.720,-128.100,41.020
16651623,-1.202,0.213,0.125,-44.520,-129.570,30.310
16651642,-1.222,0.202,0.069,-45.010,-130.550,19.740
16651662,-1.252,0.229,0.063,-43.260,-130.130,10.290
16651682,-1.262,0.230,0.041,-52.500,-143.850,6.650
16651706,-1.224,0.285,0.120,-58.940,-149.100,-2.240
16651726,-1.321,0.227,0.104,-65.940,-153.580,-5.740
16651745,-1.184,0.200,0.094,-49.980,-154.980,0.070
16651765,-1.103,0.224,0.107,-36.400,-142.100,5.390
16651786,-1.073,0.255,0.163,-29.190,-136.150,7.770
16651806,-1.032,0.212,0.118,-33.320,-132.790,8.260
16651826,-1.004,0.181,0.091,-32.340,-130.410,7.840
16651850,-0.995,0.189,0.126,-31.850,-123.060,5.670
16651869,-0.966,0.191,0.176,-27.860,-120.540,5.810
16651889,-0.876,0.209,0.247,-35.490,-116.830,4.130
16651910,-0.855,0.182,0.318,-39.340,-107.940,2.100
16651929,-0.880,0.166,0.335,-37.730,-100.870,-0.420
16651954,-0.865,0.151,0.365,-33.530,-102.130,-3.220
16651970,-0.816,0.145,0.392,-31.710,-103.390,-3.710
16651990,-0.777,0.133,0.436,-25.900,-101.640,-2.170
16652014,-0.747,0.140,0.534,-24.360,-99.050,-0.350
16652038,-0.691,0.143,0.573,-31.500,-93.590,-2.940
16652056,-0.657,0.110,0.625,-32.200,-90.230,-7.770
16652074,-0.634,0.143,0.658,-38.150,-87.150,-15.610
16652098,-0.608,0.125,0.798,-60.830,-83.230,-29.260
16652118,-0.600,0.122,0.891,-74.760,-81.550,-40.040
16652141,-0.609,0.082,0.856,-100.100,-80.080,-54.880
16652161,-0.596,-0.024,0.825,-101.500,-88.060,-63.840
16652185,-0.550,-0.020,0.939,-104.300,-91.980,-77.490
16652203,-0.582,-0.051,1.019,-112.210,-86.100,-88.130
16652223,-0.600,-0.101,0.976,-111.580,-94.990,-98.140
16652242,-0.520,-0.154,0.903,-100.310,-101.640,-99.890
16652266,-0.443,-0.191,0.941,-79.380,-107.800,-98.560
16652285,-0.396,-0.186,0.919,-64.190,-109.550,-103.320
16652310,-0.381,-0.142,0.828,-51.450,-110.460,-107.030
16652329,-0.340,-0.238,0.716,-33.600,-120.750,-103.740
16652349,-0.183,-0.234,0.713,-2.170,-126.630,-99.470
16652369,-0.144,-0.096,0.799,5.950,-113.820,-94.850
16652392,-0.164,-0.052,0.727,-6.720,-116.900,-89.250
16652413,-0.072,-0.111,0.587,-17.850,-130.340,-78.820
16652432,0.053,-0.165,0.599,-13.440,-141.050,-72.870
16652456,0.144,-0.119,0.605,-7.280,-140.140,-66.850
16652472,0.264,-0.140,0.537,-7.980,-142.450,-61.390
16652496,0.370,-0.214,0.532,2.100,-127.400,-58.800
16652512,0.380,-0.183,0.577,19.530,-114.870,-53.060
16652534,0.413,-0.095,0.472,17.850,-122.640,-49.280
16652558,0.505,-0.152,0.380,16.030,-128.870,-44.590
16652578,0.566,-0.189,0.262,37.450,-126.560,-40.530
16652598,0.723,-0.167,0.280,62.230,-125.090,-24.430
16652614,0.726,-0.076,0.279,58.730,-83.160,-15.680
16652636,0.774,-0.058,0.341,31.710,-67.760,-5.530
16652654,0.813,-0.063,0.325,7.770,-65.310,-0.210
16652678,0.824,-0.113,0.407,-27.160,-52.080,0.210
16652697,0.923,-0.208,0.441,-39.270,-61.950,3.500
16652717,1.046,-0.369,0.362,-30.520,-35.910,7.140
16652738,1.037,-0.351,0.302,-10.850,-21.770,10.570
16652756,1.046,-0.315,0.303,-4.410,-12.320,7.140
16652776,1.043,-0.257,0.331,-21.490,-8.190,7.350
16652800,1.045,-0.286,0.334,-34.790,-1.120,7.140
16652819,1.044,-0.310,0.317,-29.820,5.180,7.140
16652838,1.065,-0.327,0.320,-21.000,22.680,12.040
16652862,1.044,-0.304,0.385,-12.740,36.820,15.960
16652880,1.020,-0.262,0.361,-13.860,51.310,19.250
16652904,0.949,-0.306,0.370,-17.570,64.890,30.730
16652924,0.864,-0.332,0.415,-9.240,72.380,38.290
16652942,0.786,-0.360,0.447,-3.920,75.600,43.820
16652964,0.763,-0.372,0.485,8.050,85.540,45.080
16652983,0.664,-0.338,0.512,13.440,100.310,49.210
16653008,0.587,-0.339,0.531,19.880,100.520,55.860
16653028,0.531,-0.357,0.566,20.650,105.140,59.010
16653046,0.435,-0.360,0.584,30.590,104.650,58.170
16653068,0.346,-0.286,0.391,39.970,116.760,70.770
16653086,0.133,-0.435,0.314,27.860,169.610,69.650
16653110,-0.241,-0.702,0.597,27.160,145.530,68.530
16653130,0.162,-0.447,0.775,28.070,94.850,43.540
16653149,0.176,-0.492,0.595,-4.690,142.590,37.380
16653173,-0.068,-0.470,0.440,37.940,134.330,28.210
16653191,-0.060,-0.328,0.535,77.630,162.120,36.470
16653213,-0.222,-0.222,0.620,105.420,169.890,39.760
16653231,-0.264,-0.062,0.543,112.910,163.730,39.130
16653255,-0.337,0.083,0.532,96.180,172.830,35.420
16653274,-0.463,0.155,0.558,73.710,162.680,35.560
16653298,-0.538,0.123,0.656,62.860,155.890,36.400
16653316,-0.571,0.087,0.564,60.410,141.120,35.910
16653338,-0.555,0.040,0.523,83.020,140.910,40.250
16653362,-0.630,0.133,0.515,100.870,165.550,43.260
16653379,-0.802,0.187,0.593,91.420,154.070,39.480
16653403,-0.760,0.123,0.579,69.720,135.520,28.700
16653423,-0.695,0.064,0.480,65.100,131.670,25.480
16653441,-0.774,0.085,0.438,72.310,140.630,24.500
16653463,-0.915,0.088,0.413,78.610,137.760,17.570
16653487,-0.903,0.122,0.366,73.360,127.960,12.110
16653504,-0.936,0.124,0.337,68.040,131.460,8.470
16653525,-1.025,0.081,0.278,57.120,128.870,1.820
16653547,-1.015,0.043,0.198,59.290,128.730,-7.980
16653567,-1.084,0.071,0.136,54.530,140.210,-18.130
16653591,-1.192,0.053,0.057,35.210,146.230,-28.980
16653611,-1.246,-0.046,-0.029,29.050,135.380,-35.980
16653631,-1.204,-0.098,-0.020,29.330,141.820,-40.530
16653650,-1.227,-0.068,-0.001,31.570,156.940,-49.700
16653669,-1.371,0.019,0.013,23.730,171.780,-63.070
16653691,-1.418,0.074,-0.013,7.000,176.260,-75.040
16653710,-1.465,0.070,0.002,-6.510,177.800,-77.490
16653729,-1.510,0.091,0.053,-27.580,165.200,-71.610
16653752,-1.504,-0.004,0.042,-39.200,146.720,-60.130
16653776,-1.484,-0.057,-0.079,-9.240,140.140,-44.100
16653795,-1.553,-0.001,-0.070,27.160,133.280,-33.740
16653816,-1.480,0.010,-0.010,38.430,117.040,-24.570
16653836,-1.396,-0.034,-0.091,61.670,122.710,-11.480
16653855,-1.456,0.005,-0.191,84.280,138.390,-10.360
16653878,-1.574,0.154,-0.177,80.360,137.690,-10.430
16653896,-1.604,0.289,-0.093,38.360,114.310,-13.230
16653915,-1.360,0.042,-0.128,19.180,105.630,-15.470
16653940,-1.371,-0.087,-0.230,33.320,112.140,-20.230
16653960,-1.498,0.027,-0.211,38.220,96.530,-20.510
16653978,-1.445,0.066,-0.206,24.500,82.810,-20.160
16653997,-1.373,-0.077,-0.284,11.480,77.490,-21.910
16654022,-1.251,-0.668,-0.523,131.950,127.050,111.090
16654041,-2.945,0.932,1.011,291.900,-79.730,82.670
16654062,-1.193,0.715,-0.042,-35.770,-60.760,51.520
16654086,-1.134,0.359,-0.204,-102.130,-18.620,4.340
16654106,-1.061,0.053,-0.063,-118.230,-3.710,-2.590
16654126,-1.175,-0.098,-0.147,-91.630,2.870,-18.830
16654146,-1.133,-0.075,-0.313,-87.920,-10.850,-30.240
16654164,-1.134,-0.176,-0.536,-64.680,-8.050,-45.430
16654186,-1.194,0.003,-0.660,-44.380,-18.410,-38.500
16654210,-1.372,0.104,-0.685,-50.820,-16.870,-31.710
16654230,-1.215,0.153,-0.676,-82.460,-20.440,-20.090
16654250,-1.260,0.028,-0.601,-97.230,-24.430,-3.920
16654270,-1.381,-0.095,-0.482,-81.200,-35.350,22.400
16654289,-1.382,-0.109,-0.401,-57.400,-63.840,43.260
16654312,-1.232,-0.115,-0.377,-11.270,-65.030,62.580
16654332,-1.249,-0.011,-0.275,26.110,-39.690,62.230
16654356,-1.275,0.187,-0.084,20.090,-33.950,59.080
16654373,-1.185,0.234,0.054,-15.120,-18.830,53.830
16654393,-1.180,0.172,0.135,-43.960,6.510,42.700
16654417,-1.257,0.062,0.041,-61.740,2.800,31.010
16654437,-1.285,0.060,-0.074,-74.760,-14.490,16.870
16654461,-1.299,0.115,-0.020,-100.520,-46.410,-4.060
16654480,-1.293,0.007,-0.031,-113.750,-66.780,-20.510
16654501,-1.296,-0.047,-0.046,-111.230,-88.130,-33.600
16654519,-1.273,-0.124,-0.143,-99.470,-109.900,-42.840
16654538,-1.195,-0.176,-0.203,-69.720,-127.610,-47.250
16654562,-1.185,-0.149,-0.164,-36.960,-136.150,-58.310
16654582,-1.266,-0.071,-0.084,-23.800,-140.490,-69.230
16654602,-1.363,-0.038,-0.088,-17.920,-149.380,-77.350
16654617,-1.341,-0.034,-0.133,-14.840,-159.110,-79.450
16654640,-1.255,0.013,-0.111,-10.990,-163.240,-81.690
16654662,-1.341,0.112,-0.054,-8.050,-162.680,-87.360
16654683,-1.377,0.123,-0.022,-6.370,-166.320,-88.480
16654702,-1.307,0.059,0.001,-6.720,-169.750,-87.780
16654727,-1.222,0.033,-0.007,-0.070,-162.820,-83.860
16654743,-1.211,0.054,0.041,7.560,-160.860,-79.310
16654762,-1.229,0.100,0.103,8.260,-157.500,-77.420
16654787,-1.178,0.087,0.141,0.630,-157.850,-78.400
16654807,-1.107,0.072,0.130,-8.960,-154.280,-80.150
16654831,-1.083,0.007,0.115,-14.350,-155.750,-78.750
16654851,-1.064,0.015,0.318,-22.540,-151.970,-78.890
16654871,-1.012,-0.008,0.419,-37.100,-151.480,-82.950
16654891,-0.969,-0.093,0.434,-45.290,-146.090,-88.620
16654910,-1.000,-0.151,0.335,-46.620,-147.000,-91.770
16654931,-0.941,-0.298,0.417,-40.040,-156.590,-89.810
16654951,-0.811,-0.343,0.503,-21.560,-156.100,-89.880
16654970,-0.785,-0.287,0.526,-4.200,-153.650,-92.470
16654987,-0.777,-0.225,0.508,2.520,-155.680,-94.640
16655008,-0.732,-0.321,0.398,7.070,-164.640,-91.700
16655031,-0.562,-0.406,0.396,36.680,-173.880,-77.770
16655055,-0.451,-0.268,0.467,61.600,-165.060,-66.150
16655075,-0.427,-0.169,0.529,52.780,-164.500,-63.980
16655094,-0.384,-0.220,0.513,45.570,-170.520,-59.990
16655115,-0.288,-0.230,0.499,43.470,-186.620,-56.490
16655131,-0.120,-0.218,0.484,39.550,-189.910,-53.130
16655154,-0.029,-0.183,0.498,41.650,-164.640,-53.760
16655175,-0.027,-0.094,0.520,23.940,-161.210,-48.860
16655194,0.054,-0.169,0.506,13.160,-165.620,-42.560
16655214,0.204,-0.219,0.512,11.060,-172.970,-37.800
16655238,0.329,-0.140,0.639,7.490,-164.640,-39.410
16655258,0.401,-0.126,0.647,4.480,-147.910,-25.620
16655276,0.440,-0.208,0.614,6.790,-138.670,-16.450
16655299,0.504,-0.300,0.583,14.770,-141.540,-12.740
16655317,0.607,-0.316,0.543,42.910,-147.350,-14.070
16655340,0.722,-0.171,0.576,48.230,-126.490,-7.070
16655355,0.700,-0.160,0.509,38.570,-106.260,-2.520
16655375,0.765,-0.281,0.409,42.280,-123.340,-2.030
16655400,0.943,-0.263,0.158,67.830,-110.320,-4.550
16655419,1.043,-0.165,0.066,82.880,-85.260,2.380
16655439,1.080,-0.095,0.032,89.250,-65.170,8.610
16655463,1.098,-0.131,-0.078,79.590,-38.990,17.920
16655479,1.144,-0.114,-0.116,77.560,-32.690,14.700
16655503,1.286,-0.028,-0.105,43.120,6.230,19.460
16655523,1.189,-0.056,-0.044,12.320,46.060,24.920
16655541,0.971,-0.113,-0.006,1.890,62.720,27.790
16655565,0.898,-0.245,0.082,11.970,83.720,35.070
16655589,0.988,-0.294,0.285,6.160,105.490,41.510
16655609,0.868,-0.274,0.402,4.270,116.690,41.720
16655625,0.666,-0.159,0.463,-0.210,109.690,43.540
16655645,0.652,-0.189,0.497,5.180,112.140,46.130
16655664,0.556,-0.228,0.554,10.850,124.180,49.140
16655689,0.526,-0.277,0.684,28.490,137.130,46.690
16655709,0.442,-0.241,0.715,36.470,138.530,44.240
16655729,0.344,-0.142,0.699,20.370,144.760,49.560
16655749,0.223,-0.125,0.735,10.080,139.160,51.310
16655767,0.131,-0.035,0.767,-9.240,157.080,61.670
16655791,-0.097,-0.218,0.706,-5.460,163.940,70.000
16655811,-0.089,-0.273,0.642,22.610,140.350,71.400
16655832,-0.033,-0.128,0.632,40.530,147.770,69.860
16655856,-0.195,-0.081,0.572,38.570,159.950,68.670
16655880,-0.444,-0.192,0.524,41.510,186.830,77.070
16655899,-0.521,-0.263,0.358,61.040,163.730,72.310
16655918,-0.357,-0.188,0.364,88.340,152.600,71.190
16655935,-0.323,-0.042,0.305,95.410,179.900,71.680
16655960,-0.631,-0.059,0.252,80.640,212.030,65.030
16655979,-0.817,-0.090,0.309,79.310,166.950,44.520
16655999,-0.612,-0.061,0.319,81.900,177.870,37.030
16656019,-0.706,-0.064,0.126,84.490,199.010,28.420
16656042,-0.942,-0.033,0.114,79.660,190.470,18.200
16656060,-0.966,0.040,0.216,79.100,177.310,11.480
16656079,-0.992,0.077,0.268,68.460,175.210,3.570
16656103,-1.007,0.041,0.226,69.930,173.880,-7.420
16656123,-1.085,0.063,0.199,77.980,176.260,-17.360
16656144,-1.067,0.202,0.226,64.960,161.280,-26.460
16656161,-1.036,0.270,0.253,42.700,160.160,-35.140
16656181,-1.144,0.241,0.230,31.150,166.950,-43.330
16656205,-1.469,0.186,0.211,35.000,177.450,-49.770
16656223,-1.627,0.105,0.100,46.200,144.340,-47.320
16656243,-1.404,0.165,0.135,58.240,140.420,-41.020
16656267,-1.457,0.211,0.123,66.290,139.510,-39.480
16656287,-1.526,0.231,0.090,55.860,131.740,-39.550
16656307,-1.499,0.136,0.056,48.370,115.360,-38.010
16656326,-1.401,0.075,0.008,51.520,113.610,-36.260
16656347,-1.399,0.100,0.002,52.570,112.210,-37.380
16656367,-1.465,0.130,-0.045,46.340,113.960,-42.210
16656387,-1.470,0.094,-0.058,45.290,105.000,-43.400
16656407,-1.390,0.028,-0.067,46.760,106.260,-43.400
16656426,-1.356,0.031,-0.075,47.180,101.220,-41.720
16656450,-1.393,0.105,-0.085,43.820,97.230,-46.690
16656470,-1.362,0.108,-0.052,32.480,87.220,-45.150
16656490,-1.240,0.008,-0.043,24.150,92.890,-42.280
16656509,-1.299,-0.013,-0.178,30.800,97.440,-42.140
16656534,-1.401,0.166,-0.089,17.430,87.220,-49.840
16656552,-1.436,0.111,-0.043,-33.110,65.240,-55.020
16656572,-1.257,-0.317,-0.141,-27.300,55.090,-46.340
16656593,-1.264,-0.108,-0.164,12.390,60.270,-40.320
16656617,-1.320,-0.050,-0.117,21.770,66.430,-29.050
16656641,-1.363,-0.206,-0.251,52.850,72.590,-6.790
16656661,-1.517,-0.410,-0.373,181.860,72.870,80.920
16656678,-2.249,1.360,0.544,173.950,6.020,56.000
16656697,-1.478,0.460,0.072,-46.130,-20.230,46.060
16656720,-1.237,-0.182,-0.021,-64.610,-26.320,27.090
16656740,-1.079,-0.307,-0.088,-17.430,11.270,5.950
16656760,-1.217,-0.143,-0.200,-23.310,10.430,-11.760
16656784,-1.243,-0.060,-0.458,-35.490,3.710,-20.720
16656799,-1.386,-0.032,-0.583,-36.540,-5.670,-25.480
16656822,-1.378,-0.029,-0.695,-45.920,-26.670,-10.780
16656842,-1.228,-0.105,-0.743,-33.670,-19.180,8.330
16656864,-1.309,0.047,-0.523,-38.360,-23.170,27.930
16656888,-1.534,0.039,-0.270,-43.400,-53.200,38.010
16656906,-1.673,0.182,0.016,-75.950,-83.020,40.530
16656929,-1.607,0.116,0.174,-108.500,-110.670,44.310
16656949,-1.393,-0.057,0.226,-80.360,-101.360,58.310
16656968,-1.282,-0.050,0.244,-44.380,-84.420,58.310
16656990,-1.476,0.225,0.246,-46.340,-99.820,56.770
16657014,-1.548,0.217,0.308,-90.370,-129.430,42.630
16657034,-1.507,0.124,0.250,-123.270,-158.970,27.930
16657057,-1.478,-0.041,0.127,-115.080,-173.460,16.170
16657078,-1.487,-0.059,0.135,-94.570,-183.190,2.660
16657099,-1.490,-0.036,0.114,-67.130,-175.980,-11.480
16657123,-1.494,-0.002,0.079,-44.310,-176.190,-23.380
16657143,-1.498,0.070,0.055,-33.460,-177.730,-34.580
16657163,-1.536,0.123,0.023,-36.330,-186.130,-48.930
16657183,-1.534,0.102,0.008,-32.480,-187.740,-48.650
16657202,-1.426,0.124,0.064,-30.520,-186.060,-49.770
16657227,-1.359,0.157,0.055,-37.240,-185.360,-49.350
16657247,-1.279,0.131,0.005,-27.440,-186.830,-49.070
16657265,-1.214,0.076,0.006,-14.630,-181.860,-45.780
16657287,-1.133,0.114,0.116,4.690,-170.170,-38.640
16657311,-1.054,0.130,0.139,7.070,-163.660,-26.110
16657331,-0.966,0.133,0.088,8.610,-165.130,-17.360
16657351,-0.947,0.141,0.133,7.630,-163.170,-11.130
16657370,-0.864,0.113,0.169,5.530,-162.680,-6.370
16657389,-0.783,0.075,0.201,6.300,-155.890,-2.590
16657413,-0.710,0.079,0.260,3.430,-144.900,2.100
16657432,-0.680,0.044,0.309,-5.390,-137.970,5.740
16657448,-0.632,0.028,0.404,-17.010,-132.720,6.720
16657468,-0.569,0.002,0.442,-28.000,-124.390,3.150
16657493,-0.539,-0.036,0.479,-47.880,-114.800,-7.070
16657511,-0.528,-0.034,0.538,-65.870,-117.460,-14.420
16657530,-0.445,-0.091,0.599,-80.290,-117.040,-24.780
16657556,-0.390,-0.157,0.660,-94.850,-108.570,-38.780
16657575,-0.341,-0.158,0.710,-103.320,-109.410,-52.080
16657595,-0.317,-0.158,0.688,-110.390,-108.150,-63.560
16657615,-0.298,-0.183,0.772,-112.350,-99.400,-71.470
16657635,-0.324,-0.266,0.833,-124.110,-103.390,-77.910
16657655,-0.247,-0.305,0.796,-111.930,-118.160,-81.900
16657679,-0.127,-0.366,0.750,-80.780,-120.820,-83.790
16657697,-0.075,-0.317,0.804,-54.530,-98.210,-84.980
16657714,-0.211,-0.286,0.814,-46.340,-101.080,-84.350
16657738,-0.139,-0.322,0.704,-32.480,-112.420,-82.390
16657759,0.026,-0.311,0.641,-7.210,-124.180,-76.160
16657783,0.099,-0.232,0.692,-9.520,-121.380,-71.190
16657803,0.094,-0.199,0.673,-21.070,-113.610,-67.900
16657822,0.114,-0.303,0.578,-25.550,-130.690,-66.710
16657841,0.297,-0.309,0.577,-16.380,-149.030,-69.300
16657860,0.443,-0.142,0.633,-31.500,-127.050,-75.740
16657880,0.390,-0.149,0.582,-48.580,-123.900,-73.080
16657901,0.435,-0.270,0.484,-45.710,-105.140,-68.740
16657924,0.553,-0.341,0.551,-27.790,-120.960,-56.140
16657944,0.606,-0.331,0.417,0.210,-101.430,-56.280
16657960,0.652,-0.319,0.307,16.450,-114.590,-45.570
16657981,0.728,-0.250,0.285,6.370,-105.350,-40.670
16658005,0.835,-0.264,0.339,-7.490,-100.730,-27.090
16658024,0.875,-0.311,0.300,-6.720,-82.110,-20.930
16658044,0.886,-0.378,0.235,16.520,-72.660,-17.220
16658062,0.927,-0.393,0.192,22.190,-78.680,-12.110
16658086,1.007,-0.326,0.113,-4.830,-62.650,-10.360
16658109,1.045,-0.406,0.182,-29.540,-45.430,-6.580
16658133,1.045,-0.494,0.150,-27.230,-44.030,-8.680
16658150,1.112,-0.480,0.134,-13.020,-36.400,-10.640
16658173,1.121,-0.486,0.125,8.050,-21.140,-9.380
16658191,1.105,-0.484,0.107,26.880,-14.070,-10.850
16658215,1.135,-0.392,0.127,31.920,-18.620,-11.690
16658235,1.211,-0.239,0.246,1.610,3.360,-7.770
16658254,1.168,-0.292,0.188,-8.680,7.630,-6.720
16658276,1.160,-0.265,0.089,12.740,21.000,-4.130
16658295,1.135,-0.249,0.086,34.370,37.870,5.040
16658319,1.172,-0.319,0.202,35.070,38.780,15.680
16658340,1.094,-0.201,0.200,37.870,45.220,25.410
16658360,1.101,-0.213,0.241,38.080,59.500,27.160
16658375,0.965,-0.204,0.226,44.100,63.000,31.850
16658395,0.982,-0.208,0.352,41.020,83.860,39.760
16658415,0.908,-0.254,0.409,36.400,86.940,49.280
16658439,0.819,-0.318,0.431,48.930,109.480,59.150
16658463,0.675,-0.367,0.433,62.440,102.690,59.570
16658483,0.625,-0.232,0.441,63.840,106.890,55.370
16658504,0.580,-0.229,0.407,65.030,115.640,50.330
16658528,0.445,-0.253,0.433,73.430,126.630,53.060
16658548,0.354,-0.213,0.455,94.220,125.720,53.200
16658568,0.284,-0.095,0.398,107.100,136.150,54.040
16658584,0.208,-0.015,0.402,104.090,150.360,55.790
16658605,0.068,-0.001,0.356,94.570,161.980,60.060
16658624,-0.061,-0.020,0.337,89.810,160.370,61.880
16658644,-0.141,0.007,0.425,82.600,168.350,62.650
16658669,-0.250,0.017,0.433,70.560,153.300,62.370
16658689,-0.266,0.007,0.428,69.230,153.440,61.460
16658708,-0.317,-0.047,0.403,78.470,164.920,59.220
16658728,-0.411,-0.069,0.426,91.980,170.100,56.000
16658752,-0.481,0.003,0.510,95.970,166.530,42.140
16658771,-0.506,0.046,0.564,85.120,167.090,31.780
16658790,-0.561,0.052,0.546,71.540,176.400,23.170
16658810,-0.657,0.033,0.476,63.770,172.690,18.830
16658834,-0.715,0.081,0.517,61.390,164.010,14.420
16658853,-0.803,0.109,0.549,52.640,167.790,10.570
16658878,-0.829,0.076,0.511,42.980,154.070,2.240
16658898,-0.788,0.079,0.456,47.040,156.660,-3.710
16658917,-0.815,0.123,0.439,47.180,167.650,-10.920
16658936,-0.946,0.116,0.413,44.170,164.640,-16.240
16658956,-1.001,0.110,0.404,44.520,160.300,-19.040
16658976,-1.044,0.149,0.364,43.820,162.120,-22.680
16659000,-1.148,0.170,0.341,42.980,170.520,-25.410
16659019,-1.233,0.171,0.273,32.200,157.780,-25.620
16659040,-1.263,0.100,0.241,34.720,150.080,-21.350
16659058,-1.249,0.095,0.210,42.140,143.290,-19.320
16659080,-1.250,0.067,0.093,58.310,151.550,-21.350
16659102,-1.434,0.079,-0.051,94.500,167.230,-31.150
16659122,-1.543,0.233,0.101,91.350,163.030,-43.610
16659146,-1.456,0.311,0.205,48.650,153.020,-55.090
16659163,-1.360,0.135,0.185,21.000,151.270,-55.020
16659182,-1.410,0.132,0.184,14.560,154.910,-53.830
16659206,-1.521,0.180,0.156,3.920,148.960,-55.580
16659226,-1.523,0.120,0.191,-4.690,136.080,-58.730
16659246,-1.509,0.001,0.171,-17.080,119.840,-59.360
16659264,-1.433,-0.116,0.156,-16.240,110.950,-57.120
16659288,-1.386,-0.154,0.132,2.870,110.950,-55.300
16659308,-1.465,-0.025,0.048,10.640,112.350,-58.660
16659332,-1.540,0.041,0.046,-13.790,84.700,-70.770
16659351,-1.380,-0.113,0.014,-14.560,71.610,-62.650
16659371,-1.299,-0.138,-0.097,21.000,76.790,-54.740
16659390,-1.348,-0.006,-0.203,36.470,98.070,-48.510
16659412,-1.638,0.209,-0.167,25.830,95.830,-41.090
16659431,-1.405,0.093,-0.164,-15.680,54.250,-34.860
16659451,-1.134,-0.188,-0.202,-27.440,66.010,-27.580
16659470,-1.170,-0.159,-0.273,-3.220,78.680,-25.270
16659490,-1.190,-0.125,-0.350,-2.940,89.320,-25.760
16659514,-1.291,-0.245,-0.508,7.280,102.830,-28.140
16659530,-1.741,0.452,-0.542,-58.590,99.960,-9.380
16659555,-2.129,-1.106,1.129,220.430,-50.050,57.610
16659575,-1.423,0.742,0.008,36.050,-93.100,39.200
16659593,-0.697,-0.128,0.015,108.570,79.870,18.130
16659617,-1.631,-0.045,-0.090,-20.370,-11.480,-12.460
16659636,-1.188,-0.163,-0.228,-22.470,15.890,-5.460
16659658,-1.513,-0.345,-0.536,4.480,-11.060,2.380
16659682,-1.229,-0.175,-0.552,18.760,9.450,24.150
16659700,-1.299,-0.188,-0.523,28.770,0.840,36.750
16659717,-1.142,-0.067,-0.494,6.860,2.660,49.420
16659740,-1.251,-0.012,-0.479,-8.260,10.080,54.040
16659759,-1.368,-0.035,-0.452,-28.420,-5.390,57.820
16659782,-1.360,-0.021,-0.418,-42.490,-33.670,55.580
16659801,-1.194,-0.083,-0.373,-44.170,-34.790,60.760
16659823,-1.172,-0.095,-0.325,-11.690,-18.620,55.930
16659847,-1.097,0.029,-0.338,0.700,-3.850,53.340
16659867,-1.040,0.075,-0.377,-2.660,-1.050,46.270
16659887,-1.004,0.102,-0.392,-17.080,-4.830,39.760
16659906,-0.965,0.133,-0.390,-34.230,-10.150,33.390
16659930,-0.941,0.115,-0.391,-52.570,-14.000,27.090
16659950,-0.898,0.097,-0.404,-62.580,-22.540,23.030
16659969,-0.865,0.083,-0.407,-59.150,-23.240,21.840
16659993,-0.823,0.124,-0.436,-57.540,-19.810,20.090
16660013,-0.824,0.135,-0.442,-60.970,-22.540,19.040
16660037,-0.760,0.169,-0.395,-65.240,-28.420,16.590
16660057,-0.720,0.160,-0.426,-76.300,-24.850,14.140
16660076,-0.733,0.126,-0.446,-74.480,-24.080,12.460
16660097,-0.751,0.154,-0.436,-69.230,-25.690,11.550
16660117,-0.701,0.179,-0.408,-68.040,-28.980,10.850
16660133,-0.675,0.163,-0.445,-66.290,-26.600,9.940
16660156,-0.691,0.156,-0.447,-56.840,-29.330,8.260
16660181,-0.678,0.199,-0.418,-56.210,-29.960,5.950
16660199,-0.646,0.213,-0.421,-55.370,-27.510,4.690
16660220,-0.650,0.168,-0.451,-51.870,-25.760,5.810
16660243,-0.632,0.165,-0.468,-45.990,-21.000,6.370
16660267,-0.658,0.172,-0.437,-41.370,-16.380,5.460
16660287,-0.660,0.219,-0.418,-39.480,-12.670,1.400
16660307,-0.709,0.192,-0.483,-38.570,-9.660,-0.350
16660324,-0.734,0.185,-0.485,-34.580,-11.830,-1.330
16660347,-0.739,0.229,-0.428,-41.860,-9.170,-4.200
16660363,-0.784,0.243,-0.376,-52.220,-8.820,-8.190
16660388,-0.813,0.227,-0.322,-62.230,-0.910,-11.200
16660408,-0.870,0.227,-0.302,-76.720,6.860,-11.270
16660427,-0.948,0.196,-0.296,-79.730,10.500,-10.710
16660443,-0.993,0.177,-0.271,-80.640,9.940,-9.660
16660464,-1.044,0.135,-0.289,-77.420,7.280,-9.030
16660484,-1.064,0.063,-0.299,-67.060,0.490,-9.310
16660504,-1.034,0.083,-0.208,-58.100,-4.830,-8.750
16660525,-0.975,0.152,-0.062,-62.860,-1.680,-8.120
16660545,-0.905,0.154,0.061,-77.630,5.600,-4.830
16660568,-0.886,-0.012,0.063,-65.870,20.300,2.940
16660584,-0.944,0.014,0.123,-43.750,21.280,5.950
16660604,-0.987,0.135,0.158,-42.350,20.300,6.650
16660629,-1.060,0.108,0.142,-39.620,11.830,7.280
16660646,-1.067,0.044,0.047,-13.370,4.480,17.290
16660665,-1.077,-0.007,0.012,48.020,4.900,32.200
16660690,-1.116,0.193,0.007,86.030,12.600,47.740
16660709,-1.143,0.306,-0.005,80.990,13.230,56.420
16660732,-1.152,0.293,-0.032,76.860,10.010,74.130
16660752,-1.009,0.318,-0.098,68.180,2.310,80.360
16660770,-0.885,0.311,-0.104,51.590,0.000,76.720
16660791,-0.799,0.260,-0.102,41.440,1.540,70.070
16660815,-0.750,0.265,-0.098,37.520,0.770,57.190
16660835,-0.742,0.290,-0.105,25.970,-3.850,42.840
16660854,-0.742,0.286,-0.119,9.450,-10.430,26.530
16660874,-0.709,0.223,-0.145,-3.080,-15.050,13.300
16660898,-0.694,0.144,-0.157,-5.530,-13.580,-4.970
16660917,-0.707,0.127,-0.167,-6.650,-10.360,-20.020
16660935,-0.755,0.133,-0.169,-8.890,-7.140,-34.510
16660959,-0.839,0.116,-0.166,-7.070,-6.090,-50.960
16660979,-0.894,0.115,-0.194,-3.640,-2.030,-66.150
16660999,-0.983,0.049,-0.281,9.240,4.830,-78.190
16661023,-1.025,0.026,-0.340,31.640,4.620,-89.040
16661042,-1.008,0.135,-0.239,44.520,3.080,-92.750
16661059,-0.980,0.174,-0.194,42.910,0.070,-91.350
16661078,-0.907,0.125,-0.161,46.690,0.140,-80.990
16661101,-0.845,0.106,-0.147,56.630,4.410,-69.510
16661121,-0.799,0.076,-0.092,65.240,4.620,-59.990
16661145,-0.829,0.048,-0.020,95.340,2.380,-41.580
16661165,-0.836,0.033,-0.015,141.470,-2.940,-20.090
16661181,-0.819,0.061,-0.077,176.470,-8.400,-0.910
16661205,-0.870,0.281,-0.006,208.880,-16.590,21.280
16661225,-0.976,0.510,0.113,193.830,-25.410,29.050
16661242,-1.038,0.413,0.112,171.360,-32.830,39.410
16661263,-1.163,0.372,0.178,187.110,-44.030,63.700
16661287,-1.305,0.852,0.319,188.790,-51.660,98.560
16661308,-1.580,0.980,0.309,161.000,-56.070,125.930
16661328,-1.843,1.132,0.476,154.770,-81.270,154.210
16661348,-1.922,1.518,0.602,130.900,-99.540,190.540
16661368,-2.119,1.707,0.572,49.490,-102.200,215.740
16661387,-2.620,2.088,0.528,-15.960,-113.540,224.840
16661412,-2.979,2.275,0.292,-157.010,-190.540,225.330
16661427,-3.226,2.233,0.109,-245.140,-237.720,229.320
16661451,-3.272,1.878,0.044,-272.510,-289.800,226.170
16661472,-3.221,1.774,-0.105,-266.490,-317.660,213.080
16661495,-3.082,1.482,-0.248,-231.210,-341.530,210.700
16661516,-2.663,1.209,-0.409,-140.420,-344.120,221.130
16661535,-2.311,1.097,-0.567,-73.850,-329.140,242.480
16661556,-1.865,0.980,-0.511,-21.000,-310.240,265.510
16661580,-1.379,0.937,-0.338,-47.810,-243.250,272.580
16661598,-1.155,0.575,-0.377,-94.850,-229.740,280.420
16661622,-0.798,0.224,-0.485,-95.480,-199.010,288.120
16661640,-0.573,0.108,-0.497,-88.620,-169.120,281.330
16661658,-0.504,0.082,-0.511,-88.760,-150.360,268.310
16661677,-0.426,0.093,-0.480,-91.700,-135.800,255.850
16661697,-0.385,0.185,-0.437,-111.090,-118.720,245.840
16661722,-0.454,0.271,-0.381,-119.420,-104.580,237.580
16661742,-0.574,0.436,-0.352,-126.210,-94.290,235.060
16661759,-0.742,0.496,-0.345,-130.690,-82.950,241.080
16661782,-1.049,0.718,-0.267,-154.210,-108.290,243.600
16661798,-1.211,0.869,-0.281,-207.480,-140.980,253.470
16661818,-1.262,0.541,-0.294,-197.680,-182.490,272.440
16661838,-1.227,0.402,-0.162,-159.040,-204.680,283.920
16661863,-1.095,0.086,-0.376,-129.780,-247.310,291.830
16661883,-0.857,-0.217,-0.407,-89.320,-264.530,286.860
16661901,-0.657,-0.694,-0.263,-107.380,-233.870,274.120
16661924,-0.932,-1.883,-0.606,-63.630,-275.940,211.610
16661941,-0.350,-2.923,-1.095,12.600,-323.050,197.540
16661961,0.601,-3.677,-1.095,112.350,-221.830,146.790
16661985,1.346,-6.085,0.982,213.500,-52.710,-7.910
16662004,0.334,-4.545,0.458,-148.960,117.320,-64.750
16662028,0.449,-4.520,-0.002,-12.110,309.120,-205.800
16662048,-0.206,-4.019,0.417,217.280,353.430,-307.510
16662068,-1.204,-2.396,0.727,461.580,282.660,-361.200
16662088,-1.329,-1.401,0.190,580.720,152.180,-373.170
16662108,-1.518,-0.823,-0.719,671.300,55.020,-364.700
16662127,-1.648,-0.080,-1.528,569.520,-72.030,-377.790
16662144,-1.846,0.627,-1.983,473.760,-189.630,-412.580
16662166,-1.511,0.203,-2.570,484.750,-226.030,-452.620
16662187,-1.841,0.413,-2.575,495.740,-220.710,-451.570
16662211,-1.749,0.374,-2.529,396.830,-193.060,-448.560
16662231,-1.632,-0.033,-2.692,334.040,-172.760,-462.630
16662249,-2.319,0.321,-2.987,347.690,-148.190,-473.130
16662273,-2.234,0.705,-2.397,242.270,-189.280,-473.060
16662289,-2.004,0.560,-1.653,208.880,-143.080,-472.920
16662313,-1.677,0.695,-1.155,115.150,-78.190,-459.270
16662330,-1.574,0.665,-1.722,122.290,-66.780,-432.460
16662348,-1.449,0.813,-1.803,103.250,-88.130,-401.450
16662368,-1.305,0.990,-1.104,93.730,-51.450,-361.830
16662393,-1.230,1.734,-0.416,145.460,-14.630,-285.250
16662413,-1.090,1.844,-1.046,138.740,29.330,-219.590
16662433,-1.685,2.600,-1.717,224.630,9.310,-173.880
16662453,-2.688,5.078,-1.139,320.740,-1.540,-106.680
16662473,-2.459,6.491,-1.060,155.050,9.030,0.490
16662493,-2.427,5.957,-1.902,-74.550,35.910,192.010
16662513,-3.032,4.873,-2.387,-244.790,45.290,307.720
16662532,-3.407,3.705,-2.572,-280.350,21.490,355.180
16662550,-3.762,2.435,-2.725,-217.770,-0.070,354.970
16662573,-3.570,2.151,-2.542,-208.950,18.410,362.880
16662593,-3.236,1.623,-2.483,-279.510,15.680,363.020
16662613,-2.656,1.073,-2.217,-286.230,10.290,360.080
16662637,-2.025,0.866,-1.586,-314.160,36.610,336.490
16662657,-1.732,0.701,-1.409,-413.000,39.970,330.050
16662676,-1.625,0.068,-1.452,-428.890,20.300,331.030
16662696,-1.455,-0.106,-1.496,-397.670,-13.930,331.030
16662718,-1.326,-0.079,-1.393,-340.480,-53.130,319.970
16662737,-1.215,0.061,-1.149,-303.940,-51.450,311.290
16662761,-1.091,0.232,-1.028,-302.610,-61.040,297.710
16662777,-1.156,0.387,-0.966,-310.800,-61.390,289.940
16662797,-1.399,0.723,-0.936,-305.200,-58.240,294.280
16662817,-1.765,0.909,-0.838,-312.130,-69.300,299.810
16662840,-2.059,1.043,-0.832,-346.290,-107.870,314.720
16662861,-2.146,0.863,-0.725,-354.130,-177.380,345.450
16662880,-2.051,0.460,-0.661,-318.570,-227.290,365.470
16662901,-1.937,0.352,-0.417,-242.970,-248.640,378.280
16662921,-1.843,-0.173,-0.475,-158.270,-296.310,375.410
16662945,-1.563,-0.917,-0.592,-109.270,-334.110,349.650
16662964,-1.204,-1.835,-0.752,-44.940,-421.960,285.040
16662984,-0.221,-2.777,-0.602,53.550,-355.390,207.340
16663005,-0.039,-4.120,-0.798,242.200,-267.960,148.610
16663029,0.815,-5.098,-0.225,210.140,17.010,78.680
16663048,0.802,-5.679,-0.012,-22.960,91.560,-41.020
16663072,0.572,-5.473,0.083,-63.700,178.500,-226.030
16663089,0.126,-4.674,0.446,77.770,269.710,-333.970
16663112,-0.390,-3.693,0.611,257.880,309.750,-454.090
16663132,-1.373,-2.667,0.434,467.390,273.280,-524.510
16663152,-2.448,-0.812,0.479,536.480,146.790,-538.370
16663169,-2.644,0.324,-0.188,460.110,39.550,-500.150
16663191,-2.768,0.407,-1.792,431.270,-76.160,-478.100
16663211,-2.385,0.232,-2.865,483.350,-167.090,-447.650
16663234,-2.434,0.910,-3.172,466.410,-245.000,-430.360
16663258,-2.311,0.690,-2.672,390.460,-261.940,-424.200
16663278,-2.184,0.672,-2.234,285.460,-232.260,-426.020
16663296,-1.885,0.270,-2.115,166.180,-172.970,-432.460
16663317,-1.909,0.002,-2.200,105.490,-120.610,-447.860
16663336,-2.031,0.100,-2.194,132.720,-88.270,-445.620
16663353,-1.989,0.531,-1.884,143.640,-75.180,-430.220
16663377,-1.679,0.508,-1.480,128.240,-57.470,-395.710
16663397,-1.323,0.434,-1.316,120.400,-27.580,-352.730
16663418,-1.205,0.702,-1.202,195.580,-16.310,-286.160
16663437,-0.849,1.432,-1.280,247.450,-42.910,-229.250
16663461,-0.523,2.285,-1.204,306.320,-42.560,-155.960
16663479,-0.889,3.358,-1.577,318.290,-17.990,-113.190
16663496,-1.348,4.741,-2.601,325.570,-0.560,-86.520
16663520,-2.572,5.929,-3.391,228.760,89.180,6.440
16663544,-2.539,6.148,-2.862,-93.520,96.670,189.840
16663564,-2.566,4.558,-3.419,-304.850,165.550,262.990
16663584,-3.117,3.424,-3.902,-376.740,178.080,260.190
16663604,-3.309,2.215,-3.738,-303.800,50.610,277.830
16663624,-2.116,1.889,-2.803,-252.630,102.200,295.540
16663639,-1.840,1.643,-2.410,-308.350,126.560,298.270
16663662,-1.418,1.222,-1.923,-396.060,166.040,297.850
16663686,-1.536,0.816,-1.753,-525.350,156.660,293.440
16663710,-1.672,0.167,-2.037,-565.880,42.490,287.280
16663729,-1.475,-0.347,-1.956,-500.150,-18.340,282.030
16663749,-1.149,-0.356,-1.785,-430.710,-49.630,268.030
16663773,-1.050,-0.196,-1.503,-383.530,-45.990,260.680
16663792,-1.005,0.281,-1.202,-357.700,-19.530,259.000
16663812,-1.170,0.576,-1.120,-347.690,1.610,257.180
16663836,-1.586,0.918,-1.048,-336.210,-17.080,273.210
16663854,-1.806,1.071,-1.155,-341.600,-70.070,287.700
16663878,-1.945,0.938,-0.887,-336.770,-113.400,321.440
16663898,-2.054,0.758,-0.567,-312.130,-184.730,347.830
16663916,-1.961,0.320,-0.413,-260.750,-222.880,368.620
16663938,-1.831,0.134,-0.145,-181.370,-240.380,374.220
16663958,-1.799,-0.529,-0.241,-145.320,-281.050,360.850
16663981,-1.428,-1.449,-0.213,-78.610,-347.830,304.920
16664001,-0.546,-2.991,-0.326,82.390,-329.770,252.350
16664022,0.267,-4.055,-0.233,179.270,-264.110,234.570
16664042,0.875,-4.678,0.976,127.050,-115.850,128.450
16664062,0.732,-4.887,1.077,-121.380,-43.260,-8.680
16664082,0.593,-5.023,0.377,-167.720,50.120,-161.490
16664102,0.061,-4.525,0.526,171.150,176.470,-236.950
16664121,-0.508,-3.257,0.562,385.280,186.340,-288.540
16664143,-0.790,-2.263,0.302,431.480,110.880,-331.170
16664159,-1.089,-1.234,-0.079,363.860,73.640,-350.630
16664178,-1.325,-0.745,-0.410,250.530,47.670,-394.450
16664201,-1.540,-0.327,-0.796,269.500,23.520,-470.820
16664221,-1.449,-0.145,-1.362,372.330,6.860,-513.520
16664239,-2.060,0.033,-2.149,497.070,-7.000,-513.730
16664263,-2.458,0.681,-2.768,466.900,-140.490,-469.980
16664283,-1.976,0.853,-2.624,357.560,-156.100,-433.790
16664302,-1.942,0.478,-2.452,382.550,-145.250,-412.580
16664321,-1.946,0.485,-2.302,421.190,-141.890,-384.650
16664344,-1.749,0.529,-1.888,378.000,-134.960,-373.310
16664368,-1.674,0.552,-1.920,277.270,-138.250,-369.110
16664387,-1.509,0.673,-1.956,224.280,-144.620,-360.150
16664408,-1.393,0.685,-1.778,232.400,-131.810,-327.320
16664427,-1.200,0.936,-1.482,231.420,-111.160,-300.650
16664446,-0.869,1.372,-1.423,227.500,-89.670,-254.520
16664469,-0.517,2.104,-1.768,240.730,-91.770,-175.910
16664493,-0.636,2.791,-2.111,254.940,-68.250,-118.300
16664513,-0.894,3.793,-2.610,319.410,-62.580,-58.100
16664531,-1.284,5.124,-3.271,302.890,7.840,-5.250
16664554,-1.306,6.336,-3.153,42.350,100.380,79.520
16664574,-1.386,5.548,-3.612,-337.190,152.390,176.540
16664594,-2.086,3.931,-3.854,-437.640,150.430,232.540
16664613,-2.469,2.800,-3.627,-413.070,103.810,247.870
16664634,-2.292,2.120,-3.139,-346.920,72.730,260.610
16664658,-1.889,1.791,-2.630,-397.600,104.580,277.830
16664674,-1.647,1.275,-2.209,-433.510,111.090,275.520
16664697,-1.419,0.850,-1.808,-497.840,85.540,286.930
16664718,-1.174,0.308,-1.633,-511.210,53.690,293.790
16664737,-1.078,-0.116,-1.445,-464.310,25.200,288.680
16664762,-0.999,-0.124,-1.236,-392.210,0.000,266.630
16664780,-0.892,-0.042,-1.111,-375.760,-28.700,252.350
16664799,-0.760,0.002,-1.038,-355.880,-40.810,238.770
16664822,-0.798,0.205,-0.952,-307.020,-46.130,222.180
16664841,-0.981,0.649,-0.857,-297.360,-25.270,214.130
16664865,-1.403,1.076,-0.743,-305.760,-28.770,221.200
16664885,-1.764,1.128,-0.882,-335.160,-79.730,246.890
16664903,-1.922,0.976,-0.700,-339.920,-160.790,277.690
16664922,-1.930,0.814,-0.533,-311.780,-180.600,306.670
16664941,-1.914,0.352,-0.440,-242.900,-232.680,334.670
16664965,-1.627,0.145,-0.304,-139.230,-250.320,354.480
16664984,-1.640,-0.176,-0.131,-96.600,-272.440,352.310
16665001,-1.648,-1.442,-0.307,-83.930,-336.490,324.940
16665026,-0.423,-2.766,-0.354,-47.670,-420.910,232.120
16665046,0.627,-4.541,-0.256,151.200,-270.550,200.060
16665070,0.755,-4.978,0.642,47.040,-208.180,94.640
16665089,1.083,-5.483,-0.318,-134.330,-56.280,-60.410
16665110,0.748,-4.987,-0.520,-21.280,99.820,-183.050
16665134,0.277,-4.063,-0.356,245.560,198.590,-309.680
16665153,-0.334,-2.842,0.050,438.970,224.630,-359.800
16665177,-1.095,-1.676,-0.105,507.150,189.770,-380.240
16665201,-1.526,-0.653,-0.279,460.950,143.010,-376.810
16665220,-1.978,0.143,-0.696,367.500,39.200,-396.620
16665239,-1.608,0.193,-1.117,317.310,-41.930,-409.850
16665263,-1.753,0.286,-2.012,379.540,-67.760,-409.920
16665281,-1.897,0.512,-2.349,415.730,-125.020,-397.460
16665305,-1.598,0.519,-2.375,367.780,-140.630,-373.870
16665325,-1.629,0.514,-2.293,297.010,-154.840,-363.650
16665344,-1.590,0.463,-2.105,248.920,-148.960,-352.870
16665368,-1.597,0.403,-1.849,239.960,-145.740,-353.430
16665389,-1.495,0.378,-1.521,252.490,-117.880,-361.060
16665409,-1.455,0.537,-1.616,237.020,-106.330,-362.180
16665426,-1.446,0.659,-1.756,207.200,-116.340,-350.980
16665449,-1.395,0.759,-1.626,209.090,-121.660,-314.510
16665469,-1.232,0.896,-1.363,272.790,-116.270,-281.400
16665488,-0.785,1.392,-1.145,317.590,-121.730,-243.600
16665504,-0.434,2.063,-1.645,317.380,-76.440,-190.540
16665529,-0.742,3.040,-2.122,310.450,-35.350,-129.710
16665548,-1.606,4.502,-2.977,364.210,-131.250,-98.140
16665569,-1.376,6.215,-3.097,266.910,-42.280,-40.670
16665592,-1.351,6.460,-3.294,-166.740,54.110,109.760
16665613,-1.884,5.025,-4.056,-402.500,117.390,247.380
16665629,-2.549,3.715,-4.191,-404.600,113.960,280.630
16665653,-2.400,2.399,-3.632,-243.180,100.520,289.870
16665671,-1.872,2.359,-2.642,-280.910,131.180,290.710
16665692,-1.668,1.681,-2.296,-448.140,136.990,286.580
16665711,-1.504,1.060,-2.068,-519.260,101.570,288.050
16665735,-1.304,0.575,-1.723,-522.830,71.890,294.630
16665755,-1.129,0.128,-1.544,-486.920,40.600,303.310
16665775,-1.034,-0.166,-1.334,-426.650,15.330,300.720
16665792,-1.004,-0.060,-1.198,-372.820,-11.410,286.720
16665810,-0.978,0.018,-1.159,-342.650,-31.290,271.040
16665835,-0.991,0.247,-0.997,-312.480,-55.230,246.050
16665851,-1.040,0.514,-0.874,-311.850,-59.640,240.940
16665873,-1.275,0.804,-0.804,-305.270,-65.170,236.880
16665895,-1.660,0.857,-0.713,-281.050,-92.610,244.300
16665919,-1.704,0.949,-0.517,-268.100,-133.490,268.520
16665938,-1.900,0.792,-0.285,-285.950,-177.450,305.550
16665957,-1.839,0.624,-0.085,-211.050,-196.630,339.360
16665982,-1.838,0.570,-0.063,-163.730,-223.580,362.740
16666000,-1.803,0.227,-0.065,-155.330,-251.650,353.360
16666019,-1.723,-0.478,-0.030,-167.300,-294.070,327.740
16666044,-1.202,-2.215,-0.755,-78.820,-385.210,269.150
16666062,-0.359,-3.158,-0.825,30.940,-370.860,234.710
16666086,0.806,-4.722,-0.249,268.450,-160.930,172.620
16666101,0.916,-5.385,0.175,74.200,-53.200,112.490
16666125,0.979,-6.154,-0.492,-148.820,50.190,-91.280
16666149,0.479,-5.638,-0.714,-0.140,196.770,-283.850
16666169,-0.084,-4.522,-0.143,310.520,317.030,-400.540
16666189,-1.107,-2.932,0.321,475.580,297.430,-470.960
16666209,-2.092,-1.220,0.074,490.000,187.880,-477.260
16666228,-2.451,0.272,-0.123,344.400,79.870,-466.200
16666251,-2.444,0.395,-1.151,322.980,11.760,-481.670
16666275,-2.375,0.509,-2.325,451.570,-39.270,-467.250
16666295,-2.263,0.752,-3.147,515.270,-116.620,-448.840
16666315,-1.957,1.237,-2.735,375.060,-173.320,-408.870
16666334,-1.800,0.536,-2.509,313.110,-152.390,-379.680
16666354,-1.739,0.472,-2.281,344.120,-129.570,-357.000
16666378,-1.607,0.350,-2.202,410.690,-121.940,-338.310
16666396,-1.521,0.444,-2.141,390.390,-129.640,-333.340
16666416,-1.490,0.854,-1.865,285.250,-160.160,-324.730
16666439,-1.181,1.041,-1.676,178.500,-162.190,-313.670
16666460,-0.871,0.885,-1.508,153.370,-122.500,-288.820
16666479,-0.683,0.912,-1.495,188.090,-89.880,-270.620
16666501,-0.524,1.603,-1.784,247.800,-98.000,-228.410
16666520,-0.284,2.582,-1.882,258.090,-77.420,-182.420
16666542,-0.518,3.585,-2.296,227.150,-32.480,-118.580
16666562,-1.133,4.475,-3.275,224.070,9.170,-69.370
16666582,-1.179,5.810,-3.040,162.050,12.320,-9.380
16666606,-1.169,5.883,-3.214,-237.440,126.630,134.470
16666626,-1.706,4.618,-3.679,-425.110,123.060,189.980
16666644,-2.112,3.340,-3.987,-487.270,98.070,203.420
16666666,-2.119,2.157,-3.124,-365.260,39.200,207.620
16666690,-1.438,2.092,-2.439,-361.270,72.100,227.010
16666709,-1.173,1.524,-1.916,-465.150,86.100,240.030
16666733,-1.093,1.065,-1.707,-555.240,79.450,262.850
16666750,-1.121,0.403,-1.746,-599.200,35.700,273.630
16666774,-1.062,-0.238,-1.703,-495.880,-28.000,279.160
16666794,-0.932,-0.162,-1.310,-406.210,-55.020,259.630
16666813,-0.852,0.101,-1.205,-375.130,-66.430,241.430
16666831,-0.793,0.089,-1.097,-349.230,-74.970,232.050
16666855,-0.704,0.229,-0.935,-302.400,-69.230,226.660
16666874,-0.849,0.575,-0.775,-283.920,-65.030,225.960
16666894,-1.082,0.876,-0.744,-278.670,-50.610,246.470
16666915,-1.466,1.093,-0.687,-268.380,-82.040,264.740
16666937,-1.748,1.278,-0.485,-279.370,-128.240,285.180
16666959,-1.946,1.009,-0.350,-307.230,-193.690,318.850
16666976,-1.856,0.541,-0.309,-260.750,-239.610,336.070
16667000,-1.646,0.302,-0.294,-156.030,-275.100,348.880
16667019,-1.481,-0.115,-0.127,-119.210,-303.240,337.750
16667042,-1.206,-1.437,-0.038,-144.480,-323.400,321.230
16667061,0.074,-3.046,-0.192,-21.070,-305.970,320.740
16667083,0.496,-5.054,0.183,62.020,-239.470,271.740
16667102,0.365,-5.432,0.455,-131.950,-78.120,69.440
16667125,0.379,-6.095,-0.424,-107.380,-12.180,-122.990
16667145,-0.058,-5.550,-0.708,187.740,131.040,-254.940
16667167,-0.422,-4.031,-0.783,495.390,215.530,-359.870
16667186,-1.072,-2.363,-0.523,562.660,192.640,-408.870
16667210,-1.595,-1.161,-0.629,389.970,157.220,-429.590
16667229,-1.989,-0.026,-0.885,275.660,135.170,-434.980
16667248,-2.083,0.029,-0.857,304.150,76.720,-468.160
16667270,-1.810,0.225,-1.569,437.990,78.330,-475.790
16667289,-2.567,0.712,-2.189,452.130,-13.790,-468.440
16667310,-2.428,1.290,-2.263,365.960,-113.750,-442.330
16667330,-1.882,1.065,-2.155,249.550,-121.520,-410.620
16667346,-1.790,0.675,-2.016,304.990,-114.940,-389.550
16667369,-1.806,0.588,-2.014,364.000,-100.520,-376.040
16667390,-1.735,0.633,-1.953,403.410,-99.820,-365.050
16667408,-1.676,1.003,-1.816,344.470,-115.080,-348.040
16667428,-1.353,1.102,-1.748,283.710,-122.360,-318.150
16667451,-1.162,1.075,-1.635,224.980,-120.540,-293.510
16667468,-0.882,1.078,-1.286,203.770,-116.550,-274.610
16667492,-0.550,1.417,-1.216,222.600,-95.550,-238.000
16667512,-0.244,1.771,-1.411,228.550,-61.180,-190.120
16667532,-0.589,2.520,-1.542,249.410,-12.810,-145.040
16667551,-0.939,3.692,-1.791,335.160,-53.480,-111.020
16667575,-1.201,5.367,-2.415,235.410,14.490,-21.210
16667594,-1.590,5.641,-2.748,31.920,-1.610,48.580
16667618,-1.319,5.076,-2.952,-219.660,59.570,148.330
16667636,-2.046,4.243,-3.441,-337.190,88.900,177.240
16667655,-2.422,3.169,-3.335,-316.260,76.860,201.810
16667680,-1.527,2.522,-2.341,-285.810,82.600,230.930
16667699,-1.319,2.262,-1.759,-376.950,111.790,237.720
16667719,-1.103,1.791,-1.611,-478.730,114.240,245.140
16667743,-1.172,1.245,-1.575,-588.490,99.260,259.700
16667763,-1.252,0.520,-1.628,-573.160,30.100,269.710
16667780,-1.146,-0.054,-1.612,-500.010,-4.690,274.330
16667800,-0.983,-0.134,-1.488,-393.680,-38.920,271.810
16667822,-0.868,0.013,-1.194,-302.050,-41.790,260.820
16667842,-0.849,0.273,-1.016,-289.170,-39.340,243.740
16667861,-0.865,0.608,-0.956,-295.960,-35.770,239.330
16667886,-1.069,0.771,-0.952,-281.890,-19.040,241.500
16667904,-1.391,1.116,-0.821,-278.670,-25.410,247.800
16667928,-1.708,1.456,-0.854,-292.040,-52.220,275.240
16667947,-2.048,1.235,-0.756,-345.730,-130.900,309.680
16667967,-1.986,0.969,-0.308,-322.560,-179.760,340.550
16667984,-2.086,0.736,-0.477,-290.080,-221.410,362.530
16668004,-1.893,0.462,-0.453,-184.660,-270.900,368.200
16668028,-1.621,-0.125,0.030,-228.340,-295.610,362.180
16668047,-1.336,-2.049,0.053,-163.870,-381.220,336.700
16668067,-0.229,-3.195,-0.413,-88.760,-357.980,308.210
16668086,0.178,-4.986,0.223,-21.840,-303.940,240.800
16668109,0.184,-5.368,0.201,-131.530,-166.460,12.390
16668129,0.131,-5.620,-0.477,-45.430,-38.710,-149.380
16668153,-0.253,-5.063,-0.712,252.490,125.510,-287.490
16668172,-0.632,-4.055,-0.815,476.980,175.210,-332.640
16668191,-1.409,-2.821,-0.807,627.620,157.850,-361.970
16668212,-1.772,-0.876,-0.262,445.550,107.450,-398.790
16668236,-1.837,-0.199,-0.386,193.970,91.350,-446.390
16668256,-1.901,-0.137,-0.797,270.690,110.110,-504.140
16668276,-1.965,0.021,-1.494,360.850,89.740,-533.820
16668295,-2.707,0.490,-2.629,514.990,46.200,-550.340
16668316,-2.934,1.815,-2.562,340.620,-151.970,-530.110
16668336,-2.229,1.162,-2.365,202.650,-160.580,-484.610
16668354,-2.136,0.783,-2.260,333.620,-120.680,-451.290
16668378,-2.153,0.625,-2.360,396.480,-100.730,-409.990
16668398,-2.014,0.360,-2.565,482.370,-106.960,-375.900
16668418,-2.048,1.090,-2.381,471.940,-151.340,-348.670
16668437,-1.715,1.746,-1.815,354.690,-161.910,-339.570
16668457,-1.219,1.894,-1.505,253.260,-157.220,-313.810
16668481,-0.921,1.983,-1.572,228.620,-164.220,-257.880
16668499,-0.524,2.552,-1.904,283.640,-183.610,-188.090
16668519,-0.051,3.675,-2.225,323.120,-138.460,-106.190
16668542,-0.004,5.031,-2.201,227.990,-3.780,-12.250
16668565,-0.935,5.334,-2.622,94.920,107.730,73.500
16668586,-1.479,5.337,-2.917,-123.620,96.600,164.570
16668606,-1.501,4.525,-2.978,-249.060,130.760,245.420
16668623,-1.915,3.510,-3.363,-346.080,171.920,282.170
16668644,-2.574,2.453,-3.601,-348.460,154.980,275.800
16668666,-2.069,1.855,-3.012,-238.280,81.410,269.990
16668687,-1.285,1.865,-2.269,-261.450,153.720,267.680
16668707,-1.147,1.625,-1.686,-343.560,190.610,267.400
16668729,-0.992,1.145,-1.395,-432.460,186.130,270.690
16668753,-1.078,0.695,-1.333,-503.300,148.050,293.440
16668773,-1.162,0.153,-1.345,-450.310,83.440,295.260
16668791,-1.092,0.042,-1.172,-405.090,37.870,288.540
16668811,-0.969,0.129,-0.947,-383.250,5.670,278.950
16668835,-0.836,0.119,-0.765,-321.860,-3.710,264.670
16668855,-0.868,0.433,-0.721,-290.080,0.070,257.880
16668874,-1.215,1.020,-0.623,-288.960,-4.410,247.590
16668893,-1.644,1.329,-0.679,-355.810,-46.690,248.430
16668917,-1.846,1.154,-0.542,-402.990,-100.870,258.020
16668936,-1.899,0.978,-0.422,-437.850,-170.030,273.700
16668960,-1.841,0.494,-0.368,-394.170,-238.070,301.910
16668980,-1.619,0.071,-0.345,-207.130,-269.080,316.260
16668998,-1.452,0.057,-0.285,-128.450,-281.680,312.690
16669018,-1.562,-0.765,-0.201,-126.140,-312.970,287.560
16669041,-1.303,-1.859,-0.590,-138.530,-412.860,215.180
16669061,-0.492,-3.057,-1.287,-171.220,-447.300,149.870
16669082,0.846,-6.157,-0.340,272.790,-277.690,87.640
16669106,0.286,-4.077,0.464,74.270,-33.180,-20.510
16669123,0.510,-5.377,-1.016,-121.450,30.170,-133.140
16669145,0.056,-4.903,-1.078,207.900,206.640,-252.630
16669165,-0.317,-3.769,-0.518,398.300,235.410,-316.120
16669183,-0.804,-2.784,0.052,445.690,234.570,-363.790
16669202,-1.215,-1.891,0.082,364.560,203.560,-412.930
16669227,-1.618,-1.226,-0.408,341.180,216.580,-446.600
16669246,-2.260,-0.465,-0.997,397.600,148.820,-523.740
16669267,-2.579,0.122,-1.761,453.950,74.340,-562.240
16669287,-3.210,0.844,-2.410,535.570,-57.400,-545.230
16669307,-2.848,1.262,-2.664,477.260,-176.610,-479.290
16669325,-2.323,1.029,-2.825,396.270,-195.160,-424.130
16669347,-2.192,0.735,-2.859,365.680,-193.830,-379.260
16669366,-1.950,0.710,-2.684,392.350,-192.080,-347.270
16669385,-1.756,0.668,-2.241,367.430,-184.940,-326.830
16669406,-1.532,0.636,-1.919,290.080,-160.580,-328.650
16669427,-1.437,0.584,-1.914,237.440,-146.650,-323.820
16669447,-1.180,0.834,-1.935,229.670,-132.020,-308.560
16669471,-1.030,1.088,-1.809,241.150,-146.790,-284.830
16669490,-0.554,1.669,-1.517,235.480,-148.610,-238.280
16669509,-0.060,2.293,-1.871,294.140,-191.380,-192.780
16669528,0.244,3.232,-2.681,329.840,-108.150,-120.540
16669553,-0.200,4.829,-3.122,272.720,96.390,-42.490
16669571,-1.167,5.813,-3.234,74.620,91.070,24.500
16669593,-1.557,5.717,-3.667,-192.850,173.320,105.420
16669613,-2.178,4.604,-4.096,-441.840,152.390,184.310
16669630,-2.123,3.564,-4.077,-443.310,170.240,232.330
16669651,-2.427,2.489,-3.908,-397.670,149.590,233.170
16669670,-1.732,2.065,-2.993,-315.700,128.520,247.940
16669695,-1.113,1.953,-2.059,-405.090,168.350,269.010
16669712,-0.959,1.287,-1.775,-496.090,179.620,291.340
16669736,-1.068,0.747,-1.659,-578.200,163.030,301.700
16669754,-1.191,-0.119,-1.635,-539.350,92.960,302.470
16669778,-1.030,-0.414,-1.482,-417.830,12.250,287.630
16669796,-0.837,-0.138,-1.300,-385.630,-5.530,267.820
16669818,-0.829,0.168,-1.196,-374.080,-15.610,234.150
16669833,-0.960,0.550,-1.073,-369.530,13.650,224.910
16669855,-1.334,0.982,-1.008,-400.190,2.800,217.770
16669875,-1.586,1.174,-0.966,-423.150,-42.910,233.660
16669899,-1.668,1.155,-0.932,-421.890,-75.670,266.980
16669919,-1.761,1.076,-0.670,-424.900,-119.910,283.850
16669939,-1.806,0.587,-0.579,-377.090,-179.200,307.720
16669958,-1.740,0.437,-0.470,-284.200,-216.860,316.680
16669978,-1.634,0.212,-0.468,-200.480,-266.490,322.560
16669997,-1.586,-0.147,-0.187,-143.430,-317.310,306.250
16670022,-1.594,-1.008,-0.328,-120.750,-365.190,225.890
16670041,-1.251,-2.200,-0.951,-70.420,-447.090,175.840
16670062,0.304,-4.801,-0.861,165.340,-405.860,112.910
16670086,0.364,-4.741,0.118,218.540,-78.890,54.110
16670106,0.770,-5.399,-0.371,-14.490,65.310,-67.480
16670125,0.628,-5.284,-0.180,32.550,195.370,-148.330
16670144,-0.038,-4.592,0.455,196.700,221.060,-240.940
16670168,-0.918,-3.226,0.465,355.180,238.280,-335.300
16670189,-1.558,-1.898,-0.191,356.650,190.050,-412.580
16670213,-1.918,-0.879,-0.302,366.450,55.580,-447.440
16670237,-1.886,-0.594,-1.111,494.760,28.000,-473.970
16670255,-2.160,-0.113,-1.985,639.450,-2.800,-472.430
16670276,-2.437,0.376,-3.490,610.890,-107.100,-438.550
16670294,-2.285,1.263,-3.209,426.860,-191.800,-434.490
16670314,-2.062,0.670,-2.910,305.760,-179.550,-420.280
16670337,-1.835,0.308,-2.532,378.840,-131.390,-393.400
16670359,-1.909,0.204,-2.355,422.380,-113.680,-374.010
16670382,-1.937,0.454,-2.710,386.190,-140.140,-365.820
16670400,-1.859,1.292,-2.167,261.310,-214.340,-375.970
16670420,-1.200,1.069,-1.259,208.180,-187.880,-359.380
16670442,-1.068,1.287,-1.515,236.320,-123.130,-313.600
16670466,-0.847,2.054,-1.987,265.860,-160.860,-235.830
16670484,-0.540,2.814,-1.771,308.000,-169.120,-190.820
16670508,-0.110,4.072,-1.696,282.380,-85.120,-101.220
16670528,-0.101,5.190,-1.991,124.460,40.250,-26.390
16670546,-0.976,5.451,-2.852,-58.660,55.860,37.730
16670566,-1.139,5.356,-2.899,-225.260,66.920,117.950
16670590,-1.379,4.518,-3.109,-325.220,113.680,208.460
16670610,-1.972,3.746,-3.285,-364.070,144.620,227.710
16670629,-2.131,2.549,-3.030,-325.360,82.180,233.590
16670649,-1.294,2.389,-2.295,-318.430,95.130,235.060
16670670,-0.912,1.974,-1.768,-390.110,127.400,237.020
16670690,-0.729,1.463,-1.430,-460.810,146.650,247.870
16670714,-0.718,0.935,-1.273,-506.240,136.710,262.920
16670734,-0.857,0.304,-1.184,-495.880,90.370,268.520
16670754,-0.807,-0.045,-1.103,-442.890,36.960,251.160
16670778,-0.623,-0.222,-0.949,-335.020,7.560,254.380
16670796,-0.543,-0.069,-0.724,-295.680,-0.350,235.410
16670818,-0.547,0.117,-0.508,-269.780,-9.170,206.920
16670842,-0.563,0.156,-0.534,-263.060,-21.140,175.770
16670862,-0.666,0.362,-0.617,-257.320,-33.180,150.850
16670881,-0.927,0.924,-0.581,-259.910,-28.910,125.720
16670899,-1.461,1.612,-0.480,-299.670,-16.310,138.180
16670923,-2.108,1.293,-0.584,-374.150,-116.690,172.970
16670943,-1.619,0.470,-0.513,-288.960,-216.930,228.900
16670959,-1.432,0.384,-0.264,-170.240,-217.210,266.630
16670978,-1.553,0.838,0.074,-123.830,-218.680,288.610
16671003,-1.666,0.241,0.412,-161.140,-262.640,298.760
16671023,-1.395,-1.232,0.172,-227.850,-337.820,322.490
16671041,-0.033,-2.934,-0.345,-217.350,-373.380,336.770
16671061,0.877,-4.700,-0.067,-85.120,-337.890,278.390
16671084,0.570,-5.524,-0.386,-219.730,-220.990,80.780
16671108,0.366,-5.338,-1.412,-111.510,-24.220,-134.330
16671126,0.363,-5.552,-1.499,162.120,185.570,-265.160
16671144,-0.224,-4.467,-1.440,352.520,286.510,-363.160
16671166,-1.547,-3.227,-0.868,605.010,324.660,-414.680
16671187,-2.517,-1.123,-0.687,615.790,266.560,-437.710
16671210,-2.774,0.117,-0.834,489.860,134.050,-464.730
16671230,-2.397,0.429,-1.137,316.960,48.790,-482.510
16671251,-1.956,0.238,-1.777,343.000,-22.400,-494.270
16671275,-2.464,0.491,-2.463,473.270,-53.830,-483.000
16671295,-2.353,1.168,-2.445,405.930,-135.590,-460.950
16671318,-2.139,0.800,-2.286,305.550,-132.720,-449.820
16671338,-2.027,0.621,-2.176,276.640,-109.480,-439.600
16671359,-1.954,0.739,-2.072,265.930,-102.620,-438.900
16671379,-1.790,0.848,-1.802,238.910,-84.070,-446.460
16671403,-1.728,1.037,-1.444,149.800,-60.620,-455.350
16671423,-1.599,1.188,-1.094,100.240,-50.960,-431.130
16671442,-1.149,1.223,-1.097,90.440,-41.090,-391.860
16671462,-0.994,1.393,-1.140,40.600,1.820,-369.530
16671483,-1.905,1.398,-1.374,-35.700,62.860,-374.430
16671507,-2.797,2.110,-0.591,-6.440,72.590,-370.020
16671527,-3.289,2.142,-0.808,-81.200,43.610,-370.020
16671545,-4.003,1.343,-1.142,-122.220,66.990,-349.790
16671567,-3.751,1.574,-0.688,-137.830,42.070,-276.220
16671586,-3.027,1.750,-0.009,-222.740,60.410,-235.200
16671609,-2.090,1.260,0.397,-424.830,63.140,-176.610
16671633,-1.350,0.783,0.422,-523.670,74.620,-119.910
16671652,-0.843,0.456,0.491,-524.230,33.950,-91.070
16671675,-0.590,0.641,1.189,-525.280,-6.230,-171.640
16671694,-0.803,0.055,1.612,-471.520,-104.440,-25.970
16671715,-0.334,-0.980,0.586,-179.760,48.230,20.650
16671735,-0.112,-0.499,0.239,-11.830,-78.540,-18.690
16671754,0.044,0.143,0.251,55.930,-7.700,-18.340
16671778,-0.335,0.297,0.106,-39.620,13.230,5.110
16671798,-0.604,-0.096,-0.284,-56.910,10.360,11.760
16671817,-1.057,-0.042,-0.489,-39.410,30.590,0.420
16671838,-2.216,-0.367,-1.121,12.390,-26.740,-43.330
16671858,-3.099,-0.320,-1.355,106.890,-71.330,-12.110
16671878,-2.466,0.255,-1.100,190.120,-187.950,-6.510
16671898,-1.220,0.732,-0.547,207.410,-148.120,4.410
16671917,-0.468,1.050,0.204,135.240,-129.080,2.660
16671938,0.022,0.329,0.787,-47.880,5.740,22.260
16671958,-0.216,-0.301,0.457,-93.800,48.790,33.740
16671982,-0.280,-0.107,0.294,-137.130,96.670,61.600
16672002,-0.631,0.169,-0.230,-120.190,136.920,49.490
16672022,-1.232,0.244,-0.564,-80.010,89.250,27.580
16672041,-1.467,0.285,-0.730,-30.660,39.060,-2.310
16672060,-1.317,0.215,-0.691,-6.720,-2.730,-18.270
16672084,-1.212,0.169,-0.523,10.010,-33.600,-32.550
16672104,-1.029,0.139,-0.305,25.900,-45.570,-23.520
16672123,-0.898,0.183,-0.144,4.760,-58.450,-9.240
16672142,-0.654,0.095,-0.015,-40.810,-43.470,6.440
16672166,-0.668,0.008,0.058,-75.880,-17.640,17.500
16672185,-0.836,-0.019,0.037,-87.360,2.730,26.880
16672206,-0.922,0.007,-0.027,-64.890,18.760,27.860
16672226,-0.997,0.019,-0.114,-33.950,32.690,22.890
16672244,-1.098,0.090,-0.122,-8.890,38.710,14.070
16672266,-1.115,0.142,-0.111,8.260,35.210,2.590
16672285,-1.101,0.178,-0.058,3.710,35.280,-7.070
16672310,-1.086,0.178,-0.017,-15.120,29.260,-13.650
16672329,-1.087,0.270,0.071,-54.740,10.500,-19.180
16672349,-1.041,0.248,0.068,-110.250,-10.990,-24.360
16672369,-0.927,0.098,0.041,-114.240,-5.320,-19.670
16672389,-1.037,0.110,0.057,-95.270,-0.350,-21.350
16672413,-1.029,-0.001,0.023,-55.300,-3.220,-18.340
16672433,-1.027,-0.036,-0.022,-14.140,0.070,-11.690
16672456,-1.037,0.013,-0.041,10.710,-9.030,-4.340
16672475,-1.001,0.066,-0.071,19.320,-15.330,2.520
16672499,-0.966,0.067,-0.091,20.300,-23.240,11.690
16672518,-0.941,0.055,-0.114,23.030,-28.560,17.220
16672539,-0.972,0.041,-0.132,27.580,-30.870,21.770
16672558,-1.003,0.027,-0.154,34.090,-35.420,22.750
16672582,-1.002,0.046,-0.159,46.900,-36.680,22.330
16672597,-0.989,0.059,-0.159,55.580,-34.790,22.610
16672622,-0.966,0.080,-0.151,68.530,-31.500,22.050
16672641,-0.947,0.089,-0.140,74.340,-24.920,20.510
16672661,-0.970,0.086,-0.131,76.090,-20.300,20.510
16672681,-0.921,0.092,-0.106,77.350,-19.460,19.880
16672705,-0.828,0.116,-0.123,69.020,-12.460,18.340
16672723,-0.809,0.106,-0.152,65.450,-7.700,15.680
16672747,-0.824,0.108,-0.167,63.000,-2.800,9.800
16672766,-0.872,0.151,-0.139,55.930,1.260,-0.210
16672787,-0.921,0.194,-0.134,38.220,2.730,-11.270
16672802,-0.933,0.184,-0.151,29.680,2.590,-21.420
16672827,-0.922,0.203,-0.159,18.270,5.040,-34.510
16672847,-0.917,0.203,-0.141,9.240,10.080,-41.300
16672867,-0.914,0.194,-0.140,5.390,16.240,-45.780
16672888,-0.924,0.187,-0.149,2.030,20.510,-48.370
16672906,-0.925,0.188,-0.157,-1.750,24.430,-50.470
16672925,-0.972,0.190,-0.177,-3.920,28.280,-53.270
16672950,-1.029,0.223,-0.179,-6.930,29.120,-58.100
16672968,-1.066,0.247,-0.186,-13.300,26.880,-61.320
16672988,-1.097,0.234,-0.216,-15.960,22.960,-62.160
16673008,-1.098,0.230,-0.239,-13.230,19.320,-59.780
16673031,-1.100,0.247,-0.244,-12.180,16.660,-54.040
16673051,-1.106,0.256,-0.224,-11.550,16.170,-47.670
16673075,-1.102,0.248,-0.226,-11.200,13.510,-35.700
16673095,-1.075,0.255,-0.205,-13.580,12.460,-25.480
16673114,-1.056,0.251,-0.195,-16.170,12.320,-14.350
16673137,-1.053,0.238,-0.194,-17.710,11.760,-1.330
16673161,-1.054,0.223,-0.191,-18.480,8.960,11.200
16673181,-1.043,0.212,-0.187,-17.850,6.580,19.810
16673205,-1.038,0.183,-0.194,-17.500,2.170,29.330
16673224,-1.040,0.152,-0.196,-15.610,-0.840,34.650
16673244,-1.036,0.139,-0.203,-13.860,-4.760,38.500
16673264,-1.021,0.122,-0.207,-10.850,-9.240,40.950
16673288,-0.989,0.103,-0.207,-4.060,-11.620,41.930
16673308,-0.965,0.108,-0.199,1.610,-12.810,41.510
16673328,-0.943,0.113,-0.190,3.150,-11.900,38.780
16673346,-0.940,0.121,-0.189,2.310,-11.340,35.420
16673367,-0.938,0.140,-0.186,-0.840,-13.230,30.590
16673391,-0.916,0.157,-0.190,-7.700,-13.580,24.010
16673409,-0.937,0.144,-0.220,-12.880,-14.630,18.830
16673433,-0.963,0.117,-0.274,-15.470,-18.200,13.790
16673448,-1.001,0.097,-0.317,-14.000,-18.340,11.340
16673468,-1.044,0.087,-0.335,-9.660,-20.230,9.170
16673488,-1.025,0.112,-0.308,-6.580,-21.070,8.470
16673513,-0.982,0.127,-0.281,-7.700,-15.890,9.310
16673533,-0.976,0.115,-0.266,-12.180,-6.720,10.850
16673553,-0.984,0.101,-0.205,-18.970,-1.470,12.810
16673576,-1.017,0.095,-0.107,-30.520,13.510,15.330
16673593,-1.070,0.043,-0.060,-40.600,20.020,17.570
16673612,-1.104,-0.014,-0.086,-46.760,16.800,20.580
16673637,-1.121,-0.119,-0.203,-34.650,4.130,22.050
16673657,-1.123,-0.243,-0.187,-8.190,-7.770,17.850
16673675,-1.101,-0.390,-0.155,7.280,-22.540,14.840
16673699,-1.004,-0.477,-0.124,51.520,-35.070,11.760
16673719,-0.948,-0.391,-0.101,79.450,-41.440,5.320
16673738,-0.946,-0.331,-0.110,93.660,-43.750,-3.150
16673763,-0.994,-0.303,-0.158,112.910,-48.020,-12.180
16673781,-1.032,-0.275,-0.223,129.500,-48.860,-17.360
16673804,-1.024,-0.218,-0.254,141.890,-52.710,-23.030
16673824,-1.012,-0.142,-0.271,151.830,-50.540,-31.010
16673843,-1.037,-0.070,-0.266,154.280,-47.950,-39.340
16673862,-1.045,-0.046,-0.288,155.400,-47.530,-44.800
16673886,-0.985,-0.019,-0.334,154.420,-46.970,-49.140
16673906,-0.949,0.011,-0.366,157.850,-43.750,-51.170
16673930,-0.931,0.069,-0.388,161.770,-39.620,-52.010
