Timestamp,AccelX,AccelY,AccelZ,GyroX,GyroY,GyroZ
1743435962.399866,-0.441,0.708,0.564,0.98,2.59,-1.75
1743435962.419866,-0.427,0.718,0.553,-4.34,-7.07,3.5
1743435962.439866,-0.455,0.712,0.574,3.43,-7.49,0.21
1743435962.459866,-0.428,0.731,0.573,1.61,-2.59,-0.63
1743435962.479866,-0.436,0.721,0.561,1.47,0.07,-1.12
1743435962.499866,-0.437,0.728,0.571,-2.24,1.75,-1.19
1743435962.519866,-0.443,0.711,0.569,-3.43,0.35,-0.14
1743435962.539866,-0.448,0.711,0.567,-0.07,-3.71,0.35
1743435962.559866,-0.441,0.72,0.566,2.31,-3.78,0.28
1743435962.579866,-0.435,0.724,0.571,1.61,-2.87,-0.28
1743435962.599866,-0.433,0.72,0.57,-0.63,-1.61,-0.21
1743435962.619866,-0.437,0.715,0.571,-0.91,-1.82,0.07
1743435962.639866,-0.442,0.708,0.568,0.7,-3.64,0.07
1743435962.659866,-0.439,0.712,0.561,2.24,-4.62,0.28
1743435962.6798658,-0.435,0.713,0.563,2.66,-3.78,-0.63
1743435962.6998658,-0.43,0.717,0.561,1.54,-1.61,-1.19
1743435962.7198658,-0.435,0.712,0.567,-0.28,0.35,-1.47
1743435962.7398658,-0.438,0.709,0.572,0.14,0.0,-1.54
1743435962.7598658,-0.44,0.71,0.576,1.19,-1.54,-1.26
1743435962.7798655,-0.443,0.716,0.576,1.89,-3.01,-1.05
1743435962.7998655,-0.443,0.724,0.575,0.84,-3.08,-0.56
1743435962.8198657,-0.44,0.723,0.575,-0.56,-2.59,-0.07
1743435962.8398657,-0.442,0.718,0.57,-1.47,-2.17,0.0
1743435962.8598657,-0.444,0.713,0.566,-1.26,-2.87,0.21
1743435962.8798656,-0.441,0.714,0.563,-0.42,-3.43,0.28
1743435962.8998656,-0.439,0.714,0.563,-0.28,-3.5,0.35
1743435962.9198656,-0.438,0.717,0.563,-0.49,-3.22,0.42
1743435962.9398656,-0.439,0.716,0.564,-0.77,-2.87,0.28
1743435962.9598656,-0.438,0.713,0.565,-0.42,-2.73,0.14
1743435962.9798656,-0.439,0.715,0.569,-0.07,-2.94,0.0
1743435962.9998655,-0.437,0.718,0.572,-0.07,-2.8,-0.07
1743435963.0198655,-0.439,0.718,0.571,-0.42,-2.38,-0.28
1743435963.0398655,-0.437,0.719,0.574,-0.56,-2.31,-0.42
1743435963.0598657,-0.438,0.718,0.574,-0.28,-2.45,-0.63
1743435963.0798657,-0.437,0.719,0.573,-0.07,-2.38,-0.84
1743435963.0998654,-0.436,0.717,0.571,0.0,-1.75,-1.12
1743435963.1198654,-0.435,0.713,0.57,-0.77,-1.12,-1.4
1743435963.1398654,-0.439,0.714,0.567,-0.98,-0.77,-1.61
1743435963.1598654,-0.44,0.712,0.567,-0.91,-0.77,-1.47
1743435963.1798654,-0.44,0.713,0.567,-0.49,-0.98,-1.4
1743435963.199865,-0.442,0.714,0.569,-0.14,-1.05,-1.26
1743435963.219865,-0.441,0.712,0.569,-0.21,-0.84,-1.26
1743435963.2398653,-0.44,0.714,0.57,-0.28,-0.63,-1.12
1743435963.2598653,-0.441,0.714,0.569,-0.42,0.07,-0.91
1743435963.2798653,-0.442,0.714,0.571,-0.77,0.77,-0.7
1743435963.2998652,-0.44,0.714,0.573,-1.05,0.7,-0.49
1743435963.3198652,-0.44,0.712,0.576,-1.26,0.56,-0.35
1743435963.3398652,-0.442,0.712,0.575,-1.4,-0.14,-0.42
1743435963.3598652,-0.441,0.711,0.567,-0.63,-1.05,-0.77
1743435963.3798652,-0.444,0.709,0.566,17.71,-1.54,-1.05
1743435963.3998652,-0.444,0.712,0.563,0.14,-0.98,-1.19
1743435963.4198651,-0.443,0.712,0.563,0.0,0.14,-1.12
1743435963.439865,-0.441,0.713,0.564,-0.07,1.05,-1.19
1743435963.459865,-0.439,0.713,0.569,-0.21,1.75,-1.05
1743435963.479865,-0.444,0.712,0.571,-17.85,2.1,-1.05
1743435963.499865,-0.442,0.711,0.573,-0.07,1.68,-1.05
1743435963.519865,-0.445,0.711,0.571,0.14,1.05,-1.26
1743435963.539865,-0.443,0.712,0.572,0.35,0.35,-1.26
1743435963.559865,-0.446,0.712,0.567,0.77,-0.42,-1.26
1743435963.579865,-0.447,0.711,0.564,0.91,-1.05,-1.05
1743435963.599865,-0.442,0.709,0.563,0.98,-0.84,-0.84
1743435963.619865,-0.443,0.71,0.561,0.63,-0.35,-0.63
1743435963.639865,-0.437,0.708,0.563,0.28,-0.14,-0.42
1743435963.659865,-0.441,0.706,0.563,0.0,0.07,-0.42
1743435963.679865,-0.444,0.709,0.564,0.07,-0.14,-0.28
1743435963.6998649,-0.446,0.707,0.565,0.07,-1.26,-0.42
1743435963.7198648,-0.447,0.708,0.565,0.35,-2.59,-0.49
1743435963.7398648,-0.45,0.709,0.565,0.84,-3.85,-0.42
1743435963.7598648,-0.452,0.714,0.559,1.4,-4.34,-0.07
1743435963.7798648,-0.448,0.713,0.558,1.26,-3.71,0.21
1743435963.7998648,-0.447,0.716,0.561,1.12,-2.94,0.28
1743435963.8198647,-0.445,0.714,0.563,0.42,-1.12,-0.14
1743435963.8398647,-0.445,0.712,0.568,0.07,-0.98,-0.7
1743435963.8598647,-0.448,0.709,0.573,0.49,-2.03,-1.12
1743435963.8798647,-0.455,0.715,0.576,1.4,-3.57,-1.05
1743435963.899865,-0.456,0.719,0.577,1.82,-4.83,-0.63
1743435963.919865,-0.451,0.722,0.569,1.61,-4.97,0.21
1743435963.9398646,-0.447,0.716,0.566,0.35,-3.5,0.21
1743435963.9598646,-0.442,0.714,0.564,-0.28,-1.26,-0.35
1743435963.9798646,-0.442,0.706,0.566,-0.7,0.0,-0.7
1743435963.9998646,-0.438,0.707,0.569,-0.49,0.7,-1.12
1743435964.0198646,-0.443,0.707,0.57,0.0,0.63,-1.12
1743435964.0398643,-0.447,0.712,0.569,0.28,-0.21,-0.84
1743435964.0598643,-0.45,0.714,0.566,0.28,-1.4,-0.49
1743435964.0798645,-0.453,0.713,0.558,0.14,-2.8,-0.21
1743435964.0998645,-0.45,0.71,0.555,0.28,-3.92,-0.21
1743435964.1198645,-0.448,0.71,0.553,0.49,-3.92,-0.28
1743435964.1398644,-0.443,0.709,0.556,0.49,-3.22,-0.49
1743435964.1598644,-0.443,0.708,0.569,0.28,-2.31,-0.42
1743435964.1798644,-0.444,0.711,0.57,0.0,-1.61,-0.42
1743435964.1998644,-0.447,0.713,0.576,-0.07,-1.82,-0.14
1743435964.2198644,-0.448,0.713,0.575,0.07,-2.38,-0.07
1743435964.2398643,-0.45,0.711,0.572,0.49,-3.29,-0.21
1743435964.2598643,-0.448,0.714,0.566,0.7,-4.69,-0.49
1743435964.2798643,-0.448,0.712,0.562,0.7,-4.69,-0.63
1743435964.2998643,-0.446,0.709,0.561,0.49,-3.64,-0.56
1743435964.3198645,-0.441,0.708,0.564,0.28,-2.45,-0.49
1743435964.3398645,-0.441,0.709,0.565,0.0,-1.33,-0.35
1743435964.3598642,-0.444,0.707,0.568,0.0,-0.98,-0.28
1743435964.3798642,-0.443,0.708,0.569,0.07,-1.05,-0.42
1743435964.3998642,-0.449,0.711,0.565,0.42,-1.68,-0.49
1743435964.4198642,-0.453,0.712,0.566,0.77,-2.38,-0.42
1743435964.4398642,-0.452,0.715,0.567,0.98,-3.36,-0.14
1743435964.459864,-0.45,0.717,0.563,0.84,-3.22,0.14
1743435964.479864,-0.445,0.715,0.564,0.42,-2.66,0.21
1743435964.499864,-0.444,0.714,0.568,0.14,-1.61,0.07
1743435964.519864,-0.444,0.712,0.569,-0.07,-0.84,-0.35
1743435964.539864,-0.445,0.71,0.568,0.07,-0.21,-0.91
1743435964.559864,-0.446,0.711,0.569,0.42,17.85,-1.05
1743435964.579864,-0.45,0.714,0.566,0.7,-0.28,-1.05
1743435964.599864,-0.449,0.714,0.563,0.98,-0.77,-0.63
1743435964.619864,-0.45,0.714,0.561,0.77,-1.4,-0.28
1743435964.639864,-0.451,0.714,0.564,0.7,-1.4,-0.14
1743435964.659864,-0.451,0.712,0.564,0.42,-1.54,-0.07
1743435964.679864,-0.446,0.712,0.562,0.28,-1.33,-0.21
1743435964.699864,-0.446,0.712,0.568,0.28,-1.47,-0.42
1743435964.719864,-0.445,0.709,0.567,0.42,-1.75,-0.56
1743435964.739864,-0.447,0.709,0.567,0.63,-2.24,-0.49
1743435964.759864,-0.449,0.71,0.565,0.84,-3.08,-0.21
1743435964.7798638,-0.449,0.712,0.565,0.84,-3.43,-0.07
1743435964.7998638,-0.448,0.714,0.559,0.91,-3.43,0.28
1743435964.8198638,-0.446,0.714,0.561,0.7,-3.15,0.21
1743435964.8398638,-0.446,0.713,0.563,0.56,-2.59,0.0
1743435964.8598638,-0.449,0.712,0.564,0.42,-2.1,-0.14
1743435964.8798635,-0.447,0.71,0.567,0.49,-1.47,-0.49
1743435964.8998635,-0.448,0.713,0.565,0.63,-1.47,-0.63
1743435964.9198637,-0.449,0.714,0.569,0.63,-1.26,-0.63
1743435964.9398637,-0.448,0.714,0.564,0.63,-1.26,-0.7
1743435964.9598637,-0.451,0.712,0.562,0.21,-1.4,-0.84
1743435964.9798636,-0.449,0.71,0.561,0.35,-1.89,-0.91
1743435964.9998636,-0.452,0.708,0.56,0.77,-2.38,-0.63
1743435965.0198636,-0.45,0.712,0.558,1.05,-3.01,-0.42
1743435965.0398636,-0.451,0.712,0.562,0.91,-2.94,-0.14
1743435965.0598636,-0.446,0.712,0.563,0.84,-2.45,0.07
1743435965.0798635,-0.445,0.714,0.561,0.35,-1.61,0.0
1743435965.0998635,-0.445,0.713,0.566,0.07,-1.12,-0.21
1743435965.1198635,-0.448,0.71,0.568,0.14,-1.26,-0.49
1743435965.1398635,-0.449,0.711,0.567,0.56,-2.38,-0.91
1743435965.1598637,-0.449,0.712,0.569,1.19,-3.5,-0.7
1743435965.1798637,-0.451,0.713,0.568,1.4,-3.71,-0.42
1743435965.1998634,-0.447,0.715,0.564,1.33,-3.43,-0.14
1743435965.2198634,-0.447,0.713,0.564,0.7,-2.59,-0.21
1743435965.2398634,-0.444,0.711,0.557,0.07,-0.84,-0.42
1743435965.2598634,-0.446,0.71,0.561,-0.21,0.56,-0.77
1743435965.2798634,-0.447,0.712,0.565,0.0,1.12,-1.05
1743435965.299863,-0.452,0.714,0.564,0.21,0.56,-1.26
1743435965.319863,-0.456,0.716,0.565,0.35,-0.35,-1.12
1743435965.3398633,-0.457,0.717,0.565,0.35,-1.33,-0.77
1743435965.3598633,-0.454,0.714,0.563,0.56,-2.8,-0.42
1743435965.3798633,-0.452,0.712,0.56,0.56,-3.15,-0.28
1743435965.3998632,-0.451,0.711,0.56,0.63,-3.01,-0.49
1743435965.4198632,-0.446,0.709,0.562,0.49,-2.52,-0.63
1743435965.4398632,-0.449,0.712,0.562,0.42,-2.1,-0.63
1743435965.4598632,-0.45,0.713,0.562,0.49,-1.96,-0.56
1743435965.4798632,-0.452,0.713,0.562,0.49,-2.1,-0.42
1743435965.4998631,-0.45,0.715,0.56,0.56,-2.8,-0.28
1743435965.5198631,-0.449,0.713,0.561,0.49,-2.8,-0.28
1743435965.539863,-0.45,0.71,0.563,0.42,-2.8,-0.35
1743435965.559863,-0.45,0.711,0.564,0.28,-2.31,-0.56
1743435965.579863,-0.447,0.71,0.566,0.35,-1.61,-0.63
1743435965.599863,-0.447,0.711,0.562,0.14,-0.42,-0.7
1743435965.619863,-0.45,0.711,0.562,0.35,-0.28,-0.84
1743435965.639863,-0.454,0.712,0.561,0.42,-0.42,-0.98
1743435965.659863,-0.455,0.714,0.562,0.42,-1.05,-0.91
1743435965.679863,-0.454,0.713,0.56,0.56,-1.61,-0.77
1743435965.699863,-0.454,0.713,0.563,0.49,-2.1,-0.35
1743435965.719863,-0.454,0.715,0.562,0.42,-2.38,-0.35
1743435965.739863,-0.451,0.713,0.564,0.35,-2.03,-0.35
1743435965.759863,-0.449,0.714,0.564,0.14,-1.54,-0.35
1743435965.7798629,-0.451,0.712,0.565,0.21,-0.98,-0.63
1743435965.7998629,-0.452,0.71,0.564,0.21,-0.7,-0.84
1743435965.8198628,-0.452,0.71,0.561,0.35,-0.77,-0.98
1743435965.8398628,-0.454,0.71,0.56,0.63,-1.12,-0.98
1743435965.8598628,-0.456,0.711,0.561,0.7,-1.47,-0.84
1743435965.8798628,-0.454,0.712,0.559,0.7,-1.54,-0.7
1743435965.8998628,-0.454,0.712,0.561,0.7,-1.82,-0.49
1743435965.9198627,-0.452,0.712,0.563,0.49,-1.96,-0.35
1743435965.9398627,-0.451,0.709,0.562,0.28,-2.03,-0.28
1743435965.9598627,-0.452,0.71,0.564,0.35,-2.1,-0.35
1743435965.9798627,-0.449,0.711,0.566,0.49,-2.24,-0.28
1743435965.999863,-0.454,0.712,0.562,0.77,-2.24,-0.49
1743435966.019863,-0.451,0.712,0.558,0.77,-2.17,-0.56
1743435966.0398626,-0.453,0.712,0.558,0.7,-2.03,-0.7
1743435966.0598626,-0.452,0.711,0.559,0.63,-2.03,-0.7
1743435966.0798626,-0.452,0.709,0.561,0.49,-1.75,-0.7
1743435966.0998626,-0.453,0.712,0.559,0.35,-1.68,-0.63
1743435966.1198626,-0.453,0.71,0.561,0.28,-1.47,-0.56
1743435966.1398623,-0.453,0.712,0.56,0.35,-1.12,-0.49
1743435966.1598625,-0.452,0.713,0.559,0.14,-0.35,-0.63
1743435966.1798625,-0.453,0.713,0.56,-0.07,0.42,-0.84
1743435966.1998625,-0.454,0.712,0.559,-0.35,0.7,-1.47
1743435966.2198625,-0.458,0.71,0.56,-0.7,0.21,-1.82
1743435966.2398624,-0.459,0.709,0.562,-0.21,-0.35,-1.75
1743435966.2598624,-0.459,0.71,0.562,0.56,-1.68,-1.26
1743435966.2798624,-0.457,0.711,0.56,0.84,-2.45,-0.7
1743435966.2998624,-0.455,0.713,0.562,0.77,-2.45,-0.35
1743435966.3198624,-0.453,0.713,0.56,0.42,-2.1,0.07
1743435966.3398623,-0.453,0.711,0.561,0.21,-1.89,-0.14
1743435966.3598623,-0.454,0.707,0.561,0.77,-2.38,-0.35
1743435966.3798623,-0.454,0.705,0.559,1.4,-3.15,-0.63
1743435966.3998623,-0.455,0.711,0.563,1.82,-3.99,-0.63
1743435966.4198625,-0.453,0.712,0.559,1.82,-4.06,-0.28
1743435966.4398625,-0.455,0.712,0.562,1.19,-3.5,0.14
1743435966.4598622,-0.451,0.714,0.558,0.49,-2.66,0.07
1743435966.4798622,-0.452,0.709,0.558,0.14,-1.4,-0.35
1743435966.4998622,-0.454,0.71,0.559,0.28,-0.91,-0.91
1743435966.5198622,-0.455,0.712,0.559,0.28,-0.91,-1.26
1743435966.5398622,-0.459,0.714,0.56,0.35,-1.61,-1.26
1743435966.559862,-0.46,0.715,0.563,0.14,-2.17,-0.7
1743435966.579862,-0.459,0.713,0.56,0.07,-2.59,-0.21
1743435966.599862,-0.459,0.713,0.558,0.14,-2.73,0.07
1743435966.619862,-0.455,0.711,0.555,0.07,-3.15,0.21
1743435966.639862,-0.454,0.707,0.555,-0.07,-4.06,0.0
1743435966.659862,-0.451,0.706,0.555,0.07,-4.9,-0.14
1743435966.679862,-0.456,0.708,0.557,0.14,-6.37,0.0
1743435966.699862,-0.454,0.707,0.559,0.35,-8.4,0.28
1743435966.719862,-0.453,0.706,0.558,0.7,-9.66,0.49
1743435966.739862,-0.449,0.708,0.556,0.49,-10.99,0.56
1743435966.759862,-0.452,0.706,0.553,0.49,-11.55,0.91
1743435966.779862,-0.451,0.709,0.554,0.42,-11.55,0.98
1743435966.799862,-0.451,0.712,0.555,0.21,-10.08,0.98
1743435966.819862,-0.448,0.712,0.56,0.0,-8.47,0.91
1743435966.839862,-0.447,0.716,0.566,-0.49,-6.16,0.77
1743435966.859862,-0.444,0.713,0.573,-0.91,-3.64,0.28
1743435966.8798618,-0.449,0.716,0.582,-0.77,-1.61,-0.49
1743435966.8998618,-0.45,0.721,0.583,-0.42,-0.98,-0.91
1743435966.9198618,-0.451,0.722,0.583,0.0,-0.35,-1.4
1743435966.9398618,-0.454,0.719,0.581,0.21,0.42,-1.68
1743435966.9598618,-0.452,0.716,0.574,0.28,1.26,-1.89
1743435966.9798615,-0.452,0.716,0.564,0.07,2.52,-1.75
1743435966.9998617,-0.452,0.712,0.562,-0.28,3.92,-1.61
1743435967.0198617,-0.449,0.713,0.559,-0.56,5.32,-1.33
1743435967.0398617,-0.453,0.711,0.558,-0.98,5.74,-1.12
1743435967.0598617,-0.453,0.708,0.556,-0.84,5.32,-1.12
1743435967.0798616,-0.456,0.705,0.556,-0.7,3.78,-0.98
1743435967.0998616,-0.456,0.704,0.556,-0.28,2.38,-0.91
1743435967.1198616,-0.454,0.704,0.556,0.28,-0.77,-0.63
1743435967.1398616,-0.453,0.702,0.554,0.77,-2.66,-0.21
1743435967.1598616,-0.454,0.704,0.549,1.05,-3.71,-0.07
1743435967.1798615,-0.454,0.703,0.55,1.33,-5.04,0.28
1743435967.1998615,-0.452,0.706,0.554,1.47,-5.67,0.77
1743435967.2198615,-0.452,0.708,0.554,1.54,-5.67,0.91
1743435967.2398615,-0.45,0.708,0.558,1.19,-6.79,1.26
1743435967.2598617,-0.453,0.701,0.561,2.59,-8.05,0.7
1743435967.2798617,-0.45,0.707,0.566,2.8,-9.17,0.98
1743435967.2998614,-0.449,0.706,0.567,3.15,-10.15,1.33
1743435967.3198614,-0.448,0.712,0.567,3.71,-11.13,1.47
1743435967.3398614,-0.447,0.714,0.568,3.36,-10.22,1.82
1743435967.3598614,-0.447,0.716,0.568,2.03,-9.45,1.96
1743435967.3798614,-0.445,0.718,0.57,1.26,-8.26,1.61
1743435967.399861,-0.445,0.716,0.569,0.91,-6.93,1.4
1743435967.4198613,-0.444,0.715,0.567,0.63,-6.51,1.19
1743435967.4398613,-0.447,0.726,0.574,0.14,-5.39,1.05
1743435967.4598613,-0.452,0.708,0.57,0.7,-4.76,-0.07
1743435967.4798613,-0.446,0.713,0.56,0.49,-5.32,0.14
1743435967.4998612,-0.449,0.711,0.561,1.05,-5.39,0.28
1743435967.5198612,-0.449,0.712,0.558,1.47,-5.25,0.42
1743435967.5398612,-0.447,0.718,0.558,0.91,-4.41,0.84
1743435967.5598612,-0.444,0.715,0.561,0.42,-3.22,0.98
1743435967.5798612,-0.445,0.715,0.564,-0.14,-3.01,0.77
1743435967.5998611,-0.447,0.716,0.57,0.49,-4.06,0.63
1743435967.6198611,-0.445,0.715,0.574,1.05,-5.18,0.7
1743435967.639861,-0.447,0.719,0.575,1.61,-7.0,1.33
1743435967.659861,-0.442,0.715,0.575,0.28,-10.01,2.38
1743435967.679861,-0.442,0.699,0.57,2.31,-34.93,3.22
1743435967.699861,-0.438,0.698,0.566,4.55,-21.63,4.48
1743435967.719861,-0.432,0.707,0.561,8.19,-19.32,3.57
1743435967.739861,-0.415,0.718,0.557,6.51,-11.27,1.4
1743435967.759861,-0.407,0.717,0.567,-1.26,-2.24,-1.54
1743435967.779861,-0.405,0.72,0.568,-2.24,0.35,-2.87
1743435967.799861,-0.413,0.711,0.569,-6.09,3.22,-3.78
1743435967.819861,-0.438,0.719,0.567,-5.04,3.99,-3.22
1743435967.839861,-0.451,0.735,0.565,-4.27,6.86,-2.73
1743435967.859861,-0.467,0.754,0.563,-3.29,9.38,-1.54
1743435967.8798609,-0.467,0.766,0.569,-4.76,12.95,-0.63
1743435967.8998609,-0.452,0.749,0.571,-5.88,14.21,-1.75
1743435967.9198608,-0.436,0.706,0.576,-5.88,13.02,-3.22
1743435967.9398608,-0.435,0.686,0.575,-2.03,12.6,-5.32
1743435967.9598608,-0.436,0.687,0.569,3.22,11.62,-7.28
1743435967.9798608,-0.433,0.697,0.569,3.36,14.07,-6.86
1743435967.9998608,-0.438,0.714,0.572,0.91,16.87,-6.37
1743435968.0198607,-0.447,0.719,0.572,-3.01,17.5,-5.46
1743435968.0398607,-0.458,0.716,0.571,-4.97,13.16,-4.2
1743435968.0598607,-0.47,0.704,0.567,-4.27,8.19,-3.29
1743435968.0798607,-0.481,0.697,0.558,-0.98,2.52,-2.45
1743435968.099861,-0.471,0.696,0.55,2.73,-4.83,-1.4
1743435968.1198606,-0.464,0.703,0.543,4.48,-6.58,-1.12
1743435968.1398606,-0.454,0.705,0.541,3.78,-3.43,-1.4
1743435968.1598606,-0.45,0.713,0.549,1.12,2.17,-1.75
1743435968.1798606,-0.453,0.712,0.555,0.49,6.09,-1.82
1743435968.1998606,-0.462,0.718,0.564,0.56,6.58,-1.68
1743435968.2198606,-0.47,0.719,0.566,1.26,5.53,-1.54
1743435968.2398603,-0.473,0.722,0.569,1.54,3.15,-1.26
1743435968.2598605,-0.47,0.721,0.563,1.19,1.68,-1.05
1743435968.2798605,-0.468,0.719,0.562,0.7,1.19,-1.12
1743435968.2998605,-0.466,0.718,0.555,-0.07,1.89,-1.47
1743435968.3198605,-0.459,0.71,0.551,-0.91,3.36,-2.38
1743435968.3398604,-0.452,0.704,0.545,-1.96,6.23,-3.71
1743435968.3598604,-0.449,0.7,0.537,-1.61,12.95,-7.49
1743435968.3798604,-0.446,0.708,0.538,-3.36,21.91,-13.65
1743435968.3998604,-0.45,0.713,0.539,-3.71,27.16,-16.87
1743435968.4198604,-0.462,0.714,0.542,-3.64,33.32,-22.82
1743435968.4398603,-0.475,0.716,0.551,-2.24,34.86,-24.15
1743435968.4598603,-0.486,0.711,0.551,-1.82,32.13,-24.29
1743435968.4798603,-0.508,0.7,0.543,-0.07,27.23,-22.96
1743435968.4998603,-0.511,0.697,0.535,1.12,24.36,-21.0
1743435968.5198605,-0.52,0.69,0.529,2.31,21.49,-17.99
1743435968.5398602,-0.517,0.685,0.522,2.66,20.72,-16.03
1743435968.5598602,-0.515,0.677,0.517,2.17,20.86,-13.65
1743435968.5798602,-0.522,0.677,0.521,2.17,20.02,-12.32
1743435968.5998602,-0.526,0.674,0.527,2.17,18.48,-10.36
1743435968.6198602,-0.533,0.675,0.532,2.1,16.52,-9.45
1743435968.6398602,-0.54,0.674,0.542,1.96,13.79,-7.07
1743435968.65986,-0.546,0.675,0.552,2.38,8.4,-4.48
1743435968.67986,-0.547,0.676,0.555,2.66,4.48,-0.28
1743435968.69986,-0.543,0.684,0.557,3.5,-3.99,3.64
1743435968.71986,-0.534,0.683,0.544,3.43,-6.79,6.23
1743435968.73986,-0.531,0.684,0.535,3.22,-7.77,6.72
1743435968.75986,-0.53,0.685,0.525,2.87,-8.05,7.56
1743435968.77986,-0.522,0.686,0.511,3.22,-7.56,7.77
1743435968.79986,-0.52,0.686,0.5,3.57,-7.14,7.63
1743435968.81986,-0.516,0.685,0.49,3.43,-7.21,6.86
1743435968.83986,-0.515,0.684,0.485,4.06,-7.84,5.95
1743435968.85986,-0.518,0.688,0.483,4.9,-9.45,5.39
1743435968.87986,-0.524,0.702,0.49,6.16,-10.43,4.83
1743435968.89986,-0.526,0.706,0.501,5.74,-10.15,4.27
1743435968.91986,-0.521,0.713,0.51,5.11,-9.45,2.8
1743435968.93986,-0.517,0.712,0.52,4.13,-8.61,1.68
1743435968.9598598,-0.51,0.702,0.532,3.5,-7.91,-0.07
1743435968.9798598,-0.505,0.696,0.534,3.85,-6.09,-1.54
1743435968.9998598,-0.503,0.699,0.533,3.64,-4.27,-2.94
1743435969.0198598,-0.502,0.702,0.533,3.29,0.77,-3.57
1743435969.0398598,-0.508,0.711,0.531,0.98,4.62,-3.85
1743435969.0598598,-0.517,0.709,0.533,0.14,7.0,-3.57
1743435969.0798595,-0.523,0.713,0.534,-1.19,8.89,-3.22
1743435969.0998597,-0.529,0.712,0.532,-2.66,8.47,-2.94
1743435969.1198597,-0.532,0.701,0.523,-2.24,7.14,-3.15
1743435969.1398597,-0.532,0.7,0.515,-1.61,6.09,-3.36
1743435969.1598597,-0.529,0.7,0.511,-1.4,6.16,-3.78
1743435969.1798596,-0.527,0.704,0.508,-1.82,7.49,-3.64
1743435969.1998596,-0.53,0.703,0.506,-2.52,10.15,-3.64
1743435969.2198596,-0.535,0.7,0.506,-2.59,11.34,-3.36
1743435969.2398596,-0.541,0.702,0.506,-2.1,11.2,-2.52
1743435969.2598596,-0.544,0.698,0.508,-1.68,8.19,-1.89
1743435969.2798595,-0.543,0.691,0.508,-1.26,2.52,-1.4
1743435969.2998595,-0.54,0.689,0.505,0.14,-1.82,-1.19
1743435969.3198595,-0.536,0.683,0.491,1.96,-7.07,-1.12
1743435969.3398595,-0.531,0.675,0.487,3.15,-9.94,-1.4
1743435969.3598597,-0.517,0.672,0.48,4.06,-11.48,-2.1
1743435969.3798594,-0.501,0.667,0.482,3.57,-10.29,-2.87
1743435969.3998594,-0.495,0.669,0.485,2.94,-9.17,-3.36
1743435969.4198594,-0.624,0.672,0.495,0.77,-5.6,-3.36
1743435969.4398594,-0.512,0.678,0.507,-0.63,-2.87,-3.08
1743435969.4598594,-0.526,0.69,0.518,-1.26,-1.68,-1.47
1743435969.4798594,-0.534,0.704,0.529,-1.96,-2.94,0.14
1743435969.499859,-0.543,0.709,0.537,-2.24,-5.74,0.84
1743435969.5198593,-0.549,0.707,0.534,-2.17,-8.68,0.42
1743435969.5398593,-0.549,0.706,0.535,-1.47,-10.08,0.14
1743435969.5598593,-0.542,0.704,0.528,0.21,-12.46,-0.35
1743435969.5798593,-0.537,0.705,0.526,1.4,-13.16,-0.98
1743435969.5998592,-0.527,0.696,0.521,1.54,-11.97,-1.33
1743435969.6198592,-0.522,0.694,0.522,0.91,-8.89,-1.61
1743435969.6398592,-0.517,0.694,0.519,0.28,-4.83,-0.56
1743435969.6598592,-0.52,0.689,0.522,-0.7,-1.75,0.56
1743435969.6798592,-0.518,0.686,0.524,-1.4,0.98,1.61
1743435969.6998591,-0.521,0.689,0.522,-2.1,2.03,1.61
1743435969.7198591,-0.522,0.689,0.521,-2.45,2.24,0.63
1743435969.739859,-0.526,0.688,0.518,-2.03,1.61,-0.21
1743435969.759859,-0.529,0.693,0.51,-1.26,1.33,-1.12
1743435969.779859,-0.531,0.693,0.508,-0.7,0.77,-1.89
1743435969.799859,-0.536,0.695,0.509,-0.56,0.49,-2.52
1743435969.819859,-0.534,0.693,0.509,-0.63,0.35,-2.59
1743435969.839859,-0.534,0.692,0.516,-0.35,-0.35,-2.24
1743435969.859859,-0.529,0.682,0.52,0.35,-2.66,-1.12
1743435969.879859,-0.532,0.674,0.52,2.38,-4.55,-0.42
1743435969.899859,-0.527,0.687,0.522,3.57,-5.53,0.56
1743435969.919859,-0.524,0.696,0.521,3.43,-3.29,0.63
1743435969.939859,-0.522,0.697,0.519,2.8,-2.17,0.63
1743435969.959859,-0.522,0.7,0.521,1.05,0.42,-0.56
1743435969.9798589,-0.524,0.697,0.522,-0.63,1.89,-1.05
1743435969.9998589,-0.528,0.687,0.522,-0.63,-1.26,-1.47
1743435970.0198588,-0.53,0.682,0.521,0.49,-4.69,-1.05
1743435970.0398588,-0.528,0.67,0.513,2.17,-12.53,0.14
1743435970.0598588,-0.529,0.668,0.504,5.32,-17.29,2.38
1743435970.0798588,-0.516,0.655,0.486,7.14,-23.45,4.06
1743435970.0998588,-0.511,0.661,0.485,4.2,-29.82,6.72
1743435970.1198587,-0.511,0.66,0.482,6.51,-32.69,8.4
1743435970.1398587,-0.501,0.662,0.482,6.72,-33.67,9.1
1743435970.1598587,-0.503,0.674,0.488,5.95,-31.36,10.43
1743435970.1798587,-0.501,0.69,0.511,4.97,-26.18,10.29
1743435970.199859,-0.503,0.698,0.519,3.08,-21.21,9.66
1743435970.2198586,-0.505,0.712,0.542,2.17,-16.17,9.03
1743435970.2398586,-0.511,0.736,0.569,-0.35,-8.82,8.05
1743435970.2598586,-0.516,0.748,0.577,-0.56,-5.6,6.86
1743435970.2798586,-0.526,0.762,0.592,-1.47,-2.8,3.71
1743435970.2998586,-0.533,0.76,0.591,-1.26,-0.91,1.68
1743435970.3198586,-0.533,0.746,0.564,-1.19,1.19,-1.54
1743435970.3398583,-0.511,0.693,0.525,3.08,0.14,-5.6
1743435970.3598585,-0.494,0.699,0.51,3.29,4.83,-7.28
1743435970.3798585,-0.486,0.695,0.503,1.75,12.67,-8.96
1743435970.3998585,-0.489,0.703,0.505,-1.19,21.7,-9.1
1743435970.4198585,-0.622,0.712,0.516,-5.04,30.94,-8.47
1743435970.4398584,-0.508,0.708,0.523,-9.73,31.64,-7.28
1743435970.4598584,-0.529,0.698,0.533,-8.19,28.0,-7.14
1743435970.4798584,-0.538,0.698,0.529,-6.51,21.0,-7.14
1743435970.4998584,-0.54,0.699,0.531,-4.2,15.47,-7.56
1743435970.5198584,-0.541,0.7,0.521,-4.41,8.19,-7.0
1743435970.5398583,-0.538,0.688,0.506,-1.47,-1.05,-7.28
1743435970.5598583,-0.536,0.688,0.489,-3.01,-4.41,-5.88
1743435970.5798583,-0.53,0.679,0.482,-3.57,-8.4,-0.91
1743435970.5998583,-0.527,0.657,0.468,2.94,-12.46,0.98
1743435970.6198585,-0.522,0.651,0.471,2.38,-14.91,2.94
1743435970.6398582,-0.507,0.655,0.485,5.6,-16.24,4.27
1743435970.6598582,-0.502,0.67,0.5,5.6,-15.82,5.32
1743435970.6798582,-0.508,0.69,0.53,4.76,-14.14,5.25
1743435970.6998582,-0.509,0.7,0.541,3.57,-12.53,5.18
1743435970.7198582,-0.516,0.706,0.564,2.59,-12.04,4.69
1743435970.7398582,-0.52,0.708,0.579,1.75,-14.56,4.13
1743435970.759858,-0.526,0.708,0.585,2.03,-19.18,3.99
1743435970.779858,-0.526,0.707,0.572,3.71,-21.42,3.5
1743435970.799858,-0.523,0.714,0.55,4.97,-20.79,3.01
1743435970.819858,-0.513,0.725,0.526,4.27,-13.51,2.24
1743435970.839858,-0.503,0.726,0.5,1.26,-3.36,1.19
1743435970.859858,-0.5,0.725,0.499,-1.89,5.25,-0.7
1743435970.879858,-0.495,0.722,0.503,-5.95,13.86,-1.75
1743435970.899858,-0.508,0.698,0.51,-7.28,21.21,-4.97
1743435970.919858,-0.513,0.699,0.521,-7.77,22.61,-5.95
1743435970.939858,-0.52,0.699,0.528,-5.81,22.96,-7.14
1743435970.959858,-0.532,0.707,0.539,-4.83,19.18,-6.86
1743435970.979858,-0.537,0.7,0.535,-2.24,15.47,-6.86
1743435970.999858,-0.537,0.7,0.527,-3.57,14.49,-6.51
1743435971.019858,-0.539,0.699,0.515,-3.01,13.93,-6.44
1743435971.039858,-0.545,0.699,0.504,-2.17,14.63,-6.79
1743435971.0598578,-0.543,0.696,0.504,-1.61,13.58,-7.77
1743435971.0798578,-0.539,0.689,0.506,-1.19,11.69,-8.82
1743435971.0998578,-0.538,0.683,0.508,0.0,6.23,-8.89
1743435971.1198578,-0.534,0.676,0.51,3.08,-0.28,-8.26
1743435971.1398578,-0.529,0.671,0.508,4.97,-4.27,-6.79
1743435971.1598575,-0.528,0.669,0.51,6.09,-5.25,-5.53
1743435971.1798575,-0.518,0.675,0.523,0.7,-7.56,-1.26
1743435971.1998577,-0.515,0.637,0.511,2.38,-18.97,0.35
1743435971.2198577,-0.512,0.64,0.49,4.55,-20.23,4.55
1743435971.2398577,-0.516,0.647,0.486,5.74,-20.37,6.51
1743435971.2598577,-0.522,0.673,0.476,5.74,-15.68,8.68
1743435971.2798576,-0.523,0.701,0.491,5.04,-3.64,7.77
1743435971.2998576,-0.524,0.713,0.504,1.82,1.82,6.23
1743435971.3198576,-0.528,0.719,0.535,-0.35,5.53,2.8
1743435971.3398576,-0.537,0.713,0.554,-0.56,5.25,0.42
1743435971.3598576,-0.54,0.711,0.566,-1.82,-1.82,-0.77
1743435971.3798575,-0.554,0.696,0.569,4.62,-12.46,-2.24
1743435971.3998575,-0.552,0.702,0.556,4.83,-15.4,-2.24
1743435971.4198575,-0.546,0.703,0.535,7.14,-18.2,-1.33
1743435971.4398575,-0.527,0.706,0.497,2.66,-12.32,0.28
1743435971.4598577,-0.519,0.705,0.492,1.05,-6.44,0.49
1743435971.4798574,-0.516,0.698,0.486,-3.29,0.07,0.42
1743435971.4998574,-0.513,0.694,0.488,-4.48,5.88,-0.07
1743435971.5198574,-0.519,0.697,0.498,-5.74,11.97,-1.19
1743435971.5398574,-0.531,0.7,0.515,-5.74,15.89,-2.59
1743435971.5598574,-0.541,0.707,0.528,-4.9,16.24,-3.15
1743435971.579857,-0.54,0.711,0.54,-5.11,12.67,-2.38
1743435971.599857,-0.544,0.672,0.527,-0.21,3.29,-2.38
1743435971.6198573,-0.542,0.658,0.51,0.56,-7.28,-0.91
1743435971.6398573,-0.532,0.652,0.497,5.32,-11.27,-0.77
1743435971.6598573,-0.526,0.65,0.483,6.65,-15.75,-0.21
1743435971.6798573,-0.517,0.663,0.473,8.05,-15.96,0.7
1743435971.6998572,-0.513,0.672,0.471,7.49,-13.37,0.98
1743435971.7198572,-0.51,0.681,0.476,4.76,-8.89,1.4
1743435971.7398572,-0.519,0.699,0.484,1.68,-1.75,1.75
1743435971.7598572,-0.531,0.72,0.526,-3.36,5.25,1.47
1743435971.7798572,-0.537,0.72,0.541,-4.2,6.86,0.7
1743435971.7998571,-0.543,0.722,0.56,-4.62,6.79,-0.91
1743435971.8198571,-0.548,0.709,0.56,-2.73,2.87,-2.94
1743435971.839857,-0.545,0.695,0.533,1.82,-2.94,-5.11
1743435971.859857,-0.529,0.692,0.508,2.45,-0.84,-4.9
1743435971.879857,-0.526,0.689,0.495,0.49,2.1,-5.04
1743435971.899857,-0.522,0.685,0.486,-2.1,6.93,-4.06
1743435971.919857,-0.529,0.675,0.484,-4.06,8.33,-2.94
1743435971.939857,-0.529,0.674,0.499,-7.07,4.62,-0.07
1743435971.959857,-0.538,0.641,0.487,-1.61,-3.01,-0.63
1743435971.979857,-0.551,0.667,0.501,0.42,-7.56,1.12
1743435971.999857,-0.551,0.682,0.501,4.27,-10.22,2.73
1743435972.019857,-0.546,0.706,0.505,3.99,-7.98,3.43
1743435972.039857,-0.54,0.71,0.51,3.85,-4.13,3.15
1743435972.059857,-0.535,0.708,0.522,0.42,1.4,1.12
1743435972.0798569,-0.523,0.699,0.537,-1.26,4.83,-2.17
1743435972.0998569,-0.522,0.692,0.541,-2.24,5.39,-3.15
1743435972.1198568,-0.533,0.68,0.539,-2.24,3.22,-4.55
1743435972.1398568,-0.54,0.676,0.527,0.0,-1.05,-4.55
1743435972.1598568,-0.548,0.687,0.515,0.84,-4.55,-3.08
1743435972.1798568,-0.545,0.694,0.491,0.91,-5.6,-0.98
1743435972.1998568,-0.542,0.693,0.479,-0.35,-4.27,1.12
1743435972.2198567,-0.539,0.692,0.473,-1.05,-1.89,1.82
1743435972.2398567,-0.535,0.684,0.48,-1.54,0.07,1.82
1743435972.2598567,-0.533,0.672,0.492,0.35,-1.82,1.26
1743435972.2798567,-0.536,0.662,0.508,2.59,-5.39,0.0
1743435972.299857,-0.529,0.684,0.532,1.61,-8.89,1.82
1743435972.3198566,-0.539,0.671,0.537,6.72,-16.17,1.26
1743435972.3398566,-0.535,0.683,0.529,6.79,-18.06,3.57
1743435972.3598566,-0.535,0.693,0.522,6.51,-17.5,4.76
1743435972.3798566,-0.529,0.703,0.516,4.62,-11.9,5.67
1743435972.3998566,-0.523,0.706,0.51,1.61,-5.25,4.76
1743435972.4198563,-0.518,0.705,0.512,-1.61,0.28,1.82
1743435972.4398563,-0.525,0.705,0.514,-2.73,3.29,-0.35
1743435972.4598565,-0.531,0.705,0.519,-2.31,5.04,-2.87
1743435972.4798565,-0.539,0.704,0.524,-2.24,2.03,-3.29
1743435972.4998565,-0.548,0.693,0.521,1.05,0.42,-4.62
1743435972.5198565,-0.554,0.706,0.52,0.77,-0.28,-3.29
1743435972.5398564,-0.545,0.707,0.511,1.82,1.47,-3.08
1743435972.5598564,-0.533,0.697,0.502,-0.98,4.69,-2.8
1743435972.5798564,-0.522,0.686,0.503,-2.52,8.33,-3.36
1743435972.5998564,-0.521,0.679,0.505,-3.57,9.24,-3.85
1743435972.6198564,-0.526,0.674,0.509,-2.94,7.98,-3.85
1743435972.6398563,-0.538,0.677,0.511,0.49,7.7,-4.06
1743435972.6598563,-0.542,0.691,0.52,0.35,7.98,-3.64
1743435972.6798563,-0.542,0.701,0.522,0.98,9.17,-3.64
1743435972.6998563,-0.544,0.707,0.52,-0.35,10.92,-3.99
1743435972.7198565,-0.548,0.703,0.523,-3.85,11.9,-4.83
1743435972.7398562,-0.549,0.691,0.52,-4.48,9.8,-6.16
1743435972.7598562,-0.551,0.683,0.516,-4.13,5.32,-7.21
1743435972.7798562,-0.553,0.672,0.505,-1.26,1.75,-6.86
1743435972.7998562,-0.545,0.663,0.5,-0.28,-7.21,-4.2
1743435972.8198562,-0.544,0.639,0.486,3.01,-19.81,0.07
1743435972.839856,-0.543,0.626,0.461,6.51,-36.75,6.44
1743435972.859856,-0.536,0.633,0.452,10.92,-41.65,8.89
1743435972.879856,-0.535,0.661,0.44,14.14,-39.62,15.05
1743435972.899856,-0.528,0.677,0.45,13.44,-32.83,17.01
1743435972.919856,-0.52,0.699,0.469,9.87,-20.37,17.43
1743435972.939856,-0.515,0.726,0.502,2.17,-11.34,16.52
1743435972.959856,-0.517,0.733,0.553,-2.17,-1.54,12.6
1743435972.979856,-0.524,0.735,0.58,-3.36,-0.14,9.59
1743435972.999856,-0.533,0.73,0.601,-2.52,-0.91,5.11
1743435973.019856,-0.538,0.728,0.609,-1.68,-5.39,1.82
1743435973.039856,-0.537,0.728,0.597,2.66,-10.64,-3.01
1743435973.059856,-0.533,0.715,0.562,3.78,-14.28,-4.76
1743435973.079856,-0.528,0.714,0.533,4.06,-12.88,-5.04
1743435973.099856,-0.514,0.71,0.516,3.64,-10.15,-5.25
1743435973.119856,-0.502,0.7,0.486,1.82,1.96,-5.53
1743435973.139856,-0.498,0.701,0.476,-1.26,7.98,-5.74
1743435973.1598558,-0.495,0.698,0.473,-3.99,19.6,-5.95
1743435973.1798558,-0.501,0.695,0.483,-6.72,24.5,-7.07
1743435973.1998558,-0.52,0.696,0.507,-9.17,30.94,-7.84
1743435973.2198558,-0.534,0.698,0.526,-9.38,29.89,-7.77
1743435973.2398558,-0.547,0.681,0.532,-7.49,19.88,-7.0
1743435973.2598555,-0.559,0.667,0.534,-1.89,4.97,-4.34
1743435973.2798555,-0.555,0.657,0.514,4.83,-14.21,-2.73
1743435973.2998557,-0.548,0.661,0.489,8.26,-23.87,1.75
1743435973.3198557,-0.529,0.668,0.467,9.1,-26.18,5.18
1743435973.3398557,-0.522,0.675,0.456,7.84,-24.22,6.93
1743435973.3598557,-0.511,0.691,0.456,3.36,-14.49,7.91
1743435973.3798556,-0.513,0.698,0.466,1.26,-9.94,7.63
1743435973.3998556,-0.519,0.706,0.484,-1.61,-1.96,6.16
1743435973.4198556,-0.525,0.712,0.51,-2.52,2.38,4.2
1743435973.4398556,-0.538,0.711,0.55,-1.82,0.21,0.84
1743435973.4598556,-0.549,0.723,0.569,-0.07,-4.2,0.14
1743435973.4798555,-0.549,0.719,0.573,4.13,-5.6,-1.26
1743435973.4998555,-0.538,0.723,0.564,4.9,-5.25,-2.1
1743435973.5198555,-0.515,0.703,0.544,3.64,-3.29,-4.13
1743435973.5398557,-0.501,0.696,0.529,0.91,-0.49,-5.95
1743435973.5598557,-0.499,0.683,0.52,-1.47,2.31,-7.21
1743435973.5798554,-0.506,0.677,0.504,-2.66,5.11,-7.14
1743435973.5998554,-0.524,0.684,0.494,-2.1,7.28,-5.74
1743435973.6198554,-0.532,0.696,0.494,-1.75,8.68,-3.71
1743435973.6398554,-0.537,0.703,0.494,-2.03,9.45,-1.89
1743435973.6598554,-0.539,0.711,0.501,-3.5,11.41,-0.35
1743435973.679855,-0.542,0.707,0.5,-6.23,11.62,-0.07
1743435973.699855,-0.542,0.699,0.502,-6.65,10.92,-0.56
1743435973.7198553,-0.54,0.689,0.503,-6.02,8.47,-2.52
1743435973.7398553,-0.537,0.664,0.496,-2.45,3.5,-4.2
1743435973.7598553,-0.524,0.593,0.48,3.5,-14.42,-3.71
1743435973.7798553,-0.537,0.63,0.517,4.69,-19.67,-4.62
1743435973.7998552,-0.538,0.646,0.478,12.6,-29.4,2.17
1743435973.8198552,-0.54,0.668,0.482,11.62,-29.61,3.85
1743435973.8398552,-0.538,0.695,0.474,10.64,-25.41,7.84
1743435973.8598552,-0.531,0.719,0.485,9.66,-15.82,11.06
1743435973.8798552,-0.521,0.732,0.505,3.15,-10.85,11.2
1743435973.8998551,-0.52,0.731,0.521,-0.56,-2.03,10.43
1743435973.919855,-0.524,0.718,0.56,-4.34,2.87,6.16
1743435973.939855,-0.53,0.713,0.58,-3.15,1.4,1.75
1743435973.959855,-0.535,0.711,0.584,-0.49,-1.12,-1.12
1743435973.979855,-0.533,0.711,0.583,-0.28,-6.44,-2.87
1743435973.999855,-0.541,0.711,0.558,4.41,-9.87,-5.74
1743435974.019855,-0.53,0.714,0.533,4.34,-9.52,-5.25
1743435974.039855,-0.525,0.702,0.513,3.15,-9.73,-4.76
1743435974.059855,-0.52,0.693,0.494,4.41,-1.68,-4.9
1743435974.079855,-0.505,0.698,0.472,-1.12,4.97,-4.06
1743435974.099855,-0.503,0.695,0.474,-4.27,11.48,-4.55
1743435974.119855,-0.511,0.69,0.481,-6.79,21.42,-4.69
1743435974.139855,-0.519,0.691,0.493,-7.42,24.71,-5.67
1743435974.159855,-0.538,0.696,0.52,-7.14,24.43,-6.51
1743435974.1798549,-0.543,0.697,0.529,-6.3,22.96,-7.0
1743435974.1998549,-0.547,0.703,0.539,-5.67,20.72,-7.49
1743435974.2198548,-0.554,0.701,0.543,-4.9,16.59,-7.63
1743435974.2398548,-0.559,0.695,0.54,-3.29,8.61,-7.35
1743435974.2598548,-0.554,0.687,0.537,-2.94,4.13,-3.15
1743435974.2798548,-0.537,0.629,0.494,5.6,-11.69,-4.13
1743435974.2998548,-0.538,0.657,0.509,0.49,-18.27,-0.77
1743435974.3198547,-0.534,0.631,0.461,8.26,-24.78,3.92
1743435974.3398547,-0.527,0.652,0.448,8.68,-23.03,5.46
1743435974.3598547,-0.523,0.671,0.445,8.75,-18.9,8.4
1743435974.379855,-0.518,0.676,0.458,5.67,-11.55,9.03
1743435974.399855,-0.522,0.705,0.505,1.96,-4.13,8.61
1743435974.4198546,-0.528,0.709,0.524,0.91,-2.45,7.56
1743435974.4398546,-0.535,0.712,0.542,-0.91,-3.15,5.6
1743435974.4598546,-0.544,0.708,0.557,2.17,-5.39,3.15
1743435974.4798546,-0.545,0.719,0.577,3.64,-11.97,1.26
1743435974.4998546,-0.542,0.716,0.578,4.48,-14.42,0.42
1743435974.5198543,-0.539,0.713,0.564,4.62,-16.66,-0.63
1743435974.5398543,-0.531,0.706,0.545,3.5,-20.65,-1.05
1743435974.5598545,-0.519,0.699,0.526,3.22,-20.02,-0.84
1743435974.5798545,-0.509,0.676,0.488,2.8,-22.05,-0.28
1743435974.5998545,-0.511,0.676,0.482,1.82,-19.53,0.77
1743435974.6198545,-0.509,0.674,0.469,3.22,-14.14,2.45
1743435974.6398544,-0.514,0.695,0.472,1.75,-7.28,3.15
1743435974.6598544,-0.52,0.713,0.479,0.63,-1.89,4.41
1743435974.6798544,-0.526,0.732,0.505,-2.38,12.04,3.85
1743435974.6998544,-0.529,0.737,0.537,-5.25,20.3,2.45
1743435974.7198544,-0.526,0.728,0.558,-6.02,23.03,-0.14
1743435974.7398543,-0.522,0.718,0.579,-7.91,20.58,-4.83
1743435974.7598543,-0.534,0.692,0.577,-3.92,13.79,-7.98
1743435974.7798543,-0.534,0.687,0.558,-1.82,5.81,-9.52
1743435974.7998545,-0.536,0.685,0.542,1.4,0.91,-10.15
1743435974.8198545,-0.535,0.686,0.519,2.45,-1.82,-9.17
1743435974.8398542,-0.532,0.686,0.497,2.24,-1.26,-7.21
1743435974.8598542,-0.528,0.688,0.474,-0.28,0.14,-6.02
1743435974.8798542,-0.528,0.684,0.465,-2.45,3.85,-2.66
1743435974.8998542,-0.528,0.681,0.462,-3.08,6.23,-0.7
1743435974.9198542,-0.528,0.676,0.47,-3.15,7.42,0.0
1743435974.939854,-0.53,0.675,0.492,-2.66,5.11,1.12
1743435974.959854,-0.534,0.669,0.511,-1.54,-1.75,2.38
1743435974.979854,-0.549,0.66,0.528,4.83,-12.39,2.66
1743435974.999854,-0.55,0.678,0.524,8.68,-24.57,5.18
1743435975.019854,-0.55,0.688,0.524,9.03,-26.95,6.23
1743435975.039854,-0.539,0.701,0.513,8.54,-27.58,7.35
1743435975.059854,-0.526,0.712,0.512,5.53,-23.24,7.49
1743435975.079854,-0.513,0.715,0.513,1.12,-14.35,6.51
1743435975.099854,-0.511,0.716,0.516,-0.49,-8.61,4.9
1743435975.119854,-0.511,0.71,0.523,-1.96,-2.31,2.31
1743435975.139854,-0.51,0.71,0.534,-2.73,-0.21,1.47
1743435975.159854,-0.516,0.7,0.535,-0.56,0.14,-2.38
1743435975.179854,-0.523,0.712,0.541,0.7,1.47,-3.22
1743435975.199854,-0.525,0.712,0.534,1.54,2.73,-4.06
1743435975.219854,-0.521,0.709,0.532,1.19,3.85,-4.2
1743435975.239854,-0.519,0.705,0.527,-0.07,4.9,-3.78
1743435975.2598538,-0.513,0.692,0.526,-2.45,5.18,-3.57
1743435975.2798538,-0.516,0.666,0.502,-2.66,0.07,-3.99
1743435975.2998538,-0.521,0.674,0.497,-2.24,-0.07,-2.66
1743435975.3198538,-0.521,0.679,0.486,-2.45,-2.66,-0.77
1743435975.3398538,-0.531,0.668,0.481,2.52,-3.92,-0.56
1743435975.3598535,-0.532,0.712,0.488,2.38,-0.14,1.26
1743435975.3798535,-0.53,0.719,0.501,0.63,2.1,0.63
1743435975.3998537,-0.528,0.721,0.519,-2.45,7.84,-0.28
1743435975.4198537,-0.527,0.717,0.53,-3.36,9.31,-0.98
1743435975.4398537,-0.528,0.691,0.55,-3.78,8.4,-4.13
1743435975.4598536,-0.526,0.688,0.556,-3.29,5.25,-4.2
1743435975.4798536,-0.533,0.67,0.545,1.19,0.98,-4.97
1743435975.4998536,-0.529,0.684,0.527,1.61,-3.71,-4.27
1743435975.5198536,-0.535,0.689,0.509,1.82,-6.09,-2.94
1743435975.5398536,-0.535,0.688,0.49,1.12,-6.44,-1.4
1743435975.5598536,-0.536,0.689,0.483,0.42,-5.46,1.54
1743435975.5798535,-0.535,0.691,0.473,-0.07,-4.41,2.24
1743435975.5998535,-0.533,0.69,0.481,0.56,-2.59,3.29
1743435975.6198535,-0.533,0.693,0.497,0.28,-2.1,3.57
1743435975.6398537,-0.524,0.685,0.51,0.14,-4.48,3.78
1743435975.6598537,-0.529,0.67,0.52,3.71,-8.33,2.87
1743435975.6798534,-0.526,0.689,0.551,4.9,-13.65,3.64
1743435975.6998534,-0.522,0.675,0.542,5.95,-18.41,3.5
1743435975.7198534,-0.525,0.689,0.549,7.28,-20.51,3.78
1743435975.7398534,-0.518,0.696,0.537,7.77,-20.93,5.46
1743435975.7598534,-0.513,0.701,0.529,6.02,-18.9,5.53
1743435975.779853,-0.508,0.703,0.521,3.71,-16.38,5.88
1743435975.799853,-0.506,0.701,0.518,2.59,-12.95,5.81
1743435975.8198533,-0.507,0.705,0.516,0.28,-9.24,5.46
1743435975.8398533,-0.499,0.702,0.514,-3.01,-6.65,4.55
1743435975.8598533,-0.503,0.698,0.508,-2.87,-5.53,2.73
1743435975.8798532,-0.508,0.7,0.509,-3.01,-3.22,1.4
1743435975.8998532,-0.514,0.707,0.505,-2.87,0.0,0.7
1743435975.9198532,-0.527,0.72,0.505,-0.77,3.78,-0.49
1743435975.9398532,-0.528,0.734,0.511,-1.12,8.05,-0.98
1743435975.9598532,-0.533,0.733,0.509,-0.63,12.11,-2.87
1743435975.9798532,-0.535,0.739,0.517,-3.08,15.96,-4.48
1743435975.9998531,-0.529,0.732,0.521,-4.83,18.2,-7.07
1743435976.019853,-0.526,0.709,0.529,-5.39,18.34,-8.47
1743435976.039853,-0.528,0.696,0.533,-5.11,16.66,-9.03
1743435976.059853,-0.527,0.687,0.531,-3.08,14.28,-9.52
1743435976.079853,-0.529,0.682,0.526,-2.38,10.85,-9.31
1743435976.099853,-0.529,0.688,0.52,-1.47,7.7,-7.7
1743435976.119853,-0.53,0.686,0.513,-1.89,5.95,-6.44
1743435976.139853,-0.529,0.689,0.507,-2.94,3.57,-4.55
1743435976.159853,-0.536,0.678,0.489,-2.17,2.38,-3.01
1743435976.179853,-0.523,0.68,0.507,-9.45,-3.99,1.61
1743435976.199853,-0.539,0.642,0.497,0.84,-11.9,0.63
1743435976.219853,-0.541,0.663,0.481,-1.89,-14.77,3.22
1743435976.239853,-0.537,0.667,0.479,5.74,-17.08,4.76
1743435976.259853,-0.533,0.677,0.482,6.58,-15.68,4.2
1743435976.2798529,-0.529,0.697,0.489,7.35,-10.85,5.11
1743435976.2998528,-0.521,0.705,0.508,6.58,-5.81,4.13
1743435976.3198528,-0.512,0.707,0.539,1.82,-1.4,0.63
1743435976.3398528,-0.518,0.708,0.549,0.42,-0.42,-0.35
1743435976.3598528,-0.519,0.706,0.565,-2.03,-3.78,-1.75
1743435976.3798528,-0.536,0.699,0.566,2.73,-8.89,-2.1
1743435976.3998528,-0.54,0.707,0.549,4.13,-12.39,-1.4
1743435976.4198527,-0.538,0.711,0.541,4.34,-13.72,-0.49
1743435976.4398527,-0.532,0.714,0.51,2.87,-12.25,0.35
1743435976.4598527,-0.523,0.71,0.498,1.26,-5.74,0.56
1743435976.479853,-0.519,0.697,0.49,-1.82,-1.61,0.35
1743435976.499853,-0.517,0.693,0.494,-2.17,2.03,0.0
1743435976.5198526,-0.514,0.693,0.502,-2.59,5.32,-0.49
1743435976.5398526,-0.515,0.695,0.514,-2.73,7.63,-0.84
1743435976.5598526,-0.516,0.696,0.526,-3.29,9.38,-1.19
1743435976.5798526,-0.521,0.705,0.535,-3.71,10.15,-1.75
1743435976.5998526,-0.525,0.703,0.537,-4.55,9.73,-2.03
1743435976.6198523,-0.528,0.701,0.534,-4.83,8.82,-2.52
1743435976.6398523,-0.531,0.693,0.525,-4.97,6.86,-3.08
1743435976.6598525,-0.535,0.684,0.512,-4.62,4.41,-3.85
1743435976.6798525,-0.522,0.687,0.532,-10.15,1.96,-1.54
1743435976.6998525,-0.511,0.604,0.479,-5.46,-11.41,-3.57
1743435976.7198524,-0.529,0.631,0.465,7.98,-27.37,2.52
1743435976.7398524,-0.538,0.632,0.479,13.02,-31.08,4.06
1743435976.7598524,-0.535,0.657,0.469,11.27,-31.15,5.67
1743435976.7798524,-0.528,0.691,0.469,11.83,-26.46,9.59
1743435976.7998524,-0.508,0.727,0.494,9.24,-10.92,9.24
1743435976.8198524,-0.505,0.735,0.528,-0.21,2.8,8.26
1743435976.8398523,-0.504,0.737,0.551,-3.5,13.37,3.29
1743435976.8598523,-0.506,0.726,0.58,-7.84,12.18,1.05
1743435976.8798523,-0.529,0.71,0.598,-4.41,7.42,-4.27
1743435976.8998525,-0.533,0.707,0.592,-1.82,0.91,-6.51
1743435976.9198525,-0.54,0.704,0.579,2.17,-5.74,-8.26
1743435976.9398522,-0.54,0.703,0.553,4.69,-9.52,-8.89
1743435976.9598522,-0.532,0.702,0.526,5.25,-13.37,-8.4
1743435976.9798522,-0.527,0.701,0.5,4.48,-13.23,-7.21
1743435976.9998522,-0.517,0.695,0.471,1.26,-8.12,-3.85
1743435977.0198522,-0.515,0.695,0.461,0.28,-2.31,-2.24
1743435977.039852,-0.509,0.69,0.458,-2.45,4.41,0.28
1743435977.059852,-0.512,0.691,0.477,-4.41,14.14,1.47
1743435977.079852,-0.511,0.692,0.5,-5.46,17.15,2.1
1743435977.099852,-0.507,0.695,0.523,-8.54,15.96,2.38
1743435977.119852,-0.521,0.674,0.56,-7.42,10.08,1.96
1743435977.139852,-0.532,0.652,0.56,-2.24,-0.77,1.89
1743435977.159852,-0.544,0.648,0.565,2.03,-14.14,2.59
1743435977.179852,-0.546,0.65,0.555,9.03,-27.23,3.85
1743435977.199852,-0.539,0.675,0.524,14.63,-39.34,6.51
1743435977.219852,-0.532,0.692,0.506,15.12,-39.9,8.19
1743435977.239852,-0.516,0.701,0.492,13.23,-33.95,9.31
1743435977.259852,-0.5,0.711,0.491,8.4,-29.12,9.59
1743435977.279852,-0.488,0.707,0.495,0.77,-14.77,8.68
1743435977.299852,-0.485,0.712,0.508,-1.19,-7.21,7.91
1743435977.319852,-0.485,0.71,0.52,-5.46,-4.48,7.07
1743435977.339852,-0.493,0.695,0.529,-3.5,-2.45,5.46
1743435977.3598518,-0.504,0.702,0.549,-2.45,-1.33,3.85
1743435977.3798518,-0.505,0.704,0.556,-1.47,-1.19,1.61
1743435977.3998518,-0.507,0.714,0.561,-0.91,-0.77,-0.21
1743435977.4198518,-0.512,0.725,0.551,0.21,0.14,-1.61
1743435977.4398518,-0.516,0.737,0.554,-2.31,1.26,-2.31
1743435977.4598515,-0.518,0.734,0.536,-0.56,1.54,-3.78
1743435977.4798515,-0.528,0.746,0.529,-0.7,4.55,-4.2
1743435977.4998517,-0.539,0.754,0.517,-0.21,9.52,-3.22
1743435977.5198517,-0.529,0.744,0.512,-3.5,16.38,-4.69
1743435977.5398517,-0.52,0.734,0.518,-5.46,20.3,-5.81
1743435977.5598516,-0.514,0.721,0.517,-6.58,23.66,-6.51
1743435977.5798516,-0.51,0.705,0.52,-7.7,25.13,-8.12
1743435977.5998516,-0.515,0.692,0.518,-6.93,25.76,-9.66
1743435977.6198516,-0.522,0.688,0.518,-5.32,26.04,-10.15
1743435977.6398516,-0.527,0.687,0.521,-3.92,25.83,-10.36
1743435977.6598516,-0.527,0.692,0.526,-4.27,24.85,-10.64
1743435977.6798515,-0.529,0.697,0.528,-4.55,22.75,-10.99
1743435977.6998515,-0.537,0.7,0.523,-6.3,20.72,-10.64
1743435977.7198515,-0.542,0.696,0.519,-5.95,14.56,-9.45
1743435977.7398517,-0.548,0.694,0.514,-4.55,10.92,-7.98
1743435977.7598517,-0.554,0.685,0.497,-1.68,3.22,-6.16
1743435977.7798514,-0.553,0.682,0.489,0.63,-1.54,-4.55
1743435977.7998514,-0.552,0.673,0.478,2.94,-5.04,-2.59
1743435977.8198514,-0.547,0.669,0.475,4.62,-6.65,-1.89
1743435977.8398514,-0.52,0.63,0.465,7.56,-15.61,0.77
1743435977.8598514,-0.517,0.637,0.482,8.4,-19.39,1.12
1743435977.879851,-0.507,0.625,0.474,3.71,-23.03,2.45
1743435977.899851,-0.504,0.612,0.476,8.75,-25.76,3.15
1743435977.9198513,-0.502,0.643,0.479,10.29,-24.5,4.55
1743435977.9398513,-0.508,0.662,0.487,10.15,-21.49,7.14
1743435977.9598513,-0.514,0.694,0.502,10.15,-12.67,7.98
1743435977.9798512,-0.515,0.716,0.528,7.7,-5.11,7.7
1743435977.9998512,-0.52,0.736,0.559,2.38,1.05,6.65
1743435978.0198512,-0.525,0.741,0.574,-0.14,3.78,5.88
1743435978.0398512,-0.528,0.737,0.591,-2.59,3.36,4.13
1743435978.0598512,-0.539,0.732,0.598,-2.87,-0.28,2.03
1743435978.0798512,-0.549,0.721,0.59,-1.26,-8.33,0.84
1743435978.0998511,-0.55,0.709,0.57,2.8,-14.07,-1.47
1743435978.119851,-0.548,0.708,0.55,3.43,-17.85,-2.38
1743435978.139851,-0.535,0.706,0.517,4.62,-18.62,-2.52
1743435978.159851,-0.518,0.698,0.47,3.01,-13.79,-2.73
1743435978.179851,-0.509,0.699,0.463,1.47,-6.72,-2.87
1743435978.199851,-0.503,0.703,0.454,-3.08,6.23,-2.59
1743435978.219851,-0.503,0.703,0.459,-4.83,12.95,-2.8
1743435978.239851,-0.514,0.707,0.499,-8.47,30.1,-4.13
1743435978.259851,-0.523,0.707,0.515,-9.03,34.72,-5.39
1743435978.279851,-0.534,0.705,0.539,-9.1,35.77,-6.44
1743435978.299851,-0.541,0.705,0.556,-8.61,34.02,-8.12
1743435978.319851,-0.554,0.702,0.567,-6.93,29.54,-10.08
1743435978.339851,-0.558,0.701,0.569,-5.95,23.87,-10.85
1743435978.359851,-0.562,0.692,0.559,-5.25,17.01,-11.2
1743435978.3798509,-0.565,0.688,0.548,-2.66,12.04,-11.06
1743435978.3998508,-0.569,0.69,0.507,0.98,0.42,-8.19
1743435978.4198508,-0.566,0.693,0.488,2.52,-1.89,-6.44
1743435978.4398508,-0.566,0.698,0.484,0.63,-3.92,-0.91
1743435978.4598508,-0.554,0.67,0.469,0.35,-10.29,1.19
1743435978.4798508,-0.543,0.651,0.454,6.58,-18.48,3.64
1743435978.4998507,-0.532,0.643,0.444,4.2,-23.8,6.51
1743435978.5198507,-0.517,0.607,0.434,8.26,-30.31,6.72
1743435978.5398507,-0.508,0.587,0.439,9.94,-35.7,5.6
1743435978.5598507,-0.496,0.606,0.453,16.94,-36.26,6.93
1743435978.579851,-0.492,0.639,0.467,15.68,-35.84,9.03
1743435978.599851,-0.489,0.651,0.483,16.52,-34.23,10.29
1743435978.6198506,-0.498,0.684,0.504,12.46,-27.37,13.72
1743435978.6398506,-0.505,0.719,0.555,1.61,-21.63,15.05
1743435978.6598506,-0.518,0.725,0.57,-1.47,-20.51,16.1
1743435978.6798506,-0.525,0.725,0.581,-2.17,-20.44,16.38
1743435978.6998506,-0.526,0.722,0.588,-2.17,-21.14,15.82
1743435978.7198503,-0.523,0.721,0.579,-1.47,-21.98,14.28
1743435978.7398503,-0.516,0.714,0.57,-0.84,-21.28,10.22
1743435978.7598505,-0.514,0.716,0.556,-1.12,-19.39,5.18
1743435978.7798505,-0.504,0.708,0.533,-1.96,-15.33,2.73
1743435978.7998505,-0.502,0.718,0.513,-2.66,-8.82,-0.84
1743435978.8198504,-0.507,0.721,0.502,0.07,-1.75,-3.85
1743435978.8398504,-0.51,0.738,0.502,-2.03,3.78,-4.83
1743435978.8598504,-0.517,0.746,0.497,-0.35,12.25,-5.74
1743435978.8798504,-0.529,0.774,0.516,-1.89,21.28,-5.39
1743435978.8998504,-0.539,0.761,0.524,-6.72,25.62,-6.16
1743435978.9198503,-0.541,0.748,0.531,-7.84,26.46,-7.21
1743435978.9398503,-0.536,0.726,0.541,-7.98,24.08,-8.33
1743435978.9598503,-0.529,0.688,0.538,-4.76,17.08,-9.94
1743435978.9798503,-0.53,0.682,0.53,-1.12,13.79,-10.64
1743435978.9998505,-0.525,0.683,0.521,1.12,12.67,-11.48
1743435979.0198505,-0.523,0.684,0.516,2.59,12.95,-11.62
1743435979.0398502,-0.501,0.679,0.497,-5.67,8.4,-9.1
1743435979.0598502,-0.513,0.656,0.509,0.98,6.37,-9.59
1743435979.0798502,-0.515,0.67,0.506,-6.79,3.22,-5.88
1743435979.0998502,-0.527,0.656,0.49,-1.47,-2.38,-3.99
1743435979.1198502,-0.538,0.66,0.484,-0.84,-7.14,-0.98
1743435979.13985,-0.547,0.674,0.472,1.75,-8.12,2.8
1743435979.15985,-0.542,0.683,0.474,4.62,-8.12,5.46
1743435979.17985,-0.537,0.697,0.481,3.01,-6.58,6.51
1743435979.19985,-0.528,0.704,0.494,1.61,-3.64,6.51
1743435979.21985,-0.524,0.706,0.511,0.14,-1.54,5.67
1743435979.23985,-0.518,0.706,0.526,-1.19,-0.91,3.22
1743435979.25985,-0.524,0.699,0.54,-0.7,-1.89,1.4
1743435979.27985,-0.529,0.69,0.549,1.47,-3.99,-0.35
1743435979.29985,-0.527,0.688,0.551,2.87,-7.35,-1.82
1743435979.31985,-0.524,0.69,0.551,4.13,-8.47,-1.61
1743435979.33985,-0.525,0.682,0.536,4.9,-14.35,-1.96
1743435979.35985,-0.522,0.7,0.51,4.76,-13.37,-0.7
1743435979.37985,-0.518,0.701,0.503,4.62,-11.27,0.42
1743435979.39985,-0.518,0.703,0.497,2.73,-6.79,0.56
1743435979.41985,-0.514,0.707,0.489,1.82,-0.84,0.49
1743435979.43985,-0.51,0.706,0.5,-1.47,8.12,-1.05
1743435979.4598498,-0.514,0.703,0.512,-3.71,10.29,-2.66
1743435979.4798498,-0.519,0.701,0.523,-4.13,11.9,-3.99
1743435979.4998498,-0.525,0.698,0.539,-4.2,11.76,-4.83
1743435979.5198498,-0.532,0.698,0.549,-3.57,9.1,-4.69
1743435979.5398498,-0.536,0.698,0.541,-2.94,5.67,-4.06
1743435979.5598495,-0.539,0.697,0.538,-2.24,3.22,-3.43
1743435979.5798495,-0.536,0.696,0.526,-2.66,1.26,-2.8
1743435979.5998497,-0.534,0.686,0.499,-3.43,-0.28,-1.61
1743435979.6198497,-0.531,0.684,0.486,-3.29,-0.63,-1.19
1743435979.6398497,-0.531,0.677,0.477,-2.87,-0.77,-0.98
1743435979.6598496,-0.528,0.675,0.474,-2.03,-1.47,-0.63
1743435979.6798496,-0.526,0.666,0.478,-0.07,-3.71,-0.42
1743435979.6998496,-0.53,0.659,0.483,1.05,-7.35,0.56
1743435979.7198496,-0.531,0.659,0.489,6.16,-8.47,0.77
1743435979.7398496,-0.529,0.669,0.502,6.93,-9.52,1.82
1743435979.7598495,-0.525,0.685,0.515,8.26,-9.24,2.17
1743435979.7798495,-0.523,0.695,0.53,7.91,-8.33,2.52
1743435979.7998495,-0.519,0.698,0.537,6.16,-6.09,2.73
1743435979.8198495,-0.522,0.702,0.546,5.11,-5.81,2.03
1743435979.8398497,-0.524,0.693,0.553,0.91,-7.28,2.59
1743435979.8598497,-0.53,0.686,0.562,3.78,-9.73,1.89
1743435979.8798494,-0.53,0.687,0.557,3.36,-14.21,2.24
1743435979.8998494,-0.533,0.691,0.545,5.11,-19.53,2.8
1743435979.9198494,-0.533,0.693,0.531,5.6,-24.57,3.57
1743435979.9398494,-0.531,0.7,0.515,5.46,-26.18,4.62
1743435979.9598494,-0.526,0.702,0.503,4.83,-26.53,5.53
1743435979.979849,-0.526,0.709,0.491,3.85,-25.27,6.86
1743435979.999849,-0.518,0.71,0.483,1.82,-20.93,8.19
1743435980.0198493,-0.516,0.711,0.479,1.26,-17.78,8.61
1743435980.0398493,-0.512,0.711,0.48,0.28,-12.95,8.61
1743435980.0598493,-0.508,0.713,0.486,-0.98,-8.47,7.63
1743435980.0798492,-0.51,0.717,0.502,-1.61,-1.82,5.53
1743435980.0998492,-0.509,0.716,0.515,-1.89,0.35,3.5
1743435980.1198492,-0.508,0.718,0.528,-1.54,3.29,1.26
1743435980.1398492,-0.506,0.721,0.537,-3.43,6.72,-0.42
1743435980.1598492,-0.509,0.719,0.551,-1.12,11.62,-3.64
1743435980.1798491,-0.508,0.718,0.552,-2.17,14.14,-4.97
1743435980.1998491,-0.505,0.717,0.557,-2.59,17.22,-6.44
1743435980.219849,-0.507,0.712,0.559,-3.64,20.02,-7.91
1743435980.239849,-0.512,0.7,0.547,-4.76,20.23,-9.31
1743435980.259849,-0.517,0.7,0.539,-5.32,18.9,-9.73
1743435980.279849,-0.527,0.692,0.528,-4.62,15.54,-9.73
1743435980.299849,-0.533,0.689,0.517,-3.01,12.88,-9.31
1743435980.319849,-0.537,0.69,0.505,-1.96,10.71,-9.17
1743435980.339849,-0.529,0.693,0.515,-4.9,8.89,-5.74
1743435980.359849,-0.528,0.658,0.49,0.91,1.68,-6.72
1743435980.379849,-0.532,0.671,0.501,0.35,-2.8,-4.9
1743435980.399849,-0.535,0.67,0.482,1.96,-7.35,-2.03
1743435980.419849,-0.54,0.674,0.48,1.82,-9.45,-0.56
1743435980.439849,-0.541,0.686,0.48,3.29,-8.96,2.17
1743435980.4598489,-0.541,0.695,0.481,4.83,-6.09,3.85
1743435980.4798489,-0.528,0.706,0.5,1.61,-1.05,3.99
1743435980.4998488,-0.525,0.709,0.509,0.35,1.89,3.64
1743435980.5198488,-0.529,0.709,0.523,-1.4,4.48,3.01
1743435980.5398488,-0.529,0.707,0.534,-1.96,5.11,1.61
1743435980.5598488,-0.534,0.702,0.544,-1.47,4.27,0.0
1743435980.5798488,-0.535,0.7,0.547,-0.7,2.38,-0.84
1743435980.5998487,-0.534,0.697,0.548,0.28,-0.56,-1.68
1743435980.6198487,-0.533,0.695,0.541,0.91,-4.06,-1.89
1743435980.6398487,-0.531,0.697,0.523,0.35,-7.42,-1.96
1743435980.6598487,-0.537,0.694,0.516,1.89,-7.98,-1.68
1743435980.679849,-0.537,0.699,0.506,1.33,-7.56,-1.12
1743435980.699849,-0.533,0.699,0.494,1.61,-5.88,0.28
1743435980.7198486,-0.524,0.695,0.489,0.0,-0.91,1.33
1743435980.7398486,-0.524,0.694,0.493,-1.05,1.12,1.54
1743435980.7598486,-0.52,0.692,0.5,-2.45,3.43,1.26
1743435980.7798486,-0.516,0.686,0.502,-2.38,3.85,0.63
1743435980.7998486,-0.514,0.678,0.516,-2.1,2.45,-0.56
1743435980.8198483,-0.513,0.676,0.517,-1.26,0.56,-1.47
1743435980.8398485,-0.514,0.674,0.521,-0.63,-0.63,-3.15
1743435980.8598485,-0.517,0.679,0.523,0.07,-1.12,-4.06
1743435980.8798485,-0.523,0.688,0.515,1.54,-0.84,-5.32
1743435980.8998485,-0.53,0.693,0.51,1.05,1.05,-5.39
1743435980.9198484,-0.526,0.696,0.514,0.77,2.38,-4.83
1743435980.9398484,-0.524,0.697,0.522,-3.29,2.38,-4.34
1743435980.9598484,-0.531,0.679,0.514,-0.98,-0.07,-5.18
1743435980.9798484,-0.538,0.689,0.511,-3.08,-1.05,-4.13
1743435980.9998484,-0.542,0.687,0.504,-0.49,-2.8,-3.15
1743435981.0198483,-0.551,0.693,0.503,0.14,-3.15,-2.73
1743435981.0398483,-0.549,0.707,0.502,2.24,0.77,-0.7
1743435981.0598483,-0.545,0.71,0.509,1.61,2.73,-0.49
1743435981.0798483,-0.539,0.7,0.518,0.21,5.39,-0.98
1743435981.0998485,-0.532,0.698,0.524,-0.84,6.37,-1.75
1743435981.1198485,-0.531,0.684,0.532,-0.63,4.55,-3.01
1743435981.1398482,-0.537,0.682,0.53,0.7,1.05,-3.08
1743435981.1598482,-0.541,0.679,0.529,1.82,-3.08,-2.31
1743435981.1798482,-0.544,0.678,0.524,3.15,-7.07,-1.47
1743435981.1998482,-0.544,0.69,0.508,2.73,-10.92,0.21
1743435981.2198482,-0.544,0.695,0.5,2.38,-12.25,1.75
1743435981.239848,-0.543,0.693,0.488,1.4,-12.95,3.64
1743435981.259848,-0.535,0.691,0.484,0.35,-12.18,4.55
1743435981.279848,-0.532,0.682,0.482,0.98,-13.16,4.2
1743435981.299848,-0.53,0.682,0.483,1.75,-11.62,3.85
1743435981.319848,-0.528,0.684,0.493,3.5,-9.17,3.22
1743435981.339848,-0.525,0.694,0.502,4.62,-6.86,2.03
1743435981.359848,-0.515,0.709,0.529,3.57,-0.49,0.42
1743435981.379848,-0.513,0.712,0.54,1.19,4.13,-0.63
1743435981.399848,-0.512,0.71,0.556,-0.56,6.65,-2.45
1743435981.419848,-0.517,0.706,0.559,-2.94,9.03,-3.71
1743435981.439848,-0.528,0.696,0.557,-3.78,9.45,-4.55
1743435981.459848,-0.53,0.69,0.55,-3.15,8.47,-5.04
1743435981.479848,-0.54,0.686,0.541,-1.89,6.37,-5.04
1743435981.499848,-0.541,0.686,0.532,-1.05,4.27,-4.9
1743435981.519848,-0.544,0.692,0.493,-1.26,3.5,-4.48
1743435981.539848,-0.548,0.701,0.485,-1.82,4.13,-4.06
1743435981.5598478,-0.552,0.7,0.472,-2.87,5.67,-3.85
1743435981.5798478,-0.556,0.7,0.47,-2.73,6.65,-3.29
1743435981.5998478,-0.546,0.69,0.483,-5.81,2.59,-0.21
1743435981.6198478,-0.545,0.649,0.473,1.82,-5.88,-1.4
1743435981.6398478,-0.541,0.652,0.493,-1.05,-12.46,0.35
1743435981.6598475,-0.544,0.625,0.482,6.02,-24.64,1.33
1743435981.6798477,-0.545,0.636,0.485,11.41,-31.15,2.45
1743435981.6998477,-0.54,0.666,0.482,13.86,-31.64,4.83
1743435981.7198477,-0.534,0.696,0.483,13.58,-25.97,7.98
1743435981.7398477,-0.524,0.721,0.494,11.34,-15.61,8.54
1743435981.7598476,-0.514,0.74,0.518,1.75,-3.36,8.47
1743435981.7798476,-0.506,0.745,0.533,-5.18,7.77,6.72
1743435981.7998476,-0.505,0.734,0.557,-10.64,13.23,4.97
1743435981.8198476,-0.511,0.712,0.567,-9.94,13.93,0.98
1743435981.8398476,-0.533,0.698,0.571,-8.75,10.64,-2.87
1743435981.8598475,-0.548,0.682,0.572,-2.59,1.47,-5.6
1743435981.8798475,-0.552,0.679,0.56,3.29,-3.29,-7.49
1743435981.8998475,-0.548,0.693,0.544,6.09,-8.61,-7.7
1743435981.9198475,-0.538,0.698,0.513,6.23,-10.36,-7.35
1743435981.9398477,-0.53,0.698,0.494,3.78,-8.26,-6.37
1743435981.9598477,-0.525,0.697,0.471,0.7,-3.57,-5.04
1743435981.9798474,-0.522,0.693,0.461,-2.31,2.03,-3.43
1743435981.9998474,-0.52,0.678,0.462,-3.64,7.49,-2.45
1743435982.0198474,-0.521,0.676,0.466,-4.06,10.64,-1.89
1743435982.0398474,-0.519,0.674,0.482,-3.78,14.0,-2.31
1743435982.0598474,-0.525,0.677,0.494,-3.5,16.17,-3.08
1743435982.079847,-0.535,0.69,0.522,-3.36,16.03,-3.99
1743435982.0998473,-0.545,0.697,0.534,-3.22,14.56,-4.83
1743435982.1198473,-0.553,0.703,0.543,-3.01,12.18,-4.97
1743435982.1398473,-0.56,0.703,0.548,-2.8,9.66,-4.55
1743435982.1598473,-0.556,0.667,0.535,-0.07,-0.7,-3.5
1743435982.1798472,-0.558,0.677,0.539,0.07,-10.29,-2.03
1743435982.1998472,-0.551,0.66,0.507,2.66,-17.92,0.49
1743435982.2198472,-0.549,0.65,0.501,6.37,-22.4,2.03
1743435982.2398472,-0.543,0.644,0.476,6.3,-26.46,3.57
1743435982.2598472,-0.538,0.655,0.458,9.52,-25.41,5.81
1743435982.2798471,-0.53,0.668,0.458,9.66,-22.89,7.28
1743435982.2998471,-0.525,0.688,0.459,7.91,-14.14,8.19
1743435982.319847,-0.521,0.706,0.47,3.36,-5.6,8.54
1743435982.339847,-0.524,0.72,0.494,0.35,-0.35,7.84
1743435982.359847,-0.526,0.72,0.514,-3.36,6.02,6.44
1743435982.379847,-0.533,0.719,0.532,-5.39,9.03,4.27
1743435982.399847,-0.544,0.713,0.558,-5.11,7.35,1.82
1743435982.419847,-0.553,0.705,0.568,-2.73,3.29,-0.84
1743435982.439847,-0.558,0.698,0.566,-1.05,-1.54,-2.8
1743435982.459847,-0.561,0.696,0.559,4.41,-7.42,-4.69
1743435982.479847,-0.544,0.703,0.532,5.81,-8.96,-5.6
1743435982.499847,-0.535,0.703,0.524,5.11,-7.63,-5.95
1743435982.519847,-0.527,0.698,0.504,3.36,-4.13,-6.23
1743435982.539847,-0.519,0.691,0.493,-0.21,0.56,-6.09
1743435982.5598469,-0.515,0.684,0.481,-3.29,6.44,-4.83
1743435982.5798469,-0.518,0.674,0.481,-4.2,9.66,-4.27
1743435982.5998468,-0.525,0.673,0.485,-4.2,11.97,-3.29
1743435982.6198468,-0.532,0.674,0.49,-4.06,12.74,-3.08
1743435982.6398468,-0.54,0.686,0.506,-3.57,12.74,-2.66
1743435982.6598468,-0.546,0.691,0.512,-3.15,11.83,-2.38
1743435982.6798468,-0.547,0.707,0.533,-4.48,10.22,-0.28
1743435982.6998467,-0.541,0.666,0.502,-2.87,0.35,-1.19
1743435982.7198467,-0.556,0.679,0.527,-4.2,-6.86,-0.49
1743435982.7398467,-0.553,0.657,0.498,4.69,-13.51,0.7
1743435982.7598467,-0.553,0.663,0.503,5.81,-17.36,0.63
1743435982.779847,-0.544,0.687,0.487,6.3,-16.17,2.8
1743435982.7998466,-0.533,0.695,0.483,7.14,-10.92,3.29
1743435982.8198466,-0.529,0.701,0.487,3.01,-7.84,2.87
1743435982.8398466,-0.53,0.702,0.492,0.63,-2.87,2.38
1743435982.8598466,-0.534,0.702,0.501,-0.98,0.98,2.03
1743435982.8798466,-0.54,0.7,0.521,-2.38,2.45,0.7
1743435982.8998466,-0.549,0.701,0.533,-0.84,1.54,0.07
1743435982.9198463,-0.554,0.703,0.535,0.63,-0.28,-1.19
1743435982.9398465,-0.554,0.704,0.537,1.96,-3.01,-1.33
1743435982.9598465,-0.548,0.696,0.523,3.08,-6.02,-2.87
1743435982.9798465,-0.541,0.7,0.511,0.84,-5.39,-2.52
1743435982.9998465,-0.536,0.691,0.5,0.49,-3.43,-2.38
1743435983.0198464,-0.532,0.685,0.494,-0.21,-0.77,-2.66
1743435983.0398464,-0.526,0.676,0.492,-0.7,3.22,-2.31
1743435983.0598464,-0.523,0.677,0.498,-1.68,4.41,-2.24
1743435983.0798464,-0.527,0.677,0.502,-1.89,5.11,-2.24
1743435983.0998464,-0.53,0.678,0.508,-1.82,5.74,-2.03
1743435983.1198463,-0.537,0.687,0.513,-1.96,5.95,-1.89
1743435983.1398463,-0.543,0.688,0.521,-1.82,5.46,-1.82
1743435983.1598463,-0.55,0.693,0.521,-1.68,4.9,-1.89
1743435983.1798463,-0.55,0.692,0.522,-1.33,4.13,-2.1
1743435983.1998465,-0.555,0.691,0.517,-1.19,3.43,-2.59
1743435983.2198462,-0.554,0.692,0.508,-0.91,2.17,-2.66
1743435983.2398462,-0.556,0.691,0.507,0.35,0.91,-3.15
1743435983.2598462,-0.555,0.689,0.503,0.49,0.21,-3.29
1743435983.2798462,-0.553,0.687,0.497,0.84,-0.63,-3.43
1743435983.2998462,-0.552,0.684,0.495,1.75,-1.47,-3.57
1743435983.3198462,-0.55,0.685,0.495,1.75,-2.17,-3.71
1743435983.339846,-0.547,0.677,0.49,1.96,-2.66,-3.43
1743435983.359846,-0.544,0.677,0.493,2.24,-2.03,-3.15
1743435983.379846,-0.542,0.678,0.498,2.1,-1.75,-2.94
1743435983.399846,-0.537,0.679,0.501,1.82,-0.63,-2.52
1743435983.419846,-0.538,0.683,0.509,0.77,0.77,-2.38
1743435983.439846,-0.541,0.686,0.518,-0.49,1.75,-1.82
1743435983.459846,-0.545,0.688,0.52,-1.4,1.4,-1.12
1743435983.479846,-0.551,0.69,0.519,-1.82,0.14,-0.35
1743435983.499846,-0.554,0.684,0.516,-1.61,-2.03,0.14
1743435983.519846,-0.559,0.682,0.508,-0.56,-4.34,1.05
1743435983.539846,-0.553,0.68,0.496,1.12,-7.56,1.82
1743435983.559846,-0.549,0.68,0.494,1.68,-9.31,2.66
1743435983.579846,-0.542,0.676,0.486,2.52,-9.87,3.43
1743435983.599846,-0.543,0.672,0.484,3.43,-10.01,3.92
1743435983.619846,-0.541,0.672,0.486,3.01,-9.59,4.06
1743435983.6398458,-0.535,0.666,0.487,2.8,-9.52,3.57
1743435983.6598458,-0.529,0.668,0.492,3.43,-9.87,3.43
1743435983.6798458,-0.528,0.671,0.498,3.78,-10.08,2.59
1743435983.6998458,-0.535,0.677,0.502,4.34,-10.01,2.1
1743435983.7198458,-0.54,0.685,0.509,4.62,-9.45,1.61
1743435983.7398458,-0.542,0.692,0.516,4.62,-7.56,1.54
1743435983.7598455,-0.54,0.705,0.524,3.15,-6.02,1.4
1743435983.7798457,-0.542,0.71,0.53,2.03,-4.69,1.19
1743435983.7998457,-0.548,0.708,0.531,1.12,-3.22,0.84
1743435983.8198457,-0.547,0.71,0.531,0.0,-2.87,0.28
1743435983.8398457,-0.548,0.699,0.523,0.14,-2.59,-0.35
1743435983.8598456,-0.547,0.696,0.52,0.49,-2.66,-0.98
1743435983.8798456,-0.542,0.691,0.506,0.7,-2.52,-1.54
1743435983.8998456,-0.541,0.693,0.5,1.82,-0.14,-2.87
1743435983.9198456,-0.541,0.704,0.489,-0.21,6.23,-3.92
1743435983.9398456,-0.541,0.712,0.492,-3.43,9.94,-4.76
1743435983.9598455,-0.542,0.713,0.494,-4.97,15.12,-5.53
1743435983.9798455,-0.548,0.711,0.505,-6.72,21.0,-6.51
1743435983.9998455,-0.554,0.702,0.52,-7.91,22.82,-8.05
1743435984.0198455,-0.563,0.69,0.523,-6.86,21.14,-9.1
1743435984.0398457,-0.572,0.688,0.526,-4.76,17.36,-9.52
1743435984.0598454,-0.582,0.695,0.521,-1.61,12.6,-9.03
1743435984.0798454,-0.586,0.702,0.521,-0.14,4.2,-6.09
1743435984.0998454,-0.58,0.679,0.501,-0.35,-3.71,-2.59
1743435984.1198454,-0.575,0.682,0.497,8.82,-15.47,-1.05
1743435984.1398454,-0.569,0.678,0.48,2.94,-19.11,2.87
1743435984.1598454,-0.547,0.655,0.452,10.43,-27.86,6.65
1743435984.179845,-0.537,0.647,0.446,8.47,-27.72,7.28
1743435984.1998453,-0.524,0.627,0.435,8.96,-26.04,7.0
1743435984.2198453,-0.504,0.614,0.447,8.4,-22.75,5.25
1743435984.2398453,-0.484,0.621,0.461,8.54,-18.2,3.99
1743435984.2598453,-0.482,0.641,0.483,8.47,-16.38,4.06
1743435984.2798452,-0.499,0.655,0.501,7.07,-12.25,3.85
1743435984.2998452,-0.511,0.681,0.528,6.23,-9.73,5.95
1743435984.3198452,-0.54,0.703,0.551,5.04,-10.01,7.56
1743435984.3398452,-0.556,0.724,0.563,1.82,-9.31,9.66
1743435984.3598452,-0.563,0.731,0.56,1.12,-9.1,10.64
1743435984.3798451,-0.564,0.733,0.557,-0.14,-9.24,10.36
1743435984.3998451,-0.555,0.724,0.537,-0.98,-8.89,8.33
1743435984.419845,-0.547,0.711,0.523,-0.56,-8.82,5.25
1743435984.439845,-0.535,0.704,0.515,-0.63,-9.17,1.47
1743435984.459845,-0.53,0.697,0.498,0.49,-9.1,-0.7
1743435984.479845,-0.533,0.69,0.485,-0.21,-9.03,-4.41
1743435984.499845,-0.529,0.689,0.486,1.26,-8.33,-5.18
1743435984.519845,-0.533,0.696,0.488,0.28,-8.4,-5.11
1743435984.539845,-0.536,0.696,0.492,1.89,-7.14,-3.71
1743435984.559845,-0.538,0.707,0.493,0.28,-4.27,-1.75
1743435984.579845,-0.542,0.708,0.493,-0.21,-2.38,0.42
1743435984.599845,-0.541,0.707,0.5,-1.19,1.47,1.89
1743435984.619845,-0.536,0.703,0.506,-1.96,4.9,2.31
1743435984.639845,-0.53,0.696,0.513,-2.24,8.12,1.89
1743435984.6598449,-0.523,0.687,0.519,-2.1,9.52,0.07
1743435984.6798449,-0.523,0.684,0.523,0.14,11.06,-2.8
1743435984.6998448,-0.523,0.688,0.529,1.33,13.23,-5.53
1743435984.7198448,-0.523,0.702,0.534,0.77,15.26,-8.47
1743435984.7398448,-0.532,0.708,0.536,0.14,16.17,-10.22
1743435984.7598448,-0.542,0.711,0.535,-2.24,16.94,-10.78
1743435984.7798448,-0.549,0.707,0.527,-4.55,14.28,-10.64
1743435984.7998447,-0.563,0.705,0.521,-5.39,11.41,-10.08
1743435984.8198447,-0.566,0.688,0.504,-5.11,6.16,-8.05
1743435984.8398447,-0.568,0.686,0.495,-3.85,3.43,-6.09
1743435984.8598447,-0.566,0.679,0.485,-3.01,-1.26,-4.13
1743435984.879845,-0.559,0.676,0.474,-1.26,-3.85,-2.1
1743435984.8998446,-0.554,0.673,0.468,-0.98,-5.39,-0.35
1743435984.9198446,-0.548,0.676,0.463,-0.91,-6.02,1.75
1743435984.9398446,-0.542,0.671,0.459,-0.35,-6.02,2.52
1743435984.9598446,-0.537,0.668,0.463,-0.49,-6.16,3.5
1743435984.9798446,-0.532,0.663,0.47,-0.21,-6.65,4.55
1743435984.9998446,-0.534,0.659,0.476,0.7,-7.77,4.62
1743435985.0198443,-0.538,0.657,0.481,2.17,-9.03,5.18
1743435985.0398445,-0.537,0.662,0.497,6.37,-11.41,5.18
1743435985.0598445,-0.537,0.672,0.507,6.93,-12.25,5.18
1743435985.0798445,-0.534,0.682,0.519,7.28,-13.09,5.39
1743435985.0998445,-0.529,0.686,0.537,4.27,-15.47,6.44
1743435985.1198444,-0.529,0.652,0.52,8.61,-23.94,5.39
1743435985.1398444,-0.544,0.684,0.534,3.99,-29.68,7.07
1743435985.1598444,-0.539,0.676,0.511,8.54,-33.04,9.45
1743435985.1798444,-0.542,0.692,0.517,10.36,-33.11,9.8
1743435985.1998444,-0.528,0.713,0.506,7.77,-25.48,10.5
1743435985.2198443,-0.518,0.716,0.508,5.81,-18.2,9.66
1743435985.2398443,-0.51,0.725,0.515,2.31,-10.22,7.77
1743435985.2598443,-0.511,0.726,0.516,-0.98,-3.36,6.72
1743435985.2798443,-0.515,0.721,0.528,-4.55,4.9,3.22
1743435985.2998445,-0.521,0.719,0.531,-3.57,6.72,0.91
1743435985.3198442,-0.53,0.713,0.531,-3.29,5.18,-2.1
1743435985.3398442,-0.532,0.712,0.533,-2.66,3.22,-3.71
1743435985.3598442,-0.54,0.712,0.522,-1.19,0.14,-5.25
1743435985.3798442,-0.543,0.712,0.514,-0.56,-1.68,-6.09
1743435985.3998442,-0.542,0.713,0.506,0.0,-3.15,-5.74
1743435985.4198442,-0.54,0.708,0.495,0.91,-2.87,-4.69
1743435985.439844,-0.534,0.709,0.49,-0.21,1.05,-2.8
1743435985.459844,-0.529,0.704,0.492,-1.47,5.25,-2.17
1743435985.479844,-0.52,0.697,0.498,-3.22,9.31,-1.68
1743435985.499844,-0.514,0.693,0.506,-4.2,12.67,-1.75
1743435985.519844,-0.509,0.69,0.524,-7.7,15.12,-1.26
1743435985.539844,-0.515,0.667,0.529,-3.36,12.46,-1.82
1743435985.559844,-0.523,0.668,0.537,-4.48,7.77,-2.24
1743435985.579844,-0.533,0.66,0.532,16.94,1.89,-2.1
1743435985.599844,-0.54,0.675,0.523,3.78,-7.07,-1.12
1743435985.619844,-0.544,0.69,0.515,4.97,-9.59,0.28
1743435985.639844,-0.547,0.695,0.504,5.39,-11.06,1.54
1743435985.659844,-0.542,0.703,0.496,3.99,-10.64,2.52
1743435985.679844,-0.536,0.706,0.488,1.96,-9.31,3.08
1743435985.699844,-0.531,0.698,0.487,1.12,-8.19,2.94
1743435985.719844,-0.529,0.694,0.49,0.49,-7.63,2.52
1743435985.7398438,-0.529,0.693,0.494,0.84,-7.63,1.82
1743435985.7598438,-0.528,0.694,0.506,2.03,-7.98,1.05
1743435985.7798438,-0.527,0.698,0.508,2.59,-8.19,0.56
1743435985.7998438,-0.528,0.699,0.514,3.36,-7.91,0.42
1743435985.8198438,-0.527,0.706,0.517,2.45,-9.1,0.35
1743435985.8398438,-0.532,0.719,0.521,1.82,-5.95,0.0
1743435985.8598435,-0.527,0.723,0.517,1.47,-4.27,0.35
1743435985.8798437,-0.525,0.717,0.516,-0.35,-1.26,-0.07
1743435985.8998437,-0.523,0.71,0.515,-1.33,1.61,-0.63
1743435985.9198437,-0.514,0.692,0.519,-3.22,2.1,-0.63
1743435985.9398437,-0.515,0.665,0.514,-1.89,-1.19,-2.03
1743435985.9598436,-0.529,0.676,0.513,1.4,-4.34,-1.96
1743435985.9798436,-0.527,0.684,0.506,1.54,-7.35,0.42
1743435985.9998436,-0.53,0.685,0.514,2.8,-7.77,1.61
1743435986.0198436,-0.526,0.686,0.502,3.08,-10.92,2.73
1743435986.0398436,-0.528,0.689,0.508,1.96,-11.69,3.85
1743435986.0598435,-0.521,0.691,0.505,1.4,-13.02,4.34
1743435986.0798435,-0.523,0.689,0.505,1.82,-14.35,4.83
1743435986.0998435,-0.52,0.69,0.509,2.03,-14.28,5.04
1743435986.1198435,-0.517,0.696,0.512,2.87,-13.58,4.9
1743435986.1398437,-0.517,0.702,0.516,1.96,-12.11,4.48
1743435986.1598434,-0.506,0.705,0.52,1.12,-8.4,3.43
1743435986.1798434,-0.51,0.711,0.524,0.07,-5.95,2.31
1743435986.1998434,-0.509,0.712,0.525,-1.75,-2.03,0.63
1743435986.2198434,-0.519,0.723,0.523,-1.89,2.1,-0.14
1743435986.2398434,-0.536,0.734,0.526,-3.85,7.91,-1.61
1743435986.259843,-0.535,0.723,0.522,-1.54,8.61,-3.78
1743435986.279843,-0.537,0.729,0.524,-1.82,9.73,-4.48
1743435986.2998433,-0.529,0.719,0.521,-1.89,9.94,-5.04
1743435986.3198433,-0.524,0.704,0.519,-1.61,10.22,-7.21
1743435986.3398433,-0.522,0.698,0.515,-1.82,9.94,-7.35
1743435986.3598433,-0.523,0.691,0.517,-1.75,10.15,-7.49
1743435986.3798432,-0.524,0.688,0.512,-2.03,10.36,-7.14
1743435986.3998432,-0.524,0.69,0.512,-2.31,10.85,-5.81
1743435986.4198432,-0.528,0.69,0.509,-2.94,11.06,-4.69
1743435986.4398432,-0.529,0.692,0.512,-3.71,10.85,-4.13
1743435986.4598432,-0.533,0.692,0.512,-3.92,10.01,-3.64
1743435986.4798431,-0.532,0.681,0.508,-4.62,12.25,-1.68
1743435986.4998431,-0.519,0.641,0.508,-14.56,-6.86,-0.28
1743435986.519843,-0.551,0.641,0.518,2.8,-11.97,-1.54
1743435986.539843,-0.536,0.668,0.487,-3.15,-17.78,2.87
1743435986.559843,-0.547,0.659,0.485,10.57,-24.22,3.57
1743435986.579843,-0.54,0.687,0.474,9.38,-24.36,5.25
1743435986.599843,-0.529,0.699,0.466,9.87,-22.05,7.84
1743435986.619843,-0.521,0.703,0.475,9.38,-17.22,7.91
1743435986.639843,-0.515,0.712,0.489,1.26,-9.1,6.51
1743435986.659843,-0.518,0.714,0.508,0.0,-6.23,5.95
1743435986.679843,-0.52,0.714,0.521,-1.82,-3.15,3.43
1743435986.699843,-0.525,0.712,0.536,-1.47,-2.17,2.03
1743435986.719843,-0.533,0.711,0.552,1.61,-3.64,-0.56
1743435986.739843,-0.536,0.719,0.558,1.82,-4.55,-1.89
1743435986.7598429,-0.532,0.724,0.547,2.66,-4.76,-1.89
1743435986.7798429,-0.522,0.716,0.542,2.66,-3.15,-1.89
1743435986.7998428,-0.515,0.705,0.524,-0.63,-1.82,-2.03
1743435986.8198428,-0.514,0.695,0.507,-0.63,-0.56,-2.24
1743435986.8398428,-0.516,0.689,0.498,-0.84,2.17,-1.82
1743435986.8598428,-0.514,0.689,0.493,-0.63,5.32,-1.61
1743435986.8798428,-0.515,0.694,0.491,-0.98,10.08,-1.75
1743435986.8998427,-0.517,0.7,0.497,-1.75,13.51,-2.73
1743435986.9198427,-0.518,0.7,0.503,-4.13,15.82,-3.85
1743435986.9398427,-0.523,0.701,0.517,-5.39,16.17,-4.83
1743435986.9598427,-0.531,0.701,0.527,-6.65,13.86,-6.16
1743435986.979843,-0.537,0.698,0.531,-5.95,11.62,-6.65
1743435986.9998426,-0.543,0.695,0.53,-4.34,6.09,-6.58
1743435987.0198426,-0.547,0.693,0.529,-1.68,2.03,-5.88
1743435987.0398426,-0.538,0.691,0.516,-1.05,-0.28,-1.96
1743435987.0598426,-0.526,0.66,0.499,-5.81,-10.43,-1.68
1743435987.0798426,-0.532,0.652,0.492,5.81,-13.02,-2.31
1743435987.0998423,-0.536,0.671,0.465,-1.12,-15.26,2.45
1743435987.1198423,-0.536,0.653,0.456,5.67,-17.85,3.92
1743435987.1398425,-0.533,0.674,0.451,6.51,-16.24,5.88
1743435987.1598425,-0.53,0.689,0.453,7.14,-12.53,7.98
1743435987.1798425,-0.528,0.699,0.473,6.23,-8.19,7.84
1743435987.1998425,-0.525,0.714,0.498,2.87,-4.2,7.0
1743435987.2198424,-0.527,0.719,0.529,1.33,-0.42,5.6
1743435987.2398424,-0.529,0.721,0.547,-1.47,-0.63,3.36
1743435987.2598424,-0.534,0.719,0.563,0.07,-1.26,0.91
1743435987.2798424,-0.536,0.718,0.583,1.4,-5.67,-1.05
1743435987.2998424,-0.538,0.714,0.58,2.45,-7.98,-2.45
1743435987.3198423,-0.535,0.71,0.57,3.57,-11.13,-2.94
1743435987.3398423,-0.527,0.707,0.557,3.5,-11.69,-3.01
1743435987.3598423,-0.516,0.7,0.51,1.61,-9.87,-2.38
1743435987.3798423,-0.512,0.692,0.493,0.49,-6.93,-1.26
1743435987.3998425,-0.511,0.689,0.481,-0.77,-3.08,-0.63
1743435987.4198422,-0.513,0.682,0.469,-0.84,4.55,0.7
1743435987.4398422,-0.507,0.663,0.47,-2.17,-0.35,1.61
1743435987.4598422,-0.529,0.662,0.481,-0.21,-1.26,1.12
1743435987.4798422,-0.529,0.68,0.473,-0.35,-4.76,3.29
1743435987.4998422,-0.539,0.685,0.494,4.76,-8.05,3.43
1743435987.519842,-0.536,0.71,0.508,5.67,-7.7,4.27
1743435987.539842,-0.526,0.717,0.523,4.69,-5.74,3.57
1743435987.559842,-0.519,0.719,0.53,1.33,-1.96,1.82
1743435987.579842,-0.517,0.718,0.533,-0.42,0.35,0.63
1743435987.599842,-0.513,0.714,0.541,-3.15,4.13,-2.03
1743435987.619842,-0.515,0.708,0.542,-3.5,5.53,-3.99
1743435987.639842,-0.526,0.706,0.537,-2.59,7.0,-6.23
1743435987.659842,-0.529,0.711,0.534,-2.1,7.7,-7.14
1743435987.679842,-0.534,0.714,0.519,-2.59,9.17,-7.21
1743435987.699842,-0.539,0.719,0.509,-3.64,10.36,-7.07
1743435987.719842,-0.541,0.721,0.508,-6.44,10.85,-5.88
1743435987.739842,-0.545,0.7,0.495,-4.41,11.34,-6.3
1743435987.759842,-0.546,0.705,0.494,-5.6,12.32,-5.74
1743435987.779842,-0.543,0.7,0.49,-3.92,13.3,-4.76
1743435987.799842,-0.539,0.693,0.493,-3.36,13.72,-5.04
1743435987.819842,-0.536,0.689,0.499,-2.17,14.0,-5.46
1743435987.8398418,-0.534,0.689,0.509,-2.17,15.12,-6.86
1743435987.8598418,-0.534,0.685,0.51,-2.45,13.79,-7.84
1743435987.8798418,-0.537,0.689,0.514,-2.45,12.74,-8.12
1743435987.8998418,-0.543,0.692,0.517,-2.66,10.92,-7.77
1743435987.9198418,-0.547,0.686,0.515,-1.33,8.33,-7.49
1743435987.9398415,-0.549,0.683,0.51,-0.7,5.74,-6.79
1743435987.9598415,-0.549,0.68,0.507,-0.49,2.45,-5.88
1743435987.9798417,-0.55,0.675,0.504,-0.42,0.63,-4.9
1743435987.9998417,-0.546,0.671,0.489,-0.07,-3.85,-3.15
1743435988.0198417,-0.544,0.667,0.486,0.0,-5.6,-1.68
1743435988.0398417,-0.536,0.658,0.478,1.33,-10.36,0.21
1743435988.0598416,-0.538,0.655,0.476,0.98,-11.34,1.61
1743435988.0798416,-0.532,0.658,0.471,3.29,-14.49,3.99
1743435988.0998416,-0.537,0.662,0.468,4.06,-15.68,5.46
1743435988.1198416,-0.539,0.669,0.473,4.9,-16.38,7.0
1743435988.1398416,-0.542,0.675,0.478,5.6,-16.66,7.91
1743435988.1598415,-0.542,0.689,0.489,5.39,-16.94,8.47
1743435988.1798415,-0.543,0.695,0.499,4.55,-17.36,8.82
1743435988.1998415,-0.542,0.697,0.506,4.48,-18.06,8.19
1743435988.2198417,-0.54,0.696,0.52,3.92,-19.18,7.28
1743435988.2398417,-0.54,0.7,0.529,4.55,-20.23,6.51
1743435988.2598414,-0.54,0.703,0.536,4.9,-21.0,5.25
1743435988.2798414,-0.536,0.704,0.54,5.32,-20.86,4.9
1743435988.2998414,-0.532,0.708,0.543,5.04,-19.88,4.2
1743435988.3198414,-0.528,0.712,0.541,4.62,-17.92,3.5
1743435988.3398414,-0.525,0.712,0.542,3.5,-13.65,3.22
1743435988.359841,-0.523,0.716,0.537,2.52,-11.2,2.87
1743435988.379841,-0.519,0.713,0.532,1.33,-5.95,2.24
1743435988.3998413,-0.516,0.709,0.52,-0.28,-1.12,0.77
1743435988.4198413,-0.518,0.706,0.519,-0.63,1.96,0.0
1743435988.4398413,-0.515,0.704,0.512,-0.84,4.69,-0.91
1743435988.4598413,-0.515,0.691,0.507,-2.31,4.06,-1.4
1743435988.4798412,-0.523,0.685,0.507,-0.14,3.99,-2.38
1743435988.4998412,-0.522,0.683,0.5,0.98,3.57,-2.87
1743435988.5198412,-0.526,0.689,0.498,1.68,3.43,-2.87
1743435988.5398412,-0.526,0.691,0.497,1.47,4.13,-3.22
1743435988.5598412,-0.527,0.706,0.495,-1.4,7.42,-3.15
1743435988.5798411,-0.529,0.709,0.499,-3.92,9.45,-3.43
1743435988.599841,-0.534,0.709,0.506,-6.3,10.78,-3.57
1743435988.619841,-0.54,0.71,0.509,-6.79,10.57,-3.29
1743435988.639841,-0.547,0.7,0.514,-4.55,7.77,-3.01
1743435988.659841,-0.548,0.697,0.517,-2.52,4.76,-2.52
1743435988.679841,-0.548,0.694,0.518,0.0,2.59,-2.24
1743435988.699841,-0.541,0.695,0.515,0.98,0.63,-2.17
1743435988.719841,-0.53,0.687,0.507,0.49,-1.89,-1.82
1743435988.739841,-0.527,0.68,0.499,-0.28,-3.01,-1.54
1743435988.759841,-0.529,0.676,0.492,-0.14,-4.55,-0.91
1743435988.779841,-0.531,0.67,0.487,0.63,-5.88,-0.07
1743435988.799841,-0.536,0.67,0.485,2.45,-7.42,0.77
1743435988.819841,-0.535,0.677,0.487,3.08,-7.98,1.89
1743435988.839841,-0.538,0.687,0.494,3.36,-7.7,2.59
1743435988.8598409,-0.536,0.696,0.504,2.87,-7.21,2.8
1743435988.8798409,-0.539,0.704,0.512,1.68,-6.58,2.8
1743435988.8998408,-0.539,0.706,0.522,1.4,-6.09,2.1
1743435988.9198408,-0.536,0.705,0.532,1.33,-6.23,1.4
1743435988.9398408,-0.535,0.702,0.537,1.89,-6.72,0.49
1743435988.9598408,-0.53,0.7,0.539,2.52,-7.35,-0.35
1743435988.9798408,-0.527,0.699,0.531,2.66,-7.63,-1.33
1743435988.9998407,-0.526,0.695,0.526,2.38,-7.28,-1.75
1743435989.0198407,-0.522,0.695,0.516,1.61,-6.37,-1.82
1743435989.0398407,-0.525,0.693,0.495,0.14,-3.5,-1.19
1743435989.059841,-0.527,0.695,0.491,-0.77,-1.61,-0.77
1743435989.079841,-0.528,0.696,0.488,-1.26,0.42,-0.21
1743435989.0998406,-0.531,0.697,0.489,-1.75,2.03,0.07
1743435989.1198406,-0.535,0.7,0.492,-2.31,3.64,0.14
1743435989.1398406,-0.536,0.702,0.501,-2.38,3.85,-0.14
1743435989.1598406,-0.538,0.702,0.508,-2.24,3.85,-0.49
1743435989.1798406,-0.538,0.701,0.514,-1.82,3.43,-1.68
1743435989.1998403,-0.535,0.703,0.524,-1.12,4.13,-2.52
1743435989.2198403,-0.532,0.702,0.527,-1.47,4.83,-3.01
1743435989.2398405,-0.531,0.701,0.526,-1.61,5.18,-3.64
1743435989.2598405,-0.533,0.697,0.524,-1.82,6.16,-4.34
1743435989.2798405,-0.531,0.693,0.521,-2.59,7.07,-4.9
1743435989.2998405,-0.534,0.69,0.518,-2.94,7.28,-5.18
1743435989.3198404,-0.535,0.687,0.508,-2.8,6.86,-5.39
1743435989.3398404,-0.536,0.684,0.509,-2.45,6.16,-5.39
1743435989.3598404,-0.541,0.685,0.498,-1.68,4.69,-5.04
1743435989.3798404,-0.543,0.685,0.495,-1.26,3.78,-4.69
1743435989.3998404,-0.544,0.685,0.493,-0.77,2.66,-3.99
1743435989.4198403,-0.545,0.684,0.489,-0.42,1.68,-3.5
1743435989.4398403,-0.542,0.682,0.488,-0.14,0.21,-2.52
1743435989.4598403,-0.541,0.679,0.49,0.21,-0.7,-2.1
1743435989.4798405,-0.539,0.678,0.493,0.63,-2.24,-1.19
1743435989.4998405,-0.539,0.678,0.494,0.84,-3.43,-0.7
1743435989.5198402,-0.542,0.679,0.499,1.47,-4.55,-0.07
1743435989.5398402,-0.54,0.682,0.502,1.75,-4.97,0.42
1743435989.5598402,-0.542,0.69,0.506,1.75,-4.83,0.7
1743435989.5798402,-0.542,0.692,0.509,1.68,-3.99,0.7
1743435989.5998402,-0.543,0.697,0.511,1.12,-2.66,0.56
1743435989.61984,-0.543,0.698,0.516,0.28,-2.1,0.28
1743435989.63984,-0.543,0.695,0.514,-0.28,-1.05,-0.35
1743435989.65984,-0.54,0.693,0.512,-0.28,-0.56,-0.98
1743435989.67984,-0.541,0.689,0.511,0.0,-0.49,-1.33
1743435989.69984,-0.54,0.68,0.513,-0.84,-2.31,-1.12
1743435989.71984,-0.542,0.673,0.51,0.28,-4.69,-1.05
1743435989.73984,-0.545,0.683,0.5,0.42,-7.0,0.28
1743435989.75984,-0.551,0.691,0.493,0.7,-7.07,1.89
1743435989.77984,-0.545,0.691,0.489,1.19,-7.63,2.8
1743435989.79984,-0.549,0.688,0.487,1.47,-7.07,2.8
1743435989.81984,-0.54,0.689,0.491,1.12,-6.93,2.94
1743435989.83984,-0.538,0.685,0.494,1.96,-7.35,2.31
1743435989.85984,-0.534,0.68,0.504,2.94,-7.91,1.4
1743435989.87984,-0.531,0.678,0.508,3.92,-8.96,0.7
1743435989.89984,-0.531,0.682,0.516,5.32,-9.87,0.21
1743435989.91984,-0.533,0.691,0.519,5.39,-9.73,0.42
1743435989.9398398,-0.533,0.695,0.52,4.9,-8.89,0.84
1743435989.9598398,-0.536,0.702,0.511,2.59,-7.21,1.26
1743435989.9798398,-0.537,0.704,0.51,1.89,-5.32,1.61
1743435989.9998398,-0.537,0.696,0.506,0.56,-4.69,1.54
1743435990.0198398,-0.539,0.704,0.506,-0.49,-2.52,1.54
1743435990.0398395,-0.538,0.704,0.504,-0.84,-1.05,0.98
1743435990.0598395,-0.538,0.701,0.505,-1.26,-0.35,0.14
1743435990.0798397,-0.535,0.699,0.508,-1.26,0.21,-0.98
1743435990.0998397,-0.534,0.697,0.511,-1.26,0.28,-1.47
1743435990.1198397,-0.533,0.696,0.511,-1.26,0.49,-2.38
1743435990.1398396,-0.534,0.696,0.513,-1.05,1.12,-2.59
1743435990.1598396,-0.535,0.691,0.509,-1.12,2.03,-2.59
1743435990.1798396,-0.535,0.686,0.511,-1.12,2.73,-2.31
1743435990.1998396,-0.535,0.688,0.508,-0.91,2.73,-1.96
1743435990.2198396,-0.534,0.686,0.504,-0.98,2.73,-1.61
1743435990.2398396,-0.54,0.687,0.501,-0.49,2.52,-1.4
1743435990.2598395,-0.543,0.69,0.5,-0.21,2.24,-0.84
1743435990.2798395,-0.544,0.69,0.499,0.49,2.17,-1.19
1743435990.2998395,-0.541,0.698,0.503,-1.54,1.26,-0.98
1743435990.3198397,-0.548,0.693,0.504,-1.05,-17.64,-1.19
1743435990.3398397,-0.547,0.694,0.508,-0.49,-1.05,-1.12
1743435990.3598394,-0.547,0.691,0.507,-0.14,-2.38,-1.19
1743435990.3798394,-0.545,0.69,0.506,0.28,-3.57,-1.12
1743435990.3998394,-0.544,0.687,0.504,0.63,-4.55,-0.91
1743435990.4198394,-0.54,0.689,0.5,0.63,-5.18,-0.84
1743435990.4398394,-0.543,0.69,0.501,0.49,-5.32,-0.21
1743435990.459839,-0.542,0.69,0.5,0.28,-4.97,0.28
1743435990.479839,-0.54,0.691,0.502,-0.14,-4.2,0.7
1743435990.4998393,-0.538,0.689,0.503,-0.42,-3.57,0.56
1743435990.5198393,-0.538,0.692,0.507,-0.49,-3.15,0.21
1743435990.5398393,-0.538,0.693,0.509,-0.84,-2.87,0.14
1743435990.5598392,-0.54,0.691,0.511,-0.14,-3.08,0.0
1743435990.5798392,-0.541,0.691,0.513,0.21,-2.94,0.0
1743435990.5998392,-0.537,0.692,0.512,0.7,-2.73,-0.21
1743435990.6198392,-0.536,0.691,0.511,0.42,-1.33,-0.49
1743435990.6398392,-0.533,0.694,0.51,-0.63,0.0,-0.77
1743435990.6598392,-0.535,0.691,0.509,-1.19,1.26,-1.33
1743435990.6798391,-0.533,0.689,0.508,-2.1,1.54,-2.1
1743435990.699839,-0.537,0.683,0.507,-1.33,2.03,-2.45
1743435990.719839,-0.538,0.684,0.504,-0.84,1.4,-2.87
1743435990.739839,-0.541,0.686,0.505,-0.7,0.91,-2.94
1743435990.759839,-0.542,0.688,0.502,-0.49,0.56,-2.66
1743435990.779839,-0.544,0.69,0.501,-0.42,0.42,-2.24
1743435990.799839,-0.546,0.691,0.623,-0.56,0.42,-1.96
1743435990.819839,-0.546,0.69,0.499,-0.56,0.28,-1.61
1743435990.839839,-0.545,0.688,0.5,-0.49,0.14,-1.26
1743435990.859839,-0.545,0.688,0.502,-0.35,-0.49,-1.19
1743435990.879839,-0.545,0.683,0.506,-0.14,-1.05,-1.26
1743435990.899839,-0.546,0.684,0.508,0.07,-1.54,-1.33
1743435990.919839,-0.544,0.684,0.508,0.42,-1.89,-1.33
1743435990.939839,-0.543,0.686,0.51,0.7,-2.52,-1.12
1743435990.9598389,-0.542,0.682,0.507,0.84,-2.73,-0.84
1743435990.9798388,-0.543,0.682,0.507,0.98,-2.73,-0.42
1743435990.9998388,-0.541,0.684,0.506,0.91,-2.73,-0.28
1743435991.0198388,-0.541,0.686,0.505,0.91,-2.59,-0.07
1743435991.0398388,-0.543,0.684,0.507,0.91,-2.45,0.0
1743435991.0598388,-0.544,0.685,0.505,1.05,-2.87,-0.14
1743435991.0798388,-0.544,0.688,0.508,1.12,-3.22,-0.42
1743435991.0998387,-0.543,0.688,0.509,1.47,-3.43,-0.56
1743435991.1198387,-0.543,0.69,0.508,1.54,-3.43,-0.49
1743435991.1398387,-0.543,0.691,0.509,1.33,-3.15,-0.28
1743435991.159839,-0.542,0.689,0.507,1.12,-2.8,-0.28
1743435991.179839,-0.543,0.686,0.504,0.7,-2.03,-0.28
1743435991.1998386,-0.539,0.682,0.498,0.56,-1.12,-0.35
1743435991.2198386,-0.54,0.683,0.499,0.35,-0.77,-0.49
1743435991.2398386,-0.541,0.683,0.495,0.21,-0.56,-0.7
1743435991.2598386,-0.545,0.688,0.496,0.0,-0.35,-0.63
1743435991.2798386,-0.549,0.69,0.5,-0.14,-0.42,-0.7
1743435991.2998383,-0.551,0.694,0.503,-0.42,-0.56,-0.77
1743435991.3198383,-0.552,0.695,0.505,-0.56,-1.12,-0.77
1743435991.3398385,-0.552,0.696,0.508,-0.77,-1.4,-1.12
1743435991.3598385,-0.553,0.691,0.508,-0.56,-2.03,-1.4
1743435991.3798385,-0.549,0.692,0.509,-0.35,-2.31,-1.4
1743435991.3998384,-0.546,0.689,0.508,0.0,-2.31,-1.61
1743435991.4198384,-0.546,0.685,0.508,0.21,-2.31,-1.68
1743435991.4398384,-0.543,0.682,0.506,0.56,-2.1,-1.47
1743435991.4598384,-0.544,0.683,0.505,0.56,-1.89,-0.98
1743435991.4798384,-0.542,0.682,0.502,0.63,-1.82,-0.56
1743435991.4998384,-0.543,0.684,0.501,0.49,-1.68,-0.28
1743435991.5198383,-0.545,0.684,0.502,0.49,-1.75,0.07
1743435991.5398383,-0.543,0.685,0.501,0.21,-1.89,0.07
1743435991.5598383,-0.546,0.685,0.502,0.35,-2.66,-0.07
1743435991.5798385,-0.544,0.685,0.501,0.42,-3.08,-0.14
1743435991.5998385,-0.544,0.687,0.505,0.49,-3.36,-0.42
1743435991.6198382,-0.544,0.683,0.503,0.49,-3.57,-0.35
1743435991.6398382,-0.545,0.685,0.508,0.42,-3.64,-0.42
1743435991.6598382,-0.544,0.686,0.502,0.28,-3.5,-0.49
1743435991.6798382,-0.543,0.683,0.501,0.14,-2.66,-0.42
1743435991.6998382,-0.544,0.686,0.501,0.28,-2.38,-0.21
1743435991.719838,-0.544,0.684,0.501,0.28,-1.75,-0.14
1743435991.739838,-0.543,0.687,0.502,0.35,-1.47,-0.21
1743435991.759838,-0.547,0.688,0.503,0.35,-1.33,-0.49
1743435991.779838,-0.547,0.688,0.506,0.35,-1.4,-0.63
1743435991.799838,-0.546,0.689,0.507,0.28,-1.96,-0.84
1743435991.819838,-0.548,0.687,0.507,0.49,-2.38,-0.84
1743435991.839838,-0.549,0.689,0.507,0.49,-2.24,-0.63
1743435991.859838,-0.549,0.688,0.506,0.35,-2.87,-0.56
1743435991.879838,-0.549,0.687,0.508,0.7,-2.87,-0.56
1743435991.899838,-0.546,0.686,0.504,0.63,-2.8,-0.42
1743435991.919838,-0.546,0.687,0.504,0.35,-2.52,-0.28
1743435991.939838,-0.545,0.685,0.504,0.28,-2.24,-0.21
1743435991.959838,-0.545,0.685,0.502,0.35,-2.24,-0.21
1743435991.979838,-0.548,0.688,0.504,0.49,-2.38,-0.07
1743435991.999838,-0.546,0.688,0.502,0.42,-2.66,0.0
1743435992.019838,-0.546,0.689,0.505,0.49,-2.94,-0.07
1743435992.0398378,-0.546,0.684,0.504,0.63,-3.5,-0.07
1743435992.0598378,-0.545,0.685,0.504,0.98,-3.85,0.07
1743435992.0798378,-0.544,0.684,0.504,1.19,-3.78,0.07
1743435992.0998378,-0.543,0.685,0.507,1.19,-3.64,0.28
1743435992.1198378,-0.544,0.686,0.501,1.12,-3.43,0.35
1743435992.1398375,-0.544,0.687,0.501,0.77,-3.08,0.42
1743435992.1598375,-0.545,0.687,0.503,0.91,-3.15,0.49
1743435992.1798377,-0.547,0.686,0.505,1.05,-3.64,0.56
1743435992.1998377,-0.545,0.685,0.502,1.33,-4.27,0.56
1743435992.2198377,-0.548,0.685,0.502,1.61,-5.18,0.49
1743435992.2398376,-0.545,0.687,0.503,2.52,-6.58,0.42
1743435992.2598376,-0.543,0.686,0.499,2.45,-6.86,0.42
1743435992.2798376,-0.544,0.689,0.502,2.24,-6.79,0.77
1743435992.2998376,-0.543,0.688,0.5,2.17,-6.16,0.77
1743435992.3198376,-0.54,0.688,0.504,1.96,-5.32,0.84
1743435992.3398376,-0.538,0.689,0.506,1.82,-4.76,0.63
1743435992.3598375,-0.539,0.691,0.506,1.19,-3.92,0.63
1743435992.3798375,-0.54,0.691,0.508,0.42,-3.29,0.14
1743435992.3998375,-0.542,0.692,0.509,0.21,-3.08,-0.07
1743435992.4198377,-0.545,0.69,0.509,0.35,-3.08,-0.28
1743435992.4398377,-0.545,0.691,0.508,0.91,-3.57,-0.56
1743435992.4598374,-0.542,0.691,0.507,1.4,-3.57,-0.56
1743435992.4798374,-0.544,0.691,0.503,1.33,-2.94,-0.42
1743435992.4998374,-0.542,0.691,0.504,1.05,-2.59,-0.42
1743435992.5198374,-0.541,0.692,0.504,0.63,-2.03,-0.14
1743435992.5398374,-0.538,0.69,0.503,0.35,-1.47,-0.14
1743435992.559837,-0.539,0.685,0.507,0.49,-1.68,-0.21
1743435992.579837,-0.54,0.686,0.507,0.84,-2.1,-0.42
1743435992.5998373,-0.541,0.689,0.51,1.19,-2.73,-0.49
1743435992.6198373,-0.543,0.691,0.509,1.26,-2.87,-0.49
1743435992.6398373,-0.543,0.695,0.508,0.84,-2.94,-0.28
1743435992.6598372,-0.544,0.695,0.506,0.49,-2.8,-0.42
1743435992.6798372,-0.543,0.693,0.504,0.14,-2.87,-0.35
1743435992.6998372,-0.543,0.688,0.501,0.07,-3.15,-0.42
1743435992.7198372,-0.541,0.686,0.496,0.56,-3.43,-0.49
1743435992.7398372,-0.541,0.685,0.497,0.7,-3.57,-0.56
1743435992.7598372,-0.54,0.685,0.497,1.05,-3.22,-0.49
1743435992.7798371,-0.541,0.687,0.5,1.05,-3.15,-0.28
1743435992.799837,-0.539,0.691,0.502,0.28,-1.82,-0.21
1743435992.819837,-0.542,0.693,0.507,0.0,-1.61,0.0
1743435992.839837,-0.546,0.691,0.509,-0.14,-2.03,0.07
1743435992.859837,-0.543,0.694,0.513,-0.21,-2.87,0.07
1743435992.879837,-0.547,0.692,0.511,0.56,-4.27,0.0
1743435992.899837,-0.546,0.692,0.508,0.84,-4.97,-0.14
1743435992.919837,-0.544,0.694,0.508,0.91,-5.18,-0.28
1743435992.939837,-0.541,0.691,0.505,0.77,-4.97,-0.28
1743435992.959837,-0.54,0.69,0.507,0.63,-4.2,-0.28
1743435992.979837,-0.537,0.688,0.504,0.49,-3.85,-0.21
1743435992.999837,-0.538,0.687,0.503,0.49,-3.15,-0.07
1743435993.019837,-0.538,0.689,0.504,0.7,-2.66,0.0
1743435993.039837,-0.538,0.689,0.506,0.7,-2.1,0.07
1743435993.0598369,-0.537,0.689,0.508,0.49,-1.75,0.0
1743435993.0798368,-0.539,0.689,0.508,0.42,-1.54,-0.21
1743435993.0998368,-0.54,0.69,0.507,0.21,-1.47,-0.35
1743435993.1198368,-0.54,0.691,0.503,0.28,-1.47,-0.63
1743435993.1398368,-0.541,0.692,0.506,0.14,-1.47,-0.7
1743435993.1598368,-0.54,0.692,0.506,0.14,-1.4,-0.84
1743435993.1798368,-0.538,0.692,0.503,0.0,-1.12,-0.98
1743435993.1998367,-0.538,0.689,0.503,-0.28,-0.91,-0.98
1743435993.2198367,-0.536,0.687,0.505,-0.28,-0.63,-0.84
1743435993.2398367,-0.54,0.687,0.504,-0.28,-0.7,-0.63
1743435993.259837,-0.541,0.689,0.506,-0.14,-1.05,-0.49
1743435993.279837,-0.545,0.687,0.503,0.35,-2.24,-0.42
1743435993.2998366,-0.543,0.69,0.506,0.7,-3.01,-0.21
1743435993.3198366,-0.545,0.69,0.503,0.91,-3.5,-0.14
1743435993.3398366,-0.543,0.693,0.504,0.98,-3.92,0.14
1743435993.3598366,-0.541,0.688,0.504,0.98,-3.92,0.14
1743435993.3798366,-0.54,0.689,0.503,0.98,-3.85,0.14
1743435993.3998363,-0.539,0.687,0.505,0.98,-3.92,0.14
1743435993.4198363,-0.539,0.684,0.503,1.26,-4.13,0.35
1743435993.4398365,-0.539,0.688,0.505,1.4,-4.2,0.42
1743435993.4598365,-0.54,0.688,0.504,1.4,-4.13,0.49
1743435993.4798365,-0.54,0.691,0.506,1.12,-3.92,0.63
1743435993.4998364,-0.54,0.694,0.51,0.63,-3.78,0.7
1743435993.5198364,-0.542,0.692,0.508,0.49,-3.78,0.35
1743435993.5398364,-0.538,0.692,0.507,0.49,-3.71,0.21
1743435993.5598364,-0.541,0.691,0.506,0.49,-3.85,0.07
1743435993.5798364,-0.539,0.693,0.508,0.63,-3.85,-0.14
1743435993.5998363,-0.539,0.692,0.507,0.63,-3.78,-0.28
1743435993.6198363,-0.539,0.691,0.505,0.49,-3.29,-0.14
1743435993.6398363,-0.539,0.692,0.505,0.49,-3.08,0.14
1743435993.6598363,-0.537,0.691,0.505,0.42,-2.87,0.28
1743435993.6798365,-0.538,0.69,0.505,0.49,-2.94,0.21
1743435993.6998365,-0.538,0.688,0.503,0.63,-3.22,0.21
1743435993.7198362,-0.538,0.69,0.503,0.77,-3.29,0.0
1743435993.7398362,-0.539,0.689,0.505,0.77,-3.08,-0.28
1743435993.7598362,-0.539,0.695,0.508,0.56,-2.73,-0.28
1743435993.7798362,-0.539,0.694,0.506,0.28,-2.24,-0.42
1743435993.7998362,-0.538,0.692,0.508,0.14,-1.96,-0.49
1743435993.819836,-0.537,0.693,0.509,-0.14,-2.31,-0.7
1743435993.839836,-0.537,0.692,0.51,0.07,-2.59,-0.7
1743435993.859836,-0.539,0.691,0.509,0.21,-2.66,-0.7
1743435993.879836,-0.537,0.692,0.506,0.35,-2.52,-0.49
1743435993.899836,-0.537,0.691,0.504,0.14,-2.03,-0.49
1743435993.919836,-0.537,0.689,0.505,0.14,-1.96,-0.49
1743435993.939836,-0.539,0.688,0.502,0.35,-2.1,-0.21
1743435993.959836,-0.541,0.689,0.504,0.98,-2.31,-0.07
1743435993.979836,-0.54,0.691,0.506,0.98,-2.31,0.21
1743435993.999836,-0.537,0.692,0.506,0.42,-2.73,0.42
1743435994.019836,-0.536,0.692,0.508,0.35,-2.87,0.35
1743435994.039836,-0.536,0.689,0.508,0.35,-3.57,0.21
1743435994.059836,-0.537,0.688,0.508,0.77,-5.11,0.0
1743435994.079836,-0.535,0.684,0.508,1.96,-6.51,0.07
1743435994.099836,-0.532,0.686,0.507,2.52,-7.42,0.07
1743435994.119836,-0.532,0.688,0.504,2.38,-7.56,0.49
1743435994.1398358,-0.532,0.69,0.502,2.38,-6.72,0.98
1743435994.1598358,-0.536,0.692,0.504,1.75,-5.6,1.26
1743435994.1798358,-0.536,0.696,0.506,1.47,-4.27,1.4
1743435994.1998358,-0.534,0.697,0.507,0.84,-3.15,1.4
1743435994.2198358,-0.535,0.696,0.509,0.7,-3.22,0.98
1743435994.2398355,-0.537,0.697,0.515,0.7,-3.5,0.7
1743435994.2598355,-0.537,0.7,0.514,0.63,-3.85,0.42
1743435994.2798357,-0.538,0.701,0.515,0.56,-4.41,0.28
1743435994.2998357,-0.538,0.701,0.511,0.84,-4.06,0.07
1743435994.3198357,-0.539,0.699,0.511,0.91,-3.85,0.0
1743435994.3398356,-0.533,0.695,0.51,0.35,-3.15,-0.21
1743435994.3598356,-0.528,0.692,0.509,0.07,-2.38,-0.49
1743435994.3798356,-0.531,0.69,0.51,-0.07,-2.03,-0.49
1743435994.3998356,-0.531,0.69,0.508,0.21,-1.75,-0.35
1743435994.4198356,-0.531,0.69,0.506,0.56,-1.89,0.0
1743435994.4398355,-0.531,0.69,0.506,0.77,-2.31,0.14
1743435994.4598355,-0.534,0.692,0.504,0.84,-3.01,0.28
1743435994.4798355,-0.536,0.695,0.506,0.91,-3.57,0.35
1743435994.4998355,-0.535,0.696,0.506,0.98,-3.92,0.42
1743435994.5198357,-0.532,0.693,0.506,0.91,-4.2,0.42
1743435994.5398357,-0.533,0.696,0.505,0.91,-4.2,0.35
1743435994.5598354,-0.531,0.694,0.507,0.98,-3.92,0.14
1743435994.5798354,-0.53,0.694,0.507,0.7,-3.5,0.07
1743435994.5998354,-0.529,0.696,0.507,0.49,-3.5,0.21
1743435994.6198354,-0.531,0.694,0.512,0.21,-3.08,0.14
1743435994.6398354,-0.534,0.696,0.513,0.21,-3.08,0.14
1743435994.659835,-0.531,0.696,0.509,0.21,-3.29,0.14
1743435994.679835,-0.533,0.699,0.511,0.49,-3.71,0.14
1743435994.6998353,-0.533,0.698,0.512,0.42,-3.78,0.21
1743435994.7198353,-0.534,0.7,0.51,0.63,-3.5,0.07
1743435994.7398353,-0.533,0.699,0.508,0.49,-2.94,-0.21
1743435994.7598352,-0.531,0.696,0.508,0.28,-2.24,-0.42
1743435994.7798352,-0.529,0.693,0.509,0.14,-1.61,-0.56
1743435994.7998352,-0.531,0.691,0.513,0.07,-1.61,-0.7
1743435994.8198352,-0.528,0.693,0.51,0.21,-1.89,-0.56
1743435994.8398352,-0.53,0.693,0.511,0.49,-1.96,-0.35
1743435994.8598351,-0.53,0.693,0.508,0.49,-2.38,-0.14
1743435994.8798351,-0.532,0.698,0.508,0.35,-2.38,0.14
1743435994.899835,-0.533,0.696,0.508,0.14,-2.59,0.21
1743435994.919835,-0.532,0.697,0.508,0.07,-2.52,0.07
1743435994.939835,-0.531,0.694,0.51,0.0,-2.45,-0.07
1743435994.959835,-0.53,0.691,0.512,0.07,-3.01,-0.21
1743435994.979835,-0.529,0.691,0.513,0.35,-3.36,-0.42
1743435994.999835,-0.529,0.694,0.512,0.56,-3.5,-0.42
1743435995.019835,-0.53,0.701,0.508,1.4,-1.05,-0.84
1743435995.039835,-0.528,0.71,0.508,-2.17,5.74,-1.61
1743435995.059835,-0.529,0.705,0.514,-3.92,9.45,-3.43
1743435995.079835,-0.532,0.699,0.516,-4.41,10.5,-4.97
1743435995.099835,-0.539,0.69,0.518,-3.15,7.14,-5.18
1743435995.119835,-0.544,0.689,0.516,-0.84,4.97,-4.76
1743435995.139835,-0.542,0.691,0.509,-0.21,2.66,-3.92
1743435995.1598349,-0.54,0.691,0.502,-0.21,1.82,-2.8
1743435995.1798348,-0.539,0.694,0.497,-1.05,2.31,-2.03
1743435995.1998348,-0.536,0.689,0.492,-1.75,3.36,-1.54
1743435995.2198348,-0.538,0.687,0.492,-2.31,4.34,-1.61
1743435995.2398348,-0.537,0.684,0.494,-2.03,3.5,-1.89
1743435995.2598348,-0.541,0.683,0.501,-1.05,1.96,-2.1
1743435995.2798347,-0.543,0.685,0.508,-0.35,-0.56,-2.1
1743435995.2998347,-0.548,0.684,0.509,0.42,-2.45,-1.19
1743435995.3198347,-0.545,0.685,0.51,0.56,-5.6,-0.49
1743435995.3398347,-0.544,0.687,0.505,1.33,-5.53,0.91
1743435995.359835,-0.537,0.69,0.502,0.56,-3.43,0.77
1743435995.379835,-0.535,0.692,0.501,-0.07,-2.1,0.49
1743435995.3998346,-0.535,0.689,0.498,-0.28,-0.21,-0.49
1743435995.4198346,-0.537,0.689,0.503,-0.56,0.49,-1.19
1743435995.4398346,-0.545,0.69,0.509,0.07,-0.35,-1.47
1743435995.4598346,-0.546,0.693,0.513,0.63,-1.75,-1.05
1743435995.4798346,-0.548,0.693,0.514,0.91,-3.43,-0.56
1743435995.4998343,-0.545,0.69,0.509,0.7,-4.48,0.0
1743435995.5198345,-0.541,0.684,0.5,0.91,-6.37,0.21
1743435995.5398345,-0.54,0.679,0.499,1.68,-7.42,0.77
1743435995.5598345,-0.537,0.677,0.495,2.38,-8.54,1.4
1743435995.5798345,-0.538,0.681,0.496,3.43,-9.24,2.03
1743435995.5998344,-0.537,0.688,0.499,3.71,-9.52,2.66
1743435995.6198344,-0.535,0.691,0.501,3.15,-9.03,3.01
1743435995.6398344,-0.538,0.691,0.502,2.94,-8.47,3.01
1743435995.6598344,-0.534,0.692,0.509,2.03,-8.05,2.52
1743435995.6798344,-0.534,0.688,0.513,1.61,-9.66,1.82
1743435995.6998343,-0.534,0.689,0.512,2.31,-11.55,1.68
1743435995.7198343,-0.537,0.691,0.512,2.87,-13.16,2.31
1743435995.7398343,-0.536,0.698,0.509,3.85,-14.7,2.87
1743435995.7598343,-0.536,0.698,0.508,3.29,-13.86,3.43
1743435995.7798345,-0.529,0.702,0.507,2.94,-11.41,3.43
1743435995.7998345,-0.529,0.705,0.508,1.33,-7.84,3.15
1743435995.8198342,-0.527,0.71,0.512,0.28,-3.64,2.73
1743435995.8398342,-0.527,0.704,0.519,-0.35,-1.75,1.68
1743435995.8598342,-0.53,0.701,0.523,-0.14,-0.98,0.35
1743435995.8798342,-0.527,0.696,0.522,0.42,-1.54,-0.84
1743435995.8998342,-0.53,0.697,0.518,0.98,-2.38,-1.68
1743435995.919834,-0.527,0.699,0.511,1.05,-2.03,-1.61
1743435995.939834,-0.527,0.699,0.508,0.28,-0.63,-1.33
1743435995.959834,-0.527,0.7,0.507,-0.84,1.26,-0.77
1743435995.979834,-0.529,0.696,0.506,-1.4,2.1,-0.63
1743435995.999834,-0.529,0.696,0.509,-1.19,1.75,-0.77
1743435996.019834,-0.532,0.695,0.51,-0.7,0.7,-1.05
1743435996.039834,-0.533,0.697,0.509,-0.49,-0.42,-1.19
1743435996.059834,-0.532,0.696,0.509,-0.21,-1.68,-1.19
1743435996.079834,-0.531,0.694,0.508,-0.28,-2.38,-0.91
1743435996.099834,-0.533,0.691,0.503,0.0,-3.15,-0.63
1743435996.119834,-0.532,0.691,0.506,0.42,-3.57,-0.28
1743435996.139834,-0.531,0.693,0.504,0.63,-3.99,0.14
1743435996.159834,-0.529,0.694,0.506,0.98,-3.92,0.49
1743435996.179834,-0.529,0.699,0.508,0.77,-2.94,0.42
1743435996.199834,-0.528,0.697,0.512,0.56,-2.31,0.21
1743435996.219834,-0.531,0.699,0.519,0.14,-1.82,-0.28
1743435996.2398338,-0.529,0.694,0.522,0.07,-2.24,-0.91
1743435996.2598338,-0.533,0.694,0.517,0.56,-2.73,-1.12
1743435996.2798338,-0.529,0.695,0.515,0.7,-3.01,-1.05
1743435996.2998338,-0.531,0.696,0.507,0.42,-2.87,-0.56
1743435996.3198338,-0.53,0.698,0.503,-0.63,-1.82,-0.28
1743435996.3398335,-0.53,0.694,0.503,-0.84,-1.54,0.14
1743435996.3598337,-0.53,0.694,0.504,-0.84,-1.89,0.14
1743435996.3798337,-0.53,0.695,0.508,-0.35,-2.03,0.21
1743435996.3998337,-0.53,0.695,0.511,0.14,-2.66,0.07
1743435996.4198337,-0.53,0.697,0.514,0.49,-2.94,-0.07
1743435996.4398336,-0.529,0.696,0.515,0.84,-2.8,-0.07
1743435996.4598336,-0.529,0.697,0.514,0.84,-1.68,0.07
1743435996.4798336,-0.525,0.695,0.516,-0.14,-1.4,-0.07
1743435996.4998336,-0.528,0.693,0.514,0.21,-0.63,-0.14
1743435996.5198336,-0.529,0.693,0.51,0.42,-0.14,-0.42
1743435996.5398335,-0.529,0.697,0.513,0.21,0.14,-0.49
1743435996.5598335,-0.53,0.696,0.511,0.14,0.35,-0.91
1743435996.5798335,-0.53,0.697,0.512,0.07,0.28,-1.19
1743435996.5998335,-0.53,0.696,0.514,-0.28,-0.14,-1.33
1743435996.6198337,-0.53,0.694,0.512,-0.07,-0.7,-1.75
1743435996.6398337,-0.53,0.693,0.509,0.14,-1.54,-1.75
1743435996.6598334,-0.53,0.693,0.505,-0.14,-1.96,-1.75
1743435996.6798334,-0.53,0.693,0.5,-0.42,-2.1,-0.98
1743435996.6998334,-0.533,0.692,0.498,-0.42,-1.89,-0.28
1743435996.7198334,-0.531,0.695,0.499,-0.28,-1.68,0.14
1743435996.7398334,-0.533,0.696,0.503,-0.35,-1.61,0.35
1743435996.759833,-0.531,0.694,0.503,-0.35,-1.82,0.14
1743435996.7798333,-0.532,0.694,0.508,-0.07,-1.96,0.0
1743435996.7998333,-0.533,0.691,0.513,0.98,-2.59,-0.21
1743435996.8198333,-0.531,0.691,0.518,1.05,-2.73,-0.28
1743435996.8398333,-0.529,0.692,0.516,0.84,-3.15,-0.42
1743435996.8598332,-0.531,0.692,0.517,0.7,-3.99,-0.42
1743435996.8798332,-0.534,0.691,0.513,1.12,-5.53,0.14
1743435996.8998332,-0.54,0.696,0.511,1.61,-5.95,0.35
1743435996.9198332,-0.537,0.699,0.509,2.17,-5.88,1.19
1743435996.9398332,-0.534,0.701,0.51,1.68,-4.34,1.12
1743435996.9598331,-0.529,0.698,0.512,0.49,-3.43,0.56
1743435996.9798331,-0.526,0.697,0.514,0.21,-2.66,-0.49
1743435996.999833,-0.527,0.695,0.515,0.14,-2.73,-1.26
1743435997.019833,-0.529,0.69,0.516,1.4,-2.8,-1.82
1743435997.039833,-0.528,0.7,0.51,1.68,-2.1,-1.54
1743435997.059833,-0.529,0.699,0.509,0.91,-1.05,-0.77
1743435997.079833,-0.527,0.7,0.506,-0.56,1.12,-0.56
1743435997.099833,-0.529,0.699,0.498,-1.89,2.59,-0.49
1743435997.119833,-0.532,0.692,0.499,-1.82,2.8,-0.77
1743435997.139833,-0.533,0.691,0.503,-1.33,2.1,-1.33
1743435997.159833,-0.532,0.691,0.513,-0.91,1.4,-1.75
1743435997.179833,-0.535,0.695,0.516,-0.42,-0.77,-1.54
1743435997.199833,-0.536,0.696,0.513,-0.14,-1.61,-0.98
1743435997.219833,-0.537,0.694,0.514,-0.07,-2.38,-0.28
1743435997.2398329,-0.533,0.69,0.51,0.07,-3.92,0.0
1743435997.2598329,-0.534,0.688,0.506,0.42,-4.41,0.0
1743435997.2798328,-0.532,0.688,0.502,1.05,-5.46,0.07
1743435997.2998328,-0.534,0.691,0.504,1.54,-5.74,0.21
1743435997.3198328,-0.531,0.692,0.506,1.96,-6.02,0.42
1743435997.3398328,-0.533,0.696,0.509,2.03,-5.95,0.77
1743435997.3598328,-0.53,0.697,0.514,1.54,-5.53,0.84
1743435997.3798327,-0.528,0.694,0.514,1.47,-5.11,0.56
1743435997.3998327,-0.528,0.693,0.514,1.33,-4.55,0.07
1743435997.4198327,-0.526,0.696,0.514,1.19,-3.57,-0.35
1743435997.4398327,-0.528,0.697,0.513,0.7,-2.38,-0.49
1743435997.459833,-0.53,0.7,0.512,0.14,-1.4,-0.7
1743435997.4798326,-0.531,0.698,0.511,-0.07,-0.28,-0.7
1743435997.4998326,-0.529,0.694,0.511,-0.42,0.07,-0.7
1743435997.5198326,-0.53,0.694,0.512,-0.56,0.21,-0.84
1743435997.5398326,-0.53,0.695,0.512,-0.49,0.0,-0.91
1743435997.5598326,-0.533,0.697,0.513,-0.28,-0.14,-0.84
1743435997.5798326,-0.535,0.696,0.514,-0.35,-0.21,-0.84
1743435997.5998323,-0.535,0.697,0.508,-0.42,-0.35,-0.98
1743435997.6198325,-0.534,0.696,0.508,-0.28,-0.77,-1.05
1743435997.6398325,-0.536,0.693,0.508,-0.28,-0.91,-1.47
1743435997.6598325,-0.538,0.697,0.505,0.84,0.56,-2.73
1743435997.6798325,-0.53,0.719,0.505,-2.03,9.24,-3.08
1743435997.6998324,-0.533,0.721,0.507,-3.64,15.75,-7.28
1743435997.7198324,-0.538,0.726,0.515,-7.7,26.04,-9.94
1743435997.7398324,-0.546,0.712,0.529,-8.75,28.21,-13.16
1743435997.7598324,-0.561,0.694,0.532,-6.3,23.87,-13.93
1743435997.7798324,-0.567,0.688,0.532,-4.83,17.5,-13.37
1743435997.7998323,-0.568,0.68,0.524,-1.47,5.11,-11.83
1743435997.8198323,-0.573,0.677,0.504,2.31,-3.15,-8.05
1743435997.8398323,-0.568,0.68,0.476,2.87,-7.14,-3.29
1743435997.8598323,-0.558,0.674,0.457,3.15,-10.43,1.54
1743435997.8798325,-0.55,0.668,0.451,2.73,-11.13,5.88
1743435997.8998322,-0.54,0.648,0.447,2.45,-13.02,6.93
1743435997.9198322,-0.521,0.624,0.451,3.29,-15.47,6.3
1743435997.9398322,-0.509,0.619,0.46,4.48,-17.71,4.55
1743435997.9598322,-0.511,0.637,0.483,8.26,-20.51,4.34
1743435997.9798322,-0.523,0.658,0.496,9.52,-20.65,5.53
1743435997.9998322,-0.542,0.7,0.526,7.7,-19.67,7.49
1743435998.019832,-0.547,0.715,0.543,4.97,-19.11,10.22
1743435998.039832,-0.549,0.718,0.549,3.43,-19.18,11.41
1743435998.059832,-0.546,0.714,0.547,2.17,-19.39,10.71
1743435998.079832,-0.532,0.701,0.53,2.73,-17.64,7.77
1743435998.099832,-0.523,0.702,0.52,3.43,-15.54,5.39
1743435998.119832,-0.514,0.699,0.51,2.52,-11.13,0.28
1743435998.139832,-0.513,0.702,0.503,1.19,-6.3,-1.61
1743435998.159832,-0.519,0.704,0.5,0.42,-1.19,-3.08
1743435998.179832,-0.531,0.71,0.507,-0.98,3.08,-3.43
1743435998.199832,-0.54,0.718,0.512,-1.89,6.09,-2.66
1743435998.219832,-0.548,0.715,0.515,-2.17,7.56,-1.68
1743435998.239832,-0.539,0.707,0.518,-2.87,7.21,-1.54
1743435998.259832,-0.533,0.698,0.517,-3.01,6.51,-2.45
1743435998.279832,-0.529,0.689,0.508,-2.31,6.3,-3.99
1743435998.299832,-0.529,0.69,0.507,-1.47,7.0,-4.83
1743435998.3198318,-0.533,0.694,0.504,-1.68,7.84,-4.62
1743435998.3398318,-0.537,0.693,0.503,-2.45,7.49,-3.92
1743435998.3598318,-0.541,0.69,0.505,-2.52,5.6,-2.94
1743435998.3798318,-0.541,0.685,0.5,-1.61,2.24,-1.19
1743435998.3998318,-0.543,0.679,0.497,1.19,-4.2,-0.42
1743435998.4198318,-0.539,0.683,0.495,2.87,-6.37,0.07
1743435998.4398315,-0.538,0.688,0.495,2.94,-6.58,0.63
1743435998.4598317,-0.535,0.695,0.501,1.96,-5.18,0.63
1743435998.4798317,-0.534,0.697,0.511,1.19,-3.71,0.49
1743435998.4998317,-0.535,0.693,0.513,0.84,-3.01,0.14
1743435998.5198317,-0.534,0.69,0.517,0.77,-3.01,-0.42
1743435998.5398316,-0.535,0.691,0.514,0.91,-3.29,-0.91
1743435998.5598316,-0.539,0.695,0.511,0.63,-2.73,-1.12
1743435998.5798316,-0.54,0.701,0.505,-0.14,-1.05,-1.05
1743435998.5998316,-0.543,0.702,0.501,-1.33,0.77,-0.98
1743435998.6198316,-0.544,0.698,0.498,-1.89,2.1,-1.19
1743435998.6398315,-0.545,0.697,0.507,-2.38,2.24,-1.33
1743435998.6598315,-0.546,0.693,0.509,-1.96,0.91,-1.61
1743435998.6798315,-0.543,0.692,0.512,-1.05,-0.28,-1.54
1743435998.6998315,-0.544,0.691,0.51,-0.77,-1.68,-1.33
1743435998.7198317,-0.54,0.689,0.508,-0.42,-1.68,-1.05
1743435998.7398314,-0.537,0.688,0.505,-0.21,-1.33,-1.05
1743435998.7598314,-0.534,0.687,0.504,-0.21,-0.07,-0.84
1743435998.7798314,-0.534,0.686,0.502,-0.28,0.84,-1.19
1743435998.7998314,-0.536,0.688,0.505,-0.28,1.75,-1.68
1743435998.8198314,-0.538,0.687,0.506,-0.14,2.1,-2.03
1743435998.8398314,-0.542,0.69,0.508,0.0,2.31,-2.31
1743435998.859831,-0.541,0.692,0.508,-0.07,2.94,-2.66
1743435998.8798313,-0.541,0.694,0.506,-0.63,4.48,-3.15
1743435998.8998313,-0.545,0.694,0.503,-0.98,5.11,-3.57
1743435998.9198313,-0.545,0.691,0.507,-1.96,5.32,-3.99
1743435998.9398313,-0.548,0.69,0.507,-2.31,5.74,-4.55
1743435998.9598312,-0.552,0.692,0.501,-0.63,6.86,-5.11
1743435998.9798312,-0.555,0.696,0.497,-1.05,9.59,-5.6
1743435998.9998312,-0.556,0.701,0.5,-1.75,12.32,-6.58
1743435999.0198312,-0.561,0.702,0.5,-3.08,15.4,-7.21
1743435999.0398312,-0.568,0.694,0.506,-4.13,15.82,-7.84
1743435999.0598311,-0.572,0.691,0.504,-3.36,14.21,-8.05
1743435999.0798311,-0.58,0.695,0.5,-1.89,11.06,-7.0
1743435999.099831,-0.585,0.695,0.494,0.0,5.81,-5.46
1743435999.119831,-0.591,0.701,0.486,2.73,2.59,-4.2
1743435999.139831,-0.59,0.694,0.484,2.52,1.05,-3.43
1743435999.159831,-0.584,0.685,0.475,3.22,-2.59,-2.8
1743435999.179831,-0.582,0.689,0.473,5.32,-5.46,-1.26
1743435999.199831,-0.563,0.677,0.469,7.0,-8.26,-0.35
1743435999.219831,-0.552,0.659,0.469,7.21,-10.01,-0.77
1743435999.239831,-0.54,0.653,0.473,7.49,-11.62,-1.33
1743435999.259831,-0.53,0.651,0.48,6.86,-11.48,-0.77
1743435999.279831,-0.522,0.635,0.489,4.69,-10.36,-1.12
1743435999.299831,-0.521,0.628,0.5,2.59,-8.96,-1.26
1743435999.319831,-0.522,0.64,0.506,3.08,-7.35,1.05
1743435999.3398309,-0.534,0.67,0.509,1.89,-4.69,4.06
1743435999.3598309,-0.556,0.691,0.507,0.56,-2.8,6.3
1743435999.3798308,-0.566,0.703,0.504,-1.96,-2.03,7.56
1743435999.3998308,-0.572,0.701,0.497,-2.73,-3.43,6.72
1743435999.4198308,-0.575,0.695,0.488,-1.54,-8.47,5.04
1743435999.4398308,-0.568,0.686,0.478,2.8,-11.9,2.94
1743435999.4598308,-0.56,0.686,0.481,5.11,-14.21,0.14
1743435999.4798307,-0.553,0.689,0.478,5.39,-14.63,-0.07
1743435999.4998307,-0.551,0.692,0.482,4.9,-11.27,0.42
1743435999.5198307,-0.548,0.69,0.498,2.66,-7.56,1.4
1743435999.5398307,-0.546,0.691,0.508,1.33,-3.99,1.82
1743435999.559831,-0.542,0.691,0.514,0.07,-1.19,1.54
1743435999.5798306,-0.546,0.693,0.522,-0.35,-0.91,0.35
1743435999.5998306,-0.549,0.694,0.515,-0.14,-1.12,-0.21
1743435999.6198306,-0.551,0.698,0.508,0.0,-1.19,-1.33
1743435999.6398306,-0.554,0.696,0.499,0.07,-0.98,-1.75
1743435999.6598306,-0.553,0.694,0.491,-0.42,-0.7,-1.82
1743435999.6798306,-0.553,0.686,0.482,-0.35,-1.05,-1.61
1743435999.6998303,-0.551,0.681,0.48,-0.14,-1.54,-1.47
1743435999.7198305,-0.553,0.68,0.482,1.05,-2.8,-0.77
1743435999.7398305,-0.55,0.682,0.482,1.61,-3.15,-0.07
1743435999.7598305,-0.55,0.691,0.489,1.89,-2.66,0.21
1743435999.7798305,-0.549,0.696,0.501,1.26,-1.26,0.21
1743435999.7998304,-0.549,0.695,0.506,0.7,-0.77,-0.14
1743435999.8198304,-0.548,0.689,0.508,0.49,-1.19,-0.84
1743435999.8398304,-0.548,0.685,0.504,1.26,-2.03,-1.26
1743435999.8598304,-0.548,0.687,0.498,1.33,-2.24,-1.4
1743435999.8798304,-0.549,0.688,0.49,0.98,-2.03,-1.05
1743435999.8998303,-0.551,0.692,0.484,0.28,-1.75,-0.56
1743435999.9198303,-0.557,0.693,0.484,-0.07,-1.54,-0.35
1743435999.9398303,-0.561,0.693,0.486,-0.07,-1.47,-0.21
1743435999.9598303,-0.559,0.693,0.488,0.14,-1.4,-0.21
1743435999.9798305,-0.559,0.697,0.494,0.14,-2.17,-0.49
1743435999.9998302,-0.555,0.694,0.498,-0.14,-2.24,-0.56
1743436000.0198302,-0.556,0.694,0.501,-0.28,-2.03,-1.12
1743436000.0398302,-0.549,0.69,0.501,-0.49,-1.19,-1.4
1743436000.0598302,-0.549,0.684,0.498,-0.28,-0.63,-1.26
1743436000.0798302,-0.549,0.686,0.496,-0.42,-0.7,-0.98
1743436000.0998302,-0.549,0.689,0.497,-1.12,-0.14,-0.98
1743436000.11983,-0.554,0.688,0.488,-0.14,0.56,-0.91
1743436000.13983,-0.557,0.695,0.491,-0.91,3.36,-1.12
1743436000.15983,-0.556,0.695,0.491,-2.1,4.9,-1.75
1743436000.17983,-0.557,0.696,0.496,-2.66,5.46,-2.38
1743436000.19983,-0.556,0.689,0.497,-2.66,4.13,-3.5
1743436000.21983,-0.554,0.681,0.499,-1.96,1.47,-3.5
1743436000.23983,-0.56,0.674,0.491,-0.35,-3.43,-2.59
1743436000.25983,-0.555,0.673,0.482,0.7,-6.09,-1.05
1743436000.27983,-0.551,0.67,0.475,0.77,-8.26,1.4
1743436000.29983,-0.551,0.667,0.471,1.33,-10.01,3.99
1743436000.31983,-0.552,0.667,0.468,3.29,-13.23,5.39
1743436000.33983,-0.551,0.671,0.475,4.27,-14.84,6.86
1743436000.35983,-0.546,0.676,0.488,5.46,-16.94,6.93
1743436000.37983,-0.544,0.685,0.493,5.53,-19.67,7.0
1743436000.39983,-0.539,0.686,0.504,5.46,-22.82,7.21
1743436000.4198298,-0.534,0.684,0.51,6.23,-25.13,7.21
1743436000.4398298,-0.535,0.687,0.513,5.74,-24.85,6.86
1743436000.4598298,-0.524,0.686,0.512,5.18,-21.49,6.23
1743436000.4798298,-0.521,0.693,0.515,3.36,-19.46,6.23
1743436000.4998298,-0.521,0.7,0.52,1.61,-15.4,6.65
1743436000.5198298,-0.526,0.702,0.523,0.0,-11.62,6.51
1743436000.5398295,-0.524,0.704,0.522,-1.75,-6.79,5.88
1743436000.5598297,-0.529,0.709,0.518,-2.66,-2.03,4.69
1743436000.5798297,-0.534,0.712,0.511,-3.85,1.54,3.15
1743436000.5998297,-0.54,0.721,0.513,-4.06,4.41,0.42
1743436000.6198297,-0.543,0.724,0.507,-4.2,5.18,-1.26
1743436000.6398296,-0.554,0.727,0.506,-3.22,4.2,-2.45
1743436000.6598296,-0.554,0.719,0.5,-1.61,2.1,-3.5
1743436000.6798296,-0.545,0.708,0.501,-1.19,-1.19,-3.01
1743436000.6998296,-0.54,0.68,0.497,1.19,-3.99,-2.1
1743436000.7198296,-0.521,0.68,0.498,3.29,-2.94,-0.91
1743436000.7398295,-0.515,0.69,0.504,2.17,2.52,0.35
1743436000.7598295,-0.518,0.7,0.516,-0.56,7.0,0.42
1743436000.7798295,-0.526,0.705,0.523,-2.87,9.24,-0.84
1743436000.7998295,-0.539,0.706,0.53,-4.55,6.58,-1.96
1743436000.8198297,-0.551,0.706,0.528,-4.06,-0.98,-3.5
1743436000.8398294,-0.556,0.704,0.508,-1.4,-8.33,-3.15
1743436000.8598294,-0.554,0.7,0.493,1.4,-10.99,-1.54
1743436000.8798294,-0.534,0.695,0.474,1.61,-9.73,-0.49
1743436000.8998294,-0.521,0.682,0.468,0.63,-6.58,0.77
1743436000.9198294,-0.514,0.678,0.476,-0.7,-1.82,1.12
1743436000.939829,-0.515,0.673,0.489,-0.91,-0.7,0.98
1743436000.959829,-0.525,0.678,0.513,1.12,-1.75,0.77
1743436000.9798293,-0.535,0.693,0.528,2.73,-4.83,0.91
1743436000.9998293,-0.539,0.706,0.531,3.15,-7.77,1.19
1743436001.0198293,-0.541,0.71,0.532,2.8,-8.54,1.05
1743436001.0398293,-0.535,0.707,0.523,1.75,-8.54,0.84
1743436001.0598292,-0.531,0.704,0.521,1.75,-6.72,0.14
1743436001.0798292,-0.523,0.69,0.511,1.19,-5.81,-0.56
1743436001.0998292,-0.523,0.685,0.509,0.84,-5.74,-0.28
1743436001.1198292,-0.529,0.688,0.508,0.98,-6.16,0.14
1743436001.1398292,-0.534,0.693,0.503,1.05,-6.86,2.31
1743436001.1598291,-0.535,0.7,0.502,0.98,-7.35,3.57
1743436001.1798291,-0.533,0.701,0.497,1.12,-7.77,4.13
1743436001.199829,-0.53,0.699,0.497,1.05,-7.77,3.64
1743436001.219829,-0.521,0.696,0.498,0.49,-8.19,3.15
1743436001.239829,-0.518,0.685,0.511,0.84,-11.34,2.8
1743436001.259829,-0.521,0.683,0.515,2.38,-17.99,4.27
1743436001.279829,-0.516,0.678,0.519,4.2,-24.78,6.51
1743436001.299829,-0.491,0.664,0.522,3.43,-29.54,7.91
1743436001.319829,-0.484,0.67,0.526,1.33,-29.33,10.15
1743436001.339829,-0.468,0.653,0.517,3.01,-31.15,11.69
1743436001.359829,-0.458,0.656,0.526,-1.75,-29.12,13.3
1743436001.379829,-0.45,0.662,0.536,-4.69,-26.53,14.07
1743436001.399829,-0.461,0.676,0.54,-4.2,-22.82,14.98
1743436001.419829,-0.472,0.692,0.545,-6.51,-16.24,13.65
1743436001.4398289,-0.485,0.71,0.55,-9.24,-6.86,12.04
1743436001.4598289,-0.491,0.72,0.55,-9.52,1.4,8.54
1743436001.4798288,-0.496,0.734,0.539,-9.03,10.36,3.22
1743436001.4998288,-0.593,0.87,0.51,5.39,22.68,8.82
1743436001.5198288,-0.643,0.922,0.591,4.76,16.17,7.35
1743436001.5398288,-0.532,0.822,0.522,3.57,13.51,-9.1
1743436001.5598288,-0.403,0.672,0.477,-13.65,15.05,-25.48
1743436001.5798287,-0.445,0.654,0.48,-11.9,17.15,-30.24
1743436001.5998287,-0.537,0.716,0.538,7.49,17.71,-27.51
1743436001.6198287,-0.566,0.728,0.549,13.44,30.24,-25.27
1743436001.6398287,-0.527,0.729,0.535,2.03,44.03,-23.1
1743436001.659829,-0.505,0.727,0.519,-16.59,50.4,-19.6
1743436001.6798286,-0.53,0.71,0.507,-16.87,50.96,-15.12
1743436001.6998286,-0.565,0.707,0.513,-11.83,45.36,-10.85
1743436001.7198286,-0.586,0.705,0.517,-6.79,39.69,-7.7
1743436001.7398286,-0.604,0.713,0.52,-2.87,28.28,-7.07
1743436001.7598286,-0.613,0.713,0.511,0.07,13.02,-6.58
1743436001.7798283,-0.606,0.709,0.497,5.04,-1.05,-4.9
1743436001.7998283,-0.593,0.691,0.481,9.94,-12.53,-1.89
1743436001.8198285,-0.571,0.669,0.468,14.0,-23.1,-0.7
1743436001.8398285,-0.528,0.631,0.455,18.48,-33.74,-0.21
1743436001.8598285,-0.493,0.603,0.453,17.78,-36.4,-0.56
1743436001.8798285,-0.468,0.586,0.462,16.87,-32.9,-0.56
1743436001.8998284,-0.433,0.579,0.481,12.81,-26.67,1.4
1743436001.9198284,-0.432,0.62,0.519,8.19,-15.19,5.53
1743436001.9398284,-0.465,0.651,0.537,3.71,-7.63,9.38
1743436001.9598284,-0.502,0.708,0.557,-1.19,1.96,14.42
1743436001.9798284,-0.538,0.731,0.567,-8.96,1.33,16.1
1743436001.9998283,-0.561,0.729,0.558,-9.38,-2.1,15.33
1743436002.0198283,-0.562,0.717,0.543,-7.98,-6.58,13.93
1743436002.0398283,-0.558,0.709,0.513,-4.2,-13.37,7.7
1743436002.0598283,-0.549,0.707,0.49,0.07,-15.26,1.4
1743436002.0798285,-0.536,0.715,0.469,3.99,-13.02,-1.89
1743436002.0998282,-0.534,0.724,0.47,3.71,-8.05,-5.46
1743436002.1198282,-0.532,0.732,0.483,1.82,-2.8,-4.97
1743436002.1398282,-0.53,0.72,0.511,-0.49,3.22,-2.52
1743436002.1598282,-0.529,0.684,0.543,-0.98,3.99,-0.42
1743436002.1798282,-0.518,0.679,0.549,0.56,1.61,0.49
1743436002.199828,-0.51,0.676,0.547,1.33,-0.14,0.7
1743436002.219828,-0.515,0.685,0.533,2.31,-0.84,-0.21
1743436002.239828,-0.529,0.71,0.513,0.14,1.89,-0.49
1743436002.259828,-0.537,0.715,0.5,-1.68,3.22,-0.35
1743436002.279828,-0.539,0.711,0.495,-2.38,2.59,-0.35
1743436002.299828,-0.539,0.698,0.489,-1.33,-0.77,-0.49
1743436002.319828,-0.531,0.683,0.486,1.68,-7.0,-0.35
1743436002.339828,-0.525,0.679,0.487,4.2,-9.45,-0.07
1743436002.359828,-0.521,0.685,0.492,4.62,-8.4,0.49
1743436002.379828,-0.517,0.695,0.503,3.29,-6.3,1.19
1743436002.399828,-0.52,0.701,0.512,2.1,-4.9,1.68
1743436002.419828,-0.527,0.7,0.521,1.54,-4.48,2.03
1743436002.439828,-0.53,0.703,0.525,2.03,-5.53,1.75
1743436002.459828,-0.53,0.705,0.526,2.66,-7.77,1.54
1743436002.479828,-0.53,0.707,0.523,3.15,-9.17,1.33
1743436002.499828,-0.528,0.708,0.52,2.73,-9.17,0.98
1743436002.5198278,-0.522,0.707,0.513,1.82,-7.77,0.7
1743436002.5398278,-0.519,0.704,0.513,0.7,-4.06,0.56
1743436002.5598278,-0.518,0.702,0.514,-0.7,-2.59,0.42
1743436002.5798278,-0.519,0.703,0.514,-1.12,-1.82,0.49
1743436002.5998278,-0.523,0.705,0.511,-0.91,-1.54,0.35
1743436002.6198275,-0.523,0.704,0.508,-0.77,-1.26,0.07
1743436002.6398275,-0.524,0.704,0.501,-0.91,-0.42,-0.42
1743436002.6598277,-0.52,0.704,0.502,-1.33,0.21,-0.91
1743436002.6798277,-0.521,0.7,0.504,-1.54,1.26,-1.61
1743436002.6998277,-0.522,0.698,0.508,-1.26,1.68,-1.68
1743436002.7198277,-0.522,0.698,0.515,-0.98,1.47,-1.68
1743436002.7398276,-0.527,0.699,0.518,-0.63,0.35,-1.33
1743436002.7598276,-0.528,0.698,0.521,-0.21,-1.54,-0.91
1743436002.7798276,-0.529,0.699,0.518,0.21,-3.22,-0.49
1743436002.7998276,-0.524,0.699,0.516,0.84,-4.9,-0.28
1743436002.8198276,-0.524,0.697,0.512,1.19,-5.25,-0.14
1743436002.8398275,-0.52,0.699,0.511,0.91,-4.69,0.07
1743436002.8598275,-0.519,0.695,0.511,0.7,-3.64,0.14
1743436002.8798275,-0.519,0.697,0.512,0.56,-2.87,0.21
1743436002.8998277,-0.519,0.698,0.51,0.63,-2.59,0.28
1743436002.9198277,-0.52,0.698,0.51,0.56,-2.52,0.28
1743436002.9398274,-0.522,0.701,0.508,0.28,-2.45,0.21
1743436002.9598274,-0.521,0.699,0.508,0.0,-2.38,-0.14
1743436002.9798274,-0.519,0.697,0.51,0.0,-1.82,-0.28
1743436002.9998274,-0.518,0.696,0.509,0.21,-1.33,-0.56
1743436003.0198274,-0.518,0.698,0.509,0.28,-0.98,-0.7
1743436003.039827,-0.523,0.702,0.514,0.14,-0.07,-0.7
1743436003.059827,-0.523,0.701,0.518,0.0,-0.21,-0.77
1743436003.0798273,-0.526,0.701,0.515,0.21,-0.91,-0.7
1743436003.0998273,-0.525,0.7,0.513,0.56,-2.66,-0.7
1743436003.1198273,-0.527,0.696,0.511,1.19,-3.64,-0.77
1743436003.1398273,-0.526,0.701,0.507,1.47,-4.06,-0.49
1743436003.1598272,-0.526,0.699,0.507,1.54,-3.99,-0.21
1743436003.1798272,-0.524,0.703,0.508,1.47,-3.57,0.07
1743436003.1998272,-0.525,0.702,0.511,0.98,-2.73,-0.07
1743436003.2198272,-0.522,0.706,0.516,0.35,-1.75,-0.49
1743436003.2398272,-0.525,0.707,0.516,0.07,-0.7,-1.4
1743436003.2598271,-0.524,0.706,0.515,-0.28,1.4,-2.1
1743436003.279827,-0.52,0.701,0.516,-0.91,3.5,-2.59
1743436003.299827,-0.518,0.698,0.515,-1.61,4.13,-3.29
1743436003.319827,-0.523,0.698,0.509,-1.75,3.71,-3.15
1743436003.339827,-0.528,0.698,0.508,-1.4,2.73,-2.45
1743436003.359827,-0.533,0.702,0.501,-0.98,1.47,-1.61
1743436003.379827,-0.53,0.699,0.499,-1.19,1.05,-0.91
1743436003.399827,-0.531,0.697,0.501,-1.47,0.7,-0.84
1743436003.419827,-0.529,0.693,0.506,-1.26,0.21,-1.33
1743436003.439827,-0.527,0.693,0.514,0.0,-1.47,-1.54
1743436003.459827,-0.531,0.697,0.522,0.77,-2.31,-1.47
1743436003.479827,-0.531,0.701,0.523,1.19,-2.8,-0.84
1743436003.499827,-0.531,0.707,0.518,0.91,-2.59,-0.21
1743436003.519827,-0.529,0.699,0.511,0.49,-2.52,-0.14
1743436003.5398269,-0.526,0.692,0.507,0.56,-2.38,-0.56
1743436003.5598269,-0.527,0.688,0.504,0.91,-1.68,-1.12
1743436003.5798268,-0.524,0.69,0.504,0.84,-0.84,-1.26
1743436003.5998268,-0.527,0.696,0.507,-0.21,0.84,-0.98
1743436003.6198268,-0.528,0.698,0.508,-0.7,1.12,-0.49
1743436003.6398268,-0.534,0.699,0.508,-0.7,0.49,-0.14
1743436003.6598268,-0.535,0.701,0.51,-0.14,-0.84,-0.14
1743436003.6798267,-0.536,0.698,0.511,0.35,-2.1,-0.35
1743436003.6998267,-0.535,0.696,0.508,0.56,-2.8,-0.63
1743436003.7198267,-0.53,0.693,0.505,0.56,-3.01,-1.05
1743436003.739827,-0.527,0.687,0.506,0.63,-2.87,-0.84
1743436003.759827,-0.525,0.686,0.502,0.63,-2.87,-0.49
1743436003.7798266,-0.526,0.689,0.502,0.91,-2.73,-0.07
1743436003.7998266,-0.527,0.695,0.5,1.19,-2.59,0.21
1743436003.8198266,-0.53,0.699,0.502,1.54,-2.17,0.0
1743436003.8398266,-0.534,0.704,0.507,1.61,-1.96,-0.63
1743436003.8598266,-0.533,0.703,0.514,1.47,-2.38,-1.33
1743436003.8798263,-0.532,0.7,0.521,1.75,-2.59,-1.82
1743436003.8998263,-0.529,0.696,0.519,1.47,-2.24,-1.75
1743436003.9198265,-0.525,0.693,0.514,0.91,-0.98,-1.26
1743436003.9398265,-0.529,0.696,0.507,0.07,0.07,-0.63
1743436003.9598265,-0.534,0.697,0.504,-0.63,0.56,-0.35
1743436003.9798265,-0.536,0.7,0.499,-0.7,0.14,-0.21
1743436003.9998264,-0.538,0.7,0.493,-0.28,-1.68,-0.84
1743436004.0198264,-0.538,0.699,0.492,0.14,-2.66,-1.33
1743436004.0398264,-0.534,0.696,0.499,0.14,-3.22,-1.47
1743436004.0598264,-0.529,0.693,0.497,0.07,-2.87,-1.68
1743436004.0798264,-0.525,0.691,0.506,-0.28,-2.38,-1.4
1743436004.0998263,-0.531,0.695,0.508,-0.35,-2.1,-1.05
1743436004.1198263,-0.533,0.698,0.511,-0.35,-2.03,-0.07
1743436004.1398263,-0.535,0.695,0.512,-0.49,-4.2,-0.42
1743436004.1598265,-0.541,0.7,0.508,0.91,-7.7,0.14
1743436004.1798265,-0.541,0.698,0.506,1.68,-8.54,-0.07
1743436004.1998262,-0.536,0.702,0.507,1.54,-7.56,0.14
1743436004.2198262,-0.53,0.704,0.514,0.63,-4.83,-0.07
1743436004.2398262,-0.526,0.7,0.527,-0.77,-2.52,-0.14
1743436004.2598262,-0.529,0.699,0.526,-0.49,-2.38,-0.07
1743436004.2798262,-0.531,0.697,0.52,0.21,-2.66,0.07
1743436004.299826,-0.533,0.699,0.507,0.21,-3.01,-0.28
1743436004.319826,-0.529,0.698,0.496,-0.35,-2.24,-0.84
1743436004.339826,-0.528,0.693,0.492,-0.77,-1.05,-1.26
1743436004.359826,-0.528,0.691,0.495,-0.77,0.0,-1.75
1743436004.379826,-0.527,0.692,0.498,-0.63,1.54,-1.68
1743436004.399826,-0.526,0.696,0.513,-0.91,2.94,-1.61
1743436004.419826,-0.532,0.697,0.519,-1.33,3.71,-1.61
1743436004.439826,-0.537,0.696,0.523,-1.75,3.71,-1.75
1743436004.459826,-0.534,0.693,0.52,-1.68,3.01,-2.03
1743436004.479826,-0.535,0.689,0.509,-0.7,1.54,-2.31
1743436004.499826,-0.535,0.687,0.506,-0.42,0.42,-2.66
1743436004.519826,-0.536,0.689,0.501,0.0,-0.28,-2.8
1743436004.539826,-0.536,0.692,0.5,0.49,-0.21,-2.38
1743436004.559826,-0.538,0.699,0.503,0.63,0.35,-1.4
1743436004.579826,-0.536,0.699,0.504,0.21,0.98,-0.91
1743436004.599826,-0.537,0.691,0.51,0.0,0.7,-1.05
1743436004.6198258,-0.535,0.687,0.511,0.63,-0.91,-1.33
1743436004.6398258,-0.534,0.685,0.507,1.61,-1.68,-1.68
1743436004.6598258,-0.535,0.686,0.504,2.31,-1.96,-1.89
1743436004.6798258,-0.537,0.691,0.502,2.31,-1.19,-1.75
1743436004.6998258,-0.538,0.695,0.501,1.19,0.63,-0.98
1743436004.7198255,-0.539,0.695,0.507,0.07,1.19,-0.56
1743436004.7398255,-0.539,0.693,0.51,-0.28,0.98,-0.35
1743436004.7598257,-0.541,0.691,0.508,0.0,-0.91,-0.35
1743436004.7798257,-0.543,0.691,0.505,0.35,-1.54,-0.63
1743436004.7998257,-0.543,0.692,0.498,0.21,-1.75,-0.98
1743436004.8198256,-0.542,0.691,0.498,-0.14,-1.33,-1.19
1743436004.8398256,-0.543,0.694,0.496,-0.56,-1.19,-1.19
1743436004.8598256,-0.545,0.694,0.498,-0.49,-1.47,-0.77
1743436004.8798256,-0.544,0.694,0.505,-0.07,-3.22,-0.49
1743436004.8998256,-0.545,0.693,0.505,0.35,-4.34,-0.28
1743436004.9198256,-0.544,0.691,0.505,0.98,-5.53,0.21
1743436004.9398255,-0.543,0.691,0.502,1.47,-5.6,0.42
1743436004.9598255,-0.537,0.692,0.505,1.4,-4.48,0.28
1743436004.9798255,-0.536,0.691,0.506,0.63,-3.15,-0.14
1743436004.9998257,-0.535,0.691,0.506,0.07,-2.1,-0.35
1743436005.0198257,-0.534,0.69,0.51,-0.35,-1.54,-0.28
1743436005.0398254,-0.538,0.691,0.506,-0.28,-1.68,-0.42
1743436005.0598254,-0.538,0.692,0.501,-0.21,-1.89,-0.35
1743436005.0798254,-0.539,0.693,0.499,-0.28,-1.89,-0.42
1743436005.0998254,-0.537,0.691,0.499,-0.63,-1.26,-0.7
1743436005.1198254,-0.537,0.689,0.501,-0.49,-0.98,-0.98
1743436005.139825,-0.538,0.689,0.504,-0.21,-0.77,-1.12
1743436005.159825,-0.541,0.688,0.503,0.0,-0.91,-1.05
1743436005.1798253,-0.541,0.69,0.504,-0.07,-1.33,-0.77
1743436005.1998253,-0.541,0.692,0.506,0.07,-1.89,-0.28
1743436005.2198253,-0.541,0.691,0.507,0.28,-2.59,0.0
1743436005.2398252,-0.541,0.692,0.506,0.63,-2.94,0.14
1743436005.2598252,-0.54,0.691,0.502,0.77,-3.15,0.21
1743436005.2798252,-0.542,0.689,0.499,0.84,-3.43,0.0
1743436005.2998252,-0.538,0.688,0.502,0.91,-3.99,0.07
1743436005.3198252,-0.54,0.685,0.502,1.12,-4.97,0.35
1743436005.3398252,-0.538,0.686,0.506,1.47,-6.3,0.77
1743436005.3598251,-0.539,0.687,0.505,2.03,-7.28,1.4
1743436005.379825,-0.538,0.691,0.504,2.24,-8.96,2.24
1743436005.399825,-0.536,0.69,0.504,2.59,-10.01,2.87
1743436005.419825,-0.534,0.692,0.504,2.8,-11.13,3.29
1743436005.439825,-0.535,0.696,0.502,2.73,-10.92,3.57
1743436005.459825,-0.529,0.697,0.505,2.45,-9.94,3.15
1743436005.479825,-0.53,0.694,0.506,1.82,-8.61,2.45
1743436005.499825,-0.529,0.699,0.509,1.4,-7.21,1.68
1743436005.519825,-0.529,0.704,0.513,1.05,-5.88,0.84
1743436005.539825,-0.531,0.709,0.512,0.42,-3.01,-0.7
1743436005.559825,-0.531,0.713,0.512,-0.35,1.89,-2.38
1743436005.579825,-0.529,0.712,0.514,-1.96,4.69,-3.92
1743436005.599825,-0.527,0.702,0.515,-3.29,8.61,-6.09
1743436005.619825,-0.529,0.696,0.515,-4.06,8.4,-6.86
1743436005.6398249,-0.532,0.693,0.513,-3.99,7.56,-7.56
1743436005.6598248,-0.539,0.691,0.506,-3.22,5.11,-7.21
1743436005.6798248,-0.542,0.691,0.494,-3.01,4.27,-6.86
1743436005.6998248,-0.544,0.689,0.489,-3.36,3.57,-6.44
1743436005.7198248,-0.544,0.687,0.489,-3.36,2.8,-6.23
1743436005.7398248,-0.545,0.685,0.496,-3.08,1.68,-6.02
1743436005.7598248,-0.545,0.687,0.506,-2.1,0.28,-5.18
1743436005.7798247,-0.546,0.687,0.514,-1.4,-1.05,-4.27
1743436005.7998247,-0.547,0.689,0.517,-1.05,-2.73,-2.24
1743436005.8198247,-0.548,0.686,0.518,-0.98,-3.99,-0.7
1743436005.839825,-0.546,0.681,0.51,-0.07,-6.51,0.35
1743436005.859825,-0.546,0.68,0.507,0.35,-7.63,0.91
1743436005.8798246,-0.545,0.68,0.504,0.98,-8.19,1.4
1743436005.8998246,-0.543,0.684,0.504,1.26,-7.35,1.61
1743436005.9198246,-0.542,0.691,0.509,1.05,-5.25,1.68
1743436005.9398246,-0.541,0.692,0.517,0.42,-3.78,1.89
1743436005.9598246,-0.54,0.692,0.518,0.07,-2.8,1.61
1743436005.9798243,-0.542,0.691,0.52,-0.21,-1.54,1.4
1743436005.9998243,-0.539,0.689,0.52,-0.35,-0.84,1.12
1743436006.0198245,-0.539,0.688,0.516,-0.42,-0.21,0.77
1743436006.0398245,-0.543,0.689,0.51,-0.56,-0.07,0.21
1743436006.0598245,-0.54,0.689,0.509,-0.56,0.7,0.28
1743436006.0798244,-0.541,0.687,0.504,-0.7,1.19,0.21
1743436006.0998244,-0.542,0.69,0.502,-0.84,1.89,0.28
1743436006.1198244,-0.538,0.691,0.504,-0.91,2.38,-0.07
1743436006.1398244,-0.537,0.687,0.507,-0.77,2.52,-0.35
1743436006.1598244,-0.54,0.684,0.507,-0.28,2.1,-0.91
1743436006.1798244,-0.538,0.683,0.504,0.21,1.75,-1.68
1743436006.1998243,-0.538,0.679,0.505,1.05,1.05,-2.52
1743436006.2198243,-0.537,0.68,0.501,1.68,0.35,-2.94
1743436006.2398243,-0.537,0.684,0.502,1.96,-0.63,-2.73
1743436006.2598245,-0.537,0.68,0.501,1.26,-1.47,-1.54
1743436006.2798245,-0.534,0.671,0.501,1.82,-4.83,0.21
1743436006.2998242,-0.538,0.668,0.5,2.66,-8.75,1.89
1743436006.3198242,-0.539,0.67,0.495,3.92,-11.13,3.29
1743436006.3398242,-0.54,0.676,0.489,4.48,-14.07,4.2
1743436006.3598242,-0.541,0.681,0.491,4.41,-16.45,5.11
1743436006.3798242,-0.539,0.69,0.488,3.99,-17.64,4.83
1743436006.399824,-0.537,0.699,0.5,2.38,-16.66,4.9
1743436006.419824,-0.538,0.695,0.508,4.34,-16.66,4.34
1743436006.439824,-0.535,0.694,0.513,3.36,-16.1,3.85
1743436006.459824,-0.537,0.698,0.519,3.36,-15.96,3.36
1743436006.479824,-0.533,0.699,0.528,2.87,-15.4,3.5
1743436006.499824,-0.535,0.701,0.529,2.8,-14.7,3.71
1743436006.519824,-0.53,0.701,0.527,2.17,-13.51,3.85
1743436006.539824,-0.526,0.7,0.525,1.82,-10.99,3.85
1743436006.559824,-0.522,0.701,0.524,0.14,-9.24,3.92
1743436006.579824,-0.523,0.698,0.525,-0.14,-8.19,4.13
1743436006.599824,-0.516,0.694,0.529,-1.75,-9.31,5.18
1743436006.619824,-0.51,0.673,0.529,0.56,-14.98,6.93
1743436006.639824,-0.495,0.649,0.522,1.26,-27.16,9.31
1743436006.659824,-0.489,0.654,0.521,2.45,-32.83,10.64
1743436006.679824,-0.483,0.658,0.518,1.89,-33.74,11.41
1743436006.699824,-0.482,0.667,0.517,-0.77,-25.9,11.06
1743436006.7198238,-0.484,0.702,0.526,-5.11,-15.47,10.5
1743436006.7398238,-0.492,0.721,0.53,-9.31,-4.06,8.89
1743436006.7598238,-0.499,0.736,0.542,-12.88,3.85,5.6
1743436006.7798238,-0.506,0.742,0.54,-12.18,15.54,3.36
