Millis,AccelX,AccelY,AccelZ,GyroX,GyroY,GyroZ
6732101,-0.989,-0.250,0.010,0.000,-2.100,1.540
6732125,-0.984,-0.252,0.011,-0.140,-1.750,1.750
6732145,-0.988,-0.244,0.008,-0.210,-1.820,1.890
6732164,-0.989,-0.243,0.006,-0.630,-2.380,1.890
6732184,-0.988,-0.245,0.005,-0.770,-2.310,2.030
6732203,-0.985,-0.250,0.005,-0.070,-2.170,1.890
6732228,-0.990,-0.245,0.004,0.140,-2.520,2.030
6732248,-0.989,-0.239,0.007,-0.140,-2.660,1.750
6732268,-0.988,-0.247,0.012,0.280,-2.450,1.680
6732287,-0.990,-0.239,0.011,-0.280,-2.520,1.610
6732312,-0.987,-0.243,0.010,-0.420,-2.310,1.330
6732330,-0.988,-0.244,0.010,-0.560,-2.030,1.120
6732348,-0.987,-0.240,0.005,-0.630,-1.960,0.980
6732367,-0.985,-0.242,0.008,0.070,-1.610,0.770
6732391,-0.989,-0.245,0.008,0.140,-1.470,0.560
6732411,-0.989,-0.237,0.007,-0.700,-1.680,0.350
6732432,-0.991,-0.253,0.001,-0.280,-1.610,0.420
6732449,-0.990,-0.245,0.005,0.000,-1.750,0.560
6732473,-0.992,-0.245,0.006,-0.420,-2.240,0.280
6732493,-0.989,-0.244,0.013,0.770,-1.750,0.210
6732512,-0.985,-0.234,0.014,-1.120,-1.750,0.210
6732536,-0.983,-0.254,0.004,-0.770,-1.400,0.350
6732557,-0.991,-0.241,0.000,-1.470,-1.820,0.490
6732576,-0.986,-0.247,-0.000,-1.120,-2.170,0.560
6732600,-0.988,-0.248,0.005,-0.980,-2.660,0.350
6732625,-0.986,-0.248,0.001,-0.350,-2.520,0.350
6732643,-0.986,-0.251,0.000,-0.070,-2.660,0.210
6732666,-0.989,-0.244,0.003,-0.140,-2.730,0.070
6732686,-0.988,-0.244,0.009,0.280,-2.520,0.140
6732704,-0.985,-0.248,0.006,0.000,-2.380,0.070
6732728,-0.986,-0.251,0.009,-0.490,-2.660,0.280
6732748,-0.987,-0.250,0.006,0.000,-2.310,0.350
6732768,-0.984,-0.253,0.004,-0.140,-2.240,0.420
6732787,-0.987,-0.256,0.007,-0.280,-2.310,0.420
6732811,-0.986,-0.248,0.007,0.210,-2.240,0.420
6732829,-0.986,-0.252,0.006,0.420,-2.240,0.280
6732849,-0.987,-0.247,0.009,0.770,-2.240,0.280
6732871,-0.987,-0.250,0.010,0.210,-2.170,0.140
6732895,-0.985,-0.253,0.004,0.070,-2.310,0.280
6732913,-0.989,-0.254,0.010,-0.070,-2.170,0.420
6732932,-0.985,-0.248,0.010,-0.630,-2.170,0.350
6732956,-0.984,-0.250,0.009,-1.050,-1.960,0.420
6732977,-0.984,-0.252,0.005,-1.050,-1.680,0.350
6732996,-0.986,-0.255,0.007,-0.420,-1.120,0.490
6733017,-0.984,-0.260,0.003,-0.840,-1.540,0.700
6733037,-0.988,-0.252,-0.003,-0.910,-1.750,0.770
6733061,-0.983,-0.255,-0.003,-0.490,-2.170,0.840
6733081,-0.984,-0.254,0.005,-0.560,-2.380,0.910
6733097,-0.984,-0.253,0.005,-0.980,-2.450,0.980
6733116,-0.987,-0.258,0.004,-0.490,-2.590,1.190
6733141,-0.985,-0.260,0.001,0.000,-2.100,1.260
6733161,-0.982,-0.258,0.006,-0.280,-2.030,1.190
6733181,-0.980,-0.253,0.007,0.070,-1.820,1.260
6733199,-0.988,-0.247,0.004,0.420,-1.540,1.120
6733216,-0.991,-0.240,0.001,-0.420,-1.890,1.050
6733236,-0.990,-0.257,0.004,0.000,-2.240,0.910
6733261,-0.984,-0.256,0.004,-0.490,-1.960,0.980
6733281,-0.986,-0.251,0.003,-0.840,-2.170,0.980
6733300,-0.985,-0.254,-0.000,-0.420,-2.240,1.050
6733324,-0.985,-0.254,-0.001,-0.350,-1.890,1.190
6733344,-0.988,-0.250,0.002,-0.840,-2.380,1.120
6733361,-0.992,-0.242,0.004,-0.630,-2.520,1.260
6733385,-0.980,-0.269,-0.000,0.560,-1.610,1.190
6733405,-0.987,-0.245,0.001,-0.700,-2.660,1.120
6733425,-0.983,-0.252,0.004,-0.350,-2.310,1.120
6733444,-0.985,-0.255,0.001,-1.190,-2.520,1.260
6733465,-0.986,-0.258,-0.002,-0.840,-2.240,1.610
6733489,-0.985,-0.253,0.001,-0.700,-2.520,1.680
6733509,-0.987,-0.254,0.001,-0.350,-2.520,1.680
6733528,-0.987,-0.256,-0.123,0.000,-2.520,1.820
6733549,-0.985,-0.253,0.000,0.070,-2.590,1.960
6733568,-0.986,-0.253,-0.002,0.280,-2.730,1.890
6733593,-0.987,-0.251,0.001,0.280,-3.150,1.960
6733610,-0.988,-0.257,0.003,0.630,-3.080,2.030
6733632,-0.991,-0.253,0.002,-0.140,-3.640,2.100
6733652,-0.985,-0.251,0.002,0.420,-3.430,1.890
6733676,-0.984,-0.247,0.006,0.350,-3.150,1.820
6733695,-0.988,-0.244,0.012,0.280,-3.080,1.750
6733712,-0.988,-0.250,0.005,0.280,-2.730,1.820
6733731,-0.986,-0.246,0.004,0.140,-2.590,1.820
6733756,-0.988,-0.249,0.009,0.140,-2.590,1.820
6733776,-0.988,-0.249,0.008,-0.350,-2.590,1.610
6733796,-0.987,-0.249,0.004,-0.630,-2.590,1.540
6733815,-0.990,-0.247,0.005,-0.630,-2.660,1.680
6733836,-0.990,-0.247,0.006,-1.190,-2.940,1.610
6733856,-0.989,-0.248,0.002,-0.700,-3.010,1.680
6733875,-0.986,-0.252,0.006,-0.350,-2.940,1.750
6733900,-0.988,-0.250,0.007,-0.560,-2.870,1.750
6733919,-0.989,-0.244,0.007,-0.770,-2.940,1.680
6733943,-0.989,-0.250,0.006,-0.490,-2.870,1.680
6733958,-0.989,-0.247,0.007,-0.350,-3.010,1.540
6733983,-0.987,-0.244,0.006,-0.140,-2.940,1.470
6734001,-0.991,-0.244,0.006,-0.140,-3.080,1.470
6734025,-0.990,-0.244,0.005,0.070,-2.800,1.470
6734045,-0.987,-0.247,0.010,0.210,-2.520,1.540
6734064,-0.985,-0.249,0.005,-0.210,-2.660,1.470
6734085,-0.989,-0.244,0.009,-0.630,-2.590,1.470
6734105,-0.984,-0.243,0.006,-0.630,-2.380,1.400
6734129,-0.989,-0.247,0.009,-0.210,-2.310,1.400
6734149,-0.988,-0.242,0.008,-0.490,-2.590,1.330
6734169,-0.985,-0.245,0.007,-0.420,-2.450,1.330
6734187,-0.988,-0.243,0.009,-0.420,-2.100,1.330
6734210,-0.986,-0.244,0.010,-0.770,-2.100,1.120
6734234,-0.985,-0.248,0.008,-0.350,-2.030,1.190
6734254,-0.989,-0.244,0.005,-0.490,-2.170,1.260
6734274,-0.987,-0.245,0.005,-0.210,-2.310,1.260
6734298,-0.988,-0.247,0.007,0.070,-2.170,1.190
6734317,-0.990,-0.244,0.007,0.280,-2.100,1.120
6734339,-0.988,-0.246,0.008,0.070,-2.240,0.910
6734357,-0.988,-0.241,0.009,-0.350,-2.380,0.910
6734377,-0.990,-0.246,0.005,0.210,-2.170,0.770
6734397,-0.988,-0.245,0.007,0.210,-2.100,0.770
6734421,-0.986,-0.248,0.005,-0.070,-2.170,0.700
6734441,-0.989,-0.244,0.008,-0.560,-2.380,0.630
6734459,-0.989,-0.244,0.005,-0.070,-2.380,0.630
6734483,-0.991,-0.248,0.004,0.210,-2.730,0.630
6734507,-0.988,-0.247,0.004,0.280,-2.800,0.630
6734527,-0.988,-0.248,0.005,0.490,-2.940,0.560
6734547,-0.988,-0.245,0.008,0.770,-2.660,0.490
6734566,-0.989,-0.244,0.007,0.350,-2.800,0.420
6734590,-0.993,-0.246,0.010,0.490,-2.940,0.280
6734614,-0.987,-0.251,0.009,0.770,-2.800,0.280
6734632,-0.985,-0.248,0.010,0.560,-2.940,0.280
6734653,-0.988,-0.248,0.006,0.560,-3.080,0.140
6734672,-0.987,-0.249,0.006,0.840,-3.290,0.070
6734697,-0.988,-0.249,0.013,0.140,-3.500,0.070
6734713,-0.989,-0.264,0.005,0.770,-3.640,0.000
6734737,-0.986,-0.257,0.002,1.820,-3.710,-0.070
6734757,-0.981,-0.260,0.008,4.270,-3.570,0.070
6734777,-0.995,-0.241,0.013,4.690,-3.430,-0.140
6734797,-0.995,-0.267,0.015,3.640,-4.830,-0.700
6734816,-0.977,-0.264,0.011,6.860,-3.290,-0.700
6734838,-0.985,-0.246,0.012,5.950,-4.060,-0.910
6734855,-0.992,-0.229,0.017,5.040,-4.900,-1.610
6734877,-0.983,-0.240,0.032,4.760,-4.200,-2.310
6734896,-1.000,-0.227,0.024,3.220,-4.130,-2.660
6734920,-0.983,-0.248,0.017,2.170,-3.850,-3.430
6734940,-0.983,-0.256,0.023,3.850,-3.500,-3.570
6734959,-0.985,-0.267,0.020,2.660,-4.480,-3.430
6734982,-0.983,-0.250,0.022,4.130,-3.150,-3.710
6735003,-0.989,-0.259,0.016,2.310,-4.900,-4.340
6735022,-0.989,-0.271,0.021,2.030,-5.320,-4.480
6735047,-0.989,-0.258,0.028,4.130,-4.900,-4.900
6735064,-0.983,-0.260,0.021,3.850,-5.390,-5.390
6735087,-0.974,-0.280,0.028,4.970,-5.110,-5.600
6735107,-0.979,-0.271,0.037,2.590,-5.390,-5.600
6735126,-0.985,-0.272,0.027,1.960,-5.740,-6.160
6735146,-0.980,-0.286,0.032,2.100,-6.370,-6.510
6735171,-0.983,-0.271,0.038,4.900,-5.250,-7.420
6735190,-0.982,-0.262,0.043,4.060,-4.410,-8.260
6735214,-0.989,-0.296,0.054,4.200,-4.760,-8.610
6735233,-0.954,-0.291,0.056,4.900,-2.310,-8.540
6735256,-0.983,-0.292,0.063,5.810,-0.350,-8.610
6735277,-0.980,-0.287,0.090,3.780,1.400,-8.960
6735294,-0.960,-0.269,0.086,0.490,3.220,-8.820
6735318,-0.942,-0.316,0.097,-3.010,10.920,-9.520
6735334,-0.944,-0.355,0.113,-4.060,19.600,-8.750
6735356,-0.956,-0.296,0.087,-2.730,26.810,-7.910
6735377,-0.970,-0.311,0.068,-10.570,32.550,-7.350
6735401,-0.981,-0.303,0.032,-18.130,33.810,-4.620
6735421,-1.027,-0.394,-0.041,-24.710,26.880,-2.030
6735441,-0.947,-0.450,-0.097,-19.740,24.570,0.210
6735456,-0.924,-0.529,-0.017,-35.420,12.390,-5.880
6735480,-0.874,-0.588,-0.023,-48.020,1.470,-17.710
6735501,-0.872,-0.691,-0.041,-31.430,1.890,-26.250
6735521,-0.908,-0.588,-0.007,-18.130,-6.650,-33.320
6735545,-0.876,-0.465,0.050,-9.730,-26.950,-41.230
6735562,-0.797,-0.507,-0.091,-27.510,-38.500,-42.000
6735585,-0.948,-0.014,-0.194,3.570,-29.260,-26.810
6735607,-0.898,0.122,-0.889,-35.070,-16.730,-2.800
6735628,-1.397,-0.016,-0.073,-9.450,-19.880,15.540
6735652,-1.125,0.207,0.041,-52.290,-82.740,24.360
6735672,-0.588,-1.162,-0.073,57.330,4.130,4.620
6735692,-1.044,-0.365,0.157,41.160,-12.950,19.810
6735712,-0.957,-0.424,0.093,7.910,-13.930,25.130
6735731,-0.933,-0.261,0.033,2.310,-14.630,22.820
6735752,-0.941,-0.304,0.006,-9.310,-15.960,21.350
6735772,-0.956,-0.403,-0.010,7.000,-11.550,18.620
6735792,-1.025,-0.256,0.032,6.650,-12.880,18.760
6735811,-0.991,-0.302,0.038,-9.590,-18.130,17.500
6735832,-0.976,-0.327,0.019,-4.830,-15.470,16.310
6735852,-1.003,-0.297,0.044,-1.610,-14.350,14.490
6735872,-0.956,-0.330,0.073,3.360,-8.890,12.040
6735895,-0.973,-0.232,0.083,1.750,-5.950,10.570
6735916,-0.976,-0.264,0.061,-3.430,-5.880,8.120
6735936,-0.971,-0.308,0.065,-1.190,-3.570,7.910
6735952,-0.976,-0.284,0.049,0.840,-0.910,7.840
6735976,-0.963,-0.292,0.056,-3.430,-0.770,6.860
6735996,-0.963,-0.266,0.090,-6.580,0.980,7.490
6736016,-0.982,-0.244,0.079,-9.870,3.150,7.070
6736033,-0.980,-0.238,0.071,-15.190,3.430,5.530
6736052,-0.963,-0.332,0.076,-11.200,8.330,4.270
6736072,-0.975,-0.334,0.059,-4.690,12.670,4.130
6736097,-0.977,-0.266,0.043,-12.110,13.230,5.390
6736117,-0.997,-0.294,0.015,-11.900,14.420,4.550
6736137,-0.979,-0.292,-0.006,-14.140,12.950,4.620
6736161,-0.952,-0.297,-0.023,-8.330,14.210,6.160
6736179,-0.961,-0.254,-0.030,-11.760,12.740,7.280
6736197,-0.967,-0.273,-0.034,-8.330,12.040,7.630
6736220,-0.984,-0.255,-0.022,-7.630,11.340,7.490
6736241,-0.960,-0.250,0.023,-10.570,11.200,6.930
6736258,-0.977,-0.380,-0.038,-12.390,10.920,7.630
6736278,-1.006,-0.394,-0.041,2.870,15.750,7.560
6736302,-0.992,-0.235,-0.042,4.060,15.960,9.450
6736317,-1.018,-0.262,0.007,3.500,16.170,8.610
6736340,-0.987,-0.280,-0.004,6.860,18.410,7.210
6736360,-0.938,-0.259,-0.055,1.260,18.900,10.850
6736384,-0.958,-0.314,-0.078,7.700,19.320,13.440
6736404,-1.023,-0.264,-0.073,8.330,20.020,12.040
6736424,-0.984,-0.215,-0.027,0.770,15.540,8.610
6736439,-0.894,-0.251,-0.083,-4.270,19.880,8.610
6736463,-0.872,-0.227,-0.171,6.160,25.480,8.890
6736483,-0.959,-0.144,-0.158,7.770,21.910,7.490
6736502,-0.975,-0.145,-0.095,5.600,20.580,7.840
6736522,-0.931,-0.209,-0.095,-3.150,17.710,9.380
6736546,-0.957,-0.278,-0.138,17.780,24.990,6.650
6736566,-1.022,-0.183,-0.126,12.950,17.570,7.630
6736583,-1.029,-0.203,-0.153,-1.680,8.750,7.840
6736605,-0.979,-0.350,-0.174,-4.550,6.160,6.300
6736624,-0.994,-0.330,-0.129,14.140,11.970,6.160
6736649,-1.009,-0.167,-0.139,4.270,9.940,6.090
6736669,-1.017,-0.169,-0.148,-3.780,7.910,4.760
6736686,-0.963,-0.192,-0.169,-2.310,7.770,3.290
6736710,-0.979,-0.114,-0.133,-5.670,2.240,3.710
6736730,-0.946,-0.243,-0.250,-11.340,-3.080,4.130
6736750,-0.972,-0.349,-0.202,-0.490,-1.610,3.570
6736774,-1.028,-0.237,-0.157,1.680,-2.730,3.220
6736794,-1.018,-0.175,-0.169,-3.780,-5.180,1.750
6736813,-0.981,-0.183,-0.183,-1.540,-5.250,0.420
6736831,-0.955,-0.190,-0.163,1.540,-6.090,0.000
6736855,-0.977,-0.165,-0.183,-5.530,-11.060,-0.420
6736875,-0.980,-0.211,-0.159,-8.120,-12.740,-1.610
6736894,-0.990,-0.235,-0.142,-9.660,-13.370,-2.450
6736918,-0.979,-0.224,-0.149,-4.060,-10.640,-3.500
6736938,-0.975,-0.222,-0.162,-4.410,-11.270,-4.340
6736958,-0.994,-0.195,-0.155,-2.660,-10.850,-6.090
6736981,-0.982,-0.158,-0.150,-8.750,-15.890,-6.160
6737001,-0.980,-0.257,-0.159,-3.150,-17.570,-7.210
6737022,-0.992,-0.226,-0.154,-3.360,-20.090,-8.260
6737046,-0.961,-0.268,-0.115,0.350,-20.650,-7.000
6737065,-0.970,-0.286,-0.118,5.110,-17.220,-6.580
6737088,-1.012,-0.226,-0.102,6.230,-17.780,-7.070
6737109,-0.974,-0.247,-0.117,9.870,-16.940,-9.590
6737128,-0.957,-0.227,-0.104,8.960,-14.280,-10.640
6737148,-0.955,-0.261,-0.077,10.010,-16.380,-11.970
6737168,-0.931,-0.276,-0.051,11.480,-14.980,-10.850
6737192,-0.991,-0.179,-0.037,11.130,-11.340,-11.410
6737211,-0.993,-0.257,-0.052,0.490,-13.720,-13.090
6737232,-0.988,-0.253,-0.057,3.430,-10.500,-15.470
6737252,-0.970,-0.259,-0.041,-0.840,-10.780,-14.700
6737272,-0.962,-0.315,-0.035,-1.820,-9.240,-14.420
6737296,-0.971,-0.306,-0.041,-2.100,-7.350,-11.830
6737312,-0.963,-0.331,-0.059,0.280,-5.460,-10.780
6737331,-0.968,-0.321,-0.058,2.450,-4.900,-10.290
6737355,-0.943,-0.284,-0.058,2.030,-2.730,-10.360
6737376,-0.956,-0.284,-0.038,-2.520,-3.010,-10.150
6737396,-0.952,-0.300,-0.015,-7.280,-2.520,-9.520
6737414,-0.941,-0.325,-0.031,-10.850,-2.730,-7.560
6737433,-0.956,-0.354,-0.065,-12.740,-1.820,-6.160
6737453,-0.974,-0.378,-0.100,-10.640,-2.380,-3.220
6737472,-0.963,-0.366,-0.111,-1.610,-1.680,-2.940
6737497,-0.963,-0.320,-0.081,1.190,-2.450,-2.660
6737516,-0.961,-0.353,-0.055,3.850,-2.030,-2.730
6737534,-0.934,-0.290,-0.025,5.250,1.120,-2.590
6737557,-0.947,-0.308,-0.013,-0.980,2.660,-3.920
6737578,-0.958,-0.288,-0.016,-4.410,6.790,-4.410
6737598,-0.933,-0.283,-0.029,-5.110,10.850,-6.580
6737617,-0.967,-0.265,-0.024,-9.100,11.900,-8.470
6737636,-0.971,-0.301,-0.045,-12.880,13.860,-10.360
6737661,-0.953,-0.332,-0.069,-12.250,16.870,-11.970
6737677,-0.949,-0.320,-0.104,-13.090,17.080,-12.880
6737701,-0.968,-0.317,-0.102,-11.830,17.080,-14.350
6737721,-0.933,-0.358,-0.113,-11.060,18.340,-15.190
6737745,-0.953,-0.351,-0.113,-12.600,16.800,-14.350
6737765,-0.942,-0.436,-0.230,-11.270,11.200,-11.760
6737783,-0.943,-0.462,-0.212,-1.960,9.100,-10.990
6737804,-0.921,-0.402,-0.205,0.350,5.670,-9.940
6737825,-0.915,-0.409,-0.183,6.300,5.530,-9.940
6737845,-0.940,-0.405,-0.181,4.830,0.000,-7.280
6737865,-0.933,-0.350,-0.172,10.990,-0.350,-7.910
6737882,-0.939,-0.362,-0.123,7.630,-4.480,-8.890
6737902,-0.897,-0.351,-0.081,2.870,-1.610,-8.750
6737926,-0.947,-0.391,-0.089,0.280,-0.070,-7.000
6737945,-0.916,-0.452,-0.149,5.600,4.340,-6.020
6737964,-0.907,-0.381,-0.135,10.570,5.180,-6.230
6737989,-0.892,-0.386,-0.131,3.920,5.670,-7.700
6738007,-0.926,-0.434,-0.076,6.650,9.170,-5.740
6738028,-0.934,-0.344,-0.118,3.640,12.600,-8.680
6738052,-0.950,-0.344,-0.143,-6.230,10.080,-11.410
6738068,-0.886,-0.385,-0.198,-13.300,6.790,-12.600
6738088,-0.918,-0.458,-0.226,-8.680,4.620,-12.180
6738111,-0.911,-0.448,-0.207,-4.130,1.190,-9.590
6738130,-0.914,-0.473,-0.167,-1.540,0.070,-6.930
6738152,-0.909,-0.472,-0.199,1.400,0.980,-3.500
6738172,-0.897,-0.422,-0.142,8.260,3.290,-2.170
6738196,-0.915,-0.396,-0.163,1.750,2.030,-2.450
6738216,-0.893,-0.440,-0.213,0.280,-0.210,-3.500
6738234,-0.904,-0.458,-0.179,5.320,-0.910,-2.170
6738256,-0.905,-0.451,-0.152,6.300,0.280,0.140
6738279,-0.910,-0.416,-0.163,6.230,1.400,-0.210
6738299,-0.913,-0.417,-0.180,3.500,0.000,-1.050
6738316,-0.914,-0.432,-0.192,4.340,0.350,-2.170
6738340,-0.899,-0.418,-0.155,2.240,0.420,-3.570
6738359,-0.905,-0.422,-0.111,2.240,2.380,-2.100
6738380,-0.901,-0.424,-0.158,2.100,5.180,-1.820
6738398,-0.909,-0.428,-0.165,1.470,6.090,-2.100
6738422,-0.902,-0.413,-0.161,2.170,7.490,-3.290
6738442,-0.899,-0.426,-0.193,-2.730,5.670,-3.990
6738462,-0.872,-0.474,-0.186,-0.070,5.670,-2.520
6738481,-0.854,-0.483,-0.216,-4.270,4.060,-0.140
6738501,-0.895,-0.473,-0.212,-4.130,1.680,1.610
6738526,-0.887,-0.461,-0.215,-0.840,0.910,4.760
6738544,-0.844,-0.577,-0.264,-20.090,5.810,4.410
6738565,-0.830,-0.482,-0.257,-12.880,18.690,4.830
6738584,-1.003,-0.415,-0.218,10.430,-2.940,1.890
6738608,-0.920,-0.325,-0.170,-1.750,-6.020,9.030
6738628,-0.865,-0.448,-0.197,-5.530,-7.770,8.820
6738648,-0.886,-0.425,-0.214,-5.950,-8.330,8.960
6738664,-0.878,-0.451,-0.210,-7.560,-10.360,10.430
6738688,-0.882,-0.513,-0.237,-8.890,-12.880,13.580
6738706,-0.909,-0.438,-0.182,-2.030,-11.410,14.910
6738729,-0.923,-0.428,-0.195,-0.700,-12.180,17.290
6738752,-0.909,-0.436,-0.196,-3.080,-14.350,18.550
6738772,-0.892,-0.430,-0.201,-3.850,-14.770,19.180
6738796,-0.909,-0.398,-0.192,-3.990,-16.240,19.600
6738815,-0.927,-0.383,-0.175,-5.320,-17.780,19.880
6738835,-0.927,-0.394,-0.149,-4.060,-17.150,20.300
6738855,-0.923,-0.368,-0.187,-6.510,-17.780,20.580
6738879,-0.929,-0.393,-0.162,-3.430,-19.040,22.190
6738899,-0.923,-0.399,-0.155,-0.070,-19.180,22.960
6738914,-0.940,-0.347,-0.163,-0.140,-18.270,23.240
6738938,-0.963,-0.356,-0.114,-1.400,-20.020,24.360
6738959,-0.959,-0.341,-0.130,-2.030,-17.850,24.640
6738979,-0.940,-0.315,-0.105,-2.450,-16.870,24.220
6739002,-0.943,-0.325,-0.123,-3.920,-16.240,23.170
6739023,-0.978,-0.299,-0.142,-2.940,-18.200,21.840
6739043,-0.978,-0.293,-0.160,-2.800,-20.720,20.790
6739062,-0.986,-0.309,-0.123,-2.310,-24.010,19.950
6739083,-0.982,-0.276,-0.156,-4.410,-27.230,19.670
6739103,-0.982,-0.286,-0.136,-1.960,-30.450,18.900
6739122,-0.989,-0.313,-0.113,0.280,-32.480,17.430
6739146,-0.940,-0.322,-0.086,8.540,-30.590,18.970
6739162,-0.953,-0.330,-0.056,13.370,-28.350,18.970
6739186,-0.977,-0.255,-0.028,14.560,-26.950,21.070
6739206,-0.963,-0.217,-0.031,9.240,-27.860,20.650
6739226,-0.949,-0.274,-0.007,8.400,-24.430,18.830
6739243,-0.984,-0.220,0.016,14.070,-18.480,18.690
6739263,-0.983,-0.112,0.075,8.260,-15.260,12.320
6739286,-0.935,-0.125,0.124,-1.680,-7.840,7.490
6739307,-0.967,-0.146,0.127,-4.410,1.330,4.760
6739325,-0.992,-0.211,0.021,-9.940,6.580,2.940
6739349,-0.985,-0.263,-0.018,-8.330,8.260,1.120
6739369,-0.987,-0.274,-0.040,6.020,11.060,1.750
6739388,-1.023,-0.191,-0.061,5.320,7.700,1.680
6739411,-1.017,-0.209,-0.056,1.750,4.480,-0.840
6739430,-0.981,-0.215,-0.049,0.350,3.290,-1.540
6739450,-0.980,-0.251,-0.046,0.210,3.150,-0.980
6739470,-1.000,-0.236,-0.041,-1.890,1.050,-0.490
6739494,-1.009,-0.225,-0.056,-5.040,-0.840,0.210
6739513,-1.003,-0.245,-0.057,-2.730,-1.750,-0.350
6739532,-0.976,-0.229,-0.034,-1.470,-1.610,-0.420
6739553,-0.997,-0.228,-0.023,-1.960,-0.980,-0.420
6739572,-0.975,-0.245,-0.017,-3.710,-0.700,0.280
6739597,-0.974,-0.285,-0.020,-6.720,0.770,2.520
6739617,-1.003,-0.247,-0.046,-11.830,-1.610,4.690
6739637,-0.990,-0.243,-0.054,-12.180,-0.700,4.550
6739657,-0.990,-0.256,-0.045,-3.500,1.050,5.180
6739679,-0.979,-0.220,-0.036,-5.320,1.470,5.320
6739701,-0.962,-0.283,-0.034,-5.950,2.590,6.650
6739720,-0.980,-0.248,-0.033,-0.280,5.880,8.750
6739744,-0.987,-0.218,-0.043,-0.700,6.160,9.240
6739764,-0.995,-0.206,-0.029,-2.450,5.880,9.030
6739783,-1.015,-0.225,-0.060,-6.020,6.860,9.310
6739803,-1.001,-0.306,-0.069,-4.970,5.040,10.010
6739826,-0.948,-0.293,-0.072,3.570,12.040,15.540
6739847,-1.018,-0.134,-0.109,-3.080,7.140,14.770
6739871,-0.996,-0.232,-0.144,-1.680,3.500,12.110
6739891,-1.003,-0.178,-0.116,7.350,-0.070,13.090
6739906,-1.037,-0.140,-0.100,1.680,-0.210,11.620
6739930,-0.992,-0.207,-0.064,-4.760,-1.190,9.450
6739951,-0.999,-0.194,-0.058,1.050,0.210,9.870
6739975,-0.983,-0.178,-0.063,2.380,3.150,9.520
6739995,-0.979,-0.174,-0.066,-0.420,4.410,8.330
6740015,-0.974,-0.197,-0.041,5.460,10.640,7.770
6740034,-0.968,-0.237,-0.020,13.790,18.690,9.310
6740053,-0.962,-0.191,-0.044,13.090,26.180,8.820
6740073,-0.977,-0.154,-0.070,12.250,30.590,8.470
6740098,-0.980,-0.236,-0.112,15.610,32.340,10.220
6740118,-0.964,-0.100,-0.160,22.470,33.880,7.420
6740137,-1.014,-0.062,-0.144,20.440,26.600,5.740
6740159,-1.000,-0.058,-0.155,3.220,21.840,2.520
6740178,-0.967,-0.105,-0.200,-9.380,15.610,0.140
6740203,-0.987,-0.190,-0.211,-6.580,11.480,0.560
6740223,-1.025,-0.156,-0.198,-2.940,10.010,-0.210
6740242,-1.036,-0.191,-0.190,-3.080,6.790,-0.980
6740265,-0.969,-0.192,-0.232,0.140,6.230,-1.190
6740286,-0.992,-0.148,-0.204,-1.400,3.570,0.000
6740306,-0.988,-0.248,-0.197,1.750,0.350,0.980
6740324,-0.987,-0.197,-0.206,10.430,2.030,2.310
6740345,-0.989,-0.129,-0.212,2.450,-2.940,1.680
6740369,-1.002,-0.086,-0.199,-3.710,-5.600,-1.050
6740389,-0.982,-0.143,-0.192,-14.350,-9.520,-0.980
6740406,-0.951,-0.275,-0.215,-5.250,-8.050,-0.350
6740430,-0.976,-0.201,-0.195,3.430,-4.270,-0.420
6740450,-0.989,-0.114,-0.190,-6.580,-7.560,-0.350
6740467,-0.997,-0.113,-0.178,-7.000,-8.120,-1.330
6740490,-0.998,-0.119,-0.201,-10.990,-11.200,-3.570
6740510,-0.983,-0.206,-0.183,-3.990,-10.010,-4.830
6740527,-0.976,-0.178,-0.161,1.680,-7.350,-4.970
6740547,-0.991,-0.138,-0.147,0.070,-6.020,-5.250
6740570,-0.987,-0.181,-0.209,-7.910,-8.540,-7.210
6740589,-0.994,-0.176,-0.184,4.060,-7.210,-8.190
6740608,-0.976,-0.168,-0.161,8.400,-6.300,-9.520
6740628,-0.999,-0.125,-0.132,8.540,-5.250,-11.550
6740652,-0.991,-0.160,-0.138,2.380,-5.740,-14.140
6740672,-0.998,-0.162,-0.160,-1.680,-6.860,-17.360
6740691,-0.974,-0.198,-0.156,3.780,-4.900,-18.620
6740714,-0.976,-0.186,-0.160,0.980,-6.580,-18.620
6740734,-0.956,-0.232,-0.164,1.960,-4.900,-18.550
6740753,-0.963,-0.205,-0.165,0.840,-6.230,-20.300
6740776,-0.956,-0.289,-0.188,-1.120,-10.850,-18.060
6740800,-1.002,-0.280,-0.134,13.790,-8.260,-17.360
6740820,-0.970,-0.220,-0.178,4.970,-10.640,-16.730
6740839,-0.970,-0.299,-0.202,7.700,-12.390,-17.850
6740864,-0.986,-0.308,-0.131,14.910,-10.920,-17.640
6740884,-0.965,-0.233,-0.101,14.490,-10.150,-17.430
6740899,-0.965,-0.229,-0.119,8.540,-10.500,-17.640
6740924,-0.976,-0.256,-0.136,9.240,-10.360,-20.020
6740942,-0.963,-0.292,-0.111,6.720,-10.990,-20.230
6740966,-0.940,-0.306,-0.129,6.300,-10.290,-19.740
6740986,-0.949,-0.311,-0.095,6.790,-9.240,-19.040
6741006,-0.997,-0.290,-0.118,-1.330,-13.860,-19.390
6741022,-0.965,-0.312,-0.130,-1.680,-16.240,-20.090
6741046,-0.908,-0.345,-0.138,0.070,-16.660,-19.390
6741066,-0.950,-0.349,-0.092,1.190,-16.450,-18.270
6741084,-0.953,-0.364,-0.068,1.470,-13.300,-16.240
6741106,-0.920,-0.380,-0.149,9.520,-13.440,-16.310
6741126,-0.926,-0.411,-0.089,14.350,-12.530,-14.560
6741146,-0.941,-0.395,-0.072,17.570,-10.990,-11.060
6741164,-0.962,-0.350,-0.047,13.160,-12.250,-9.240
6741184,-0.954,-0.349,-0.049,6.580,-12.390,-9.170
6741208,-0.927,-0.408,-0.077,7.140,-11.270,-8.610
6741228,-0.914,-0.418,-0.044,18.200,-6.580,-8.400
6741248,-0.956,-0.324,-0.007,11.410,-7.770,-7.420
6741268,-0.953,-0.317,-0.051,4.270,-7.140,-10.290
6741288,-0.948,-0.355,0.011,3.080,-5.460,-10.920
6741305,-0.931,-0.351,-0.016,-4.690,-6.090,-10.150
6741328,-0.913,-0.508,-0.081,3.360,-2.240,-9.590
6741348,-0.918,-0.430,-0.028,16.730,2.800,-6.440
6741367,-0.946,-0.376,-0.032,8.610,1.680,-5.460
6741392,-0.931,-0.355,-0.061,9.170,2.100,-7.700
6741412,-0.946,-0.405,-0.040,4.690,-0.910,-7.140
6741432,-0.935,-0.383,-0.037,3.780,-0.350,-8.330
6741450,-0.907,-0.413,-0.025,8.330,3.360,-9.310
6741470,-0.941,-0.403,-0.018,6.580,4.550,-9.380
6741494,-0.931,-0.421,-0.062,2.170,3.780,-10.080
6741514,-0.906,-0.376,-0.054,-7.560,4.900,-8.330
6741533,-0.809,-0.582,-0.033,11.620,9.520,-4.200
6741554,-0.892,-0.472,-0.056,23.240,16.660,2.940
6741574,-0.976,-0.318,0.029,18.200,18.060,3.430
6741593,-0.947,-0.288,-0.030,-2.100,15.750,-1.540
6741618,-0.923,-0.334,0.001,-5.110,16.170,-9.030
6741637,-0.939,-0.292,-0.134,-21.910,10.990,-13.440
6741661,-0.918,-0.491,-0.124,-17.220,9.380,-16.310
6741681,-0.935,-0.458,-0.140,-11.900,6.930,-13.720
6741701,-0.905,-0.547,-0.150,-6.580,5.740,-10.430
6741721,-0.882,-0.607,-0.164,-0.420,3.570,-5.460
6741741,-0.913,-0.483,-0.142,9.730,3.010,0.070
6741757,-0.899,-0.486,-0.123,5.880,0.210,2.800
6741777,-0.887,-0.484,-0.115,7.070,-0.840,4.340
6741801,-0.901,-0.464,-0.062,10.640,0.840,5.950
6741821,-0.912,-0.433,-0.083,5.320,0.350,5.670
6741840,-0.910,-0.435,-0.118,2.030,-0.490,3.920
6741864,-0.917,-0.426,-0.108,2.520,-1.610,2.730
6741879,-0.912,-0.443,-0.121,0.280,-4.060,2.310
6741904,-0.897,-0.483,-0.149,3.780,-5.740,4.340
6741924,-0.939,-0.452,-0.122,6.370,-7.910,5.670
6741944,-0.893,-0.492,-0.095,4.340,-9.660,6.020
6741962,-0.885,-0.455,-0.101,1.050,-10.220,6.790
6741982,-0.891,-0.476,-0.095,0.910,-12.600,7.910
6742006,-0.908,-0.422,-0.085,-1.260,-15.330,10.850
6742026,-0.898,-0.470,-0.092,-1.680,-15.050,12.180
6742050,-0.892,-0.461,-0.062,1.190,-11.410,14.210
6742070,-0.915,-0.428,-0.064,-1.890,-10.010,15.750
6742094,-0.927,-0.418,-0.059,-5.950,-11.410,17.290
6742114,-0.920,-0.442,-0.062,-5.600,-9.380,18.060
6742134,-0.932,-0.432,-0.046,-5.670,-8.890,19.460
6742153,-0.927,-0.411,-0.048,-8.750,-9.030,20.510
6742173,-0.927,-0.414,-0.066,-9.590,-8.890,21.630
6742197,-0.945,-0.411,-0.061,-7.210,-8.610,22.400
6742217,-0.945,-0.370,-0.051,-6.930,-8.260,23.310
6742237,-0.939,-0.386,-0.064,-7.490,-7.700,23.870
6742261,-0.944,-0.417,-0.081,-3.990,-8.260,24.920
6742279,-0.949,-0.392,-0.078,-1.190,-8.540,25.060
6742299,-0.957,-0.334,-0.049,3.290,-7.140,25.550
6742323,-0.975,-0.239,-0.025,-3.570,-8.680,23.170
6742342,-0.951,-0.316,-0.026,-11.620,-8.120,21.490
6742365,-0.963,-0.298,-0.044,-11.410,-7.630,19.950
6742386,-0.940,-0.345,-0.072,-7.070,-6.020,18.270
6742406,-0.955,-0.303,-0.023,-3.710,-2.730,18.060
6742425,-0.986,-0.240,-0.017,-7.980,-1.680,15.470
6742444,-0.990,-0.256,-0.080,-11.690,-2.240,13.510
6742469,-0.950,-0.288,-0.033,-10.780,-0.910,10.500
6742489,-0.971,-0.296,-0.070,-10.010,0.560,9.590
6742505,-0.981,-0.273,-0.096,-10.360,-0.770,8.890
6742528,-0.984,-0.298,-0.081,-9.450,-3.430,7.140
6742548,-0.980,-0.278,-0.037,-2.800,0.070,6.160
6742572,-0.978,-0.249,-0.051,-4.690,1.820,4.340
6742591,-0.982,-0.269,-0.023,-5.810,3.220,3.360
6742615,-0.973,-0.224,-0.019,-11.480,5.740,2.380
6742635,-0.966,-0.284,-0.076,-14.210,6.650,1.470
6742654,-0.971,-0.335,-0.133,-14.350,5.670,1.820
6742674,-0.989,-0.318,-0.108,-8.190,3.430,3.290
6742694,-0.971,-0.333,-0.124,-4.830,0.840,5.810
6742718,-0.975,-0.285,-0.095,-3.150,-0.630,8.260
6742738,-0.983,-0.257,-0.067,-7.210,-1.890,9.310
6742753,-0.992,-0.262,-0.086,-10.150,-2.380,8.890
6742778,-0.964,-0.277,-0.061,-10.080,17.780,9.590
6742798,-0.975,-0.256,-0.050,-11.060,2.100,11.690
6742816,-0.994,-0.283,-0.101,-17.500,-2.380,12.880
6742840,-0.995,-0.366,-0.137,-11.340,-3.150,15.960
6742859,-0.996,-0.285,-0.083,-2.450,-0.350,19.390
6742875,-0.977,-0.224,-0.114,-12.460,-5.180,19.600
6742900,-0.984,-0.223,-0.081,-16.100,-6.020,19.390
6742920,-0.988,-0.309,-0.040,-11.410,-0.490,19.810
6742939,-0.965,-0.241,-0.028,-10.500,2.310,18.340
6742963,-0.962,-0.243,-0.138,-8.470,6.160,15.750
6742982,-0.946,-0.182,-0.148,-9.030,4.200,9.310
6743001,-1.005,-0.102,-0.140,-8.190,2.170,10.220
6743022,-0.995,-0.126,-0.117,-3.780,2.660,8.750
6743043,-1.027,-0.133,-0.131,-5.600,-1.050,8.470
6743067,-1.088,-0.196,-0.119,0.140,-4.340,7.630
6743085,-0.987,-0.302,-0.157,7.560,-5.040,12.320
6743107,-0.971,-0.276,-0.173,22.820,-1.750,13.510
6743131,-0.985,-0.193,-0.162,20.300,-5.740,14.210
6743146,-1.011,-0.095,-0.151,17.570,-11.830,16.100
6743171,-0.971,-0.253,-0.117,19.040,-11.900,19.250
6743190,-0.922,-0.308,-0.098,37.240,-7.210,18.830
6743210,-0.976,-0.106,-0.087,37.380,-3.570,22.680
6743229,-1.068,-0.165,-0.068,33.250,0.000,11.410
6743253,-0.967,-0.224,-0.049,27.930,2.450,12.390
6743272,-1.001,-0.226,-0.025,42.910,4.480,14.350
6743297,-0.971,-0.047,-0.041,40.950,11.620,9.800
6743315,-0.994,-0.078,-0.049,24.080,11.270,6.930
6743339,-0.978,-0.039,-0.036,20.580,15.960,4.830
6743358,-1.025,-0.067,-0.038,12.600,16.380,3.710
6743376,-1.002,-0.068,-0.085,15.960,18.830,2.170
6743397,-1.056,-0.053,-0.119,-1.190,11.270,1.820
6743421,-0.986,-0.226,-0.203,-0.210,7.210,0.630
6743441,-0.899,-0.257,-0.255,12.950,5.810,0.700
6743460,-0.917,-0.193,-0.234,23.100,9.310,0.000
6743481,-0.968,-0.029,-0.163,18.900,4.060,-0.910
6743505,-0.952,-0.125,-0.093,5.530,-2.590,2.380
6743523,-0.972,-0.123,-0.093,14.140,1.960,3.570
6743542,-1.049,-0.043,-0.067,5.460,2.100,1.540
6743567,-1.014,-0.079,-0.139,-9.660,-4.130,0.910
6743585,-0.976,-0.109,-0.169,-9.100,-3.150,-0.420
6743609,-0.972,-0.126,-0.138,-5.740,-3.990,0.000
6743629,-0.977,-0.126,-0.126,-7.210,-5.180,-0.490
6743649,-0.984,-0.105,-0.128,-13.300,-5.460,-2.450
6743669,-1.002,-0.135,-0.125,-19.880,-6.930,-4.830
6743688,-1.031,-0.076,-0.100,-21.070,-5.880,-6.720
6743708,-1.028,-0.125,-0.116,-24.990,-7.210,-7.490
6743727,-1.015,-0.213,-0.004,-18.410,-5.740,-8.050
6743752,-1.013,-0.216,-0.136,-13.020,-4.620,-11.410
6743772,-1.006,-0.162,-0.150,-12.250,-6.580,-12.040
6743796,-1.010,-0.167,-0.150,-11.270,-7.140,-15.890
6743816,-0.976,-0.184,-0.161,0.210,-6.860,-20.300
6743835,-0.908,-0.198,-0.153,3.150,-6.020,-17.010
6743856,-1.001,-0.203,-0.107,-0.420,-2.450,-18.620
6743880,-1.014,-0.231,-0.061,0.630,0.000,-19.810
6743900,-0.999,-0.202,-0.065,-2.730,3.570,-19.950
6743918,-0.988,-0.224,-0.077,-8.260,2.730,-19.880
6743942,-0.993,-0.209,-0.133,-5.740,4.480,-21.210
6743961,-0.966,-0.197,-0.134,-3.570,5.320,-22.960
6743981,-0.986,-0.234,-0.142,-7.420,4.340,-23.170
6744001,-0.993,-0.260,-0.163,-4.340,2.450,-23.520
6744022,-0.946,-0.295,-0.204,-0.210,1.470,-23.660
6744046,-0.978,-0.285,-0.189,2.870,-1.610,-22.890
6744064,-0.967,-0.290,-0.173,2.730,-3.360,-22.190
6744088,-0.976,-0.285,-0.180,1.960,-5.880,-22.750
6744107,-0.967,-0.310,-0.143,1.470,-7.980,-21.490
6744126,-0.977,-0.318,-0.143,0.420,-8.680,-20.510
6744150,-0.948,-0.335,-0.144,-2.310,-10.640,-20.510
6744170,-0.939,-0.373,-0.158,3.990,-7.770,-19.040
6744188,-0.964,-0.349,-0.117,10.920,-6.580,-18.550
6744209,-0.955,-0.357,-0.152,10.080,-8.680,-18.060
6744226,-0.935,-0.375,-0.143,13.720,-8.680,-16.310
6744248,-0.956,-0.327,-0.108,13.370,-10.150,-13.860
6744267,-0.974,-0.310,-0.077,8.610,-10.710,-13.090
6744291,-0.938,-0.300,-0.101,5.810,-9.590,-14.840
6744309,-0.918,-0.350,-0.151,3.850,-13.230,-15.960
6744330,-0.951,-0.385,-0.066,2.940,-12.390,-16.030
6744348,-0.937,-0.352,-0.065,2.660,-10.500,-16.730
6744367,-0.931,-0.356,-0.066,1.260,-7.070,-16.170
6744392,-0.892,-0.326,-0.014,3.430,-2.380,-18.760
6744412,-0.957,-0.312,-0.040,-5.460,1.050,-19.530
6744432,-0.955,-0.314,-0.071,-16.380,-2.240,-21.210
6744449,-0.930,-0.390,-0.108,-15.750,0.140,-22.540
6744473,-0.884,-0.439,-0.090,-12.950,2.450,-23.240
6744490,-0.903,-0.434,-0.091,-9.870,3.920,-21.420
6744514,-0.950,-0.357,-0.095,-14.630,3.360,-20.930
6744533,-0.951,-0.386,-0.100,-18.760,0.420,-20.650
6744553,-0.893,-0.453,-0.129,-14.070,1.890,-22.750
6744574,-0.871,-0.480,-0.162,-11.830,0.910,-21.840
6744598,-0.882,-0.521,-0.134,-9.100,0.000,-17.430
6744614,-0.875,-0.502,-0.127,-3.710,2.520,-14.280
6744633,-0.892,-0.483,-0.102,-1.120,5.110,-12.740
6744658,-0.856,-0.445,-0.126,-6.720,5.180,-11.200
6744678,-0.852,-0.523,-0.223,-8.820,1.610,-9.310
6744695,-0.891,-0.559,-0.165,0.700,1.680,-7.280
6744714,-0.891,-0.515,-0.115,5.950,4.480,-5.040
6744734,-0.870,-0.490,-0.158,0.140,3.780,-3.080
6744759,-0.881,-0.513,-0.145,5.110,3.850,-0.910
6744778,-0.896,-0.459,-0.112,7.630,3.920,0.910
6744799,-0.900,-0.438,-0.155,5.670,2.170,1.540
6744818,-0.886,-0.509,-0.202,9.730,1.190,1.470
6744843,-0.910,-0.432,-0.128,-1.260,-3.290,3.920
6744863,-0.901,-0.427,-0.122,12.180,-1.540,3.010
6744882,-0.859,-0.461,-0.150,3.570,-0.210,4.410
6744903,-0.875,-0.494,-0.144,8.330,-0.280,4.900
6744923,-2.030,1.358,1.013,-117.390,-70.630,6.440
6744947,-1.229,0.200,0.615,-343.420,82.950,24.290
6744967,-0.302,-0.499,-0.168,-6.300,7.070,5.390
6744987,-0.911,-0.221,-0.076,8.400,8.960,-0.770
6745006,-0.963,-0.851,-0.204,12.390,-1.610,-20.370
6745027,-0.748,-0.509,-0.158,43.890,31.500,-14.350
6745043,-0.857,-0.274,-0.009,38.430,12.320,6.020
6745067,-0.945,-0.613,-0.262,29.330,2.520,17.570
6745087,-1.017,-0.435,-0.145,11.340,-16.590,13.370
6745102,-0.926,-0.398,-0.083,8.470,-12.180,12.880
6745128,-0.909,-0.438,-0.109,5.110,-12.320,12.740
6745146,-0.910,-0.477,-0.101,2.030,-13.650,14.560
6745170,-0.895,-0.486,-0.120,0.140,-13.300,19.460
6745189,-0.895,-0.495,-0.109,5.180,-13.020,23.380
6745208,-0.930,-0.442,-0.113,8.890,-14.420,25.620
6745230,-0.926,-0.412,-0.083,8.260,-14.000,25.900
6745249,-0.939,-0.369,-0.075,4.060,-14.420,24.780
6745273,-0.921,-0.385,-0.053,2.870,-13.230,21.910
6745293,-0.935,-0.351,-0.048,1.890,-12.250,21.420
6745311,-0.943,-0.346,-0.017,-2.380,-11.410,20.300
6745331,-0.931,-0.354,-0.056,-4.830,-8.960,20.230
6745355,-0.937,-0.326,-0.058,-1.680,-5.460,18.200
6745373,-0.977,-0.315,-0.059,-7.490,-7.070,16.100
6745390,-0.967,-0.357,-0.085,-14.000,-8.750,16.450
6745415,-0.949,-0.382,-0.065,-5.950,-7.000,18.130
6745434,-0.953,-0.329,-0.061,-8.680,-7.140,18.900
6745455,-0.961,-0.302,-0.059,-11.270,-7.140,18.480
6745473,-0.969,-0.341,-0.104,-7.490,-6.440,17.360
6745497,-0.951,-0.365,-0.068,-0.560,-6.580,17.080
6745516,-0.964,-0.300,-0.010,0.420,-4.830,17.500
6745536,-0.982,-0.272,-0.018,-6.300,-4.410,17.150
6745556,-0.944,-0.283,-0.045,-6.930,-1.960,14.420
6745575,-0.972,-0.244,-0.025,-5.600,0.980,12.040
6745597,-0.976,-0.264,-0.021,-10.290,2.940,8.890
6745619,-0.974,-0.229,-0.016,-10.500,6.650,6.160
6745639,-0.950,-0.260,-0.034,-13.020,10.920,3.570
6745657,-0.948,-0.281,-0.061,-13.160,14.140,2.520
6745679,-0.987,-0.285,-0.114,-10.990,13.090,2.450
6745699,-0.976,-0.295,-0.141,-7.840,10.500,2.310
6745723,-0.994,-0.321,-0.172,-11.060,3.920,2.730
6745743,-0.987,-0.313,-0.161,-6.580,-0.070,3.850
6745763,-0.970,-0.331,-0.153,-4.270,-2.730,5.180
6745783,-0.970,-0.298,-0.131,-1.470,-5.110,6.510
6745802,-0.958,-0.295,-0.108,-0.210,-6.020,7.280
6745827,-0.964,-0.284,-0.083,0.280,-5.740,7.700
6745847,-0.972,-0.295,-0.131,0.910,-6.160,7.980
6745867,-0.968,-0.302,-0.111,2.100,-7.770,8.680
6745891,-0.971,-0.273,-0.089,4.410,-7.700,9.660
6745911,-0.979,-0.277,-0.079,1.260,-9.310,10.080
6745929,-0.986,-0.244,-0.066,1.470,-7.140,10.220
6745950,-0.982,-0.252,-0.038,-3.010,-6.230,10.430
6745973,-0.950,-0.289,-0.032,-3.850,-2.030,10.010
6745992,-0.995,-0.255,-0.083,-4.760,0.910,9.800
6746016,-1.011,-0.206,-0.080,-9.240,-0.630,7.350
6746036,-0.980,-0.243,-0.104,-9.730,-0.350,5.880
6746056,-0.987,-0.282,-0.151,-2.730,-2.030,7.420
6746076,-0.999,-0.224,-0.138,5.880,-2.100,8.540
6746100,-1.033,-0.272,-0.189,3.220,-10.430,9.240
6746118,-0.965,-0.325,-0.187,9.240,-13.860,9.520
6746138,-0.959,-0.289,-0.127,14.770,-15.470,11.340
6746158,-0.951,-0.284,-0.071,13.440,-17.080,12.250
6746182,-0.971,-0.252,-0.037,5.600,-16.170,9.730
6746201,-1.028,-0.135,-0.025,1.680,-18.340,9.730
6746220,-1.000,-0.133,-0.019,4.620,-17.430,6.370
6746244,-0.941,-0.170,-0.033,10.220,-11.270,5.320
6746264,-0.974,-0.238,-0.058,10.780,-8.750,4.060
6746283,-0.945,-0.287,-0.016,5.810,-10.920,11.550
6746308,-0.937,-0.284,-0.079,17.640,-6.790,15.120
6746328,-1.012,-0.236,-0.073,17.780,-9.170,15.190
6746344,-0.986,-0.247,-0.074,14.840,-8.120,14.700
6746363,-0.957,-0.285,0.000,24.500,-4.130,14.770
6746383,-1.002,-0.212,0.026,26.600,-3.850,18.340
6746403,-1.017,-0.210,-0.006,17.920,-3.850,18.550
6746427,-1.006,-0.272,-0.031,22.960,0.560,15.470
6746448,-0.976,-0.138,0.016,15.400,2.660,13.860
6746465,-0.987,-0.107,0.045,5.040,3.360,12.810
6746489,-0.989,-0.087,0.046,-3.990,2.940,12.110
6746508,-0.994,-0.173,-0.028,-1.260,8.750,11.970
6746528,-0.992,-0.183,-0.042,1.750,8.470,8.540
6746552,-1.004,-0.044,-0.015,-6.580,6.300,4.970
6746571,-1.028,0.053,-0.038,-20.090,0.770,1.260
6746595,-1.011,0.012,-0.022,-44.730,-5.180,-3.780
6746615,-0.946,-0.286,0.013,-35.630,2.730,0.210
6746635,-0.890,-0.502,-0.011,8.890,20.790,5.740
6746653,-1.036,-0.110,-0.034,15.260,22.680,9.520
6746674,-1.052,-0.056,-0.052,-13.720,9.310,7.560
6746694,-0.999,-0.163,-0.113,-12.810,8.960,5.740
6746715,-1.004,-0.243,-0.163,-1.750,9.380,7.140
6746738,-1.001,-0.203,-0.109,9.100,9.870,6.580
6746762,-1.020,-0.095,-0.079,2.940,8.750,4.130
6746781,-0.998,-0.057,-0.089,-8.610,4.480,3.500
6746802,-0.982,-0.142,-0.112,-9.940,1.050,3.220
6746822,-1.000,-0.126,-0.088,0.980,3.780,3.010
6746844,-0.998,-0.153,-0.113,-5.530,0.840,3.360
6746862,-1.007,-0.207,-0.120,-0.700,1.680,3.360
6746886,-1.004,-0.131,-0.094,5.740,4.900,0.840
6746906,-1.013,-0.048,-0.135,-4.970,-0.490,-0.840
6746926,-1.009,-0.115,-0.138,-3.290,-2.100,-4.760
6746945,-1.009,-0.107,-0.094,-3.850,-4.270,-7.350
6746964,-1.037,-0.118,-0.123,-3.150,-6.510,-9.380
6746989,-0.998,-0.187,-0.156,1.400,-8.120,-11.480
6747009,-0.996,-0.182,-0.102,7.280,-6.790,-12.880
6747027,-1.030,-0.122,-0.082,12.390,-9.310,-15.400
6747049,-0.961,-0.183,-0.116,10.080,-4.620,-18.060
6747069,-0.961,-0.210,-0.089,7.980,-2.310,-18.270
6747093,-0.988,-0.165,-0.023,17.570,2.520,-17.990
6747110,-1.006,-0.115,-0.023,13.580,5.740,-21.210
6747134,-1.013,-0.122,-0.040,1.680,6.090,-26.460
6747154,-0.968,-0.210,-0.092,-3.500,5.600,-27.090
6747174,-0.983,-0.225,-0.083,1.820,6.230,-26.460
6747198,-0.996,-0.206,-0.072,-2.800,6.440,-26.110
6747217,-0.975,-0.283,-0.097,-7.420,6.720,-25.830
6747240,-0.966,-0.303,-0.141,-0.070,6.790,-24.710
6747261,-0.991,-0.250,-0.108,1.610,5.390,-23.870
6747281,-0.992,-0.224,-0.154,-9.310,-0.210,-23.240
6747300,-0.966,-0.362,-0.175,-5.250,-1.890,-23.730
6747324,-0.945,-0.355,-0.104,4.830,-0.280,-21.840
6747344,-0.947,-0.298,-0.109,8.120,0.840,-19.880
6747361,-0.975,-0.309,-0.110,2.450,-1.540,-19.390
6747383,-0.968,-0.315,-0.139,1.890,-2.380,-19.390
6747403,-0.976,-0.270,-0.120,-2.940,-7.350,-19.320
6747422,-0.964,-0.358,-0.138,-4.690,-7.280,-18.970
6747444,-0.940,-0.376,-0.124,4.620,-6.860,-17.780
6747467,-0.938,-0.373,-0.121,4.690,-7.000,-16.940
6747485,-0.930,-0.378,-0.132,9.240,-7.840,-15.330
6747504,-0.937,-0.304,-0.136,6.230,-9.030,-16.660
6747529,-0.942,-0.329,-0.094,5.110,-8.050,-18.690
6747549,-0.933,-0.393,-0.119,9.940,-5.740,-17.220
6747566,-0.885,-0.407,-0.137,13.720,-5.740,-19.600
6747586,-0.940,-0.437,-0.056,17.920,-6.580,-17.360
6747609,-0.938,-0.370,-0.034,12.810,-5.040,-14.070
6747627,-0.952,-0.268,-0.024,-0.980,-5.460,-13.720
6747646,-0.933,-0.353,-0.053,-4.690,-3.010,-15.890
6747671,-0.937,-0.364,-0.083,-3.220,-0.420,-19.320
6747691,-0.905,-0.468,-0.141,-3.920,-0.490,-20.930
6747710,-0.903,-0.483,-0.116,0.700,1.120,-19.180
6747731,-0.915,-0.464,-0.072,6.370,0.770,-17.080
6747751,-0.931,-0.388,-0.061,0.000,-0.210,-15.820
6747769,-0.926,-0.419,-0.070,-2.730,-0.070,-15.190
6747788,-0.901,-0.448,-0.116,-2.100,-0.630,-14.420
6747808,-0.903,-0.513,-0.108,1.540,-0.490,-13.860
6747829,-0.907,-0.443,-0.117,1.400,-1.890,-11.200
6747853,-0.900,-0.489,-0.127,6.370,-0.770,-10.850
6747873,-0.876,-0.466,-0.034,8.820,-0.840,-10.430
6747893,-0.863,-0.534,-0.034,7.140,3.570,-8.750
6747913,-0.885,-0.474,-0.028,13.790,10.150,-5.670
6747930,-0.935,-0.379,-0.077,2.940,8.190,-4.900
6747953,-0.878,-0.436,-0.116,-6.370,5.950,-6.020
6747974,-0.888,-0.519,-0.135,8.120,8.890,-9.170
6747994,-0.918,-0.447,-0.095,10.220,8.820,-9.800
6748013,-0.930,-0.376,-0.094,0.140,6.790,-12.040
6748032,-0.909,-0.486,-0.104,-0.840,4.690,-12.390
6748053,-0.855,-0.512,-0.125,0.210,4.340,-10.990
6748076,-0.864,-0.542,-0.114,-0.140,3.500,-7.980
6748097,-0.865,-0.556,-0.129,3.010,3.990,-4.410
6748116,-0.797,-2.569,-3.541,857.850,-61.950,278.390
6748140,-3.804,-3.167,-0.493,-43.960,-84.980,84.770
6748159,-0.562,-0.647,-0.318,-50.400,93.940,23.800
6748178,-1.168,-0.789,-0.163,11.340,13.580,12.810
6748200,-0.970,-0.671,-0.286,10.290,-15.400,-4.130
6748224,-1.076,-0.651,-0.248,25.900,-38.220,-22.540
6748244,-1.036,-0.721,-0.254,21.630,-63.840,-43.820
6748264,-0.543,-0.187,-0.139,37.170,-32.060,-1.680
6748282,-1.296,-0.509,-0.136,-9.170,-40.390,14.280
6748304,-0.981,-0.617,-0.203,6.020,-17.850,10.990
6748325,-0.872,-0.467,-0.156,-0.980,-15.260,12.670
6748344,-0.900,-0.505,-0.158,-0.630,-17.990,16.240
6748368,-0.896,-0.534,-0.157,5.180,-20.860,21.630
6748387,-0.896,-0.493,-0.126,6.370,-21.070,25.130
6748406,-0.886,-0.465,-0.105,3.430,-19.810,27.720
6748424,-0.905,-0.457,-0.109,6.790,-16.800,29.050
6748446,-0.921,-0.405,-0.085,8.820,-15.750,29.470
6748470,-0.928,-0.384,-0.089,7.210,-13.020,28.140
6748490,-0.957,-0.347,-0.068,0.210,-13.510,27.580
6748509,-0.923,-0.401,-0.088,-0.700,-12.320,26.600
6748528,-0.934,-0.398,-0.088,3.220,-9.660,25.760
6748547,-0.936,-0.322,-0.079,2.100,-9.520,24.430
6748569,-0.949,-0.325,-0.057,-0.560,-10.430,23.660
6748593,-0.957,-0.294,-0.069,-5.320,-11.690,23.800
6748612,-0.946,-0.353,-0.064,-4.060,-12.810,24.150
6748632,-0.937,-0.345,-0.059,-5.810,-11.410,22.400
6748651,-0.956,-0.325,-0.060,0.560,-8.960,22.750
6748676,-0.946,-0.295,-0.072,-3.080,-9.800,23.450
6748696,-0.972,-0.294,-0.054,1.260,-7.000,22.050
6748716,-0.985,-0.236,-0.030,-4.200,-7.140,20.440
6748735,-0.966,-0.282,-0.068,-6.790,-6.650,18.270
6748760,-0.984,-0.255,-0.072,-6.860,-6.860,16.940
6748780,-0.997,-0.281,-0.094,-2.590,-7.350,15.680
6748800,-0.974,-0.290,-0.069,0.910,-8.540,15.540
6748816,-0.991,-0.253,-0.060,-3.010,-9.730,15.190
6748837,-0.980,-0.242,-0.034,-17.780,-9.940,14.840
6748858,-0.979,-0.233,-0.029,-4.760,-8.820,14.000
6748878,-0.939,-0.262,-0.030,-6.160,-5.740,12.810
6748901,-1.010,-0.247,-0.070,-3.500,-3.920,11.900
6748922,-0.985,-0.271,-0.057,-1.680,-5.110,11.060
6748941,-0.992,-0.231,-0.028,-2.660,-5.390,11.690
6748960,-1.011,-0.233,-0.071,-8.820,-8.960,11.130
6748981,-0.968,-0.234,-0.040,-8.470,-8.330,10.990
6749000,-0.980,-0.226,-0.021,-8.540,-7.490,10.220
6749025,-0.971,-0.213,-0.036,-7.630,-3.920,9.030
6749045,-0.997,-0.191,-0.024,-9.870,-2.940,6.930
6749065,-0.990,-0.209,-0.021,-13.020,-2.450,5.040
6749084,-0.992,-0.203,-0.028,-13.650,-0.350,4.620
6749105,-0.978,-0.241,-0.044,-8.680,3.360,4.200
6749125,-0.963,-0.233,-0.019,-8.400,5.460,4.970
6749143,-0.990,-0.220,-0.032,-8.050,9.520,4.620
6749167,-1.008,-0.224,-0.044,-7.840,9.730,3.010
6749187,-1.007,-0.176,-0.087,-5.810,9.030,2.170
6749205,-0.985,-0.276,-0.133,-4.200,6.510,2.520
6749222,-1.002,-0.183,-0.101,-2.170,3.430,2.870
6749247,-1.015,-0.252,-0.086,-6.720,1.470,5.530
6749267,-0.999,-0.277,-0.068,-0.980,-1.470,7.910
6749291,-0.954,-0.239,-0.086,-1.890,1.400,8.400
6749307,-0.988,-0.199,-0.088,-4.620,-0.910,9.030
6749326,-0.994,-0.220,-0.120,-2.450,-0.070,10.010
6749351,-0.986,-0.257,-0.115,1.890,0.630,9.170
6749367,-0.965,-0.243,-0.073,5.460,2.940,7.980
6749391,-0.914,-0.160,-0.027,4.130,2.800,12.670
6749411,-0.978,-0.199,-0.041,0.630,5.180,15.260
6749429,-1.013,-0.195,-0.060,1.610,6.440,15.120
6749449,-0.978,-0.229,-0.098,2.450,3.920,15.960
6749472,-0.933,-0.245,-0.116,8.890,8.750,17.290
6749492,-0.963,-0.218,-0.086,14.770,10.850,20.930
6749512,-1.040,-0.121,-0.035,10.710,6.020,18.200
6749532,-1.005,-0.133,-0.086,-3.990,7.980,15.680
6749554,-0.995,-0.118,-0.086,-1.120,14.630,13.650
6749578,-0.983,-0.091,-0.049,-0.490,18.410,11.550
6749598,-0.996,-0.105,-0.040,-1.190,20.020,14.700
6749618,-0.982,-0.223,-0.176,9.380,24.570,14.000
6749637,-1.030,-0.176,-0.157,22.190,21.140,11.830
6749662,-1.007,0.051,-0.272,0.000,10.850,10.710
6749677,-0.974,-0.092,-0.254,-9.240,5.810,9.800
6749701,-0.962,-0.126,-0.158,4.410,4.970,9.100
6749721,-1.026,-0.071,-0.097,-0.140,5.530,7.910
6749745,-1.009,-0.190,-0.102,-2.310,9.870,6.090
6749765,-1.000,-0.112,-0.150,2.100,12.880,6.510
6749785,-1.005,-0.044,-0.195,-6.650,5.180,5.740
6749800,-0.987,-0.187,-0.273,-12.740,1.470,7.000
6749825,-0.991,-0.240,-0.220,5.670,-0.770,8.890
6749845,-1.032,-0.106,-0.147,12.040,2.170,8.400
6749869,-1.004,-0.021,-0.164,-1.750,-0.630,5.670
6749889,-0.991,0.030,-0.177,-5.460,-0.280,0.840
6749913,-0.963,0.001,-0.198,-14.630,-2.870,-2.520
6749929,-0.980,-0.108,-0.172,-11.410,-2.450,-3.150
6749948,-1.020,-0.082,-0.178,-14.840,-3.640,-3.640
6749972,-1.008,-0.145,-0.209,-17.850,-5.950,-4.760
6749996,-1.009,-0.158,-0.196,-6.160,-6.860,-6.300
6750016,-0.996,-0.061,-0.205,-2.590,-6.440,-8.330
6750032,-1.003,-0.084,-0.172,-2.660,-7.070,-10.430
6750054,-1.008,-0.052,-0.146,-11.760,-12.740,-12.810
6750072,-0.967,-0.145,-0.207,-9.030,-11.060,-11.410
6750096,-0.996,-0.153,-0.196,-3.640,-10.080,-12.390
6750115,-0.995,-0.165,-0.179,-0.350,-10.010,-12.600
6750136,-1.014,-0.150,-0.161,7.350,-7.350,-14.490
6750156,-0.960,-0.118,-0.156,6.580,-7.420,-15.330
6750174,-0.973,-0.098,-0.130,5.110,-7.910,-16.870
6750194,-0.968,-0.129,-0.133,5.250,-6.160,-19.810
6750218,-1.020,-0.080,-0.095,2.870,-5.740,-23.240
6750238,-1.001,-0.119,-0.119,-0.700,-1.400,-24.290
6750257,-0.817,-0.132,-0.084,0.350,5.320,-31.010
6750277,-0.968,-0.113,-0.120,-5.250,-1.680,-31.850
6750298,-0.929,-0.213,-0.198,-12.460,-0.630,-30.730
6750316,-0.993,-0.294,-0.191,-4.970,-2.170,-31.010
6750338,-0.963,-0.231,-0.148,-2.030,-1.050,-30.450
6750362,-0.973,-0.179,-0.155,-6.440,-3.150,-27.790
6750381,-0.979,-0.332,-0.201,-5.880,-6.580,-26.740
6750402,-0.999,-0.350,-0.162,8.680,-6.370,-22.680
6750419,-0.973,-0.304,-0.170,11.620,-5.460,-20.020
6750443,-0.994,-0.266,-0.161,12.530,-8.190,-18.830
6750463,-0.939,-0.298,-0.168,9.660,-8.540,-19.040
6750483,-0.973,-0.306,-0.163,9.240,-12.530,-17.850
6750503,-0.950,-0.318,-0.154,13.020,-10.850,-17.220
6750522,-0.944,-0.316,-0.139,15.120,-10.990,-16.310
6750547,-0.960,-0.354,-0.153,16.520,-14.000,-14.280
6750563,-0.942,-0.352,-0.189,21.910,-17.430,-12.530
6750583,-0.941,-0.410,-0.117,28.700,-14.490,-11.410
6750602,-0.980,-0.300,-0.068,26.530,-13.930,-10.570
6750626,-0.901,-0.289,-0.054,17.640,-9.310,-11.970
6750647,-0.961,-0.306,-0.059,14.350,-7.420,-12.250
6750665,-0.970,-0.352,-0.053,14.630,-6.090,-13.720
6750685,-0.925,-0.325,-0.094,14.000,-6.160,-14.070
6750705,-0.927,-0.349,-0.054,15.260,-5.320,-14.420
6750729,-0.943,-0.325,-0.007,13.090,-3.010,-13.370
6750749,-0.960,-0.286,-0.009,2.800,0.070,-15.260
6750768,-0.951,-0.349,-0.131,-8.820,-1.750,-16.450
6750789,-0.942,-0.463,-0.130,0.770,-0.280,-16.380
6750808,-0.959,-0.414,-0.105,11.270,-2.170,-14.700
6750829,-0.935,-0.349,-0.078,8.330,-2.730,-14.210
6750849,-0.944,-0.343,-0.084,-1.120,-8.750,-13.790
6750867,-0.907,-0.480,-0.115,1.190,-7.350,-12.950
6750887,-0.943,-0.460,-0.059,12.460,-3.220,-11.970
6750908,-0.909,-0.447,-0.063,10.640,-2.380,-9.660
6750929,-0.903,-0.449,-0.055,16.170,-0.210,-7.000
6750953,-0.961,-0.411,-0.061,15.890,-3.570,-4.340
6750973,-0.920,-0.417,-0.078,11.130,-4.760,-3.850
6750993,-0.897,-0.462,-0.047,12.250,-0.910,-4.830
6751012,-0.924,-0.400,-0.015,15.330,4.480,-3.220
6751034,-0.906,-0.393,-0.043,7.490,6.650,-2.660
6751058,-0.935,-0.380,-0.035,1.400,7.700,-5.740
6751081,-0.930,-0.401,-0.083,-4.620,2.240,-3.430
6751102,-0.782,-0.200,0.006,-26.110,-9.240,8.330
6751121,0.200,0.521,-0.500,64.610,51.450,20.930
6751145,-1.527,-0.738,-0.239,-33.530,5.390,0.000
6751165,-1.399,-0.529,-0.129,-18.830,-9.450,-6.020
6751183,-1.128,-0.664,-0.189,13.090,-7.070,-17.780
6751205,-1.027,-0.604,-0.173,68.040,-12.180,-16.660
6751225,-0.761,-0.347,-0.121,12.950,1.540,27.020
6751244,-0.993,-0.460,-0.089,-5.810,-7.420,21.700
6751268,-0.932,-0.373,-0.095,0.840,-6.650,14.700
6751284,-0.914,-0.357,-0.074,1.960,-8.330,13.440
6751304,-0.930,-0.426,-0.073,-3.570,-7.980,14.840
6751327,-0.925,-0.410,-0.093,-1.400,-8.400,16.310
6751348,-0.934,-0.383,-0.064,-4.200,-8.540,16.380
6751372,-0.941,-0.399,-0.081,-9.240,-9.030,16.870
6751392,-0.935,-0.440,-0.061,-5.040,-7.910,18.130
6751416,-0.944,-0.364,-0.086,-8.610,-7.700,19.110
6751434,-0.959,-0.361,-0.099,-9.520,-7.980,17.920
6751454,-0.954,-0.373,-0.072,-10.360,-9.100,16.800
6751478,-0.936,-0.373,-0.066,-9.870,-8.890,17.220
6751498,-0.936,-0.364,-0.079,-8.540,-8.890,16.450
6751518,-0.987,-0.341,-0.080,-8.400,-11.550,18.830
6751535,-0.956,-0.336,-0.060,-7.490,-12.110,19.250
6751559,-0.958,-0.296,-0.028,-9.800,-12.530,19.390
6751578,-0.923,-0.352,-0.036,-5.040,-8.820,18.060
6751599,-0.967,-0.306,-0.048,-7.630,-5.390,16.660
6751617,-0.938,-0.360,-0.072,-6.790,-5.320,16.800
6751637,-0.967,-0.318,-0.056,-3.570,-3.990,16.800
6751661,-0.966,-0.284,-0.050,-3.640,-3.430,16.870
6751679,-0.979,-0.257,-0.046,-6.230,-5.180,16.100
6751698,-0.959,-0.294,-0.047,-5.390,-2.030,14.420
6751722,-0.966,-0.278,-0.030,-5.460,0.000,13.090
6751742,-0.963,-0.282,-0.030,-4.480,3.500,12.250
6751762,-0.969,-0.254,-0.046,-7.490,6.090,10.780
6751779,-0.988,-0.214,-0.033,-10.990,5.810,9.590
6751799,-0.989,-0.242,-0.064,-14.140,5.950,7.980
6751819,-0.979,-0.272,-0.100,-17.290,3.640,7.070
6751843,-0.975,-0.270,-0.051,-16.590,4.130,8.190
6751863,-0.972,-0.294,-0.097,-17.570,5.600,8.750
6751883,-0.988,-0.285,-0.134,-15.260,4.410,9.030
6751903,-0.977,-0.295,-0.126,-12.950,2.170,9.730
6751924,-0.980,-0.284,-0.122,-8.190,-0.350,11.340
6751938,-0.983,-0.268,-0.114,-8.260,-2.380,12.600
6751963,-0.981,-0.276,-0.122,-6.790,-3.640,13.650
6751982,-1.001,-0.283,-0.130,-3.150,-6.930,15.820
6752003,-0.979,-0.260,-0.114,1.260,-8.050,16.450
6752023,-0.964,-0.255,-0.082,3.850,-5.880,17.010
6752047,-0.996,-0.192,-0.066,-1.050,-5.600,17.220
6752067,-0.999,-0.192,-0.095,-5.320,-6.580,15.680
6752082,-0.983,-0.225,-0.094,-3.850,-5.880,14.840
6752102,-0.992,-0.235,-0.081,0.910,-4.060,15.470
6752127,-0.977,-0.193,-0.076,8.960,-1.260,16.170
6752148,-0.983,-0.189,-0.079,4.690,-2.450,15.750
6752167,-1.010,-0.207,-0.074,3.010,-1.400,15.610
6752187,-0.984,-0.174,-0.085,2.660,-0.560,14.700
6752202,-1.003,-0.173,-0.107,1.540,-1.400,13.300
6752227,-0.984,-0.208,-0.112,6.790,-2.380,12.600
6752247,-1.031,-0.115,-0.092,-0.210,-5.740,13.300
6752269,-0.991,-0.263,-0.115,0.770,-9.730,16.100
6752288,-0.988,-0.140,-0.126,5.670,-9.660,15.680
6752313,-0.982,-0.142,-0.094,-2.940,-12.180,14.700
6752333,-0.991,-0.147,-0.041,-1.400,-8.750,11.200
6752352,-1.040,-0.221,-0.046,1.470,-11.760,13.580
6752372,-0.965,-0.062,-0.016,2.310,-1.400,14.140
6752394,-0.999,-0.167,-0.015,2.170,0.000,9.590
6752411,-0.971,-0.099,-0.008,1.400,5.530,8.120
6752436,-0.948,-0.161,-0.054,6.160,11.760,5.460
6752456,-0.974,-0.057,-0.062,-5.600,11.200,6.090
6752475,-0.976,-0.162,-0.064,-1.890,12.670,8.330
6752500,-0.996,-0.134,-0.012,5.180,18.130,5.320
6752518,-1.031,-0.033,-0.019,0.210,20.230,5.320
6752538,-0.996,-0.079,-0.155,-7.560,19.180,5.460
6752557,-0.975,-0.188,-0.236,-4.620,15.400,5.040
6752581,-0.988,-0.061,-0.166,2.870,11.690,6.510
6752602,-1.023,-0.151,-0.102,0.210,7.490,5.320
6752625,-1.012,-0.137,-0.117,3.920,10.080,4.690
6752649,-0.988,-0.123,-0.144,-1.050,10.500,5.530
6752668,-1.024,-0.135,-0.188,-0.560,6.650,5.460
6752692,-1.014,-0.128,-0.188,1.820,4.830,5.390
6752712,-0.980,-0.129,-0.176,4.620,3.570,5.810
6752730,-1.001,-0.078,-0.130,3.780,3.570,4.830
6752752,-0.980,-0.103,-0.089,-1.330,5.390,3.500
6752776,-0.979,-0.042,-0.123,-3.290,7.770,3.360
6752794,-0.982,-0.050,-0.185,-6.090,6.510,1.960
6752818,-1.028,-0.041,-0.171,-12.600,2.450,0.280
6752838,-0.983,-0.216,-0.257,-14.980,-2.380,0.980
6752858,-1.012,-0.171,-0.187,-4.900,-1.050,2.100
6752878,-1.028,-0.137,-0.194,-7.490,-5.040,2.520
6752902,-1.002,-0.093,-0.207,-3.010,-6.160,0.420
6752918,-0.985,-0.057,-0.185,0.280,-6.790,-1.050
6752938,-0.987,-0.046,-0.164,-3.080,-9.590,-2.660
6752962,-0.981,-0.098,-0.145,-0.070,-8.680,-4.410
6752980,-0.984,-0.092,-0.136,-0.980,-7.700,-5.600
6753002,-0.992,-0.115,-0.169,-3.640,-8.610,-6.440
6753018,-0.990,-0.127,-0.154,0.420,-9.450,-6.440
6753038,-0.980,-0.090,-0.142,2.660,-8.190,-9.170
6753058,-1.024,-0.129,-0.130,9.730,-7.630,-12.530
6753077,-0.974,-0.070,-0.126,6.650,-4.760,-13.790
6753102,-0.995,-0.119,-0.122,11.060,-3.080,-18.410
6753126,-1.003,-0.101,-0.137,4.340,-6.790,-20.720
6753143,-1.001,-0.161,-0.152,6.580,-6.090,-22.610
6753168,-1.000,-0.153,-0.150,2.800,-7.560,-24.500
6753185,-0.983,-0.188,-0.157,2.590,-9.380,-23.240
6753204,-0.997,-0.211,-0.168,4.690,-10.710,-21.070
6753229,-1.000,-0.241,-0.161,10.010,-11.690,-17.780
6753249,-0.995,-0.268,-0.138,18.970,-15.610,-15.400
6753264,-1.006,-0.172,-0.119,16.660,-12.670,-14.770
6753288,-1.005,-0.220,-0.124,13.790,-15.820,-16.310
6753309,-0.976,-0.209,-0.069,23.030,-12.040,-16.800
6753329,-1.004,-0.160,-0.080,14.350,-13.930,-18.130
6753349,-0.973,-0.247,-0.072,14.700,-13.230,-19.040
6753373,-0.952,-0.234,-0.026,14.490,-6.650,-18.830
6753388,-0.961,-0.193,-0.019,8.400,-3.710,-18.550
6753408,-0.962,-0.173,-0.030,-0.350,-0.490,-20.440
6753433,-0.977,-0.232,-0.043,-9.380,2.030,-22.820
6753453,-0.965,-0.244,-0.065,-11.830,3.850,-22.540
6753473,-0.963,-0.276,-0.131,-19.670,2.100,-23.380
6753491,-0.971,-0.342,-0.118,-13.580,3.080,-23.100
6753515,-0.996,-0.319,-0.155,-12.530,-1.400,-20.580
6753533,-0.981,-0.384,-0.150,-0.140,0.560,-19.180
6753552,-0.973,-0.348,-0.172,1.610,-6.370,-15.610
6753577,-0.939,-0.374,-0.166,9.310,-9.520,-12.740
6753597,-0.991,-0.368,-0.116,10.360,-11.760,-11.690
6753617,-0.964,-0.390,-0.147,12.670,-13.650,-9.380
6753633,-0.901,-0.354,-0.120,17.360,-14.070,-7.560
6753655,-0.951,-0.298,-0.040,14.350,-13.440,-7.000
6753675,-0.994,-0.308,-0.028,13.020,-14.420,-8.330
6753695,-0.937,-0.279,-0.035,11.200,-11.130,-10.220
6753714,-0.915,-0.318,-0.036,9.590,-7.910,-11.130
6753739,-0.896,-0.342,0.020,11.970,-0.280,-13.090
6753756,-0.977,-0.334,-0.020,4.900,0.280,-12.250
6753778,-0.928,-0.367,-0.001,3.570,7.000,-11.970
6753801,-0.925,-0.335,-0.015,9.170,13.230,-13.580
6753821,-0.967,-0.311,-0.004,7.700,13.930,-15.960
6753845,-0.941,-0.362,-0.102,-6.720,16.310,-15.050
6753865,-0.896,-0.478,-0.117,-2.030,13.790,-13.580
6753885,-0.947,-0.419,-0.162,-0.630,9.940,-10.710
6753904,-0.945,-0.436,-0.089,2.520,7.560,-9.590
6753923,-0.942,-0.304,-0.045,-2.590,8.750,-8.190
6753947,-0.938,-0.373,-0.149,-7.070,8.750,-9.800
6753965,-0.968,-0.421,-0.153,-2.030,5.600,-7.630
6753989,-0.912,-0.460,-0.158,2.380,4.200,-5.670
6754009,-0.926,-0.449,-0.114,10.080,3.360,-2.520
6754029,-0.928,-0.451,-0.136,10.640,3.990,1.260
6754049,-0.938,-0.393,-0.089,10.290,5.180,1.120
6754066,-0.973,-0.351,-0.095,6.930,2.240,1.120
6754090,-0.903,-0.397,-0.111,1.960,1.540,-0.420
6754109,-0.890,-0.431,-0.077,5.460,6.930,-2.170
6754128,-0.907,-0.401,-0.121,2.590,7.070,-2.170
6754147,-0.247,-0.487,-0.090,-16.380,23.170,9.100
6754172,-0.824,0.049,0.054,26.320,21.280,10.640
6754191,-0.981,-0.230,-0.168,9.590,5.320,8.750
6754210,-0.938,-0.511,-0.167,46.550,16.380,9.940
6754230,-1.055,-0.371,-0.108,32.690,12.180,4.200
6754251,-1.070,-0.367,-0.165,17.850,9.170,-13.090
6754270,-0.924,-0.262,-0.090,-3.080,-0.490,-13.020
6754295,-0.698,-0.277,-0.206,-40.740,-9.590,15.820
6754314,-0.930,-0.469,-0.155,-20.090,-9.520,17.080
6754338,-0.987,-0.555,-0.183,-16.520,-8.470,11.690
6754357,-0.940,-0.367,-0.099,-10.080,-6.650,12.600
6754378,-0.934,-0.427,-0.133,-17.990,-9.660,14.070
6754398,-0.925,-0.447,-0.114,-20.440,-13.020,17.010
6754417,-0.909,-0.435,-0.166,-19.180,-13.510,21.560
6754442,-0.924,-0.420,-0.119,-19.250,-14.490,24.430
6754462,-0.923,-0.387,-0.101,-19.320,-12.950,27.300
6754480,-0.941,-0.364,-0.126,-23.240,-11.620,28.490
6754502,-0.974,-0.378,-0.142,-17.780,-14.700,29.470
6754520,-0.956,-0.353,-0.186,-11.410,-13.020,31.010
6754539,-0.962,-0.363,-0.183,-6.440,-14.140,31.150
6754559,-0.997,-0.298,-0.177,4.550,-15.890,30.730
6754583,-1.011,-0.167,-0.153,6.160,-18.480,24.850
6754602,-0.999,-0.173,-0.009,-2.730,-22.400,17.430
6754623,-0.955,-0.225,-0.036,-0.630,-20.020,11.410
6754639,-0.956,-0.240,-0.027,-0.070,-15.260,9.240
6754663,-0.964,-0.194,-0.066,-8.890,-13.230,7.840
6754682,-0.954,-0.248,-0.020,-17.430,-13.930,7.000
6754701,-0.954,-0.352,-0.036,-8.540,-5.810,7.210
6754720,-0.967,-0.230,-0.046,-11.270,-2.870,8.330
6754743,-0.952,-0.274,-0.073,-8.540,0.840,7.560
6754762,-0.976,-0.257,-0.087,-8.470,1.540,7.140
6754782,-0.987,-0.270,-0.115,-7.770,1.050,5.880
6754806,-0.971,-0.246,-0.029,-0.560,5.320,5.390
6754826,-0.988,-0.141,-0.050,-9.590,6.860,2.100
6754846,-0.975,-0.274,-0.142,-8.960,6.370,-1.190
6754861,-0.990,-0.275,-0.136,-5.880,4.270,-1.120
6754884,-1.003,-0.285,-0.132,-2.730,1.750,0.490
6754904,-0.992,-0.264,-0.125,-0.490,2.030,0.210
6754924,-1.007,-0.193,-0.110,-2.870,-0.490,-1.330
6754948,-0.978,-0.262,-0.103,-1.610,0.980,-3.430
6754968,-0.974,-0.255,-0.110,-1.680,1.610,-3.360
6754987,-0.976,-0.272,-0.106,-0.980,1.960,-3.150
6755007,-0.999,-0.246,-0.096,-2.310,2.450,-3.360
6755027,-0.976,-0.261,-0.134,-2.450,2.800,-4.200
6755051,-0.963,-0.273,-0.123,-0.910,1.610,-3.220
6755071,-0.974,-0.290,-0.119,0.700,2.100,-0.840
6755091,-0.982,-0.274,-0.128,-0.280,1.470,0.700
6755108,-0.962,-0.273,-0.158,0.140,-1.120,0.910
6755132,-0.958,-0.285,-0.125,1.400,-2.170,1.820
6755152,-0.976,-0.248,-0.088,-0.350,-3.220,3.290
6755172,-0.965,-0.255,-0.103,-4.900,-0.770,2.520
6755196,-0.972,-0.263,-0.115,-5.600,1.260,1.680
6755214,-0.958,-0.281,-0.121,-2.870,2.030,2.590
6755234,-0.976,-0.269,-0.113,-3.570,1.540,4.620
6755256,-0.976,-0.320,-0.159,-1.260,1.820,6.440
6755275,-1.028,-0.280,-0.165,-3.010,-3.850,8.330
6755299,-0.956,-0.367,-0.154,5.040,-4.550,11.130
6755318,-0.926,-0.332,-0.176,14.770,-2.730,14.070
6755342,-0.960,-0.200,-0.148,13.510,-4.830,14.000
6755358,-1.056,-0.106,-0.129,-2.660,-11.970,12.250
6755382,-0.964,-0.285,-0.123,-3.150,-13.440,7.630
6755401,-0.908,-0.234,-0.074,6.510,-9.240,7.980
6755420,-0.963,-0.173,-0.058,-0.770,-4.900,6.790
6755445,-0.950,-0.199,-0.061,-4.480,-3.500,4.620
6755465,-0.988,-0.127,-0.109,-9.660,-3.080,1.820
6755484,-1.009,-0.117,-0.134,-14.350,-4.900,-3.430
6755508,-1.019,-0.217,-0.124,-10.080,-2.870,-8.050
6755529,-0.979,-0.300,-0.113,-4.270,17.780,-6.440
6755549,-0.937,-0.401,-0.099,10.080,6.370,-0.280
6755573,-0.952,-0.243,-0.106,7.280,6.930,4.480
6755593,-1.005,-0.173,-0.157,2.450,3.710,4.200
6755613,-0.980,-0.292,-0.202,-2.170,-3.920,3.220
6755633,-0.974,-0.336,-0.129,0.140,-6.720,5.880
6755652,-0.960,-0.352,-0.123,6.090,-5.880,10.290
6755672,-0.975,-0.285,-0.099,8.470,-5.740,14.000
6755695,-0.990,-0.245,-0.101,10.710,-4.340,12.110
6755719,-0.962,-0.132,-0.090,11.970,-4.270,10.150
6755736,-0.962,-0.120,-0.128,12.530,-1.680,7.840
6755757,-0.982,-0.203,-0.078,14.140,0.140,5.390
6755776,-0.959,-0.184,-0.049,8.890,2.870,2.940
6755801,-0.974,-0.164,-0.066,4.130,6.790,3.150
6755821,-0.992,-0.160,-0.093,-0.210,7.700,0.910
6755836,-0.959,-0.164,-0.109,-4.270,8.260,-0.630
6755857,-0.980,-0.184,-0.112,-5.390,8.260,-1.050
6755876,-0.972,-0.211,-0.162,-7.910,6.300,-1.470
6755901,-0.964,-0.281,-0.144,-7.700,5.740,-1.890
6755921,-0.959,-0.265,-0.110,2.380,9.590,-2.660
6755941,-1.002,-0.099,-0.164,-12.460,3.920,-4.200
6755959,-0.993,-0.237,-0.190,-11.900,3.500,-7.140
6755981,-1.023,-0.254,-0.154,-6.580,-0.210,-8.260
6756001,-0.959,-0.332,-0.175,-0.490,0.070,-6.860
6756025,-0.985,-0.251,-0.163,2.100,-2.170,-4.410
6756045,-0.992,-0.210,-0.194,-5.110,-6.720,-4.480
6756068,-0.988,-0.248,-0.189,-0.840,-9.310,-6.300
6756088,-0.979,-0.289,-0.150,7.350,-8.610,-6.930
6756105,-0.991,-0.171,-0.121,8.120,-8.330,-7.210
6756127,-0.969,-0.213,-0.120,0.420,-8.540,-9.660
6756148,-0.992,-0.212,-0.116,5.110,-5.810,-12.670
6756172,-0.971,-0.250,-0.138,1.890,-6.230,-15.190
6756192,-0.980,-0.251,-0.140,6.160,-5.950,-14.980
6756210,-0.977,-0.267,-0.129,7.700,-6.300,-14.280
6756228,-0.962,-0.244,-0.092,9.730,-8.400,-12.740
6756251,-0.976,-0.284,-0.120,8.190,-4.340,-14.070
6756272,-0.984,-0.248,-0.123,5.950,-4.760,-15.470
6756290,-0.968,-0.257,-0.137,1.260,-5.740,-16.590
6756314,-0.966,-0.307,-0.103,5.110,-6.160,-15.750
6756334,-0.980,-0.325,-0.081,9.380,-3.220,-15.190
6756350,-0.977,-0.307,-0.095,6.860,-8.750,-11.410
6756374,-0.932,-0.441,-0.120,15.470,-4.970,-7.490
6756393,-0.964,-0.390,-0.172,19.670,-6.720,-4.480
6756412,-0.938,-0.374,-0.206,21.700,-8.400,-3.710
6756437,-0.968,-0.318,-0.111,27.510,-10.290,-2.940
6756457,-0.977,-0.293,-0.064,31.430,-8.260,-1.610
6756475,-0.963,-0.244,-0.077,21.770,-10.290,-4.060
6756499,-0.957,-0.230,-0.022,7.490,-10.640,-8.050
6756519,-0.921,-0.293,-0.060,1.260,-8.540,-10.430
6756542,-0.929,-0.352,-0.048,1.890,-6.860,-10.290
6756561,-0.916,-0.366,-0.052,2.030,-2.730,-10.780
6756581,-0.935,-0.325,-0.041,-1.540,-1.190,-11.340
6756600,-0.949,-0.302,-0.074,-9.310,-1.190,-11.970
6756625,-0.926,-0.338,-0.064,-14.000,-0.350,-14.770
6756645,-0.974,-0.490,-0.058,-12.110,-1.260,-13.860
6756664,-0.937,-0.428,-0.093,0.700,1.820,-13.650
6756688,-0.943,-0.330,-0.080,-0.980,2.170,-11.970
6756708,-0.935,-0.332,-0.098,-6.930,-0.700,-14.210
6756726,-0.995,-0.355,-0.103,-10.500,-4.480,-13.510
6756750,-0.936,-0.463,-0.089,-5.180,-3.500,-11.620
6756768,-0.895,-0.463,-0.085,2.800,1.680,-10.080
6756792,-0.950,-0.376,-0.049,0.350,3.570,-10.850
6756811,-0.949,-0.337,-0.058,-3.570,4.690,-10.570
6756831,-0.947,-0.454,-0.128,-4.270,5.600,-11.270
6756854,-0.896,-0.457,-0.129,3.430,4.970,-9.730
6756876,-0.918,-0.416,-0.116,5.600,4.270,-8.120
6756898,-0.945,-0.390,-0.080,2.520,3.290,-6.300
6756922,-0.927,-0.409,-0.061,3.430,5.600,-5.740
6756941,-0.950,-0.380,-0.109,-0.280,3.500,-7.210
6756960,-0.898,-0.448,-0.147,-4.480,0.910,-7.560
6756983,-0.909,-0.503,-0.126,7.350,3.570,-4.060
6757002,-0.928,-0.403,-0.087,8.120,3.640,-1.610
6757027,-0.924,-0.394,-0.099,3.640,3.990,-1.540
6757046,-0.915,-0.437,-0.111,1.260,4.690,-1.260
6757065,-0.911,-0.458,-0.088,6.440,6.580,0.490
6757085,-0.919,-0.400,-0.114,2.870,6.930,-0.630
6757108,-0.915,-0.441,-0.141,0.140,4.830,-0.840
6757126,-0.918,-0.444,-0.133,1.890,2.940,0.420
6757150,-0.917,-0.425,-0.151,0.490,1.470,0.700
6757169,-0.675,-0.185,0.116,-3.360,-15.960,12.110
6757193,-1.216,-0.295,-0.191,44.800,-43.890,21.770
6757213,-1.356,-0.542,-0.057,-46.830,-10.360,9.310
6757233,-0.774,-0.610,-0.297,-31.430,-5.880,6.020
6757253,-0.948,-0.416,-0.186,-6.930,-2.030,-3.710
6757273,-1.037,-0.489,-0.168,2.100,9.660,-21.770
6757297,-0.891,-0.619,-0.232,28.140,-7.770,1.750
6757314,-0.567,-0.249,-0.147,32.410,-5.740,10.570
6757333,-1.067,-0.435,-0.137,17.500,-13.720,13.860
6757357,-0.965,-0.443,-0.101,12.460,-9.170,11.970
6757375,-0.910,-0.428,-0.122,6.020,-10.850,12.950
6757399,-0.925,-0.390,-0.122,0.420,-9.590,13.090
6757419,-0.935,-0.403,-0.129,-2.240,-11.270,12.740
6757443,-0.937,-0.397,-0.130,-1.260,-12.180,12.740
6757463,-0.927,-0.373,-0.107,-4.130,-12.040,12.460
6757482,-0.931,-0.404,-0.104,-6.580,-12.670,12.530
6757501,-0.929,-0.423,-0.102,-4.690,-11.970,14.350
6757523,-0.924,-0.416,-0.106,-0.560,-12.040,16.380
6757547,-0.932,-0.388,-0.083,1.540,-10.990,17.360
6757567,-0.938,-0.354,-0.105,0.350,-10.290,17.500
6757585,-0.949,-0.372,-0.094,0.560,-10.500,16.940
6757608,-0.939,-0.359,-0.091,2.870,-9.520,16.730
6757631,-0.943,-0.341,-0.084,3.570,-8.050,16.870
6757652,-0.938,-0.358,-0.096,0.700,-7.770,14.910
6757669,-0.968,-0.295,-0.098,-2.240,-10.080,14.280
6757693,-0.957,-0.349,-0.083,-1.050,-8.470,13.370
6757713,-0.969,-0.337,-0.100,-0.980,-12.320,13.860
6757731,-0.975,-0.328,-0.086,-0.140,-13.370,14.070
6757753,-0.964,-0.302,-0.046,-0.840,-14.000,13.510
6757773,-0.978,-0.248,-0.070,-1.540,-14.840,12.040
6757797,-0.966,-0.290,-0.065,-3.290,-15.120,9.240
6757817,-0.967,-0.342,-0.049,0.070,-13.930,8.750
6757835,-0.946,-0.348,-0.040,2.520,-11.760,9.100
6757858,-0.962,-0.273,-0.035,3.220,-13.090,9.240
6757878,-0.948,-0.266,-0.042,-3.780,-9.240,6.860
6757897,-0.958,-0.286,-0.019,-3.920,-6.160,4.620
6757922,-0.952,-0.256,-0.042,-4.760,-1.260,2.800
6757942,-0.974,-0.315,-0.060,-2.240,-0.140,1.610
6757960,-0.973,-0.304,-0.049,-3.150,0.210,2.240
6757983,-0.988,-0.288,-0.034,-2.380,-1.260,3.150
6758000,-0.966,-0.320,-0.047,-1.610,-0.770,4.130
6758022,-0.974,-0.293,-0.034,-4.410,-1.260,4.760
6758039,-0.974,-0.276,-0.041,-6.160,-0.770,4.130
6758059,-0.967,-0.307,-0.052,-6.230,-0.770,4.130
6758083,-0.972,-0.318,-0.077,-4.690,-0.840,5.390
6758103,-0.970,-0.316,-0.063,-4.270,-1.470,6.720
6758123,-0.953,-0.310,-0.026,-5.110,0.350,8.470
6758142,-0.966,-0.264,-0.046,-10.150,0.910,8.190
6758166,-0.989,-0.299,-0.064,-13.020,0.350,8.050
6758184,-0.984,-0.303,-0.036,-9.170,2.380,8.820
6758205,-0.974,-0.316,-0.082,-11.200,1.050,9.940
6758226,-0.996,-0.357,-0.154,-8.050,-1.540,12.040
6758243,-0.984,-0.336,-0.100,-0.560,-3.220,14.490
6758263,-0.965,-0.270,-0.090,-1.260,-4.550,15.820
6758286,-0.987,-0.259,-0.088,-1.260,-6.090,16.940
6758307,-0.997,-0.208,-0.053,-3.710,-7.700,14.980
6758326,-0.984,-0.239,-0.052,-7.560,-6.720,13.650
6758350,-0.979,-0.233,-0.058,-0.700,-6.020,11.270
6758370,-0.978,-0.254,-0.049,3.080,-2.100,12.040
6758387,-0.981,-0.186,-0.019,-0.070,0.770,10.990
6758411,-0.965,-0.163,0.019,-3.360,4.340,7.070
6758430,-0.959,-0.203,-0.008,-2.590,6.160,7.140
6758451,-0.950,-0.259,-0.068,-5.740,5.740,5.460
6758466,-0.963,-0.299,-0.033,1.540,6.020,7.630
6758491,-0.959,-0.207,-0.100,0.350,4.970,10.430
6758511,-0.994,-0.304,-0.067,2.660,4.900,10.710
6758531,-1.015,-0.198,-0.055,3.430,5.880,11.200
6758551,-1.005,-0.176,-0.090,-4.200,5.110,9.450
6758566,-0.970,-0.185,-0.101,0.980,6.580,9.730
6758591,-0.979,-0.143,-0.106,-8.540,5.740,9.100
6758610,-0.996,-0.221,-0.097,-8.190,5.110,8.400
6758631,-1.015,-0.237,-0.111,-6.930,4.830,7.070
6758651,-0.973,-0.272,-0.141,1.890,7.280,6.860
6758674,-0.976,-0.235,-0.099,5.040,6.510,8.890
6758695,-0.981,-0.190,-0.079,6.650,7.770,8.890
6758715,-1.009,-0.148,-0.101,1.960,6.510,6.650
6758739,-0.997,-0.188,-0.105,0.910,5.670,3.920
6758758,-0.970,-0.196,-0.122,6.440,8.120,2.310
6758778,-0.978,-0.118,-0.144,-2.170,4.900,1.610
6758798,-1.009,-0.224,-0.134,-4.270,3.220,0.350
6758822,-0.992,-0.196,-0.153,-1.260,0.280,-0.070
6758842,-1.002,-0.209,-0.171,-1.610,-2.240,0.000
6758862,-0.992,-0.237,-0.129,5.250,-2.170,-0.980
6758880,-1.012,-0.119,-0.130,7.210,-1.190,-2.520
6758899,-0.992,-0.112,-0.159,-2.940,-6.300,-4.830
6758923,-1.006,-0.272,-0.143,-5.670,-10.500,-7.000
6758944,-1.007,-0.198,-0.114,6.370,-7.630,-6.930
6758968,-1.009,-0.129,-0.109,-1.820,-2.870,-9.170
6758986,-0.969,-0.225,-0.117,10.430,-6.160,-9.800
6759009,-0.990,-0.140,-0.092,10.990,-4.270,-10.290
6759028,-0.986,-0.225,-0.123,3.290,-7.210,-12.250
6759052,-0.989,-0.233,-0.090,10.850,-6.160,-12.460
6759073,-0.961,-0.174,-0.076,8.470,-1.400,-9.870
6759089,-0.977,-0.228,-0.087,4.340,-1.260,-10.780
6759112,-0.975,-0.272,-0.133,2.100,-2.590,-12.600
6759133,-0.985,-0.262,-0.129,11.340,-2.870,-11.130
6759152,-0.996,-0.213,-0.105,7.770,-6.930,-10.500
6759177,-0.989,-0.270,-0.135,4.550,-9.450,-12.390
6759197,-0.990,-0.256,-0.096,5.810,-9.030,-12.600
6759217,-0.983,-0.248,-0.079,4.480,-10.010,-12.950
6759235,-0.949,-0.272,-0.109,6.020,-9.170,-13.160
6759257,-0.988,-0.262,-0.087,4.550,-11.130,-13.370
6759276,-0.949,-0.319,-0.083,5.740,-11.760,-13.230
6759301,-0.965,-0.299,-0.079,10.290,-10.780,-12.530
6759316,-0.976,-0.294,-0.089,8.470,-13.090,-12.390
6759337,-0.980,-0.333,-0.070,11.200,-13.580,-11.550
6759356,-0.973,-0.304,-0.069,12.600,-12.250,-10.500
6759376,-0.976,-0.295,-0.058,10.990,-12.740,-10.500
6759401,-0.976,-0.303,-0.056,10.780,-14.000,-11.130
6759421,-0.951,-0.343,-0.050,7.910,-14.280,-10.990
6759441,-0.945,-0.360,-0.020,13.930,-12.390,-9.450
6759457,-0.964,-0.298,-0.018,12.110,-11.550,-8.750
6759481,-0.955,-0.317,-0.021,7.770,-10.220,-8.540
6759501,-0.964,-0.336,-0.008,12.880,-6.300,-8.120
6759521,-0.967,-0.289,-0.023,7.140,-7.210,-10.290
6759540,-0.930,-0.333,0.014,4.970,-6.020,-11.480
6759559,-0.884,-0.362,0.021,3.920,-0.980,-8.820
6759582,-0.961,-0.391,-0.023,14.630,5.320,-10.290
6759601,-0.977,-0.314,-0.052,10.850,3.150,-10.010
6759621,-0.952,-0.356,-0.050,8.330,2.380,-8.680
6759645,-0.960,-0.257,0.005,10.850,1.400,-7.630
6759665,-0.946,-0.337,0.001,10.710,5.460,-8.750
6759683,-0.961,-0.324,-0.024,6.930,5.950,-10.920
6759704,-0.970,-0.377,-0.043,5.180,5.180,-12.180
6759723,-0.942,-0.355,-0.028,3.290,5.950,-11.830
6759746,-0.940,-0.345,-0.005,3.850,7.560,-12.880
6759767,-0.950,-0.350,-0.046,-5.110,7.490,-14.280
6759791,-0.939,-0.433,-0.056,-2.940,7.000,-14.210
6759809,-0.938,-0.423,-0.034,3.500,10.430,-13.580
6759830,-0.940,-0.345,-0.013,1.400,11.410,-13.370
6759849,-0.940,-0.333,-0.067,-4.690,11.690,-13.020
6759868,-0.915,-0.495,-0.076,-8.260,7.770,-12.810
6759893,-0.905,-0.501,-0.082,4.550,10.080,-7.770
6759911,-0.928,-0.440,-0.067,3.640,9.940,-4.480
6759935,-0.938,-0.412,-0.062,-0.490,9.100,-3.220
6759951,-0.920,-0.435,-0.082,-3.290,7.770,-3.220
6759974,-0.932,-0.414,-0.054,1.260,8.750,-2.310
6759993,-0.593,0.068,0.019,-42.490,-1.820,-8.680
6760012,-1.154,0.360,-0.080,14.000,-3.150,17.780
6760037,-1.199,-0.569,-0.139,-1.750,-0.490,-3.990
6760056,-0.924,-0.521,-0.181,-4.830,5.250,-6.860
6760074,-0.928,-0.497,-0.090,-12.600,2.800,-10.430
6760098,-0.980,-0.510,-0.148,-13.930,3.640,-9.240
6760118,-0.941,-0.542,-0.163,-5.530,-0.140,-8.820
6760137,-0.916,-0.608,-0.173,16.030,2.590,-7.000
6760161,-0.889,-0.411,-0.124,34.300,-5.320,8.470
6760181,-0.900,-0.277,-0.124,14.000,-19.110,17.150
6760201,-1.034,-0.397,-0.102,-8.960,-17.570,14.350
6760221,-0.935,-0.370,-0.100,-6.090,-15.610,10.780
6760241,-0.923,-0.392,-0.099,-15.050,-15.330,8.540
6760259,-0.928,-0.463,-0.069,-10.080,-11.690,7.770
6760281,-0.916,-0.487,-0.107,2.800,-12.460,11.550
6760300,-0.925,-0.451,-0.095,-1.890,-12.390,12.950
6760318,-0.924,-0.452,-0.072,-1.260,-12.600,15.400
6760342,-0.917,-0.429,-0.065,-1.890,-12.810,17.920
6760362,-0.950,-0.409,-0.090,1.260,-12.880,18.760
6760377,-0.941,-0.408,-0.078,1.750,-13.580,18.620
6760397,-0.942,-0.388,-0.051,4.270,-13.160,18.200
6760421,-0.930,-0.372,-0.034,6.580,-10.430,17.640
6760442,-0.950,-0.312,-0.044,3.570,-10.360,17.360
6760462,-0.946,-0.368,-0.050,4.550,-9.240,16.380
6760482,-0.964,-0.320,-0.027,3.640,-9.520,15.750
6760502,-0.954,-0.296,-0.037,1.540,-8.400,14.350
6760517,-0.968,-0.317,-0.021,-0.490,-8.960,13.790
6760542,-0.967,-0.317,-0.035,-5.460,-9.660,13.090
6760562,-0.976,-0.295,-0.024,-8.960,-9.800,12.670
6760580,-0.966,-0.274,-0.033,-10.780,-9.800,11.760
6760598,-0.970,-0.313,-0.026,-11.550,-9.380,10.710
6760622,-0.943,-0.341,-0.044,-11.410,-8.610,8.330
6760642,-0.950,-0.326,0.009,-8.680,-5.600,9.520
6760662,-0.953,-0.312,0.009,-9.100,-0.420,9.380
6760683,-0.931,-0.296,-0.007,-13.860,2.450,8.190
6760702,-0.941,-0.331,-0.041,-12.810,5.250,6.230
6760721,-0.963,-0.325,-0.039,-11.200,4.550,7.420
6760745,-0.957,-0.327,-0.039,-10.360,5.040,7.910
6760765,-0.963,-0.325,0.120,-12.180,5.740,9.450
6760783,-0.971,-0.259,0.000,-18.760,8.260,9.170
6760800,-0.969,-0.247,-0.051,-23.310,9.380,7.280
6760824,-0.978,-0.314,-0.079,-18.550,11.270,5.810
6760844,-0.973,-0.333,-0.113,-18.410,10.080,7.070
6760868,-0.971,-0.337,-0.099,-13.510,10.010,9.940
6760888,-0.985,-0.300,-0.094,-14.910,7.070,12.180
6760907,-0.993,-0.289,-0.119,-14.770,6.580,12.390
6760923,-1.014,-0.289,-0.133,-15.400,4.130,11.550
6760948,-0.952,-0.322,-0.157,-8.470,0.630,13.790
6760968,-0.960,-0.312,-0.146,-3.850,-1.680,16.730
6760985,-1.000,-0.278,-0.103,-3.220,-3.010,17.570
6761008,-1.001,-0.230,-0.104,-6.720,-4.900,16.170
6761027,-0.960,-0.259,-0.105,-6.370,-4.130,15.540
6761050,-0.946,-0.281,-0.102,-2.310,-2.450,16.730
6761074,-0.974,-0.315,-0.089,8.330,0.910,18.200
6761093,-1.000,-0.176,-0.074,8.750,2.870,16.380
6761118,-0.880,-0.253,-0.103,9.450,3.710,16.450
6761138,-0.971,-0.183,-0.136,10.150,3.010,15.050
6761158,-0.968,-0.246,-0.108,9.730,3.990,15.260
6761179,-1.004,-0.221,-0.076,7.630,3.710,16.590
6761203,-0.977,-0.225,-0.063,8.960,6.510,18.900
6761223,-0.984,-0.196,-0.095,4.060,5.670,19.810
6761243,-0.980,-0.176,-0.126,6.510,7.560,18.620
6761262,-0.966,-0.130,-0.140,0.630,7.000,16.240
6761281,-1.001,-0.147,-0.134,-1.680,3.640,13.300
6761304,-1.004,-0.137,-0.108,0.070,4.480,10.500
6761328,-1.008,-0.152,-0.141,-5.180,3.780,7.560
6761348,-1.004,-0.154,-0.115,-1.540,4.900,5.530
6761366,-0.992,-0.149,-0.138,-6.300,3.290,3.920
6761390,-0.984,-0.173,-0.168,-7.070,2.030,2.590
6761409,-0.966,-0.203,-0.139,-1.890,2.590,1.400
6761430,-0.991,-0.114,-0.122,-0.840,3.290,-0.560
6761450,-0.997,-0.096,-0.147,-5.600,1.610,-2.240
6761470,-0.984,-0.187,-0.165,0.000,0.630,-3.780
6761489,-0.999,-0.178,-0.134,-0.420,0.140,-5.110
6761509,-0.988,-0.168,-0.148,0.070,0.910,-6.370
6761528,-0.982,-0.175,-0.177,-2.730,-1.470,-6.860
6761549,-0.983,-0.206,-0.143,5.320,0.770,-7.980
6761571,-0.996,-0.156,-0.136,2.100,-0.630,-9.870
6761593,-0.987,-0.188,-0.159,1.120,0.070,-12.460
6761612,-0.967,-0.188,-0.149,4.760,0.630,-14.560
6761632,-0.977,-0.200,-0.145,6.090,0.840,-17.360
6761651,-0.983,-0.133,-0.146,5.110,1.470,-20.300
6761674,-0.995,-0.146,-0.154,-4.200,-2.240,-23.380
6761694,-0.988,-0.231,-0.195,-3.640,-5.040,-24.570
6761718,-0.996,-0.268,-0.214,3.290,-7.980,-21.560
6761738,-0.998,-0.277,-0.205,8.330,-12.180,-16.450
6761756,-1.009,-0.285,-0.148,8.120,-15.750,-14.560
6761778,-0.949,-0.362,-0.106,11.480,-15.260,-11.270
6761798,-0.946,-0.274,-0.096,11.550,-12.180,-7.420
6761822,-0.967,-0.243,-0.073,9.660,-11.480,-7.350
6761842,-0.960,-0.214,-0.115,0.420,-13.300,-8.820
6761860,-0.942,-0.288,-0.097,1.960,-10.360,-10.360
6761884,-0.951,-0.268,-0.046,4.200,-5.600,-10.430
6761904,-0.968,-0.212,-0.059,-8.330,-4.900,-10.710
6761919,-0.953,-0.391,-0.156,-0.560,-3.570,-11.200
6761944,-0.973,-0.272,-0.096,8.680,1.330,-12.250
6761964,-0.986,-0.189,-0.067,1.470,0.910,-15.260
6761983,-0.967,-0.274,-0.104,-6.020,0.070,-17.220
6762003,-0.971,-0.317,-0.123,-7.770,-0.700,-17.780
6762026,-0.961,-0.344,-0.158,-6.370,-1.610,-16.030
6762047,-0.962,-0.325,-0.153,2.030,-1.400,-16.310
6762071,-0.975,-0.272,-0.112,-0.280,-5.250,-16.170
6762090,-0.973,-0.347,-0.155,-4.620,-6.860,-16.870
6762111,-0.915,-0.384,-0.119,5.740,-6.510,-15.960
6762130,-0.929,-0.403,-0.148,7.140,-6.370,-14.630
6762149,-0.954,-0.398,-0.157,11.620,-8.120,-13.580
6762173,-0.973,-0.346,-0.119,14.560,-12.040,-10.500
6762193,-0.897,-0.357,-0.071,17.780,-9.730,-11.760
6762211,-0.968,-0.304,-0.042,15.120,-6.580,-15.260
6762231,-0.964,-0.339,-0.087,6.090,-6.160,-15.890
6762250,-0.931,-0.419,-0.150,5.530,-7.140,-18.130
6762275,-0.908,-0.441,-0.081,17.850,-4.550,-17.780
6762290,-0.899,-0.379,-0.011,18.270,-1.050,-17.010
6762314,-0.967,-0.321,-0.012,10.430,-1.330,-14.700
6762335,-0.955,-0.349,-0.079,-6.860,-0.980,-16.730
6762354,-0.947,-0.445,-0.140,-7.630,-3.220,-19.040
6762373,-0.921,-0.479,-0.086,6.090,-3.010,-17.010
6762398,-0.935,-0.420,-0.089,7.840,-2.100,-11.410
6762416,-0.903,-0.517,-0.072,2.870,-3.500,-7.980
6762440,-0.870,-0.504,-0.030,10.220,3.430,-2.660
6762460,-0.912,-0.404,-0.088,3.150,1.890,-0.140
6762480,-0.902,-0.492,-0.122,3.010,-1.610,0.700
6762500,-0.923,-0.417,-0.068,11.550,0.070,3.430
6762520,-0.935,-0.375,-0.065,8.260,1.400,2.030
6762540,-0.918,-0.378,-0.051,7.700,4.060,-2.240
6762559,-0.915,-0.376,-0.056,1.890,5.250,-4.970
6762580,-0.902,-0.440,-0.102,-3.150,3.850,-4.830
6762600,-0.922,-0.468,-0.090,2.170,2.450,-1.820
6762618,-0.772,-0.360,-0.076,-4.620,5.390,-2.590
6762637,-0.813,-0.631,-0.092,56.210,32.900,18.690
6762657,-0.747,-0.219,-0.023,28.700,12.810,23.240
6762681,-1.020,-0.256,-0.052,-5.670,-2.240,9.380
6762700,-1.044,-0.485,-0.077,-48.790,-11.200,1.750
6762719,-0.859,-0.671,-0.107,-21.420,-2.730,2.520
6762744,-0.922,-0.644,-0.114,22.960,9.590,6.300
6762763,-0.981,-0.421,-0.092,24.500,11.900,2.240
6762786,-0.860,-0.468,-0.116,43.610,-5.460,14.630
6762805,-0.884,-0.102,-0.081,-6.510,-1.820,20.160
6762829,-0.963,-0.506,-0.109,-8.890,-5.530,15.190
6762847,-0.962,-0.366,-0.077,-8.820,-4.480,11.340
6762866,-0.933,-0.449,-0.121,-11.550,-5.320,11.130
6762891,-0.931,-0.441,-0.104,-4.760,-5.600,11.130
6762909,-0.932,-0.403,-0.107,-6.300,-7.000,11.480
6762929,-0.935,-0.385,-0.105,-6.510,-7.000,10.850
6762948,-0.896,-0.442,-0.102,-7.350,-7.560,11.690
6762973,-0.946,-0.387,-0.094,-5.880,-7.210,12.040
6762993,-0.939,-0.409,-0.101,-5.740,-8.890,11.970
6763012,-0.931,-0.370,-0.093,-3.780,-7.420,12.110
6763036,-0.961,-0.345,-0.100,-1.610,-8.540,11.270
6763055,-0.983,-0.294,-0.075,-4.970,-11.830,9.310
6763076,-0.952,-0.331,-0.090,-7.700,-12.460,7.280
6763092,-0.999,-0.344,-0.124,-3.990,-18.690,6.510
6763115,-0.947,-0.415,-0.104,-5.250,-14.840,6.650
6763135,-0.973,-0.379,-0.085,-5.390,-16.240,8.330
6763156,-0.953,-0.378,-0.073,-0.910,-15.260,9.450
6763174,-0.971,-0.306,-0.073,-5.180,-16.730,8.820
6763194,-0.949,-0.363,-0.071,-6.020,-16.800,7.210
6763218,-0.938,-0.367,-0.050,-4.690,-16.520,8.400
6763237,-0.953,-0.359,-0.038,-6.720,-16.800,10.570
6763256,-0.950,-0.371,-0.022,-3.640,-14.350,12.250
6763277,-0.928,-0.304,-0.006,-1.890,-10.150,12.040
6763300,-0.949,-0.289,-0.019,-5.530,-9.520,10.430
6763321,-0.906,-0.382,-0.013,0.210,-2.730,9.030
6763341,-0.903,-0.323,0.041,3.710,3.850,10.150
6763365,-0.990,-0.223,-0.008,-12.740,5.460,9.170
6763384,-0.984,-0.289,-0.038,-14.560,5.460,5.740
6763402,-0.947,-0.339,-0.056,-10.290,6.720,5.600
6763426,-0.943,-0.298,-0.031,-8.680,9.520,4.970
6763446,-0.963,-0.292,-0.037,-13.160,10.780,4.550
6763466,-0.957,-0.295,-0.035,-15.260,13.300,5.250
6763490,-0.982,-0.291,-0.078,-16.310,12.530,5.810
6763510,-0.953,-0.368,-0.142,-10.570,12.950,6.090
6763525,-1.006,-0.336,-0.139,-7.280,8.890,8.540
6763550,-0.971,-0.355,-0.142,-7.350,4.550,11.130
6763570,-0.949,-0.339,-0.134,-1.610,1.890,14.070
6763589,-0.972,-0.299,-0.117,1.470,0.070,15.960
6763607,-0.990,-0.318,-0.087,3.150,-2.730,16.590
6763626,-0.958,-0.294,-0.067,4.760,4.200,15.610
6763651,-1.001,-0.240,-0.072,-2.590,3.080,13.160
6763670,-0.951,-0.316,-0.154,-3.500,2.100,13.020
6763690,-0.924,-0.257,-0.106,-2.450,2.870,14.840
6763714,-0.989,-0.260,-0.059,-5.180,4.620,14.420
6763733,-0.999,-0.128,-0.060,-6.580,5.950,11.550
6763751,-0.994,-0.157,-0.088,-11.970,7.420,9.310
6763775,-0.949,-0.200,-0.106,-11.480,8.540,6.650
6763798,-0.969,-0.204,-0.134,-14.840,9.100,5.810
6763822,-0.959,-0.315,-0.199,-10.360,6.440,7.350
6763842,-1.005,-0.346,-0.165,-5.880,0.140,11.270
6763857,-0.991,-0.354,-0.132,0.350,-0.630,15.820
6763877,-0.980,-0.264,-0.119,4.060,-1.890,19.180
6763899,-0.956,-0.231,-0.174,4.900,0.140,19.880
6763918,-0.993,-0.231,-0.150,6.510,0.140,19.950
6763943,-0.968,-0.215,-0.081,15.400,5.250,17.920
6763962,-0.980,-0.129,-0.094,7.280,7.490,15.400
6763983,-0.998,-0.140,-0.109,1.610,7.910,10.290
6764003,-0.964,-0.149,-0.122,-4.970,9.100,6.020
6764019,-0.964,-0.162,-0.132,-0.280,10.710,4.760
6764043,-0.995,-0.158,-0.137,-1.960,8.260,3.430
6764063,-0.980,-0.235,-0.164,2.100,9.800,2.590
6764083,-0.974,-0.245,-0.131,6.510,11.200,3.220
6764103,-0.997,-0.163,-0.166,-0.490,9.870,3.080
6764125,-0.950,-0.223,-0.241,-5.180,6.580,3.990
6764149,-0.980,-0.179,-0.172,4.270,5.530,3.290
6764173,-0.954,-0.200,-0.197,-4.690,-0.910,1.470
6764193,-0.992,-0.328,-0.205,11.200,1.820,6.230
6764212,-1.009,-0.145,-0.180,5.600,2.100,3.780
6764231,-1.003,-0.147,-0.193,1.470,-2.660,1.680
6764252,-0.976,-0.147,-0.213,0.490,-3.990,-0.980
6764275,-1.002,-0.166,-0.185,-5.600,-7.210,-2.870
6764293,-1.013,-0.203,-0.186,-5.600,-9.590,-4.970
6764317,-1.001,-0.198,-0.179,4.130,-11.130,-4.690
6764336,-0.992,-0.169,-0.215,3.990,-12.180,-6.230
6764355,-1.012,-0.169,-0.181,0.980,-17.080,-8.050
6764377,-0.972,-0.215,-0.169,1.680,-16.590,-9.030
6764401,-0.987,-0.238,-0.152,9.590,-15.120,-8.400
6764421,-0.990,-0.203,-0.150,9.800,-14.910,-9.100
6764440,-0.978,-0.178,-0.152,8.680,-13.860,-10.360
6764460,-0.989,-0.144,-0.138,7.280,-14.210,-12.040
6764480,-0.991,-0.211,-0.172,3.290,-20.090,-12.880
6764504,-0.979,-0.280,-0.185,6.160,-22.120,-13.090
6764523,-1.004,-0.287,-0.169,9.800,-24.290,-11.760
6764546,-0.976,-0.249,-0.095,9.030,-25.830,-9.590
6764567,-0.976,-0.257,-0.122,8.050,-29.400,-7.770
6764587,-1.000,-0.219,-0.061,9.660,-31.010,-7.560
6764607,-0.950,-0.245,-0.105,4.970,-33.810,-9.310
6764627,-0.948,-0.372,-0.091,10.220,-38.850,-9.170
6764647,-0.980,-0.319,-0.030,30.170,-30.310,-8.470
6764671,-0.993,-0.201,0.002,16.170,-33.670,-7.140
6764691,-0.960,-0.282,-0.023,13.020,-32.620,-6.650
6764709,-0.952,-0.363,0.039,22.260,-26.040,-6.090
6764731,-0.945,-0.197,0.116,23.310,-18.620,-5.740
6764755,-0.969,-0.139,0.062,5.600,-18.480,-7.630
6764775,-0.953,-0.301,0.027,-2.800,-15.470,-10.150
6764794,-0.957,-0.350,0.015,9.170,-7.420,-11.480
6764810,-0.947,-0.275,0.106,19.320,-0.490,-12.320
6764830,-0.949,-0.157,0.117,7.910,3.010,-13.860
6764854,-0.966,-0.203,0.091,-6.720,2.730,-14.700
6764875,-0.960,-0.294,0.016,-15.540,4.900,-15.260
6764893,-0.975,-0.353,-0.053,-17.150,3.430,-15.890
6764913,-0.948,-0.428,-0.027,-0.280,6.300,-15.890
6764937,-0.984,-0.249,0.031,-6.510,6.440,-14.350
6764957,-0.989,-0.257,0.020,-17.850,1.820,-14.980
6764977,-0.974,-0.332,-0.027,-21.490,0.630,-15.540
6764997,-1.013,-0.453,-0.054,-7.070,-0.140,-13.860
6765017,-0.962,-0.396,-0.023,-5.390,2.310,-13.580
6765041,-0.937,-0.355,-0.021,-4.410,0.840,-13.090
6765059,-0.915,-0.365,0.021,-3.570,3.710,-13.370
6765081,-0.963,-0.283,0.051,-7.770,7.560,-15.820
6765100,-0.987,-0.242,0.030,-20.720,8.190,-17.780
6765124,-0.961,-0.394,-0.019,-16.870,14.350,-22.890
6765145,-0.876,-0.508,-0.006,3.640,24.780,-22.400
6765165,-0.935,-0.358,-0.034,1.260,25.900,-17.710
6765185,-0.918,-0.369,-0.063,3.850,25.480,-18.620
6765205,-0.944,-0.358,-0.061,-7.140,21.840,-15.680
6765225,-0.984,-0.419,-0.090,-5.950,17.500,-17.080
6765250,-0.908,-0.448,-0.149,-11.060,16.170,-17.780
6765269,-0.927,-0.497,-0.148,-7.840,11.200,-13.160
6765293,-0.905,-0.484,-0.156,-2.310,9.590,-9.660
6765313,-0.912,-0.494,-0.113,-0.070,5.600,-6.580
6765333,-0.903,-0.452,-0.094,2.100,7.560,-5.320
6765351,-0.932,-0.433,-0.077,1.610,8.960,-5.460
6765375,-0.908,-0.378,-0.106,-0.490,10.360,-6.230
6765395,-0.892,-0.505,-0.114,-2.450,9.380,-4.410
6765415,-0.879,-0.477,-0.134,0.350,7.980,-1.050
6765434,-0.926,-0.464,-0.090,3.080,8.960,-0.280
6765455,-0.909,-0.417,-0.068,-0.630,11.760,0.000
6765473,-0.878,-0.422,-0.162,-6.090,12.040,-0.350
6765492,-0.912,-0.453,-0.131,-4.480,9.660,-0.350
6765517,0.662,-0.601,0.345,-87.640,147.000,22.890
6765535,-1.138,-0.553,0.209,-60.200,-9.380,22.890
6765554,-1.078,-0.605,-0.245,-29.890,-6.650,-5.320
6765578,-1.023,-0.666,-0.148,0.070,-3.220,-7.560
6765599,-0.956,-0.689,-0.261,14.910,9.660,-19.040
6765623,-0.963,-0.600,-0.228,29.330,-2.380,-15.960
6765639,-0.456,-0.117,-0.156,55.930,3.640,14.350
6765663,-1.042,-0.512,-0.221,7.560,-6.440,25.760
6765683,-0.896,-0.464,-0.171,3.290,-6.930,25.410
6765703,-0.886,-0.454,-0.143,5.320,-2.170,24.290
6765723,-0.903,-0.366,-0.144,-13.230,1.820,20.300
6765742,-0.929,-0.401,-0.128,-11.480,2.100,20.720
6765764,-0.879,-0.421,-0.141,-12.950,2.940,23.590
6765788,-0.908,-0.402,-0.153,-14.140,3.990,26.600
6765808,-0.906,-0.418,-0.163,-15.750,3.990,29.050
6765828,-0.905,-0.414,-0.196,-16.590,4.410,30.940
6765852,-0.901,-0.427,-0.203,-18.060,2.520,34.090
6765872,-0.934,-0.399,-0.191,-14.560,2.170,36.680
6765888,-0.920,-0.335,-0.218,-11.410,2.590,38.430
6765908,-0.964,-0.294,-0.195,-13.020,1.470,39.480
6765928,-0.942,-0.315,-0.207,-10.990,1.400,38.920
6765947,-0.987,-0.234,-0.172,-9.310,1.960,36.890
6765972,-0.947,-0.217,-0.207,-11.830,2.450,31.290
6765992,-0.969,-0.184,-0.219,-19.950,-1.680,28.280
6766012,-0.977,-0.256,-0.222,-19.880,-2.800,27.020
6766031,-0.996,-0.209,-0.196,-18.410,-3.080,25.550
6766050,-0.989,-0.167,-0.188,-16.030,-2.100,23.170
6766070,-0.936,-0.136,-0.200,-17.010,-1.820,17.570
6766094,-0.972,-0.146,-0.260,-16.870,-1.050,11.970
6766114,-0.954,-0.306,-0.244,-9.870,-3.500,13.090
6766134,-0.971,-0.219,-0.231,-7.630,-4.270,13.860
6766154,-0.986,-0.157,-0.220,-8.260,-2.030,10.220
6766174,-0.977,-0.181,-0.220,-6.790,-1.330,7.000
6766194,-0.937,-0.188,-0.225,-2.940,0.980,6.510
6766213,-0.979,-0.144,-0.228,-5.320,-1.330,5.390
6766233,-0.951,-0.175,-0.225,-5.740,-0.910,3.010
6766251,-0.966,-0.141,-0.233,-0.210,0.280,1.260
6766273,-0.961,-0.127,-0.262,-2.100,-1.960,-2.800
6766293,-0.974,-0.179,-0.212,-0.070,-3.220,-4.830
6766317,-0.978,-0.142,-0.213,-0.350,-1.050,-7.840
6766336,-0.968,-0.146,-0.252,-0.210,-0.770,-10.850
6766356,-0.967,-0.196,-0.273,-0.490,-3.290,-13.020
6766380,-0.965,-0.273,-0.266,6.510,-5.110,-12.460
6766400,-1.007,-0.163,-0.264,3.920,-9.660,-11.900
6766420,-1.025,-0.210,-0.266,9.730,-11.130,-14.210
6766444,-1.029,-0.209,-0.252,22.750,-11.900,-17.220
6766462,-1.001,-0.198,-0.223,27.020,-15.960,-18.900
6766481,-0.917,-0.229,-0.163,28.420,-10.010,-20.440
6766505,-0.941,-0.235,-0.121,17.430,-7.910,-19.390
6766525,-0.977,-0.246,-0.135,9.660,-6.370,-17.080
6766545,-0.918,-0.303,-0.142,10.430,-2.660,-15.610
6766565,-0.966,-0.285,-0.137,17.150,2.030,-16.660
6766585,-0.930,-0.225,-0.171,12.320,6.020,-17.920
6766609,-0.944,-0.205,-0.199,10.360,8.820,-19.320
6766625,-0.992,-0.174,-0.212,4.900,14.350,-18.270
6766645,-1.019,-0.176,-0.259,7.000,19.460,-15.330
6766669,-1.009,-0.144,-0.337,13.930,24.920,-6.230
6766688,-1.056,0.058,-0.387,10.920,29.050,2.940
6766707,-1.020,0.022,-0.427,-21.000,23.870,4.900
6766728,-0.973,0.041,-0.498,-30.100,38.430,3.640
6766752,-1.068,0.363,-0.409,-94.360,21.980,14.630
6766771,-0.855,-0.200,-0.392,-124.950,7.770,15.260
6766795,-0.838,-0.401,-0.327,-76.090,7.420,18.620
6766814,-0.777,-0.495,-0.224,-36.260,6.930,23.730
6766838,-0.753,-0.413,-0.178,11.830,6.720,32.480
6766856,-0.808,-0.252,-0.297,46.270,-4.480,50.260
6766878,-0.887,-0.752,0.093,-64.540,-74.410,45.220
6766898,-0.606,-1.261,-0.772,55.860,-52.430,30.310
6766917,-0.764,-0.669,-0.654,127.400,-15.610,41.930
6766942,-0.859,-1.086,-0.240,92.120,-13.230,20.860
6766962,-1.427,0.207,0.154,33.460,-42.490,34.090
6766977,-1.392,0.017,-0.027,-54.950,-48.510,39.480
6767002,-0.979,-0.417,-0.302,12.880,-31.080,15.260
6767022,-0.882,-0.065,-0.163,34.090,-14.070,6.370
6767042,-0.855,-0.111,-0.110,41.230,0.210,7.420
6767062,-0.979,0.053,-0.053,19.390,5.670,2.590
6767079,-0.927,0.035,0.018,-15.330,4.200,-2.170
6767103,-0.898,-0.102,0.069,-23.380,22.050,-5.040
6767123,-0.943,-0.124,0.031,-17.640,48.580,-10.570
6767142,-0.917,-0.078,0.015,-11.900,74.480,-16.240
6767166,-0.999,0.004,-0.067,-35.700,81.130,-21.000
6767186,-0.989,-0.175,-0.236,-43.610,91.070,-19.250
6767205,-0.839,-0.283,-0.482,-35.910,96.530,-16.240
6767226,-0.957,-0.283,-0.301,-10.010,101.010,-9.590
6767250,-0.771,-0.221,-0.456,1.680,105.770,-11.410
6767269,-0.595,-0.074,-0.610,-4.690,102.970,-14.490
6767289,-0.713,-0.090,-0.706,-6.930,87.360,-14.980
6767309,-1.145,-0.169,-0.516,-17.920,84.560,-19.390
6767333,-1.379,-0.260,-0.424,-11.340,77.140,-23.660
6767353,-0.885,-0.491,-0.605,12.600,92.120,-15.750
6767372,-0.692,-0.073,-0.578,5.460,84.840,-13.720
6767391,-0.556,-0.082,-0.682,-12.040,70.490,-14.770
6767416,-0.612,-0.101,-0.721,-22.190,50.890,-6.930
6767436,-0.578,-0.243,-0.796,-12.880,41.860,2.450
6767455,-0.554,-0.300,-0.920,-0.630,21.840,12.880
6767474,-0.693,-0.427,-1.022,9.100,3.010,22.470
6767498,-0.933,-0.468,-1.096,16.800,-35.490,35.630
6767517,-1.025,-0.534,-1.155,21.630,-68.180,42.910
6767542,-1.017,-0.488,-1.236,28.560,-112.210,45.780
6767561,-1.180,-0.509,-1.153,39.550,-144.620,45.990
6767580,-1.473,-0.709,-0.822,73.640,-155.400,43.120
6767604,-1.873,-0.789,-0.366,130.130,-158.550,32.270
6767619,-1.858,-0.763,0.145,175.280,-160.790,24.220
6767639,-1.184,-0.165,0.346,167.370,-171.570,5.880
6767664,-0.308,0.000,-0.346,56.490,-123.970,-37.170
6767683,-0.227,-0.472,0.005,54.880,-97.300,-25.060
6767704,-0.100,-1.037,-0.168,97.370,-42.910,-10.710
6767723,-0.027,-1.451,0.409,210.560,-26.040,-30.170
6767747,-0.198,-0.303,0.442,242.690,1.260,-55.580
6767767,-0.156,0.070,0.326,123.970,-15.050,-67.270
6767787,-0.224,0.053,0.209,29.960,-19.180,-81.900
6767804,-0.270,0.102,0.116,-45.640,-23.520,-90.510
6767827,-0.197,0.158,0.000,-93.590,-11.970,-101.080
6767848,-0.330,0.126,-0.057,-135.660,7.770,-118.160
6767866,-0.500,-0.585,-2.425,-246.750,-15.540,-137.480
6767886,0.379,0.347,-1.822,-393.050,249.200,-158.130
6767906,-3.000,1.076,-0.477,-455.000,-121.520,-124.810
6767929,-0.007,0.372,-1.505,-145.180,195.510,-61.390
6767950,-1.793,1.490,-0.946,-122.570,131.110,71.680
6767967,-2.415,-1.057,-0.510,-141.330,147.630,91.490
6767988,-0.855,-2.729,-0.910,195.370,28.350,25.830
6768008,-0.687,-1.162,-1.047,159.320,115.290,-11.830
6768027,-1.195,0.953,-1.312,-39.690,-21.770,-22.610
6768047,-1.436,-0.953,-1.316,-155.470,-79.030,-3.920
6768069,-1.354,-1.399,-1.378,28.840,-74.690,-38.150
6768093,-1.666,-0.711,-1.263,75.670,-123.480,-23.590
6768113,-1.997,-0.604,-0.959,66.850,-146.860,2.450
6768132,-2.474,-0.653,-0.105,75.110,-190.540,28.840
6768153,-1.477,-0.074,0.036,167.930,-147.770,69.930
6768172,-0.300,0.099,-0.877,224.140,-78.750,99.890
6768194,0.728,0.842,-0.510,204.820,13.440,147.700
6768218,-0.593,0.355,0.049,91.980,68.390,149.520
6768235,-0.538,1.298,0.264,-164.780,1.960,143.850
6768259,0.012,-0.086,-0.061,-300.720,-54.600,80.010
6768279,-0.070,-0.457,0.062,-228.900,-18.480,54.950
6768299,-0.090,-0.856,-0.151,-148.610,26.110,37.240
6768323,-0.207,-0.718,-0.044,-67.620,77.070,12.950
6768343,-0.069,-0.352,-0.019,-99.050,83.090,8.540
6768363,-0.606,-0.509,-0.242,-91.490,86.450,2.380
6768383,-0.346,-0.925,-0.923,-161.840,110.040,5.880
6768402,0.779,-1.698,-1.441,-41.790,104.160,-45.150
6768427,-1.051,0.978,-0.842,-102.690,130.970,1.260
6768446,-0.876,-1.526,-0.289,-77.000,167.860,34.510
6768470,-2.708,-1.721,-1.149,-9.380,153.020,-8.260
6768487,-2.246,-0.582,-1.159,-44.170,40.110,-14.000
6768507,-0.744,0.131,-1.560,-11.410,14.210,-0.210
6768527,-0.009,-0.553,-1.352,-29.260,-18.690,17.220
6768551,-0.844,-0.476,-1.286,23.800,-73.080,39.200
6768571,-1.384,-0.621,-1.266,30.590,-126.140,64.470
6768590,-1.382,-0.960,-1.360,67.480,-144.270,67.480
6768613,-1.541,-0.816,-1.077,121.100,-186.900,80.570
6768633,-1.777,-0.536,-0.506,144.410,-195.580,71.400
6768652,-2.492,-0.918,0.342,245.840,-248.500,67.760
6768677,-0.283,-0.395,-0.401,216.230,-152.110,26.810
6768697,-0.690,-0.311,0.256,196.910,-133.560,-10.640
6768721,0.173,-0.875,-0.792,218.890,-77.000,-16.380
6768738,0.488,-0.759,0.011,247.380,-17.850,1.190
6768757,-0.139,-0.359,0.339,325.780,-5.250,-33.880
6768777,-0.477,0.170,0.362,186.900,-40.180,-46.340
6768800,-0.127,0.135,0.183,75.670,-30.170,-55.370
6768820,-0.079,-0.138,0.126,1.050,-24.570,-75.180
6768840,0.002,-0.026,0.089,-54.880,-9.940,-98.770
6768864,-0.163,0.115,-0.056,-91.350,9.940,-118.720
6768882,-0.274,0.101,-0.174,-114.660,35.490,-130.620
6768904,-0.421,0.013,-0.170,-147.280,55.650,-142.870
6768923,0.021,-1.382,-2.423,-149.660,64.820,-180.950
6768948,-1.856,0.332,-0.083,259.000,484.750,-127.470
6768966,-0.065,-0.193,-0.671,-500.010,-47.180,-98.910
6768990,-2.135,4.097,0.236,-154.070,224.350,44.730
6769008,-2.833,-0.386,-0.285,-428.960,-99.190,106.120
6769028,-3.105,-9.536,-0.825,386.330,476.210,-143.920
6769052,-2.338,7.504,-3.425,-236.180,-264.460,9.100
6769072,-0.732,-2.387,-1.118,35.490,71.260,1.750
6769089,-0.659,-0.046,-1.417,19.810,-94.150,-0.140
6769113,-1.292,-1.217,-1.360,36.470,-86.450,12.320
6769132,-1.530,-0.871,-1.410,119.490,-174.930,26.810
6769151,-1.740,-0.647,-0.981,141.820,-185.640,69.300
6769174,-2.384,-1.132,0.027,141.190,-234.290,113.960
6769194,-1.342,-0.304,-0.432,332.360,-143.500,156.100
6769218,-0.168,0.331,-1.327,334.460,-40.950,169.120
6769237,0.542,0.312,-1.491,164.430,50.400,169.050
6769256,0.012,0.343,0.378,180.110,92.260,113.540
6769279,-0.401,1.202,-0.018,-37.940,46.480,66.710
6769299,-0.230,0.013,0.137,-279.370,29.960,45.500
6769318,-0.230,-0.314,0.406,-276.710,26.110,14.140
6769342,0.000,-0.397,0.207,-324.520,19.110,4.550
6769362,0.028,-0.915,0.027,-239.400,65.660,-18.270
6769382,-0.088,-0.895,0.003,-208.810,70.630,-35.490
6769406,0.146,-1.457,-0.765,-114.100,107.030,-22.190
6769425,0.196,-2.940,0.344,21.910,131.810,-59.570
6769445,-0.633,0.222,0.194,346.640,288.260,-65.310
6769468,-0.837,2.473,-1.059,-88.970,-18.690,-47.950
6769489,0.102,-0.199,-1.501,-59.290,195.300,36.330
6769505,-4.767,2.859,2.020,-470.960,92.190,79.730
6769524,-9.201,-4.931,-0.310,602.070,-75.460,-9.030
6769549,4.819,1.582,-1.022,-182.910,-196.630,48.720
6769569,-2.553,-0.457,-1.931,-70.210,278.460,84.000
6769589,-1.444,-0.784,-1.538,88.200,-98.980,91.560
6769609,-1.451,-0.946,-1.428,143.780,-64.540,55.230
6769629,-1.826,0.075,-1.448,183.820,-156.100,69.510
6769649,-1.598,-0.733,-0.290,128.940,-147.420,53.830
6769669,-2.126,-0.495,0.226,165.480,-253.260,74.410
6769693,-1.269,-0.570,0.338,158.550,-193.270,25.830
6769713,-0.042,-0.569,-0.168,161.770,-70.700,-14.560
6769733,-0.203,-0.725,0.075,207.410,-57.680,-19.950
6769753,0.337,-0.001,-0.189,196.980,-70.280,3.850
6769773,-0.324,-0.857,0.587,193.270,-50.470,-9.380
6769791,-0.068,-0.617,0.695,259.560,-32.830,-39.760
6769811,-0.278,-0.041,0.462,214.480,-41.020,-33.110
6769831,-0.194,0.031,0.309,83.860,-61.950,-51.170
6769850,-0.202,0.210,0.088,10.360,-63.980,-74.200
6769875,-0.323,0.325,-0.234,-78.470,-69.860,-80.500
6769895,-0.202,0.574,-0.328,-162.820,-49.420,-95.340
6769915,-0.414,0.537,-0.465,-239.400,-29.190,-106.190
6769933,-0.209,-0.898,-3.451,-411.110,-69.020,-150.290
6769957,-0.161,-0.083,-1.095,-422.450,381.360,-159.390
6769977,-5.759,0.902,1.307,-102.900,20.650,-112.770
6769997,0.237,0.523,-2.707,-141.820,27.300,-24.080
6770017,-3.355,-0.281,0.819,-70.350,257.880,4.270
6770037,0.613,-3.649,-1.480,-45.990,109.620,-31.430
6770054,-2.570,-2.728,-0.378,167.230,122.920,-59.500
6770077,-2.135,1.033,-1.607,-28.490,-25.200,-9.800
6770098,0.391,-1.766,-1.139,10.080,-26.880,3.850
6770117,-0.827,-0.389,-1.418,46.550,-60.130,6.160
6770140,-1.320,-0.838,-1.250,86.800,-108.430,20.790
6770160,-1.809,-0.816,-1.028,116.340,-111.860,31.430
6770181,-2.502,-0.724,-0.535,150.220,-126.420,90.160
6770200,-2.592,-0.509,-0.213,208.390,-170.730,179.900
6770221,-1.154,-0.306,-0.530,358.050,-44.940,200.830
6770241,0.931,0.090,-0.831,348.670,47.670,210.140
6770261,0.162,0.120,-0.610,165.970,171.850,180.180
6770279,-0.729,1.398,0.713,57.470,77.490,121.030
6770299,-0.645,0.693,0.173,-295.400,-21.980,52.430
6770319,-0.165,-0.921,0.171,-399.560,-87.780,58.100
6770340,0.071,-1.177,0.230,-256.480,-18.130,28.840
6770363,0.055,-0.639,0.183,-133.350,48.510,7.840
6770384,0.005,-0.464,0.176,-154.140,61.740,-10.990
6770407,-0.159,-0.484,0.084,-173.390,60.130,-25.270
6770428,-0.068,-0.196,-1.399,-175.140,83.510,2.870
6770447,-0.509,-1.657,-0.279,-356.440,96.880,-16.170
6770471,-0.437,-1.341,-0.607,51.100,173.530,-40.880
6770491,-1.399,0.928,-0.119,25.410,159.880,-14.210
6770515,-1.420,0.418,-0.528,-131.880,152.180,31.080
6770535,-1.955,-1.198,-0.845,-102.130,91.910,-1.260
6770555,-2.255,-1.454,-1.291,-24.010,67.130,-14.210
6770578,-0.877,-0.807,-1.558,-39.130,-3.220,28.770
6770599,-0.785,-0.469,-1.323,51.590,-23.170,49.070
6770618,-1.147,-0.521,-1.421,34.580,-89.670,44.730
6770642,-1.210,-0.768,-1.378,76.720,-128.310,45.780
6770661,-1.453,-0.761,-0.912,120.190,-154.000,61.040
6770679,-2.112,-0.629,-0.254,148.610,-165.620,75.320
6770702,-3.082,-1.085,0.517,159.950,-267.750,87.640
6770719,-0.191,-0.349,0.027,172.550,-144.830,51.590
6770738,-0.307,-0.142,0.049,201.740,-103.390,32.900
6770758,0.211,-0.658,-0.408,134.820,-83.790,7.910
6770778,0.472,-1.036,-0.060,158.550,-19.670,-8.050
6770803,-0.109,-0.609,0.505,242.130,-12.740,-38.570
6770823,-0.165,-0.016,0.524,156.590,-27.860,-38.290
6770847,-0.146,0.014,0.427,66.850,-37.170,-55.370
6770867,-0.159,0.033,0.251,-20.860,-45.430,-79.240
6770885,-0.015,-0.048,0.069,-66.640,-36.820,-102.690
6770908,-0.088,-0.070,-0.226,-74.340,-2.310,-126.420
6770928,-0.353,-0.081,-0.202,-93.450,30.170,-149.170
6770949,-0.525,0.144,-0.536,-140.350,32.340,-165.550
6770971,0.556,-1.545,-1.831,-110.460,171.500,-239.260
6770995,-2.992,2.418,3.255,156.520,341.670,-154.070
6771014,-0.056,0.736,-2.327,-355.950,-55.930,-122.360
6771033,-0.991,3.093,-0.780,-78.750,326.970,39.200
6771058,-1.797,-4.738,0.173,-721.280,-88.550,-125.860
6771078,-6.177,-1.435,-3.393,812.420,-174.930,-19.950
6771098,5.371,-0.193,0.176,12.040,-9.170,18.480
6771122,-3.231,-1.081,-1.373,-8.960,-181.230,15.960
6771142,-1.296,-0.627,-1.118,-32.550,-38.220,13.580
6771161,-1.211,-1.186,-1.409,48.370,-108.430,-4.620
6771179,-1.249,-1.143,-1.041,87.150,-130.200,22.680
6771198,-1.533,-1.133,-0.514,127.820,-136.640,103.460
6771222,-2.971,-0.829,0.224,158.550,-182.210,130.620
6771243,-1.268,-0.364,-0.239,268.590,-110.600,140.490
6771264,0.029,0.442,-0.916,212.030,-31.570,161.700
6771288,0.420,0.508,-0.730,183.680,80.220,164.710
6771307,0.023,0.438,0.447,82.040,76.650,114.940
6771328,-0.447,0.771,0.235,-207.130,-20.370,71.890
6771348,-0.033,-0.286,0.227,-287.070,-41.090,48.930
6771367,-0.011,-0.659,0.250,-246.820,-38.080,17.080
6771386,0.053,-0.366,0.135,-213.640,-2.240,8.190
6771411,-0.142,-0.388,0.010,-222.950,2.170,-23.590
6771429,0.054,-0.688,-0.026,-195.300,31.360,-30.310
6771450,-0.054,-0.415,-0.998,-151.970,52.990,-18.130
6771470,0.018,-0.561,-1.287,-135.310,187.740,-14.350
6771489,-1.544,-2.615,-0.095,-114.730,190.540,-59.570
6771509,-1.197,-0.360,-0.390,12.600,113.750,-44.380
6771533,-1.891,0.073,-0.767,-42.280,109.900,-33.390
6771552,-1.905,-1.103,-0.325,-98.910,106.750,-24.010
6771574,-0.890,-0.974,-1.499,-26.530,49.210,-8.400
6771598,-1.221,-1.021,-1.325,9.520,18.480,41.930
6771618,-1.054,-0.943,-1.197,28.770,-15.330,73.710
6771638,-1.135,-0.700,-1.356,30.100,-68.250,94.850
6771658,-1.233,-0.697,-1.403,60.200,-109.970,98.700
6771678,-1.489,-0.772,-1.270,115.150,-139.440,89.320
6771702,-1.977,-0.398,-0.545,171.780,-191.870,77.840
6771722,-2.031,-0.799,0.308,231.000,-219.940,74.620
6771741,-0.961,-0.268,-0.124,253.260,-215.040,56.910
6771760,-0.790,-0.106,0.143,218.470,-108.080,30.100
6771785,0.095,-0.669,-0.185,159.530,-116.690,17.850
6771805,0.191,-0.473,-0.422,156.170,-56.420,7.910
6771825,0.007,-0.604,0.369,241.010,-4.130,-8.470
6771845,-0.154,0.046,0.587,207.410,-10.220,-15.190
6771864,-0.140,0.136,0.451,134.960,-30.660,-26.530
6771889,-0.109,0.153,0.320,50.820,-31.640,-53.550
6771908,-0.093,-0.024,0.134,-37.240,-36.680,-82.670
6771929,-0.108,0.064,-0.071,-84.980,-25.340,-111.300
6771949,-0.195,-0.125,-0.156,-98.210,-4.270,-130.060
6771972,-0.413,-0.150,-0.140,-101.570,19.600,-151.200
6771992,-0.289,-0.673,-1.732,-241.570,31.080,-187.530
6772016,-0.089,0.798,-2.693,-285.460,169.470,-199.710
6772035,-3.566,2.020,1.884,-307.580,-152.040,-151.620
6772054,2.362,0.678,-3.516,-222.180,-105.840,-37.940
6772077,-7.402,1.742,6.772,-1393.490,-143.220,-20.370
6772098,-0.298,-2.145,-4.805,519.540,-591.710,33.390
6772117,7.847,0.693,0.879,-79.100,382.830,-65.240
6772137,-3.241,-0.202,-1.506,-107.170,86.800,-48.510
6772161,-0.295,-2.011,-1.143,-10.920,-111.720,-11.900
6772181,-1.580,-0.515,-1.351,112.000,-130.900,10.780
6772201,-0.909,-1.097,-1.304,134.750,-149.520,70.070
6772221,-1.453,-0.482,-0.605,105.770,-157.640,164.990
6772241,-2.471,-1.177,-0.336,251.650,-90.440,217.840
6772261,-1.534,-0.048,-1.680,298.410,-16.450,210.350
6772279,0.813,0.296,-1.538,382.270,-55.580,217.560
6772298,0.249,0.097,-0.179,78.260,147.840,118.650
6772323,-0.256,1.321,0.014,-127.260,118.020,0.210
6772342,-0.357,0.190,0.146,-445.830,3.150,0.840
6772360,-0.048,-1.243,0.341,-359.380,-1.470,-15.680
6772384,0.061,-1.098,0.418,-219.310,75.740,-22.050
6772404,-0.101,-0.478,0.464,-184.030,69.090,-33.600
6772424,-0.099,-0.665,0.429,-182.420,61.530,-51.590
6772441,-0.108,-0.847,0.358,-141.190,81.270,-67.970
6772460,-0.441,-0.536,-0.544,-55.580,62.370,-76.510
6772485,-0.495,-0.178,2.307,-71.190,88.410,3.500
6772505,0.324,-0.491,-1.235,-10.640,181.650,-17.710
6772524,-1.114,-0.415,-0.697,-108.010,177.240,-50.400
6772544,-2.878,0.556,0.041,-32.060,99.750,-3.360
6772568,-1.897,-1.788,-1.177,-30.100,52.850,-12.040
6772584,0.407,-0.880,-1.513,-0.280,74.830,5.600
6772608,-0.552,-0.990,-1.544,3.360,50.050,58.450
6772628,-2.057,-0.710,-1.433,15.610,-39.620,74.970
6772648,-1.773,-1.149,-1.301,28.630,-93.240,74.830
6772666,-1.366,-1.115,-1.390,77.000,-126.210,80.640
6772690,-1.456,-0.882,-1.034,114.940,-128.380,87.360
6772706,-2.302,-0.941,-0.279,171.220,-157.080,98.910
6772726,-2.009,-0.223,0.314,247.170,-198.520,115.290
6772750,-1.184,-0.364,0.372,258.790,-140.840,79.590
6772770,-0.149,-0.067,-0.038,199.290,-65.660,30.450
6772789,-0.190,-0.314,0.117,176.680,-97.580,3.430
6772813,0.135,-0.287,-0.404,206.220,-56.980,7.070
6772833,-0.442,-0.645,0.485,108.360,-24.290,3.990
6772851,0.069,-0.575,0.777,192.570,-46.690,7.420
6772871,-0.362,0.142,0.517,183.890,-65.800,30.100
6772895,-0.254,0.194,0.403,111.300,-74.410,13.510
6772913,-0.287,0.266,0.238,-27.230,-97.580,-17.220
6772933,-0.153,0.040,-0.091,-133.910,-103.880,-53.830
6772956,-0.092,-0.241,-0.391,-190.960,-80.990,-103.810
6772977,-0.200,-0.363,-0.505,-238.420,-65.870,-143.220
6772997,0.288,-1.464,-2.879,-268.310,24.150,-191.940
6773021,-0.668,0.197,-0.934,-540.610,305.550,-230.020
6773040,-6.507,3.039,0.867,185.570,78.190,-84.070
6773058,-0.826,2.642,-1.825,-248.430,223.230,-21.980
6773081,-2.415,-1.092,-0.291,-293.090,-71.540,-8.610
6773100,1.732,-5.518,0.388,-150.780,132.790,-50.470
6773123,-4.096,1.243,-1.829,232.330,87.080,-85.190
6773143,0.525,-1.201,-0.590,-147.000,-96.040,-43.820
6773162,-0.510,-0.493,-1.348,-23.590,-69.090,-66.780
6773187,-1.546,-0.933,-1.149,12.460,-103.320,13.720
6773205,-2.375,-1.679,-0.538,98.560,-117.460,47.250
6773226,-2.209,-0.576,-0.096,138.040,-119.280,94.430
6773246,-2.048,-0.343,-0.512,237.230,-116.130,120.540
6773270,-0.482,0.738,-0.533,131.460,-62.230,150.010
6773289,0.522,0.609,-0.249,78.050,86.870,170.590
6773308,0.163,-0.104,0.413,-21.280,43.750,120.540
6773329,-0.459,0.911,0.614,-87.010,11.130,105.280
6773348,-0.286,-0.104,0.237,-247.450,-92.610,82.530
6773365,-0.071,-0.836,0.140,-227.990,-109.060,51.660
6773390,0.162,-0.808,0.103,-70.210,-31.430,31.220
6773408,0.058,-0.299,-0.081,-98.630,-6.230,9.240
6773430,-0.108,-0.473,-0.012,-142.310,11.200,-16.730
6773453,-0.077,-0.350,-0.144,-163.450,24.500,-37.450
6773472,-0.198,-0.327,-0.172,-199.570,33.950,-51.520
6773491,-0.402,-0.909,-2.501,-261.800,11.130,-33.390
6773515,0.762,-1.291,-1.742,-124.250,342.510,-90.020
6773535,-1.810,-2.855,1.501,129.640,89.390,-2.450
6773554,0.373,0.860,-1.059,-87.360,154.140,-13.370
6773574,-2.330,-0.880,-0.226,-235.900,442.540,-42.000
6773598,-5.115,-1.721,-2.076,96.460,-283.360,-47.250
6773618,2.637,-0.853,-0.630,77.000,-85.680,53.340
6773642,-2.786,-1.475,-1.362,-68.810,-40.530,113.330
6773662,-0.269,-0.562,-1.280,104.020,-21.630,117.810
6773682,-1.506,-0.958,-1.544,160.090,-54.950,111.580
6773700,-2.161,-0.689,-0.897,189.490,-136.850,118.790
6773720,-2.204,-0.277,-0.069,195.300,-195.510,114.520
6773744,-1.640,-0.407,0.281,271.740,-182.980,111.440
6773764,-0.392,-0.201,0.256,255.710,-110.180,42.490
6773784,-0.551,-0.308,0.037,210.280,-85.540,16.940
6773803,0.116,-0.293,0.018,186.690,-78.120,7.560
6773824,0.214,-0.584,0.090,141.050,-16.170,6.020
6773843,-0.069,-1.040,0.477,179.690,-30.380,-8.190
6773861,-0.225,-0.198,0.599,227.430,-12.040,-15.400
6773885,-0.187,0.087,0.468,151.060,-22.400,-28.700
6773904,-0.164,0.070,0.334,41.230,-43.610,-51.450
6773925,-0.144,-0.100,0.116,-72.380,-51.870,-88.970
6773949,-0.161,-0.102,-0.203,-116.060,-37.380,-126.350
6773973,-0.331,-0.003,-0.820,-242.830,-40.250,-159.880
6773992,1.417,-1.549,-3.619,-155.960,167.860,-222.390
6774016,-1.805,-2.273,1.173,55.720,231.490,-209.090
6774036,-1.151,2.159,-1.389,-195.230,12.390,-124.460
6774056,-2.013,1.241,-1.275,-194.950,132.370,-6.020
6774077,-1.470,-1.873,-0.458,-281.750,-68.250,37.520
6774097,-2.837,-6.650,-1.651,647.640,128.940,-88.130
6774117,-1.095,1.271,-0.882,62.930,-455.070,-41.300
6774141,-0.541,-1.541,-1.536,1.610,88.340,-56.070
6774160,-0.417,-0.314,-1.283,7.420,-25.900,-29.820
6774179,-1.253,-1.219,-1.274,29.050,-94.640,-1.680
6774196,-1.232,-1.342,-1.070,101.640,-107.100,6.510
6774216,-1.562,-0.932,-0.785,99.820,-128.100,54.600
6774240,-2.478,-1.131,-0.093,126.280,-117.880,142.590
6774261,-1.629,-0.649,-0.936,324.520,-56.700,196.700
6774281,-0.096,0.133,-1.566,307.860,-3.990,230.860
6774299,0.198,1.661,-0.545,171.150,169.680,192.780
6774322,-0.353,0.943,0.104,38.710,135.170,124.670
6774341,-0.762,1.030,0.138,-225.680,31.360,92.680
6774360,-0.221,-0.010,0.191,-378.980,-66.850,55.370
6774385,-0.116,-0.892,0.251,-316.260,-53.410,45.080
6774405,0.216,-1.182,0.311,-147.140,31.220,32.060
6774425,-0.137,-0.590,0.427,-118.860,37.380,3.220
6774448,-0.086,-0.541,0.300,-171.290,26.110,-22.470
6774469,0.061,-1.508,-0.046,-247.030,45.360,-33.740
6774488,0.126,-1.356,-1.032,-173.040,17.290,-24.850
6774507,-0.110,-1.423,0.019,-26.180,269.920,-58.660
6774527,-0.536,-0.515,0.346,120.890,181.650,-46.340
6774550,-1.972,0.402,-0.852,-119.840,100.940,1.820
6774570,-3.691,-1.552,-0.463,-258.370,321.580,-28.630
6774591,-1.588,-1.593,-1.753,92.050,-125.300,-23.170
6774611,1.018,-0.155,-1.481,60.270,100.380,50.120
6774635,-1.646,-0.141,-1.377,-52.570,-62.230,67.830
6774655,-1.327,-0.616,-1.307,-25.410,-94.290,59.220
6774675,-1.338,-1.368,-1.428,115.850,-53.130,58.590
6774695,-1.975,-0.998,-1.095,173.110,-94.710,85.470
6774713,-2.245,-0.366,-0.261,206.290,-143.220,93.940
6774733,-1.956,-0.213,0.323,187.670,-188.510,106.890
6774753,-0.709,-0.124,0.035,183.540,-213.010,60.060
6774776,-0.256,-1.285,0.153,241.710,-46.060,7.140
6774797,-0.135,-0.222,-0.128,165.970,-92.750,-0.630
6774815,0.924,-1.098,0.128,257.390,-35.700,23.030
6774835,-0.865,-0.461,0.767,325.010,-11.270,10.990
6774854,-0.282,0.041,0.667,213.150,-32.550,-7.000
6774879,-0.343,0.035,0.420,91.420,-67.620,-29.610
6774899,-0.177,0.188,0.210,13.930,-73.920,-48.860
6774919,-0.243,0.287,0.153,-92.470,-87.150,-65.730
6774937,-0.072,0.003,0.006,-143.080,-83.440,-89.880
6774956,-0.140,-0.256,-0.108,-147.070,-55.440,-120.400
6774981,-0.319,-0.160,-0.151,-129.150,-35.700,-146.300
6775001,-0.442,0.088,-0.543,-221.760,-21.980,-158.900
6775021,0.203,-2.795,-4.302,-17.150,154.420,-237.650
6775041,-2.606,0.844,-0.092,-396.550,257.460,-204.680
6775056,-3.378,4.170,-0.121,9.450,-84.350,-34.930
6775079,-2.580,0.471,-0.431,-217.490,135.450,1.610
6775100,0.919,-5.001,-0.755,-81.620,-58.380,42.490
6775124,-1.962,-1.786,-0.579,306.530,213.150,-109.550
6775144,-2.199,1.262,-0.919,-60.410,-39.900,-10.430
6775163,-0.896,-1.599,-1.204,2.590,-121.870,-31.430
6775186,-0.853,-0.883,-1.267,-2.310,-109.410,25.760
6775204,-1.178,-1.632,-0.948,53.060,-153.230,65.800
6775228,-1.942,-1.352,-0.237,150.220,-120.750,119.000
6775248,-2.484,-0.654,-0.419,227.710,-124.040,166.600
6775268,-1.195,0.344,-1.129,320.740,-40.740,185.290
6775288,0.020,0.344,-0.984,247.100,26.530,208.320
6775308,0.613,-0.078,-0.345,17.010,67.970,149.380
6775328,-0.426,1.121,0.066,14.910,82.110,100.660
6775347,-0.488,0.813,-0.070,-214.550,28.910,61.950
6775367,-0.194,-0.530,0.045,-309.750,-12.740,30.030
6775387,0.010,-0.758,0.215,-266.490,-10.150,8.470
6775411,0.259,-0.704,0.251,-212.660,43.540,-3.710
6775426,0.011,-0.546,0.199,-188.930,70.700,-17.780
6775451,-0.220,-0.620,0.133,-218.960,44.380,-39.130
6775470,-0.221,-0.926,0.038,-205.240,54.390,-55.230
6775494,-0.204,-1.204,-0.943,66.150,142.660,0.070
6775514,-0.273,-0.988,-0.726,-91.840,106.400,-23.240
6775532,-0.442,-0.465,0.678,85.330,225.890,-78.960
6775553,-1.673,0.876,-0.342,-119.630,107.030,-19.180
6775574,-3.605,-4.138,-1.277,-353.430,334.180,-80.150
6775594,-1.111,-0.394,-1.642,-0.490,-103.460,46.550
6775612,0.998,-1.676,-2.041,107.310,38.850,59.290
6775632,-1.333,-0.735,-1.447,101.710,-9.730,107.590
6775652,-1.105,-0.466,-1.411,64.960,-137.690,108.010
6775674,-1.205,-0.986,-1.347,155.400,-65.730,92.680
6775694,-2.605,-0.811,-0.709,184.590,-143.290,110.040
6775718,-2.607,-0.368,0.194,197.050,-219.030,146.720
6775738,-1.524,-0.274,0.014,204.820,-280.910,111.790
6775758,-0.115,-0.880,-0.219,121.590,-106.050,53.200
6775777,0.012,-1.172,-0.474,205.030,-77.840,7.490
6775794,1.170,-0.983,-0.243,222.740,-64.890,-17.220
6775818,-0.372,-0.426,0.578,340.480,86.450,-45.360
6775838,-0.299,0.171,0.615,199.010,8.680,-52.290
6775857,-0.366,-0.063,0.464,88.550,-32.760,-60.270
6775877,-0.168,-0.132,0.419,63.840,-21.490,-86.940
6775896,-0.386,0.337,0.203,-31.570,-50.960,-85.750
6775918,-0.324,0.462,0.041,-116.130,-71.890,-91.140
6775941,-0.176,-0.075,-0.213,-181.020,-66.220,-111.930
6775961,-0.223,-0.305,-0.182,-143.010,-31.150,-150.290
6775981,-0.248,-0.202,-0.778,-161.560,-4.340,-178.780
6776005,1.244,-3.099,-3.511,-50.050,218.540,-276.640
6776025,-2.095,-0.115,1.068,603.610,283.920,-163.100
6776041,-1.078,2.199,-3.045,-490.560,-65.310,-42.700
6776065,-3.355,1.707,0.222,-296.240,297.780,8.050
6776084,-0.470,-4.676,-0.728,-295.610,-254.380,-2.240
6776105,-1.643,-3.904,-1.670,473.200,218.190,-101.290
6776125,-2.978,2.547,-0.723,-20.090,-161.630,-13.790
6776145,0.307,-2.750,-1.136,-29.960,-79.730,-38.850
6776163,-1.203,-0.284,-1.491,18.620,-83.720,11.830
6776183,-1.163,-1.392,-1.113,60.760,-105.140,67.900
6776207,-2.058,-1.302,-0.347,142.310,-142.870,106.890
6776226,-2.823,-0.488,-0.115,165.760,-129.430,143.850
6776246,-1.181,0.201,-1.155,296.310,-31.640,156.940
6776270,-0.216,0.765,-1.099,257.390,7.000,201.320
6776290,0.819,0.992,-0.570,78.610,134.610,170.590
6776308,-0.410,0.202,0.025,-11.760,114.730,117.180
6776330,-0.695,0.832,0.191,-223.440,7.210,86.310
6776354,-0.470,-0.450,0.073,-398.720,-92.960,43.610
6776374,0.188,-0.773,0.473,-348.040,-67.410,21.560
6776394,0.183,-1.283,0.051,-181.300,-13.090,7.700
6776414,-0.010,-0.747,0.073,-124.530,35.350,-15.330
6776434,-0.105,-0.569,0.004,-146.790,36.400,-47.320
6776454,-0.039,-0.648,-1.238,-179.970,53.970,-65.520
6776474,0.279,-0.388,-0.637,-166.320,85.120,-33.180
6776492,-0.124,-3.336,0.672,-117.880,162.260,-60.970
6776512,-0.869,0.584,-0.175,68.250,168.280,-69.230
6776531,-1.624,0.337,-0.967,-52.290,122.990,-22.470
6776551,-2.263,-1.899,-0.517,-167.440,225.120,-34.090
6776576,-1.461,-1.334,-1.376,15.120,26.810,15.680
6776595,-0.348,-0.746,-1.673,16.590,23.870,59.920
6776619,-1.010,-0.444,-1.310,-4.480,-30.590,92.470
6776639,-1.142,-0.769,-1.381,16.870,-89.740,101.570
6776657,-1.569,-1.148,-1.080,110.250,-85.470,99.050
6776678,-2.205,-0.695,-0.703,164.710,-128.380,115.850
6776702,-2.315,-0.376,0.014,185.920,-210.770,122.430
6776722,-1.031,-0.687,0.364,264.530,-150.850,102.550
6776742,-0.310,-0.656,0.153,191.870,-97.930,55.230
6776759,-0.273,-0.607,-0.116,188.650,-90.510,11.200
6776783,0.616,-0.360,-0.049,191.310,-60.620,8.820
6776803,-0.386,-0.781,0.770,231.070,-8.610,-17.570
6776827,-0.212,-0.093,0.858,206.080,-40.810,-29.400
6776847,-0.225,-0.108,0.508,118.510,-44.240,-38.850
6776862,-0.249,0.041,0.454,80.920,-48.020,-54.250
6776887,-0.305,0.153,0.244,-4.620,-69.090,-82.670
6776904,-0.261,0.065,0.062,-66.850,-71.120,-99.470
6776927,-0.209,-0.130,-0.144,-87.850,-55.020,-124.390
6776948,-0.337,-0.025,-0.136,-82.670,-31.500,-147.140
6776967,-0.390,0.132,-0.994,-230.860,-14.140,-164.780
6776986,0.901,-3.160,-3.991,-81.830,171.640,-281.540
6777010,-2.183,-1.084,-0.178,-32.760,308.700,-205.450
6777030,-1.562,1.855,-3.141,-213.780,-75.040,-21.000
6777050,-2.855,0.378,-0.838,-159.040,118.720,44.170
6777070,2.183,-5.489,0.207,-107.730,28.070,24.010
6777088,-3.885,-1.262,-1.265,305.480,68.600,-108.850
6777107,-1.930,1.740,-1.495,38.010,-120.190,-21.000
6777126,-0.525,-2.344,-0.991,2.450,-104.510,-1.610
6777151,-1.190,-0.963,-1.121,7.000,-108.290,28.490
6777169,-1.056,-1.476,-1.064,63.490,-152.600,86.170
6777188,-1.480,-1.194,-0.496,125.230,-141.750,115.500
6777213,-2.684,-0.788,-0.106,208.320,-147.980,190.120
6777231,-1.349,-0.513,-1.172,295.120,-5.950,230.020
6777253,0.351,-0.292,-1.165,324.310,42.560,246.260
6777272,0.136,0.526,-0.274,99.050,57.470,153.510
6777292,-0.380,1.032,0.118,42.770,100.730,72.310
6777317,-0.379,0.793,0.283,-268.660,27.580,21.350
6777337,-0.069,-0.741,0.468,-350.280,-44.660,-3.710
6777357,0.244,-1.044,0.602,-206.220,-3.570,-14.000
6777377,0.183,-0.653,0.516,-111.860,34.930,-4.480
6777399,-0.175,-0.401,0.527,-118.580,37.030,-16.450
6777418,0.044,-0.834,0.200,-114.940,27.090,-29.190
6777442,0.367,-1.194,0.737,55.930,192.290,-27.020
6777462,0.244,-1.890,-1.370,-43.960,-17.780,-56.210
6777482,-2.105,0.553,0.049,-62.020,57.610,-7.980
6777502,-2.008,0.162,-0.895,-163.590,88.830,67.900
6777517,-4.496,-2.279,0.772,-244.510,207.970,-28.910
6777542,-1.272,-1.952,-1.229,176.120,-71.120,-3.570
6777562,-0.963,-0.895,-1.380,175.490,129.780,2.240
6777580,-0.921,-0.520,-1.324,0.070,-20.860,65.240
6777600,-1.117,-0.449,-0.354,87.290,-130.270,100.520
6777624,-1.125,-0.883,-0.101,136.430,-104.580,95.900
6777639,-0.789,-0.283,-0.205,128.170,-58.310,77.350
6777664,-0.607,-0.094,-0.048,38.990,-90.090,64.050
6777683,-0.252,-0.043,-0.076,51.590,-76.720,55.090
6777702,0.160,-0.239,-0.160,29.120,-44.940,15.820
6777727,-0.051,0.140,-0.015,32.690,8.540,-8.960
6777747,-0.530,0.536,-0.221,-93.450,-3.430,1.330
6777762,-0.782,0.191,-0.335,-95.270,-16.100,19.810
6777786,-0.900,0.206,-0.362,-96.740,-20.020,34.580
6777807,-2.262,-0.420,0.596,-48.300,23.590,13.230
6777827,-2.906,-2.350,-0.263,-21.700,-67.340,4.690
6777851,-0.467,0.130,-0.488,206.080,-28.420,20.300
6777871,-0.893,0.753,-0.259,-36.750,-4.970,-0.350
6777891,-0.545,-0.427,-0.216,16.730,-1.820,-13.370
6777910,-0.831,-0.179,0.009,25.900,-5.390,-13.580
6777929,-0.802,-0.419,-0.009,2.730,-0.210,-8.400
6777948,-0.958,-0.478,-0.140,8.890,-11.200,8.820
6777972,-0.890,-0.318,-0.123,8.540,-12.180,29.120
6777992,-1.038,-0.131,-0.103,7.000,-11.480,30.100
6778012,-1.039,-0.053,-0.054,0.280,-11.480,16.520
6778030,-1.021,-0.117,-0.087,-8.750,-7.000,3.710
6778049,-1.121,-0.235,-0.120,-2.100,0.980,-11.970
6778074,-0.997,-0.209,-0.053,9.730,10.080,-24.430
6778094,-0.941,-0.185,-0.047,8.050,19.530,-31.290
6778113,-0.963,-0.261,-0.095,3.430,24.010,-33.040
6778131,-0.957,-0.289,-0.154,6.650,32.200,-28.630
6778154,-0.922,-0.529,-0.253,19.040,31.710,-19.040
6778175,-0.815,-0.754,-0.347,66.920,44.380,-14.210
6778195,-0.735,-0.617,-0.430,87.990,51.730,-7.700
6778215,-0.581,-0.485,-0.603,68.320,65.520,-6.790
6778239,-0.813,-0.561,-0.630,80.430,79.310,-19.670
6778254,-0.879,-0.496,-0.641,42.420,64.050,-31.640
6778279,-0.776,-0.515,-0.610,14.490,78.540,-49.000
6778299,-0.853,-0.467,-0.569,-8.190,65.450,-51.100
6778317,-0.810,-0.524,-0.537,-18.410,61.460,-52.920
6778341,-0.771,-0.512,-0.496,-17.290,57.050,-49.000
6778360,-0.732,-0.479,-0.451,-11.830,53.060,-42.980
6778381,-0.775,-0.436,-0.331,-0.910,48.370,-33.250
6778400,-0.755,-0.357,-0.260,5.950,43.120,-24.710
6778424,-0.770,-0.278,-0.224,6.510,38.080,-13.370
6778444,-0.819,-0.243,-0.138,0.140,23.730,-2.240
6778462,-0.859,-0.248,-0.117,3.290,12.110,7.490
6778482,-1.060,-0.513,-0.136,-15.120,-2.940,24.220
6778506,-1.269,0.453,0.362,35.420,-25.830,68.390
6778524,-1.473,0.476,0.380,41.090,-62.370,97.230
6778547,-0.600,-1.018,-0.869,-72.800,-17.990,55.230
6778567,-1.541,-0.333,0.037,14.070,-56.700,54.810
6778591,-0.883,-0.347,-0.312,-6.440,-58.730,54.670
6778610,-1.207,-0.446,-0.003,-4.270,-41.230,51.310
6778630,-0.892,-0.389,-0.311,-8.820,-45.290,48.860
6778651,-0.935,-0.320,-0.203,8.750,-31.780,48.300
6778671,-0.904,-0.155,-0.249,2.870,-29.820,47.180
6778690,-0.895,-0.213,-0.257,3.010,-29.890,41.510
6778709,-0.908,-0.163,-0.181,-3.360,-30.310,36.470
6778732,-0.961,-0.121,-0.174,-12.810,-24.850,31.850
6778756,-0.966,-0.256,-0.203,-19.320,-20.790,27.720
6778776,-0.968,-0.322,-0.203,-11.270,-15.680,25.340
6778796,-0.945,-0.275,-0.212,-5.600,-12.670,24.430
6778816,-0.970,-0.122,-0.204,-12.320,-12.880,23.030
6778835,-1.001,-0.116,-0.224,-18.690,-14.140,18.270
6778855,-0.969,-0.196,-0.215,-10.850,-9.870,13.790
6778874,-0.966,-0.149,-0.223,-13.020,-9.030,10.150
6778899,-0.994,-0.125,-0.239,-21.280,-13.300,7.630
6778919,-0.979,-0.257,-0.270,-16.940,-15.190,8.260
6778938,-0.989,-0.223,-0.238,-14.560,-21.770,9.940
6778958,-0.973,-0.177,-0.203,-10.220,-19.670,9.590
6778979,-0.979,-0.178,-0.191,-10.710,-16.730,7.420
6778999,-0.989,-0.170,-0.171,-4.620,-11.830,6.650
6779023,-0.969,-0.162,-0.181,-7.910,-10.010,5.250
6779043,-1.002,-0.163,-0.214,-6.230,-12.740,2.660
6779062,-0.987,-0.149,-0.169,-2.660,-11.900,2.100
6779085,-0.977,-0.157,-0.177,-3.570,-9.870,0.910
6779106,-0.980,-0.181,-0.184,-3.080,-9.800,0.630
6779124,-0.976,-0.177,-0.183,-2.660,-9.800,0.560
6779143,-0.986,-0.149,-0.186,-0.700,-9.450,0.840
6779168,-0.977,-0.193,-0.183,0.140,-9.450,0.140
6779187,-0.993,-0.149,-0.155,0.770,-9.800,-0.140
6779208,-0.984,-0.198,-0.176,-0.700,-9.660,-1.260
6779227,-1.002,-0.143,-0.169,-1.890,-9.450,-2.030
6779251,-0.983,-0.142,-0.170,-1.750,-8.750,-4.200
6779271,-0.993,-0.148,-0.167,-3.710,-9.030,-5.950
6779291,-0.972,-0.207,-0.170,-4.550,-10.010,-7.910
6779315,-0.996,-0.164,-0.178,-0.420,-9.870,-8.470
6779334,-0.996,-0.170,-0.177,0.840,-11.620,-10.290
6779354,-0.985,-0.175,-0.144,0.280,-12.530,-12.600
6779375,-0.987,-0.161,-0.142,-1.330,-12.600,-14.560
6779393,-0.997,-0.177,-0.138,-5.530,-11.830,-16.240
6779413,-0.990,-0.163,-0.129,-9.450,-12.740,-17.710
6779433,-0.994,-0.222,-0.174,-4.900,-10.710,-19.390
6779456,-1.003,-0.223,-0.154,-6.300,-14.700,-19.320
6779477,-0.974,-0.253,-0.128,-2.520,-13.860,-18.270
6779500,-0.971,-0.257,-0.125,-3.430,-12.880,-16.590
6779517,-0.968,-0.261,-0.125,-4.060,-13.020,-14.700
6779541,-0.958,-0.302,-0.120,-3.500,-12.740,-11.550
6779559,-0.966,-0.301,-0.125,0.840,-12.110,-8.820
6779580,-0.982,-0.267,-0.129,0.210,-13.860,-5.880
6779600,-0.969,-0.269,-0.083,3.290,-14.420,-4.830
6779624,-0.967,-0.235,-0.100,4.130,-10.500,-5.670
6779644,-1.005,-0.253,-0.112,4.410,-10.710,-6.650
6779668,-1.012,-0.225,-0.095,27.930,-5.180,-6.930
6779687,-0.950,-0.281,-0.089,15.610,-8.190,-12.880
6779707,-0.996,-0.231,-0.044,13.930,-6.160,-17.010
6779726,-0.969,-0.254,-0.067,14.490,-1.470,-19.250
6779750,-0.950,-0.294,-0.088,10.080,-5.320,-19.040
6779770,-0.932,-0.351,-0.115,9.450,-2.800,-17.990
6779790,-0.994,-0.345,-0.117,0.280,-10.780,-14.140
6779809,-0.998,-0.403,-0.140,1.540,-14.070,-9.590
6779827,-0.988,-0.403,-0.154,20.510,-18.340,-1.820
6779846,-0.938,-0.410,-0.107,24.220,-18.060,2.450
6779868,-0.935,-0.369,-0.074,30.660,-16.590,6.720
6779888,-0.957,-0.312,-0.100,35.070,-10.430,9.660
6779907,-0.979,-0.327,-0.065,37.870,-8.540,7.980
6779932,-1.005,-0.255,-0.030,27.440,-14.000,5.530
6779951,-0.981,-0.331,-0.066,20.860,-14.070,4.760
6779972,-0.959,-0.438,-0.067,32.200,-7.490,8.190
6779994,-0.975,-0.347,0.006,50.260,-0.140,12.600
6780013,-0.955,-0.276,0.031,47.880,0.980,14.280
6780038,-0.978,-0.330,0.023,42.070,4.200,11.130
6780057,-0.950,-0.434,-0.002,71.330,9.800,8.260
6780078,-0.889,-0.419,-0.139,65.100,15.260,2.170
6780098,-0.847,-0.522,-0.283,107.450,46.830,1.470
6780114,-0.999,-0.229,-0.331,103.740,45.290,4.690
6780138,-0.963,-0.258,-0.289,83.860,48.580,-0.700
6780157,-0.951,-0.325,-0.209,59.500,46.900,-12.250
6780175,-0.923,-0.272,-0.179,50.820,48.860,-17.360
6780194,-0.903,-0.297,-0.115,33.740,45.920,-18.410
6780219,-0.887,-0.365,-0.093,25.830,47.880,-17.500
6780234,-0.922,-0.368,-0.074,22.120,47.880,-17.780
6780258,-0.921,-0.335,-0.058,15.890,44.030,-21.420
6780279,-0.934,-0.302,0.006,-7.210,33.530,-26.040
6780299,-0.945,-0.384,0.039,-19.180,22.330,-30.940
6780323,-0.936,-0.402,-0.027,-26.040,19.460,-33.040
6780342,-0.949,-0.457,-0.082,-30.380,17.430,-33.390
6780366,-0.935,-0.440,-0.084,-39.620,15.400,-35.910
6780386,-0.966,-0.420,-0.067,-50.470,11.270,-38.850
6780404,-0.928,-0.450,-0.096,-60.060,6.790,-43.330
6780427,-0.899,-0.436,-0.110,-61.810,4.340,-44.100
6780448,-0.881,-0.389,-0.020,-64.820,-2.870,-37.100
6780468,-0.861,-0.370,0.010,-59.010,-5.880,-31.640
6780483,-0.926,-0.802,0.067,-68.670,-13.020,-28.630
6780506,-1.119,0.229,0.244,7.280,-9.380,17.290
6780528,-0.778,-0.142,-0.492,-123.970,-51.100,18.690
6780548,-0.806,-0.738,-0.793,-58.100,7.350,19.670
6780568,-1.069,0.120,-0.092,-22.680,-26.880,38.710
6780588,-0.772,-0.438,-0.305,-22.400,-10.220,29.330
6780608,-1.102,-0.448,-0.168,-2.310,0.140,20.790
6780627,-0.986,-0.461,-0.124,-12.250,-10.430,19.320
6780648,-0.968,-0.633,0.042,-13.860,-4.060,22.680
6780668,-0.888,-0.286,-0.163,-24.570,0.980,21.070
6780692,-0.941,-0.252,-0.302,-25.620,4.830,21.980
6780710,-0.940,-0.226,-0.237,-21.490,3.920,16.170
6780732,-0.894,-0.267,-0.247,-20.230,7.910,8.050
6780752,-0.926,-0.288,-0.234,-21.280,8.540,2.870
6780772,-0.977,-0.227,-0.301,-34.160,4.480,-0.700
6780792,-0.960,-0.346,-0.318,-31.780,2.730,-3.640
6780809,-0.930,-0.389,-0.327,-27.580,-1.260,-4.970
6780832,-0.968,-0.325,-0.312,-24.780,-6.930,-2.730
6780853,-0.976,-0.340,-0.291,-17.780,-7.070,-3.220
6780873,-0.952,-0.348,-0.298,-18.200,-7.490,-1.260
6780892,-0.923,-0.384,-0.320,-6.860,-6.650,2.240
6780917,-0.929,-0.353,-0.308,-0.350,-7.770,5.320
6780936,-0.905,-0.331,-0.300,3.010,-9.380,5.950
6780955,-0.912,-0.338,-0.302,1.820,-13.860,8.050
6780973,-0.953,-0.410,-0.304,11.130,-15.540,11.410
6780997,-0.874,-0.282,-0.263,11.690,-25.270,16.240
6781017,-0.920,-0.293,-0.244,4.830,-23.240,15.540
6781036,-0.939,-0.289,-0.218,-2.030,-23.100,15.120
6781055,-0.934,-0.303,-0.169,-3.150,-20.230,15.190
6781078,-0.957,-0.283,-0.208,-2.730,-16.800,14.770
6781099,-0.965,-0.276,-0.224,-3.920,-17.010,12.530
6781118,-0.965,-0.285,-0.231,0.770,-18.690,10.220
6781138,-0.956,-0.264,-0.184,-3.080,-21.210,8.050
6781162,-0.979,-0.259,-0.194,-0.210,-17.220,5.390
6781182,-0.980,-0.228,-0.226,-4.270,-17.920,1.750
6781202,-0.994,-0.239,-0.238,-3.850,-19.460,-1.260
6781222,-0.989,-0.240,-0.215,-7.420,-22.750,-3.990
6781242,-0.977,-0.289,-0.161,-2.240,-21.980,-5.040
6781261,-0.949,-0.264,-0.123,-1.820,-20.160,-6.510
6781285,-0.946,-0.227,-0.111,-0.840,-14.210,-10.010
6781303,-0.940,-0.262,-0.129,0.630,-8.050,-12.950
6781324,-0.953,-0.289,-0.144,5.880,-4.200,-15.820
6781348,-0.935,-0.298,-0.125,9.590,2.870,-19.670
6781368,-0.943,-0.269,-0.110,9.730,9.660,-22.470
6781388,-0.982,-0.253,-0.105,28.280,16.310,-24.220
6781407,-0.911,-0.243,-0.064,32.410,31.290,-28.630
6781427,-1.024,-0.266,-0.126,23.520,38.290,-39.760
6781452,-1.053,-0.248,-0.197,12.740,30.030,-47.810
6781472,-0.999,-0.346,-0.366,0.210,28.980,-44.170
6781492,-1.037,-0.209,-0.387,-35.070,12.250,-34.650
6781512,-0.886,-0.342,-0.398,-66.430,4.060,-26.740
6781531,-0.990,-0.275,-0.417,-74.060,8.750,-20.510
