Timestamp,AccelX,AccelY,AccelZ,GyroX,GyroY,GyroZ
1743909997.207581,-39530782747768734128834562897215488.000,-0.034,-0.046,1.052,0.770,-2.380
1743909997.227581,-39580394432783135028731420199616512.000,-0.033,-0.047,1.051,0.770,-2.380
1743909997.247581,-39629887275553764532121887186092032.000,-0.034,-0.049,1.052,0.840,-2.520
1743909997.267581,-39679261276080622639005963856642048.000,-0.034,-0.046,1.053,0.910,-2.380
1743909997.287581,-39728892768135652104987219545030656.000,-0.034,-0.046,1.050,0.840,-2.380
1743909997.327676,-39776006290150775107489330414747648.000,-0.033,-0.048,1.052,0.840,-2.380
1743909997.347676,-39819279722164034860378704201121792.000,-0.035,-0.047,1.055,0.840,-2.450
1743909997.367676,-39865298905184429586717804245024768.000,-0.035,-0.048,1.053,0.840,-2.380
1743909997.387676,-39922164918829042815025570415378432.000,-0.033,-0.046,1.055,0.910,-2.380
1743909997.407676,-39976364409629035334221203872153600.000,-0.033,-0.049,1.052,0.840,-2.450
1743909997.403831,-40021115942049201831158807212851200.000,-0.033,-0.047,1.055,0.840,-2.450
1743909997.423831,-40074188907413444654304282466582528.000,-0.034,-0.049,1.054,0.840,-2.450
1743909997.443831,-40116328386350718998861848655167488.000,-0.034,-0.046,1.054,0.840,-2.450
1743909997.463831,-40166197562893291257855884975407104.000,-0.033,-0.047,1.052,0.840,-2.520
1743909997.483831,-40211855267422214653154714475036672.000,-0.034,-0.047,1.053,0.840,-2.520
1743909997.508864,-40261417434835044137840575812468736.000,-0.035,-0.049,1.054,0.840,-2.380
1743909997.528864,-40323004951789491806516807242612736.000,-0.035,-0.049,1.051,0.910,-2.520
1743909997.548864,-40367694587207694034440665627099136.000,-0.034,-0.047,1.053,0.840,-2.450
1743909997.568864,-40409975191309446912349570315845632.000,-0.033,-0.047,1.053,0.910,-2.380
1743909997.588864,-40459465558199997844979487504072704.000,-0.032,-0.047,1.054,0.910,-2.380
1743909997.614015,-40509906663040719949660527219703808.000,-0.035,-0.048,1.051,0.770,-2.450
1743909997.634015,-40558500761342828266971417441992704.000,-0.033,-0.049,1.053,0.840,-2.380
1743909997.654015,-40615299926225320084744339059638272.000,-0.034,-0.048,1.051,0.910,-2.450
1743909997.674015,-40668561058475534285691598980251648.000,-0.033,-0.049,1.054,0.770,-2.380
1743909997.694015,-40718083611807106638208663545708544.000,-0.034,-0.046,1.053,0.910,-2.380
1743909997.704930,-40767410570612471900642294049538048.000,-0.035,-0.048,1.054,0.980,-2.380
1743909997.724930,-40817138621990565626284991869616128.000,-0.034,-0.047,1.051,0.910,-2.380
1743909997.744930,-40867703520835216268993521497669632.000,-0.035,-0.049,1.054,0.840,-2.520
1743909997.764930,-40917198839485924343144538282393600.000,-0.034,-0.050,1.054,0.910,-2.520
1743909997.784930,-40965584963861432716569245451812864.000,-0.034,-0.045,1.052,0.910,-2.380
1743909997.810074,-41005107437555657767225674891788288.000,-0.036,-0.047,1.054,0.840,-2.380
1743909997.830074,-41054904813575951474163767062822912.000,-0.033,-0.049,1.053,0.840,-2.380
1743909997.850074,-41104234248261395307357947364900864.000,-0.034,-0.048,1.052,0.840,-2.450
1743909997.870074,-41164863599625436091701406872895488.000,-0.034,-0.048,1.051,0.840,-2.450
1743909997.890074,-41214475284639836991598264175296512.000,-0.035,-0.049,1.053,0.840,-2.450
1743909997.927490,-41261559096094017144973777466032128.000,-0.035,-0.048,1.053,0.840,-2.380
1743909997.947490,-41302579477235777505762834846318592.000,-0.035,-0.049,1.054,0.840,-2.380
1743909997.967490,-41354189197473585009423379335217152.000,-0.033,-0.048,1.053,0.770,-2.380
1743909997.987490,-41400309891577201136945021107306496.000,-0.034,-0.048,1.051,0.840,-2.450
1743909998.007490,-41461889980891413093339603142705152.000,-0.034,-0.050,1.055,0.840,-2.450
1743909998.062358,-41504175536753323112769607427948544.000,-0.034,-0.049,1.053,0.840,-2.450
1743909998.082358,-41566976234946270454115239999832064.000,-0.035,-0.047,1.055,0.770,-2.450
1743909998.102358,-41682768194460867783508204483248128.000,-0.034,-0.048,1.054,0.770,-2.380
1743909998.122358,-41781743976481812507246939263205376.000,-0.033,-0.049,1.052,0.840,-2.450
1743909998.142358,-41880600916258985834479283727237120.000,-0.033,-0.048,1.053,0.770,-2.450
1743909998.107664,-41979581650040087699739118103691264.000,-0.033,-0.047,1.051,0.840,-2.520
1743909998.127664,-42069104521921049259698723171074048.000,-0.034,-0.049,1.054,0.840,-2.380
1743909998.147664,-42156161417243754342150729183002624.000,-0.034,-0.049,1.054,0.910,-2.450
1743909998.167664,-42268378205924895493309784995659776.000,-0.034,-0.048,1.052,0.910,-2.520
1743909998.187664,-42375667993249680830974742293905408.000,-0.033,-0.048,1.054,0.840,-2.450
1743909998.212427,-42470157480568255336597242647674880.000,-0.034,-0.048,1.052,0.910,-2.450
1743909998.232427,-42573758206575970241043000555732992.000,-0.035,-0.050,1.052,0.840,-2.450
1743909998.252427,-42672872637881314927372524037603328.000,-0.033,-0.047,1.052,0.770,-2.450
1743909998.272427,-42772799157852430823162381344964608.000,-0.034,-0.047,1.053,0.840,-2.380
1743909998.292427,-42871116355772475724594869790834688.000,-0.034,-0.049,1.052,0.840,-2.310
1743909998.361692,-42965561277249635956527473776132096.000,-0.033,-0.047,1.052,0.700,-2.310
1743909998.381692,-43064338988864295019422224696213504.000,-0.034,-0.047,1.053,0.770,-2.450
1743909998.401692,-43168103122957195594064269288669184.000,-0.034,-0.047,1.052,0.840,-2.380
1743909998.421692,-43267088808498454600845203261620224.000,-0.033,-0.046,1.050,0.770,-2.520
1743909998.441692,-43366148770442070730442631182024704.000,-0.035,-0.049,1.054,0.840,-2.520
1743909998.409991,-43440969866416479114257534250123264.000,-0.035,-0.046,1.055,0.910,-2.380
1743909998.429991,-43540099153002295225150356521484288.000,-0.035,-0.049,1.053,0.770,-2.380
1743909998.449991,-43639069983263082807367991704944640.000,-0.034,-0.050,1.053,0.840,-2.380
1743909998.469991,-43738120041686384653923220432355328.000,-0.036,-0.046,1.054,0.770,-2.450
1743909998.489991,-43861631795285965614710455854432256.000,-0.033,-0.050,1.053,0.840,-2.450
1743909998.527791,-43938775266774073371921069679575040.000,-0.033,-0.048,1.054,0.840,-2.450
1743909998.547791,-44042272005818488304423736061198336.000,-0.033,-0.050,1.052,0.770,-2.380
1743909998.567791,-44134250950737392058848740991041536.000,-0.033,-0.047,1.055,0.840,-2.450
1743909998.587791,-44257317045922830282737012728397824.000,-0.034,-0.051,1.053,0.910,-2.450
1743909998.607791,-44356471091309432101235332982243328.000,-0.036,-0.048,1.051,0.840,-2.380
1743909998.662173,-44451034855030363729674327283466240.000,-0.034,-0.049,1.054,0.910,-2.450
1743909998.682173,-44547861573143109033255837183770624.000,-0.032,-0.051,1.053,0.770,-2.310
1743909998.702173,-44646129253461582519477329664671744.000,-0.034,-0.048,1.051,0.840,-2.450
1743909998.722173,-44752913961250339421990128120233984.000,-0.035,-0.048,1.053,0.770,-2.450
1743909998.742173,-44851889743271284145728862900191232.000,-0.034,-0.046,1.053,0.840,-2.450
1743909998.722479,-44951028933377414539663884364546048.000,-0.035,-0.049,1.052,0.840,-2.450
1743909998.742479,-45049702658028773630615543758192640.000,-0.033,-0.047,1.056,0.770,-2.450
1743909998.762479,-45148762619972389760212971678597120.000,-0.033,-0.048,1.053,0.840,-2.450
1743909998.782479,-45239444203730122436109882326253568.000,-0.035,-0.049,1.050,0.910,-2.310
1743909998.802479,-45346709232254122066169341642014720.000,-0.034,-0.048,1.052,0.770,-2.450
1743909998.830205,-45436232104135083626128946709397504.000,-0.034,-0.048,1.054,0.840,-2.380
1743909998.850205,-45520946816903460769100843578294272.000,-0.034,-0.048,1.051,0.840,-2.450
1743909998.870205,-45619808708440791237854287638822912.000,-0.035,-0.049,1.051,0.840,-2.380
1743909998.890205,-45730881640525632697639336660697088.000,-0.035,-0.051,1.051,0.840,-2.310
1743909998.910205,-45829812856705163147688175072182272.000,-0.035,-0.049,1.053,0.770,-2.380
1743909998.961554,-45928580664799507927540726799269888.000,-0.034,-0.049,1.054,0.770,-2.380
1743909998.981554,-46023496003491596603977792451772416.000,-0.034,-0.047,1.052,0.910,-2.450
1743909999.001554,-46114900544232271941955244187975680.000,-0.035,-0.047,1.050,0.910,-2.380
1743909999.021554,-46214024879057930911326966862839808.000,-0.033,-0.047,1.053,0.700,-2.380
1743909999.041554,-46319888559457459490915240369979392.000,-0.034,-0.046,1.053,0.910,-2.380
1743909999.007682,-46436383668914370916304347555954688.000,-0.034,-0.049,1.052,0.910,-2.520
1743909999.027682,-46530838493911845431279150734245888.000,-0.034,-0.045,1.053,0.840,-2.450
1743909999.047682,-46634513496321917458541402589757440.000,-0.035,-0.047,1.056,0.770,-2.380
1743909999.067682,-46733469471302233616195738983727104.000,-0.035,-0.048,1.053,0.840,-2.450
1743909999.087682,-46832301652278621235822585465274368.000,-0.035,-0.047,1.053,0.840,-2.520
1743909999.115278,-46926682200873738627980894696112128.000,-0.034,-0.046,1.053,0.770,-2.450
1743909999.135278,-47030134374076739286793664709263360.000,-0.033,-0.050,1.053,0.910,-2.450
1743909999.155278,-47119800847002257950865158075056128.000,-0.033,-0.047,1.053,0.840,-2.380
1743909999.175278,-47226328063262843494280777512779776.000,-0.033,-0.047,1.053,0.770,-2.450
1743909999.195278,-47327750014801416129442712962203648.000,-0.033,-0.049,1.055,0.770,-2.380
1743909999.261387,-47417371921885520519824309959524352.000,-0.034,-0.048,1.053,0.840,-2.450
1743909999.281387,-47517115226730822179333482196500480.000,-0.034,-0.049,1.052,0.770,-2.450
1743909999.301387,-47624771444307235989559809635516416.000,-0.035,-0.049,1.054,0.770,-2.450
1743909999.321387,-47723757129848494996340743608467456.000,-0.033,-0.049,1.053,0.910,-2.450
1743909999.341387,-47822871561153839682670267090337792.000,-0.033,-0.047,1.054,0.840,-2.310
1743909999.308442,-47921877053735727255535599449276416.000,-0.033,-0.050,1.053,0.840,-2.450
1743909999.328442,-48012766611420059875318693149802496.000,-0.033,-0.047,1.052,0.840,-2.450
1743909999.348442,-48110514356922033501824727998529536.000,-0.034,-0.050,1.053,0.840,-2.450
1743909999.368442,-48216734564052876270932172453445632.000,-0.033,-0.049,1.050,0.840,-2.450
1743909999.388442,-48315779670716020975966301584359424.000,-0.035,-0.049,1.053,0.700,-2.450
1743909999.413892,-48400276506037483892009816207392768.000,-0.034,-0.050,1.053,0.910,-2.450
1743909999.433892,-48506427388526126679821866311352320.000,-0.035,-0.049,1.050,0.770,-2.450
1743909999.453892,-48612806051981997977604497854169088.000,-0.034,-0.048,1.052,0.840,-2.450
1743909999.473892,-48702343779143430962127401711042560.000,-0.034,-0.048,1.054,0.840,-2.450
1743909999.493892,-48800933323872118647220367964241920.000,-0.034,-0.049,1.055,0.770,-2.520
1743909999.505540,-48912338023887488588919089951408128.000,-0.035,-0.049,1.055,0.770,-2.380
1743909999.525540,-49011318757668590454178924327862272.000,-0.034,-0.048,1.055,0.840,-2.450
1743909999.545540,-49110443092494249423550647002726400.000,-0.033,-0.047,1.054,0.700,-2.310
1743909999.565540,-49209215852348751344924298326310912.000,-0.035,-0.048,1.054,0.840,-2.450
1743909999.585540,-49305913824697410968957218717696000.000,-0.033,-0.048,1.054,0.910,-2.450
1743909999.610813,-49395614959944029623676409258967040.000,-0.034,-0.048,1.052,0.910,-2.380
1743909999.630813,-49490733320802561102478558367842304.000,-0.033,-0.049,1.053,0.770,-2.380
1743909999.650813,-49588119587813063397944322672295936.000,-0.034,-0.048,1.051,0.910,-2.380
1743909999.670813,-49680380783060924219072004602462208.000,-0.035,-0.047,1.054,0.910,-2.450
1743909999.690813,-49803615238091705254677662620712960.000,-0.035,-0.051,1.054,0.840,-2.450
1743909999.715558,-49893237145175809645059259618033664.000,-0.034,-0.046,1.052,0.770,-2.380
1743909999.735558,-50002279855596223081193474076180480.000,-0.033,-0.047,1.051,0.700,-2.520
1743909999.755558,-50100483163032653727640671802621952.000,-0.032,-0.047,1.052,0.700,-2.380
1743909999.775558,-50199463896813755592900506179076096.000,-0.033,-0.048,1.054,0.910,-2.450
1743909999.795558,-50298598135159728845314428046934016.000,-0.034,-0.050,1.051,0.840,-2.380
1743909999.862175,-50383030597599148921583647915507712.000,-0.034,-0.050,1.052,0.770,-2.450
1743909999.882175,-50484576343141650094773073277353984.000,-0.034,-0.048,1.052,0.700,-2.380
1743909999.902175,-50571459926858855223986593411891200.000,-0.033,-0.049,1.053,0.840,-2.450
1743909999.922175,-50695036053340479024548123588427776.000,-0.034,-0.049,1.051,0.840,-2.380
1743909999.942175,-50794011835361423748286858368385024.000,-0.034,-0.048,1.053,0.840,-2.450
1743909999.909015,-50892992569142525613546692744839168.000,-0.033,-0.047,1.053,0.840,-2.310
1743909999.929015,-50982624379746944286970488935153664.000,-0.035,-0.049,1.054,0.770,-2.380
1743909999.949015,-51090820339180486522996672392331264.000,-0.033,-0.049,1.053,0.910,-2.380
1743909999.969015,-51165596869313480633121679091957760.000,-0.034,-0.049,1.054,0.770,-2.450
1743909999.989015,-51288841227864575951769536303202304.000,-0.034,-0.047,1.053,0.910,-2.520
1743910000.015402,-51387911093328506364409163416600576.000,-0.033,-0.049,1.053,0.840,-2.450
1743910000.035402,-51486956199991651069443292547514368.000,-0.034,-0.048,1.053,0.840,-2.520
1743910000.055402,-51577568459107183764044808844214272.000,-0.033,-0.048,1.051,0.910,-2.450
1743910000.075402,-51673360259347086489716503076667392.000,-0.036,-0.046,1.053,0.910,-2.450
1743910000.095402,-51772058742799231288273660452798464.000,-0.034,-0.048,1.054,0.840,-2.380
1743910000.106030,-51875005836466203511934271623266304.000,-0.034,-0.047,1.052,0.910,-2.310
1743910000.126030,-51982018325222188924417651517685760.000,-0.034,-0.051,1.053,0.840,-2.450
1743910000.146030,-52081132756527533610747174999556096.000,-0.032,-0.048,1.052,0.770,-2.520
1743910000.166030,-52180192718471149740344602919960576.000,-0.034,-0.050,1.055,0.840,-2.450
1743910000.186030,-52274662398749095679882704887742464.000,-0.034,-0.048,1.054,0.770,-2.520
1743910000.207281,-52353974741186031423334941978525696.000,-0.036,-0.047,1.054,0.770,-2.380
1743910000.227281,-52453396181621118883972640443203584.000,-0.036,-0.047,1.054,0.910,-2.380
1743910000.247281,-52576566263769857079804003706994688.000,-0.033,-0.047,1.053,0.840,-2.450
1743910000.267281,-52675309313063416152051057451597824.000,-0.036,-0.048,1.049,0.770,-2.450
1743910000.287281,-52774572297173475084013568828375040.000,-0.034,-0.048,1.052,0.770,-2.450
1743910000.313074,-52873572837995205515357801590816768.000,-0.034,-0.049,1.052,0.770,-2.450
1743910000.333074,-52972791256263850173630416599121920.000,-0.035,-0.049,1.052,0.840,-2.450
1743910000.353074,-53062244803502611752294627315548160.000,-0.035,-0.048,1.055,0.910,-2.380
1743910000.373074,-53148464851358759917680801519501312.000,-0.034,-0.050,1.054,0.770,-2.450
1743910000.393074,-53265252114664942692814784898793472.000,-0.033,-0.049,1.055,0.770,-2.380
1743910000.403731,-53368852840672657597260542806851584.000,-0.035,-0.051,1.051,0.910,-2.380
1743910000.423731,-53463451266714689216347234283552768.000,-0.035,-0.049,1.050,0.840,-2.450
1743910000.443731,-53562011100882434052313602957770752.000,-0.034,-0.048,1.053,0.840,-2.380
1743910000.463731,-53661135435708093021685325632634880.000,-0.034,-0.048,1.052,0.840,-2.450
1743910000.483731,-53758100803105238287857624234852352.000,-0.034,-0.049,1.054,0.840,-2.450
1743910000.510576,-53839591920011316300593683784269824.000,-0.034,-0.051,1.048,0.910,-2.380
1743910000.530576,-53963039300728854421606624451887104.000,-0.036,-0.049,1.056,0.840,-2.380
1743910000.550576,-54052646352532487387424922659717120.000,-0.035,-0.048,1.055,0.770,-2.380
1743910000.570576,-54161055237652786708858388766261248.000,-0.034,-0.050,1.054,0.840,-2.310
1743910000.590576,-54255747747137804016845972576403456.000,-0.035,-0.051,1.052,0.840,-2.380
1743910000.616010,-54337417127409539124341617599709184.000,-0.035,-0.047,1.055,0.840,-2.450
1743910000.636010,-54436071045020269649208878607368192.000,-0.035,-0.048,1.054,0.770,-2.310
1743910000.656010,-54552576057997495357640184986337280.000,-0.033,-0.049,1.052,0.840,-2.380
1743910000.676010,-54656350095610710215324428771786752.000,-0.036,-0.048,1.052,0.840,-2.450
1743910000.696010,-54754959447380026466501793410973696.000,-0.034,-0.052,1.051,0.910,-2.380
1743910000.719767,-54845754921621373397383994778058752.000,-0.033,-0.047,1.051,0.770,-2.380
1743910000.739767,-54932029438839250119502264543477760.000,-0.033,-0.049,1.054,0.840,-2.520
1743910000.759767,-55029915833625623708599088094117888.000,-0.034,-0.048,1.050,0.770,-2.380
1743910000.779767,-55151555821885805174410676040368128.000,-0.035,-0.046,1.055,0.840,-2.450
1743910000.799767,-55250536555666907039670510416822272.000,-0.035,-0.050,1.051,0.840,-2.380
1743910000.807991,-55345531122521509980445169613275136.000,-0.032,-0.049,1.054,0.840,-2.520
1743910000.827991,-55448290049302510826303996116860928.000,-0.034,-0.049,1.054,0.840,-2.450
1743910000.847991,-55547270783083612691563830493315072.000,-0.034,-0.049,1.051,0.840,-2.380
1743910000.867991,-55646375310868643094851154782191616.000,-0.033,-0.047,1.052,0.910,-2.520
1743910000.887991,-55746470190685101802358398370447360.000,-0.035,-0.048,1.053,0.770,-2.380
1743910000.914083,-55839845531968319465733489512415232.000,-0.033,-0.047,1.051,0.840,-2.380
1743910000.934083,-55926590466401124632356220945039360.000,-0.036,-0.046,1.054,0.770,-2.380
1743910000.954083,-56018425810275471282669337576472576.000,-0.032,-0.049,1.052,0.840,-2.380
1743910000.974083,-56141704831147666591964891963195392.000,-0.034,-0.048,1.052,0.840,-2.380
1743910000.994083,-56240556819164682777676136830730240.000,-0.034,-0.046,1.050,0.840,-2.450
1743910001.019305,-56331178981800529755319852320423936.000,-0.035,-0.047,1.053,0.910,-2.450
1743910001.039305,-56429070328347060485937775467560960.000,-0.034,-0.047,1.052,0.770,-2.380
1743910001.059305,-56513591922469309109586788073078784.000,-0.033,-0.048,1.053,0.840,-2.450
1743910001.079305,-56636945219743861541698836407255040.000,-0.033,-0.048,1.052,0.700,-2.450
1743910001.099305,-56735901194724177699353172801224704.000,-0.033,-0.048,1.052,0.910,-2.450
1743910001.110424,-56835030481309993810245995072585728.000,-0.035,-0.048,1.054,0.770,-2.520
1743910001.130424,-56935244203370223914259628976766976.000,-0.034,-0.049,1.052,0.840,-2.450
1743910001.150424,-57033229633359740333778444457345024.000,-0.032,-0.048,1.055,0.840,-2.450
1743910001.170424,-57127218992902443545769885564928000.000,-0.034,-0.049,1.052,0.840,-2.380
1743910001.190424,-57206927476151950610910090375462912.000,-0.034,-0.049,1.051,0.770,-2.450
1743910001.215522,-57325368627350618654091338984718336.000,-0.033,-0.047,1.053,0.840,-2.380
1743910001.235522,-57428934691037233567889399717298176.000,-0.035,-0.049,1.051,0.910,-2.450
1743910001.255522,-57504013278539813310801481803235328.000,-0.035,-0.049,1.052,0.840,-2.450
1743910001.275522,-57619988453180224876475131357036544.000,-0.034,-0.047,1.054,0.840,-2.380
1743910001.295522,-57713839163438528125875783762706432.000,-0.031,-0.049,1.055,0.840,-2.450
1743910001.319663,-57801599208703547304323932477194240.000,-0.032,-0.048,1.052,0.910,-2.380
1743910001.339663,-57900000586546263611615114063511552.000,-0.034,-0.047,1.053,0.700,-2.450
1743910001.359663,-57999075403770351165775840773406720.000,-0.036,-0.047,1.052,0.840,-2.520
1743910001.379663,-58122621819691032117210773370961920.000,-0.033,-0.047,1.052,0.700,-2.380
1743910001.399663,-58221602553472133982470607747416064.000,-0.036,-0.049,1.053,0.840,-2.450
1743910001.422276,-58320627853094650121420338492342272.000,-0.032,-0.050,1.053,0.840,-2.450
1743910001.442276,-58419707622078894817102164798734336.000,-0.033,-0.048,1.052,0.770,-2.450
1743910001.462276,-58509171072837970678808574708154368.000,-0.034,-0.046,1.052,0.910,-2.380
1743910001.482276,-58593207394464819433389826856976384.000,-0.032,-0.048,1.053,0.840,-2.450
1743910001.502276,-58716803327987071800035755419500544.000,-0.034,-0.048,1.052,0.840,-2.380
1743910001.528035,-58793931944194708132683070455152640.000,-0.032,-0.048,1.053,0.770,-2.310
1743910001.548035,-58890337762694096406971114653220864.000,-0.035,-0.048,1.053,0.770,-2.520
1743910001.568035,-59005183936018679705834056205729792.000,-0.036,-0.049,1.054,0.770,-2.450
1743910001.588035,-59110344466475894189426187010310144.000,-0.034,-0.049,1.054,0.840,-2.450
1743910001.608035,-59211860501457452513489014793175040.000,-0.036,-0.047,1.052,0.770,-2.380
1743910001.605381,-59307538411213740984175418306199552.000,-0.034,-0.050,1.053,0.770,-2.450
1743910001.625381,-59392708685916575147088478052810752.000,-0.034,-0.048,1.052,0.770,-2.450
1743910001.645381,-59491862731303176965586798306656256.000,-0.033,-0.047,1.051,0.840,-2.520
1743910001.665381,-59585861994366194460620438607233024.000,-0.035,-0.049,1.054,0.840,-2.380
1743910001.685381,-59704555685332876721377766637830144.000,-0.032,-0.049,1.052,0.840,-2.380
1743910001.708010,-59803779055361678521171481242632192.000,-0.035,-0.048,1.053,0.770,-2.520
1743910001.728010,-59893296975482482939609986713518080.000,-0.032,-0.048,1.054,0.840,-2.450
1743910001.748010,-59991945941333056322956148124680192.000,-0.034,-0.049,1.052,0.910,-2.520
1743910001.768010,-60090906868073529622131584115146752.000,-0.033,-0.048,1.054,0.840,-2.450
1743910001.788010,-60189575640964731571562143912296448.000,-0.034,-0.049,1.054,0.770,-2.450
1743910001.827275,-60279489701898107311688617102934016.000,-0.032,-0.048,1.052,0.910,-2.450
1743910001.847275,-60378178281829937827203575286071296.000,-0.033,-0.048,1.052,0.840,-2.380
1743910001.867275,-60475069372824725970559379940835328.000,-0.034,-0.048,1.051,0.910,-2.380
1743910001.887275,-60598477139461006959403523836477440.000,-0.035,-0.048,1.056,0.840,-2.380
1743910001.907275,-60697086491230323210580888475664384.000,-0.035,-0.049,1.054,0.910,-2.450
1743910001.903151,-60787896820752141566026388632240128.000,-0.033,-0.047,1.055,0.700,-2.590
1743910001.923151,-60883579682268587178233891741761536.000,-0.034,-0.049,1.052,0.770,-2.450
1743910001.943151,-60982530705488746194367128539234304.000,-0.034,-0.048,1.054,0.910,-2.380
1743910001.963151,-61093316435484473445928400964288512.000,-0.033,-0.049,1.053,0.840,-2.380
1743910001.983151,-61170761964342166835926090175741952.000,-0.035,-0.049,1.053,0.770,-2.380
1743910002.040628,-61267177686361869393256333566803968.000,-0.033,-0.046,1.050,0.840,-2.380
1743910002.060628,-61390516128355950400805083111489536.000,-0.033,-0.047,1.053,0.910,-2.450
1743910002.080628,-61489754353665223625162096505782272.000,-0.034,-0.048,1.053,0.770,-2.380
1743910002.100628,-61588378560715011300902759934459904.000,-0.034,-0.048,1.052,0.980,-2.450
1743910002.120628,-61687497943780513128753383012827136.000,-0.034,-0.049,1.052,0.700,-2.380
1743910002.097758,-61786557905724129258350810933231616.000,-0.034,-0.048,1.052,0.770,-2.450
1743910002.117758,-61861329484096966226954718036361216.000,-0.032,-0.046,1.052,0.840,-2.450
1743910002.137758,-61981206645741205311254849629716480.000,-0.034,-0.048,1.052,0.840,-2.380
1743910002.157758,-62066490810927653729153200095756288.000,-0.033,-0.048,1.051,0.840,-2.450
1743910002.177758,-62158489562887186049662603411587072.000,-0.033,-0.049,1.051,0.840,-2.520
1743910002.219338,-62282937199156466757937662571577344.000,-0.035,-0.048,1.051,0.770,-2.450
1743910002.239338,-62380496777772469006641912753422336.000,-0.035,-0.048,1.049,0.840,-2.450
1743910002.259338,-62479774617162999363167722919690240.000,-0.033,-0.044,1.054,0.770,-2.520
1743910002.279338,-62555105744433593323655884426969088.000,-0.033,-0.049,1.053,0.840,-2.380
1743910002.299338,-62678117370257302990812060602859520.000,-0.035,-0.047,1.053,0.840,-2.380
1743910002.307779,-62768056189991464438544031775981568.000,-0.034,-0.048,1.048,0.840,-2.450
1743910002.327779,-62877034527529835034903951479668736.000,-0.034,-0.047,1.054,0.770,-2.520
1743910002.347779,-62975000150478722888338368574259200.000,-0.035,-0.048,1.053,0.840,-2.380
1743910002.367779,-63071871434432882465609774843035648.000,-0.036,-0.047,1.050,0.840,-2.450
1743910002.387779,-63160859516216872741290623488753664.000,-0.035,-0.048,1.054,0.770,-2.450
1743910002.413469,-63250555699703334254488714433527808.000,-0.035,-0.049,1.055,0.910,-2.450
1743910002.433469,-63366525922583588678641264390832128.000,-0.035,-0.047,1.054,0.770,-2.450
1743910002.453469,-63458485060461863866981870934687744.000,-0.034,-0.047,1.054,0.840,-2.380
1743910002.473469,-63547111663754382811622449036132352.000,-0.035,-0.046,1.053,0.910,-2.520
1743910002.493469,-63645914134169827582122697938698240.000,-0.033,-0.049,1.050,0.840,-2.380
1743910002.517659,-63768222610051223153282731412029440.000,-0.035,-0.047,1.054,0.980,-2.450
1743910002.537659,-63856651142937456437079325653598208.000,-0.034,-0.049,1.053,0.770,-2.450
1743910002.557659,-63941143026498762211601740680134656.000,-0.031,-0.047,1.055,0.770,-2.380
1743910002.577659,-64064595358976457474135780944248832.000,-0.032,-0.048,1.054,0.840,-2.380
1743910002.597659,-64159198736778646234743572017446912.000,-0.033,-0.046,1.055,0.770,-2.380
1743910002.608700,-64258491431449648015832680973205504.000,-0.034,-0.047,1.053,0.700,-2.450
1743910002.628700,-64361334538153320267550200617238528.000,-0.034,-0.048,1.054,0.910,-2.450
1743910002.648700,-64460453921218822095400823695605760.000,-0.035,-0.047,1.052,0.910,-2.450
1743910002.668700,-64559563400764009640209247580979200.000,-0.036,-0.049,1.053,0.910,-2.450
1743910002.688700,-64646857980574257515674034224758784.000,-0.035,-0.048,1.054,0.840,-2.450
1743910002.713793,-64745982315399916485045756899622912.000,-0.034,-0.048,1.055,0.910,-2.380
1743910002.733793,-64839976626702776838558297603702784.000,-0.032,-0.047,1.052,0.770,-2.450
1743910002.753793,-64955649743973602771444871771193344.000,-0.034,-0.048,1.054,0.840,-2.450
1743910002.773793,-65052357619842576678519991355572224.000,-0.035,-0.049,1.053,0.840,-2.450
1743910002.793793,-65153977641787434974525910664871936.000,-0.034,-0.049,1.052,0.910,-2.450
1743910002.820642,-65238603222872983570118014796824576.000,-0.034,-0.049,1.054,0.840,-2.310
1743910002.840642,-65349235448303839434525199730475008.000,-0.034,-0.049,1.053,0.840,-2.520
1743910002.860642,-65443700176821628232542202101760000.000,-0.034,-0.047,1.050,0.910,-2.380
1743910002.880642,-65550197682521270926831223960502272.000,-0.035,-0.047,1.056,0.910,-2.450
1743910002.900642,-65649178416302372792091058336956416.000,-0.036,-0.049,1.053,0.770,-2.450
1743910002.924073,-65748386931050703167321474152267776.000,-0.035,-0.048,1.053,0.910,-2.380
1743910002.944073,-65847293388429447909764814581268480.000,-0.033,-0.047,1.051,0.840,-2.380
1743910002.964073,-65936771694468995196034523280179200.000,-0.034,-0.046,1.052,0.840,-2.380
1743910002.984073,-66045036978544737413356101088313344.000,-0.034,-0.047,1.053,0.770,-2.380
1743910003.004073,-66132465255879228109890576837509120.000,-0.036,-0.047,1.053,0.980,-2.450
1743910003.014683,-66230901296043044407829455599304704.000,-0.034,-0.048,1.052,0.910,-2.450
1743910003.034683,-66325479915044447460831748690018304.000,-0.035,-0.049,1.051,0.840,-2.380
1743910003.054683,-66424029845691878013755918171242496.000,-0.035,-0.050,1.050,0.840,-2.380
1743910003.074683,-66532973520909148619468140699451392.000,-0.035,-0.047,1.055,0.770,-2.450
1743910003.094683,-66639446267808005606151664575709184.000,-0.033,-0.047,1.051,0.770,-2.450
1743910003.120762,-66735119225804136935316968492236800.000,-0.035,-0.047,1.053,0.770,-2.450
1743910003.140762,-66820363776909328221046522186301440.000,-0.035,-0.048,1.053,0.910,-2.520
1743910003.160762,-66919458401174044341291647282184192.000,-0.034,-0.048,1.051,0.840,-2.380
1743910003.180762,-67011521526015619501575345352474624.000,-0.034,-0.048,1.050,0.840,-2.380
1743910003.200762,-67134538103599486310252621124861952.000,-0.034,-0.049,1.055,0.840,-2.450
1743910003.210250,-67224204576525004974324114490654720.000,-0.033,-0.047,1.052,0.980,-2.380
1743910003.230250,-67333569151355632609329802721099776.000,-0.034,-0.048,1.052,0.840,-2.520
1743910003.250250,-67431510015503734755158721833205760.000,-0.035,-0.047,1.052,0.910,-2.520
1743910003.270250,-67530495701044993761939655806156800.000,-0.033,-0.051,1.051,0.980,-2.450
1743910003.290250,-67610115052611672279700067879747584.000,-0.033,-0.048,1.052,0.770,-2.450
1743910003.313609,-67719024065507842894764593232478208.000,-0.034,-0.048,1.051,0.770,-2.380
1743910003.333609,-67825521571207485589053615091220480.000,-0.034,-0.049,1.054,0.770,-2.450
1743910003.353609,-67915004829007190016844423386628096.000,-0.033,-0.047,1.054,0.840,-2.450
1743910003.373609,-68003621528779394678442802295078912.000,-0.034,-0.048,1.052,0.910,-2.310
1743910003.393609,-68102369529833110892210955636178944.000,-0.033,-0.047,1.052,0.840,-2.450
1743910003.432977,-68215497442383166083252337204264960.000,-0.033,-0.048,1.055,0.770,-2.450
1743910003.452977,-68320905560848237642899447833690112.000,-0.033,-0.048,1.052,0.770,-2.520
1743910003.472977,-68422134393740681758738499019735040.000,-0.034,-0.050,1.054,0.840,-2.380
1743910003.492977,-68521243873285869303546922905108480.000,-0.036,-0.048,1.055,0.910,-2.450
1743910003.512977,-68619877983855971262329785526779904.000,-0.034,-0.051,1.052,0.910,-2.450
1743910003.508456,-68718918138758958825842815061196800.000,-0.033,-0.048,1.055,0.840,-2.450
1743910003.528456,-68814546530913675881318222609252352.000,-0.035,-0.050,1.051,0.840,-2.380
1743910003.548456,-68917038062646191085037670902005760.000,-0.035,-0.048,1.052,0.700,-2.310
1743910003.568456,-69013830118437836397971483626831872.000,-0.035,-0.046,1.053,0.910,-2.590
1743910003.588456,-69116014641040608827382756936777728.000,-0.034,-0.047,1.050,0.770,-2.450
1743910003.615346,-69214039685111382379070369189330944.000,-0.036,-0.048,1.056,0.840,-2.380
1743910003.635346,-69303577412272815363593273046204416.000,-0.033,-0.049,1.052,0.840,-2.450
1743910003.655346,-69400518020869174922160073665937408.000,-0.035,-0.047,1.053,0.770,-2.520
1743910003.675346,-69498899591671262663366856866267136.000,-0.034,-0.050,1.054,0.980,-2.310
1743910003.695346,-69610130980081132651827092976041984.000,-0.035,-0.047,1.051,0.700,-2.520
1743910003.732956,-69704669985001278572660589294780416.000,-0.034,-0.049,1.052,0.840,-2.590
1743910003.752956,-69806176116462522613681217884651520.000,-0.033,-0.048,1.052,0.910,-2.380
1743910003.772956,-69895743554184898447330719320506368.000,-0.034,-0.048,1.053,0.770,-2.520
1743910003.792956,-69989054522586073270931515708014592.000,-0.034,-0.048,1.052,0.980,-2.310
1743910003.812956,-70105703136607856083474710385393664.000,-0.035,-0.049,1.052,0.840,-2.450
1743910003.808444,-70200336224970987693209099037573120.000,-0.034,-0.046,1.052,0.840,-2.450
1743910003.828444,-70300054771015503645112773292064768.000,-0.036,-0.047,1.053,0.910,-2.450
1743910003.848444,-70391508829357750398301220993236992.000,-0.033,-0.047,1.052,0.840,-2.450
1743910003.868444,-70489930014241095271676800965541888.000,-0.034,-0.047,1.052,0.910,-2.520
1743910003.888444,-70600903911122793901039858057478144.000,-0.033,-0.047,1.054,0.910,-2.380
1743910003.915125,-70699889596664052907820792030429184.000,-0.035,-0.049,1.054,0.700,-2.450
1743910003.935125,-70799018883249869018713614301790208.000,-0.035,-0.047,1.051,0.770,-2.450
1743910003.955125,-70888472430488630597377825018216448.000,-0.034,-0.048,1.053,0.770,-2.450
1743910003.975125,-70974687526584621621242899625672704.000,-0.034,-0.044,1.053,0.840,-2.520
1743910003.995125,-71073460286439123542616550949257216.000,-0.034,-0.049,1.054,0.840,-2.450
1743910004.003648,-71190465427192220544678916574412800.000,-0.033,-0.049,1.053,0.840,-2.380
1743910004.023648,-71292100304417550265248134673203200.000,-0.034,-0.046,1.051,0.840,-2.380
1743910004.043648,-71393195439785751560017496753831936.000,-0.034,-0.046,1.052,0.840,-2.380
1743910004.063648,-71491968199640253481391148077416448.000,-0.034,-0.049,1.051,0.840,-2.520
1743910004.083648,-71588666171988913105424068468801536.000,-0.033,-0.047,1.052,0.840,-2.450
1743910004.110632,-71687919252578657754344380652584960.000,-0.035,-0.047,1.052,0.840,-2.380
1743910004.130632,-71776813250919662341124336964861952.000,-0.034,-0.048,1.053,0.840,-2.450
1743910004.150632,-71871490905124208224548621985513472.000,-0.033,-0.049,1.053,0.770,-2.310
1743910004.170632,-71970397362502952966991962414514176.000,-0.035,-0.049,1.053,0.910,-2.380
1743910004.190632,-72086144756176136022695030529458176.000,-0.034,-0.049,1.053,0.840,-2.450
1743910004.212786,-72185125489957237887954864905912320.000,-0.034,-0.049,1.052,0.770,-2.450
1743910004.232786,-72284254776543053998847687177273344.000,-0.035,-0.049,1.051,0.840,-2.450
1743910004.252786,-72376515971790914819975369107439616.000,-0.033,-0.046,1.054,0.770,-2.380
1743910004.272786,-72470029962358532445941248951320576.000,-0.036,-0.048,1.054,0.840,-2.380
1743910004.292786,-72569268187667805670298262345613312.000,-0.034,-0.048,1.052,0.910,-2.380
1743910004.303981,-72663856710189523006342754629320704.000,-0.034,-0.049,1.053,0.910,-2.450
1743910004.323981,-72779153493688406183625759463047168.000,-0.034,-0.049,1.054,0.770,-2.450
1743910004.343981,-72878436284839093681672669225811968.000,-0.033,-0.047,1.052,0.840,-2.450
1743910004.363981,-72970746997688525918011347120947200.000,-0.034,-0.049,1.054,0.770,-2.380
1743910004.383981,-73064295650577243534624924140306432.000,-0.034,-0.046,1.053,0.840,-2.450
1743910004.409454,-73153996785823862189344114681577472.000,-0.034,-0.047,1.052,0.770,-2.450
1743910004.429454,-73250234244477907651914772598751232.000,-0.034,-0.050,1.051,0.910,-2.450
1743910004.449454,-73366382730723819170826908029943808.000,-0.035,-0.047,1.052,0.840,-2.380
1743910004.469454,-73460416656107936656508245505998848.000,-0.034,-0.047,1.053,0.630,-2.450
1743910004.489454,-73571603478676392371278585247301632.000,-0.034,-0.049,1.052,0.910,-2.380
1743910004.515607,-73670425756132465707863232535855104.000,-0.035,-0.049,1.054,0.770,-2.380
1743910004.535607,-73745449874273316894043219060326400.000,-0.033,-0.050,1.053,0.910,-2.520
1743910004.555607,-73845084240395161440088200174370816.000,-0.036,-0.047,1.053,0.700,-2.520
1743910004.575607,-73967655159564885511866512262037504.000,-0.034,-0.049,1.053,0.840,-2.380
1743910004.595607,-74066937950715573009913422024802304.000,-0.035,-0.045,1.054,0.840,-2.450
1743910004.606489,-74162858496719561415133705766174720.000,-0.035,-0.049,1.050,0.910,-2.450
1743910004.626489,-74265132151005162391924771813064704.000,-0.036,-0.048,1.052,0.770,-2.520
1743910004.646489,-74362013338479636252238377274834944.000,-0.032,-0.048,1.053,0.700,-2.380
1743910004.666489,-74443786705714671331677113824575488.000,-0.034,-0.049,1.053,0.770,-2.450
1743910004.686489,-74554755650836212819519071320014848.000,-0.032,-0.047,1.056,0.840,-2.380
1743910004.710475,-74644461737842988615759361457782784.000,-0.033,-0.048,1.053,0.840,-2.450
1743910004.730475,-74742669997039576403727658780721152.000,-0.034,-0.049,1.052,0.770,-2.380
1743910004.750475,-74834837108844451535954448377446400.000,-0.033,-0.050,1.054,0.700,-2.520
1743910004.770475,-74953813050140090863414453408366592.000,-0.033,-0.048,1.053,0.770,-2.520
1743910004.790475,-75052610568795378492393602714435584.000,-0.032,-0.047,1.052,0.770,-2.380
1743910004.813540,-75131972428833885651056835770187776.000,-0.035,-0.047,1.053,0.910,-2.520
1743910004.833540,-75231111618940016044991857234542592.000,-0.036,-0.046,1.055,0.840,-2.450
1743910004.853540,-75349983573272355400508770739027968.000,-0.035,-0.049,1.051,0.700,-2.520
1743910004.873540,-75436193717608189282852745749987328.000,-0.034,-0.050,1.053,0.770,-2.310
1743910004.893540,-75534986284503319770310795459559424.000,-0.033,-0.048,1.054,0.840,-2.380
1743910004.932942,-75630173970004051230408338919391232.000,-0.033,-0.048,1.053,0.630,-2.520
1743910004.952942,-75726094516008039635628622660763648.000,-0.034,-0.049,1.052,0.770,-2.450
1743910004.972942,-75825307982516527152380138072571904.000,-0.034,-0.047,1.053,0.840,-2.380
1743910004.992942,-75948626617469979593844489231269888.000,-0.032,-0.048,1.053,0.910,-2.310
1743910005.012942,-76047458798446367213471335712817152.000,-0.034,-0.048,1.052,0.910,-2.380
1743910005.010147,-76146523712150140484589863229718528.000,-0.034,-0.049,1.054,0.770,-2.380
1743910005.030147,-76240943874826515008916969232531456.000,-0.033,-0.048,1.053,0.910,-2.520
1743910005.050147,-76344534697313915630320527947595776.000,-0.034,-0.050,1.053,0.840,-2.450
1743910005.070147,-76443688742700517448818848201441280.000,-0.034,-0.049,1.051,0.840,-2.450
1743910005.090147,-76530681265141179691496559458910208.000,-0.032,-0.047,1.051,0.910,-2.310
1743910005.132254,-76625096476057397074302565865226240.000,-0.032,-0.049,1.055,0.700,-2.450
1743910005.152254,-76716570341440272393575411952386048.000,-0.035,-0.048,1.054,0.840,-2.450
1743910005.172254,-76815496605859645702103150767374336.000,-0.035,-0.048,1.052,0.840,-2.520
1743910005.192254,-76926406129859301491691913104850944.000,-0.036,-0.049,1.051,0.840,-2.450
1743910005.212254,-77021326420311547309650078353850368.000,-0.037,-0.049,1.052,0.770,-2.450
1743910005.218701,-77112775526893636921317426458525696.000,-0.035,-0.050,1.053,0.840,-2.450
1743910005.238701,-77214019215066552461719776434061312.000,-0.033,-0.047,1.052,0.770,-2.380
1743910005.258701,-77330722298450063830995066672906240.000,-0.034,-0.047,1.054,0.840,-2.380
1743910005.278701,-77434308169177307310877525791473664.000,-0.034,-0.049,1.052,0.840,-2.520
1743910005.298701,-77533071025511494949208977922064384.000,-0.033,-0.049,1.053,0.770,-2.450
1743910005.312627,-77632433044824696711593481228779520.000,-0.034,-0.049,1.055,0.700,-2.380
1743910005.332627,-77718484732835502065262269151838208.000,-0.033,-0.049,1.050,0.910,-2.520
1743910005.352627,-77825843844802487384222620801040384.000,-0.034,-0.050,1.052,0.770,-2.380
1743910005.372627,-77929122706399988089796904936800256.000,-0.033,-0.049,1.053,0.840,-2.310
1743910005.392627,-78004503351272153465496062409048064.000,-0.034,-0.048,1.054,0.910,-2.380
1743910005.416472,-78117665926143308647185141152612352.000,-0.034,-0.047,1.051,0.770,-2.450
1743910005.436472,-78222162920739466166949926026608640.000,-0.034,-0.048,1.052,0.910,-2.380
1743910005.456472,-78316058196839183690040474800750592.000,-0.035,-0.048,1.053,0.910,-2.380
1743910005.476472,-78402273292935174713905549408206848.000,-0.035,-0.048,1.054,0.770,-2.450
1743910005.496472,-78523690451988284811267655512096768.000,-0.033,-0.046,1.053,0.840,-2.380
1743910005.520816,-78623488226195315027508923310538752.000,-0.034,-0.045,1.050,0.770,-2.450
1743910005.540816,-78716804146356646992630819294543872.000,-0.033,-0.049,1.052,0.840,-2.520
1743910005.560816,-78820573232209704708793963483496448.000,-0.033,-0.050,1.051,0.910,-2.450
1743910005.580816,-78919687663515049395123486965366784.000,-0.034,-0.049,1.051,0.840,-2.380
1743910005.600816,-79018747625458665524720914885771264.000,-0.034,-0.047,1.051,0.840,-2.380
1743910005.610846,-79118010609568724456683426262548480.000,-0.032,-0.047,1.051,0.770,-2.310
1743910005.630846,-79218001502421883192247578324369408.000,-0.034,-0.048,1.052,0.840,-2.310
1743910005.650846,-79311183725058972336299785202958336.000,-0.034,-0.047,1.051,0.770,-2.380
1743910005.670846,-79414962714432344335505128584904704.000,-0.033,-0.048,1.049,0.910,-2.520
1743910005.690846,-79509130337340704642256155166375936.000,-0.033,-0.048,1.053,0.770,-2.450
1743910005.712763,-79588487245619054659398288625631232.000,-0.034,-0.047,1.055,0.840,-2.380
1743910005.732763,-79687631387485342194854409686482944.000,-0.032,-0.046,1.051,0.770,-2.450
1743910005.752763,-79811044105881780325219653178621952.000,-0.034,-0.047,1.054,0.770,-2.520
1743910005.772763,-79910168440707439294591375853486080.000,-0.034,-0.049,1.052,0.910,-2.380
1743910005.792763,-80008767888956441262726541299679232.000,-0.034,-0.050,1.053,0.840,-2.520
1743910005.820209,-80099588121998573901214240649248768.000,-0.034,-0.047,1.054,0.910,-2.450
1743910005.840209,-80204392125724474195287200506052608.000,-0.033,-0.049,1.052,0.840,-2.450
1743910005.860209,-80303863083761133071135894935699456.000,-0.034,-0.047,1.053,0.770,-2.450
1743910005.880209,-80405374166982534253677623122067456.000,-0.034,-0.048,1.052,0.840,-2.380
1743910005.900209,-80504349949003478977416357902024704.000,-0.034,-0.046,1.049,0.770,-2.450
1743910005.922812,-80603523801430709361999076541857792.000,-0.032,-0.047,1.052,0.840,-2.380
1743910005.942812,-80703351286198682427366941919281152.000,-0.034,-0.049,1.053,0.700,-2.380
1743910005.962812,-80801158452822541752126171925970944.000,-0.034,-0.048,1.053,0.980,-2.450
1743910005.982812,-80875930031195378720730079029100544.000,-0.034,-0.048,1.052,0.840,-2.380
1743910006.002812,-80999550723518416794981505574109184.000,-0.034,-0.049,1.053,0.840,-2.450
1743910006.029374,-81093995644995577026914109559406592.000,-0.034,-0.045,1.053,0.770,-2.380
1743910006.049374,-81197294313633706298572792081154048.000,-0.035,-0.048,1.053,0.840,-2.450
1743910006.069374,-81287946186830496125343105149829120.000,-0.035,-0.047,1.054,0.840,-2.450
1743910006.089374,-81393052247925982052203140392943616.000,-0.033,-0.048,1.053,0.910,-2.450
1743910006.109374,-81477846188856873459512630805790720.000,-0.034,-0.047,1.053,0.910,-2.380
1743910006.135032,-81571919728322248077362765053820928.000,-0.034,-0.047,1.051,0.770,-2.450
1743910006.155032,-81668310691541164927087510462398464.000,-0.032,-0.050,1.053,0.980,-2.450
1743910006.175032,-81767246859480852518657448470380544.000,-0.036,-0.049,1.051,0.770,-2.380
1743910006.195032,-81890822985962476319218978646917120.000,-0.036,-0.048,1.053,0.840,-2.450
1743910006.215032,-81989595745816978240592629970501632.000,-0.035,-0.051,1.052,0.910,-2.450
1743910006.210626,-82088551720797294398246966364471296.000,-0.036,-0.049,1.053,0.770,-2.450
1743910006.230626,-82179218449274555649580578222637056.000,-0.035,-0.048,1.051,0.910,-2.450
1743910006.250626,-82265483062972118088656648795062272.000,-0.034,-0.048,1.053,0.840,-2.450
1743910006.270626,-82361537306500349314946621641850880.000,-0.033,-0.049,1.052,0.840,-2.450
1743910006.290626,-82460919132854179643415523334553600.000,-0.035,-0.050,1.054,0.840,-2.450
1743910006.313788,-82559563146944595885240585149218816.000,-0.034,-0.048,1.052,0.840,-2.380
1743910006.333788,-82658697385290569137654507017076736.000,-0.034,-0.047,1.052,0.770,-2.380
1743910006.353788,-82772568061864195556860828059697152.000,-0.035,-0.048,1.052,0.840,-2.450
1743910006.373788,-82880996754025123444378692552228864.000,-0.034,-0.051,1.051,0.770,-2.380
1743910006.393788,-82979853693802296771611037016260608.000,-0.033,-0.047,1.055,0.910,-2.380
1743910006.405470,-83082800787469268995271648186728448.000,-0.035,-0.049,1.053,0.980,-2.520
1743910006.425470,-83269898093246704228498802225446912.000,-0.035,-0.050,1.054,0.840,-2.380
1743910006.445470,-83473108426575477971384043265064960.000,-0.036,-0.047,1.052,0.910,-2.380
1743910006.465470,-83656759307283542705925878141943808.000,-0.033,-0.047,1.050,0.840,-2.450
1743910006.485470,-83850224576623061935287113275670528.000,-0.034,-0.048,1.053,0.910,-2.450
1743910006.512251,-84038559822439782548789166438612992.000,-0.032,-0.047,1.053,0.840,-2.310
1743910006.532251,-84269569337290748791127542211805184.000,-0.033,-0.046,1.051,0.770,-2.450
1743910006.552251,-84462509720053611019252220116860928.000,-0.035,-0.047,1.053,0.840,-2.380
1743910006.572251,-84666027062512127536445636139286528.000,-0.032,-0.048,1.054,0.840,-2.520
1743910006.592251,-84864186600480616927809288752070656.000,-0.034,-0.047,1.054,0.700,-2.310
1743910006.628973,-85053413163125623015109269284454400.000,-0.034,-0.047,1.051,0.910,-2.380
1743910006.648973,-85260396737694138597072402854707200.000,-0.035,-0.048,1.052,0.910,-2.450
1743910006.668973,-85458665214386085101900246590423040.000,-0.034,-0.049,1.052,0.770,-2.450
1743910006.688973,-85656626681948288832419915343331328.000,-0.033,-0.048,1.055,0.770,-2.450
1743910006.708973,-85853825578446292768690246235717632.000,-0.034,-0.048,1.051,0.910,-2.520
1743910006.719887,-86003923332329566556261215249629184.000,-0.032,-0.047,1.053,0.770,-2.450
1743910006.739887,-86201993738615227400245075125469184.000,-0.034,-0.048,1.052,0.980,-2.450
1743910006.759887,-86399955206177431130764743878377472.000,-0.033,-0.047,1.054,0.910,-2.380
1743910006.779887,-86647028230978164467550210687500288.000,-0.033,-0.048,1.052,0.840,-2.450
1743910006.799887,-86844979795020053915027680247414784.000,-0.033,-0.048,1.052,0.840,-2.450
1743910006.822685,-87035117481533974042209986535227392.000,-0.034,-0.048,1.054,0.840,-2.450
1743910006.842685,-87203526844478357174807263394660352.000,-0.034,-0.049,1.050,0.840,-2.310
1743910006.862685,-87404805991345845724463661800488960.000,-0.031,-0.047,1.054,0.840,-2.380
1743910006.882685,-87602361414575163850253163640651776.000,-0.035,-0.047,1.051,0.840,-2.380
1743910006.902685,-87800055487088881938633454182727680.000,-0.033,-0.045,1.053,0.840,-2.380
1743910006.915887,-87998858753877799727740054340108288.000,-0.034,-0.048,1.051,0.840,-2.310
1743910006.935887,-88187827824994634455942855854653440.000,-0.034,-0.048,1.052,0.770,-2.380
1743910006.955887,-88419580103869171926446171102380032.000,-0.034,-0.047,1.053,0.770,-2.450
1743910006.975887,-88627534223428487246544825586024448.000,-0.034,-0.047,1.052,0.840,-2.450
1743910006.995887,-88825258006503148184051713707081728.000,-0.034,-0.049,1.053,0.840,-2.380
1743910007.020958,-89014187463538725780085718449651712.000,-0.034,-0.050,1.052,0.700,-2.450
1743910007.040958,-89217774130639442278574528823033856.000,-0.034,-0.049,1.051,0.910,-2.380
1743910007.060958,-89419855462652387754649061861359616.000,-0.033,-0.047,1.052,0.770,-2.380
1743910007.080958,-89617816930214591485168730614267904.000,-0.033,-0.048,1.053,0.770,-2.310
1743910007.100958,-89815907143540880895236988876095488.000,-0.035,-0.049,1.051,0.840,-2.450
1743910007.108564,-90016116710214426876335874438594560.000,-0.034,-0.049,1.052,0.910,-2.450
1743910007.128564,-90213731554565630700378571436720128.000,-0.035,-0.047,1.052,0.910,-2.380
1743910007.148564,-90390529199216211569718564761894912.000,-0.034,-0.049,1.055,0.840,-2.380
1743910007.168564,-90583667652385359458687226526826496.000,-0.034,-0.048,1.054,0.770,-2.450
1743910007.188564,-90759118418273197834288129604845568.000,-0.036,-0.047,1.052,0.910,-2.520
1743910007.215943,-90985364339852993933328693548023808.000,-0.036,-0.048,1.052,0.770,-2.450
1743910007.235943,-91201478960151278480199483058552832.000,-0.033,-0.051,1.051,0.840,-2.380
1743910007.255943,-91402867045742224143320072587313152.000,-0.033,-0.050,1.053,0.840,-2.520
1743910007.275943,-91599848064793313852662021233836032.000,-0.036,-0.050,1.053,0.770,-2.450
1743910007.295943,-91796482460633403655526998125576192.000,-0.034,-0.049,1.052,0.840,-2.380
1743910007.321631,-91947748829913762842077471912755200.000,-0.034,-0.048,1.053,0.840,-2.450
1743910007.341631,-92150523408348708131105948460646400.000,-0.035,-0.048,1.053,0.770,-2.450
1743910007.361631,-92341948552503485053774149837651968.000,-0.032,-0.048,1.051,0.840,-2.520
1743910007.381631,-92589160226588618353150405348687872.000,-0.033,-0.048,1.053,0.910,-2.450
1743910007.401631,-92787111790630507800627874908602368.000,-0.033,-0.047,1.054,0.770,-2.380
1743910007.425435,-92985469399005282852835511381262336.000,-0.034,-0.047,1.053,0.910,-2.450
1743910007.445435,-93145668743609125343449657248841728.000,-0.034,-0.048,1.052,0.840,-2.450
1743910007.465435,-93336955238479502303527069923934208.000,-0.033,-0.049,1.055,0.840,-2.450
1743910007.485435,-93560220200444699206865676775981056.000,-0.033,-0.049,1.052,0.840,-2.380
1743910007.505435,-93728599852828139490336356056432640.000,-0.033,-0.050,1.053,0.910,-2.520
1743910007.515870,-93940119239700596705626720017842176.000,-0.033,-0.048,1.053,0.840,-2.310
1743910007.535870,-94138754146644171683015933894328320.000,-0.035,-0.047,1.054,0.770,-2.450
1743910007.555870,-94327713314240692128176536215879680.000,-0.034,-0.049,1.051,0.910,-2.520
1743910007.575870,-94569666219038941132145020247212032.000,-0.035,-0.045,1.054,0.770,-2.450
1743910007.595870,-94767399905633916352694107561263104.000,-0.032,-0.047,1.052,0.840,-2.450
1743910007.604957,-94956309555628865382643713917845504.000,-0.034,-0.046,1.052,0.770,-2.380
1743910007.624957,-95159113844624753520798788044718080.000,-0.035,-0.049,1.055,0.910,-2.380
1743910007.644957,-95362106300506613036755646838472704.000,-0.033,-0.048,1.055,0.840,-2.450
1743910007.664957,-95551303152590676274929029791875072.000,-0.033,-0.049,1.052,0.840,-2.380
1743910007.684957,-95738370747807168659029586251612160.000,-0.033,-0.047,1.053,0.770,-2.450
1743910007.708944,-95951821321140911067548792846811136.000,-0.034,-0.046,1.052,0.840,-2.450
1743910007.728944,-96130530345212148564033230419787776.000,-0.034,-0.048,1.053,0.910,-2.380
1743910007.748944,-96318697231183526365817897301835776.000,-0.031,-0.049,1.049,0.770,-2.380
1743910007.768944,-96515272205901730470429679035613184.000,-0.034,-0.047,1.051,0.840,-2.380
1743910007.788944,-96748232714254610472081295828582400.000,-0.034,-0.049,1.054,0.840,-2.310
1743910007.815135,-96946233795898071334769761353465856.000,-0.035,-0.049,1.056,0.770,-2.520
1743910007.835135,-97144660728915046368272792177082368.000,-0.035,-0.049,1.052,0.770,-2.450
1743910007.855135,-97344226566768163951628730194984960.000,-0.034,-0.047,1.050,0.770,-2.310
1743910007.875135,-97540147909145625375455365191172096.000,-0.035,-0.051,1.055,0.840,-2.520
1743910007.895135,-97738693684406371805464786330714112.000,-0.033,-0.048,1.052,0.840,-2.450
1743910007.902698,-97939289488372174825209440419971072.000,-0.035,-0.049,1.052,0.840,-2.450
1743910007.922698,-98125832197012010208073439651037184.000,-0.032,-0.046,1.054,0.770,-2.380
1743910007.942698,-98313979275942759443773708147097600.000,-0.034,-0.048,1.053,0.840,-2.450
1743910007.962698,-98483874166934285032700863955599360.000,-0.035,-0.048,1.054,0.840,-2.380
1743910007.982698,-98684044119526573881630952746123264.000,-0.036,-0.049,1.052,0.840,-2.520
1743910008.007953,-98878252152889664339157127354384384.000,-0.033,-0.047,1.052,0.840,-2.450
1743910008.027953,-99125166721365369147267407075606528.000,-0.033,-0.048,1.052,0.910,-2.450
1743910008.047953,-99304380824972635078904003491266560.000,-0.035,-0.048,1.050,0.770,-2.380
1743910008.067953,-99477038798131845636604734145036288.000,-0.035,-0.047,1.052,0.770,-2.380
1743910008.087953,-99718912474767580376235624632418304.000,-0.033,-0.048,1.051,0.840,-2.450
1743910008.127324,-99916844231768841257628695806345216.000,-0.035,-0.048,1.054,0.770,-2.450
1743910008.147324,-100115310778867073423300523401936896.000,-0.034,-0.048,1.054,0.700,-2.380
1743910008.167324,-100264913356734633058761532766158848.000,-0.035,-0.049,1.052,0.910,-2.450
1743910008.187324,-100496685442649799095349246399873024.000,-0.033,-0.048,1.052,0.770,-2.450
1743910008.207324,-100676394722272779179095802465222656.000,-0.034,-0.048,1.052,0.840,-2.380
1743910008.217870,-100888973785818864679901480076967936.000,-0.034,-0.049,1.051,0.770,-2.380
1743910008.237870,-101105415222287520567164842956292096.000,-0.032,-0.048,1.053,0.770,-2.450
1743910008.257870,-101289165138198728132128669763108864.000,-0.034,-0.047,1.053,0.770,-2.450
1743910008.277870,-101502189860158956369833311059574784.000,-0.034,-0.047,1.054,0.840,-2.450
1743910008.297870,-101700161231241474383395179005476864.000,-0.034,-0.050,1.053,0.770,-2.310
1743910008.310788,-101898736717063163662531197724000256.000,-0.034,-0.049,1.054,0.770,-2.450
1743910008.330788,-102048794856865180317933369965936640.000,-0.035,-0.047,1.053,0.840,-2.310
1743910008.350788,-102293906984643685612363396562288640.000,-0.034,-0.047,1.052,0.840,-2.380
1743910008.370788,-102492601312709146288005805596737536.000,-0.036,-0.048,1.051,0.840,-2.380
1743910008.390788,-102690562780271350018525474349645824.000,-0.036,-0.048,1.053,0.770,-2.520
1743910008.441080,-102878798990884927801605535582650368.000,-0.034,-0.045,1.051,0.770,-2.520
1743910008.461080,-103051912525978595379247429114134528.000,-0.034,-0.049,1.053,0.770,-2.380
1743910008.481080,-103236325977750859908038601851535360.000,-0.034,-0.048,1.053,0.840,-2.450
1743910008.501080,-103463690997126169990847674603012096.000,-0.034,-0.048,1.052,0.840,-2.450
1743910008.521080,-103635645820343066452552262554222592.000,-0.034,-0.049,1.051,0.840,-2.450
1743910008.505561,-103854008539752693250002268874342400.000,-0.034,-0.048,1.054,0.770,-2.450
1743910008.525561,-104052494893891553981758494855921664.000,-0.035,-0.048,1.052,0.980,-2.450
1743910008.545561,-104229847135679734701461642988748800.000,-0.034,-0.048,1.053,0.700,-2.380
1743910008.565561,-104424768222505453538026159492562944.000,-0.035,-0.048,1.052,0.770,-2.380
1743910008.585561,-104622135478848800286013876665843712.000,-0.035,-0.048,1.055,0.840,-2.450
1743910008.640553,-104869129275487019358461749931016192.000,-0.035,-0.048,1.050,0.840,-2.450
1743910008.660553,-105058227092367939766213140954480640.000,-0.034,-0.049,1.051,0.770,-2.380
1743910008.680553,-105230647381039607530901090976399360.000,-0.033,-0.047,1.052,0.910,-2.450
1743910008.700553,-105454268869736118623758868776222720.000,-0.033,-0.048,1.051,0.770,-2.310
1743910008.720553,-105636543161120498015435015826964480.000,-0.033,-0.048,1.052,0.770,-2.450
1743910008.712191,-105834762120210873105051863597711360.000,-0.034,-0.049,1.051,0.840,-2.450
1743910008.732191,-106024236270863736268406823954939904.000,-0.032,-0.051,1.052,0.910,-2.380
1743910008.752191,-106255225978674073944660801342144512.000,-0.035,-0.050,1.052,0.770,-2.380
1743910008.772191,-106453197349756591958222669288046592.000,-0.033,-0.047,1.053,0.840,-2.450
1743910008.792191,-106602948480428865839316666547175424.000,-0.034,-0.045,1.052,0.770,-2.380
1743910008.803877,-106851922981129941520204378411106304.000,-0.034,-0.048,1.052,0.840,-2.450
1743910008.823877,-107047319436930745942794456178622464.000,-0.034,-0.050,1.054,0.770,-2.450
1743910008.843877,-107197100278163962673015051016732672.000,-0.032,-0.049,1.054,0.770,-2.380
1743910008.863877,-107404777099154478067932128096550912.000,-0.035,-0.050,1.052,0.770,-2.520
1743910008.883877,-107606947562850252091386453871820800.000,-0.035,-0.047,1.054,0.840,-2.380
1743910008.907881,-107791242172378745223671236293296128.000,-0.034,-0.048,1.050,0.770,-2.310
1743910008.927881,-107989708719476977389343063888887808.000,-0.031,-0.047,1.055,0.840,-2.450
1743910008.947881,-108235890427449425252330603328569344.000,-0.034,-0.046,1.052,0.770,-2.520
1743910008.967881,-108415461057788005373486370692005888.000,-0.034,-0.050,1.053,0.840,-2.450
1743910008.987881,-108613085805659523480571266883125248.000,-0.033,-0.047,1.054,0.770,-2.520
1743910009.030819,-108830646339923693351603138570747904.000,-0.034,-0.047,1.052,0.840,-2.450
1743910009.050819,-109028568193404639949954010551681024.000,-0.035,-0.049,1.053,0.910,-2.450
1743910009.070819,-109178923438816085096622158583431168.000,-0.034,-0.049,1.052,0.910,-2.450
1743910009.090819,-109375993589550003353343899966898176.000,-0.034,-0.049,1.052,0.770,-2.450
1743910009.110819,-109622789315781936764947789372194816.000,-0.034,-0.049,1.053,0.840,-2.520
1743910009.122004,-109804083158655202135446216316551168.000,-0.034,-0.048,1.054,0.770,-2.450
1743910009.142004,-109974433611581184744314535002767360.000,-0.034,-0.049,1.054,0.840,-2.310
1743910009.162004,-110217277833207719222080946403540992.000,-0.034,-0.048,1.052,0.840,-2.450
1743910009.182004,-110415239300769922952600615156449280.000,-0.035,-0.048,1.052,0.910,-2.450
1743910009.202004,-110613200768332126683120283909357568.000,-0.034,-0.048,1.053,0.700,-2.450
1743910009.208756,-110811954517519473057015888101769216.000,-0.034,-0.045,1.052,0.770,-2.450
1743910009.228756,-111008836501367419935935844818354176.000,-0.034,-0.049,1.052,0.840,-2.310
1743910009.248756,-111206946521734337912088501466169344.000,-0.033,-0.049,1.051,0.840,-2.380
1743910009.268756,-111405353647710684379507133903798272.000,-0.034,-0.052,1.051,0.840,-2.450
1743910009.288756,-111560046635019785498658528466829312.000,-0.034,-0.048,1.052,0.840,-2.450
1743910009.315198,-111801128030030377594913483514707968.000,-0.033,-0.049,1.054,0.840,-2.310
1743910009.335198,-111990592277162926475226244678942720.000,-0.034,-0.046,1.052,0.840,-2.450
1743910009.355198,-112154168722193939483230315357405184.000,-0.033,-0.050,1.053,0.910,-2.450
1743910009.375198,-112396042398829674222861205844787200.000,-0.033,-0.049,1.052,0.840,-2.450
1743910009.395198,-112593825603026220858621289123807232.000,-0.033,-0.048,1.054,0.770,-2.450
1743910009.419778,-112791549386100881796128177244864512.000,-0.033,-0.049,1.054,0.770,-2.520
1743910009.439778,-112989500950142771243605646804779008.000,-0.034,-0.048,1.054,0.840,-2.450
1743910009.459778,-113188017014842574824488470365339648.000,-0.034,-0.048,1.052,0.770,-2.450
1743910009.479778,-113337946408880505800342053098356736.000,-0.033,-0.050,1.054,0.910,-2.450
1743910009.499778,-113583910239406039436401210292174848.000,-0.033,-0.048,1.056,0.910,-2.380
1743910009.512344,-113782149005537043092102456448909312.000,-0.032,-0.048,1.055,0.770,-2.450
1743910009.532344,-113980189701261761086959718745767936.000,-0.034,-0.047,1.051,0.910,-2.380
1743910009.552344,-114178002616019250571846399603769344.000,-0.034,-0.047,1.051,0.840,-2.450
1743910009.572344,-114376578101840939850982418322292736.000,-0.034,-0.049,1.056,0.770,-2.450
1743910009.592344,-114574093910989000844603123390480384.000,-0.035,-0.048,1.051,0.840,-2.450
1743910009.615845,-114772194027835604537713580845301760.000,-0.034,-0.047,1.051,0.980,-2.380
1743910009.635845,-114969997039072779739558062510309376.000,-0.034,-0.048,1.054,0.840,-2.450
1743910009.655845,-115168275419285040527428105439019008.000,-0.034,-0.051,1.052,0.840,-2.450
1743910009.675845,-115362077408315245380224113134534656.000,-0.034,-0.049,1.053,0.840,-2.450
1743910009.695845,-115560860868063534603246314905927680.000,-0.035,-0.049,1.054,0.840,-2.450
1743910009.719141,-115716078741949292723634266697629696.000,-0.035,-0.048,1.053,0.910,-2.450
1743910009.739141,-115912307093456496921769076676624384.000,-0.033,-0.048,1.054,0.910,-2.310
1743910009.759141,-116158914652802458955571181415038976.000,-0.034,-0.051,1.052,0.840,-2.380
1743910009.779141,-116359381711004176295767245995376640.000,-0.035,-0.050,1.052,0.910,-2.450
1743910009.799141,-116555114886495666341792096324681728.000,-0.034,-0.050,1.056,0.840,-2.520
1743910009.821551,-116753125871659441487522761042558976.000,-0.033,-0.047,1.053,0.910,-2.450
1743910009.841551,-116946432684673932188208809088385024.000,-0.033,-0.047,1.053,0.770,-2.450
1743910009.861551,-117105879361733889167615816288436224.000,-0.035,-0.047,1.052,0.910,-2.380
1743910009.881551,-117298621674090465734896510333616128.000,-0.034,-0.049,1.053,0.840,-2.520
1743910009.901551,-117545526339045856259964590861844480.000,-0.034,-0.048,1.053,0.770,-2.450
1743910009.916498,-117743497710128374273526458807746560.000,-0.034,-0.045,1.053,0.840,-2.520
1743910009.936498,-117941548309373406551425920297598976.000,-0.034,-0.047,1.053,0.770,-2.380
1743910009.956498,-118123159064896728979274721417756672.000,-0.036,-0.050,1.051,0.840,-2.450
1743910009.976498,-118303452652218251762511029869740032.000,-0.034,-0.049,1.052,0.770,-2.450
1743910009.996498,-118500790198000655661372149464039424.000,-0.035,-0.048,1.051,0.840,-2.380
1743910010.020069,-118700435264016287509065681025892352.000,-0.035,-0.048,1.055,0.840,-2.310
1743910010.040069,-118889671730181607879407860751269888.000,-0.035,-0.048,1.053,0.910,-2.380
1743910010.060069,-119081384076425499010299838725095424.000,-0.034,-0.049,1.049,0.840,-2.380
1743910010.080069,-119280108115051902535068845338525696.000,-0.034,-0.050,1.054,0.910,-2.450
1743910010.100069,-119526240305422778982845388813238272.000,-0.033,-0.047,1.052,0.840,-2.450
1743910010.124881,-119725102993333582470205184128581632.000,-0.034,-0.049,1.051,0.700,-2.450
1743910010.144881,-119921757196214300839154559406309376.000,-0.033,-0.049,1.053,0.840,-2.450
1743910010.164881,-120119936541223418796602610405081088.000,-0.034,-0.046,1.052,0.700,-2.450
1743910010.184881,-120318512027045108075738629123604480.000,-0.033,-0.048,1.054,0.700,-2.450
1743910010.204881,-120491724597341918483802514585026560.000,-0.034,-0.051,1.052,0.770,-2.450
1743910010.215665,-120681079905751010250651084626329600.000,-0.035,-0.048,1.054,0.770,-2.380
1743910010.235665,-120877555845266071524840874430169088.000,-0.033,-0.048,1.052,0.840,-2.520
1743910010.255665,-121076151138128389370061291534680064.000,-0.035,-0.047,1.054,0.840,-2.380
1743910010.275665,-121274181930332793081876354638544896.000,-0.033,-0.050,1.054,0.700,-2.520
1743910010.295665,-121463487721140313433513928714878976.000,-0.034,-0.047,1.053,0.840,-2.380
1743910010.303126,-121658062184755032363601473463910400.000,-0.035,-0.049,1.052,0.770,-2.310
1743910010.323126,-121878573968072858581208704663683072.000,-0.035,-0.047,1.052,0.770,-2.380
1743910010.343126,-122075901610334948197027625064988672.000,-0.033,-0.048,1.052,0.840,-2.450
1743910010.363126,-122255620793478242563816380323332096.000,-0.034,-0.048,1.052,0.770,-2.450
1743910010.383126,-122492691262761550027980662208724992.000,-0.035,-0.049,1.054,0.700,-2.450
1743910010.410468,-122670122732712245012021403885502464.000,-0.032,-0.050,1.054,0.840,-2.380
1743910010.430468,-122844820831056197876415168295993344.000,-0.035,-0.049,1.054,0.980,-2.450
1743910010.450468,-123076523592329163931707487578750976.000,-0.033,-0.047,1.054,0.910,-2.450
1743910010.470468,-123264333951569227543972983513022464.000,-0.034,-0.048,1.052,0.840,-2.380
1743910010.490468,-123487133448079653144328228294361088.000,-0.034,-0.049,1.053,0.910,-2.450
1743910010.513684,-123680915630069229431039837603889152.000,-0.035,-0.047,1.054,0.840,-2.450
1743910010.533684,-123883343585293174813591342396997632.000,-0.034,-0.047,1.053,0.770,-2.450
1743910010.553684,-124064677042247697316258566113329152.000,-0.034,-0.045,1.053,0.840,-2.380
1743910010.573684,-124274849550357412037809839827582976.000,-0.034,-0.048,1.052,0.770,-2.450
1743910010.593684,-124444813765991137608032389987041280.000,-0.033,-0.049,1.052,0.840,-2.450
1743910010.616992,-124669831651051962609840253998989312.000,-0.036,-0.046,1.051,0.770,-2.450
1743910010.636992,-124839805770206002463105003351441408.000,-0.035,-0.048,1.055,0.840,-2.380
1743910010.656992,-125037390903996263438021102770585600.000,-0.034,-0.047,1.053,0.840,-2.450
1743910010.676992,-125226062869503669674957928495316992.000,-0.033,-0.050,1.052,0.630,-2.380
1743910010.696992,-125424876039812901747106727845691392.000,-0.035,-0.049,1.052,0.770,-2.450
1743910010.708917,-125617341053600678389205844487045120.000,-0.035,-0.048,1.052,0.910,-2.380
1743910010.728917,-125849479569767472898354928261529600.000,-0.034,-0.050,1.053,0.840,-2.380
1743910010.748917,-126038151535274879135291753986260992.000,-0.033,-0.049,1.053,0.910,-2.310
1743910010.768917,-126236063485235511450600426774200320.000,-0.034,-0.047,1.053,0.770,-2.380
1743910010.788917,-126433410934538229632503745561493504.000,-0.033,-0.049,1.054,0.700,-2.520
1743910010.813405,-126632323140050604535074536841805824.000,-0.033,-0.049,1.050,0.910,-2.450
1743910010.833405,-126811190620446870560234161502683136.000,-0.033,-0.047,1.053,0.840,-2.380
1743910010.853405,-127008617297912103006475073833926656.000,-0.033,-0.051,1.052,0.840,-2.310
1743910010.873405,-127235635694076413182807174830620672.000,-0.036,-0.050,1.054,0.770,-2.380
1743910010.893405,-127434369636223130990618380637044736.000,-0.034,-0.049,1.053,0.770,-2.520
1743910010.933278,-127649672167855644328028836322082816.000,-0.035,-0.049,1.053,0.770,-2.380
1743910010.953278,-127826133092815539573934057085468672.000,-0.035,-0.047,1.054,0.910,-2.450
1743910010.973278,-128042643853926395442492814315749376.000,-0.032,-0.048,1.054,0.770,-2.450
1743910010.993278,-128232028872896430058467981936033792.000,-0.035,-0.049,1.053,0.840,-2.450
1743910011.013278,-128439586851643174056878668699926528.000,-0.034,-0.048,1.052,0.840,-2.450
1743910011.008652,-128613928423255812731753262162640896.000,-0.034,-0.048,1.051,0.840,-2.450
1743910011.028652,-128786873598504137497677769413230592.000,-0.035,-0.050,1.052,0.840,-2.380
1743910011.048652,-129033609903614185211028463660564480.000,-0.034,-0.047,1.054,0.770,-2.450
1743910011.068652,-129231571371176388941548132413472768.000,-0.034,-0.046,1.052,0.840,-2.450
1743910011.088652,-129429186215527592765590829411598336.000,-0.034,-0.047,1.053,0.700,-2.380
1743910011.114928,-129627365560536710723038880410370048.000,-0.034,-0.049,1.052,0.770,-2.450
1743910011.134928,-129825168571773885924883362075377664.000,-0.035,-0.046,1.054,0.840,-2.380
1743910011.154928,-129975276229177473995496530282283008.000,-0.033,-0.047,1.054,0.770,-2.380
1743910011.174928,-130207018604531697182957646337015808.000,-0.034,-0.049,1.056,0.840,-2.450
1743910011.194928,-130376586679352851431492228776722432.000,-0.033,-0.047,1.055,0.770,-2.450
1743910011.220092,-130571240371130084625917367069704192.000,-0.033,-0.047,1.053,0.770,-2.450
1743910011.240092,-130816302981307018505136397701087232.000,-0.033,-0.048,1.052,0.770,-2.450
1743910011.260092,-131014274352389536518698265646989312.000,-0.034,-0.046,1.053,0.910,-2.450
1743910011.280092,-131212027846025140305331751347027968.000,-0.032,-0.047,1.054,0.840,-2.450
1743910011.300092,-131410355743838972508412790240706560.000,-0.033,-0.047,1.052,0.840,-2.450
1743910011.308610,-131575328585234299425366947131293696.000,-0.034,-0.048,1.052,0.770,-2.450
1743910011.328610,-131762633864938334602480284222881792.000,-0.034,-0.048,1.051,0.910,-2.450
1743910011.348610,-132004537252135012191237772289245184.000,-0.033,-0.046,1.054,0.770,-2.380
1743910011.368610,-132202924571070730092572006340886528.000,-0.034,-0.047,1.053,0.840,-2.520
1743910011.388610,-132403193558866161771924087061348352.000,-0.035,-0.047,1.052,0.770,-2.380
1743910011.412911,-132589072731644940190960740361830400.000,-0.033,-0.047,1.051,0.840,-2.450
1743910011.432911,-132772406699702947868152201062907904.000,-0.035,-0.049,1.054,0.840,-2.380
1743910011.452911,-132959761497008554460476534119464960.000,-0.034,-0.048,1.052,0.840,-2.450
1743910011.472911,-133193048821531805802520724281229312.000,-0.034,-0.050,1.053,0.770,-2.520
1743910011.492911,-133390534920118923947014831770435584.000,-0.034,-0.049,1.051,0.840,-2.450
1743910011.520410,-133572383360129789167876413522444288.000,-0.035,-0.047,1.052,0.840,-2.310
1743910011.540410,-133783298632263075117592626711232512.000,-0.033,-0.049,1.054,0.910,-2.450
1743910011.560410,-133980725309728307563833539042476032.000,-0.034,-0.048,1.053,0.910,-2.380
1743910011.580410,-134183252300155395776807035765522432.000,-0.034,-0.048,1.054,0.840,-2.520
1743910011.600410,-134381411838123885168170688378306560.000,-0.034,-0.051,1.050,0.840,-2.450
1743910011.608657,-134580383464758145768994674816581632.000,-0.035,-0.048,1.054,0.770,-2.520
1743910011.628657,-134770263659743894537079802086555648.000,-0.034,-0.048,1.055,0.770,-2.380
1743910011.648657,-134970265252490840574292504596185088.000,-0.035,-0.051,1.052,0.770,-2.450
1743910011.668657,-135169137843921958344694499104522240.000,-0.033,-0.045,1.053,0.770,-2.380
1743910011.688657,-135366792302354419300905992874622976.000,-0.033,-0.048,1.052,0.910,-2.450
1743910011.713147,-135564357629104051709737693907779584.000,-0.033,-0.047,1.055,0.840,-2.380
1743910011.733147,-135744403628417717416919022534918144.000,-0.034,-0.048,1.053,0.770,-2.520
1743910011.753147,-135965569044076286315311400472281088.000,-0.035,-0.050,1.053,0.840,-2.380
1743910011.773147,-136163520608118175762788870032195584.000,-0.034,-0.048,1.054,0.910,-2.520
1743910011.793147,-136362234743224265004515677452632064.000,-0.034,-0.048,1.054,0.840,-2.450
1743910011.818472,-136543102734724016204199539098255360.000,-0.034,-0.048,1.052,0.910,-2.450
1743910011.838472,-136715750804362912478858070559031296.000,-0.036,-0.047,1.054,0.770,-2.450
1743910011.858472,-136911840506585716714402091836112896.000,-0.035,-0.049,1.053,0.840,-2.450
1743910011.878472,-137135135179111856466867296267141120.000,-0.035,-0.047,1.051,0.840,-2.450
1743910011.898472,-137352586774652569224434976831832064.000,-0.035,-0.048,1.050,0.840,-2.450
1743910011.911715,-137541882661939775293030351715172352.000,-0.034,-0.050,1.055,0.770,-2.380
1743910011.931715,-137711411122679672409396137382903808.000,-0.034,-0.049,1.053,0.700,-2.380
1743910011.951715,-137927565357059214088435723665408000.000,-0.035,-0.047,1.053,0.840,-2.520
1743910011.971715,-138144333609698241316091659913527296.000,-0.032,-0.047,1.053,0.910,-2.450
1743910011.991715,-138342295077260445046611328666435584.000,-0.035,-0.048,1.052,0.840,-2.450
1743910012.027860,-138540424904667991588848383700238336.000,-0.034,-0.048,1.052,0.910,-2.380
1743910012.047860,-138738515117994280998916641962065920.000,-0.032,-0.048,1.051,0.980,-2.520
1743910012.067860,-138919848574948803501583865678397440.000,-0.035,-0.049,1.053,0.910,-2.380
1743910012.087860,-139130159732342918185725928094564352.000,-0.035,-0.048,1.054,0.840,-2.450
1743910012.107860,-139288556636249561162659820837273600.000,-0.034,-0.047,1.052,0.910,-2.450
1743910012.121621,-139484329425822308340853467938553856.000,-0.034,-0.048,1.053,0.840,-2.450
1743910012.141621,-139695621031727537046173250461106176.000,-0.033,-0.047,1.054,0.770,-2.520
1743910012.161621,-139878459823769830571254751512494080.000,-0.034,-0.048,1.052,0.910,-2.380
1743910012.181621,-140125414006326792511533828005691392.000,-0.035,-0.048,1.052,0.770,-2.450
1743910012.201621,-140323098175320196316871919354773504.000,-0.035,-0.047,1.054,0.770,-2.380
1743910012.211080,-140522515460368599654594869477769216.000,-0.035,-0.049,1.054,0.840,-2.380
1743910012.231080,-140692459868961696658733021251239936.000,-0.035,-0.050,1.051,0.840,-2.380
1743910012.251080,-140893313164455671037574854358335488.000,-0.035,-0.048,1.053,0.840,-2.380
1743910012.271080,-141091264728497560485052323918249984.000,-0.033,-0.048,1.052,0.910,-2.450
1743910012.291080,-141288572563719021534786845933568000.000,-0.033,-0.048,1.054,0.840,-2.380
1743910012.313846,-141462953749412917341830236168257536.000,-0.034,-0.048,1.053,0.840,-2.380
1743910012.333846,-141661192515543920997531482324992000.000,-0.034,-0.049,1.056,0.840,-2.520
1743910012.353846,-141869206056225122015883331966599168.000,-0.035,-0.048,1.053,0.770,-2.520
1743910012.373846,-142071287388238067491957865004924928.000,-0.035,-0.049,1.054,0.770,-2.380
1743910012.393846,-142269446926206556883321517617709056.000,-0.034,-0.048,1.054,0.910,-2.450
1743910012.405655,-142459020112062562877098469904875520.000,-0.033,-0.047,1.055,0.700,-2.380
1743910012.425655,-142699824208504355048171847548928000.000,-0.034,-0.047,1.051,0.910,-2.450
1743910012.445655,-142897973842952530156493300968718336.000,-0.032,-0.047,1.055,0.910,-2.450
1743910012.465655,-143067215101603313064635310039629824.000,-0.033,-0.049,1.053,0.840,-2.450
1743910012.485655,-143259828668195803952367414575890432.000,-0.034,-0.049,1.053,0.910,-2.380
1743910012.510704,-143457819846318950532013680907780096.000,-0.035,-0.048,1.054,0.910,-2.310
1743910012.530704,-143690532766663973457610317875904512.000,-0.035,-0.047,1.052,0.770,-2.450
1743910012.550704,-143888751725754348547227165646651392.000,-0.032,-0.048,1.053,0.910,-2.380
1743910012.570704,-144086762710918123692957830364528640.000,-0.035,-0.049,1.053,0.840,-2.450
1743910012.590704,-144265570770192504019864259867443200.000,-0.036,-0.048,1.054,0.770,-2.450
1743910012.613686,-144434178203543172813305520586752000.000,-0.033,-0.048,1.054,0.840,-2.380
1743910012.633686,-144680389622076563525419657605414912.000,-0.034,-0.048,1.052,0.910,-2.450
1743910012.653686,-144878549160045052916783310218199040.000,-0.035,-0.049,1.056,0.840,-2.450
1743910012.673686,-145076728505054170874231361216970752.000,-0.035,-0.049,1.053,0.840,-2.450
1743910012.693686,-145275264376794603021198583163518976.000,-0.033,-0.048,1.054,0.910,-2.380
1743910012.734080,-145456370052781897013895225440993280.000,-0.033,-0.047,1.054,0.770,-2.520
1743910012.754080,-145666730727777583113248283822129152.000,-0.032,-0.049,1.053,0.840,-2.380
1743910012.774080,-145824880043676369014127196739993600.000,-0.035,-0.048,1.053,0.700,-2.380
1743910012.794080,-146023703117505915369318195283361792.000,-0.035,-0.051,1.053,0.840,-2.450
1743910012.814080,-146265497565979135844611492226793472.000,-0.034,-0.049,1.056,0.840,-2.450
1743910012.807911,-146454724128624141931911472759177216.000,-0.033,-0.046,1.053,0.770,-2.380
1743910012.827911,-146635552506042635999426537632825344.000,-0.033,-0.046,1.053,0.840,-2.380
1743910012.847911,-146840634604710809237287426148270080.000,-0.033,-0.045,1.053,0.840,-2.450
1743910012.867911,-147057333532707636483647968045432832.000,-0.034,-0.048,1.053,0.770,-2.520
1743910012.887911,-147258028371876582333814614064627712.000,-0.033,-0.049,1.051,0.840,-2.520
1743910012.928322,-147434350647552077617129046126100480.000,-0.033,-0.049,1.052,0.770,-2.450
1743910012.948322,-147642423609355164333734090925670400.000,-0.035,-0.049,1.053,0.840,-2.450
1743910012.968322,-147836433572311969130416281674055680.000,-0.034,-0.049,1.053,0.840,-2.380
1743910012.988322,-148024451905478632686567960661196800.000,-0.036,-0.047,1.052,0.840,-2.380
1743910013.008322,-148221838968862608000640076220465152.000,-0.036,-0.049,1.054,0.840,-2.450
1743910013.031631,-148446926178565632983743334583369728.000,-0.034,-0.048,1.051,0.840,-2.450
1743910013.051631,-148622773085266042681032205381140480.000,-0.032,-0.047,1.054,0.840,-2.450
1743910013.071631,-148791836080551168494414628978163712.000,-0.033,-0.048,1.052,0.770,-2.450
1743910013.091631,-149038621903262787622976319190466560.000,-0.034,-0.049,1.053,0.840,-2.380
1743910013.111631,-149236147615931162899639223451648000.000,-0.035,-0.048,1.055,0.840,-2.520
1743910013.110809,-149416282746927657154200344815730688.000,-0.034,-0.047,1.052,0.840,-2.520
1743910013.130809,-149613521257506918222639472480092160.000,-0.032,-0.047,1.052,0.840,-2.450
1743910013.150809,-149811532242670693368370137197969408.000,-0.033,-0.049,1.052,0.770,-2.520
1743910013.170809,-150028468855155063407743459726983168.000,-0.036,-0.048,1.055,0.840,-2.450
1743910013.190809,-150226767042407952761697901041680384.000,-0.031,-0.048,1.052,0.840,-2.450
1743910013.215824,-150415250841029387620832942099529728.000,-0.034,-0.047,1.051,0.770,-2.450
1743910013.235824,-150599198827346880846640752766222336.000,-0.035,-0.048,1.054,0.770,-2.380
1743910013.255824,-150801884274098997588289436577169408.000,-0.032,-0.049,1.052,0.770,-2.450
1743910013.275824,-150995567420885431044579053956759552.000,-0.034,-0.048,1.053,0.700,-2.380
1743910013.295824,-151192251334327092262655026813468672.000,-0.035,-0.049,1.054,0.910,-2.450
1743910013.320582,-151372069552673529459865774001750016.000,-0.034,-0.048,1.052,0.770,-2.450
1743910013.340582,-151612824131513750215728155680833536.000,-0.035,-0.049,1.054,0.840,-2.380
1743910013.360582,-151811567977180782306581560680251392.000,-0.034,-0.048,1.053,0.910,-2.380
1743910013.380582,-152009321470816386093215046380290048.000,-0.033,-0.048,1.053,0.980,-2.520
1743910013.400582,-152207629561589589730211686887981056.000,-0.034,-0.047,1.053,0.840,-2.450
1743910013.423121,-152405571222111164894646957254901760.000,-0.033,-0.048,1.052,0.840,-2.450
1743910013.443121,-152603542593193682908208825200803840.000,-0.034,-0.049,1.054,0.770,-2.380
1743910013.463121,-152782786407361891688972019195445248.000,-0.035,-0.049,1.051,0.840,-2.450
1743910013.483121,-152999465528318090369248162706620416.000,-0.034,-0.048,1.054,0.840,-2.380
1743910013.503121,-153148929456901250042118383368929280.000,-0.034,-0.046,1.054,0.840,-2.380
1743910013.515066,-153376591581885988616193431910219776.000,-0.033,-0.049,1.053,0.770,-2.520
1743910013.535066,-153570898650452221904141598448418816.000,-0.034,-0.049,1.051,0.840,-2.380
1743910013.555066,-153748577708410773964237319950041088.000,-0.035,-0.048,1.052,0.910,-2.380
1743910013.575066,-153990154279437080212602234647609344.000,-0.033,-0.046,1.054,0.910,-2.590
1743910013.595066,-154188036518836769678784309856567296.000,-0.034,-0.047,1.055,0.770,-2.380
1743910013.620818,-154359545683639523403589934123057152.000,-0.034,-0.047,1.053,0.840,-2.450
1743910013.640818,-154584315980692491329342818310160384.000,-0.033,-0.048,1.054,0.770,-2.380
1743910013.660818,-154773552446857811699684998035537920.000,-0.033,-0.050,1.050,0.770,-2.450
1743910013.680818,-154980724188312298659449916272672768.000,-0.034,-0.050,1.052,0.770,-2.450
1743910013.700818,-155178705462915130956053983411568640.000,-0.034,-0.049,1.052,0.700,-2.450
1743910013.709490,-155343638690229200740839343530180608.000,-0.033,-0.048,1.054,0.840,-2.380
1743910013.729490,-155557574536058343018426310582075392.000,-0.033,-0.049,1.052,0.700,-2.380
1743910013.749490,-155757922752016288962115984846487552.000,-0.034,-0.048,1.053,0.840,-2.310
1743910013.769490,-155957181580739663771163747881582592.000,-0.034,-0.047,1.054,0.840,-2.380
1743910013.789490,-156169107011945006591184278755737600.000,-0.034,-0.050,1.054,0.840,-2.450
1743910013.814221,-156357363029599212940348738374729728.000,-0.034,-0.047,1.053,0.840,-2.380
1743910013.834221,-156530456757652251951906233520226304.000,-0.034,-0.051,1.051,0.910,-2.450
1743910013.854221,-156753999018186248780426417776099328.000,-0.033,-0.047,1.054,0.840,-2.380
1743910013.874221,-156960804329389107267629965872463872.000,-0.033,-0.048,1.055,0.910,-2.380
1743910013.894221,-157140691872377744446136107411701760.000,-0.035,-0.047,1.052,0.910,-2.380
1743910013.902690,-157340465684157461973378228482473984.000,-0.034,-0.049,1.054,0.910,-2.450
1743910013.922690,-157550162823292091108903940933025792.000,-0.035,-0.046,1.052,0.700,-2.380
1743910013.942690,-157753709876311550475223954534432768.000,-0.032,-0.048,1.054,0.770,-2.380
1743910013.962690,-157914523239174878514454450367627264.000,-0.032,-0.049,1.055,0.700,-2.310
1743910013.982690,-158116099491651795555376824563269632.000,-0.034,-0.046,1.053,0.840,-2.450
1743910014.025132,-158299047222417546193922516737589248.000,-0.033,-0.048,1.053,0.770,-2.380
1743910014.045132,-158496889847735978527935795174572032.000,-0.035,-0.049,1.053,0.840,-2.450
1743910014.065132,-158719144650629118560970084341252096.000,-0.035,-0.048,1.053,0.840,-2.450
1743910014.085132,-158893109888469814480241108470202368.000,-0.033,-0.048,1.053,0.770,-2.310
1743910014.105132,-159091873541177475137178911855607808.000,-0.034,-0.046,1.054,0.840,-2.380
1743910014.116123,-159329082659745182563933982442913792.000,-0.034,-0.047,1.050,0.770,-2.450
1743910014.136123,-159536353436402812354120892609986560.000,-0.034,-0.048,1.052,0.840,-2.380
1743910014.156123,-159704634053583109807169579960500224.000,-0.034,-0.049,1.053,0.980,-2.450
1743910014.176123,-159887987828681746050445439047565312.000,-0.034,-0.047,1.053,0.840,-2.450
1743910014.196123,-160081641264907236657608458848174080.000,-0.033,-0.050,1.051,0.840,-2.310
1743910014.218842,-160281652761174496977863360550797312.000,-0.033,-0.048,1.055,0.840,-2.450
1743910014.238842,-160525893379165345364579858163695616.000,-0.035,-0.046,1.053,0.840,-2.380
1743910014.258842,-160675644509837619245673855422824448.000,-0.033,-0.048,1.050,0.770,-2.450
1743910014.278842,-160922351104386724109897952091176960.000,-0.034,-0.049,1.053,0.840,-2.380
1743910014.298842,-161120837458525584841654178072756224.000,-0.034,-0.049,1.053,0.840,-2.520
1743910014.308194,-161300675483912650604949323647025152.000,-0.034,-0.047,1.053,0.770,-2.380
1743910014.328194,-161483147845703315657469454557642752.000,-0.034,-0.046,1.053,0.840,-2.380
1743910014.348194,-161714810992895024580592977068425216.000,-0.035,-0.049,1.053,0.770,-2.450
1743910014.368194,-161903265080955516590601420547293184.000,-0.036,-0.049,1.054,0.840,-2.450
1743910014.388194,-162093818715322636605556092940845056.000,-0.034,-0.049,1.052,0.840,-2.520
1743910014.416398,-162308418097012835846970405923323904.000,-0.036,-0.049,1.051,0.840,-2.380
1743910014.436398,-162487612393579473212522603952996352.000,-0.033,-0.047,1.051,0.770,-2.450
1743910014.456398,-162681652067097220858331392280363008.000,-0.033,-0.049,1.053,0.700,-2.380
1743910014.476398,-162868996960882513167613526143926272.000,-0.035,-0.048,1.052,0.770,-2.380
1743910014.496398,-163057847189755576499309937342545920.000,-0.036,-0.048,1.052,0.770,-2.310
1743910014.532721,-163256175087569408702390976236224512.000,-0.035,-0.050,1.052,0.700,-2.520
1743910014.552721,-163488353217817460343708856782684160.000,-0.033,-0.048,1.056,0.770,-2.380
1743910014.572721,-163695812161361061511697551616638976.000,-0.035,-0.048,1.054,0.700,-2.380
1743910014.592721,-163893773628923265242217220369547264.000,-0.032,-0.048,1.054,0.840,-2.450
1743910014.612721,-164091259727510383386711327858753536.000,-0.034,-0.049,1.053,0.770,-2.450
1743910014.608817,-164289508397161701325454773208481792.000,-0.035,-0.049,1.052,0.910,-2.380
1743910014.628817,-164468653176126767275795975273185280.000,-0.035,-0.049,1.053,0.770,-2.450
1743910014.648817,-164663267253822743338052316794191872.000,-0.034,-0.049,1.053,0.910,-2.380
1743910014.668817,-164835241884080268365841303131389952.000,-0.034,-0.049,1.052,0.840,-2.450
1743910014.688817,-165043087064916126572475766492102656.000,-0.033,-0.048,1.052,0.910,-2.450
1743910014.697571,-165270412470210179523116042471604224.000,-0.035,-0.048,1.054,0.770,-2.380
1743910014.717571,-165429522427579450879088277109866496.000,-0.034,-0.049,1.055,0.910,-2.450
1743910014.737571,-165657075613840732339699134528225280.000,-0.033,-0.046,1.055,0.910,-2.450
1743910014.757571,-165875685921258216213204120673189888.000,-0.033,-0.047,1.053,0.840,-2.380
1743910014.777571,-166023723742916119127997657544392704.000,-0.035,-0.048,1.051,0.770,-2.450
1743910014.834483,-166289831333760904471889973287583744.000,-0.034,-0.047,1.052,0.910,-2.520
1743910014.854483,-166716415567778332231578012302180352.000,-0.033,-0.048,1.053,0.700,-2.450
1743910014.874483,-167090511144130059867610328449679360.000,-0.033,-0.048,1.055,0.840,-2.380
1743910014.894483,-167537536244076167826397501803462656.000,-0.034,-0.048,1.053,0.840,-2.380
1743910014.914483,-167971231205679250810384561387601920.000,-0.034,-0.047,1.054,0.840,-2.450
1743910014.921626,-168340592899320751152245663284068352.000,-0.033,-0.050,1.053,0.770,-2.450
1743910014.941626,-168735386833129330346474292788592640.000,-0.033,-0.048,1.051,0.840,-2.310
1743910014.961626,-169130755171116137957150475486756864.000,-0.033,-0.050,1.052,0.770,-2.450
1743910014.981626,-169526420614712374059092633974734848.000,-0.033,-0.047,1.052,0.770,-2.450
1743910015.001626,-169903071299305186720012341914632192.000,-0.034,-0.047,1.053,0.910,-2.380
1743910015.030908,-170251219652433492785482772418396160.000,-0.033,-0.049,1.052,0.770,-2.380
1743910015.050908,-170710208204919254659246570908680192.000,-0.032,-0.048,1.052,0.770,-2.520
1743910015.070908,-171070953835887328754394374900547584.000,-0.034,-0.049,1.053,0.770,-2.310
1743910015.090908,-171537508677893202872398356838088704.000,-0.035,-0.047,1.055,0.770,-2.450
1743910015.110908,-171896412254082820321697110933110784.000,-0.034,-0.048,1.051,0.840,-2.450
1743910015.120097,-172259277238398150987875542225649664.000,-0.034,-0.047,1.053,0.840,-2.450
1743910015.140097,-172627846650414508686360708682612736.000,-0.033,-0.048,1.053,0.910,-2.310
1743910015.160097,-173024225147473373167341209066143744.000,-0.034,-0.048,1.051,0.840,-2.450
1743910015.180097,-173518331582993582708743345912414208.000,-0.033,-0.050,1.053,0.770,-2.380
1743910015.200097,-173914254518117990169782683418230784.000,-0.032,-0.048,1.055,0.700,-2.520
1743910015.210837,-174311623367208282954983103101140992.000,-0.034,-0.048,1.052,0.840,-2.450
1743910015.230837,-174610273925805802375541967021932544.000,-0.034,-0.047,1.053,0.910,-2.380
1743910015.250837,-175102617534710069535432647515308032.000,-0.034,-0.048,1.055,0.770,-2.450
1743910015.270837,-175497668960046820088758456037670912.000,-0.036,-0.047,1.051,0.910,-2.450
1743910015.290837,-175867268338175863223632338565988352.000,-0.034,-0.047,1.054,0.840,-2.450
1743910015.316018,-176280106485997066120747897705201664.000,-0.033,-0.048,1.051,0.700,-2.380
1743910015.336018,-176599534630213951363840668526968832.000,-0.033,-0.048,1.053,0.840,-2.380
1743910015.356018,-176994704897794473313672867365257216.000,-0.035,-0.046,1.053,0.700,-2.450
1743910015.376018,-177440759452749781534324519805648896.000,-0.035,-0.049,1.052,0.910,-2.450
1743910015.396018,-177874434607312235952227181003800576.000,-0.035,-0.048,1.054,0.770,-2.380
1743910015.405652,-178233476832786253364116723800735744.000,-0.032,-0.049,1.054,0.840,-2.450
1743910015.425652,-178658733995081567196150070954164224.000,-0.035,-0.049,1.053,0.840,-2.520
1743910015.445652,-179024312543963011415891081127002112.000,-0.034,-0.047,1.055,0.840,-2.450
1743910015.465652,-179392743306694969151785458882052096.000,-0.034,-0.049,1.052,0.840,-2.450
1743910015.485652,-179769077078637724755354792646148096.000,-0.035,-0.048,1.054,0.770,-2.520
1743910015.511477,-180154601317432135022084977508483072.000,-0.034,-0.047,1.049,0.840,-2.380
1743910015.531477,-180611094182798697569214579364331520.000,-0.036,-0.048,1.051,0.910,-2.450
1743910015.551477,-180955261320760661851720934284591104.000,-0.034,-0.047,1.052,0.910,-2.310
1743910015.571477,-181342924719942957255566144833585152.000,-0.034,-0.048,1.053,0.840,-2.450
1743910015.591477,-181818313502069171847211806921588736.000,-0.033,-0.048,1.054,0.910,-2.310
1743910015.615685,-182135424222532514858429966582808576.000,-0.032,-0.050,1.052,0.700,-2.380
1743910015.635685,-182612179690462100509899117303955456.000,-0.035,-0.048,1.054,0.910,-2.380
1743910015.655685,-183025829926949074616475010268659712.000,-0.034,-0.049,1.052,0.840,-2.450
1743910015.675685,-183421772669114110643598746160463872.000,-0.035,-0.047,1.053,0.910,-2.450
1743910015.695685,-183816824094450861196924554682826752.000,-0.033,-0.049,1.052,0.910,-2.380
1743910015.702931,-184195594132390930428874889923395584.000,-0.034,-0.046,1.053,0.910,-2.450
1743910015.722931,-184524529656109527392478886019203072.000,-0.034,-0.046,1.052,0.840,-2.380
1743910015.742931,-184916154463417536013203773765713920.000,-0.034,-0.048,1.056,0.840,-2.310
1743910015.762931,-185334914916386680169554450315214848.000,-0.034,-0.050,1.054,0.770,-2.380
1743910015.782931,-185700552886390010087548655646015488.000,-0.035,-0.048,1.053,0.910,-2.380
1743910015.808818,-186127374804894980640249475292463104.000,-0.032,-0.049,1.052,0.770,-2.450
1743910015.828818,-186503352050106422054299638108782592.000,-0.036,-0.049,1.053,0.700,-2.520
1743910015.848818,-186948752972720987594166143811584000.000,-0.035,-0.049,1.053,0.840,-2.380
1743910015.868818,-187285076522594039707250737880760320.000,-0.033,-0.048,1.052,0.770,-2.450
1743910015.888818,-187729467286136548376812925898194944.000,-0.033,-0.049,1.053,0.840,-2.450
1743910015.913175,-188077239305492911686679787068194816.000,-0.033,-0.049,1.052,0.770,-2.380
1743910015.933175,-188570216739697292961271215913172992.000,-0.033,-0.047,1.054,0.770,-2.450
1743910015.953175,-188949085812840505023643543083679744.000,-0.034,-0.049,1.052,0.770,-2.380
1743910015.973175,-189352654265647538993260657580703744.000,-0.034,-0.048,1.053,0.910,-2.450
1743910015.993175,-189760124705458400481504254117281792.000,-0.034,-0.048,1.052,0.910,-2.380
1743910016.021628,-190121424933564074427015212916801536.000,-0.032,-0.048,1.052,0.770,-2.450
1743910016.041628,-190551614048975901214063758181138432.000,-0.035,-0.048,1.051,0.770,-2.310
1743910016.061628,-190890690777496324012879727902588928.000,-0.033,-0.046,1.053,0.910,-2.450
1743910016.081628,-191247435386257427758979057924964352.000,-0.035,-0.048,1.053,0.770,-2.310
1743910016.101628,-191739462082511637861519364242538496.000,-0.034,-0.048,1.050,0.840,-2.380
1743910016.111864,-192038944536815557057622960374808576.000,-0.033,-0.049,1.052,0.770,-2.380
1743910016.131864,-192531208917557309953176047324233728.000,-0.034,-0.050,1.052,0.770,-2.450
1743910016.151864,-192889359826203041891267662751727616.000,-0.035,-0.049,1.051,0.910,-2.450
1743910016.171864,-193306674365206300723457257124134912.000,-0.034,-0.049,1.054,0.840,-2.450
1743910016.191864,-193641908527844781701899939963994112.000,-0.035,-0.048,1.053,0.840,-2.450
1743910016.215947,-194049992985915128738759886466187264.000,-0.035,-0.049,1.053,0.770,-2.310
1743910016.235947,-194443202356473422646236645091704832.000,-0.035,-0.047,1.052,0.770,-2.450
1743910016.255947,-194822645833794863125056525455851520.000,-0.034,-0.047,1.053,0.700,-2.450
1743910016.275947,-195306016853294389848714737096851456.000,-0.033,-0.048,1.055,0.770,-2.380
1743910016.295947,-195701048471590511835956147233226752.000,-0.031,-0.048,1.052,0.840,-2.380
1743910016.305563,-196040818446532934447726060464242688.000,-0.034,-0.048,1.051,0.770,-2.380
1743910016.325563,-196444169021893054190414792715403264.000,-0.034,-0.049,1.051,0.840,-2.380
1743910016.345563,-196888757855841848520820964592713728.000,-0.035,-0.048,1.052,0.770,-2.450
1743910016.365563,-197285354230347627228729847222108160.000,-0.033,-0.048,1.052,0.910,-2.380
1743910016.385563,-197635047532644961448783351832903680.000,-0.032,-0.046,1.052,0.910,-2.380
1743910016.410783,-198078725242724841739307197954785280.000,-0.032,-0.050,1.053,0.910,-2.310
1743910016.430783,-198437173256980002168664789172092928.000,-0.034,-0.048,1.052,0.910,-2.380
1743910016.450783,-198871086096029999379580231002095616.000,-0.034,-0.048,1.054,0.980,-2.450
1743910016.470783,-199266177135448007065074836296433664.000,-0.035,-0.049,1.052,0.770,-2.380
1743910016.490783,-199565738817914440525516025972654080.000,-0.033,-0.050,1.054,0.770,-2.450
1743910016.515785,-200040335318415512473785752621154304.000,-0.033,-0.050,1.055,0.770,-2.450
1743910016.535785,-200408290712172384623654569112502272.000,-0.033,-0.048,1.053,0.840,-2.450
1743910016.555785,-200802074486908906947578880931659776.000,-0.035,-0.046,1.053,0.840,-2.520
1743910016.575785,-201158878516791896391931406111997952.000,-0.034,-0.048,1.055,0.770,-2.380
1743910016.595785,-201553910135088018379172816248373248.000,-0.034,-0.048,1.053,0.840,-2.380
1743910016.619005,-201992576663888871450343870715396096.000,-0.033,-0.048,1.052,0.840,-2.380
1743910016.639005,-202367444714825113163667723916410880.000,-0.033,-0.049,1.055,0.910,-2.380
1743910016.659005,-202762654596486892245668719526674432.000,-0.033,-0.049,1.051,0.980,-2.380
1743910016.679005,-203130768446568792924212723105923072.000,-0.035,-0.048,1.051,0.840,-2.520
1743910016.699005,-203624260863829516916998509986578432.000,-0.036,-0.047,1.052,0.910,-2.520
1743910016.709207,-203983421931547305725394443099439104.000,-0.034,-0.049,1.052,0.910,-2.450
1743910016.729207,-204419394702822673809087317072150528.000,-0.035,-0.049,1.056,0.840,-2.380
1743910016.749207,-204812029669202739300116522504028160.000,-0.033,-0.051,1.052,0.770,-2.520
1743910016.769207,-205207972411367775327240258395832320.000,-0.033,-0.047,1.052,0.770,-2.450
1743910016.789207,-205577631210618704160367336082112512.000,-0.033,-0.049,1.052,0.840,-2.380
1743910016.815678,-205903357993755473418298793647931392.000,-0.036,-0.049,1.052,0.980,-2.380
1743910016.835678,-206300033596423766390545269821276160.000,-0.033,-0.048,1.053,0.840,-2.380
1743910016.855678,-206755654952002672029961342693670912.000,-0.034,-0.049,1.052,0.770,-2.380
1743910016.875678,-207188795316468155163585247470157824.000,-0.034,-0.048,1.054,0.840,-2.450
1743910016.895678,-207586223586680333647038862311030784.000,-0.033,-0.048,1.054,0.840,-2.380
1743910016.904788,-207981235397935827068195874061418496.000,-0.033,-0.047,1.055,0.910,-2.450
1743910016.924788,-208377178140100863095319609953222656.000,-0.033,-0.048,1.054,0.770,-2.520
1743910016.944788,-208773477408997213311962516792803328.000,-0.033,-0.049,1.052,0.910,-2.450
1743910016.964788,-209169618221568534999930236544483328.000,-0.034,-0.049,1.054,0.910,-2.380
1743910016.984788,-209539257213778835266972915844775936.000,-0.035,-0.049,1.052,0.770,-2.380
1743910017.010393,-209865201874362518751832755656458240.000,-0.034,-0.049,1.050,0.840,-2.450
1743910017.030393,-210321338212997767109443186564530176.000,-0.033,-0.048,1.053,0.840,-2.310
1743910017.050393,-210657661762870819222527780633706496.000,-0.034,-0.048,1.051,0.840,-2.380
1743910017.070393,-211053366820548312456638735893659648.000,-0.034,-0.049,1.051,0.840,-2.450
1743910017.090393,-211547215764540350638943693722091520.000,-0.034,-0.048,1.053,0.840,-2.450
1743910017.100608,-211845727673853470096911768940969984.000,-0.032,-0.049,1.053,0.840,-2.380
1743910017.120608,-212242007135709191747470277394563072.000,-0.033,-0.049,1.052,0.770,-2.450
1743910017.140608,-212686556355576728945707652499898368.000,-0.034,-0.047,1.054,0.910,-2.450
1743910017.160608,-213082221799172965047649810987876352.000,-0.032,-0.048,1.052,0.770,-2.380
1743910017.180608,-213441006533118811100442174766972928.000,-0.034,-0.048,1.052,0.700,-2.520
1743910017.220067,-213826808070482021292353937033134080.000,-0.033,-0.046,1.052,0.840,-2.450
1743910017.240067,-214320439137027145247730512615702528.000,-0.034,-0.049,1.053,0.840,-2.310
1743910017.260067,-214716381879192181274854248507506688.000,-0.034,-0.048,1.053,0.840,-2.380
1743910017.280067,-215112938639616702850594334364925952.000,-0.036,-0.045,1.055,0.840,-2.380
1743910017.300067,-215508821960659853179464875098767360.000,-0.034,-0.047,1.053,0.770,-2.450
1743910017.308694,-215905457949246889019542554500136960.000,-0.035,-0.049,1.053,0.770,-2.450
1743910017.328694,-216203672752950579986244653929201664.000,-0.035,-0.048,1.053,0.840,-2.380
1743910017.348694,-216697184977251932545114839195844608.000,-0.034,-0.049,1.053,0.910,-2.450
1743910017.368694,-217092256209629311664525046104195072.000,-0.035,-0.047,1.054,0.910,-2.450
1743910017.388694,-217392035769542659351894618026278912.000,-0.035,-0.050,1.053,0.840,-2.520
1743910017.415697,-217866335164434302808898368884965376.000,-0.034,-0.050,1.051,0.770,-2.380
1743910017.435697,-218271706057938536292195736506859520.000,-0.034,-0.049,1.052,0.840,-2.380
1743910017.455697,-218630272914437468118059718040092672.000,-0.034,-0.048,1.052,0.700,-2.450
1743910017.475697,-219004962702008052736623985767219200.000,-0.033,-0.047,1.052,0.840,-2.450
1743910017.495697,-219372145621180410809201265205051392.000,-0.034,-0.048,1.052,0.840,-2.380
1743910017.517674,-219799482522741724080096442887176192.000,-0.034,-0.049,1.051,0.840,-2.380
1743910017.537674,-220193563403087674895286730496147456.000,-0.037,-0.049,1.050,0.770,-2.450
1743910017.557674,-220561261305316375686058367969656832.000,-0.035,-0.049,1.054,0.910,-2.380
1743910017.577674,-221053862405748814205046227480870912.000,-0.035,-0.049,1.053,0.770,-2.450
1743910017.597674,-221440674102184081267262307432398848.000,-0.034,-0.049,1.053,0.840,-2.380
1743910017.610950,-221756735049494110276007352636276736.000,-0.033,-0.048,1.051,0.910,-2.450
1743910017.630950,-222242839440600379119312541543563264.000,-0.033,-0.049,1.052,0.910,-2.450
1743910017.650950,-222639594271431186355896611260858368.000,-0.033,-0.047,1.053,0.910,-2.380
1743910017.670950,-223035517206555593816935948766674944.000,-0.033,-0.046,1.053,0.840,-2.380
1743910017.690950,-223412207505229663610024453478547456.000,-0.034,-0.048,1.053,0.770,-2.450
1743910017.713464,-223827996902104522853715372129910784.000,-0.034,-0.048,1.054,0.910,-2.450
1743910017.733464,-224223939644269558880839108021714944.000,-0.034,-0.048,1.053,0.770,-2.520
1743910017.753464,-224619862579393966341878445527531520.000,-0.034,-0.048,1.054,0.840,-2.380
1743910017.773464,-225016359918696602219365336226988032.000,-0.033,-0.049,1.052,0.840,-2.450
1743910017.793464,-225411411344033352772691144749350912.000,-0.035,-0.048,1.052,0.840,-2.380
1743910017.805577,-225750032510619318551565951593086976.000,-0.034,-0.050,1.054,0.770,-2.450
1743910017.825577,-226155324175961037770525725671030784.000,-0.034,-0.047,1.052,0.840,-2.380
1743910017.845577,-226513415663484884010364145940561920.000,-0.035,-0.049,1.053,0.770,-2.380
1743910017.865577,-226965788664400704811938883510992896.000,-0.033,-0.047,1.053,0.910,-2.450
1743910017.885577,-227343211823578031550150128504406016.000,-0.033,-0.051,1.052,0.840,-2.450
1743910017.910601,-227691320562625080483451762236194816.000,-0.032,-0.048,1.053,0.910,-2.520
1743910017.930601,-228087877323049602059191848093614080.000,-0.035,-0.047,1.054,0.840,-2.450
1743910017.950601,-228581448968472840316315228518219776.000,-0.034,-0.045,1.051,0.770,-2.450
1743910017.970601,-228976896534622162191329004760334336.000,-0.033,-0.049,1.053,0.840,-2.450
1743910017.990601,-229373889049940512220925855109480448.000,-0.034,-0.047,1.054,0.840,-2.310
1743910018.000741,-229769792178024291115880794229309440.000,-0.034,-0.049,1.052,0.910,-2.450
1743910018.020741,-230165715113148698576920131735126016.000,-0.035,-0.048,1.049,0.770,-2.380
1743910018.040741,-230524143320363230440193324566446080.000,-0.033,-0.047,1.051,0.770,-2.450
1743910018.060741,-230860466870236282553277918635622400.000,-0.034,-0.047,1.053,0.910,-2.450
1743910018.080741,-231256132313832518655220077123600384.000,-0.034,-0.048,1.054,0.840,-2.450
1743910018.120285,-231753209805447013109281971868008448.000,-0.034,-0.049,1.052,0.840,-2.520
1743910018.140285,-232107201235560746169649926238109696.000,-0.034,-0.049,1.053,0.840,-2.450
1743910018.160285,-232444871664196540776473610554441728.000,-0.034,-0.048,1.054,0.840,-2.450
1743910018.180285,-232939017713798007450044544172687360.000,-0.036,-0.048,1.053,0.910,-2.450
1743910018.200285,-233334901034841157778915084906528768.000,-0.034,-0.047,1.054,0.840,-2.380
1743910018.210987,-233731972778322022072849528799625216.000,-0.034,-0.047,1.052,0.770,-2.380
1743910018.230987,-234030880828447712852505571738255360.000,-0.035,-0.048,1.054,0.840,-2.380
1743910018.250987,-234523283858473865710649447389593600.000,-0.035,-0.047,1.053,0.840,-2.520
1743910018.270987,-234900172227554221164581935961341952.000,-0.033,-0.047,1.050,0.840,-2.450
1743910018.290987,-235256540502543382155077696649953280.000,-0.034,-0.047,1.052,0.840,-2.380
1743910018.314810,-235680827119847896248975522889990144.000,-0.033,-0.048,1.055,0.980,-2.450
1743910018.334810,-236108183828449838085955098958102528.000,-0.034,-0.049,1.054,0.840,-2.380
1743910018.354810,-236466057438526770098865136981770240.000,-0.034,-0.049,1.055,0.840,-2.310
1743910018.374810,-236899138381870367534235846600294400.000,-0.034,-0.047,1.053,0.910,-2.450
1743910018.394810,-237296527038001288885520664669192192.000,-0.035,-0.048,1.052,0.840,-2.450
1743910018.403449,-237692449973125696346560002175008768.000,-0.035,-0.047,1.053,0.840,-2.380
1743910018.423449,-238087501398462446899885810697371648.000,-0.036,-0.048,1.053,0.770,-2.450
1743910018.443449,-238484038351846339909541498168803328.000,-0.034,-0.050,1.052,0.980,-2.450
1743910018.463449,-238870830241240978405673179734343680.000,-0.035,-0.048,1.053,0.910,-2.380
1743910018.483449,-239209689092314486977560767209930752.000,-0.033,-0.048,1.054,0.840,-2.380
1743910018.510597,-239673312492307333315073788021309440.000,-0.036,-0.047,1.051,0.770,-2.450
1743910018.530597,-240031740699521865178346980852629504.000,-0.035,-0.048,1.054,0.770,-2.450
1743910018.550597,-240425980036192844522212455549501440.000,-0.033,-0.046,1.054,0.840,-2.450
1743910018.570597,-240843730330089931808258814413635584.000,-0.035,-0.050,1.053,0.770,-2.450
1743910018.590597,-241170744570867557861676167068647424.000,-0.034,-0.049,1.054,0.840,-2.380
1743910018.613429,-241583602525729389324876124593848320.000,-0.034,-0.049,1.052,0.910,-2.380
1743910018.633429,-241981248673388482035258121680584704.000,-0.034,-0.049,1.052,0.840,-2.450
1743910018.653429,-242359028359297122962988537621774336.000,-0.034,-0.047,1.053,0.770,-2.380
1743910018.673429,-242842419185837278252731147648761856.000,-0.034,-0.048,1.054,0.840,-2.450
1743910018.693429,-243236876399955171823525004591497216.000,-0.033,-0.052,1.052,0.770,-2.380
1743910018.733142,-243614893770351355544268201164537856.000,-0.035,-0.047,1.053,0.770,-2.520
1743910018.753142,-243942086274494638692445139293437952.000,-0.033,-0.050,1.052,0.840,-2.450
1743910018.773142,-244329096041336191415505203104841728.000,-0.034,-0.048,1.052,0.840,-2.380
1743910018.793142,-244773090664066128763379423402524672.000,-0.034,-0.047,1.052,0.980,-2.450
1743910018.813142,-245151702245681169466654571555192832.000,-0.033,-0.049,1.052,0.840,-2.450
1743910018.811309,-245546060424595920207026436567990272.000,-0.034,-0.049,1.052,0.770,-2.450
1743910018.831309,-246010436492132652055746596046897152.000,-0.033,-0.049,1.053,0.770,-2.380
1743910018.851309,-246392514305857691823791461747392512.000,-0.033,-0.049,1.052,0.840,-2.450
1743910018.871309,-246803094451047238187285604884021248.000,-0.035,-0.049,1.054,0.840,-2.380
1743910018.891309,-247199948317081188254291666531254272.000,-0.032,-0.049,1.054,0.840,-2.450
1743910018.899378,-247595891059246224281415402423058432.000,-0.033,-0.048,1.051,0.910,-2.450
1743910018.919378,-247972878463529722565769882924744704.000,-0.033,-0.048,1.052,0.840,-2.450
1743910018.939378,-248329207124437626424096846841380864.000,-0.035,-0.046,1.052,0.840,-2.380
1743910018.959378,-248784254075838303647065366520135680.000,-0.033,-0.047,1.052,0.840,-2.380
1743910018.979378,-249082409458420108915514270791237632.000,-0.035,-0.046,1.055,0.770,-2.520
1743910019.018694,-249576674350265346985591594725408768.000,-0.035,-0.048,1.055,0.840,-2.450
1743910019.038694,-249935122364520507414949185942716416.000,-0.035,-0.048,1.052,0.840,-2.380
1743910019.058694,-250330411474344800761287775096930304.000,-0.035,-0.048,1.053,0.910,-2.380
1743910019.078694,-250734296839801891788255263769755648.000,-0.034,-0.047,1.051,0.700,-2.380
1743910019.098694,-251093933276494766182676758146318336.000,-0.035,-0.049,1.049,0.770,-2.520
1743910019.123418,-251558190501787726634890527309299712.000,-0.035,-0.049,1.054,0.840,-2.450
1743910019.143418,-251952568487743105941346790708084736.000,-0.034,-0.048,1.054,0.840,-2.380
1743910019.163418,-252348511229908141968470526599888896.000,-0.032,-0.049,1.053,0.770,-2.380
1743910019.183418,-252715713956121128607132204423708672.000,-0.034,-0.049,1.054,0.770,-2.380
1743910019.203418,-253094087853248626517394571944525824.000,-0.034,-0.047,1.053,0.840,-2.380
1743910019.197983,-253490624806632519527050259415957504.000,-0.034,-0.048,1.053,0.840,-2.520
1743910019.217983,-253863611188709047462356265948151808.000,-0.035,-0.050,1.051,0.840,-2.450
1743910019.237983,-254260702739230540322375108227235840.000,-0.032,-0.045,1.052,0.840,-2.450
1743910019.257983,-254636363071791924679074896867753984.000,-0.035,-0.046,1.052,0.840,-2.380
1743910019.277983,-255024997015965019821055628330139648.000,-0.034,-0.048,1.050,0.840,-2.380
1743910019.304005,-255517677344559972604381081385304064.000,-0.034,-0.049,1.054,0.770,-2.450
1743910019.324005,-255895239153021699305183115080630272.000,-0.033,-0.048,1.056,0.910,-2.450
1743910019.344005,-256283298693016566030716293349376000.000,-0.034,-0.048,1.053,0.910,-2.450
1743910019.364005,-256657869638343379252774170760577024.000,-0.034,-0.048,1.054,0.840,-2.450
1743910019.384005,-257053515274898986788631930862567424.000,-0.034,-0.050,1.052,0.840,-2.380
1743910019.408966,-257412339622926089973593091413639168.000,-0.033,-0.049,1.055,0.770,-2.450
1743910019.428966,-257877706042494250126533170191925248.000,-0.034,-0.047,1.052,0.700,-2.450
1743910019.448966,-258290623418477967287986322875088896.000,-0.035,-0.048,1.052,0.910,-2.380
1743910019.468966,-258678326431741519824000330196058112.000,-0.034,-0.048,1.053,0.840,-2.450
1743910019.488966,-259083360605555067683862925256163328.000,-0.033,-0.047,1.052,0.840,-2.450
1743910019.499196,-259480115436385874920446994973458432.000,-0.033,-0.046,1.054,0.910,-2.380
1743910019.519196,-259838702099925435312395374892679168.000,-0.034,-0.048,1.054,0.840,-2.450
1743910019.539196,-260262057786320406800326476991299584.000,-0.033,-0.046,1.055,0.840,-2.450
1743910019.559196,-260617792236009453676121489328308224.000,-0.033,-0.046,1.053,0.840,-2.450
1743910019.579196,-260977448479742956636627382090858496.000,-0.035,-0.048,1.051,0.770,-2.450
1743910019.605758,-261370638043260621978019742330388480.000,-0.035,-0.048,1.051,0.770,-2.520
1743910019.625758,-261838420921785467193256424199159808.000,-0.034,-0.049,1.055,0.840,-2.450
1743910019.645758,-262253398229994555227487009025032192.000,-0.035,-0.050,1.054,0.910,-2.380
1743910019.665758,-262631791934162681703833774931836928.000,-0.035,-0.046,1.052,0.770,-2.450
1743910019.685758,-263035241544725944276944499112935424.000,-0.033,-0.048,1.051,0.770,-2.450
1743910019.708980,-263354174512927115367927310285012992.000,-0.036,-0.047,1.052,0.840,-2.450
1743910019.728980,-263748988253776323128240338175524864.000,-0.035,-0.049,1.054,0.840,-2.380
1743910019.748980,-264222772665611623867049730998534144.000,-0.034,-0.049,1.053,0.770,-2.380
1743910019.768980,-264580368977119755954778191618375680.000,-0.034,-0.049,1.050,0.840,-2.380
1743910019.788980,-264975578858781535036779187228639232.000,-0.034,-0.047,1.053,0.770,-2.520
1743910019.813096,-265334957803946238072103502587363328.000,-0.033,-0.048,1.052,0.840,-2.450
1743910019.833096,-265800066731986226865946402347810816.000,-0.035,-0.051,1.054,0.770,-2.380
1743910019.853096,-266176301468725839639093744181968896.000,-0.035,-0.051,1.053,0.770,-2.520
1743910019.873096,-266520290343322146826840513628340224.000,-0.033,-0.048,1.054,0.840,-2.380
1743910019.893096,-267006850296362872690086865413341184.000,-0.036,-0.049,1.053,0.840,-2.380
1743910019.903625,-267383283103508771124078191107375104.000,-0.033,-0.049,1.055,0.700,-2.450
1743910019.923625,-267710554835814568536592722780225536.000,-0.033,-0.048,1.053,0.770,-2.380
1743910019.943625,-268106279700532690336788076426166272.000,-0.034,-0.050,1.049,0.840,-2.450
1743910019.963625,-268580321603896162434694648267014144.000,-0.034,-0.048,1.052,0.840,-2.450
1743910019.983625,-268958200325007946192847056138141696.000,-0.035,-0.048,1.054,0.770,-2.450
1743910020.010381,-269335980010916587120577472079331328.000,-0.035,-0.048,1.054,0.770,-2.450
1743910020.030381,-269730694716562652050468508039905280.000,-0.034,-0.048,1.053,0.980,-2.450
1743910020.050381,-270088073150623869911268586413883392.000,-0.034,-0.048,1.054,0.840,-2.380
1743910020.070381,-270474409478084051387459105101709312.000,-0.034,-0.047,1.053,0.770,-2.450
1743910020.090381,-270918820048667188623105691505131520.000,-0.033,-0.049,1.055,0.770,-2.380
1743910020.115131,-271277010571394177693366103704600576.000,-0.034,-0.047,1.053,0.770,-2.450
1743910020.135131,-271671626241837099792835147735236608.000,-0.034,-0.048,1.052,0.840,-2.380
1743910020.155131,-272066519210848821817485769169698816.000,-0.034,-0.049,1.051,0.910,-2.380
1743910020.175131,-272542977573168978977688944101031936.000,-0.035,-0.049,1.053,0.910,-2.450
1743910020.195131,-272938742051968357910053094518947840.000,-0.034,-0.048,1.053,0.840,-2.380
1743910020.216888,-273333753863223851331210106269335552.000,-0.034,-0.046,1.055,0.770,-2.450
1743910020.236888,-273715930712152033929676963899768832.000,-0.035,-0.048,1.052,0.770,-2.450
1743910020.256888,-274069763685940738461369731181969408.000,-0.035,-0.047,1.055,0.770,-2.380
1743910020.276888,-274463052284661546633184083351437312.000,-0.035,-0.050,1.054,0.910,-2.450
1743910020.296888,-274831661310759161463838046580375552.000,-0.034,-0.049,1.052,0.840,-2.450
1743910020.309908,-275258384194060989186116874296885248.000,-0.035,-0.049,1.053,0.770,-2.450
1743910020.329908,-275710479896408010062510034463490048.000,-0.033,-0.046,1.052,0.840,-2.380
1743910020.349908,-276107571446929502922528876742574080.000,-0.035,-0.049,1.054,0.770,-2.380
1743910020.369908,-276465088530275120745919743818465280.000,-0.034,-0.047,1.051,0.840,-2.520
1743910020.389908,-276859585358474271448882397533175808.000,-0.033,-0.049,1.052,0.910,-2.380
1743910020.414093,-277219241602207774409388290295726080.000,-0.035,-0.046,1.052,0.770,-2.450
1743910020.434093,-277613976114894467905363724642287616.000,-0.033,-0.050,1.052,0.910,-2.380
1743910020.454093,-278009978278181389630740655692054528.000,-0.034,-0.048,1.052,0.910,-2.450
1743910020.474093,-278463955649388124285151662527479808.000,-0.033,-0.049,1.053,0.910,-2.450
1743910020.494093,-278840923246630994003421744643178496.000,-0.036,-0.049,1.053,0.910,-2.380
1743910020.520013,-279239322061833972225010880397443072.000,-0.035,-0.049,1.055,0.770,-2.450
1743910020.540013,-279613417638185699861043196544942080.000,-0.035,-0.047,1.055,0.840,-2.520
1743910020.560013,-279989731603087826898528131923050496.000,-0.035,-0.047,1.051,0.840,-2.380
1743910020.580013,-280475122940731467362794978934784000.000,-0.034,-0.048,1.052,0.770,-2.310
1743910020.600013,-280871342981465303315100292230414336.000,-0.033,-0.049,1.053,0.910,-2.450
1743910020.608292,-281269008936165024591566687703138304.000,-0.033,-0.049,1.052,0.700,-2.520
1743910020.628292,-281663743448851718087542122049699840.000,-0.033,-0.049,1.053,0.910,-2.450
1743910020.648292,-282060280402235611097197809521131520.000,-0.034,-0.047,1.053,0.770,-2.380
1743910020.668292,-282456223144400647124321545412935680.000,-0.034,-0.047,1.052,0.770,-2.450
1743910020.688292,-282851254762696769111562955549310976.000,-0.036,-0.047,1.052,0.840,-2.450
1743910020.713486,-283237214756385007832149904903372800.000,-0.033,-0.049,1.052,0.840,-2.380
1743910020.733486,-283644566353952097923887111124025344.000,-0.034,-0.048,1.052,0.840,-2.450
1743910020.753486,-284040509096117133951010847015829504.000,-0.034,-0.048,1.052,0.910,-2.450
1743910020.773486,-284437006435419769828497737715286016.000,-0.034,-0.047,1.050,0.910,-2.380
1743910020.793486,-284831384421375149134954001114071040.000,-0.035,-0.048,1.052,0.840,-2.310
1743910020.819377,-285132530667091867882147061669298176.000,-0.033,-0.048,1.052,0.840,-2.380
1743910020.839377,-285536614102955244569958534201999360.000,-0.034,-0.048,1.055,0.910,-2.520
1743910020.859377,-285931804177576395085875131426275328.000,-0.034,-0.048,1.052,0.840,-2.520
1743910020.879377,-286328083639432116736433639879868416.000,-0.034,-0.049,1.056,0.840,-2.450
1743910020.899377,-286813752275644557125882064295428096.000,-0.034,-0.048,1.053,0.840,-2.450
1743910020.908168,-287211259774019249873673272680251392.000,-0.035,-0.048,1.050,0.840,-2.450
1743910020.928168,-287606172550071600464408292500701184.000,-0.034,-0.048,1.053,0.980,-2.520
1743910020.948168,-287964026353107903911233932138381312.000,-0.035,-0.048,1.052,0.840,-2.520
1743910020.968168,-288397582665426586932630203020607488.000,-0.035,-0.048,1.052,0.910,-2.520
1743910020.988168,-288696272838105363485357863713374208.000,-0.033,-0.048,1.054,0.840,-2.520
1743910021.015929,-289142802762035757292035077417467904.000,-0.033,-0.050,1.053,0.840,-2.450
1743910021.035929,-289537418432478679391504121448103936.000,-0.033,-0.048,1.053,0.840,-2.310
1743910021.055929,-289933064069034286927361881550094336.000,-0.036,-0.046,1.055,0.840,-2.450
1743910021.075929,-290377989622673766881202825989193728.000,-0.034,-0.047,1.054,0.770,-2.520
1743910021.095929,-290773892750757545776157765109022720.000,-0.034,-0.048,1.055,0.840,-2.380
1743910021.131920,-291093320894974431019250535930789888.000,-0.035,-0.049,1.055,0.770,-2.380
1743910021.151920,-291469615052835929490651072922910720.000,-0.034,-0.048,1.052,0.980,-2.450
1743910021.171920,-291944568080068315628439970519187456.000,-0.033,-0.047,1.052,0.700,-2.450
1743910021.191920,-292359684037561803625261344046972928.000,-0.032,-0.048,1.053,0.840,-2.380
1743910021.211920,-292755567358604953954131884780814336.000,-0.033,-0.050,1.053,0.840,-2.450
1743910021.252770,-293152738137288961078488320603848704.000,-0.033,-0.049,1.053,0.840,-2.380
1743910021.272770,-293546878438756797591931803370782720.000,-0.034,-0.049,1.053,0.840,-2.380
1743910021.292770,-293943098479490633544237116666413056.000,-0.034,-0.048,1.054,0.770,-2.450
1743910021.312770,-294340467328580926329437536349323264.000,-0.034,-0.049,1.053,0.910,-2.450
1743910021.332770,-294736390263705333790476873855139840.000,-0.034,-0.048,1.052,0.910,-2.310
1743910021.330802,-295094838277960494219834465072447488.000,-0.034,-0.048,1.052,0.840,-2.450
1743910021.350802,-295527780572019691692614385989058560.000,-0.035,-0.049,1.052,0.910,-2.450
1743910021.370802,-295847228523277205501791555196813312.000,-0.034,-0.051,1.054,0.910,-2.380
1743910021.390802,-296251925977400067738219377695129600.000,-0.033,-0.047,1.052,0.840,-2.450
1743910021.410802,-296647215087224361084557966849343488.000,-0.034,-0.049,1.051,0.840,-2.520
1743910021.404970,-297044306637745853944576809128427520.000,-0.033,-0.048,1.052,0.840,-2.450
1743910021.424970,-297489667946279162352274518059253760.000,-0.035,-0.047,1.051,0.770,-2.380
1743910021.444970,-297904724482650764650842696429076480.000,-0.035,-0.048,1.052,0.840,-2.450
1743910021.464970,-298300607803693914979713237162917888.000,-0.032,-0.047,1.051,0.840,-2.380
1743910021.484970,-298696510931777693874668176282746880.000,-0.035,-0.050,1.050,0.770,-2.380
1743910021.510599,-298995914157919098806434178871066624.000,-0.034,-0.050,1.053,0.840,-2.380
1743910021.530599,-299489862137114279819161128629436416.000,-0.033,-0.048,1.055,0.770,-2.380
1743910021.550599,-299886379283457544262732417714880512.000,-0.034,-0.048,1.053,0.700,-2.450
1743910021.570599,-300281906077769380402083787500945408.000,-0.033,-0.048,1.051,0.910,-2.310
1743910021.590599,-300677987469218816391798312094662656.000,-0.034,-0.048,1.053,0.770,-2.380
1743910021.615838,-301056599050833857095073460247330816.000,-0.035,-0.048,1.053,0.700,-2.380
1743910021.635838,-301451135493114264930204910734016512.000,-0.034,-0.048,1.053,0.840,-2.520
1743910021.655838,-301865716660510781642747527840137216.000,-0.034,-0.048,1.053,0.840,-2.450
1743910021.675838,-302253578130099362707436722249007104.000,-0.034,-0.048,1.054,0.840,-2.380
1743910021.695838,-302609471036113438111906921673916416.000,-0.034,-0.047,1.051,0.840,-2.450
1743910021.718346,-303007552938666359276145683252379648.000,-0.033,-0.049,1.052,0.840,-2.450
1743910021.738346,-303366258444449691064600453487525888.000,-0.034,-0.049,1.053,0.840,-2.310
1743910021.758346,-303758219971448385308760113795825664.000,-0.034,-0.047,1.054,0.910,-2.310
1743910021.778346,-304153548695353935787267499722014720.000,-0.034,-0.044,1.055,0.770,-2.450
1743910021.798346,-304639831349825861725332274103189504.000,-0.035,-0.050,1.052,0.840,-2.380
1743910021.809068,-305019829424284902054515309274988544.000,-0.032,-0.048,1.052,0.840,-2.380
1743910021.829068,-305432192203131019365605307150499840.000,-0.035,-0.047,1.053,0.910,-2.450
1743910021.849068,-305826748452452055766821156023173120.000,-0.035,-0.049,1.052,0.910,-2.520
1743910021.869068,-306223245791754691644308046722629632.000,-0.033,-0.048,1.054,0.840,-2.450
1743910021.889068,-306523045158708667897762017030701056.000,-0.034,-0.048,1.054,0.840,-2.380
1743910021.941857,-306996928605747111466993401783648256.000,-0.033,-0.050,1.056,0.770,-2.520
1743910021.961857,-307412004949159342331645978539458560.000,-0.034,-0.048,1.053,0.840,-2.240
1743910021.981857,-307799490084975980640731603614564352.000,-0.033,-0.048,1.053,0.770,-2.450
1743910022.001857,-308157403309134169785810438410207232.000,-0.035,-0.048,1.051,0.840,-2.380
1743910022.021857,-308513850812285845040643792642768896.000,-0.035,-0.046,1.052,0.840,-2.380
1743910022.019984,-308929719437323218548672304838082560.000,-0.035,-0.048,1.053,0.840,-2.380
1743910022.039984,-309324057809197340722959771464892416.000,-0.035,-0.048,1.052,0.840,-2.450
1743910022.059984,-309700054861449410703094332667199488.000,-0.035,-0.044,1.053,0.910,-2.380
1743910022.079984,-310089005718272562902425438305386496.000,-0.031,-0.047,1.054,0.840,-2.450
1743910022.099984,-310581666239826887119666492974563328.000,-0.033,-0.048,1.053,0.700,-2.380
1743910022.110947,-310978658755145237149263343323709440.000,-0.034,-0.047,1.055,0.840,-2.450
1743910022.130947,-311374066707213301892108322793848832.000,-0.034,-0.048,1.053,0.770,-2.450
1743910022.150947,-311770643274678452033932807037255680.000,-0.035,-0.046,1.051,0.770,-2.380
1743910022.170947,-312166586016843488061056542929059840.000,-0.035,-0.049,1.054,0.840,-2.380
1743910022.190947,-312561617635139610048297953065435136.000,-0.033,-0.047,1.052,0.840,-2.380
1743910022.243066,-312939139829520079616931189988786176.000,-0.034,-0.047,1.053,0.840,-2.450
1743910022.263066,-313256943796405422441103293159571456.000,-0.034,-0.050,1.053,0.840,-2.450
1743910022.283066,-313653758048358115375940558034829312.000,-0.035,-0.048,1.052,0.980,-2.450
1743910022.303066,-314097217880991081439536021910847488.000,-0.034,-0.048,1.053,0.910,-2.450
1743910022.323066,-314493635992131203052685319066353664.000,-0.035,-0.048,1.054,0.840,-2.380
1743910022.320655,-314908415229934005426071920032350208.000,-0.034,-0.050,1.054,0.910,-2.380
1743910022.340655,-315237964771912087938292266093772800.000,-0.032,-0.048,1.054,0.910,-2.450
1743910022.360655,-315633768864792724002825213283663872.000,-0.035,-0.048,1.054,0.910,-2.380
1743910022.380655,-316128152598881733469408927533760512.000,-0.033,-0.049,1.052,0.910,-2.450
1743910022.400655,-316524095341046769496532663425564672.000,-0.035,-0.048,1.052,0.770,-2.450
1743910022.410773,-316903736888774495636196527649587200.000,-0.033,-0.046,1.054,0.840,-2.450
1743910022.430773,-317318872653308612199102299563360256.000,-0.033,-0.047,1.054,0.840,-2.450
1743910022.450773,-317672487749650402503866684599697408.000,-0.034,-0.048,1.053,0.840,-2.450
1743910022.470773,-318010475090936254168040743091830784.000,-0.034,-0.047,1.051,0.840,-2.380
1743910022.490773,-318504878632065892200708855727915008.000,-0.035,-0.050,1.052,0.840,-2.380
1743910022.541458,-318899335846183785771502712670650368.000,-0.034,-0.048,1.053,0.840,-2.380
1743910022.561458,-319198877721609590665859503960883200.000,-0.034,-0.047,1.052,0.910,-2.520
1743910022.581458,-319692865314886028810755250491228160.000,-0.035,-0.050,1.050,0.770,-2.450
1743910022.601458,-320089184390823007593482555716796416.000,-0.035,-0.048,1.053,0.840,-2.450
1743910022.621458,-320484235816159758146808364239159296.000,-0.035,-0.048,1.051,0.840,-2.520
1743910022.603211,-320812814813147040920893189387190272.000,-0.034,-0.050,1.054,0.770,-2.450
1743910022.623211,-321208559484905791287172941419118592.000,-0.036,-0.049,1.051,0.840,-2.380
1743910022.643211,-321604601262273970144718669240860672.000,-0.033,-0.049,1.052,0.840,-2.450
1743910022.663211,-321999335774960663640694103587422208.000,-0.035,-0.049,1.052,0.770,-2.380
1743910022.683211,-322398447643626270241321581237239808.000,-0.035,-0.049,1.052,0.910,-2.520
1743910022.709111,-322763907350263943064556201094152192.000,-0.033,-0.050,1.055,0.840,-2.520
1743910022.729111,-323161612919044921473191393338851328.000,-0.035,-0.049,1.053,0.840,-2.380
1743910022.749111,-323654293247639874256516846394015744.000,-0.034,-0.048,1.052,0.840,-2.450
1743910022.769111,-324049265444814110545505061372428288.000,-0.034,-0.046,1.055,0.770,-2.520
1743910022.789111,-324350055163799515103178950979878912.000,-0.033,-0.048,1.050,0.840,-2.450
1743910022.827645,-324841705526281782450115687963688960.000,-0.032,-0.049,1.051,0.770,-2.450
1743910022.847645,-325237054057227961494707472275865600.000,-0.033,-0.048,1.053,0.770,-2.380
1743910022.867645,-325633571203571225938278761361309696.000,-0.034,-0.048,1.053,0.910,-2.380
1743910022.887645,-326030088349914490381850050446753792.000,-0.034,-0.048,1.051,0.840,-2.450
1743910022.907645,-326426110320242040673311379882508288.000,-0.035,-0.050,1.054,0.770,-2.450
1743910022.933978,-326823459362291704892427401179430912.000,-0.034,-0.046,1.053,0.840,-2.450
1743910022.953978,-327181887569506236755700594010750976.000,-0.035,-0.046,1.053,0.770,-2.450
1743910022.973978,-327614968512849834191071303629275136.000,-0.034,-0.048,1.052,0.910,-2.380
1743910022.993978,-328010950869096127350363836293054464.000,-0.033,-0.046,1.053,0.770,-2.380
1743910023.013978,-328406873804220534811403173798871040.000,-0.035,-0.049,1.053,0.770,-2.380
1743910023.009871,-328765183169191295278169976314265600.000,-0.034,-0.046,1.053,0.840,-2.450
1743910023.029871,-329169642938826614721585018180730880.000,-0.034,-0.049,1.052,0.770,-2.450
1743910023.049871,-329566972173835650374616641091665920.000,-0.034,-0.046,1.054,0.840,-2.380
1743910023.069871,-329992645283984164094422354350833664.000,-0.033,-0.048,1.053,0.770,-2.380
1743910023.089871,-330371019181111662004684721871650816.000,-0.033,-0.051,1.053,0.910,-2.520
