Timestamp,AccelX,AccelY,AccelZ,GyroX,GyroY,GyroZ
1743438541.432925,-0.192,-0.107,1.011,0.56,-1.96,-0.21
1743438541.452925,-0.193,-0.106,1.011,0.77,-2.17,-0.21
1743438541.472925,-0.191,-0.103,1.01,0.56,-2.45,-0.14
1743438541.492925,-0.205,-0.112,1.0,2.38,-3.36,-1.4
1743438541.512925,-0.185,-0.104,0.994,0.14,-9.87,-0.77
1743438541.532925,-0.166,-0.107,1.049,2.52,0.7,-0.56
1743438541.5529249,-0.183,-0.1,0.989,-1.05,-0.07,-0.42
1743438541.5729249,-0.207,-0.11,0.979,1.96,-7.84,-0.7
1743438541.5929248,-0.18,-0.1,1.001,1.68,-7.56,-0.56
1743438541.6129248,-0.169,-0.102,1.023,-0.28,-1.4,-0.77
1743438541.6329248,-0.183,-0.104,1.009,0.84,-0.21,-0.63
1743438541.6529248,-0.187,-0.095,1.022,-0.63,-0.98,-0.28
1743438541.6729248,-0.189,-0.105,1.014,-3.64,0.49,-0.42
1743438541.6929247,-0.203,-0.122,0.997,-0.42,-2.73,-0.63
1743438541.7129247,-0.198,-0.113,1.001,-0.21,-3.85,0.0
1743438541.7329247,-0.173,-0.108,1.017,0.77,1.05,0.14
1743438541.752925,-0.181,-0.105,1.008,1.33,2.03,0.07
1743438541.772925,-0.196,-0.104,0.989,0.56,-1.75,0.0
1743438541.7929246,-0.189,-0.102,0.995,0.84,-3.29,-0.14
1743438541.8129246,-0.188,-0.106,1.004,1.82,-2.24,-0.28
1743438541.8329246,-0.191,-0.102,1.016,1.54,-3.08,-0.42
1743438541.8529246,-0.191,-0.1,1.02,-0.14,-2.73,-0.63
1743438541.8729246,-0.191,-0.103,1.02,-0.28,-2.17,-0.7
1743438541.8929243,-0.196,-0.103,1.016,-0.28,-2.94,-0.77
1743438541.9129243,-0.196,-0.11,1.01,-0.84,-3.64,-0.7
1743438541.9329245,-0.195,-0.11,1.003,-0.49,-3.99,-0.77
1743438541.9529245,-0.188,-0.115,1.001,0.84,-3.64,-0.77
1743438541.9729245,-0.189,-0.107,0.999,1.05,-3.64,-0.7
1743438541.9929245,-0.186,-0.106,1.001,0.21,-3.99,-0.63
1743438542.0129244,-0.186,-0.108,1.001,0.49,-3.85,-0.63
1743438542.0329244,-0.181,-0.108,1.006,0.91,-2.8,-0.42
1743438542.0529244,-0.182,-0.107,1.008,0.42,-2.38,-0.35
1743438542.0729244,-0.185,-0.109,1.009,0.07,-1.82,-0.28
1743438542.0929244,-0.183,-0.11,1.009,0.35,-1.4,-0.21
1743438542.1129243,-0.191,-0.11,1.008,0.21,-1.47,-0.07
1743438542.1329243,-0.188,-0.111,1.007,0.49,-1.75,-0.07
1743438542.1529243,-0.188,-0.108,1.005,0.91,-1.54,-0.07
1743438542.1729245,-0.193,-0.107,1.005,0.84,-1.75,-0.21
1743438542.1929245,-0.19,-0.105,1.007,0.56,-2.24,-0.21
1743438542.2129242,-0.193,-0.103,1.008,0.49,-2.45,-0.35
1743438542.2329242,-0.193,-0.104,1.012,0.49,-2.94,-0.49
1743438542.2529242,-0.194,-0.105,1.012,0.28,-3.15,-0.49
1743438542.2729242,-0.191,-0.105,1.012,-0.07,-3.36,-0.56
1743438542.2929242,-0.19,-0.106,1.012,17.85,-3.22,-0.56
1743438542.312924,-0.19,-0.109,1.006,0.28,-3.36,-0.56
1743438542.332924,-0.188,-0.107,1.008,0.28,-3.43,-0.49
1743438542.352924,-0.188,-0.108,1.006,0.14,-3.01,-0.56
1743438542.372924,-0.189,-0.109,1.005,0.56,-2.94,-0.49
1743438542.392924,-0.187,-0.107,1.006,0.28,-2.8,-0.42
1743438542.412924,-0.187,-0.109,1.001,0.21,-2.66,-0.42
1743438542.432924,-0.187,-0.108,0.999,1.05,-2.66,-0.14
1743438542.452924,-0.185,-0.109,1.002,1.26,-2.59,-0.21
1743438542.472924,-0.186,-0.108,1.0,1.4,-2.45,-0.28
1743438542.492924,-0.189,-0.109,1.002,2.03,-2.94,-0.07
1743438542.512924,-0.189,-0.109,1.008,1.68,-2.94,-0.14
1743438542.532924,-0.19,-0.106,1.013,1.12,-2.8,-0.07
1743438542.552924,-0.187,-0.103,1.018,1.26,-2.38,-0.07
1743438542.572924,-0.188,-0.105,1.016,1.12,-1.82,-0.07
1743438542.592924,-0.19,-0.101,1.015,0.56,-1.61,-0.14
1743438542.612924,-0.186,-0.103,1.017,-0.42,-1.75,-0.28
1743438542.6329238,-0.195,-0.112,1.003,-0.42,-2.59,-0.28
1743438542.6529238,-0.19,-0.11,0.996,2.17,-2.8,-0.28
1743438542.6729238,-0.188,-0.102,1.005,1.12,-3.43,-0.21
1743438542.6929238,-0.194,-0.109,1.001,0.56,-5.11,-0.42
1743438542.7129238,-0.187,-0.111,1.005,2.24,-4.69,-0.49
1743438542.7329235,-0.186,-0.103,1.021,3.85,-2.73,-0.63
1743438542.7529235,-0.195,-0.091,1.024,1.05,-3.22,-0.7
1743438542.7729237,-0.191,-0.096,1.016,-2.24,-4.34,-0.63
1743438542.7929237,-0.182,-0.108,1.001,-1.61,-3.08,-0.7
1743438542.8129237,-0.183,-0.111,0.996,0.7,-3.43,-0.77
1743438542.8329237,-0.183,-0.104,0.996,0.56,-3.92,-0.56
1743438542.8529236,-0.181,-0.104,1.006,0.28,-2.8,-0.49
1743438542.8729236,-0.182,-0.107,1.014,0.63,-1.82,-0.42
1743438542.8929236,-0.189,-0.106,1.014,0.28,-1.89,-0.42
1743438542.9129236,-0.19,-0.106,1.009,-0.14,-2.24,-0.49
1743438542.9329236,-0.188,-0.105,1.01,0.07,-1.96,-0.42
1743438542.9529235,-0.184,-0.104,1.01,-0.21,-1.12,-0.21
1743438542.9729235,-0.185,-0.104,1.005,-0.77,-1.19,-0.28
1743438542.9929235,-0.184,-0.109,1.0,-0.91,-1.54,-0.28
1743438543.0129237,-0.189,-0.113,0.996,1.47,-1.82,-0.28
1743438543.0329237,-0.192,-0.106,1.003,2.17,-2.94,-0.35
1743438543.0529234,-0.191,-0.101,1.016,0.98,-3.08,-0.42
1743438543.0729234,-0.186,-0.102,1.018,0.35,-2.45,-0.35
1743438543.0929234,-0.19,-0.106,1.019,0.14,-2.03,-0.56
1743438543.1129234,-0.192,-0.104,1.01,-0.14,-2.59,-0.49
1743438543.1329234,-0.192,-0.104,1.007,-0.42,-3.36,-0.7
1743438543.152923,-0.182,-0.105,1.004,0.0,-3.08,-0.49
1743438543.172923,-0.181,-0.106,0.998,0.21,-2.73,-0.56
1743438543.1929233,-0.185,-0.106,1.001,0.63,-2.8,-0.56
1743438543.2129233,-0.19,-0.107,1.008,0.49,-2.66,-0.56
1743438543.2329233,-0.187,-0.107,1.012,0.49,-2.73,-0.56
1743438543.2529233,-0.188,-0.109,1.015,0.42,-2.38,-0.35
1743438543.2729232,-0.188,-0.109,1.013,0.21,-2.03,-0.35
1743438543.2929232,-0.185,-0.112,1.002,-0.63,-2.59,-0.21
1743438543.3129232,-0.183,-0.111,0.992,1.96,-1.47,-0.35
1743438543.3329232,-0.188,-0.096,1.019,1.54,-2.38,-0.28
1743438543.3529232,-0.186,-0.103,1.017,-0.98,-1.75,-0.49
1743438543.3729231,-0.191,-0.107,1.023,0.77,-0.84,-0.42
1743438543.392923,-0.194,-0.1,1.017,-1.54,-2.31,-0.49
1743438543.412923,-0.193,-0.105,1.0,-1.54,-3.71,-0.56
1743438543.432923,-0.186,-0.111,0.998,1.54,-3.22,-0.7
1743438543.452923,-0.183,-0.099,1.004,0.91,-2.66,-0.7
1743438543.472923,-0.189,-0.103,1.004,-0.21,-3.43,-0.56
1743438543.492923,-0.185,-0.108,1.009,0.35,-2.94,-0.63
1743438543.512923,-0.19,-0.104,1.015,0.7,-2.52,-0.63
1743438543.532923,-0.189,-0.104,1.009,-0.21,-3.22,-0.56
1743438543.552923,-0.183,-0.108,1.01,-0.21,-2.52,-0.49
1743438543.572923,-0.182,-0.107,1.008,0.42,-1.54,-0.42
1743438543.592923,-0.185,-0.104,1.005,-0.28,-1.82,-0.42
1743438543.612923,-0.186,-0.109,1.004,-0.14,-2.03,-0.42
1743438543.632923,-0.187,-0.11,1.006,0.42,-1.75,-0.28
1743438543.6529229,-0.188,-0.107,1.01,0.56,-2.1,-0.35
1743438543.6729228,-0.186,-0.104,1.006,0.35,-2.45,-0.35
1743438543.6929228,-0.188,-0.106,1.007,0.28,-2.31,-0.35
1743438543.7129228,-0.189,-0.105,1.005,0.63,-2.52,-0.49
1743438543.7329228,-0.191,-0.103,1.01,0.63,-2.73,-0.56
1743438543.7529228,-0.19,-0.106,1.013,0.0,-2.87,-0.42
1743438543.7729228,-0.187,-0.105,1.009,-0.14,-2.45,-0.63
1743438543.7929227,-0.184,-0.109,1.01,0.07,-2.38,-0.42
1743438543.8129227,-0.185,-0.106,1.004,-0.21,-2.52,-0.42
1743438543.8329227,-0.189,-0.108,1.0,0.28,-2.59,-0.49
1743438543.852923,-0.188,-0.108,1.002,0.7,-2.66,-0.42
1743438543.872923,-0.188,-0.105,1.006,0.77,-2.87,-0.49
1743438543.8929226,-0.188,-0.105,1.009,0.49,-3.01,-0.42
1743438543.9129226,-0.186,-0.108,1.01,0.63,-2.52,-0.35
1743438543.9329226,-0.186,-0.106,1.01,0.91,-2.03,-0.28
1743438543.9529226,-0.188,-0.102,1.007,0.14,-2.59,-0.35
1743438543.9729226,-0.189,-0.108,1.009,0.21,-2.73,-0.28
1743438543.9929223,-0.183,-0.106,1.008,0.7,-1.82,-0.42
1743438544.0129223,-0.188,-0.104,1.007,0.42,-1.96,-0.35
1743438544.0329225,-0.188,-0.106,1.008,0.14,-2.45,-0.35
1743438544.0529225,-0.188,-0.106,1.006,0.42,-2.1,-0.49
1743438544.0729225,-0.19,-0.106,1.007,0.49,-3.08,-0.42
1743438544.0929224,-0.186,-0.106,1.005,0.21,-2.8,-0.42
1743438544.1129224,-0.187,-0.108,1.007,0.84,-2.31,-0.35
1743438544.1329224,-0.187,-0.107,1.009,0.49,-2.8,-0.35
1743438544.1529224,-0.187,-0.108,1.003,1.05,-2.87,-0.21
1743438544.1729224,-0.186,-0.107,1.009,0.84,-3.08,-0.14
1743438544.1929224,-0.183,-0.109,1.012,0.63,-2.38,-0.14
1743438544.2129223,-0.189,-0.107,1.017,1.96,-1.54,-0.28
1743438544.2329223,-0.191,-0.096,1.024,0.14,-1.89,-0.35
1743438544.2529223,-0.193,-0.101,1.015,-1.68,-2.31,-0.42
1743438544.2729225,-0.191,-0.112,1.002,-0.84,-2.8,-0.42
1743438544.2929225,-0.186,-0.105,0.995,1.05,-2.8,-0.42
1743438544.3129222,-0.185,-0.107,0.994,-0.35,-3.36,-0.42
1743438544.3329222,-0.184,-0.113,1.0,2.38,-3.01,-0.49
1743438544.3529222,-0.186,-0.105,1.014,1.05,-2.8,-0.42
1743438544.3729222,-0.19,-0.104,1.019,-0.07,-3.29,-0.42
1743438544.3929222,-0.188,-0.109,1.019,0.21,-2.73,-0.42
1743438544.412922,-0.187,-0.107,1.016,0.28,-1.75,-0.42
1743438544.432922,-0.187,-0.103,1.009,-0.21,-1.96,-0.35
1743438544.452922,-0.186,-0.106,1.003,-0.28,-2.52,-0.35
1743438544.472922,-0.185,-0.108,1.004,0.56,-1.96,-0.35
1743438544.492922,-0.185,-0.103,1.003,0.63,-2.38,-0.35
1743438544.512922,-0.188,-0.105,1.002,0.42,-2.59,-0.35
1743438544.532922,-0.189,-0.107,1.008,0.98,-2.66,-0.42
1743438544.552922,-0.189,-0.108,1.009,0.84,-2.66,-0.28
1743438544.572922,-0.188,-0.107,1.009,0.56,-2.8,-0.42
1743438544.592922,-0.189,-0.108,1.012,0.56,-2.59,-0.35
1743438544.612922,-0.187,-0.106,1.009,0.84,-2.52,-0.35
1743438544.632922,-0.187,-0.108,1.008,0.77,-2.52,-0.35
1743438544.652922,-0.185,-0.103,1.01,0.7,-2.87,-0.42
1743438544.672922,-0.183,-0.102,1.012,0.35,-2.17,-0.35
1743438544.692922,-0.186,-0.106,1.01,0.28,-2.1,-0.42
1743438544.712922,-0.187,-0.106,1.005,0.35,-2.59,-0.35
1743438544.7329218,-0.186,-0.105,1.006,0.35,-2.66,-0.28
1743438544.7529218,-0.183,-0.108,1.006,0.98,-2.45,-0.49
1743438544.7729218,-0.188,-0.103,1.009,0.77,-2.45,-0.35
1743438544.7929218,-0.187,-0.108,1.011,-0.07,-2.8,-0.28
1743438544.8129218,-0.185,-0.109,1.01,0.63,-2.38,-0.35
1743438544.8329215,-0.191,-0.106,1.008,0.98,-2.17,-0.42
1743438544.8529215,-0.186,-0.103,1.007,0.49,-2.94,-0.28
1743438544.8729217,-0.186,-0.108,1.01,0.7,-2.45,-0.35
1743438544.8929217,-0.184,-0.104,1.008,0.91,-2.03,-0.42
1743438544.9129217,-0.189,-0.104,1.01,0.14,-2.38,-0.28
1743438544.9329216,-0.188,-0.104,1.007,0.0,-2.24,-0.42
1743438544.9529216,-0.185,-0.104,1.003,0.35,-2.24,-0.42
1743438544.9729216,-0.186,-0.105,1.006,0.7,-2.59,-0.42
1743438544.9929216,-0.187,-0.108,1.007,0.56,-2.59,-0.35
1743438545.0129216,-0.187,-0.108,1.005,0.91,-2.66,-0.42
1743438545.0329216,-0.187,-0.108,1.01,1.19,-2.87,-0.35
1743438545.0529215,-0.187,-0.105,1.012,0.98,-2.66,-0.35
1743438545.0729215,-0.187,-0.105,1.016,0.56,-2.31,-0.35
1743438545.0929215,-0.185,-0.104,1.014,0.28,-2.24,-0.35
1743438545.1129217,-0.187,-0.105,1.01,0.21,-2.31,-0.35
1743438545.1329217,-0.185,-0.104,1.007,0.21,-2.24,-0.35
1743438545.1529214,-0.188,-0.105,1.005,0.14,-2.31,-0.42
1743438545.1729214,-0.189,-0.107,1.002,0.28,-2.45,-0.35
1743438545.1929214,-0.185,-0.108,1.005,0.77,-2.24,-0.35
1743438545.2129214,-0.189,-0.105,1.007,0.77,-2.38,-0.35
1743438545.2329214,-0.188,-0.106,1.009,0.28,-2.66,-0.42
1743438545.252921,-0.187,-0.107,1.016,0.35,-1.96,-0.42
1743438545.272921,-0.19,-0.106,1.012,-0.07,-2.38,-0.42
1743438545.2929213,-0.189,-0.106,1.007,0.14,-2.45,-0.35
1743438545.3129213,-0.187,-0.106,1.0,0.35,-2.38,-0.28
1743438545.3329213,-0.188,-0.11,0.874,0.91,-3.08,-0.14
1743438545.3529212,-0.184,-0.113,0.996,1.89,-3.85,-0.14
1743438545.3729212,-0.188,-0.113,1.002,3.99,-4.55,-0.28
1743438545.3929212,-0.187,-0.098,1.014,4.48,-3.85,-0.28
1743438545.4129212,-0.185,-0.092,1.026,1.47,-3.36,-0.35
1743438545.4329212,-0.182,-0.094,1.032,-0.84,-1.4,-0.56
1743438545.4529212,-0.184,-0.102,1.025,-1.47,-0.56,-0.49
1743438545.4729211,-0.189,-0.102,1.011,-2.31,-1.19,-0.42
1743438545.492921,-0.187,-0.105,0.995,-1.33,-1.68,-0.7
1743438545.512921,-0.189,-0.103,0.996,0.28,-1.82,-0.84
1743438545.532921,-0.192,-0.101,1.008,-0.14,-2.87,-0.98
1743438545.552921,-0.188,-0.099,1.02,-2.45,-3.08,-0.91
1743438545.572921,-0.187,-0.105,1.022,-3.01,-1.26,-0.98
1743438545.592921,-0.192,-0.114,1.013,-2.73,-1.75,-0.98
1743438545.612921,-0.191,-0.116,0.997,-2.24,-2.59,-0.84
1743438545.632921,-0.185,-0.113,0.99,17.78,-3.78,-0.63
1743438545.652921,-0.186,-0.113,0.99,1.05,-3.92,-0.56
1743438545.672921,-0.183,-0.109,0.987,2.24,-4.41,-0.49
1743438545.692921,-0.179,-0.104,0.998,2.59,-4.06,-0.42
1743438545.712921,-0.18,-0.105,1.009,1.54,-2.52,-0.35
1743438545.732921,-0.183,-0.106,1.024,1.19,-1.68,-0.21
1743438545.7529209,-0.183,-0.103,1.034,-0.49,-0.56,-0.14
1743438545.7729208,-0.188,-0.107,1.021,-1.26,0.63,-0.14
1743438545.7929208,-0.188,-0.109,1.011,-0.21,0.07,-0.21
1743438545.8129208,-0.19,-0.105,1.004,-0.28,-0.7,-0.14
1743438545.8329208,-0.185,-0.108,0.998,-0.21,-0.91,-0.14
1743438545.8529208,-0.192,-0.11,0.996,1.12,-1.96,-0.35
1743438545.8729208,-0.195,-0.104,1.004,0.98,-3.43,-0.42
1743438545.8929207,-0.195,-0.106,1.004,1.05,-4.34,-0.49
1743438545.9129207,-0.189,-0.106,1.016,1.4,-4.48,-0.56
1743438545.9329207,-0.19,-0.102,1.015,1.12,-3.99,-0.35
1743438545.952921,-0.183,-0.107,1.014,-1.12,-3.64,-0.49
1743438545.972921,-0.185,-0.11,0.995,2.52,-3.64,-0.7
1743438545.9929206,-0.19,-0.097,1.015,-1.61,-4.34,-0.49
1743438546.0129206,-0.18,-0.109,1.015,-0.21,-1.75,-0.42
1743438546.0329206,-0.178,-0.112,1.016,1.05,-0.07,-0.42
1743438546.0529206,-0.186,-0.104,1.008,-1.75,-1.68,-0.28
1743438546.0729206,-0.189,-0.114,0.995,-1.82,-2.66,-0.21
1743438546.0929203,-0.184,-0.117,1.001,2.03,-2.03,-0.21
1743438546.1129203,-0.185,-0.106,1.008,2.24,-1.47,-0.35
1743438546.1329205,-0.188,-0.102,1.005,0.07,-2.45,-0.28
1743438546.1529205,-0.19,-0.108,1.006,0.91,-2.38,-0.35
1743438546.1729205,-0.191,-0.104,1.014,0.49,-2.24,-0.42
1743438546.1929204,-0.194,-0.104,1.012,-0.42,-3.64,-0.35
1743438546.2129204,-0.187,-0.109,1.006,1.05,-3.01,-0.56
1743438546.2329204,-0.183,-0.103,1.007,1.19,-2.73,-0.42
1743438546.2529204,-0.186,-0.102,1.003,0.21,-3.43,-0.49
1743438546.2729204,-0.187,-0.107,1.005,0.28,-3.29,-0.49
1743438546.2929204,-0.182,-0.108,1.011,1.47,-2.59,-0.49
1743438546.3129203,-0.186,-0.1,1.012,1.05,-2.73,-0.42
1743438546.3329203,-0.187,-0.102,1.014,0.07,-3.01,-0.35
1743438546.3529203,-0.184,-0.106,1.007,0.49,-2.31,-0.42
1743438546.3729205,-0.182,-0.107,1.008,0.77,-1.68,-0.42
1743438546.3929205,-0.184,-0.104,1.009,0.28,-1.68,-0.35
1743438546.4129202,-0.184,-0.105,1.01,-0.35,-2.1,-0.42
1743438546.4329202,-0.186,-0.107,1.012,0.07,-1.47,-0.42
1743438546.4529202,-0.192,-0.107,1.012,0.14,-1.33,-0.35
1743438546.4729202,-0.192,-0.109,1.01,-0.14,-2.24,-0.28
1743438546.4929202,-0.189,-0.107,1.006,0.42,-2.17,-0.42
1743438546.51292,-0.191,-0.106,1.004,1.05,-2.03,-0.35
1743438546.53292,-0.186,-0.102,0.998,0.14,-3.29,-0.28
1743438546.55292,-0.184,-0.107,1.123,0.98,-3.29,-0.35
1743438546.57292,-0.182,-0.11,1.017,1.75,-2.66,-0.49
1743438546.59292,-0.189,-0.103,1.024,0.0,-2.45,-0.49
1743438546.61292,-0.196,-0.106,1.02,-0.77,-2.59,-0.42
1743438546.63292,-0.188,-0.107,1.016,-0.63,-2.1,-0.49
1743438546.65292,-0.189,-0.109,0.997,-0.14,-2.24,-0.56
1743438546.67292,-0.187,-0.103,0.994,0.42,-3.29,-0.56
1743438546.69292,-0.183,-0.108,0.999,-0.21,-3.01,-0.42
1743438546.71292,-0.187,-0.109,1.001,1.26,-2.52,-0.42
1743438546.73292,-0.188,-0.103,1.012,1.68,-2.59,-0.49
1743438546.75292,-0.19,-0.102,1.015,0.35,-3.15,-0.35
1743438546.77292,-0.189,-0.107,1.013,0.28,-2.8,-0.21
1743438546.79292,-0.18,-0.11,1.01,0.77,-1.68,-0.28
1743438546.81292,-0.186,-0.105,1.004,0.49,-1.89,-0.28
1743438546.8329198,-0.189,-0.107,1.004,0.35,-2.45,-0.07
1743438546.8529198,-0.182,-0.105,1.012,0.77,-1.47,-0.28
1743438546.8729198,-0.192,-0.103,1.006,0.98,-1.75,-0.21
1743438546.8929198,-0.19,-0.101,1.012,0.28,-2.45,-0.21
1743438546.9129198,-0.188,-0.107,1.005,-0.21,-2.03,-0.35
1743438546.9329195,-0.191,-0.109,1.005,0.91,-2.24,-0.35
1743438546.9529195,-0.19,-0.103,1.007,0.49,-2.94,-0.35
1743438546.9729197,-0.19,-0.107,1.006,1.05,-2.94,-0.42
1743438546.9929197,-0.187,-0.103,1.011,0.84,-2.8,-0.49
1743438547.0129197,-0.187,-0.103,1.008,0.35,-2.8,-0.42
1743438547.0329196,-0.189,-0.107,1.005,0.98,-2.94,-0.42
1743438547.0529196,-0.184,-0.103,1.007,0.98,-3.01,-0.35
1743438547.0729196,-0.183,-0.103,1.01,0.35,-2.8,-0.35
1743438547.0929196,-0.184,-0.109,1.014,0.28,-2.03,-0.28
1743438547.1129196,-0.188,-0.107,1.018,0.77,-1.19,-0.28
1743438547.1329195,-0.193,-0.102,1.018,-0.35,-1.68,-0.42
1743438547.1529195,-0.193,-0.104,1.004,-0.42,-2.59,-0.35
1743438547.1729195,-0.188,-0.106,0.999,0.63,-2.94,-0.42
1743438547.1929195,-0.185,-0.104,1.003,0.63,-2.73,-0.42
1743438547.2129197,-0.186,-0.106,1.003,0.63,-2.59,-0.56
1743438547.2329197,-0.192,-0.109,1.008,0.35,-3.43,-0.42
1743438547.2529194,-0.186,-0.11,1.017,0.84,-2.87,-0.49
1743438547.2729194,-0.19,-0.104,1.017,1.47,-2.31,-0.56
1743438547.2929194,-0.188,-0.1,1.017,0.91,-2.94,-0.49
1743438547.3129194,-0.186,-0.102,1.007,-0.56,-2.8,-0.35
1743438547.3329194,-0.181,-0.107,1.005,-0.77,-2.03,-0.42
1743438547.352919,-0.184,-0.111,0.998,0.56,-1.89,-0.35
1743438547.372919,-0.186,-0.109,1.0,0.98,-2.1,-0.35
1743438547.3929193,-0.187,-0.103,1.009,0.98,-2.59,-0.42
1743438547.4129193,-0.187,-0.104,1.014,0.63,-2.66,-0.28
1743438547.4329193,-0.186,-0.105,1.014,0.07,-2.1,-0.28
1743438547.4529192,-0.187,-0.106,1.014,0.21,-1.75,-0.28
1743438547.4729192,-0.191,-0.106,1.007,0.56,-1.96,-0.35
1743438547.4929192,-0.191,-0.103,1.005,0.35,-2.66,-0.35
1743438547.5129192,-0.188,-0.106,1.007,0.0,-3.01,-0.49
1743438547.5329192,-0.189,-0.107,1.006,0.56,-2.66,-0.42
1743438547.5529191,-0.184,-0.107,1.01,0.98,-2.1,-0.42
1743438547.5729191,-0.188,-0.103,1.008,0.42,-2.8,-0.49
1743438547.592919,-0.189,-0.103,1.008,-0.07,-3.36,-0.42
1743438547.612919,-0.187,-0.105,1.009,0.42,-2.45,-0.35
1743438547.632919,-0.186,-0.108,1.012,0.63,-2.45,-0.42
1743438547.652919,-0.189,-0.105,1.007,0.21,-2.52,-0.42
1743438547.672919,-0.187,-0.104,1.007,0.84,-2.66,-0.35
1743438547.692919,-0.189,-0.105,1.005,1.05,-3.01,-0.35
1743438547.712919,-0.187,-0.102,1.007,0.42,-2.73,-0.28
1743438547.732919,-0.183,-0.106,1.01,0.7,-2.17,-0.35
1743438547.752919,-0.189,-0.103,1.008,0.7,-2.24,-0.42
1743438547.772919,-0.189,-0.102,1.012,-0.21,-2.94,-0.42
1743438547.792919,-0.184,-0.106,1.011,-0.07,-2.59,-0.49
1743438547.812919,-0.184,-0.109,1.008,0.77,-2.1,-0.49
1743438547.832919,-0.188,-0.104,1.006,0.42,-2.17,-0.28
1743438547.8529189,-0.193,-0.104,1.004,0.14,-3.08,-0.49
1743438547.8729188,-0.188,-0.107,1.006,0.77,-2.59,-0.42
1743438547.8929188,-0.187,-0.106,1.009,0.7,-2.73,-0.42
1743438547.9129188,-0.188,-0.105,1.01,0.56,-2.8,-0.42
1743438547.9329188,-0.186,-0.105,1.007,0.7,-2.59,-0.35
1743438547.9529188,-0.188,-0.104,1.008,0.63,-2.52,-0.35
1743438547.9729187,-0.185,-0.104,1.012,0.21,-2.8,-0.42
1743438547.9929187,-0.185,-0.106,1.009,0.14,-2.03,-0.35
1743438548.0129187,-0.186,-0.106,1.01,0.35,-1.96,-0.42
1743438548.0329187,-0.189,-0.104,1.008,0.42,-2.17,-0.28
1743438548.052919,-0.189,-0.103,1.004,0.14,-2.52,-0.35
1743438548.072919,-0.186,-0.106,1.005,0.63,-2.59,-0.35
1743438548.0929186,-0.186,-0.104,1.005,0.7,-2.45,-0.35
1743438548.1129186,-0.185,-0.104,1.007,0.56,-2.59,-0.28
1743438548.1329186,-0.189,-0.104,1.01,0.77,-2.59,-0.49
1743438548.1529186,-0.188,-0.104,1.016,0.21,-2.38,-0.49
1743438548.1729186,-0.188,-0.107,1.011,-0.14,-2.59,-0.42
1743438548.1929183,-0.188,-0.105,1.013,0.07,-2.24,-0.42
1743438548.2129183,-0.189,-0.105,1.007,0.35,-2.24,-0.49
1743438548.2329185,-0.19,-0.105,1.003,0.42,-2.87,-0.35
1743438548.2529185,-0.187,-0.105,1.007,0.28,-2.73,-0.42
1743438548.2729185,-0.187,-0.108,1.005,0.63,-2.45,-0.42
1743438548.2929184,-0.189,-0.103,1.008,0.63,-2.66,-0.42
1743438548.3129184,-0.189,-0.102,1.011,0.56,-2.8,-0.42
1743438548.3329184,-0.184,-0.105,1.011,0.14,-2.94,-0.42
1743438548.3529184,-0.183,-0.107,1.009,0.35,-2.52,-0.35
1743438548.3729184,-0.185,-0.106,1.006,0.77,-2.03,-0.35
1743438548.3929183,-0.191,-0.105,1.004,0.7,-2.52,-0.42
1743438548.4129183,-0.189,-0.102,1.009,0.42,-2.94,-0.42
1743438548.4329183,-0.187,-0.104,1.008,0.28,-2.59,-0.42
1743438548.4529183,-0.185,-0.107,1.008,0.91,-2.24,-0.42
1743438548.4729185,-0.185,-0.103,1.004,0.63,-2.38,-0.35
1743438548.4929185,-0.189,-0.106,1.009,0.35,-2.8,-0.42
1743438548.5129182,-0.186,-0.107,1.012,0.49,-2.87,-0.35
1743438548.5329182,-0.186,-0.108,1.008,1.05,-2.17,-0.35
1743438548.5529182,-0.189,-0.105,1.005,1.33,-2.73,-0.42
1743438548.5729182,-0.189,-0.103,1.007,0.7,-3.22,-0.35
1743438548.5929182,-0.184,-0.104,1.012,0.7,-2.66,-0.35
1743438548.612918,-0.186,-0.104,1.01,0.77,-2.31,-0.42
1743438548.632918,-0.186,-0.105,1.009,0.14,-2.45,-0.28
1743438548.652918,-0.187,-0.105,1.006,0.07,-2.52,-0.35
1743438548.672918,-0.185,-0.108,1.006,0.91,-2.45,-0.28
1743438548.692918,-0.186,-0.105,1.009,0.63,-2.31,-0.35
1743438548.712918,-0.187,-0.106,1.012,0.49,-2.03,-0.42
1743438548.732918,-0.189,-0.104,1.011,0.63,-2.31,-0.42
1743438548.752918,-0.189,-0.103,1.013,-0.14,-2.38,-0.42
1743438548.772918,-0.187,-0.106,1.008,-0.63,-2.31,-0.42
1743438548.792918,-0.187,-0.107,1.004,0.56,-2.31,-0.42
1743438548.812918,-0.189,-0.102,1.0,0.84,-3.15,-0.42
1743438548.832918,-0.188,-0.103,1.003,0.77,-3.15,-0.35
1743438548.852918,-0.185,-0.104,1.013,0.77,-2.24,-0.42
1743438548.872918,-0.186,-0.104,1.015,0.91,-2.24,-0.42
1743438548.892918,-0.191,-0.104,1.02,-0.07,-2.73,-0.35
1743438548.912918,-0.187,-0.105,1.015,-0.21,-2.52,-0.35
1743438548.9329178,-0.187,-0.107,1.008,0.07,-2.38,-0.49
1743438548.9529178,-0.185,-0.103,1.006,0.56,-3.08,-0.49
1743438548.9729178,-0.183,-0.103,1.005,0.28,-2.52,-0.42
1743438548.9929178,-0.18,-0.103,1.002,0.35,-2.66,-0.63
1743438549.0129178,-0.185,-0.098,1.006,0.28,-3.08,-0.63
1743438549.0329175,-0.186,-0.102,1.013,-0.63,-2.31,-0.7
1743438549.0529177,-0.188,-0.105,1.016,-0.98,-2.03,-0.7
1743438549.0729177,-0.187,-0.106,1.011,-1.75,-2.03,-0.63
1743438549.0929177,-0.186,-0.11,1.003,-1.4,-2.1,-0.56
1743438549.1129177,-0.185,-0.116,0.997,-0.77,-2.31,-0.42
1743438549.1329176,-0.188,-0.114,0.993,1.68,-2.38,-0.35
1743438549.1529176,-0.185,-0.106,0.996,1.33,-3.08,-0.14
1743438549.1729176,-0.189,-0.112,1.001,0.49,-3.29,-0.21
1743438549.1929176,-0.184,-0.108,1.007,3.92,-2.31,-0.28
1743438549.2129176,-0.189,-0.101,1.029,1.89,-2.31,-0.07
1743438549.2329175,-0.187,-0.092,1.024,-1.4,-2.1,-0.28
1743438549.2529175,-0.184,-0.106,1.001,-1.33,-1.19,-0.28
1743438549.2729175,-0.185,-0.107,0.999,1.12,-1.82,-0.42
1743438549.2929175,-0.186,-0.101,1.009,0.21,-2.31,-0.28
1743438549.3129177,-0.189,-0.107,1.009,-0.07,-1.96,-0.35
1743438549.3329177,-0.192,-0.109,1.01,0.91,-2.24,-0.56
1743438549.3529174,-0.194,-0.103,1.01,-0.21,-3.36,-0.49
1743438549.3729174,-0.189,-0.11,1.006,0.07,-3.36,-0.49
1743438549.3929174,-0.188,-0.11,1.004,1.4,-2.87,-0.49
1743438549.4129174,-0.187,-0.101,1.005,0.77,-3.15,-0.42
1743438549.4329174,-0.183,-0.107,1.008,0.28,-3.36,-0.42
1743438549.452917,-0.181,-0.108,1.009,0.91,-2.52,-0.42
1743438549.4729173,-0.184,-0.107,1.014,1.19,-2.1,-0.35
1743438549.4929173,-0.188,-0.103,1.015,0.49,-2.31,-0.35
1743438549.5129173,-0.189,-0.105,1.017,-0.21,-1.47,-0.35
1743438549.5329173,-0.191,-0.106,1.012,-0.21,-1.89,-0.28
1743438549.5529172,-0.189,-0.106,1.0,0.14,-2.45,-0.35
1743438549.5729172,-0.186,-0.108,0.996,0.84,-2.73,-0.35
1743438549.5929172,-0.184,-0.102,1.002,1.12,-2.66,-0.42
1743438549.6129172,-0.185,-0.103,1.009,0.98,-2.52,-0.42
1743438549.6329172,-0.189,-0.102,1.011,0.42,-2.94,-0.42
1743438549.6529171,-0.189,-0.104,1.013,0.14,-2.94,-0.49
1743438549.6729171,-0.186,-0.105,1.011,0.7,-2.8,-0.42
1743438549.692917,-0.186,-0.105,1.01,0.7,-2.73,-0.28
1743438549.712917,-0.184,-0.103,1.007,0.49,-2.38,-0.42
1743438549.732917,-0.186,-0.104,1.009,0.21,-2.31,-0.35
1743438549.752917,-0.187,-0.108,1.01,0.28,-2.24,-0.35
1743438549.772917,-0.187,-0.105,1.009,0.28,-1.96,-0.42
1743438549.792917,-0.19,-0.104,1.006,0.07,-2.31,-0.42
1743438549.812917,-0.188,-0.106,1.005,0.07,-2.45,-0.42
1743438549.832917,-0.185,-0.105,1.003,0.42,-2.59,-0.35
1743438549.852917,-0.187,-0.105,1.003,0.98,-2.66,-0.35
1743438549.872917,-0.187,-0.102,1.007,0.77,-2.87,-0.42
1743438549.892917,-0.186,-0.103,1.008,0.42,-2.73,-0.49
1743438549.912917,-0.186,-0.109,1.011,0.35,-2.73,-0.42
1743438549.9329169,-0.188,-0.105,1.011,-0.14,-2.66,-0.35
1743438549.9529169,-0.186,-0.108,1.008,0.28,-2.38,-0.35
1743438549.9729168,-0.186,-0.104,1.007,0.77,-2.24,-0.42
1743438549.9929168,-0.188,-0.103,1.005,0.56,-2.45,-0.42
1743438550.0129168,-0.186,-0.103,1.01,0.35,-2.66,-0.35
1743438550.0329168,-0.186,-0.104,1.011,0.35,-2.31,-0.35
1743438550.0529168,-0.188,-0.103,1.008,0.07,-2.03,-0.28
1743438550.0729167,-0.189,-0.102,1.006,0.07,-2.66,-0.35
1743438550.0929167,-0.185,-0.107,1.004,0.7,-2.45,-0.42
1743438550.1129167,-0.187,-0.107,1.007,0.98,-2.52,-0.49
1743438550.1329167,-0.188,-0.104,1.01,0.7,-2.45,-0.49
1743438550.152917,-0.19,-0.102,1.013,0.14,-2.66,-0.42
1743438550.172917,-0.186,-0.107,1.013,-0.21,-2.59,-0.42
1743438550.1929166,-0.185,-0.108,1.008,0.07,-2.31,-0.42
1743438550.2129166,-0.188,-0.105,1.006,0.35,-2.45,-0.49
1743438550.2329166,-0.187,-0.107,1.007,0.42,-2.45,-0.42
1743438550.2529166,-0.185,-0.106,1.007,0.42,-2.45,-0.42
1743438550.2729166,-0.187,-0.105,1.005,0.7,-2.59,-0.42
1743438550.2929163,-0.186,-0.105,1.008,0.49,-2.59,-0.35
1743438550.3129165,-0.187,-0.104,1.01,0.42,-2.45,-0.35
1743438550.3329165,-0.186,-0.104,1.012,0.28,-2.31,-0.28
1743438550.3529165,-0.185,-0.107,1.008,0.21,-2.31,-0.35
1743438550.3729165,-0.189,-0.105,1.008,0.35,-2.17,-0.42
1743438550.3929164,-0.187,-0.104,1.007,0.7,-2.24,-0.35
1743438550.4129164,-0.188,-0.103,1.008,0.49,-2.45,-0.49
1743438550.4329164,-0.188,-0.102,1.008,0.35,-2.59,-0.42
1743438550.4529164,-0.185,-0.104,1.009,0.21,-2.73,-0.35
1743438550.4729164,-0.184,-0.106,1.007,0.07,-2.31,-0.35
1743438550.4929163,-0.187,-0.109,1.007,0.7,-2.45,-0.35
1743438550.5129163,-0.187,-0.103,1.007,0.63,-2.66,-0.49
1743438550.5329163,-0.187,-0.105,1.01,0.49,-2.52,-0.42
1743438550.5529163,-0.186,-0.104,1.011,0.42,-2.31,-0.42
1743438550.5729165,-0.19,-0.104,1.008,-17.85,-2.1,-0.42
1743438550.5929165,-0.188,-0.106,1.01,-0.21,-2.24,-0.35
1743438550.6129162,-0.188,-0.106,1.005,0.14,-2.52,-0.49
1743438550.6329162,-0.186,-0.106,1.005,0.21,-2.38,-0.35
1743438550.6529162,-0.187,-0.107,1.003,0.56,-2.45,-0.28
1743438550.6729162,-0.186,-0.104,1.006,0.63,-2.24,-0.42
1743438550.6929162,-0.188,-0.105,1.01,0.42,-2.38,-0.42
1743438550.712916,-0.189,-0.104,1.014,0.0,-2.87,-0.42
1743438550.732916,-0.186,-0.105,1.012,0.07,-2.24,-0.49
1743438550.752916,-0.188,-0.103,1.011,0.07,-2.1,-0.42
1743438550.772916,-0.189,-0.105,1.011,-0.56,-2.31,-0.49
1743438550.792916,-0.184,-0.105,1.011,-0.42,-2.17,-0.49
1743438550.812916,-0.188,-0.106,1.01,-0.07,-2.17,-0.56
1743438550.832916,-0.188,-0.105,1.01,-0.35,-2.31,-0.63
1743438550.852916,-0.184,-0.106,1.005,-0.14,-2.52,-0.56
1743438550.872916,-0.187,-0.105,1.007,-0.28,-2.66,-0.63
1743438550.892916,-0.187,-0.105,1.004,-0.28,-2.24,-0.63
1743438550.912916,-0.187,-0.108,1.005,0.21,-2.8,-0.56
1743438550.932916,-0.188,-0.106,1.005,0.28,-2.8,-0.42
1743438550.952916,-0.186,-0.108,1.005,0.42,-2.73,-0.42
1743438550.972916,-0.186,-0.108,1.001,0.77,-2.87,-0.56
1743438550.992916,-0.184,-0.107,1.004,1.05,-3.08,-0.42
1743438551.0129158,-0.184,-0.104,1.008,0.77,-2.45,-0.28
1743438551.0329158,-0.183,-0.105,1.01,0.28,-2.03,-0.21
1743438551.0529158,-0.185,-0.106,1.01,0.21,-1.68,-0.35
1743438551.0729158,-0.186,-0.107,1.008,0.56,-1.61,-0.28
1743438551.0929158,-0.188,-0.105,1.009,0.49,-1.96,-0.35
1743438551.1129158,-0.186,-0.105,1.007,0.21,-1.75,-0.28
1743438551.1329155,-0.19,-0.108,1.008,0.63,-1.75,-0.28
1743438551.1529157,-0.19,-0.108,1.006,0.56,-1.96,-0.28
1743438551.1729157,-0.192,-0.106,1.005,0.35,-3.01,-0.35
1743438551.1929157,-0.188,-0.105,1.01,0.7,-3.01,-0.56
1743438551.2129157,-0.189,-0.105,1.011,0.35,-2.87,-0.63
1743438551.2329156,-0.187,-0.105,1.012,0.28,-3.01,-0.49
1743438551.2529156,-0.188,-0.105,1.009,0.14,-3.01,-0.56
1743438551.2729156,-0.186,-0.107,1.005,0.42,-3.08,-0.56
1743438551.2929156,-0.186,-0.106,1.008,0.35,-3.08,-0.42
1743438551.3129156,-0.185,-0.106,1.008,0.14,-2.66,-0.42
1743438551.3329155,-0.183,-0.106,1.003,0.42,-2.52,-0.35
1743438551.3529155,-0.187,-0.106,1.006,0.49,-2.38,-0.28
1743438551.3729155,-0.185,-0.106,1.007,0.35,-2.38,-0.42
1743438551.3929155,-0.187,-0.107,1.007,0.56,-2.24,-0.35
1743438551.4129157,-0.187,-0.108,1.011,0.56,-1.82,-0.28
1743438551.4329154,-0.188,-0.107,1.007,0.49,-1.96,-0.28
1743438551.4529154,-0.19,-0.104,1.008,0.63,-2.1,-0.35
1743438551.4729154,-0.188,-0.105,1.009,0.35,-2.24,-0.35
1743438551.4929154,-0.189,-0.105,1.009,0.84,-2.17,-0.28
1743438551.5129154,-0.191,-0.1,1.012,0.77,-2.52,-0.42
1743438551.5329154,-0.189,-0.102,1.009,-0.7,-2.94,-0.49
1743438551.552915,-0.188,-0.109,1.006,-0.7,-2.66,-0.49
1743438551.5729153,-0.189,-0.11,1.007,1.33,-2.52,-0.49
1743438551.5929153,-0.189,-0.099,1.007,-1.12,-3.08,-0.42
1743438551.6129153,-0.19,-0.115,1.0,0.84,-3.15,-0.49
1743438551.6329153,-0.182,-0.106,1.013,1.89,-1.89,-0.56
1743438551.6529152,-0.187,-0.103,1.008,-0.7,-2.31,-0.42
1743438551.6729152,-0.188,-0.114,1.004,0.56,-3.29,-0.35
1743438551.6929152,-0.184,-0.107,1.01,1.54,-1.68,-0.35
1743438551.7129152,-0.19,-0.102,1.012,0.42,-1.96,-0.14
1743438551.7329152,-0.192,-0.107,1.012,-0.42,-2.45,-0.42
1743438551.7529151,-0.186,-0.105,1.008,1.26,-2.17,-0.49
1743438551.7729151,-0.185,-0.098,1.011,-0.21,-2.94,-0.35
1743438551.792915,-0.188,-0.105,1.002,-0.49,-3.01,-0.49
1743438551.812915,-0.186,-0.108,1.005,1.19,-2.52,-0.49
1743438551.832915,-0.188,-0.102,1.01,0.63,-2.94,-0.49
1743438551.852915,-0.187,-0.105,1.01,-0.49,-3.64,-0.42
1743438551.872915,-0.183,-0.113,1.009,0.28,-2.24,-0.63
1743438551.892915,-0.189,-0.105,1.005,1.4,-2.45,-0.56
1743438551.912915,-0.194,-0.104,1.01,-0.98,-3.5,-0.49
1743438551.932915,-0.187,-0.109,1.007,-1.12,-3.57,-0.35
1743438551.952915,-0.183,-0.115,1.005,1.68,-1.75,-0.49
1743438551.972915,-0.186,-0.108,1.006,0.98,-2.03,-0.42
1743438551.992915,-0.189,-0.105,1.009,-0.63,-3.22,-0.35
1743438552.012915,-0.183,-0.114,1.006,0.28,-2.31,-0.21
1743438552.0329149,-0.186,-0.104,1.007,1.89,-1.05,-0.28
1743438552.0529149,-0.195,-0.1,1.009,1.05,-1.68,-0.49
1743438552.0729148,-0.195,-0.1,1.009,-0.21,-3.43,-0.42
1743438552.0929148,-0.189,-0.101,1.014,-0.91,-3.78,-0.28
1743438552.1129148,-0.183,-0.113,1.009,-0.49,-1.68,-0.42
1743438552.1329148,-0.186,-0.109,1.008,1.96,-2.8,-0.35
1743438552.1529148,-0.187,-0.104,1.001,0.0,-2.66,-0.35
1743438552.1729147,-0.187,-0.104,1.01,1.26,-3.22,-0.35
1743438552.1929147,-0.188,-0.116,1.015,-3.99,-3.99,-0.28
1743438552.2129147,-0.168,-0.12,0.987,3.85,0.98,-0.14
1743438552.2329147,-0.206,-0.114,1.003,3.64,-4.13,-0.14
1743438552.252915,-0.18,-0.091,1.003,1.33,-3.71,-0.35
1743438552.2729146,-0.19,-0.105,1.001,-1.47,-0.28,-0.42
1743438552.2929146,-0.21,-0.099,1.0,8.12,-1.05,-0.56
1743438552.3129146,-0.204,-0.066,1.038,4.62,-3.85,-0.42
1743438552.3329146,-0.2,-0.07,1.047,-10.08,-6.79,-0.21
1743438552.3529146,-0.163,-0.111,0.994,-5.46,0.35,-0.35
1743438552.3729146,-0.184,-0.123,0.975,6.65,0.42,-0.63
1743438552.3929143,-0.203,-0.084,1.009,0.42,-3.64,-0.56
1743438552.4129145,-0.184,-0.11,1.021,-2.73,-4.76,-0.42
1743438552.4329145,-0.175,-0.116,1.013,2.59,-1.61,-0.49
1743438552.4529145,-0.189,-0.097,1.009,1.33,-2.03,-0.56
1743438552.4729145,-0.194,-0.102,1.001,-1.82,-4.2,-0.42
1743438552.4929144,-0.187,-0.112,1.0,-1.05,-3.57,-0.63
1743438552.5129144,-0.18,-0.114,1.0,1.19,-2.73,-0.56
1743438552.5329144,-0.181,-0.111,1.007,0.56,-3.36,-0.28
1743438552.5529144,-0.18,-0.11,1.013,0.98,-2.52,-0.35
1743438552.5729144,-0.183,-0.102,1.013,2.17,-1.05,-0.49
1743438552.5929143,-0.195,-0.098,1.01,0.07,-2.24,-0.49
1743438552.6129143,-0.194,-0.103,1.012,-1.61,-3.29,-0.35
1743438552.6329143,-0.184,-0.113,1.008,-0.56,-1.61,-0.42
1743438552.6529143,-0.189,-0.119,1.005,0.49,-1.47,-0.35
1743438552.6729145,-0.193,-0.104,1.004,0.77,-3.36,-0.35
1743438552.6929142,-0.186,-0.101,1.013,0.07,-2.87,-0.28
1743438552.7129142,-0.18,-0.104,1.01,0.56,-1.82,-0.35
1743438552.7329142,-0.186,-0.106,1.006,-0.07,-2.38,-0.49
1743438552.7529142,-0.185,-0.108,1.002,0.07,-2.8,-0.49
1743438552.7729142,-0.187,-0.108,1.003,1.05,-2.8,-0.49
1743438552.7929142,-0.187,-0.105,1.01,0.7,-3.01,-0.49
1743438552.812914,-0.185,-0.107,1.009,0.35,-2.87,-0.49
1743438552.832914,-0.184,-0.106,1.01,0.77,-2.03,-0.35
1743438552.852914,-0.188,-0.107,1.007,0.56,-2.45,-0.35
1743438552.872914,-0.19,-0.106,1.01,0.35,-2.66,-0.35
1743438552.892914,-0.186,-0.106,1.011,0.42,-2.03,-0.28
1743438552.912914,-0.188,-0.106,1.01,0.35,-2.31,-0.35
1743438552.932914,-0.188,-0.103,1.008,-17.78,-2.1,-0.35
1743438552.952914,-0.189,-0.109,1.009,0.28,-2.03,-0.42
1743438552.972914,-0.192,-0.107,1.007,0.63,-2.45,-0.42
1743438552.992914,-0.187,-0.105,1.009,0.35,-2.52,-0.49
1743438553.012914,-0.189,-0.109,1.01,0.35,-2.66,-0.42
1743438553.032914,-0.188,-0.106,1.009,0.49,-2.8,-0.49
1743438553.052914,-0.188,-0.105,1.009,0.42,-2.94,-0.49
1743438553.072914,-0.189,-0.108,1.007,0.63,-2.94,-0.42
1743438553.092914,-0.187,-0.105,1.008,0.28,-2.8,-0.49
1743438553.1129138,-0.188,-0.107,1.008,0.28,-2.66,-0.49
1743438553.1329138,-0.186,-0.108,1.008,0.49,-2.45,-0.42
1743438553.1529138,-0.184,-0.105,1.007,0.42,-2.31,-0.49
1743438553.1729138,-0.189,-0.104,1.009,0.14,-2.59,-0.42
1743438553.1929138,-0.184,-0.107,1.006,0.21,-2.31,-0.42
1743438553.2129138,-0.185,-0.107,1.007,0.21,-2.31,-0.28
1743438553.2329135,-0.186,-0.108,1.008,0.42,-2.31,-0.35
1743438553.2529137,-0.186,-0.107,1.007,0.63,-2.24,-0.42
1743438553.2729137,-0.187,-0.108,1.006,0.63,-2.52,-0.28
1743438553.2929137,-0.184,-0.106,1.013,0.42,-2.45,-0.35
1743438553.3129137,-0.186,-0.107,1.008,0.35,-2.45,-0.42
1743438553.3329136,-0.186,-0.108,1.008,0.49,-2.52,-0.42
1743438553.3529136,-0.187,-0.106,1.008,0.35,-2.59,-0.42
1743438553.3729136,-0.189,-0.107,1.007,0.42,-2.66,-0.35
1743438553.3929136,-0.188,-0.106,1.011,0.42,-2.66,-0.35
1743438553.4129136,-0.186,-0.106,1.01,0.42,-2.52,-0.56
1743438553.4329135,-0.188,-0.106,1.008,0.49,-2.52,-0.42
1743438553.4529135,-0.186,-0.106,1.008,0.21,-2.52,-0.35
1743438553.4729135,-0.187,-0.106,1.008,0.28,-2.31,-0.35
1743438553.4929135,-0.185,-0.105,1.008,0.56,-2.17,-0.49
1743438553.5129137,-0.185,-0.106,1.007,0.77,-2.1,-0.35
1743438553.5329134,-0.188,-0.105,1.009,0.49,-2.59,-0.42
1743438553.5529134,-0.186,-0.105,1.009,0.35,-2.66,-0.42
1743438553.5729134,-0.187,-0.107,1.013,0.28,-2.38,-0.42
1743438553.5929134,-0.186,-0.107,1.009,0.42,-2.52,-0.35
1743438553.6129134,-0.189,-0.105,1.008,0.35,-2.52,-0.49
1743438553.6329134,-0.186,-0.107,1.007,0.42,-2.73,-0.49
1743438553.652913,-0.184,-0.104,1.008,0.49,-2.73,-0.42
1743438553.6729133,-0.187,-0.106,1.008,0.35,-2.59,-0.42
1743438553.6929133,-0.187,-0.106,1.006,0.35,-2.45,-0.42
1743438553.7129133,-0.187,-0.106,1.007,0.49,-2.52,-0.42
1743438553.7329133,-0.185,-0.107,1.006,0.49,-2.45,-0.42
1743438553.7529132,-0.187,-0.109,1.009,0.35,-2.45,-0.35
1743438553.7729132,-0.188,-0.107,1.01,0.49,-2.31,-0.35
1743438553.7929132,-0.187,-0.107,1.007,0.42,-2.38,-0.28
1743438553.8129132,-0.187,-0.105,1.009,0.49,-2.59,-0.42
1743438553.8329132,-0.187,-0.107,1.009,0.35,-2.45,-0.35
1743438553.8529131,-0.186,-0.106,1.008,0.35,-2.38,-0.35
1743438553.8729131,-0.185,-0.105,1.008,0.49,-2.38,-0.49
1743438553.892913,-0.187,-0.107,1.009,0.42,-2.45,-0.49
1743438553.912913,-0.186,-0.105,1.009,0.42,-2.45,-0.35
1743438553.932913,-0.188,-0.105,1.008,0.35,-2.66,-0.42
1743438553.952913,-0.186,-0.106,1.011,0.35,-2.59,-0.42
1743438553.972913,-0.187,-0.107,1.008,0.35,-2.52,-0.42
1743438553.992913,-0.186,-0.105,1.01,0.42,-2.52,-0.42
1743438554.012913,-0.186,-0.108,1.007,0.42,-2.38,-0.42
1743438554.032913,-0.187,-0.105,1.01,0.42,-2.52,-0.35
1743438554.052913,-0.187,-0.107,1.009,0.35,-2.45,-0.35
1743438554.072913,-0.186,-0.108,1.008,0.42,-2.24,-0.49
1743438554.092913,-0.187,-0.106,1.009,0.42,-2.38,-0.35
1743438554.112913,-0.185,-0.105,1.01,0.42,-2.38,-0.42
1743438554.1329129,-0.188,-0.106,1.009,0.35,-2.38,-0.42
1743438554.1529129,-0.186,-0.107,1.009,0.42,-2.52,-0.35
1743438554.1729128,-0.187,-0.104,1.007,0.35,-2.52,-0.42
1743438554.1929128,-0.189,-0.106,1.008,0.42,-2.59,-0.42
1743438554.2129128,-0.187,-0.105,1.009,0.49,-2.52,-0.49
1743438554.2329128,-0.186,-0.107,1.009,0.35,-2.59,-0.49
1743438554.2529128,-0.186,-0.106,1.007,0.35,-2.73,-0.42
1743438554.2729127,-0.186,-0.104,1.009,0.35,-2.52,-0.35
1743438554.2929127,-0.186,-0.107,1.008,0.35,-2.52,-0.35
1743438554.3129127,-0.187,-0.108,1.009,0.42,-2.45,-0.42
1743438554.3329127,-0.188,-0.108,1.007,0.49,-2.52,-0.35
1743438554.352913,-0.185,-0.108,1.008,0.42,-2.59,-0.42
1743438554.3729126,-0.187,-0.11,1.009,0.42,-2.38,-0.42
1743438554.3929126,-0.188,-0.108,1.009,0.35,-2.31,-0.42
1743438554.4129126,-0.186,-0.107,1.009,0.42,-2.66,-0.42
1743438554.4329126,-0.188,-0.106,1.007,0.42,-2.31,-0.42
1743438554.4529126,-0.186,-0.106,1.009,0.49,-2.45,-0.42
1743438554.4729123,-0.186,-0.106,1.005,0.28,-2.52,-0.42
1743438554.4929123,-0.187,-0.104,1.009,0.56,-2.45,-0.35
1743438554.5129125,-0.187,-0.107,1.008,0.56,-2.59,-0.42
1743438554.5329125,-0.188,-0.105,1.006,0.21,-2.59,-0.35
1743438554.5529125,-0.187,-0.106,1.008,0.49,-2.59,-0.49
1743438554.5729125,-0.187,-0.105,1.007,0.63,-2.66,-0.42
1743438554.5929124,-0.185,-0.103,1.007,0.14,-2.52,-0.42
1743438554.6129124,-0.186,-0.109,1.008,0.42,-2.52,-0.42
1743438554.6329124,-0.187,-0.106,1.008,0.56,-2.45,-0.35
1743438554.6529124,-0.187,-0.105,1.007,0.35,-2.45,-0.35
1743438554.6729124,-0.189,-0.108,1.007,0.42,-2.52,-0.35
1743438554.6929123,-0.186,-0.106,1.009,0.49,-2.24,-0.35
1743438554.7129123,-0.187,-0.105,1.009,0.35,-2.45,-0.35
1743438554.7329123,-0.186,-0.105,1.009,0.42,-2.52,-0.42
1743438554.7529123,-0.185,-0.106,1.008,0.28,-2.38,-0.42
1743438554.7729125,-0.188,-0.107,1.009,0.42,-2.52,-0.42
1743438554.7929122,-0.186,-0.107,1.007,0.42,-2.52,-0.28
1743438554.8129122,-0.184,-0.105,1.009,0.49,-2.45,-0.42
1743438554.8329122,-0.188,-0.107,1.011,0.49,-2.52,-0.49
1743438554.8529122,-0.187,-0.105,1.009,0.42,-2.45,-0.35
1743438554.8729122,-0.189,-0.107,1.006,0.42,-2.52,-0.49
1743438554.892912,-0.187,-0.108,1.009,0.42,-2.59,-0.42
1743438554.912912,-0.187,-0.105,1.013,0.28,-2.52,-0.42
1743438554.932912,-0.187,-0.107,1.011,0.42,-2.52,-0.42
1743438554.952912,-0.188,-0.106,1.009,0.42,-2.45,-0.42
1743438554.972912,-0.187,-0.104,1.01,0.35,-2.45,-0.35
1743438554.992912,-0.184,-0.109,1.007,0.42,-2.66,-0.42
1743438555.012912,-0.186,-0.106,1.008,0.35,-2.31,-0.35
1743438555.032912,-0.185,-0.106,1.008,0.49,-2.59,-0.42
1743438555.052912,-0.186,-0.108,1.009,0.49,-2.45,-0.42
1743438555.072912,-0.187,-0.104,1.009,0.42,-2.31,-0.35
1743438555.092912,-0.187,-0.107,1.012,0.56,-2.52,-0.42
1743438555.112912,-0.189,-0.105,1.01,0.28,-2.38,-0.42
1743438555.132912,-0.187,-0.105,1.009,0.28,-2.31,-0.35
1743438555.152912,-0.188,-0.105,1.009,0.49,-2.52,-0.35
1743438555.172912,-0.186,-0.106,1.007,0.35,-2.31,-0.35
1743438555.192912,-0.186,-0.105,1.007,0.49,-2.59,-0.35
1743438555.2129118,-0.188,-0.106,1.01,0.49,-2.59,-0.49
1743438555.2329118,-0.186,-0.105,1.007,0.42,-2.38,-0.35
1743438555.2529118,-0.184,-0.109,1.009,0.49,-2.52,-0.42
1743438555.2729118,-0.186,-0.106,1.009,0.28,-2.52,-0.42
1743438555.2929118,-0.186,-0.108,1.008,0.28,-2.59,-0.42
1743438555.3129115,-0.189,-0.106,1.008,0.42,-2.59,-0.42
1743438555.3329115,-0.187,-0.105,1.006,0.42,-2.31,-0.42
1743438555.3529117,-0.186,-0.109,1.005,0.56,-2.66,-0.35
1743438555.3729117,-0.185,-0.106,1.005,0.35,-2.52,-0.35
1743438555.3929117,-0.189,-0.108,1.007,0.35,-2.45,-0.42
1743438555.4129117,-0.186,-0.106,1.007,0.56,-2.45,-0.35
1743438555.4329116,-0.187,-0.106,1.009,0.42,-2.45,-0.35
1743438555.4529116,-0.188,-0.106,1.008,0.21,-2.52,-0.42
1743438555.4729116,-0.184,-0.107,1.007,0.42,-2.52,-0.42
1743438555.4929116,-0.186,-0.108,1.009,0.28,-2.31,-0.35
1743438555.5129116,-0.189,-0.106,1.007,0.63,-2.45,-0.35
1743438555.5329115,-0.187,-0.106,1.01,0.56,-2.45,-0.42
1743438555.5529115,-0.188,-0.106,1.007,0.28,-2.45,-0.42
1743438555.5729115,-0.186,-0.108,1.012,0.42,-2.59,-0.42
1743438555.5929115,-0.186,-0.108,1.007,0.49,-2.38,-0.35
1743438555.6129117,-0.187,-0.107,1.006,0.35,-2.45,-0.35
1743438555.6329114,-0.187,-0.106,1.005,0.49,-2.59,-0.42
1743438555.6529114,-0.186,-0.106,1.009,0.35,-2.59,-0.35
1743438555.6729114,-0.188,-0.107,1.009,0.42,-2.24,-0.49
1743438555.6929114,-0.188,-0.106,1.008,0.35,-2.45,-0.49
1743438555.7129114,-0.185,-0.105,1.009,0.21,-2.45,-0.42
1743438555.732911,-0.185,-0.104,1.007,0.42,-2.45,-0.42
1743438555.752911,-0.188,-0.108,1.007,0.56,-2.52,-0.42
1743438555.7729113,-0.186,-0.105,1.009,0.28,-2.52,-0.49
1743438555.7929113,-0.186,-0.108,1.01,0.28,-2.38,-0.35
1743438555.8129113,-0.188,-0.107,1.008,0.49,-2.59,-0.42
1743438555.8329113,-0.186,-0.104,1.008,0.28,-2.52,-0.42
1743438555.8529112,-0.186,-0.107,1.008,0.49,-2.59,-0.42
1743438555.8729112,-0.186,-0.106,1.008,0.49,-2.31,-0.35
1743438555.8929112,-0.188,-0.106,1.008,0.42,-2.52,-0.35
1743438555.9129112,-0.188,-0.106,1.008,0.28,-2.52,-0.49
1743438555.9329112,-0.187,-0.106,1.006,0.28,-2.38,-0.42
1743438555.9529111,-0.185,-0.109,1.007,0.42,-2.52,-0.35
1743438555.9729111,-0.188,-0.108,1.01,0.49,-2.38,-0.42
1743438555.992911,-0.185,-0.106,1.009,0.35,-2.38,-0.42
1743438556.012911,-0.187,-0.106,1.009,0.42,-2.52,-0.42
1743438556.032911,-0.184,-0.108,1.009,0.49,-2.38,-0.35
1743438556.052911,-0.187,-0.108,1.004,0.49,-2.31,-0.42
1743438556.072911,-0.186,-0.107,1.009,0.28,-2.59,-0.35
1743438556.092911,-0.187,-0.108,1.008,0.35,-2.31,-0.42
1743438556.112911,-0.187,-0.11,1.008,0.42,-2.38,-0.42
1743438556.132911,-0.186,-0.107,1.01,0.28,-2.66,-0.42
1743438556.152911,-0.184,-0.107,1.009,0.49,-2.31,-0.35
1743438556.172911,-0.186,-0.104,1.007,0.49,-2.59,-0.35
1743438556.192911,-0.189,-0.104,1.009,0.28,-2.45,-0.42
1743438556.212911,-0.186,-0.105,1.008,0.56,-2.38,-0.42
1743438556.2329109,-0.189,-0.105,1.009,0.49,-2.45,-0.49
1743438556.2529109,-0.186,-0.105,1.01,0.42,-2.45,-0.49
1743438556.2729108,-0.188,-0.106,1.01,0.35,-2.52,-0.42
1743438556.2929108,-0.188,-0.106,1.011,0.28,-2.38,-0.42
1743438556.3129108,-0.186,-0.108,1.008,0.35,-2.59,-0.42
1743438556.3329108,-0.183,-0.107,1.009,0.42,-2.38,-0.42
1743438556.3529108,-0.185,-0.108,1.008,0.35,-2.38,-0.42
1743438556.3729107,-0.187,-0.107,1.011,0.49,-2.59,-0.35
1743438556.3929107,-0.187,-0.105,1.009,0.42,-2.52,-0.35
1743438556.4129107,-0.187,-0.105,1.008,0.35,-2.52,-0.42
1743438556.432911,-0.185,-0.106,1.009,0.42,-2.45,-0.42
1743438556.452911,-0.187,-0.106,1.009,0.42,-2.38,-0.42
1743438556.4729106,-0.186,-0.108,1.008,0.42,-2.45,-0.35
1743438556.4929106,-0.186,-0.106,1.01,0.42,-2.52,-0.35
1743438556.5129106,-0.186,-0.107,1.008,0.42,-2.38,-0.42
1743438556.5329106,-0.187,-0.107,1.006,0.35,-2.52,-0.35
1743438556.5529106,-0.188,-0.106,1.008,0.35,-2.45,-0.42
1743438556.5729103,-0.186,-0.107,1.008,0.49,-2.38,-0.42
1743438556.5929103,-0.186,-0.106,1.009,0.42,-2.59,-0.42
1743438556.6129105,-0.187,-0.106,1.007,0.35,-2.45,-0.42
1743438556.6329105,-0.186,-0.108,1.008,0.42,-2.66,-0.35
1743438556.6529105,-0.184,-0.106,1.012,0.42,-2.66,-0.49
1743438556.6729105,-0.186,-0.105,1.009,0.35,-2.38,-0.49
1743438556.6929104,-0.187,-0.107,1.007,0.49,-2.59,-0.42
1743438556.7129104,-0.187,-0.106,1.007,0.42,-2.38,-0.42
1743438556.7329104,-0.188,-0.107,1.009,0.21,-2.52,-0.42
1743438556.7529104,-0.186,-0.107,1.005,0.49,-2.52,-0.42
1743438556.7729104,-0.186,-0.105,1.01,0.49,-2.31,-0.42
1743438556.7929103,-0.187,-0.106,1.009,0.42,-2.45,-0.35
1743438556.8129103,-0.189,-0.107,1.007,0.42,-2.66,-0.35
1743438556.8329103,-0.185,-0.107,1.009,0.28,-2.52,-0.42
1743438556.8529105,-0.188,-0.104,1.008,0.35,-2.45,-0.49
1743438556.8729105,-0.187,-0.106,1.006,0.42,-2.59,-0.42
1743438556.8929102,-0.185,-0.106,1.007,0.42,-2.52,-0.42
1743438556.9129102,-0.186,-0.106,1.009,0.56,-2.66,-0.42
1743438556.9329102,-0.187,-0.109,1.008,0.49,-2.59,-0.42
1743438556.9529102,-0.186,-0.105,1.009,0.42,-2.45,-0.49
1743438556.9729102,-0.188,-0.106,1.009,0.56,-2.66,-0.42
1743438556.99291,-0.186,-0.105,1.009,0.35,-2.52,-0.42
1743438557.01291,-0.187,-0.106,1.011,0.35,-2.45,-0.42
1743438557.03291,-0.187,-0.106,1.008,0.42,-2.45,-0.49
1743438557.05291,-0.185,-0.107,1.008,0.35,-2.59,-0.42
1743438557.07291,-0.187,-0.107,1.008,0.35,-2.45,-0.42
1743438557.09291,-0.187,-0.107,1.007,0.35,-2.66,-0.35
1743438557.11291,-0.187,-0.105,1.009,0.28,-2.31,-0.28
1743438557.13291,-0.186,-0.107,1.009,0.42,-2.45,-0.35
1743438557.15291,-0.186,-0.106,1.006,0.63,-2.45,-0.35
1743438557.17291,-0.186,-0.107,1.007,0.35,-2.38,-0.35
1743438557.19291,-0.188,-0.106,1.008,0.42,-2.59,-0.42
1743438557.21291,-0.186,-0.106,1.008,0.35,-2.52,-0.35
1743438557.23291,-0.186,-0.107,1.007,0.42,-2.45,-0.42
1743438557.25291,-0.187,-0.108,1.009,0.42,-2.52,-0.35
1743438557.27291,-0.187,-0.108,1.008,0.49,-2.52,-0.42
1743438557.29291,-0.189,-0.107,1.009,0.42,-2.59,-0.42
1743438557.3129098,-0.186,-0.105,1.007,0.28,-2.31,-0.42
1743438557.3329098,-0.187,-0.107,1.006,0.42,-2.45,-0.42
1743438557.3529098,-0.185,-0.106,1.009,0.49,-2.52,-0.49
1743438557.3729098,-0.188,-0.105,1.008,0.42,-2.38,-0.42
1743438557.3929098,-0.189,-0.105,1.008,0.42,-2.59,-0.42
1743438557.4129095,-0.187,-0.107,1.006,0.42,-2.52,-0.28
1743438557.4329095,-0.188,-0.106,1.008,0.35,-2.38,-0.49
1743438557.4529097,-0.187,-0.108,1.008,0.49,-2.45,-0.49
1743438557.4729097,-0.184,-0.107,1.009,0.35,-2.52,-0.42
1743438557.4929097,-0.185,-0.107,1.007,0.49,-2.38,-0.35
1743438557.5129097,-0.186,-0.105,1.009,0.56,-2.38,-0.42
1743438557.5329096,-0.186,-0.106,1.008,0.28,-2.45,-0.42
1743438557.5529096,-0.187,-0.105,1.007,0.14,-2.52,-0.35
1743438557.5729096,-0.187,-0.106,1.01,0.42,-2.31,-0.49
1743438557.5929096,-0.186,-0.107,1.006,0.56,-2.66,-0.42
1743438557.6129096,-0.187,-0.105,1.009,0.42,-2.73,-0.49
1743438557.6329095,-0.189,-0.106,1.008,0.42,-2.45,-0.49
1743438557.6529095,-0.185,-0.106,1.009,0.49,-2.52,-0.49
1743438557.6729095,-0.186,-0.103,1.007,0.28,-2.45,-0.49
1743438557.6929097,-0.188,-0.106,1.009,0.21,-2.45,-0.49
1743438557.7129097,-0.186,-0.107,1.007,0.28,-2.45,-0.42
1743438557.7329094,-0.186,-0.106,1.009,0.49,-2.45,-0.56
1743438557.7529094,-0.187,-0.107,1.007,0.42,-2.59,-0.35
1743438557.7729094,-0.187,-0.106,1.009,0.42,-2.45,-0.35
1743438557.7929094,-0.188,-0.104,1.008,0.42,-2.45,-0.35
1743438557.8129094,-0.186,-0.107,1.009,0.42,-2.52,-0.49
1743438557.832909,-0.184,-0.108,1.008,0.35,-2.52,-0.42
1743438557.852909,-0.187,-0.108,1.011,0.42,-2.45,-0.42
1743438557.8729093,-0.187,-0.106,1.009,0.49,-2.59,-0.42
1743438557.8929093,-0.187,-0.105,1.01,0.35,-2.31,-0.35
1743438557.9129093,-0.185,-0.107,1.009,0.56,-2.38,-0.42
1743438557.9329093,-0.185,-0.106,1.009,0.35,-2.59,-0.35
1743438557.9529092,-0.187,-0.108,1.008,0.28,-2.45,-0.49
1743438557.9729092,-0.187,-0.106,1.01,0.77,-2.52,-0.49
1743438557.9929092,-0.187,-0.106,1.008,0.42,-2.52,-0.35
1743438558.0129092,-0.187,-0.107,1.01,0.56,-2.59,-0.42
1743438558.0329092,-0.186,-0.106,1.009,0.42,-2.52,-0.35
1743438558.0529091,-0.188,-0.108,1.01,0.28,-2.45,-0.35
1743438558.072909,-0.187,-0.106,1.009,0.42,-2.59,-0.35
1743438558.092909,-0.186,-0.104,1.01,0.42,-2.52,-0.49
1743438558.112909,-0.187,-0.106,1.01,0.42,-2.52,-0.28
1743438558.132909,-0.184,-0.106,1.009,0.42,-2.73,-0.42
1743438558.152909,-0.185,-0.107,1.007,0.42,-2.38,-0.49
1743438558.172909,-0.187,-0.108,1.006,0.49,-2.66,-0.35
1743438558.192909,-0.188,-0.105,1.009,0.42,-2.52,-0.42
1743438558.212909,-0.187,-0.108,1.01,0.35,-2.52,-0.42
1743438558.232909,-0.19,-0.105,1.009,0.35,-2.59,-0.42
1743438558.252909,-0.188,-0.107,1.006,0.21,-2.45,-0.49
1743438558.272909,-0.188,-0.106,1.009,0.42,-2.38,-0.35
1743438558.292909,-0.186,-0.107,1.008,0.56,-2.45,-0.49
1743438558.312909,-0.185,-0.106,1.01,0.35,-2.52,-0.42
1743438558.3329089,-0.185,-0.109,1.009,0.7,-2.52,-0.42
1743438558.3529088,-0.188,-0.106,1.008,0.28,-2.52,-0.35
1743438558.3729088,-0.187,-0.106,1.006,0.28,-2.52,-0.42
1743438558.3929088,-0.186,-0.106,1.008,0.7,-2.38,-0.42
1743438558.4129088,-0.187,-0.106,1.006,0.35,-2.38,-0.35
1743438558.4329088,-0.185,-0.106,1.01,0.35,-2.59,-0.42
1743438558.4529088,-0.186,-0.105,1.009,0.49,-2.31,-0.35
1743438558.4729087,-0.189,-0.108,1.008,0.35,-2.24,-0.35
1743438558.4929087,-0.186,-0.107,1.008,0.42,-2.66,-0.35
1743438558.5129087,-0.183,-0.105,1.011,0.35,-2.24,-0.28
1743438558.532909,-0.186,-0.104,1.006,0.42,-2.38,-0.35
1743438558.552909,-0.188,-0.105,1.01,0.49,-2.52,-0.42
1743438558.5729086,-0.187,-0.105,1.006,0.35,-2.24,-0.42
1743438558.5929086,-0.188,-0.106,1.008,0.49,-2.52,-0.49
1743438558.6129086,-0.186,-0.104,1.007,0.42,-2.59,-0.42
1743438558.6329086,-0.187,-0.105,1.011,0.49,-2.38,-0.42
1743438558.6529086,-0.188,-0.105,1.008,0.42,-2.31,-0.42
1743438558.6729083,-0.189,-0.104,1.009,0.35,-2.59,-0.49
1743438558.6929083,-0.187,-0.107,1.009,0.42,-2.59,-0.49
1743438558.7129085,-0.187,-0.107,1.007,0.49,-2.45,-0.42
1743438558.7329085,-0.186,-0.106,1.008,0.28,-2.31,-0.42
1743438558.7529085,-0.188,-0.108,1.008,0.35,-2.59,-0.42
1743438558.7729084,-0.186,-0.106,1.006,0.49,-2.45,-0.35
1743438558.7929084,-0.186,-0.106,1.008,0.42,-2.38,-0.28
1743438558.8129084,-0.188,-0.106,1.008,0.35,-2.52,-0.35
1743438558.8329084,-0.187,-0.107,1.009,0.56,-2.38,-0.42
1743438558.8529084,-0.185,-0.106,1.008,0.49,-2.38,-0.42
1743438558.8729084,-0.186,-0.105,1.009,0.35,-2.66,-0.42
1743438558.8929083,-0.185,-0.105,1.01,0.35,-2.45,-0.42
1743438558.9129083,-0.186,-0.107,1.007,0.42,-2.38,-0.42
1743438558.9329083,-0.186,-0.109,1.008,0.35,-2.66,-0.35
1743438558.9529085,-0.185,-0.106,1.008,0.35,-2.52,-0.35
1743438558.9729085,-0.186,-0.107,1.01,0.42,-2.31,-0.35
1743438558.9929082,-0.187,-0.107,1.008,0.63,-2.52,-0.49
1743438559.0129082,-0.186,-0.106,1.007,0.35,-2.52,-0.42
1743438559.0329082,-0.187,-0.106,1.006,0.21,-2.45,-0.42
1743438559.0529082,-0.187,-0.107,1.006,0.42,-2.52,-0.42
1743438559.0729082,-0.186,-0.108,1.006,0.56,-2.31,-0.42
1743438559.092908,-0.187,-0.106,1.008,0.42,-2.38,-0.35
1743438559.112908,-0.186,-0.107,1.008,0.35,-2.52,-0.42
1743438559.132908,-0.187,-0.107,1.008,0.42,-2.52,-0.42
1743438559.152908,-0.185,-0.106,1.01,0.42,-2.31,-0.42
1743438559.172908,-0.189,-0.104,1.007,0.35,-2.66,-0.49
1743438559.192908,-0.187,-0.105,1.008,0.35,-2.52,-0.35
1743438559.212908,-0.188,-0.105,1.009,0.49,-2.52,-0.35
1743438559.232908,-0.187,-0.106,1.008,0.42,-2.66,-0.42
1743438559.252908,-0.187,-0.104,1.009,0.49,-2.45,-0.42
1743438559.272908,-0.185,-0.106,1.008,0.35,-2.38,-0.42
1743438559.292908,-0.188,-0.107,1.009,0.35,-2.59,-0.42
1743438559.312908,-0.186,-0.107,1.006,0.49,-2.59,-0.49
1743438559.332908,-0.185,-0.106,1.007,0.35,-2.31,-0.42
1743438559.352908,-0.186,-0.106,1.009,0.42,-2.66,-0.42
1743438559.372908,-0.186,-0.106,1.009,0.35,-2.38,-0.42
1743438559.392908,-0.187,-0.108,1.011,0.49,-2.52,-0.49
1743438559.4129078,-0.185,-0.105,1.01,0.35,-2.59,-0.42
1743438559.4329078,-0.188,-0.106,1.01,0.28,-2.45,-0.42
1743438559.4529078,-0.187,-0.108,1.01,0.49,-2.59,-0.35
1743438559.4729078,-0.187,-0.105,1.009,0.42,-2.38,-0.42
1743438559.4929078,-0.186,-0.106,1.009,0.28,-2.45,-0.42
1743438559.5129075,-0.184,-0.104,1.008,0.35,-2.52,-0.35
1743438559.5329075,-0.184,-0.106,1.01,0.42,-2.52,-0.42
1743438559.5529077,-0.187,-0.105,1.009,0.42,-2.52,-0.42
1743438559.5729077,-0.186,-0.106,1.007,0.42,-2.59,-0.42
1743438559.5929077,-0.185,-0.105,1.007,0.21,-2.45,-0.49
1743438559.6129076,-0.187,-0.107,1.008,0.56,-2.59,-0.42
1743438559.6329076,-0.188,-0.105,1.008,0.42,-2.52,-0.49
1743438559.6529076,-0.188,-0.105,1.009,0.49,-2.66,-0.35
1743438559.6729076,-0.187,-0.106,1.01,0.42,-2.45,-0.42
1743438559.6929076,-0.186,-0.108,1.007,0.35,-2.45,-0.42
1743438559.7129076,-0.186,-0.107,1.008,0.42,-2.52,-0.35
1743438559.7329075,-0.187,-0.107,1.009,0.49,-2.45,-0.42
1743438559.7529075,-0.184,-0.106,1.009,0.28,-2.38,-0.42
1743438559.7729075,-0.186,-0.104,1.01,0.35,-2.66,-0.42
1743438559.7929077,-0.185,-0.105,1.01,0.49,-2.38,-0.42
1743438559.8129077,-0.186,-0.106,1.008,0.28,-2.38,-0.42
1743438559.8329074,-0.187,-0.107,1.005,0.42,-2.8,-0.35
1743438559.8529074,-0.187,-0.106,1.011,0.63,-2.52,-0.35
1743438559.8729074,-0.186,-0.105,1.011,0.49,-2.38,-0.42
1743438559.8929074,-0.186,-0.105,1.009,0.28,-2.59,-0.42
1743438559.9129074,-0.187,-0.107,1.01,0.35,-2.31,-0.49
1743438559.932907,-0.187,-0.108,1.007,0.21,-2.31,-0.35
1743438559.952907,-0.187,-0.107,1.007,0.42,-2.52,-0.49
1743438559.9729073,-0.185,-0.107,1.008,0.56,-2.38,-0.42
1743438559.9929073,-0.187,-0.109,1.008,0.49,-2.31,-0.42
1743438560.0129073,-0.185,-0.106,1.01,0.35,-2.52,-0.35
1743438560.0329072,-0.185,-0.106,1.005,0.42,-2.45,-0.35
1743438560.0529072,-0.186,-0.107,1.009,0.63,-2.45,-0.35
1743438560.0729072,-0.187,-0.107,1.008,0.49,-2.45,-0.42
1743438560.0929072,-0.187,-0.105,1.008,0.35,-2.45,-0.42
1743438560.1129072,-0.188,-0.106,1.006,0.56,-2.45,-0.42
1743438560.1329072,-0.187,-0.105,1.01,0.49,-2.38,-0.42
1743438560.1529071,-0.187,-0.107,1.009,0.35,-2.59,-0.42
1743438560.172907,-0.189,-0.106,1.006,0.42,-2.52,-0.42
1743438560.192907,-0.186,-0.107,1.01,0.42,-2.24,-0.42
1743438560.212907,-0.188,-0.107,1.011,0.42,-2.59,-0.42
1743438560.232907,-0.189,-0.107,1.009,0.49,-2.59,-0.42
1743438560.252907,-0.185,-0.107,1.008,0.42,-2.24,-0.49
1743438560.272907,-0.188,-0.107,1.008,0.42,-2.59,-0.42
1743438560.292907,-0.187,-0.107,1.005,0.49,-2.52,-0.42
1743438560.312907,-0.187,-0.106,1.009,0.42,-2.52,-0.42
1743438560.332907,-0.188,-0.106,1.009,0.42,-2.73,-0.35
1743438560.352907,-0.185,-0.105,1.01,0.56,-2.45,-0.28
1743438560.372907,-0.185,-0.106,1.009,0.42,-2.52,-0.28
1743438560.392907,-0.187,-0.105,1.008,0.49,-2.66,-0.35
1743438560.412907,-0.187,-0.106,1.009,0.35,-2.52,-0.35
1743438560.4329069,-0.187,-0.106,1.007,0.28,-2.31,-0.42
1743438560.4529068,-0.185,-0.106,1.009,0.56,-2.45,-0.42
1743438560.4729068,-0.184,-0.105,1.009,0.35,-2.66,-0.35
1743438560.4929068,-0.185,-0.105,1.009,0.35,-2.59,-0.49
1743438560.5129068,-0.187,-0.108,1.008,0.42,-2.45,-0.42
1743438560.5329068,-0.186,-0.106,1.01,0.28,-2.38,-0.35
1743438560.5529068,-0.189,-0.107,1.008,0.35,-2.45,-0.56
1743438560.5729067,-0.19,-0.107,1.007,0.56,-2.66,-0.35
1743438560.5929067,-0.188,-0.107,1.01,0.56,-2.38,-0.35
1743438560.6129067,-0.188,-0.105,1.008,0.42,-2.66,-0.35
1743438560.632907,-0.185,-0.104,1.009,0.49,-2.8,-0.42
1743438560.652907,-0.186,-0.105,1.009,0.28,-2.52,-0.35
1743438560.6729066,-0.186,-0.106,1.008,0.35,-2.59,-0.42
1743438560.6929066,-0.185,-0.106,1.007,0.35,-2.52,-0.49
1743438560.7129066,-0.183,-0.104,1.01,0.28,-2.59,-0.35
1743438560.7329066,-0.187,-0.107,1.006,0.42,-2.52,-0.49
1743438560.7529066,-0.184,-0.107,1.005,0.56,-2.66,-0.49
1743438560.7729063,-0.184,-0.106,1.009,0.42,-2.52,-0.49
1743438560.7929063,-0.188,-0.106,1.009,0.35,-2.66,-0.35
1743438560.8129065,-0.185,-0.106,1.011,0.28,-2.66,-0.42
1743438560.8329065,-0.184,-0.109,1.006,0.14,-2.59,-0.42
1743438560.8529065,-0.187,-0.109,1.005,0.56,-2.66,-0.49
1743438560.8729064,-0.188,-0.108,1.008,0.84,-2.66,-0.35
1743438560.8929064,-0.185,-0.107,1.01,0.49,-2.52,-0.35
1743438560.9129064,-0.186,-0.107,1.006,0.21,-2.59,-0.42
1743438560.9329064,-0.187,-0.107,1.011,0.49,-2.45,-0.35
1743438560.9529064,-0.187,-0.106,1.008,0.35,-1.96,-0.28
1743438560.9729064,-0.189,-0.107,1.008,0.35,-2.45,-0.42
1743438560.9929063,-0.186,-0.106,1.009,0.77,-2.66,-0.35
1743438561.0129063,-0.185,-0.105,1.011,0.56,-2.17,-0.35
1743438561.0329063,-0.188,-0.105,1.009,0.21,-2.66,-0.42
1743438561.0529065,-0.187,-0.107,1.011,0.56,-2.31,-0.42
1743438561.0729065,-0.187,-0.107,1.008,0.56,-2.17,-0.42
1743438561.0929062,-0.189,-0.105,1.009,0.35,-2.87,-0.42
1743438561.1129062,-0.185,-0.106,1.009,0.35,-2.52,-0.35
1743438561.1329062,-0.185,-0.106,1.008,0.49,-2.45,-0.28
1743438561.1529062,-0.187,-0.104,1.007,0.35,-2.59,-0.42
1743438561.1729062,-0.188,-0.106,1.008,0.28,-2.52,-0.42
1743438561.192906,-0.187,-0.107,1.006,0.56,-2.52,-0.28
1743438561.212906,-0.186,-0.108,1.007,0.56,-2.45,-0.35
1743438561.232906,-0.186,-0.109,1.009,0.56,-2.31,-0.42
1743438561.252906,-0.188,-0.107,1.011,0.84,-2.38,-0.35
1743438561.272906,-0.186,-0.105,1.013,0.77,-2.38,-0.28
1743438561.292906,-0.187,-0.104,1.013,0.35,-2.52,-0.42
1743438561.312906,-0.187,-0.106,1.009,0.21,-2.52,-0.42
1743438561.332906,-0.186,-0.106,1.011,0.28,-2.17,-0.35
1743438561.352906,-0.186,-0.109,1.004,0.07,-2.45,-0.42
1743438561.372906,-0.186,-0.108,1.01,0.84,-2.52,-0.42
1743438561.392906,-0.186,-0.106,1.01,0.14,-2.73,-0.35
1743438561.412906,-0.185,-0.107,1.008,0.07,-2.38,-0.42
1743438561.432906,-0.184,-0.108,1.008,0.56,-2.73,-0.56
1743438561.452906,-0.185,-0.105,1.008,0.7,-2.59,-0.28
1743438561.472906,-0.183,-0.106,1.007,0.21,-2.31,-0.42
1743438561.492906,-0.185,-0.109,1.006,0.56,-2.52,-0.49
1743438561.5129058,-0.185,-0.104,1.009,0.7,-2.45,-0.35
1743438561.5329058,-0.182,-0.106,1.008,0.56,-2.31,-0.42
1743438561.5529058,-0.181,-0.105,1.011,1.12,-1.96,-0.42
1743438561.5729058,-0.189,-0.103,1.01,0.07,-3.08,-0.21
1743438561.5929058,-0.183,-0.109,1.01,-0.14,-1.47,-0.42
1743438561.6129055,-0.185,-0.114,1.0,1.96,-1.26,-0.42
1743438561.6329055,-0.188,-0.104,1.008,1.75,-2.38,-0.35
1743438561.6529057,-0.193,-0.102,1.011,-0.77,-3.22,-0.42
1743438561.6729057,-0.183,-0.113,1.014,0.35,-2.31,-0.42
1743438561.6929057,-0.182,-0.11,1.008,1.26,-1.54,-0.56
1743438561.7129056,-0.19,-0.103,1.008,0.42,-2.24,-0.49
1743438561.7329056,-0.188,-0.104,1.009,-0.42,-3.22,-0.42
1743438561.7529056,-0.183,-0.11,1.009,1.26,-1.96,-0.56
1743438561.7729056,-0.19,-0.104,1.009,0.07,-3.01,-0.56
1743438561.7929056,-0.184,-0.102,1.007,-0.49,-2.45,-0.56
1743438561.8129056,-0.184,-0.109,1.008,1.54,-2.52,-0.56
1743438561.8329055,-0.187,-0.102,1.011,-0.14,-2.8,-0.49
1743438561.8529055,-0.185,-0.109,1.005,-0.77,-2.52,-0.42
1743438561.8729055,-0.185,-0.113,1.007,1.4,-2.17,-0.49
1743438561.8929057,-0.186,-0.103,1.008,1.05,-2.17,-0.42
1743438561.9129057,-0.188,-0.104,1.008,-0.14,-2.94,-0.35
1743438561.9329054,-0.185,-0.111,1.01,0.35,-2.73,-0.42
1743438561.9529054,-0.184,-0.106,1.015,0.28,-1.82,-0.42
1743438561.9729054,-0.186,-0.101,1.011,-0.49,-2.31,-0.35
1743438561.9929054,-0.186,-0.107,1.005,-0.21,-2.8,-0.42
1743438562.0129054,-0.187,-0.11,1.007,0.63,-2.45,-0.42
1743438562.032905,-0.186,-0.105,1.007,0.91,-2.38,-0.35
1743438562.052905,-0.184,-0.106,1.01,0.21,-3.01,-0.42
1743438562.0729053,-0.181,-0.106,1.007,0.14,-2.1,-0.42
1743438562.0929053,-0.189,-0.108,1.004,0.49,-2.24,-0.42
1743438562.1129053,-0.185,-0.107,1.004,0.49,-2.94,-0.35
1743438562.1329052,-0.183,-0.109,1.008,0.49,-1.96,-0.28
1743438562.1529052,-0.185,-0.107,1.006,0.91,-1.89,-0.35
1743438562.1729052,-0.188,-0.106,1.007,0.98,-2.24,-0.35
1743438562.1929052,-0.188,-0.104,1.009,0.56,-2.38,-0.42
1743438562.2129052,-0.186,-0.106,1.008,0.28,-1.82,-0.42
1743438562.2329051,-0.186,-0.105,1.009,0.49,-2.17,-0.28
1743438562.2529051,-0.187,-0.105,1.008,0.63,-2.24,-0.42
1743438562.272905,-0.188,-0.104,1.012,0.63,-1.47,0.07
1743438562.292905,-0.185,-0.111,1.008,-1.33,-1.82,0.0
1743438562.312905,-0.19,-0.12,0.99,1.4,-1.05,-0.21
1743438562.332905,-0.191,-0.114,0.983,5.95,-2.8,-0.35
1743438562.352905,-0.2,-0.098,1.005,3.99,-5.53,-0.35
1743438562.372905,-0.194,-0.096,0.997,2.8,-4.97,-0.28
1743438562.392905,-0.188,-0.1,0.982,3.64,-5.46,-0.14
1743438562.412905,-0.179,-0.109,0.98,4.48,-10.36,0.0
1743438562.432905,-0.149,-0.108,1.017,5.88,-7.14,0.07
1743438562.452905,-0.144,-0.099,1.052,5.6,-0.7,0.21
1743438562.472905,-0.163,-0.086,1.086,-0.77,7.14,0.28
1743438562.492905,-0.197,-0.099,1.086,-3.64,6.02,0.07
1743438562.512905,-0.212,-0.099,1.04,-5.6,4.41,0.0
1743438562.5329049,-0.212,-0.107,0.987,-7.21,0.28,-0.21
1743438562.5529048,-0.209,-0.122,0.944,-2.73,-3.92,-0.42
1743438562.5729048,-0.186,-0.112,0.939,4.06,-6.93,-0.56
1743438562.5929048,-0.18,-0.09,0.963,5.25,-5.95,-0.77
1743438562.6129048,-0.182,-0.087,0.998,3.43,-7.07,-0.84
1743438562.6329048,-0.187,-0.101,1.029,0.56,-6.23,-0.91
1743438562.6529047,-0.187,-0.108,1.033,0.21,-5.6,-1.05
1743438562.6729047,-0.193,-0.117,1.032,2.73,-6.44,-0.98
1743438562.6929047,-0.188,-0.104,1.031,1.33,-5.18,-0.63
1743438562.7129047,-0.171,-0.103,1.015,-0.28,-2.66,-0.42
1743438562.732905,-0.168,-0.104,1.001,0.28,-0.84,-0.07
1743438562.752905,-0.173,-0.104,0.999,0.42,0.21,-0.07
1743438562.7729046,-0.183,-0.106,1.001,0.49,0.14,0.14
1743438562.7929046,-0.186,-0.104,1.007,0.56,-0.28,0.21
1743438562.8129046,-0.187,-0.106,1.012,0.84,-0.56,0.21
1743438562.8329046,-0.186,-0.105,1.011,1.05,-0.7,0.28
1743438562.8529046,-0.187,-0.103,1.013,1.19,-0.84,0.21
1743438562.8729043,-0.188,-0.101,1.002,1.12,-1.89,0.14
1743438562.8929043,-0.191,-0.103,0.998,1.54,-2.52,0.14
1743438562.9129045,-0.192,-0.104,1.002,2.31,-3.29,-0.07
1743438562.9329045,-0.191,-0.1,1.008,2.38,-4.2,-0.21
1743438562.9529045,-0.192,-0.099,1.013,1.82,-4.34,-0.28
1743438562.9729044,-0.189,-0.1,1.015,1.82,-4.2,-0.42
1743438562.9929044,-0.189,-0.098,1.017,1.61,-3.71,-0.42
1743438563.0129044,-0.188,-0.097,1.019,0.84,-4.13,-0.63
1743438563.0329044,-0.185,-0.099,1.012,0.49,-3.71,-0.63
1743438563.0529044,-0.183,-0.1,1.011,0.28,-3.43,-0.63
1743438563.0729043,-0.183,-0.1,1.011,0.0,-3.29,-0.63
1743438563.0929043,-0.182,-0.101,1.006,0.14,-2.87,-0.56
1743438563.1129043,-0.184,-0.103,1.008,0.42,-2.73,-0.56
1743438563.1329043,-0.185,-0.101,1.012,0.07,-3.01,-0.49
1743438563.1529045,-0.183,-0.103,1.013,0.21,-2.52,-0.42
1743438563.1729045,-0.185,-0.102,1.01,0.7,-2.31,-0.35
1743438563.1929042,-0.185,-0.101,1.006,0.14,-2.45,-0.28
1743438563.2129042,-0.185,-0.102,1.005,0.28,-2.38,-0.28
1743438563.2329042,-0.184,-0.103,1.009,0.91,-2.31,-0.28
1743438563.2529042,-0.181,-0.1,1.011,0.56,-2.24,-0.21
1743438563.2729042,-0.188,-0.106,1.011,0.56,-2.24,-0.28
1743438563.292904,-0.185,-0.102,1.011,1.12,-2.45,-0.21
1743438563.312904,-0.184,-0.099,1.007,1.26,-2.38,-0.28
1743438563.332904,-0.189,-0.098,1.003,1.33,-3.71,-0.35
1743438563.352904,-0.181,-0.097,1.004,1.05,-3.71,-0.35
1743438563.372904,-0.177,-0.099,1.012,0.98,-2.17,-0.42
1743438563.392904,-0.181,-0.098,1.021,-0.21,-1.61,-0.42
1743438563.412904,-0.185,-0.1,1.021,-0.77,-1.4,-0.35
1743438563.432904,-0.188,-0.105,1.015,-0.49,-1.54,-0.35
1743438563.452904,-0.187,-0.106,1.006,0.21,-2.38,-0.49
1743438563.472904,-0.186,-0.102,0.994,0.84,-3.08,-0.49
1743438563.492904,-0.183,-0.102,0.996,1.12,-3.36,-0.28
1743438563.512904,-0.183,-0.096,1.003,1.26,-3.01,-0.35
1743438563.532904,-0.183,-0.098,1.011,0.98,-3.15,-0.42
1743438563.552904,-0.185,-0.099,1.017,0.63,-3.29,-0.49
1743438563.572904,-0.186,-0.101,1.014,0.84,-3.29,-0.35
1743438563.592904,-0.185,-0.099,1.011,1.12,-3.22,-0.42
1743438563.6129038,-0.183,-0.098,1.01,1.12,-3.15,-0.28
1743438563.6329038,-0.177,-0.098,1.009,1.19,-2.87,-0.28
1743438563.6529038,-0.181,-0.101,1.012,1.19,-2.45,-0.28
1743438563.6729038,-0.184,-0.098,1.013,0.56,-2.17,-0.28
1743438563.6929038,-0.183,-0.1,1.013,0.07,-2.31,-0.21
1743438563.7129035,-0.186,-0.102,1.007,0.98,-2.59,-0.28
1743438563.7329037,-0.185,-0.1,1.005,1.12,-2.94,-0.28
1743438563.7529037,-0.185,-0.098,1.009,1.05,-2.94,-0.35
1743438563.7729037,-0.182,-0.099,1.009,0.7,-2.52,-0.35
1743438563.7929037,-0.183,-0.098,1.01,0.7,-2.45,-0.21
1743438563.8129036,-0.183,-0.099,1.006,0.56,-2.66,-0.35
1743438563.8329036,-0.186,-0.101,1.009,0.84,-2.87,-0.42
1743438563.8529036,-0.185,-0.099,1.009,0.91,-3.15,-0.35
1743438563.8729036,-0.183,-0.1,1.009,0.98,-3.22,-0.42
1743438563.8929036,-0.182,-0.098,1.011,0.84,-2.87,-0.28
1743438563.9129035,-0.183,-0.099,1.01,0.98,-3.08,-0.35
1743438563.9329035,-0.183,-0.099,1.009,1.12,-3.15,-0.35
1743438563.9529035,-0.185,-0.1,1.012,0.7,-3.08,-0.42
1743438563.9729035,-0.181,-0.098,1.014,0.42,-2.73,-0.28
1743438563.9929037,-0.181,-0.098,1.01,0.21,-2.17,-0.35
1743438564.0129037,-0.182,-0.1,1.007,0.35,-2.31,-0.35
1743438564.0329034,-0.185,-0.101,1.008,0.63,-2.73,-0.35
1743438564.0529034,-0.183,-0.098,1.008,0.63,-2.52,-0.42
1743438564.0729034,-0.183,-0.098,1.008,0.91,-2.73,-0.21
1743438564.0929034,-0.184,-0.097,1.011,0.63,-2.59,-0.42
1743438564.1129034,-0.183,-0.097,1.009,0.49,-2.8,-0.35
1743438564.132903,-0.184,-0.1,1.01,0.84,-2.87,-0.35
1743438564.1529033,-0.184,-0.099,1.01,0.91,-2.87,-0.35
1743438564.1729033,-0.182,-0.097,1.012,0.63,-2.73,-0.35
1743438564.1929033,-0.18,-0.099,1.011,0.63,-2.8,-0.35
1743438564.2129033,-0.183,-0.098,1.009,0.77,-2.45,-0.49
1743438564.2329032,-0.184,-0.097,1.009,0.77,-2.73,-0.35
1743438564.2529032,-0.185,-0.098,1.009,0.7,-2.94,-0.35
1743438564.2729032,-0.182,-0.098,1.008,0.28,-2.38,-0.28
1743438564.2929032,-0.183,-0.101,1.007,0.77,-2.73,-0.35
1743438564.3129032,-0.181,-0.097,1.012,0.7,-2.73,-0.35
1743438564.3329031,-0.182,-0.099,1.009,0.63,-2.87,-0.35
1743438564.3529031,-0.182,-0.098,1.011,0.7,-2.87,-0.49
1743438564.372903,-0.183,-0.098,1.01,0.63,-2.66,-0.35
1743438564.392903,-0.184,-0.097,1.009,0.84,-2.8,-0.42
1743438564.412903,-0.184,-0.098,1.012,0.84,-2.94,-0.35
1743438564.432903,-0.181,-0.098,1.011,0.56,-2.8,-0.28
1743438564.452903,-0.182,-0.102,1.008,1.19,-3.22,-0.42
1743438564.472903,-0.181,-0.098,1.01,1.47,-3.5,-0.49
1743438564.492903,-0.18,-0.095,1.017,0.42,-2.73,-0.35
1743438564.512903,-0.182,-0.099,1.014,0.35,-2.38,-0.21
1743438564.532903,-0.181,-0.099,1.011,0.63,-2.24,-0.28
1743438564.552903,-0.183,-0.095,1.009,0.49,-2.45,-0.35
1743438564.572903,-0.179,-0.099,1.013,0.49,-2.59,-0.28
1743438564.592903,-0.18,-0.097,1.008,0.42,-2.45,-0.35
1743438564.6129029,-0.181,-0.098,1.012,0.21,-2.45,-0.35
1743438564.6329029,-0.183,-0.097,1.01,0.56,-2.59,-0.28
1743438564.6529028,-0.183,-0.096,1.009,0.49,-2.87,-0.42
1743438564.6729028,-0.181,-0.097,1.012,0.49,-2.94,-0.42
1743438564.6929028,-0.18,-0.099,1.007,0.63,-2.66,-0.35
1743438564.7129028,-0.181,-0.096,1.013,0.56,-2.73,-0.42
1743438564.7329028,-0.181,-0.1,1.011,0.42,-2.66,-0.49
1743438564.7529027,-0.181,-0.098,1.013,0.42,-2.38,-0.42
1743438564.7729027,-0.183,-0.096,1.012,0.42,-2.45,-0.42
1743438564.7929027,-0.181,-0.097,1.015,0.21,-2.45,-0.42
1743438564.8129027,-0.179,-0.099,1.008,0.21,-2.31,-0.42
1743438564.832903,-0.181,-0.099,1.006,0.56,-2.66,-0.42
1743438564.852903,-0.181,-0.098,1.01,0.63,-2.59,-0.35
1743438564.8729026,-0.182,-0.097,1.009,0.56,-2.73,-0.42
1743438564.8929026,-0.181,-0.099,1.011,0.42,-2.73,-0.42
1743438564.9129026,-0.178,-0.098,1.011,0.42,-2.38,-0.35
1743438564.9329026,-0.184,-0.098,1.01,0.56,-2.52,-0.35
1743438564.9529026,-0.181,-0.097,1.011,0.42,-2.87,-0.42
1743438564.9729023,-0.179,-0.096,1.011,0.35,-2.66,-0.35
1743438564.9929025,-0.18,-0.098,1.007,0.63,-2.45,-0.42
1743438565.0129025,-0.181,-0.097,1.01,0.63,-2.52,-0.35
1743438565.0329025,-0.181,-0.096,1.011,0.42,-2.59,-0.35
1743438565.0529025,-0.182,-0.096,1.008,0.21,-2.45,-0.35
1743438565.0729024,-0.181,-0.097,1.009,0.28,-2.52,-0.28
1743438565.0929024,-0.18,-0.098,1.007,0.42,-2.24,-0.42
1743438565.1129024,-0.18,-0.098,1.008,0.56,-2.24,-0.42
1743438565.1329024,-0.182,-0.098,1.01,0.49,-2.66,-0.49
1743438565.1529024,-0.179,-0.098,1.014,0.28,-2.45,-0.35
1743438565.1729023,-0.182,-0.097,1.01,0.49,-2.31,-0.35
1743438565.1929023,-0.182,-0.096,1.011,0.35,-2.52,-0.35
1743438565.2129023,-0.182,-0.095,1.012,0.21,-2.52,-0.42
1743438565.2329023,-0.18,-0.098,1.01,0.35,-2.38,-0.35
1743438565.2529025,-0.18,-0.097,1.014,0.56,-2.38,-0.35
1743438565.2729025,-0.181,-0.095,1.013,0.28,-2.17,-0.42
1743438565.2929022,-0.182,-0.098,1.009,0.21,-2.31,-0.28
1743438565.3129022,-0.182,-0.098,1.009,0.35,-2.66,-0.42
1743438565.3329022,-0.181,-0.097,1.01,0.56,-2.52,-0.42
1743438565.3529022,-0.182,-0.097,1.007,0.35,-3.01,-0.49
1743438565.3729022,-0.181,-0.099,1.01,0.49,-2.52,-0.42
1743438565.392902,-0.179,-0.099,1.008,0.56,-2.38,-0.49
1743438565.412902,-0.182,-0.099,1.013,0.42,-2.8,-0.42
1743438565.432902,-0.183,-0.097,1.01,0.49,-2.94,-0.35
1743438565.452902,-0.181,-0.101,1.004,0.42,-2.59,-0.42
1743438565.472902,-0.175,-0.097,1.004,2.1,-2.45,-0.28
1743438565.492902,-0.181,-0.09,1.026,0.07,-2.1,-0.42
1743438565.512902,-0.181,-0.1,1.009,0.28,-2.52,-0.42
1743438565.532902,-0.182,-0.096,1.018,-17.64,-1.54,-0.35
1743438565.552902,-0.183,-0.094,1.015,-0.91,-1.96,-0.42
1743438565.572902,-0.185,-0.101,1.003,0.42,-3.36,-0.42
1743438565.592902,-0.179,-0.096,1.009,0.91,-2.31,-0.35
1743438565.612902,-0.182,-0.096,1.006,0.42,-2.45,-0.49
1743438565.632902,-0.182,-0.096,1.007,1.12,-3.08,-0.56
1743438565.652902,-0.179,-0.096,1.013,0.21,-2.87,-0.56
1743438565.672902,-0.182,-0.097,1.014,0.56,-3.01,-0.42
1743438565.6929018,-0.178,-0.094,1.014,0.21,-3.01,-0.42
1743438565.7129018,-0.177,-0.098,1.011,0.14,-2.31,-0.49
1743438565.7329018,-0.18,-0.099,1.007,0.56,-2.31,-0.42
1743438565.7529018,-0.181,-0.097,1.011,0.56,-2.38,-0.42
1743438565.7729018,-0.18,-0.095,1.012,0.28,-2.24,-0.42
1743438565.7929018,-0.181,-0.098,1.01,0.35,-2.24,-0.42
1743438565.8129015,-0.18,-0.098,1.009,0.35,-2.31,-0.28
1743438565.8329017,-0.18,-0.097,1.007,0.28,-2.17,-0.35
1743438565.8529017,-0.181,-0.1,1.01,0.49,-2.31,-0.35
1743438565.8729017,-0.18,-0.098,1.009,0.7,-2.31,-0.35
1743438565.8929017,-0.183,-0.094,1.01,0.63,-2.59,-0.42
1743438565.9129016,-0.182,-0.096,1.011,0.49,-2.8,-0.49
1743438565.9329016,-0.181,-0.098,1.012,0.42,-2.24,-0.42
1743438565.9529016,-0.183,-0.099,1.01,0.35,-2.45,-0.42
1743438565.9729016,-0.184,-0.096,1.01,0.42,-2.66,-0.35
1743438565.9929016,-0.181,-0.098,1.014,0.28,-2.38,-0.35
1743438566.0129015,-0.18,-0.098,1.009,0.56,-2.59,-0.49
1743438566.0329015,-0.181,-0.096,1.012,0.49,-2.73,-0.49
1743438566.0529015,-0.182,-0.094,1.01,0.49,-2.45,-0.56
1743438566.0729015,-0.184,-0.096,1.011,0.35,-3.22,-0.63
1743438566.0929017,-0.178,-0.096,1.011,-0.42,-3.08,-0.42
1743438566.1129014,-0.175,-0.1,1.004,0.84,-2.24,-0.56
1743438566.1329014,-0.181,-0.097,1.007,0.84,-2.87,-0.35
1743438566.1529014,-0.182,-0.096,1.01,0.35,-3.15,-0.42
1743438566.1729014,-0.179,-0.1,1.009,0.63,-2.45,-0.42
1743438566.1929014,-0.18,-0.098,1.015,0.56,-2.24,-0.42
1743438566.2129014,-0.181,-0.099,1.012,-0.07,-2.17,-0.28
1743438566.232901,-0.183,-0.102,1.01,0.56,-2.24,-0.28
1743438566.2529013,-0.181,-0.097,1.012,0.49,-2.24,-0.28
1743438566.2729013,-0.179,-0.095,1.009,0.42,-2.03,-0.21
1743438566.2929013,-0.181,-0.098,1.009,0.77,-1.96,-0.21
1743438566.3129013,-0.179,-0.094,1.007,0.56,-2.17,-0.35
1743438566.3329012,-0.183,-0.094,1.007,0.21,-2.59,-0.28
1743438566.3529012,-0.18,-0.097,1.007,0.42,-2.66,-0.35
1743438566.3729012,-0.179,-0.097,1.008,0.77,-2.24,-0.35
1743438566.3929012,-0.183,-0.097,1.004,1.12,-3.01,-0.42
1743438566.4129012,-0.182,-0.093,1.015,1.19,-3.43,-0.42
1743438566.4329011,-0.176,-0.095,1.022,0.42,-2.17,-0.49
1743438566.4529011,-0.181,-0.093,1.019,-0.35,-2.03,-0.49
1743438566.472901,-0.183,-0.097,1.017,-0.49,-2.1,-0.56
1743438566.492901,-0.184,-0.101,1.006,-0.14,-2.31,-0.49
1743438566.512901,-0.182,-0.099,1.0,0.42,-3.15,-0.49
1743438566.532901,-0.179,-0.098,1.0,0.98,-3.01,-0.49
1743438566.552901,-0.175,-0.094,1.005,1.05,-2.59,-0.49
1743438566.572901,-0.179,-0.092,1.01,0.84,-2.66,-0.49
1743438566.592901,-0.178,-0.095,1.011,0.21,-2.94,-0.42
1743438566.612901,-0.178,-0.099,1.01,0.63,-2.31,-0.42
1743438566.632901,-0.182,-0.1,1.008,0.84,-2.59,-0.35
1743438566.652901,-0.18,-0.097,1.014,0.84,-2.31,-0.28
1743438566.672901,-0.181,-0.095,1.01,0.84,-2.1,-0.21
1743438566.692901,-0.182,-0.096,1.016,0.63,-1.89,-0.21
1743438566.7129009,-0.181,-0.096,1.015,0.56,-1.89,-0.28
1743438566.7329009,-0.184,-0.097,1.013,0.42,-1.89,-0.28
1743438566.7529008,-0.184,-0.097,1.015,0.21,-2.24,-0.35
1743438566.7729008,-0.18,-0.095,1.015,0.35,-2.45,-0.42
1743438566.7929008,-0.179,-0.093,1.01,0.28,-2.52,-0.42
1743438566.8129008,-0.18,-0.098,1.009,0.0,-2.73,-0.42
1743438566.8329008,-0.178,-0.093,1.009,-0.07,-2.52,-0.42
1743438566.8529007,-0.179,-0.099,1.01,0.21,-2.52,-0.56
1743438566.8729007,-0.183,-0.098,1.012,0.21,-2.87,-0.49
1743438566.8929007,-0.178,-0.098,1.011,0.21,-2.94,-0.49
1743438566.9129007,-0.179,-0.1,1.01,0.35,-2.94,-0.56
1743438566.932901,-0.18,-0.098,1.015,0.21,-2.8,-0.42
1743438566.9529006,-0.181,-0.098,1.011,0.07,-2.52,-0.35
1743438566.9729006,-0.18,-0.098,1.008,0.21,-2.45,-0.35
1743438566.9929006,-0.182,-0.097,1.009,0.7,-2.52,-0.35
1743438567.0129006,-0.183,-0.096,1.006,0.84,-2.66,-0.42
1743438567.0329006,-0.182,-0.093,1.01,0.84,-2.94,-0.42
1743438567.0529006,-0.178,-0.092,1.018,-0.28,-2.87,-0.35
1743438567.0729003,-0.177,-0.1,1.016,-0.63,-1.96,-0.42
1743438567.0929005,-0.181,-0.102,1.007,0.28,-1.82,-0.42
1743438567.1129005,-0.185,-0.1,1.011,0.77,-2.73,-0.49
1743438567.1329005,-0.187,-0.098,1.01,0.35,-3.57,-0.28
1743438567.1529005,-0.181,-0.099,1.008,1.26,-2.59,-0.42
1743438567.1729004,-0.179,-0.095,1.003,1.54,-2.73,-0.28
1743438567.1929004,-0.182,-0.092,0.997,0.42,-3.85,-0.28
1743438567.2129004,-0.175,-0.096,1.016,1.05,-2.87,-0.35
1743438567.2329004,-0.179,-0.095,1.029,0.56,-1.68,-0.42
1743438567.2529004,-0.185,-0.097,1.022,-0.35,-2.17,-0.49
1743438567.2729003,-0.183,-0.098,1.022,-0.35,-2.03,-0.42
1743438567.2929003,-0.182,-0.099,1.009,17.78,-2.59,-0.42
1743438567.3129003,-0.178,-0.099,0.999,0.35,-2.66,-0.42
1743438567.3329003,-0.177,-0.095,1.002,0.77,-2.24,-0.42
1743438567.3529005,-0.183,-0.094,1.001,0.42,-3.08,-0.63
1743438567.3729002,-0.186,-0.097,1.009,0.77,-3.57,-0.56
1743438567.3929002,-0.179,-0.095,1.012,0.49,-3.08,-0.49
1743438567.4129002,-0.178,-0.097,1.011,0.91,-2.59,-0.49
1743438567.4329002,-0.178,-0.093,1.015,0.0,-2.94,-0.56
1743438567.4529002,-0.179,-0.097,1.011,0.0,-2.66,-0.49
1743438567.4729002,-0.181,-0.1,1.013,0.7,-2.17,-0.42
1743438567.4929,-0.181,-0.095,1.015,0.14,-2.24,-0.42
1743438567.5129,-0.182,-0.099,1.013,0.14,-2.31,-0.35
1743438567.5329,-0.179,-0.097,1.008,0.28,-2.38,-0.35
1743438567.5529,-0.178,-0.098,1.011,0.07,-2.45,-0.42
1743438567.5729,-0.179,-0.099,1.004,0.42,-2.24,-0.35
1743438567.5929,-0.179,-0.097,1.005,0.56,-2.52,-0.35
1743438567.6129,-0.178,-0.099,1.007,0.49,-2.59,-0.42
1743438567.6329,-0.181,-0.098,1.011,0.42,-2.66,-0.42
1743438567.6529,-0.179,-0.099,1.009,0.77,-2.45,-0.35
1743438567.6729,-0.18,-0.097,1.013,0.49,-2.24,-0.28
1743438567.6929,-0.183,-0.097,1.012,0.49,-2.31,-0.35
1743438567.7129,-0.18,-0.095,1.012,0.49,-2.31,-0.28
1743438567.7329,-0.18,-0.098,1.014,0.49,-2.1,-0.28
1743438567.7529,-0.181,-0.096,1.007,0.49,-2.1,-0.21
1743438567.7729,-0.18,-0.097,1.006,0.7,-2.1,-0.14
1743438567.7928998,-0.181,-0.096,1.011,1.12,-1.82,-0.28
1743438567.8128998,-0.18,-0.095,1.013,0.91,-2.1,-0.28
1743438567.8328998,-0.18,-0.096,1.019,0.07,-2.03,-0.28
1743438567.8528998,-0.179,-0.098,1.018,0.07,-1.82,-0.35
1743438567.8728998,-0.185,-0.099,1.013,0.28,-2.03,-0.28
1743438567.8928998,-0.184,-0.097,1.009,0.14,-2.31,-0.35
1743438567.9128995,-0.185,-0.095,1.007,1.12,-2.45,-0.56
1743438567.9328997,-0.183,-0.095,1.01,0.0,-3.57,-0.42
1743438567.9528997,-0.18,-0.1,1.01,0.28,-2.87,-0.49
1743438567.9728997,-0.18,-0.094,1.01,1.4,-2.38,-0.63
1743438567.9928997,-0.183,-0.091,1.009,0.0,-3.57,-0.56
1743438568.0128996,-0.179,-0.098,1.013,0.14,-3.5,-0.49
1743438568.0328996,-0.176,-0.101,1.015,0.7,-2.8,-0.63
1743438568.0528996,-0.18,-0.094,1.011,0.28,-2.87,-0.49
1743438568.0728996,-0.177,-0.097,1.012,0.28,-2.66,-0.56
1743438568.0928996,-0.178,-0.097,1.009,0.28,-2.45,-0.49
1743438568.1128995,-0.177,-0.096,1.007,0.14,-2.73,-0.42
1743438568.1328995,-0.177,-0.098,1.01,0.63,-2.24,-0.42
1743438568.1528995,-0.182,-0.097,1.006,0.49,-2.17,-0.42
1743438568.1728995,-0.182,-0.097,1.01,0.28,-2.66,-0.35
1743438568.1928997,-0.178,-0.1,1.01,0.7,-2.38,-0.28
1743438568.2128994,-0.179,-0.098,1.01,0.84,-2.03,-0.42
1743438568.2328994,-0.182,-0.097,1.013,0.7,-2.59,-0.28
1743438568.2528994,-0.179,-0.096,1.013,0.77,-2.45,-0.42
1743438568.2728994,-0.181,-0.095,1.013,0.21,-2.38,-0.35
1743438568.2928994,-0.18,-0.095,1.013,0.0,-2.31,-0.28
1743438568.3128994,-0.177,-0.099,1.005,0.21,-2.45,-0.35
1743438568.332899,-0.18,-0.101,1.007,0.98,-2.59,-0.35
1743438568.3528993,-0.182,-0.099,1.008,1.4,-3.01,-0.21
1743438568.3728993,-0.179,-0.096,1.011,1.75,-3.57,-0.35
1743438568.3928993,-0.18,-0.092,1.017,1.26,-3.01,-0.35
1743438568.4128993,-0.181,-0.096,1.021,0.49,-2.45,-0.42
1743438568.4328992,-0.182,-0.094,1.013,-0.21,-2.31,-0.49
1743438568.4528992,-0.182,-0.097,1.008,0.0,-2.8,-0.49
1743438568.4728992,-0.18,-0.098,1.006,0.35,-2.59,-0.35
1743438568.4928992,-0.177,-0.096,1.004,0.63,-2.52,-0.49
1743438568.5128992,-0.179,-0.092,1.008,0.7,-3.01,-0.42
1743438568.5328991,-0.18,-0.096,1.015,0.42,-2.8,-0.42
1743438568.5528991,-0.183,-0.098,1.015,0.28,-2.52,-0.49
1743438568.572899,-0.182,-0.099,1.014,0.28,-2.8,-0.56
1743438568.592899,-0.179,-0.096,1.013,0.07,-2.59,-0.42
1743438568.612899,-0.178,-0.097,1.012,0.14,-2.45,-0.35
1743438568.632899,-0.178,-0.095,1.01,0.21,-2.45,-0.42
1743438568.652899,-0.178,-0.096,1.009,0.14,-2.1,-0.42
1743438568.672899,-0.178,-0.097,1.008,0.28,-2.17,-0.35
1743438568.692899,-0.18,-0.097,1.01,0.07,-2.17,-0.21
1743438568.712899,-0.179,-0.098,1.009,0.14,-2.24,-0.35
1743438568.732899,-0.182,-0.097,1.009,0.63,-2.38,-0.35
1743438568.752899,-0.178,-0.095,1.015,0.56,-2.24,-0.42
1743438568.772899,-0.179,-0.094,1.015,0.14,-2.03,-0.35
1743438568.792899,-0.182,-0.095,1.019,-0.14,-1.61,-0.49
1743438568.8128989,-0.182,-0.093,1.021,-0.28,-1.4,-0.56
1743438568.8328989,-0.185,-0.09,1.02,-2.52,-2.87,-0.56
1743438568.8528988,-0.177,-0.097,1.02,-2.03,-1.61,-0.7
1743438568.8728988,-0.174,-0.1,1.018,-0.98,-0.84,-0.84
1743438568.8928988,-0.179,-0.088,1.023,-2.17,0.14,-0.98
1743438568.9128988,-0.181,-0.085,1.033,-4.62,1.68,-1.26
1743438568.9328988,-0.182,-0.091,1.042,-7.21,3.22,-1.47
1743438568.9528987,-0.189,-0.096,1.028,-11.34,5.95,-1.54
1743438568.9728987,-0.197,-0.111,0.999,-9.31,3.43,-1.54
1743438568.9928987,-0.204,-0.128,0.982,-1.05,-1.33,-1.61
1743438569.0128987,-0.196,-0.111,0.977,0.21,-3.85,-1.89
1743438569.032899,-0.196,-0.103,0.971,-0.07,-5.53,-1.61
1743438569.0528986,-0.185,-0.103,0.972,0.98,-8.75,-1.47
1743438569.0728986,-0.171,-0.104,0.995,2.87,-8.12,-1.4
1743438569.0928986,-0.165,-0.102,1.016,2.38,-6.37,-1.12
1743438569.1128986,-0.174,-0.101,1.024,0.77,-4.83,-0.91
1743438569.1328986,-0.179,-0.107,1.024,0.49,-4.41,-0.56
1743438569.1528986,-0.176,-0.11,1.025,0.35,-2.66,-0.42
1743438569.1728983,-0.169,-0.106,1.017,-0.35,-1.19,-0.07
1743438569.1928985,-0.168,-0.106,1.006,-0.84,0.63,0.28
1743438569.2128985,-0.173,-0.107,0.995,0.0,2.45,0.35
1743438569.2328985,-0.182,-0.105,0.992,0.21,1.05,0.42
1743438569.2528985,-0.187,-0.103,1.002,0.35,0.14,0.49
1743438569.2728984,-0.186,-0.108,1.005,1.33,0.56,0.42
1743438569.2928984,-0.191,-0.102,1.009,1.68,-0.7,0.28
1743438569.3128984,-0.189,-0.102,1.016,1.05,-1.47,0.14
1743438569.3328984,-0.192,-0.102,1.018,0.77,-1.05,0.0
1743438569.3528984,-0.193,-0.101,1.017,0.49,-1.54,-0.28
1743438569.3728983,-0.192,-0.102,1.022,0.21,-2.17,-0.35
1743438569.3928983,-0.191,-0.101,1.022,0.0,-2.17,-0.49
1743438569.4128983,-0.194,-0.102,1.016,-0.56,-3.29,-0.7
1743438569.4328983,-0.196,-0.105,1.008,-0.49,-4.34,-0.77
1743438569.4528985,-0.189,-0.108,0.998,-0.21,-4.9,-0.98
1743438569.4728982,-0.182,-0.108,0.996,0.7,-5.18,-1.05
1743438569.4928982,-0.18,-0.104,0.998,1.05,-5.25,-0.91
1743438569.5128982,-0.178,-0.104,1.009,0.98,-4.34,-0.7
1743438569.5328982,-0.178,-0.106,1.016,0.84,-2.94,-0.63
1743438569.5528982,-0.178,-0.104,1.017,0.56,-2.1,-0.49
1743438569.572898,-0.184,-0.105,1.013,0.28,-1.89,-0.42
1743438569.592898,-0.182,-0.104,1.005,0.35,-1.82,-0.21
1743438569.612898,-0.18,-0.105,1.005,0.07,-1.12,-0.07
1743438569.632898,-0.181,-0.104,1.002,0.7,-0.35,-0.21
1743438569.652898,-0.186,-0.102,1.007,0.98,-1.12,0.0
1743438569.672898,-0.184,-0.102,1.012,-0.14,-0.91,0.0
1743438569.692898,-0.188,-0.107,1.012,0.91,-0.98,-0.28
1743438569.712898,-0.188,-0.1,1.01,1.12,-1.54,-0.21
1743438569.732898,-0.187,-0.101,1.013,-0.14,-2.24,-0.35
1743438569.752898,-0.19,-0.105,1.008,0.84,-2.59,-0.49
1743438569.772898,-0.188,-0.102,1.013,-0.21,-2.73,-0.63
1743438569.792898,-0.187,-0.104,1.01,-0.42,-3.29,-0.56
1743438569.812898,-0.187,-0.109,1.007,0.56,-3.57,-0.7
1743438569.832898,-0.184,-0.103,1.009,0.77,-3.64,-0.77
1743438569.852898,-0.186,-0.103,1.005,0.35,-4.13,-0.7
1743438569.872898,-0.181,-0.103,1.007,0.98,-3.71,-0.7
1743438569.8928978,-0.181,-0.099,1.01,0.7,-3.01,-0.56
1743438569.9128978,-0.182,-0.103,1.01,-0.63,-3.01,-0.42
1743438569.9328978,-0.18,-0.109,1.012,0.63,-2.03,-0.42
1743438569.9528978,-0.179,-0.105,1.007,0.56,-2.03,-0.35
1743438569.9728978,-0.181,-0.103,1.006,-0.14,-2.38,-0.28
1743438569.9928975,-0.18,-0.102,1.008,0.42,-1.89,-0.28
1743438570.0128975,-0.178,-0.104,1.011,0.56,-1.12,-0.21
1743438570.0328977,-0.19,-0.104,1.005,-0.35,-1.89,-0.21
1743438570.0528977,-0.186,-0.107,1.001,0.14,-2.45,-0.35
1743438570.0728977,-0.186,-0.102,1.011,1.33,-1.89,-0.49
1743438570.0928977,-0.19,-0.101,1.014,0.21,-3.22,-0.35
1743438570.1128976,-0.181,-0.105,1.01,-0.28,-2.45,-0.42
1743438570.1328976,-0.181,-0.108,1.009,1.12,-2.59,-0.49
1743438570.1528976,-0.181,-0.1,1.011,0.07,-3.08,-0.56
1743438570.1728976,-0.183,-0.11,1.007,-0.21,-3.29,-0.56
1743438570.1928976,-0.176,-0.108,1.003,1.89,-1.61,-0.49
1743438570.2128975,-0.19,-0.101,1.007,1.61,-2.45,-0.35
1743438570.2328975,-0.181,-0.101,1.01,-1.05,-3.99,-0.28
1743438570.2528975,-0.18,-0.115,1.008,0.14,-2.31,-0.42
1743438570.2728975,-0.185,-0.104,1.012,2.66,-1.4,-0.35
1743438570.2928977,-0.192,-0.096,1.015,0.0,-2.38,-0.35
1743438570.3128974,-0.187,-0.102,1.011,0.91,-2.1,-0.35
1743438570.3328974,-0.184,-0.099,1.014,0.0,-1.96,-0.28
1743438570.3528974,-0.182,-0.101,1.006,-0.98,-2.66,-0.28
1743438570.3728974,-0.182,-0.107,1.005,0.07,-2.17,-0.42
1743438570.3928974,-0.184,-0.108,1.004,0.21,-2.17,-0.42
1743438570.412897,-0.185,-0.108,1.005,0.49,-3.01,-0.42
1743438570.432897,-0.182,-0.106,1.01,1.47,-2.66,-0.35
1743438570.4528973,-0.186,-0.103,1.013,1.33,-2.52,-0.49
1743438570.4728973,-0.189,-0.1,1.014,0.42,-3.08,-0.49
1743438570.4928973,-0.189,-0.099,1.013,-0.07,-3.01,-0.42
1743438570.5128973,-0.186,-0.106,1.012,0.14,-2.66,-0.49
1743438570.5328972,-0.187,-0.103,1.008,0.21,-2.94,-0.42
1743438570.5528972,-0.183,-0.104,1.008,0.56,-2.52,-0.42
1743438570.5728972,-0.182,-0.104,1.01,0.7,-2.24,-0.49
1743438570.5928972,-0.182,-0.1,1.013,0.14,-2.52,-0.42
1743438570.6128972,-0.183,-0.104,1.01,-0.14,-2.1,-0.42
1743438570.6328971,-0.183,-0.107,1.006,0.14,-2.73,-0.35
1743438570.6528971,-0.184,-0.108,1.007,0.28,-2.66,-0.42
1743438570.672897,-0.183,-0.106,1.007,0.35,-2.66,-0.42
1743438570.692897,-0.182,-0.108,1.009,0.63,-2.66,-0.42
1743438570.712897,-0.181,-0.103,1.009,0.56,-2.31,-0.42
1743438570.732897,-0.184,-0.107,1.005,0.77,-2.38,-0.35
1743438570.752897,-0.186,-0.102,1.009,0.7,-2.8,-0.28
1743438570.772897,-0.183,-0.101,1.011,0.42,-2.45,-0.35
1743438570.792897,-0.186,-0.103,1.011,0.42,-2.38,-0.49
1743438570.812897,-0.185,-0.103,1.012,0.42,-2.45,-0.42
1743438570.832897,-0.185,-0.103,1.01,0.07,-2.17,-0.49
1743438570.852897,-0.188,-0.107,1.012,0.35,-2.52,-0.49
1743438570.872897,-0.185,-0.104,1.011,0.14,-2.31,-0.42
1743438570.892897,-0.183,-0.103,1.01,0.07,-2.52,-0.42
1743438570.9128969,-0.183,-0.105,1.007,0.28,-2.8,-0.42
1743438570.9328969,-0.182,-0.104,1.008,0.28,-2.45,-0.56
1743438570.9528968,-0.185,-0.106,1.005,0.35,-2.94,-0.49
1743438570.9728968,-0.184,-0.106,1.007,0.77,-2.73,-0.42
1743438570.9928968,-0.184,-0.104,1.008,0.49,-2.45,-0.56
1743438571.0128968,-0.186,-0.104,1.011,0.35,-2.73,-0.49
1743438571.0328968,-0.183,-0.104,1.011,0.42,-2.73,-0.35
1743438571.0528967,-0.185,-0.103,1.012,0.14,-2.45,-0.42
1743438571.0728967,-0.183,-0.106,1.01,0.28,-2.45,-0.35
1743438571.0928967,-0.183,-0.103,1.009,0.21,-2.66,-0.49
1743438571.1128967,-0.181,-0.106,1.01,0.21,-2.1,-0.42
1743438571.132897,-0.183,-0.103,1.009,0.63,-2.31,-0.42
1743438571.1528966,-0.183,-0.102,1.01,0.63,-2.38,-0.49
1743438571.1728966,-0.185,-0.103,1.008,0.21,-2.38,-0.42
1743438571.1928966,-0.185,-0.105,1.01,0.63,-2.59,-0.35
1743438571.2128966,-0.183,-0.104,1.011,0.7,-2.45,-0.49
1743438571.2328966,-0.183,-0.103,1.01,0.28,-2.59,-0.42
1743438571.2528963,-0.184,-0.106,1.009,0.77,-2.66,-0.42
1743438571.2728963,-0.184,-0.104,1.01,0.7,-2.45,-0.35
1743438571.2928965,-0.183,-0.101,1.011,0.21,-2.45,-0.42
1743438571.3128965,-0.181,-0.104,1.009,0.28,-2.66,-0.42
1743438571.3328965,-0.182,-0.104,1.01,0.42,-2.59,-0.49
1743438571.3528965,-0.183,-0.103,1.007,0.14,-2.45,-0.35
1743438571.3728964,-0.185,-0.105,1.008,0.07,-2.8,-0.49
1743438571.3928964,-0.182,-0.105,1.008,0.42,-2.66,-0.42
1743438571.4128964,-0.182,-0.106,1.01,0.35,-2.31,-0.42
1743438571.4328964,-0.186,-0.104,1.008,0.63,-2.59,-0.42
1743438571.4528964,-0.181,-0.105,1.009,0.7,-2.38,-0.42
1743438571.4728963,-0.184,-0.103,1.007,0.56,-2.24,-0.21
1743438571.4928963,-0.183,-0.102,1.009,0.63,-2.59,-0.35
1743438571.5128963,-0.183,-0.101,1.012,0.56,-2.24,-0.42
1743438571.5328965,-0.184,-0.102,1.01,0.49,-2.17,-0.35
1743438571.5528965,-0.187,-0.104,1.01,0.42,-2.59,-0.42
1743438571.5728962,-0.184,-0.104,1.011,0.42,-2.45,-0.42
1743438571.5928962,-0.184,-0.106,1.01,0.21,-2.45,-0.42
1743438571.6128962,-0.184,-0.105,1.011,0.35,-2.73,-0.49
1743438571.6328962,-0.182,-0.106,1.007,0.28,-2.45,-0.42
1743438571.6528962,-0.185,-0.105,1.008,0.35,-2.73,-0.42
1743438571.672896,-0.182,-0.103,1.008,0.49,-2.66,-0.49
1743438571.692896,-0.183,-0.102,1.006,0.49,-2.59,-0.42
1743438571.712896,-0.184,-0.105,1.007,0.49,-2.8,-0.42
1743438571.732896,-0.182,-0.105,1.01,0.56,-2.38,-0.42
1743438571.752896,-0.185,-0.104,1.01,0.28,-2.38,-0.42
1743438571.772896,-0.184,-0.108,1.008,0.42,-2.59,-0.35
1743438571.792896,-0.184,-0.105,1.009,0.49,-2.38,-0.35
1743438571.812896,-0.183,-0.103,1.008,0.21,-2.1,-0.42
1743438571.832896,-0.185,-0.105,1.007,0.49,-2.38,-0.28
1743438571.852896,-0.183,-0.101,1.01,0.49,-2.31,-0.35
1743438571.872896,-0.183,-0.105,1.009,0.21,-2.17,-0.42
1743438571.892896,-0.184,-0.105,1.007,0.7,-2.52,-0.35
1743438571.912896,-0.183,-0.104,1.009,0.63,-2.38,-0.42
1743438571.932896,-0.184,-0.103,1.009,0.21,-2.66,-0.42
1743438571.952896,-0.183,-0.104,1.008,0.42,-2.52,-0.35
1743438571.972896,-0.184,-0.105,1.01,0.42,-2.24,-0.28
1743438571.9928958,-0.183,-0.106,1.008,0.42,-2.31,-0.35
1743438572.0128958,-0.187,-0.106,1.008,0.63,-2.38,-0.42
1743438572.0328958,-0.182,-0.102,1.007,0.7,-2.31,-0.42
1743438572.0528958,-0.183,-0.104,1.009,0.35,-2.45,-0.35
1743438572.0728958,-0.183,-0.102,1.012,0.56,-2.24,-0.35
1743438572.0928955,-0.186,-0.104,1.009,0.42,-2.24,-0.42
1743438572.1128955,-0.183,-0.104,1.01,0.0,-2.59,-0.35
1743438572.1328957,-0.183,-0.105,1.01,0.21,-2.1,-0.35
1743438572.1528957,-0.184,-0.106,1.01,0.56,-2.45,-0.42
1743438572.1728957,-0.185,-0.105,1.007,0.56,-2.59,-0.35
1743438572.1928957,-0.186,-0.102,1.005,0.42,-2.52,-0.42
1743438572.2128956,-0.185,-0.103,1.008,0.49,-2.73,-0.42
1743438572.2328956,-0.182,-0.103,1.009,0.42,-2.59,-0.42
1743438572.2528956,-0.184,-0.105,1.009,0.28,-2.52,-0.42
1743438572.2728956,-0.184,-0.106,1.009,0.21,-2.87,-0.49
1743438572.2928956,-0.182,-0.103,1.009,0.49,-2.59,-0.49
1743438572.3128955,-0.183,-0.104,1.01,0.28,-2.45,-0.49
1743438572.3328955,-0.185,-0.106,1.008,0.35,-2.73,-0.42
1743438572.3528955,-0.183,-0.106,1.01,0.42,-2.45,-0.35
1743438572.3728957,-0.183,-0.105,1.008,0.49,-2.31,-0.28
1743438572.3928957,-0.184,-0.105,1.01,0.42,-2.38,-0.35
1743438572.4128954,-0.181,-0.107,1.011,0.49,-2.45,-0.28
1743438572.4328954,-0.183,-0.105,1.011,0.63,-2.03,-0.42
1743438572.4528954,-0.183,-0.104,1.008,0.56,-2.31,-0.35
1743438572.4728954,-0.183,-0.103,1.01,0.63,-2.24,-0.28
1743438572.4928954,-0.182,-0.105,1.01,0.42,-2.24,-0.35
1743438572.512895,-0.184,-0.106,1.009,0.28,-2.52,-0.42
1743438572.532895,-0.185,-0.104,1.008,0.35,-2.38,-0.42
1743438572.5528953,-0.182,-0.105,1.009,0.35,-2.52,-0.42
1743438572.5728953,-0.186,-0.106,1.011,0.56,-2.73,-0.49
1743438572.5928953,-0.184,-0.103,1.011,0.56,-2.52,-0.42
1743438572.6128953,-0.187,-0.105,1.011,0.28,-2.73,-0.42
1743438572.6328952,-0.183,-0.106,1.011,0.21,-2.73,-0.49
1743438572.6528952,-0.181,-0.105,1.008,0.14,-2.52,-0.56
1743438572.6728952,-0.184,-0.104,1.008,0.28,-2.73,-0.56
1743438572.6928952,-0.183,-0.105,1.011,0.42,-2.8,-0.42
1743438572.7128952,-0.183,-0.105,1.009,0.35,-2.38,-0.49
1743438572.7328951,-0.185,-0.108,1.007,0.42,-2.8,-0.42
1743438572.752895,-0.183,-0.105,1.007,0.49,-2.38,-0.42
1743438572.772895,-0.183,-0.105,1.009,0.28,-2.24,-0.35
1743438572.792895,-0.185,-0.105,1.009,0.49,-2.66,-0.35
1743438572.812895,-0.183,-0.103,1.009,0.56,-2.45,-0.42
1743438572.832895,-0.186,-0.104,1.008,0.42,-2.59,-0.42
1743438572.852895,-0.184,-0.106,1.01,0.49,-2.73,-0.35
1743438572.872895,-0.183,-0.103,1.01,0.28,-2.45,-0.42
1743438572.892895,-0.184,-0.106,1.009,0.14,-2.45,-0.42
1743438572.912895,-0.184,-0.106,1.008,0.28,-2.8,-0.42
1743438572.932895,-0.184,-0.107,1.009,0.49,-2.45,-0.42
1743438572.952895,-0.183,-0.108,1.01,0.42,-2.52,-0.35
1743438572.972895,-0.182,-0.105,1.01,0.56,-2.87,-0.42
1743438572.992895,-0.181,-0.104,1.008,0.35,-2.24,-0.42
1743438573.0128949,-0.184,-0.106,1.005,0.42,-2.52,-0.49
1743438573.0328948,-0.183,-0.107,1.009,0.42,-2.66,-0.35
1743438573.0528948,-0.18,-0.106,1.011,0.42,-2.52,-0.42
1743438573.0728948,-0.183,-0.106,1.011,0.56,-2.31,-0.42
1743438573.0928948,-0.182,-0.107,1.011,0.42,-2.52,-0.42
1743438573.1128948,-0.183,-0.103,1.011,0.35,-2.38,-0.35
1743438573.1328948,-0.185,-0.102,1.011,0.35,-2.38,-0.35
1743438573.1528947,-0.185,-0.105,1.01,0.42,-2.66,-0.42
1743438573.1728947,-0.183,-0.104,1.009,0.28,-2.38,-0.42
1743438573.1928947,-0.183,-0.102,1.007,0.28,-2.73,-0.42
1743438573.212895,-0.182,-0.104,1.01,0.42,-2.66,-0.49
1743438573.232895,-0.182,-0.104,1.009,0.35,-2.52,-0.35
1743438573.2528946,-0.185,-0.107,1.011,0.56,-2.8,-0.35
1743438573.2728946,-0.182,-0.105,1.011,0.42,-2.52,-0.42
1743438573.2928946,-0.184,-0.105,1.007,0.21,-2.59,-0.42
1743438573.3128946,-0.184,-0.105,1.009,0.35,-2.59,-0.42
1743438573.3328946,-0.185,-0.104,1.012,0.28,-2.24,-0.42
1743438573.3528943,-0.183,-0.105,1.008,0.28,-2.52,-0.35
1743438573.3728943,-0.183,-0.102,1.007,0.49,-2.45,-0.42
1743438573.3928945,-0.184,-0.106,1.007,0.49,-2.1,-0.35
1743438573.4128945,-0.183,-0.106,1.008,0.35,-2.66,-0.42
1743438573.4328945,-0.183,-0.103,1.009,0.63,-2.38,-0.42
1743438573.4528944,-0.183,-0.104,1.009,0.35,-2.38,-0.49
1743438573.4728944,-0.185,-0.105,1.007,0.35,-2.73,-0.35
1743438573.4928944,-0.183,-0.104,1.011,0.49,-2.45,-0.42
1743438573.5128944,-0.184,-0.102,1.01,0.42,-2.31,-0.42
1743438573.5328944,-0.186,-0.105,1.01,0.49,-2.66,-0.35
1743438573.5528944,-0.181,-0.103,1.012,0.49,-2.59,-0.49
1743438573.5728943,-0.182,-0.104,1.009,0.35,-2.38,-0.49
1743438573.5928943,-0.183,-0.105,1.007,0.28,-2.52,-0.42
1743438573.6128943,-0.184,-0.104,1.006,0.35,-2.59,-0.42
1743438573.6328945,-0.183,-0.104,1.009,0.42,-2.31,-0.35
1743438573.6528945,-0.185,-0.103,1.007,0.49,-2.38,-0.42
1743438573.6728942,-0.183,-0.104,1.009,0.49,-2.52,-0.42
1743438573.6928942,-0.185,-0.104,1.008,0.49,-2.24,-0.42
1743438573.7128942,-0.182,-0.105,1.011,0.49,-2.45,-0.42
1743438573.7328942,-0.182,-0.104,1.011,0.35,-2.52,-0.42
1743438573.7528942,-0.183,-0.105,1.009,0.28,-2.45,-0.35
1743438573.772894,-0.182,-0.103,1.01,0.35,-2.52,-0.35
1743438573.792894,-0.183,-0.106,1.009,0.42,-2.31,-0.35
1743438573.812894,-0.182,-0.103,1.009,0.49,-2.45,-0.35
1743438573.832894,-0.185,-0.105,1.01,0.42,-2.52,-0.42
1743438573.852894,-0.183,-0.102,1.011,0.42,-2.38,-0.42
1743438573.872894,-0.183,-0.104,1.01,0.28,-2.45,-0.42
1743438573.892894,-0.184,-0.104,1.012,0.28,-2.66,-0.35
1743438573.912894,-0.182,-0.103,1.008,0.42,-2.45,-0.42
1743438573.932894,-0.183,-0.105,1.007,0.35,-2.45,-0.35
1743438573.952894,-0.183,-0.101,1.009,0.49,-2.59,-0.42
1743438573.972894,-0.183,-0.103,1.011,0.42,-2.38,-0.42
1743438573.992894,-0.183,-0.106,1.008,0.49,-2.66,-0.42
1743438574.012894,-0.183,-0.105,1.009,0.56,-2.45,-0.42
1743438574.032894,-0.184,-0.107,1.01,0.35,-2.31,-0.28
1743438574.052894,-0.183,-0.105,1.01,0.49,-2.59,-0.35
1743438574.072894,-0.183,-0.104,1.007,0.42,-2.38,-0.42
1743438574.0928938,-0.185,-0.104,1.008,0.35,-2.38,-0.35
1743438574.1128938,-0.183,-0.106,1.006,0.49,-2.66,-0.35
1743438574.1328938,-0.183,-0.105,1.011,0.49,-2.52,-0.42
1743438574.1528938,-0.185,-0.102,1.01,0.21,-2.66,-0.49
1743438574.1728938,-0.185,-0.105,1.01,0.63,-2.59,-0.42
1743438574.1928935,-0.183,-0.104,1.008,0.42,-2.24,-0.42
1743438574.2128935,-0.185,-0.103,1.007,0.35,-2.59,-0.49
1743438574.2328937,-0.185,-0.104,1.009,0.49,-2.66,-0.35
1743438574.2528937,-0.183,-0.106,1.01,0.56,-2.31,-0.49
1743438574.2728937,-0.185,-0.103,1.007,0.49,-2.45,-0.42
1743438574.2928936,-0.184,-0.104,1.011,0.49,-2.73,-0.35
1743438574.3128936,-0.182,-0.106,1.011,0.42,-2.17,-0.42
1743438574.3328936,-0.183,-0.107,1.01,0.35,-2.45,-0.49
1743438574.3528936,-0.185,-0.106,1.008,0.35,-2.59,-0.42
1743438574.3728936,-0.183,-0.105,1.008,0.42,-2.52,-0.42
1743438574.3928936,-0.183,-0.105,1.01,0.35,-2.24,-0.28
1743438574.4128935,-0.185,-0.106,1.006,0.49,-2.59,-0.35
1743438574.4328935,-0.183,-0.104,1.01,0.56,-2.45,-0.28
1743438574.4528935,-0.183,-0.103,1.009,0.49,-2.31,-0.42
1743438574.4728937,-0.184,-0.103,1.009,0.42,-2.66,-0.42
1743438574.4928937,-0.183,-0.104,1.008,0.49,-2.45,-0.49
1743438574.5128934,-0.184,-0.105,1.011,0.49,-2.24,-0.42
1743438574.5328934,-0.186,-0.105,1.01,0.42,-2.52,-0.49
1743438574.5528934,-0.184,-0.105,1.01,0.49,-2.45,-0.35
1743438574.5728934,-0.183,-0.103,1.01,0.35,-2.45,-0.42
1743438574.5928934,-0.187,-0.104,1.008,0.56,-2.66,-0.42
1743438574.612893,-0.183,-0.103,1.011,0.42,-2.31,-0.42
1743438574.632893,-0.185,-0.103,1.01,0.35,-2.52,-0.42
1743438574.6528933,-0.185,-0.104,1.01,0.35,-2.73,-0.42
1743438574.6728933,-0.183,-0.104,1.01,0.35,-2.52,-0.42
1743438574.6928933,-0.182,-0.104,1.007,0.28,-2.45,-0.49
1743438574.7128932,-0.185,-0.107,1.006,0.35,-2.66,-0.42
1743438574.7328932,-0.182,-0.105,1.006,0.42,-2.45,-0.42
1743438574.7528932,-0.183,-0.104,1.007,0.35,-2.45,-0.49
1743438574.7728932,-0.184,-0.107,1.008,0.7,-2.66,-0.35
1743438574.7928932,-0.184,-0.103,1.011,0.42,-2.31,-0.28
1743438574.8128932,-0.185,-0.105,1.011,0.49,-2.59,-0.49
1743438574.8328931,-0.183,-0.103,1.011,0.42,-2.66,-0.35
1743438574.852893,-0.182,-0.103,1.012,0.35,-2.24,-0.42
1743438574.872893,-0.183,-0.105,1.006,0.35,-2.59,-0.35
1743438574.892893,-0.184,-0.103,1.011,0.35,-2.45,-0.42
1743438574.912893,-0.183,-0.106,1.009,0.35,-2.31,-0.42
1743438574.932893,-0.185,-0.105,1.009,0.49,-2.66,-0.42
1743438574.952893,-0.183,-0.105,1.008,0.49,-2.52,-0.42
1743438574.972893,-0.183,-0.105,1.008,0.35,-2.52,-0.42
1743438574.992893,-0.183,-0.104,1.007,0.49,-2.66,-0.49
1743438575.012893,-0.183,-0.103,1.012,0.35,-2.45,-0.49
1743438575.032893,-0.184,-0.104,1.008,0.14,-2.45,-0.35
1743438575.052893,-0.184,-0.106,1.01,0.35,-2.52,-0.42
1743438575.072893,-0.182,-0.103,1.01,0.42,-2.31,-0.42
1743438575.092893,-0.183,-0.103,1.006,0.42,-2.59,-0.42
1743438575.1128929,-0.183,-0.105,1.011,0.42,-2.52,-0.35
1743438575.1328928,-0.183,-0.105,1.01,0.42,-2.38,-0.28
1743438575.1528928,-0.186,-0.103,1.007,0.35,-2.66,-0.49
1743438575.1728928,-0.183,-0.105,1.012,0.49,-2.66,-0.49
1743438575.1928928,-0.183,-0.104,1.008,0.42,-2.31,-0.42
1743438575.2128928,-0.183,-0.105,1.01,0.28,-2.45,-0.42
1743438575.2328928,-0.184,-0.103,1.011,0.42,-2.73,-0.35
1743438575.2528927,-0.183,-0.105,1.012,0.49,-2.24,-0.35
1743438575.2728927,-0.183,-0.106,1.01,0.42,-2.38,-0.42
1743438575.2928927,-0.183,-0.106,1.009,0.35,-2.73,-0.42
1743438575.312893,-0.183,-0.102,1.01,0.49,-2.31,-0.49
1743438575.332893,-0.183,-0.105,1.006,0.35,-2.59,-0.35
1743438575.3528926,-0.183,-0.105,1.01,0.42,-2.59,-0.35
1743438575.3728926,-0.183,-0.105,1.012,0.35,-2.31,-0.42
1743438575.3928926,-0.184,-0.104,1.007,0.42,-2.45,-0.42
1743438575.4128926,-0.184,-0.104,1.008,0.42,-2.66,-0.35
1743438575.4328926,-0.183,-0.103,1.009,0.49,-2.31,-0.28
1743438575.4528923,-0.186,-0.104,1.008,0.35,-2.59,-0.42
1743438575.4728923,-0.184,-0.103,1.011,0.35,-2.45,-0.42
1743438575.4928925,-0.183,-0.104,1.01,0.35,-2.24,-0.35
1743438575.5128925,-0.185,-0.106,1.008,0.42,-2.66,-0.42
1743438575.5328925,-0.181,-0.103,1.01,0.49,-2.52,-0.35
1743438575.5528924,-0.181,-0.105,1.008,0.35,-2.24,-0.42
1743438575.5728924,-0.184,-0.105,1.01,0.56,-2.73,-0.35
1743438575.5928924,-0.183,-0.104,1.01,0.49,-2.38,-0.42
1743438575.6128924,-0.185,-0.105,1.009,0.35,-2.38,-0.42
1743438575.6328924,-0.184,-0.103,1.009,0.42,-2.52,-0.42
1743438575.6528924,-0.183,-0.105,1.01,0.35,-2.24,-0.35
1743438575.6728923,-0.184,-0.103,1.007,0.56,-2.59,-0.35
1743438575.6928923,-0.182,-0.105,1.012,0.49,-2.45,-0.42
1743438575.7128923,-0.183,-0.102,1.008,0.42,-2.45,-0.42
1743438575.7328925,-0.184,-0.105,1.008,0.42,-2.59,-0.42
1743438575.7528925,-0.183,-0.103,1.009,0.56,-2.45,-0.35
1743438575.7728922,-0.185,-0.103,1.01,0.35,-2.24,-0.35
1743438575.7928922,-0.184,-0.105,1.008,0.28,-2.45,-0.42
1743438575.8128922,-0.182,-0.103,1.01,0.49,-2.45,-0.35
1743438575.8328922,-0.183,-0.104,1.009,0.28,-2.38,-0.35
1743438575.8528922,-0.184,-0.105,1.01,0.42,-2.66,-0.42
1743438575.872892,-0.183,-0.105,1.01,0.49,-2.31,-0.49
1743438575.892892,-0.185,-0.104,1.009,0.42,-2.38,-0.35
1743438575.912892,-0.184,-0.104,1.009,0.42,-2.87,-0.35
1743438575.932892,-0.182,-0.105,1.01,0.42,-2.24,-0.42
1743438575.952892,-0.186,-0.105,1.007,0.42,-2.52,-0.28
1743438575.972892,-0.185,-0.103,1.01,0.35,-2.52,-0.35
1743438575.992892,-0.182,-0.105,1.013,0.35,-2.38,-0.42
1743438576.012892,-0.182,-0.104,1.01,0.35,-2.38,-0.42
1743438576.032892,-0.186,-0.104,1.009,0.49,-2.52,-0.35
1743438576.052892,-0.184,-0.104,1.011,0.49,-2.38,-0.42
1743438576.072892,-0.184,-0.104,1.008,0.49,-2.52,-0.42
1743438576.092892,-0.183,-0.105,1.009,0.42,-2.66,-0.49
1743438576.112892,-0.182,-0.104,1.009,0.21,-2.38,-0.42
1743438576.132892,-0.183,-0.105,1.01,0.28,-2.59,-0.42
1743438576.152892,-0.183,-0.106,1.01,0.56,-2.52,-0.49
1743438576.172892,-0.183,-0.104,1.008,0.42,-2.31,-0.35
1743438576.1928918,-0.184,-0.105,1.007,0.42,-2.8,-0.42
1743438576.2128918,-0.182,-0.102,1.008,0.56,-2.24,-0.42
1743438576.2328918,-0.182,-0.105,1.008,0.28,-2.38,-0.42
1743438576.2528918,-0.182,-0.106,1.01,0.42,-2.59,-0.42
1743438576.2728918,-0.183,-0.105,1.011,0.49,-2.52,-0.49
1743438576.2928915,-0.185,-0.104,1.01,0.35,-2.31,-0.42
1743438576.3128915,-0.183,-0.103,1.01,0.42,-2.59,-0.42
1743438576.3328917,-0.182,-0.106,1.008,0.42,-2.38,-0.35
1743438576.3528917,-0.182,-0.105,1.009,0.21,-2.38,-0.42
1743438576.3728917,-0.183,-0.107,1.01,0.35,-2.73,-0.42
1743438576.3928916,-0.184,-0.106,1.01,0.35,-2.38,-0.35
1743438576.4128916,-0.184,-0.106,1.008,0.35,-2.73,-0.42
1743438576.4328916,-0.183,-0.104,1.009,0.49,-2.45,-0.42
1743438576.4528916,-0.184,-0.104,1.008,0.35,-2.52,-0.42
1743438576.4728916,-0.184,-0.104,1.007,0.49,-2.59,-0.49
1743438576.4928916,-0.182,-0.105,1.009,0.42,-2.59,-0.42
1743438576.5128915,-0.183,-0.104,1.011,0.56,-2.24,-0.35
1743438576.5328915,-0.186,-0.104,1.007,0.35,-2.52,-0.35
1743438576.5528915,-0.183,-0.105,1.008,0.35,-2.38,-0.42
1743438576.5728917,-0.185,-0.104,1.007,0.35,-2.45,-0.42
1743438576.5928917,-0.185,-0.105,1.009,0.49,-2.73,-0.35
1743438576.6128914,-0.183,-0.105,1.01,0.49,-2.45,-0.42
1743438576.6328914,-0.182,-0.104,1.011,0.35,-2.17,-0.42
1743438576.6528914,-0.184,-0.105,1.009,0.28,-2.59,-0.42
1743438576.6728914,-0.185,-0.106,1.008,0.56,-2.52,-0.42
1743438576.6928914,-0.183,-0.105,1.007,0.42,-2.1,-0.56
1743438576.712891,-0.184,-0.107,1.01,0.42,-2.73,-0.42
1743438576.732891,-0.184,-0.104,1.01,0.49,-2.38,-0.42
1743438576.7528913,-0.183,-0.104,1.011,0.35,-2.52,-0.42
1743438576.7728913,-0.184,-0.106,1.006,0.42,-2.66,-0.35
1743438576.7928913,-0.182,-0.106,1.009,0.49,-2.31,-0.42
1743438576.8128912,-0.183,-0.103,1.008,0.42,-2.38,-0.42
1743438576.8328912,-0.184,-0.102,1.009,0.49,-2.73,-0.42
1743438576.8528912,-0.181,-0.103,1.007,0.42,-2.17,-0.35
1743438576.8728912,-0.186,-0.105,1.01,0.42,-2.38,-0.35
1743438576.8928912,-0.183,-0.103,1.008,0.28,-2.45,-0.49
1743438576.9128911,-0.183,-0.105,1.012,0.42,-2.24,-0.35
1743438576.9328911,-0.183,-0.105,1.012,0.56,-2.45,-0.42
1743438576.952891,-0.182,-0.102,1.012,0.42,-2.38,-0.35
1743438576.972891,-0.183,-0.105,1.006,0.42,-2.52,-0.49
1743438576.992891,-0.183,-0.102,1.01,0.35,-2.59,-0.35
1743438577.012891,-0.183,-0.104,1.009,0.42,-2.31,-0.42
1743438577.032891,-0.184,-0.105,1.007,0.35,-2.38,-0.35
1743438577.052891,-0.183,-0.105,1.008,0.49,-2.59,-0.35
1743438577.072891,-0.183,-0.104,1.008,0.42,-2.52,-0.42
1743438577.092891,-0.184,-0.105,1.009,0.42,-2.38,-0.42
1743438577.112891,-0.184,-0.105,1.012,0.49,-2.45,-0.42
1743438577.132891,-0.183,-0.101,1.007,0.42,-2.45,-0.35
1743438577.152891,-0.183,-0.104,1.008,0.49,-2.73,-0.35
1743438577.172891,-0.182,-0.104,1.01,0.49,-2.52,-0.42
1743438577.192891,-0.182,-0.105,1.007,0.28,-2.31,-0.42
1743438577.2128909,-0.183,-0.105,1.01,0.42,-2.59,-0.35
1743438577.2328908,-0.182,-0.102,1.01,0.56,-2.38,-0.49
1743438577.2528908,-0.186,-0.103,1.01,0.28,-2.45,-0.42
1743438577.2728908,-0.185,-0.104,1.009,0.56,-2.73,-0.35
1743438577.2928908,-0.184,-0.103,1.01,0.42,-2.38,-0.42
1743438577.3128908,-0.184,-0.102,1.008,0.28,-2.73,-0.35
1743438577.3328907,-0.184,-0.103,1.01,0.42,-2.38,-0.35
1743438577.3528907,-0.181,-0.103,1.01,0.28,-2.31,-0.42
1743438577.3728907,-0.183,-0.105,1.007,0.42,-2.59,-0.42
1743438577.3928907,-0.183,-0.104,1.009,0.49,-2.73,-0.35
1743438577.412891,-0.183,-0.104,1.008,0.49,-2.38,-0.49
1743438577.432891,-0.183,-0.106,1.008,0.49,-2.52,-0.42
1743438577.4528906,-0.184,-0.105,1.01,0.49,-2.66,-0.28
1743438577.4728906,-0.182,-0.102,1.011,0.56,-2.24,-0.42
1743438577.4928906,-0.185,-0.105,1.007,0.14,-2.38,-0.28
1743438577.5128906,-0.184,-0.102,1.01,0.49,-2.31,-0.42
1743438577.5328906,-0.184,-0.102,1.01,0.56,-2.31,-0.28
1743438577.5528903,-0.182,-0.103,1.007,0.42,-2.66,-0.42
1743438577.5728903,-0.184,-0.105,1.01,0.42,-2.31,-0.42
1743438577.5928905,-0.183,-0.106,1.009,0.42,-2.45,-0.35
1743438577.6128905,-0.183,-0.106,1.01,0.35,-2.66,-0.42
1743438577.6328905,-0.181,-0.103,1.01,0.35,-2.45,-0.35
1743438577.6528904,-0.183,-0.107,1.007,0.42,-2.45,-0.42
1743438577.6728904,-0.182,-0.104,1.01,0.42,-2.59,-0.42
1743438577.6928904,-0.183,-0.102,1.01,0.35,-2.31,-0.42
1743438577.7128904,-0.184,-0.103,1.009,0.42,-2.59,-0.35
1743438577.7328904,-0.183,-0.105,1.009,0.56,-2.59,-0.35
1743438577.7528903,-0.181,-0.105,1.008,0.42,-2.45,-0.42
1743438577.7728903,-0.183,-0.104,1.007,0.49,-2.45,-0.35
1743438577.7928903,-0.185,-0.106,1.011,0.56,-2.52,-0.42
1743438577.8128903,-0.184,-0.102,1.01,0.49,-2.52,-0.35
1743438577.8328905,-0.181,-0.104,1.011,0.21,-2.52,-0.42
1743438577.8528905,-0.183,-0.102,1.011,0.14,-2.45,-0.35
1743438577.8728902,-0.182,-0.105,1.01,0.28,-2.31,-0.42
1743438577.8928902,-0.182,-0.105,1.007,0.56,-2.8,-0.35
1743438577.9128902,-0.183,-0.105,1.01,0.35,-2.31,-0.42
1743438577.9328902,-0.183,-0.104,1.01,0.35,-2.73,-0.42
1743438577.9528902,-0.183,-0.105,1.008,0.77,-2.66,-0.49
1743438577.97289,-0.181,-0.104,1.01,0.28,-2.24,-0.42
1743438577.99289,-0.185,-0.104,1.01,0.28,-2.66,-0.42
1743438578.01289,-0.181,-0.104,1.009,0.56,-2.66,-0.42
1743438578.03289,-0.183,-0.103,1.01,0.28,-2.24,-0.35
1743438578.05289,-0.183,-0.106,1.007,0.21,-2.66,-0.35
1743438578.07289,-0.181,-0.103,1.01,0.63,-2.52,-0.35
1743438578.09289,-0.182,-0.104,1.008,0.49,-2.17,-0.42
1743438578.11289,-0.183,-0.102,1.007,0.35,-2.66,-0.49
1743438578.13289,-0.183,-0.106,1.011,0.42,-2.45,-0.49
1743438578.15289,-0.184,-0.105,1.009,0.35,-2.24,-0.42
1743438578.17289,-0.185,-0.105,1.01,0.42,-2.8,-0.35
1743438578.19289,-0.183,-0.104,1.008,0.49,-2.38,-0.35
1743438578.21289,-0.184,-0.103,1.006,0.42,-2.38,-0.49
1743438578.23289,-0.183,-0.105,1.01,0.49,-2.87,-0.35
1743438578.25289,-0.182,-0.104,1.013,0.28,-2.24,-0.42
1743438578.27289,-0.184,-0.104,1.007,0.35,-2.45,-0.35
1743438578.2928898,-0.183,-0.103,1.008,0.42,-2.59,-0.42
1743438578.3128898,-0.182,-0.103,1.01,0.42,-2.24,-0.42
1743438578.3328898,-0.185,-0.103,1.012,0.49,-2.52,-0.42
1743438578.3528898,-0.184,-0.104,1.014,0.56,-2.52,-0.42
1743438578.3728898,-0.182,-0.103,1.009,0.35,-2.45,-0.49
1743438578.3928895,-0.183,-0.105,1.009,0.35,-2.59,-0.35
1743438578.4128897,-0.182,-0.105,1.012,0.35,-2.38,-0.35
1743438578.4328897,-0.183,-0.105,1.006,0.49,-2.52,-0.35
1743438578.4528897,-0.184,-0.107,1.008,0.42,-2.52,-0.42
1743438578.4728897,-0.183,-0.103,1.007,0.42,-2.52,-0.42
1743438578.4928896,-0.183,-0.104,1.01,0.49,-2.52,-0.35
1743438578.5128896,-0.183,-0.104,1.01,0.28,-2.52,-0.35
1743438578.5328896,-0.182,-0.102,1.01,0.28,-2.52,-0.42
1743438578.5528896,-0.183,-0.102,1.011,0.56,-2.59,-0.35
1743438578.5728896,-0.182,-0.104,1.009,0.35,-2.38,-0.49
1743438578.5928895,-0.181,-0.105,1.01,0.42,-2.52,-0.49
1743438578.6128895,-0.183,-0.105,1.01,0.35,-2.38,-0.35
1743438578.6328895,-0.183,-0.104,1.01,0.42,-2.52,-0.35
1743438578.6528895,-0.187,-0.106,1.007,0.56,-2.59,-0.35
1743438578.6728897,-0.183,-0.103,1.011,0.49,-2.38,-0.42
1743438578.6928897,-0.184,-0.103,1.006,0.28,-2.66,-0.42
1743438578.7128894,-0.184,-0.104,1.009,0.42,-2.31,-0.42
1743438578.7328894,-0.181,-0.105,1.008,0.35,-2.38,-0.35
1743438578.7528894,-0.183,-0.102,1.007,0.42,-2.59,-0.42
1743438578.7728894,-0.183,-0.103,1.01,0.35,-2.52,-0.28
1743438578.7928894,-0.183,-0.105,1.007,0.28,-2.52,-0.42
1743438578.812889,-0.184,-0.103,1.012,0.35,-2.59,-0.35
1743438578.8328893,-0.183,-0.103,1.009,0.42,-2.38,-0.49
1743438578.8528893,-0.185,-0.104,1.011,0.28,-2.38,-0.42
1743438578.8728893,-0.183,-0.104,1.009,0.42,-2.66,-0.49
1743438578.8928893,-0.181,-0.103,1.013,0.28,-2.31,-0.49
1743438578.9128892,-0.182,-0.104,1.005,0.42,-2.66,-0.42
1743438578.9328892,-0.183,-0.106,1.008,0.56,-2.66,-0.42
1743438578.9528892,-0.182,-0.106,1.007,0.49,-2.24,-0.35
1743438578.9728892,-0.183,-0.104,1.008,0.49,-2.52,-0.42
1743438578.9928892,-0.184,-0.102,1.011,0.63,-2.45,-0.42
1743438579.0128891,-0.182,-0.104,1.012,0.28,-2.24,-0.42
1743438579.0328891,-0.184,-0.103,1.009,0.35,-2.66,-0.42
1743438579.052889,-0.182,-0.104,1.012,0.28,-2.38,-0.42
1743438579.072889,-0.182,-0.102,1.006,0.35,-2.52,-0.42
1743438579.092889,-0.183,-0.105,1.008,0.42,-2.52,-0.35
1743438579.112889,-0.183,-0.105,1.01,0.49,-2.45,-0.35
1743438579.132889,-0.18,-0.103,1.009,0.42,-2.45,-0.35
1743438579.152889,-0.181,-0.104,1.009,0.49,-2.52,-0.42
1743438579.172889,-0.183,-0.104,1.009,0.49,-2.52,-0.42
1743438579.192889,-0.185,-0.103,1.011,0.49,-2.38,-0.49
1743438579.212889,-0.184,-0.106,1.007,0.56,-2.52,-0.42
1743438579.232889,-0.183,-0.104,1.01,0.49,-2.52,-0.42
1743438579.252889,-0.181,-0.104,1.009,0.35,-2.38,-0.35
1743438579.272889,-0.183,-0.103,1.007,0.49,-2.45,-0.35
1743438579.2928889,-0.183,-0.105,1.007,0.35,-2.31,-0.42
1743438579.3128889,-0.184,-0.107,1.008,0.49,-2.52,-0.42
1743438579.3328888,-0.183,-0.104,1.01,0.42,-2.59,-0.35
1743438579.3528888,-0.183,-0.106,1.011,0.42,-2.38,-0.49
1743438579.3728888,-0.184,-0.105,1.009,0.42,-2.59,-0.42
1743438579.3928888,-0.183,-0.104,1.012,0.35,-2.38,-0.35
1743438579.4128888,-0.184,-0.104,1.007,0.28,-2.52,-0.42
1743438579.4328887,-0.182,-0.104,1.009,0.56,-2.52,-0.42
1743438579.4528887,-0.18,-0.104,1.01,0.42,-2.38,-0.35
1743438579.4728887,-0.185,-0.106,1.01,0.56,-2.45,-0.42
1743438579.4928887,-0.182,-0.102,1.009,0.49,-2.45,-0.35
1743438579.512889,-0.181,-0.103,1.009,0.28,-2.45,-0.42
1743438579.532889,-0.183,-0.104,1.009,0.42,-2.45,-0.49
1743438579.5528886,-0.183,-0.104,1.011,0.35,-2.31,-0.42
1743438579.5728886,-0.184,-0.103,1.009,0.35,-2.52,-0.35
1743438579.5928886,-0.183,-0.105,1.009,0.28,-2.52,-0.35
1743438579.6128886,-0.183,-0.105,1.009,0.42,-2.38,-0.35
1743438579.6328886,-0.185,-0.103,1.007,0.49,-2.59,-0.35
1743438579.6528883,-0.184,-0.102,1.011,0.35,-2.59,-0.28
1743438579.6728885,-0.183,-0.104,1.009,0.42,-2.38,-0.42
1743438579.6928885,-0.185,-0.106,1.01,0.49,-2.59,-0.42
1743438579.7128885,-0.184,-0.103,1.012,0.42,-2.59,-0.42
1743438579.7328885,-0.183,-0.101,1.011,0.28,-2.52,-0.35
1743438579.7528884,-0.182,-0.105,1.01,0.35,-2.66,-0.42
1743438579.7728884,-0.183,-0.104,1.009,0.35,-2.24,-0.49
1743438579.7928884,-0.184,-0.104,1.006,0.35,-2.45,-0.49
1743438579.8128884,-0.181,-0.104,1.008,0.35,-2.73,-0.42
1743438579.8328884,-0.183,-0.104,1.009,0.49,-2.38,-0.42
1743438579.8528883,-0.184,-0.102,1.005,0.42,-2.45,-0.49
1743438579.8728883,-0.182,-0.102,1.009,0.49,-2.59,-0.42
1743438579.8928883,-0.182,-0.104,1.009,0.49,-2.38,-0.42
1743438579.9128883,-0.183,-0.103,1.009,0.42,-2.59,-0.42
1743438579.9328885,-0.182,-0.104,1.009,0.35,-2.52,-0.42
1743438579.9528885,-0.184,-0.103,1.009,0.42,-2.24,-0.42
1743438579.9728882,-0.184,-0.104,1.009,0.42,-2.59,-0.42
1743438579.9928882,-0.186,-0.105,1.01,0.35,-2.52,-0.35
1743438580.0128882,-0.185,-0.104,1.005,0.35,-2.59,-0.35
1743438580.0328882,-0.182,-0.104,1.009,0.56,-2.59,-0.42
1743438580.0528882,-0.184,-0.105,1.009,0.28,-2.31,-0.49
1743438580.072888,-0.185,-0.104,1.007,0.42,-2.45,-0.35
1743438580.092888,-0.184,-0.106,1.01,0.35,-2.73,-0.49
1743438580.112888,-0.183,-0.102,1.01,0.35,-2.24,-0.49
1743438580.132888,-0.182,-0.105,1.006,0.28,-2.45,-0.42
1743438580.152888,-0.183,-0.103,1.01,0.49,-2.59,-0.28
1743438580.172888,-0.183,-0.103,1.011,0.56,-2.66,-0.49
1743438580.192888,-0.184,-0.106,1.01,0.35,-2.31,-0.35
1743438580.212888,-0.183,-0.105,1.008,0.42,-2.52,-0.42
1743438580.232888,-0.183,-0.105,1.01,0.56,-2.38,-0.42
1743438580.252888,-0.183,-0.102,1.011,0.49,-2.52,-0.42
1743438580.272888,-0.183,-0.103,1.008,0.35,-2.73,-0.42
1743438580.292888,-0.181,-0.103,1.009,0.35,-2.52,-0.35
1743438580.312888,-0.182,-0.104,1.012,0.28,-2.45,-0.49
1743438580.332888,-0.183,-0.105,1.011,0.35,-2.45,-0.42
1743438580.352888,-0.183,-0.105,1.007,0.49,-2.45,-0.42
1743438580.3728878,-0.181,-0.105,1.009,0.49,-2.38,-0.42
1743438580.3928878,-0.184,-0.105,1.01,0.56,-2.52,-0.42
1743438580.4128878,-0.181,-0.104,1.01,0.49,-2.38,-0.42
1743438580.4328878,-0.183,-0.104,1.01,0.28,-2.52,-0.42
1743438580.4528878,-0.183,-0.103,1.008,0.49,-2.59,-0.35
1743438580.4728878,-0.183,-0.102,1.009,0.42,-2.31,-0.35
1743438580.4928875,-0.182,-0.106,1.008,0.42,-2.52,-0.42
1743438580.5128877,-0.183,-0.104,1.009,0.35,-2.38,-0.42
1743438580.5328877,-0.184,-0.105,1.009,0.28,-2.31,-0.42
1743438580.5528877,-0.183,-0.105,1.01,0.42,-2.59,-0.35
1743438580.5728877,-0.182,-0.105,1.008,0.56,-2.52,-0.28
1743438580.5928876,-0.182,-0.105,1.011,0.56,-2.31,-0.35
1743438580.6128876,-0.185,-0.105,1.01,0.42,-2.66,-0.35
1743438580.6328876,-0.181,-0.103,1.01,0.42,-2.52,-0.42
1743438580.6528876,-0.181,-0.105,1.009,0.28,-2.31,-0.49
1743438580.6728876,-0.183,-0.103,1.008,0.42,-2.59,-0.35
1743438580.6928875,-0.184,-0.105,1.011,0.42,-2.52,-0.42
1743438580.7128875,-0.186,-0.105,1.008,0.42,-2.59,-0.42
1743438580.7328875,-0.184,-0.104,1.009,0.49,-2.59,-0.35
1743438580.7528875,-0.183,-0.105,1.008,0.28,-2.52,-0.35
1743438580.7728877,-0.182,-0.103,1.007,0.42,-2.38,-0.42
1743438580.7928874,-0.183,-0.105,1.008,0.63,-2.45,-0.35
1743438580.8128874,-0.183,-0.103,1.01,0.28,-2.45,-0.35
1743438580.8328874,-0.183,-0.104,1.011,0.21,-2.45,-0.42
1743438580.8528874,-0.184,-0.104,1.009,0.49,-2.38,-0.42
1743438580.8728874,-0.183,-0.103,1.009,0.35,-2.45,-0.42
1743438580.8928874,-0.186,-0.104,1.009,0.28,-2.59,-0.42
1743438580.912887,-0.183,-0.102,1.008,0.49,-2.38,-0.28
1743438580.9328873,-0.183,-0.104,1.009,0.42,-2.38,-0.35
1743438580.9528873,-0.184,-0.104,1.007,0.42,-2.66,-0.42
1743438580.9728873,-0.183,-0.106,1.01,0.42,-2.38,-0.35
1743438580.9928873,-0.183,-0.103,1.008,0.42,-2.59,-0.42
1743438581.0128872,-0.183,-0.106,1.008,0.49,-2.66,-0.35
1743438581.0328872,-0.183,-0.104,1.008,0.35,-2.38,-0.42
1743438581.0528872,-0.182,-0.104,1.009,0.42,-2.45,-0.42
1743438581.0728872,-0.182,-0.105,1.011,0.42,-2.66,-0.42
1743438581.0928872,-0.182,-0.103,1.009,0.42,-2.45,-0.35
1743438581.1128871,-0.182,-0.104,1.008,0.35,-2.52,-0.42
1743438581.1328871,-0.183,-0.105,1.012,0.49,-2.66,-0.35
1743438581.152887,-0.184,-0.103,1.009,0.35,-2.52,-0.49
1743438581.172887,-0.183,-0.104,1.007,0.42,-2.73,-0.42
1743438581.192887,-0.184,-0.104,1.008,0.42,-2.38,-0.49
1743438581.212887,-0.18,-0.104,1.009,0.42,-2.38,-0.42
1743438581.232887,-0.183,-0.106,1.011,0.35,-2.66,-0.42
1743438581.252887,-0.183,-0.105,1.01,0.49,-2.38,-0.35
1743438581.272887,-0.18,-0.105,1.008,0.28,-2.38,-0.42
1743438581.292887,-0.181,-0.104,1.008,0.42,-2.45,-0.35
1743438581.312887,-0.183,-0.102,1.008,0.35,-2.24,-0.35
1743438581.332887,-0.185,-0.103,1.009,0.42,-2.59,-0.42
1743438581.352887,-0.181,-0.104,1.012,0.56,-2.45,-0.42
1743438581.372887,-0.183,-0.103,1.01,0.28,-2.31,-0.42
1743438581.3928869,-0.184,-0.105,1.01,0.42,-2.87,-0.42
1743438581.4128869,-0.18,-0.106,1.011,0.49,-2.45,-0.42
1743438581.4328868,-0.181,-0.104,1.012,0.42,-2.24,-0.49
1743438581.4528868,-0.182,-0.105,1.005,0.42,-2.73,-0.42
1743438581.4728868,-0.184,-0.106,1.012,0.49,-2.59,-0.42
1743438581.4928868,-0.183,-0.104,1.008,0.49,-2.38,-0.42
1743438581.5128868,-0.184,-0.105,1.009,0.28,-2.31,-0.35
1743438581.5328867,-0.184,-0.106,1.007,0.35,-2.66,-0.28
1743438581.5528867,-0.182,-0.105,1.01,0.56,-2.31,-0.35
1743438581.5728867,-0.184,-0.102,1.01,0.42,-2.59,-0.42
1743438581.5928867,-0.184,-0.104,1.007,0.28,-2.52,-0.42
1743438581.612887,-0.181,-0.105,1.008,0.28,-2.38,-0.42
1743438581.6328866,-0.182,-0.106,1.008,0.42,-2.59,-0.42
1743438581.6528866,-0.182,-0.103,1.008,0.35,-2.66,-0.42
1743438581.6728866,-0.184,-0.105,1.008,0.56,-2.52,-0.42
1743438581.6928866,-0.183,-0.104,1.011,0.56,-2.52,-0.42
1743438581.7128866,-0.184,-0.105,1.01,0.28,-2.45,-0.42
1743438581.7328866,-0.183,-0.103,1.007,0.49,-2.66,-0.42
1743438581.7528863,-0.183,-0.104,1.01,0.42,-2.59,-0.35
1743438581.7728865,-0.184,-0.103,1.009,0.35,-2.45,-0.35
1743438581.7928865,-0.183,-0.103,1.01,0.49,-2.66,-0.42
1743438581.8128865,-0.183,-0.103,1.009,0.49,-2.31,-0.35
1743438581.8328865,-0.183,-0.105,1.009,0.28,-2.52,-0.42
1743438581.8528864,-0.182,-0.104,1.009,0.49,-2.52,-0.42
1743438581.8728864,-0.183,-0.102,1.011,0.35,-2.24,-0.42
1743438581.8928864,-0.184,-0.105,1.009,0.35,-2.45,-0.35
1743438581.9128864,-0.181,-0.104,1.011,0.49,-2.45,-0.35
1743438581.9328864,-0.184,-0.103,1.011,0.42,-2.38,-0.35
1743438581.9528863,-0.187,-0.103,1.008,0.42,-2.73,-0.42
1743438581.9728863,-0.183,-0.105,1.01,0.49,-2.45,-0.42
1743438581.9928863,-0.184,-0.103,1.008,0.42,-2.45,-0.42
1743438582.0128863,-0.183,-0.103,1.011,0.49,-2.59,-0.42
1743438582.0328865,-0.182,-0.102,1.007,0.21,-2.38,-0.42
1743438582.0528862,-0.183,-0.104,1.008,0.42,-2.45,-0.49
1743438582.0728862,-0.183,-0.103,1.008,0.49,-2.59,-0.35
1743438582.0928862,-0.183,-0.106,1.013,0.42,-2.38,-0.42
1743438582.1128862,-0.183,-0.104,1.01,0.42,-2.45,-0.28
1743438582.1328862,-0.186,-0.104,1.01,0.42,-2.59,-0.49
1743438582.1528862,-0.182,-0.106,1.01,0.42,-2.38,-0.49
1743438582.172886,-0.183,-0.103,1.009,0.28,-2.38,-0.35
1743438582.192886,-0.179,-0.104,1.009,0.42,-2.59,-0.42
1743438582.212886,-0.181,-0.105,1.008,0.49,-2.45,-0.42
1743438582.232886,-0.184,-0.105,1.007,0.35,-2.38,-0.35
1743438582.252886,-0.186,-0.103,1.008,0.35,-2.73,-0.35
1743438582.272886,-0.184,-0.104,1.009,0.35,-2.38,-0.35
1743438582.292886,-0.181,-0.103,1.01,0.42,-2.45,-0.49
1743438582.312886,-0.182,-0.103,1.008,0.63,-2.66,-0.42
1743438582.332886,-0.183,-0.105,1.01,0.42,-2.52,-0.35
1743438582.352886,-0.182,-0.103,1.01,0.35,-2.45,-0.42
1743438582.372886,-0.185,-0.103,1.011,0.49,-2.45,-0.49
1743438582.392886,-0.186,-0.104,1.01,0.56,-2.45,-0.42
1743438582.412886,-0.184,-0.102,1.011,0.35,-2.45,-0.35
1743438582.432886,-0.186,-0.104,1.011,0.28,-2.59,-0.35
1743438582.452886,-0.183,-0.106,1.009,0.49,-2.38,-0.35
1743438582.4728858,-0.184,-0.104,1.007,0.35,-2.38,-0.42
1743438582.4928858,-0.184,-0.106,1.009,0.35,-2.59,-0.49
1743438582.5128858,-0.182,-0.103,1.01,0.42,-2.45,-0.35
1743438582.5328858,-0.183,-0.104,1.009,0.49,-2.45,-0.56
1743438582.5528858,-0.185,-0.104,1.009,0.42,-2.59,-0.35
1743438582.5728858,-0.183,-0.106,1.01,0.42,-2.45,-0.42
1743438582.5928855,-0.186,-0.105,1.009,0.35,-2.52,-0.35
1743438582.6128857,-0.185,-0.104,1.009,0.35,-2.52,-0.49
1743438582.6328857,-0.182,-0.102,1.012,0.35,-2.45,-0.42
1743438582.6528857,-0.183,-0.105,1.008,0.35,-2.52,-0.42
1743438582.6728857,-0.183,-0.104,1.009,0.42,-2.52,-0.42
1743438582.6928856,-0.182,-0.103,1.008,0.42,-2.45,-0.42
1743438582.7128856,-0.182,-0.104,1.007,0.21,-2.24,-0.35
1743438582.7328856,-0.185,-0.105,1.007,0.42,-2.66,-0.42
1743438582.7528856,-0.182,-0.104,1.008,0.7,-2.66,-0.42
1743438582.7728856,-0.185,-0.103,1.009,0.35,-2.38,-0.49
1743438582.7928855,-0.184,-0.105,1.01,0.35,-2.73,-0.35
1743438582.8128855,-0.185,-0.105,1.011,0.49,-2.8,-0.35
1743438582.8328855,-0.182,-0.103,1.011,0.28,-2.24,-0.49
1743438582.8528855,-0.183,-0.106,1.008,0.35,-2.59,-0.35
1743438582.8728857,-0.181,-0.105,1.009,0.49,-2.52,-0.28
1743438582.8928854,-0.182,-0.104,1.011,0.49,-2.31,-0.42
1743438582.9128854,-0.185,-0.104,1.008,0.28,-2.38,-0.42
1743438582.9328854,-0.182,-0.105,1.01,0.42,-2.52,-0.42
1743438582.9528854,-0.182,-0.102,1.009,0.63,-2.31,-0.42
1743438582.9728854,-0.183,-0.104,1.01,0.42,-2.52,-0.35
1743438582.9928854,-0.185,-0.102,1.012,0.28,-2.8,-0.35
1743438583.012885,-0.182,-0.106,1.011,0.35,-2.38,-0.35
1743438583.0328853,-0.183,-0.102,1.007,0.35,-2.31,-0.35
1743438583.0528853,-0.185,-0.103,1.009,0.49,-2.66,-0.42
1743438583.0728853,-0.182,-0.104,1.009,0.42,-2.45,-0.42
1743438583.0928853,-0.184,-0.104,1.01,0.35,-2.45,-0.42
1743438583.1128852,-0.185,-0.103,1.009,0.42,-2.52,-0.42
1743438583.1328852,-0.181,-0.104,1.009,0.42,-2.52,-0.35
1743438583.1528852,-0.185,-0.103,1.005,0.56,-2.52,-0.42
1743438583.1728852,-0.183,-0.104,1.011,0.49,-2.73,-0.42
1743438583.1928852,-0.182,-0.103,1.01,0.35,-2.45,-0.42
1743438583.2128851,-0.183,-0.102,1.011,0.28,-2.45,-0.28
1743438583.2328851,-0.181,-0.105,1.009,0.35,-2.45,-0.42
1743438583.252885,-0.183,-0.104,1.008,0.49,-2.38,-0.42
1743438583.272885,-0.185,-0.104,1.01,0.35,-2.52,-0.42
1743438583.292885,-0.179,-0.105,1.008,0.42,-2.24,-0.35
1743438583.312885,-0.183,-0.105,1.009,0.49,-2.38,-0.35
1743438583.332885,-0.184,-0.104,1.011,0.42,-2.59,-0.42
1743438583.352885,-0.183,-0.105,1.009,0.49,-2.38,-0.35
1743438583.372885,-0.181,-0.102,1.009,0.42,-2.45,-0.35
1743438583.392885,-0.184,-0.103,1.01,0.35,-2.59,-0.35
1743438583.412885,-0.183,-0.103,1.01,0.42,-2.52,-0.35
1743438583.432885,-0.184,-0.103,1.007,0.42,-2.38,-0.42
1743438583.452885,-0.183,-0.102,1.008,0.49,-2.66,-0.42
1743438583.472885,-0.183,-0.103,1.009,0.49,-2.52,-0.35
1743438583.4928849,-0.183,-0.103,1.01,0.49,-2.31,-0.42
1743438583.5128849,-0.183,-0.103,1.008,0.35,-2.38,-0.42
1743438583.5328848,-0.18,-0.105,1.01,0.56,-2.59,-0.42
1743438583.5528848,-0.183,-0.103,1.01,0.21,-2.45,-0.42
1743438583.5728848,-0.185,-0.104,1.011,0.28,-2.52,-0.42
1743438583.5928848,-0.183,-0.104,1.008,0.42,-2.52,-0.49
1743438583.6128848,-0.182,-0.105,1.01,0.35,-2.31,-0.35
1743438583.6328847,-0.183,-0.106,1.008,0.35,-2.59,-0.35
1743438583.6528847,-0.183,-0.105,1.012,0.56,-2.52,-0.35
1743438583.6728847,-0.182,-0.103,1.008,0.42,-2.45,-0.42
1743438583.6928847,-0.184,-0.104,1.008,0.42,-2.73,-0.42
1743438583.712885,-0.184,-0.104,1.013,0.28,-2.66,-0.42
1743438583.7328846,-0.183,-0.104,1.01,0.42,-2.38,-0.49
1743438583.7528846,-0.182,-0.107,1.008,0.63,-2.66,-0.35
1743438583.7728846,-0.183,-0.103,1.009,0.28,-2.59,-0.35
1743438583.7928846,-0.184,-0.106,1.009,0.35,-2.31,-0.42
1743438583.8128846,-0.184,-0.104,1.011,0.35,-2.45,-0.42
1743438583.8328846,-0.183,-0.103,1.012,0.56,-2.52,-0.35
1743438583.8528843,-0.183,-0.104,1.008,0.35,-2.52,-0.35
1743438583.8728845,-0.183,-0.107,1.01,0.35,-2.59,-0.35
1743438583.8928845,-0.182,-0.102,1.006,0.56,-2.38,-0.42
1743438583.9128845,-0.183,-0.105,1.01,0.49,-2.31,-0.42
1743438583.9328845,-0.183,-0.103,1.008,0.35,-2.66,-0.42
1743438583.9528844,-0.182,-0.103,1.01,0.42,-2.59,-0.42
1743438583.9728844,-0.183,-0.105,1.012,0.56,-2.31,-0.42
1743438583.9928844,-0.183,-0.104,1.011,0.49,-2.73,-0.28
1743438584.0128844,-0.184,-0.103,1.009,0.35,-2.52,-0.49
1743438584.0328844,-0.182,-0.103,1.008,0.28,-2.45,-0.42
1743438584.0528843,-0.184,-0.105,1.008,0.35,-2.66,-0.42
1743438584.0728843,-0.184,-0.104,1.007,0.49,-2.66,-0.42
1743438584.0928843,-0.183,-0.103,1.008,0.42,-2.31,-0.42
1743438584.1128843,-0.183,-0.102,1.008,0.35,-2.59,-0.42
1743438584.1328845,-0.181,-0.103,1.009,0.56,-2.59,-0.42
1743438584.1528842,-0.183,-0.105,1.008,0.42,-2.24,-0.42
1743438584.1728842,-0.183,-0.103,1.006,0.42,-2.66,-0.42
1743438584.1928842,-0.183,-0.105,1.01,0.42,-2.59,-0.42
1743438584.2128842,-0.182,-0.103,1.01,0.42,-2.38,-0.35
1743438584.2328842,-0.184,-0.103,1.009,0.42,-2.52,-0.49
1743438584.252884,-0.182,-0.1,1.008,0.49,-2.31,-0.49
1743438584.272884,-0.183,-0.104,1.008,0.42,-2.38,-0.42
1743438584.292884,-0.181,-0.103,1.01,0.49,-2.73,-0.49
1743438584.312884,-0.181,-0.102,1.008,0.42,-2.24,-0.42
1743438584.332884,-0.182,-0.104,1.01,0.35,-2.45,-0.35
1743438584.352884,-0.184,-0.104,1.011,0.42,-2.66,-0.49
1743438584.372884,-0.183,-0.103,1.01,0.35,-2.45,-0.42
1743438584.392884,-0.184,-0.106,1.011,0.35,-2.59,-0.42
1743438584.412884,-0.181,-0.104,1.007,0.49,-2.45,-0.35
1743438584.432884,-0.182,-0.104,1.01,0.49,-2.31,-0.42
1743438584.452884,-0.183,-0.105,1.009,0.49,-2.52,-0.42
1743438584.472884,-0.183,-0.104,1.007,0.42,-2.45,-0.42
1743438584.492884,-0.183,-0.104,1.01,0.42,-2.31,-0.35
1743438584.512884,-0.183,-0.104,1.011,0.56,-2.59,-0.42
1743438584.532884,-0.185,-0.103,1.01,0.49,-2.45,-0.49
1743438584.552884,-0.185,-0.107,1.01,0.42,-2.59,-0.42
1743438584.5728838,-0.183,-0.105,1.014,0.49,-2.38,-0.35
1743438584.5928838,-0.182,-0.103,1.01,0.28,-2.31,-0.42
1743438584.6128838,-0.183,-0.105,1.006,0.35,-2.52,-0.35
1743438584.6328838,-0.184,-0.105,1.009,0.42,-2.52,-0.42
1743438584.6528838,-0.185,-0.105,1.007,0.49,-2.38,-0.42
1743438584.6728835,-0.184,-0.104,1.013,0.49,-2.73,-0.42
1743438584.6928835,-0.184,-0.104,1.009,0.49,-2.52,-0.42
1743438584.7128837,-0.182,-0.103,1.008,0.35,-2.31,-0.35
1743438584.7328837,-0.184,-0.107,1.011,0.42,-2.66,-0.49
1743438584.7528837,-0.183,-0.104,1.009,0.35,-2.45,-0.35
