Timestamp,AccelX,AccelY,AccelZ,GyroX,GyroY,GyroZ
1743888993.06054,-0.4596959948539734,0.3957679867744446,0.8437520265579224,1.0499999523162842,-2.450000047683716,-0.6299999952316284
1743888993.08054,-0.45871999859809875,0.3938159942626953,0.8457040190696716,0.9800000190734863,-2.240000009536743,-0.699999988079071
1743888993.10054,-0.45823198556900024,0.39235201478004456,0.849120020866394,0.9800000190734863,-2.309999942779541,-0.8399999737739563
1743888993.12054,-0.45823198556900024,0.39137598872184753,0.849120020866394,1.0499999523162842,-2.1700000762939453,-0.8399999737739563
1743888993.14054,-0.4514000117778778,0.39186400175094604,0.8476560115814209,0.9100000262260437,-2.240000009536743,-1.0499999523162842
1743888993.1605399,-0.4514000117778778,0.38942399621009827,0.8486319780349731,0.9800000190734863,-2.0999999046325684,-1.0499999523162842
1743888993.1797342,-0.4572559893131256,0.3943040072917938,0.8496080040931702,1.3300000429153442,-3.1500000953674316,-0.49000000953674316
1743888993.1997342,-0.456279993057251,0.39528000354766846,0.8466799855232239,0.9800000190734863,-3.1500000953674316,-0.3499999940395355
1743888993.2197342,-0.4577440023422241,0.39479199051856995,0.8471680283546448,1.4700000286102295,-3.2899999618530273,-0.3499999940395355
1743888993.2397342,-0.45823198556900024,0.3933280110359192,0.8461920022964478,1.1200000047683716,-3.2899999618530273,-0.41999998688697815
1743888993.2597342,-0.45871999859809875,0.39137598872184753,0.8442400097846985,1.4700000286102295,-3.1500000953674316,-0.5600000023841858
1743888993.2797341,-0.4601840078830719,0.3903999924659729,0.8452159762382507,1.0499999523162842,-2.940000057220459,-0.6299999952316284
1743888993.271935,-0.45579200983047485,0.3928399980068207,0.8486319780349731,1.3300000429153442,-1.5399999618530273,-0.6299999952316284
1743888993.291935,-0.4572559893131256,0.3899120092391968,0.8535119891166687,1.1200000047683716,-1.6799999475479126,-0.7699999809265137
1743888993.311935,-0.45871999859809875,0.38844799995422363,0.8525360226631165,0.9800000190734863,-1.8200000524520874,-1.1200000047683716
1743888993.331935,-0.4567680060863495,0.39137598872184753,0.849120020866394,0.20999999344348907,-2.0999999046325684,-1.2599999904632568
1743888993.351935,-0.45530399680137634,0.3908880054950714,0.8505839705467224,1.1200000047683716,-2.380000114440918,-1.0499999523162842
1743888993.371935,-0.45579200983047485,0.39479199051856995,0.8505839705467224,1.190000057220459,-2.240000009536743,-0.9100000262260437
1743888993.3598342,-0.46506398916244507,0.39186400175094604,0.8505839705467224,1.6100000143051147,-3.430000066757202,-0.2800000011920929
1743888993.3798342,-0.4636000096797943,0.38942399621009827,0.8515599966049194,0.6299999952316284,-3.569999933242798,-0.41999998688697815
1743888993.3998342,-0.460671991109848,0.387472003698349,0.8471680283546448,1.399999976158142,-3.8499999046325684,-0.5600000023841858
1743888993.4198341,-0.4636000096797943,0.3908880054950714,0.8457040190696716,1.0499999523162842,-3.7100000381469727,-0.7699999809265137
1743888993.439834,-0.45871999859809875,0.39479199051856995,0.8466799855232239,0.7699999809265137,-3.2200000286102295,-0.9100000262260437
1743888993.459834,-0.45188799500465393,0.3943040072917938,0.8427760004997253,0.9100000262260437,-2.7300000190734863,-0.8399999737739563
1743888993.47951,-0.460671991109848,0.3957679867744446,0.8539999723434448,0.9100000262260437,-2.309999942779541,-0.5600000023841858
1743888993.49951,-0.45920801162719727,0.39137598872184753,0.8500959873199463,0.9800000190734863,-2.869999885559082,-0.41999998688697815
1743888993.51951,-0.4572559893131256,0.3938159942626953,0.8520479798316956,1.1200000047683716,-3.1500000953674316,-0.41999998688697815
1743888993.53951,-0.4596959948539734,0.39186400175094604,0.8520479798316956,0.9800000190734863,-3.1500000953674316,-0.3499999940395355
1743888993.55951,-0.4567680060863495,0.3899120092391968,0.8496080040931702,1.2599999904632568,-3.2899999618530273,-0.2800000011920929
1743888993.57951,-0.4577440023422241,0.38942399621009827,0.8476560115814209,1.399999976158142,-3.430000066757202,-0.2800000011920929
1743888993.58706,-0.456279993057251,0.3928399980068207,0.8442400097846985,0.9800000190734863,-2.1700000762939453,-0.8399999737739563
1743888993.60706,-0.4572559893131256,0.39772000908851624,0.8476560115814209,0.699999988079071,-2.0299999713897705,-0.9100000262260437
1743888993.62706,-0.45871999859809875,0.3967440128326416,0.8476560115814209,0.9100000262260437,-2.0299999713897705,-0.9100000262260437
1743888993.64706,-0.4577440023422241,0.3957679867744446,0.8457040190696716,1.0499999523162842,-2.0999999046325684,-0.9800000190734863
1743888993.66706,-0.45530399680137634,0.39479199051856995,0.8486319780349731,0.9100000262260437,-2.0299999713897705,-0.9800000190734863
1743888993.6870599,-0.4533520042896271,0.3957679867744446,0.849120020866394,0.9100000262260437,-2.0999999046325684,-0.8399999737739563
1743888993.660777,-0.4577440023422241,0.3928399980068207,0.8486319780349731,0.9800000190734863,-3.2200000286102295,-0.699999988079071
1743888993.680777,-0.4601840078830719,0.3957679867744446,0.848143994808197,0.9100000262260437,-3.1500000953674316,-0.49000000953674316
1743888993.700777,-0.45871999859809875,0.3972319960594177,0.8486319780349731,1.1200000047683716,-3.0799999237060547,-0.49000000953674316
1743888993.720777,-0.45871999859809875,0.3962559998035431,0.8471680283546448,1.190000057220459,-3.1500000953674316,-0.41999998688697815
1743888993.740777,-0.4596959948539734,0.3967440128326416,0.8447279930114746,1.0499999523162842,-2.940000057220459,-0.41999998688697815
1743888993.760777,-0.4601840078830719,0.3933280110359192,0.8452159762382507,0.9100000262260437,-3.009999990463257,-0.49000000953674316
1743888993.7948081,-0.4567680060863495,0.3899120092391968,0.8505839705467224,0.9800000190734863,-1.8200000524520874,-0.9800000190734863
1743888993.8148081,-0.45823198556900024,0.3928399980068207,0.8520479798316956,0.699999988079071,-1.8899999856948853,-0.9800000190734863
1743888993.834808,-0.4572559893131256,0.3957679867744446,0.8510720133781433,0.9100000262260437,-2.380000114440918,-0.9800000190734863
1743888993.854808,-0.45823198556900024,0.39479199051856995,0.8515599966049194,0.8399999737739563,-2.450000047683716,-0.8399999737739563
1743888993.874808,-0.45579200983047485,0.39186400175094604,0.8520479798316956,0.7699999809265137,-2.7300000190734863,-0.6299999952316284
1743888993.894808,-0.4567680060863495,0.3943040072917938,0.8500959873199463,1.1200000047683716,-2.6600000858306885,-0.699999988079071
1743888993.857485,-0.4509119987487793,0.38893601298332214,0.8471680283546448,3.2200000286102295,-2.6600000858306885,-0.8399999737739563
1743888993.877485,-0.4596959948539734,0.399183988571167,0.8422880172729492,0.2800000011920929,-2.0299999713897705,-0.9100000262260437
1743888993.897485,-0.4577440023422241,0.3957679867744446,0.8476560115814209,0.20999999344348907,-2.940000057220459,-0.41999998688697815
1743888993.917485,-0.46164798736572266,0.3938159942626953,0.8466799855232239,3.0799999237060547,-2.869999885559082,-0.49000000953674316
1743888993.937485,-0.4636000096797943,0.3903999924659729,0.8466799855232239,0.2800000011920929,-2.5899999141693115,-0.5600000023841858
1743888993.957485,-0.4567680060863495,0.3928399980068207,0.8500959873199463,1.2599999904632568,-3.2899999618530273,-0.3499999940395355
1743888993.944632,-0.456279993057251,0.3928399980068207,0.8461920022964478,0.5600000023841858,-1.6100000143051147,-1.3300000429153442
1743888993.964632,-0.4533520042896271,0.3962559998035431,0.8510720133781433,0.14000000059604645,-1.8899999856948853,-1.0499999523162842
1743888993.984632,-0.456279993057251,0.3943040072917938,0.849120020866394,1.4700000286102295,-1.6100000143051147,-1.190000057220459
1743888994.004632,-0.4548160135746002,0.39869600534439087,0.849120020866394,0.5600000023841858,-1.6100000143051147,-1.0499999523162842
1743888994.024632,-0.45286399126052856,0.39820799231529236,0.8505839705467224,0.49000000953674316,-1.6799999475479126,-0.8399999737739563
1743888994.044632,-0.456279993057251,0.39528000354766846,0.8515599966049194,1.8899999856948853,-2.0999999046325684,-0.7699999809265137
1743888994.036913,-0.45530399680137634,0.3899120092391968,0.8500959873199463,1.3300000429153442,-2.869999885559082,-0.49000000953674316
1743888994.056913,-0.45579200983047485,0.38942399621009827,0.8505839705467224,0.9100000262260437,-2.7300000190734863,-0.7699999809265137
1743888994.0769129,-0.456279993057251,0.3899120092391968,0.8486319780349731,0.8399999737739563,-2.5899999141693115,-0.699999988079071
1743888994.0969129,-0.45823198556900024,0.39186400175094604,0.8500959873199463,1.1200000047683716,-2.450000047683716,-0.9100000262260437
1743888994.1169128,-0.45823198556900024,0.3928399980068207,0.8471680283546448,0.6299999952316284,-2.380000114440918,-0.9800000190734863
1743888994.1369128,-0.45823198556900024,0.3928399980068207,0.8471680283546448,1.0499999523162842,-2.240000009536743,-1.0499999523162842
1743888994.1251469,-0.4533520042896271,0.39479199051856995,0.849120020866394,1.0499999523162842,-2.309999942779541,-0.8399999737739563
1743888994.1451468,-0.45579200983047485,0.3938159942626953,0.8496080040931702,0.8399999737739563,-2.450000047683716,-0.699999988079071
1743888994.1651468,-0.456279993057251,0.3957679867744446,0.8515599966049194,0.7699999809265137,-2.309999942779541,-0.5600000023841858
1743888994.1851468,-0.4538399875164032,0.3967440128326416,0.8496080040931702,1.1200000047683716,-2.5199999809265137,-0.7699999809265137
1743888994.2051468,-0.456279993057251,0.39479199051856995,0.849120020866394,0.8399999737739563,-2.5899999141693115,-0.6299999952316284
1743888994.2251468,-0.4543280005455017,0.3938159942626953,0.849120020866394,1.1200000047683716,-2.5899999141693115,-0.7699999809265137
1743888994.244275,-0.45823198556900024,0.39137598872184753,0.8476560115814209,0.9100000262260437,-2.6600000858306885,-0.699999988079071
1743888994.264275,-0.4596959948539734,0.39137598872184753,0.8476560115814209,0.9800000190734863,-2.450000047683716,-0.699999988079071
1743888994.284275,-0.456279993057251,0.3903999924659729,0.8476560115814209,0.699999988079071,-2.5199999809265137,-0.8399999737739563
1743888994.304275,-0.4567680060863495,0.39235201478004456,0.8471680283546448,0.9800000190734863,-2.309999942779541,-0.9100000262260437
1743888994.324275,-0.4538399875164032,0.39186400175094604,0.8461920022964478,0.7699999809265137,-2.240000009536743,-0.9100000262260437
1743888994.344275,-0.4548160135746002,0.39479199051856995,0.8466799855232239,0.8399999737739563,-2.0999999046325684,-0.8399999737739563
1743888994.3204172,-0.45871999859809875,0.39528000354766846,0.8496080040931702,1.1200000047683716,-2.940000057220459,-0.5600000023841858
1743888994.3404171,-0.45920801162719727,0.3943040072917938,0.849120020866394,1.2599999904632568,-2.940000057220459,-0.5600000023841858
1743888994.3604171,-0.45823198556900024,0.3938159942626953,0.848143994808197,0.9800000190734863,-2.940000057220459,-0.49000000953674316
1743888994.380417,-0.4572559893131256,0.3938159942626953,0.8496080040931702,1.190000057220459,-2.869999885559082,-0.5600000023841858
1743888994.400417,-0.45823198556900024,0.39186400175094604,0.8466799855232239,1.1200000047683716,-2.799999952316284,-0.5600000023841858
1743888994.420417,-0.45579200983047485,0.3928399980068207,0.8476560115814209,0.9800000190734863,-2.5899999141693115,-0.699999988079071
1743888994.4114141,-0.4572559893131256,0.3943040072917938,0.8486319780349731,0.9100000262260437,-2.380000114440918,-0.7699999809265137
1743888994.4314141,-0.4577440023422241,0.3957679867744446,0.8505839705467224,0.9800000190734863,-2.380000114440918,-0.7699999809265137
1743888994.451414,-0.4567680060863495,0.39137598872184753,0.8471680283546448,0.9800000190734863,-2.450000047683716,-0.7699999809265137
1743888994.471414,-0.45579200983047485,0.3957679867744446,0.8496080040931702,1.0499999523162842,-2.5899999141693115,-0.7699999809265137
1743888994.491414,-0.45823198556900024,0.3962559998035431,0.8496080040931702,0.8399999737739563,-2.5899999141693115,-0.8399999737739563
1743888994.511414,-0.456279993057251,0.3928399980068207,0.8496080040931702,0.9100000262260437,-2.6600000858306885,-0.699999988079071
1743888994.547404,-0.45920801162719727,0.3938159942626953,0.848143994808197,0.9100000262260437,-2.5199999809265137,-0.699999988079071
1743888994.567404,-0.45871999859809875,0.39235201478004456,0.849120020866394,1.1200000047683716,-2.5199999809265137,-0.699999988079071
1743888994.587404,-0.456279993057251,0.3938159942626953,0.8500959873199463,0.8399999737739563,-2.5199999809265137,-0.699999988079071
1743888994.607404,-0.456279993057251,0.3967440128326416,0.8486319780349731,0.9800000190734863,-2.5899999141693115,-0.7699999809265137
1743888994.627404,-0.45530399680137634,0.3933280110359192,0.8471680283546448,0.9800000190734863,-2.450000047683716,-0.8399999737739563
1743888994.647404,-0.4577440023422241,0.39528000354766846,0.8486319780349731,0.8399999737739563,-2.380000114440918,-0.699999988079071
1743888994.619261,-0.4572559893131256,0.39137598872184753,0.8515599966049194,1.190000057220459,-2.6600000858306885,-0.6299999952316284
1743888994.639261,-0.4601840078830719,0.3962559998035431,0.849120020866394,1.1200000047683716,-2.799999952316284,-0.7699999809265137
1743888994.659261,-0.4577440023422241,0.39479199051856995,0.8510720133781433,0.49000000953674316,-2.7300000190734863,-0.8399999737739563
1743888994.679261,-0.4572559893131256,0.3938159942626953,0.8452159762382507,1.190000057220459,-2.799999952316284,-0.8399999737739563
1743888994.699261,-0.456279993057251,0.3957679867744446,0.8471680283546448,1.190000057220459,-2.6600000858306885,-0.5600000023841858
1743888994.719261,-0.4538399875164032,0.3967440128326416,0.8476560115814209,0.8399999737739563,-2.5199999809265137,-0.6299999952316284
1743888994.726377,-0.456279993057251,0.3903999924659729,0.849120020866394,0.8399999737739563,-2.380000114440918,-0.699999988079071
1743888994.746377,-0.4577440023422241,0.3928399980068207,0.8476560115814209,1.0499999523162842,-2.5199999809265137,-0.7699999809265137
1743888994.766377,-0.4567680060863495,0.3943040072917938,0.8505839705467224,0.7699999809265137,-2.5899999141693115,-0.6299999952316284
1743888994.786377,-0.45920801162719727,0.3933280110359192,0.8510720133781433,0.9800000190734863,-2.6600000858306885,-0.5600000023841858
1743888994.806377,-0.4577440023422241,0.3908880054950714,0.849120020866394,1.0499999523162842,-2.799999952316284,-0.699999988079071
1743888994.826377,-0.456279993057251,0.3908880054950714,0.8496080040931702,0.9800000190734863,-2.7300000190734863,-0.5600000023841858
1743888994.816354,-0.4577440023422241,0.39528000354766846,0.8466799855232239,1.0499999523162842,-2.380000114440918,-0.6299999952316284
1743888994.836354,-0.45530399680137634,0.39235201478004456,0.848143994808197,0.9800000190734863,-2.309999942779541,-0.6299999952316284
1743888994.856354,-0.45871999859809875,0.3933280110359192,0.8500959873199463,1.0499999523162842,-2.450000047683716,-0.699999988079071
1743888994.876354,-0.45823198556900024,0.3933280110359192,0.848143994808197,0.9800000190734863,-2.450000047683716,-0.6299999952316284
1743888994.896354,-0.45920801162719727,0.39186400175094604,0.8486319780349731,0.9800000190734863,-2.5199999809265137,-0.699999988079071
1743888994.916354,-0.4596959948539734,0.39137598872184753,0.8505839705467224,0.9800000190734863,-2.5199999809265137,-0.7699999809265137
1743888994.9184473,-0.4538399875164032,0.39235201478004456,0.8505839705467224,0.9100000262260437,-2.450000047683716,-0.7699999809265137
1743888994.9384472,-0.4567680060863495,0.3938159942626953,0.8471680283546448,1.0499999523162842,-2.450000047683716,-0.699999988079071
1743888994.9584472,-0.45823198556900024,0.3933280110359192,0.848143994808197,0.9800000190734863,-2.450000047683716,-0.6299999952316284
1743888994.9784472,-0.4572559893131256,0.3928399980068207,0.8476560115814209,0.9800000190734863,-2.5199999809265137,-0.5600000023841858
1743888994.9984472,-0.4567680060863495,0.3938159942626953,0.8486319780349731,1.0499999523162842,-2.7300000190734863,-0.6299999952316284
1743888995.0184472,-0.4572559893131256,0.3928399980068207,0.848143994808197,1.0499999523162842,-2.5899999141693115,-0.699999988079071
1743888994.996316,-0.45871999859809875,0.39137598872184753,0.848143994808197,0.8399999737739563,-2.380000114440918,-0.7699999809265137
1743888995.016316,-0.45871999859809875,0.39137598872184753,0.848143994808197,0.9100000262260437,-2.450000047683716,-0.699999988079071
1743888995.036316,-0.45920801162719727,0.39235201478004456,0.8500959873199463,1.0499999523162842,-2.5899999141693115,-0.5600000023841858
1743888995.056316,-0.4601840078830719,0.39137598872184753,0.8496080040931702,1.0499999523162842,-2.6600000858306885,-0.699999988079071
1743888995.0763159,-0.45871999859809875,0.3928399980068207,0.849120020866394,0.9800000190734863,-2.5899999141693115,-0.699999988079071
1743888995.0963159,-0.456279993057251,0.3933280110359192,0.8486319780349731,1.0499999523162842,-2.799999952316284,-0.5600000023841858
1743888995.1295612,-0.46116000413894653,0.40064799785614014,0.8510720133781433,-0.20999999344348907,-2.450000047683716,-0.6299999952316284
1743888995.1495612,-0.4543280005455017,0.3957679867744446,0.849120020866394,1.0499999523162842,-3.0799999237060547,-0.3499999940395355
1743888995.1695611,-0.4601840078830719,0.3928399980068207,0.8500959873199463,1.8899999856948853,-3.009999990463257,-0.41999998688697815
1743888995.1895611,-0.460671991109848,0.39869600534439087,0.8515599966049194,0.699999988079071,-2.940000057220459,-0.3499999940395355
1743888995.209561,-0.4572559893131256,0.38942399621009827,0.8452159762382507,1.399999976158142,-3.1500000953674316,-0.49000000953674316
1743888995.229561,-0.45823198556900024,0.3899120092391968,0.8525360226631165,1.190000057220459,-2.5199999809265137,-0.5600000023841858
1743888995.2224522,-0.456279993057251,0.39235201478004456,0.8510720133781433,0.8399999737739563,-2.1700000762939453,-0.9100000262260437
1743888995.2424521,-0.4567680060863495,0.3928399980068207,0.8510720133781433,0.5600000023841858,-2.0999999046325684,-0.9100000262260437
1743888995.2624521,-0.4533520042896271,0.39235201478004456,0.8505839705467224,1.0499999523162842,-2.5199999809265137,-0.9100000262260437
1743888995.282452,-0.4543280005455017,0.39479199051856995,0.8510720133781433,1.0499999523162842,-2.450000047683716,-0.7699999809265137
1743888995.302452,-0.4538399875164032,0.3957679867744446,0.8496080040931702,0.699999988079071,-2.240000009536743,-0.7699999809265137
1743888995.322452,-0.45237600803375244,0.39479199051856995,0.8510720133781433,0.9800000190734863,-2.5899999141693115,-0.699999988079071
1743888995.312956,-0.4577440023422241,0.3938159942626953,0.849120020866394,0.8399999737739563,-3.0799999237060547,-0.3499999940395355
1743888995.332956,-0.45823198556900024,0.39137598872184753,0.8471680283546448,1.1200000047683716,-3.1500000953674316,-0.49000000953674316
1743888995.352956,-0.4577440023422241,0.3933280110359192,0.848143994808197,1.190000057220459,-3.0799999237060547,-0.41999998688697815
1743888995.372956,-0.4572559893131256,0.3933280110359192,0.8442400097846985,0.9800000190734863,-2.799999952316284,-0.6299999952316284
1743888995.392956,-0.45871999859809875,0.3933280110359192,0.8442400097846985,0.9800000190734863,-2.6600000858306885,-0.8399999737739563
1743888995.412956,-0.4567680060863495,0.39235201478004456,0.8452159762382507,0.8399999737739563,-2.309999942779541,-0.7699999809265137
1743888995.399933,-0.4548160135746002,0.3928399980068207,0.8505839705467224,0.9100000262260437,-2.309999942779541,-0.8399999737739563
1743888995.419933,-0.456279993057251,0.39235201478004456,0.8500959873199463,0.9800000190734863,-2.5199999809265137,-0.699999988079071
1743888995.439933,-0.4567680060863495,0.3933280110359192,0.8500959873199463,1.1200000047683716,-2.7300000190734863,-0.8399999737739563
1743888995.459933,-0.45530399680137634,0.39137598872184753,0.8525360226631165,0.9100000262260437,-2.869999885559082,-0.6299999952316284
1743888995.479933,-0.45579200983047485,0.39528000354766846,0.8496080040931702,1.1200000047683716,-2.940000057220459,-0.6299999952316284
1743888995.499933,-0.45530399680137634,0.39528000354766846,0.8515599966049194,1.1200000047683716,-2.940000057220459,-0.5600000023841858
1743888995.50605,-0.4577440023422241,0.39235201478004456,0.8476560115814209,0.9800000190734863,-2.450000047683716,-0.8399999737739563
1743888995.52605,-0.45920801162719727,0.39479199051856995,0.8486319780349731,0.9100000262260437,-2.450000047683716,-0.9100000262260437
1743888995.54605,-0.45871999859809875,0.3928399980068207,0.8466799855232239,0.8399999737739563,-2.380000114440918,-0.7699999809265137
1743888995.56605,-0.4596959948539734,0.3933280110359192,0.8476560115814209,0.9100000262260437,-2.380000114440918,-0.7699999809265137
1743888995.58605,-0.4572559893131256,0.39479199051856995,0.8471680283546448,0.9800000190734863,-2.240000009536743,-0.7699999809265137
1743888995.60605,-0.45579200983047485,0.39186400175094604,0.8486319780349731,0.9100000262260437,-2.1700000762939453,-0.699999988079071
1743888995.5799203,-0.45579200983047485,0.39528000354766846,0.8510720133781433,0.8399999737739563,-2.5199999809265137,-0.699999988079071
1743888995.5999203,-0.4572559893131256,0.39528000354766846,0.8496080040931702,1.0499999523162842,-2.5899999141693115,-0.6299999952316284
1743888995.6199203,-0.460671991109848,0.39479199051856995,0.8496080040931702,0.8399999737739563,-2.799999952316284,-0.41999998688697815
1743888995.6399202,-0.45823198556900024,0.3933280110359192,0.8496080040931702,1.190000057220459,-2.940000057220459,-0.49000000953674316
1743888995.6599202,-0.45823198556900024,0.3943040072917938,0.848143994808197,1.1200000047683716,-3.009999990463257,-0.41999998688697815
1743888995.6799202,-0.4572559893131256,0.3957679867744446,0.848143994808197,1.0499999523162842,-3.1500000953674316,-0.49000000953674316
1743888995.6865702,-0.45920801162719727,0.39479199051856995,0.8515599966049194,-0.20999999344348907,-2.0299999713897705,-0.9100000262260437
1743888995.7065701,-0.4572559893131256,0.39186400175094604,0.8457040190696716,1.6100000143051147,-2.0299999713897705,-0.9100000262260437
1743888995.7265701,-0.45823198556900024,0.3943040072917938,0.8466799855232239,0.6299999952316284,-2.0999999046325684,-0.8399999737739563
1743888995.74657,-0.4572559893131256,0.3928399980068207,0.8500959873199463,0.8399999737739563,-2.309999942779541,-0.7699999809265137
1743888995.76657,-0.456279993057251,0.3928399980068207,0.8510720133781433,1.3300000429153442,-2.0999999046325684,-0.8399999737739563
1743888995.78657,-0.4572559893131256,0.3943040072917938,0.8486319780349731,0.6299999952316284,-2.1700000762939453,-0.8399999737739563
1743888995.791763,-0.45871999859809875,0.3943040072917938,0.8461920022964478,1.6799999475479126,-2.940000057220459,-0.5600000023841858
1743888995.811763,-0.45871999859809875,0.39772000908851624,0.8476560115814209,1.1200000047683716,-2.799999952316284,-0.49000000953674316
1743888995.831763,-0.45871999859809875,0.3962559998035431,0.8476560115814209,0.9800000190734863,-3.0799999237060547,-0.3499999940395355
1743888995.851763,-0.4601840078830719,0.3908880054950714,0.8466799855232239,1.2599999904632568,-3.009999990463257,-0.41999998688697815
1743888995.871763,-0.46116000413894653,0.39235201478004456,0.8486319780349731,0.8399999737739563,-3.0799999237060547,-0.49000000953674316
1743888995.891763,-0.45530399680137634,0.39137598872184753,0.8461920022964478,1.0499999523162842,-3.0799999237060547,-0.6299999952316284
1743888995.8800142,-0.4601840078830719,0.39235201478004456,0.8520479798316956,0.699999988079071,-1.6100000143051147,-0.9800000190734863
1743888995.9000142,-0.45920801162719727,0.3938159942626953,0.8530240058898926,0.6299999952316284,-1.9600000381469727,-1.1200000047683716
1743888995.9200141,-0.4577440023422241,0.39235201478004456,0.8496080040931702,0.9100000262260437,-2.380000114440918,-0.7699999809265137
1743888995.9400141,-0.4548160135746002,0.3972319960594177,0.8486319780349731,1.1200000047683716,-2.7300000190734863,-0.5600000023841858
1743888995.960014,-0.46213600039482117,0.3928399980068207,0.8496080040931702,1.6799999475479126,-2.940000057220459,-0.41999998688697815
1743888995.980014,-0.4577440023422241,0.3943040072917938,0.8515599966049194,0.699999988079071,-2.940000057220459,-0.5600000023841858
1743888995.987308,-0.4538399875164032,0.3962559998035431,0.8447279930114746,0.7699999809265137,-2.0999999046325684,-1.0499999523162842
1743888996.007308,-0.4548160135746002,0.3962559998035431,0.848143994808197,0.9800000190734863,-2.0999999046325684,-0.9100000262260437
1743888996.027308,-0.45871999859809875,0.39479199051856995,0.8457040190696716,0.9800000190734863,-2.0299999713897705,-0.9100000262260437
1743888996.047308,-0.4577440023422241,0.39479199051856995,0.8476560115814209,0.9100000262260437,-2.0999999046325684,-0.8399999737739563
1743888996.067308,-0.45871999859809875,0.39528000354766846,0.848143994808197,0.9100000262260437,-2.309999942779541,-0.8399999737739563
1743888996.087308,-0.460671991109848,0.3933280110359192,0.848143994808197,0.9800000190734863,-2.5199999809265137,-0.7699999809265137
1743888996.061606,-0.4548160135746002,0.3938159942626953,0.849120020866394,0.9100000262260437,-2.5199999809265137,-0.7699999809265137
1743888996.081606,-0.45579200983047485,0.39235201478004456,0.849120020866394,0.9100000262260437,-2.380000114440918,-0.8399999737739563
1743888996.101606,-0.4533520042896271,0.3928399980068207,0.8471680283546448,0.9100000262260437,-2.0999999046325684,-0.7699999809265137
1743888996.1216059,-0.4572559893131256,0.3928399980068207,0.8500959873199463,0.9100000262260437,-2.1700000762939453,-0.699999988079071
1743888996.1416059,-0.4572559893131256,0.39137598872184753,0.8466799855232239,1.0499999523162842,-2.1700000762939453,-0.699999988079071
1743888996.1616058,-0.45920801162719727,0.3928399980068207,0.8496080040931702,0.9100000262260437,-2.309999942779541,-0.8399999737739563
1743888996.152988,-0.45579200983047485,0.3928399980068207,0.849120020866394,0.9800000190734863,-2.450000047683716,-0.6299999952316284
1743888996.172988,-0.45579200983047485,0.39235201478004456,0.8486319780349731,0.9800000190734863,-2.5199999809265137,-0.6299999952316284
1743888996.192988,-0.4572559893131256,0.39137598872184753,0.8500959873199463,0.9800000190734863,-2.240000009536743,-0.8399999737739563
1743888996.212988,-0.4572559893131256,0.3928399980068207,0.8486319780349731,0.9100000262260437,-2.309999942779541,-0.7699999809265137
1743888996.2329879,-0.45871999859809875,0.3908880054950714,0.849120020866394,0.9800000190734863,-2.309999942779541,-0.699999988079071
1743888996.2529879,-0.45920801162719727,0.39186400175094604,0.8525360226631165,0.9800000190734863,-2.380000114440918,-0.8399999737739563
1743888996.2547991,-0.45871999859809875,0.3903999924659729,0.8476560115814209,1.1200000047683716,-2.799999952316284,-0.6299999952316284
1743888996.274799,-0.4543280005455017,0.3908880054950714,0.848143994808197,0.9800000190734863,-2.799999952316284,-0.8399999737739563
1743888996.294799,-0.4533520042896271,0.39235201478004456,0.8466799855232239,0.6299999952316284,-2.450000047683716,-0.9100000262260437
1743888996.314799,-0.4543280005455017,0.3908880054950714,0.8496080040931702,0.9100000262260437,-2.1700000762939453,-1.0499999523162842
1743888996.334799,-0.45237600803375244,0.39235201478004456,0.8466799855232239,0.7699999809265137,-2.0299999713897705,-0.9800000190734863
1743888996.354799,-0.45286399126052856,0.39528000354766846,0.8496080040931702,0.7699999809265137,-1.9600000381469727,-0.9100000262260437
1743888996.34575,-0.4596959948539734,0.3938159942626953,0.8515599966049194,0.9800000190734863,-3.0799999237060547,-0.3499999940395355
1743888996.36575,-0.4572559893131256,0.39235201478004456,0.8500959873199463,1.190000057220459,-3.1500000953674316,-0.5600000023841858
1743888996.38575,-0.4567680060863495,0.39235201478004456,0.8461920022964478,1.1200000047683716,-2.869999885559082,-0.5600000023841858
1743888996.40575,-0.456279993057251,0.3903999924659729,0.8447279930114746,0.9100000262260437,-2.799999952316284,-0.6299999952316284
1743888996.42575,-0.4548160135746002,0.39186400175094604,0.848143994808197,0.9800000190734863,-2.450000047683716,-0.699999988079071
1743888996.44575,-0.456279993057251,0.39235201478004456,0.8510720133781433,1.0499999523162842,-2.1700000762939453,-0.6299999952316284
1743888996.463219,-0.45823198556900024,0.3943040072917938,0.8500959873199463,0.8399999737739563,-2.450000047683716,-0.6299999952316284
1743888996.483219,-0.45579200983047485,0.3938159942626953,0.848143994808197,0.8399999737739563,-2.6600000858306885,-0.5600000023841858
1743888996.503219,-0.4567680060863495,0.3962559998035431,0.8461920022964478,1.1200000047683716,-2.869999885559082,-0.49000000953674316
1743888996.5232189,-0.45530399680137634,0.39137598872184753,0.8476560115814209,1.1200000047683716,-2.940000057220459,-0.5600000023841858
1743888996.5432189,-0.45871999859809875,0.39235201478004456,0.8486319780349731,0.9100000262260437,-2.940000057220459,-0.49000000953674316
1743888996.5632188,-0.4548160135746002,0.3903999924659729,0.849120020866394,1.1200000047683716,-2.450000047683716,-0.41999998688697815
1743888996.5423512,-0.45920801162719727,0.3899120092391968,0.8505839705467224,0.5600000023841858,-2.309999942779541,-0.7699999809265137
1743888996.5623512,-0.4601840078830719,0.3908880054950714,0.8476560115814209,1.190000057220459,-2.5899999141693115,-1.0499999523162842
1743888996.5823512,-0.4601840078830719,0.3943040072917938,0.848143994808197,0.2800000011920929,-2.5199999809265137,-0.9100000262260437
1743888996.6023512,-0.45871999859809875,0.39479199051856995,0.849120020866394,1.1200000047683716,-2.7300000190734863,-0.6299999952316284
1743888996.6223512,-0.4572559893131256,0.3957679867744446,0.8476560115814209,1.399999976158142,-2.5899999141693115,-0.699999988079071
1743888996.6423512,-0.4548160135746002,0.39528000354766846,0.849120020866394,0.8399999737739563,-2.450000047683716,-0.6299999952316284
1743888996.63127,-0.4572559893131256,0.3928399980068207,0.8505839705467224,1.190000057220459,-2.450000047683716,-0.7699999809265137
1743888996.65127,-0.4572559893131256,0.3928399980068207,0.8500959873199463,0.6299999952316284,-2.5199999809265137,-0.7699999809265137
1743888996.67127,-0.460671991109848,0.39137598872184753,0.8486319780349731,0.9100000262260437,-2.799999952316284,-0.7699999809265137
1743888996.6912699,-0.4577440023422241,0.3938159942626953,0.8500959873199463,0.9800000190734863,-2.799999952316284,-0.6299999952316284
1743888996.7112699,-0.45823198556900024,0.39528000354766846,0.8500959873199463,0.9800000190734863,-2.940000057220459,-0.49000000953674316
1743888996.7312698,-0.4572559893131256,0.3928399980068207,0.8496080040931702,1.0499999523162842,-3.009999990463257,-0.49000000953674316
1743888996.720395,-0.4538399875164032,0.3903999924659729,0.8510720133781433,0.7699999809265137,-2.0299999713897705,-0.9100000262260437
1743888996.740395,-0.4567680060863495,0.3903999924659729,0.8500959873199463,0.7699999809265137,-1.9600000381469727,-1.0499999523162842
1743888996.760395,-0.45823198556900024,0.3933280110359192,0.849120020866394,0.699999988079071,-1.8899999856948853,-1.0499999523162842
1743888996.780395,-0.4543280005455017,0.3938159942626953,0.8505839705467224,0.7699999809265137,-2.0299999713897705,-0.9800000190734863
1743888996.800395,-0.4548160135746002,0.3933280110359192,0.8530240058898926,0.9800000190734863,-2.0999999046325684,-0.9100000262260437
1743888996.820395,-0.45871999859809875,0.39479199051856995,0.8520479798316956,0.8399999737739563,-2.309999942779541,-0.8399999737739563
1743888996.8227181,-0.4596959948539734,0.39235201478004456,0.848143994808197,0.9800000190734863,-3.009999990463257,-0.699999988079071
1743888996.8427181,-0.45823198556900024,0.39137598872184753,0.848143994808197,0.9800000190734863,-2.799999952316284,-0.6299999952316284
1743888996.862718,-0.456279993057251,0.3933280110359192,0.8466799855232239,0.9100000262260437,-2.5899999141693115,-0.8399999737739563
1743888996.882718,-0.45823198556900024,0.3933280110359192,0.8452159762382507,0.9100000262260437,-2.380000114440918,-0.8399999737739563
1743888996.902718,-0.4567680060863495,0.3928399980068207,0.8471680283546448,0.699999988079071,-2.380000114440918,-0.8399999737739563
1743888996.922718,-0.4577440023422241,0.39186400175094604,0.8461920022964478,0.8399999737739563,-1.8200000524520874,-1.0499999523162842
1743888996.9007733,-0.4577440023422241,0.39186400175094604,0.8510720133781433,0.7699999809265137,-2.240000009536743,-0.699999988079071
1743888996.9207733,-0.45823198556900024,0.39235201478004456,0.8510720133781433,1.190000057220459,-2.5899999141693115,-0.8399999737739563
1743888996.9407732,-0.45871999859809875,0.3943040072917938,0.8520479798316956,0.699999988079071,-2.5899999141693115,-0.6299999952316284
1743888996.9607732,-0.456279993057251,0.3928399980068207,0.8505839705467224,1.2599999904632568,-2.869999885559082,-0.699999988079071
1743888996.9807732,-0.4596959948539734,0.3943040072917938,0.8500959873199463,1.190000057220459,-2.7300000190734863,-0.7699999809265137
1743888997.0007732,-0.4567680060863495,0.39528000354766846,0.8466799855232239,0.8399999737739563,-2.869999885559082,-0.5600000023841858
1743888996.9910522,-0.45920801162719727,0.39235201478004456,0.8461920022964478,1.1200000047683716,-2.450000047683716,-0.7699999809265137
1743888997.0110521,-0.4567680060863495,0.3928399980068207,0.8466799855232239,0.7699999809265137,-2.5899999141693115,-0.8399999737739563
1743888997.031052,-0.45823198556900024,0.39186400175094604,0.848143994808197,1.0499999523162842,-2.380000114440918,-0.8399999737739563
1743888997.051052,-0.4577440023422241,0.39479199051856995,0.8471680283546448,0.8399999737739563,-2.450000047683716,-0.9100000262260437
1743888997.071052,-0.4548160135746002,0.3933280110359192,0.8476560115814209,0.9800000190734863,-2.309999942779541,-0.9100000262260437
1743888997.091052,-0.4572559893131256,0.3928399980068207,0.848143994808197,0.8399999737739563,-1.9600000381469727,-0.9100000262260437
1743888997.0970702,-0.45871999859809875,0.3938159942626953,0.8505839705467224,1.0499999523162842,-2.6600000858306885,-0.6299999952316284
1743888997.1170702,-0.456279993057251,0.39235201478004456,0.8510720133781433,0.9100000262260437,-2.6600000858306885,-0.699999988079071
1743888997.1370702,-0.45920801162719727,0.3938159942626953,0.849120020866394,1.0499999523162842,-2.940000057220459,-0.49000000953674316
1743888997.1570702,-0.4577440023422241,0.3943040072917938,0.8471680283546448,0.9800000190734863,-3.1500000953674316,-0.41999998688697815
1743888997.1770701,-0.45871999859809875,0.3938159942626953,0.8476560115814209,1.0499999523162842,-3.1500000953674316,-0.49000000953674316
1743888997.1970701,-0.45871999859809875,0.3938159942626953,0.8476560115814209,1.0499999523162842,-3.0799999237060547,-0.49000000953674316
1743888997.1978803,-0.45920801162719727,0.3928399980068207,0.8500959873199463,0.9100000262260437,-2.0299999713897705,-0.9100000262260437
1743888997.2178802,-0.456279993057251,0.39235201478004456,0.8520479798316956,0.8399999737739563,-1.8899999856948853,-0.9100000262260437
1743888997.2378802,-0.4567680060863495,0.39137598872184753,0.8510720133781433,0.9100000262260437,-1.9600000381469727,-0.9800000190734863
1743888997.2578802,-0.4577440023422241,0.39235201478004456,0.8496080040931702,0.8399999737739563,-2.240000009536743,-0.9800000190734863
1743888997.2778802,-0.4567680060863495,0.3933280110359192,0.8515599966049194,0.699999988079071,-2.309999942779541,-0.8399999737739563
1743888997.2978802,-0.4543280005455017,0.39235201478004456,0.8520479798316956,0.699999988079071,-2.5199999809265137,-0.7699999809265137
1743888997.291074,-0.4572559893131256,0.39137598872184753,0.8486319780349731,0.9800000190734863,-2.799999952316284,-0.699999988079071
1743888997.311074,-0.4567680060863495,0.39137598872184753,0.8486319780349731,0.9100000262260437,-2.869999885559082,-0.699999988079071
1743888997.331074,-0.45823198556900024,0.3908880054950714,0.8471680283546448,0.8399999737739563,-2.799999952316284,-0.699999988079071
1743888997.351074,-0.45871999859809875,0.3933280110359192,0.8471680283546448,0.9100000262260437,-2.6600000858306885,-0.7699999809265137
1743888997.371074,-0.456279993057251,0.3928399980068207,0.8471680283546448,0.8399999737739563,-2.450000047683716,-0.7699999809265137
1743888997.391074,-0.4567680060863495,0.39528000354766846,0.848143994808197,1.0499999523162842,-2.450000047683716,-0.7699999809265137
1743888997.367615,-0.45579200983047485,0.3938159942626953,0.848143994808197,0.8399999737739563,-2.1700000762939453,-0.9100000262260437
1743888997.387615,-0.45530399680137634,0.3933280110359192,0.8496080040931702,0.9800000190734863,-2.240000009536743,-0.699999988079071
1743888997.407615,-0.45579200983047485,0.39235201478004456,0.8496080040931702,0.9800000190734863,-2.240000009536743,-0.9100000262260437
1743888997.427615,-0.4572559893131256,0.39479199051856995,0.8505839705467224,0.8399999737739563,-2.380000114440918,-0.8399999737739563
1743888997.447615,-0.4567680060863495,0.3943040072917938,0.849120020866394,0.7699999809265137,-2.450000047683716,-0.8399999737739563
1743888997.467615,-0.45530399680137634,0.3938159942626953,0.8496080040931702,0.9100000262260437,-2.5199999809265137,-0.7699999809265137
1743888997.4874141,-0.45920801162719727,0.3933280110359192,0.8447279930114746,1.0499999523162842,-2.869999885559082,-0.699999988079071
1743888997.507414,-0.45579200983047485,0.39186400175094604,0.8476560115814209,0.9800000190734863,-2.7300000190734863,-0.699999988079071
1743888997.527414,-0.45530399680137634,0.3943040072917938,0.8466799855232239,0.9800000190734863,-2.5899999141693115,-0.7699999809265137
1743888997.547414,-0.45871999859809875,0.39528000354766846,0.8496080040931702,0.9800000190734863,-2.450000047683716,-0.8399999737739563
1743888997.567414,-0.456279993057251,0.3938159942626953,0.8476560115814209,0.9800000190734863,-2.380000114440918,-0.8399999737739563
1743888997.587414,-0.456279993057251,0.39479199051856995,0.8452159762382507,0.9800000190734863,-2.0299999713897705,-0.699999988079071
1743888997.578236,-0.4567680060863495,0.3933280110359192,0.8496080040931702,1.0499999523162842,-2.6600000858306885,-0.699999988079071
1743888997.598236,-0.45530399680137634,0.3928399980068207,0.8496080040931702,0.8399999737739563,-2.6600000858306885,-0.6299999952316284
1743888997.618236,-0.4543280005455017,0.39528000354766846,0.849120020866394,0.9100000262260437,-2.6600000858306885,-0.6299999952316284
1743888997.638236,-0.4543280005455017,0.3928399980068207,0.8486319780349731,1.0499999523162842,-2.799999952316284,-0.699999988079071
1743888997.658236,-0.4572559893131256,0.3957679867744446,0.8476560115814209,1.1200000047683716,-2.799999952316284,-0.6299999952316284
1743888997.678236,-0.45530399680137634,0.39479199051856995,0.8476560115814209,1.1200000047683716,-2.869999885559082,-0.49000000953674316
1743888997.650818,-0.45871999859809875,0.39235201478004456,0.848143994808197,1.0499999523162842,-2.5199999809265137,-0.699999988079071
1743888997.670818,-0.4572559893131256,0.3903999924659729,0.8486319780349731,0.9100000262260437,-2.380000114440918,-0.8399999737739563
1743888997.690818,-0.45823198556900024,0.39235201478004456,0.8466799855232239,0.9100000262260437,-2.240000009536743,-0.9100000262260437
1743888997.710818,-0.4577440023422241,0.39137598872184753,0.8476560115814209,0.7699999809265137,-2.309999942779541,-0.9100000262260437
1743888997.730818,-0.45579200983047485,0.39235201478004456,0.848143994808197,0.9800000190734863,-2.309999942779541,-0.9100000262260437
1743888997.750818,-0.4567680060863495,0.3957679867744446,0.849120020866394,0.9100000262260437,-2.1700000762939453,-0.9800000190734863
1743888997.740822,-0.4567680060863495,0.3938159942626953,0.8486319780349731,0.9800000190734863,-2.799999952316284,-0.699999988079071
1743888997.760822,-0.45579200983047485,0.3957679867744446,0.8476560115814209,1.0499999523162842,-2.940000057220459,-0.6299999952316284
1743888997.780822,-0.456279993057251,0.3933280110359192,0.849120020866394,0.9100000262260437,-2.869999885559082,-0.6299999952316284
1743888997.800822,-0.45530399680137634,0.3908880054950714,0.8476560115814209,0.9800000190734863,-2.799999952316284,-0.6299999952316284
1743888997.820822,-0.4567680060863495,0.3928399980068207,0.849120020866394,1.0499999523162842,-2.7300000190734863,-0.6299999952316284
1743888997.840822,-0.4577440023422241,0.39235201478004456,0.8476560115814209,0.9100000262260437,-2.5899999141693115,-0.6299999952316284
1743888997.829966,-0.4596959948539734,0.39479199051856995,0.8471680283546448,0.9100000262260437,-2.450000047683716,-0.7699999809265137
1743888997.849966,-0.4596959948539734,0.39479199051856995,0.8486319780349731,1.0499999523162842,-2.380000114440918,-0.8399999737739563
1743888997.869966,-0.4567680060863495,0.3957679867744446,0.8476560115814209,0.8399999737739563,-2.380000114440918,-0.8399999737739563
1743888997.889966,-0.45579200983047485,0.39528000354766846,0.8476560115814209,0.9800000190734863,-2.380000114440918,-0.7699999809265137
1743888997.909966,-0.4572559893131256,0.3943040072917938,0.8471680283546448,1.1200000047683716,-2.309999942779541,-0.699999988079071
1743888997.929966,-0.4572559893131256,0.3938159942626953,0.8505839705467224,0.9100000262260437,-2.309999942779541,-0.7699999809265137
1743888997.979746,-0.4567680060863495,0.3933280110359192,0.848143994808197,0.7699999809265137,-2.5199999809265137,-0.5600000023841858
1743888997.999746,-0.4572559893131256,0.3938159942626953,0.8476560115814209,0.9800000190734863,-2.450000047683716,-0.699999988079071
1743888998.019746,-0.4567680060863495,0.3943040072917938,0.8476560115814209,0.8399999737739563,-2.450000047683716,-0.699999988079071
1743888998.039746,-0.4567680060863495,0.3943040072917938,0.849120020866394,0.8399999737739563,-2.450000047683716,-0.699999988079071
1743888998.059746,-0.45823198556900024,0.39479199051856995,0.8471680283546448,1.1200000047683716,-2.450000047683716,-0.6299999952316284
1743888998.079746,-0.45920801162719727,0.3933280110359192,0.8486319780349731,0.9800000190734863,-2.450000047683716,-0.699999988079071
1743888998.012136,-0.4572559893131256,0.39479199051856995,0.8496080040931702,0.9800000190734863,-2.380000114440918,-0.7699999809265137
1743888998.032136,-0.45579200983047485,0.3928399980068207,0.8486319780349731,0.9100000262260437,-2.380000114440918,-0.7699999809265137
1743888998.052136,-0.45530399680137634,0.3899120092391968,0.8505839705467224,0.7699999809265137,-2.240000009536743,-0.7699999809265137
1743888998.072136,-0.4577440023422241,0.3943040072917938,0.8500959873199463,0.9100000262260437,-2.309999942779541,-0.699999988079071
1743888998.092136,-0.4567680060863495,0.39479199051856995,0.8505839705467224,0.9800000190734863,-2.240000009536743,-0.699999988079071
1743888998.112136,-0.4596959948539734,0.3928399980068207,0.849120020866394,0.9800000190734863,-2.309999942779541,-0.6299999952316284
1743888998.1577861,-0.4548160135746002,0.39235201478004456,0.8476560115814209,1.190000057220459,-2.5899999141693115,-0.5600000023841858
1743888998.177786,-0.4538399875164032,0.39235201478004456,0.8486319780349731,0.9800000190734863,-2.240000009536743,-0.699999988079071
1743888998.197786,-0.456279993057251,0.39186400175094604,0.849120020866394,0.9100000262260437,-2.380000114440918,-0.7699999809265137
1743888998.217786,-0.4567680060863495,0.39235201478004456,0.8500959873199463,0.8399999737739563,-2.1700000762939453,-0.9100000262260437
1743888998.237786,-0.4577440023422241,0.39137598872184753,0.8500959873199463,0.9800000190734863,-2.1700000762939453,-0.9100000262260437
1743888998.257786,-0.4577440023422241,0.3899120092391968,0.8505839705467224,0.9800000190734863,-2.309999942779541,-0.7699999809265137
1743888998.235317,-0.45579200983047485,0.3928399980068207,0.8471680283546448,1.0499999523162842,-2.5899999141693115,-0.6299999952316284
1743888998.255317,-0.45530399680137634,0.3933280110359192,0.8496080040931702,0.9800000190734863,-2.5899999141693115,-0.7699999809265137
1743888998.275317,-0.4577440023422241,0.3957679867744446,0.848143994808197,0.8399999737739563,-2.5899999141693115,-0.8399999737739563
1743888998.295317,-0.4572559893131256,0.39137598872184753,0.848143994808197,0.8399999737739563,-2.450000047683716,-0.8399999737739563
1743888998.315317,-0.45823198556900024,0.39186400175094604,0.8486319780349731,0.9800000190734863,-2.5199999809265137,-0.6299999952316284
1743888998.335317,-0.4567680060863495,0.39235201478004456,0.8505839705467224,0.9100000262260437,-2.5199999809265137,-0.7699999809265137
1743888998.3103302,-0.4601840078830719,0.3957679867744446,0.8466799855232239,1.1200000047683716,-2.5899999141693115,-0.6299999952316284
1743888998.3303301,-0.4567680060863495,0.39235201478004456,0.848143994808197,0.9800000190734863,-2.5199999809265137,-0.699999988079071
1743888998.35033,-0.4601840078830719,0.39186400175094604,0.8486319780349731,0.8399999737739563,-2.5199999809265137,-0.7699999809265137
1743888998.37033,-0.45823198556900024,0.39235201478004456,0.8496080040931702,1.0499999523162842,-2.5199999809265137,-0.7699999809265137
1743888998.39033,-0.4577440023422241,0.39186400175094604,0.8510720133781433,1.0499999523162842,-2.5199999809265137,-0.6299999952316284
1743888998.41033,-0.456279993057251,0.39235201478004456,0.8500959873199463,0.9100000262260437,-2.5199999809265137,-0.699999988079071
1743888998.403032,-0.4543280005455017,0.39869600534439087,0.8476560115814209,0.20999999344348907,-2.1700000762939453,-0.49000000953674316
1743888998.423032,-0.4567680060863495,0.3933280110359192,0.848143994808197,1.4700000286102295,-2.380000114440918,-0.5600000023841858
1743888998.443032,-0.456279993057251,0.3938159942626953,0.8510720133781433,1.3300000429153442,-2.309999942779541,-0.6299999952316284
1743888998.463032,-0.4601840078830719,0.3933280110359192,0.8520479798316956,0.699999988079071,-2.799999952316284,-0.8399999737739563
1743888998.483032,-0.45920801162719727,0.39186400175094604,0.849120020866394,1.190000057220459,-2.799999952316284,-0.6299999952316284
1743888998.503032,-0.4596959948539734,0.3962559998035431,0.8457040190696716,0.6299999952316284,-2.5899999141693115,-0.6299999952316284
1743888998.534604,-0.4577440023422241,0.3943040072917938,0.8461920022964478,0.7699999809265137,-2.450000047683716,-0.6299999952316284
1743888998.554604,-0.45920801162719727,0.3933280110359192,0.8500959873199463,1.2599999904632568,-2.240000009536743,-0.7699999809265137
1743888998.574604,-0.460671991109848,0.3943040072917938,0.8500959873199463,0.7699999809265137,-2.450000047683716,-0.699999988079071
1743888998.594604,-0.4567680060863495,0.39186400175094604,0.8447279930114746,1.1200000047683716,-2.5199999809265137,-0.7699999809265137
1743888998.614604,-0.4601840078830719,0.3928399980068207,0.8505839705467224,0.7699999809265137,-2.5199999809265137,-0.7699999809265137
1743888998.634604,-0.4572559893131256,0.39772000908851624,0.8476560115814209,0.8399999737739563,-2.450000047683716,-0.7699999809265137
1743888998.59672,-0.4596959948539734,0.3933280110359192,0.8515599966049194,0.8399999737739563,-2.5199999809265137,-0.699999988079071
1743888998.61672,-0.45871999859809875,0.3928399980068207,0.8505839705467224,0.9100000262260437,-2.5199999809265137,-0.699999988079071
1743888998.63672,-0.4601840078830719,0.3938159942626953,0.8500959873199463,0.9100000262260437,-2.7300000190734863,-0.699999988079071
1743888998.65672,-0.45871999859809875,0.3903999924659729,0.848143994808197,0.9800000190734863,-2.7300000190734863,-0.699999988079071
1743888998.67672,-0.4577440023422241,0.3899120092391968,0.8486319780349731,0.9100000262260437,-2.869999885559082,-0.699999988079071
1743888998.69672,-0.4577440023422241,0.3938159942626953,0.8486319780349731,0.8399999737739563,-2.869999885559082,-0.699999988079071
1743888998.686412,-0.4572559893131256,0.39186400175094604,0.8496080040931702,0.9800000190734863,-2.309999942779541,-0.9100000262260437
1743888998.706412,-0.4577440023422241,0.3938159942626953,0.8505839705467224,0.7699999809265137,-2.0999999046325684,-0.699999988079071
1743888998.726412,-0.4567680060863495,0.3933280110359192,0.8496080040931702,1.1200000047683716,-2.380000114440918,-0.699999988079071
1743888998.746412,-0.456279993057251,0.39479199051856995,0.849120020866394,0.9800000190734863,-2.309999942779541,-0.7699999809265137
1743888998.766412,-0.456279993057251,0.3908880054950714,0.8496080040931702,0.6299999952316284,-2.380000114440918,-0.9100000262260437
1743888998.786412,-0.456279993057251,0.3928399980068207,0.8476560115814209,1.0499999523162842,-2.450000047683716,-0.9800000190734863
1743888998.849309,-0.4567680060863495,0.3933280110359192,0.8496080040931702,0.9100000262260437,-2.5899999141693115,-0.7699999809265137
1743888998.869309,-0.45530399680137634,0.3933280110359192,0.848143994808197,0.9800000190734863,-2.5899999141693115,-0.699999988079071
1743888998.889309,-0.456279993057251,0.3943040072917938,0.8496080040931702,1.1200000047683716,-2.450000047683716,-0.699999988079071
1743888998.909309,-0.4572559893131256,0.3938159942626953,0.8496080040931702,0.9100000262260437,-2.5199999809265137,-0.6299999952316284
1743888998.929309,-0.4577440023422241,0.3938159942626953,0.849120020866394,1.0499999523162842,-2.380000114440918,-0.7699999809265137
1743888998.9493089,-0.45920801162719727,0.39235201478004456,0.8471680283546448,0.9100000262260437,-2.380000114440918,-0.7699999809265137
1743888998.912866,-0.456279993057251,0.3957679867744446,0.8471680283546448,0.9800000190734863,-2.5899999141693115,-0.6299999952316284
1743888998.932866,-0.4577440023422241,0.39235201478004456,0.848143994808197,1.0499999523162842,-2.6600000858306885,-0.5600000023841858
1743888998.952866,-0.4572559893131256,0.3933280110359192,0.8510720133781433,0.9800000190734863,-2.6600000858306885,-0.6299999952316284
1743888998.972866,-0.4572559893131256,0.39479199051856995,0.8496080040931702,0.9100000262260437,-2.5199999809265137,-0.6299999952316284
1743888998.992866,-0.4577440023422241,0.3938159942626953,0.8471680283546448,0.8399999737739563,-2.5899999141693115,-0.7699999809265137
1743888999.012866,-0.4577440023422241,0.39479199051856995,0.8486319780349731,1.0499999523162842,-2.5899999141693115,-0.7699999809265137
1743888999.0024102,-0.4548160135746002,0.39235201478004456,0.849120020866394,1.0499999523162842,-2.380000114440918,-0.699999988079071
1743888999.0224102,-0.4548160135746002,0.3928399980068207,0.848143994808197,0.9800000190734863,-2.380000114440918,-0.6299999952316284
1743888999.0424101,-0.4572559893131256,0.39186400175094604,0.848143994808197,0.9100000262260437,-2.380000114440918,-0.7699999809265137
1743888999.06241,-0.4538399875164032,0.3933280110359192,0.8500959873199463,0.8399999737739563,-2.380000114440918,-0.8399999737739563
1743888999.08241,-0.4567680060863495,0.3938159942626953,0.8486319780349731,0.9800000190734863,-2.5899999141693115,-0.7699999809265137
1743888999.10241,-0.4572559893131256,0.3928399980068207,0.8505839705467224,0.9100000262260437,-2.5899999141693115,-0.6299999952316284
1743888999.0925682,-0.4577440023422241,0.3943040072917938,0.848143994808197,0.9800000190734863,-2.450000047683716,-0.6299999952316284
1743888999.1125681,-0.45823198556900024,0.39235201478004456,0.849120020866394,0.9100000262260437,-2.380000114440918,-0.7699999809265137
1743888999.1325681,-0.4548160135746002,0.39235201478004456,0.8496080040931702,1.1200000047683716,-2.5199999809265137,-0.6299999952316284
1743888999.152568,-0.45579200983047485,0.39479199051856995,0.849120020866394,0.9800000190734863,-2.450000047683716,-0.7699999809265137
1743888999.172568,-0.45823198556900024,0.3899120092391968,0.849120020866394,0.9800000190734863,-2.450000047683716,-0.6299999952316284
1743888999.192568,-0.45579200983047485,0.39137598872184753,0.849120020866394,0.9100000262260437,-2.5199999809265137,-0.5600000023841858
1743888999.1662962,-0.456279993057251,0.39479199051856995,0.8486319780349731,0.7699999809265137,-2.380000114440918,-0.8399999737739563
1743888999.1862962,-0.4596959948539734,0.3943040072917938,0.8476560115814209,0.9800000190734863,-2.380000114440918,-0.6299999952316284
1743888999.2062962,-0.45920801162719727,0.39528000354766846,0.849120020866394,1.0499999523162842,-2.5199999809265137,-0.699999988079071
1743888999.2262962,-0.4572559893131256,0.3943040072917938,0.849120020866394,0.9800000190734863,-2.6600000858306885,-0.6299999952316284
1743888999.2462962,-0.4572559893131256,0.3943040072917938,0.8486319780349731,1.0499999523162842,-2.6600000858306885,-0.699999988079071
1743888999.2662961,-0.45871999859809875,0.39186400175094604,0.8486319780349731,0.9800000190734863,-2.6600000858306885,-0.699999988079071
1743888999.2714882,-0.45579200983047485,0.39479199051856995,0.8496080040931702,0.9800000190734863,-2.380000114440918,-0.699999988079071
1743888999.2914882,-0.4577440023422241,0.3928399980068207,0.849120020866394,1.0499999523162842,-2.450000047683716,-0.7699999809265137
1743888999.3114882,-0.4601840078830719,0.39186400175094604,0.8510720133781433,0.9800000190734863,-2.450000047683716,-0.6299999952316284
1743888999.3314881,-0.4577440023422241,0.39235201478004456,0.8486319780349731,0.8399999737739563,-2.450000047683716,-0.7699999809265137
1743888999.351488,-0.4601840078830719,0.3899120092391968,0.849120020866394,0.9800000190734863,-2.5199999809265137,-0.699999988079071
1743888999.371488,-0.456279993057251,0.3908880054950714,0.8471680283546448,0.9100000262260437,-2.5199999809265137,-0.7699999809265137
1743888999.3608532,-0.4543280005455017,0.3933280110359192,0.848143994808197,1.0499999523162842,-2.450000047683716,-0.699999988079071
1743888999.3808532,-0.4572559893131256,0.39479199051856995,0.8461920022964478,0.9800000190734863,-2.5199999809265137,-0.7699999809265137
1743888999.4008532,-0.456279993057251,0.3957679867744446,0.8461920022964478,0.9800000190734863,-2.5199999809265137,-0.699999988079071
1743888999.4208531,-0.4567680060863495,0.3938159942626953,0.8471680283546448,0.9100000262260437,-2.5899999141693115,-0.7699999809265137
1743888999.440853,-0.45823198556900024,0.3938159942626953,0.8486319780349731,0.9100000262260437,-2.5899999141693115,-0.7699999809265137
1743888999.460853,-0.4577440023422241,0.3943040072917938,0.8461920022964478,0.9800000190734863,-2.5899999141693115,-0.6299999952316284
1743888999.451539,-0.45530399680137634,0.39137598872184753,0.8496080040931702,0.9800000190734863,-2.380000114440918,-0.7699999809265137
1743888999.471539,-0.4533520042896271,0.3928399980068207,0.849120020866394,0.9100000262260437,-2.309999942779541,-0.7699999809265137
1743888999.491539,-0.45823198556900024,0.39235201478004456,0.8500959873199463,0.8399999737739563,-2.240000009536743,-0.8399999737739563
1743888999.511539,-0.4533520042896271,0.3928399980068207,0.8486319780349731,0.8399999737739563,-2.240000009536743,-0.9800000190734863
1743888999.531539,-0.4543280005455017,0.39235201478004456,0.849120020866394,0.7699999809265137,-2.0999999046325684,-0.8399999737739563
1743888999.551539,-0.4533520042896271,0.3938159942626953,0.8486319780349731,0.9100000262260437,-2.1700000762939453,-0.9800000190734863
1743888999.543648,-0.4601840078830719,0.3967440128326416,0.8496080040931702,0.9800000190734863,-2.799999952316284,-0.5600000023841858
1743888999.563648,-0.45871999859809875,0.3933280110359192,0.8500959873199463,0.9800000190734863,-2.940000057220459,-0.3499999940395355
1743888999.583648,-0.45823198556900024,0.3933280110359192,0.8476560115814209,1.190000057220459,-3.0799999237060547,-0.5600000023841858
1743888999.603648,-0.4601840078830719,0.3928399980068207,0.8457040190696716,1.0499999523162842,-2.940000057220459,-0.6299999952316284
1743888999.623648,-0.45579200983047485,0.3928399980068207,0.8447279930114746,0.9800000190734863,-2.799999952316284,-0.699999988079071
1743888999.643648,-0.4572559893131256,0.39186400175094604,0.8461920022964478,1.0499999523162842,-2.7300000190734863,-0.6299999952316284
1743888999.632617,-0.4548160135746002,0.3943040072917938,0.849120020866394,0.8399999737739563,-2.0999999046325684,-0.9100000262260437
1743888999.652617,-0.4567680060863495,0.3933280110359192,0.8500959873199463,0.9100000262260437,-2.0999999046325684,-0.9800000190734863
1743888999.672617,-0.45579200983047485,0.3938159942626953,0.8525360226631165,1.0499999523162842,-2.240000009536743,-0.699999988079071
1743888999.692617,-0.4548160135746002,0.3943040072917938,0.8500959873199463,0.9100000262260437,-2.309999942779541,-0.6299999952316284
1743888999.712617,-0.4572559893131256,0.39186400175094604,0.8500959873199463,1.0499999523162842,-2.5199999809265137,-0.699999988079071
1743888999.732617,-0.4577440023422241,0.3943040072917938,0.8520479798316956,0.9800000190734863,-2.7300000190734863,-0.699999988079071
1743888999.736876,-0.45823198556900024,0.3928399980068207,0.8486319780349731,1.0499999523162842,-2.6600000858306885,-0.6299999952316284
1743888999.756876,-0.45920801162719727,0.39186400175094604,0.8486319780349731,1.0499999523162842,-2.5899999141693115,-0.6299999952316284
1743888999.776876,-0.4601840078830719,0.39235201478004456,0.849120020866394,1.0499999523162842,-2.5899999141693115,-0.6299999952316284
1743888999.796876,-0.4577440023422241,0.3933280110359192,0.8432639837265015,0.9800000190734863,-2.5899999141693115,-0.699999988079071
1743888999.816876,-0.4567680060863495,0.3933280110359192,0.8471680283546448,0.9100000262260437,-2.380000114440918,-0.7699999809265137
1743888999.836876,-0.4577440023422241,0.3938159942626953,0.8476560115814209,0.8399999737739563,-2.450000047683716,-0.8399999737739563
1743888999.826353,-0.4577440023422241,0.3928399980068207,0.8510720133781433,0.9800000190734863,-2.450000047683716,-0.9100000262260437
1743888999.846353,-0.45579200983047485,0.3933280110359192,0.8500959873199463,0.8399999737739563,-2.5899999141693115,-0.6299999952316284
1743888999.866353,-0.4572559893131256,0.3943040072917938,0.849120020866394,0.9800000190734863,-2.5899999141693115,-0.5600000023841858
1743888999.886353,-0.4596959948539734,0.39186400175094604,0.8525360226631165,1.0499999523162842,-2.869999885559082,-0.5600000023841858
1743888999.906353,-0.4572559893131256,0.3908880054950714,0.8496080040931702,1.0499999523162842,-2.869999885559082,-0.5600000023841858
1743888999.926353,-0.45823198556900024,0.3933280110359192,0.8505839705467224,0.9800000190734863,-3.0799999237060547,-0.49000000953674316
1743888999.9151523,-0.45530399680137634,0.3933280110359192,0.8471680283546448,0.9100000262260437,-2.1700000762939453,-0.8399999737739563
1743888999.9351523,-0.45188799500465393,0.39235201478004456,0.8457040190696716,0.9800000190734863,-4.340000152587891,-0.49000000953674316
1743888999.9551523,-0.4899519979953766,0.40064799785614014,0.8539999723434448,16.65999984741211,-0.7699999809265137,-1.75
1743888999.9751523,-0.444568008184433,0.40113601088523865,0.8447279930114746,1.399999976158142,-2.5899999141693115,-0.2800000011920929
1743888999.9951522,-0.44310399889945984,0.37966400384902954,0.839847981929779,0.5600000023841858,-1.9600000381469727,-0.699999988079071
1743889000.0151522,-0.4660399854183197,0.39186400175094604,0.8422880172729492,-3.5,-1.6799999475479126,-0.41999998688697815
1743889000.049235,-0.4509119987487793,0.3938159942626953,0.8496080040931702,-0.14000000059604645,-2.0299999713897705,-0.7699999809265137
1743889000.069235,-0.45286399126052856,0.3938159942626953,0.8505839705467224,2.309999942779541,-1.8899999856948853,-0.9800000190734863
1743889000.089235,-0.45823198556900024,0.3943040072917938,0.849120020866394,-0.07000000029802322,-2.309999942779541,-0.7699999809265137
1743889000.109235,-0.4548160135746002,0.39186400175094604,0.8505839705467224,0.7699999809265137,-2.240000009536743,-0.7699999809265137
1743889000.129235,-0.4631119966506958,0.3957679867744446,0.8510720133781433,1.75,-2.1700000762939453,-0.9800000190734863
1743889000.149235,-0.46164798736572266,0.3943040072917938,0.8476560115814209,0.3499999940395355,-2.869999885559082,-0.49000000953674316
1743889000.111052,-0.4567680060863495,0.3903999924659729,0.8496080040931702,0.9800000190734863,-2.0299999713897705,-0.7699999809265137
1743889000.131052,-0.4572559893131256,0.3899120092391968,0.8520479798316956,0.9100000262260437,-2.0999999046325684,-0.9100000262260437
1743889000.151052,-0.4601840078830719,0.38600799441337585,0.8500959873199463,0.9800000190734863,-2.1700000762939453,-0.9100000262260437
1743889000.171052,-0.46116000413894653,0.3908880054950714,0.8520479798316956,0.699999988079071,-2.5899999141693115,-0.9800000190734863
1743889000.191052,-0.46116000413894653,0.39137598872184753,0.849120020866394,1.1200000047683716,-2.450000047683716,-0.7699999809265137
1743889000.211052,-0.46164798736572266,0.3938159942626953,0.8486319780349731,0.7699999809265137,-2.799999952316284,-0.7699999809265137
1743889000.2006202,-0.45579200983047485,0.3928399980068207,0.8496080040931702,1.1200000047683716,-2.0999999046325684,-0.6299999952316284
1743889000.2206202,-0.45579200983047485,0.3908880054950714,0.8486319780349731,1.2599999904632568,-2.0999999046325684,-0.699999988079071
1743889000.2406201,-0.45530399680137634,0.39137598872184753,0.8496080040931702,0.8399999737739563,-1.9600000381469727,-0.8399999737739563
1743889000.26062,-0.4572559893131256,0.38844799995422363,0.8515599966049194,1.190000057220459,-2.0999999046325684,-0.9800000190734863
1743889000.28062,-0.4572559893131256,0.3899120092391968,0.8500959873199463,0.6299999952316284,-2.0999999046325684,-0.9800000190734863
1743889000.30062,-0.45920801162719727,0.3903999924659729,0.8510720133781433,0.7699999809265137,-2.240000009536743,-0.9100000262260437
1743889000.290397,-0.4572559893131256,0.39235201478004456,0.849120020866394,1.190000057220459,-2.940000057220459,-0.3499999940395355
1743889000.310397,-0.45579200983047485,0.3928399980068207,0.8476560115814209,0.9800000190734863,-2.6600000858306885,-0.5600000023841858
1743889000.330397,-0.45530399680137634,0.39186400175094604,0.8461920022964478,0.8399999737739563,-2.5199999809265137,-0.7699999809265137
1743889000.3503969,-0.4548160135746002,0.3908880054950714,0.8461920022964478,1.0499999523162842,-2.450000047683716,-0.8399999737739563
1743889000.3703969,-0.45286399126052856,0.3943040072917938,0.8476560115814209,0.699999988079071,-2.309999942779541,-0.9100000262260437
1743889000.3903968,-0.4538399875164032,0.3938159942626953,0.8486319780349731,1.1200000047683716,-2.0299999713897705,-0.9100000262260437
1743889000.380036,-0.46116000413894653,0.3928399980068207,0.8515599966049194,1.190000057220459,-2.6600000858306885,-0.49000000953674316
1743889000.400036,-0.45920801162719727,0.39235201478004456,0.8505839705467224,1.0499999523162842,-2.869999885559082,-0.49000000953674316
1743889000.420036,-0.46164798736572266,0.39186400175094604,0.8505839705467224,1.190000057220459,-3.0799999237060547,-0.5600000023841858
1743889000.440036,-0.4596959948539734,0.39137598872184753,0.848143994808197,0.9800000190734863,-3.0799999237060547,-0.5600000023841858
1743889000.460036,-0.45823198556900024,0.39235201478004456,0.8496080040931702,1.0499999523162842,-2.940000057220459,-0.6299999952316284
1743889000.480036,-0.4567680060863495,0.3943040072917938,0.8457040190696716,0.9800000190734863,-2.940000057220459,-0.5600000023841858
1743889000.472206,-0.45871999859809875,0.3943040072917938,0.8496080040931702,0.9100000262260437,-2.1700000762939453,-0.7699999809265137
1743889000.492206,-0.45920801162719727,0.39528000354766846,0.8510720133781433,1.0499999523162842,-2.450000047683716,-0.699999988079071
1743889000.512206,-0.45823198556900024,0.3928399980068207,0.8496080040931702,1.0499999523162842,-2.6600000858306885,-0.699999988079071
1743889000.532206,-0.45920801162719727,0.3933280110359192,0.8515599966049194,1.0499999523162842,-2.6600000858306885,-0.6299999952316284
1743889000.552206,-0.45823198556900024,0.3903999924659729,0.8496080040931702,0.9800000190734863,-2.869999885559082,-0.6299999952316284
1743889000.572206,-0.4548160135746002,0.3928399980068207,0.8486319780349731,1.0499999523162842,-2.799999952316284,-0.5600000023841858
1743889000.5611742,-0.4577440023422241,0.3928399980068207,0.849120020866394,0.9100000262260437,-2.5199999809265137,-0.699999988079071
1743889000.5811741,-0.45823198556900024,0.3967440128326416,0.848143994808197,1.0499999523162842,-2.5199999809265137,-0.6299999952316284
1743889000.601174,-0.4577440023422241,0.3962559998035431,0.8476560115814209,0.9800000190734863,-2.6600000858306885,-0.6299999952316284
1743889000.621174,-0.4567680060863495,0.3933280110359192,0.849120020866394,1.190000057220459,-2.6600000858306885,-0.6299999952316284
1743889000.641174,-0.45823198556900024,0.3933280110359192,0.8500959873199463,1.0499999523162842,-2.5899999141693115,-0.6299999952316284
1743889000.661174,-0.45579200983047485,0.3943040072917938,0.8500959873199463,1.0499999523162842,-2.5199999809265137,-0.7699999809265137
1743889000.6666431,-0.4577440023422241,0.3928399980068207,0.8500959873199463,0.9800000190734863,-2.309999942779541,-0.9100000262260437
1743889000.6866431,-0.4548160135746002,0.3943040072917938,0.8510720133781433,0.9800000190734863,-2.450000047683716,-0.8399999737739563
1743889000.706643,-0.45823198556900024,0.39235201478004456,0.8510720133781433,0.9100000262260437,-2.5199999809265137,-0.8399999737739563
1743889000.726643,-0.45920801162719727,0.3928399980068207,0.848143994808197,0.9100000262260437,-2.5899999141693115,-0.699999988079071
1743889000.746643,-0.4567680060863495,0.39479199051856995,0.8510720133781433,0.9100000262260437,-2.7300000190734863,-0.7699999809265137
1743889000.766643,-0.45871999859809875,0.39479199051856995,0.849120020866394,1.0499999523162842,-2.7300000190734863,-0.6299999952316284
1743889000.772223,-0.45871999859809875,0.3933280110359192,0.8471680283546448,0.9100000262260437,-2.309999942779541,-0.8399999737739563
1743889000.792223,-0.4577440023422241,0.39479199051856995,0.8505839705467224,0.8399999737739563,-2.309999942779541,-0.7699999809265137
1743889000.812223,-0.4572559893131256,0.3933280110359192,0.8505839705467224,0.9800000190734863,-2.450000047683716,-0.7699999809265137
1743889000.832223,-0.4567680060863495,0.39186400175094604,0.8505839705467224,0.9100000262260437,-2.5899999141693115,-0.699999988079071
1743889000.852223,-0.45530399680137634,0.39479199051856995,0.8486319780349731,0.7699999809265137,-2.5199999809265137,-0.699999988079071
1743889000.872223,-0.4548160135746002,0.3933280110359192,0.8496080040931702,1.0499999523162842,-2.5899999141693115,-0.699999988079071
1743889000.887965,-0.45920801162719727,0.39137598872184753,0.8476560115814209,1.190000057220459,-2.380000114440918,-0.8399999737739563
1743889000.907965,-0.45920801162719727,0.3943040072917938,0.8500959873199463,0.9800000190734863,-2.380000114440918,-0.699999988079071
1743889000.927965,-0.4596959948539734,0.39186400175094604,0.849120020866394,0.9100000262260437,-2.380000114440918,-0.7699999809265137
1743889000.947965,-0.45920801162719727,0.3903999924659729,0.849120020866394,0.9800000190734863,-2.5199999809265137,-0.7699999809265137
1743889000.967965,-0.45871999859809875,0.3943040072917938,0.8500959873199463,0.9800000190734863,-2.5899999141693115,-0.6299999952316284
1743889000.9879649,-0.45823198556900024,0.3938159942626953,0.848143994808197,0.9100000262260437,-2.5899999141693115,-0.699999988079071
1743889000.994333,-0.45871999859809875,0.39479199051856995,0.848143994808197,1.0499999523162842,-2.450000047683716,-0.6299999952316284
1743889001.014333,-0.4577440023422241,0.3928399980068207,0.8486319780349731,0.8399999737739563,-2.380000114440918,-0.8399999737739563
1743889001.034333,-0.456279993057251,0.3943040072917938,0.8476560115814209,0.9100000262260437,-2.5199999809265137,-0.7699999809265137
1743889001.054333,-0.45823198556900024,0.3933280110359192,0.8500959873199463,1.1200000047683716,-2.6600000858306885,-0.699999988079071
1743889001.074333,-0.45871999859809875,0.3933280110359192,0.8466799855232239,1.0499999523162842,-2.6600000858306885,-0.699999988079071
1743889001.094333,-0.4567680060863495,0.3928399980068207,0.8476560115814209,0.9800000190734863,-2.5899999141693115,-0.6299999952316284
1743889001.0982552,-0.4538399875164032,0.39186400175094604,0.8466799855232239,0.9100000262260437,-2.309999942779541,-0.699999988079071
1743889001.1182551,-0.456279993057251,0.39235201478004456,0.8471680283546448,1.0499999523162842,-2.450000047683716,-0.699999988079071
1743889001.1382551,-0.45920801162719727,0.3933280110359192,0.8486319780349731,0.9800000190734863,-2.380000114440918,-0.6299999952316284
1743889001.158255,-0.4567680060863495,0.39479199051856995,0.8510720133781433,1.0499999523162842,-2.450000047683716,-0.5600000023841858
1743889001.178255,-0.4567680060863495,0.3928399980068207,0.8486319780349731,1.0499999523162842,-2.450000047683716,-0.7699999809265137
1743889001.198255,-0.4577440023422241,0.39235201478004456,0.8476560115814209,0.9800000190734863,-2.5199999809265137,-0.699999988079071
1743889001.1905491,-0.45823198556900024,0.3943040072917938,0.8505839705467224,0.9100000262260437,-2.309999942779541,-0.7699999809265137
1743889001.210549,-0.456279993057251,0.39186400175094604,0.848143994808197,0.9800000190734863,-2.309999942779541,-0.9100000262260437
1743889001.230549,-0.4567680060863495,0.3928399980068207,0.8500959873199463,0.7699999809265137,-2.240000009536743,-0.8399999737739563
1743889001.250549,-0.45871999859809875,0.39528000354766846,0.8496080040931702,0.9100000262260437,-2.5199999809265137,-0.8399999737739563
1743889001.270549,-0.45530399680137634,0.3933280110359192,0.849120020866394,1.0499999523162842,-2.5899999141693115,-0.8399999737739563
1743889001.290549,-0.45823198556900024,0.39528000354766846,0.849120020866394,0.9800000190734863,-2.450000047683716,-0.6299999952316284
1743889001.355626,-0.45579200983047485,0.39137598872184753,0.8500959873199463,0.9100000262260437,-2.309999942779541,-0.8399999737739563
1743889001.375626,-0.4548160135746002,0.3943040072917938,0.849120020866394,0.9800000190734863,-2.309999942779541,-0.7699999809265137
1743889001.395626,-0.45530399680137634,0.39479199051856995,0.8471680283546448,0.8399999737739563,-2.309999942779541,-0.7699999809265137
1743889001.415626,-0.4572559893131256,0.3933280110359192,0.8486319780349731,0.9800000190734863,-2.309999942779541,-0.7699999809265137
1743889001.435626,-0.4548160135746002,0.3943040072917938,0.8496080040931702,0.9100000262260437,-2.380000114440918,-0.7699999809265137
1743889001.455626,-0.4577440023422241,0.3938159942626953,0.8505839705467224,0.9800000190734863,-2.5199999809265137,-0.699999988079071
1743889001.417201,-0.45823198556900024,0.39186400175094604,0.8486319780349731,0.9100000262260437,-2.309999942779541,-0.8399999737739563
1743889001.437201,-0.4577440023422241,0.39235201478004456,0.8515599966049194,0.9100000262260437,-2.309999942779541,-0.699999988079071
1743889001.457201,-0.45823198556900024,0.3943040072917938,0.8476560115814209,0.8399999737739563,-2.5199999809265137,-0.8399999737739563
1743889001.477201,-0.45871999859809875,0.3943040072917938,0.8476560115814209,1.0499999523162842,-2.5899999141693115,-0.699999988079071
1743889001.497201,-0.45920801162719727,0.3943040072917938,0.8486319780349731,0.9800000190734863,-2.5899999141693115,-0.6299999952316284
1743889001.517201,-0.4567680060863495,0.3933280110359192,0.8496080040931702,0.9800000190734863,-2.5199999809265137,-0.6299999952316284
1743889001.551569,-0.45920801162719727,0.3928399980068207,0.8471680283546448,0.9100000262260437,-2.450000047683716,-0.8399999737739563
1743889001.571569,-0.4596959948539734,0.3928399980068207,0.8486319780349731,1.0499999523162842,-2.5199999809265137,-0.6299999952316284
1743889001.591569,-0.4572559893131256,0.38942399621009827,0.849120020866394,0.9100000262260437,-2.5899999141693115,-0.6299999952316284
1743889001.611569,-0.4567680060863495,0.39235201478004456,0.848143994808197,0.9100000262260437,-2.5899999141693115,-0.6299999952316284
1743889001.631569,-0.4567680060863495,0.39186400175094604,0.8461920022964478,1.1200000047683716,-2.6600000858306885,-0.699999988079071
1743889001.651569,-0.4601840078830719,0.3928399980068207,0.8476560115814209,0.9800000190734863,-2.5199999809265137,-0.699999988079071
1743889001.628034,-0.456279993057251,0.39235201478004456,0.8500959873199463,0.9100000262260437,-2.240000009536743,-0.8399999737739563
1743889001.648034,-0.45823198556900024,0.3957679867744446,0.849120020866394,0.7699999809265137,-2.240000009536743,-0.8399999737739563
1743889001.668034,-0.4567680060863495,0.39235201478004456,0.8496080040931702,0.9800000190734863,-2.380000114440918,-0.7699999809265137
1743889001.688034,-0.45823198556900024,0.39137598872184753,0.849120020866394,0.9100000262260437,-2.380000114440918,-0.699999988079071
1743889001.708034,-0.45823198556900024,0.39235201478004456,0.8510720133781433,0.9100000262260437,-2.380000114440918,-0.6299999952316284
1743889001.728034,-0.45871999859809875,0.3938159942626953,0.8510720133781433,1.0499999523162842,-2.5899999141693115,-0.7699999809265137
1743889001.7162,-0.4577440023422241,0.3938159942626953,0.8486319780349731,0.8399999737739563,-2.380000114440918,-0.5600000023841858
1743889001.7362,-0.456279993057251,0.3967440128326416,0.8471680283546448,1.0499999523162842,-2.450000047683716,-0.7699999809265137
1743889001.7562,-0.45579200983047485,0.39479199051856995,0.8496080040931702,0.9100000262260437,-2.450000047683716,-0.699999988079071
1743889001.7762,-0.4572559893131256,0.3928399980068207,0.849120020866394,0.9800000190734863,-2.450000047683716,-0.8399999737739563
1743889001.7962,-0.45579200983047485,0.39479199051856995,0.8496080040931702,0.9100000262260437,-2.5199999809265137,-0.7699999809265137
1743889001.8162,-0.45823198556900024,0.3933280110359192,0.8471680283546448,0.8399999737739563,-2.309999942779541,-0.6299999952316284
1743889001.8074672,-0.4543280005455017,0.3933280110359192,0.8496080040931702,1.0499999523162842,-2.380000114440918,-0.8399999737739563
1743889001.8274672,-0.45579200983047485,0.39528000354766846,0.8486319780349731,0.8399999737739563,-2.240000009536743,-0.699999988079071
1743889001.8474672,-0.4548160135746002,0.3943040072917938,0.8486319780349731,0.9800000190734863,-2.450000047683716,-0.9100000262260437
1743889001.8674672,-0.45530399680137634,0.39137598872184753,0.8515599966049194,0.9100000262260437,-2.5199999809265137,-0.699999988079071
1743889001.8874671,-0.4567680060863495,0.3928399980068207,0.8505839705467224,0.7699999809265137,-2.5199999809265137,-0.7699999809265137
1743889001.9074671,-0.45579200983047485,0.3933280110359192,0.8486319780349731,0.8399999737739563,-2.380000114440918,-0.7699999809265137
1743889001.9268372,-0.4572559893131256,0.3928399980068207,0.8476560115814209,0.9100000262260437,-2.5199999809265137,-0.699999988079071
1743889001.9468372,-0.45579200983047485,0.3908880054950714,0.848143994808197,0.9800000190734863,-2.450000047683716,-0.7699999809265137
1743889001.9668372,-0.4572559893131256,0.39235201478004456,0.849120020866394,0.9100000262260437,-2.309999942779541,-0.8399999737739563
1743889001.9868371,-0.4567680060863495,0.39235201478004456,0.8471680283546448,0.9100000262260437,-2.380000114440918,-0.8399999737739563
1743889002.0068371,-0.4572559893131256,0.39479199051856995,0.8486319780349731,0.8399999737739563,-2.309999942779541,-0.7699999809265137
1743889002.026837,-0.456279993057251,0.3943040072917938,0.8476560115814209,0.9100000262260437,-2.380000114440918,-0.8399999737739563
1743889002.0028892,-0.4538399875164032,0.3933280110359192,0.8471680283546448,0.9100000262260437,-2.5199999809265137,-0.8399999737739563
1743889002.0228891,-0.456279993057251,0.3933280110359192,0.848143994808197,1.0499999523162842,-2.450000047683716,-0.699999988079071
1743889002.042889,-0.45579200983047485,0.3928399980068207,0.8496080040931702,0.9100000262260437,-2.5199999809265137,-0.6299999952316284
1743889002.062889,-0.456279993057251,0.3933280110359192,0.8486319780349731,1.0499999523162842,-2.450000047683716,-0.699999988079071
1743889002.082889,-0.456279993057251,0.39528000354766846,0.8515599966049194,1.0499999523162842,-2.5199999809265137,-0.8399999737739563
1743889002.102889,-0.4548160135746002,0.39235201478004456,0.848143994808197,0.9100000262260437,-2.380000114440918,-0.699999988079071
1743889002.119936,-0.45530399680137634,0.3943040072917938,0.849120020866394,0.7699999809265137,-2.450000047683716,-0.8399999737739563
1743889002.139936,-0.4577440023422241,0.39479199051856995,0.8457040190696716,0.8399999737739563,-2.309999942779541,-0.8399999737739563
1743889002.159936,-0.4572559893131256,0.3938159942626953,0.8486319780349731,0.9800000190734863,-2.240000009536743,-0.9100000262260437
1743889002.179936,-0.4543280005455017,0.3933280110359192,0.8500959873199463,0.9800000190734863,-2.1700000762939453,-0.699999988079071
1743889002.199936,-0.4548160135746002,0.3938159942626953,0.8466799855232239,0.9100000262260437,-2.0999999046325684,-0.8399999737739563
1743889002.219936,-0.4572559893131256,0.3928399980068207,0.849120020866394,0.8399999737739563,-2.1700000762939453,-0.9800000190734863
1743889002.241831,-0.45530399680137634,0.39235201478004456,0.8476560115814209,0.9800000190734863,-2.7300000190734863,-0.5600000023841858
1743889002.261831,-0.456279993057251,0.3957679867744446,0.8471680283546448,1.1200000047683716,-2.7300000190734863,-0.5600000023841858
1743889002.281831,-0.4601840078830719,0.39479199051856995,0.8476560115814209,0.9800000190734863,-2.6600000858306885,-0.6299999952316284
1743889002.301831,-0.4572559893131256,0.39186400175094604,0.8500959873199463,1.1200000047683716,-2.5899999141693115,-0.7699999809265137
1743889002.321831,-0.4577440023422241,0.39235201478004456,0.8471680283546448,0.9100000262260437,-2.450000047683716,-0.8399999737739563
1743889002.341831,-0.45823198556900024,0.3938159942626953,0.8496080040931702,0.8399999737739563,-2.380000114440918,-0.8399999737739563
1743889002.303436,-0.4596959948539734,0.39137598872184753,0.8510720133781433,0.9800000190734863,-2.309999942779541,-0.699999988079071
1743889002.323436,-0.4572559893131256,0.3899120092391968,0.8510720133781433,0.9100000262260437,-2.5199999809265137,-0.7699999809265137
1743889002.343436,-0.4572559893131256,0.3899120092391968,0.8515599966049194,0.9100000262260437,-2.5199999809265137,-0.7699999809265137
1743889002.363436,-0.45579200983047485,0.3903999924659729,0.8500959873199463,0.9800000190734863,-2.5899999141693115,-0.699999988079071
1743889002.383436,-0.456279993057251,0.39137598872184753,0.8486319780349731,0.9800000190734863,-2.6600000858306885,-0.699999988079071
1743889002.403436,-0.456279993057251,0.3933280110359192,0.8500959873199463,0.9800000190734863,-2.450000047683716,-0.6299999952316284
1743889002.3926182,-0.4567680060863495,0.3938159942626953,0.8452159762382507,1.1200000047683716,-2.6600000858306885,-0.699999988079071
1743889002.4126182,-0.45823198556900024,0.3938159942626953,0.8496080040931702,0.8399999737739563,-2.5899999141693115,-0.699999988079071
1743889002.4326181,-0.456279993057251,0.39235201478004456,0.848143994808197,1.1200000047683716,-2.5199999809265137,-0.7699999809265137
1743889002.4526181,-0.45579200983047485,0.39186400175094604,0.849120020866394,0.8399999737739563,-2.5199999809265137,-0.8399999737739563
1743889002.472618,-0.45823198556900024,0.3938159942626953,0.8486319780349731,0.8399999737739563,-2.380000114440918,-0.7699999809265137
1743889002.492618,-0.45579200983047485,0.3928399980068207,0.8476560115814209,0.9100000262260437,-2.450000047683716,-0.8399999737739563
1743889002.527293,-0.45579200983047485,0.3957679867744446,0.8471680283546448,1.0499999523162842,-2.5899999141693115,-0.699999988079071
1743889002.547293,-0.45579200983047485,0.39186400175094604,0.8505839705467224,1.0499999523162842,-2.6600000858306885,-0.5600000023841858
1743889002.567293,-0.4567680060863495,0.3933280110359192,0.8461920022964478,1.0499999523162842,-2.5199999809265137,-0.6299999952316284
1743889002.587293,-0.4548160135746002,0.39186400175094604,0.849120020866394,0.9800000190734863,-2.6600000858306885,-0.5600000023841858
1743889002.607293,-0.456279993057251,0.3938159942626953,0.8486319780349731,1.0499999523162842,-2.5899999141693115,-0.7699999809265137
1743889002.6272929,-0.45579200983047485,0.3938159942626953,0.8471680283546448,0.9800000190734863,-2.5899999141693115,-0.6299999952316284
1743889002.5874882,-0.4572559893131256,0.39528000354766846,0.849120020866394,0.9800000190734863,-2.5199999809265137,-0.8399999737739563
1743889002.6074882,-0.45823198556900024,0.3938159942626953,0.8466799855232239,0.9100000262260437,-2.450000047683716,-0.7699999809265137
1743889002.6274881,-0.45823198556900024,0.3933280110359192,0.849120020866394,1.0499999523162842,-2.5199999809265137,-0.699999988079071
1743889002.647488,-0.456279993057251,0.3943040072917938,0.8476560115814209,1.0499999523162842,-2.5899999141693115,-0.8399999737739563
1743889002.667488,-0.4577440023422241,0.3928399980068207,0.8476560115814209,0.9100000262260437,-2.5199999809265137,-0.7699999809265137
1743889002.687488,-0.4567680060863495,0.39479199051856995,0.8486319780349731,0.9100000262260437,-2.5199999809265137,-0.699999988079071
1743889002.6909492,-0.45579200983047485,0.3943040072917938,0.8515599966049194,0.8399999737739563,-2.450000047683716,-0.9100000262260437
1743889002.7109492,-0.4543280005455017,0.3933280110359192,0.8496080040931702,0.9800000190734863,-2.380000114440918,-0.699999988079071
1743889002.7309492,-0.456279993057251,0.39186400175094604,0.8500959873199463,0.9800000190734863,-2.450000047683716,-0.699999988079071
1743889002.7509491,-0.45871999859809875,0.3938159942626953,0.8500959873199463,0.8399999737739563,-2.450000047683716,-0.699999988079071
1743889002.7709491,-0.45823198556900024,0.3933280110359192,0.8486319780349731,1.1200000047683716,-2.5199999809265137,-0.699999988079071
1743889002.790949,-0.4567680060863495,0.3933280110359192,0.8476560115814209,0.9100000262260437,-2.450000047683716,-0.699999988079071
1743889002.781168,-0.4567680060863495,0.3938159942626953,0.8486319780349731,1.0499999523162842,-2.5899999141693115,-0.699999988079071
1743889002.801168,-0.4572559893131256,0.3938159942626953,0.8461920022964478,0.8399999737739563,-2.5199999809265137,-0.699999988079071
1743889002.821168,-0.4572559893131256,0.3933280110359192,0.8520479798316956,0.8399999737739563,-2.5199999809265137,-0.7699999809265137
1743889002.841168,-0.4567680060863495,0.3933280110359192,0.849120020866394,0.9800000190734863,-2.450000047683716,-0.7699999809265137
1743889002.861168,-0.45530399680137634,0.39186400175094604,0.8496080040931702,1.0499999523162842,-2.309999942779541,-0.7699999809265137
1743889002.881168,-0.4572559893131256,0.39479199051856995,0.8476560115814209,0.9800000190734863,-2.450000047683716,-0.6299999952316284
1743889002.859101,-0.456279993057251,0.3928399980068207,0.8496080040931702,1.0499999523162842,-2.5899999141693115,-0.699999988079071
1743889002.879101,-0.45530399680137634,0.39235201478004456,0.8496080040931702,0.9100000262260437,-2.5199999809265137,-0.699999988079071
1743889002.899101,-0.45530399680137634,0.3928399980068207,0.848143994808197,1.0499999523162842,-2.5199999809265137,-0.699999988079071
1743889002.919101,-0.4567680060863495,0.3938159942626953,0.848143994808197,1.0499999523162842,-2.5199999809265137,-0.7699999809265137
1743889002.939101,-0.4548160135746002,0.39479199051856995,0.8496080040931702,0.8399999737739563,-2.450000047683716,-0.699999988079071
1743889002.959101,-0.4567680060863495,0.39186400175094604,0.8496080040931702,0.9800000190734863,-2.380000114440918,-0.8399999737739563
1743889002.973746,-0.45823198556900024,0.39235201478004456,0.849120020866394,0.9100000262260437,-2.6600000858306885,-0.6299999952316284
1743889002.993746,-0.4572559893131256,0.39186400175094604,0.848143994808197,0.8399999737739563,-2.5899999141693115,-0.699999988079071
1743889003.013746,-0.45530399680137634,0.3928399980068207,0.849120020866394,0.9100000262260437,-2.6600000858306885,-0.6299999952316284
1743889003.033746,-0.4567680060863495,0.3933280110359192,0.848143994808197,0.9100000262260437,-2.5199999809265137,-0.7699999809265137
1743889003.053746,-0.456279993057251,0.3928399980068207,0.848143994808197,0.9800000190734863,-2.5199999809265137,-0.8399999737739563
1743889003.073746,-0.4567680060863495,0.39235201478004456,0.849120020866394,0.9100000262260437,-2.450000047683716,-0.7699999809265137
1743889003.053129,-0.4567680060863495,0.3908880054950714,0.848143994808197,1.0499999523162842,-2.5199999809265137,-0.7699999809265137
1743889003.073129,-0.4567680060863495,0.3938159942626953,0.8500959873199463,0.9800000190734863,-2.5199999809265137,-0.699999988079071
1743889003.093129,-0.4572559893131256,0.39186400175094604,0.8500959873199463,0.9800000190734863,-2.6600000858306885,-0.699999988079071
1743889003.113129,-0.45579200983047485,0.39186400175094604,0.8496080040931702,1.0499999523162842,-2.6600000858306885,-0.7699999809265137
1743889003.133129,-0.456279993057251,0.3928399980068207,0.8496080040931702,0.8399999737739563,-2.5199999809265137,-0.699999988079071
1743889003.1531289,-0.456279993057251,0.3933280110359192,0.8496080040931702,0.9100000262260437,-2.5899999141693115,-0.699999988079071
1743889003.169042,-0.4567680060863495,0.39479199051856995,0.8486319780349731,1.0499999523162842,-2.5199999809265137,-0.7699999809265137
1743889003.189042,-0.4572559893131256,0.39235201478004456,0.849120020866394,0.9800000190734863,-2.450000047683716,-0.699999988079071
1743889003.209042,-0.45823198556900024,0.3928399980068207,0.8496080040931702,0.9800000190734863,-2.450000047683716,-0.8399999737739563
1743889003.229042,-0.4567680060863495,0.39235201478004456,0.849120020866394,1.0499999523162842,-2.380000114440918,-0.7699999809265137
1743889003.249042,-0.4567680060863495,0.3899120092391968,0.8476560115814209,0.9100000262260437,-2.450000047683716,-0.7699999809265137
1743889003.269042,-0.4567680060863495,0.3933280110359192,0.8496080040931702,0.9100000262260437,-2.309999942779541,-0.7699999809265137
1743889003.2479,-0.4548160135746002,0.39479199051856995,0.8476560115814209,1.0499999523162842,-2.5199999809265137,-0.699999988079071
1743889003.2679,-0.4567680060863495,0.39137598872184753,0.8471680283546448,0.8399999737739563,-2.5199999809265137,-0.699999988079071
1743889003.2879,-0.45871999859809875,0.39528000354766846,0.8505839705467224,1.0499999523162842,-2.5899999141693115,-0.7699999809265137
1743889003.3079,-0.4567680060863495,0.3943040072917938,0.849120020866394,1.1200000047683716,-2.7300000190734863,-0.699999988079071
1743889003.3279,-0.4577440023422241,0.3933280110359192,0.8486319780349731,0.9800000190734863,-2.6600000858306885,-0.7699999809265137
1743889003.3479,-0.4577440023422241,0.3938159942626953,0.848143994808197,0.9800000190734863,-2.450000047683716,-0.699999988079071
1743889003.336114,-0.45579200983047485,0.39479199051856995,0.8476560115814209,0.9100000262260437,-2.450000047683716,-0.7699999809265137
1743889003.356114,-0.4567680060863495,0.39528000354766846,0.8496080040931702,0.8399999737739563,-2.240000009536743,-0.7699999809265137
1743889003.376114,-0.4567680060863495,0.3972319960594177,0.849120020866394,0.9100000262260437,-2.380000114440918,-0.8399999737739563
1743889003.3961139,-0.4567680060863495,0.39235201478004456,0.849120020866394,0.8399999737739563,-2.240000009536743,-0.7699999809265137
1743889003.4161139,-0.45920801162719727,0.3938159942626953,0.848143994808197,0.8399999737739563,-2.5199999809265137,-0.7699999809265137
1743889003.4361138,-0.45823198556900024,0.3933280110359192,0.848143994808197,0.9100000262260437,-2.380000114440918,-0.699999988079071
1743889003.428718,-0.45579200983047485,0.3933280110359192,0.8486319780349731,0.9800000190734863,-2.5199999809265137,-0.6299999952316284
1743889003.448718,-0.4572559893131256,0.39137598872184753,0.8461920022964478,0.9800000190734863,-2.5199999809265137,-0.7699999809265137
1743889003.468718,-0.4577440023422241,0.39186400175094604,0.8496080040931702,0.9100000262260437,-2.309999942779541,-0.699999988079071
1743889003.488718,-0.4572559893131256,0.3938159942626953,0.8471680283546448,1.0499999523162842,-2.380000114440918,-0.7699999809265137
1743889003.508718,-0.4572559893131256,0.3943040072917938,0.8505839705467224,0.9100000262260437,-2.450000047683716,-0.8399999737739563
1743889003.528718,-0.456279993057251,0.3928399980068207,0.849120020866394,0.9100000262260437,-2.380000114440918,-0.7699999809265137
1743889003.5471482,-0.4572559893131256,0.3928399980068207,0.8500959873199463,0.9100000262260437,-2.5899999141693115,-0.699999988079071
1743889003.5671482,-0.45530399680137634,0.3928399980068207,0.8500959873199463,0.9800000190734863,-2.5899999141693115,-0.7699999809265137
1743889003.5871482,-0.45920801162719727,0.3943040072917938,0.8476560115814209,0.8399999737739563,-2.5199999809265137,-0.7699999809265137
1743889003.6071482,-0.4577440023422241,0.3938159942626953,0.849120020866394,1.0499999523162842,-2.5199999809265137,-0.5600000023841858
1743889003.6271482,-0.45920801162719727,0.3957679867744446,0.8471680283546448,0.9800000190734863,-2.6600000858306885,-0.699999988079071
1743889003.6471481,-0.4577440023422241,0.3962559998035431,0.8461920022964478,1.1200000047683716,-2.6600000858306885,-0.699999988079071
1743889003.652276,-0.4572559893131256,0.3938159942626953,0.8496080040931702,0.9100000262260437,-2.450000047683716,-0.8399999737739563
1743889003.672276,-0.45823198556900024,0.3933280110359192,0.8515599966049194,0.9800000190734863,-2.309999942779541,-0.7699999809265137
1743889003.692276,-0.4567680060863495,0.3908880054950714,0.8496080040931702,1.0499999523162842,-2.450000047683716,-0.6299999952316284
1743889003.712276,-0.45530399680137634,0.39235201478004456,0.849120020866394,0.9100000262260437,-2.380000114440918,-0.7699999809265137
1743889003.732276,-0.45823198556900024,0.39479199051856995,0.8500959873199463,0.8399999737739563,-2.450000047683716,-0.7699999809265137
1743889003.752276,-0.4577440023422241,0.3938159942626953,0.8496080040931702,0.9800000190734863,-2.5899999141693115,-0.7699999809265137
1743889003.784744,-0.4567680060863495,0.3908880054950714,0.8496080040931702,1.0499999523162842,-2.450000047683716,-0.8399999737739563
1743889003.804744,-0.4567680060863495,0.3908880054950714,0.8500959873199463,0.8399999737739563,-2.380000114440918,-0.7699999809265137
1743889003.824744,-0.45579200983047485,0.39186400175094604,0.8461920022964478,0.9800000190734863,-2.450000047683716,-0.8399999737739563
1743889003.844744,-0.45823198556900024,0.39137598872184753,0.848143994808197,0.8399999737739563,-2.380000114440918,-0.7699999809265137
1743889003.864744,-0.4572559893131256,0.39528000354766846,0.848143994808197,0.8399999737739563,-2.380000114440918,-0.8399999737739563
1743889003.884744,-0.45530399680137634,0.3943040072917938,0.849120020866394,0.7699999809265137,-2.5199999809265137,-0.7699999809265137
1743889003.832823,-0.4538399875164032,0.3943040072917938,0.8510720133781433,1.0499999523162842,-2.5199999809265137,-0.7699999809265137
1743889003.852823,-0.4567680060863495,0.3943040072917938,0.849120020866394,1.190000057220459,-2.450000047683716,-0.7699999809265137
1743889003.872823,-0.45823198556900024,0.39235201478004456,0.8510720133781433,0.9800000190734863,-2.5899999141693115,-0.699999988079071
1743889003.892823,-0.45579200983047485,0.39186400175094604,0.8496080040931702,1.0499999523162842,-2.6600000858306885,-0.5600000023841858
1743889003.912823,-0.45823198556900024,0.39186400175094604,0.8471680283546448,0.9100000262260437,-2.5899999141693115,-0.7699999809265137
1743889003.932823,-0.4596959948539734,0.39235201478004456,0.8496080040931702,0.9800000190734863,-2.7300000190734863,-0.699999988079071
1743889003.9393942,-0.4567680060863495,0.3943040072917938,0.8496080040931702,0.9800000190734863,-2.380000114440918,-0.8399999737739563
1743889003.9593942,-0.45530399680137634,0.3928399980068207,0.848143994808197,0.8399999737739563,-2.240000009536743,-0.9100000262260437
1743889003.9793942,-0.45871999859809875,0.3938159942626953,0.848143994808197,0.8399999737739563,-2.450000047683716,-0.9100000262260437
1743889003.9993942,-0.45871999859809875,0.3938159942626953,0.8500959873199463,0.9100000262260437,-2.450000047683716,-0.8399999737739563
1743889004.0193942,-0.45530399680137634,0.3943040072917938,0.8510720133781433,0.9100000262260437,-2.450000047683716,-0.9100000262260437
1743889004.0393941,-0.4577440023422241,0.39479199051856995,0.848143994808197,0.8399999737739563,-2.309999942779541,-0.7699999809265137
1743889004.0416012,-0.4572559893131256,0.3943040072917938,0.849120020866394,0.9800000190734863,-2.7300000190734863,-0.7699999809265137
1743889004.0616012,-0.45823198556900024,0.39528000354766846,0.849120020866394,0.8399999737739563,-2.6600000858306885,-0.7699999809265137
1743889004.0816011,-0.4577440023422241,0.3908880054950714,0.8476560115814209,0.9100000262260437,-2.450000047683716,-0.699999988079071
1743889004.1016011,-0.4572559893131256,0.3928399980068207,0.8471680283546448,0.9100000262260437,-2.450000047683716,-0.7699999809265137
1743889004.121601,-0.456279993057251,0.3928399980068207,0.8471680283546448,0.7699999809265137,-2.380000114440918,-0.8399999737739563
1743889004.141601,-0.4577440023422241,0.3928399980068207,0.8471680283546448,0.9800000190734863,-2.380000114440918,-0.6299999952316284
1743889004.1489072,-0.4567680060863495,0.3943040072917938,0.8505839705467224,0.9100000262260437,-2.5199999809265137,-0.699999988079071
1743889004.1689072,-0.4567680060863495,0.3943040072917938,0.8515599966049194,0.9800000190734863,-2.6600000858306885,-0.5600000023841858
1743889004.1889071,-0.4567680060863495,0.3928399980068207,0.848143994808197,0.9800000190734863,-2.5899999141693115,-0.6299999952316284
1743889004.2089071,-0.45871999859809875,0.3933280110359192,0.8500959873199463,0.9100000262260437,-2.6600000858306885,-0.699999988079071
1743889004.228907,-0.45871999859809875,0.3938159942626953,0.8496080040931702,0.8399999737739563,-2.799999952316284,-0.5600000023841858
1743889004.248907,-0.45871999859809875,0.3957679867744446,0.849120020866394,0.9800000190734863,-2.6600000858306885,-0.6299999952316284
1743889004.25324,-0.45579200983047485,0.3903999924659729,0.8500959873199463,0.699999988079071,-2.380000114440918,-0.9100000262260437
1743889004.27324,-0.45530399680137634,0.3928399980068207,0.8466799855232239,0.7699999809265137,-2.240000009536743,-0.9800000190734863
1743889004.29324,-0.45530399680137634,0.3943040072917938,0.849120020866394,0.9100000262260437,-2.309999942779541,-0.9100000262260437
1743889004.31324,-0.45579200983047485,0.3957679867744446,0.8505839705467224,0.7699999809265137,-2.240000009536743,-0.9100000262260437
1743889004.33324,-0.4548160135746002,0.3938159942626953,0.8500959873199463,0.699999988079071,-2.0999999046325684,-0.9800000190734863
1743889004.35324,-0.4543280005455017,0.3938159942626953,0.848143994808197,0.9800000190734863,-2.0999999046325684,-0.9100000262260437
1743889004.340925,-0.45530399680137634,0.3943040072917938,0.8496080040931702,1.190000057220459,-3.0799999237060547,-0.6299999952316284
1743889004.360925,-0.4577440023422241,0.3962559998035431,0.8476560115814209,0.9100000262260437,-3.1500000953674316,-0.49000000953674316
1743889004.380925,-0.4577440023422241,0.3957679867744446,0.8461920022964478,1.0499999523162842,-2.869999885559082,-0.6299999952316284
1743889004.400925,-0.45530399680137634,0.3957679867744446,0.8457040190696716,0.9800000190734863,-2.6600000858306885,-0.6299999952316284
1743889004.420925,-0.4577440023422241,0.3938159942626953,0.8437520265579224,1.0499999523162842,-2.5899999141693115,-0.49000000953674316
1743889004.440925,-0.46213600039482117,0.3943040072917938,0.8476560115814209,1.190000057220459,-2.240000009536743,-0.41999998688697815
1743889004.460577,-0.4533520042896271,0.3967440128326416,0.8486319780349731,0.6299999952316284,-1.6100000143051147,-0.9800000190734863
1743889004.480577,-0.44993600249290466,0.39528000354766846,0.8515599966049194,0.6299999952316284,-1.6799999475479126,-0.9100000262260437
1743889004.500577,-0.4543280005455017,0.3928399980068207,0.8486319780349731,1.2599999904632568,-1.6799999475479126,-0.9100000262260437
1743889004.520577,-0.4533520042896271,0.3938159942626953,0.8505839705467224,0.49000000953674316,-2.0999999046325684,-0.8399999737739563
1743889004.540577,-0.45920801162719727,0.39235201478004456,0.8530240058898926,1.2599999904632568,-2.309999942779541,-0.7699999809265137
1743889004.560577,-0.456279993057251,0.39137598872184753,0.8559520244598389,0.6299999952316284,-2.799999952316284,-0.7699999809265137
1743889004.535664,-0.45530399680137634,0.3899120092391968,0.8476560115814209,1.1200000047683716,-3.2899999618530273,-0.5600000023841858
1743889004.555664,-0.4577440023422241,0.38600799441337585,0.8486319780349731,1.1200000047683716,-3.009999990463257,-0.8399999737739563
1743889004.575664,-0.4548160135746002,0.3903999924659729,0.8476560115814209,0.3499999940395355,-2.6600000858306885,-0.9100000262260437
1743889004.595664,-0.4548160135746002,0.3928399980068207,0.8452159762382507,1.1200000047683716,-2.7300000190734863,-0.9800000190734863
1743889004.615664,-0.45871999859809875,0.3938159942626953,0.8461920022964478,0.699999988079071,-2.1700000762939453,-1.0499999523162842
1743889004.635664,-0.4572559893131256,0.39528000354766846,0.8457040190696716,0.41999998688697815,-2.0299999713897705,-0.8399999737739563
1743889004.625627,-0.4572559893131256,0.3908880054950714,0.8530240058898926,1.190000057220459,-2.5899999141693115,-0.41999998688697815
1743889004.645627,-0.4533520042896271,0.3908880054950714,0.8505839705467224,1.0499999523162842,-2.5899999141693115,-0.6299999952316284
1743889004.665627,-0.4514000117778778,0.38942399621009827,0.8539999723434448,0.8399999737739563,-2.6600000858306885,-0.6299999952316284
1743889004.685627,-0.4567680060863495,0.39235201478004456,0.8496080040931702,1.0499999523162842,-2.5899999141693115,-0.6299999952316284
1743889004.705627,-0.45579200983047485,0.39479199051856995,0.8500959873199463,0.8399999737739563,-2.6600000858306885,-0.5600000023841858
1743889004.725627,-0.45530399680137634,0.3933280110359192,0.8500959873199463,0.9800000190734863,-2.6600000858306885,-0.5600000023841858
1743889004.7439733,-0.4567680060863495,0.3908880054950714,0.8452159762382507,0.9100000262260437,-2.5899999141693115,-0.8399999737739563
1743889004.7639732,-0.456279993057251,0.39137598872184753,0.8461920022964478,0.9100000262260437,-2.240000009536743,-0.9100000262260437
1743889004.7839732,-0.456279993057251,0.3933280110359192,0.8452159762382507,0.8399999737739563,-2.1700000762939453,-0.8399999737739563
1743889004.8039732,-0.4543280005455017,0.39137598872184753,0.8471680283546448,0.9800000190734863,-1.8899999856948853,-0.9100000262260437
1743889004.8239732,-0.4577440023422241,0.3933280110359192,0.8510720133781433,0.699999988079071,-1.6799999475479126,-1.0499999523162842
1743889004.8439732,-0.4533520042896271,0.39137598872184753,0.8476560115814209,0.9100000262260437,-1.6100000143051147,-1.0499999523162842
1743889004.82063,-0.4572559893131256,0.3933280110359192,0.8496080040931702,1.0499999523162842,-3.1500000953674316,-0.5600000023841858
1743889004.84063,-0.4533520042896271,0.39479199051856995,0.848143994808197,1.1200000047683716,-2.940000057220459,-0.41999998688697815
1743889004.86063,-0.4509119987487793,0.3943040072917938,0.848143994808197,1.1200000047683716,-3.0799999237060547,-0.3499999940395355
1743889004.88063,-0.456279993057251,0.3938159942626953,0.8466799855232239,1.190000057220459,-2.7300000190734863,-0.41999998688697815
1743889004.90063,-0.45823198556900024,0.3908880054950714,0.8486319780349731,0.8399999737739563,-2.6600000858306885,-0.49000000953674316
1743889004.92063,-0.4548160135746002,0.38942399621009827,0.8486319780349731,1.1200000047683716,-2.6600000858306885,-0.6299999952316284
1743889004.9398851,-0.4548160135746002,0.39479199051856995,0.8471680283546448,0.9800000190734863,-2.240000009536743,-0.7699999809265137
1743889004.9598851,-0.4572559893131256,0.39479199051856995,0.8466799855232239,0.9800000190734863,-2.240000009536743,-0.6299999952316284
1743889004.979885,-0.45530399680137634,0.3938159942626953,0.848143994808197,1.0499999523162842,-2.0299999713897705,-0.699999988079071
1743889004.999885,-0.4577440023422241,0.3933280110359192,0.8476560115814209,1.1200000047683716,-2.1700000762939453,-0.8399999737739563
1743889005.019885,-0.45579200983047485,0.3899120092391968,0.8530240058898926,0.9800000190734863,-2.1700000762939453,-0.8399999737739563
1743889005.039885,-0.45530399680137634,0.3908880054950714,0.8510720133781433,1.1200000047683716,-2.1700000762939453,-0.699999988079071
1743889005.0304441,-0.45871999859809875,0.3933280110359192,0.8452159762382507,1.1200000047683716,-2.940000057220459,-0.5600000023841858
1743889005.0504441,-0.45871999859809875,0.39235201478004456,0.8471680283546448,0.9800000190734863,-2.869999885559082,-0.41999998688697815
1743889005.070444,-0.4577440023422241,0.3938159942626953,0.8505839705467224,0.9800000190734863,-2.7300000190734863,-0.6299999952316284
1743889005.090444,-0.4596959948539734,0.3938159942626953,0.8466799855232239,1.0499999523162842,-2.869999885559082,-0.5600000023841858
1743889005.110444,-0.4543280005455017,0.3933280110359192,0.8486319780349731,0.5600000023841858,-2.6600000858306885,-0.699999988079071
1743889005.130444,-0.45579200983047485,0.3928399980068207,0.8457040190696716,1.399999976158142,-2.309999942779541,-0.8399999737739563
1743889005.1206412,-0.4626240134239197,0.3943040072917938,0.8525360226631165,0.7699999809265137,-2.5199999809265137,-0.699999988079071
1743889005.1406412,-0.4596959948539734,0.39235201478004456,0.8500959873199463,0.9800000190734863,-2.940000057220459,-0.6299999952316284
1743889005.1606412,-0.45871999859809875,0.3933280110359192,0.8510720133781433,1.1200000047683716,-2.799999952316284,-0.5600000023841858
1743889005.1806412,-0.460671991109848,0.39137598872184753,0.8496080040931702,0.8399999737739563,-3.009999990463257,-0.5600000023841858
1743889005.2006412,-0.4572559893131256,0.3933280110359192,0.8471680283546448,1.0499999523162842,-2.940000057220459,-0.6299999952316284
1743889005.2206411,-0.45579200983047485,0.3938159942626953,0.849120020866394,0.9100000262260437,-2.869999885559082,-0.699999988079071
1743889005.224978,-0.45920801162719727,0.3943040072917938,0.8476560115814209,0.9800000190734863,-2.309999942779541,-0.8399999737739563
1743889005.244978,-0.45823198556900024,0.3928399980068207,0.8486319780349731,0.9100000262260437,-2.380000114440918,-0.7699999809265137
1743889005.264978,-0.45920801162719727,0.3928399980068207,0.8510720133781433,1.1200000047683716,-2.450000047683716,-0.699999988079071
1743889005.284978,-0.4572559893131256,0.39235201478004456,0.8476560115814209,0.9800000190734863,-2.380000114440918,-0.699999988079071
1743889005.304978,-0.45579200983047485,0.3908880054950714,0.8500959873199463,0.9800000190734863,-2.380000114440918,-0.8399999737739563
1743889005.3249779,-0.4572559893131256,0.3928399980068207,0.8510720133781433,0.9100000262260437,-2.309999942779541,-0.9100000262260437
1743889005.315618,-0.45530399680137634,0.3938159942626953,0.8500959873199463,0.9100000262260437,-2.7300000190734863,-0.6299999952316284
1743889005.335618,-0.45823198556900024,0.39235201478004456,0.8486319780349731,0.9800000190734863,-2.799999952316284,-0.6299999952316284
1743889005.355618,-0.4577440023422241,0.39528000354766846,0.8471680283546448,1.0499999523162842,-2.7300000190734863,-0.699999988079071
1743889005.375618,-0.45823198556900024,0.39528000354766846,0.8486319780349731,1.1200000047683716,-2.7300000190734863,-0.6299999952316284
1743889005.395618,-0.45579200983047485,0.39186400175094604,0.8500959873199463,0.9800000190734863,-2.7300000190734863,-0.699999988079071
1743889005.415618,-0.4626240134239197,0.3903999924659729,0.8457040190696716,1.1200000047683716,-2.6600000858306885,-0.699999988079071
1743889005.420355,-0.456279993057251,0.3933280110359192,0.8471680283546448,0.9100000262260437,-2.0299999713897705,-0.9100000262260437
1743889005.440355,-0.4533520042896271,0.39479199051856995,0.849120020866394,0.7699999809265137,-2.0999999046325684,-0.9800000190734863
1743889005.460355,-0.456279993057251,0.3933280110359192,0.8500959873199463,1.0499999523162842,-2.1700000762939453,-0.8399999737739563
1743889005.480355,-0.45530399680137634,0.39235201478004456,0.8500959873199463,0.7699999809265137,-2.0999999046325684,-0.9800000190734863
1743889005.500355,-0.4572559893131256,0.3933280110359192,0.8500959873199463,0.9100000262260437,-2.309999942779541,-0.9100000262260437
1743889005.520355,-0.4567680060863495,0.3943040072917938,0.849120020866394,0.8399999737739563,-2.240000009536743,-0.9100000262260437
1743889005.525521,-0.4577440023422241,0.39186400175094604,0.8442400097846985,1.3300000429153442,-2.380000114440918,-0.8399999737739563
1743889005.545521,-0.4572559893131256,0.3938159942626953,0.8466799855232239,0.3499999940395355,-2.0999999046325684,-0.8399999737739563
1743889005.565521,-0.45579200983047485,0.39235201478004456,0.8466799855232239,1.190000057220459,-1.9600000381469727,-1.0499999523162842
1743889005.585521,-0.45579200983047485,0.3938159942626953,0.849120020866394,0.7699999809265137,-1.6100000143051147,-1.0499999523162842
1743889005.605521,-0.4548160135746002,0.3938159942626953,0.8496080040931702,0.699999988079071,-1.75,-1.190000057220459
1743889005.625521,-0.45530399680137634,0.3943040072917938,0.8496080040931702,1.1200000047683716,-1.6799999475479126,-0.9800000190734863
1743889005.6314242,-0.45530399680137634,0.39186400175094604,0.8476560115814209,1.6799999475479126,-3.0799999237060547,-0.3499999940395355
1743889005.6514242,-0.4567680060863495,0.39186400175094604,0.8500959873199463,1.1200000047683716,-2.940000057220459,-0.6299999952316284
1743889005.6714242,-0.4543280005455017,0.3928399980068207,0.8515599966049194,0.9100000262260437,-2.799999952316284,-0.5600000023841858
1743889005.6914241,-0.4548160135746002,0.39137598872184753,0.848143994808197,1.1200000047683716,-2.869999885559082,-0.8399999737739563
1743889005.711424,-0.4567680060863495,0.3903999924659729,0.8476560115814209,1.2599999904632568,-2.5899999141693115,-0.6299999952316284
1743889005.731424,-0.456279993057251,0.39186400175094604,0.8471680283546448,0.699999988079071,-2.5199999809265137,-0.7699999809265137
1743889005.743999,-0.45579200983047485,0.3928399980068207,0.849120020866394,0.699999988079071,-2.1700000762939453,-0.8399999737739563
1743889005.763999,-0.45530399680137634,0.3938159942626953,0.8520479798316956,1.1200000047683716,-2.240000009536743,-0.7699999809265137
1743889005.783999,-0.45530399680137634,0.39186400175094604,0.8505839705467224,0.8399999737739563,-2.0999999046325684,-0.7699999809265137
1743889005.803999,-0.4538399875164032,0.39235201478004456,0.8515599966049194,0.7699999809265137,-2.240000009536743,-0.7699999809265137
1743889005.823999,-0.4548160135746002,0.39137598872184753,0.8510720133781433,1.190000057220459,-2.0999999046325684,-0.9100000262260437
1743889005.843999,-0.45579200983047485,0.3899120092391968,0.8505839705467224,0.7699999809265137,-2.1700000762939453,-0.9100000262260437
1743889005.840321,-0.456279993057251,0.39137598872184753,0.848143994808197,1.0499999523162842,-2.940000057220459,-0.49000000953674316
1743889005.860321,-0.45579200983047485,0.39235201478004456,0.8471680283546448,1.0499999523162842,-2.940000057220459,-0.5600000023841858
1743889005.880321,-0.456279993057251,0.3903999924659729,0.8466799855232239,1.0499999523162842,-2.799999952316284,-0.6299999952316284
1743889005.900321,-0.456279993057251,0.39137598872184753,0.8476560115814209,0.9100000262260437,-2.5899999141693115,-0.6299999952316284
1743889005.920321,-0.4567680060863495,0.3933280110359192,0.8486319780349731,0.9100000262260437,-2.309999942779541,-0.8399999737739563
1743889005.940321,-0.45579200983047485,0.39235201478004456,0.848143994808197,0.7699999809265137,-2.0299999713897705,-0.8399999737739563
1743889005.930515,-0.4572559893131256,0.3938159942626953,0.849120020866394,0.9800000190734863,-2.5899999141693115,-0.49000000953674316
1743889005.950515,-0.4572559893131256,0.39528000354766846,0.8476560115814209,0.9800000190734863,-2.799999952316284,-0.6299999952316284
1743889005.970515,-0.45920801162719727,0.3928399980068207,0.8500959873199463,0.9800000190734863,-2.869999885559082,-0.6299999952316284
1743889005.990515,-0.4543280005455017,0.3908880054950714,0.8486319780349731,1.0499999523162842,-2.869999885559082,-0.5600000023841858
1743889006.010515,-0.45920801162719727,0.3933280110359192,0.8476560115814209,1.0499999523162842,-2.799999952316284,-0.6299999952316284
1743889006.030515,-0.45530399680137634,0.3928399980068207,0.848143994808197,0.9100000262260437,-2.799999952316284,-0.699999988079071
1743889006.0646102,-0.45823198556900024,0.3928399980068207,0.8496080040931702,1.190000057220459,-2.6600000858306885,-0.6299999952316284
1743889006.0846102,-0.4572559893131256,0.3957679867744446,0.849120020866394,0.9100000262260437,-2.5899999141693115,-0.8399999737739563
1743889006.1046102,-0.4572559893131256,0.3933280110359192,0.848143994808197,0.6299999952316284,-2.5199999809265137,-0.699999988079071
1743889006.1246102,-0.45579200983047485,0.3933280110359192,0.8461920022964478,0.9800000190734863,-2.7300000190734863,-0.6299999952316284
1743889006.1446102,-0.4596959948539734,0.3928399980068207,0.8486319780349731,0.9800000190734863,-2.5199999809265137,-0.699999988079071
1743889006.1646101,-0.4567680060863495,0.3928399980068207,0.848143994808197,0.9800000190734863,-2.6600000858306885,-0.6299999952316284
1743889006.141425,-0.45871999859809875,0.39186400175094604,0.8505839705467224,0.9100000262260437,-2.450000047683716,-0.699999988079071
1743889006.1614249,-0.45579200983047485,0.3928399980068207,0.8525360226631165,0.9100000262260437,-2.450000047683716,-0.7699999809265137
1743889006.1814249,-0.4567680060863495,0.39186400175094604,0.8486319780349731,0.9800000190734863,-2.380000114440918,-0.8399999737739563
1743889006.2014248,-0.4567680060863495,0.39479199051856995,0.8496080040931702,0.7699999809265137,-2.5199999809265137,-0.7699999809265137
1743889006.2214248,-0.45579200983047485,0.39528000354766846,0.8496080040931702,0.9800000190734863,-2.450000047683716,-0.8399999737739563
1743889006.2414248,-0.4577440023422241,0.3938159942626953,0.849120020866394,0.9100000262260437,-2.5199999809265137,-0.6299999952316284
1743889006.233864,-0.456279993057251,0.3928399980068207,0.849120020866394,0.9800000190734863,-2.5899999141693115,-0.699999988079071
1743889006.253864,-0.45871999859809875,0.39235201478004456,0.8476560115814209,0.9800000190734863,-2.5899999141693115,-0.7699999809265137
1743889006.273864,-0.4572559893131256,0.3943040072917938,0.8486319780349731,1.0499999523162842,-2.7300000190734863,-0.7699999809265137
1743889006.293864,-0.4567680060863495,0.3943040072917938,0.8500959873199463,0.9800000190734863,-2.5899999141693115,-0.699999988079071
1743889006.313864,-0.4601840078830719,0.3933280110359192,0.8471680283546448,0.9800000190734863,-2.5899999141693115,-0.6299999952316284
1743889006.333864,-0.4572559893131256,0.39235201478004456,0.8471680283546448,0.9800000190734863,-2.450000047683716,-0.5600000023841858
1743889006.338867,-0.456279993057251,0.3933280110359192,0.8500959873199463,0.9100000262260437,-2.380000114440918,-0.7699999809265137
1743889006.358867,-0.45579200983047485,0.3938159942626953,0.849120020866394,0.9100000262260437,-2.5899999141693115,-0.49000000953674316
1743889006.378867,-0.4567680060863495,0.39479199051856995,0.848143994808197,0.9800000190734863,-2.5899999141693115,-0.5600000023841858
1743889006.398867,-0.45823198556900024,0.3938159942626953,0.8520479798316956,0.9100000262260437,-2.5899999141693115,-0.699999988079071
1743889006.4188669,-0.4572559893131256,0.3943040072917938,0.8500959873199463,0.9800000190734863,-2.7300000190734863,-0.699999988079071
1743889006.4388669,-0.45823198556900024,0.3928399980068207,0.8510720133781433,1.1200000047683716,-2.799999952316284,-0.699999988079071
1743889006.45812,-0.45920801162719727,0.3928399980068207,0.8466799855232239,0.9100000262260437,-2.380000114440918,-0.7699999809265137
1743889006.47812,-0.4572559893131256,0.3933280110359192,0.8486319780349731,0.8399999737739563,-2.309999942779541,-0.7699999809265137
1743889006.49812,-0.4577440023422241,0.3943040072917938,0.8466799855232239,0.9100000262260437,-2.309999942779541,-0.699999988079071
1743889006.51812,-0.4596959948539734,0.39186400175094604,0.8505839705467224,0.9100000262260437,-2.309999942779541,-0.7699999809265137
1743889006.53812,-0.4572559893131256,0.39186400175094604,0.8486319780349731,0.8399999737739563,-2.1700000762939453,-0.7699999809265137
1743889006.55812,-0.45579200983047485,0.39186400175094604,0.8500959873199463,0.9100000262260437,-2.240000009536743,-0.7699999809265137
1743889006.5470662,-0.45871999859809875,0.39235201478004456,0.8515599966049194,1.1200000047683716,-3.0799999237060547,-0.41999998688697815
1743889006.5670662,-0.4601840078830719,0.3903999924659729,0.8476560115814209,1.399999976158142,-3.0799999237060547,-0.6299999952316284
1743889006.5870662,-0.46213600039482117,0.3943040072917938,0.8496080040931702,0.5600000023841858,-2.940000057220459,-0.7699999809265137
1743889006.6070662,-0.45286399126052856,0.39235201478004456,0.8457040190696716,1.1200000047683716,-2.6600000858306885,-0.7699999809265137
1743889006.6270661,-0.45920801162719727,0.3943040072917938,0.8466799855232239,1.0499999523162842,-2.450000047683716,-0.699999988079071
1743889006.647066,-0.4543280005455017,0.3938159942626953,0.8447279930114746,1.0499999523162842,-2.240000009536743,-0.9100000262260437
1743889006.637885,-0.4572559893131256,0.3938159942626953,0.8520479798316956,0.49000000953674316,-2.5199999809265137,-0.8399999737739563
1743889006.657885,-0.46116000413894653,0.3962559998035431,0.8500959873199463,0.7699999809265137,-2.7300000190734863,-0.6299999952316284
1743889006.677885,-0.45579200983047485,0.399183988571167,0.8510720133781433,0.7699999809265137,-3.2200000286102295,-0.41999998688697815
1743889006.697885,-0.4567680060863495,0.3967440128326416,0.8510720133781433,1.4700000286102295,-2.940000057220459,-0.41999998688697815
1743889006.717885,-0.45871999859809875,0.39479199051856995,0.8466799855232239,1.3300000429153442,-3.1500000953674316,-0.41999998688697815
1743889006.737885,-0.45286399126052856,0.39186400175094604,0.8486319780349731,1.190000057220459,-2.940000057220459,-0.49000000953674316
1743889006.7414973,-0.45823198556900024,0.3933280110359192,0.849120020866394,0.7699999809265137,-2.5199999809265137,-0.8399999737739563
1743889006.7614973,-0.45823198556900024,0.3938159942626953,0.8476560115814209,0.699999988079071,-2.5199999809265137,-0.8399999737739563
1743889006.7814972,-0.45920801162719727,0.3962559998035431,0.8457040190696716,1.0499999523162842,-2.5199999809265137,-0.699999988079071
1743889006.8014972,-0.45579200983047485,0.39528000354766846,0.8505839705467224,0.9100000262260437,-2.5899999141693115,-0.699999988079071
1743889006.8214972,-0.45579200983047485,0.39479199051856995,0.8466799855232239,1.190000057220459,-2.5899999141693115,-0.5600000023841858
1743889006.8414972,-0.456279993057251,0.39479199051856995,0.8476560115814209,1.0499999523162842,-2.380000114440918,-0.7699999809265137
1743889006.849108,-0.4596959948539734,0.39479199051856995,0.8471680283546448,0.9100000262260437,-2.6600000858306885,-0.699999988079071
1743889006.869108,-0.4596959948539734,0.3957679867744446,0.849120020866394,0.9800000190734863,-2.6600000858306885,-0.5600000023841858
1743889006.889108,-0.46116000413894653,0.3938159942626953,0.848143994808197,1.0499999523162842,-2.799999952316284,-0.5600000023841858
1743889006.909108,-0.4596959948539734,0.3933280110359192,0.8486319780349731,1.0499999523162842,-3.009999990463257,-0.41999998688697815
1743889006.929108,-0.46116000413894653,0.39235201478004456,0.8500959873199463,1.1200000047683716,-2.940000057220459,-0.41999998688697815
1743889006.949108,-0.4577440023422241,0.39235201478004456,0.849120020866394,0.9800000190734863,-2.869999885559082,-0.5600000023841858
1743889006.9503613,-0.4567680060863495,0.3928399980068207,0.8500959873199463,0.9100000262260437,-2.0299999713897705,-0.699999988079071
1743889006.9703612,-0.456279993057251,0.3957679867744446,0.8505839705467224,1.0499999523162842,-2.309999942779541,-0.6299999952316284
1743889006.9903612,-0.4596959948539734,0.39235201478004456,0.8520479798316956,0.8399999737739563,-2.5199999809265137,-0.6299999952316284
1743889007.0103612,-0.45871999859809875,0.39235201478004456,0.8486319780349731,1.190000057220459,-2.7300000190734863,-0.6299999952316284
1743889007.0303612,-0.45823198556900024,0.39235201478004456,0.8500959873199463,0.8399999737739563,-2.869999885559082,-0.49000000953674316
1743889007.0503612,-0.4596959948539734,0.3933280110359192,0.8466799855232239,1.1200000047683716,-3.009999990463257,-0.5600000023841858
1743889007.0405471,-0.4577440023422241,0.39137598872184753,0.849120020866394,0.9100000262260437,-2.309999942779541,-0.8399999737739563
1743889007.060547,-0.45823198556900024,0.3928399980068207,0.8486319780349731,0.9800000190734863,-2.309999942779541,-0.9100000262260437
1743889007.080547,-0.45823198556900024,0.3962559998035431,0.8500959873199463,0.8399999737739563,-2.380000114440918,-0.7699999809265137
1743889007.100547,-0.460671991109848,0.3933280110359192,0.8505839705467224,1.0499999523162842,-2.5199999809265137,-0.699999988079071
1743889007.120547,-0.4596959948539734,0.39479199051856995,0.848143994808197,0.9800000190734863,-2.5899999141693115,-0.7699999809265137
1743889007.140547,-0.4596959948539734,0.3928399980068207,0.8486319780349731,0.9100000262260437,-2.5899999141693115,-0.7699999809265137
1743889007.1455529,-0.456279993057251,0.3928399980068207,0.849120020866394,0.699999988079071,-2.240000009536743,-0.8399999737739563
1743889007.1655529,-0.4548160135746002,0.39235201478004456,0.8515599966049194,0.7699999809265137,-2.309999942779541,-0.9100000262260437
1743889007.1855528,-0.4577440023422241,0.3938159942626953,0.8525360226631165,0.8399999737739563,-2.450000047683716,-0.8399999737739563
1743889007.2055528,-0.45871999859809875,0.3957679867744446,0.8486319780349731,0.8399999737739563,-2.380000114440918,-0.699999988079071
1743889007.2255528,-0.4601840078830719,0.39528000354766846,0.8466799855232239,0.8399999737739563,-2.309999942779541,-0.7699999809265137
1743889007.2455528,-0.4577440023422241,0.39479199051856995,0.8496080040931702,1.0499999523162842,-2.5899999141693115,-0.5600000023841858
1743889007.223884,-0.45871999859809875,0.3899120092391968,0.8471680283546448,0.7699999809265137,-2.5199999809265137,-0.7699999809265137
1743889007.243884,-0.45920801162719727,0.3903999924659729,0.8486319780349731,0.9100000262260437,-2.5199999809265137,-0.8399999737739563
1743889007.263884,-0.45823198556900024,0.3903999924659729,0.848143994808197,0.9100000262260437,-2.380000114440918,-0.8399999737739563
1743889007.283884,-0.4572559893131256,0.3928399980068207,0.8466799855232239,0.7699999809265137,-2.309999942779541,-0.9100000262260437
1743889007.303884,-0.45823198556900024,0.3928399980068207,0.8510720133781433,0.8399999737739563,-2.240000009536743,-0.9800000190734863
1743889007.323884,-0.4572559893131256,0.3933280110359192,0.8520479798316956,0.9100000262260437,-2.240000009536743,-0.9800000190734863
