Millis,AccelX_chest,AccelY_chest,AccelZ_chest,GyroX_chest,GyroY_chest,GyroZ_chest,AccelX_right_leg,AccelY_right_leg,AccelZ_right_leg,GyroX_right_leg,GyroY_right_leg,GyroZ_right_leg,AccelX_right_arm,AccelY_right_arm,AccelZ_right_arm,GyroX_right_arm,GyroY_right_arm,GyroZ_right_arm
0.0,-0.968,0.025,0.356,-2.38,8.33,-1.33,-0.997,0.149,-0.118,0.28,-3.36,0.21,-0.965,0.226,0.213,0.0,-3.64,0.28
20.0,-0.974,0.028,0.358,-0.49,6.65,-1.47,-0.996,0.146,-0.119,0.42,-3.569,0.141,-0.966,0.221,0.207,0.14,-4.18,0.678
40.0,-0.969,0.038,0.353,1.12,4.62,-1.26,-0.996,0.148,-0.119,0.305,-3.369,0.264,-0.966,0.214,0.2,0.996,-3.888,0.7
60.0,-0.971,0.03,0.347,1.023,2.097,-0.937,-0.995,0.147,-0.119,0.041,-3.36,0.34,-0.97,0.221,0.2,1.248,-3.608,0.392
80.0,-0.972,0.027,0.353,0.688,0.187,-0.969,-0.995,0.146,-0.117,-0.206,-3.021,0.409,-0.967,0.221,0.197,0.388,-3.517,0.415
100.0,-0.968,0.032,0.348,0.005,-1.464,-0.921,-0.899,0.142,-0.12,0.13,-3.293,0.711,-0.961,0.219,0.194,0.079,-2.609,0.42
120.0,-0.967,0.032,0.343,0.227,-1.61,-0.91,-0.96,0.143,-0.117,0.009,-3.159,0.77,-0.966,0.217,0.199,0.2,-2.574,0.366
140.0,-0.964,0.037,0.35,1.139,-1.304,-1.01,-0.999,0.148,-0.12,0.184,-3.334,0.834,-0.964,0.218,0.21,0.432,-2.339,0.35
160.0,-0.973,0.031,0.348,1.443,-3.127,-1.274,-0.996,0.147,-0.118,-0.108,-2.953,0.443,-0.963,0.216,0.212,0.525,-2.742,0.225
180.0,-0.97,0.031,0.34,1.441,-3.553,-1.33,-0.996,0.148,-0.116,-0.347,-3.008,0.351,-0.961,0.214,0.211,0.966,-3.08,0.173
200.0,-0.967,0.029,0.343,1.208,-3.52,-1.33,-0.994,0.145,-0.117,-0.219,-3.01,0.545,-0.96,0.212,0.208,0.385,-3.5,0.064
220.0,-0.968,0.029,0.344,1.233,-4.108,-1.435,-0.997,0.142,-0.117,0.078,-3.01,0.744,-0.963,0.214,0.209,-0.07,-3.5,-0.267
240.0,-0.964,0.029,0.344,1.776,-4.48,-1.502,-0.996,0.145,-0.113,0.053,-2.986,0.705,-0.967,0.218,0.212,0.49,-3.14,-0.394
260.0,-0.961,0.03,0.343,1.96,-3.996,-1.512,-0.995,0.146,-0.112,-0.185,-2.838,0.588,-0.97,0.217,0.209,0.817,-3.22,-0.42
280.0,-0.965,0.03,0.343,2.091,-2.876,-1.54,-0.996,0.143,-0.114,-0.144,-2.819,0.642,-0.97,0.218,0.207,1.243,-3.147,-0.42
300.0,-0.969,0.03,0.344,2.324,-2.59,-1.521,-0.997,0.14,-0.114,0.116,-2.94,1.05,-0.969,0.221,0.208,0.622,-2.918,-0.485
320.0,-0.965,0.03,0.344,2.253,-2.509,-1.449,-0.997,0.143,-0.114,-0.058,-2.835,1.302,-0.965,0.22,0.207,-0.544,-2.572,-0.56
340.0,-0.96,0.032,0.345,1.286,-1.616,-1.424,-0.996,0.146,-0.115,-0.328,-2.73,1.36,-0.964,0.217,0.207,-0.841,-2.38,-0.634
360.0,-0.962,0.033,0.343,1.061,-0.856,-1.601,-0.996,0.144,-0.116,-0.291,-2.789,1.452,-0.964,0.214,0.208,-1.199,-2.36,-0.92
380.0,-0.963,0.033,0.345,1.219,-0.602,-1.644,-0.996,0.143,-0.113,-0.162,-2.918,1.54,-0.965,0.213,0.208,-1.526,-2.286,-1.203
400.0,-0.962,0.03,0.344,1.503,-0.518,-1.595,-0.997,0.145,-0.113,-0.161,-2.895,1.603,-0.965,0.216,0.211,-1.442,-2.212,-1.389
420.0,-0.963,0.028,0.346,1.473,-0.15,-1.87,-0.996,0.145,-0.114,-0.124,-2.886,1.782,-0.963,0.218,0.212,-1.451,-2.204,-1.46
440.0,-0.96,0.027,0.342,1.217,0.801,-1.971,-0.996,0.144,-0.113,-0.138,-2.862,1.891,-0.967,0.217,0.209,-1.91,-2.448,-1.313
460.0,-0.968,0.031,0.35,1.492,1.113,-1.972,-0.997,0.143,-0.114,0.091,-2.988,2.046,-0.961,0.216,0.208,-2.039,-2.293,-1.103
480.0,-0.976,0.024,0.35,0.085,-0.507,-1.75,-0.995,0.145,-0.115,0.115,-2.8,2.132,-0.958,0.213,0.211,-2.099,-2.087,-0.982
500.0,-0.96,0.034,0.33,0.363,-0.15,-1.804,-0.999,0.146,-0.113,-0.162,-2.816,2.329,-0.971,0.213,0.204,-1.704,-1.752,-1.379
520.0,-0.958,0.038,0.352,3.08,3.267,-2.026,-0.996,0.147,-0.115,-0.198,-2.928,2.402,-0.963,0.218,0.207,-1.053,-1.75,-1.818
540.0,-0.97,0.032,0.343,3.062,-0.279,-1.811,-0.996,0.143,-0.114,-0.14,-2.87,2.45,-0.961,0.223,0.208,-1.094,-1.564,-1.771
560.0,-0.964,0.028,0.325,0.65,0.242,-1.641,-0.997,0.143,-0.112,-0.166,-2.854,2.455,-0.956,0.227,0.211,-2.183,-1.599,-1.655
580.0,-0.967,0.033,0.339,-0.14,2.66,-1.47,-0.995,0.15,-0.113,-0.49,-2.66,2.52,-0.96,0.225,0.214,-3.565,-1.61,-1.379
600.0,-0.967,0.031,0.342,-0.21,3.43,-1.47,-0.999,0.15,-0.114,-0.42,-3.01,2.38,-0.96,0.22,0.213,-3.772,-1.871,-1.055
620.0,-0.971,0.031,0.343,0.818,3.24,-1.4,-0.996,0.152,-0.11,-0.14,-3.01,2.52,-0.961,0.21,0.212,-2.261,-2.158,-0.78
640.0,-0.968,0.032,0.338,1.61,2.45,-1.4,-0.996,0.153,-0.11,-0.495,-2.864,2.381,-0.966,0.214,0.208,-0.776,-2.368,-0.631
660.0,-0.97,0.031,0.336,1.137,2.659,-1.468,-0.996,0.152,-0.112,-0.558,-2.748,2.51,-0.961,0.214,0.21,-1.099,-2.659,-0.63
680.0,-0.972,0.032,0.34,0.541,2.538,-1.345,-0.998,0.149,-0.114,-0.458,-2.665,2.52,-0.963,0.216,0.205,-1.599,-2.035,-0.699
700.0,-0.974,0.03,0.337,0.077,2.11,-1.125,-0.998,0.146,-0.111,-0.177,-2.974,2.771,-0.968,0.214,0.206,-1.742,-2.154,-0.7
720.0,-0.971,0.036,0.339,0.682,3.053,-1.256,-0.994,0.149,-0.111,-0.083,-2.907,2.626,-0.965,0.212,0.209,-1.472,-2.081,-0.7
740.0,-0.977,0.03,0.343,0.632,1.414,-1.192,-0.996,0.154,-0.114,-0.002,-2.665,2.532,-0.964,0.214,0.21,-1.333,-1.702,-0.765
760.0,-0.971,0.033,0.326,0.768,0.427,-1.189,-0.996,0.152,-0.11,-0.21,-2.87,2.17,-0.964,0.212,0.21,-1.461,-1.93,-0.704
780.0,-0.967,0.028,0.326,0.404,1.566,-1.121,-0.993,0.153,-0.111,-0.511,-2.481,1.903,-0.962,0.21,0.213,-1.353,-2.022,-0.7
800.0,-0.973,0.031,0.331,0.14,1.906,-1.189,-0.997,0.154,-0.11,-0.7,-2.52,1.96,-0.966,0.209,0.212,-0.825,-2.134,-0.74
820.0,-0.974,0.028,0.33,0.252,2.23,-1.066,-0.996,0.153,-0.112,-0.758,-2.39,1.895,-0.966,0.207,0.211,-0.345,-2.227,-0.928
840.0,-0.972,0.026,0.335,0.757,1.86,-0.981,-0.996,0.153,-0.11,-0.838,-2.583,2.01,-0.965,0.209,0.209,-0.438,-2.214,-0.941
860.0,-0.973,0.03,0.328,0.524,1.567,-1.046,-0.998,0.147,-0.113,-0.509,-2.458,2.286,-0.963,0.213,0.209,-1.046,-2.099,-0.94
880.0,-0.975,0.031,0.328,0.395,1.441,-0.883,-0.997,0.151,-0.108,-0.49,-2.64,2.377,-0.962,0.214,0.209,-1.656,-2.052,-0.968
900.0,-0.974,0.029,0.327,0.175,1.275,-0.889,-0.994,0.154,-0.108,-0.615,-2.556,2.317,-0.967,0.211,0.209,-1.814,-2.076,-0.875
920.0,-0.971,0.026,0.323,0.079,1.34,-1.022,-0.997,0.156,-0.11,-0.567,-2.326,2.31,-0.968,0.21,0.208,-1.64,-1.97,-0.6
940.0,-0.974,0.027,0.324,0.15,1.513,-1.05,-0.997,0.154,-0.111,-0.618,-2.31,2.31,-0.968,0.21,0.206,-0.961,-2.087,-0.245
960.0,-0.975,0.028,0.325,0.352,1.506,-0.998,-0.996,0.155,-0.11,-0.69,-2.421,2.366,-0.969,0.208,0.207,-0.256,-2.161,0.08
980.0,-0.975,0.029,0.324,0.531,1.259,-0.98,-0.993,0.162,-0.11,-0.7,-2.184,2.38,-0.966,0.212,0.21,0.166,-2.075,0.472
1000.0,-0.976,0.028,0.324,0.616,1.113,-0.98,-0.996,0.156,-0.11,-0.53,-2.396,2.437,-0.962,0.22,0.215,-1.003,-1.912,0.759
1020.0,-0.977,0.027,0.325,0.63,0.764,-1.018,-0.996,0.157,-0.109,-0.49,-2.196,2.337,-0.96,0.216,0.224,-2.297,-2.265,0.908
1040.0,-0.976,0.024,0.324,0.55,0.56,-0.97,-0.994,0.16,-0.11,-0.657,-2.281,2.211,-0.959,0.209,0.214,-3.211,-3.007,0.547
1060.0,-0.975,0.023,0.322,0.852,0.64,-0.91,-0.995,0.159,-0.11,-0.625,-2.209,2.081,-0.959,0.201,0.213,-1.363,-2.665,0.316
1080.0,-0.98,0.019,0.324,0.195,0.016,-0.936,-0.994,0.159,-0.11,-0.388,-2.223,1.933,-0.953,0.201,0.211,0.375,-2.979,-0.219
1100.0,-0.973,0.029,0.318,0.097,-0.047,-1.112,-0.995,0.161,-0.109,-0.557,-1.981,1.775,-0.969,0.207,0.21,1.182,-3.267,-0.932
1120.0,-0.971,0.04,0.328,2.726,0.22,-1.152,-0.993,0.158,-0.112,-0.593,-1.991,1.873,-0.965,0.208,0.211,2.192,-3.431,-1.223
1140.0,-0.982,0.034,0.338,3.779,-1.118,-0.933,-0.994,0.157,-0.111,-0.493,-1.912,2.104,-0.957,0.213,0.215,1.809,-4.146,-2.127
1160.0,-0.978,0.022,0.312,1.519,-2.476,-0.798,-0.996,0.158,-0.11,-0.316,-1.93,2.17,-0.956,0.214,0.224,0.681,-4.48,-2.25
1180.0,-0.971,0.024,0.317,0.854,-0.877,-0.84,-0.994,0.161,-0.112,-0.274,-2.075,2.089,-0.954,0.206,0.226,1.371,-4.525,-1.983
1200.0,-0.978,0.025,0.326,1.142,-0.548,-0.888,-0.994,0.162,-0.113,-0.46,-2.03,1.814,-0.957,0.203,0.216,3.509,-4.259,-1.923
1220.0,-0.981,0.031,0.324,1.995,-0.607,-0.972,-0.997,0.159,-0.112,-0.399,-2.005,1.786,-0.97,0.208,0.211,5.216,-4.317,-1.671
1240.0,-0.981,0.033,0.325,2.417,-1.693,-0.882,-0.993,0.16,-0.111,-0.158,-1.864,1.883,-0.976,0.221,0.211,5.633,-4.628,-1.043
1260.0,-0.976,0.029,0.323,2.24,-2.911,-0.736,-0.995,0.161,-0.112,-0.371,-1.718,1.82,-0.972,0.22,0.209,4.907,-4.743,0.048
1280.0,-0.975,0.029,0.326,2.149,-3.684,-0.541,-0.991,0.16,-0.112,-0.373,-1.635,1.791,-0.966,0.215,0.199,4.865,-4.654,1.194
1300.0,-0.974,0.031,0.327,1.87,-4.258,-0.35,-0.995,0.164,-0.109,0.095,-1.913,1.558,-0.965,0.212,0.199,4.823,-4.049,2.366
1320.0,-0.984,0.031,0.338,2.03,-4.85,-0.291,-1.0,0.161,-0.11,0.101,-1.946,1.612,-0.968,0.21,0.205,3.588,-3.252,3.135
1340.0,-0.983,0.034,0.334,1.947,-5.816,-0.167,-0.993,0.168,-0.11,-0.242,-1.804,1.086,-0.969,0.207,0.209,2.455,-3.002,3.057
1360.0,-0.984,0.033,0.334,1.434,-7.765,-0.278,-0.993,0.162,-0.115,-0.326,-1.638,0.831,-0.962,0.2,0.235,2.452,-3.07,2.551
1380.0,-0.964,0.038,0.329,1.198,-7.353,-0.214,-0.994,0.161,-0.109,0.063,-1.524,0.7,-0.962,0.206,0.248,3.692,-4.059,2.265
1400.0,-0.967,0.036,0.32,1.65,-6.111,-0.348,-0.994,0.163,-0.112,-0.404,-1.313,0.695,-0.956,0.203,0.24,5.514,-4.821,1.486
1420.0,-0.974,0.036,0.326,2.044,-5.172,-0.292,-0.994,0.162,-0.108,-0.84,-1.149,0.581,-0.953,0.202,0.23,8.965,-5.052,-0.022
1440.0,-0.97,0.033,0.327,2.299,-4.914,-0.435,-0.996,0.157,-0.114,-0.826,-0.988,0.85,-0.965,0.221,0.221,10.483,-6.663,-0.907
1460.0,-0.966,0.032,0.328,2.03,-4.62,-0.49,-0.996,0.158,-0.114,-0.356,-1.259,0.922,-0.961,0.236,0.215,11.93,-6.154,-0.799
1480.0,-0.964,0.035,0.338,1.466,-4.475,-0.599,-0.994,0.16,-0.115,-0.624,-1.191,1.164,-0.95,0.221,0.227,11.448,-7.12,-0.217
1500.0,-0.976,0.031,0.345,1.271,-5.734,-0.769,-0.995,0.158,-0.114,-0.572,-1.314,1.456,-0.953,0.207,0.231,15.149,-7.006,1.9
1520.0,-0.971,0.033,0.333,1.051,-5.39,-0.769,-0.995,0.158,-0.114,-0.083,-1.484,1.518,-0.957,0.227,0.233,18.606,-8.479,3.277
1540.0,-0.973,0.028,0.348,1.33,-5.53,-0.56,-0.997,0.16,-0.116,0.312,-1.717,1.738,-0.971,0.237,0.251,20.751,-10.349,4.252
1560.0,-0.97,0.028,0.342,1.87,-6.103,-0.56,-0.995,0.16,-0.114,0.13,-1.64,1.928,-0.965,0.219,0.29,29.433,-13.043,5.781
1580.0,-0.96,0.039,0.343,2.097,-5.689,-0.358,-0.995,0.158,-0.117,0.344,-1.775,2.021,-0.935,0.173,0.309,54.961,-13.326,10.617
1600.0,-0.967,0.039,0.356,1.931,-6.113,-0.409,-0.993,0.162,-0.116,0.146,-1.655,2.03,-0.961,0.215,0.33,64.11,-14.514,12.302
1620.0,-0.979,0.038,0.355,1.518,-7.489,-0.472,-0.993,0.161,-0.116,0.124,-1.693,2.127,-0.974,0.272,0.478,75.778,-19.001,16.271
1640.0,-0.975,0.031,0.339,1.402,-8.709,-0.688,-0.996,0.161,-0.116,0.36,-2.01,2.324,-0.962,0.359,0.597,78.041,-35.484,22.364
1660.0,-0.969,0.037,0.333,1.734,-8.168,-0.375,-0.996,0.164,-0.115,0.013,-2.026,2.304,-1.033,0.357,0.667,86.744,-49.461,29.004
1680.0,-0.963,0.035,0.336,-0.726,-6.74,0.061,-0.993,0.163,-0.114,-0.454,-1.578,2.363,-1.065,0.426,0.747,95.863,-57.236,37.806
1700.0,-0.95,0.038,0.335,-2.862,-4.483,0.004,-0.994,0.164,-0.114,-0.691,-1.499,2.51,-1.087,0.499,0.736,106.046,-79.597,49.717
1720.0,-0.951,0.031,0.337,-0.485,-2.734,0.029,-0.998,0.169,-0.118,-1.4,-1.671,2.334,-1.068,0.546,0.741,104.47,-95.528,56.634
1740.0,-0.971,0.023,0.328,2.942,-3.406,0.067,-0.99,0.163,-0.12,-1.398,-1.47,2.192,-1.08,0.603,0.878,90.323,-115.917,65.106
1760.0,-0.977,0.052,0.324,1.93,-4.216,-0.184,-0.996,0.162,-0.117,-0.745,-1.628,2.872,-1.109,0.584,0.941,79.059,-126.738,74.115
1780.0,-0.977,0.062,0.362,1.0,-3.244,-0.637,-0.996,0.162,-0.116,-0.725,-1.872,3.231,-1.213,0.639,0.975,85.011,-146.56,97.031
1800.0,-0.982,0.053,0.375,0.557,-3.248,-1.48,-0.991,0.167,-0.12,-1.584,-1.526,3.189,-1.146,0.697,0.923,91.848,-157.912,119.813
1820.0,-0.99,0.043,0.364,0.115,-6.437,-1.917,-0.994,0.163,-0.122,-1.674,-2.208,3.707,-1.105,0.761,0.993,97.067,-163.433,142.617
1840.0,-0.983,0.05,0.349,-1.061,-8.73,-1.827,-0.999,0.164,-0.121,-0.643,-2.909,3.85,-1.11,0.923,1.024,73.348,-176.307,154.985
1860.0,-0.955,0.057,0.336,-3.037,-8.17,-1.738,-0.989,0.168,-0.117,-0.284,-2.874,3.841,-1.204,1.031,1.083,21.836,-202.163,159.929
1880.0,-0.949,0.053,0.371,-1.538,-6.954,-2.59,-0.992,0.173,-0.119,-1.125,-2.332,3.676,-1.203,0.969,0.984,0.235,-217.912,158.04
1900.0,-0.954,0.041,0.38,0.768,-10.079,-2.584,-0.996,0.176,-0.119,-1.383,-2.52,3.411,-1.176,1.002,0.79,-28.554,-222.21,161.305
1920.0,-0.942,0.007,0.364,2.882,-11.226,-2.269,-0.988,0.177,-0.116,-1.504,-2.513,3.01,-1.155,0.97,0.785,-35.344,-232.787,165.297
1940.0,-0.943,0.016,0.356,5.63,-7.411,-1.965,-0.993,0.172,-0.118,-0.957,-2.498,2.999,-1.08,0.901,0.899,-31.799,-246.394,163.809
1960.0,-0.978,0.028,0.375,7.778,-5.732,-1.395,-0.997,0.171,-0.12,-0.49,-3.22,2.8,-1.029,0.804,0.863,-15.611,-244.707,162.313
1980.0,-0.963,0.032,0.431,6.837,-3.457,-0.959,-0.998,0.174,-0.12,0.14,-3.43,2.66,-0.975,0.822,0.767,7.216,-251.991,167.943
2000.0,-0.942,0.044,0.444,6.205,-3.269,-0.564,-0.992,0.175,-0.117,0.56,-3.99,2.45,-0.903,1.02,0.599,1.528,-258.693,176.84
2020.0,-0.932,0.051,0.408,4.682,-4.588,-0.082,-0.993,0.172,-0.118,0.301,-3.99,2.45,-0.856,1.039,0.588,-20.198,-260.019,184.618
2040.0,-0.923,0.052,0.389,3.55,-1.944,0.273,-0.993,0.169,-0.118,0.533,-4.304,2.85,-0.794,0.933,0.614,-37.454,-259.535,189.805
2060.0,-0.943,0.042,0.443,1.201,2.581,0.006,-0.993,0.168,-0.119,1.293,-4.34,3.142,-0.655,0.729,0.582,-39.777,-260.536,188.037
2080.0,-0.958,0.069,0.446,-1.767,1.624,1.244,-0.988,0.176,-0.113,0.954,-4.099,3.15,-0.523,0.658,0.432,-25.302,-261.292,184.713
2100.0,-0.94,0.071,0.402,-5.027,2.323,2.658,-0.994,0.179,-0.109,0.297,-4.016,2.96,-0.506,0.758,0.29,-21.327,-253.938,188.641
2120.0,-0.933,0.012,0.426,-3.742,7.232,4.193,-0.993,0.182,-0.11,0.083,-3.886,2.495,-0.501,0.788,0.295,-33.203,-251.114,201.53
2140.0,-0.975,-0.035,0.448,-0.094,9.999,-0.145,-0.987,0.185,-0.11,0.167,-3.555,1.721,-0.447,0.672,0.306,-27.663,-250.029,210.634
2160.0,-0.931,0.023,0.432,2.788,9.246,-3.625,-0.99,0.175,-0.109,-0.293,-2.454,1.18,-0.19,0.439,0.181,10.164,-240.022,212.61
2180.0,-0.954,0.058,0.367,-0.207,9.95,-3.64,-0.995,0.174,-0.11,-0.223,-2.598,1.655,0.022,0.368,0.154,9.126,-202.822,216.123
2200.0,-0.963,0.037,0.389,-6.257,12.723,-4.35,-0.992,0.183,-0.111,-0.227,-2.559,1.422,-0.012,0.397,0.137,5.305,-185.957,221.157
2220.0,-0.959,-0.019,0.426,-10.124,10.712,-7.012,-0.988,0.185,-0.111,-0.498,-2.048,0.695,0.008,0.386,0.061,1.609,-214.017,221.442
2240.0,-0.91,0.076,0.394,-4.999,6.833,-10.589,-0.991,0.176,-0.11,-0.541,-1.409,0.532,0.119,0.218,-0.018,-15.509,-232.149,211.177
2260.0,-0.932,0.015,0.337,-8.07,4.917,-8.334,-0.99,0.173,-0.106,-0.473,-0.953,0.709,0.348,-0.081,-0.188,-37.734,-195.508,181.521
2280.0,-0.95,-0.005,0.286,-5.143,8.077,-8.181,-0.993,0.179,-0.107,-1.059,-0.605,0.887,0.81,-0.349,-0.287,-43.687,-158.681,159.563
2300.0,-0.961,0.056,0.36,0.73,13.272,-7.29,-0.992,0.18,-0.113,-1.035,-0.56,0.692,0.877,-0.426,-0.233,-34.53,-96.727,138.039
2320.0,-1.009,0.043,0.401,3.35,6.88,-6.792,-0.988,0.179,-0.117,-0.601,-0.507,0.574,0.78,-0.394,-0.376,-28.384,-90.961,119.945
2340.0,-0.994,0.006,0.296,-0.635,1.787,-9.571,-0.989,0.174,-0.116,-0.03,-0.435,0.677,0.795,-0.391,-0.461,-27.249,-106.286,94.464
2360.0,-0.971,0.005,0.277,-6.23,5.742,-10.07,-0.993,0.171,-0.109,0.233,-0.457,1.204,0.854,-0.369,-0.441,-27.081,-80.564,70.299
2380.0,-1.023,0.016,0.302,-7.223,4.796,-8.978,-0.996,0.179,-0.113,-0.127,-0.436,1.89,0.799,-0.313,-0.48,-25.972,-60.411,57.376
2400.0,-1.053,0.042,0.322,-5.504,0.506,-6.142,-0.994,0.19,-0.116,-0.039,-0.615,1.681,0.814,-0.244,-0.514,-9.146,-52.52,44.194
2420.0,-1.026,0.047,0.328,-4.412,-5.617,-2.983,-0.986,0.195,-0.123,0.171,-0.468,0.372,0.912,-0.226,-0.45,-3.592,-27.02,31.582
2440.0,-0.938,0.014,0.326,-3.309,-9.06,-1.8,-0.987,0.191,-0.12,-0.058,0.031,-1.596,0.969,-0.138,-0.308,-5.148,-10.247,26.031
2460.0,-0.915,-0.017,0.3,0.521,-9.853,-2.321,-0.986,0.184,-0.118,0.046,0.359,-2.857,0.97,-0.167,-0.241,0.539,-8.545,22.291
2480.0,-0.96,0.001,0.277,3.937,-9.236,-3.002,-0.996,0.173,-0.116,0.21,-0.252,-2.902,0.971,-0.102,-0.178,15.614,-12.43,22.16
2500.0,-0.967,0.023,0.298,3.961,-9.531,-3.266,-0.993,0.17,-0.117,0.204,0.268,-2.632,0.985,-0.064,-0.127,20.117,-13.376,22.617
2520.0,-0.952,0.03,0.321,3.373,-11.107,-3.313,-0.99,0.172,-0.125,0.009,0.224,-2.59,0.998,-0.081,-0.149,9.327,-14.957,24.298
2540.0,-0.933,0.023,0.324,2.64,-11.42,-2.979,-0.987,0.175,-0.132,-0.323,0.144,-2.543,1.074,-0.139,-0.142,6.754,-15.163,26.068
2560.0,-0.955,0.016,0.324,1.249,-8.963,-2.732,-1.003,0.16,-0.128,0.734,-0.882,-2.159,1.009,-0.094,-0.153,8.552,-14.475,33.411
2580.0,-0.96,0.013,0.324,-0.394,-6.939,-2.14,-1.0,0.159,-0.124,1.693,-1.19,-1.795,1.014,-0.093,-0.187,9.253,-22.969,35.602
2600.0,-0.955,0.002,0.337,-1.41,-5.275,-1.61,-0.987,0.167,-0.122,1.636,-1.104,-1.61,0.959,-0.219,-0.137,-0.475,-7.952,34.845
2620.0,-0.951,-0.013,0.356,-0.719,-3.502,-1.581,-0.987,0.17,-0.122,0.191,-0.939,-1.492,0.907,-0.356,-0.13,3.579,-19.535,24.883
2640.0,-0.952,-0.008,0.351,1.139,-2.165,-1.301,-0.996,0.163,-0.13,-0.27,-1.21,-0.742,0.94,-0.382,-0.186,5.265,-6.589,15.42
2660.0,-0.96,-0.007,0.355,2.541,0.28,-0.646,-0.999,0.159,-0.131,0.534,-1.953,0.113,0.956,-0.417,-0.31,6.748,2.378,5.577
2680.0,-0.962,-0.005,0.365,3.43,1.677,-0.426,-0.995,0.167,-0.128,0.605,-2.379,0.417,0.961,-0.513,-0.397,7.382,22.492,-12.18
2700.0,-0.936,0.017,0.375,2.321,3.798,0.046,-0.988,0.169,-0.124,-0.236,-2.315,0.35,0.928,-0.533,-0.335,18.732,52.846,-28.484
2720.0,-0.946,0.012,0.364,1.26,3.15,0.63,-0.99,0.161,-0.124,-1.047,-2.052,0.778,0.883,-0.478,-0.214,22.862,61.364,-45.422
2740.0,-0.962,0.01,0.335,-0.137,4.034,0.694,-0.998,0.156,-0.126,-0.91,-2.59,1.33,0.833,-0.398,-0.212,24.05,70.452,-59.661
2760.0,-0.96,0.026,0.325,0.156,2.756,0.426,-0.996,0.159,-0.129,-0.124,-2.73,1.61,0.959,-0.433,-0.447,33.614,111.387,-79.709
2780.0,-0.942,0.014,0.329,4.07,3.323,0.42,-0.992,0.164,-0.126,0.07,-2.66,1.47,0.775,-0.359,-0.497,45.164,134.977,-92.247
2800.0,-0.957,0.002,0.35,4.898,3.499,1.076,-0.988,0.169,-0.124,-0.449,-2.66,1.103,0.81,-0.28,-0.341,47.893,143.628,-100.944
2820.0,-0.978,-0.007,0.348,1.623,-1.99,2.135,-0.991,0.165,-0.128,-0.49,-2.758,0.946,0.794,-0.184,-0.259,59.892,167.961,-107.436
2840.0,-0.969,-0.001,0.322,-1.195,-0.787,2.632,-0.994,0.166,-0.126,-0.119,-3.168,0.542,0.579,-0.056,-0.294,78.82,179.48,-113.4
2860.0,-1.005,-0.005,0.382,0.018,-6.517,2.97,-0.993,0.17,-0.133,0.293,-3.758,-0.012,0.545,0.05,-0.27,90.628,206.475,-122.041
2880.0,-0.983,-0.015,0.312,-0.154,-13.42,3.965,-0.991,0.164,-0.129,0.676,-3.78,-0.316,0.347,0.1,-0.216,82.409,207.822,-134.27
2900.0,-0.956,-0.031,0.281,1.603,-9.824,3.445,-0.992,0.157,-0.122,0.886,-3.78,-0.141,0.402,0.163,-0.073,61.419,204.854,-145.107
2920.0,-0.957,-0.013,0.321,5.693,-2.791,2.74,-0.997,0.164,-0.122,0.807,-3.72,0.191,0.404,0.172,-0.071,47.849,212.28,-154.013
2940.0,-0.981,-0.008,0.371,10.421,-2.462,1.623,-0.996,0.164,-0.125,0.64,-3.862,0.11,0.339,0.18,-0.123,46.017,242.138,-163.803
2960.0,-1.018,-0.003,0.376,11.669,-8.046,1.004,-0.994,0.16,-0.125,1.445,-4.337,-0.259,0.089,0.23,-0.115,52.465,260.68,-179.52
2980.0,-1.002,-0.017,0.367,8.085,-10.274,1.094,-0.987,0.153,-0.122,2.594,-4.54,-0.032,-0.078,0.335,-0.003,33.003,289.269,-196.058
3000.0,-0.971,0.016,0.338,8.997,-12.625,0.509,-0.993,0.153,-0.115,2.505,-4.22,0.885,-0.253,0.409,0.172,39.772,321.972,-196.527
3020.0,-0.953,0.061,0.333,16.228,-11.894,8.925,-0.998,0.156,-0.118,2.082,-3.99,1.538,-0.45,0.605,0.279,33.328,311.572,-188.405
3040.0,-0.973,0.037,0.398,21.539,-8.686,9.462,-0.994,0.164,-0.118,1.736,-3.656,1.479,-0.59,0.585,0.471,-0.854,297.575,-183.785
3060.0,-0.995,-0.026,0.469,17.349,-11.681,0.501,-0.991,0.171,-0.116,1.244,-3.756,0.716,-0.635,0.406,0.608,-32.141,286.324,-185.651
3080.0,-0.962,0.015,0.414,9.65,-18.019,0.096,-0.989,0.166,-0.118,0.94,-3.465,-0.056,-0.748,0.468,0.701,-26.67,276.235,-187.11
3100.0,-0.92,0.115,0.324,9.2,-17.36,-0.409,-0.993,0.154,-0.117,0.724,-2.94,0.078,-0.989,0.586,0.664,13.489,291.838,-185.326
3120.0,-0.936,0.101,0.393,9.344,-8.127,-0.82,-1.002,0.154,-0.117,0.231,-2.915,0.823,-1.223,0.629,0.51,36.372,334.868,-173.576
3140.0,-0.945,0.044,0.49,5.003,-6.991,-1.004,-0.991,0.167,-0.121,0.018,-2.987,0.605,-1.377,0.672,0.748,31.08,321.824,-154.333
3160.0,-0.902,0.101,0.438,5.963,-10.06,-1.715,-0.985,0.167,-0.119,0.072,-3.1,-0.139,-1.395,0.66,1.031,5.121,264.856,-139.003
3180.0,-0.842,0.133,0.331,8.016,-1.877,-1.738,-0.992,0.156,-0.114,-0.283,-2.831,-0.128,-1.359,0.559,0.875,-1.774,260.59,-138.443
3200.0,-0.892,0.04,0.405,3.499,4.178,0.275,-1.003,0.148,-0.115,-0.543,-2.564,0.649,-1.356,0.518,0.651,1.823,285.599,-143.391
3220.0,-0.922,-0.025,0.479,-8.292,4.335,1.732,-0.989,0.161,-0.114,-0.534,-2.427,0.681,-1.545,0.649,0.845,-23.078,239.958,-126.129
3240.0,-0.871,0.026,0.464,-12.69,-3.213,1.796,-0.982,0.17,-0.115,-1.421,-1.473,-0.492,-1.467,0.63,1.071,-44.82,219.881,-111.023
3260.0,-0.814,0.026,0.422,-2.41,9.169,0.931,-1.0,0.156,-0.112,-2.384,-1.045,-0.654,-1.457,0.434,1.06,-48.363,241.75,-91.347
3280.0,-0.918,-0.022,0.512,3.784,17.329,0.781,-1.008,0.146,-0.111,-2.386,-1.464,0.145,-1.563,0.347,0.879,-35.363,250.598,-83.049
3300.0,-1.011,0.047,0.499,-0.478,1.503,-1.432,-0.989,0.147,-0.116,-1.425,-1.162,1.191,-1.395,0.368,0.858,-34.91,223.371,-85.248
3320.0,-0.922,0.086,0.324,-5.246,-0.115,-3.284,-0.983,0.156,-0.106,-2.43,0.035,1.532,-1.362,0.378,0.977,-15.836,184.004,-85.069
3340.0,-0.915,0.122,0.336,-4.147,-0.425,-4.099,-0.998,0.163,-0.126,-4.386,0.37,2.082,-1.304,0.239,0.948,29.664,174.399,-83.384
3360.0,-0.993,0.124,0.366,-12.535,-4.18,-2.643,-1.002,0.151,-0.13,-3.561,-0.696,2.699,-1.438,0.379,0.888,44.17,168.0,-83.16
3380.0,-1.042,0.055,0.489,-18.368,2.181,-2.035,-1.0,0.159,-0.115,-2.049,-1.353,2.291,-1.422,0.301,0.742,61.661,156.053,-64.244
3400.0,-1.002,0.007,0.43,-20.085,3.569,-2.006,-0.996,0.164,-0.122,-1.335,-1.672,1.871,-1.538,0.398,0.642,40.267,97.458,-64.398
3420.0,-0.927,-0.033,0.362,-17.296,3.951,-2.642,-0.98,0.161,-0.118,-2.275,-0.631,1.525,-1.221,-0.484,1.606,133.022,-14.171,-55.039
3440.0,-0.871,0.018,0.333,-11.349,8.294,1.022,-0.997,0.165,-0.126,-2.796,-0.854,1.248,-1.223,0.722,1.843,393.82,76.86,-0.84
3460.0,-0.931,0.012,0.333,-4.183,15.583,3.291,-0.995,0.161,-0.13,-2.31,-1.251,1.017,-1.293,0.841,0.889,141.239,-0.423,-13.428
3480.0,-1.039,-0.05,0.394,-7.156,14.792,3.629,-0.993,0.169,-0.125,-2.369,-2.243,0.567,-0.956,0.802,0.672,85.142,11.361,-11.15
3500.0,-1.037,-0.045,0.399,-8.474,10.049,3.338,-0.988,0.145,-0.126,-3.328,-2.77,2.038,-1.061,0.717,0.255,-28.357,-15.084,-10.845
3520.0,-0.994,-0.007,0.382,-9.147,6.307,2.475,-1.019,0.127,-0.13,1.605,-5.422,6.153,-0.985,0.474,0.016,-77.76,-22.318,0.771
3540.0,-0.96,-0.002,0.33,-4.349,7.987,1.389,-1.008,0.151,-0.132,3.658,-7.229,4.665,-0.93,0.3,-0.143,-95.769,-23.902,5.921
3560.0,-0.953,-0.018,0.307,0.877,11.183,-0.64,-1.035,0.174,-0.112,-3.917,-7.021,3.738,-0.877,0.073,-0.146,-88.749,-19.32,9.134
3580.0,-0.95,-0.025,0.316,7.267,16.066,-1.825,-0.961,0.164,-0.087,-3.812,-4.665,4.123,-0.879,0.069,-0.101,-70.614,-11.003,11.238
3600.0,-0.962,0.026,0.357,8.537,21.12,-2.145,-0.993,0.148,-0.12,-1.931,-2.579,5.05,-0.921,0.067,-0.046,-59.651,-4.934,9.296
3620.0,-0.995,0.049,0.41,6.37,15.05,-3.15,-1.011,0.149,-0.129,-0.626,-3.865,7.446,-0.97,0.052,-0.002,-55.257,-3.229,5.01
3640.0,-0.963,0.042,0.363,6.44,12.39,-4.2,-0.996,0.142,-0.12,3.875,-5.501,8.414,-0.987,-0.006,0.013,-41.851,-1.487,0.351
3660.0,-0.96,0.033,0.338,5.45,11.061,-4.124,-0.995,0.18,-0.119,3.372,-5.361,8.877,-1.003,-0.008,0.05,-15.117,-0.03,-2.99
3680.0,-0.953,0.023,0.314,5.324,11.332,-3.918,-0.997,0.183,-0.116,1.799,-4.972,8.682,-0.994,0.037,0.109,5.746,3.034,-2.885
3700.0,-0.958,0.029,0.307,5.515,11.896,-3.19,-0.983,0.188,-0.118,0.944,-4.435,7.702,-0.983,0.154,0.165,6.457,2.417,-2.111
3720.0,-0.976,0.009,0.318,5.88,10.15,-2.45,-0.987,0.198,-0.114,0.035,-4.41,6.211,-0.983,0.19,0.198,3.607,2.961,-1.367
3740.0,-0.979,0.013,0.295,4.458,11.643,-2.315,-0.986,0.191,-0.115,-0.834,-3.788,5.108,-0.989,0.184,0.201,1.402,1.499,-1.586
3760.0,-0.977,0.025,0.289,2.786,13.957,-2.481,-0.99,0.181,-0.114,0.199,-3.842,4.329,-0.997,0.179,0.191,3.355,-2.891,-2.365
3780.0,-0.983,0.024,0.311,3.191,15.27,-3.138,-0.99,0.187,-0.105,0.807,-3.682,3.547,-0.986,0.186,0.186,6.946,-5.0,-2.597
3800.0,-0.994,0.03,0.306,2.791,13.965,-3.319,-0.995,0.181,-0.111,0.229,-3.234,3.43,-0.968,0.2,0.173,5.004,-6.624,-3.234
3820.0,-0.996,0.036,0.279,0.925,13.907,-3.002,-0.994,0.177,-0.11,-0.126,-3.44,3.683,-0.97,0.204,0.134,-0.029,-6.226,-3.973
3840.0,-0.998,0.032,0.295,0.78,14.466,-2.67,-0.993,0.179,-0.113,0.641,-3.719,3.71,-0.985,0.199,0.088,-4.128,-4.817,-3.908
3860.0,-0.991,0.025,0.299,2.444,11.992,-2.525,-0.989,0.19,-0.111,1.651,-3.837,3.236,-0.987,0.165,0.077,-4.235,-4.614,-2.341
3880.0,-0.985,0.019,0.292,3.552,9.65,-2.289,-0.985,0.196,-0.106,1.475,-3.529,2.494,-0.964,0.144,0.092,2.715,-3.415,-0.766
3900.0,-0.99,0.019,0.284,2.625,6.561,-1.948,-0.987,0.189,-0.105,0.613,-2.782,2.41,-0.956,0.147,0.117,9.42,-0.922,0.182
3920.0,-0.996,0.033,0.288,1.759,5.154,-1.729,-0.996,0.181,-0.106,-0.05,-2.793,2.886,-0.964,0.195,0.144,10.26,-0.978,1.326
3940.0,-1.008,0.037,0.3,1.822,4.452,-1.539,-0.992,0.19,-0.11,-0.195,-3.02,2.988,-0.963,0.236,0.177,3.659,-2.26,2.596
3960.0,-1.005,0.015,0.255,0.586,-0.175,-1.285,-0.989,0.198,-0.109,-0.21,-2.679,2.622,-0.963,0.243,0.194,-7.926,-3.846,2.603
3980.0,-0.981,0.015,0.254,-0.49,-0.898,-1.19,-0.996,0.192,-0.109,-0.399,-2.338,2.014,-0.99,0.226,0.168,-12.928,-5.185,1.772
4000.0,-0.967,0.023,0.268,-0.344,-0.726,-1.281,-0.993,0.194,-0.111,-0.448,-2.067,1.358,-1.035,0.197,0.11,-15.727,-8.248,1.54
4020.0,-0.961,0.023,0.258,0.81,-1.16,-1.511,-0.987,0.195,-0.112,-0.723,-1.516,0.511,-1.024,0.158,0.118,-16.135,-12.471,2.086
4040.0,-0.979,0.02,0.271,3.214,0.674,-1.26,-0.987,0.187,-0.114,-0.893,-1.4,0.136,-0.971,0.121,0.169,-10.91,-13.822,3.888
4060.0,-1.028,0.019,0.317,4.628,-3.179,-1.233,-0.99,0.183,-0.113,-0.685,-1.514,0.178,-0.953,0.114,0.189,2.384,-13.647,4.377
4080.0,-1.036,0.03,0.305,2.646,-7.188,-0.753,-0.995,0.183,-0.112,-0.119,-1.89,0.412,-0.966,0.123,0.226,9.465,-12.963,1.889
4100.0,-1.025,0.031,0.291,1.205,-9.792,-0.08,-0.992,0.188,-0.111,0.066,-1.956,0.272,-0.971,0.13,0.283,14.621,-17.604,0.62
4120.0,-0.984,0.017,0.285,1.393,-9.798,0.321,-0.989,0.192,-0.111,-0.11,-1.719,-0.77,-0.971,0.165,0.321,18.648,-23.824,-0.02
4140.0,-0.961,0.012,0.285,2.817,-8.997,0.396,-0.984,0.192,-0.113,-0.398,-1.19,-1.534,-0.982,0.172,0.408,18.54,-39.222,-0.656
4160.0,-0.972,0.007,0.287,3.274,-10.03,0.21,-0.983,0.183,-0.112,-0.261,-1.146,-1.592,-0.981,0.178,0.62,22.464,-45.45,1.15
4180.0,-0.992,0.01,0.296,3.318,-12.83,0.235,-0.99,0.18,-0.116,-0.162,-0.957,-1.449,-1.09,0.23,0.747,28.458,-67.346,5.532
4200.0,-0.996,0.001,0.29,2.509,-14.728,0.534,-0.994,0.185,-0.117,0.065,-1.327,-1.402,-1.074,0.188,0.776,45.321,-76.786,9.899
4220.0,-0.982,0.017,0.265,0.192,-15.0,0.77,-0.985,0.191,-0.109,-0.729,-0.983,-1.68,-1.175,0.293,0.79,57.448,-83.586,18.669
4240.0,-0.96,0.032,0.239,-0.257,-11.799,0.764,-0.994,0.178,-0.113,-1.09,-1.073,-1.658,-1.247,0.246,0.843,65.982,-110.293,37.123
4260.0,-0.953,0.035,0.247,1.419,-7.207,0.324,-0.989,0.175,-0.115,-0.49,-1.26,-1.19,-1.266,0.302,0.963,97.02,-128.52,53.2
4280.0,-0.98,0.008,0.287,3.736,-6.655,-0.132,-0.995,0.17,-0.117,0.234,-1.663,-0.521,-1.184,0.319,1.007,122.09,-144.073,69.834
4300.0,-1.017,0.022,0.294,2.8,-7.63,0.0,-0.997,0.172,-0.115,1.533,-1.941,0.057,-1.187,0.434,1.087,134.176,-150.395,87.386
4320.0,-1.014,0.035,0.315,0.617,-8.034,0.377,-1.002,0.186,-0.118,0.958,-2.586,0.21,-1.311,0.567,1.142,123.029,-174.596,103.446
4340.0,-0.992,0.05,0.335,-1.87,-8.562,0.49,-0.984,0.178,-0.117,-1.3,-1.859,-0.056,-1.302,0.504,1.078,98.42,-184.03,116.97
4360.0,-0.987,0.047,0.333,-1.957,-13.063,0.359,-0.996,0.167,-0.115,0.046,-2.531,1.035,-1.391,0.624,0.992,97.849,-209.231,132.828
4380.0,-0.972,0.013,0.313,-2.03,-15.461,0.086,-0.993,0.174,-0.117,0.104,-2.654,1.173,-1.441,0.795,1.002,82.107,-226.97,149.615
4400.0,-0.971,0.019,0.326,-0.773,-15.171,-0.346,-0.985,0.18,-0.114,-0.67,-2.157,1.227,-1.46,0.755,0.934,46.533,-239.012,159.81
4420.0,-0.991,0.039,0.351,-0.734,-16.31,-0.468,-0.994,0.175,-0.116,-1.047,-2.32,1.599,-1.518,0.721,0.842,42.799,-250.93,175.895
4440.0,-0.982,0.038,0.339,-0.449,-17.996,-0.753,-0.991,0.175,-0.115,-0.733,-2.513,2.06,-1.446,0.693,0.76,58.303,-260.799,196.424
4460.0,-0.968,0.035,0.361,2.887,-16.401,-0.84,-0.992,0.181,-0.111,-1.027,-2.52,2.146,-1.373,0.748,0.782,57.891,-266.826,212.658
4480.0,-0.958,0.034,0.367,4.745,-15.358,-0.412,-0.995,0.183,-0.112,-1.052,-2.804,2.321,-1.271,0.818,0.724,44.805,-278.983,224.02
4500.0,-0.938,0.013,0.362,3.068,-14.353,0.978,-0.997,0.186,-0.118,-0.85,-2.774,1.975,-1.193,0.835,0.743,18.588,-288.127,229.945
4520.0,-0.924,0.002,0.379,-0.977,-9.611,1.298,-0.986,0.186,-0.114,-0.221,-2.907,1.125,-1.11,0.819,0.696,0.131,-297.221,231.414
4540.0,-0.924,0.017,0.391,-5.456,-5.932,0.966,-0.992,0.182,-0.112,0.213,-2.908,0.696,-0.885,0.769,0.597,-2.905,-297.176,231.881
4560.0,-0.934,0.05,0.403,-6.924,-4.925,-0.469,-0.991,0.182,-0.113,0.126,-2.79,0.68,-0.771,0.756,0.535,-1.217,-290.25,232.656
4580.0,-0.937,0.05,0.404,-5.076,-4.387,-1.788,-0.989,0.182,-0.113,-0.35,-2.486,0.613,-0.743,0.714,0.506,4.333,-289.301,235.586
4600.0,-0.935,0.028,0.398,-4.519,-3.429,-2.213,-0.99,0.178,-0.114,-0.362,-2.402,0.659,-0.644,0.644,0.478,26.937,-294.635,242.323
4620.0,-0.937,0.015,0.391,-5.11,-1.833,-2.422,-0.99,0.174,-0.113,0.106,-2.562,1.035,-0.577,0.731,0.398,40.881,-288.436,256.88
4640.0,-0.929,0.023,0.377,-4.418,1.498,-2.941,-0.991,0.176,-0.11,0.029,-2.467,1.448,-0.546,0.716,0.234,46.264,-278.245,277.905
4660.0,-0.936,0.025,0.394,-1.328,5.797,-3.277,-0.994,0.184,-0.112,-0.271,-2.063,1.415,-0.407,0.501,0.085,42.59,-273.199,282.638
4680.0,-0.988,0.037,0.436,-0.963,6.538,-3.98,-0.995,0.177,-0.112,-0.179,-2.055,1.134,-0.097,0.343,0.002,15.41,-261.553,272.467
4700.0,-0.996,0.039,0.41,-4.495,1.907,-3.71,-0.995,0.174,-0.116,0.466,-2.208,1.147,-0.005,0.182,-0.207,-15.14,-235.889,266.711
4720.0,-0.994,0.011,0.374,-10.279,0.395,-3.633,-0.992,0.178,-0.114,0.611,-2.27,1.19,0.048,0.017,-0.461,-48.259,-208.158,253.055
4740.0,-0.946,0.01,0.368,-13.303,4.089,-1.896,-0.989,0.179,-0.11,-0.195,-1.834,1.202,0.161,-0.184,-0.524,-64.462,-170.864,229.707
4760.0,-0.98,-0.005,0.389,-11.473,5.595,-0.844,-0.988,0.184,-0.115,-0.686,-1.304,0.862,0.353,-0.428,-0.56,-70.553,-135.718,195.552
4780.0,-1.001,-0.044,0.376,-4.767,2.748,-1.702,-0.99,0.176,-0.121,-0.939,-1.139,0.56,0.575,-0.648,-0.643,-42.714,-124.506,164.948
4800.0,-0.99,-0.008,0.348,-3.307,-0.334,-2.656,-0.993,0.169,-0.114,-0.779,-1.402,0.865,0.804,-0.518,-0.537,-17.515,-70.049,128.108
4820.0,-0.994,0.007,0.31,-0.455,-1.563,-2.101,-0.991,0.173,-0.109,-0.831,-1.177,1.687,0.648,-0.594,-0.603,-26.95,-75.04,90.65
4840.0,-0.981,0.009,0.323,0.53,-1.784,-2.361,-0.985,0.179,-0.114,-1.391,-0.556,2.274,0.791,-0.495,-0.537,-23.829,-27.314,69.514
4860.0,-0.923,0.011,0.319,1.367,-5.92,-3.056,-0.988,0.178,-0.12,-1.221,-0.311,2.563,0.884,-0.457,-0.427,-17.557,-5.215,46.66
4880.0,-0.931,0.018,0.283,1.072,-9.104,-3.621,-0.996,0.182,-0.119,-0.412,-0.719,2.553,0.93,-0.45,-0.362,-6.812,3.702,26.315
4900.0,-0.988,0.02,0.288,0.049,-9.785,-2.746,-0.988,0.185,-0.116,-0.686,-0.791,2.17,0.979,-0.419,-0.326,1.716,9.769,8.489
4920.0,-0.988,-0.001,0.291,-2.248,-11.226,-1.748,-0.984,0.184,-0.117,-0.291,-0.715,1.742,1.05,-0.385,-0.259,11.114,14.044,-7.087
4940.0,-0.952,0.007,0.293,-2.699,-10.764,-1.14,-0.989,0.186,-0.118,-0.407,-0.85,1.16,1.072,-0.353,-0.2,18.706,18.102,-19.273
4960.0,-0.955,0.007,0.329,-2.298,-13.371,-1.073,-0.989,0.187,-0.118,-0.503,-0.847,0.043,1.078,-0.305,-0.156,28.453,21.391,-27.045
4980.0,-0.933,-0.005,0.318,1.072,-10.685,-0.83,-0.988,0.185,-0.123,0.238,-1.091,-1.084,1.045,-0.205,-0.063,37.034,21.03,-32.388
5000.0,-0.957,-0.009,0.365,6.769,-10.018,-1.22,-0.988,0.183,-0.122,0.35,-0.972,-1.856,1.02,-0.108,0.036,30.409,13.096,-36.013
5020.0,-0.969,0.003,0.328,6.759,-12.413,-1.122,-0.992,0.175,-0.117,0.35,-0.864,-1.855,1.041,-0.055,0.03,17.9,10.704,-36.511
5040.0,-0.962,0.006,0.325,4.431,-9.477,-0.816,-0.993,0.175,-0.117,0.206,-1.073,-1.337,1.062,-0.046,0.0,10.937,15.327,-35.808
5060.0,-0.952,0.015,0.355,2.861,-5.132,-1.247,-0.99,0.18,-0.123,0.017,-1.26,-1.137,1.008,-0.046,0.028,9.501,19.418,-33.929
5080.0,-0.952,0.022,0.394,3.411,-1.728,-2.438,-0.996,0.176,-0.124,0.405,-1.447,-1.169,0.951,-0.016,0.113,9.774,12.972,-31.445
5100.0,-0.948,0.017,0.398,4.297,-2.277,-2.904,-0.997,0.167,-0.124,1.278,-2.161,-0.905,0.945,-0.018,0.108,9.356,8.044,-31.478
5120.0,-0.931,-0.009,0.371,5.062,-0.872,-2.94,-0.988,0.166,-0.119,1.287,-2.046,0.25,0.922,-0.001,0.107,10.293,6.325,-31.173
5140.0,-0.942,0.006,0.364,5.154,2.96,-2.878,-0.994,0.171,-0.126,0.477,-2.453,1.463,0.969,0.013,0.061,8.298,8.73,-30.095
5160.0,-0.941,0.029,0.369,3.97,5.109,-2.595,-0.987,0.172,-0.123,0.341,-2.786,2.335,0.964,0.001,0.07,12.134,16.711,-27.729
5180.0,-0.937,0.023,0.382,3.15,6.026,-2.409,-0.998,0.167,-0.122,0.978,-3.039,3.074,0.993,0.04,0.023,18.862,18.124,-22.952
5200.0,-0.939,0.016,0.404,2.981,5.93,-2.304,-0.989,0.173,-0.122,0.817,-3.281,3.616,0.967,0.044,-0.082,22.065,27.696,-20.601
5220.0,-0.937,0.004,0.401,2.446,4.391,-1.829,-0.983,0.178,-0.123,0.429,-3.01,3.917,0.951,0.049,-0.182,33.369,37.95,-22.358
5240.0,-0.938,-0.006,0.354,1.331,3.187,-1.304,-0.993,0.181,-0.116,-0.039,-3.01,3.789,0.905,0.005,-0.284,41.317,51.872,-26.637
5260.0,-0.97,0.042,0.336,0.883,4.017,-1.599,-0.985,0.182,-0.117,-1.009,-2.698,3.38,0.968,-0.149,-0.313,37.413,66.605,-38.627
5280.0,-0.984,0.049,0.344,3.322,3.222,-1.797,-0.992,0.183,-0.12,-1.19,-2.31,3.29,1.027,-0.218,-0.371,50.942,88.439,-46.355
5300.0,-0.973,-0.004,0.359,3.825,2.879,-1.373,-0.995,0.181,-0.125,-1.008,-3.218,2.965,0.972,-0.153,-0.411,67.456,114.859,-54.67
5320.0,-0.949,-0.021,0.372,2.682,4.253,-0.191,-0.982,0.186,-0.122,-0.238,-3.158,2.382,0.846,-0.141,-0.48,79.52,158.41,-73.85
5340.0,-0.948,-0.009,0.38,2.265,3.934,0.306,-0.99,0.184,-0.116,-0.072,-3.356,2.0,0.741,-0.128,-0.444,88.067,177.911,-93.758
5360.0,-0.969,0.032,0.336,4.864,-1.678,0.49,-0.99,0.185,-0.115,-0.37,-2.952,1.548,0.57,-0.062,-0.354,103.558,194.453,-113.055
5380.0,-0.978,0.019,0.308,5.943,-2.649,1.37,-0.993,0.181,-0.123,-1.241,-2.94,1.676,0.523,0.038,-0.324,114.592,212.076,-133.43
5400.0,-0.994,-0.041,0.321,5.686,-2.73,2.478,-0.992,0.18,-0.122,-0.861,-3.144,1.5,0.467,0.144,-0.262,112.642,230.86,-149.951
5420.0,-1.001,-0.051,0.346,5.65,-3.256,2.978,-0.989,0.182,-0.111,-0.771,-3.082,0.991,0.372,0.216,-0.133,98.026,250.085,-181.368
5440.0,-0.993,-0.016,0.337,6.947,-4.598,2.407,-0.992,0.182,-0.121,-0.77,-3.624,1.243,0.202,0.287,0.033,79.113,263.541,-201.23
5460.0,-0.979,0.014,0.332,9.387,-3.819,1.549,-0.984,0.184,-0.115,-1.267,-3.096,1.318,-0.014,0.465,0.133,52.587,260.253,-210.25
5480.0,-0.96,0.02,0.325,9.969,-3.186,0.877,-0.999,0.18,-0.115,-1.89,-3.64,2.17,-0.164,0.63,0.214,11.879,255.15,-224.624
5500.0,-0.955,-0.007,0.314,8.612,-1.821,-0.055,-1.011,0.217,-0.156,-5.024,-3.843,5.108,-0.332,0.668,0.549,-27.512,244.836,-223.335
5520.0,-0.942,0.015,0.356,9.267,3.923,-0.251,-0.953,0.179,-0.113,-7.062,-2.737,4.832,-0.393,0.57,0.635,-33.738,245.895,-215.952
5540.0,-0.962,0.031,0.387,10.986,3.587,-1.815,-0.988,0.179,-0.103,-6.12,-3.698,5.137,-0.49,0.468,0.584,-29.223,262.48,-218.871
5560.0,-0.936,0.068,0.353,8.08,2.28,-2.722,-1.005,0.187,-0.129,-5.025,-5.626,6.337,-0.692,0.478,0.528,-33.121,281.099,-229.762
5580.0,-0.918,0.076,0.361,7.35,4.76,-3.29,-0.968,0.164,-0.115,-3.522,-4.612,5.791,-0.827,0.496,0.527,-59.689,297.829,-231.088
5600.0,-0.914,0.055,0.39,7.489,9.099,-4.754,-0.981,0.177,-0.108,-0.287,-5.138,4.867,-1.092,0.494,0.792,-66.378,305.033,-220.528
5620.0,-0.921,0.039,0.396,7.142,11.171,-3.423,-0.999,0.205,-0.12,-0.933,-5.852,4.83,-1.396,0.412,1.08,-54.978,282.631,-192.388
5640.0,-0.95,0.005,0.441,-0.98,13.3,-1.75,-0.981,0.199,-0.104,-1.309,-5.719,4.581,-1.41,0.335,1.012,-25.703,246.937,-183.982
5660.0,-0.956,0.092,0.416,-4.473,7.272,-2.04,-0.979,0.191,-0.098,-1.042,-3.845,3.57,-1.329,0.356,0.653,6.052,245.47,-186.993
5680.0,-0.946,0.119,0.407,-4.069,6.915,-2.296,-0.988,0.193,-0.102,-0.077,-3.438,2.828,-1.425,0.423,0.514,27.779,251.542,-189.319
5700.0,-0.937,0.047,0.392,-2.185,5.989,-1.754,-0.986,0.2,-0.105,-0.046,-2.868,2.216,-1.43,0.702,0.656,6.554,198.085,-172.356
5720.0,-0.889,0.004,0.333,-4.688,8.946,-0.133,-0.98,0.205,-0.103,-0.913,-1.406,1.476,-1.332,0.572,0.802,-23.177,184.118,-156.458
5740.0,-0.894,0.005,0.371,-6.53,17.993,0.272,-0.98,0.204,-0.102,-1.763,-0.361,1.171,-1.421,0.395,0.94,-26.94,185.068,-132.746
5760.0,-0.952,0.058,0.473,-4.435,18.359,0.014,-0.99,0.194,-0.107,-1.737,0.132,1.004,-1.318,0.277,1.051,-11.978,162.591,-115.941
5780.0,-0.979,0.033,0.425,-4.142,14.215,-1.814,-0.991,0.196,-0.109,-0.884,-0.153,0.749,-1.204,0.366,0.964,12.143,169.306,-108.375
5800.0,-0.949,-0.003,0.314,-7.625,13.308,-2.48,-0.978,0.21,-0.11,-0.966,0.038,-0.19,-1.368,0.462,0.787,31.996,170.479,-102.956
5820.0,-0.96,0.004,0.314,-7.708,15.106,-2.857,-0.982,0.201,-0.111,-1.892,0.912,-0.409,-1.49,0.561,0.871,6.267,132.727,-75.157
5840.0,-1.013,0.049,0.34,-7.078,12.132,-3.231,-0.988,0.198,-0.108,-2.706,1.611,-0.42,-1.323,0.675,1.051,-37.325,101.36,-41.191
5860.0,-1.014,0.092,0.287,-5.017,8.424,-2.728,-0.995,0.191,-0.115,-1.968,0.648,-0.257,-1.048,0.38,1.045,-55.44,108.628,-10.98
5880.0,-0.971,0.049,0.247,-5.67,12.947,-0.211,-0.994,0.183,-0.114,-0.345,-0.013,-0.31,-1.225,0.44,0.917,-79.141,108.361,9.741
5900.0,-0.985,-0.041,0.274,-11.967,14.548,2.725,-0.992,0.185,-0.11,0.025,-7.742,-0.267,-1.151,0.125,0.837,-58.395,126.427,23.811
5920.0,-1.015,-0.035,0.283,-12.108,11.73,1.587,-0.991,0.197,-0.115,-0.121,-13.047,-0.143,-1.307,-0.023,0.57,-74.988,97.165,18.004
5940.0,-1.011,0.026,0.266,-6.042,9.187,-0.499,-0.984,0.211,-0.118,-0.808,-1.059,-0.831,-0.815,0.076,1.158,10.873,72.086,28.292
5960.0,-1.003,0.048,0.264,1.652,9.052,-0.576,-0.99,0.198,-0.12,-0.566,-2.015,-1.4,-1.123,0.234,0.867,-36.323,-7.631,13.517
5980.0,-1.018,0.032,0.281,2.958,9.194,1.207,-0.998,0.189,-0.127,-0.258,-2.972,-1.027,-0.842,0.061,0.573,11.623,9.873,2.695
6000.0,-1.028,-0.019,0.295,1.031,8.542,1.907,-0.994,0.186,-0.125,-0.359,-3.212,-0.203,-0.91,0.199,0.391,18.45,-2.362,-3.975
6020.0,-1.013,-0.033,0.299,-2.665,6.455,1.843,-0.993,0.179,-0.123,1.539,-4.128,-0.2,-0.879,0.259,0.241,20.139,0.196,-8.341
6040.0,-1.003,-0.002,0.283,-7.067,-0.131,2.256,-0.972,0.205,-0.119,1.045,-4.907,-0.446,-0.903,0.323,0.182,5.373,-6.221,-8.885
6060.0,-0.986,-0.006,0.267,-6.925,-3.695,2.029,-0.99,0.191,-0.109,0.914,-5.39,-0.055,-0.912,0.312,0.1,-17.857,-6.643,-7.052
6080.0,-0.969,-0.013,0.269,-0.734,-2.277,-0.741,-0.998,0.179,-0.106,1.963,-5.317,0.233,-0.92,0.276,0.05,-28.047,-4.335,-4.042
6100.0,-0.989,0.0,0.293,3.143,-3.085,-1.844,-0.979,0.175,-0.108,3.842,-5.233,1.092,-0.96,0.233,0.047,-31.915,-1.661,-1.753
6120.0,-0.998,0.003,0.242,2.178,-6.165,-2.054,-0.992,0.19,-0.106,2.788,-3.925,1.871,-0.978,0.182,0.079,-30.72,0.404,-0.211
6140.0,-0.98,0.023,0.272,2.542,-3.948,-2.226,-0.987,0.175,-0.109,2.734,-4.129,2.266,-0.969,0.111,0.122,-17.611,0.633,-0.137
6160.0,-0.981,0.009,0.297,3.931,-4.07,-2.764,-0.991,0.189,-0.111,3.128,-3.875,2.865,-0.963,0.107,0.152,1.697,1.112,0.445
6180.0,-1.01,0.009,0.301,5.569,-6.526,-2.919,-0.988,0.184,-0.108,2.414,-3.571,3.206,-0.963,0.134,0.175,11.612,3.564,0.034
6200.0,-1.023,0.031,0.267,5.465,-8.984,-2.187,-0.996,0.197,-0.107,1.78,-3.702,3.417,-0.969,0.184,0.201,11.876,4.156,-0.928
6220.0,-0.992,0.024,0.255,3.472,-5.358,-1.155,-0.986,0.198,-0.112,1.488,-3.236,2.564,-0.99,0.194,0.245,5.676,0.714,-1.072
6240.0,-0.974,0.015,0.284,1.892,-2.333,-0.829,-0.986,0.201,-0.109,1.026,-2.992,1.623,-0.974,0.181,0.26,3.605,0.625,-1.032
6260.0,-0.976,0.011,0.297,0.834,-2.104,-0.771,-0.987,0.191,-0.11,0.56,-2.45,0.35,-0.978,0.171,0.246,6.098,0.575,-1.434
6280.0,-0.986,0.019,0.292,0.772,-3.392,-0.839,-0.992,0.193,-0.106,0.447,-2.904,0.179,-0.984,0.171,0.226,9.12,-1.977,-3.222
6300.0,-1.0,0.014,0.302,1.274,-7.38,-0.686,-0.988,0.196,-0.109,0.218,-2.577,-0.137,-0.978,0.193,0.226,9.312,-4.665,-4.66
6320.0,-0.992,0.014,0.297,2.014,-11.126,-0.632,-0.99,0.195,-0.107,0.084,-2.631,-0.462,-0.965,0.208,0.221,6.714,-6.97,-4.08
6340.0,-0.984,0.005,0.3,3.782,-10.434,-1.028,-0.987,0.19,-0.107,0.192,-2.453,-0.681,-0.941,0.213,0.197,3.613,-6.624,-2.71
6360.0,-1.013,0.013,0.317,4.895,-13.155,-1.537,-0.995,0.189,-0.107,0.784,-2.793,-0.582,-0.948,0.21,0.17,0.947,-4.537,-1.812
6380.0,-1.006,0.026,0.292,3.958,-14.088,-0.67,-0.99,0.19,-0.102,1.102,-2.688,-0.81,-0.97,0.195,0.167,0.394,-4.091,-1.269
6400.0,-0.979,0.021,0.292,3.587,-12.001,0.208,-0.988,0.194,-0.105,0.685,-2.023,-1.183,-0.976,0.182,0.19,1.493,-4.215,-1.037
6420.0,-0.971,0.01,0.3,3.795,-10.287,-0.125,-0.989,0.185,-0.109,0.303,-1.82,-1.153,-0.985,0.172,0.22,3.869,-5.426,-1.039
6440.0,-0.972,0.011,0.313,4.422,-10.617,-0.485,-0.991,0.182,-0.109,0.365,-1.977,-0.662,-0.982,0.162,0.239,8.241,-7.894,-1.827
6460.0,-0.977,0.018,0.316,4.436,-12.151,-0.663,-0.994,0.182,-0.108,0.788,-2.148,-0.039,-0.96,0.149,0.261,13.936,-10.778,-3.464
6480.0,-0.982,0.026,0.317,3.677,-12.826,-0.632,-0.993,0.182,-0.108,1.101,-2.121,0.091,-0.955,0.144,0.293,19.188,-12.618,-4.173
6500.0,-0.983,0.025,0.319,3.329,-12.775,-0.432,-0.988,0.187,-0.108,1.021,-1.933,-0.094,-0.936,0.146,0.372,19.474,-15.812,-3.424
6520.0,-0.986,0.013,0.327,3.487,-12.998,-0.399,-0.988,0.191,-0.106,0.375,-1.56,-0.484,-0.95,0.146,0.478,19.545,-20.016,-0.875
6540.0,-0.988,0.008,0.333,3.78,-14.785,-0.435,-0.992,0.186,-0.108,0.214,-1.479,-0.991,-1.022,0.142,0.531,26.453,-25.739,3.146
6560.0,-0.973,0.02,0.326,3.337,-15.321,-0.16,-0.991,0.183,-0.109,0.906,-1.741,-1.365,-1.067,0.15,0.592,29.867,-42.037,8.147
6580.0,-0.957,0.027,0.329,2.839,-14.495,0.241,-0.991,0.185,-0.107,1.042,-1.74,-1.799,-1.113,0.234,0.745,20.999,-58.688,11.496
6600.0,-0.955,0.029,0.34,2.4,-14.567,0.559,-0.993,0.184,-0.109,0.283,-1.425,-1.958,-1.188,0.319,1.088,-7.403,-84.192,17.776
6620.0,-0.96,0.026,0.327,1.327,-16.664,0.112,-0.988,0.175,-0.112,-0.047,-1.232,-1.702,-1.302,0.247,1.136,-15.051,-105.435,30.842
6640.0,-0.957,0.049,0.295,-0.01,-13.777,0.125,-0.99,0.172,-0.112,0.325,-1.156,-1.529,-1.344,0.261,1.124,-0.287,-141.785,46.458
6660.0,-0.979,0.028,0.289,-2.777,-10.008,0.389,-0.986,0.175,-0.109,-0.485,-0.984,-0.798,-1.332,0.255,1.203,12.12,-170.15,58.205
6680.0,-1.002,0.017,0.318,-3.287,-8.201,0.14,-1.001,0.17,-0.111,-0.4,-1.085,-0.331,-1.378,0.142,1.246,35.556,-208.286,68.669
6700.0,-0.987,0.053,0.347,-2.958,-5.377,0.134,-0.994,0.182,-0.115,-0.528,-1.412,-0.182,-1.37,0.115,1.291,56.771,-232.736,76.215
6720.0,-0.983,0.042,0.366,-4.043,-5.322,-0.145,-0.987,0.188,-0.112,-1.489,-1.58,-0.28,-1.342,0.217,1.267,75.383,-234.832,83.406
6740.0,-0.98,0.011,0.346,-5.105,-5.843,-0.205,-0.99,0.168,-0.11,-1.743,-1.47,-0.192,-1.394,0.354,1.205,71.693,-248.881,87.346
6760.0,-0.955,0.04,0.368,-3.667,-7.159,-0.741,-0.991,0.169,-0.111,-0.7,-1.535,0.606,-1.444,0.427,1.162,52.64,-274.19,83.79
6780.0,-0.934,0.045,0.374,-2.421,-8.238,-1.06,-0.993,0.172,-0.114,-0.751,-1.925,1.582,-1.499,0.523,1.089,40.676,-298.136,84.238
6800.0,-0.953,0.025,0.377,-2.735,-9.38,-1.901,-0.996,0.171,-0.11,-1.185,-2.066,2.543,-1.481,0.533,0.986,32.204,-312.396,89.009
6820.0,-0.96,0.014,0.38,-2.799,-9.216,-2.028,-0.997,0.171,-0.115,-1.12,-2.31,3.64,-1.411,0.6,0.918,19.247,-324.649,93.185
6840.0,-0.973,0.012,0.404,-1.733,-7.675,-1.65,-0.997,0.17,-0.115,-1.185,-2.759,3.717,-1.437,0.553,0.85,25.178,-331.133,110.662
6860.0,-0.961,0.019,0.426,-0.72,-7.762,-1.369,-0.996,0.176,-0.116,-0.36,-3.37,3.909,-1.315,0.553,0.845,42.009,-337.095,126.066
6880.0,-0.95,0.031,0.408,-0.323,-6.718,-1.062,-0.991,0.187,-0.108,0.127,-3.429,3.033,-1.143,0.604,0.633,69.09,-331.03,139.02
6900.0,-0.933,0.008,0.407,-0.07,-4.06,-1.05,-0.993,0.194,-0.105,-0.258,-3.094,1.746,-1.062,0.714,0.598,65.615,-329.105,153.582
6920.0,-0.916,0.001,0.402,1.302,0.529,-0.664,-0.991,0.193,-0.11,-0.67,-2.908,0.369,-0.934,0.751,0.59,61.871,-342.743,170.664
6940.0,-0.893,-0.012,0.381,0.439,7.805,-0.028,-0.988,0.186,-0.111,-0.611,-2.745,-0.306,-0.72,0.792,0.643,31.99,-352.31,180.32
6960.0,-0.902,-0.011,0.402,-0.198,14.483,-0.39,-0.993,0.175,-0.111,-0.265,-2.926,-0.165,-0.671,0.603,0.589,31.99,-348.11,191.31
6980.0,-0.916,0.017,0.412,-2.193,15.306,-0.558,-0.993,0.172,-0.112,0.319,-3.229,0.325,-0.517,0.399,0.365,32.079,-344.744,192.624
7000.0,-0.917,0.055,0.4,-2.16,17.599,-0.132,-0.995,0.177,-0.112,0.739,-3.604,0.738,-0.356,0.486,0.15,36.664,-320.495,195.282
7020.0,-0.932,0.052,0.403,-0.579,18.811,0.688,-0.991,0.18,-0.111,0.614,-3.527,0.619,-0.34,0.421,0.114,36.16,-314.017,194.51
7040.0,-0.98,-0.015,0.363,-2.598,21.157,0.151,-0.99,0.176,-0.109,0.315,-3.275,0.762,-0.106,0.224,-0.093,44.072,-314.932,191.099
7060.0,-1.01,0.025,0.372,-2.683,20.354,-1.538,-0.991,0.174,-0.105,0.03,-2.622,1.078,0.023,0.181,-0.142,30.306,-279.017,181.405
7080.0,-1.013,0.057,0.398,-2.692,15.933,-1.238,-0.991,0.179,-0.107,-0.356,-2.374,1.277,0.15,0.082,-0.258,-26.471,-222.995,164.154
7100.0,-1.016,0.054,0.399,-4.324,7.412,-1.337,-0.992,0.182,-0.111,-0.647,-2.365,1.252,0.319,-0.202,-0.52,-45.55,-205.625,142.638
7120.0,-1.015,0.003,0.376,-5.886,5.25,-2.485,-0.991,0.18,-0.107,-0.646,-2.331,0.932,0.51,-0.274,-0.626,-33.132,-165.981,119.758
7140.0,-1.002,-0.03,0.345,-4.907,4.421,-2.842,-0.987,0.181,-0.106,-0.551,-2.461,0.636,0.514,-0.236,-0.636,-20.972,-141.555,96.711
7160.0,-0.983,-0.015,0.307,-3.223,0.114,-1.462,-0.989,0.183,-0.107,-1.087,-1.489,0.56,0.521,-0.212,-0.617,-15.867,-137.43,76.271
7180.0,-0.958,0.027,0.286,-3.584,-0.005,-0.584,-0.992,0.177,-0.108,-1.33,-1.12,0.768,0.708,-0.188,-0.599,-11.712,-96.697,60.868
7200.0,-0.949,0.042,0.338,1.345,-0.983,-0.553,-0.99,0.177,-0.106,-1.413,-1.079,1.029,0.873,-0.174,-0.612,-7.251,-25.841,46.622
7220.0,-0.956,0.017,0.302,1.965,-8.914,-0.42,-0.99,0.179,-0.103,-1.523,-0.985,1.013,1.0,-0.203,-0.484,-8.624,-14.479,32.273
7240.0,-0.978,-0.021,0.296,1.964,-11.869,-0.084,-1.003,0.165,-0.114,-0.777,-1.066,1.472,1.046,-0.146,-0.443,0.127,4.396,29.637
7260.0,-0.994,-0.013,0.301,1.717,-13.543,-0.248,-0.996,0.18,-0.114,-0.83,-1.12,1.625,1.078,-0.111,-0.418,7.763,15.585,11.497
7280.0,-0.975,0.045,0.28,1.092,-13.852,-0.389,-0.987,0.182,-0.111,-0.638,-1.095,0.791,1.055,-0.07,-0.371,16.668,14.782,3.324
7300.0,-0.954,0.05,0.272,1.76,-12.867,0.0,-0.987,0.18,-0.108,-0.37,-0.863,-0.002,1.097,-0.082,-0.191,30.137,38.622,-4.204
7320.0,-0.954,-0.002,0.285,3.217,-11.277,0.21,-0.994,0.182,-0.115,-0.371,-0.817,-0.714,1.09,-0.008,-0.109,33.4,41.008,-7.874
7340.0,-0.975,-0.012,0.327,3.915,-8.844,0.384,-0.999,0.178,-0.12,-0.572,-1.106,-1.072,1.071,-0.021,-0.033,37.074,41.874,-11.053
7360.0,-0.993,0.008,0.353,2.415,-8.692,0.173,-0.986,0.177,-0.116,0.452,-1.272,-1.26,1.067,-0.007,0.012,39.359,34.796,-14.637
7380.0,-0.982,0.026,0.354,1.132,-11.595,-0.299,-0.988,0.182,-0.111,0.904,-1.539,-1.184,1.089,-0.011,0.026,35.842,38.431,-19.039
7400.0,-0.957,0.015,0.33,1.502,-13.295,-0.592,-0.994,0.168,-0.116,-0.118,-1.403,-0.944,0.972,0.067,0.077,31.28,35.208,-20.251
7420.0,-0.944,0.007,0.327,3.298,-10.904,-0.847,-0.993,0.161,-0.118,0.281,-1.4,-0.413,0.967,0.085,0.153,27.315,34.948,-21.463
7440.0,-0.943,0.018,0.337,4.433,-8.154,-1.318,-0.997,0.169,-0.118,1.445,-2.186,0.29,0.948,0.074,0.171,30.476,31.178,-18.172
7460.0,-0.948,0.029,0.356,4.67,-5.168,-1.598,-0.994,0.17,-0.116,1.294,-2.497,0.792,0.998,-0.039,0.095,34.547,34.069,-20.595
7480.0,-0.953,0.022,0.387,4.335,-3.116,-1.74,-0.992,0.171,-0.111,0.69,-2.365,1.146,0.935,0.019,0.006,59.36,52.99,-23.03
7500.0,-0.953,0.02,0.392,3.204,-2.441,-1.798,-0.993,0.173,-0.116,0.151,-2.082,1.309,0.841,0.074,-0.136,93.751,83.588,-29.819
7520.0,-0.955,0.032,0.382,2.729,-2.852,-1.804,-0.993,0.173,-0.121,0.168,-2.484,1.224,0.764,0.126,-0.179,98.086,91.631,-30.988
7540.0,-0.937,0.03,0.368,3.204,-4.016,-1.916,-0.99,0.174,-0.116,0.532,-2.685,0.964,0.747,0.116,-0.171,83.479,104.746,-38.275
7560.0,-0.928,0.013,0.357,3.692,-1.136,-1.55,-0.996,0.17,-0.113,0.63,-2.919,1.34,0.724,0.062,-0.228,60.416,125.7,-48.181
7580.0,-0.947,0.009,0.373,3.22,1.12,-1.75,-0.993,0.171,-0.111,0.189,-2.863,2.051,0.636,0.033,-0.22,56.423,151.985,-61.8
7600.0,-0.979,0.005,0.397,1.768,-0.195,-1.991,-0.991,0.171,-0.116,0.318,-2.981,2.417,0.57,-0.07,-0.28,58.274,170.772,-79.75
7620.0,-0.984,0.041,0.404,3.15,-5.53,-2.38,-0.993,0.17,-0.116,0.354,-2.989,2.728,0.54,-0.097,-0.294,64.449,189.005,-103.585
7640.0,-0.955,0.042,0.381,6.09,-7.07,-2.59,-0.998,0.172,-0.116,0.316,-3.199,2.8,0.518,-0.049,-0.257,65.559,216.578,-127.475
7660.0,-0.931,-0.008,0.355,10.285,-5.245,-2.453,-0.988,0.181,-0.115,0.536,-3.203,2.276,0.443,0.04,-0.18,62.101,246.863,-149.982
7680.0,-0.931,-0.027,0.355,10.745,-0.78,-2.728,-0.987,0.179,-0.11,0.838,-3.248,2.113,0.314,0.115,-0.061,52.34,261.863,-168.536
7700.0,-0.975,-0.025,0.354,6.59,-5.989,-3.418,-0.998,0.165,-0.109,1.107,-3.296,2.815,0.196,0.208,0.05,38.977,279.196,-185.933
7720.0,-0.966,0.061,0.33,7.206,-6.022,-2.682,-0.999,0.167,-0.111,1.077,-3.27,3.511,0.057,0.303,0.042,34.756,313.81,-210.203
7740.0,-0.995,0.028,0.391,13.599,-7.365,-3.681,-0.99,0.178,-0.118,1.004,-3.537,3.451,-0.296,0.438,0.034,19.301,332.94,-237.783
7760.0,-0.977,0.016,0.333,14.292,-13.036,-3.152,-0.989,0.18,-0.12,1.283,-3.95,3.029,-0.516,0.535,0.076,-23.876,335.065,-247.765
7780.0,-0.938,-0.015,0.324,12.167,-10.734,-1.799,-0.991,0.181,-0.11,1.468,-4.071,2.629,-0.696,0.591,0.2,-64.804,344.935,-246.853
7800.0,-0.925,0.024,0.329,8.75,-3.92,-1.05,-0.99,0.183,-0.105,0.818,-3.578,2.289,-1.048,0.552,0.354,-80.006,359.64,-231.53
7820.0,-0.959,0.04,0.389,2.94,0.42,-1.12,-0.992,0.179,-0.107,-0.195,-2.779,2.013,-1.165,0.403,0.402,-95.18,365.333,-224.48
7840.0,-0.964,0.084,0.423,-3.441,-0.252,-0.601,-0.991,0.174,-0.11,-0.841,-2.393,1.77,-1.315,0.334,0.514,-119.807,375.311,-221.634
7860.0,-0.957,0.11,0.439,-2.212,-2.99,-2.047,-0.988,0.174,-0.106,-0.807,-2.494,1.82,-1.488,0.296,0.667,-131.486,376.278,-215.165
7880.0,-0.905,0.055,0.377,-2.793,-4.241,-2.308,-0.993,0.178,-0.107,-0.197,-2.551,1.801,-1.621,0.205,0.766,-130.325,365.562,-201.355
7900.0,-0.864,0.0,0.385,-5.47,7.408,-1.142,-0.987,0.184,-0.102,-1.277,-1.653,1.633,-2.053,0.092,0.972,-115.492,333.826,-185.192
7920.0,-0.925,0.0,0.492,-4.627,10.27,-1.519,-0.99,0.177,-0.103,-1.998,-0.767,1.791,-2.299,-0.041,1.368,-99.604,223.515,-162.189
7940.0,-0.931,0.065,0.43,-3.541,2.936,-2.982,-0.987,0.183,-0.11,-2.376,-0.083,1.88,-1.796,-0.415,1.042,10.885,213.308,-133.596
7960.0,-0.871,0.073,0.382,-5.64,4.709,-2.539,-0.99,0.176,-0.117,-2.283,0.202,1.732,-1.717,-0.365,0.577,129.282,226.319,-116.021
7980.0,-0.852,0.035,0.439,-6.163,13.081,-2.821,-0.993,0.179,-0.112,-1.417,-0.202,1.439,-1.741,0.031,0.535,181.362,168.844,-83.236
8000.0,-0.866,0.016,0.492,-0.527,16.205,-4.248,-0.978,0.192,-0.11,-2.305,0.811,0.794,-1.52,0.299,0.855,182.0,144.04,-58.277
8020.0,-0.906,0.064,0.384,1.37,16.73,-4.039,-1.002,0.184,-0.116,-2.794,0.48,0.711,-1.465,0.511,1.089,134.699,118.086,-48.716
8040.0,-0.923,0.063,0.328,-10.717,22.494,-1.132,-0.993,0.179,-0.118,-1.272,-0.554,-0.175,-1.335,0.352,0.942,114.098,151.773,-24.359
8060.0,-0.966,0.01,0.329,-23.908,24.446,1.191,-0.984,0.184,-0.116,-1.26,-0.014,-0.646,-1.331,0.381,0.593,109.786,170.321,-17.187
8080.0,-1.055,-0.017,0.361,-26.203,14.379,0.631,-0.996,0.193,-0.117,-2.011,-0.481,-1.387,-1.331,0.52,0.437,110.02,169.242,-26.983
8100.0,-1.045,-0.013,0.348,-12.28,10.929,-1.011,-0.99,0.183,-0.123,-2.225,-0.536,-1.531,-1.311,0.607,0.417,104.19,123.508,-33.704
8120.0,-1.013,-0.017,0.361,1.336,11.661,-0.612,-1.004,0.166,-0.123,-1.606,-1.233,-1.136,-1.242,0.53,0.63,72.738,87.775,-23.841
8140.0,-0.984,-0.033,0.336,5.209,11.664,1.28,-0.993,0.172,-0.12,-0.567,-1.92,-0.702,-0.997,0.283,1.178,122.664,53.204,-5.055
8160.0,-0.969,-0.019,0.315,3.382,13.428,2.324,-0.992,0.175,-0.122,-0.436,-2.03,-0.396,-1.024,0.312,1.11,150.216,18.066,-10.819
8180.0,-0.999,-0.023,0.315,-0.322,13.932,2.065,-0.989,0.171,-0.123,-0.11,-2.433,-0.131,-1.087,0.725,0.964,122.5,11.48,-16.52
8200.0,-1.009,-0.014,0.296,-1.631,12.854,2.993,-0.991,0.155,-0.118,0.628,-3.01,0.918,-0.988,0.842,0.756,90.16,34.37,-2.24
8220.0,-1.0,-0.009,0.322,1.339,12.442,2.68,-1.009,0.123,-0.126,4.9,-5.062,3.401,-1.063,0.705,0.47,50.03,-15.667,0.899
8240.0,-0.978,0.004,0.326,2.033,9.325,1.439,-0.998,0.152,-0.131,5.421,-5.139,3.12,-1.036,0.589,0.208,-26.766,-17.253,3.243
8260.0,-0.978,0.001,0.283,2.435,8.684,-0.315,-0.994,0.191,-0.111,1.039,-4.612,2.184,-1.024,0.408,0.031,-66.508,-27.833,8.599
8280.0,-0.997,-0.005,0.254,5.209,6.475,-1.044,-1.005,0.18,-0.089,-0.245,-4.364,2.957,-0.99,0.38,-0.017,-89.39,-20.44,18.13
8300.0,-0.999,0.005,0.25,11.196,8.06,-2.755,-0.986,0.185,-0.107,-3.092,-1.339,2.753,-1.003,0.286,-0.022,-100.598,-22.449,24.287
8320.0,-1.021,0.039,0.32,14.585,8.002,-3.422,-0.999,0.157,-0.132,-3.011,-2.607,3.956,-0.989,0.022,-0.016,-92.666,-19.72,24.256
8340.0,-0.993,0.026,0.305,12.81,0.914,-3.293,-0.997,0.151,-0.125,0.262,-4.384,6.037,-0.939,0.088,-0.03,-73.456,-15.57,26.164
8360.0,-0.968,0.019,0.311,8.819,0.635,-3.571,-0.994,0.16,-0.113,3.006,-4.882,7.278,-0.926,0.114,-0.057,-54.786,-12.445,25.563
8380.0,-0.984,0.017,0.312,7.598,0.82,-4.327,-0.993,0.193,-0.111,3.046,-4.81,7.199,-0.938,0.148,-0.061,-42.571,-8.706,22.697
8400.0,-1.001,0.035,0.291,6.577,1.046,-4.282,-0.983,0.2,-0.114,2.384,-4.743,5.544,-0.977,0.208,-0.057,-44.843,-9.395,20.8
8420.0,-1.005,0.037,0.294,6.092,0.078,-3.941,-0.982,0.196,-0.115,2.453,-4.866,4.339,-0.968,0.196,-0.025,-58.564,-11.417,17.981
8440.0,-0.98,0.012,0.29,6.953,0.187,-3.449,-0.985,0.199,-0.109,0.933,-4.492,3.678,-0.946,0.222,-0.025,-58.32,-8.089,13.934
8460.0,-0.958,0.002,0.292,8.441,1.097,-3.371,-0.984,0.193,-0.108,-0.601,-3.975,3.513,-0.94,0.181,-0.028,-55.559,-1.626,9.653
8480.0,-0.967,0.02,0.285,8.47,0.712,-2.955,-0.991,0.186,-0.104,-0.969,-3.621,3.624,-0.949,0.072,0.011,-55.204,1.398,6.498
8500.0,-0.984,0.035,0.288,7.915,0.59,-2.76,-0.993,0.181,-0.109,-0.756,-3.419,4.051,-0.986,0.092,0.096,-55.055,2.552,4.065
8520.0,-0.998,0.025,0.303,5.905,-0.588,-2.485,-0.991,0.184,-0.109,-0.197,-3.527,4.324,-0.985,0.089,0.155,-53.731,3.397,2.718
8540.0,-0.996,0.033,0.299,4.172,-3.238,-2.939,-0.987,0.188,-0.106,0.223,-3.244,4.146,-0.968,0.057,0.216,-47.397,3.606,0.67
8560.0,-0.99,0.038,0.287,3.125,-3.987,-2.888,-0.989,0.197,-0.107,0.26,-3.226,3.947,-0.987,0.075,0.273,-37.405,2.676,-4.421
8580.0,-0.986,0.037,0.285,1.891,-4.395,-2.67,-0.99,0.204,-0.107,-0.637,-3.44,3.277,-0.994,0.034,0.28,-10.797,2.32,-4.712
8600.0,-0.981,0.026,0.291,1.449,-4.253,-2.51,-0.99,0.203,-0.123,-1.053,-3.278,2.896,-0.996,0.087,0.282,8.494,-0.961,-5.035
8620.0,-0.983,0.015,0.303,1.248,-4.13,-2.251,-0.992,0.207,-0.132,-1.564,-4.18,3.256,-0.983,0.175,0.261,12.839,-4.913,-5.315
8640.0,-0.996,0.014,0.305,1.302,-4.534,-2.17,-0.98,0.205,-0.096,-1.806,-5.202,3.556,-0.961,0.241,0.225,4.95,-7.067,-5.11
8660.0,-0.999,0.02,0.299,1.171,-5.43,-1.906,-0.996,0.208,-0.1,-1.633,-4.52,2.77,-0.959,0.263,0.223,-3.098,-9.316,-3.862
8680.0,-0.988,0.02,0.303,1.016,-6.398,-1.094,-0.986,0.196,-0.102,-1.037,-2.975,1.772,-0.946,0.268,0.284,-11.2,-14.265,-1.658
8700.0,-0.98,0.01,0.31,1.137,-7.962,-0.755,-0.99,0.198,-0.108,-0.842,-3.118,1.705,-0.969,0.265,0.376,-16.753,-19.21,1.319
8720.0,-0.979,0.01,0.318,1.042,-9.469,-0.467,-0.99,0.206,-0.113,-1.186,-3.13,1.687,-0.992,0.252,0.454,-20.315,-24.062,3.413
8740.0,-0.984,0.019,0.327,0.77,-10.375,-0.329,-0.982,0.195,-0.101,-1.357,-2.983,1.256,-1.015,0.226,0.521,-28.527,-26.809,4.248
8760.0,-0.985,0.009,0.328,1.085,-10.866,-0.42,-0.987,0.195,-0.099,-0.719,-2.661,0.602,-1.069,0.25,0.762,-39.671,-51.749,9.495
8780.0,-0.981,0.011,0.309,0.91,-11.173,-0.175,-0.985,0.198,-0.106,-1.171,-2.131,0.003,-1.114,0.237,0.919,-44.38,-72.149,14.619
8800.0,-0.969,0.015,0.286,0.464,-10.08,0.035,-0.99,0.193,-0.103,-0.995,-2.03,-0.24,-1.248,0.21,1.006,-43.574,-94.608,20.767
8820.0,-0.962,0.013,0.291,0.886,-6.603,-0.143,-0.99,0.189,-0.104,-0.004,-2.05,-0.333,-1.288,0.256,1.093,-34.945,-124.441,31.316
8840.0,-0.98,-0.001,0.316,0.804,-6.117,-0.072,-0.99,0.193,-0.104,0.116,-2.028,-0.398,-1.251,0.253,1.273,-6.913,-135.637,48.283
8860.0,-0.986,-0.012,0.324,0.235,-6.917,-0.081,-0.985,0.187,-0.103,0.306,-1.612,-0.126,-1.359,0.339,1.364,2.627,-171.937,59.849
8880.0,-0.981,0.034,0.314,0.994,-9.289,-1.336,-0.992,0.188,-0.096,0.413,-1.51,0.443,-1.448,0.285,1.38,3.008,-191.599,60.956
8900.0,-0.995,0.075,0.292,2.66,-11.079,-2.206,-0.998,0.198,-0.105,-0.291,-2.38,0.802,-1.558,0.293,1.311,2.243,-233.138,68.779
8920.0,-1.002,0.034,0.276,2.437,-12.766,-1.717,-0.996,0.191,-0.105,-0.466,-2.298,1.863,-1.533,0.338,1.346,-5.75,-260.106,74.955
8940.0,-0.972,-0.007,0.282,0.68,-10.454,-1.321,-0.994,0.179,-0.102,-1.175,-2.225,2.142,-1.646,0.239,1.248,3.963,-277.406,86.069
8960.0,-0.958,0.012,0.339,0.21,-3.78,-0.91,-0.982,0.2,-0.106,0.116,-3.074,2.427,-1.6,0.204,1.228,31.169,-301.354,84.811
8980.0,-0.973,0.031,0.372,1.32,-5.398,-0.341,-0.997,0.197,-0.105,-0.417,-2.941,2.78,-1.71,0.304,1.147,41.734,-325.274,88.947
9000.0,-0.976,0.034,0.375,0.692,-6.669,0.509,-0.991,0.189,-0.102,0.0,-3.15,3.22,-1.682,0.315,0.939,50.979,-335.103,87.555
9020.0,-0.963,0.039,0.386,-0.265,-7.342,0.616,-0.992,0.194,-0.098,0.138,-3.083,4.037,-1.515,0.348,0.686,58.368,-333.628,84.853
9040.0,-0.948,0.009,0.369,-0.076,-6.475,0.835,-0.994,0.194,-0.101,-0.342,-3.744,5.188,-1.456,0.473,0.55,66.444,-335.614,88.024
9060.0,-0.934,0.006,0.353,-0.07,-1.015,0.84,-0.987,0.205,-0.106,-0.617,-4.113,5.203,-1.408,0.458,0.545,70.824,-355.188,99.455
9080.0,-0.928,0.043,0.376,-0.261,9.832,0.436,-0.987,0.211,-0.1,-0.335,-4.067,4.774,-1.309,0.501,0.472,72.669,-377.203,121.64
9100.0,-0.944,0.054,0.404,-3.665,14.466,0.164,-0.993,0.207,-0.102,1.002,-4.311,3.644,-1.056,0.567,0.442,70.178,-379.459,139.589
9120.0,-0.967,0.051,0.384,-9.423,15.099,0.25,-0.979,0.226,-0.101,0.526,-3.901,2.146,-0.805,0.493,0.396,65.558,-361.506,147.585
9140.0,-0.94,0.033,0.368,-14.538,14.264,-0.286,-0.98,0.221,-0.097,0.008,-2.726,0.164,-0.707,0.492,0.354,66.48,-344.453,157.778
9160.0,-0.91,0.022,0.348,-15.178,17.778,-1.319,-0.983,0.21,-0.097,0.14,-2.38,-1.12,-0.615,0.531,0.279,63.549,-338.081,166.673
9180.0,-0.935,0.015,0.384,-12.483,17.534,-1.445,-0.987,0.212,-0.1,-0.425,-1.881,-1.988,-0.437,0.505,0.178,50.297,-333.272,170.529
9200.0,-0.971,0.005,0.371,-6.012,14.381,-1.615,-0.991,0.208,-0.098,-0.488,-1.755,-2.431,-0.175,0.399,0.074,40.395,-320.255,170.671
9220.0,-0.983,-0.01,0.326,-3.907,10.746,-1.594,-0.989,0.197,-0.101,0.434,-1.875,-2.387,0.041,0.27,-0.024,26.72,-290.066,168.004
9240.0,-0.973,-0.013,0.326,-3.653,8.319,-0.778,-0.987,0.199,-0.098,0.98,-1.54,-2.66,0.118,0.173,-0.108,2.554,-257.306,157.421
9260.0,-0.975,-0.015,0.32,-5.04,5.409,-0.733,-0.989,0.199,-0.097,0.336,-1.05,-2.658,0.127,0.1,-0.215,-8.398,-236.204,140.047
9280.0,-0.97,0.013,0.299,-3.833,4.638,-1.041,-0.988,0.198,-0.103,0.147,-1.05,-2.334,0.186,0.043,-0.279,-9.249,-224.066,123.582
9300.0,-1.002,0.015,0.309,-3.27,3.392,-1.304,-0.993,0.197,-0.101,0.391,-1.05,-2.358,0.541,0.015,-0.304,-19.361,-203.405,105.82
9320.0,-1.031,-0.0,0.312,-4.19,0.431,-1.269,-0.995,0.197,-0.105,0.236,-1.181,-2.644,0.696,-0.028,-0.397,-32.287,-161.735,91.159
9340.0,-1.025,0.004,0.298,-5.711,-2.785,-0.425,-0.988,0.191,-0.104,0.146,-1.19,-2.525,0.72,-0.092,-0.419,-25.21,-140.814,75.749
9360.0,-1.005,-0.0,0.283,-6.352,-3.837,-0.254,-0.984,0.193,-0.098,-0.767,-0.32,-2.471,0.907,-0.122,-0.439,-23.427,-122.284,60.886
9380.0,-0.976,0.002,0.269,-5.48,-4.32,-0.24,-0.993,0.192,-0.103,-1.372,-0.582,-2.004,1.138,-0.11,-0.456,-28.44,-99.983,47.823
9400.0,-0.961,0.016,0.266,-2.646,-4.45,0.019,-0.999,0.182,-0.109,-1.267,-0.63,-1.571,1.01,-0.119,-0.545,-32.255,-103.892,34.134
9420.0,-0.977,0.008,0.278,-2.412,-4.919,0.469,-0.99,0.189,-0.107,-0.39,-0.768,-2.019,1.339,-0.214,-0.573,12.207,10.535,24.288
9440.0,-1.003,-0.006,0.27,-3.781,-8.012,0.922,-0.989,0.187,-0.107,-0.093,-1.185,-1.979,1.344,-0.158,-0.534,29.751,52.122,14.841
9460.0,-1.0,0.005,0.268,-2.668,-9.048,1.153,-0.992,0.185,-0.103,-0.556,-1.244,-1.462,0.961,-0.077,-0.526,37.922,23.683,4.797
9480.0,-0.996,0.018,0.225,-1.803,-6.432,1.462,-0.991,0.185,-0.102,-1.194,-1.19,-1.174,1.068,-0.031,-0.451,44.676,61.388,0.63
9500.0,-0.999,0.008,0.203,-3.979,-3.475,2.611,-0.995,0.182,-0.108,-1.433,-1.212,-0.807,1.053,0.028,-0.289,43.884,75.04,-6.43
9520.0,-0.997,-0.015,0.287,-3.797,-3.148,3.423,-0.996,0.178,-0.111,-0.495,-1.773,-0.505,0.98,0.051,-0.145,44.526,79.994,-14.068
9540.0,-0.985,-0.02,0.311,-0.946,-6.657,3.232,-0.988,0.184,-0.109,0.147,-1.951,-0.858,0.957,0.071,-0.017,49.493,74.312,-18.896
9560.0,-0.966,-0.012,0.29,1.456,-9.378,2.31,-0.988,0.188,-0.106,0.049,-1.759,-1.367,0.965,0.139,-0.009,48.153,73.924,-21.483
9580.0,-0.948,0.001,0.246,4.244,-8.928,1.121,-0.99,0.183,-0.107,0.191,-1.731,-1.332,1.001,0.158,-0.086,44.58,91.86,-26.705
9600.0,-0.949,-0.007,0.262,6.943,-6.012,0.27,-0.991,0.17,-0.108,0.687,-1.647,-0.779,0.901,0.131,0.043,36.108,98.065,-28.495
9620.0,-0.963,-0.014,0.284,7.77,-4.844,-0.213,-0.995,0.174,-0.107,1.361,-2.124,0.115,0.863,0.058,0.103,31.303,95.46,-33.482
9640.0,-0.975,0.004,0.294,8.4,-4.36,-0.896,-0.997,0.173,-0.109,1.759,-2.506,0.899,0.852,0.043,-0.008,38.37,107.046,-42.479
9660.0,-0.975,0.026,0.305,9.774,-3.002,-1.202,-0.995,0.178,-0.11,1.69,-2.628,1.024,0.837,-0.003,-0.188,44.73,147.936,-57.121
9680.0,-0.979,0.006,0.359,8.511,-3.545,-1.301,-0.993,0.183,-0.111,1.822,-2.928,0.707,0.803,-0.026,-0.204,44.771,185.118,-73.683
9700.0,-0.968,-0.006,0.353,6.847,-5.899,-1.548,-0.989,0.183,-0.108,1.465,-2.879,0.058,0.744,-0.08,-0.087,43.813,184.179,-89.091
9720.0,-0.957,0.017,0.329,6.611,-6.995,-1.66,-0.992,0.188,-0.108,0.475,-3.192,-0.204,0.758,0.044,-0.071,32.2,226.385,-100.893
9740.0,-0.983,0.027,0.326,6.592,-8.303,-1.875,-1.001,0.173,-0.109,0.808,-3.039,0.211,0.57,0.133,-0.114,22.173,244.008,-118.693
9760.0,-1.02,0.022,0.324,7.61,-10.735,-1.989,-1.001,0.17,-0.112,1.248,-3.306,0.918,0.415,0.183,-0.099,2.435,276.705,-131.423
9780.0,-1.016,0.01,0.329,8.907,-13.8,-1.49,-0.994,0.171,-0.11,1.33,-3.227,1.681,0.131,0.263,0.036,-31.532,323.497,-143.378
9800.0,-0.955,0.001,0.314,9.937,-12.91,-0.825,-0.988,0.172,-0.105,0.986,-2.858,2.442,-0.204,0.29,0.273,-25.45,318.971,-144.715
9820.0,-0.943,0.026,0.32,11.405,-9.866,-0.706,-0.996,0.173,-0.104,0.644,-2.826,3.445,-0.382,0.606,0.533,-33.961,288.144,-136.237
9840.0,-0.981,0.032,0.326,11.2,-10.765,-0.817,-0.998,0.178,-0.109,0.726,-3.163,3.686,-0.359,0.535,0.465,-50.73,273.135,-121.932
9860.0,-1.003,0.037,0.33,9.384,-12.51,-1.109,-0.993,0.182,-0.11,0.99,-3.415,3.304,-0.367,0.471,0.228,-62.759,296.727,-123.654
9880.0,-0.985,0.024,0.327,6.623,-14.581,-1.444,-0.987,0.189,-0.105,0.949,-3.279,2.4,-0.489,0.402,0.286,-79.016,316.474,-133.299
9900.0,-0.939,0.022,0.284,5.772,-14.274,-1.977,-0.985,0.19,-0.103,0.46,-2.655,1.526,-0.732,0.47,0.533,-92.173,314.381,-122.352
9920.0,-0.9,0.061,0.291,9.363,-2.176,-2.278,-0.993,0.183,-0.107,-0.291,-2.148,1.118,-0.929,0.405,0.649,-71.015,307.614,-102.669
9940.0,-0.93,0.058,0.397,10.183,4.362,-2.522,-0.997,0.18,-0.11,-0.391,-2.297,0.967,-1.184,0.446,0.567,-40.22,312.655,-91.774
9960.0,-0.977,-0.013,0.414,4.9,4.41,-3.85,-0.996,0.18,-0.107,0.021,-2.855,0.628,-1.265,0.456,0.614,-29.351,299.144,-77.236
9980.0,-0.942,0.05,0.383,-1.615,1.109,-3.683,-0.991,0.183,-0.106,0.118,-2.843,0.219,-1.274,0.388,0.732,-20.299,267.221,-61.94
10000.0,-0.891,0.072,0.328,0.455,5.638,-1.468,-0.99,0.179,-0.103,-0.521,-2.218,0.398,-1.296,0.303,0.715,4.558,256.325,-53.237
10020.0,-0.905,0.047,0.37,3.278,7.484,0.552,-0.993,0.167,-0.105,-0.697,-2.106,1.851,-1.4,0.279,0.699,29.082,246.653,-50.836
10040.0,-0.942,-0.01,0.486,-0.254,14.1,-0.29,-0.997,0.176,-0.107,-0.456,-2.309,2.532,-1.434,0.263,0.892,33.674,215.156,-51.109
10060.0,-0.963,0.04,0.407,-3.037,5.577,-2.187,-0.986,0.183,-0.108,-0.093,-2.204,2.58,-1.313,0.157,1.057,38.531,192.154,-51.867
10080.0,-0.926,0.095,0.38,-4.709,7.551,-1.662,-0.994,0.188,-0.102,-1.377,-1.345,2.053,-1.3,0.062,1.011,81.805,192.089,-59.783
10100.0,-0.911,0.016,0.391,-2.908,12.812,-0.564,-0.994,0.189,-0.106,-2.198,-1.604,1.677,-1.393,0.115,0.75,122.461,192.71,-76.814
10120.0,-0.929,-0.042,0.401,-4.815,17.209,-0.648,-0.99,0.185,-0.106,-2.144,-1.345,1.444,-1.406,0.241,0.687,132.903,183.21,-91.743
10140.0,-0.935,0.022,0.339,-0.035,16.022,-1.478,-0.993,0.182,-0.104,-1.551,-1.334,1.26,-1.362,0.551,0.842,123.968,166.826,-93.682
10160.0,-0.982,0.074,0.315,3.681,15.82,-3.563,-0.989,0.181,-0.106,-1.601,-0.994,1.272,-1.421,0.748,1.02,60.705,155.634,-85.45
10180.0,-1.003,0.031,0.265,-2.102,15.785,-4.834,-0.991,0.178,-0.108,-1.062,-1.465,1.857,-1.416,0.482,1.09,2.013,152.996,-71.264
10200.0,-1.012,0.023,0.313,-12.908,14.8,-4.537,-0.989,0.177,-0.104,-0.565,-1.162,2.11,-1.323,0.061,0.86,9.522,152.452,-68.739
10220.0,-1.014,0.049,0.332,-14.251,10.171,-4.558,-0.996,0.187,-0.105,-0.954,-0.911,2.17,-1.213,0.082,0.559,80.65,158.078,-81.3
10240.0,-1.031,0.064,0.302,-2.182,6.551,-4.488,-0.994,0.192,-0.114,-1.871,-0.91,1.398,-1.226,0.21,0.608,129.005,91.623,-89.3
10260.0,-1.042,-0.016,0.264,2.437,4.11,-2.675,-0.995,0.181,-0.119,-0.547,-2.09,0.923,-1.053,0.121,1.183,156.204,58.742,-80.647
10280.0,-0.961,-0.064,0.215,-3.06,7.735,-1.911,-0.988,0.186,-0.107,0.36,-2.1,0.713,-1.565,0.735,1.462,177.81,3.301,-36.456
10300.0,-0.939,-0.056,0.275,-9.683,13.021,-2.44,-0.988,0.185,-0.101,-0.342,-1.628,0.781,-1.023,0.784,1.161,116.214,-8.399,-27.075
10320.0,-1.001,-0.041,0.345,-11.609,9.209,-3.657,-0.995,0.205,-0.114,-3.334,-2.461,2.401,-1.159,0.652,0.733,69.291,4.524,-3.564
10340.0,-1.035,0.042,0.312,-8.037,2.579,-3.331,-1.024,0.141,-0.125,-3.187,-2.821,2.345,-0.997,0.724,0.486,4.581,1.125,2.921
10360.0,-0.999,0.041,0.284,-0.544,2.023,-2.874,-0.993,0.169,-0.124,3.666,-4.641,3.814,-1.056,0.481,0.194,-38.705,-20.739,4.815
10380.0,-0.991,0.004,0.273,3.618,2.546,-2.503,-0.982,0.214,-0.113,1.973,-4.325,2.681,-0.997,0.433,0.066,-69.359,-24.411,3.612
10400.0,-0.989,-0.022,0.267,7.003,3.193,-2.906,-0.999,0.193,-0.089,0.016,-5.448,4.292,-0.911,0.303,0.037,-78.117,-23.6,6.555
10420.0,-0.983,-0.017,0.254,11.331,3.431,-3.748,-0.97,0.209,-0.091,-1.162,-3.607,4.728,-0.91,0.231,-0.036,-79.428,-23.093,11.893
10440.0,-1.016,0.006,0.28,9.844,2.319,-4.523,-0.995,0.196,-0.114,-3.621,-4.001,5.745,-0.88,0.178,-0.045,-77.394,-14.501,14.689
10460.0,-1.025,0.016,0.282,6.582,0.933,-4.675,-1.007,0.162,-0.112,-0.974,-5.693,6.889,-0.88,0.138,-0.034,-69.291,-8.472,13.896
10480.0,-1.009,0.009,0.305,5.48,0.771,-4.948,-1.001,0.168,-0.106,3.024,-6.141,7.237,-0.912,0.125,-0.025,-62.668,-3.328,12.248
10500.0,-0.967,-0.003,0.315,6.303,-1.916,-5.568,-0.985,0.197,-0.104,3.292,-5.385,7.106,-0.958,0.116,-0.018,-55.875,0.444,9.357
10520.0,-0.947,-0.01,0.282,6.688,-4.119,-5.731,-0.983,0.202,-0.102,2.181,-4.678,6.534,-0.969,0.134,0.016,-55.517,1.258,5.172
10540.0,-0.947,-0.001,0.251,5.65,-3.609,-5.348,-0.987,0.203,-0.101,0.85,-4.6,5.934,-0.977,0.15,0.056,-56.675,0.719,4.198
10560.0,-0.97,0.017,0.252,4.686,-1.119,-4.136,-0.987,0.204,-0.105,-0.111,-4.293,5.371,-0.892,0.137,0.106,-56.138,-2.197,3.696
10580.0,-0.989,0.008,0.271,2.185,-0.987,-2.506,-0.982,0.208,-0.096,-0.49,-3.738,4.657,-0.958,0.113,0.164,-48.543,-1.569,2.187
10600.0,-0.989,0.02,0.263,2.36,1.8,-1.683,-0.989,0.209,-0.094,-0.755,-3.583,3.924,-0.933,0.027,0.197,-30.604,7.871,3.482
10620.0,-1.01,0.016,0.324,5.867,0.948,-1.669,-0.991,0.208,-0.096,-1.294,-2.914,3.176,-0.971,0.028,0.289,-20.831,0.885,0.457
10640.0,-1.007,0.003,0.279,4.793,-3.777,-1.064,-0.989,0.208,-0.097,-1.388,-2.419,2.505,-0.964,0.028,0.359,1.209,-0.582,-1.779
10660.0,-0.977,0.005,0.261,1.606,-3.477,-0.517,-0.988,0.203,-0.096,-1.219,-2.277,2.017,-0.969,0.112,0.334,9.894,-1.367,-1.602
10680.0,-0.982,0.0,0.297,0.917,-2.269,-0.366,-0.989,0.205,-0.1,-0.873,-2.205,1.685,-0.911,0.22,0.366,-2.26,-3.803,-0.956
10700.0,-1.004,0.001,0.309,1.82,-4.06,-0.14,-0.988,0.206,-0.103,-0.44,-2.307,1.288,-0.975,0.248,0.459,-12.374,-18.982,4.061
10720.0,-1.012,0.01,0.302,1.989,-6.508,0.42,-0.984,0.211,-0.102,0.0,-2.631,0.78,-0.991,0.239,0.513,-16.882,-29.11,5.42
10740.0,-0.99,0.018,0.285,2.301,-8.188,1.215,-0.985,0.209,-0.099,-0.051,-2.328,0.378,-0.963,0.198,0.513,-15.422,-27.776,3.469
10760.0,-0.978,0.01,0.28,0.419,-7.599,1.595,-0.988,0.206,-0.098,-0.724,-2.177,0.295,-0.968,0.189,0.53,-12.479,-32.273,3.792
10780.0,-0.967,-0.003,0.257,0.57,-6.287,1.61,-0.99,0.2,-0.095,-0.964,-2.237,0.42,-1.033,0.264,0.727,-14.158,-50.933,7.158
10800.0,-0.963,0.002,0.258,1.341,-3.326,1.459,-0.988,0.197,-0.102,-0.583,-2.09,0.427,-1.103,0.291,0.889,-16.16,-80.576,13.282
10820.0,-0.986,-0.005,0.283,0.921,-3.651,1.201,-0.984,0.201,-0.099,-0.015,-1.777,0.543,-1.141,0.19,0.937,-15.105,-90.643,19.476
10840.0,-1.021,0.001,0.294,0.016,-8.478,0.748,-0.988,0.199,-0.099,0.44,-1.768,0.71,-1.204,0.136,0.985,-0.966,-99.907,29.356
10860.0,-1.017,0.015,0.291,0.349,-11.125,0.015,-0.988,0.196,-0.097,0.83,-1.589,0.857,-1.287,0.207,1.069,18.789,-128.483,43.087
10880.0,-0.999,0.028,0.281,1.913,-11.213,-0.14,-0.992,0.204,-0.099,0.084,-1.612,0.954,-1.326,0.283,1.257,21.189,-171.263,55.407
10900.0,-0.994,0.015,0.276,1.481,-8.729,0.354,-0.988,0.206,-0.1,0.086,-2.051,1.29,-1.427,0.333,1.663,15.737,-217.243,70.805
10920.0,-1.005,0.002,0.296,-0.304,-7.715,1.117,-0.996,0.196,-0.098,0.768,-2.106,1.77,-1.654,0.344,1.756,-18.263,-265.736,83.294
10940.0,-1.018,0.009,0.328,-0.023,-13.051,1.415,-0.991,0.202,-0.104,0.183,-2.306,2.144,-1.81,0.191,1.655,-27.072,-295.187,96.969
10960.0,-1.002,0.005,0.318,1.117,-17.255,1.582,-0.991,0.201,-0.102,-1.04,-2.174,2.52,-1.971,0.063,1.474,-6.87,-340.709,109.628
10980.0,-0.974,0.001,0.309,1.414,-18.343,1.571,-0.984,0.201,-0.1,-0.57,-2.376,2.52,-1.841,0.046,1.383,51.674,-375.359,115.999
11000.0,-0.943,0.025,0.306,2.347,-16.477,1.363,-0.985,0.2,-0.098,-0.968,-2.04,2.828,-1.809,0.23,1.387,96.335,-383.693,111.922
11020.0,-0.934,0.026,0.317,5.966,-10.971,1.431,-0.993,0.197,-0.104,-0.84,-2.59,3.29,-1.884,0.392,1.176,112.437,-403.627,121.573
11040.0,-0.966,0.016,0.368,8.99,-7.497,2.307,-1.0,0.196,-0.102,0.097,-3.353,3.756,-1.858,0.701,0.845,99.33,-418.25,137.48
11060.0,-0.985,0.015,0.393,7.56,-7.009,2.728,-0.994,0.206,-0.099,0.883,-4.102,3.091,-1.599,0.919,0.57,49.185,-431.875,151.606
11080.0,-0.96,0.024,0.405,3.669,-7.327,2.668,-0.982,0.226,-0.1,0.7,-3.92,2.17,-1.294,0.679,0.647,30.233,-445.396,166.829
11100.0,-0.946,0.026,0.367,0.127,-1.577,3.775,-0.986,0.218,-0.102,-0.283,-3.798,1.308,-1.128,0.622,0.675,29.086,-429.684,183.984
11120.0,-0.939,0.018,0.378,-3.646,6.739,4.091,-0.993,0.206,-0.098,0.107,-3.724,0.911,-1.062,0.721,0.587,28.089,-412.919,193.703
11140.0,-0.972,0.023,0.469,-8.182,4.572,2.96,-0.988,0.218,-0.096,-0.004,-3.56,-0.024,-0.832,0.62,0.311,9.595,-403.293,193.968
11160.0,-0.947,0.017,0.457,-10.577,-0.858,1.993,-0.976,0.225,-0.09,-1.087,-2.811,-1.599,-0.515,0.454,0.08,10.877,-387.602,192.285
11180.0,-0.95,0.031,0.425,-4.48,-0.21,1.33,-0.988,0.202,-0.095,-1.059,-2.164,-2.005,-0.339,0.311,-0.047,4.536,-371.533,179.9
11200.0,-0.982,0.024,0.388,-0.303,-4.146,2.448,-0.988,0.207,-0.092,-0.916,-1.441,-2.221,-0.2,0.169,-0.161,-0.225,-339.989,157.224
11220.0,-0.977,-0.004,0.342,-3.85,-6.58,1.75,-0.992,0.204,-0.099,-1.181,-1.341,-2.299,-0.008,0.033,-0.252,-3.576,-308.229,135.422
11240.0,-0.94,0.034,0.33,-4.08,-5.429,-1.152,-0.987,0.205,-0.097,-1.19,-0.785,-2.719,-0.039,-0.037,-0.355,-13.175,-254.143,110.054
11260.0,-0.96,0.036,0.303,-4.76,-0.98,-2.73,-0.99,0.197,-0.1,-0.657,-1.117,-2.73,0.098,-0.116,-0.514,-20.013,-254.594,91.407
11280.0,-1.015,0.008,0.315,-0.84,1.96,-4.62,-0.997,0.189,-0.097,-0.212,-0.634,-2.133,0.282,-0.032,-0.606,-20.338,-194.595,73.835
11300.0,-1.059,-0.024,0.348,-0.08,0.057,-6.798,-0.994,0.191,-0.098,-0.21,-0.81,-1.467,0.282,-0.165,-0.683,-26.258,-160.434,60.959
11320.0,-1.064,0.039,0.358,-3.98,-5.105,-8.86,-0.984,0.198,-0.107,0.267,-0.712,-1.13,0.325,-0.113,-0.675,-35.716,-168.562,43.849
11340.0,-1.013,-0.002,0.323,-2.456,-11.484,-7.44,-0.995,0.195,-0.096,0.604,-0.991,-1.12,0.446,-0.115,-0.715,-7.838,-136.678,35.345
11360.0,-0.953,0.044,0.279,2.834,-13.338,-4.232,-0.995,0.2,-0.098,0.233,-0.907,-1.043,0.691,-0.031,-0.692,-3.543,-97.349,27.914
11380.0,-0.945,0.06,0.252,5.057,-8.895,-2.658,-0.983,0.2,-0.102,-0.791,-0.238,-0.801,0.836,-0.01,-0.656,-6.678,-47.903,20.478
11400.0,-0.946,0.011,0.266,-4.706,-10.332,-1.339,-0.982,0.191,-0.098,-0.848,0.773,-0.916,0.926,-0.033,-0.609,-2.145,-1.315,9.287
11420.0,-0.938,0.05,0.293,-11.721,-15.82,-0.039,-0.987,0.201,-0.099,-1.058,0.791,-1.412,1.023,-0.038,-0.509,11.944,3.3,-2.07
11440.0,-0.913,0.017,0.3,-11.787,-19.467,2.143,-0.993,0.206,-0.109,-2.737,0.77,-2.33,1.053,-0.006,-0.373,17.363,7.904,-2.678
11460.0,-0.917,-0.022,0.289,-7.799,-19.67,3.126,-0.992,0.191,-0.12,-3.114,0.625,-3.193,1.078,0.068,-0.251,21.145,25.292,-4.045
11480.0,-0.938,-0.012,0.301,-3.098,-17.565,3.479,-0.991,0.179,-0.115,-1.321,-0.382,-3.301,1.162,0.089,-0.189,19.043,33.805,-5.102
11500.0,-0.954,-0.021,0.321,0.237,-16.004,2.827,-0.991,0.187,-0.107,-0.113,-1.256,-2.787,1.156,0.094,-0.182,16.541,38.406,-4.55
11520.0,-0.956,-0.017,0.33,3.729,-14.954,1.732,-0.992,0.186,-0.112,-0.578,-1.374,-2.104,1.062,0.139,-0.148,20.392,41.357,-4.928
11540.0,-0.949,-0.005,0.337,5.472,-11.48,0.565,-0.999,0.171,-0.105,0.223,-1.936,-1.099,1.037,0.154,-0.057,24.68,39.613,-3.523
11560.0,-0.939,0.007,0.359,6.908,-6.504,-0.738,-1.0,0.173,-0.112,1.944,-2.807,-0.004,1.038,0.14,-0.033,25.933,37.408,-1.36
11580.0,-0.944,0.016,0.366,7.576,-3.631,-1.639,-0.991,0.181,-0.108,2.21,-3.542,1.294,1.02,0.139,-0.021,21.435,35.906,0.642
11600.0,-0.945,0.019,0.378,6.937,-1.184,-1.583,-0.992,0.18,-0.11,1.652,-4.067,1.819,1.005,0.094,-0.063,21.455,36.223,0.417
11620.0,-0.936,0.013,0.385,5.116,-0.036,-1.338,-0.994,0.182,-0.112,1.421,-4.633,2.244,0.988,0.029,-0.147,25.764,40.754,-4.118
11640.0,-0.937,0.022,0.374,5.363,1.498,-1.783,-0.995,0.183,-0.109,1.54,-4.97,2.549,0.937,0.032,-0.193,32.727,54.861,-6.697
11660.0,-0.941,0.037,0.366,6.895,5.094,-2.601,-0.995,0.181,-0.106,1.567,-5.088,2.943,0.859,0.071,-0.238,42.61,70.75,-8.136
11680.0,-0.943,0.019,0.385,5.529,4.551,-2.679,-0.985,0.184,-0.098,1.719,-4.736,3.476,0.793,0.092,-0.269,45.79,86.491,-13.86
11700.0,-0.937,-0.001,0.39,4.13,4.747,-2.791,-0.99,0.185,-0.098,1.453,-4.447,3.884,0.773,0.069,-0.289,41.002,104.484,-21.371
11720.0,-0.95,0.014,0.397,6.559,5.567,-3.785,-0.996,0.186,-0.1,1.215,-4.509,4.209,0.79,-0.015,-0.343,40.863,129.973,-32.142
11740.0,-0.973,0.034,0.358,7.755,3.842,-3.971,-0.993,0.191,-0.1,1.051,-4.562,4.257,0.786,-0.048,-0.378,45.281,164.865,-42.772
11760.0,-0.972,0.054,0.349,5.964,5.854,-3.119,-0.989,0.196,-0.097,0.269,-4.214,4.022,0.728,-0.067,-0.403,51.45,189.0,-56.14
11780.0,-0.949,0.03,0.425,0.944,6.946,-1.727,-0.985,0.197,-0.099,-0.493,-3.778,3.264,0.61,-0.018,-0.381,57.26,218.54,-70.35
11800.0,-0.931,0.008,0.382,-1.539,1.521,-0.728,-0.985,0.195,-0.1,-1.232,-2.899,2.852,0.551,0.035,-0.37,56.169,241.402,-85.879
11820.0,-0.937,-0.0,0.336,-0.588,-1.201,-0.3,-0.993,0.193,-0.098,-1.483,-3.02,2.991,0.517,0.11,-0.321,50.303,276.539,-103.495
11840.0,-0.969,0.002,0.331,3.63,0.322,-0.915,-1.001,0.197,-0.098,-1.867,-3.775,3.798,0.391,0.167,-0.302,45.475,302.915,-121.087
11860.0,-0.987,0.017,0.364,6.707,1.381,-1.148,-0.992,0.206,-0.093,-4.047,-2.698,4.24,0.116,0.204,-0.239,41.911,346.8,-140.367
11880.0,-0.999,0.011,0.386,7.162,-0.459,-1.352,-0.994,0.207,-0.102,-5.427,-2.311,5.009,0.0,0.249,-0.158,29.768,371.533,-158.58
11900.0,-0.994,0.01,0.352,7.374,-3.329,-2.604,-0.991,0.196,-0.114,-5.286,-3.353,5.6,-0.279,0.344,0.112,-4.138,413.968,-173.185
11920.0,-0.976,0.028,0.34,8.003,-1.901,-2.911,-0.983,0.22,-0.115,-6.276,-3.614,5.475,-0.579,0.557,0.062,-31.824,409.534,-184.355
11940.0,-0.975,0.009,0.341,3.279,-1.004,-2.528,-0.973,0.181,-0.088,-5.783,-2.44,3.743,-0.781,0.52,0.1,-77.791,428.66,-188.143
11960.0,-0.965,0.013,0.36,-3.087,-1.635,-2.156,-0.99,0.191,-0.08,-5.133,-2.151,3.099,-1.083,0.264,0.3,-117.999,440.213,-186.075
11980.0,-0.921,0.058,0.381,-2.076,-1.777,-1.851,-0.984,0.202,-0.095,-4.983,-2.1,3.359,-1.327,0.089,0.46,-123.913,432.547,-187.562
12000.0,-0.923,0.035,0.382,5.44,2.124,-1.846,-0.992,0.199,-0.101,-4.257,-2.378,2.953,-1.636,-0.028,0.462,-91.873,443.102,-196.076
12020.0,-0.967,-0.006,0.411,8.11,4.294,-2.36,-0.995,0.19,-0.102,-2.072,-2.247,2.8,-1.96,-0.017,0.696,-73.41,414.15,-200.097
12040.0,-0.971,-0.008,0.43,0.696,0.505,-1.502,-0.986,0.196,-0.095,-0.263,-3.58,2.8,-2.136,-0.042,0.955,-51.054,348.901,-195.993
12060.0,-0.902,0.071,0.37,-3.91,-0.423,-0.559,-0.982,0.221,-0.093,-0.56,-3.22,2.45,-2.148,-0.169,0.822,8.59,310.854,-190.995
12080.0,-0.867,0.11,0.408,-5.95,7.42,0.98,-0.975,0.221,-0.088,-2.033,-1.385,1.828,-2.486,-0.246,0.48,125.988,251.214,-167.864
12100.0,-0.944,0.028,0.539,-9.167,3.874,0.587,-0.996,0.208,-0.091,-2.702,-1.448,0.973,-1.992,0.283,0.743,127.124,214.595,-134.027
12120.0,-0.895,-0.018,0.424,-10.683,-0.955,0.423,-0.979,0.214,-0.09,-2.434,-0.782,-0.288,-1.843,0.432,1.185,100.401,171.855,-87.923
12140.0,-0.8,-0.005,0.37,-3.57,11.41,0.49,-0.978,0.212,-0.093,-1.399,0.079,-1.084,-1.626,0.28,1.412,77.321,132.522,-34.297
12160.0,-0.798,0.015,0.486,2.772,27.364,-0.627,-0.988,0.197,-0.09,-1.005,0.824,-0.99,-1.456,0.073,1.306,91.292,152.036,-15.551
12180.0,-0.876,0.029,0.503,0.752,26.185,-2.263,-0.994,0.197,-0.091,-0.88,1.217,-0.313,-1.45,0.113,0.945,130.978,176.967,-14.834
12200.0,-0.948,0.027,0.399,-3.905,22.727,-1.108,-0.996,0.205,-0.1,-0.885,1.26,-0.305,-1.391,0.359,0.766,148.695,175.975,-24.677
12220.0,-1.033,0.01,0.24,-2.878,19.74,-17.251,-0.989,0.201,-0.112,-0.087,0.534,-0.476,-1.426,0.621,0.616,131.911,166.711,-25.848
12240.0,-1.031,0.07,0.157,-1.675,25.385,-1.331,-0.987,0.196,-0.106,1.331,-0.308,-0.273,-1.416,0.931,0.583,65.43,133.117,-17.642
12260.0,-1.054,0.032,0.315,-9.76,26.518,-1.389,-0.994,0.195,-0.096,2.017,-0.569,0.529,-1.2,0.7,0.738,-42.174,80.867,-14.089
12280.0,-1.086,-0.034,0.371,-14.624,22.318,-2.993,-0.996,0.204,-0.1,1.207,-0.52,0.839,-1.142,0.203,0.865,-64.392,32.016,-11.771
12300.0,-1.08,-0.032,0.364,-13.213,16.972,-2.599,-0.991,0.209,-0.108,-0.124,-0.068,0.012,-1.122,-0.057,1.049,-4.638,17.142,-1.038
12320.0,-1.026,-0.004,0.329,-8.258,13.758,-1.565,-0.989,0.211,-0.114,2.567,-0.509,-0.322,-0.857,-0.026,1.446,81.713,39.729,9.104
12340.0,-0.99,0.016,0.276,-2.947,11.842,-0.032,-0.988,0.209,-0.12,4.215,-0.833,-0.305,-0.951,0.337,0.873,97.749,16.346,-2.266
12360.0,-0.97,0.008,0.266,-0.466,10.581,0.565,-0.995,0.143,-0.123,1.467,-1.424,0.748,-1.052,0.39,0.45,83.058,-8.281,-8.113
12380.0,-0.977,-0.009,0.279,0.733,8.813,0.692,-0.991,0.167,-0.111,2.753,-2.687,1.457,-0.965,0.465,0.301,48.109,-4.556,-10.138
12400.0,-1.003,-0.019,0.267,2.289,3.288,-0.157,-0.975,0.266,-0.101,-0.033,-0.136,-0.315,-0.969,0.476,0.164,-18.787,-14.389,-1.746
12420.0,-1.023,-0.02,0.249,2.485,-0.301,-0.874,-1.01,0.154,-0.102,0.611,-2.254,2.387,-0.953,0.405,0.038,-55.799,-17.307,3.8
12440.0,-1.035,-0.015,0.256,2.678,-1.274,-1.612,-0.974,0.241,-0.088,1.795,-1.268,1.333,-0.942,0.267,-0.009,-69.369,-12.646,8.969
12460.0,-1.032,0.005,0.271,4.178,-3.388,-2.899,-0.98,0.202,-0.104,-1.248,-2.308,1.676,-0.952,0.207,-0.017,-73.402,-5.883,10.309
12480.0,-0.982,0.017,0.262,4.404,-6.177,-3.523,-0.99,0.187,-0.103,-0.144,-2.253,1.559,-1.0,0.169,-0.011,-74.163,-4.423,10.765
12500.0,-0.953,0.014,0.255,3.654,-5.646,-4.232,-0.996,0.163,-0.1,4.061,-2.809,2.717,-1.006,0.142,-0.015,-71.941,-5.654,11.032
12520.0,-0.952,0.016,0.276,2.687,-2.417,-4.354,-0.99,0.173,-0.108,6.377,-2.927,3.951,-0.956,0.079,-0.028,-52.279,-4.248,11.338
12540.0,-1.004,0.015,0.289,1.456,-2.641,-3.588,-0.992,0.213,-0.107,4.533,-2.993,3.831,-0.929,0.051,-0.018,-30.853,-0.065,10.011
12560.0,-1.02,0.028,0.286,0.164,-4.776,-2.333,-0.996,0.199,-0.115,4.936,-4.025,2.838,-0.934,0.072,0.038,-15.373,1.719,8.204
12580.0,-1.012,0.023,0.298,-0.189,-7.622,-1.327,-0.988,0.219,-0.111,4.268,-4.337,1.791,-0.959,0.113,0.098,-10.176,1.23,5.79
12600.0,-0.991,0.015,0.3,0.026,-9.465,-1.05,-0.974,0.23,-0.096,0.847,-2.617,0.491,-0.959,0.137,0.167,-6.106,0.285,4.223
12620.0,-0.973,0.021,0.285,0.096,-9.955,-1.025,-0.988,0.207,-0.101,-1.799,-0.801,-0.185,-0.986,0.196,0.268,-8.214,-1.319,0.924
12640.0,-0.979,0.025,0.29,-0.848,-9.138,-0.306,-0.99,0.202,-0.106,-2.273,-0.964,-0.337,-0.995,0.147,0.298,-3.809,-0.683,0.459
12660.0,-0.984,0.024,0.297,-1.399,-9.884,0.485,-0.988,0.194,-0.105,-1.497,-1.14,-0.306,-1.017,0.22,0.32,-3.58,-5.682,0.769
12680.0,-0.985,0.003,0.287,-2.438,-9.729,0.834,-0.992,0.199,-0.106,-0.704,-1.465,-0.237,-1.027,0.233,0.323,-21.644,-14.218,0.651
12700.0,-0.979,-0.003,0.272,-2.246,-6.227,0.718,-0.989,0.201,-0.107,-1.082,-1.339,-0.123,-0.994,0.253,0.425,-38.981,-26.71,3.667
12720.0,-0.979,-0.004,0.298,0.91,-3.85,0.28,-0.989,0.193,-0.111,-0.555,-1.518,0.02,-0.983,0.186,0.521,-42.771,-38.704,5.624
12740.0,-0.994,-0.007,0.325,2.59,-5.6,-0.21,-0.994,0.198,-0.111,0.564,-2.397,0.186,-1.061,0.226,0.729,-46.17,-38.552,11.637
12760.0,-1.014,-0.001,0.327,2.276,-8.875,-0.357,-0.994,0.2,-0.106,1.085,-2.718,-0.044,-1.099,0.248,0.915,-62.09,-49.7,18.76
12780.0,-0.991,0.123,0.332,-0.044,-12.857,-0.504,-0.989,0.202,-0.102,0.857,-2.548,-0.307,-1.286,0.274,0.995,-68.6,-97.3,37.94
12800.0,-0.957,0.033,0.26,-1.904,-7.513,-0.973,-0.984,0.201,-0.105,-0.552,-1.888,-0.469,-1.338,0.205,1.142,-60.41,-124.53,53.48
12820.0,-0.947,0.015,0.268,0.854,0.776,-0.637,-0.988,0.198,-0.107,-0.971,-1.781,0.043,-1.389,0.151,1.191,-35.539,-131.426,71.654
12840.0,-0.976,-0.018,0.291,0.858,-3.147,-0.828,-0.996,0.187,-0.109,-0.313,-2.388,0.949,-1.437,0.347,1.285,5.95,-170.8,97.51
12860.0,-0.971,-0.006,0.246,-1.426,-5.063,-0.577,-0.986,0.193,-0.108,0.367,-2.7,1.318,-1.478,0.441,1.419,15.979,-221.156,110.559
12880.0,-0.956,0.03,0.243,-2.641,2.422,-0.964,-0.988,0.188,-0.104,0.199,-2.605,1.681,-1.541,0.465,1.415,-4.559,-247.13,115.733
12900.0,-1.004,0.055,0.282,-6.595,4.784,-1.586,-0.996,0.199,-0.107,0.107,-3.269,2.49,-1.556,0.421,1.243,-10.899,-272.465,118.236
12920.0,-1.022,0.031,0.343,-8.034,1.995,-1.067,-0.988,0.203,-0.108,-1.083,-3.282,2.74,-1.511,0.58,1.173,-32.645,-295.854,96.643
12940.0,-0.988,0.015,0.335,-5.591,-3.216,-1.104,-0.991,0.194,-0.107,-1.001,-3.722,2.989,-1.414,0.476,1.084,-59.863,-317.99,90.108
12960.0,-0.971,0.035,0.287,-1.038,-2.832,-0.054,-0.995,0.195,-0.108,0.306,-4.555,3.718,-1.404,0.325,0.933,-50.38,-320.085,78.022
12980.0,-0.976,0.015,0.297,0.648,-0.207,1.114,-0.99,0.195,-0.106,0.026,-5.024,4.769,-1.382,0.464,0.861,-39.185,-324.077,77.146
13000.0,-0.977,-0.011,0.333,1.534,0.638,0.563,-0.988,0.196,-0.104,-0.183,-5.14,5.697,-1.269,0.449,0.819,-28.834,-330.51,75.143
13020.0,-0.991,-0.029,0.368,0.635,-0.107,0.29,-0.986,0.205,-0.102,-0.17,-4.796,5.998,-1.266,0.409,0.765,-7.541,-334.97,76.772
13040.0,-1.011,0.014,0.359,-2.372,-3.813,1.221,-0.984,0.209,-0.099,-0.399,-4.592,5.843,-1.185,0.371,0.72,25.96,-342.685,80.933
13060.0,-0.977,0.035,0.335,-4.053,-2.91,1.204,-0.987,0.219,-0.099,-0.669,-4.475,4.512,-1.05,0.415,0.764,59.193,-352.98,86.733
13080.0,-0.959,0.001,0.34,-0.152,0.953,-0.211,-0.982,0.228,-0.101,-0.965,-3.859,2.328,-0.951,0.552,0.748,69.157,-361.388,95.068
13100.0,-0.949,0.017,0.355,1.946,4.87,-0.553,-0.989,0.218,-0.102,-0.257,-3.989,0.374,-0.775,0.577,0.648,65.473,-360.275,105.75
13120.0,-0.943,0.005,0.342,-1.008,4.457,0.158,-0.985,0.213,-0.1,0.173,-3.756,-0.839,-0.605,0.561,0.745,50.818,-362.099,118.612
13140.0,-0.932,-0.008,0.32,-3.631,7.746,-0.382,-0.986,0.209,-0.1,0.426,-3.648,-1.106,-0.455,0.465,0.75,41.301,-364.366,128.705
13160.0,-0.935,0.029,0.33,-2.928,13.404,-0.345,-0.983,0.21,-0.088,-0.863,-2.759,-1.394,-0.258,0.409,0.592,33.274,-359.634,129.427
13180.0,-0.971,0.033,0.383,-0.658,11.283,0.209,-0.987,0.206,-0.1,-1.153,-2.705,-1.359,-0.175,0.368,0.342,18.375,-345.778,125.671
13200.0,-0.97,-0.022,0.368,0.5,4.583,-0.085,-0.987,0.204,-0.102,-1.099,-2.963,-1.456,-0.129,0.254,0.195,1.547,-325.925,116.352
13220.0,-0.959,-0.032,0.283,0.319,6.742,-0.803,-0.993,0.193,-0.103,1.232,-3.261,-0.995,0.023,0.095,0.112,-2.794,-319.826,103.143
13240.0,-0.971,0.011,0.296,0.729,17.412,-0.806,-1.0,0.195,-0.097,2.889,-4.601,-0.289,0.204,0.034,-0.089,6.895,-302.848,94.728
13260.0,-1.0,0.049,0.347,-0.567,20.048,-1.876,-0.989,0.2,-0.095,2.925,-4.253,-0.07,0.251,0.111,-0.341,5.433,-249.469,87.604
13280.0,-1.008,0.025,0.35,-2.596,18.568,-3.077,-0.987,0.206,-0.092,2.44,-4.204,-0.057,0.261,0.17,-0.546,-41.437,-197.209,75.827
13300.0,-1.037,-0.02,0.334,-6.522,10.023,-2.821,-0.994,0.205,-0.094,1.6,-4.21,0.235,0.346,-0.023,-0.645,-60.34,-169.318,62.365
13320.0,-1.035,0.002,0.274,-8.013,3.775,-1.055,-0.986,0.198,-0.1,0.021,-3.309,0.398,0.466,-0.03,-0.633,-34.12,-143.033,45.86
13340.0,-1.032,-0.017,0.261,-2.003,2.496,-0.979,-0.992,0.192,-0.097,0.792,-3.834,0.908,0.742,0.011,-0.704,-32.508,-114.198,30.783
13360.0,-1.024,-0.034,0.246,0.674,0.04,-1.572,-0.988,0.191,-0.098,2.232,-4.059,0.91,0.665,0.076,-0.711,-21.765,-86.709,30.066
13380.0,-0.994,0.029,0.226,-4.906,-2.595,-1.029,-0.991,0.197,-0.085,1.647,-3.996,1.327,0.79,0.06,-0.683,-20.897,-36.286,27.214
13400.0,-0.988,0.03,0.236,-6.847,-5.311,1.075,-0.984,0.205,-0.085,0.82,-2.852,1.065,0.861,0.136,-0.49,-7.309,-19.288,19.389
13420.0,-0.966,0.005,0.231,-6.118,-9.397,1.164,-0.985,0.207,-0.087,-0.541,-2.025,0.788,0.876,0.1,-0.313,8.126,-14.408,13.602
13440.0,-0.951,0.003,0.214,-3.98,-12.376,0.75,-0.982,0.206,-0.088,-1.154,-1.012,0.274,0.976,0.11,-0.269,-4.094,-19.922,14.172
13460.0,-0.985,-0.0,0.212,-1.96,-14.824,0.393,-0.99,0.209,-0.087,-0.931,-1.04,-0.135,1.146,0.091,-0.293,-6.849,-7.507,15.23
13480.0,-1.001,0.01,0.231,-1.895,-17.382,0.108,-0.99,0.208,-0.089,-1.107,-0.273,-1.111,1.089,0.129,-0.271,-0.551,12.447,14.236
13500.0,-0.986,0.004,0.232,-1.263,-19.387,0.208,-0.988,0.203,-0.095,-0.787,-0.146,-1.923,1.052,0.09,-0.155,0.793,8.413,6.428
13520.0,-0.967,-0.009,0.231,-0.665,-19.232,0.42,-0.985,0.2,-0.101,0.056,-0.14,-2.641,1.118,0.046,-0.097,14.857,10.778,4.919
13540.0,-0.99,0.005,0.273,-1.044,-17.238,0.075,-0.989,0.199,-0.097,1.008,-0.469,-3.007,1.146,0.037,-0.115,35.269,13.166,1.659
13560.0,-1.01,0.009,0.289,-0.798,-17.515,-0.686,-0.99,0.197,-0.098,0.771,-0.254,-3.286,1.084,0.057,-0.179,51.721,23.793,-2.259
13580.0,-1.004,-0.006,0.291,0.492,-18.052,-1.049,-0.993,0.193,-0.102,0.579,-0.49,-3.282,0.993,0.1,-0.29,64.396,42.698,-5.391
13600.0,-0.968,-0.017,0.286,0.579,-14.769,-1.307,-0.993,0.186,-0.1,0.85,-0.759,-3.059,0.785,0.136,-0.395,57.719,63.845,-8.505
13620.0,-0.958,-0.012,0.295,-0.149,-11.189,-1.44,-0.995,0.182,-0.1,1.413,-0.807,-2.28,0.735,0.045,-0.483,47.033,90.877,-14.409
13640.0,-0.969,0.011,0.328,-0.416,-10.93,-1.406,-0.996,0.183,-0.1,1.143,-1.049,-1.553,0.667,-0.054,-0.551,46.14,129.546,-28.113
13660.0,-0.992,0.026,0.329,-0.292,-15.171,-0.91,-0.995,0.187,-0.099,0.503,-1.202,-1.305,0.579,-0.135,-0.558,49.978,169.635,-43.332
13680.0,-0.991,0.014,0.283,0.457,-15.298,-1.055,-0.995,0.191,-0.097,0.302,-1.33,-1.249,0.473,-0.13,-0.558,62.112,210.357,-58.681
13700.0,-0.958,-0.009,0.251,1.42,-8.805,-1.466,-0.99,0.193,-0.094,-0.218,-1.143,-1.648,0.352,-0.102,-0.551,74.254,246.521,-81.817
13720.0,-0.927,-0.01,0.257,1.552,0.807,-1.349,-0.989,0.189,-0.098,-0.912,-0.449,-1.82,0.267,-0.026,-0.489,77.566,281.528,-108.193
13740.0,-0.924,-0.024,0.325,2.098,2.541,-1.071,-0.991,0.184,-0.102,-1.596,-0.086,-1.741,0.217,0.131,-0.353,72.287,320.202,-131.256
13760.0,-0.938,-0.033,0.314,2.03,-5.18,-1.33,-0.987,0.179,-0.105,-1.747,-0.044,-0.853,0.149,0.184,-0.251,49.894,358.168,-148.536
13780.0,-0.956,-0.016,0.295,-0.84,-9.1,-0.98,-0.997,0.169,-0.107,-0.951,-0.46,0.18,0.016,0.176,-0.201,38.365,395.731,-160.799
13800.0,-0.974,-0.003,0.305,-1.115,-10.339,-1.867,-0.994,0.172,-0.105,0.167,-0.869,1.382,-0.188,0.167,-0.165,37.204,432.014,-177.383
13820.0,-0.966,-0.013,0.305,-0.193,-10.705,-2.992,-1.002,0.171,-0.102,0.28,-1.113,2.65,-0.448,0.344,-0.048,12.531,460.597,-204.23
13840.0,-1.008,-0.021,0.312,0.973,-12.46,-4.024,-0.995,0.181,-0.106,0.326,-1.462,3.426,-0.759,0.479,0.145,-46.652,473.843,-215.147
13860.0,-0.974,0.002,0.337,3.104,-12.804,-2.153,-0.992,0.183,-0.108,0.861,-2.036,3.354,-0.889,0.465,0.275,-101.713,466.141,-216.207
13880.0,-0.973,0.0,0.375,4.373,-10.186,-4.134,-0.984,0.193,-0.106,1.183,-2.098,2.987,-1.281,0.355,0.49,-153.655,455.608,-213.109
13900.0,-0.967,0.021,0.353,2.55,-8.385,-3.713,-0.991,0.19,-0.103,-0.15,-1.499,2.333,-1.464,-0.066,0.385,-138.744,446.874,-222.37
13920.0,-0.987,0.018,0.393,-3.071,-10.584,-3.366,-0.997,0.187,-0.098,0.137,-0.871,2.449,-1.7,-0.132,0.285,-114.66,485.59,-252.84
13940.0,-0.982,0.013,0.375,-4.974,-14.804,-2.966,-0.979,0.202,-0.109,-1.36,-0.164,1.679,-2.339,-0.131,0.461,-99.12,493.36,-274.12
13960.0,-0.958,-0.001,0.333,-1.151,-17.97,-3.084,-0.991,0.191,-0.11,-1.606,-0.193,1.474,-3.246,-0.01,1.424,-50.805,331.862,-257.943
13980.0,-0.889,-0.024,0.358,10.767,-12.513,-2.954,-0.991,0.181,-0.11,-0.563,-0.741,1.552,-2.789,-0.229,1.193,-22.813,243.537,-208.795
14000.0,-0.855,0.003,0.413,12.152,-1.782,-3.689,-0.987,0.182,-0.105,-0.384,-0.529,2.089,-2.274,-0.331,0.438,157.974,207.579,-149.183
14020.0,-0.868,0.067,0.447,4.913,6.496,-5.227,-0.998,0.184,-0.1,-0.626,-0.42,2.906,-1.676,0.213,0.906,178.037,134.903,-86.847
14040.0,-0.861,0.056,0.512,3.192,14.781,-6.557,-0.992,0.197,-0.11,-1.253,-0.487,2.955,-1.813,-0.044,0.873,174.91,140.631,-28.419
14060.0,-0.826,-0.001,0.568,8.056,22.169,-3.331,-0.997,0.198,-0.119,-2.153,-0.014,2.33,-1.686,-0.151,0.973,176.13,147.713,17.638
14080.0,-0.824,-0.092,0.556,3.911,19.388,-2.714,-0.979,0.202,-0.111,-1.641,-0.5,1.141,-1.268,0.148,1.099,189.77,163.03,31.71
14100.0,-0.844,0.018,0.402,0.396,20.295,-2.234,-0.994,0.203,-0.111,-2.5,-0.746,0.131,-1.2,0.424,1.029,197.299,189.237,10.703
14120.0,-0.989,0.089,0.366,9.059,28.764,-0.761,-0.991,0.187,-0.124,-2.626,-0.556,0.11,-1.411,0.646,0.738,148.324,201.527,2.936
14140.0,-1.165,0.054,0.347,12.698,24.049,-0.452,-1.0,0.166,-0.124,-1.012,-1.49,0.829,-1.424,0.909,0.49,98.037,154.566,-9.108
14160.0,-1.121,-0.027,0.161,-2.731,11.856,2.8,-0.992,0.173,-0.12,0.936,-2.799,2.027,-1.254,0.92,0.524,-4.747,87.635,-24.989
14180.0,-1.013,-0.026,0.223,-1.706,16.212,3.332,-0.987,0.198,-0.113,0.736,-4.224,3.236,-1.098,0.466,0.774,-15.328,56.412,-25.134
14200.0,-0.981,0.001,0.291,6.066,20.412,1.635,-0.992,0.196,-0.114,0.038,-4.31,3.711,-0.955,0.037,1.192,23.147,35.476,-19.231
14220.0,-0.996,0.016,0.295,6.198,17.794,1.28,-0.986,0.2,-0.115,-0.665,-3.829,3.508,-0.87,0.222,0.991,118.564,24.906,-13.898
14240.0,-0.997,-0.003,0.25,-2.76,14.977,2.985,-0.988,0.187,-0.111,-0.136,-3.441,2.538,-1.024,0.507,0.558,136.886,4.88,-12.592
14260.0,-0.987,-0.061,0.251,-5.464,15.502,3.546,-1.009,0.156,-0.119,3.732,-4.878,3.55,-1.036,0.64,0.331,83.904,-5.69,-10.933
14280.0,-0.985,-0.071,0.274,-3.573,15.402,2.996,-0.993,0.191,-0.129,3.381,-5.158,4.08,-0.987,0.631,0.162,30.046,-13.134,-7.618
14300.0,-0.983,-0.02,0.271,0.844,13.699,1.281,-0.965,0.218,-0.102,-1.097,-1.582,1.684,-0.978,0.567,0.05,-25.805,-20.109,-2.925
14320.0,-0.986,0.001,0.263,3.192,13.354,-0.637,-0.998,0.195,-0.083,-1.164,-2.914,3.95,-0.94,0.47,0.01,-73.623,-18.512,3.35
14340.0,-1.005,0.019,0.258,4.259,12.342,-0.894,-0.989,0.19,-0.106,-1.491,-2.383,4.926,-0.934,0.32,0.013,-102.057,-17.577,10.739
14360.0,-1.032,0.028,0.254,4.961,8.141,-0.377,-0.994,0.187,-0.111,-4.583,-1.7,5.886,-0.938,0.263,0.004,-110.182,-13.871,16.775
14380.0,-1.014,0.028,0.245,5.665,6.025,-1.033,-0.996,0.173,-0.115,-2.148,-3.234,7.025,-0.949,0.213,-0.01,-107.559,-10.598,17.629
14400.0,-0.993,0.031,0.275,8.494,6.653,-2.544,-0.996,0.176,-0.111,1.921,-4.813,8.09,-0.986,0.153,-0.008,-93.603,-10.309,16.566
14420.0,-0.99,0.02,0.284,8.45,4.22,-3.26,-0.986,0.209,-0.107,2.352,-4.249,7.721,-1.017,0.146,-0.002,-84.914,-12.728,16.648
14440.0,-0.981,0.017,0.237,4.852,1.009,-3.226,-0.993,0.206,-0.114,2.655,-4.131,6.8,-0.994,0.139,0.003,-73.241,-13.612,17.134
14460.0,-0.973,0.018,0.234,3.349,3.183,-2.409,-0.976,0.228,-0.102,1.463,-4.269,5.063,-0.971,0.122,0.007,-57.078,-12.002,17.581
14480.0,-0.989,0.006,0.253,2.519,6.074,-1.377,-0.978,0.238,-0.104,0.191,-3.354,3.021,-0.978,0.121,0.012,-45.951,-7.067,17.799
14500.0,-1.012,0.003,0.264,1.521,5.657,-0.818,-0.984,0.218,-0.104,-1.108,-2.713,1.962,-1.014,0.13,0.036,-41.634,-4.645,17.582
14520.0,-1.011,0.013,0.257,2.097,4.385,-0.243,-0.985,0.209,-0.105,-1.712,-2.145,1.306,-1.026,0.135,0.067,-43.065,-5.207,17.589
14540.0,-0.999,0.018,0.265,2.95,3.89,-0.101,-0.983,0.206,-0.109,-1.242,-2.184,1.3,-1.005,0.126,0.093,-50.07,-6.606,17.563
14560.0,-0.993,0.017,0.285,3.813,3.209,-0.149,-0.987,0.204,-0.108,-0.851,-2.48,1.499,-0.966,0.068,0.135,-52.23,-4.802,15.593
14580.0,-1.006,0.007,0.289,3.288,1.246,0.42,-0.993,0.203,-0.105,-0.722,-2.564,1.971,-0.985,0.032,0.178,-49.926,-3.992,13.172
14600.0,-1.019,0.002,0.277,2.791,-0.8,0.597,-0.99,0.206,-0.101,-0.805,-2.491,2.17,-0.993,-0.055,0.23,-32.618,-1.422,6.767
14620.0,-1.009,0.02,0.275,2.218,-1.448,0.874,-0.982,0.215,-0.101,-0.91,-2.219,1.875,-1.015,-0.011,0.255,-12.224,-3.406,3.164
14640.0,-0.993,0.03,0.255,1.531,-4.185,1.07,-0.982,0.218,-0.105,-0.834,-1.935,1.015,-0.97,0.024,0.244,4.935,-3.581,-1.126
14660.0,-0.979,0.031,0.254,0.625,-3.445,1.257,-0.986,0.213,-0.105,-0.56,-2.1,0.599,-0.976,0.127,0.218,12.665,-4.298,-3.749
14680.0,-0.989,0.012,0.262,0.14,-3.57,0.91,-0.987,0.207,-0.105,-0.447,-2.132,0.522,-0.965,0.197,0.233,14.33,-2.84,-4.561
14700.0,-1.001,0.018,0.244,0.892,-3.57,0.52,-0.988,0.207,-0.105,0.071,-2.117,0.506,-0.944,0.265,0.244,9.503,-5.597,-4.271
14720.0,-0.995,0.018,0.225,0.702,-0.213,0.297,-0.985,0.21,-0.103,0.491,-2.05,0.278,-0.909,0.321,0.285,-1.027,-7.374,-3.792
14740.0,-1.001,0.021,0.228,1.673,4.527,-0.537,-0.987,0.211,-0.104,0.516,-2.043,0.055,-0.893,0.349,0.381,-9.337,-9.731,-1.789
14760.0,-1.002,0.024,0.241,1.422,2.957,-0.806,-0.988,0.209,-0.101,0.439,-1.722,-0.113,-1.02,0.34,0.549,-5.077,-24.745,1.249
14780.0,-0.982,0.016,0.261,2.287,1.24,-0.936,-0.986,0.208,-0.105,0.614,-1.433,-0.244,-1.038,0.329,0.59,-17.549,-42.437,-0.03
14800.0,-0.972,0.011,0.253,2.847,1.119,-1.188,-0.984,0.209,-0.106,0.732,-1.473,-0.262,-1.061,0.341,0.594,-13.752,-48.201,7.999
14820.0,-0.99,0.015,0.247,3.609,-0.674,-0.804,-0.987,0.207,-0.107,0.743,-1.653,-0.21,-1.149,0.45,0.738,-15.177,-62.865,24.045
14840.0,-1.002,0.028,0.22,3.513,0.385,-0.722,-0.985,0.208,-0.104,0.251,-1.506,-0.19,-1.233,0.512,0.816,-31.525,-91.796,41.513
14860.0,-1.016,0.04,0.234,0.361,-0.054,-0.138,-0.991,0.207,-0.108,-0.342,-1.485,-0.148,-1.295,0.372,0.907,-39.92,-110.467,65.512
14880.0,-1.013,0.016,0.241,-1.04,-3.964,-1.108,-0.988,0.205,-0.11,-0.271,-1.634,-0.22,-1.392,0.485,1.043,-9.191,-120.471,101.597
14900.0,-0.988,0.017,0.233,0.323,-7.602,-1.721,-0.99,0.211,-0.107,-0.117,-1.957,-0.36,-1.506,0.545,1.131,13.999,-167.141,135.033
14920.0,-0.974,0.023,0.198,0.445,-7.143,-1.675,-0.982,0.206,-0.106,0.108,-1.708,-0.419,-1.582,0.522,1.149,29.815,-204.226,165.721
14940.0,-0.982,0.026,0.187,-1.253,-4.284,-1.8,-0.987,0.203,-0.106,-1.231,-1.216,-0.288,-1.605,0.723,1.205,28.783,-241.052,191.118
14960.0,-1.018,0.043,0.245,-1.222,-2.371,-1.609,-0.992,0.199,-0.104,-1.75,-1.75,0.91,-1.716,0.797,1.257,-15.616,-265.66,205.531
14980.0,-1.014,0.034,0.272,-2.008,-3.391,-0.54,-0.978,0.202,-0.1,-2.168,-1.541,1.436,-1.626,0.61,1.176,-35.208,-291.249,210.791
15000.0,-0.981,0.015,0.274,-3.013,-5.106,-0.07,-0.995,0.196,-0.115,-0.84,-2.8,2.45,-1.585,0.603,1.041,-39.224,-315.619,206.441
15020.0,-0.978,0.021,0.29,-0.697,-5.452,-0.166,-0.994,0.198,-0.113,-0.38,-3.531,2.714,-1.344,0.526,1.06,-51.498,-335.664,193.832
15040.0,-0.986,0.03,0.291,2.064,-6.097,-0.643,-0.99,0.204,-0.112,0.575,-4.453,3.161,-1.337,0.569,1.019,-57.236,-337.297,181.511
15060.0,-0.994,0.034,0.309,2.988,-6.282,-0.91,-0.993,0.189,-0.105,0.906,-4.549,4.042,-1.282,0.529,0.95,-58.197,-346.016,168.634
15080.0,-0.996,0.022,0.308,0.759,-9.473,-1.258,-0.992,0.213,-0.108,-0.226,-4.415,4.06,-1.207,0.501,0.908,-53.326,-361.938,149.857
15100.0,-0.987,0.026,0.306,-1.736,-9.628,-2.155,-0.982,0.213,-0.111,-0.928,-3.995,3.708,-1.11,0.504,0.817,-33.197,-388.251,141.598
15120.0,-0.986,0.036,0.311,-2.848,-7.805,-2.313,-0.986,0.208,-0.108,-0.147,-4.208,3.09,-0.943,0.48,0.579,-18.982,-394.708,130.667
15140.0,-0.993,0.017,0.305,-3.16,-7.015,-3.621,-0.986,0.21,-0.103,1.647,-4.522,2.061,-0.766,0.469,0.501,7.634,-390.903,124.571
15160.0,-0.972,0.006,0.3,-0.053,-1.406,-4.566,-0.981,0.221,-0.099,1.229,-3.716,0.826,-0.631,0.489,0.475,40.709,-383.929,126.623
15180.0,-0.977,0.011,0.328,1.602,2.241,-4.651,-0.985,0.22,-0.096,-0.036,-2.995,-0.258,-0.581,0.528,0.51,67.517,-361.901,137.962
15200.0,-0.985,0.019,0.356,0.768,-0.674,-5.034,-0.983,0.217,-0.099,-0.556,-2.419,-1.339,-0.582,0.584,0.408,59.863,-356.157,155.366
15220.0,-0.952,0.027,0.351,0.986,-1.963,-2.93,-0.984,0.212,-0.106,-0.389,-2.24,-1.989,-0.503,0.576,0.091,33.61,-365.873,169.1
15240.0,-0.944,-0.019,0.345,16.434,-2.373,-2.47,-0.99,0.202,-0.106,0.267,-2.456,-2.006,-0.2,0.459,-0.091,6.821,-353.762,168.053
15260.0,-0.976,0.028,0.306,3.22,-2.52,-0.42,-0.993,0.196,-0.105,1.071,-3.083,-1.579,0.057,0.251,-0.224,-31.315,-312.621,154.013
15280.0,-0.992,-0.02,0.305,1.69,2.819,0.777,-0.991,0.199,-0.106,1.656,-3.323,-0.996,0.203,0.015,-0.378,-43.02,-265.017,127.895
15300.0,-0.978,0.012,0.315,0.584,3.04,0.84,-0.989,0.201,-0.106,1.785,-3.412,-0.475,0.211,-0.174,-0.456,-16.58,-241.355,102.565
15320.0,-0.983,0.003,0.278,-4.465,4.617,0.921,-0.993,0.194,-0.107,1.806,-3.719,-0.042,0.194,-0.193,-0.531,-17.661,-232.404,84.543
15340.0,-0.968,-0.024,0.244,-5.107,6.166,2.519,-0.988,0.204,-0.104,1.759,-4.056,0.402,0.484,-0.108,-0.744,-26.399,-188.372,65.955
15360.0,-0.982,0.029,0.236,-5.134,14.794,1.082,-0.985,0.202,-0.098,1.838,-3.856,0.644,0.583,-0.084,-0.853,-27.009,-143.92,49.834
15380.0,-1.079,-0.02,0.324,-2.132,15.722,0.336,-0.985,0.2,-0.094,0.514,-3.01,0.759,0.817,-0.076,-0.878,-19.987,-90.243,34.821
15400.0,-1.068,-0.025,0.294,0.108,-0.515,-0.588,-0.984,0.198,-0.092,-0.489,-2.522,1.427,0.824,-0.1,-0.729,-12.325,-56.276,19.322
15420.0,-1.044,-0.03,0.191,0.072,-3.471,-2.139,-0.994,0.198,-0.103,-0.28,-2.87,1.89,0.814,0.009,-0.563,-1.658,-27.582,8.592
15440.0,-1.019,0.058,0.201,1.459,-4.018,-1.377,-0.99,0.203,-0.104,0.42,-2.731,1.601,0.812,0.082,-0.506,5.499,-10.104,4.231
15460.0,-0.981,0.045,0.228,-1.317,-7.305,-0.379,-0.995,0.194,-0.1,0.413,-2.792,1.46,0.977,0.066,-0.497,8.767,1.33,0.992
15480.0,-0.971,0.003,0.208,-2.72,-10.042,-0.273,-0.985,0.204,-0.09,-0.637,-1.751,1.178,0.97,0.088,-0.421,15.143,7.573,-2.666
15500.0,-0.971,0.009,0.2,-3.834,-14.554,-0.005,-0.989,0.211,-0.098,-0.7,-1.817,0.948,0.986,0.104,-0.331,21.572,12.826,-4.05
15520.0,-0.967,0.024,0.218,1.517,-14.167,-0.463,-0.986,0.206,-0.101,-0.7,-1.587,0.477,0.992,0.121,-0.261,27.707,8.893,-7.517
15540.0,-0.98,0.014,0.218,2.518,-14.279,-0.426,-0.989,0.203,-0.096,-0.753,-1.107,0.185,0.963,0.139,-0.171,32.049,2.802,-6.312
15560.0,-0.974,-0.01,0.174,-0.402,-14.061,-0.135,-0.989,0.209,-0.098,-1.168,-0.861,-0.164,1.05,0.098,-0.222,27.288,5.99,-10.653
15580.0,-0.975,-0.004,0.207,-2.033,-7.851,0.06,-0.983,0.208,-0.102,-1.259,-0.634,-0.851,1.09,0.048,-0.321,20.375,19.387,-15.58
15600.0,-0.98,0.022,0.255,-1.773,-4.418,-0.652,-0.989,0.2,-0.106,-1.132,-0.694,-1.328,1.109,-0.009,-0.308,17.232,52.449,-24.193
15620.0,-0.986,0.025,0.28,-0.655,-4.972,-1.211,-0.994,0.196,-0.098,-0.484,-1.185,-1.081,1.062,-0.023,-0.223,27.955,52.143,-28.231
15640.0,-0.977,0.011,0.269,-0.927,-6.651,-0.897,-0.99,0.196,-0.099,-0.236,-1.233,-0.778,0.997,-0.1,-0.369,47.244,72.752,-39.064
15660.0,-0.951,-0.011,0.266,-2.064,-5.227,-0.806,-0.99,0.194,-0.102,-0.371,-0.754,-0.405,0.98,-0.299,-0.679,58.813,118.834,-70.507
15680.0,-0.96,0.004,0.281,-1.872,-2.697,-1.096,-0.993,0.193,-0.104,-0.394,-1.084,0.374,0.947,-0.463,-0.723,53.678,151.786,-107.868
15700.0,-0.997,0.058,0.276,-0.311,-4.092,-1.587,-0.992,0.196,-0.107,-0.137,-1.33,0.63,0.877,-0.461,-0.661,61.53,196.144,-140.923
15720.0,-1.016,0.044,0.277,-1.8,-5.045,-1.067,-0.987,0.201,-0.104,0.183,-1.659,0.345,0.679,-0.194,-0.581,55.476,230.065,-167.076
15740.0,-1.049,-0.009,0.328,-5.593,-10.547,-0.473,-0.985,0.205,-0.101,0.003,-1.532,0.043,0.294,-0.005,-0.634,30.044,273.103,-190.465
15760.0,-1.042,-0.021,0.288,-7.176,-21.223,0.173,-0.991,0.204,-0.102,-0.773,-1.4,-0.21,0.19,0.113,-0.503,-7.441,295.385,-212.214
15780.0,-1.009,-0.002,0.254,-4.537,-22.798,0.925,-0.989,0.204,-0.106,-1.432,-1.239,-0.545,0.037,0.264,-0.258,-36.257,327.271,-222.495
15800.0,-0.989,0.016,0.25,-0.012,-22.781,0.874,-0.985,0.198,-0.113,-0.818,-1.317,-0.894,-0.271,0.408,-0.047,-57.643,359.846,-205.065
15820.0,-0.965,-0.009,0.26,3.795,-21.612,0.157,-0.993,0.186,-0.114,-0.031,-1.685,-0.946,-0.546,0.414,-0.017,-93.932,370.491,-205.924
15840.0,-0.971,-0.025,0.299,3.342,-20.069,-1.447,-0.99,0.186,-0.107,1.189,-2.13,-0.765,-0.624,0.399,-0.122,-145.809,387.942,-209.502
15860.0,-0.981,-0.009,0.308,3.886,-21.307,-2.699,-0.986,0.192,-0.105,1.68,-2.17,-0.805,-0.714,0.293,-0.187,-201.673,416.22,-208.28
15880.0,-0.972,-0.001,0.328,6.184,-24.431,-3.86,-0.989,0.194,-0.106,1.61,-2.1,-0.91,-0.911,0.193,-0.181,-228.658,449.466,-206.748
15900.0,-0.957,-0.011,0.323,8.033,-24.5,-4.563,-0.987,0.195,-0.109,2.028,-2.328,-0.975,-1.18,0.237,-0.128,-256.546,479.418,-201.196
15920.0,-0.933,-0.012,0.325,6.724,-20.632,-4.783,-0.985,0.193,-0.108,2.213,-2.369,-0.91,-1.586,0.388,0.019,-295.574,481.694,-180.1
15940.0,-0.911,0.011,0.342,-12.861,-11.885,-4.954,-0.991,0.185,-0.101,1.433,-1.923,-0.086,-2.007,0.333,0.479,-341.754,412.877,-129.729
15960.0,-0.929,0.024,0.399,-4.998,-6.994,-5.543,-0.991,0.186,-0.102,1.545,-1.95,0.868,-2.1,0.028,0.822,-350.609,327.694,-69.569
15980.0,-0.933,0.021,0.425,0.728,-6.976,-6.593,-0.986,0.19,-0.105,1.378,-1.315,0.98,-2.035,-0.289,0.817,-295.371,294.772,-24.056
16000.0,-0.948,-0.017,0.434,3.731,-8.048,-6.644,-0.996,0.191,-0.107,1.463,-1.336,0.952,-1.96,-0.53,0.849,-232.456,250.971,7.986
16020.0,-0.931,-0.014,0.418,4.621,-10.751,-6.675,-0.989,0.196,-0.106,1.241,-1.404,0.647,-1.824,-0.845,0.908,-148.244,201.365,34.915
16040.0,-0.832,0.049,0.378,3.906,-9.306,-6.716,-0.983,0.193,-0.103,0.127,-0.014,0.294,-1.548,-1.138,0.887,12.731,180.078,51.405
16060.0,-0.746,0.089,0.365,0.41,14.444,-6.23,-0.996,0.187,-0.103,-0.669,0.447,0.769,-1.501,-1.079,0.812,143.192,200.491,49.175
16080.0,-0.808,0.033,0.522,-4.362,36.757,-7.415,-0.982,0.199,-0.108,-1.739,1.873,0.687,-1.548,-0.838,0.735,268.614,227.491,43.234
16100.0,-0.947,0.042,0.61,-5.472,21.178,-6.991,-0.882,0.199,-0.111,-1.448,1.33,0.297,-1.638,-0.146,0.929,362.387,216.097,30.976
16120.0,-0.952,0.03,0.433,-3.977,7.857,-5.369,-0.99,0.203,-0.116,-2.504,1.333,-1.021,-1.649,0.584,1.185,362.553,175.659,5.214
16140.0,-0.954,0.028,0.318,0.599,18.223,-2.641,-0.985,0.185,-0.129,-2.869,1.469,-1.259,-1.48,0.651,1.157,311.505,169.04,-11.238
16160.0,-1.026,-0.078,0.36,5.137,22.738,0.517,-0.991,0.168,-0.116,-2.099,0.317,0.247,-1.386,0.711,0.96,272.028,169.598,-19.475
16180.0,-1.127,-0.082,0.407,6.083,14.987,2.421,-1.008,0.171,-0.123,-1.601,-0.494,1.824,-1.374,0.85,0.662,197.382,154.006,-27.564
16200.0,-1.147,-0.047,0.372,0.84,-3.5,2.17,-0.997,0.186,-0.117,-1.02,-1.666,2.868,-1.166,0.846,0.679,88.323,149.205,-26.215
16220.0,-1.008,-0.022,0.238,-2.87,-6.44,3.78,-0.986,0.203,-0.123,-0.42,-2.73,2.45,-0.977,0.595,0.793,40.192,140.07,-24.021
16240.0,-0.914,-0.049,0.199,-5.072,5.331,4.565,-0.998,0.192,-0.119,-0.069,-3.323,2.151,-1.082,0.142,0.946,46.696,56.748,-22.881
16260.0,-0.97,-0.072,0.283,-5.456,9.334,4.758,-0.99,0.192,-0.119,0.264,-3.898,1.899,-1.127,0.109,1.135,101.44,7.878,-13.354
16280.0,-1.001,-0.046,0.294,-3.78,8.68,3.5,-0.976,0.16,-0.12,2.988,-3.851,1.959,-0.808,0.285,0.946,109.884,6.919,-13.673
16300.0,-1.01,-0.018,0.277,-0.04,8.997,1.477,-0.991,0.19,-0.101,-1.229,-3.85,0.918,-0.964,0.46,0.67,91.761,-6.66,-15.523
16320.0,-0.989,0.011,0.256,2.493,9.284,-0.857,-1.012,0.121,-0.111,1.84,-5.168,4.73,-1.01,0.588,0.419,66.566,-16.605,-16.003
16340.0,-0.961,0.015,0.271,8.03,13.411,-1.44,-0.986,0.225,-0.127,6.561,-6.693,4.121,-0.978,0.608,0.289,20.91,-17.41,-12.818
16360.0,-1.105,0.011,0.275,12.232,11.168,-2.241,-0.986,0.206,-0.115,-0.556,-3.649,3.678,-0.98,0.432,0.092,-44.309,-19.526,-4.515
16380.0,-1.031,0.031,0.256,12.167,10.133,-2.167,-1.01,0.196,-0.1,-0.847,-4.836,4.134,-0.971,0.337,0.035,-62.23,-23.03,1.75
16400.0,-1.003,0.049,0.265,11.04,10.886,-1.877,-0.985,0.201,-0.109,-0.962,-2.85,4.105,-0.928,0.289,0.022,-74.55,-19.95,9.52
16420.0,-0.998,0.04,0.293,9.87,8.403,-1.582,-1.001,0.203,-0.132,-2.544,-4.649,4.395,-0.941,0.259,0.014,-77.63,-18.41,12.32
16440.0,-0.994,0.024,0.298,8.56,5.193,-1.575,-0.992,0.176,-0.11,-1.553,-3.788,4.41,-0.987,0.223,-0.019,-83.23,-9.244,11.482
16460.0,-0.983,0.015,0.292,6.937,4.793,-1.769,-0.988,0.179,-0.106,1.706,-4.615,4.581,-1.029,0.188,-0.023,-83.09,-10.15,12.04
16480.0,-0.972,0.004,0.298,6.099,5.091,-1.77,-0.987,0.201,-0.112,1.636,-5.273,4.684,-0.985,0.17,-0.012,-75.46,-11.34,14.63
16500.0,-0.977,0.0,0.306,6.059,4.748,-1.75,-0.978,0.211,-0.115,1.012,-4.729,4.213,-0.947,0.141,0.006,-64.93,-9.108,18.891
16520.0,-1.007,0.008,0.297,5.8,2.156,-1.641,-0.991,0.203,-0.106,0.783,-5.472,3.307,-0.914,0.136,0.028,-58.637,-5.764,20.784
16540.0,-1.018,0.011,0.284,4.08,-0.231,-0.81,-0.983,0.215,-0.105,-0.1,-5.314,2.112,-0.932,0.127,0.066,-56.057,-2.454,19.414
16560.0,-1.01,0.007,0.284,3.562,0.098,0.298,-0.983,0.212,-0.105,-0.749,-4.378,1.036,-0.976,0.093,0.138,-53.179,-1.55,16.971
16580.0,-0.984,-0.002,0.287,3.433,0.496,0.967,-0.984,0.202,-0.104,-0.799,-3.978,0.319,-1.007,0.09,0.182,-55.784,-6.575,12.871
16600.0,-0.96,-0.006,0.278,2.409,-0.902,1.106,-0.982,0.201,-0.101,-0.791,-3.769,-0.056,-0.977,0.009,0.218,-46.331,-5.325,9.029
16620.0,-0.952,0.023,0.278,3.737,1.158,1.02,-0.982,0.203,-0.099,-1.021,-3.279,-0.104,-0.989,-0.03,0.275,-25.138,-4.991,5.52
16640.0,-0.987,0.023,0.307,5.119,-0.874,0.994,-0.989,0.198,-0.101,-1.143,-2.701,0.086,-1.011,0.049,0.307,-12.78,-7.377,4.24
16660.0,-1.005,0.006,0.282,3.997,-5.386,1.029,-0.992,0.195,-0.104,-0.419,-2.703,0.349,-1.012,0.131,0.305,-14.534,-14.118,4.002
16680.0,-1.0,0.012,0.282,2.301,-5.008,0.68,-0.988,0.199,-0.103,0.186,-2.643,0.262,-0.976,0.191,0.298,-23.872,-13.189,4.8
16700.0,-1.006,0.018,0.294,1.201,-3.586,0.605,-0.988,0.202,-0.102,0.335,-2.355,-0.325,-0.944,0.196,0.36,-35.504,-8.704,5.658
16720.0,-1.012,0.018,0.305,0.7,-5.46,0.49,-0.987,0.205,-0.104,0.295,-2.269,-0.883,-1.008,0.23,0.449,-42.487,-10.11,9.936
16740.0,-0.991,0.02,0.3,1.844,-6.698,0.42,-0.988,0.199,-0.105,0.259,-1.918,-1.322,-1.025,0.22,0.5,-38.154,-15.671,15.238
16760.0,-0.976,0.012,0.293,2.52,-6.93,0.56,-0.984,0.198,-0.105,-0.07,-1.569,-1.741,-1.051,0.187,0.612,-31.84,-27.366,19.375
16780.0,-0.976,0.009,0.301,2.327,-6.733,0.49,-0.99,0.192,-0.105,0.034,-2.126,-1.495,-1.076,0.212,0.716,-31.38,-49.453,26.607
16800.0,-0.974,0.011,0.304,1.415,-6.337,0.49,-0.993,0.187,-0.103,0.358,-2.388,-0.809,-1.153,0.327,0.889,-29.895,-74.998,44.803
16820.0,-0.978,0.023,0.279,0.085,-4.998,0.49,-0.99,0.19,-0.102,0.344,-2.327,-0.341,-1.312,0.451,1.011,-24.702,-95.271,69.419
16840.0,-0.996,0.025,0.298,-2.997,-4.492,0.425,-0.992,0.19,-0.106,0.036,-2.112,0.03,-1.406,0.428,1.08,-4.484,-116.958,98.541
16860.0,-0.99,0.01,0.25,-3.15,-7.702,0.478,-0.993,0.19,-0.108,0.117,-2.349,0.366,-1.499,0.387,1.124,33.136,-150.025,133.403
16880.0,-0.952,0.015,0.231,-1.387,-3.287,0.557,-0.986,0.196,-0.109,0.811,-2.91,0.477,-1.614,0.579,1.119,53.16,-193.393,166.258
16900.0,-0.95,-0.002,0.247,-1.196,0.458,0.504,-0.983,0.201,-0.103,0.017,-2.458,0.316,-1.625,0.678,1.176,59.173,-228.221,190.27
16920.0,-0.976,-0.002,0.272,-2.473,2.534,1.233,-1.001,0.185,-0.104,-0.513,-2.762,1.369,-1.646,0.807,1.206,47.486,-252.582,210.42
16940.0,-1.014,0.036,0.34,-2.87,3.281,1.73,-0.997,0.185,-0.104,-0.168,-3.26,2.396,-1.697,0.878,1.163,25.871,-290.8,223.962
16960.0,-0.996,0.06,0.327,-2.278,0.743,1.935,-0.979,0.193,-0.102,-1.65,-2.826,2.482,-1.629,0.948,1.036,-35.708,-331.291,232.174
16980.0,-0.98,0.047,0.317,-1.271,0.245,1.865,-0.983,0.197,-0.101,-0.984,-3.485,3.113,-1.446,0.846,0.901,-74.458,-347.304,226.736
17000.0,-0.961,0.02,0.304,-1.244,0.493,1.82,-0.994,0.184,-0.104,-0.983,-3.662,4.107,-1.421,0.836,0.834,-89.62,-361.167,215.56
17020.0,-0.96,-0.007,0.325,-0.592,1.905,1.536,-0.994,0.189,-0.101,-1.19,-3.92,5.39,-1.245,0.601,0.735,-64.076,-383.629,204.677
17040.0,-0.981,-0.0,0.328,-0.42,1.054,1.532,-0.996,0.195,-0.101,-1.461,-4.045,6.071,-1.056,0.601,0.688,-21.686,-374.959,201.693
17060.0,-0.997,0.014,0.309,-1.945,1.762,0.896,-0.99,0.202,-0.101,-1.311,-4.138,5.711,-1.072,0.665,0.549,-12.831,-377.147,197.148
17080.0,-0.995,0.023,0.309,-2.37,3.591,-1.212,-0.989,0.205,-0.102,-0.06,-4.459,4.869,-0.846,0.588,0.365,6.715,-379.252,200.88
17100.0,-0.981,0.019,0.311,-1.545,5.186,-2.632,-0.98,0.225,-0.099,0.627,-4.223,2.776,-0.604,0.476,0.332,15.82,-369.18,189.14
17120.0,-0.979,0.022,0.322,-0.939,6.538,-2.902,-0.984,0.221,-0.096,0.197,-3.435,0.445,-0.612,0.528,0.243,3.03,-363.016,186.058
17140.0,-0.99,0.037,0.331,-2.273,6.559,-4.167,-0.985,0.208,-0.086,-0.21,-3.08,-0.91,-0.601,0.404,0.109,-28.41,-375.598,179.973
17160.0,-0.977,0.057,0.333,-8.695,6.755,-5.11,-0.986,0.211,-0.092,-1.651,-2.06,-1.664,-0.456,0.262,-0.044,-47.561,-361.998,160.843
17180.0,-0.973,0.054,0.346,-8.714,4.779,-4.614,-0.995,0.2,-0.096,-1.399,-1.838,-1.989,-0.216,-0.024,-0.18,-62.738,-344.392,134.017
17200.0,-0.978,0.027,0.321,-6.355,-0.528,-4.169,-0.996,0.192,-0.1,-0.584,-1.941,-1.995,0.024,-0.007,-0.221,-63.524,-311.179,104.784
17220.0,-0.966,0.001,0.284,-5.203,-1.745,-3.524,-0.992,0.199,-0.101,-0.006,-2.085,-1.922,0.157,-0.011,-0.32,-69.697,-271.99,85.539
17240.0,-0.952,-0.015,0.289,-4.428,-0.86,-3.26,-0.987,0.199,-0.101,0.029,-1.995,-1.811,0.212,0.031,-0.35,-84.629,-246.263,57.844
17260.0,-0.958,-0.012,0.303,-4.979,-0.675,-2.976,-0.987,0.194,-0.099,-0.206,-1.915,-1.501,0.39,-0.003,-0.442,-76.012,-249.887,21.783
17280.0,-0.973,0.016,0.296,-4.874,-1.027,-2.9,-0.99,0.19,-0.092,-1.021,-1.551,-0.896,0.678,0.073,-0.484,-67.164,-203.167,14.71
17300.0,-0.997,0.04,0.284,-4.659,-4.482,-3.086,-0.993,0.182,-0.095,-1.438,-1.276,0.079,0.888,0.1,-0.533,-57.065,-130.098,9.219
17320.0,-1.019,0.017,0.279,-4.775,-7.984,-3.145,-0.998,0.181,-0.105,-1.002,-2.033,1.321,0.915,0.14,-0.507,-39.288,-87.823,4.148
17340.0,-1.014,-0.008,0.266,-4.333,-9.764,-2.103,-0.991,0.189,-0.104,-0.002,-2.278,1.661,0.942,0.205,-0.433,-21.086,-56.553,3.788
17360.0,-0.994,-0.011,0.266,-4.386,-10.005,-0.206,-0.988,0.202,-0.099,0.565,-2.356,1.551,0.996,0.236,-0.408,-18.921,-29.815,5.911
17380.0,-0.987,-0.008,0.256,-5.334,-10.043,0.424,-0.991,0.2,-0.098,0.312,-2.38,1.237,1.01,0.25,-0.411,-23.812,-6.319,9.863
17400.0,-0.984,-0.022,0.279,-4.361,-9.228,1.19,-0.993,0.197,-0.099,-0.425,-2.231,0.615,1.044,0.176,-0.463,-14.533,15.228,14.08
17420.0,-0.976,-0.034,0.269,-3.218,-10.631,1.234,-0.991,0.195,-0.101,-0.375,-2.17,0.112,1.107,0.133,-0.457,-1.887,32.742,14.393
17440.0,-0.958,-0.026,0.244,-2.246,-9.953,1.46,-0.992,0.195,-0.102,0.238,-2.622,-0.247,1.113,0.097,-0.392,8.768,39.231,13.832
17460.0,-0.965,-0.016,0.244,-0.343,-9.537,1.127,-0.99,0.197,-0.102,0.392,-2.773,-0.684,1.116,0.078,-0.356,21.145,49.019,11.018
17480.0,-0.977,-0.02,0.234,1.513,-9.906,1.615,-0.99,0.196,-0.096,-0.14,-2.566,-0.97,1.109,0.078,-0.257,21.173,55.04,2.845
17500.0,-0.971,-0.033,0.255,1.89,-8.61,2.45,-0.992,0.195,-0.09,-0.273,-2.386,-0.833,1.116,-0.013,-0.236,18.344,53.493,-8.571
17520.0,-0.982,-0.018,0.27,6.51,-11.315,2.19,-0.989,0.191,-0.095,-0.504,-2.198,-0.539,1.115,-0.072,-0.241,21.079,71.51,-22.083
17540.0,-0.977,-0.01,0.251,8.118,-9.091,1.948,-0.996,0.183,-0.1,-0.089,-2.401,0.105,1.085,-0.122,-0.317,36.751,100.217,-34.633
17560.0,-0.981,-0.015,0.276,7.842,-4.001,1.701,-0.993,0.186,-0.101,0.0,-2.495,0.84,0.969,-0.174,-0.431,51.025,125.735,-55.443
17580.0,-1.002,-0.012,0.314,8.284,-1.195,0.745,-0.995,0.191,-0.101,0.029,-2.683,0.826,0.902,-0.237,-0.491,59.647,165.361,-79.043
17600.0,-1.006,0.007,0.307,7.504,-2.303,0.344,-0.993,0.189,-0.099,0.275,-2.788,0.779,0.757,-0.211,-0.474,61.922,199.431,-106.807
17620.0,-1.01,0.031,0.288,5.46,-4.06,0.28,-0.994,0.189,-0.1,0.406,-3.036,0.858,0.593,-0.096,-0.379,63.109,226.687,-131.24
17640.0,-1.003,0.031,0.277,4.755,-5.942,0.499,-0.991,0.193,-0.1,0.35,-3.095,0.946,0.392,0.076,-0.346,56.347,244.341,-153.631
17660.0,-0.994,0.014,0.294,4.001,-5.538,0.559,-0.995,0.184,-0.101,0.483,-3.295,1.224,0.271,0.163,-0.301,36.657,264.781,-180.649
17680.0,-0.984,0.008,0.321,4.27,-5.95,0.21,-0.995,0.183,-0.101,1.199,-3.78,1.628,0.077,0.23,-0.21,12.743,289.587,-206.869
17700.0,-0.991,0.005,0.33,6.491,-10.104,-0.2,-0.99,0.185,-0.094,1.314,-3.745,1.998,-0.132,0.307,-0.086,-16.859,310.924,-226.447
17720.0,-0.979,0.018,0.302,6.559,-10.351,-0.316,-0.99,0.185,-0.097,1.078,-3.331,2.479,-0.347,0.424,-0.037,-43.185,344.129,-237.574
17740.0,-0.974,0.034,0.324,7.767,-11.581,-0.594,-0.985,0.185,-0.095,0.84,-3.05,2.979,-0.63,0.464,0.124,-67.478,376.13,-228.046
17760.0,-0.988,0.033,0.31,7.77,-14.0,-0.35,-0.995,0.187,-0.096,0.815,-3.418,3.34,-0.91,0.511,0.002,-92.18,367.24,-216.36
17780.0,-0.982,0.018,0.309,4.157,-13.096,0.057,-0.988,0.203,-0.095,0.315,-3.11,2.672,-0.907,0.493,0.044,-115.984,373.703,-208.774
17800.0,-0.96,0.017,0.327,1.872,-10.585,0.07,-0.987,0.205,-0.095,0.243,-2.919,1.536,-1.105,0.435,0.109,-132.846,397.564,-194.338
17820.0,-0.952,0.021,0.346,2.846,-7.797,-0.358,-0.99,0.199,-0.096,0.378,-2.809,0.605,-1.37,0.438,0.425,-150.752,414.798,-190.261
17840.0,-0.943,0.026,0.374,5.514,-5.125,-0.426,-0.986,0.194,-0.092,-0.006,-2.284,0.212,-1.846,0.362,0.892,-185.691,349.913,-172.377
17860.0,-0.921,0.043,0.381,6.679,-2.185,0.033,-0.991,0.183,-0.093,-0.051,-1.82,0.679,-1.705,0.266,0.896,-181.239,289.34,-144.632
17880.0,-0.901,0.067,0.391,5.605,2.9,0.14,-0.988,0.192,-0.098,-1.621,-1.851,1.132,-1.515,0.104,0.706,-146.612,297.037,-135.105
17900.0,-0.909,0.082,0.422,1.225,4.696,0.312,-0.999,0.183,-0.097,-17.636,-2.097,1.33,-1.724,0.039,0.565,-101.879,343.802,-128.841
17920.0,-0.929,0.074,0.43,-3.129,-1.273,1.075,-0.992,0.186,-0.098,0.14,-1.752,1.327,-1.822,0.059,0.707,-93.748,234.251,-107.199
17940.0,-0.872,0.045,0.384,-3.943,-3.96,1.815,-0.987,0.196,-0.097,0.108,-1.786,1.046,-1.892,-0.113,0.765,-48.585,206.73,-57.885
17960.0,-0.835,0.028,0.378,0.333,9.773,3.671,-0.985,0.196,-0.095,-0.542,-1.163,0.49,-1.645,-0.311,0.964,4.553,185.867,-28.353
17980.0,-0.899,-0.008,0.456,6.948,19.38,4.261,-0.989,0.191,-0.097,-0.769,-1.057,0.49,-1.427,-0.406,0.948,90.4,186.45,-16.742
18000.0,-0.98,0.007,0.474,6.417,17.522,3.085,-0.987,0.192,-0.099,-0.631,-0.849,0.291,-1.455,-0.226,0.814,186.006,215.951,-20.223
18020.0,-0.974,0.08,0.421,0.906,11.159,2.205,-0.987,0.192,-0.097,-0.7,-0.7,0.07,-1.653,0.253,0.785,222.544,217.303,-35.277
18040.0,-0.968,0.096,0.374,-4.573,5.454,1.902,-0.997,0.187,-0.098,-1.144,-0.442,0.258,-1.678,0.529,0.867,215.454,168.155,-39.933
18060.0,-0.988,0.066,0.317,-6.392,0.797,0.828,-0.995,0.19,-0.101,-0.658,-0.952,-0.083,-1.478,0.821,0.946,145.983,145.752,-32.523
18080.0,-0.982,0.04,0.282,-6.547,2.679,0.665,-0.984,0.19,-0.101,-0.56,-0.419,-0.447,-1.428,0.901,0.828,44.412,116.837,-28.21
18100.0,-0.999,0.001,0.292,-7.693,4.817,3.265,-0.991,0.186,-0.094,-0.56,-0.214,-0.542,-1.199,0.469,0.713,-8.829,79.153,-30.849
18120.0,-1.031,-0.032,0.292,-7.356,2.545,3.611,-1.0,0.19,-0.099,-0.423,-0.729,-0.744,-0.92,-0.26,1.224,26.199,22.157,-33.122
18140.0,-1.03,-0.0,0.267,-3.177,2.712,1.605,-0.988,0.199,-0.106,-0.311,-0.806,-1.578,-1.073,-0.141,1.573,156.901,-23.066,-21.396
18160.0,-1.034,0.069,0.294,2.934,6.288,0.223,-0.99,0.166,-0.108,1.121,-0.924,-2.796,-1.232,0.821,0.785,208.873,22.695,-11.09
18180.0,-1.026,0.104,0.302,2.759,5.117,-0.201,-0.987,0.172,-0.096,3.081,-1.801,-2.525,-1.012,0.946,0.783,84.446,11.058,-12.467
18200.0,-1.012,0.05,0.28,-1.798,3.396,0.905,-0.992,0.155,-0.099,-1.208,-3.04,-1.38,-0.904,0.707,0.505,30.688,-16.475,-5.987
18220.0,-0.955,-0.028,0.28,-2.707,0.914,0.326,-1.021,0.17,-0.102,-2.169,-3.255,0.397,-1.036,0.549,0.284,-12.029,-26.457,2.164
18240.0,-0.982,-0.049,0.272,1.59,2.884,-3.618,-1.004,0.215,-0.094,2.483,-3.528,0.37,-1.005,0.444,0.15,-49.167,-34.671,5.407
18260.0,-1.01,0.0,0.258,3.85,-3.99,-4.62,-0.973,0.206,-0.09,-0.522,-1.43,0.835,-0.923,0.378,0.015,-78.793,-30.066,9.813
18280.0,-0.984,0.07,0.265,3.918,-1.161,-3.585,-0.983,0.195,-0.086,-3.271,0.515,3.215,-0.91,0.288,-0.02,-86.275,-21.551,11.829
18300.0,-0.988,0.113,0.325,3.43,0.21,-2.66,-0.997,0.206,-0.088,-0.158,-1.869,3.369,-0.959,0.234,-0.036,-85.232,-17.935,14.1
18320.0,-1.005,0.056,0.323,0.632,-6.225,-1.179,-0.994,0.204,-0.109,-2.1,-1.842,2.17,-0.969,0.165,-0.049,-68.029,-17.003,15.586
18340.0,-0.969,0.01,0.291,-0.327,-4.825,-1.052,-1.004,0.195,-0.112,-1.637,-1.848,1.799,-0.976,0.149,-0.059,-53.63,-12.082,16.072
18360.0,-0.97,0.02,0.297,1.04,-2.538,-1.328,-0.996,0.174,-0.11,-0.205,-2.487,2.477,-0.977,0.162,-0.05,-45.313,-8.519,17.139
18380.0,-0.971,0.043,0.296,0.979,-0.139,-1.306,-0.986,0.191,-0.109,1.003,-3.025,2.551,-0.975,0.174,-0.033,-36.329,-5.709,18.194
18400.0,-0.973,0.046,0.312,0.91,0.697,-0.979,-0.983,0.205,-0.107,0.139,-3.169,1.501,-0.964,0.181,-0.021,-34.886,-4.124,0.481
18420.0,-0.985,0.028,0.324,1.605,-0.331,-0.605,-0.993,0.193,-0.102,-1.25,-2.624,0.605,-0.964,0.169,0.006,-36.171,-2.699,16.012
18440.0,-0.982,0.014,0.322,1.82,-1.773,-0.157,-0.993,0.18,-0.104,-1.53,-2.492,0.802,-0.953,0.15,0.078,-36.318,2.002,15.581
18460.0,-0.964,0.017,0.308,1.942,-2.148,0.169,-0.989,0.181,-0.103,-0.829,-2.38,1.353,-0.975,0.149,0.138,-37.486,1.054,14.098
18480.0,-0.961,0.03,0.309,2.144,-2.019,0.141,-0.989,0.186,-0.1,-0.807,-2.364,1.569,-0.99,0.206,0.22,-53.688,1.854,10.258
18500.0,-0.97,0.029,0.312,2.15,-2.28,-0.238,-0.99,0.185,-0.099,-1.104,-2.197,1.847,-1.028,0.139,0.236,-39.866,-2.594,8.423
18520.0,-0.978,0.03,0.315,1.9,-2.981,-0.683,-0.991,0.184,-0.101,-1.353,-1.912,1.992,-0.995,0.216,0.339,-33.722,-4.236,3.088
18540.0,-0.979,0.033,0.314,1.316,-3.115,-0.946,-0.992,0.185,-0.109,-0.495,-2.303,2.1,-0.967,-0.063,0.327,-10.351,-4.367,2.267
18560.0,-0.981,0.024,0.309,1.441,-2.195,-1.323,-0.992,0.186,-0.106,0.458,-2.692,2.066,-0.982,0.035,0.33,5.974,-2.283,0.773
18580.0,-0.984,0.022,0.311,3.013,-1.391,-1.604,-0.987,0.194,-0.104,0.741,-2.722,1.675,-0.976,0.114,0.268,11.058,-2.414,-0.675
18600.0,-0.986,0.033,0.312,4.333,-1.915,-1.487,-0.992,0.192,-0.102,0.452,-2.483,1.152,-0.975,0.151,0.229,13.381,-4.072,-0.284
18620.0,-0.988,0.042,0.31,4.143,-2.529,-0.896,-0.995,0.184,-0.103,0.504,-2.462,1.086,-0.976,0.195,0.209,11.739,-7.325,0.683
18640.0,-0.978,0.041,0.313,3.931,-3.139,-0.63,-0.992,0.192,-0.099,0.747,-2.508,1.23,-0.955,0.212,0.197,10.278,-6.77,0.943
18660.0,-0.975,0.037,0.31,4.467,-3.055,-0.645,-0.996,0.201,-0.096,-0.206,-2.373,1.052,-0.957,0.219,0.238,12.079,-8.244,1.392
18680.0,-0.97,0.031,0.316,5.12,-2.958,-0.889,-0.999,0.189,-0.106,0.278,-2.15,1.259,-0.973,0.229,0.291,15.983,-9.617,4.081
18700.0,-0.97,0.041,0.324,5.287,-3.294,-1.014,-0.991,0.183,-0.1,-0.109,-1.447,1.19,-0.964,0.26,0.337,17.565,-14.679,7.892
18720.0,-0.969,0.042,0.329,4.837,-3.709,-0.71,-0.986,0.191,-0.106,-0.413,-1.332,1.191,-0.967,0.268,0.389,10.52,-21.647,9.864
18740.0,-0.976,0.036,0.336,4.55,-4.06,-0.84,-0.994,0.183,-0.106,0.046,-1.527,1.26,-1.001,0.229,0.526,3.705,-31.202,13.206
18760.0,-0.981,0.05,0.327,3.965,-5.03,-0.673,-0.991,0.187,-0.11,0.537,-1.936,1.193,-1.038,0.221,0.669,11.314,-48.413,21.896
18780.0,-0.978,0.055,0.307,2.476,-4.56,-0.188,-0.994,0.186,-0.112,0.972,-2.568,1.138,-1.06,0.293,0.779,34.859,-63.603,33.778
18800.0,-0.985,0.054,0.296,2.913,-4.707,0.307,-0.992,0.187,-0.105,1.235,-2.785,1.031,-1.138,0.397,0.939,50.978,-79.045,48.104
18820.0,-0.983,0.039,0.312,0.162,-7.138,0.474,-0.993,0.195,-0.1,0.479,-2.471,0.767,-1.37,0.492,1.065,68.289,-112.984,77.248
18840.0,-0.942,0.065,0.28,-1.242,-4.919,0.696,-0.983,0.193,-0.104,-0.133,-1.835,0.566,-1.549,0.607,1.124,112.111,-149.783,132.855
18860.0,-0.942,0.058,0.308,2.212,0.806,0.378,-0.987,0.187,-0.106,-0.924,-1.29,0.757,-1.674,0.711,1.164,133.985,-188.819,179.781
18880.0,-0.983,0.032,0.319,3.141,-1.412,-0.62,-1.104,0.175,-0.106,-0.98,-1.442,1.731,-1.748,0.903,1.175,143.374,-240.634,226.132
18900.0,-0.995,0.025,0.328,2.604,-1.806,-0.991,-1.003,0.185,-0.111,-0.008,-2.151,2.797,-1.622,1.17,1.383,113.64,-282.625,259.025
18920.0,-0.962,0.072,0.319,1.913,-0.594,-1.045,-0.995,0.187,-0.108,-0.653,-2.549,3.008,-1.555,1.201,1.409,52.111,-312.82,272.198
18940.0,-0.938,0.084,0.305,0.56,4.06,-0.07,-0.993,0.177,-0.109,-0.388,-2.439,3.525,-1.401,1.13,1.282,-6.501,-328.098,276.193
18960.0,-0.968,0.059,0.343,-0.781,5.03,0.276,-1.0,0.182,-0.109,-0.426,-3.044,4.628,-1.359,1.079,0.965,-56.437,-347.17,276.195
18980.0,-1.0,0.037,0.346,-1.116,1.646,-0.128,-0.995,0.187,-0.111,-0.715,-3.762,5.031,-1.313,1.11,0.857,-85.112,-372.979,271.868
19000.0,-0.999,0.043,0.347,-0.82,0.886,0.332,-0.987,0.191,-0.109,-0.607,-3.996,5.253,-1.042,0.828,0.761,-83.743,-385.568,263.085
19020.0,-0.99,0.022,0.344,0.436,0.918,0.246,-0.99,0.199,-0.105,-0.629,-4.338,5.3,-0.983,0.772,0.674,-62.584,-367.463,259.554
