Timestamp,AccelX,AccelY,AccelZ,GyroX,GyroY,GyroZ
1743903299.867767,-0.788,-0.834,0.325,-40.880,-96.880,12.600
1743903299.887767,-0.647,-0.875,0.314,-37.240,-106.470,17.990
1743903299.907767,-0.517,-0.883,0.270,-28.420,-109.900,21.070
1743903299.927767,-0.441,-0.863,0.316,-31.570,-101.920,23.590
1743903299.947767,-0.464,-0.901,0.306,-42.420,-86.170,9.450
1743903299.967767,-0.404,-0.879,0.341,-66.430,-66.150,-15.540
1743903299.918757,-0.354,-0.923,0.352,-66.780,-58.240,-22.470
1743903299.938757,-0.303,-0.889,0.302,-51.170,-56.910,-25.970
1743903299.958757,-0.352,-0.813,0.361,-44.240,-52.850,-29.260
1743903299.978757,-0.368,-0.874,0.339,-44.030,-49.420,-26.670
1743903299.998757,-0.322,-0.951,0.379,1.960,-45.430,-29.540
1743903300.0187569,-0.380,-0.953,0.476,-21.070,-28.770,-30.100
1743903299.9864872,-0.354,-0.967,0.399,-44.310,3.920,-30.170
1743903300.0064871,-0.340,-0.941,0.427,-49.070,19.040,-28.840
1743903300.026487,-0.381,-0.935,0.418,-38.990,13.580,-26.810
1743903300.046487,-0.427,-0.967,0.244,13.160,-15.960,-27.860
1743903300.066487,-0.450,-0.792,0.352,-0.770,-27.510,-24.850
1743903300.086487,-0.454,-0.818,0.247,6.860,-35.280,-22.120
1743903299.990677,-0.375,-0.836,0.273,10.570,-22.750,-14.140
1743903300.010677,-0.349,-0.847,0.245,-6.160,-7.350,-7.350
1743903300.030677,-0.419,-0.896,0.199,-1.260,1.960,-1.260
1743903300.050677,-0.448,-0.931,0.182,10.080,8.610,7.770
1743903300.070677,-0.384,-0.937,0.185,29.260,18.550,10.850
1743903300.090677,-0.374,-0.907,0.153,46.410,31.500,16.520
1743903300.034449,-0.387,-0.851,0.106,65.240,51.660,31.220
1743903300.054449,-0.508,-0.848,0.095,91.700,57.750,38.290
1743903300.074449,-0.508,-0.858,0.074,101.010,59.850,51.520
1743903300.094449,-0.455,-0.823,0.122,135.940,72.590,55.580
1743903300.114449,-0.400,-0.895,0.213,120.750,93.590,51.870
1743903300.134449,-0.533,-0.895,0.267,109.270,114.800,50.820
1743903300.0772572,-0.422,-0.902,0.347,102.830,112.910,43.890
1743903300.0972571,-0.463,-0.748,0.299,100.100,114.240,39.900
1743903300.117257,-0.422,-0.760,0.371,63.000,99.330,40.390
1743903300.137257,-0.397,-0.627,0.453,68.950,123.620,52.780
1743903300.157257,-0.315,-0.750,0.525,28.350,92.190,39.760
1743903300.177257,-0.423,-0.732,0.457,30.450,84.070,25.550
1743903300.122168,-0.419,-0.775,0.573,-1.610,71.050,-0.560
1743903300.142168,-0.479,-0.825,0.493,-34.160,42.210,-7.630
1743903300.162168,-0.575,-0.787,0.388,-36.890,54.110,-17.990
1743903300.182168,-0.438,-0.768,0.268,-64.330,85.960,-12.390
1743903300.202168,-0.492,-0.818,0.355,-66.290,86.520,-34.090
1743903300.222168,-0.636,-1.100,0.412,-3.990,77.770,-18.340
1743903300.153409,-0.608,-0.751,0.357,-59.220,27.650,-16.170
1743903300.173409,-0.644,-0.935,0.337,-34.510,-9.380,-20.720
1743903300.193409,-0.440,-0.927,0.352,-36.120,-17.220,-24.990
1743903300.213409,-0.423,-0.859,0.368,-40.320,-30.800,-39.830
1743903300.233409,-0.347,-0.973,0.298,0.490,-25.340,-43.470
1743903300.253409,-0.672,-0.812,0.397,-17.150,-51.590,-36.260
1743903300.199379,-0.526,-0.979,0.373,-33.740,-83.930,-29.470
1743903300.219379,-0.520,-0.974,0.433,-30.870,-91.630,-33.880
1743903300.239379,-0.508,-0.971,0.472,-17.850,-82.670,-47.250
1743903300.259379,-0.327,-1.009,0.502,-14.000,-67.900,-51.170
1743903300.279379,-0.517,-0.891,0.470,-22.330,-61.670,-45.850
1743903300.2993789,-0.460,-0.685,0.357,-109.970,-53.620,-5.040
1743903300.2744112,-0.396,-0.764,0.314,-134.190,-44.940,13.510
1743903300.2944112,-0.452,-0.750,0.499,-156.030,-11.410,7.420
1743903300.3144112,-0.500,-0.816,0.138,-119.840,-28.350,1.330
1743903300.3344111,-0.427,-0.808,0.130,-78.190,-89.950,0.840
1743903300.3544111,-0.430,-0.805,0.381,-45.150,-101.780,16.870
1743903300.374411,-0.057,-0.769,0.351,-73.080,-88.550,12.040
1743903300.277277,-0.343,-0.784,0.290,-44.940,-81.830,10.920
1743903300.297277,-0.544,-0.730,0.251,-12.110,-87.360,0.420
1743903300.317277,-0.526,-0.695,0.481,13.370,-74.200,-3.080
1743903300.337277,-0.345,-0.686,0.468,-8.050,-45.010,-11.970
1743903300.357277,-0.351,-0.742,0.389,4.340,-20.160,-24.640
1743903300.377277,-0.391,-0.780,0.386,27.440,-17.430,-27.650
1743903300.3167331,-0.443,-0.879,0.395,34.650,-19.670,-21.770
1743903300.336733,-0.468,-0.940,0.452,56.140,-21.070,-19.950
1743903300.356733,-0.449,-0.942,0.513,72.800,-17.430,-14.560
1743903300.376733,-0.437,-0.949,0.487,80.500,-11.760,-3.290
1743903300.396733,-0.478,-0.966,0.473,83.650,0.560,6.230
1743903300.416733,-0.513,-0.992,0.506,57.470,11.620,19.180
1743903300.3795862,-0.498,-0.977,0.243,35.560,15.890,21.350
1743903300.3995862,-0.480,-0.980,0.234,14.000,9.520,17.710
1743903300.4195862,-0.530,-1.020,0.256,-75.320,-1.890,-2.450
1743903300.4395862,-0.454,-0.957,-0.016,-39.410,10.990,-3.850
1743903300.4595861,-0.367,-0.867,-0.132,-25.550,11.970,-2.450
1743903300.4795861,-0.437,-0.773,0.157,-48.020,24.220,-4.410
1743903300.409463,-0.467,-0.889,-0.038,-50.120,30.730,-7.350
1743903300.429463,-0.439,-0.965,-0.093,-7.560,17.990,1.750
1743903300.449463,-0.476,-0.984,-0.046,-0.630,-17.710,10.710
1743903300.4694629,-0.564,-0.911,0.225,-11.060,-32.550,5.320
1743903300.4894629,-0.532,-0.897,0.215,4.550,-39.620,1.190
1743903300.5094628,-0.458,-0.908,0.313,21.840,-41.580,-5.460
1743903300.4544911,-0.404,-0.878,0.335,7.980,-31.150,-15.960
1743903300.4744911,-0.414,-0.844,0.339,1.820,-24.220,-22.120
1743903300.494491,-0.392,-0.840,0.354,0.840,-16.030,-25.550
1743903300.514491,-0.363,-0.857,0.359,0.910,-12.460,-25.200
1743903300.534491,-0.341,-0.858,0.364,3.500,-11.620,-24.360
1743903300.554491,-0.443,-0.846,0.374,8.540,-10.850,-26.950
1743903300.499588,-0.475,-0.846,0.387,-4.480,-5.600,-36.820
1743903300.519588,-0.454,-0.842,0.355,-14.840,16.730,-28.630
1743903300.539588,-0.438,-0.933,0.321,-16.450,21.490,-30.100
1743903300.559588,-0.466,-0.943,0.344,-16.730,31.360,-29.610
1743903300.579588,-0.491,-0.971,0.333,-15.680,39.270,-32.270
1743903300.599588,-0.507,-0.943,0.386,-11.830,47.320,-37.870
1743903300.5748882,-0.500,-0.943,0.398,-4.130,46.480,-45.570
1743903300.5948882,-0.565,-0.923,0.431,1.750,39.200,-46.550
1743903300.6148882,-0.469,-0.843,0.432,-5.880,36.960,-41.020
1743903300.6348882,-0.473,-0.807,0.442,-18.620,35.420,-22.050
1743903300.6548882,-0.435,-0.834,0.404,-31.080,40.670,-8.540
1743903300.6748881,-0.404,-0.871,0.401,-31.920,41.370,6.440
1743903300.589482,-0.478,-0.950,0.373,-31.780,42.280,14.280
1743903300.609482,-0.460,-0.956,0.342,-31.850,43.330,16.310
1743903300.629482,-0.437,-0.890,0.305,-32.550,47.250,21.280
1743903300.649482,-0.435,-0.890,0.294,-33.320,46.060,26.670
1743903300.669482,-0.411,-0.892,0.289,-32.550,43.330,30.310
1743903300.689482,-0.416,-0.912,0.263,-29.960,41.090,27.370
1743903300.63454,-0.422,-0.934,0.256,-28.560,41.930,24.220
1743903300.65454,-0.443,-0.944,0.234,-31.990,43.820,17.780
1743903300.67454,-0.450,-0.945,0.234,-36.470,44.450,17.360
1743903300.69454,-0.475,-0.936,0.238,-46.060,51.100,23.240
1743903300.71454,-0.497,-0.910,0.232,-57.890,61.670,33.740
1743903300.73454,-0.487,-0.852,0.185,-78.260,66.640,40.810
1743903300.664154,-0.467,-0.887,0.184,-85.190,65.100,45.570
1743903300.684154,-0.475,-0.919,0.200,-80.360,59.430,44.660
1743903300.704154,-0.471,-0.952,0.191,-70.490,58.100,33.040
1743903300.724154,-0.539,-0.955,0.174,-68.950,46.970,25.620
1743903300.744154,-0.673,-1.065,0.184,-41.300,35.280,17.010
1743903300.764154,-0.406,-0.948,0.054,-51.170,20.160,37.800
1743903300.7203112,-0.303,-0.874,0.139,-56.490,8.330,41.090
1743903300.7403111,-0.403,-0.868,0.148,-58.730,11.060,34.790
1743903300.7603111,-0.631,-0.939,0.204,-37.450,0.630,46.060
1743903300.780311,-0.270,-0.784,0.087,-85.050,9.870,54.040
1743903300.800311,-0.354,-0.768,0.019,-76.090,13.020,21.140
1743903300.820311,-0.330,-0.838,-0.025,-82.250,3.500,18.270
1743903300.7654662,-0.392,-0.820,-0.029,-73.780,-12.180,10.010
1743903300.7854662,-0.301,-0.830,-0.113,-100.030,-19.040,5.740
1743903300.8054662,-0.276,-0.824,-0.134,-120.050,-27.020,4.130
1743903300.8254662,-0.401,-0.831,-0.151,-131.040,-36.960,13.090
1743903300.8454661,-0.384,-0.868,0.077,-133.070,-48.580,18.060
1743903300.865466,-0.508,-0.862,0.106,-112.000,-47.040,7.560
1743903300.782582,-0.575,-0.884,0.154,-108.710,-36.960,14.840
1743903300.802582,-0.470,-0.928,0.180,-96.600,-40.740,16.310
1743903300.822582,-0.497,-0.898,0.152,-91.560,-34.370,16.310
1743903300.842582,-0.465,-0.869,0.101,-69.300,-23.660,29.750
1743903300.862582,-0.392,-0.888,0.113,-51.940,-30.310,38.430
1743903300.882582,-0.525,-0.803,0.071,-40.880,-30.170,38.710
1743903300.873867,-0.521,-0.781,0.086,-33.390,-30.100,41.510
1743903300.893867,-0.270,-0.693,0.021,-27.090,-4.830,20.650
1743903300.913867,-0.410,-0.607,0.056,-26.040,11.270,0.840
1743903300.933867,-0.404,-0.577,0.011,-27.090,6.930,9.310
1743903300.953867,-0.500,-0.778,-0.076,-25.200,3.150,10.780
1743903300.973867,-0.490,-0.834,-0.041,-23.590,4.200,14.630
1743903300.87501,-0.536,-0.868,0.012,-27.650,12.600,26.600
1743903300.89501,-0.538,-0.886,0.027,-23.100,11.550,30.030
1743903300.91501,-0.548,-0.860,0.028,-15.260,8.680,34.370
1743903300.93501,-0.623,-0.861,0.069,-17.010,16.170,33.530
1743903300.95501,-0.629,-0.920,0.069,0.630,2.450,33.600
1743903300.97501,-0.566,-0.888,0.011,3.640,9.660,37.590
1743903300.901627,-0.534,-0.885,0.008,-0.140,10.710,40.390
1743903300.921627,-0.541,-0.880,0.014,-0.910,9.380,31.710
1743903300.941627,-0.564,-0.908,-0.005,-3.990,3.990,26.320
1743903300.961627,-0.537,-1.012,-0.089,5.250,-5.950,26.390
1743903300.981627,-0.576,-0.939,-0.120,-8.470,0.420,28.560
1743903301.001627,-0.574,-0.916,-0.179,-17.290,-2.800,28.350
1743903300.9321651,-0.568,-0.867,-0.182,-28.980,1.400,24.640
1743903300.9521651,-0.550,-0.867,-0.190,-36.610,6.230,19.460
1743903300.972165,-0.570,-0.864,-0.123,-45.010,5.460,18.970
1743903300.992165,-0.548,-0.866,-0.050,-33.320,0.490,11.760
1743903301.012165,-0.573,-0.882,-0.084,-12.320,4.340,12.390
1743903301.032165,-0.583,-0.827,-0.059,3.570,6.230,11.970
1743903300.977507,-0.619,-0.781,-0.063,2.450,0.840,7.980
1743903300.997507,-0.544,-0.834,-0.091,14.350,-2.520,7.000
1743903301.017507,-0.621,-0.757,-0.057,26.600,-9.450,10.920
1743903301.037507,-0.560,-0.814,-0.120,35.770,-4.410,10.570
1743903301.057507,-0.573,-0.864,-0.043,29.470,0.000,11.410
1743903301.077507,-0.575,-0.893,-0.074,30.660,-4.620,7.630
1743903301.0218282,-0.575,-0.833,-0.097,18.690,-2.170,11.760
1743903301.0418282,0.018,-1.003,-0.122,21.770,40.250,16.170
1743903301.0618281,-0.939,-0.788,-0.115,17.080,-15.540,5.740
1743903301.081828,-0.619,-0.861,0.006,9.940,-5.040,2.380
1743903301.101828,-0.589,-0.761,-0.019,-0.140,-5.320,6.090
1743903301.121828,-0.383,-0.829,-0.163,-5.390,-5.740,4.620
1743903301.0964932,-0.551,-0.844,-0.049,-0.140,-10.080,4.620
1743903301.1164932,-0.555,-0.817,-0.081,10.920,-17.430,3.570
1743903301.1364932,-0.549,-0.822,-0.019,22.540,-17.360,7.350
1743903301.1564932,-0.574,-0.745,-0.095,12.670,-14.630,6.860
1743903301.1764932,-0.548,-0.751,-0.068,12.390,-12.390,6.230
1743903301.1964931,-0.559,-0.824,-0.081,19.040,-17.430,3.080
1743903301.10068,-0.574,-0.843,-0.034,31.010,-39.270,5.810
1743903301.12068,-0.447,-0.816,-0.007,19.460,-18.340,-0.490
1743903301.14068,-0.650,-0.886,-0.075,23.730,-15.330,-1.260
1743903301.16068,-0.583,-0.885,0.036,18.410,-6.230,-0.420
1743903301.18068,-0.619,-0.844,-0.029,15.330,-4.130,1.890
1743903301.20068,-0.633,-0.819,0.007,8.330,-8.680,6.020
1743903301.1745381,-0.623,-0.832,0.016,8.960,-22.540,15.540
1743903301.194538,-0.661,-0.829,0.009,9.800,-12.040,17.570
1743903301.214538,-0.658,-0.842,-0.041,-3.430,-7.840,20.160
1743903301.234538,-0.613,-0.800,-0.011,-7.560,-4.620,22.750
1743903301.254538,-0.606,-0.810,-0.013,-1.120,-8.820,22.890
1743903301.274538,-0.584,-0.808,-0.009,3.150,-11.410,22.540
1743903301.1895201,-0.588,-0.814,-0.018,8.820,-13.860,18.550
1743903301.20952,-0.524,-0.814,0.018,19.950,-10.360,14.140
1743903301.22952,-0.570,-0.841,-0.033,26.460,-15.330,10.640
1743903301.24952,-0.609,-0.879,-0.021,36.750,-16.940,5.740
1743903301.26952,-0.589,-0.831,-0.012,37.100,-15.470,6.510
1743903301.28952,-0.593,-0.824,0.003,36.050,-15.260,5.250
1743903301.231955,-0.585,-0.827,0.039,35.560,-13.370,6.020
1743903301.251955,0.126,-1.689,-0.137,109.200,163.940,253.190
1743903301.271955,-2.233,-0.371,-0.617,-3.080,-91.490,55.860
1743903301.291955,-0.509,-0.534,0.132,-33.740,46.830,120.120
1743903301.311955,1.919,0.627,3.050,-436.170,550.410,-27.580
1743903301.331955,-1.371,-1.498,-2.982,4.900,86.030,10.710
1743903301.277266,-0.395,-0.372,0.333,-76.650,53.060,34.300
1743903301.297266,-0.196,-0.503,-0.033,-39.130,41.580,-6.440
1743903301.317266,-0.811,-0.673,-0.021,-41.370,32.690,1.890
1743903301.337266,-0.726,-0.733,0.113,-19.600,34.650,-3.290
1743903301.357266,-0.740,-0.805,0.150,-13.230,33.250,8.260
1743903301.377266,-0.722,-0.770,0.287,21.140,28.280,20.510
1743903301.32187,-0.696,-0.803,0.263,69.510,23.590,31.430
1743903301.34187,-0.661,-0.879,0.205,98.910,13.440,51.450
1743903301.36187,-0.760,-0.897,0.100,116.060,10.710,53.970
1743903301.38187,-0.720,-0.807,0.024,124.320,6.160,47.810
1743903301.40187,-0.718,-0.769,-0.040,94.500,7.980,50.120
1743903301.42187,-0.759,-0.716,-0.101,48.930,13.580,44.450
1743903301.367168,-0.706,-0.757,-0.138,28.910,13.860,32.620
1743903301.387168,-0.697,-0.767,-0.196,16.590,13.580,27.930
1743903301.407168,-0.696,-0.765,-0.190,-7.980,18.900,24.780
1743903301.427168,-0.647,-0.767,-0.194,-19.460,25.830,22.540
1743903301.4471679,-0.632,-0.704,-0.257,-33.390,11.900,9.940
1743903301.4671679,-0.753,-0.696,-0.199,-47.320,-0.280,11.270
1743903301.412736,-0.645,-0.781,-0.206,-50.680,-3.990,10.570
1743903301.432736,-0.646,-0.726,-0.148,-36.330,-18.760,10.080
1743903301.452736,-0.624,-0.705,-0.146,-24.360,-20.720,10.010
1743903301.472736,-0.608,-0.711,-0.103,-6.300,-21.210,-3.430
1743903301.4927359,-0.602,-0.712,-0.120,1.190,-26.740,-24.080
1743903301.5127358,-0.584,-0.701,-0.133,26.250,-26.460,-33.040
1743903301.473117,-0.568,-0.685,-0.080,26.180,-25.270,-39.620
1743903301.493117,-0.534,-0.655,-0.125,14.140,-13.440,-44.590
1743903301.513117,-0.569,-0.663,-0.054,-57.960,11.760,-59.920
1743903301.533117,-0.735,-0.624,0.185,-115.850,14.210,-181.510
1743903301.553117,-0.692,-0.638,-0.102,-317.660,29.890,-173.040
1743903301.573117,-0.081,-0.784,-0.284,-394.800,66.360,-78.260
1743903301.5060241,-0.209,-0.713,-0.475,-381.220,67.410,-49.980
1743903301.526024,-0.365,-0.742,-0.519,-328.090,62.860,-65.380
1743903301.546024,-0.529,-0.823,-0.406,-322.630,89.600,-138.180
1743903301.566024,-0.601,-0.738,-0.291,-361.060,107.800,-141.330
1743903301.586024,-0.657,-0.786,-0.340,-371.630,68.180,-108.850
1743903301.606024,-0.620,-0.819,-0.421,-365.330,101.220,-99.820
1743903301.53535,-0.565,-0.824,-0.440,-397.810,112.070,-109.060
1743903301.55535,-0.572,-0.755,-0.463,-427.490,113.890,-129.780
1743903301.57535,-0.521,-0.705,-0.664,-539.980,92.400,-127.470
1743903301.59535,-0.234,-0.776,-0.900,-493.290,129.360,-85.890
1743903301.61535,-0.220,-0.732,-1.247,-368.690,135.520,-7.350
1743903301.63535,-0.207,-0.734,-1.326,-212.170,109.690,29.680
1743903301.5764651,-0.333,-0.713,-1.337,-163.380,86.730,47.250
1743903301.596465,-0.416,-0.601,-1.239,-53.970,58.310,47.180
1743903301.616465,-0.427,-0.380,-1.042,10.360,16.940,-1.190
1743903301.636465,-0.411,-0.332,-1.094,42.350,-77.490,-41.090
1743903301.656465,-0.646,-0.580,-1.232,87.430,-114.590,-36.540
1743903301.676465,-0.710,-0.842,-0.863,235.270,-139.860,-10.640
1743903301.6219392,-0.595,-0.667,-0.553,219.520,-194.740,-4.690
1743903301.6419392,-0.507,-0.669,-0.470,205.450,-215.250,3.290
1743903301.6619391,-0.516,-0.689,-0.402,210.980,-236.740,24.990
1743903301.6819391,-0.463,-0.727,-0.323,220.010,-225.400,26.040
1743903301.701939,-0.497,-0.630,-0.249,199.710,-215.600,15.190
1743903301.721939,-0.525,-0.580,-0.240,175.280,-195.440,4.270
1743903301.666893,-0.520,-0.535,-0.234,149.870,-193.480,-0.700
1743903301.686893,-0.558,-0.456,-0.138,113.820,-172.060,-22.890
1743903301.706893,-0.539,-0.375,-0.049,76.300,-138.320,-69.300
1743903301.726893,-0.505,-0.368,0.059,13.440,-107.870,-80.150
1743903301.746893,-0.499,-0.416,0.064,-19.180,-77.490,-101.150
1743903301.766893,-0.491,-0.607,-0.076,-62.860,-27.230,-114.660
1743903301.697117,-0.436,-0.733,-0.226,-35.350,0.700,-114.310
1743903301.717117,-0.497,-0.912,-0.236,-22.960,10.430,-97.580
1743903301.737117,-0.592,-0.955,-0.250,-9.870,10.150,-74.620
1743903301.757117,-0.561,-0.911,-0.332,-1.120,-4.760,-65.800
1743903301.777117,-0.565,-0.869,-0.427,5.250,-18.200,-59.640
1743903301.797117,-0.584,-0.861,-0.463,30.870,-35.560,-62.020
1743903301.7719932,-0.578,-0.826,-0.418,46.480,-45.850,-64.750
1743903301.7919931,-0.572,-0.787,-0.351,49.770,-46.550,-64.680
1743903301.8119931,-0.556,-0.735,-0.296,28.210,-40.600,-63.980
1743903301.831993,-0.523,-0.741,-0.325,16.800,-35.840,-61.180
1743903301.851993,-0.483,-0.747,-0.406,5.250,-25.130,-63.840
1743903301.871993,-0.459,-0.786,-0.406,5.460,-20.580,-68.460
1743903301.7865663,-0.447,-0.773,-0.348,-3.360,-19.460,-67.270
1743903301.8065662,-0.435,-0.790,-0.333,-7.490,-10.710,-66.570
1743903301.8265662,-0.438,-0.776,-0.277,-17.430,-1.260,-64.680
1743903301.8465662,-0.478,-0.763,-0.275,-38.010,8.750,-65.310
1743903301.8665662,-0.504,-0.722,-0.291,-50.190,2.660,-62.230
1743903301.8865662,-0.529,-0.679,-0.351,-67.480,-3.150,-62.090
1743903301.8165412,-0.530,-0.664,-0.380,-77.420,-9.100,-62.440
1743903301.8365412,-0.527,-0.504,-0.369,-90.300,-12.740,-65.100
1743903301.8565412,-0.512,-0.578,-0.362,-119.420,-22.260,-73.500
1743903301.8765411,-0.419,-0.485,-0.492,-145.460,-25.550,-94.570
1743903301.896541,-0.141,-0.468,-0.512,-183.260,-14.840,-115.500
1743903301.916541,-0.116,-0.630,-0.709,-188.580,2.380,-137.900
1743903301.8624582,-0.132,-0.683,-0.753,-174.370,15.330,-146.370
1743903301.8824582,-0.213,-0.699,-0.680,-170.170,34.720,-168.420
1743903301.9024582,-0.251,-0.700,-0.684,-177.030,35.070,-179.970
1743903301.9224582,-0.231,-0.799,-0.784,-173.670,31.500,-178.360
1743903301.9424582,-0.252,-0.795,-0.763,-168.140,22.050,-175.700
1743903301.9624581,-0.286,-0.725,-0.673,-175.350,23.520,-170.030
1743903301.9053261,-0.272,-0.664,-0.630,-188.020,27.020,-172.060
1743903301.925326,-0.211,-0.635,-0.624,-185.150,27.020,-182.000
1743903301.945326,-0.165,-0.637,-0.573,-174.090,26.040,-198.800
1743903301.965326,-0.097,-0.650,-0.505,-153.370,30.380,-206.710
1743903301.985326,-0.038,-0.763,-0.412,-131.250,26.040,-230.860
1743903302.005326,-0.056,-0.846,-0.345,-118.650,27.020,-227.220
1743903301.966644,-0.218,-1.020,-0.320,-105.840,24.290,-216.370
1743903301.986644,-0.346,-1.162,-0.299,-85.260,19.740,-187.320
1743903302.006644,-0.623,-1.574,-0.239,-35.350,-16.660,-156.100
1743903302.026644,-0.705,-1.917,-0.172,20.090,-47.530,-85.960
1743903302.046644,-0.721,-2.076,-0.081,122.220,-69.720,33.180
1743903302.066644,-0.763,-2.180,-0.030,204.050,-85.540,105.980
1743903301.9951382,-0.747,-2.113,0.019,232.120,-82.460,187.950
1743903302.0151381,-0.752,-1.926,-0.070,264.670,-83.720,217.070
1743903302.0351381,-0.686,-1.632,-0.128,290.640,-100.940,255.500
1743903302.055138,-0.661,-1.549,-0.075,271.950,-105.000,264.180
1743903302.075138,-0.676,-1.330,-0.036,267.120,-99.050,261.030
1743903302.095138,-0.675,-1.255,-0.055,262.570,-97.510,252.420
1743903302.011567,-0.651,-1.271,-0.093,261.520,-108.080,250.460
1743903302.031567,-0.650,-1.232,-0.021,282.940,-122.710,250.740
1743903302.051567,-0.651,-1.195,0.102,296.450,-142.380,246.330
1743903302.071567,-0.700,-1.029,0.128,274.050,-192.430,202.930
1743903302.091567,-0.647,-0.885,0.082,283.920,-198.100,185.920
1743903302.111567,-0.493,-0.893,-0.161,326.340,-268.380,183.820
1743903302.057481,-0.259,-0.873,-0.122,395.290,-215.250,156.380
1743903302.077481,-0.220,-0.946,-0.165,488.950,-158.760,118.300
1743903302.097481,-0.287,-0.903,-0.081,507.640,-177.730,137.200
1743903302.117481,-0.270,-0.551,0.037,473.340,-164.990,102.130
1743903302.137481,-0.357,-0.452,0.093,424.830,-153.370,66.920
1743903302.157481,-0.392,-0.540,0.056,418.950,-144.900,24.080
1743903302.101766,-0.395,-0.740,0.069,409.360,-140.000,22.750
1743903302.121766,-0.476,-0.808,0.056,409.010,-121.660,65.450
1743903302.141766,-0.315,-0.818,-0.054,427.210,-123.270,100.450
1743903302.161766,-0.369,-0.750,-0.088,448.560,-135.870,131.180
1743903302.181766,-0.504,-0.606,-0.098,452.270,-152.810,163.030
1743903302.201766,-0.644,-0.669,-0.101,411.390,-133.630,125.090
1743903302.146459,-0.657,-0.687,-0.081,374.010,-115.710,83.020
1743903302.166459,-0.668,-0.617,-0.000,329.000,-119.350,21.210
1743903302.186459,-0.597,-0.475,0.039,236.600,-136.150,25.060
1743903302.206459,-0.644,-0.526,-0.195,216.230,-224.980,-13.230
1743903302.226459,-0.585,-0.687,-0.172,350.630,-221.620,-77.980
1743903302.246459,-0.610,-0.578,0.091,346.710,-257.040,-101.290
1743903302.191814,-0.574,-0.626,0.354,326.270,-252.910,-85.330
1743903302.211814,-0.451,-0.677,0.539,301.420,-194.530,-71.610
1743903302.231814,-0.384,-0.742,0.561,308.910,-151.410,-50.610
1743903302.251814,-0.490,-0.767,0.357,393.050,-105.490,-50.120
1743903302.2718139,-0.489,-0.813,0.358,456.750,-88.690,-77.280
1743903302.2918139,-0.656,-0.451,0.539,417.340,-126.980,-56.280
1743903302.2809982,-0.583,-0.404,0.608,343.350,-180.880,-35.490
1743903302.3009982,-0.469,-0.395,0.568,333.690,-195.860,-12.670
1743903302.3209982,-0.429,-0.364,0.517,352.380,-180.880,22.750
1743903302.3409982,-0.364,-0.298,0.583,392.560,-214.830,25.340
1743903302.3609982,-0.447,-0.417,0.759,414.890,-224.140,-1.960
1743903302.3809981,-0.487,-0.397,0.817,452.270,-264.460,-14.910
1743903302.283858,-0.353,-0.249,0.931,468.790,-267.750,-21.140
1743903302.303858,-0.320,-0.124,0.900,444.920,-252.420,-25.410
1743903302.323858,-0.246,-0.012,0.870,380.170,-232.470,-38.780
1743903302.343858,-0.101,0.068,0.792,313.950,-178.990,-10.920
1743903302.363858,-0.022,0.060,0.797,260.890,-153.090,13.580
1743903302.383858,-0.052,0.028,1.075,160.790,-87.710,12.110
1743903302.297533,-0.117,-0.120,1.230,170.870,-120.540,-5.950
1743903302.317533,-0.140,-0.106,1.294,241.780,-178.290,-12.460
1743903302.337533,-0.142,0.033,1.159,265.160,-158.270,2.240
1743903302.357533,-0.133,0.001,1.113,305.830,-147.070,1.820
1743903302.377533,-0.053,-0.016,1.246,309.470,-155.470,-9.380
1743903302.397533,-0.055,0.084,1.235,255.570,-119.350,-27.090
1743903302.342168,-0.079,0.121,1.211,205.730,-82.460,-21.140
1743903302.362168,-0.035,0.242,1.141,158.970,-51.800,-25.760
1743903302.382168,0.002,0.201,1.140,100.310,-52.710,-27.020
1743903302.402168,-0.067,0.235,1.167,85.960,-56.280,-21.070
1743903302.422168,-0.091,0.312,1.193,52.010,-59.150,-12.180
1743903302.442168,-0.003,0.298,1.177,37.170,-62.300,-23.730
1743903302.4017901,0.005,0.268,1.191,33.950,-79.520,-40.390
1743903302.4217901,-0.022,0.220,1.159,30.100,-71.330,-40.950
1743903302.44179,-0.028,0.233,1.139,23.030,-47.670,-37.380
1743903302.46179,-0.018,0.219,1.158,-10.710,-15.960,-31.500
1743903302.48179,-0.047,0.202,1.161,-23.380,11.690,-23.660
1743903302.50179,0.056,0.128,1.145,-14.070,166.740,5.950
1743903302.433725,-0.183,0.250,1.232,-19.950,139.580,-6.440
1743903302.453725,-0.604,0.355,1.211,-45.080,114.730,-3.570
1743903302.473725,-0.577,0.146,1.072,-64.260,118.160,31.360
1743903302.493725,0.072,0.177,1.040,-60.130,134.750,26.600
1743903302.513725,0.086,0.014,0.911,-11.130,135.590,5.110
1743903302.533725,-0.320,-0.061,1.025,38.920,126.770,-5.810
1743903302.4769893,-0.247,0.049,0.943,7.420,104.020,-14.000
1743903302.4969893,-0.235,0.187,0.937,-12.950,90.370,-43.190
1743903302.5169892,-0.282,0.203,0.966,-50.330,68.460,-56.770
1743903302.5369892,-0.293,0.120,0.913,-50.120,60.620,-58.380
1743903302.5569892,-0.301,0.120,0.905,-46.130,59.500,-53.480
1743903302.5769892,-0.302,0.212,0.968,-54.040,64.260,-32.830
1743903302.521946,-0.223,0.215,0.996,-89.950,85.050,-15.120
1743903302.541946,-0.202,0.201,0.990,-101.920,58.100,-5.180
1743903302.561946,-0.288,0.133,1.002,-96.880,-1.120,-3.640
1743903302.581946,-0.351,0.050,0.876,-57.610,-26.810,-14.280
1743903302.6019459,-0.345,0.026,0.883,1.890,-42.700,-30.170
1743903302.6219459,-0.339,0.072,0.961,30.100,-31.290,-29.050
1743903302.566844,-0.285,0.140,0.999,-2.520,-4.550,3.080
1743903302.586844,-0.396,0.135,1.003,-17.920,-64.190,-19.740
1743903302.606844,-0.338,0.030,1.017,-21.280,-68.180,13.510
1743903302.626844,-0.196,0.106,0.955,-37.520,-33.180,24.290
1743903302.646844,-0.269,0.178,0.958,-46.900,-55.090,42.910
1743903302.666844,-0.251,0.199,0.978,-59.570,-56.280,61.040
1743903302.61161,-0.220,0.237,0.993,-69.440,-44.590,59.850
1743903302.63161,-0.168,0.130,0.991,-109.200,-49.000,55.510
1743903302.65161,-0.119,0.228,1.001,-122.010,-50.190,46.060
1743903302.6716099,-0.113,0.136,1.024,-130.270,-71.680,12.880
1743903302.6916099,-0.092,0.110,1.048,-103.110,-65.730,-5.110
1743903302.7116098,-0.071,0.009,1.093,-91.770,-67.060,4.550
1743903302.657291,-0.043,0.016,1.127,-45.710,-57.610,6.580
1743903302.677291,-0.027,0.078,1.136,-32.270,-44.940,9.660
1743903302.697291,-0.014,0.141,1.132,-32.970,-12.390,8.610
1743903302.7172909,-0.037,0.167,1.109,-46.480,13.510,3.710
1743903302.7372909,-0.075,0.165,1.082,-55.160,6.160,-5.670
1743903302.7572908,-0.139,0.130,1.021,-64.400,2.170,-6.930
1743903302.6879091,-0.170,0.085,0.992,-69.020,-10.080,-5.320
1743903302.707909,-0.190,0.043,0.987,-72.170,-19.460,-1.330
1743903302.727909,-0.194,0.032,0.992,-67.620,-36.680,4.550
1743903302.747909,-0.168,0.001,1.006,-58.660,-44.590,-1.190
1743903302.767909,-0.119,-0.025,1.017,-43.680,-45.150,-5.180
1743903302.787909,-0.062,-0.076,1.007,-21.280,-30.240,-21.000
1743903302.732153,-0.074,-0.164,0.966,-8.470,-14.210,-24.920
1743903302.752153,-0.146,-0.195,0.938,1.400,-8.960,-21.560
1743903302.772153,-0.216,-0.271,0.963,18.130,-28.490,-29.540
1743903302.792153,-0.214,-0.305,1.093,75.110,-35.840,-32.060
1743903302.8121529,-0.170,-0.281,1.231,125.370,-45.780,-38.640
1743903302.8321528,-0.116,-0.242,1.269,189.490,-30.660,-75.040
1743903302.776812,-0.040,-0.224,1.337,180.530,-16.240,-138.880
1743903302.796812,0.025,-0.124,1.388,170.170,27.300,-153.650
1743903302.816812,0.041,-0.026,1.321,111.090,37.520,-154.770
1743903302.836812,-0.255,0.368,1.384,277.970,104.720,-108.430
1743903302.856812,-0.282,0.371,1.153,148.260,73.360,-43.750
1743903302.876812,-0.060,0.344,0.800,107.380,139.090,-37.170
1743903302.822204,-0.229,0.231,0.857,116.620,-65.450,-69.090
1743903302.842204,-0.262,0.262,1.307,17.220,-76.580,-48.370
1743903302.862204,-0.166,0.020,0.928,30.240,-79.310,-65.520
1743903302.882204,-0.447,0.096,1.006,14.280,-148.540,-45.850
1743903302.902204,-0.195,0.020,1.161,48.930,-69.860,3.990
1743903302.922204,-0.220,-0.036,1.177,65.870,-30.730,21.350
1743903302.868216,-0.097,0.016,1.200,54.880,-9.100,39.550
1743903302.888216,-0.048,0.058,1.018,45.360,22.120,42.070
1743903302.908216,-0.037,0.148,0.996,59.570,79.100,41.790
1743903302.928216,-0.083,0.190,1.029,67.970,126.980,60.270
1743903302.948216,-0.162,0.400,1.039,52.500,136.150,36.960
1743903302.968216,-0.223,0.419,0.939,-4.620,116.410,27.860
1743903302.896923,-0.203,0.291,0.979,-5.250,59.010,23.170
1743903302.916923,-0.231,0.115,0.993,-11.760,40.110,23.310
1743903302.936923,-0.069,0.066,1.006,13.160,48.580,-0.070
1743903302.956923,-0.486,0.295,0.800,-21.070,14.700,16.170
1743903302.976923,-0.279,0.223,0.923,-13.440,27.300,19.460
1743903302.996923,-0.275,0.211,0.990,-21.000,61.530,31.640
1743903302.95685,-0.261,0.209,0.969,-1.050,86.870,36.050
1743903302.97685,-0.233,0.262,1.112,-85.120,78.540,45.430
1743903302.99685,-0.258,0.194,0.889,-71.680,78.890,35.980
1743903303.01685,-0.352,0.128,0.913,-36.050,76.300,33.810
1743903303.03685,-0.291,0.219,0.895,-40.810,56.910,28.560
1743903303.05685,-0.307,0.192,0.904,-39.410,36.610,8.610
1743903303.001805,-0.373,0.178,0.917,-33.250,-2.310,1.050
1743903303.021805,-0.334,0.231,0.955,-33.180,-17.290,30.380
1743903303.041805,-0.206,0.204,1.030,-14.000,-12.460,32.830
1743903303.061805,-0.202,0.235,1.041,-1.260,1.190,18.340
1743903303.081805,-0.194,0.218,1.025,1.260,12.320,11.970
1743903303.101805,-0.218,0.215,1.034,-13.370,18.900,21.630
1743903303.061767,-0.240,0.223,1.029,-21.420,28.630,29.120
1743903303.081767,-0.268,0.193,0.991,-29.820,29.470,33.670
1743903303.101767,-0.231,0.215,1.022,-33.880,25.270,36.190
1743903303.121767,-0.193,0.206,0.982,-31.080,28.210,37.240
1743903303.141767,-0.224,0.192,1.060,-26.880,26.390,35.140
1743903303.161767,-0.195,0.249,1.046,-25.130,32.130,38.220
1743903303.09372,-0.243,0.221,1.028,-39.270,32.480,39.970
1743903303.11372,-0.267,0.197,1.010,-58.590,34.930,43.890
1743903303.13372,-0.289,0.174,1.016,-60.340,33.600,50.330
1743903303.15372,-0.292,0.186,1.062,-68.530,27.580,52.570
1743903303.17372,-0.296,0.238,1.073,-73.500,26.600,47.880
1743903303.1937199,-0.271,0.223,1.052,-69.860,25.970,50.470
1743903303.12186,-0.317,0.190,1.043,-62.020,16.870,52.290
1743903303.14186,-0.299,0.177,1.013,-58.100,12.180,55.720
1743903303.16186,-0.285,0.148,1.014,-49.420,11.970,56.560
1743903303.18186,-0.279,0.174,1.005,-55.370,12.180,61.110
1743903303.20186,-0.311,0.174,0.956,-67.480,8.820,63.770
1743903303.22186,-0.306,0.170,0.979,-99.330,16.730,65.380
1743903303.16685,-0.373,0.288,1.039,-145.740,5.740,78.960
1743903303.18685,-0.338,0.134,1.001,-161.630,8.820,81.690
1743903303.20685,-0.301,0.152,1.005,-157.570,13.720,72.730
1743903303.22685,-0.218,0.139,1.088,-151.620,25.690,73.290
1743903303.24685,-0.266,0.063,1.062,-135.100,21.000,71.960
1743903303.26685,-0.229,0.025,1.053,-99.960,14.280,63.980
1743903303.199122,-0.236,0.051,1.017,-92.610,3.850,56.350
1743903303.219122,-0.272,0.131,0.996,-98.210,-10.990,47.600
1743903303.239122,-0.326,0.112,0.977,-118.860,-21.770,51.380
1743903303.259122,-0.293,0.025,0.938,-127.890,-23.730,61.880
1743903303.2791219,-0.282,0.035,0.956,-129.360,7.630,60.550
1743903303.2991219,-0.255,0.049,1.031,-155.120,25.200,54.810
1743903303.2569,-0.304,0.052,1.056,-166.880,63.560,63.350
1743903303.2769,-0.222,-0.018,1.038,-173.670,59.710,65.170
1743903303.2969,-0.300,-0.053,1.084,-144.480,47.320,52.710
1743903303.3169,-0.293,-0.165,1.061,-114.660,31.640,33.880
1743903303.3369,-0.258,-0.160,1.049,-72.590,22.400,18.550
1743903303.3569,-0.267,-0.134,1.030,-64.190,13.650,9.870
1743903303.287107,-0.327,-0.127,0.996,-54.670,8.750,10.780
1743903303.307107,-0.317,-0.157,0.965,-51.030,6.930,10.150
1743903303.327107,-0.300,-0.179,0.935,-39.830,6.300,8.470
1743903303.347107,-0.305,-0.189,0.934,-33.810,11.550,10.290
1743903303.367107,-0.339,-0.171,0.965,-32.970,8.260,13.020
1743903303.387107,-0.370,-0.151,1.017,-39.550,3.780,13.020
1743903303.331818,-0.382,-0.190,1.025,-39.200,-5.530,17.430
1743903303.351818,-0.384,-0.221,0.986,-24.850,-17.640,12.250
1743903303.371818,-0.315,-0.231,0.993,-2.590,-19.390,3.850
1743903303.391818,-0.349,-0.194,1.012,-0.140,-21.000,-2.870
1743903303.411818,-0.363,-0.182,0.997,-3.360,-26.180,-5.950
1743903303.431818,-0.383,-0.207,0.961,-4.200,-32.410,-9.170
1743903303.377016,-0.398,-0.224,0.944,1.470,-36.330,-10.500
1743903303.397016,-0.392,-0.232,0.951,10.990,-35.630,-15.890
1743903303.417016,-0.378,-0.202,0.965,12.950,-30.240,-16.870
1743903303.437016,-0.331,-0.240,0.984,29.610,-22.540,-17.990
1743903303.457016,-0.363,-0.228,0.976,56.420,-20.370,-18.760
1743903303.477016,-0.379,-0.207,1.000,56.980,-30.590,-18.270
1743903303.408659,-0.387,-0.185,0.895,69.930,-42.980,-16.660
1743903303.428659,-0.409,-0.195,0.971,62.860,-46.550,-12.880
1743903303.448659,-0.368,-0.107,1.031,46.340,-49.210,-10.850
1743903303.468659,-0.337,-0.181,0.977,43.890,-45.430,-7.420
1743903303.488659,-0.333,-0.120,1.000,36.750,-45.990,-4.410
1743903303.508659,-0.334,-0.237,0.994,26.670,-35.000,6.860
1743903303.468095,-0.298,-0.164,0.974,31.640,-19.320,13.790
1743903303.488095,-0.292,-0.121,0.969,35.280,-16.450,15.050
1743903303.508095,-0.288,-0.091,1.011,30.520,-10.290,14.070
1743903303.528095,-0.273,-0.087,0.989,33.530,3.500,2.520
1743903303.548095,-0.250,-0.086,1.010,43.400,14.980,-8.960
1743903303.568095,-0.313,-0.043,1.019,45.640,14.700,-7.770
1743903303.512864,-0.291,-0.074,1.006,42.560,10.430,-7.070
1743903303.532864,-0.281,-0.060,0.989,40.040,9.450,-9.100
1743903303.552864,-0.287,-0.040,0.927,40.110,3.640,-15.470
1743903303.572864,-0.336,-0.053,0.931,57.400,-8.890,-13.720
1743903303.592864,-0.296,-0.054,0.980,58.240,-17.220,-14.070
1743903303.612864,-0.296,-0.040,0.965,54.810,-14.280,-9.870
1743903303.541937,-0.298,-0.050,0.993,43.750,-11.130,-4.760
1743903303.561937,-0.297,-0.035,1.013,37.240,-12.180,-0.840
1743903303.581937,-0.279,-0.030,1.023,27.510,-10.220,0.840
1743903303.601937,-0.272,-0.004,1.034,26.250,-5.950,-3.850
1743903303.621937,-0.257,-0.003,1.024,29.890,-4.760,-8.050
1743903303.641937,-0.271,0.014,1.007,13.020,3.360,4.340
1743903303.5740962,-0.264,-0.013,0.983,10.570,4.760,7.420
1743903303.5940962,-0.259,-0.031,0.975,14.770,6.860,8.890
1743903303.6140962,-0.257,-0.031,0.962,13.650,6.860,5.320
1743903303.6340961,-0.250,-0.030,1.002,13.580,-4.550,3.570
1743903303.6540961,-0.263,-0.007,1.003,27.510,-13.090,-3.220
1743903303.674096,-0.268,-0.008,1.008,39.620,-20.720,-11.270
1743903303.6320562,-0.235,-0.027,0.960,65.520,-29.120,-15.330
1743903303.6520562,-0.240,-0.011,1.036,64.190,-45.990,-25.270
1743903303.6720562,-0.304,0.013,1.021,73.220,-49.630,-20.860
1743903303.6920562,-0.274,0.003,0.986,38.150,-39.200,-10.150
1743903303.7120562,-0.261,0.003,0.992,29.890,-30.590,-6.160
1743903303.7320561,-0.276,-0.006,1.007,25.480,-22.470,-5.110
1743903303.663723,-0.269,0.002,1.019,23.870,-20.440,-4.830
1743903303.683723,-0.244,0.015,1.023,22.820,-16.940,-6.580
1743903303.703723,-0.227,0.021,1.049,30.030,-20.580,-18.970
1743903303.723723,-0.249,0.040,1.018,30.240,-18.900,-22.330
1743903303.743723,-0.265,0.047,1.013,30.100,-21.000,-19.460
1743903303.763723,-0.239,0.044,1.017,30.870,-23.240,-21.280
1743903303.7072582,-0.233,0.038,1.050,30.870,-26.950,-23.800
1743903303.7272582,-0.249,0.017,1.047,50.960,-27.370,-24.290
1743903303.7472582,-0.249,0.024,1.038,50.960,-19.110,-16.940
1743903303.7672582,-0.269,0.033,1.047,39.900,-22.120,-12.740
1743903303.7872581,-0.271,0.018,1.037,38.080,-21.070,-14.700
1743903303.8072581,-0.260,0.006,1.045,38.220,-17.150,-17.290
1743903303.783111,-0.249,0.005,1.056,41.650,-9.520,-22.540
1743903303.803111,-0.245,0.015,1.037,39.410,-1.960,-17.990
1743903303.823111,-0.248,0.020,1.025,41.160,-3.430,-16.520
1743903303.843111,-0.256,0.014,1.036,43.890,-4.830,-34.510
1743903303.863111,-0.322,0.020,1.053,47.390,-8.750,-23.170
1743903303.883111,-0.251,0.100,1.062,41.650,-19.460,-23.800
1743903303.7851262,-0.263,0.092,1.065,36.050,-19.390,-22.750
1743903303.8051262,-0.310,0.055,1.058,27.370,-18.760,-13.860
1743903303.8251262,-0.305,0.013,1.058,33.670,-20.720,-14.700
1743903303.8451262,-0.282,-0.007,1.064,43.260,-12.530,-17.290
1743903303.8651261,-0.285,-0.011,1.030,57.400,-7.000,-18.690
1743903303.885126,-0.293,-0.009,0.991,63.980,-16.590,-23.100
1743903303.826975,-0.316,-0.023,0.972,74.620,-43.610,-41.510
1743903303.846975,-0.319,-0.022,0.974,81.340,-62.230,-38.640
1743903303.866975,-0.240,0.091,1.017,38.290,-30.030,-20.440
1743903303.886975,-0.224,0.134,1.019,6.230,10.150,5.740
1743903303.906975,-0.229,0.124,1.015,-9.800,22.750,16.520
1743903303.926975,-0.241,0.088,1.046,-8.750,33.530,18.620
1743903303.885266,-0.207,0.107,1.062,-0.280,39.480,12.530
1743903303.905266,-0.317,0.052,1.057,1.750,12.810,9.940
1743903303.925266,-0.298,0.036,1.015,41.510,-3.430,9.590
1743903303.945266,-0.258,0.040,1.001,38.780,-6.230,11.830
1743903303.965266,-0.235,0.071,0.997,28.350,-5.740,22.820
1743903303.985266,0.025,0.194,1.033,-18.060,42.350,38.780
1743903303.902873,-0.152,0.097,1.094,-50.330,143.010,50.260
1743903303.922873,-0.108,0.187,0.997,6.090,56.420,14.210
1743903303.942873,-0.485,0.212,1.004,16.450,22.680,3.850
1743903303.962873,-0.197,0.200,1.015,14.910,13.860,4.900
1743903303.982873,-0.233,0.151,1.026,17.990,8.680,7.490
1743903304.002873,-0.228,0.167,0.992,21.280,3.990,8.330
1743903303.9476101,-0.227,0.142,0.985,17.710,7.000,6.860
1743903303.9676101,-0.210,0.135,1.007,22.330,-2.240,1.820
1743903303.98761,-0.196,0.127,1.029,30.800,-3.570,1.960
1743903304.00761,0.009,0.099,1.026,43.260,4.130,-6.090
1743903304.02761,-0.373,0.191,1.049,44.800,-5.670,-28.070
1743903304.04761,-0.428,0.283,0.985,17.780,-18.410,-10.010
1743903303.992891,-0.186,0.281,0.975,-5.670,14.700,-13.510
1743903304.012891,-0.214,0.264,1.025,-9.030,15.330,-14.000
1743903304.032891,-0.213,0.254,1.046,-13.790,15.260,-14.560
1743903304.052891,-0.225,0.228,1.027,-15.680,13.790,-16.800
1743903304.072891,-0.222,0.195,1.009,-15.190,11.550,-19.670
1743903304.092891,-0.229,0.190,0.997,-11.410,11.480,-17.150
1743903304.070151,-0.259,0.173,1.003,-10.850,8.120,-15.190
1743903304.090151,-0.265,0.165,1.028,-12.670,1.120,-12.040
1743903304.110151,-0.272,0.148,1.013,-21.280,-2.170,-9.240
1743903304.130151,-0.272,0.126,1.078,-22.960,18.550,-29.330
1743903304.150151,0.031,0.251,1.160,-1.190,63.770,-44.030
1743903304.170151,-0.419,0.049,1.017,2.590,58.170,-27.650
1743903304.071454,-0.407,0.033,0.979,-0.700,26.110,-28.770
1743903304.091454,-0.352,0.068,1.001,29.190,17.500,-34.580
1743903304.111454,-0.364,0.095,1.013,45.290,11.340,-36.470
1743903304.131454,-0.321,0.167,1.055,25.900,3.850,-37.380
1743903304.151454,-0.343,0.134,0.945,36.750,-6.790,-76.860
1743903304.171454,-0.368,0.207,0.935,66.570,-0.700,-95.200
1743903304.140112,-0.405,0.401,1.039,71.330,19.810,-148.120
1743903304.160112,-0.410,0.445,0.891,324.730,127.050,-277.830
1743903304.180112,-0.607,0.469,0.576,553.910,173.950,-331.590
1743903304.2001119,-0.482,0.274,1.024,511.980,145.390,-318.010
1743903304.2201118,-0.508,0.357,1.202,285.810,39.900,-303.310
1743903304.2401118,-0.194,-0.142,0.792,217.350,64.680,-224.630
1743903304.18502,-0.248,-0.054,0.915,214.690,56.980,-150.010
1743903304.20502,-0.137,0.050,0.945,1.120,-41.300,-7.490
1743903304.22502,-0.248,-0.056,0.965,-50.750,-58.660,50.190
1743903304.24502,-0.593,0.177,0.732,-46.060,-91.210,50.540
1743903304.26502,-0.495,0.300,0.892,-24.080,-88.550,57.610
1743903304.2850199,-0.404,0.352,0.932,-51.870,-70.280,66.220
1743903304.2171612,-0.318,0.423,1.125,-66.710,-50.190,56.420
1743903304.2371612,-0.299,0.499,1.037,-73.290,-30.450,33.740
1743903304.2571611,-0.325,0.431,0.953,-79.240,-17.360,20.230
1743903304.2771611,-0.344,0.416,0.978,-82.250,-9.380,-4.270
1743903304.297161,-0.347,0.411,0.997,-49.070,15.750,-31.010
1743903304.317161,-0.264,0.355,1.032,-32.200,30.310,-10.780
1743903304.261815,-0.258,0.303,1.023,-32.340,41.300,-5.110
1743903304.281815,-0.353,0.285,0.987,-19.600,40.740,-2.800
1743903304.301815,-0.411,0.249,0.938,-3.990,29.330,-6.090
1743903304.321815,-0.434,0.227,0.914,-7.210,9.030,-3.640
1743903304.341815,-0.442,0.239,0.926,-10.570,1.330,-3.920
1743903304.361815,-0.389,0.220,0.935,-10.010,8.260,-2.730
1743903304.291747,-0.399,0.221,0.973,5.110,17.290,-0.350
1743903304.311747,-0.425,0.314,0.966,3.010,16.100,0.630
1743903304.331747,-0.482,0.388,0.972,-32.410,-0.700,-2.380
1743903304.351747,-0.363,0.183,0.987,-14.070,17.080,-2.240
1743903304.371747,-0.405,0.197,1.002,2.310,20.580,-3.080
1743903304.391747,-0.399,0.218,0.959,30.870,14.070,-11.200
1743903304.396403,-0.390,0.209,0.940,38.850,3.710,-15.400
1743903304.416403,-0.443,0.246,0.933,43.820,-4.760,-20.370
1743903304.436403,-0.399,0.269,0.976,46.200,12.530,-35.770
1743903304.456403,-0.398,0.249,0.954,55.230,15.540,-41.650
1743903304.476403,-0.403,0.267,0.925,59.360,13.650,-52.220
1743903304.496403,-0.405,0.398,0.934,13.860,30.170,-40.880
1743903304.399852,-0.185,0.689,0.936,-116.550,36.820,-59.430
1743903304.419852,-0.495,0.152,0.964,-90.160,41.230,-73.290
1743903304.439852,-0.431,0.102,0.932,-40.880,46.830,-75.950
1743903304.459852,-0.528,0.071,0.815,-3.780,13.790,-77.980
1743903304.479852,-0.582,0.057,0.872,2.100,-6.440,-61.880
1743903304.499852,-0.523,0.121,0.881,7.000,-3.290,-56.770
1743903304.4118001,-0.415,0.257,0.919,-10.150,9.520,-59.290
1743903304.4318001,-0.416,0.259,0.933,-32.060,21.350,-59.570
1743903304.4518,-0.620,0.183,0.925,-86.520,15.120,-42.630
1743903304.4718,-0.545,0.018,0.966,-67.480,24.990,-43.470
1743903304.4918,-0.515,0.142,0.936,-72.310,30.100,-42.840
1743903304.5118,-0.450,0.250,0.962,-82.320,33.950,-40.740
1743903304.471255,-0.441,0.265,0.943,-96.180,47.250,-41.300
1743903304.491255,-0.462,0.227,0.958,-106.750,57.050,-49.910
1743903304.511255,-0.467,0.191,0.930,-112.700,67.620,-49.280
1743903304.531255,-0.475,0.098,0.941,-95.270,72.450,-50.120
1743903304.551255,-0.535,0.081,0.899,-81.900,63.840,-44.660
1743903304.571255,-0.483,0.144,0.902,-97.930,71.540,-44.100
1743903304.488131,-0.525,0.033,0.912,-76.720,58.870,-39.970
1743903304.508131,-0.527,0.083,0.899,-72.030,69.650,-35.140
1743903304.528131,-0.501,0.094,0.766,-81.340,69.580,-30.730
1743903304.548131,-0.585,0.014,0.844,-75.110,48.790,-24.780
1743903304.568131,-0.617,-0.004,0.890,-66.220,43.820,-20.090
1743903304.588131,-0.638,-0.027,0.856,-38.150,25.200,-13.510
1743903304.532002,-0.655,-0.012,0.888,-27.510,18.480,-0.070
1743903304.552002,-0.605,0.009,0.920,-27.300,16.310,7.490
1743903304.572002,-0.597,0.026,0.920,-21.420,21.420,10.430
1743903304.592002,-0.597,0.034,0.920,-12.880,22.050,8.610
1743903304.612002,-0.601,0.041,0.906,-12.810,22.470,8.190
1743903304.6320019,-0.603,0.027,0.886,-21.000,25.340,12.950
1743903304.578133,-0.600,0.026,0.878,-24.850,28.630,17.990
1743903304.598133,-0.618,0.022,0.898,-25.060,25.620,22.610
1743903304.618133,-0.608,0.004,0.903,-17.850,23.310,22.610
1743903304.638133,-0.584,0.004,0.923,-3.080,23.310,20.370
1743903304.658133,-0.590,0.001,0.888,23.450,16.520,15.470
1743903304.678133,-0.579,0.011,0.850,29.190,13.650,13.440
1743903304.6819692,-0.602,0.040,0.839,23.870,14.000,20.020
1743903304.7019691,-0.605,0.062,0.854,7.420,7.560,18.130
1743903304.7219691,-0.572,0.121,0.889,8.890,-3.850,3.500
1743903304.741969,-0.721,0.431,0.849,-95.480,-35.350,-2.730
1743903304.761969,-0.593,0.091,0.844,-98.560,-47.880,11.620
1743903304.781969,-0.501,-0.108,0.902,-14.770,-51.030,11.060
1743903304.685554,-0.481,-0.002,0.849,1.050,-45.990,-5.040
1743903304.705554,-0.528,-0.007,0.837,17.990,-52.010,-3.990
1743903304.725554,-0.577,0.004,0.839,-3.150,-47.950,-10.640
1743903304.745554,-0.565,0.036,0.823,-20.230,-32.760,-14.840
1743903304.765554,-0.556,0.081,0.856,-67.410,-28.000,-10.920
1743903304.785554,-0.721,0.187,0.914,-120.680,-50.750,14.980
1743903304.713214,-0.712,0.220,0.914,-173.810,-70.910,18.060
1743903304.733214,-0.594,-0.179,0.764,55.090,-17.430,26.320
1743903304.753214,-0.292,-0.303,1.078,81.340,-20.510,15.120
1743903304.7732139,-0.528,0.039,0.897,41.090,-40.880,10.990
1743903304.7932138,-0.508,-0.003,0.851,51.380,-35.630,11.060
1743903304.8132138,-0.504,0.005,0.862,47.180,-45.640,13.790
1743903304.772461,-0.531,-0.019,0.840,49.070,-59.920,17.010
1743903304.792461,-0.546,-0.022,0.837,54.600,-66.220,28.140
1743903304.812461,-0.496,0.010,0.850,33.320,-76.090,32.060
1743903304.8324609,-0.506,0.043,0.867,6.650,-83.020,27.300
1743903304.8524609,-0.499,0.041,0.882,-24.780,-80.920,25.830
1743903304.8724608,-0.470,0.034,0.896,-31.920,-72.170,19.110
1743903304.817441,-0.488,0.033,0.919,-61.320,-75.250,11.830
1743903304.837441,-0.426,0.034,0.966,-61.460,-64.610,6.860
1743903304.857441,-0.421,-0.042,0.966,-51.380,-42.000,-7.630
1743903304.877441,-0.369,-0.102,0.984,-25.200,-25.550,-7.840
1743903304.897441,-0.440,-0.083,0.959,-22.750,-25.760,7.210
1743903304.917441,-0.468,-0.061,0.935,-4.760,-24.640,10.080
1743903304.860054,-0.455,-0.032,0.922,10.220,-18.410,16.170
1743903304.880054,-0.465,-0.007,0.938,-12.040,2.660,12.600
1743903304.900054,-0.485,-0.038,0.909,-16.100,-36.610,18.200
1743903304.920054,-0.447,-0.075,0.995,-9.240,-37.240,11.270
1743903304.940054,-0.434,-0.074,1.005,14.210,-34.300,5.180
1743903304.960054,-0.440,-0.077,0.990,30.100,-33.950,-4.690
1743903304.920272,-0.449,-0.086,0.971,38.360,-40.950,-3.640
1743903304.940272,-0.461,-0.079,0.976,49.140,-48.510,10.220
1743903304.960272,-0.414,-0.039,0.987,56.630,-57.330,14.070
1743903304.980272,-0.388,0.000,1.014,67.480,-57.750,10.430
1743903305.000272,-0.335,0.011,1.031,88.900,-69.930,-10.990
1743903305.020272,-0.341,0.011,1.052,98.420,-66.500,-26.390
1743903304.981937,-0.353,0.012,1.060,117.110,-59.430,-36.330
1743903305.001937,-0.362,0.014,1.063,133.490,-56.000,-61.950
1743903305.021937,-0.306,-0.178,0.996,185.360,-50.680,-60.060
1743903305.0419369,-0.459,0.348,1.039,91.700,-75.880,-48.790
1743903305.0619369,-0.453,0.222,1.035,64.680,-53.550,-46.270
1743903305.0819368,-0.409,0.093,1.044,58.940,-39.970,-40.810
1743903304.9848242,-0.372,0.026,1.003,52.780,-37.660,-34.650
1743903305.0048242,-0.406,0.022,1.034,46.900,-31.780,-27.930
1743903305.0248241,-0.404,0.021,1.057,52.920,-30.800,-24.220
1743903305.0448241,-0.366,0.013,1.053,58.380,-29.820,-24.640
1743903305.064824,-0.374,0.022,1.039,56.910,-26.740,-11.620
1743903305.084824,-0.373,0.058,1.030,48.790,-24.780,-5.320
1743903305.0270042,-0.331,0.060,0.999,42.840,-24.850,3.430
1743903305.0470042,-0.309,0.074,0.982,37.940,-22.610,8.750
1743903305.0670042,-0.303,0.142,0.977,17.710,-14.140,9.660
1743903305.0870042,-0.299,0.163,0.979,11.830,-4.760,3.920
1743903305.1070042,-0.294,0.166,1.002,27.510,-2.870,-3.010
1743903305.1270041,-0.270,0.190,0.969,36.890,-2.590,-3.780
1743903305.0718122,-0.276,0.207,0.945,35.280,-7.420,6.650
1743903305.0918121,-0.335,0.244,0.948,33.180,-6.930,5.110
1743903305.111812,-0.364,0.239,0.935,33.950,-9.590,7.350
1743903305.131812,-0.340,0.232,0.938,30.520,-12.110,13.370
1743903305.151812,-0.089,-0.010,0.802,47.460,14.980,36.260
1743903305.171812,-0.047,-0.931,1.220,195.650,12.180,36.050
1743903305.131494,-0.487,0.823,0.554,78.260,-16.800,10.010
1743903305.151494,-0.766,0.339,0.927,91.770,4.550,-6.370
1743903305.171494,-0.413,0.434,1.038,70.280,0.560,-9.030
1743903305.191494,-0.114,0.122,0.908,84.140,2.030,13.230
1743903305.211494,-0.324,0.219,0.919,78.260,-24.430,-2.030
1743903305.231494,-0.368,0.229,0.906,79.450,-41.370,-3.500
1743903305.176788,-0.352,0.329,0.973,70.910,-35.770,0.560
1743903305.196788,-0.277,0.302,0.996,48.160,-29.400,1.190
1743903305.216788,-0.316,0.329,0.988,30.870,-21.210,7.770
1743903305.236788,-0.340,0.277,1.011,-2.170,-28.910,-1.540
1743903305.256788,-0.296,0.300,0.995,-8.610,-31.290,4.340
1743903305.276788,-0.278,0.303,0.935,4.130,-10.500,14.700
1743903305.191755,-0.310,0.369,0.958,-3.640,0.560,21.280
1743903305.211755,-0.368,0.395,0.955,-19.810,12.390,34.580
1743903305.231755,-0.378,0.320,0.932,-30.800,21.070,45.360
1743903305.251755,-0.345,0.297,0.942,-38.710,35.840,50.400
1743903305.271755,-0.302,0.296,0.940,-44.590,37.940,47.810
1743903305.291755,-0.299,0.297,0.952,-53.130,43.330,44.940
1743903305.2817092,-0.310,0.300,0.999,-56.490,50.890,31.430
1743903305.3017092,-0.291,0.291,1.075,-96.460,45.990,-23.030
1743903305.3217092,-0.274,0.289,0.976,12.180,81.620,-30.940
1743903305.3417091,-0.247,0.369,1.006,6.230,70.000,-53.130
1743903305.361709,-0.429,0.384,0.908,-51.940,51.240,-55.720
1743903305.381709,-0.364,0.235,0.897,-13.440,37.730,-34.790
1743903305.296791,-0.300,0.223,0.908,20.510,28.140,-20.930
1743903305.316791,-0.324,0.263,0.943,24.710,26.740,-10.570
1743903305.336791,-0.408,0.266,0.932,18.830,20.160,-8.540
1743903305.356791,-0.346,0.204,0.935,15.120,18.760,-5.320
1743903305.376791,-0.389,0.216,0.950,6.300,15.610,-1.820
1743903305.396791,-0.410,0.222,0.958,-4.410,12.250,-6.720
1743903305.3568,-0.363,0.215,0.972,-6.930,18.550,-9.940
1743903305.3768,-0.364,0.247,0.994,-11.340,19.460,-19.250
1743903305.3968,-0.122,0.103,1.030,-11.410,50.680,-16.660
1743903305.4168,-0.609,0.477,1.009,-74.060,18.970,-75.250
1743903305.4368,-0.520,0.301,0.901,-67.130,51.730,-26.110
1743903305.4568,-0.161,0.189,1.000,-75.600,73.500,-20.440
1743903305.3868532,-0.482,0.283,0.930,-84.490,65.450,-20.860
1743903305.4068532,-0.504,0.166,0.935,-68.600,50.820,-21.420
1743903305.4268532,-0.483,0.181,0.956,-63.980,37.240,-23.870
1743903305.4468532,-0.455,0.184,0.903,-53.410,30.730,-0.840
1743903305.4668531,-0.481,0.149,0.914,-54.810,27.650,10.360
1743903305.4868531,-0.454,0.120,0.926,-60.970,24.710,16.100
1743903305.4321232,-0.454,0.124,0.926,-59.080,17.430,17.990
1743903305.4521232,-0.464,0.107,0.933,-54.670,11.340,24.290
1743903305.4721231,-0.442,0.105,0.918,-44.660,7.910,28.840
1743903305.4921231,-0.459,0.115,0.934,-43.960,0.280,31.640
1743903305.512123,-0.459,0.106,0.954,-41.720,-3.500,32.830
1743903305.532123,-0.461,0.117,0.945,-39.970,-10.080,35.140
1743903305.4768062,-0.460,0.127,0.957,-38.920,-13.650,34.860
1743903305.4968061,-0.459,0.126,0.953,-34.370,-20.650,32.900
1743903305.5168061,-0.456,0.133,0.963,-32.340,-24.500,31.990
1743903305.536806,-0.349,0.174,0.963,-30.870,-22.610,29.680
1743903305.556806,-0.474,0.151,0.941,-11.550,-34.300,25.900
1743903305.576806,-0.442,0.194,0.968,-19.530,-37.870,21.070
1743903305.567297,-0.418,0.183,0.959,-20.720,-36.960,17.850
1743903305.587297,-0.439,0.180,0.942,-20.090,-37.450,13.370
1743903305.607297,-0.424,0.181,0.936,-24.780,-40.320,12.530
1743903305.627297,-0.418,0.164,0.943,-30.030,-43.540,8.680
1743903305.647297,-0.418,0.164,0.945,-31.640,-42.490,4.480
1743903305.667297,-0.398,0.148,0.951,-28.910,-35.000,1.960
1743903305.581854,-0.377,0.051,0.970,-21.140,-35.140,-1.190
1743903305.601854,-0.350,0.130,1.009,-6.230,-36.330,1.540
1743903305.621854,-0.388,0.111,0.990,-16.450,-25.690,0.490
1743903305.641854,-0.378,0.132,1.001,-25.970,-10.640,-7.280
1743903305.661854,-0.369,0.083,1.003,-20.510,-9.240,-9.310
1743903305.681854,-0.380,0.062,1.002,-16.450,-13.230,-2.030
1743903305.5976162,-0.388,0.080,1.029,-3.150,-13.370,-1.540
1743903305.6176162,-0.382,0.096,1.019,-1.960,-10.920,-2.590
1743903305.6376162,-0.385,0.101,1.017,1.540,-7.700,-4.340
1743903305.6576161,-0.396,0.085,1.011,-1.680,-5.880,-3.850
1743903305.6776161,-0.385,0.099,1.015,-4.340,-1.120,-3.570
1743903305.697616,-0.400,0.057,0.980,-5.880,-6.510,-1.260
1743903305.655266,-0.392,0.063,0.965,-6.860,-10.920,0.630
1743903305.675266,-0.378,0.060,0.982,-12.740,-12.810,1.610
1743903305.695266,-0.386,0.061,0.958,-13.230,-16.310,6.300
1743903305.715266,-0.370,0.057,0.967,-13.650,-17.010,7.700
1743903305.735266,-0.346,0.090,0.983,-18.760,-14.140,6.440
1743903305.755266,-0.371,0.086,0.967,-21.560,-13.580,4.550
1743903305.687684,-0.387,0.081,0.959,-19.880,-14.350,5.460
1743903305.707684,-0.366,0.055,0.978,-14.070,-10.920,8.750
1743903305.727684,-0.354,0.071,0.984,-14.280,-7.700,8.540
1743903305.747684,-0.377,0.084,0.981,-17.990,-7.840,10.220
1743903305.767684,-0.380,0.049,0.977,-14.770,-8.750,15.260
1743903305.787684,-0.363,0.057,0.982,-15.260,-7.700,16.730
1743903305.732182,-0.357,0.081,0.985,-21.140,-6.160,15.190
1743903305.752182,-0.364,0.088,0.982,-21.630,-5.600,12.180
1743903305.772182,-0.365,0.070,0.983,-18.970,-6.790,13.860
1743903305.792182,-0.356,0.080,1.001,-17.780,-4.340,14.070
1743903305.812182,-0.358,0.067,0.991,-12.390,-1.680,11.340
1743903305.832182,-0.346,0.062,0.997,-5.530,-6.510,6.160
1743903305.7615433,-0.342,0.087,1.005,-0.910,-6.090,5.810
1743903305.7815433,-0.354,0.089,1.014,-2.380,-1.820,4.480
1743903305.8015432,-0.345,0.103,0.994,-10.850,9.730,-0.350
1743903305.8215432,-0.346,0.112,0.988,-14.770,12.250,-3.850
1743903305.8415432,-0.347,0.109,0.988,-15.260,7.910,-6.930
1743903305.8615432,-0.378,0.090,0.978,-10.150,3.570,-5.810
1743903305.807568,-0.384,0.063,0.969,-4.900,-2.170,-4.270
1743903305.827568,-0.364,0.044,0.966,-4.340,-4.270,-2.520
1743903305.847568,-0.356,0.041,0.972,-3.780,-7.210,-1.120
1743903305.867568,-0.353,0.046,0.982,-3.640,-8.050,-0.280
1743903305.887568,-0.355,0.058,0.988,-3.220,-7.840,-2.100
1743903305.907568,-0.353,0.068,0.992,-4.270,-6.580,-2.590
1743903305.881948,-0.356,0.071,1.000,-5.180,-5.320,-2.870
1743903305.901948,-0.362,0.069,1.010,-4.410,-2.450,-1.960
1743903305.921948,-0.354,0.086,1.023,-16.800,-1.050,-3.850
1743903305.941948,-0.359,0.059,1.012,-1.330,-1.890,-0.560
1743903305.961948,-0.387,-0.029,0.979,-3.360,-4.410,0.840
1743903305.981948,-0.361,0.016,0.997,-1.400,-5.950,1.960
1743903305.8856,-0.358,0.029,0.994,-3.920,-5.180,2.030
1743903305.9056,-0.367,0.036,0.994,-2.800,-4.270,2.170
1743903305.9256,-0.370,0.044,1.003,-2.310,-3.290,1.120
1743903305.9456,-0.372,0.059,1.007,-3.640,-1.540,0.560
1743903305.9656,-0.372,0.058,0.999,-4.340,-0.140,-0.490
1743903305.9856,-0.372,0.058,0.998,-4.270,1.260,-1.190
1743903305.926713,-0.370,0.051,0.996,-4.410,0.770,-0.140
1743903305.946713,-0.363,0.037,0.987,-3.780,0.560,1.120
1743903305.966713,-0.358,0.051,1.121,-5.950,-1.820,0.560
1743903305.986713,-0.365,0.032,0.995,-6.860,-2.940,-0.490
1743903306.006713,-0.371,0.016,0.993,17.780,-1.820,0.070
1743903306.026713,-0.364,0.060,0.997,-1.330,-0.770,-1.260
1743903305.9852452,-0.364,0.063,0.985,-2.870,-0.210,-2.100
1743903306.0052452,-0.367,0.066,0.979,-2.310,-0.070,-2.310
1743903306.0252452,-0.363,0.073,0.985,-4.060,0.980,-3.850
1743903306.0452452,-0.358,0.071,0.972,-5.110,0.770,-5.460
1743903306.0652452,-0.365,0.064,0.974,-5.250,-0.210,-4.410
1743903306.0852451,-0.359,0.045,0.985,-4.480,0.000,-3.990
1743903306.0025702,-0.354,0.042,0.996,-3.920,-0.210,-4.060
1743903306.0225701,-0.357,0.041,0.994,-2.660,-0.420,-4.340
1743903306.04257,-0.359,0.041,0.993,-0.070,-0.420,-4.620
1743903306.06257,-0.364,0.043,0.992,0.910,0.140,-4.970
1743903306.08257,-0.364,0.041,0.991,1.260,0.980,-5.460
1743903306.10257,-0.363,0.039,0.994,0.770,2.870,-5.600
1743903306.046781,-0.363,0.043,0.996,-1.190,5.600,-6.440
1743903306.066781,-0.369,0.042,0.994,-1.890,6.440,-6.720
1743903306.086781,-0.380,0.032,0.995,-1.960,6.230,-5.180
1743903306.106781,-0.384,0.017,0.987,-1.190,4.900,-1.260
1743903306.126781,-0.377,0.004,0.982,-0.490,1.820,-0.560
1743903306.146781,-0.373,0.011,0.979,-1.330,0.490,0.700
1743903306.0915442,-0.375,0.014,0.982,-2.170,0.560,0.910
1743903306.1115441,-0.374,0.024,0.983,-4.200,1.400,0.910
1743903306.131544,-0.375,0.033,0.984,-5.320,1.820,0.700
1743903306.151544,-0.377,0.031,0.985,-5.810,2.660,0.980
1743903306.171544,-0.381,0.024,0.986,-5.180,2.450,2.240
1743903306.191544,-0.384,0.018,0.986,-3.290,1.050,3.430
1743903306.2129722,-0.386,0.017,0.987,-2.100,0.420,4.970
1743903306.2329721,-0.381,0.026,0.990,-1.890,0.490,4.270
1743903306.2529721,-0.382,0.036,0.986,-1.750,1.260,3.850
1743903306.272972,-0.385,0.041,0.986,-2.310,2.030,2.660
1743903306.292972,-0.385,0.045,0.982,-2.800,2.240,1.820
1743903306.312972,-0.384,0.042,0.983,-2.660,0.630,2.310
1743903306.216434,-0.392,0.021,0.981,-2.380,-1.330,4.970
1743903306.236434,-0.383,0.014,0.975,-0.980,-4.830,5.880
1743903306.256434,-0.379,0.029,0.984,-1.750,-5.040,5.530
1743903306.276434,-0.375,0.032,0.992,-3.640,-3.010,4.340
1743903306.296434,-0.376,0.043,0.993,-4.270,-1.680,3.290
1743903306.316434,-0.378,0.046,0.992,-4.620,-0.910,3.010
1743903306.2264152,-0.376,0.045,0.993,-4.130,-0.630,2.660
1743903306.2464151,-0.375,0.046,0.991,-3.990,-0.070,2.030
1743903306.266415,-0.374,0.046,0.990,-3.570,0.770,1.120
1743903306.286415,-0.378,0.047,0.987,-3.780,0.770,0.560
1743903306.306415,-0.385,0.042,0.983,-3.780,-0.700,0.840
1743903306.326415,-0.386,0.041,0.981,-3.430,-1.330,1.260
1743903306.2572002,-0.385,0.039,0.979,-3.640,-1.260,1.470
1743903306.2772002,-0.379,0.041,0.980,-4.620,-0.630,0.630
1743903306.2972002,-0.383,0.041,0.984,-4.830,-0.070,0.350
1743903306.3172002,-0.377,0.025,0.988,-4.900,1.890,0.770
1743903306.3372002,-0.375,0.019,0.986,-5.040,2.590,1.120
1743903306.3572001,-0.379,0.020,0.983,-5.320,2.730,1.120
1743903306.3021312,-0.388,0.018,0.985,-5.600,2.730,1.610
1743903306.3221312,-0.390,0.018,0.983,-5.460,1.960,2.520
1743903306.3421311,-0.399,0.010,0.971,-4.900,-1.400,3.360
1743903306.362131,-0.394,0.010,0.971,-5.040,-3.360,3.780
1743903306.382131,-0.392,0.011,0.979,-5.740,-4.130,5.110
1743903306.402131,-0.390,0.010,0.982,-5.040,-4.550,5.180
1743903306.360838,-0.385,0.009,0.990,-3.920,-4.900,4.690
1743903306.380838,-0.385,0.013,0.992,-2.450,-5.250,4.480
1743903306.400838,-0.386,0.018,0.995,-0.210,-5.320,3.780
1743903306.4208379,-0.383,0.024,0.992,0.070,-4.620,2.940
1743903306.4408379,-0.384,0.030,0.990,-1.470,-3.920,2.730
1743903306.4608378,-0.384,0.029,0.988,-1.820,-3.920,3.360
1743903306.376771,-0.380,0.017,0.988,-2.310,-4.550,4.410
1743903306.396771,-0.378,0.010,0.987,-1.190,-5.880,5.250
1743903306.416771,-0.377,0.007,0.989,0.630,-7.280,5.320
1743903306.436771,-0.376,0.020,0.990,1.400,-5.880,4.270
1743903306.456771,-0.372,0.040,0.991,-0.140,-4.480,2.730
1743903306.4767709,-0.374,0.049,0.993,-2.170,-2.520,2.100
1743903306.499977,-0.372,0.054,0.993,-2.800,-1.120,0.840
1743903306.519977,-0.373,0.053,0.993,-2.800,1.260,-0.560
1743903306.539977,-0.374,0.051,0.991,-2.030,1.400,-1.330
1743903306.559977,-0.379,0.027,0.986,0.280,0.350,0.420
1743903306.579977,-0.387,0.000,0.968,3.150,-4.130,1.750
1743903306.599977,-0.387,0.016,0.965,1.750,-6.930,2.240
1743903306.501039,-0.384,0.026,0.976,-3.570,-4.620,1.610
1743903306.521039,-0.371,0.037,0.989,-5.250,-2.100,0.350
1743903306.541039,-0.379,0.036,0.996,-5.740,-1.260,0.140
1743903306.561039,-0.376,0.026,0.999,-3.570,-0.560,-0.350
1743903306.581039,-0.378,0.020,0.994,-1.820,-0.770,-0.980
1743903306.601039,-0.380,0.019,0.993,0.210,-2.450,-1.120
1743903306.5140862,-0.395,0.017,0.982,0.280,-4.060,-0.070
1743903306.5340862,-0.393,0.010,0.981,0.630,-5.250,0.350
1743903306.5540862,-0.385,-0.005,0.978,0.980,-7.350,2.520
1743903306.5740862,-0.387,-0.004,0.981,0.560,-8.470,2.870
1743903306.5940862,-0.388,0.009,0.983,-0.140,-8.610,3.080
1743903306.6140862,-0.385,0.012,0.985,-0.910,-8.750,3.920
1743903306.5429592,-0.384,0.013,0.988,-2.100,-8.960,4.200
1743903306.5629592,-0.381,0.015,0.990,-2.100,-8.820,4.060
1743903306.5829592,-0.378,0.019,0.988,-2.100,-7.490,3.010
1743903306.6029592,-0.372,0.014,0.988,-1.680,-6.370,3.080
1743903306.6229591,-0.375,0.014,0.986,-1.190,-7.280,3.500
1743903306.642959,-0.379,0.011,0.978,-0.210,-8.680,4.200
1743903306.586863,-0.374,0.011,0.976,0.210,-11.760,5.320
1743903306.606863,-0.372,0.011,0.975,2.380,-13.300,5.670
1743903306.626863,-0.369,0.013,0.976,3.780,-13.790,5.740
1743903306.646863,-0.374,0.027,0.984,4.410,-14.490,5.040
1743903306.666863,-0.368,0.038,0.989,4.060,-14.350,4.340
1743903306.686863,-0.366,0.045,0.990,3.220,-12.390,3.780
1743903306.632966,-0.367,0.047,0.988,2.730,-11.550,3.290
1743903306.652966,-0.362,0.048,0.992,3.220,-9.730,2.240
1743903306.672966,-0.367,0.049,0.990,3.290,-9.660,1.120
1743903306.692966,-0.363,0.043,0.988,4.410,-10.080,0.700
1743903306.712966,-0.363,0.038,0.995,4.340,-10.430,0.210
1743903306.732966,-0.362,0.038,1.008,3.220,-9.310,0.140
1743903306.6776872,-0.353,0.037,1.009,0.980,-5.460,-0.560
1743903306.6976871,-0.343,0.034,1.007,0.350,-3.850,0.070
1743903306.7176871,-0.361,-0.002,0.976,8.540,-4.690,0.980
1743903306.737687,-0.362,0.016,0.984,5.390,-5.250,1.540
1743903306.757687,-0.359,0.008,0.985,5.180,-4.970,2.870
1743903306.777687,-0.361,0.013,0.991,4.480,-5.110,2.520
1743903306.721574,-0.364,0.021,0.994,3.640,-5.320,2.100
1743903306.741574,-0.366,0.022,0.993,3.500,-6.020,1.820
1743903306.761574,-0.366,0.027,0.993,3.920,-7.210,1.820
1743903306.781574,-0.365,0.029,0.992,3.780,-7.140,1.960
1743903306.801574,-0.362,0.034,0.997,4.130,-6.720,2.100
1743903306.821574,-0.353,0.038,0.996,4.900,-6.720,1.680
1743903306.780427,-0.350,0.041,0.998,5.390,-6.720,0.630
1743903306.800427,-0.350,0.040,1.005,5.040,-6.090,-0.490
1743903306.820427,-0.347,0.039,1.009,4.620,-5.180,-0.630
1743903306.840427,-0.349,0.031,1.003,4.270,-3.500,-1.190
1743903306.860427,-0.355,0.032,1.004,3.850,-3.290,-1.190
1743903306.880427,-0.355,0.033,1.001,4.270,-3.780,-1.050
1743903306.7979171,-0.358,0.029,1.004,5.600,-4.690,-0.560
1743903306.817917,-0.357,0.030,1.004,6.860,-4.620,0.000
1743903306.837917,-0.353,0.031,1.003,7.630,-3.780,-0.070
1743903306.857917,-0.354,0.026,1.003,8.890,-3.710,-0.210
1743903306.877917,-0.354,0.026,0.996,10.500,-4.550,0.840
1743903306.897917,-0.351,0.034,0.992,10.220,-4.900,0.840
1743903306.8553262,-0.351,0.035,0.990,9.030,-4.340,0.630
1743903306.8753262,-0.354,0.041,0.985,8.120,-4.200,0.420
1743903306.8953261,-0.354,0.041,0.988,6.720,-4.060,0.350
1743903306.915326,-0.356,0.036,0.990,4.830,-3.780,0.560
1743903306.935326,-0.356,0.039,0.988,5.810,-4.060,0.560
1743903306.955326,-0.356,0.036,0.990,7.000,-4.410,0.420
1743903306.8880172,-0.352,0.042,0.992,6.510,-4.480,0.490
1743903306.9080172,-0.353,0.041,0.990,6.300,-4.690,0.420
1743903306.9280171,-0.356,0.035,0.989,5.250,-5.810,1.330
1743903306.9480171,-0.352,0.033,0.993,5.390,-5.460,1.470
1743903306.968017,-0.349,0.040,0.995,5.040,-4.690,1.260
1743903306.988017,-0.350,0.043,0.998,4.130,-4.270,0.420
1743903306.917233,-0.348,0.050,0.999,2.940,-3.080,0.070
1743903306.937233,-0.350,0.050,0.996,3.360,-2.940,-0.350
1743903306.957233,-0.352,0.048,0.999,5.320,-3.500,-0.420
1743903306.977233,-0.352,0.044,0.999,6.650,-3.430,-0.350
1743903306.997233,-0.344,0.055,1.003,5.180,-2.450,-0.910
1743903307.017233,-0.355,0.037,0.991,6.720,-1.330,-0.560
1743903306.96266,-0.354,0.045,0.994,6.230,-1.470,-0.560
1743903306.98266,-0.357,0.046,0.996,6.090,-1.680,-0.070
1743903307.00266,-0.357,0.045,0.997,6.650,-0.700,0.070
1743903307.02266,-0.353,0.053,0.999,6.510,0.280,-0.280
1743903307.04266,-0.350,0.046,0.995,5.740,0.350,-0.280
1743903307.06266,-0.354,0.045,0.992,4.830,-0.280,0.000
1743903307.00744,-0.352,0.042,0.991,4.340,-0.490,0.490
1743903307.02744,-0.347,0.042,0.992,3.080,0.140,0.490
1743903307.04744,-0.346,0.048,0.996,2.170,0.630,0.000
1743903307.06744,-0.348,0.054,0.997,1.260,0.980,-0.210
1743903307.08744,-0.346,0.050,0.999,2.310,1.540,0.350
1743903307.10744,-0.350,0.053,0.996,2.660,0.630,0.560
1743903307.082519,-0.354,0.052,0.996,3.290,0.420,0.280
1743903307.102519,-0.350,0.057,0.994,3.220,0.630,0.350
1743903307.122519,-0.350,0.060,0.993,2.940,1.400,0.070
1743903307.142519,-0.350,0.054,1.001,4.410,2.380,-0.350
1743903307.162519,-0.346,0.055,1.002,5.320,3.990,-0.630
1743903307.182519,-0.347,0.057,1.004,7.560,4.480,-1.470
1743903307.088129,-0.354,0.062,0.998,8.470,4.200,-1.540
1743903307.108129,-0.360,0.058,0.998,10.080,3.850,-1.680
1743903307.128129,-0.360,0.060,0.996,10.920,4.130,-1.260
1743903307.148129,-0.364,0.057,0.996,7.980,4.550,-0.140
1743903307.168129,-0.365,0.050,0.995,5.390,4.340,0.350
1743903307.188129,-0.364,0.048,0.987,4.690,4.550,0.490
1743903307.1418443,-0.365,0.054,0.990,2.870,4.130,0.770
1743903307.1618443,-0.366,0.052,0.990,2.100,4.060,1.960
1743903307.1818442,-0.362,0.049,0.980,2.310,4.620,2.730
1743903307.2018442,-0.362,0.051,0.981,1.330,3.290,3.430
1743903307.2218442,-0.368,0.057,0.985,1.610,3.080,1.750
1743903307.2418442,-0.423,0.140,0.998,-12.600,-2.240,-6.020
1743903307.172866,-0.357,0.036,0.979,-16.310,-2.240,-3.220
1743903307.192866,-0.332,0.002,0.983,-6.300,3.360,3.080
1743903307.212866,-0.327,0.023,0.988,-4.620,5.600,4.550
1743903307.232866,-0.370,0.051,0.981,-3.430,3.430,2.590
1743903307.252866,-0.382,0.061,0.980,-0.350,-1.330,1.890
1743903307.272866,-0.364,0.056,0.993,0.000,-0.280,2.800
1743903307.216571,-0.367,0.055,0.988,0.630,0.070,3.010
1743903307.236571,-0.371,0.054,0.985,3.220,-1.400,2.450
1743903307.256571,-0.374,0.049,0.993,3.990,-2.520,3.080
1743903307.276571,-0.364,0.049,0.995,4.830,-2.590,3.290
1743903307.296571,-0.366,0.056,0.991,5.530,-1.750,2.800
1743903307.316571,-0.370,0.059,1.000,4.830,-0.910,2.800
1743903307.2616172,-0.372,0.057,0.997,4.970,0.280,2.590
1743903307.2816172,-0.369,0.062,0.993,4.200,0.700,-1.820
1743903307.3016171,-0.434,0.120,0.989,-5.530,-7.420,-3.850
1743903307.3216171,-0.301,0.002,0.987,8.890,1.260,1.680
1743903307.341617,-0.347,0.062,1.001,9.100,0.630,0.560
1743903307.361617,-0.377,0.081,0.983,11.970,-5.670,-2.660
1743903307.308732,-0.364,0.074,0.991,13.790,-4.970,-3.500
1743903307.328732,-0.353,0.078,0.996,12.250,-0.770,-3.920
1743903307.348732,-0.365,0.074,0.996,13.440,1.190,-4.550
1743903307.368732,-0.376,0.074,0.986,13.930,-1.330,-4.270
1743903307.388732,-0.379,0.065,0.989,12.670,-3.080,-2.170
1743903307.408732,-0.362,0.056,0.985,12.880,-2.870,-2.590
1743903307.3819442,-0.370,0.061,0.992,13.930,-3.150,-3.010
1743903307.4019442,-0.366,0.071,1.001,14.490,-0.490,-2.940
1743903307.4219441,-0.364,0.076,0.996,13.440,0.980,-2.380
1743903307.4419441,-0.366,0.078,0.990,12.530,1.820,-2.310
1743903307.461944,-0.376,0.082,0.986,10.010,1.750,-2.520
1743903307.481944,-0.375,0.086,0.984,7.630,1.050,-2.520
1743903307.396912,-0.372,0.083,0.982,7.140,1.820,-1.890
1743903307.416912,-0.371,0.077,0.979,7.490,1.820,-1.820
1743903307.436912,-0.372,0.078,0.972,7.980,1.050,-2.940
1743903307.456912,-0.376,0.077,0.979,8.960,-0.770,-3.640
1743903307.476912,-0.385,0.084,0.989,14.700,-4.550,-4.200
1743903307.496912,-0.386,0.082,0.985,18.550,-5.600,-3.710
1743903307.471872,-0.370,0.075,0.985,19.320,-4.130,-2.730
1743903307.491872,-0.374,0.071,0.992,18.550,-3.010,-0.490
1743903307.511872,-0.382,0.077,0.985,19.600,-3.360,-0.560
1743903307.531872,-0.382,0.089,0.981,18.760,-6.440,-0.630
1743903307.551872,-0.391,0.095,0.991,17.080,-13.160,-0.630
1743903307.571872,-0.379,0.087,0.995,18.340,-13.580,-0.210
1743903307.4871702,-0.374,0.098,1.000,20.300,-12.740,-0.560
1743903307.5071702,-0.367,0.084,0.999,22.400,-7.350,1.820
1743903307.5271702,-0.369,0.086,0.996,26.740,-4.550,3.290
1743903307.5471702,-0.365,0.093,0.997,27.300,-2.590,5.250
1743903307.5671701,-0.369,0.107,0.996,26.110,-0.770,4.480
1743903307.5871701,-0.369,0.108,0.991,24.010,-0.210,5.880
1743903307.516882,-0.374,0.112,0.972,19.670,-2.590,9.520
1743903307.536882,-0.377,0.129,0.972,18.690,-5.880,9.870
1743903307.556882,-0.382,0.133,0.970,14.280,-8.470,9.520
1743903307.576882,-0.355,0.113,0.970,13.090,-6.650,9.660
1743903307.5968819,-0.364,0.117,0.961,12.250,-7.560,9.380
1743903307.6168818,-0.398,0.140,0.969,10.010,-17.150,6.790
1743903307.5620832,-0.357,0.125,0.982,10.990,-9.170,5.600
1743903307.5820832,-0.343,0.125,0.976,9.450,1.680,8.330
1743903307.6020832,-0.313,0.117,0.974,12.670,5.110,5.040
1743903307.6220832,-0.366,0.121,0.979,11.550,7.700,5.320
1743903307.6420832,-0.385,0.116,0.978,10.080,4.830,12.880
1743903307.6620831,-0.451,0.158,0.955,-6.370,-16.240,10.710
1743903307.607067,-0.357,0.080,0.975,-3.990,-1.960,12.740
1743903307.627067,-0.349,0.128,0.971,-8.400,-1.750,12.320
1743903307.647067,-0.395,0.130,0.982,-18.550,-5.530,17.780
1743903307.667067,-0.348,0.088,0.985,-0.420,-2.590,20.720
1743903307.687067,-0.365,0.132,0.971,-20.510,-6.720,18.480
1743903307.707067,-0.355,0.104,0.976,-19.600,-1.610,19.320
1743903307.68279,-0.326,0.092,0.981,-17.990,1.890,23.590
1743903307.70279,-0.339,0.112,0.983,-12.600,9.730,21.350
1743903307.72279,-0.358,0.130,0.988,-11.480,10.500,20.860
1743903307.74279,-0.371,0.125,0.961,-18.340,-6.230,16.240
1743903307.76279,-0.513,0.206,0.965,-25.550,-10.850,21.630
1743903307.78279,-0.278,0.050,0.974,-9.380,-9.170,27.370
1743903307.6974483,-0.315,0.113,0.980,-9.030,0.210,26.600
1743903307.7174482,-0.352,0.141,0.987,-10.220,1.260,18.270
1743903307.7374482,-0.443,0.166,0.975,-18.340,-21.770,17.500
1743903307.7574482,-0.346,0.085,0.996,-16.800,-14.000,25.060
1743903307.7774482,-0.286,0.094,0.996,-14.210,-9.030,25.410
1743903307.7974482,-0.408,0.125,0.978,-16.450,-17.220,23.800
1743903307.7427392,-0.369,0.107,0.994,-16.940,-18.480,25.830
1743903307.7627392,-0.361,0.116,0.987,-17.850,-16.450,21.700
1743903307.7827392,-0.353,0.120,0.997,-17.010,-14.560,24.430
1743903307.8027391,-0.357,0.086,0.997,-11.550,-16.170,26.600
1743903307.8227391,-0.299,0.108,1.013,-7.980,-8.960,21.630
1743903307.842739,-0.304,0.115,0.995,-12.180,-5.810,16.730
1743903307.788427,-0.337,0.109,0.997,-10.780,-3.850,15.820
1743903307.808427,-0.339,0.104,1.003,-7.770,-3.640,16.240
1743903307.828427,-0.358,0.119,1.001,-11.270,-5.460,15.470
1743903307.848427,-0.362,0.106,1.002,-13.020,-2.450,16.800
1743903307.868427,-0.315,0.103,0.999,-8.260,1.470,13.930
1743903307.888427,-0.314,0.113,0.997,-5.530,4.060,10.360
1743903307.8327122,-0.332,0.116,1.000,-1.680,5.110,10.150
1743903307.8527122,-0.338,0.110,0.997,-1.610,4.970,10.500
1743903307.8727121,-0.337,0.107,1.004,-0.910,3.500,11.480
1743903307.892712,-0.343,0.109,1.003,-2.380,0.910,11.550
1743903307.912712,-0.475,0.155,0.989,-11.480,-15.400,9.520
1743903307.932712,-0.313,0.105,1.002,-13.930,-8.190,14.980
1743903307.875535,-0.279,0.072,1.003,-6.650,2.450,12.950
1743903307.895535,-0.318,0.102,1.006,-5.880,5.600,10.500
1743903307.915535,-0.344,0.106,1.013,-4.550,5.530,9.100
1743903307.935535,-0.340,0.094,1.013,-4.620,7.140,9.030
1743903307.955535,-0.336,0.098,1.005,-4.410,7.630,7.980
1743903307.975535,-0.344,0.097,0.992,-2.590,7.000,7.070
1743903307.906727,-0.352,0.096,0.994,0.280,5.460,6.860
1743903307.926727,-0.353,0.099,0.995,3.500,3.220,6.930
1743903307.946727,-0.340,0.099,0.994,4.900,4.130,5.670
1743903307.966727,-0.333,0.111,0.993,5.950,4.900,5.040
1743903307.986727,-0.339,0.124,0.990,4.830,5.670,2.660
1743903308.006727,-0.346,0.128,0.986,0.910,6.090,0.840
1743903307.9815722,-0.343,0.125,0.984,-2.940,5.880,0.770
1743903308.0015721,-0.341,0.101,0.963,-3.360,5.390,2.730
1743903308.021572,-0.353,0.099,0.958,-2.030,1.890,3.220
1743903308.041572,-0.352,0.104,0.975,0.210,-1.610,3.920
1743903308.061572,-0.350,0.108,0.982,-0.420,-3.010,3.920
1743903308.081572,-0.350,0.121,0.983,-1.260,-1.960,0.700
1743903307.996893,-0.348,0.124,0.980,-4.130,-1.120,-0.770
1743903308.016893,-0.348,0.113,0.979,-6.020,17.570,-0.630
1743903308.036893,-0.347,0.090,0.966,-7.420,1.330,1.470
1743903308.0568929,-0.351,0.083,0.956,-6.300,-0.420,3.360
1743903308.0768929,-0.360,0.089,0.965,-4.900,-2.520,5.530
1743903308.0968928,-0.353,0.095,0.984,-2.590,-2.450,4.620
1743903308.0268571,-0.348,0.109,0.987,-3.080,-2.170,4.060
1743903308.046857,-0.348,0.115,0.987,-3.710,-1.750,2.660
1743903308.066857,-0.347,0.118,0.991,-5.530,-0.420,2.310
1743903308.086857,-0.350,0.118,0.989,-6.650,-0.070,1.190
1743903308.106857,-0.349,0.110,0.993,-7.560,0.420,1.400
1743903308.126857,-0.345,0.101,0.985,-6.930,0.490,1.610
1743903308.0717762,-0.353,0.103,0.985,-4.340,-0.980,1.680
1743903308.0917761,-0.360,0.103,0.998,-3.850,-3.850,1.540
1743903308.111776,-0.356,0.106,1.000,-3.710,-4.130,-0.490
1743903308.131776,-0.363,0.108,1.008,-3.850,-3.500,-3.360
1743903308.151776,-0.367,0.101,1.018,-4.690,-3.150,-3.780
1743903308.171776,-0.378,0.078,1.025,-4.830,-2.590,-4.270
1743903308.116835,-0.385,0.050,1.023,-3.500,-4.690,-1.750
1743903308.136835,-0.392,0.036,1.017,1.890,-7.000,1.750
1743903308.156835,-0.390,0.028,1.033,3.220,-7.070,3.850
1743903308.176835,-0.378,0.036,1.035,3.080,-3.500,5.180
1743903308.196835,-0.368,0.051,1.029,0.910,-0.770,7.420
1743903308.216835,-0.360,0.069,1.012,-2.450,3.570,8.680
1743903308.16357,-0.352,0.078,1.003,-2.730,5.950,10.080
1743903308.18357,-0.345,0.091,0.980,-1.470,6.090,9.380
1743903308.20357,-0.339,0.122,0.969,1.680,4.830,7.070
1743903308.2235699,-0.326,0.131,0.960,0.700,3.640,5.880
1743903308.2435699,-0.328,0.140,0.954,-0.210,2.660,4.130
1743903308.2635698,-0.326,0.145,0.951,-1.330,3.080,2.380
1743903308.206873,-0.328,0.143,0.949,-1.820,2.730,2.030
1743903308.226873,-0.338,0.137,0.939,-2.730,0.070,2.100
1743903308.246873,-0.340,0.139,0.942,0.070,-2.240,0.910
1743903308.266873,-0.340,0.139,0.952,-0.490,-2.730,-0.700
1743903308.2868729,-0.340,0.142,0.958,-2.030,-2.660,-2.940
1743903308.3068728,-0.342,0.136,0.964,-2.870,-2.520,-4.200
1743903308.2821121,-0.349,0.120,0.975,-3.570,-3.360,-4.200
1743903308.302112,-0.355,0.106,0.976,-3.500,-5.460,-3.710
1743903308.322112,-0.358,0.099,0.987,-2.800,-7.210,-3.990
1743903308.342112,-0.360,0.087,0.991,-2.170,-5.740,-4.690
1743903308.362112,-0.366,0.087,1.005,-2.730,-4.760,-5.460
1743903308.382112,-0.375,0.077,1.016,-3.990,-3.500,-5.250
1743903308.2865052,-0.374,0.067,1.018,-4.550,-2.800,-5.180
1743903308.3065052,-0.377,0.060,1.016,-4.550,-2.800,-3.290
1743903308.3265052,-0.386,0.045,1.019,-4.130,-4.200,-0.350
1743903308.3465052,-0.379,0.039,1.015,-2.030,-3.640,0.420
1743903308.3665051,-0.377,0.042,1.014,0.420,-2.100,0.490
1743903308.3865051,-0.374,0.058,1.013,0.140,0.560,1.050
1743903308.341916,-0.369,0.058,1.010,-1.540,1.540,1.750
1743903308.361916,-0.368,0.068,1.005,-2.520,2.380,2.590
1743903308.381916,-0.367,0.070,1.004,-2.590,2.170,3.010
1743903308.401916,-0.366,0.076,0.991,-2.380,0.770,3.710
1743903308.421916,-0.366,0.080,0.980,-0.210,-2.450,5.040
1743903308.441916,-0.366,0.086,0.983,2.170,-1.750,4.200
1743903308.3993921,-0.357,0.093,0.984,0.490,-0.910,2.240
1743903308.419392,-0.357,0.106,0.979,-0.420,-0.630,1.680
1743903308.439392,-0.356,0.105,0.980,-1.260,-0.630,1.610
1743903308.459392,-0.355,0.101,0.977,-1.400,-1.050,1.050
1743903308.479392,-0.355,0.102,0.974,-1.330,-3.290,0.560
1743903308.499392,-0.353,0.098,0.975,-0.280,-4.130,0.070
1743903308.431891,-0.349,0.101,0.976,0.350,-3.850,-0.420
1743903308.451891,-0.350,0.100,0.982,0.210,-3.360,-0.770
1743903308.471891,-0.355,0.094,0.987,-0.770,-2.520,-0.980
1743903308.491891,-0.358,0.092,0.989,-1.890,-1.960,-0.840
1743903308.511891,-0.357,0.089,0.993,-3.360,-0.910,-0.490
1743903308.5318909,-0.363,0.081,0.998,-4.340,-0.980,1.190
1743903308.461886,-0.370,0.071,0.990,-3.640,-2.520,2.100
1743903308.481886,-0.368,0.071,0.990,-0.490,-2.730,2.380
1743903308.501886,-0.366,0.074,1.003,3.010,-1.820,1.610
1743903308.5218859,-0.362,0.083,0.999,2.310,-1.470,0.980
1743903308.5418859,-0.359,0.087,0.994,1.540,-1.470,1.050
1743903308.5618858,-0.358,0.088,0.990,0.630,-1.610,1.120
1743903308.506828,-0.358,0.087,0.991,0.840,-1.680,1.330
1743903308.526828,-0.356,0.091,0.988,0.840,-1.890,1.120
1743903308.546828,-0.351,0.097,0.985,-0.630,-1.820,0.140
1743903308.566828,-0.354,0.103,0.987,-1.680,-1.680,-0.210
1743903308.586828,-0.351,0.094,0.990,-2.660,-1.120,-0.210
1743903308.606828,-0.354,0.090,0.985,-3.080,-1.750,0.980
1743903308.567635,-0.356,0.085,0.982,-0.280,-4.620,1.470
1743903308.587635,-0.357,0.088,0.982,2.940,-5.250,0.560
1743903308.607635,-0.358,0.099,0.994,3.290,-4.480,-1.540
1743903308.627635,-0.359,0.102,0.998,2.450,-3.010,-2.380
1743903308.647635,-0.364,0.098,0.997,1.190,-2.100,-3.290
1743903308.667635,-0.366,0.091,0.992,0.770,-1.540,-3.640
1743903308.611946,-0.362,0.080,0.992,0.350,-0.840,-3.430
1743903308.631946,-0.362,0.075,0.988,-0.280,-0.210,-1.470
1743903308.651946,-0.368,0.068,0.980,-1.050,-0.490,-0.770
1743903308.671946,-0.371,0.070,0.973,0.770,-2.940,0.840
1743903308.691946,-0.366,0.072,0.982,1.960,-4.060,-0.070
1743903308.711946,-0.365,0.087,0.983,1.470,-3.500,-0.910
1743903308.656848,-0.367,0.088,0.984,0.700,-3.710,-1.120
1743903308.676848,-0.367,0.085,0.986,0.350,-4.270,-1.190
1743903308.696848,-0.365,0.076,0.990,0.770,-5.250,-0.770
1743903308.716848,-0.362,0.075,0.989,1.050,-4.340,-0.980
1743903308.7368479,-0.360,0.083,0.993,0.420,-2.870,-1.120
1743903308.7568479,-0.361,0.088,0.994,-2.450,-1.540,-1.190
1743903308.671886,-0.361,0.086,0.995,-3.780,-0.210,-1.260
1743903308.691886,-0.360,0.083,0.995,-4.550,0.700,-1.120
1743903308.711886,-0.359,0.083,0.993,-4.130,-0.490,-0.770
1743903308.731886,-0.366,0.077,0.991,-2.380,-3.080,-0.350
1743903308.751886,-0.367,0.072,0.998,2.170,-4.060,-0.350
1743903308.7718859,-0.361,0.078,1.010,2.450,-3.010,-0.980
1743903308.717209,-0.363,0.082,1.004,1.190,-1.890,-1.120
1743903308.737209,-0.366,0.080,1.006,0.770,-0.770,-0.630
1743903308.757209,-0.363,0.078,1.008,0.630,0.350,0.140
1743903308.777209,-0.366,0.079,1.001,0.420,0.000,0.420
1743903308.797209,-0.365,0.079,0.996,1.540,0.140,0.700
1743903308.817209,-0.356,0.088,0.992,1.400,1.260,0.490
1743903308.7626681,-0.354,0.090,0.983,-0.070,2.100,-0.210
1743903308.782668,-0.355,0.095,0.978,-0.910,2.520,-0.630
1743903308.802668,-0.355,0.095,0.966,-1.680,2.730,-0.630
1743903308.822668,-0.357,0.090,0.959,-2.310,1.400,-0.630
1743903308.842668,-0.364,0.084,0.957,-2.170,-0.840,-1.120
1743903308.862668,-0.363,0.084,0.957,-1.470,-0.630,-1.820
1743903308.806785,-0.364,0.083,0.961,-1.750,-0.910,-2.240
1743903308.826785,-0.368,0.080,0.964,-3.080,-1.190,-2.030
1743903308.846785,-0.365,0.075,0.964,-3.570,-1.470,-1.260
1743903308.866785,-0.367,0.073,0.961,-3.430,-3.220,0.280
1743903308.886785,-0.366,0.073,0.962,-2.030,-3.780,0.770
1743903308.906785,-0.358,0.080,0.970,-1.680,-4.480,0.210
1743903308.88309,-0.355,0.095,0.981,-2.030,-4.550,-0.420
1743903308.90309,-0.356,0.097,0.987,-2.240,-4.620,-0.770
1743903308.92309,-0.357,0.095,0.996,-1.540,-4.830,-1.540
1743903308.94309,-0.361,0.094,0.996,0.840,-4.200,-2.450
1743903308.96309,-0.365,0.088,0.999,1.470,-3.920,-3.080
1743903308.98309,-0.369,0.088,1.011,2.030,-3.080,-3.290
1743903308.88576,-0.368,0.085,1.015,0.840,-2.240,-3.640
1743903308.90576,-0.367,0.078,1.013,0.070,-1.470,-3.640
1743903308.92576,-0.365,0.073,1.019,-1.050,0.210,-2.590
1743903308.94576,-0.367,0.064,1.013,-1.400,-0.070,-1.820
1743903308.96576,-0.374,0.059,1.007,-0.630,-2.240,-1.400
1743903308.98576,-0.370,0.058,1.011,0.350,-2.310,-1.050
1743903308.9269552,-0.367,0.059,1.012,0.630,-1.260,-1.050
1743903308.9469552,-0.366,0.063,1.012,0.140,0.490,-1.750
1743903308.9669552,-0.376,0.066,1.000,-0.140,0.630,-1.680
1743903308.9869552,-0.375,0.062,0.995,-0.910,1.050,-1.330
1743903309.0069551,-0.378,0.058,0.983,-0.910,0.770,-0.140
1743903309.0269551,-0.381,0.057,0.975,0.420,-0.350,0.560
1743903308.9736311,-0.377,0.061,0.976,0.840,-0.770,0.630
1743903308.9936311,-0.372,0.066,0.977,1.050,-0.700,0.560
1743903309.013631,-0.369,0.077,0.970,-0.280,-0.420,0.700
1743903309.033631,-0.364,0.077,0.963,-1.330,-0.980,0.910
1743903309.053631,-0.360,0.075,0.965,-1.540,-1.330,1.120
1743903309.073631,-0.358,0.078,0.968,-0.980,-2.380,1.260
1743903309.0318432,-0.360,0.083,0.966,1.050,-3.850,0.770
1743903309.0518432,-0.360,0.088,0.981,2.240,-5.670,0.490
1743903309.0718431,-0.359,0.093,0.988,1.750,-5.320,-0.210
1743903309.0918431,-0.359,0.092,0.995,0.980,-3.920,-1.120
1743903309.111843,-0.365,0.087,0.993,0.210,-3.150,-1.050
1743903309.131843,-0.368,0.082,1.000,-0.560,-2.870,-1.120
1743903309.0469182,-0.367,0.080,1.002,-0.210,-0.910,-1.400
1743903309.0669181,-0.367,0.080,1.003,-0.630,0.910,-2.100
1743903309.086918,-0.368,0.078,1.004,-1.120,1.190,-2.450
1743903309.106918,-0.367,0.072,0.999,-1.120,1.470,-2.100
1743903309.126918,-0.368,0.066,0.996,-1.400,1.120,-1.680
1743903309.146918,-0.372,0.061,0.990,-0.770,-0.280,-1.050
1743903309.0921412,-0.373,0.062,0.992,-0.140,0.000,-1.050
1743903309.1121411,-0.371,0.064,0.991,-0.280,1.470,-1.260
1743903309.132141,-0.372,0.067,0.988,-1.190,1.610,-1.260
1743903309.152141,-0.376,0.066,0.982,-2.940,2.380,-1.120
1743903309.172141,-0.377,0.067,0.972,-2.450,2.660,-0.350
1743903309.192141,-0.377,0.061,0.966,1.400,0.700,0.210
1743903309.169475,-0.376,0.066,0.972,2.380,-0.210,0.420
1743903309.189475,-0.373,0.069,0.976,2.520,-0.560,0.140
1743903309.209475,-0.371,0.076,0.974,1.050,-0.560,-0.140
1743903309.229475,-0.372,0.081,0.973,-0.840,-0.560,-0.700
1743903309.249475,-0.369,0.077,0.978,-1.960,-0.630,-0.350
1743903309.269475,-0.371,0.076,0.977,-1.820,-1.680,-0.280
1743903309.1819682,-0.372,0.073,0.980,-1.050,-2.800,-0.560
1743903309.2019682,-0.371,0.075,0.987,0.000,-3.010,-0.700
1743903309.2219682,-0.368,0.075,0.991,-0.630,-2.800,-1.260
1743903309.2419682,-0.370,0.069,0.993,-1.890,-2.100,-1.120
1743903309.2619681,-0.376,0.067,0.994,-2.940,-1.260,-0.700
1743903309.281968,-0.376,0.064,0.996,-3.220,-0.630,-0.560
1743903309.227334,-0.379,0.058,0.989,-2.100,-0.420,-0.350
1743903309.247334,-0.381,0.059,0.994,-1.260,-0.490,-0.070
1743903309.267334,-0.382,0.062,0.992,-1.540,-0.770,0.350
1743903309.287334,-0.378,0.064,0.993,-1.050,-1.330,0.280
1743903309.307334,-0.372,0.067,0.990,-0.420,-1.120,0.070
1743903309.327334,-0.374,0.071,0.990,0.000,-1.750,0.210
1743903309.27201,-0.371,0.076,0.988,1.120,-2.100,-0.420
1743903309.29201,-0.371,0.079,0.984,1.540,-2.030,-0.980
1743903309.31201,-0.368,0.073,0.984,1.330,-2.170,-1.050
1743903309.33201,-0.370,0.068,0.979,0.840,-2.380,-0.210
1743903309.35201,-0.372,0.064,0.976,1.470,-3.290,0.280
1743903309.37201,-0.375,0.067,0.985,1.680,-4.480,0.910
1743903309.317027,-0.376,0.071,0.988,1.820,-5.250,0.770
1743903309.337027,-0.370,0.076,0.990,2.100,-4.620,0.280
1743903309.357027,-0.369,0.081,0.992,2.170,-4.060,-0.140
1743903309.377027,-0.371,0.081,0.990,1.750,-3.640,-0.420
1743903309.397027,-0.371,0.078,0.989,1.610,-3.500,-0.840
1743903309.417027,-0.371,0.075,0.993,1.680,-3.220,-1.120
1743903309.361958,-0.374,0.076,0.989,1.960,-2.800,-2.030
1743903309.381958,-0.373,0.073,0.988,1.890,-2.590,-1.820
1743903309.401958,-0.379,0.066,0.988,1.400,-2.660,-1.680
1743903309.421958,-0.383,0.058,0.980,2.100,-4.690,-0.490
1743903309.441958,-0.384,0.052,0.982,3.220,-6.930,0.280
1743903309.461958,-0.387,0.054,0.992,4.200,-6.370,0.420
1743903309.407632,-0.378,0.059,0.990,4.200,-5.880,0.070
1743903309.427632,-0.378,0.062,0.987,1.680,-3.850,-0.210
1743903309.447632,-0.379,0.058,0.985,0.490,-2.240,1.260
1743903309.467632,-0.372,0.056,0.985,1.820,-2.590,2.380
1743903309.487632,-0.376,0.056,0.985,2.590,-3.920,2.520
1743903309.507632,-0.376,0.065,0.990,2.800,-5.180,2.380
1743903309.46829,-0.372,0.070,0.991,2.380,-4.620,1.960
1743903309.48829,-0.371,0.077,0.991,0.770,-2.310,0.910
1743903309.50829,-0.371,0.087,0.989,-0.910,-0.770,0.210
1743903309.52829,-0.371,0.083,0.983,-1.750,-0.420,-0.140
1743903309.54829,-0.367,0.074,0.981,-2.870,0.140,0.420
1743903309.56829,-0.370,0.067,0.972,-0.280,-2.170,1.470
1743903309.482718,-0.368,0.073,0.976,1.400,-3.990,1.470
1743903309.502718,-0.369,0.076,0.981,2.520,-4.970,0.420
1743903309.522718,-0.365,0.083,0.983,2.170,-4.270,-1.190
1743903309.542718,-0.366,0.086,0.980,0.490,-2.870,-1.470
1743903309.562718,-0.366,0.077,0.975,-0.980,-2.590,-1.120
1743903309.582718,-0.367,0.076,0.974,-0.350,-3.220,-0.770
1743903309.542366,-0.361,0.074,0.976,0.280,-3.290,-1.260
1743903309.562366,-0.361,0.079,0.978,0.420,-3.430,-1.960
1743903309.582366,-0.363,0.083,0.983,-0.140,-3.430,-2.170
1743903309.602366,-0.366,0.069,0.986,0.560,-2.450,-1.190
1743903309.622366,-0.371,0.065,0.987,2.450,-4.760,-0.350
1743903309.642366,-0.376,0.061,0.993,2.100,-5.670,-0.210
1743903309.5874012,-0.377,0.063,0.997,1.820,-4.410,-0.490
1743903309.6074011,-0.378,0.069,0.995,0.280,-2.450,-0.770
1743903309.627401,-0.377,0.064,0.996,-0.980,-1.260,-0.700
1743903309.647401,-0.374,0.063,0.991,-1.890,-0.280,-0.630
1743903309.667401,-0.366,0.059,0.988,-1.820,-0.980,0.210
1743903309.687401,-0.371,0.059,0.978,0.140,-2.800,1.400
1743903309.6178331,-0.365,0.066,0.985,3.080,-5.040,1.470
1743903309.637833,-0.356,0.080,0.987,2.730,-4.550,0.070
1743903309.657833,-0.360,0.084,0.990,1.190,-3.850,-0.630
1743903309.677833,-0.365,0.089,0.989,0.490,-3.220,-1.050
1743903309.697833,-0.364,0.088,0.992,-0.140,-3.080,-1.750
1743903309.717833,-0.360,0.084,0.994,-0.420,-2.520,-2.170
1743903309.662476,-0.367,0.078,0.988,-0.420,-3.780,-1.960
1743903309.682476,-0.374,0.073,0.990,0.770,-4.480,-1.820
1743903309.702476,-0.370,0.072,0.992,1.540,-2.730,-2.030
1743903309.722476,-0.369,0.072,0.995,1.190,-2.170,-2.660
1743903309.742476,-0.376,0.070,0.989,0.210,-1.750,-2.520
1743903309.762476,-0.375,0.058,0.989,0.490,-1.750,-2.310
1743903309.707503,-0.381,0.052,0.987,1.750,-2.450,-1.470
1743903309.727503,-0.383,0.044,0.981,2.520,-4.900,0.140
1743903309.747503,-0.380,0.048,0.987,2.520,-5.110,0.700
1743903309.767503,-0.374,0.057,0.991,1.680,-3.780,0.770
1743903309.787503,-0.372,0.065,0.989,0.840,-2.800,0.490
1743903309.807503,-0.373,0.068,0.992,0.070,-2.590,0.630
1743903309.768302,-0.371,0.064,0.992,0.070,-2.590,0.980
1743903309.788302,-0.369,0.067,0.986,1.120,-3.010,0.980
1743903309.808302,-0.368,0.069,0.989,2.030,-3.850,0.910
1743903309.828302,-0.365,0.079,0.987,1.120,-2.590,0.490
1743903309.848302,-0.366,0.082,0.988,0.000,-1.960,-0.140
1743903309.8683019,-0.364,0.078,0.988,-0.140,-1.400,-0.560
1743903309.797751,-0.362,0.071,0.986,0.000,-1.260,-0.490
1743903309.817751,-0.365,0.069,0.985,0.560,-1.260,-0.420
1743903309.837751,-0.366,0.069,0.979,1.680,-3.080,0.070
1743903309.857751,-0.369,0.068,0.980,2.310,-4.060,0.280
1743903309.8777509,-0.370,0.069,0.984,2.590,-4.340,0.000
1743903309.8977509,-0.364,0.074,0.988,1.960,-3.920,-0.350
1743903309.827776,-0.367,0.074,0.989,0.980,-3.080,-0.630
1743903309.847776,-0.368,0.073,0.988,0.490,-3.010,-0.560
1743903309.867776,-0.368,0.071,0.989,0.280,-3.010,-0.280
1743903309.887776,-0.368,0.068,0.990,0.210,-2.800,-0.280
1743903309.9077759,-0.366,0.071,0.990,0.700,-2.660,-0.420
1743903309.9277759,-0.370,0.075,0.989,0.700,-2.100,-0.910
1743903309.872696,-0.366,0.074,0.987,0.770,-1.400,-1.120
1743903309.892696,-0.364,0.073,0.986,0.140,-1.330,-1.540
1743903309.912696,-0.365,0.072,0.989,0.070,-1.120,-1.330
1743903309.9326959,-0.366,0.066,0.986,-0.070,-1.120,-0.840
1743903309.9526958,-0.371,0.063,0.980,0.350,-3.500,0.070
1743903309.9726958,-0.370,0.067,0.984,2.100,-4.270,0.280
1743903309.9174032,-0.366,0.069,0.989,2.660,-3.220,0.000
1743903309.9374032,-0.366,0.076,0.990,2.170,-2.940,-1.050
1743903309.9574032,-0.372,0.074,0.992,1.470,-2.940,-1.050
1743903309.9774032,-0.371,0.068,0.990,0.840,-2.240,-0.770
1743903309.9974031,-0.370,0.064,0.987,0.770,-2.520,-0.280
1743903310.0174031,-0.368,0.064,0.985,1.890,-2.940,0.280
1743903309.9754221,-0.368,0.063,0.986,2.380,-2.660,-0.070
1743903309.9954221,-0.366,0.072,0.989,1.540,-1.890,-0.210
1743903310.015422,-0.368,0.075,0.988,1.050,-2.170,-0.700
1743903310.035422,-0.368,0.072,0.987,0.910,-1.890,-0.490
1743903310.055422,-0.367,0.070,0.984,1.260,-2.940,0.070
1743903310.075422,-0.364,0.069,0.980,1.470,-3.290,0.420
1743903310.069788,-0.363,0.076,0.981,1.050,-3.220,0.420
1743903310.089788,-0.358,0.081,0.980,0.350,-2.870,0.070
1743903310.109788,-0.358,0.085,0.976,0.210,-2.800,-0.280
1743903310.129788,-0.353,0.091,0.976,0.210,-2.800,-1.050
1743903310.149788,-0.355,0.090,0.975,0.000,-3.150,-1.260
1743903310.169788,-0.357,0.089,0.971,-0.140,-3.850,-1.330
1743903310.070583,-0.356,0.086,0.971,-0.420,-4.270,-1.750
1743903310.090583,-0.357,0.088,0.976,-0.910,-4.340,-2.030
1743903310.110583,-0.361,0.083,0.978,-0.980,-4.900,-2.450
1743903310.130583,-0.364,0.080,0.982,-1.050,-5.250,-3.080
1743903310.150583,-0.369,0.070,0.990,-0.630,-6.440,-3.220
1743903310.170583,-0.378,0.058,0.997,0.070,-7.490,-3.430
1743903310.095329,-0.379,0.055,1.001,0.280,-7.840,-3.570
1743903310.115329,-0.385,0.043,1.009,0.770,-8.680,-2.940
1743903310.135329,-0.393,0.029,1.018,1.400,-8.610,-1.750
1743903310.155329,-0.400,0.017,1.031,2.730,-8.330,-1.190
1743903310.175329,-0.404,0.014,1.038,3.360,-7.700,0.560
1743903310.195329,-0.406,0.012,1.034,5.670,-5.530,1.680
1743903310.127367,-0.404,0.010,1.037,5.810,-4.480,3.290
1743903310.147367,-0.393,0.014,1.034,5.390,-2.450,6.650
1743903310.167367,-0.383,0.023,1.023,3.640,-1.050,8.540
1743903310.187367,-0.369,0.048,1.014,1.470,0.910,8.750
1743903310.207367,-0.364,0.069,0.996,1.260,1.190,8.680
1743903310.227367,-0.355,0.080,0.987,1.680,0.140,7.630
1743903310.172453,-0.347,0.093,0.977,1.960,-0.980,6.370
1743903310.192453,-0.348,0.107,0.962,2.100,-1.470,0.140
1743903310.212453,-0.540,-0.019,0.853,35.630,-34.090,-2.450
1743903310.2324529,-0.234,0.183,0.980,3.850,-15.470,8.610
1743903310.2524529,-0.263,0.192,0.970,0.350,-2.240,-0.700
1743903310.2724528,-0.305,0.117,0.960,4.060,1.540,-0.490
1743903310.231997,-0.333,0.128,0.955,1.750,0.840,0.350
1743903310.251997,-0.338,0.123,0.942,-1.680,-3.990,0.000
1743903310.271997,-0.340,0.116,0.952,1.960,-5.950,-2.450
1743903310.291997,-0.339,0.115,0.965,0.770,-4.970,-3.640
1743903310.311997,-0.337,0.105,0.976,1.050,-6.790,-4.830
1743903310.331997,-0.351,0.097,0.994,5.600,-7.280,-5.950
1743903310.262361,-0.353,0.094,1.010,9.380,-7.350,-7.700
1743903310.282361,-0.355,0.091,1.015,10.290,-6.300,-8.890
1743903310.302361,-0.352,0.084,1.019,12.040,-3.850,-10.080
1743903310.322361,-0.354,0.072,1.020,12.110,-6.160,-7.840
1743903310.342361,-0.366,0.063,1.035,11.970,-5.740,-8.260
1743903310.362361,-0.353,0.078,1.042,13.580,1.120,-11.690
1743903310.3073273,-0.346,0.074,1.039,12.600,3.780,-14.140
1743903310.3273273,-0.342,0.070,1.044,16.800,7.350,-17.640
1743903310.3473272,-0.349,0.078,1.044,19.880,8.610,-20.650
1743903310.3673272,-0.366,0.075,1.034,26.320,7.350,-20.580
1743903310.3873272,-0.363,0.089,1.009,30.380,3.640,-22.470
1743903310.4073272,-0.361,0.081,0.999,30.380,3.920,-19.460
1743903310.383191,-0.363,0.091,0.996,28.140,7.840,-18.410
1743903310.403191,-0.365,0.098,1.000,26.600,17.640,-13.720
1743903310.423191,-0.330,0.077,0.988,30.170,20.860,-13.300
1743903310.443191,-0.458,0.068,0.965,10.290,-7.770,11.480
1743903310.463191,-0.416,0.146,1.017,27.650,0.070,-9.590
1743903310.483191,-0.370,0.122,0.987,30.520,-0.490,-10.080
1743903310.38611,-0.373,0.101,0.952,31.360,-4.550,-10.010
1743903310.40611,-0.365,0.107,0.962,32.830,-4.900,-11.200
1743903310.42611,-0.366,0.112,0.968,29.330,-5.810,-14.350
1743903310.44611,-0.365,0.109,0.949,28.560,-2.030,-10.710
1743903310.46611,-0.370,0.119,0.952,25.830,-3.150,-8.820
1743903310.48611,-0.358,0.122,0.964,27.300,-3.430,-12.250
1743903310.442836,-0.366,0.128,0.942,31.710,-2.730,-11.900
1743903310.462836,-0.375,0.143,0.954,30.170,-0.420,-9.520
1743903310.482836,-0.376,0.138,0.979,22.190,-0.420,-7.140
1743903310.502836,-0.387,0.132,0.975,20.580,-6.440,-4.620
1743903310.522836,-0.371,0.119,0.987,20.300,-0.770,-2.660
1743903310.542836,-0.356,0.119,0.969,20.510,1.120,-1.960
1743903310.4731812,-0.358,0.133,0.970,19.040,6.580,-1.610
1743903310.4931812,-0.345,0.134,0.966,20.440,14.140,-3.220
1743903310.5131812,-0.359,0.133,0.958,18.970,19.530,-2.520
1743903310.5331812,-0.369,0.139,0.935,19.880,19.320,-0.490
1743903310.5531812,-0.377,0.162,0.949,15.050,20.090,1.680
1743903310.5731812,-0.384,0.148,0.996,9.590,22.470,7.350
1743903310.530561,-0.399,0.150,0.999,12.670,23.940,5.110
1743903310.550561,-0.396,0.152,0.988,16.590,25.970,1.400
1743903310.570561,-0.390,0.158,0.972,17.570,23.170,6.370
1743903310.590561,-0.394,0.170,0.962,9.800,19.600,10.150
1743903310.610561,-0.438,0.140,0.957,-8.120,20.160,14.840
1743903310.6305609,-0.497,0.437,0.949,-99.330,-12.320,10.150
1743903310.5469222,-0.453,0.264,0.933,-100.450,-3.080,25.760
1743903310.5669222,-0.310,-0.107,0.946,-77.350,9.520,27.720
1743903310.5869222,-0.293,-0.074,0.958,-42.700,12.880,25.620
1743903310.6069221,-0.410,0.132,0.945,-35.070,5.670,21.980
1743903310.6269221,-0.430,0.156,0.942,-43.400,0.560,20.300
1743903310.646922,-0.304,0.143,0.922,-49.140,-0.280,8.330
1743903310.5922751,-0.363,0.064,0.944,-41.230,3.780,16.310
1743903310.6122751,-0.432,0.096,0.953,-46.200,5.810,25.200
1743903310.632275,-0.501,0.161,0.930,-62.510,-8.260,29.050
1743903310.652275,-0.474,0.061,0.946,-73.500,-5.880,37.310
1743903310.672275,-0.392,0.063,0.943,-56.770,-6.790,35.910
1743903310.692275,-0.361,0.045,0.935,-47.600,-0.420,38.080
1743903310.680944,-0.328,0.061,0.982,-41.440,6.720,37.100
1743903310.700944,-0.359,0.086,0.971,-37.240,5.110,21.700
1743903310.720944,-0.342,0.091,0.961,-34.440,5.740,26.250
1743903310.740944,-0.436,0.090,0.952,-42.700,-12.740,23.450
1743903310.760944,-0.459,0.089,0.935,-44.940,-17.500,32.270
1743903310.7809439,-0.326,0.036,0.976,-36.050,-17.850,29.890
1743903310.684606,-0.313,0.044,1.005,-21.000,-13.090,23.660
1743903310.704606,-0.340,0.058,1.000,-18.900,-10.850,21.210
1743903310.724606,-0.367,0.065,0.991,-12.040,-15.260,19.530
1743903310.744606,-0.398,0.070,0.980,-12.110,-16.100,15.540
1743903310.764606,-0.594,0.153,0.962,-30.450,-58.030,16.450
1743903310.784606,-0.407,0.094,1.000,-49.210,-61.110,30.310
1743903310.729042,-0.317,0.066,0.995,-78.820,-35.140,30.520
1743903310.749042,-0.351,0.074,0.991,-90.790,-43.050,34.580
1743903310.769042,-0.382,0.072,1.003,-100.660,-54.600,36.260
1743903310.789042,-0.361,0.033,1.021,-109.340,-43.750,31.780
1743903310.809042,-0.346,-0.019,0.984,-103.390,-36.050,29.820
1743903310.829042,-0.339,-0.025,0.960,-92.890,-26.740,34.230
1743903310.772087,-0.285,-0.087,0.931,-66.220,-14.980,35.630
1743903310.792087,-0.294,-0.035,0.997,-64.820,-13.160,31.150
1743903310.812087,-0.340,0.022,1.022,-66.850,-17.850,27.790
1743903310.832087,-0.343,0.025,1.026,-74.270,-28.140,22.680
1743903310.852087,-0.330,0.002,1.029,-73.780,-28.770,20.720
1743903310.872087,-0.312,-0.049,1.018,-70.700,-33.320,13.650
1743903310.816976,-0.332,-0.071,0.987,-62.160,-37.240,14.770
1743903310.836976,-0.355,-0.105,0.976,-55.510,-46.480,18.830
1743903310.856976,-0.366,-0.116,0.950,-43.470,-54.670,26.390
1743903310.876976,-0.333,-0.117,0.991,-33.950,-51.870,28.280
1743903310.896976,-0.288,-0.088,1.005,-33.180,-43.050,26.250
1743903310.916976,-0.275,-0.064,1.031,-38.780,-39.970,25.550
1743903310.8470201,-0.277,-0.083,1.046,-37.450,-30.660,25.340
1743903310.8670201,-0.280,-0.098,1.030,-35.210,-26.180,26.320
1743903310.88702,-0.290,-0.100,1.029,-25.830,-25.200,24.640
1743903310.90702,-0.291,-0.085,1.035,-20.860,-25.200,20.300
1743903310.92702,-0.275,-0.070,1.056,-9.940,-23.310,17.850
1743903310.94702,-0.269,-0.039,1.054,-11.410,-15.050,16.660
1743903310.89385,-0.268,-0.039,1.040,-21.770,-4.270,18.340
1743903310.91385,-0.270,-0.042,1.030,-34.160,3.850,20.720
1743903310.93385,-0.267,-0.068,1.014,-37.240,7.070,21.770
1743903310.95385,-0.278,-0.100,1.008,-37.730,5.950,22.050
1743903310.97385,-0.278,-0.120,0.996,-27.930,0.560,21.910
1743903310.99385,-0.281,-0.111,1.013,-20.720,-5.320,18.200
1743903310.9686632,-0.275,-0.085,1.016,-16.660,-9.170,13.580
1743903310.9886632,-0.273,-0.084,1.020,-9.380,-13.020,10.500
1743903311.0086632,-0.260,-0.084,1.025,1.960,-16.170,7.840
1743903311.0286632,-0.258,-0.076,1.050,10.850,-17.430,-1.120
1743903311.0486631,-0.247,-0.066,1.068,7.350,-9.590,-4.550
1743903311.0686631,-0.249,-0.064,1.061,4.900,-3.080,-6.020
1743903310.996893,-0.266,-0.096,1.039,5.880,-2.800,-7.770
1743903311.016893,-0.289,-0.109,1.034,11.900,-5.810,-8.050
1743903311.036893,-0.298,-0.093,1.040,14.140,-7.000,-7.210
1743903311.0568929,-0.295,-0.087,1.030,11.900,-5.530,-5.810
1743903311.0768929,-0.288,-0.092,1.021,9.730,-3.360,-4.970
1743903311.0968928,-0.278,-0.091,1.017,8.750,-1.960,-5.040
1743903311.0269341,-0.285,-0.091,1.020,10.290,-2.660,-4.830
1743903311.0469341,-0.287,-0.090,1.017,10.920,-3.150,-4.900
1743903311.066934,-0.284,-0.087,1.012,10.080,-3.150,-5.250
1743903311.086934,-0.280,-0.083,1.004,9.310,-2.940,-4.760
1743903311.106934,-0.277,-0.083,1.002,8.610,-2.240,-4.690
1743903311.126934,-0.276,-0.079,0.995,7.630,-2.380,-4.620
1743903311.057301,-0.281,-0.082,0.997,7.840,-3.150,-4.690
1743903311.077301,-0.283,-0.079,1.003,7.980,-3.150,-5.390
1743903311.097301,-0.275,-0.075,1.006,7.280,-2.030,-5.460
1743903311.117301,-0.274,-0.076,1.008,6.790,-1.120,-4.340
1743903311.137301,-0.280,-0.085,1.016,7.350,-0.490,-3.640
1743903311.157301,-0.273,-0.081,1.012,8.540,-0.560,-2.730
1743903311.1024811,-0.273,-0.075,1.003,8.680,-0.140,-2.240
1743903311.122481,-0.267,-0.067,1.001,8.960,0.070,-2.310
1743903311.142481,-0.268,-0.057,1.002,8.890,0.000,-2.660
1743903311.162481,-0.269,-0.047,1.006,7.770,0.070,-3.150
1743903311.182481,-0.276,-0.043,1.010,4.900,-0.560,-5.040
1743903311.202481,-0.275,-0.050,1.016,1.820,0.490,-5.250
1743903311.1470912,-0.274,-0.069,1.016,0.280,1.750,-3.780
1743903311.1670911,-0.283,-0.075,1.017,0.210,1.890,-3.360
1743903311.187091,-0.285,-0.078,1.022,0.490,1.820,-3.220
1743903311.207091,-0.285,-0.081,1.025,0.350,1.750,-3.080
1743903311.227091,-0.285,-0.082,1.028,0.140,3.360,-2.240
1743903311.247091,-0.285,-0.078,1.027,0.350,3.430,-3.010
1743903311.1919901,-0.289,-0.083,1.024,0.490,2.800,-3.500
1743903311.21199,-0.288,-0.090,1.021,1.050,2.520,-3.990
1743903311.23199,-0.288,-0.093,1.015,0.840,2.730,-4.480
1743903311.25199,-0.288,-0.097,1.017,0.420,2.940,-4.410
1743903311.27199,-0.291,-0.117,1.020,0.630,2.100,-3.150
1743903311.29199,-0.297,-0.124,1.023,4.200,1.470,-1.680
1743903311.2233021,-0.290,-0.109,1.016,8.750,-0.140,-1.470
1743903311.243302,-0.288,-0.077,1.007,8.470,1.400,-2.030
1743903311.263302,-0.283,-0.064,1.004,7.210,2.870,-2.590
1743903311.283302,-0.285,-0.062,1.004,3.920,4.620,-2.310
1743903311.303302,-0.292,-0.075,0.992,-1.610,5.180,-1.610
1743903311.323302,-0.299,-0.087,0.979,-2.030,3.640,-0.910
1743903311.3133502,-0.300,-0.089,0.980,-0.910,0.630,-0.490
1743903311.3333502,-0.295,-0.089,0.986,0.350,-0.630,-0.070
1743903311.3533502,-0.292,-0.081,0.986,0.700,-2.870,-0.140
1743903311.3733501,-0.291,-0.072,0.989,0.630,-3.220,-0.210
1743903311.3933501,-0.288,-0.069,0.991,0.770,-4.130,0.000
1743903311.41335,-0.286,-0.065,0.995,0.140,-3.150,-0.630
1743903311.3156831,-0.280,-0.063,0.995,-0.490,-2.730,-1.610
1743903311.335683,-0.282,-0.066,0.995,-0.910,-3.500,-1.750
1743903311.355683,-0.290,-0.076,1.001,0.210,-4.200,-1.400
1743903311.375683,-0.285,-0.077,1.008,1.750,-4.550,-1.400
1743903311.395683,-0.283,-0.071,1.021,1.680,-3.990,-1.960
1743903311.415683,-0.281,-0.061,1.021,-0.140,-2.240,-3.080
1743903311.342061,-0.284,-0.063,1.023,-1.610,-2.100,-3.640
1743903311.362061,-0.290,-0.080,1.024,-2.310,-2.030,-3.570
1743903311.382061,-0.292,-0.091,1.030,-1.120,-1.330,-3.220
1743903311.402061,-0.293,-0.089,1.031,-0.210,-1.050,-3.080
1743903311.422061,-0.294,-0.090,1.033,1.120,-0.700,-3.500
1743903311.442061,-0.292,-0.087,1.030,0.910,0.000,-3.430
1743903311.3869963,-0.295,-0.098,1.027,1.400,0.140,-3.290
1743903311.4069963,-0.298,-0.100,1.027,2.870,-0.280,-2.800
1743903311.4269962,-0.300,-0.101,1.025,4.060,-0.840,-1.610
1743903311.4469962,-0.297,-0.095,1.021,3.920,-0.700,-0.280
1743903311.4669962,-0.293,-0.091,1.017,3.850,0.070,-0.210
1743903311.4869962,-0.289,-0.079,1.017,4.270,1.400,-0.980
1743903311.4328523,-0.285,-0.071,1.017,2.380,2.520,-1.540
1743903311.4528522,-0.285,-0.077,1.007,1.120,3.220,-1.400
1743903311.4728522,-0.290,-0.082,1.002,1.260,1.890,-0.700
1743903311.4928522,-0.296,-0.087,0.999,1.890,1.540,17.850
1743903311.5128522,-0.295,-0.082,1.001,3.080,-0.070,0.070
1743903311.5328522,-0.293,-0.078,1.003,2.940,-0.420,0.420
1743903311.476996,-0.295,-0.076,1.002,2.660,-0.560,0.560
1743903311.496996,-0.295,-0.077,1.000,2.730,-0.770,0.490
1743903311.516996,-0.296,-0.078,1.004,2.660,-0.840,0.560
1743903311.536996,-0.297,-0.076,1.004,2.380,-1.120,0.700
1743903311.5569959,-0.300,-0.079,1.006,3.220,-1.400,0.700
1743903311.5769958,-0.300,-0.079,1.013,4.690,-1.960,0.700
1743903311.5228171,-0.296,-0.077,1.015,4.200,-1.050,0.420
1743903311.542817,-0.298,-0.077,1.012,3.150,-0.280,0.280
1743903311.562817,-0.299,-0.077,1.010,2.240,0.070,0.560
1743903311.582817,-0.302,-0.082,1.013,1.400,1.120,1.820
1743903311.602817,-0.301,-0.083,1.016,-17.920,2.100,2.730
1743903311.622817,-0.298,-0.089,1.013,-0.070,1.190,3.780
1743903311.566734,-0.305,-0.096,1.011,1.820,0.840,4.690
1743903311.586734,-0.306,-0.089,1.016,5.880,-1.120,4.690
1743903311.606734,-0.300,-0.080,1.019,6.720,0.140,4.830
1743903311.626734,-0.297,-0.079,1.019,7.630,1.190,4.480
1743903311.646734,-0.299,-0.069,1.019,7.840,1.050,4.060
1743903311.666734,-0.300,-0.063,1.020,9.170,0.770,3.430
1743903311.610454,-0.293,-0.059,1.016,9.170,0.910,2.240
1743903311.630454,-0.293,-0.060,1.012,9.380,1.190,1.750
1743903311.650454,-0.291,-0.059,1.009,9.240,2.030,1.050
1743903311.670454,-0.291,-0.054,1.007,8.680,2.100,0.350
1743903311.690454,-0.290,-0.053,1.006,6.790,3.010,0.210
1743903311.710454,-0.301,-0.060,1.011,6.860,2.870,-0.210
1743903311.642923,-0.297,-0.063,1.010,6.860,3.080,-0.280
1743903311.662923,-0.301,-0.066,1.010,7.840,2.800,-0.490
1743903311.682923,-0.309,-0.062,1.013,8.470,2.310,-0.840
1743903311.702923,-0.316,-0.062,1.021,10.010,0.490,-1.050
1743903311.722923,-0.315,-0.066,1.013,10.780,-0.560,-1.820
1743903311.742923,-0.314,-0.068,1.012,10.640,0.000,-1.400
1743903311.687472,-0.312,-0.065,1.016,9.940,0.980,-0.770
1743903311.707472,-0.316,-0.062,1.019,9.450,2.100,-0.490
1743903311.727472,-0.313,-0.059,1.019,6.930,3.640,-0.280
1743903311.747472,-0.309,-0.062,1.010,5.530,5.390,-0.280
1743903311.767472,-0.309,-0.064,1.011,8.680,3.780,-0.490
1743903311.787472,-0.314,-0.063,1.011,15.050,-0.350,-1.190
1743903311.731996,-0.314,-0.058,1.016,18.550,-2.660,-3.150
1743903311.751996,-0.306,-0.044,1.014,22.400,-4.900,-3.570
1743903311.771996,-0.301,-0.033,1.008,22.750,-4.340,-3.920
1743903311.791996,-0.300,-0.025,0.999,20.230,-3.080,-4.130
1743903311.811996,-0.300,-0.019,0.996,18.830,-2.660,-4.340
1743903311.831996,-0.302,-0.018,1.005,16.800,-1.540,-5.810
1743903311.7626941,-0.299,-0.009,1.015,13.300,0.700,-6.230
1743903311.782694,-0.298,-0.014,1.009,10.710,1.820,-7.350
1743903311.802694,-0.297,-0.016,1.001,9.310,2.240,-8.540
1743903311.822694,-0.297,-0.024,0.999,9.030,1.540,-8.330
1743903311.842694,-0.320,-0.042,0.992,8.400,-0.210,-6.020
1743903311.862694,-0.323,-0.052,0.985,9.450,-4.270,-5.040
1743903311.8069441,-0.321,-0.052,0.978,9.450,-5.600,-3.220
1743903311.826944,-0.316,-0.050,0.986,9.870,-5.740,-3.080
1743903311.846944,-0.321,-0.038,0.995,9.590,-5.880,-3.080
1743903311.866944,-0.322,-0.035,1.004,8.190,-5.530,-3.500
1743903311.886944,-0.318,-0.040,1.010,7.420,-5.250,-4.060
1743903311.906944,-0.311,-0.050,1.009,9.660,-6.230,-5.040
1743903311.867516,-0.319,-0.052,1.011,14.700,-6.230,-7.420
1743903311.887516,-0.306,-0.037,1.035,17.220,-5.180,-9.310
1743903311.907516,-0.297,-0.026,1.044,16.310,0.770,-9.310
1743903311.927516,-0.306,-0.031,1.029,15.750,4.060,-9.240
1743903311.947516,-0.308,-0.033,1.012,16.870,2.940,-9.310
1743903311.967516,-0.321,-0.030,1.006,15.260,2.730,-7.770
1743903311.896953,-0.317,-0.032,1.011,13.370,3.360,-5.740
1743903311.916953,-0.315,-0.039,1.009,11.760,4.900,-4.130
1743903311.936953,-0.309,-0.032,1.007,11.340,6.160,-2.590
1743903311.956953,-0.305,-0.022,1.008,10.640,6.930,-2.520
1743903311.976953,-0.306,-0.004,1.009,10.500,9.520,-5.110
1743903311.996953,-0.292,0.003,1.017,8.120,10.710,-7.000
1743903311.972179,-0.298,0.003,1.015,3.920,13.510,-7.490
1743903311.992179,-0.321,-0.010,1.003,4.130,11.690,-7.280
1743903312.012179,-0.323,-0.015,0.990,6.580,9.660,-7.140
1743903312.0321789,-0.321,-0.009,0.989,7.490,8.120,-6.860
1743903312.0521789,-0.323,-0.010,0.993,6.510,7.070,-6.790
1743903312.0721788,-0.337,-0.036,1.009,9.030,2.520,-6.580
1743903311.988567,-0.337,-0.036,1.010,18.410,1.190,-5.600
1743903312.008567,-0.315,-0.030,1.007,24.150,4.550,-7.000
1743903312.028567,-0.314,0.010,1.012,21.700,7.560,-9.170
1743903312.048567,-0.327,0.022,1.018,13.720,8.120,-9.870
1743903312.068567,-0.334,0.013,1.016,10.360,7.840,-11.550
1743903312.088567,-0.338,-0.019,0.977,-5.040,-1.400,-3.570
1743903312.03336,-0.356,-0.030,0.965,3.150,1.260,-4.060
1743903312.05336,-0.316,-0.020,1.010,6.720,9.520,-4.760
1743903312.07336,-0.329,-0.005,1.019,-2.590,12.670,-4.130
1743903312.09336,-0.346,-0.025,1.003,-9.380,14.070,-3.150
1743903312.11336,-0.346,-0.074,0.814,3.080,17.710,0.770
1743903312.13336,-0.304,-0.079,0.995,28.560,8.190,-4.200
1743903312.0774722,-0.391,-0.020,0.990,28.000,6.510,-3.220
1743903312.0974722,-0.338,-0.011,0.972,41.160,9.100,-1.750
1743903312.1174722,-0.322,-0.006,0.991,47.250,12.670,-1.050
1743903312.1374722,-0.329,0.008,1.013,45.150,11.830,-1.680
1743903312.1574721,-0.355,0.009,0.977,51.730,13.230,-2.450
1743903312.177472,-0.361,0.014,0.947,59.570,6.720,0.420
1743903312.122368,-0.368,0.029,0.948,62.020,3.010,3.080
1743903312.142368,-0.379,0.049,0.964,56.350,-6.370,2.730
1743903312.162368,-0.377,0.043,1.001,38.990,-11.830,2.170
1743903312.182368,-0.337,0.037,0.991,34.510,-9.240,1.820
1743903312.202368,-0.319,0.054,0.996,35.490,-12.390,-0.910
1743903312.222368,-0.333,0.058,1.007,50.750,-10.640,-3.010
1743903312.1522422,-0.341,0.087,1.014,49.000,-3.010,-5.670
1743903312.1722422,-0.336,0.069,0.994,35.070,-4.620,-5.670
1743903312.1922421,-0.327,0.069,0.996,28.700,-5.320,-4.690
1743903312.2122421,-0.339,0.071,1.002,27.020,-4.620,-3.850
1743903312.232242,-0.342,0.065,0.990,18.690,-3.220,-3.500
1743903312.252242,-0.342,0.068,0.972,12.530,-2.170,-1.120
1743903312.197226,-0.346,0.069,0.981,8.400,-3.080,-0.490
1743903312.217226,-0.347,0.063,1.026,8.820,-4.550,-0.840
1743903312.237226,-0.356,0.060,1.029,11.550,-5.390,-0.910
1743903312.257226,-0.361,0.063,1.015,17.150,-5.320,-1.820
1743903312.277226,-0.360,0.061,1.014,18.130,-4.480,-3.220
1743903312.297226,-0.360,0.051,1.011,19.810,-4.270,-4.270
1743903312.273338,-0.365,0.054,1.016,22.820,-4.620,-4.620
1743903312.293338,-0.376,0.061,1.029,26.180,-5.040,-4.060
1743903312.313338,-0.380,0.055,1.047,27.790,-5.320,-3.360
1743903312.333338,-0.380,0.050,1.051,30.450,-5.250,-1.470
1743903312.353338,-0.378,0.048,1.036,28.770,-2.310,-0.490
1743903312.373338,-0.377,0.053,1.034,24.850,-0.980,2.310
1743903312.286839,-0.365,0.046,1.036,23.730,0.770,3.150
1743903312.306839,-0.357,0.063,1.039,21.840,0.910,3.850
1743903312.326839,-0.349,0.081,1.017,20.860,1.960,4.480
1743903312.346839,-0.339,0.099,0.980,21.070,4.900,1.750
1743903312.366839,-0.324,0.105,0.978,20.440,6.860,-1.820
1743903312.386839,-0.325,0.118,0.973,22.470,5.460,-4.480
1743903312.317008,-0.335,0.122,0.980,28.490,3.850,-3.850
1743903312.337008,-0.337,0.131,0.960,32.410,3.710,-2.170
1743903312.357008,-0.339,0.144,0.958,34.720,2.800,-1.330
1743903312.377008,-0.325,0.163,0.943,28.630,3.920,-4.550
1743903312.397008,-0.310,0.172,0.952,26.950,4.900,-11.900
1743903312.417008,-0.307,0.177,0.967,32.410,3.080,-14.630
1743903312.362745,-0.305,0.187,0.968,38.290,2.170,-19.810
1743903312.382745,-0.304,0.190,0.949,41.790,2.240,-21.420
1743903312.402745,-0.310,0.185,0.944,41.790,3.850,-22.750
1743903312.422745,-0.312,0.178,0.956,43.120,3.220,-27.860
1743903312.442745,-0.318,0.171,0.981,52.080,2.730,-30.310
1743903312.462745,-0.303,0.197,0.952,40.460,0.070,-59.990
1743903312.407113,-0.272,0.184,0.985,37.800,3.500,-46.340
1743903312.427113,-0.394,0.155,0.994,47.880,1.120,-37.030
1743903312.447113,-0.376,0.142,0.986,49.210,2.380,-35.980
1743903312.467113,-0.357,0.160,0.973,49.630,0.140,-36.260
1743903312.487113,-0.359,0.142,0.992,51.310,-0.770,-36.330
1743903312.507113,-0.362,0.140,1.030,68.810,3.640,-41.510
1743903312.451962,-0.368,0.150,1.021,78.750,4.060,-45.640
1743903312.471962,-0.388,0.169,1.001,77.210,4.200,-44.870
1743903312.491962,-0.396,0.172,1.003,70.210,4.480,-39.410
1743903312.511962,-0.396,0.162,0.996,63.140,7.420,-32.760
1743903312.531962,-0.385,0.171,0.999,63.140,6.930,-34.160
1743903312.551962,-0.386,0.179,0.991,63.770,4.270,-33.180
1743903312.497971,-0.380,0.187,0.972,57.960,6.020,-31.920
1743903312.517971,-0.379,0.199,0.964,51.520,9.800,-28.490
1743903312.537971,-0.382,0.207,0.971,47.390,15.400,-25.270
1743903312.557971,-0.378,0.206,0.964,61.390,13.720,-35.980
1743903312.577971,-0.370,0.233,0.945,65.240,13.440,-47.600
1743903312.597971,-0.371,0.240,0.950,76.510,12.110,-49.210
1743903312.587362,-0.404,0.259,0.903,97.370,15.750,-43.680
1743903312.607362,-0.418,0.267,0.904,81.970,13.440,-34.930
1743903312.627362,-0.411,0.291,0.911,59.780,12.040,-34.790
1743903312.647362,-0.386,0.290,0.912,56.070,14.350,-36.750
1743903312.667362,-0.367,0.284,0.910,42.560,20.300,-36.680
1743903312.687362,-0.382,0.290,0.918,27.790,29.820,-39.760
1743903312.600432,-0.370,0.283,0.943,25.130,32.340,-56.560
1743903312.620432,-0.362,0.240,0.928,28.770,25.900,-60.550
1743903312.640432,-0.426,0.258,0.930,36.540,22.960,-51.100
1743903312.6604319,-0.454,0.262,0.921,32.620,22.330,-46.060
1743903312.6804318,-0.454,0.257,0.910,21.070,24.080,-39.340
1743903312.7004318,-0.442,0.258,0.926,6.510,30.100,-42.280
1743903312.6328483,-0.427,0.264,0.946,7.700,36.190,-49.280
1743903312.6528482,-0.421,0.270,0.950,5.740,39.270,-53.200
1743903312.6728482,-0.430,0.247,0.924,10.290,37.380,-53.340
1743903312.6928482,-0.456,0.251,0.908,15.260,46.480,-52.500
1743903312.7128482,-0.483,0.238,0.880,18.550,41.790,-46.130
1743903312.7328482,-0.508,0.232,0.845,19.950,35.280,-36.540
1743903312.705424,-0.526,0.257,0.843,21.700,32.480,-32.620
1743903312.725424,-0.552,0.275,0.854,18.550,25.270,-28.490
1743903312.745424,-0.558,0.261,0.886,13.580,15.400,-19.040
1743903312.765424,-0.529,0.260,0.907,19.250,12.810,-14.560
1743903312.785424,-0.512,0.275,0.912,19.320,16.660,-17.150
1743903312.805424,-0.504,0.285,0.906,13.230,20.720,-17.570
1743903312.722734,-0.489,0.284,0.902,4.410,28.840,-17.640
1743903312.742734,-0.492,0.276,0.903,-0.210,33.740,-18.200
1743903312.762734,-0.509,0.259,0.898,-1.750,30.800,-11.480
1743903312.782734,-0.531,0.245,0.893,-0.840,34.230,-3.640
1743903312.802734,-0.525,0.252,0.877,-7.070,38.080,0.770
1743903312.8227339,-0.504,0.257,0.871,-24.360,55.160,4.480
1743903312.7527611,-0.505,0.239,0.849,-28.070,50.680,3.710
1743903312.772761,-0.561,0.226,0.858,-7.420,35.770,-0.140
1743903312.792761,-0.548,0.237,0.843,1.680,26.810,-0.070
1743903312.812761,-0.531,0.235,0.806,1.190,23.170,-0.630
1743903312.832761,-0.563,0.224,0.819,-4.410,18.970,1.330
1743903312.852761,-0.575,0.211,0.826,-2.100,15.190,8.260
1743903312.79743,-0.569,0.215,0.816,1.400,7.700,9.730
1743903312.81743,-0.557,0.240,0.818,1.960,4.900,11.340
1743903312.83743,-0.563,0.256,0.851,0.700,5.880,12.460
1743903312.85743,-0.577,0.253,0.874,0.560,8.540,19.180
1743903312.87743,-0.576,0.263,0.875,3.010,3.570,19.530
1743903312.89743,-0.534,0.279,0.883,-1.330,6.300,17.500
1743903312.8732972,-0.529,0.282,0.888,-3.220,9.450,17.290
1743903312.8932972,-0.530,0.279,0.886,-7.210,11.130,18.620
1743903312.9132972,0.132,0.662,1.104,-130.900,150.080,66.150
1743903312.9332972,-0.296,0.152,0.801,-224.700,146.790,-36.890
1743903312.9532971,-0.598,0.189,0.845,-179.760,96.600,22.960
1743903312.973297,-0.818,0.175,0.860,-151.550,82.040,46.620
1743903312.876761,-0.743,0.075,0.813,-105.910,51.030,51.940
1743903312.896761,-0.315,0.521,0.872,-108.710,77.000,162.610
1743903312.916761,-0.334,0.578,0.783,-267.260,92.470,167.790
1743903312.936761,-0.685,0.239,0.908,-327.180,30.450,156.310
1743903312.956761,-0.669,0.110,0.957,-386.330,-23.100,83.510
1743903312.9767609,-0.705,-0.433,0.663,-122.500,-65.800,57.610
1743903312.9469101,-0.680,-0.264,0.687,-1.540,-36.960,14.280
1743903312.9669101,-0.720,0.007,0.806,-10.640,7.280,9.590
1743903312.98691,-0.619,0.146,0.803,-10.010,0.560,21.490
1743903313.00691,-0.610,0.168,0.829,-32.410,1.330,31.780
1743903313.02691,-0.661,0.117,0.805,-27.580,1.540,31.500
1743903313.04691,-0.630,0.177,0.857,-44.240,-4.900,42.350
1743903312.9640212,-0.588,0.191,0.853,-47.950,-18.690,51.590
1743903312.9840212,-0.610,0.207,0.877,-50.540,-59.430,64.890
1743903313.0040212,-0.636,0.124,0.885,-31.920,-73.150,65.450
1743903313.0240211,-0.630,0.130,0.938,-21.700,-90.790,66.080
1743903313.0440211,-0.593,0.117,0.970,-14.000,-105.210,58.660
1743903313.064021,-0.550,0.104,0.964,18.270,-131.530,42.700
1743903313.025415,-0.562,0.133,0.947,18.200,-143.150,27.790
1743903313.045415,-0.526,0.129,0.913,27.160,-138.950,21.910
1743903313.065415,-0.500,0.108,0.872,8.750,-124.880,15.680
1743903313.085415,-0.479,0.126,0.872,-0.700,-98.070,7.560
1743903313.1054149,-0.485,0.115,0.841,3.360,-73.360,10.430
1743903313.1254148,-0.404,0.117,0.847,-0.770,-14.910,-4.550
1743903313.0688791,-0.368,0.124,0.850,-0.140,7.140,-22.820
1743903313.088879,-0.416,0.143,0.876,-24.920,30.730,-28.070
1743903313.108879,-0.446,0.138,0.915,-34.370,35.770,-27.720
1743903313.128879,-0.483,0.142,1.116,-56.280,18.270,-20.720
1743903313.148879,-0.538,0.145,0.981,-59.640,-11.830,-7.420
1743903313.168879,-0.485,0.110,0.934,-25.900,-6.790,-13.020
1743903313.097251,-0.471,0.115,0.936,-35.840,-4.060,-14.980
1743903313.117251,-0.466,0.106,0.916,-34.020,-3.080,-14.560
1743903313.137251,-0.489,0.109,0.940,-46.550,-2.170,-15.050
1743903313.157251,-0.467,0.071,0.925,-45.430,-1.470,-15.890
1743903313.1772509,-0.479,0.052,0.943,-44.730,1.750,-16.800
1743903313.1972508,-0.508,0.028,0.947,-19.880,-1.610,-16.100
1743903313.172943,-0.516,0.020,0.954,-21.840,-13.790,-9.030
1743903313.192943,-0.547,0.016,0.940,-10.920,-20.930,-4.270
1743903313.212943,-0.523,0.026,0.944,-12.670,-22.120,-2.450
1743903313.232943,-0.501,0.017,0.916,-10.220,-14.070,-1.540
1743903313.252943,-0.520,0.036,0.930,-11.200,-5.460,0.210
1743903313.272943,-0.515,0.050,0.940,-12.180,-4.900,0.140
1743903313.2020822,-0.476,0.067,0.953,-20.230,-5.460,-3.010
1743903313.2220821,-0.491,0.081,0.979,-27.580,-10.150,-4.760
1743903313.242082,-0.464,0.041,0.920,-15.610,-5.250,-3.710
1743903313.262082,-0.487,0.047,0.936,-18.340,6.930,-3.220
1743903313.282082,-0.484,0.049,0.945,-12.880,5.530,-2.380
1743903313.302082,-0.490,0.058,0.949,-14.140,5.040,-2.380
1743903313.247173,-0.483,0.051,0.951,-13.720,4.970,-3.080
1743903313.267173,-0.486,0.043,0.952,-10.850,1.750,-3.290
1743903313.287173,-0.533,0.097,1.033,-32.900,-17.360,-9.380
1743903313.307173,-0.550,0.029,0.926,-5.880,-33.530,-6.440
1743903313.327173,-0.451,0.032,0.920,-4.900,-8.120,-4.830
1743903313.347173,-0.463,0.042,0.935,-9.520,2.940,-6.930
1743903313.277259,-0.479,0.048,0.938,-9.730,1.190,-7.000
1743903313.297259,-0.483,0.048,0.919,-9.100,1.820,-7.910
1743903313.317259,-0.490,0.050,0.963,-37.520,-21.140,-20.440
1743903313.337259,-0.462,0.012,0.878,-12.460,-19.740,-12.110
1743903313.357259,-0.482,0.019,0.916,-15.680,-10.150,-10.500
1743903313.377259,-0.492,0.006,0.919,-12.390,-9.520,-7.770
1743903313.322618,-0.484,0.004,0.922,-12.880,-11.760,-5.810
1743903313.342618,-0.482,0.001,0.917,-13.440,-15.960,-3.850
1743903313.362618,-0.488,-0.002,0.922,-14.350,-25.620,-4.830
1743903313.382618,-0.509,-0.009,0.950,-12.320,-30.870,-3.010
1743903313.402618,-0.470,-0.008,0.977,1.470,-32.130,-4.270
1743903313.422618,-0.451,-0.004,0.956,10.990,-29.680,-5.740
1743903313.3670793,-0.457,0.009,0.952,12.670,-25.970,-5.390
1743903313.3870792,-0.458,0.019,0.947,11.200,-22.680,-6.230
1743903313.4070792,-0.462,0.028,0.966,5.320,-22.820,-5.250
1743903313.4270792,-0.450,0.014,0.942,7.490,-27.440,-4.410
1743903313.4470792,-0.453,0.007,0.957,9.240,-27.300,-3.920
1743903313.4670792,-0.446,0.007,0.963,10.920,-19.110,-3.360
1743903313.412003,-0.441,0.011,0.951,12.110,-14.910,-2.940
1743903313.432003,-0.452,0.014,0.954,11.620,-14.700,-1.820
1743903313.452003,-0.458,0.016,0.956,9.100,-13.510,-0.980
1743903313.472003,-0.451,0.012,0.956,7.140,-12.670,0.000
1743903313.492003,-0.457,0.028,1.034,-9.940,-36.190,-8.680
1743903313.512003,-0.419,-0.003,0.883,0.560,-15.610,-6.510
1743903313.4730802,-0.409,0.015,0.909,-1.540,-4.760,-8.750
1743903313.4930801,-0.441,0.014,0.955,1.260,-4.690,-8.960
1743903313.5130801,-0.462,0.016,0.982,4.760,-18.550,-6.720
1743903313.53308,-0.451,0.012,0.964,12.180,-31.010,-4.480
1743903313.55308,-0.446,0.009,0.969,12.250,-32.760,-3.500
1743903313.57308,-0.451,0.020,0.975,10.710,-30.590,-3.010
1743903313.488873,-0.416,0.015,0.952,12.110,-22.750,-3.710
1743903313.508873,-0.416,0.020,0.964,12.110,-20.510,-4.270
1743903313.528873,-0.427,0.020,0.968,13.160,-20.790,-2.100
1743903313.548873,-0.426,0.019,0.961,14.630,-21.000,-1.260
1743903313.568873,-0.423,0.006,0.972,10.990,-21.630,-2.240
1743903313.588873,-0.407,0.017,0.971,13.860,-26.040,-2.380
1743903313.532248,-0.414,0.021,0.962,9.730,-19.740,-1.260
1743903313.552248,-0.410,0.023,0.961,7.210,-14.630,-1.400
1743903313.572248,-0.407,0.026,0.964,6.930,-14.140,-0.770
1743903313.592248,-0.412,0.026,0.960,6.300,-14.420,-1.470
1743903313.612248,-0.414,0.028,0.961,9.520,-35.280,-3.710
1743903313.632248,-0.414,0.031,0.976,13.650,-22.610,-4.970
1743903313.577294,-0.414,0.045,0.986,13.720,-26.810,-3.010
1743903313.597294,-0.399,0.036,0.980,20.090,-33.040,-2.030
1743903313.617294,-0.415,0.036,0.989,16.590,-32.340,-1.470
1743903313.637294,-0.418,0.036,0.992,14.630,-32.410,0.420
1743903313.657294,-0.401,0.037,1.018,13.230,-47.670,0.490
1743903313.677294,-0.422,0.009,0.976,13.160,-49.000,0.000
1743903313.622191,-0.384,0.014,0.972,23.170,-47.530,2.100
1743903313.642191,-0.377,0.062,0.996,16.940,-40.320,-1.750
1743903313.662191,-0.363,0.037,0.979,14.000,-36.820,-2.030
1743903313.682191,-0.356,0.035,0.978,13.440,-30.730,3.080
1743903313.7021909,-0.367,0.032,0.979,11.830,-24.080,3.920
1743903313.7221909,-0.361,0.042,0.985,5.530,-22.820,4.130
1743903313.6670961,-0.339,0.053,0.979,1.190,-19.460,2.940
1743903313.687096,-0.341,0.059,0.977,0.910,-24.500,-0.910
1743903313.707096,-0.347,0.061,0.968,4.480,-25.830,-2.380
1743903313.727096,-0.340,0.067,0.991,5.110,-25.410,-2.800
1743903313.747096,-0.330,0.052,1.006,10.640,-23.660,-1.960
1743903313.767096,-0.338,0.058,1.018,15.120,-28.980,1.050
1743903313.712171,-0.340,0.059,1.021,28.770,-42.700,1.260
1743903313.732171,-0.350,0.061,1.025,24.570,-35.070,3.010
1743903313.752171,-0.345,0.054,1.023,24.080,-33.600,6.090
1743903313.772171,-0.341,0.063,1.032,20.650,-31.430,7.140
1743903313.792171,-0.368,0.055,1.019,17.570,-27.300,17.430
1743903313.812171,-0.360,0.044,1.015,15.960,-23.730,19.460
1743903313.773013,-0.319,0.046,1.006,12.950,-20.790,17.710
1743903313.793013,-0.294,0.053,1.001,8.260,-18.830,11.830
1743903313.813013,-0.291,0.067,0.992,-4.060,-8.050,11.270
1743903313.833013,-0.308,0.075,0.997,-21.420,-1.120,11.830
1743903313.853013,-0.320,0.069,0.992,-29.330,-3.080,11.760
1743903313.873013,-0.314,0.050,0.964,-25.270,-2.310,16.100
1743903313.811875,-0.316,0.055,0.990,-19.740,-3.990,11.410
1743903313.831875,-0.292,0.047,0.984,-17.290,1.330,8.540
1743903313.851875,-0.300,0.055,1.001,-8.750,-6.510,7.840
1743903313.871875,-0.321,0.059,1.012,0.420,-16.800,7.000
1743903313.891875,-0.308,0.066,1.011,2.660,-19.600,5.880
1743903313.911875,-0.314,0.065,1.005,5.600,-18.760,5.950
1743903313.862125,-0.291,0.074,1.030,8.400,-23.660,3.710
1743903313.882125,-0.299,0.065,1.034,10.570,-21.560,0.420
1743903313.902125,-0.294,0.064,1.038,9.170,-19.460,0.700
1743903313.9221249,-0.294,0.056,1.037,7.630,-16.590,4.620
1743903313.9421248,-0.314,0.042,1.024,10.570,-18.620,8.680
1743903313.9621248,-0.310,0.075,1.027,7.980,-14.840,9.590
1743903313.892148,-0.308,0.055,1.025,2.520,-10.290,9.100
1743903313.912148,-0.279,0.053,1.019,-0.980,-4.130,8.890
1743903313.932148,-0.281,0.069,1.007,-2.100,-1.330,9.310
1743903313.952148,-0.299,0.065,1.011,-6.300,0.350,10.430
1743903313.972148,-0.290,0.072,0.996,-8.330,1.400,8.540
1743903313.992148,-0.288,0.079,0.992,-8.260,0.000,8.330
1743903313.950843,-0.294,0.071,0.991,-7.210,-1.820,9.520
1743903313.970843,-0.297,0.064,1.003,-6.860,-4.130,9.660
1743903313.990843,-0.287,0.073,1.010,-9.520,-4.200,8.960
1743903314.010843,-0.291,0.067,1.006,-8.330,-5.880,8.820
1743903314.030843,-0.288,0.067,1.015,-9.450,-5.670,6.230
1743903314.050843,-0.292,0.081,1.009,-11.830,-3.850,4.620
1743903313.967256,-0.284,0.070,1.010,-13.860,-1.750,2.520
1743903313.987256,-0.287,0.064,1.015,-14.980,-0.840,1.400
1743903314.007256,-0.292,0.051,1.018,-13.930,-2.100,1.750
1743903314.027256,-0.299,0.050,1.014,-11.620,-1.260,1.610
1743903314.047256,-0.296,0.048,1.004,-10.570,-1.190,4.480
1743903314.067256,-0.300,0.047,1.008,-10.850,0.280,5.530
1743903314.012054,-0.303,0.045,1.009,-9.380,-0.070,6.230
1743903314.032054,-0.294,0.043,1.006,-8.470,-2.870,6.160
1743903314.052054,-0.291,0.037,1.003,-5.880,-5.880,6.440
1743903314.072054,-0.294,0.043,1.002,-6.230,-6.160,6.790
1743903314.092054,-0.293,0.060,0.996,-4.480,-7.350,6.300
1743903314.1120539,-0.280,0.061,1.011,-6.580,-6.650,4.690
1743903314.073744,-0.285,0.060,1.014,-7.350,-6.790,4.620
1743903314.093744,-0.287,0.057,1.019,-8.120,-6.650,5.250
1743903314.113744,-0.286,0.060,1.016,-7.840,-6.790,4.480
1743903314.133744,-0.287,0.070,1.014,-6.160,-10.570,4.130
1743903314.153744,-0.285,0.079,1.024,-4.690,-11.060,2.520
1743903314.173744,-0.283,0.081,1.028,-4.830,-12.320,-0.840
1743903314.102899,-0.278,0.084,1.026,-5.110,-12.740,-1.400
1743903314.122899,-0.272,0.071,1.019,-4.900,-12.110,-3.290
1743903314.142899,-0.274,0.055,1.028,-4.200,-12.180,-2.100
1743903314.162899,-0.283,0.039,1.017,-3.710,-13.160,0.490
1743903314.182899,-0.283,0.038,1.017,-5.810,-13.650,1.610
1743903314.202899,-0.280,0.032,1.016,-7.070,-15.260,2.030
1743903314.1628532,-0.278,0.024,1.022,-6.510,-16.940,2.240
1743903314.1828532,-0.274,0.031,1.015,-6.090,-17.990,4.200
1743903314.2028532,-0.270,0.036,1.006,-9.590,-15.610,1.470
1743903314.2228532,-0.261,0.039,1.009,-9.940,-16.730,-0.140
1743903314.2428532,-0.264,0.041,1.025,-8.750,-17.780,-4.550
1743903314.2628531,-0.258,0.034,1.020,-9.100,-23.450,-2.590
1743903314.1771522,-0.264,0.051,1.019,-10.080,-27.650,-3.220
1743903314.1971521,-0.288,0.040,1.036,-5.110,-30.380,7.840
1743903314.217152,-0.458,0.075,1.065,7.980,-47.740,22.050
1743903314.237152,-0.197,0.030,1.028,5.670,-54.180,6.160
1743903314.257152,-0.215,0.022,0.993,11.550,-56.700,-13.090
1743903314.277152,-0.201,0.031,1.035,23.520,-60.970,-18.270
1743903314.222331,-0.193,0.064,1.026,21.560,-55.370,-16.520
1743903314.242331,-0.199,0.066,1.026,17.290,-38.080,-9.450
1743903314.262331,-0.223,0.058,1.030,16.520,-29.680,-9.590
1743903314.282331,-0.207,0.046,1.041,15.680,-26.320,-10.920
1743903314.302331,-0.201,0.046,1.050,14.700,-22.400,-13.930
1743903314.322331,-0.201,0.046,1.035,10.640,-17.430,-13.510
1743903314.268972,-0.225,0.039,1.037,10.570,-16.100,-10.150
