Millis,AccelX_chest,AccelY_chest,AccelZ_chest,GyroX_chest,GyroY_chest,GyroZ_chest,AccelX_right_leg,AccelY_right_leg,AccelZ_right_leg,GyroX_right_leg,GyroY_right_leg,GyroZ_right_leg,AccelX_left_leg,AccelY_left_leg,AccelZ_left_leg,GyroX_left_leg,GyroY_left_leg,GyroZ_left_leg,AccelX_right_arm,AccelY_right_arm,AccelZ_right_arm,GyroX_right_arm,GyroY_right_arm,GyroZ_right_arm
0.0,-0.956,-0.023,-0.184,-4.69,-4.2,-3.08,-1.003,0.127,0.131,-4.62,2.66,-7.7,-0.993,0.029,-0.084,3.15,-3.64,-6.51,-0.957,0.367,-0.022,7.77,-16.31,13.02
20.0,-0.978,-0.036,-0.16,-3.56,-5.043,-4.114,-1.013,0.134,0.134,-4.48,1.4,-6.79,-0.992,0.008,-0.092,3.48,-3.64,-5.919,-0.965,0.383,-0.023,1.897,-18.095,14.09
40.0,-0.989,-0.043,-0.146,-1.335,-7.577,-5.129,-1.017,0.131,0.131,-4.086,0.018,-5.498,-1.0,-0.003,-0.093,3.636,-4.5,-5.609,-0.972,0.38,-0.031,-3.665,-18.512,15.037
60.0,-0.987,-0.03,-0.168,-0.4,-7.767,-5.345,-1.01,0.141,0.119,-4.514,-1.574,-4.386,-1.007,0.028,-0.085,2.275,-4.375,-5.6,-0.997,0.366,-0.049,-7.912,-19.849,16.48
80.0,-0.994,-0.022,-0.202,0.324,-4.771,-5.936,-1.01,0.136,0.128,-4.69,-3.5,-3.08,-1.018,0.027,-0.087,0.596,-4.599,-5.185,-1.012,0.346,-0.07,-8.118,-21.756,18.39
100.0,-0.999,0.002,-0.198,2.08,0.163,-5.95,-1.005,0.123,0.139,-4.69,-3.85,-2.1,-1.019,0.03,-0.084,-0.895,-4.389,-5.307,-1.011,0.331,-0.085,-6.65,-22.82,20.37
120.0,-1.003,0.013,-0.181,3.171,2.744,-5.346,-1.009,0.116,0.146,-3.955,-4.088,-1.434,-1.004,0.021,-0.077,-2.531,-3.744,-4.768,-1.002,0.324,-0.094,-3.814,-24.213,22.396
140.0,-1.014,0.018,-0.167,3.335,3.136,-3.777,-1.006,0.117,0.143,-1.927,-4.478,-0.654,-1.007,-0.018,-0.081,-2.8,-3.848,-4.801,-0.989,0.325,-0.091,-2.012,-24.175,23.71
160.0,-1.037,0.008,-0.151,3.861,2.799,-2.731,-1.002,0.135,0.141,-1.557,-4.356,-0.351,-1.008,-0.014,-0.097,0.293,-4.816,-4.318,-0.964,0.327,-0.089,-1.93,-23.706,23.498
180.0,-1.035,-0.007,-0.151,3.66,0.339,-3.059,-1.004,0.137,0.14,-1.599,-4.445,0.002,-0.995,0.002,-0.094,3.182,-6.431,-3.814,-0.945,0.334,-0.085,-3.332,-21.726,21.88
200.0,-1.0,-0.015,-0.19,1.491,-1.124,-4.343,-1.106,0.136,0.14,-1.567,-4.543,0.171,-0.998,-0.002,-0.095,4.615,-7.129,-3.98,-0.92,0.347,-0.066,-7.445,-19.374,19.433
220.0,-0.997,-0.018,-0.237,1.021,4.551,-6.718,-1.019,0.135,0.146,-1.353,-4.418,0.424,-1.01,-0.002,-0.095,5.54,-8.107,-4.58,-0.907,0.352,-0.051,-11.905,-15.47,15.719
240.0,-1.039,-0.004,-0.228,0.531,11.981,-7.438,-1.001,0.127,0.156,-0.748,-3.732,0.605,-1.017,0.021,-0.092,5.874,-10.009,-5.318,-0.91,0.353,-0.035,-18.69,-12.107,11.195
260.0,-1.067,-0.014,-0.125,-0.346,9.792,-7.288,-1.009,0.123,0.147,-0.385,-3.78,1.052,-1.011,0.04,-0.093,4.423,-11.408,-6.35,-0.916,0.344,-0.031,-25.366,-10.508,7.116
280.0,-1.004,-0.026,-0.093,1.217,0.997,-7.599,-1.01,0.117,0.139,0.587,-4.897,2.101,-1.01,0.03,-0.086,2.302,-13.126,-7.615,-0.931,0.328,-0.04,-26.226,-10.837,4.225
300.0,-0.98,-0.016,-0.104,3.545,-5.82,-5.366,-1.001,0.128,0.138,1.226,-5.884,2.88,-1.014,-0.005,-0.075,2.319,-14.407,-8.168,-0.95,0.313,-0.054,-25.229,-12.983,3.348
320.0,-0.98,-0.02,-0.149,5.283,-10.005,-1.772,-0.995,0.134,0.139,1.069,-6.238,3.061,-1.014,-0.012,-0.071,1.079,-14.658,-8.874,-0.955,0.297,-0.065,-20.499,-16.723,3.887
340.0,-0.982,-0.042,-0.183,5.634,-11.288,-1.266,-0.996,0.134,0.146,0.794,-6.3,3.016,-1.005,0.017,-0.046,0.98,-13.79,-7.63,-0.952,0.279,-0.078,-12.384,-20.72,6.937
360.0,-0.964,-0.043,-0.182,4.343,-12.428,-2.431,-1.009,0.126,0.155,1.183,-6.842,3.111,-0.982,-0.031,-0.059,3.36,-12.67,-7.35,-0.941,0.27,-0.089,-0.401,-23.888,11.541
380.0,-0.935,-0.026,-0.177,3.635,-14.879,-2.876,-1.014,0.117,0.151,2.726,-8.449,3.61,-0.999,-0.042,-0.051,3.644,-12.286,-6.764,-0.938,0.281,-0.094,11.444,-24.494,14.873
400.0,-0.937,-0.011,-0.19,4.363,-14.633,-1.863,-1.007,0.138,0.145,3.682,-9.158,3.946,-1.014,-0.013,-0.047,0.886,-11.403,-6.267,-0.93,0.32,-0.095,17.098,-23.535,15.86
420.0,-0.985,-0.013,-0.191,4.843,-9.535,-1.075,-0.998,0.164,0.153,3.598,-9.304,4.218,-1.019,-0.065,-0.054,2.559,-11.157,-6.172,-0.923,0.344,-0.096,16.995,-20.813,15.257
440.0,-1.004,-0.023,-0.162,4.73,-6.283,-1.66,-1.012,0.147,0.155,2.037,-9.952,4.917,-1.005,-0.017,-0.047,2.19,-10.852,-6.031,-0.916,0.363,-0.085,11.492,-16.166,12.557
460.0,-0.988,-0.012,-0.14,3.733,-5.622,-2.308,-1.013,0.136,0.164,2.287,-10.471,5.599,-1.0,-0.006,-0.039,1.841,-10.982,-5.524,-0.903,0.371,-0.079,4.72,-12.439,8.636
480.0,-0.956,-0.014,-0.137,3.152,-8.006,-2.0,-0.991,0.144,0.168,2.87,-10.178,5.699,-0.987,-0.018,-0.021,-1.377,-9.229,-5.446,-0.89,0.363,-0.073,-4.112,-6.008,4.754
500.0,-0.95,-0.018,-0.149,2.903,-9.416,-2.105,-0.998,0.15,0.166,2.874,-9.995,5.313,-0.995,-0.043,-0.036,2.03,-7.7,-4.27,-0.886,0.344,-0.066,-9.445,-1.134,1.498
520.0,-0.96,-0.014,-0.162,2.668,-7.619,-1.683,-0.975,0.144,0.17,3.01,-9.24,4.83,-1.002,-0.009,-0.018,-0.021,-6.739,-4.612,-0.906,0.318,-0.065,-10.971,2.111,-1.643
540.0,-0.999,-0.025,-0.153,2.806,-4.863,-1.4,-0.992,0.164,0.182,4.397,-9.047,3.93,-1.0,-0.028,-0.022,0.73,-5.94,-3.58,-0.903,0.308,-0.064,-9.521,3.819,-4.69
560.0,-1.005,-0.031,-0.139,3.623,-3.461,-2.281,-0.991,0.166,0.191,4.11,-7.196,2.214,-0.998,-0.037,-0.013,-0.282,-3.916,-2.77,-0.907,0.307,-0.055,-6.365,5.407,-7.273
580.0,-0.989,-0.021,-0.131,3.967,-3.3,-2.545,-0.976,0.162,0.196,4.336,-4.344,0.849,-0.997,-0.041,-0.022,-0.154,-2.815,-2.215,-0.921,0.317,-0.049,-3.862,6.091,-9.765
600.0,-0.991,-0.011,-0.142,3.71,-2.704,-1.731,-0.979,0.186,0.2,3.01,-1.68,-0.35,-0.999,-0.025,-0.021,0.124,-1.915,-1.404,-0.923,0.321,-0.038,-2.49,6.229,-12.267
620.0,-0.992,-0.01,-0.158,3.593,-2.118,-1.285,-0.978,0.169,0.181,2.03,0.07,-0.84,-0.989,-0.022,-0.019,-0.413,-0.125,-0.512,-0.915,0.323,-0.034,0.168,6.19,-13.551
640.0,-0.977,-0.006,-0.166,3.29,-0.227,-0.914,-0.992,0.157,0.179,1.013,0.076,-1.289,-0.986,-0.029,-0.019,-0.991,1.9,0.389,-0.914,0.325,-0.038,2.855,6.286,-14.302
660.0,-0.963,-0.006,-0.165,3.292,2.353,-0.684,-0.988,0.147,0.179,0.497,1.244,-2.073,-0.992,-0.028,-0.024,-0.996,3.497,1.527,-0.919,0.326,-0.04,6.4,6.143,-14.756
680.0,-0.977,-0.008,-0.146,3.656,4.192,-0.26,-0.991,0.141,0.179,2.002,2.281,-3.008,-0.995,-0.027,-0.032,-1.141,4.873,2.545,-0.929,0.336,-0.032,9.144,5.951,-15.438
700.0,-0.991,-0.02,-0.118,3.916,2.179,0.069,-0.993,0.174,0.172,2.643,3.251,-3.58,-0.997,-0.026,-0.031,-1.636,6.03,3.321,-0.943,0.348,-0.032,10.749,6.198,-16.337
720.0,-1.0,-0.022,-0.117,3.111,-1.495,-0.233,-0.996,0.16,0.173,1.303,3.832,-3.893,-1.001,-0.03,-0.031,-1.49,6.238,3.5,-0.946,0.363,-0.022,10.777,6.33,-17.577
740.0,-0.995,-0.021,-0.137,2.223,-4.059,-1.033,-1.001,0.139,0.169,1.688,3.916,-4.15,-1.009,-0.02,-0.048,-0.079,6.012,3.532,-0.948,0.37,-0.022,9.564,5.852,-18.289
760.0,-0.991,-0.013,-0.14,1.114,-5.117,-1.616,-0.999,0.144,0.163,3.158,3.734,-4.312,-1.017,0.003,-0.062,0.142,5.154,3.183,-0.946,0.374,-0.021,8.463,5.674,-18.297
780.0,-0.997,-0.007,-0.114,1.05,-7.35,-1.68,-0.998,0.152,0.158,3.631,3.841,-4.474,-1.016,0.012,-0.061,-1.464,3.758,1.838,-0.947,0.374,-0.018,7.624,5.083,-17.375
800.0,-1.01,-0.006,-0.123,2.312,-10.135,-1.167,-1.004,0.146,0.16,3.64,3.638,-4.299,-1.008,0.009,-0.057,-1.89,2.912,1.076,-0.953,0.371,-0.02,7.562,4.511,-15.803
820.0,-1.005,-0.005,-0.14,4.004,-10.795,-0.765,-1.004,0.143,0.161,3.186,3.888,-4.111,-1.004,-0.012,-0.056,-0.538,2.73,0.87,-0.953,0.371,-0.018,7.934,3.384,-13.882
840.0,-0.996,-0.011,-0.154,3.485,-12.253,-0.245,-1.003,0.136,0.159,2.958,3.722,-3.984,-1.004,-0.021,-0.059,0.562,2.673,0.718,-0.952,0.374,-0.015,8.118,2.198,-12.03
860.0,-0.986,-0.023,-0.146,2.556,-12.254,-0.142,-1.004,0.128,0.152,3.452,3.194,-3.883,-1.009,-0.016,-0.07,1.76,2.05,0.447,-0.952,0.382,-0.01,7.886,1.407,-9.859
880.0,-0.996,-0.018,-0.096,4.078,-12.89,-0.33,-1.004,0.128,0.144,4.677,2.953,-3.873,-1.009,0.007,-0.065,1.57,1.715,0.418,-0.96,0.381,-0.019,7.572,-0.084,-7.533
900.0,-1.012,-0.016,-0.105,5.11,-15.75,-0.28,-0.999,0.139,0.143,4.628,2.814,-3.891,-1.004,0.012,-0.059,-0.055,1.958,0.658,-0.969,0.377,-0.023,7.976,-2.0,-5.596
920.0,-0.997,-0.019,-0.134,4.55,-15.96,-0.56,-0.999,0.138,0.149,2.27,2.977,-3.582,-1.003,-0.007,-0.061,-0.325,2.41,0.775,-0.966,0.38,-0.024,8.347,-3.273,-3.758
940.0,-1.006,-0.015,-0.155,3.85,-10.92,-0.49,-1.007,0.123,0.146,0.934,3.229,-3.36,-1.003,-0.015,-0.063,0.52,2.829,0.91,-0.971,0.38,-0.024,8.672,-4.211,-2.151
960.0,-1.014,-0.015,-0.127,4.451,-8.647,-0.221,-1.013,0.123,0.145,1.916,3.044,-3.32,-1.001,-0.003,-0.07,0.816,3.25,0.89,-0.968,0.387,-0.019,8.001,-4.917,-0.57
980.0,-1.017,-0.015,-0.109,4.48,-7.899,-0.315,-1.015,0.122,0.139,2.952,2.19,-3.048,-1.002,0.005,-0.073,1.153,3.352,0.9,-0.967,0.394,-0.019,6.669,-5.315,0.837
1000.0,-1.022,-0.016,-0.112,3.079,-7.196,-0.504,-1.011,0.124,0.134,1.89,2.065,-2.449,-1.008,0.007,-0.075,-0.22,3.57,1.164,-0.959,0.392,-0.019,3.286,-6.148,2.298
1020.0,-1.015,-0.014,-0.123,2.686,-5.417,-1.106,-1.012,0.125,0.129,0.753,2.016,-1.851,-0.999,0.004,-0.076,-0.406,3.597,1.079,-0.958,0.381,-0.019,1.329,-6.826,3.891
1040.0,-1.002,-0.009,-0.124,3.13,-4.003,-1.221,-1.013,0.118,0.129,0.84,1.483,-1.563,-0.989,-0.017,-0.074,-0.618,4.061,1.529,-0.957,0.378,-0.023,0.183,-7.601,5.459
1060.0,-0.993,-0.008,-0.111,4.076,-3.648,-1.136,-1.009,0.116,0.136,1.076,0.873,-1.418,-0.999,-0.021,-0.081,-0.126,4.499,1.817,-0.951,0.368,-0.022,-0.536,-8.031,6.729
1080.0,-0.996,-0.013,-0.107,4.328,-3.347,-1.15,-1.018,0.109,0.123,1.47,-0.048,-0.829,-1.002,-0.014,-0.089,1.323,4.62,1.622,-0.949,0.364,-0.026,-0.887,-8.387,7.928
1100.0,-0.999,-0.017,-0.115,4.124,-2.729,-1.312,-1.008,0.113,0.12,1.239,-0.748,-0.077,-0.997,0.011,-0.083,-0.56,4.55,1.26,-0.942,0.36,-0.029,-1.672,-8.579,8.907
1120.0,-0.997,-0.018,-0.116,3.034,-2.13,-1.482,-1.004,0.122,0.122,1.319,-1.623,0.275,-1.001,0.025,-0.085,-0.082,3.68,1.527,-0.935,0.352,-0.035,-2.317,-8.74,9.309
1140.0,-0.99,-0.018,-0.113,2.357,-1.762,-1.699,-1.005,0.121,0.124,1.265,-2.365,0.465,-1.002,0.017,-0.095,0.47,3.969,1.277,-0.935,0.348,-0.04,-2.472,-8.556,9.809
1160.0,-0.997,-0.015,-0.104,2.421,-1.568,-1.653,-1.012,0.104,0.127,1.559,-2.764,0.538,-1.0,0.02,-0.087,-1.067,3.99,1.316,-0.933,0.346,-0.042,-2.664,-8.139,9.997
1180.0,-1.005,-0.013,-0.097,2.641,-1.964,-1.226,-1.007,0.106,0.128,2.896,-3.19,0.439,-1.003,-0.01,-0.105,2.443,3.387,0.637,-0.926,0.344,-0.045,-3.152,-7.357,10.01
1200.0,-1.004,-0.016,-0.098,2.857,-2.207,-0.773,-1.007,0.123,0.121,3.074,-3.667,0.716,-1.01,0.005,-0.106,1.764,2.279,0.384,-0.92,0.343,-0.049,-3.503,-6.687,9.895
1220.0,-0.998,-0.02,-0.101,2.778,-2.291,-0.6,-1.008,0.116,0.126,2.233,-4.303,1.144,-1.007,0.009,-0.109,1.31,1.52,-0.084,-0.917,0.339,-0.053,-3.815,-5.775,9.507
1240.0,-0.991,-0.019,-0.099,2.103,-2.918,-0.527,-1.015,0.115,0.126,2.093,-5.004,1.665,-0.994,0.024,-0.114,0.77,1.196,0.233,-0.924,0.336,-0.058,-3.762,-5.039,8.947
1260.0,-0.986,-0.013,-0.099,1.589,-3.199,-0.298,-1.012,0.118,0.122,1.682,-5.707,2.205,-0.999,0.025,-0.11,0.401,0.191,-0.333,-0.931,0.331,-0.064,-3.408,-4.122,8.236
1280.0,-0.987,-0.012,-0.101,0.804,-2.995,-0.079,-1.009,0.122,0.128,1.925,-6.407,3.069,-1.007,0.012,-0.107,1.004,-1.129,-1.568,-0.935,0.326,-0.065,-2.363,-3.339,7.235
1300.0,-1.0,-0.016,-0.101,0.364,-2.531,-0.171,-1.012,0.113,0.135,0.235,-6.664,3.523,-1.011,0.013,-0.114,2.105,-2.142,-1.929,-0.935,0.327,-0.063,-1.5,-2.468,5.791
1320.0,-1.009,-0.017,-0.097,0.633,-1.941,-0.28,-1.008,0.117,0.134,-0.349,-6.93,3.919,-1.01,0.017,-0.114,1.785,-3.139,-2.306,-0.933,0.332,-0.061,-1.19,-1.308,4.14
1340.0,-1.014,-0.018,-0.091,1.328,-1.47,-0.282,-1.004,0.117,0.139,-0.07,-6.93,3.71,-1.007,0.018,-0.111,1.478,-3.986,-3.051,-0.932,0.332,-0.059,-1.073,0.374,2.617
1360.0,-1.01,-0.017,-0.087,0.887,-1.459,-0.556,-1.009,0.121,0.138,0.537,-7.108,3.766,-1.007,0.017,-0.109,1.75,-4.915,-3.485,-0.931,0.333,-0.055,-1.124,1.561,1.353
1380.0,-1.009,-0.016,-0.085,0.205,-1.182,-0.49,-1.01,0.128,0.139,0.153,-7.315,3.951,-1.01,0.011,-0.104,1.766,-6.086,-3.766,-0.934,0.335,-0.056,-1.203,2.067,0.483
1400.0,-1.007,-0.019,-0.088,0.153,-1.075,-0.49,-1.01,0.126,0.143,-0.4,-7.618,4.324,-1.011,0.008,-0.109,1.963,-6.859,-4.004,-0.935,0.332,-0.057,-0.763,2.7,-0.033
1420.0,-1.006,-0.017,-0.094,-0.201,-0.724,-0.49,-1.009,0.123,0.153,-0.245,-7.368,4.247,-1.005,0.02,-0.1,2.601,-7.759,-4.111,-0.936,0.333,-0.054,0.193,2.812,-0.366
1440.0,-1.002,-0.017,-0.102,-0.174,0.717,-0.49,-1.006,0.117,0.151,-0.595,-6.541,4.086,-1.009,0.017,-0.101,1.68,-8.26,-4.62,-0.934,0.333,-0.049,1.273,3.22,-0.698
1460.0,-0.998,-0.009,-0.109,0.357,1.893,-0.415,-0.999,0.123,0.15,-0.53,-6.141,3.904,-1.005,0.015,-0.097,1.33,-8.68,-4.83,-0.944,0.342,-0.049,1.538,3.258,-1.326
1480.0,-0.995,-0.011,-0.109,-0.23,2.327,-0.171,-0.997,0.131,0.15,-0.331,-6.007,3.646,-0.996,-0.0,-0.095,1.772,-8.47,-4.681,-0.938,0.352,-0.037,1.47,3.85,-2.1
1500.0,-1.002,-0.017,-0.083,-0.853,4.095,-0.14,-0.995,0.138,0.151,-0.623,-5.786,3.276,-0.998,-0.003,-0.091,2.17,-8.54,-4.48,-0.938,0.369,-0.032,0.385,4.058,-3.064
1520.0,-1.015,-0.012,-0.066,-0.38,3.101,-0.025,-0.997,0.143,0.156,-1.329,-5.38,2.882,-1.0,-0.002,-0.078,1.75,-8.19,-4.27,-0.954,0.404,-0.034,-3.172,3.933,-4.648
1540.0,-1.009,-0.013,-0.088,0.619,-0.424,0.29,-1.013,0.136,0.158,-1.47,-5.28,2.917,-1.001,-0.009,-0.083,1.202,-7.972,-4.244,-0.947,0.4,-0.029,-10.327,3.798,-5.518
1560.0,-1.001,-0.018,-0.119,0.619,-0.187,-0.036,-1.017,0.121,0.151,-1.297,-5.669,3.593,-1.002,0.0,-0.079,1.96,-7.42,-3.92,-0.955,0.412,-0.02,-12.235,3.541,-5.176
1580.0,-1.001,-0.018,-0.121,0.885,2.363,-0.264,-1.008,0.125,0.149,-0.815,-6.06,3.961,-0.996,-0.003,-0.076,2.048,-6.236,-3.681,-0.943,0.44,-0.02,-17.056,2.436,-3.762
1600.0,-1.002,-0.014,-0.108,1.719,4.358,-0.22,-1.0,0.131,0.151,-0.727,-6.758,4.173,-0.999,-0.004,-0.074,2.17,-5.53,-3.5,-0.941,0.415,-0.041,-17.508,2.379,0.654
1620.0,-1.005,-0.013,-0.089,1.96,4.482,-0.155,-0.998,0.126,0.156,-0.749,-7.079,4.134,-1.0,0.008,-0.075,2.17,-4.995,-2.963,-0.916,0.413,-0.028,-13.85,1.572,5.625
1640.0,-1.003,-0.016,-0.086,1.56,3.108,-0.349,-0.998,0.118,0.157,-0.385,-7.126,3.99,-1.0,-0.001,-0.076,1.441,-4.467,-2.562,-0.924,0.459,0.001,-12.713,1.706,9.312
1660.0,-0.997,-0.021,-0.099,0.945,1.707,-0.631,-0.999,0.13,0.167,1.218,-6.936,4.023,-0.997,-0.011,-0.069,1.073,-3.401,-1.983,-0.937,0.427,0.048,-14.406,1.01,15.406
1680.0,-0.999,-0.018,-0.105,0.065,0.43,-0.979,-1.007,0.152,0.177,1.099,-6.432,4.045,-0.999,0.0,-0.073,0.49,-2.73,-1.61,-0.98,0.425,0.114,-12.856,-0.995,23.659
1700.0,-1.0,-0.015,-0.107,-0.108,-0.387,-1.288,-0.994,0.147,0.173,-0.253,-5.362,3.457,-1.006,0.002,-0.075,0.342,-2.728,-1.39,-1.066,0.46,0.246,-17.068,-10.503,32.249
1720.0,-0.999,-0.015,-0.107,0.87,-0.81,-1.273,-0.989,0.127,0.171,-0.253,-4.561,2.739,-1.006,0.0,-0.077,0.146,-2.18,-1.196,-1.131,0.504,0.386,-27.388,-27.774,32.185
1740.0,-0.997,-0.015,-0.097,1.975,-1.339,-0.862,-0.99,0.139,0.174,1.241,-3.934,2.036,-1.006,0.004,-0.076,0.206,-1.751,-1.19,-1.196,0.537,0.538,-34.872,-45.548,31.99
1760.0,-0.997,-0.015,-0.093,1.372,-2.573,-0.523,-0.991,0.142,0.187,2.1,-2.689,0.978,-0.998,0.002,-0.078,-0.404,-1.079,-1.256,-1.284,0.606,0.687,-48.474,-66.935,30.29
1780.0,-0.996,-0.017,-0.099,0.604,-4.446,-1.612,-1.001,0.155,0.188,2.051,-0.811,0.199,-1.002,-0.008,-0.076,-0.761,-1.212,-1.142,-1.417,0.599,0.815,-65.635,-92.418,29.464
1800.0,-1.039,-0.012,-0.1,-0.394,-7.247,-2.677,-1.001,0.147,0.172,1.24,-0.088,-0.07,-1.001,-0.009,-0.089,-0.158,-1.866,-1.0,-1.585,0.461,0.968,-64.762,-124.689,38.395
1820.0,-1.05,-0.013,-0.099,-3.143,-10.982,-2.97,-0.993,0.137,0.171,1.053,0.309,-0.074,-1.005,-0.001,-0.088,-0.07,-2.759,-1.055,-1.665,0.529,1.107,-44.789,-142.289,59.85
1840.0,-1.015,-0.0,-0.131,-4.854,-12.052,-3.235,-0.989,0.135,0.167,1.459,0.979,-0.559,-1.005,0.008,-0.088,-0.434,-3.258,-1.261,-1.805,0.638,1.085,-43.418,-164.998,66.496
1860.0,-1.013,0.026,-0.144,-5.15,-12.217,-3.469,-0.998,0.144,0.166,0.24,0.91,-0.287,-1.007,0.008,-0.084,-0.459,-3.937,-1.63,-1.917,0.757,1.039,-69.957,-221.289,66.15
1880.0,-1.047,0.046,-0.133,-5.26,-13.306,-1.797,-1.007,0.148,0.169,-0.061,0.903,-0.07,-1.006,0.006,-0.081,-0.282,-4.106,-2.063,-1.985,0.821,1.085,-86.256,-262.263,67.091
1900.0,-1.059,0.034,-0.093,-2.97,-15.095,0.073,-1.013,0.152,0.159,-2.1,0.7,-0.07,-0.999,-0.001,-0.08,-0.024,-3.82,-2.17,-2.071,0.776,1.079,-106.482,-294.711,66.021
1920.0,-1.043,0.017,-0.076,-0.848,-16.652,1.582,-1.014,0.122,0.15,-1.33,-0.63,0.63,-1.001,-0.004,-0.076,0.348,-3.541,-2.222,-2.066,0.776,1.023,-123.555,-324.089,69.397
1940.0,-1.038,-0.012,-0.056,-0.98,-18.2,1.89,-1.012,0.128,0.15,-1.02,-1.536,1.149,-0.999,-0.015,-0.075,0.362,-3.411,-2.198,-2.048,0.804,0.931,-129.529,-353.024,70.082
1960.0,-1.014,-0.051,-0.045,-3.08,-20.93,0.84,-1.005,0.141,0.157,-0.77,-2.03,1.33,-0.997,-0.009,-0.075,0.823,-2.61,-1.928,-1.918,0.786,0.801,-115.452,-384.357,78.183
1980.0,-0.992,-0.033,-0.048,-4.118,-21.231,-0.398,-0.998,0.14,0.158,-1.467,-2.201,0.947,-1.003,-0.002,-0.075,0.439,-1.981,-1.931,-1.695,0.889,0.785,-94.03,-406.599,98.815
2000.0,-0.966,-0.021,-0.051,-3.64,-20.23,-0.56,-0.991,0.12,0.161,-1.145,-2.59,0.655,-1.014,0.008,-0.079,0.175,-1.796,-2.095,-1.386,1.031,0.899,-68.017,-404.038,120.992
2020.0,-0.961,-0.007,-0.028,-2.398,-20.369,0.135,-0.997,0.135,0.162,0.412,-2.59,0.362,-1.009,0.01,-0.079,0.069,-1.494,-2.428,-1.131,1.222,0.829,-79.012,-388.579,128.005
2040.0,-0.973,-0.016,-0.048,0.496,-17.894,0.01,-1.002,0.14,0.166,0.079,-2.395,0.143,-1.004,0.005,-0.079,-0.439,-1.185,-2.52,-1.043,1.39,0.609,-152.792,-400.323,121.1
2060.0,-1.013,-0.02,-0.044,2.73,-12.367,-0.276,-1.005,0.121,0.161,0.404,-2.292,0.372,-1.004,-0.003,-0.081,-0.241,-1.12,-2.398,-0.833,1.128,0.577,-211.979,-387.895,94.736
2080.0,-1.054,-0.028,0.007,2.736,-8.821,0.607,-1.004,0.139,0.163,1.3,-1.966,0.557,-1.003,-0.007,-0.081,0.334,-1.078,-2.395,-0.714,1.026,0.583,-228.685,-372.701,80.218
2100.0,-1.072,-0.028,0.044,3.936,-9.043,1.636,-1.005,0.139,0.162,2.226,-2.31,0.49,-1.009,-0.006,-0.086,0.71,-1.268,-2.419,-1.016,1.214,0.371,-264.735,-408.686,67.672
2120.0,-1.061,-0.005,0.022,3.225,-10.121,3.199,-1.0,0.128,0.159,1.896,-2.31,0.49,-1.017,0.003,-0.093,0.973,-2.21,-2.486,-0.874,1.028,0.176,-266.905,-398.419,54.793
2140.0,-1.036,0.006,-0.01,0.115,-6.304,3.766,-1.007,0.124,0.156,2.584,-2.634,0.818,-1.016,0.015,-0.093,0.866,-3.619,-3.27,-0.631,0.784,0.107,-198.072,-394.231,60.648
2160.0,-1.039,-0.001,0.053,-1.833,2.613,3.451,-1.009,0.137,0.152,2.044,-3.492,1.351,-1.007,0.006,-0.092,0.494,-4.922,-4.0,-0.456,0.553,0.139,-115.315,-365.348,71.26
2180.0,-1.061,0.024,0.114,-0.369,-0.482,3.508,-1.007,0.126,0.157,2.778,-4.131,1.776,-1.006,-0.007,-0.098,1.705,-6.519,-4.185,-0.581,0.946,-0.079,-97.02,-344.75,67.69
2200.0,-1.04,0.05,0.084,0.456,-0.942,5.96,-1.006,0.143,0.152,2.664,-4.929,2.261,-1.002,-0.001,-0.094,2.637,-7.412,-3.886,-0.504,0.806,-0.265,-137.358,-332.004,70.052
2220.0,-1.016,0.014,0.07,0.342,3.562,8.06,-1.023,0.118,0.145,2.917,-6.805,2.758,-1.002,-0.018,-0.083,2.992,-7.46,-3.706,-0.112,0.031,-0.574,-131.317,-302.461,76.656
2240.0,-1.052,-0.023,0.119,-0.643,5.52,7.14,-1.006,0.138,0.159,3.078,-7.6,3.134,-1.0,-0.121,-0.087,3.167,-8.325,-3.354,0.079,-0.395,-0.663,-91.128,-270.45,84.569
2260.0,-1.098,0.032,0.11,-1.855,-7.294,6.13,-0.996,0.148,0.159,2.439,-7.765,3.215,-0.993,-0.022,-0.075,3.907,-7.688,-3.278,0.194,-0.429,-0.777,-41.763,-199.781,87.04
2280.0,-1.066,0.059,0.022,-1.874,-11.26,6.827,-0.994,0.175,0.167,-0.621,-7.839,3.426,-1.009,-0.013,-0.069,4.227,-7.603,-3.15,0.317,-0.419,-0.875,-47.652,-142.841,82.718
2300.0,-1.036,0.1,-0.043,-1.161,-13.895,11.655,-0.973,0.145,0.178,-3.069,-6.22,2.828,-1.01,-0.006,-0.066,3.575,-7.079,-3.15,0.462,-0.427,-0.932,-75.425,-99.597,72.358
2320.0,-1.016,0.07,-0.117,1.32,-15.369,13.867,-0.985,0.127,0.181,-2.534,-5.475,2.422,-1.004,-0.011,-0.062,3.532,-5.886,-3.147,0.615,-0.512,-0.893,-98.587,-51.267,57.535
2340.0,-0.977,-0.033,-0.171,1.619,-14.186,12.954,-1.002,0.149,0.182,-2.699,-4.292,1.917,-1.0,-0.0,-0.065,1.713,-5.299,-3.043,0.634,-0.57,-0.759,-94.473,-13.817,45.844
2360.0,-0.903,-0.071,-0.178,-3.232,-5.328,5.538,-1.007,0.145,0.174,-3.277,-3.631,1.768,-0.988,0.006,-0.053,0.071,-4.126,-2.554,0.622,-0.488,-0.574,-77.882,25.007,39.241
2380.0,-0.88,-0.007,-0.12,-6.202,0.312,-4.309,-0.993,0.136,0.173,-0.945,-3.0,1.445,-0.973,-0.032,-0.054,0.204,-2.081,-1.073,0.615,-0.423,-0.399,-58.155,49.403,40.036
2400.0,-0.914,0.08,-0.063,-9.335,0.344,-10.008,-0.984,0.146,0.176,0.146,-2.494,0.841,-0.985,-0.019,-0.057,-0.621,-0.715,0.431,0.637,-0.364,-0.252,-48.905,49.552,49.443
2420.0,-0.949,0.114,-0.035,-14.279,-3.425,-11.027,-0.976,0.145,0.183,-1.586,-0.851,-0.371,-0.983,-0.006,-0.056,-2.74,1.263,1.658,0.714,-0.433,-0.148,-6.326,40.496,51.002
2440.0,-0.957,0.104,-0.005,-18.021,-8.827,-9.815,-0.985,0.143,0.193,-1.684,0.962,-1.496,-0.989,-0.017,-0.052,-5.027,2.844,2.022,0.765,-0.496,0.009,16.064,31.752,64.89
2460.0,-0.966,0.04,-0.009,-18.538,-14.688,-8.936,-0.988,0.147,0.185,-2.573,2.901,-2.22,-1.003,-0.016,-0.061,-4.921,3.706,1.752,0.908,-0.538,0.067,40.479,14.513,51.757
2480.0,-0.976,0.03,-0.02,-14.883,-15.501,-4.081,-0.978,0.15,0.18,-3.218,4.605,-3.61,-1.029,0.003,-0.089,-2.168,2.858,1.886,0.94,-0.542,0.069,42.328,8.612,27.577
2500.0,-1.014,-0.035,-0.038,-10.543,-13.315,1.481,-0.985,0.15,0.172,-4.202,5.498,-4.622,-1.028,0.021,-0.089,-3.518,0.959,0.541,0.933,-0.526,0.125,35.577,3.703,9.294
2520.0,-1.036,-0.064,-0.06,-5.654,-9.107,3.849,-1.0,0.146,0.169,-4.782,6.332,-5.009,-1.02,0.009,-0.091,-2.785,-0.915,-0.609,0.952,-0.537,0.145,27.328,-3.793,-1.86
2540.0,-1.036,-0.081,-0.003,-2.412,-4.302,3.736,-1.017,0.118,0.165,-3.548,6.111,-5.04,-1.01,-0.002,-0.09,-1.62,-1.94,-1.053,1.031,-0.574,0.134,30.135,-13.162,-8.228
2560.0,-1.076,-0.03,0.056,0.679,-3.857,1.762,-1.001,0.111,0.159,-1.799,6.999,-4.638,-1.008,-0.005,-0.08,-0.262,-2.69,-1.394,1.029,-0.518,0.182,35.408,-18.539,-11.17
2580.0,-1.098,-0.002,0.048,3.942,-7.623,-0.331,-0.997,0.113,0.159,0.501,6.219,-3.729,-1.005,-0.007,-0.088,0.923,-4.038,-1.92,0.983,-0.384,0.239,27.288,-18.687,-11.316
2600.0,-1.062,0.028,0.038,3.99,-6.952,-1.571,-1.004,0.117,0.149,0.883,5.675,-3.173,-1.007,-0.006,-0.088,1.641,-5.074,-1.985,1.032,-0.42,0.234,9.705,-11.862,-8.116
2620.0,-1.015,0.046,0.043,1.951,-7.577,-2.629,-1.007,0.121,0.144,1.033,5.386,-2.967,-1.002,0.002,-0.081,1.569,-5.297,-2.245,0.968,-0.499,0.129,5.159,-6.985,-5.009
2640.0,-1.002,0.061,0.016,-0.797,-9.075,-2.993,-1.017,0.118,0.138,1.96,4.353,-2.94,-0.998,0.001,-0.075,1.518,-5.374,-2.537,0.925,-0.565,0.041,5.018,-7.68,-3.456
2660.0,-0.991,0.1,0.01,-2.428,-4.634,-1.702,-1.018,0.118,0.136,2.62,3.313,-2.676,-1.002,0.003,-0.068,1.203,-4.966,-2.858,0.954,-0.595,0.074,10.067,-1.698,-4.605
2680.0,-1.013,0.077,0.032,-1.68,-2.87,1.036,-1.011,0.115,0.136,2.408,2.323,-2.036,-1.005,-0.001,-0.068,0.75,-4.425,-2.861,0.892,-0.457,0.142,25.41,8.89,-8.54
2700.0,-1.01,-0.004,0.027,-1.68,-2.439,2.618,-1.007,0.11,0.136,2.16,1.348,-1.544,-1.001,-0.003,-0.066,0.252,-3.799,-2.442,0.848,-0.336,0.248,22.156,9.929,-6.252
2720.0,-1.026,-0.039,0.044,-1.107,-2.032,2.144,-1.006,0.118,0.137,-6.233,1.239,-1.062,-0.994,-0.001,-0.065,-0.436,-2.833,-1.718,0.846,-0.368,0.252,21.9,7.449,1.203
2740.0,-1.024,-0.003,0.056,1.732,-3.873,0.721,-1.006,0.128,0.14,-8.187,1.4,-0.867,-0.994,-0.005,-0.064,-1.368,-1.57,-1.015,0.846,-0.391,0.224,23.233,3.192,9.974
2760.0,-0.993,0.027,0.028,3.133,-5.232,-0.281,-1.005,0.127,0.134,-2.465,1.507,-1.132,-1.0,-0.011,-0.064,-1.731,-0.574,-0.305,0.838,-0.408,0.184,21.85,-3.358,12.034
2780.0,-0.965,0.013,0.009,-2.606,-4.363,-0.801,-0.992,0.12,0.133,-2.594,1.107,-1.137,-1.0,-0.009,-0.069,-1.553,-0.014,0.361,0.871,-0.444,0.149,22.655,-4.824,10.007
2800.0,-0.958,0.018,0.017,-6.37,-0.91,-1.12,-0.997,0.11,0.131,-2.392,0.738,-0.894,-0.996,-0.004,-0.077,-1.574,0.834,0.855,0.927,-0.506,0.118,24.011,-3.191,6.519
2820.0,-1.002,0.059,0.026,-5.11,-1.33,-0.91,-1.01,0.1,0.13,-2.129,0.328,-0.658,-0.998,0.001,-0.08,-1.485,1.073,0.976,0.945,-0.518,0.096,28.469,1.442,4.602
2840.0,-1.017,0.049,0.021,-2.751,-2.253,1.209,-1.0,0.098,0.133,-1.346,0.223,-0.448,-1.01,0.007,-0.079,-1.476,0.49,0.567,0.968,-0.485,0.028,25.809,6.616,1.448
2860.0,-0.998,0.001,0.017,-1.761,-1.593,1.523,-1.0,0.107,0.137,-0.886,0.54,-0.479,-1.004,0.006,-0.084,-1.241,0.281,0.317,0.981,-0.479,-0.085,30.915,13.288,-0.982
2880.0,-0.989,-0.015,0.006,-1.557,1.124,0.819,-1.012,0.118,0.136,-1.068,0.556,-0.494,-1.003,0.002,-0.084,-1.625,-0.12,-0.203,0.996,-0.461,-0.224,45.764,21.458,-1.101
2900.0,-1.002,-0.002,0.005,-1.171,4.072,-0.165,-1.017,0.112,0.13,-0.741,0.101,0.054,-1.006,-0.014,-0.081,-0.584,-0.331,-0.15,0.999,-0.394,-0.376,60.11,34.514,-0.535
2920.0,-1.03,0.017,0.007,-1.05,4.348,-0.551,-1.014,0.097,0.129,0.291,-0.454,0.51,-1.008,0.002,-0.086,0.627,-0.65,-0.364,0.988,-0.336,-0.372,77.7,65.17,2.66
2940.0,-1.034,0.024,0.003,-0.666,3.674,-0.782,-1.009,0.096,0.126,1.094,-0.508,0.842,-1.003,0.018,-0.085,0.084,-1.168,-0.768,0.922,-0.209,-0.402,77.637,95.722,5.028
2960.0,-1.02,0.021,-0.007,0.034,4.239,-1.012,-1.002,0.101,0.125,1.748,-0.573,0.729,-1.004,0.002,-0.087,-0.07,-1.54,-0.7,0.803,-0.164,-0.391,73.12,144.558,9.176
2980.0,-0.997,0.005,-0.013,0.767,6.594,-1.382,-0.998,0.111,0.128,2.751,-0.622,0.379,-1.011,0.006,-0.084,-0.148,-1.913,-0.996,0.638,-0.158,-0.436,75.04,169.82,12.88
3000.0,-0.992,0.003,-0.02,2.956,6.809,-2.132,-1.004,0.118,0.129,3.755,-0.653,0.313,-1.006,0.009,-0.082,-0.405,-2.425,-1.277,0.439,-0.18,-0.478,85.742,200.43,20.208
3020.0,-0.996,0.029,-0.033,6.533,5.325,-2.384,-1.017,0.105,0.126,3.758,-1.491,0.495,-1.001,0.001,-0.085,-0.109,-2.618,-1.327,0.297,-0.152,-0.423,104.86,224.089,20.773
3040.0,-0.981,0.037,-0.027,10.104,10.211,-0.87,-1.012,0.103,0.124,4.09,-1.61,0.76,-1.004,0.008,-0.086,-0.005,-2.725,-1.263,0.083,-0.057,-0.304,145.569,261.627,17.217
3060.0,-1.001,0.009,-0.003,11.04,13.001,-0.155,-1.005,0.103,0.125,4.181,-1.544,0.94,-1.005,0.006,-0.085,0.067,-2.8,-1.191,-0.061,0.109,-0.342,157.733,289.967,7.166
3080.0,-1.03,0.002,-0.042,8.429,14.146,-0.55,-1.005,0.102,0.13,3.998,-1.4,1.019,-1.002,0.012,-0.089,-0.533,-2.687,-1.458,-0.141,0.125,-0.393,160.888,320.136,-2.025
3100.0,-1.051,0.025,-0.024,6.806,13.905,-1.736,-1.006,0.134,0.127,4.06,-1.41,1.268,-0.998,0.0,-0.083,-0.389,-2.321,-1.387,-0.328,0.092,-0.422,179.369,313.508,-13.238
3120.0,-1.03,0.038,0.001,8.313,5.614,-2.485,-1.021,0.101,0.117,4.059,-2.799,1.417,-0.992,-0.003,-0.081,0.223,-1.362,-1.214,-0.43,0.223,-0.225,219.1,315.91,-23.31
3140.0,-0.983,0.033,0.002,9.108,4.185,-2.014,-1.007,0.1,0.117,4.053,-2.675,2.085,-0.994,0.003,-0.081,1.562,-0.912,-1.066,-0.518,0.399,-0.215,224.728,327.282,-40.611
3160.0,-0.98,0.019,0.029,12.586,6.143,-1.107,-1.005,0.096,0.122,5.453,-3.008,1.752,-0.989,-0.004,-0.085,2.54,-0.184,-0.982,-0.611,0.63,-0.152,203.363,339.077,-60.249
3180.0,-1.0,0.005,0.032,14.597,6.625,-1.022,-0.996,0.136,0.122,4.14,-2.544,1.958,-1.001,0.006,-0.086,3.385,-0.093,-1.202,-0.846,0.854,0.078,201.074,362.5,-70.465
3200.0,-0.983,-0.008,0.031,13.923,9.893,-2.173,-0.996,0.119,0.125,2.391,-2.131,1.498,-1.005,0.008,-0.087,2.939,0.097,-1.1,-1.059,0.651,0.294,234.78,400.05,-66.64
3220.0,-0.968,-0.009,0.081,10.122,14.695,-3.923,-0.996,0.136,0.135,0.935,-0.785,0.843,-1.013,0.012,-0.094,1.956,-0.723,-1.05,-1.487,0.528,0.297,247.675,385.793,-58.881
3240.0,-0.966,-0.001,0.084,9.033,19.67,-5.264,-1.016,0.123,0.137,-2.014,1.407,0.974,-1.005,0.009,-0.092,0.115,-1.27,-0.749,-1.635,0.574,0.091,247.49,361.093,-77.877
3260.0,-1.009,0.006,0.079,8.422,19.426,-7.033,-1.015,0.108,0.133,-1.633,2.251,1.084,-0.998,-0.006,-0.092,0.418,-1.139,-0.169,-1.792,0.631,0.16,258.484,351.339,-88.194
3280.0,-1.031,0.036,0.038,6.51,16.38,-8.89,-1.018,0.115,0.125,-0.227,3.345,1.418,-0.999,0.002,-0.086,2.311,-0.584,-0.264,-2.299,0.975,0.467,250.542,326.306,-98.361
3300.0,-0.973,0.073,-0.074,-0.977,25.401,-9.677,-1.019,0.092,0.129,0.687,4.103,1.443,-0.999,0.015,-0.076,3.124,0.426,-0.437,-2.501,1.141,0.847,195.967,304.921,-111.003
3320.0,-0.967,0.127,-0.084,-6.797,35.511,-11.159,-1.008,0.126,0.169,0.84,5.08,0.871,-0.991,-0.003,-0.074,2.94,2.37,0.118,-2.521,0.96,0.789,162.369,293.775,-123.287
3340.0,-0.961,0.162,-0.059,-7.672,43.858,-7.912,-0.995,0.125,0.103,-1.193,5.528,0.09,-0.977,-0.019,-0.07,2.1,5.153,1.667,-2.416,0.917,0.619,131.761,283.534,-140.819
3360.0,-1.005,0.117,-0.039,-9.131,49.405,0.383,-1.0,0.135,0.109,-4.69,4.76,-0.14,-0.982,-0.006,-0.049,0.822,9.752,2.016,-2.327,0.84,0.489,71.738,265.548,-151.63
3380.0,-1.038,0.039,-0.056,-11.418,46.518,6.859,-1.038,0.118,0.075,-4.892,1.038,0.853,-1.019,-0.003,-0.052,0.095,11.686,3.099,-2.266,0.69,0.52,5.295,258.995,-151.118
3400.0,-1.048,-0.066,-0.071,-7.175,43.927,7.882,-1.02,0.076,0.068,-1.991,-2.062,2.258,-1.036,0.012,-0.099,0.503,11.485,4.113,-2.245,0.518,0.569,-33.239,255.558,-142.184
3420.0,-1.093,-0.096,-0.088,-0.239,35.629,5.649,-1.021,0.097,0.075,-0.992,-7.107,3.918,-1.032,0.063,-0.141,2.61,11.612,0.104,-2.137,0.341,0.539,-47.06,246.91,-122.487
3440.0,-1.057,-0.126,-0.143,5.53,29.54,-0.28,-1.02,0.114,0.08,-3.433,-9.904,5.721,-1.011,0.044,-0.181,2.597,7.417,-1.166,-1.956,0.216,0.397,-45.903,227.665,-97.532
3460.0,-1.055,-0.043,-0.156,6.531,27.95,-8.309,-1.025,0.106,0.085,-6.75,-11.602,7.531,-1.018,0.05,-0.195,-4.489,0.899,-2.795,-1.803,0.121,0.26,-35.708,199.522,-71.057
3480.0,-1.064,0.125,-0.19,-3.296,15.895,-8.587,-1.019,0.092,0.09,-7.462,-13.656,8.808,-1.014,0.014,-0.188,-1.195,-4.748,-3.949,-1.708,0.036,0.236,-13.992,165.917,-40.861
3500.0,-1.053,0.132,-0.227,-11.045,7.629,-5.843,-1.009,0.104,0.104,-6.544,-16.018,9.023,-1.018,0.016,-0.163,1.417,-12.158,-4.839,-1.608,0.008,0.274,27.453,135.072,-10.132
3520.0,-1.024,0.083,-0.21,-13.179,6.759,-4.108,-1.012,0.118,0.137,-4.141,-17.574,8.576,-1.021,0.004,-0.142,4.393,-16.285,-5.796,-1.513,0.012,0.349,88.42,110.038,14.992
3540.0,-0.995,-0.013,-0.189,-11.46,5.604,-4.394,-1.033,0.153,0.137,-3.97,-18.231,8.368,-1.01,0.023,-0.112,5.654,-17.555,-5.933,-1.415,0.099,0.356,134.397,90.786,31.462
3560.0,-0.992,-0.037,-0.172,-8.667,1.846,-5.28,-1.037,0.146,0.132,-4.029,-18.877,8.613,-0.995,0.014,-0.089,5.04,-16.03,-6.23,-1.326,0.275,0.361,151.206,72.643,37.238
3580.0,-1.01,-0.034,-0.188,-4.633,-5.103,-5.0,-1.021,0.109,0.147,-3.058,-19.073,9.139,-0.991,0.013,-0.086,4.368,-14.118,-5.716,-1.252,0.442,0.376,147.451,51.423,34.228
3600.0,-1.032,-0.018,-0.205,-2.976,-11.628,-3.88,-1.003,0.113,0.168,-3.087,-18.278,9.912,-0.988,-0.016,-0.079,3.43,-12.32,-5.25,-1.158,0.549,0.377,122.7,31.337,24.385
3620.0,-1.022,-0.01,-0.212,-3.185,-14.803,-2.186,-0.989,0.149,0.174,-5.179,-15.622,9.77,-0.988,-0.029,-0.073,4.431,-9.943,-4.121,-1.086,0.588,0.36,92.532,4.902,14.065
3640.0,-0.973,-0.033,-0.203,-3.438,-14.135,-1.272,-0.979,0.155,0.178,-6.76,-13.084,8.494,-0.979,-0.007,-0.065,3.513,-6.505,-2.608,-1.052,0.593,0.311,69.638,-17.644,5.603
3660.0,-0.965,-0.042,-0.172,-0.911,-11.144,-2.034,-0.984,0.136,0.181,-6.594,-11.328,7.166,-0.984,-0.018,-0.064,1.978,-3.297,-1.251,-1.019,0.566,0.251,49.392,-23.733,2.88
3680.0,-0.957,-0.034,-0.171,3.589,-8.582,-2.62,-0.977,0.134,0.178,-4.784,-9.471,5.875,-0.983,-0.013,-0.074,1.324,-0.743,0.191,-0.995,0.527,0.19,36.422,-42.103,2.78
3700.0,-0.944,-0.02,-0.183,7.695,-7.007,-2.894,-0.97,0.144,0.182,-3.429,-8.273,4.304,-0.982,0.001,-0.076,0.544,1.953,1.261,-1.006,0.499,0.13,26.134,-53.106,7.592
3720.0,-0.935,0.004,-0.196,8.738,-5.744,-3.676,-0.983,0.15,0.183,-2.235,-7.098,3.267,-0.988,-0.002,-0.072,-0.066,4.729,1.983,-0.995,0.464,0.091,24.24,-65.07,14.91
3740.0,-0.941,0.035,-0.21,6.522,-3.071,-4.226,-0.992,0.153,0.183,-2.053,-5.275,2.496,-0.986,-0.001,-0.075,0.074,7.355,2.451,-0.968,0.438,0.057,23.529,-72.284,24.768
3760.0,-0.977,0.034,-0.215,4.721,0.998,-3.647,-0.984,0.137,0.188,-1.775,-3.471,1.828,-0.989,0.004,-0.07,-1.342,10.256,2.582,-0.964,0.445,0.062,20.068,-74.3,31.88
3780.0,-0.987,0.006,-0.215,5.32,4.082,-2.198,-0.975,0.142,0.201,-0.927,-0.422,0.846,-1.0,0.001,-0.104,-1.095,10.367,2.101,-0.987,0.465,0.074,9.066,-74.539,37.466
3800.0,-0.988,-0.01,-0.209,7.039,7.261,-1.053,-0.975,0.145,0.208,0.574,2.984,-0.54,-1.01,0.008,-0.115,1.392,8.908,1.714,-1.022,0.485,0.083,-7.076,-74.511,39.59
3820.0,-0.982,-0.014,-0.196,7.647,9.543,-0.904,-0.965,0.15,0.219,3.427,6.737,-3.643,-1.011,0.034,-0.123,1.829,7.353,0.824,-1.065,0.501,0.091,-30.197,-75.178,40.547
3840.0,-0.967,-0.013,-0.185,7.355,9.969,-1.1,-0.983,0.188,0.179,3.92,10.57,-5.46,-1.011,0.013,-0.132,0.72,6.479,0.984,-1.107,0.501,0.168,-54.652,-77.676,45.56
3860.0,-0.957,-0.01,-0.178,6.857,9.589,-0.876,-0.993,0.121,0.189,2.109,13.37,-6.037,-1.011,0.019,-0.14,1.662,4.913,0.263,-1.231,0.511,0.241,-73.152,-79.117,56.36
3880.0,-0.95,0.001,-0.154,5.315,7.116,-0.223,-1.024,0.096,0.168,4.891,13.171,-6.29,-1.019,0.047,-0.151,1.531,2.133,-1.689,-1.358,0.545,0.26,-81.985,-87.635,70.656
3900.0,-0.963,0.0,-0.169,3.118,4.404,-0.074,-1.028,0.099,0.126,10.514,10.102,-5.415,-1.021,0.045,-0.163,-0.591,-1.256,-3.762,-1.607,0.576,0.361,-84.22,-100.524,89.852
3920.0,-0.994,0.031,-0.207,2.439,4.968,0.17,-1.029,0.161,0.108,4.83,7.77,-3.43,-1.009,0.024,-0.163,-1.587,-4.535,-4.76,-1.755,0.641,0.445,-73.403,-115.817,111.5
3940.0,-1.104,0.051,-0.158,2.354,4.602,0.508,-1.053,0.142,0.086,-3.166,2.277,-0.349,-1.008,0.015,-0.141,-1.767,-7.871,-4.683,-2.001,0.742,0.571,-72.533,-131.155,137.071
3960.0,-1.198,0.03,-0.118,1.55,-4.607,0.668,-1.04,0.122,0.093,-3.303,-3.453,3.091,-1.015,-0.002,-0.134,-0.429,-10.276,-4.276,-2.163,0.848,0.727,-94.044,-168.088,154.185
3980.0,-1.151,0.008,-0.114,0.944,-22.835,1.313,-1.032,0.135,0.106,-3.384,-8.123,5.291,-1.008,0.01,-0.121,-0.166,-11.203,-4.309,-2.197,0.834,0.936,-113.246,-195.199,170.107
4000.0,-1.069,0.009,-0.15,-1.423,-30.802,0.216,-1.023,0.136,0.128,-4.374,-11.171,6.093,-0.997,0.026,-0.11,-0.765,-11.304,-4.613,-2.375,0.913,0.926,-129.252,-226.43,180.652
4020.0,-1.019,0.014,-0.199,-5.105,-34.56,-1.271,-1.005,0.128,0.148,-3.578,-11.796,6.4,-0.996,-0.001,-0.11,-0.039,-10.936,-4.45,-2.393,1.013,0.747,-152.265,-272.198,179.54
4040.0,-0.985,-0.003,-0.224,-5.459,-33.061,-1.818,-0.996,0.126,0.164,-1.918,-11.655,6.253,-0.983,-0.019,-0.095,1.265,-10.132,-3.606,-2.35,1.075,0.706,-180.818,-309.482,162.425
4060.0,-0.962,-0.055,-0.169,-4.441,-30.547,-0.046,-0.983,0.138,0.176,-0.455,-10.508,5.501,-0.981,-0.016,-0.091,3.728,-7.136,-2.311,-2.142,0.959,0.625,-225.905,-355.002,133.272
4080.0,-0.955,-0.087,-0.101,-1.183,-29.362,-0.218,-0.977,0.143,0.178,0.355,-8.37,4.055,-0.997,-0.002,-0.094,2.511,-5.896,-1.632,-2.059,0.736,0.589,-234.505,-376.127,104.119
4100.0,-0.968,-0.084,-0.062,3.736,-32.204,-1.166,-0.981,0.135,0.179,1.426,-6.137,2.572,-1.008,0.0,-0.107,2.055,-5.775,-1.427,-1.878,0.645,0.518,-215.58,-381.508,87.377
4120.0,-0.976,-0.046,-0.081,5.052,-32.619,-0.917,-0.989,0.146,0.183,3.181,-3.804,1.831,-1.019,0.021,-0.114,1.876,-6.708,-1.745,-1.722,0.704,0.403,-199.493,-386.455,76.175
4140.0,-1.004,-0.014,-0.068,6.348,-30.723,-0.841,-0.998,0.161,0.179,3.51,-2.653,1.699,-1.014,0.02,-0.109,0.691,-7.583,-2.336,-1.554,0.722,0.292,-191.153,-387.843,68.626
4160.0,-1.025,0.016,-0.043,6.249,-26.855,-0.84,-1.013,0.127,0.16,3.103,-2.626,1.887,-1.011,0.009,-0.108,0.21,-8.4,-2.73,-1.347,0.666,0.31,-175.771,-380.024,64.271
4180.0,-1.042,0.041,0.007,6.032,-26.483,0.138,-1.01,0.124,0.152,5.041,-3.349,2.496,-1.009,0.007,-0.107,1.68,-9.66,-2.94,-1.259,0.868,0.335,-184.43,-366.744,53.73
4200.0,-1.03,0.048,0.048,4.266,-27.459,1.861,-1.002,0.152,0.153,4.841,-3.85,2.61,-1.001,0.017,-0.098,0.789,-9.937,-3.246,-1.137,0.786,0.254,-213.11,-370.855,44.882
4220.0,-1.017,0.045,0.062,1.571,-26.975,3.384,-1.001,0.156,0.163,2.794,-3.732,2.08,-1.001,0.01,-0.091,-0.635,-9.752,-3.475,-1.022,0.646,0.101,-208.853,-384.861,46.271
4240.0,-0.987,0.036,0.047,-0.297,-22.78,4.738,-1.002,0.143,0.167,1.966,-3.233,1.84,-1.002,0.007,-0.088,-1.328,-9.52,-3.637,-0.825,0.463,0.033,-190.151,-392.6,51.167
4260.0,-0.983,0.028,0.064,-1.019,-13.423,4.712,-1.001,0.149,0.167,1.835,-3.022,1.851,-1.003,-0.019,-0.09,-0.827,-9.587,-3.037,-0.481,0.246,0.014,-152.637,-373.872,52.15
4280.0,-1.011,0.028,0.104,-1.8,-12.53,3.312,-1.004,0.162,0.166,1.252,-2.938,1.77,-1.008,-0.002,-0.089,-0.596,-9.393,-3.339,-0.096,0.167,0.017,-120.918,-367.074,53.54
4300.0,-1.01,0.033,0.083,-2.779,-12.985,1.699,-1.001,0.129,0.158,1.172,-3.181,1.696,-1.006,0.013,-0.085,-0.226,-9.709,-2.505,-0.028,0.118,-0.013,-113.353,-314.523,55.76
4320.0,-0.998,0.049,0.015,-6.048,-11.775,1.057,-0.988,0.115,0.163,4.016,-2.864,1.26,-0.998,-0.01,-0.079,-1.05,-9.38,-2.73,0.097,0.199,-0.097,-110.841,-233.73,50.925
4340.0,-1.007,0.043,-0.009,-11.445,-9.034,-0.187,-0.993,0.157,0.164,2.901,-3.357,1.245,-0.997,0.017,-0.077,-3.159,-8.193,-2.368,0.165,0.255,-0.227,-119.999,-186.842,37.952
4360.0,-1.003,0.043,-0.003,-13.217,-4.983,-0.35,-0.996,0.162,0.16,0.776,-3.28,1.038,-0.993,0.013,-0.074,-2.286,-7.85,-0.776,0.31,0.211,-0.422,-156.072,-135.424,26.503
4380.0,-0.981,0.031,-0.018,-13.3,0.356,0.072,-0.983,0.149,0.171,1.609,-2.097,0.765,-0.985,-0.033,-0.049,-2.685,-5.697,-1.32,0.522,0.086,-0.586,-192.291,-103.265,25.589
4400.0,-0.988,0.016,-0.052,-12.15,4.766,1.021,-0.996,0.163,0.174,1.242,-0.295,0.678,-0.986,-0.03,-0.052,-3.063,-3.116,0.422,0.65,-0.148,-0.597,-191.873,-80.55,32.19
4420.0,-1.008,0.005,-0.04,-5.99,9.346,2.897,-0.979,0.182,0.183,-1.094,0.786,-0.104,-0.989,-0.001,-0.051,-1.593,-1.056,1.29,0.69,-0.367,-0.504,-153.939,-56.011,42.749
4440.0,-1.002,-0.006,0.003,-2.071,11.312,5.393,-0.983,0.172,0.179,-2.622,2.997,-1.562,-0.989,0.001,-0.061,-1.917,1.421,1.558,0.688,-0.347,-0.298,-100.622,-42.114,49.095
4460.0,-1.005,-0.026,-0.002,0.449,10.415,5.043,-0.994,0.138,0.165,-3.144,4.369,-2.3,-0.987,0.001,-0.057,-2.084,3.303,2.32,0.76,-0.25,-0.192,-80.092,-21.6,43.561
4480.0,-1.029,-0.029,-0.029,1.284,8.132,0.878,-0.997,0.136,0.16,-1.426,4.548,-2.31,-0.992,-0.01,-0.061,-1.847,4.925,2.639,0.822,-0.279,-0.198,-67.254,-6.019,38.939
4500.0,-1.03,-0.008,-0.036,0.73,3.582,-4.733,-0.999,0.127,0.147,1.348,4.006,-2.557,-1.007,-0.011,-0.08,-0.976,4.86,2.459,0.833,-0.274,-0.179,-68.215,-3.689,34.079
4520.0,-0.993,0.039,-0.055,-2.044,-2.115,-7.679,-1.0,0.15,0.157,1.343,3.99,-2.897,-1.008,0.022,-0.102,0.445,3.575,2.561,0.822,-0.376,-0.182,-57.119,-1.216,29.481
4540.0,-0.976,0.063,-0.112,-6.702,-7.06,-6.315,-1.008,0.156,0.158,-0.159,4.058,-3.556,-1.015,0.026,-0.092,-0.365,2.451,2.175,0.808,-0.367,-0.159,-40.714,0.614,26.485
4560.0,-0.996,0.035,-0.138,-7.753,-10.584,-1.403,-1.005,0.151,0.139,-0.927,3.828,-3.525,-1.01,0.013,-0.094,-1.182,1.619,2.282,0.786,-0.483,-0.138,-17.954,-16.769,31.091
4580.0,-1.017,-0.022,-0.14,-7.006,-11.823,-0.077,-1.011,0.129,0.136,-1.367,2.825,-3.239,-0.999,0.008,-0.098,-1.165,1.067,2.589,0.955,-0.473,-0.094,3.205,0.602,26.782
4600.0,-1.007,-0.023,-0.121,-5.873,-12.991,-2.241,-1.014,0.102,0.135,0.531,1.695,-2.959,-0.988,0.013,-0.093,-2.201,1.29,2.775,0.834,-0.488,-0.091,-3.71,-9.73,20.51
4620.0,-0.991,-0.012,-0.098,-6.165,-15.209,-3.908,-1.005,0.114,0.14,2.153,1.518,-2.77,-0.99,0.017,-0.082,-3.064,2.06,2.933,0.837,-0.525,0.026,13.998,-15.44,8.888
4640.0,-0.984,-0.003,-0.079,-6.791,-15.568,-4.86,-0.996,0.142,0.151,1.797,1.982,-2.818,-0.997,0.011,-0.084,-2.45,2.712,3.061,0.831,-0.537,0.05,11.349,-25.35,5.568
4660.0,-0.989,0.038,-0.043,-5.067,-13.271,-5.053,-0.996,0.143,0.15,0.216,3.17,-3.128,-0.998,0.011,-0.101,-1.898,2.883,3.198,0.872,-0.55,0.102,27.888,-25.049,-1.238
4680.0,-1.013,0.049,0.002,-2.387,-11.73,-3.57,-1.002,0.127,0.145,0.072,4.11,-3.084,-1.004,0.04,-0.106,-1.985,1.725,3.085,0.911,-0.586,0.103,42.354,-19.056,-7.409
4700.0,-1.023,0.028,0.028,0.919,-11.954,-1.889,-1.011,0.107,0.141,1.633,4.653,-2.829,-1.007,0.038,-0.109,-2.279,0.421,1.42,0.928,-0.524,0.11,37.469,-7.982,-12.817
4720.0,-1.025,0.008,0.026,1.958,-9.555,-0.61,-1.007,0.109,0.136,3.266,5.286,-2.826,-1.01,0.045,-0.108,-2.679,-0.746,0.526,0.915,-0.532,0.12,21.056,0.274,-13.54
4740.0,-1.026,-0.011,0.019,2.702,-4.961,0.111,-0.999,0.118,0.135,3.222,5.804,-2.855,-1.011,0.013,-0.121,-0.017,-2.364,-0.383,0.913,-0.613,0.169,25.919,12.006,-10.382
4760.0,-1.027,-0.027,0.023,5.572,-2.4,0.466,-1.018,0.113,0.136,2.157,5.825,-2.553,-1.014,0.025,-0.119,1.233,-5.175,-1.577,0.894,-0.495,0.297,42.135,11.108,-2.442
4780.0,-1.025,-0.02,0.042,10.363,-0.256,1.716,-1.02,0.114,0.123,3.715,5.084,-1.399,-1.013,0.026,-0.118,1.75,-7.14,-2.1,0.93,-0.333,0.489,26.245,14.923,2.201
4800.0,-1.039,-0.013,0.031,13.989,-0.885,3.918,-1.02,0.11,0.104,4.385,3.289,0.081,-1.015,0.031,-0.107,2.03,-8.61,-2.66,0.944,-0.405,0.479,1.075,17.683,0.943
4820.0,-1.039,0.009,-0.012,15.385,-0.362,4.88,-1.026,0.104,0.102,4.007,1.217,1.716,-0.993,0.026,-0.098,2.544,-8.53,-2.729,0.919,-0.516,0.459,4.198,11.421,-0.636
4840.0,-1.002,0.052,0.013,15.318,2.592,3.835,-1.028,0.104,0.103,3.987,-0.598,2.854,-0.984,0.021,-0.089,3.003,-7.424,-2.36,0.925,-0.522,0.446,3.931,7.753,-3.628
4860.0,-0.987,0.084,0.04,10.566,0.952,-0.177,-1.013,0.123,0.094,6.262,-3.101,3.142,-0.985,0.017,-0.073,2.676,-5.504,-1.661,0.921,-0.525,0.396,1.079,3.822,-8.427
4880.0,-0.988,0.093,-0.017,1.748,-2.127,-2.484,-0.996,0.154,0.116,3.526,-3.212,2.583,-0.992,0.015,-0.071,1.795,-3.258,-0.812,0.877,-0.49,0.317,4.511,-5.475,-8.585
4900.0,-0.993,0.053,-0.05,-5.147,-2.654,-2.775,-0.999,0.145,0.114,0.059,-3.289,1.903,-0.988,0.022,-0.072,1.007,-1.189,0.046,0.851,-0.402,0.27,17.126,-14.71,-3.339
4920.0,-0.997,0.033,-0.056,-7.343,-2.398,-1.813,-0.997,0.14,0.124,-1.295,-2.911,0.825,-0.991,0.028,-0.079,-0.235,0.661,0.544,0.877,-0.357,0.239,17.601,-15.141,-0.965
4940.0,-1.007,0.014,-0.019,-5.283,-1.914,-0.012,-1.001,0.136,0.121,-1.345,-2.715,-0.217,-0.988,0.034,-0.079,-2.495,2.915,1.018,0.893,-0.344,0.158,14.703,-10.234,-0.306
4960.0,-1.011,0.009,-0.005,-2.623,-3.272,0.907,-1.006,0.145,0.13,-1.562,-1.727,-1.047,-0.991,0.02,-0.084,-2.684,4.75,1.38,0.904,-0.381,0.043,16.911,-3.555,1.356
4980.0,-1.006,0.017,-0.015,-2.318,-3.43,0.91,-0.996,0.139,0.128,-3.126,-0.189,-1.685,-1.005,0.016,-0.094,-2.044,5.092,1.307,0.921,-0.411,-0.063,18.985,2.923,3.109
5000.0,-1.002,0.016,-0.018,-2.217,-2.359,0.551,-0.997,0.122,0.132,-3.493,1.433,-2.528,-1.013,0.041,-0.107,-1.826,4.324,1.137,0.929,-0.484,-0.167,19.326,14.182,-0.199
5020.0,-0.987,0.01,-0.033,-1.61,0.026,0.572,-1.0,0.128,0.136,-2.951,2.856,-3.363,-1.003,0.041,-0.113,-1.964,3.348,1.311,0.917,-0.499,-0.287,30.726,32.347,-7.371
5040.0,-0.986,-0.009,-0.04,1.315,2.54,1.32,-1.006,0.124,0.122,-2.983,3.578,-4.02,-1.003,0.045,-0.117,-1.6,1.612,0.583,0.889,-0.451,-0.391,44.912,57.667,-18.847
5060.0,-1.003,-0.025,-0.039,5.407,3.265,1.4,-1.003,0.108,0.113,-2.58,3.77,-4.06,-1.007,0.043,-0.118,0.027,0.24,-0.12,0.833,-0.354,-0.496,66.933,81.887,-20.808
5080.0,-1.05,-0.017,-0.044,6.323,2.542,0.468,-1.005,0.098,0.113,1.363,3.367,-3.942,-1.013,0.04,-0.118,1.6,-0.914,-0.692,0.759,-0.126,-0.516,83.632,95.596,-8.814
5100.0,-1.084,0.01,-0.053,6.748,-2.212,-0.521,-1.012,0.116,0.12,3.098,3.724,-3.92,-1.015,0.036,-0.119,2.512,-2.421,-1.155,0.71,0.014,-0.454,95.301,106.476,-0.195
5120.0,-1.068,0.038,-0.068,7.757,-2.852,-1.561,-1.027,0.118,0.11,2.213,3.709,-3.547,-1.003,0.031,-0.115,2.421,-2.983,-1.279,0.636,0.035,-0.365,117.273,127.055,2.654
5140.0,-1.001,0.034,-0.057,10.182,-1.146,-2.328,-1.025,0.107,0.096,2.102,3.553,-2.796,-0.995,0.035,-0.102,1.88,-2.89,-1.533,0.482,0.057,-0.289,141.536,174.086,-3.088
5160.0,-0.94,0.008,-0.019,13.687,4.709,-1.479,-1.008,0.098,0.091,3.209,2.616,-2.116,-0.991,0.039,-0.096,2.067,-1.583,-1.758,0.349,0.056,-0.338,148.798,199.548,-17.289
5180.0,-0.941,-0.018,-0.01,12.811,6.13,0.635,-1.008,0.095,0.099,4.011,2.249,-1.468,-0.992,0.034,-0.095,2.151,0.009,-2.131,0.19,0.015,-0.389,159.949,216.604,-24.668
5200.0,-0.972,-0.024,-0.01,7.802,6.308,0.879,-1.016,0.102,0.109,4.011,2.687,-1.241,-0.995,0.046,-0.112,3.145,0.28,-2.31,0.098,-0.051,-0.448,187.285,242.199,-29.903
5220.0,-1.014,-0.005,-0.017,3.517,6.552,-1.334,-1.02,0.117,0.097,2.662,3.271,-1.474,-0.995,0.048,-0.122,3.058,-0.121,-2.335,-0.119,0.061,-0.427,222.439,267.63,-39.063
5240.0,-1.021,0.036,-0.038,3.729,8.83,-3.713,-1.02,0.102,0.088,2.396,3.148,-1.451,-0.993,0.034,-0.127,1.591,-1.175,-2.38,-0.32,0.317,-0.276,231.13,283.45,-61.162
5260.0,-0.998,0.077,-0.019,8.021,10.185,-3.57,-1.015,0.096,0.085,3.599,2.292,-0.97,-0.99,0.033,-0.116,0.891,-1.5,-2.281,-0.532,0.539,-0.097,207.102,314.664,-81.985
5280.0,-0.943,0.079,-0.001,8.683,10.452,-3.15,-1.005,0.094,0.082,2.771,1.975,-0.524,-0.995,0.032,-0.11,1.085,-1.558,-2.079,-0.648,0.549,-0.081,184.033,335.818,-91.908
5300.0,-0.886,0.052,-0.015,6.382,15.791,-3.203,-1.014,0.077,0.087,1.89,1.68,0.84,-0.988,0.038,-0.109,0.872,-1.165,-2.482,-0.735,0.465,-0.106,181.786,355.372,-96.972
5320.0,-0.884,0.045,-0.011,6.967,23.078,-0.788,-1.018,0.095,0.091,-0.719,2.308,1.309,-1.007,0.026,-0.11,0.13,-1.048,-3.133,-1.012,0.461,-0.167,202.526,386.797,-103.024
5340.0,-0.94,0.017,0.03,10.413,27.801,2.873,-0.991,0.104,0.085,-2.548,2.858,0.28,-1.04,0.028,-0.13,1.509,-4.335,-3.861,-1.448,0.554,-0.042,196.138,406.681,-114.585
5360.0,-0.98,-0.028,0.029,9.216,29.416,4.873,-1.012,0.105,0.085,-3.212,1.83,-0.273,-1.014,0.049,-0.129,1.755,-6.709,-5.087,-1.711,0.548,0.252,183.866,427.144,-124.204
5380.0,-1.054,-0.018,0.015,6.133,29.429,3.396,-1.054,0.084,0.059,-2.989,-1.045,1.419,-0.997,0.045,-0.131,2.007,-8.534,-6.056,-2.152,0.948,0.352,144.06,477.89,-155.89
5400.0,-1.156,0.011,0.018,5.436,28.317,-0.579,-1.021,0.076,0.054,-0.787,-2.484,2.987,-1.005,0.029,-0.12,1.866,-10.292,-6.63,-2.225,0.414,0.048,85.343,437.857,-161.188
5420.0,-1.144,0.063,0.026,7.042,23.879,-0.903,-1.004,0.097,0.044,-0.14,-6.16,3.64,-1.02,0.023,-0.11,3.631,-11.592,-6.982,-2.36,0.248,-0.229,84.42,444.01,-145.25
5440.0,-1.032,0.061,-0.011,8.463,21.922,0.133,-1.022,0.122,0.07,-1.102,-8.898,3.745,-0.996,0.034,-0.103,3.78,-11.9,-6.65,-2.978,0.187,-0.227,101.199,429.903,-138.849
5460.0,-1.034,0.039,-0.026,8.306,21.111,0.522,-1.034,0.115,0.079,-3.22,-8.96,4.48,-0.976,0.017,-0.085,2.31,-9.66,-6.37,-3.434,0.391,0.205,91.552,429.572,-137.535
5480.0,-1.078,0.033,-0.091,1.239,18.561,-0.068,-1.018,0.099,0.081,-3.36,-8.89,5.32,-0.982,0.012,-0.069,2.73,-7.28,-5.32,-3.57,0.675,0.638,17.351,433.801,-149.463
5500.0,-0.948,0.101,-0.124,-2.026,27.145,0.123,-1.006,0.102,0.094,-1.625,-9.224,4.813,-0.988,0.0,-0.067,2.45,-3.99,-4.69,-3.557,0.943,0.801,-101.188,399.672,-158.237
5520.0,-0.943,0.148,-0.082,-1.832,35.513,2.459,-1.007,0.139,0.1,-1.97,-8.654,3.278,-1.005,0.002,-0.066,2.471,-2.041,-3.864,-3.051,1.228,0.703,-217.119,336.103,-152.586
5540.0,-0.988,0.067,-0.074,-1.54,36.41,3.162,-1.007,0.137,0.107,-2.951,-7.296,1.781,-1.005,0.012,-0.099,2.938,-1.123,-3.641,-2.366,0.246,-0.051,-208.46,262.78,-102.55
5560.0,-0.993,0.038,-0.093,-6.655,37.703,-1.13,-1.002,0.111,0.113,-2.779,-5.03,0.382,-1.006,0.038,-0.096,0.622,-1.513,-3.844,-1.893,-0.534,-0.283,-42.07,209.37,-24.43
5580.0,-1.022,0.049,-0.107,-13.038,38.46,-7.166,-1.012,0.103,0.106,-2.496,-5.068,0.568,-1.009,0.025,-0.107,-0.027,-2.189,-3.92,-1.787,-0.381,-0.268,113.387,172.022,41.365
5600.0,-1.051,0.079,-0.127,-19.316,33.179,-9.276,-1.014,0.102,0.098,-1.794,-5.151,1.028,-1.016,0.028,-0.115,-1.447,-4.034,-3.597,-1.726,-0.171,-0.15,218.093,114.384,94.88
5620.0,-1.05,0.032,-0.173,-20.044,22.658,-8.325,-1.015,0.116,0.097,-2.519,-5.39,1.356,-1.0,0.011,-0.114,-1.678,-5.611,-3.008,-1.593,-0.035,0.073,259.351,84.475,123.254
5640.0,-1.004,-0.029,-0.21,-15.83,18.549,-7.396,-1.014,0.107,0.104,-4.092,-5.3,2.021,-0.996,0.012,-0.114,-1.555,-6.145,-2.183,-1.432,0.179,0.17,280.28,86.38,130.62
5660.0,-0.997,-0.05,-0.23,-7.691,11.936,-6.953,-1.012,0.101,0.105,-3.803,-5.533,2.899,-1.011,-0.002,-0.102,-1.335,-8.211,-2.481,-1.375,0.398,0.221,290.29,66.29,124.46
5680.0,-1.018,-0.039,-0.222,-4.024,6.331,-6.733,-1.013,0.105,0.102,-4.821,-5.737,3.465,-0.998,0.023,-0.089,-2.024,-8.197,-2.868,-1.257,0.627,0.285,276.64,64.68,99.47
5700.0,-1.015,-0.001,-0.243,-3.54,0.045,-6.922,-1.023,0.094,0.096,-5.53,-6.282,4.306,-0.986,0.008,-0.071,0.0,-6.93,-2.66,-1.118,0.895,0.36,214.528,67.128,61.68
5720.0,-0.999,0.021,-0.275,-4.252,-2.841,-7.808,-1.028,0.091,0.096,-4.373,-8.244,6.307,-0.984,-0.026,-0.065,1.705,-5.232,-1.12,-1.085,1.025,0.374,129.545,66.178,13.269
5740.0,-1.0,0.035,-0.273,-5.805,-4.447,-6.74,-1.02,0.101,0.101,-2.709,-9.596,8.116,-0.998,-0.004,-0.068,2.019,-3.378,-1.12,-1.058,1.022,0.378,26.26,54.586,-23.34
5760.0,-0.978,0.032,-0.288,-5.494,-2.448,-5.261,-1.007,0.105,0.105,-2.7,-10.1,8.298,-1.008,0.024,-0.086,1.034,-2.2,-1.19,-1.033,0.885,0.356,-69.895,39.276,-49.644
5780.0,-0.964,-0.002,-0.286,-4.942,-0.514,-4.342,-1.002,0.117,0.111,-4.097,-10.418,7.986,-1.0,0.021,-0.085,0.846,-1.617,-1.19,-1.005,0.696,0.273,-135.684,1.397,-64.297
5800.0,-0.96,-0.043,-0.253,-3.084,-0.906,-4.509,-1.015,0.112,0.117,-3.856,-10.673,8.117,-0.987,0.012,-0.079,1.368,-0.526,-0.994,-0.973,0.579,0.221,-187.817,-9.17,-67.951
5820.0,-0.972,-0.037,-0.214,-0.91,-4.952,-4.669,-1.01,0.106,0.118,-0.841,-10.838,8.141,-0.993,0.013,-0.083,1.948,0.629,-1.329,-1.056,0.348,0.231,-190.17,-28.371,-62.277
5840.0,-0.985,-0.008,-0.196,1.088,-9.162,-4.36,-0.996,0.126,0.122,0.083,-10.711,7.47,-0.997,0.015,-0.094,2.094,1.048,-1.255,-1.124,0.157,0.24,-162.728,-59.193,-49.118
5860.0,-0.996,0.001,-0.193,3.049,-11.528,-3.241,-0.993,0.133,0.133,0.054,-9.802,6.42,-0.996,0.015,-0.093,1.862,1.462,-1.031,-1.105,0.055,0.267,-121.964,-80.62,-29.375
5880.0,-0.965,-0.004,-0.237,8.003,-13.005,-1.805,-0.992,0.12,0.147,-0.581,-7.73,5.666,-1.002,0.01,-0.088,1.542,1.596,-0.875,-1.209,0.041,0.363,-81.51,-92.626,-14.24
5900.0,-0.949,-0.019,-0.24,11.104,-13.63,-0.791,-0.98,0.125,0.154,0.53,-5.879,3.984,-1.004,0.01,-0.093,1.706,1.587,-0.84,-1.494,0.107,0.441,-54.356,-118.701,-1.215
5920.0,-0.945,-0.038,-0.247,14.607,-12.007,-1.147,-1.004,0.153,0.153,1.405,-4.533,2.585,-1.001,0.01,-0.099,2.494,1.493,-0.84,-1.705,0.221,0.582,-25.847,-145.22,9.533
5940.0,-0.946,-0.043,-0.275,17.626,-7.274,-1.387,-0.993,0.135,0.15,0.255,-1.854,1.314,-1.019,0.021,-0.104,2.73,0.266,-1.036,-1.934,0.373,0.649,-22.926,-166.38,14.136
5960.0,-0.974,-0.019,-0.281,17.435,-1.941,-1.005,-0.991,0.144,0.14,1.101,-0.88,0.923,-1.017,0.03,-0.111,2.012,-1.454,-1.762,-2.165,0.465,0.586,-34.371,-199.481,19.396
5980.0,-1.007,-0.003,-0.26,11.738,-0.58,-3.829,-1.002,0.245,0.139,2.193,-0.469,0.973,-1.0,0.024,-0.109,1.703,-1.786,-2.422,-2.455,0.509,0.56,-44.249,-236.762,30.625
6000.0,-1.043,0.027,-0.225,4.958,-4.739,-5.873,-1.018,0.11,0.14,3.019,-0.35,0.599,-1.005,0.012,-0.104,1.892,-2.039,-2.826,-2.786,0.501,0.586,-47.261,-283.716,56.44
6020.0,-1.078,0.067,-0.2,3.153,-8.142,-4.153,-0.998,0.142,0.13,3.492,-0.344,0.28,-1.013,0.013,-0.104,1.782,-3.244,-3.193,-2.976,0.429,0.543,-39.069,-334.107,87.626
6040.0,-1.053,0.026,-0.191,3.488,-9.486,-0.881,-1.005,0.14,0.135,1.759,-0.211,-0.278,-1.013,0.016,-0.112,1.089,-4.915,-3.829,-3.046,0.413,0.339,-13.972,-378.399,117.498
6060.0,-1.064,0.002,-0.165,1.821,-13.649,0.552,-1.02,0.126,0.129,2.041,-0.894,0.404,-1.016,0.024,-0.113,0.2,-6.909,-4.35,-3.032,0.651,0.215,-8.965,-416.627,137.895
6080.0,-1.07,0.006,-0.152,2.31,-21.63,1.68,-1.021,0.122,0.117,0.954,-2.302,1.636,-1.014,0.016,-0.112,-0.343,-8.297,-4.642,-3.001,0.865,0.287,-52.235,-431.273,139.003
6100.0,-1.048,-0.011,-0.128,4.873,-26.952,4.15,-1.018,0.135,0.11,0.21,-4.13,2.31,-1.006,0.011,-0.11,-0.398,-9.359,-4.653,-3.028,0.897,0.271,-103.254,-435.16,129.047
6120.0,-1.028,-0.017,-0.128,6.782,-29.944,5.448,-1.003,0.137,0.122,0.419,-5.17,2.112,-1.004,0.01,-0.101,-0.176,-9.932,-4.664,-2.855,0.896,0.155,-151.414,-440.478,109.994
6140.0,-1.024,-0.011,-0.119,7.466,-28.643,5.691,-1.017,0.152,0.131,-2.29,-5.246,1.821,-1.005,0.009,-0.093,0.068,-10.144,-4.754,-2.571,0.874,0.096,-191.631,-445.07,85.842
6160.0,-1.014,0.021,-0.068,4.541,-25.216,4.438,-1.017,0.119,0.13,-1.41,-5.367,1.886,-1.008,0.01,-0.09,-0.773,-10.242,-4.634,-2.311,0.911,-0.004,-227.75,-447.274,54.398
6180.0,-1.026,0.055,-0.021,2.219,-27.144,4.133,-1.008,0.116,0.138,1.205,-5.59,1.573,-1.004,0.016,-0.086,-1.767,-9.84,-4.347,-2.083,0.839,-0.092,-233.106,-452.254,37.668
6200.0,-1.03,0.055,-0.015,2.017,-30.259,4.881,-1.001,0.139,0.138,1.133,-4.946,1.489,-1.001,0.001,-0.086,-2.901,-9.338,-3.972,-1.773,0.635,-0.114,-213.072,-455.749,34.454
6220.0,-1.024,0.052,0.01,-1.532,-30.448,5.25,-0.998,0.146,0.138,0.018,-4.16,0.834,-0.99,0.012,-0.078,-3.514,-7.676,-2.898,-1.466,0.564,-0.158,-190.656,-465.801,39.619
6240.0,-1.009,0.035,0.036,-3.681,-30.091,6.272,-0.984,0.137,0.137,-0.698,-2.585,-0.088,-0.981,0.013,-0.063,-3.046,-6.208,-2.693,-1.221,0.51,-0.141,-149.303,-470.353,48.994
6260.0,-0.993,0.001,0.058,-2.842,-29.212,7.008,-0.989,0.134,0.14,-0.285,-2.245,-0.922,-0.986,-0.03,-0.058,-2.013,-4.516,-2.366,-1.084,0.447,0.019,-132.652,-476.686,53.482
6280.0,-0.989,-0.038,0.079,1.546,-28.079,8.544,-0.992,0.14,0.146,-0.07,-1.633,-1.622,-0.989,-0.023,-0.059,-0.903,-2.88,-1.191,-1.06,0.399,-0.152,-134.618,-478.507,51.956
6300.0,-0.979,-0.043,0.05,5.701,-25.586,8.081,-1.0,0.133,0.146,-0.104,-0.607,-2.188,-0.989,-0.015,-0.056,-0.985,-1.315,-0.486,-0.672,0.363,-0.266,-116.176,-415.824,54.551
6320.0,-0.988,-0.013,0.022,6.688,-20.173,5.787,-1.01,0.121,0.136,-0.186,-0.522,-2.124,-0.984,-0.004,-0.073,0.087,0.836,0.006,-0.48,0.179,-0.31,-92.504,-396.425,53.71
6340.0,-1.001,0.028,0.042,5.866,-15.291,3.758,-1.007,0.11,0.126,-0.091,-0.928,-1.436,-0.986,-0.008,-0.074,0.681,1.669,1.048,-0.238,0.061,-0.316,-84.436,-342.843,60.125
6360.0,-0.996,0.055,0.038,3.082,-15.963,2.475,-1.0,0.107,0.128,0.506,-1.482,-1.016,-0.997,-0.011,-0.076,2.129,2.29,1.784,0.011,0.014,-0.3,-67.662,-272.857,68.465
6380.0,-0.971,0.066,-0.01,-2.347,-15.645,0.28,-0.998,0.119,0.134,0.788,-1.705,-0.836,-0.995,-0.013,-0.08,3.089,2.772,2.423,0.235,0.001,-0.33,-73.28,-197.396,67.543
6400.0,-0.968,0.078,-0.043,-7.959,-15.931,-4.021,-1.004,0.132,0.131,0.066,-1.707,-0.7,-0.998,0.0,-0.076,3.611,3.443,3.059,0.173,-0.007,-0.456,-102.822,-154.106,59.415
6420.0,-0.973,0.1,-0.088,-13.639,-16.783,-7.903,-1.01,0.118,0.125,0.181,-2.585,-0.57,-1.003,0.01,-0.087,3.407,3.961,3.471,0.224,-0.069,-0.499,-132.332,-116.73,55.241
6440.0,-0.956,0.101,-0.113,-18.231,-12.894,-9.777,-1.003,0.125,0.135,2.247,-2.798,0.07,-1.002,0.018,-0.084,1.686,4.445,3.5,0.333,-0.093,-0.548,-133.871,-84.278,49.189
6460.0,-0.947,0.069,-0.071,-21.911,-3.352,-10.913,-1.006,0.122,0.14,2.787,-2.705,0.062,-1.004,0.02,-0.09,0.352,5.104,3.489,0.495,-0.198,-0.508,-105.787,-47.674,41.908
6480.0,-0.969,0.015,0.004,-23.655,-0.695,-11.369,-1.0,0.141,0.146,1.923,-1.791,-0.21,-0.997,0.023,-0.09,-1.208,5.599,2.981,0.593,-0.168,-0.429,-103.46,-8.68,32.76
6500.0,-1.001,0.005,0.012,-20.681,-2.425,-9.847,-1.0,0.132,0.143,0.476,-0.62,-0.21,-1.0,0.029,-0.108,-3.176,5.444,2.7,0.702,-0.292,-0.565,-105.07,21.0,33.88
6520.0,-1.01,-0.015,-0.026,-18.225,-3.644,-6.225,-0.993,0.132,0.146,-0.607,0.826,-0.635,-0.999,0.016,-0.116,-1.75,3.99,1.82,0.718,-0.344,-0.565,-113.61,21.98,32.27
6540.0,-1.011,-0.041,-0.056,-12.097,-3.247,-4.021,-0.994,0.133,0.145,-1.44,2.455,-1.503,-1.013,0.032,-0.12,-4.55,1.47,1.05,0.887,-0.512,-0.428,-72.255,32.917,33.048
6560.0,-1.011,-0.016,-0.052,-3.196,-3.545,-2.162,-0.996,0.12,0.137,-1.89,3.5,-2.1,-1.019,0.045,-0.117,-4.101,-0.504,0.121,0.953,-0.53,-0.342,-46.512,32.172,31.339
6580.0,-1.004,-0.026,-0.07,-2.037,-7.686,-1.777,-1.006,0.134,0.132,-2.389,3.139,-1.849,-1.006,0.023,-0.118,-3.292,-1.978,-0.134,1.035,-0.463,-0.259,-17.665,48.907,20.339
6600.0,-0.988,-0.026,-0.092,0.427,-5.328,-2.641,-1.017,0.114,0.119,-2.936,2.544,-1.82,-1.001,0.012,-0.112,-2.196,-3.156,-0.14,1.02,-0.499,-0.133,-21.266,33.488,15.342
6620.0,-1.004,-0.02,-0.087,3.034,-4.831,-1.927,-1.01,0.118,0.115,-3.433,1.929,-1.931,-1.01,0.019,-0.104,-1.128,-3.877,0.05,1.11,-0.663,-0.045,-12.785,11.105,8.151
6640.0,-1.019,-0.024,-0.091,3.78,-5.107,-0.397,-1.009,0.117,0.122,-2.731,1.503,-1.885,-1.007,0.023,-0.105,-0.536,-4.196,0.196,1.117,-0.769,-0.065,41.546,12.578,3.871
6660.0,-1.02,-0.024,-0.087,3.903,-5.136,-0.267,-1.018,0.108,0.12,-0.292,1.167,-1.407,-0.995,0.022,-0.094,-0.14,-3.78,0.35,1.103,-0.677,-0.057,66.758,7.977,-1.864
6680.0,-1.008,-0.025,-0.101,5.11,-5.571,-0.581,-1.018,0.099,0.12,0.65,0.802,-1.219,-0.996,0.021,-0.093,-0.089,-2.892,0.522,1.08,-0.383,0.03,60.478,0.43,-9.184
6700.0,-1.028,-0.005,-0.055,9.044,-3.347,-0.051,-1.006,0.096,0.119,2.074,0.614,-0.805,-0.992,0.032,-0.095,2.088,-1.351,0.76,1.044,-0.305,0.179,33.162,-4.497,-11.313
6720.0,-1.047,0.003,-0.01,11.388,-4.604,-0.073,-1.006,0.102,0.112,3.955,0.131,-0.425,-0.989,0.028,-0.088,0.72,-0.005,0.77,0.99,-0.395,0.222,31.947,-9.937,-4.901
6740.0,-1.018,-0.001,-0.004,10.894,-5.205,-0.765,-1.013,0.101,0.116,5.651,-0.44,-0.42,-0.992,0.038,-0.091,1.187,0.863,1.397,0.933,-0.325,0.197,51.515,-14.123,6.645
6760.0,-1.014,0.005,-0.032,8.855,-5.219,-1.204,-1.015,0.099,0.116,8.313,-0.645,-0.261,-0.986,0.049,-0.099,1.197,2.226,1.282,0.898,-0.247,0.224,41.455,-14.483,10.5
6780.0,-0.983,0.022,0.016,6.796,-0.334,-1.429,-1.019,0.116,0.121,11.84,-1.089,0.041,-0.983,0.032,-0.108,4.195,2.544,1.316,0.887,-0.34,0.207,28.818,-12.473,15.867
6800.0,-0.954,0.032,0.033,7.386,0.964,-3.026,-1.018,0.125,0.112,10.61,-0.97,0.454,-0.994,0.038,-0.098,2.019,4.007,1.448,0.876,-0.475,0.177,27.185,-7.47,22.451
6820.0,-0.943,0.048,0.01,6.55,4.081,-3.331,-1.009,0.112,0.104,7.886,-1.076,1.328,-0.997,0.032,-0.112,2.255,4.305,1.358,0.853,-0.537,0.192,26.526,0.454,23.916
6840.0,-0.955,0.044,-0.016,4.34,7.56,-2.8,-1.006,0.133,0.105,6.05,-1.627,1.761,-0.996,0.061,-0.124,1.073,3.867,0.742,0.827,-0.638,0.18,21.983,9.296,21.085
6860.0,-1.002,0.041,-0.004,1.462,9.096,-1.011,-1.002,0.137,0.109,2.643,-1.645,1.575,-1.015,0.052,-0.121,0.116,2.544,-0.559,0.806,-0.722,0.097,21.406,15.641,11.993
6880.0,-1.028,0.043,-0.002,0.77,10.57,1.19,-1.004,0.118,0.114,-0.262,-1.796,1.493,-1.011,0.057,-0.126,0.75,0.394,-1.323,0.798,-0.725,0.017,32.426,17.758,2.543
6900.0,-1.037,0.039,-0.004,1.05,10.92,2.66,-1.012,0.123,0.112,-1.485,-2.01,1.543,-1.007,0.053,-0.129,-0.349,-0.84,-1.95,0.789,-0.621,-0.086,36.869,19.632,-6.487
6920.0,-1.047,0.026,-0.0,3.095,10.868,4.644,-1.013,0.135,0.113,-3.127,-1.882,1.258,-1.015,0.049,-0.129,-1.295,-1.998,-2.724,0.773,-0.534,-0.182,37.077,24.637,-16.591
6940.0,-1.026,0.001,-0.017,4.427,13.295,6.225,-1.008,0.136,0.12,-5.793,-1.248,0.644,-1.021,0.047,-0.125,-1.313,-3.592,-3.537,0.763,-0.469,-0.309,40.875,39.165,-25.977
6960.0,-1.039,-0.034,-0.034,4.62,12.11,5.04,-1.008,0.124,0.118,-7.62,-0.581,0.086,-1.01,0.038,-0.12,-1.188,-4.474,-4.326,0.739,-0.369,-0.455,64.9,67.601,-32.217
6980.0,-1.045,-0.011,-0.078,4.9,10.43,3.29,-1.016,0.082,0.11,-7.043,-0.858,0.074,-1.003,0.036,-0.121,0.464,-4.947,-4.57,0.643,-0.244,-0.468,95.656,97.014,-35.006
7000.0,-1.045,0.016,-0.084,5.559,8.53,3.074,-1.017,0.089,0.114,-3.373,-1.189,0.706,-0.997,0.031,-0.118,1.313,-5.177,-4.206,0.539,-0.157,-0.45,123.565,123.047,-36.533
7020.0,-1.043,0.007,-0.097,4.875,6.349,2.136,-1.011,0.112,0.111,-2.66,-1.05,0.77,-0.987,0.024,-0.112,0.976,-4.167,-3.36,0.401,-0.081,-0.479,137.549,147.944,-40.193
7040.0,-1.023,0.006,-0.11,1.216,3.668,-0.102,-1.003,0.102,0.114,-1.97,-1.258,0.542,-0.982,0.018,-0.107,0.108,-2.713,-2.558,0.344,0.015,-0.482,140.615,177.516,-48.111
7060.0,-0.995,0.037,-0.128,-3.068,3.189,-2.896,-1.002,0.11,0.117,-0.771,-0.823,0.051,-0.984,0.025,-0.113,-0.597,-1.633,-1.855,0.192,0.072,-0.461,153.389,202.173,-60.349
7080.0,-0.962,0.079,-0.129,-4.881,4.921,-4.452,-1.011,0.124,0.124,-1.19,-0.179,-0.148,-0.972,0.027,-0.117,-1.562,-0.46,-0.897,0.109,0.108,-0.459,194.278,227.109,-66.239
7100.0,-0.947,0.106,-0.093,-2.34,5.974,-3.605,-1.005,0.089,0.111,-1.179,0.454,-0.29,-0.975,0.015,-0.118,-2.15,0.651,-0.053,-0.095,0.26,-0.446,232.94,242.39,-77.746
7120.0,-0.937,0.089,-0.087,4.379,8.498,-1.697,-0.993,0.103,0.11,0.233,1.211,-0.613,-0.997,0.017,-0.113,-2.32,1.512,0.276,-0.128,0.483,-0.228,238.21,290.08,-94.92
7140.0,-0.939,0.039,-0.073,8.19,13.196,-1.11,-0.993,0.113,0.12,0.357,2.391,-1.502,-1.002,0.043,-0.107,-3.442,2.853,0.09,-0.473,0.71,-0.099,198.786,307.126,-117.599
7160.0,-0.978,-0.005,-0.05,8.772,19.05,-1.245,-1.017,0.12,0.125,0.458,4.297,-1.974,-1.002,0.049,-0.117,-3.827,3.193,-0.581,-0.596,0.582,-0.046,155.303,336.54,-137.721
7180.0,-1.047,-0.004,-0.025,8.405,20.454,-2.638,-1.02,0.091,0.1,-0.605,4.46,-2.03,-0.998,0.04,-0.128,-3.887,2.881,-1.115,-0.684,0.521,0.045,150.01,381.08,-142.1
7200.0,-1.049,0.011,-0.019,8.673,19.739,-2.395,-1.017,0.094,0.097,-0.83,4.619,-2.033,-0.988,0.026,-0.137,-0.649,2.295,-1.061,-0.922,0.488,0.045,165.061,462.566,-142.256
7220.0,-0.995,-0.023,-0.038,10.064,21.617,2.283,-1.006,0.111,0.09,0.553,4.471,-2.379,-0.992,0.035,-0.134,1.068,1.505,-1.065,-1.284,0.563,0.066,180.273,490.284,-147.652
7240.0,-0.993,-0.067,-0.03,10.876,25.724,3.818,-1.006,0.115,0.096,-0.417,4.176,-2.154,-1.001,0.027,-0.137,3.077,0.292,-0.632,-1.77,0.464,-0.124,149.453,484.285,-139.727
7260.0,-1.015,-0.062,-0.011,11.06,26.617,2.925,-1.017,0.088,0.082,-0.053,3.353,-1.683,-1.004,0.035,-0.142,2.713,-0.894,-1.005,-2.095,0.303,-0.157,138.509,471.166,-134.776
7280.0,-1.012,-0.014,-0.019,9.888,25.298,-0.144,-1.011,0.091,0.086,-0.037,2.977,-1.313,-1.005,0.041,-0.144,2.66,-2.24,-1.61,-2.319,0.591,-0.261,98.225,511.969,-140.908
7300.0,-1.009,-0.009,-0.005,9.7,25.346,-2.867,-1.018,0.094,0.09,-1.61,2.66,-1.19,-1.001,0.04,-0.145,2.31,-3.01,-2.1,-2.859,0.562,-0.392,50.341,509.616,-144.756
7320.0,-1.047,0.042,-0.013,10.008,19.077,-6.126,-1.023,0.072,0.075,0.683,1.458,-0.224,-0.991,0.037,-0.136,1.821,-3.786,-2.101,-3.209,0.625,-0.069,-1.041,502.259,-153.827
7340.0,-1.052,0.112,-0.078,5.298,14.073,-7.196,-1.023,0.07,0.068,3.412,-1.001,1.131,-0.995,0.031,-0.135,1.96,-3.85,-2.31,-3.321,0.618,0.185,-68.43,506.533,-167.696
7360.0,-0.951,0.133,-0.119,1.164,17.13,-4.406,-1.015,0.101,0.066,3.29,-2.908,1.734,-1.001,0.032,-0.133,2.159,-4.289,-2.31,-3.23,0.324,-0.042,-131.706,483.023,-159.799
7380.0,-0.903,0.059,-0.096,-0.932,28.182,-0.911,-1.012,0.118,0.075,1.635,-3.651,1.446,-0.999,0.038,-0.129,1.861,-4.409,-2.504,-3.037,-0.071,-0.408,-108.895,424.283,-121.638
7400.0,-0.955,-0.002,-0.061,-1.072,37.772,0.718,-1.008,0.107,0.076,0.3,-4.204,0.86,-0.994,0.035,-0.127,1.497,-3.724,-2.589,-2.84,-0.284,-0.654,-36.132,341.289,-58.304
7420.0,-0.97,-0.016,-0.059,-0.571,41.615,-0.421,-1.011,0.094,0.074,1.17,-5.088,0.789,-0.999,0.032,-0.123,1.304,-2.85,-2.231,-2.61,-0.196,-0.644,44.569,269.661,-15.362
7440.0,-0.976,-0.01,-0.062,-0.286,43.164,-5.91,-1.005,0.097,0.078,3.069,-6.215,0.67,-1.013,0.023,-0.123,0.958,-2.871,-2.047,-2.488,-0.058,-0.551,104.641,216.867,13.792
7460.0,-1.039,0.006,-0.105,-1.951,36.243,-9.773,-1.015,0.102,0.097,3.246,-6.503,0.501,-1.014,0.031,-0.13,0.722,-3.739,-2.128,-2.347,0.085,-0.277,151.024,173.996,36.256
7480.0,-1.091,0.03,-0.169,-7.546,20.032,-10.006,-1.03,0.101,0.1,1.128,-5.91,1.021,-1.001,0.041,-0.143,0.198,-4.904,-2.57,-2.16,0.216,0.032,179.25,151.07,56.262
7500.0,-1.095,0.008,-0.256,-14.698,8.004,-9.242,-1.03,0.092,0.091,-0.27,-5.993,2.134,-0.992,0.029,-0.143,-0.252,-5.918,-2.66,-2.033,0.23,0.168,200.799,140.565,72.997
7520.0,-1.056,0.021,-0.307,-12.146,3.263,-6.86,-1.026,0.092,0.08,-0.078,-6.478,2.905,-0.989,0.021,-0.139,0.292,-6.84,-2.363,-1.867,0.226,0.229,218.914,132.564,81.555
7540.0,-0.978,0.045,-0.289,-11.151,0.792,-4.995,-1.012,0.099,0.081,-0.401,-7.675,3.345,-0.993,0.023,-0.129,0.857,-7.297,-1.901,-1.626,0.344,0.271,221.713,126.127,79.801
7560.0,-0.919,0.043,-0.296,-12.39,-2.318,-3.456,-1.001,0.102,0.096,-1.078,-8.089,3.414,-1.0,0.03,-0.119,0.79,-7.152,-1.903,-1.469,0.52,0.328,208.488,120.636,60.613
7580.0,-0.902,0.007,-0.318,-13.634,-1.633,-3.996,-0.998,0.104,0.113,-1.482,-7.277,3.208,-1.0,0.035,-0.115,0.264,-6.376,-2.112,-1.331,0.726,0.386,151.405,115.554,25.625
7600.0,-0.92,-0.002,-0.32,-13.79,-0.141,-2.209,-1.0,0.112,0.121,-2.608,-5.134,2.358,-0.998,0.031,-0.109,-0.782,-5.163,-2.393,-1.263,0.801,0.412,86.263,95.711,-5.744
7620.0,-0.979,-0.027,-0.31,-13.312,0.881,-1.278,-1.002,0.098,0.118,-2.754,-3.685,1.623,-0.997,0.032,-0.11,-0.902,-4.203,-2.651,-1.169,0.792,0.432,24.575,77.828,-29.563
7640.0,-1.008,-0.046,-0.306,-10.665,1.488,-1.723,-0.999,0.095,0.113,-1.188,-2.799,0.976,-0.995,0.035,-0.115,-0.795,-3.715,-2.769,-1.131,0.658,0.388,-32.249,61.833,-42.785
7660.0,-1.012,-0.047,-0.31,-6.596,2.85,-3.237,-1.003,0.114,0.11,-1.042,-1.597,0.362,-0.995,0.029,-0.12,-0.685,-3.479,-2.8,-1.084,0.543,0.391,-58.567,40.198,-45.504
7680.0,-1.011,-0.032,-0.299,-3.861,4.229,-4.733,-1.006,0.106,0.11,-1.51,-0.62,0.28,-0.995,0.023,-0.124,-0.083,-3.5,-2.765,-1.129,0.436,0.314,-79.22,-4.465,-45.628
7700.0,-0.998,0.021,-0.264,-3.238,3.837,-4.954,-1.009,0.097,0.107,-1.396,-0.125,0.316,-0.995,0.02,-0.122,0.596,-3.552,-2.755,-1.099,0.347,0.279,-88.06,-39.06,-39.34
7720.0,-0.971,0.038,-0.249,-3.737,2.417,-4.346,-1.015,0.092,0.103,-1.113,0.131,0.584,-0.999,0.023,-0.12,1.042,-3.477,-2.77,-1.05,0.26,0.199,-84.56,-65.94,-29.75
7740.0,-0.964,0.031,-0.246,-4.95,0.81,-3.432,-1.02,0.081,0.094,-0.106,-0.114,1.448,-0.996,0.027,-0.121,1.313,-3.316,-2.548,-1.055,0.233,0.122,-73.593,-95.667,-18.523
7760.0,-0.965,0.017,-0.257,-4.997,-1.938,-3.155,-1.017,0.084,0.089,0.917,-1.128,2.233,-0.989,0.025,-0.113,1.633,-2.815,-2.108,-1.064,0.277,0.117,-67.214,-116.893,-8.877
7780.0,-0.97,0.01,-0.274,-2.957,-4.498,-3.449,-1.011,0.104,0.091,0.664,-1.975,2.332,-1.0,0.022,-0.11,1.268,-2.331,-1.693,-1.15,0.314,0.116,-69.552,-135.47,-5.489
7800.0,-0.966,0.013,-0.278,-1.931,-6.305,-3.218,-1.011,0.106,0.099,-0.604,-2.279,2.073,-0.993,0.026,-0.108,0.81,-1.713,-1.581,-1.273,0.305,0.11,-69.726,-153.811,-0.764
7820.0,-0.961,0.018,-0.288,-1.225,-8.024,-1.768,-1.015,0.106,0.102,-0.706,-2.31,2.14,-0.99,0.029,-0.112,-0.026,-0.585,-1.595,-1.428,0.367,0.132,-70.973,-174.742,4.068
7840.0,-0.974,0.021,-0.292,-0.12,-8.794,-0.474,-1.012,0.113,0.102,-1.167,-2.205,1.798,-1.0,0.032,-0.113,0.188,-0.063,-1.89,-1.699,0.579,0.238,-95.317,-169.068,0.472
7860.0,-0.98,0.022,-0.276,-0.75,-9.659,0.371,-1.006,0.11,0.104,-1.932,-1.637,0.959,-0.987,0.034,-0.109,-0.734,1.022,-1.887,-2.171,0.542,0.225,-126.376,-179.174,-1.023
7880.0,-0.951,-0.01,-0.251,0.644,-9.577,0.501,-0.999,0.106,0.11,-1.89,-0.632,-0.161,-0.99,0.027,-0.115,-0.951,2.011,-1.722,-2.424,0.429,0.138,-125.754,-197.872,7.595
7900.0,-0.945,-0.02,-0.224,2.607,-8.727,1.093,-0.996,0.11,0.11,-1.915,0.821,-1.271,-0.996,0.019,-0.118,-1.161,2.442,-1.588,-2.652,0.329,-0.023,-111.642,-230.068,27.625
7920.0,-0.999,-0.016,-0.205,3.058,-12.364,3.122,-1.003,0.104,0.104,-1.698,1.697,-1.864,-0.993,0.017,-0.123,-1.386,2.722,-1.476,-2.974,0.22,-0.101,-73.858,-285.489,58.901
7940.0,-1.049,-0.037,-0.203,1.982,-21.585,3.911,-1.014,0.084,0.094,-0.159,1.959,-2.143,-1.003,0.024,-0.126,-0.714,2.156,-1.744,-3.309,0.235,-0.128,-36.176,-337.31,99.687
7960.0,-1.055,-0.083,-0.235,2.096,-28.829,2.119,-1.012,0.096,0.09,1.433,2.283,-2.282,-0.996,0.03,-0.129,-1.256,1.633,-1.333,-3.39,0.31,-0.242,-36.308,-401.394,132.494
7980.0,-1.059,-0.071,-0.223,1.489,-30.891,-0.096,-1.016,0.089,0.098,2.351,2.512,-2.328,-1.007,0.021,-0.139,-0.009,1.223,-1.608,-3.294,0.452,-0.255,-74.185,-460.516,135.061
8000.0,-1.038,-0.004,-0.178,0.388,-33.012,-3.237,-1.019,0.094,0.091,2.796,1.652,-1.568,-1.017,0.038,-0.148,-0.329,-0.47,-1.402,-3.193,0.504,-0.166,-128.201,-501.365,116.936
8020.0,-1.03,0.077,-0.171,-0.227,-34.852,-3.813,-1.026,0.096,0.08,1.759,1.148,-0.42,-1.008,0.04,-0.147,-0.837,-2.218,-1.597,-3.031,0.41,-0.08,-151.557,-518.046,98.14
8040.0,-1.05,0.109,-0.141,-0.097,-36.119,-2.636,-1.033,0.087,0.082,0.792,-0.163,1.215,-1.004,0.032,-0.153,-0.527,-4.215,-1.994,-2.713,0.405,-0.01,-151.729,-517.131,82.886
8060.0,-1.078,0.087,-0.099,1.463,-35.516,1.15,-1.029,0.086,0.086,0.863,-1.062,2.565,-0.996,0.025,-0.147,-0.09,-6.025,-2.03,-2.586,0.524,0.001,-147.243,-505.569,60.559
8080.0,-1.062,0.032,-0.06,1.089,-34.18,4.904,-1.026,0.097,0.078,0.225,-2.256,3.484,-0.995,0.026,-0.139,0.201,-7.08,-1.836,-2.243,0.612,-0.088,-163.739,-504.347,27.322
8100.0,-1.008,-0.021,-0.028,1.531,-31.744,6.358,-1.018,0.098,0.077,-0.655,-3.06,3.79,-1.004,0.028,-0.134,0.21,-7.993,-1.91,-1.882,0.526,-0.152,-159.759,-503.295,15.164
8120.0,-0.976,-0.027,0.004,3.172,-29.65,6.161,-1.01,0.099,0.075,-0.98,-4.255,3.925,-1.004,0.036,-0.126,-0.544,-8.505,-2.116,-1.505,0.482,-0.241,-149.455,-489.263,15.925
8140.0,-0.973,-0.029,0.034,4.551,-29.558,5.76,-1.017,0.097,0.076,-0.798,-5.272,3.99,-1.0,0.029,-0.127,-0.433,-8.359,-2.301,-1.277,0.521,-0.313,-88.102,-472.295,46.899
8160.0,-0.989,-0.025,0.048,4.742,-30.22,5.67,-1.017,0.09,0.085,0.393,-6.089,4.0,-1.001,0.025,-0.126,-0.065,-8.449,-2.473,-1.056,0.527,-0.143,-82.32,-458.01,64.05
8180.0,-0.996,-0.02,0.042,5.312,-30.694,5.612,-1.022,0.091,0.088,1.419,-6.733,4.268,-0.997,0.028,-0.116,-0.562,-8.142,-2.349,-0.627,0.54,-0.07,-96.482,-496.901,63.284
8200.0,-0.991,-0.013,0.008,4.216,-29.479,5.341,-1.027,0.091,0.092,1.96,-7.42,4.2,-0.991,0.026,-0.111,-1.05,-7.012,-2.135,-0.613,0.374,-0.125,-103.097,-397.562,60.49
8220.0,-0.975,0.005,-0.025,1.045,-23.745,4.658,-1.012,0.1,0.095,1.33,-7.35,3.85,-0.989,0.024,-0.109,-0.852,-6.379,-1.74,-0.342,0.245,-0.186,-88.401,-337.729,59.643
8240.0,-0.97,0.041,-0.03,-0.344,-17.482,3.963,-1.008,0.111,0.095,0.98,-8.05,3.29,-0.983,0.024,-0.109,-0.533,-5.563,-0.919,-0.271,0.13,-0.32,-67.107,-302.198,71.459
8260.0,-0.965,0.07,-0.013,-0.953,-14.87,4.095,-0.997,0.11,0.096,0.706,-6.345,2.771,-0.977,0.016,-0.107,-0.235,-3.48,-0.275,-0.157,0.156,-0.416,-65.027,-282.024,78.986
8280.0,-0.945,0.072,-0.012,-2.746,-13.829,4.226,-0.989,0.106,0.089,0.839,-7.345,1.985,-0.985,0.015,-0.1,0.268,-1.444,0.63,-0.016,0.311,-0.345,-91.908,-245.56,72.268
8300.0,-0.942,0.066,-0.037,-5.583,-13.332,2.948,-0.99,0.105,0.091,0.387,-7.155,1.611,-0.988,0.022,-0.099,0.087,0.36,1.31,0.152,0.177,-0.279,-122.909,-207.841,61.524
8320.0,-0.979,0.061,-0.042,-6.344,-13.053,1.508,-0.994,0.112,0.1,-1.151,-6.678,1.957,-0.986,0.026,-0.103,-0.396,2.593,1.569,0.188,0.038,-0.361,-118.387,-171.846,62.665
8340.0,-1.004,0.049,-0.032,-6.576,-14.262,0.574,-1.003,0.102,0.107,-1.609,-6.065,1.96,-0.998,0.035,-0.107,-0.941,3.618,1.689,0.247,0.026,-0.425,-117.29,-149.484,68.574
8360.0,-1.013,0.008,-0.049,-6.538,-14.319,-1.15,-1.006,0.108,0.129,-1.4,-4.34,1.26,-0.998,0.043,-0.124,-2.365,3.658,1.82,0.378,-0.046,-0.441,-119.926,-141.383,69.909
8380.0,-1.024,0.016,-0.059,-6.753,-11.599,-2.88,-1.011,0.103,0.136,-1.069,-2.169,0.637,-0.988,0.04,-0.129,-3.873,3.349,1.712,0.714,-0.363,-0.478,-105.126,-97.655,81.15
8400.0,-1.028,0.031,-0.049,-4.936,-9.314,-5.215,-1.014,0.114,0.116,-1.469,-0.834,0.388,-0.985,0.037,-0.127,-4.048,2.671,1.511,0.753,-0.469,-0.551,-42.888,-45.392,74.416
8420.0,-1.018,0.044,-0.036,-6.46,-9.44,-6.543,-1.005,0.116,0.115,-1.81,0.843,0.016,-0.986,0.027,-0.135,-2.815,1.472,1.417,0.754,-0.372,-0.557,-28.252,-38.042,60.762
8440.0,-0.974,0.035,-0.06,-6.547,-7.146,-7.015,-0.989,0.107,0.106,-1.404,2.808,-1.024,-0.993,0.039,-0.141,-1.942,0.336,1.033,0.815,-0.388,-0.496,-41.474,-30.845,51.189
8460.0,-0.968,0.03,-0.064,-4.321,-4.429,-7.407,-0.993,0.102,0.109,0.029,3.696,-1.776,-1.003,0.037,-0.141,-1.566,-0.846,0.666,0.938,-0.475,-0.369,-59.262,-8.251,40.547
8480.0,-0.995,0.042,-0.052,-3.084,-4.689,-7.029,-1.001,0.106,0.109,0.402,4.464,-2.365,-1.01,0.042,-0.136,-1.418,-1.966,0.453,0.967,-0.572,-0.281,-52.662,11.818,32.451
8500.0,-0.985,0.046,-0.076,-1.266,-3.571,-5.224,-1.019,0.109,0.106,0.313,5.587,-2.75,-1.013,0.037,-0.137,-1.076,-2.895,0.607,1.017,-0.614,-0.207,-34.968,15.67,31.77
8520.0,-0.992,0.044,-0.054,0.002,-2.031,-2.443,-1.023,0.098,0.091,-0.165,5.641,-2.587,-0.999,0.044,-0.132,-0.462,-3.289,0.259,1.153,-0.649,-0.075,-24.119,11.49,32.78
8540.0,-1.051,0.05,-0.074,1.62,-2.135,0.534,-1.017,0.084,0.076,1.099,4.603,-1.626,-0.992,0.052,-0.13,0.11,-3.221,-0.382,1.114,-0.727,-0.025,3.682,9.1,28.818
8560.0,-1.064,0.045,-0.045,2.671,-0.946,2.305,-1.016,0.089,0.073,2.182,3.127,-0.968,-0.997,0.042,-0.134,1.141,-3.449,-1.008,0.936,-0.661,0.004,33.238,0.91,18.44
8580.0,-1.05,-0.026,-0.012,-0.221,-2.694,1.88,-1.022,0.091,0.077,2.392,2.086,-0.558,-1.008,0.046,-0.131,1.417,-4.231,-1.481,0.924,-0.551,0.074,29.241,-13.178,10.35
8600.0,-1.012,-0.044,-0.007,0.361,-1.573,0.893,-1.027,0.085,0.078,2.641,0.605,0.419,-0.996,0.049,-0.132,1.741,-4.701,-1.633,0.923,-0.541,0.094,13.173,-16.921,4.299
8620.0,-0.996,-0.045,-0.022,4.889,-3.241,-0.566,-1.028,0.088,0.065,2.751,-2.183,2.083,-0.999,0.04,-0.127,1.332,-4.76,-1.953,0.858,-0.517,0.097,-0.123,-15.51,0.812
8640.0,-0.966,-0.01,-0.038,6.296,-0.732,-1.608,-1.018,0.093,0.065,2.973,-3.817,3.06,-0.996,0.048,-0.124,1.816,-4.629,-2.025,0.834,-0.532,0.094,-7.678,-7.141,0.978
8660.0,-0.986,0.036,-0.021,6.091,0.59,-1.478,-1.018,0.077,0.074,3.771,-5.449,3.742,-0.997,0.044,-0.127,1.82,-4.302,-2.358,0.808,-0.553,0.068,-8.321,-1.952,3.217
8680.0,-0.988,0.083,0.011,7.181,6.859,-1.234,-1.02,0.1,0.084,3.917,-6.556,4.298,-1.0,0.044,-0.127,1.2,-4.541,-2.709,0.755,-0.551,0.081,-5.778,1.688,5.732
8700.0,-1.037,0.106,0.088,6.163,6.172,0.301,-1.018,0.118,0.096,1.825,-6.598,4.479,-0.99,0.039,-0.13,1.3,-4.859,-2.73,0.738,-0.534,0.123,0.738,7.193,7.143
8720.0,-1.05,0.086,0.053,4.45,-2.65,0.936,-1.019,0.106,0.097,-0.407,-5.974,4.586,-0.989,0.042,-0.132,1.33,-4.941,-2.478,0.756,-0.545,0.116,8.969,10.721,8.224
8740.0,-1.009,0.051,-0.016,1.015,-1.147,1.048,-1.009,0.101,0.094,-0.795,-5.561,4.54,-0.996,0.041,-0.13,0.96,-5.27,-2.38,0.758,-0.57,0.084,11.023,13.777,7.602
8760.0,-0.997,0.04,-0.011,-0.733,1.6,0.442,-0.998,0.12,0.094,-1.49,-4.946,3.625,-0.997,0.036,-0.122,0.402,-5.233,-2.42,0.749,-0.557,0.053,5.519,16.098,2.683
8780.0,-0.99,0.038,-0.004,0.037,1.407,0.631,-1.004,0.122,0.098,-2.437,-4.36,2.939,-0.995,0.04,-0.116,0.35,-4.67,-2.561,0.734,-0.63,0.023,3.983,13.484,-3.144
8800.0,-0.99,0.025,-0.03,1.663,0.088,1.29,-1.011,0.113,0.096,-2.838,-3.69,2.245,-0.996,0.039,-0.111,0.35,-3.935,-2.453,0.783,-0.641,-0.03,17.166,16.448,-8.735
8820.0,-0.988,0.011,-0.057,1.54,1.26,1.96,-1.006,0.114,0.101,-3.007,-2.812,1.585,-0.995,0.034,-0.112,0.35,-3.118,-2.035,0.818,-0.546,-0.087,23.673,21.242,-15.305
8840.0,-0.996,0.006,-0.058,2.17,4.69,1.89,-1.001,0.113,0.105,-3.183,-1.951,0.908,-0.993,0.032,-0.113,-8.68,-2.019,-1.517,0.841,-0.485,-0.205,27.23,29.974,-21.377
8860.0,-1.001,0.016,-0.054,3.354,6.946,1.159,-1.0,0.116,0.105,-2.851,-0.658,0.139,-0.998,0.034,-0.113,-8.855,-1.016,-1.221,0.821,-0.435,-0.35,27.73,44.562,-27.701
8880.0,-1.001,0.018,-0.045,3.128,10.179,0.416,-1.005,0.116,0.103,-2.789,0.364,-0.654,-0.999,0.035,-0.117,-0.038,-0.307,-0.978,0.769,-0.447,-0.444,36.258,57.028,-29.891
8900.0,-1.023,0.009,-0.027,1.687,10.63,-0.494,-1.01,0.094,0.098,-1.534,0.547,-0.877,-0.995,0.034,-0.121,0.158,0.193,-0.618,0.744,-0.429,-0.436,57.975,76.165,-25.973
8920.0,-1.041,0.006,-0.055,1.532,7.595,-1.819,-1.014,0.1,0.09,0.205,0.692,-0.484,-0.994,0.04,-0.123,0.639,0.391,-0.49,0.688,-0.353,-0.388,77.401,102.092,-21.926
8940.0,-1.028,0.02,-0.098,5.39,8.61,-3.22,-1.016,0.102,0.09,0.84,0.56,-0.07,-0.99,0.044,-0.126,0.478,0.42,-0.53,0.556,-0.249,-0.368,95.268,131.382,-22.037
8960.0,-1.029,0.08,-0.086,8.12,9.1,-0.98,-1.015,0.099,0.098,-0.07,0.49,0.35,-0.992,0.043,-0.126,0.281,0.394,-0.733,0.391,-0.165,-0.356,108.78,158.13,-26.53
8980.0,-1.028,0.095,-0.055,5.53,9.17,1.47,-1.017,0.086,0.085,0.686,0.185,0.613,-0.996,0.043,-0.125,0.893,0.471,-1.0,0.267,-0.12,-0.323,120.736,179.462,-32.735
9000.0,-1.013,0.083,-0.057,1.697,5.846,3.174,-1.013,0.104,0.081,1.524,-0.496,0.452,-0.996,0.049,-0.122,1.192,0.892,-1.421,0.177,-0.14,-0.299,156.461,196.205,-35.618
9020.0,-0.984,0.061,-0.066,-16.742,5.826,2.585,-1.008,0.11,0.076,0.761,-1.033,0.059,-0.995,0.045,-0.132,1.401,0.705,-1.909,0.103,-0.09,-0.347,184.998,214.591,-40.432
9040.0,-0.962,0.033,-0.046,-3.193,7.568,1.996,-1.001,0.102,0.086,0.632,-0.984,-0.336,-0.997,0.044,-0.138,1.395,0.213,-2.262,0.02,-0.033,-0.358,223.179,240.331,-49.917
9060.0,-0.948,-0.005,-0.036,-3.686,10.078,0.825,-1.008,0.087,0.091,0.686,-1.036,-0.265,-1.001,0.046,-0.144,0.954,-0.88,-2.789,-0.188,0.05,-0.375,250.908,260.897,-66.368
9080.0,-0.972,-0.003,-0.018,-2.17,12.482,-2.271,-1.017,0.105,0.088,-0.255,-0.915,-0.086,-1.002,0.044,-0.148,0.49,-2.544,-3.24,-0.263,0.198,-0.534,275.474,275.812,-93.189
9100.0,-1.021,0.027,-0.013,2.361,10.258,-3.903,-1.016,0.092,0.084,-0.496,-0.794,0.217,-0.997,0.04,-0.148,0.502,-4.097,-3.338,-0.407,0.497,-0.247,273.136,332.06,-119.529
9120.0,-1.02,0.037,-0.06,6.291,9.253,-4.255,-1.009,0.091,0.086,0.578,-0.715,0.677,-0.993,0.043,-0.144,0.654,-5.125,-3.226,-0.752,0.791,-0.169,254.378,356.684,-156.548
9140.0,-1.007,0.006,-0.054,5.476,15.724,-3.454,-1.01,0.101,0.088,1.017,-0.168,0.735,-0.995,0.035,-0.135,0.974,-5.777,-3.423,-0.831,0.722,-0.309,219.428,404.168,-187.491
9160.0,-0.985,-0.007,-0.008,3.678,18.738,-3.34,-1.016,0.096,0.083,-0.673,0.568,0.685,-1.007,0.036,-0.133,0.787,-6.06,-2.953,-1.039,0.762,-0.277,225.064,457.588,-189.95
9180.0,-0.965,0.008,-0.016,5.302,17.519,-4.604,-1.021,0.092,0.08,-1.241,0.498,1.092,-0.993,0.033,-0.134,1.328,-6.421,-2.187,-1.468,1.103,-0.044,224.397,533.709,-198.254
9200.0,-0.991,-0.005,-0.022,6.307,18.327,-4.246,-1.022,0.089,0.076,-0.95,0.039,1.884,-0.993,0.019,-0.125,1.246,-6.094,-1.429,-1.981,1.326,0.054,161.467,591.13,-219.321
9220.0,-1.009,-0.015,0.012,6.254,18.18,-3.829,-1.015,0.081,0.073,-0.267,-0.782,2.783,-1.007,0.034,-0.122,1.059,-6.224,-1.191,-2.187,0.941,-0.223,16.819,610.774,-224.015
9240.0,-1.003,0.014,-0.004,8.56,13.572,-5.222,-1.011,0.093,0.082,0.984,-1.509,3.03,-1.002,0.043,-0.117,1.307,-5.78,-1.273,-2.246,0.436,-0.561,-43.776,620.092,-202.479
9260.0,-1.002,0.047,-0.065,10.579,11.694,-7.369,-1.016,0.104,0.083,1.057,-1.282,2.717,-0.99,0.039,-0.116,1.004,-4.641,-1.32,-2.785,0.115,-0.867,-75.818,611.792,-151.934
9280.0,-1.011,0.077,-0.101,10.693,13.933,-7.737,-1.011,0.11,0.083,0.116,-0.246,2.299,-0.983,0.037,-0.116,1.328,-3.204,-1.128,-3.515,0.051,-0.806,-66.476,562.493,-86.821
9300.0,-1.023,0.107,-0.112,7.868,20.421,-4.491,-1.006,0.117,0.081,-0.525,0.123,1.138,-0.99,0.037,-0.116,1.2,-2.325,-0.989,-3.946,-0.046,-0.373,-45.991,513.439,-51.681
9320.0,-1.01,0.065,-0.1,3.71,22.941,-2.601,-1.011,0.11,0.076,-0.704,0.324,0.044,-0.999,0.034,-0.121,0.91,-2.17,-0.7,-4.134,0.124,0.125,-35.473,460.478,-55.021
9340.0,-1.003,0.021,-0.076,3.121,22.784,-3.071,-1.004,0.108,0.082,0.22,0.946,-0.715,-0.998,0.031,-0.12,0.834,-1.868,-0.63,-3.462,0.127,-0.011,-23.71,365.135,-60.056
9360.0,-1.012,0.005,-0.067,3.331,19.822,-6.114,-1.016,0.108,0.072,-0.003,0.667,-1.2,-0.999,0.038,-0.117,0.616,-1.116,-0.63,-3.158,0.038,-0.387,0.948,259.629,-47.911
9380.0,-0.994,0.04,-0.109,-2.476,17.112,-10.068,-1.017,0.095,0.07,0.475,0.241,-1.26,-1.001,0.045,-0.121,0.274,-0.511,-0.805,-2.404,-0.03,-0.45,31.979,157.634,-13.091
9400.0,-0.991,0.106,-0.12,-10.747,13.347,-12.611,-1.016,0.104,0.064,-0.154,-1.018,-1.377,-1.006,0.045,-0.126,-0.21,-0.796,-0.991,-1.963,-0.034,-0.263,62.65,105.56,23.8
9420.0,-1.013,0.138,-0.129,-22.815,5.831,-8.76,-1.018,0.109,0.074,-1.74,-1.606,-1.95,-1.008,0.036,-0.135,-0.213,-1.661,-1.278,-1.705,0.049,-0.07,77.913,75.953,52.489
9440.0,-1.079,0.051,-0.182,-24.263,-1.182,-5.575,-1.027,0.105,0.077,-2.224,-1.96,-2.058,-0.998,0.052,-0.139,-0.91,-2.911,-1.736,-1.65,0.009,0.054,95.989,48.348,83.963
9460.0,-1.109,-0.048,-0.201,-19.157,-4.422,-3.241,-1.029,0.088,0.063,-2.324,-3.129,-1.201,-0.995,0.043,-0.139,-1.047,-4.019,-2.146,-1.596,-0.085,0.174,143.398,24.942,111.479
9480.0,-1.078,-0.105,-0.191,-12.81,-7.0,-2.8,-1.02,0.078,0.061,-1.028,-4.331,0.121,-0.992,0.04,-0.135,-0.315,-4.855,-2.014,-1.488,0.045,0.303,168.999,-2.663,129.473
9500.0,-1.023,-0.103,-0.18,-7.844,-8.59,-4.475,-1.017,0.081,0.061,-0.797,-5.515,1.064,-0.988,0.035,-0.127,1.077,-5.141,-1.992,-1.151,0.259,0.446,200.125,10.302,129.419
9520.0,-0.976,-0.062,-0.183,-4.03,-10.555,-5.694,-1.016,0.093,0.073,-1.66,-5.712,1.751,-0.988,0.038,-0.127,0.758,-5.246,-2.223,-1.101,0.362,0.424,214.169,25.978,115.78
9540.0,-0.921,0.004,-0.234,-0.971,-10.255,-5.24,-1.016,0.095,0.081,-2.077,-5.412,2.1,-0.99,0.034,-0.124,0.806,-5.182,-2.164,-1.089,0.525,0.355,208.713,26.385,89.899
9560.0,-0.922,0.079,-0.258,-0.106,-6.16,-3.326,-1.007,0.096,0.082,-2.448,-4.574,2.094,-0.991,0.035,-0.118,1.448,-4.694,-1.928,-1.013,0.754,0.329,160.364,20.928,55.649
9580.0,-0.972,0.067,-0.248,-0.43,-2.628,-1.438,-1.01,0.095,0.077,-2.286,-4.223,1.803,-0.987,0.039,-0.109,1.725,-2.727,-1.682,-0.999,0.849,0.322,82.366,11.116,18.787
9600.0,-0.995,0.019,-0.238,-1.07,-0.655,-1.704,-1.007,0.091,0.086,-1.837,-3.563,1.649,-0.986,0.04,-0.103,2.04,-0.074,-1.346,-0.996,0.822,0.301,-0.369,-9.402,-10.345
9620.0,-1.004,-0.03,-0.219,-2.348,0.311,-2.326,-1.002,0.103,0.082,-1.14,-2.525,1.058,-0.984,0.035,-0.101,2.17,2.589,-1.091,-0.994,0.69,0.248,-60.479,-28.678,-31.335
9640.0,-0.992,-0.037,-0.199,-2.486,1.231,-2.506,-0.994,0.082,0.109,-0.136,-0.597,0.722,-0.978,0.034,-0.1,2.627,5.664,-0.566,-1.006,0.56,0.203,-95.632,-43.758,-43.576
9660.0,-0.969,-0.02,-0.17,-1.182,1.994,-2.214,-1.006,0.102,0.105,1.948,1.855,0.1,-0.977,0.022,-0.108,3.47,8.178,0.253,-1.017,0.442,0.165,-113.877,-58.845,-47.328
9680.0,-0.959,-0.012,-0.158,2.546,1.732,-1.428,-1.017,0.103,0.083,1.474,3.702,-0.47,-0.993,0.014,-0.121,3.53,8.789,0.459,-1.066,0.297,0.136,-116.562,-77.561,-45.464
9700.0,-0.955,-0.019,-0.187,6.414,-0.229,-0.563,-1.025,0.079,0.059,1.605,3.066,-0.786,-0.995,0.048,-0.14,6.511,7.852,0.657,-1.135,0.21,0.141,-107.184,-88.753,-36.776
9720.0,-0.947,-0.018,-0.2,8.778,-0.512,1.083,-1.007,0.08,0.058,3.035,1.401,-0.939,-0.997,0.05,-0.142,5.412,8.092,0.269,-1.267,0.188,0.177,-93.124,-94.239,-27.702
9740.0,-0.949,-0.018,-0.189,10.94,1.142,1.54,-1.007,0.083,0.074,3.625,2.269,-1.748,-1.013,0.041,-0.146,5.675,7.032,-0.671,-1.612,0.199,0.359,-78.127,-96.769,-19.565
9760.0,-0.971,-0.015,-0.18,13.212,1.092,1.471,-1.004,0.111,0.106,4.023,3.155,-3.739,-1.018,0.054,-0.174,6.02,4.638,-1.018,-2.039,0.119,0.383,-69.186,-110.562,-11.313
9780.0,-0.982,-0.003,-0.183,14.14,0.227,1.79,-1.021,0.114,0.073,3.092,3.616,-4.721,-1.009,0.085,-0.178,3.562,2.358,-1.62,-2.346,0.053,0.299,-44.362,-133.68,5.574
9800.0,-0.996,0.002,-0.18,14.337,0.996,2.062,-1.045,0.065,0.046,1.787,2.273,-2.499,-1.014,0.074,-0.188,2.481,-1.821,-2.643,-2.633,0.168,0.183,-29.176,-192.979,34.703
9820.0,-1.098,0.006,-0.159,14.919,-1.457,2.046,-1.042,0.054,0.027,2.219,-1.127,1.393,-1.02,0.06,-0.197,2.802,-6.897,-4.001,-2.718,0.231,0.135,-33.284,-257.635,71.987
9840.0,-1.161,0.013,-0.124,12.642,-13.118,1.014,-1.036,0.065,0.033,2.114,-5.769,4.516,-1.012,0.062,-0.179,2.485,-10.412,-6.11,-2.812,0.097,0.045,-8.981,-320.917,111.063
9860.0,-1.161,0.051,-0.138,4.719,-20.751,-1.367,-1.04,0.075,0.038,1.448,-10.029,7.484,-1.014,0.058,-0.17,2.704,-13.544,-7.688,-2.979,0.299,0.08,11.167,-369.469,139.386
9880.0,-1.126,0.074,-0.16,-0.563,-27.28,-1.747,-1.045,0.091,0.039,-0.72,-13.174,9.305,-1.011,0.053,-0.161,3.142,-15.932,-8.567,-3.015,0.55,0.112,1.019,-410.252,148.535
9900.0,-1.09,0.078,-0.165,0.011,-30.757,0.552,-1.024,0.093,0.049,-2.151,-15.645,10.688,-0.997,0.041,-0.147,1.965,-17.218,-8.737,-2.93,0.812,0.123,-59.817,-444.148,146.918
9920.0,-1.031,0.029,-0.121,1.708,-31.197,3.253,-1.02,0.12,0.07,-2.708,-16.267,10.492,-0.996,0.029,-0.11,1.484,-17.595,-8.583,-2.912,0.962,0.042,-108.36,-478.17,117.53
9940.0,-1.001,-0.01,-0.074,1.852,-30.897,4.397,-1.011,0.123,0.09,-5.145,-15.205,9.702,-0.998,0.025,-0.029,1.15,-17.511,-7.62,-2.546,0.859,0.089,-156.1,-491.96,88.69
9960.0,-1.004,-0.054,-0.048,2.618,-31.25,4.924,-1.003,0.12,0.101,-6.811,-13.742,8.692,-1.001,0.011,-0.13,0.82,-18.049,-6.67,-2.254,0.833,0.095,-165.55,-468.58,66.71
9980.0,-1.007,-0.064,-0.071,1.854,-31.204,3.012,-1.006,0.116,0.103,-6.236,-12.473,8.191,-1.0,0.024,-0.115,-0.28,-17.863,-6.278,-2.056,0.957,0.087,-182.28,-455.56,39.55
10000.0,-1.003,-0.036,-0.048,2.02,-27.866,-1.903,-1.004,0.112,0.106,-5.974,-10.605,7.38,-0.994,0.044,-0.1,-0.572,-17.149,-5.495,-1.917,0.971,0.086,-196.56,-447.51,16.73
10020.0,-0.993,0.024,0.017,4.386,-27.027,-3.128,-1.005,0.095,0.102,-4.984,-9.893,6.545,-0.991,0.029,-0.099,-2.166,-16.775,-5.346,-1.678,0.974,-0.027,-229.859,-445.764,5.221
10040.0,-0.996,0.048,0.059,4.242,-27.335,-0.792,-1.011,0.098,0.102,-2.753,-9.901,5.954,-0.996,0.008,-0.076,-3.347,-15.463,-5.29,-1.423,0.653,-0.032,-227.567,-426.724,10.773
10060.0,-0.997,0.067,0.084,1.844,-26.496,2.349,-1.019,0.107,0.1,-1.96,-10.24,5.978,-0.994,0.047,-0.085,-2.859,-13.584,-5.688,-1.398,0.74,0.015,-199.468,-404.172,11.128
10080.0,-1.001,0.032,0.087,1.554,-27.905,4.251,-1.025,0.105,0.098,-1.862,-10.661,6.727,-0.98,0.044,-0.075,-4.444,-12.289,-5.775,-1.298,0.753,-0.069,-197.343,-412.216,6.528
10100.0,-0.99,0.024,0.079,2.73,-22.795,4.876,-1.026,0.089,0.097,-0.384,-11.738,7.369,-0.982,-0.006,-0.062,-1.847,-10.68,-4.811,-1.0,0.521,-0.257,-199.066,-432.48,0.729
10120.0,-1.011,0.03,0.11,2.461,-20.155,5.564,-1.016,0.087,0.103,1.191,-13.024,7.811,-0.993,0.003,-0.065,0.674,-9.151,-4.092,-0.555,0.179,-0.259,-144.648,-412.489,9.367
10140.0,-0.983,0.036,0.084,-0.621,-18.511,5.343,-0.993,0.118,0.119,2.276,-12.813,7.614,-0.983,0.002,-0.065,2.463,-7.045,-3.268,-0.37,0.094,-0.253,-90.585,-378.248,26.923
10160.0,-0.976,0.025,0.047,-1.61,-15.19,6.51,-0.988,0.152,0.127,3.049,-12.001,6.546,-0.982,0.009,-0.068,2.505,-4.556,-2.299,-0.512,0.32,-0.295,-68.958,-383.476,44.019
10180.0,-0.964,-0.006,0.006,-4.34,-10.5,5.6,-1.005,0.17,0.132,-1.31,-13.085,6.099,-0.994,0.01,-0.066,1.579,-2.728,-1.63,-0.358,0.423,-0.339,-95.06,-383.6,39.9
10200.0,-0.958,0.005,-0.022,-5.81,-4.27,3.78,-0.99,0.147,0.131,-3.191,-11.031,5.269,-0.986,0.004,-0.067,0.461,-0.368,-1.236,0.31,0.176,-0.273,-100.24,-349.3,33.74
10220.0,-0.974,0.019,0.009,-3.71,-0.07,1.75,-0.984,0.127,0.135,-3.843,-9.402,4.85,-0.992,0.003,-0.082,0.284,0.712,-0.666,0.049,-0.126,-0.467,-70.172,-312.647,48.63
10240.0,-0.989,0.026,0.017,-0.259,-0.381,-0.368,-0.982,0.125,0.151,-3.774,-7.792,3.981,-1.002,0.002,-0.087,0.91,0.84,0.14,0.184,-0.149,-0.565,-8.985,-239.624,54.273
10260.0,-0.978,0.039,-0.016,1.396,-1.637,-1.26,-0.995,0.134,0.154,-3.7,-5.683,3.214,-0.996,0.023,-0.086,0.591,0.893,0.989,0.216,0.057,-0.697,-45.831,-213.453,52.155
10280.0,-0.978,0.041,-0.072,0.611,0.938,-1.463,-1.005,0.14,0.156,-3.553,-3.934,2.436,-1.0,0.027,-0.084,-0.158,1.166,1.111,0.334,-0.128,-0.864,-97.33,-187.95,51.439
10300.0,-1.024,0.056,-0.061,-1.778,1.998,-0.97,-0.996,0.127,0.146,-3.311,-2.932,1.519,-1.0,0.017,-0.084,-1.367,1.602,1.072,0.484,-0.204,-0.871,-103.147,-157.536,49.927
10320.0,-1.072,0.07,-0.025,-3.535,-1.117,-0.448,-0.99,0.136,0.151,-1.308,-1.267,0.465,-1.0,0.017,-0.095,-0.617,1.548,1.05,0.757,-0.419,-0.907,-55.704,-109.624,44.939
10340.0,-1.051,0.067,-0.027,-5.11,-3.898,-0.979,-0.987,0.138,0.148,-1.26,-0.062,-0.796,-1.001,0.026,-0.094,-0.971,0.993,0.773,0.774,-0.408,-0.875,-26.612,-66.046,43.558
10360.0,-1.002,0.047,-0.062,-8.762,-4.529,-2.438,-0.99,0.14,0.144,-0.948,1.537,-1.793,-0.989,0.02,-0.089,-0.969,1.639,0.762,0.99,-0.419,-0.762,-10.433,-19.691,40.121
10380.0,-0.978,0.002,-0.07,-10.391,-4.55,-3.735,-0.991,0.136,0.147,-0.536,2.666,-2.762,-0.996,0.024,-0.089,-0.783,2.279,0.706,1.001,-0.455,-0.704,-3.685,0.81,35.901
10400.0,-0.969,-0.006,-0.059,-8.837,-4.803,-3.733,-0.985,0.138,0.146,-1.588,4.91,-3.998,-1.016,0.028,-0.096,-0.461,2.044,0.358,0.986,-0.464,-0.654,-2.704,20.541,30.308
10420.0,-0.975,-0.022,-0.028,-4.832,-4.762,-2.928,-1.007,0.139,0.139,-1.067,6.694,-5.004,-1.013,0.033,-0.106,-0.841,1.272,-0.062,1.043,-0.497,-0.553,1.848,45.516,25.688
10440.0,-1.007,-0.022,-0.015,1.194,-8.326,-1.273,-1.028,0.117,0.112,-1.188,6.478,-4.67,-1.009,0.028,-0.106,-1.386,0.486,-0.19,1.064,-0.565,-0.367,19.284,61.016,24.373
10460.0,-1.016,-0.012,-0.016,2.817,-11.977,0.002,-1.028,0.099,0.106,0.71,4.513,-3.077,-1.012,0.022,-0.109,-1.068,-0.82,-0.13,1.053,-0.564,-0.152,24.025,62.475,22.491
10480.0,-1.006,-0.001,-0.022,2.813,-9.791,-0.092,-1.025,0.086,0.101,3.058,2.041,-1.846,-1.013,0.031,-0.115,-0.539,-2.336,-0.215,1.043,-0.571,-0.007,18.663,61.819,20.051
10500.0,-1.008,0.027,-0.008,3.237,-5.434,-1.199,-1.023,0.094,0.098,5.487,-0.862,-0.114,-1.009,0.034,-0.11,-0.659,-3.401,-0.831,0.993,-0.579,0.116,12.587,58.161,18.481
10520.0,-1.014,0.053,-0.004,3.311,-2.423,-1.803,-1.021,0.12,0.104,5.533,-2.857,1.218,-1.003,0.032,-0.103,-0.076,-3.695,-1.079,0.889,-0.559,0.181,2.423,38.666,14.281
10540.0,-1.013,0.056,0.003,3.304,1.491,-1.721,-1.023,0.116,0.11,4.829,-4.435,2.486,-0.994,0.027,-0.093,0.528,-3.32,-1.314,0.839,-0.612,0.184,-6.665,31.74,7.054
10560.0,-1.021,0.054,0.053,3.74,4.175,-0.926,-1.024,0.106,0.114,5.007,-4.885,3.382,-0.994,0.025,-0.085,0.521,-1.836,-1.577,0.803,-0.609,0.211,3.174,22.106,6.097
10580.0,-1.029,0.043,0.064,3.76,3.062,0.384,-1.011,0.113,0.123,5.39,-4.44,3.505,-1.0,0.027,-0.099,0.513,-1.12,-1.603,0.779,-0.561,0.182,10.194,15.897,4.565
10600.0,-1.016,0.023,0.017,3.147,2.009,1.297,-0.996,0.153,0.129,3.432,-2.925,3.002,-0.991,0.031,-0.101,0.82,-0.665,-1.478,0.754,-0.532,0.157,21.981,10.058,-4.958
10620.0,-0.985,0.018,-0.038,2.416,5.694,1.924,-0.996,0.151,0.131,0.835,-1.517,1.925,-0.982,0.014,-0.098,0.66,0.949,-0.737,0.714,-0.443,0.019,11.624,2.227,-8.038
10640.0,-0.986,0.03,-0.017,2.289,8.468,2.217,-0.989,0.145,0.132,-0.385,0.215,0.282,-0.983,0.007,-0.088,1.105,2.611,-0.355,0.791,-0.424,-0.1,28.845,3.907,-10.243
10660.0,-0.972,0.04,-0.008,1.903,11.063,2.111,-0.977,0.148,0.144,-0.413,2.937,-2.045,-0.996,0.015,-0.084,1.157,4.017,-0.436,0.828,-0.453,-0.258,35.937,5.86,-13.572
10680.0,-0.959,0.051,-0.014,1.673,12.332,1.83,-0.984,0.148,0.157,0.134,6.399,-4.561,-1.007,0.005,-0.1,0.075,5.425,-0.894,0.861,-0.471,-0.416,58.805,20.509,-11.551
10700.0,-0.97,0.061,-0.036,1.445,12.334,2.072,-1.002,0.13,0.125,-1.445,8.185,-5.67,-1.021,0.028,-0.133,1.709,3.912,-1.587,0.892,-0.422,-0.525,78.609,45.317,-11.282
10720.0,-0.996,0.056,-0.053,-0.061,12.219,2.973,-1.01,0.111,0.12,-1.09,8.321,-5.797,-1.021,0.068,-0.13,-0.874,2.667,-2.495,0.906,-0.397,-0.668,94.463,78.576,-9.823
10740.0,-1.027,0.041,-0.061,0.14,13.16,3.29,-1.017,0.085,0.092,0.364,6.437,-5.516,-1.026,0.047,-0.145,-2.094,-0.706,-3.902,0.933,-0.373,-0.734,108.64,108.64,-7.98
10760.0,-1.049,0.022,-0.016,0.998,12.2,4.098,-1.016,0.092,0.082,2.079,4.191,-4.001,-1.019,0.034,-0.147,-0.94,-3.538,-4.757,0.906,-0.279,-0.75,131.678,152.908,-6.794
10780.0,-1.05,-0.001,-0.031,0.379,10.585,4.256,-1.043,0.095,0.081,4.076,0.992,-2.203,-1.014,0.029,-0.145,-0.079,-7.365,-5.646,0.788,-0.238,-0.702,156.87,203.268,-5.719
10800.0,-1.061,-0.011,-0.043,-0.684,12.361,1.764,-1.043,0.076,0.068,4.76,-1.82,0.21,-1.008,0.036,-0.131,-0.196,-9.721,-6.179,0.536,-0.068,-0.658,168.447,251.585,-5.461
10820.0,-1.081,0.031,-0.027,0.252,10.553,0.144,-1.045,0.087,0.072,4.27,-5.32,3.71,-0.996,0.024,-0.124,-0.051,-11.103,-6.172,0.297,0.057,-0.605,160.037,284.331,-11.82
10840.0,-1.081,0.069,-0.015,0.979,8.606,-0.837,-1.037,0.11,0.08,3.5,-8.05,5.67,-0.985,0.022,-0.102,-0.471,-10.605,-5.334,0.048,0.023,-0.503,158.97,309.553,-16.27
10860.0,-1.06,0.107,0.014,0.719,3.571,-0.5,-1.024,0.14,0.087,1.12,-9.45,5.88,-0.981,0.009,-0.094,-0.211,-9.857,-4.733,-0.077,0.089,-0.405,163.973,339.471,-18.478
10880.0,-1.04,0.07,-0.039,-0.644,-3.552,-1.235,-1.013,0.116,0.102,0.112,-10.121,6.001,-0.98,0.004,-0.092,-0.512,-7.425,-3.368,-0.313,0.319,-0.297,184.716,346.886,-30.195
10900.0,-0.983,0.038,-0.091,-2.29,-5.687,-2.358,-1.01,0.116,0.114,0.135,-9.371,6.087,-0.982,-0.014,-0.076,0.742,-4.652,-2.003,-0.477,0.468,-0.223,187.58,357.795,-49.802
10920.0,-0.928,0.018,-0.116,-1.261,-3.007,-2.895,-0.984,0.117,0.129,-0.057,-7.801,5.156,-0.995,-0.003,-0.084,1.82,-2.66,-0.56,-0.55,0.542,-0.218,174.899,386.198,-63.968
10940.0,-0.903,-0.007,-0.114,2.485,6.102,-3.007,-0.984,0.13,0.131,-1.157,-5.538,4.035,-0.989,0.022,-0.083,0.28,-0.56,-0.21,-0.672,0.572,-0.321,153.812,394.699,-72.339
10960.0,-0.926,-0.024,-0.037,6.37,13.44,-2.1,-0.998,0.109,0.129,-0.828,-3.724,3.212,-0.995,0.018,-0.102,0.419,0.874,0.056,-0.861,0.517,-0.39,144.573,392.138,-75.293
10980.0,-0.984,-0.05,0.012,9.94,13.58,-2.17,-0.996,0.105,0.122,0.695,-2.319,2.968,-0.995,0.017,-0.108,0.28,1.33,0.35,-1.074,0.553,-0.374,148.386,425.011,-78.638
11000.0,-0.989,-0.042,0.025,8.914,11.871,-3.203,-0.997,0.11,0.117,1.709,-1.747,2.88,-1.002,0.016,-0.11,1.209,0.931,0.529,-1.506,0.863,-0.257,138.499,468.778,-86.776
11020.0,-0.955,-0.007,-0.021,9.717,16.424,-3.885,-1.004,0.113,0.113,2.423,-1.274,2.92,-1.002,0.026,-0.113,1.802,0.009,0.827,-2.027,0.918,-0.024,80.471,484.694,-91.971
11040.0,-1.084,0.042,-0.008,9.763,21.729,-4.1,-1.007,0.121,0.111,2.766,-1.19,2.94,-1.0,0.027,-0.12,0.87,-0.884,0.569,-2.179,0.767,-0.054,10.423,539.382,-94.911
11060.0,-1.076,0.045,0.068,7.495,20.19,-4.171,-1.008,0.129,0.108,2.747,-1.153,2.659,-1.007,0.021,-0.124,0.918,-2.017,0.617,-2.31,0.509,-0.467,-26.389,584.992,-77.881
11080.0,-0.983,0.052,0.027,7.162,19.81,-5.445,-1.009,0.117,0.12,2.84,-0.945,2.376,-0.998,0.028,-0.116,1.397,-3.005,0.332,-2.791,0.242,-0.829,-43.041,571.045,-45.287
11100.0,-1.001,0.105,0.014,5.963,21.277,-7.669,-1.012,0.117,0.121,2.87,-0.432,2.082,-0.995,0.036,-0.108,1.223,-2.739,-0.05,-3.251,0.037,-0.598,0.222,494.899,-11.774
11120.0,-1.061,0.144,-0.003,-2.651,20.792,-9.101,-1.009,0.129,0.107,2.581,-0.304,1.56,-1.002,0.03,-0.106,0.838,-2.549,-0.477,-3.378,0.0,-0.664,5.339,467.096,9.571
11140.0,-0.996,0.128,-0.027,-11.334,22.703,-9.24,-1.009,0.144,0.103,1.062,-0.56,0.932,-0.998,0.032,-0.094,0.094,-1.682,-0.409,-3.417,0.055,-0.494,26.11,423.29,27.3
11160.0,-0.964,0.087,-0.068,-11.958,25.739,-10.118,-1.015,0.147,0.103,-1.378,-0.87,0.29,-0.996,0.015,-0.082,-1.609,0.226,-0.603,-3.133,0.009,-0.377,57.96,378.07,35.07
11180.0,-0.959,0.076,-0.093,-9.636,32.342,-9.494,-1.009,0.134,0.104,-3.074,-0.709,-0.279,-1.004,0.017,-0.103,-1.188,0.119,-0.738,-3.073,0.345,-0.373,39.27,323.82,30.66
11200.0,-0.947,0.044,-0.09,-10.471,39.271,-8.982,-0.997,0.114,0.116,-2.839,-0.054,-0.758,-1.006,0.029,-0.118,-1.201,0.068,-0.879,-2.894,0.328,-0.318,7.56,268.1,31.64
11220.0,-0.947,0.024,-0.107,-14.397,37.382,-9.879,-0.999,0.117,0.122,-2.426,0.891,-1.191,-1.001,0.033,-0.11,-2.96,0.124,-1.502,-2.698,0.193,-0.225,-11.371,212.954,37.28
11240.0,-0.97,0.02,-0.178,-17.777,31.352,-11.167,-1.011,0.134,0.105,-2.886,1.978,-1.453,-0.999,0.027,-0.108,-2.683,0.029,-1.785,-2.485,0.123,-0.119,-5.959,165.872,45.473
11260.0,-1.078,0.017,-0.235,-18.2,24.969,-11.157,-1.011,0.127,0.103,-2.696,2.54,-1.717,-1.003,0.031,-0.115,-1.627,0.407,-1.978,-2.193,0.028,0.219,-2.841,134.173,56.595
11280.0,-1.132,0.004,-0.238,-18.414,16.707,-9.492,-1.007,0.133,0.111,-3.136,3.539,-2.352,-0.999,0.041,-0.116,-1.839,0.782,-2.223,-1.968,-0.019,0.445,11.928,123.654,71.32
11300.0,-1.128,-0.037,-0.238,-18.599,8.95,-8.855,-1.011,0.134,0.115,-3.023,4.576,-2.763,-0.976,0.028,-0.106,-2.301,2.081,-1.877,-1.747,-0.075,0.503,56.092,115.348,86.169
11320.0,-1.089,-0.059,-0.236,-17.444,3.684,-8.859,-1.028,0.125,0.1,-2.698,4.248,-2.772,-0.959,-0.005,-0.078,-2.682,6.136,-0.229,-1.519,-0.059,0.509,99.392,102.787,94.831
11340.0,-1.026,-0.045,-0.235,-11.597,0.915,-8.35,-1.019,0.077,0.087,-1.382,3.85,-1.753,-0.968,-0.045,-0.071,-2.651,9.516,1.542,-1.341,0.103,0.525,106.041,91.648,93.779
11360.0,-0.94,-0.001,-0.245,-6.433,0.525,-5.713,-1.002,0.077,0.101,2.452,4.017,-1.782,-1.01,0.003,-0.142,1.448,9.209,1.772,-1.307,0.243,0.584,84.926,75.183,73.734
11380.0,-0.897,-0.001,-0.256,-5.896,1.116,-4.018,-0.991,0.135,0.121,5.131,7.13,-4.827,-1.011,0.043,-0.138,3.786,9.031,1.781,-1.342,0.291,0.6,17.553,44.707,44.107
11400.0,-0.89,-0.012,-0.272,-5.286,1.088,-2.752,-0.993,0.175,0.137,2.024,9.989,-7.342,-1.017,0.036,-0.147,3.376,8.508,1.174,-1.327,0.18,0.556,-22.942,7.659,27.012
11420.0,-0.927,-0.024,-0.27,0.304,1.936,-1.333,-1.01,0.128,0.063,-0.77,9.38,-7.07,-1.003,0.039,-0.131,4.599,8.067,0.886,-1.292,-0.01,0.501,-24.79,-32.992,13.758
11440.0,-1.003,-0.023,-0.238,5.16,2.253,0.255,-1.037,0.045,0.05,0.91,6.02,-3.92,-0.994,0.051,-0.153,5.603,7.409,1.778,-1.301,-0.076,0.425,-19.837,-66.766,-1.652
11460.0,-1.041,-0.019,-0.213,8.756,0.152,0.904,-1.028,0.08,0.074,6.077,3.854,-3.014,-0.984,0.04,-0.149,1.26,7.07,0.14,-1.309,-0.078,0.305,-18.031,-100.175,-17.674
11480.0,-1.022,-0.037,-0.217,10.929,-2.131,0.481,-1.012,0.129,0.066,3.15,4.48,-3.78,-1.001,0.028,-0.175,3.64,5.88,-0.28,-1.309,0.013,0.214,-23.892,-152.62,-33.082
11500.0,-0.978,-0.048,-0.238,12.749,-3.001,-0.14,-1.022,0.105,0.057,0.856,3.713,-3.978,-1.009,0.039,-0.173,2.161,3.938,-0.361,-1.349,0.103,0.308,-21.947,-176.648,-40.808
11520.0,-0.987,-0.042,-0.253,16.085,-5.371,-0.123,-1.031,0.074,0.059,1.866,1.194,-3.093,-1.003,0.039,-0.188,4.346,0.798,-0.516,-1.605,0.195,0.44,-8.936,-187.473,-45.479
11540.0,-1.01,-0.035,-0.265,19.084,-8.585,-0.286,-1.022,0.079,0.048,3.067,-0.722,-1.066,-1.007,0.039,-0.173,4.783,-1.054,-0.752,-2.067,0.391,0.479,10.445,-219.655,-44.355
11560.0,-1.009,-0.008,-0.255,21.147,-10.373,-1.133,-1.025,0.084,0.049,3.429,-3.454,0.875,-1.011,0.029,-0.17,6.85,-3.875,-1.302,-2.385,0.531,0.394,20.692,-269.309,-24.703
11580.0,-0.992,0.027,-0.237,22.512,-11.193,0.663,-1.022,0.102,0.07,3.303,-5.478,3.197,-1.008,0.059,-0.184,4.41,-5.81,-1.89,-2.673,0.68,0.325,20.093,-295.145,9.26
11600.0,-1.011,0.033,-0.193,20.483,-13.514,1.714,-1.023,0.092,0.059,1.135,-6.115,4.681,-1.015,0.061,-0.179,3.291,-9.183,-3.137,-2.981,0.813,0.434,6.773,-310.07,35.487
11620.0,-1.026,0.015,-0.196,16.151,-17.323,1.442,-1.026,0.077,0.049,1.211,-7.964,6.487,-1.011,0.024,-0.182,3.511,-11.965,-4.186,-3.236,0.709,0.151,-27.171,-365.852,46.452
11640.0,-1.081,-0.002,-0.219,11.449,-22.45,1.275,-1.027,0.089,0.067,2.038,-11.512,8.296,-1.014,0.045,-0.17,4.734,-14.914,-5.197,-3.222,0.532,-0.001,-18.858,-397.378,77.876
11660.0,-1.129,-0.009,-0.184,7.749,-27.534,1.204,-1.031,0.123,0.063,1.249,-13.0,8.765,-1.017,0.041,-0.167,4.969,-17.391,-6.314,-3.209,0.653,-0.057,-27.059,-428.02,94.582
11680.0,-1.144,-0.001,-0.115,6.702,-32.75,1.468,-1.034,0.119,0.068,-1.589,-14.255,9.426,-1.017,0.048,-0.16,3.703,-19.375,-7.508,-3.282,0.824,-0.107,-73.78,-479.01,86.31
11700.0,-1.143,0.001,-0.086,7.84,-38.22,3.43,-1.032,0.118,0.082,-1.89,-15.352,10.645,-1.005,0.045,-0.151,1.799,-20.88,-8.145,-3.022,0.806,-0.163,-122.788,-498.155,73.492
11720.0,-1.053,0.004,-0.085,9.66,-41.44,5.18,-1.025,0.116,0.078,-2.741,-16.448,11.731,-1.012,0.031,-0.138,-0.092,-22.21,-8.648,-2.912,0.68,-0.2,-150.113,-507.112,54.181
11740.0,-0.962,0.011,-0.08,8.12,-33.81,6.02,-1.017,0.122,0.085,-4.06,-17.431,12.025,-1.021,0.028,-0.127,0.291,-22.975,-8.483,-2.63,0.535,-0.224,-129.372,-508.127,51.803
11760.0,-0.977,0.023,-0.006,5.18,-29.75,6.16,-1.025,0.141,0.09,-6.969,-18.692,11.557,-1.011,0.017,-0.114,2.473,-23.1,-8.561,-2.324,0.807,-0.301,-133.088,-498.555,47.583
11780.0,-1.0,0.04,0.034,3.054,-28.85,4.755,-1.023,0.119,0.091,-8.166,-18.852,11.416,-0.993,0.012,-0.115,3.289,-22.867,-7.714,-2.067,0.718,-0.319,-143.442,-482.902,47.393
11800.0,-1.003,0.057,0.055,1.75,-27.79,3.99,-1.002,0.105,0.121,-6.123,-18.122,10.967,-0.988,0.009,-0.113,1.726,-22.479,-7.238,-1.721,0.648,-0.376,-156.683,-479.091,49.904
11820.0,-1.013,0.053,0.087,-1.221,-27.919,6.597,-1.004,0.141,0.137,-3.362,-17.387,9.22,-0.98,0.034,-0.091,-5.121,-20.121,-8.696,-1.365,0.481,-0.328,-151.454,-461.106,56.451
11840.0,-0.99,0.01,0.085,-3.28,-29.596,8.17,-1.002,0.164,0.137,-5.88,-16.352,7.149,-0.958,0.049,-0.061,-6.103,-17.401,-8.33,-1.103,0.52,-0.298,-154.468,-449.268,52.785
11860.0,-0.961,0.006,0.062,-4.034,-28.164,7.682,-0.989,0.156,0.143,-8.244,-14.331,6.385,-0.95,0.01,-0.034,2.415,-16.247,-5.174,-0.794,0.338,-0.212,-149.573,-434.476,42.6
11880.0,-0.942,0.017,0.077,-2.1,-27.37,8.33,-0.982,0.125,0.142,-6.842,-13.057,5.54,-0.972,0.036,-0.029,-0.12,-12.168,-5.984,-0.608,0.289,-0.253,-153.203,-419.859,35.982
11900.0,-0.904,-0.01,0.049,0.21,-26.11,7.14,-0.977,0.128,0.156,-4.547,-10.795,3.857,-0.977,-0.016,-0.031,0.648,-10.513,-4.24,-0.65,0.056,-0.315,-149.1,-441.409,35.933
11920.0,-0.912,-0.005,0.002,0.955,-20.731,6.18,-0.982,0.141,0.173,-2.328,-8.318,2.043,-0.97,0.015,-0.026,-1.513,-6.47,-2.49,-0.187,-0.152,-0.283,-127.111,-375.63,49.737
11940.0,-0.981,0.016,-0.001,1.96,-15.61,5.18,-0.993,0.156,0.174,-1.841,-5.697,0.668,-0.97,-0.033,-0.041,-2.03,-2.52,-0.63,-0.056,0.16,-0.007,-66.135,-307.559,66.694
11960.0,-0.994,0.053,0.003,1.395,-14.115,4.845,-0.99,0.154,0.159,-2.914,-3.162,-0.525,-0.992,-0.005,-0.039,-1.54,-0.07,0.21,-0.011,0.276,-0.021,-83.343,-258.503,60.514
11980.0,-0.973,0.062,-0.031,-3.81,-11.155,3.702,-0.988,0.142,0.151,-3.041,-1.214,-1.773,-0.994,-0.0,-0.059,-1.123,2.889,1.584,0.051,0.246,-0.228,-147.719,-230.193,51.709
12000.0,-0.971,0.052,-0.051,-7.14,-5.6,2.38,-0.991,0.129,0.155,-2.524,0.705,-3.124,-0.983,-0.004,-0.059,-1.259,4.788,2.549,0.132,0.135,-0.448,-170.032,-242.857,41.468
12020.0,-0.996,0.067,-0.026,-7.63,-1.54,0.49,-0.993,0.126,0.151,-1.161,2.045,-3.552,-0.977,0.007,-0.054,-1.131,7.546,3.261,0.43,-0.084,-0.481,-151.206,-208.411,36.711
12040.0,-1.01,0.058,-0.007,-9.38,-4.69,-0.21,-0.995,0.137,0.149,-0.48,3.492,-3.768,-0.981,-0.001,-0.072,-0.614,8.812,3.766,0.583,-0.161,-0.493,-104.044,-112.67,39.189
12060.0,-0.981,0.039,-0.038,-10.64,-1.96,-3.43,-0.99,0.136,0.154,-2.096,5.697,-4.549,-1.005,-0.007,-0.088,-1.918,8.449,4.025,0.562,-0.169,-0.665,-97.105,-99.343,42.621
12080.0,-1.0,0.044,-0.018,-9.992,2.798,-6.525,-0.994,0.129,0.151,-1.807,7.215,-5.504,-1.012,0.001,-0.094,-0.248,7.769,4.111,0.666,-0.258,-0.762,-93.571,-87.083,44.431
12100.0,-1.039,0.031,0.012,-10.971,-1.58,-7.588,-1.007,0.128,0.13,-0.707,7.157,-5.551,-1.008,0.03,-0.103,-0.143,6.917,4.385,0.869,-0.407,-0.778,-64.744,-57.204,36.468
12120.0,-1.039,0.0,0.002,-12.376,-8.256,-6.933,-1.004,0.124,0.121,-0.192,6.762,-5.57,-0.992,0.03,-0.088,-1.268,7.29,3.756,0.97,-0.499,-0.729,-41.146,-14.057,24.176
12140.0,-1.04,-0.012,-0.035,-8.391,-13.337,-4.579,-1.001,0.107,0.124,0.428,6.751,-5.442,-0.997,0.01,-0.088,-1.784,7.713,3.665,0.971,-0.523,-0.75,-32.753,9.951,16.652
12160.0,-1.029,-0.015,-0.068,-2.533,-13.043,-3.214,-1.006,0.102,0.138,1.045,7.665,-5.225,-1.018,0.018,-0.103,-0.515,7.245,3.614,0.968,-0.547,-0.712,-25.329,18.508,14.147
12180.0,-1.011,-0.007,-0.085,-1.543,-10.726,-1.549,-1.012,0.128,0.139,0.781,9.039,-5.337,-1.021,0.046,-0.117,0.378,5.549,3.125,0.973,-0.546,-0.437,10.107,33.219,11.711
12200.0,-1.023,-0.02,-0.076,-2.721,-11.544,-2.252,-1.026,0.119,0.105,-0.66,8.284,-4.684,-1.012,0.048,-0.125,-0.467,3.813,2.693,0.898,-0.312,-0.228,26.057,39.957,13.19
12220.0,-1.023,0.004,-0.067,-2.299,-11.43,-4.916,-1.023,0.091,0.092,0.005,6.993,-3.812,-1.011,0.027,-0.127,-0.977,2.662,2.786,0.965,-0.296,-0.134,14.353,41.035,16.839
12240.0,-1.002,0.055,-0.052,0.205,-8.02,-5.918,-1.006,0.088,0.103,4.381,6.114,-3.517,-0.99,0.038,-0.118,-1.389,1.914,2.38,0.907,-0.351,-0.102,31.567,36.529,22.587
12260.0,-0.997,0.028,0.022,0.204,-5.016,-4.482,-1.024,0.114,0.102,4.324,5.187,-2.634,-0.987,0.015,-0.115,-0.1,2.004,2.427,0.848,-0.375,0.02,21.77,26.88,18.34
12280.0,-0.98,-0.013,0.021,0.772,-5.33,-2.81,-1.009,0.093,0.09,2.179,5.244,-1.847,-0.997,0.032,-0.116,0.71,1.648,3.093,0.841,-0.496,0.119,28.404,28.348,16.427
12300.0,-0.969,-0.017,0.001,2.974,-4.863,-2.103,-1.002,0.086,0.102,2.562,5.048,-1.198,-0.999,0.042,-0.111,-0.091,2.219,2.152,0.822,-0.52,0.137,33.306,26.083,13.6
12320.0,-0.972,0.004,0.002,5.915,-1.448,-1.332,-1.015,0.095,0.104,3.842,4.91,-1.125,-0.993,0.049,-0.119,1.848,1.911,2.106,0.803,-0.576,0.136,34.084,20.921,9.404
12340.0,-0.996,0.025,0.027,9.689,2.198,0.209,-1.012,0.109,0.085,2.8,4.45,-0.892,-0.998,0.04,-0.122,1.948,2.378,2.239,0.805,-0.573,0.066,25.517,13.403,-16.361
12360.0,-1.015,0.025,0.057,11.896,2.937,1.108,-1.005,0.104,0.082,2.8,3.71,-0.35,-1.02,-0.023,-0.128,6.088,1.114,1.476,0.846,-0.67,0.015,25.411,13.027,-9.981
12380.0,-1.001,0.011,0.036,11.143,2.135,0.733,-1.001,0.115,0.097,2.389,3.35,-0.483,-1.02,0.039,-0.135,2.139,-0.248,0.877,0.857,-0.657,0.005,37.284,20.637,-14.192
12400.0,-0.999,0.016,-0.007,7.32,2.969,-0.201,-1.02,0.109,0.09,1.718,2.888,-0.379,-1.002,0.079,-0.151,1.857,-0.672,-0.053,0.869,-0.61,-0.048,36.194,34.675,-23.768
12420.0,-1.007,0.029,-0.013,4.383,5.622,-0.722,-1.033,0.103,0.077,1.73,1.951,0.442,-1.008,0.061,-0.146,0.081,-3.215,-1.214,0.898,-0.629,-0.212,36.186,51.955,-34.296
12440.0,-1.013,0.031,-0.001,3.853,8.177,-0.823,-1.025,0.096,0.062,1.698,0.331,1.569,-1.012,0.035,-0.147,0.725,-6.218,-2.016,0.949,-0.584,-0.416,45.038,70.942,-41.14
12460.0,-1.026,0.024,0.008,5.444,9.579,-0.594,-1.019,0.103,0.063,1.1,-1.361,2.995,-1.014,0.042,-0.135,1.046,-7.896,-2.941,0.943,-0.483,-0.478,49.91,98.122,-40.043
12480.0,-1.057,0.01,0.02,8.029,8.663,0.105,-1.019,0.096,0.07,0.788,-3.157,4.344,-1.009,0.044,-0.135,0.982,-9.491,-3.48,0.91,-0.354,-0.392,57.875,136.578,-37.817
12500.0,-1.072,-0.005,0.015,9.87,5.39,0.7,-1.022,0.098,0.084,1.814,-4.572,5.418,-0.996,0.045,-0.128,1.369,-10.078,-3.569,0.835,-0.282,-0.434,72.717,176.48,-34.004
12520.0,-1.071,0.012,-0.005,10.777,-0.672,0.229,-1.025,0.105,0.085,1.868,-4.975,5.954,-0.985,0.037,-0.119,1.728,-9.886,-3.5,0.667,-0.194,-0.5,91.266,219.061,-26.554
12540.0,-1.043,0.069,-0.036,9.939,-1.607,-0.069,-1.021,0.108,0.078,1.201,-5.547,6.21,-0.988,0.036,-0.101,2.368,-8.574,-3.5,0.484,-0.051,-0.465,103.282,248.561,-20.927
12560.0,-1.012,0.104,-0.061,7.152,1.025,0.122,-1.01,0.12,0.081,0.92,-5.735,5.852,-0.994,0.046,-0.092,2.057,-6.485,-3.236,0.35,0.05,-0.359,110.108,270.748,-17.153
12580.0,-1.01,0.079,-0.033,4.025,2.305,1.424,-1.004,0.122,0.087,1.087,-5.473,5.066,-0.985,0.04,-0.082,0.924,-3.915,-2.903,0.197,0.12,-0.358,112.277,297.842,-14.65
12600.0,-1.0,0.032,-0.022,2.428,2.265,1.933,-0.996,0.118,0.1,1.092,-4.438,4.013,-0.993,0.035,-0.092,0.77,-1.828,-2.551,0.002,0.257,-0.348,102.469,321.234,-14.431
12620.0,-0.979,0.002,-0.019,-0.119,3.279,1.033,-0.991,0.127,0.103,0.694,-2.98,2.488,-0.994,0.036,-0.103,0.51,-0.774,-2.257,-0.172,0.31,-0.2,82.861,343.352,-14.826
12640.0,-0.964,-0.005,-0.01,-2.511,5.659,-0.554,-0.999,0.128,0.101,0.221,-1.794,1.184,-0.982,0.034,-0.11,-0.134,0.002,-1.877,-0.472,0.32,-0.089,83.447,371.544,-13.812
12660.0,-1.002,0.002,0.029,-2.463,2.556,-2.023,-1.01,0.112,0.094,0.275,-1.37,1.025,-0.98,0.024,-0.115,-0.39,0.21,-1.07,-0.663,0.51,0.07,91.523,379.028,-12.417
12680.0,-1.008,0.018,-0.023,0.56,-1.4,-3.5,-1.014,0.108,0.085,1.118,-1.779,1.291,-0.99,0.031,-0.116,-0.568,0.21,-0.32,-0.838,0.592,0.147,58.071,417.865,-9.525
12700.0,-1.017,0.02,-0.018,6.377,1.978,-2.656,-1.012,0.115,0.091,1.588,-1.813,1.14,-1.001,0.034,-0.116,-0.917,0.035,-0.21,-1.001,0.467,-0.004,33.606,450.153,-2.409
12720.0,-1.015,-0.008,0.041,11.22,3.644,-0.274,-1.011,0.12,0.093,1.311,-0.856,0.664,-1.008,0.034,-0.116,-1.231,-0.091,-0.18,-1.327,0.207,0.22,16.362,406.951,12.228
12740.0,-0.968,-0.027,0.08,12.277,5.068,-0.211,-1.012,0.115,0.089,0.9,-0.228,0.638,-1.011,0.037,-0.117,-0.875,-0.193,0.091,-1.41,-0.003,0.582,71.805,392.394,41.658
12760.0,-0.955,-0.021,0.057,14.052,5.052,-2.085,-1.013,0.104,0.081,1.021,-0.176,0.875,-1.007,0.036,-0.121,-0.154,-1.115,0.252,-1.639,0.404,0.484,65.151,377.836,40.748
12780.0,-0.97,-0.0,0.031,15.086,6.92,-2.617,-1.006,0.118,0.074,1.5,-0.266,0.644,-0.988,0.041,-0.126,-0.547,-1.63,0.228,-1.707,0.27,0.183,71.506,334.479,41.711
12800.0,-0.965,0.036,0.018,15.46,13.143,-4.212,-1.006,0.125,0.09,1.216,0.054,0.391,-0.982,0.037,-0.127,-0.434,-1.68,0.411,-1.619,0.257,0.154,80.141,322.28,39.573
12820.0,-0.999,0.093,0.016,12.14,20.008,-6.479,-1.013,0.116,0.09,1.279,0.484,0.436,-0.985,0.033,-0.123,1.476,-1.726,0.475,-1.749,0.119,0.068,85.585,322.28,36.882
12840.0,-1.017,0.111,0.031,5.217,26.532,-7.562,-1.013,0.112,0.073,0.94,0.526,0.766,-1.0,0.049,-0.119,2.28,-2.065,-0.113,-1.98,0.151,0.024,106.42,317.358,31.293
12860.0,-1.033,0.114,0.056,0.344,29.372,-6.639,-1.001,0.112,0.069,0.614,-0.413,0.709,-1.01,0.062,-0.118,1.292,-2.609,-0.75,-2.197,0.2,0.124,119.653,301.248,23.258
12880.0,-1.091,0.1,0.077,-1.77,26.598,-4.332,-1.019,0.112,0.071,0.026,-1.486,1.072,-1.008,0.051,-0.126,0.304,-3.905,-1.15,-2.368,0.23,0.188,111.869,295.716,7.513
12900.0,-1.106,0.051,0.059,-5.406,15.857,-2.764,-1.029,0.106,0.068,0.404,-3.361,1.961,-0.997,0.039,-0.126,0.953,-4.292,-1.35,-2.43,0.237,0.261,103.057,278.191,-6.216
12920.0,-1.03,-0.003,-0.024,-12.332,12.312,-2.588,-1.017,0.118,0.067,-0.24,-4.671,2.251,-0.996,0.049,-0.12,0.487,-4.605,-1.393,-2.384,0.216,0.338,100.595,252.765,-12.527
12940.0,-0.989,-0.024,-0.067,-13.366,16.409,-3.826,-1.021,0.123,0.065,-1.888,-6.753,2.326,-0.989,0.038,-0.116,0.002,-4.088,-1.134,-2.215,0.143,0.223,113.65,239.002,-12.66
12960.0,-1.018,-0.011,-0.07,-7.063,16.241,-3.573,-1.017,0.13,0.082,-3.05,-7.139,2.449,-0.987,0.043,-0.117,0.481,-3.475,-0.794,-2.131,0.136,0.126,140.811,225.036,-8.432
12980.0,-0.998,-0.005,-0.105,0.694,16.194,-2.429,-1.008,0.125,0.091,-3.43,-6.51,2.17,-0.976,0.046,-0.108,0.56,-1.862,-0.042,-2.029,0.247,0.209,151.701,213.081,2.23
13000.0,-0.959,0.001,-0.124,2.48,20.384,-2.527,-0.996,0.121,0.092,-4.27,-5.04,1.05,-0.976,0.031,-0.09,0.433,1.584,0.89,-2.013,0.459,0.432,143.569,208.873,3.733
13020.0,-0.967,0.009,-0.086,0.776,20.33,-5.319,-0.998,0.11,0.088,-3.748,-4.103,-0.14,-0.985,0.042,-0.074,-1.526,4.618,1.104,-2.062,0.753,0.656,86.635,203.113,-7.12
13040.0,-0.986,0.03,-0.065,-0.745,14.281,-6.909,-0.998,0.108,0.096,-2.17,-3.15,-1.05,-0.998,0.019,-0.095,0.365,7.44,2.105,-1.976,0.739,0.672,-11.647,181.484,-10.456
13060.0,-0.99,0.074,-0.104,-0.817,4.95,-4.806,-0.99,0.116,0.111,-0.56,-1.4,-1.96,-0.999,0.033,-0.106,3.923,9.028,2.493,-1.744,0.348,0.649,-60.437,152.462,-3.773
13080.0,-0.994,0.07,-0.162,-2.56,0.111,-1.186,-0.994,0.117,0.125,-0.505,2.189,-3.353,-1.002,0.066,-0.132,4.062,9.432,2.182,-1.563,0.041,0.617,-55.588,139.002,14.546
13100.0,-1.008,0.05,-0.181,-5.843,1.211,1.344,-1.004,0.109,0.116,0.697,5.802,-4.096,-1.008,0.051,-0.14,6.825,7.96,1.593,-1.526,-0.036,0.531,-25.264,111.746,32.579
13120.0,-1.028,0.01,-0.18,-5.056,4.841,1.902,-1.011,0.11,0.092,1.222,6.758,-4.022,-1.017,0.076,-0.159,4.676,6.006,1.602,-1.48,-0.072,0.469,6.12,80.406,36.729
13140.0,-1.028,-0.067,-0.184,-1.373,7.324,1.267,-1.021,0.093,0.068,2.568,5.446,-3.894,-1.017,0.072,-0.169,3.816,1.804,-1.222,-1.373,-0.032,0.438,16.633,49.414,35.273
13160.0,-1.004,-0.082,-0.18,0.637,9.46,-0.117,-1.027,0.09,0.053,3.802,2.676,-1.966,-1.005,0.09,-0.161,0.052,-1.694,-2.126,-1.291,0.02,0.418,19.419,15.094,31.554
13180.0,-1.019,-0.06,-0.15,1.633,9.994,-2.514,-1.025,0.093,0.052,4.055,-0.34,-0.328,-1.007,0.063,-0.164,0.233,-4.189,-2.962,-1.219,0.038,0.378,27.372,-16.696,28.537
13200.0,-1.056,-0.002,-0.125,2.47,6.103,-2.353,-1.017,0.112,0.058,2.757,-2.301,0.762,-1.007,0.059,-0.16,1.497,-6.563,-3.92,-1.139,0.082,0.328,39.117,-53.11,26.163
13220.0,-1.067,0.029,-0.124,3.479,0.254,-1.106,-1.021,0.112,0.072,1.234,-3.483,1.431,-1.005,0.055,-0.147,1.419,-7.842,-4.788,-1.066,0.167,0.329,41.228,-74.078,22.109
13240.0,-1.047,0.035,-0.146,4.085,-2.951,-0.599,-1.028,0.102,0.065,-0.094,-4.561,2.668,-1.0,0.049,-0.14,1.867,-8.558,-4.873,-1.078,0.235,0.341,39.001,-85.591,16.44
13260.0,-1.018,0.017,-0.15,4.732,-3.949,0.054,-1.025,0.094,0.064,-0.223,-6.633,3.922,-0.987,0.04,-0.132,2.578,-8.32,-4.619,-1.152,0.302,0.355,32.384,-96.027,9.988
13280.0,-0.991,-0.005,-0.158,5.168,-3.209,0.114,-1.013,0.106,0.076,-0.846,-7.309,4.551,-0.98,0.04,-0.118,2.46,-6.515,-4.174,-1.256,0.422,0.368,16.123,-111.103,3.632
13300.0,-0.971,-0.005,-0.165,5.05,-2.969,-0.487,-1.007,0.111,0.081,-2.094,-7.284,4.38,-0.98,0.041,-0.105,1.758,-3.535,-3.433,-1.395,0.525,0.358,-11.309,-132.808,-0.576
13320.0,-0.96,0.013,-0.165,5.199,-3.118,-0.7,-1.003,0.107,0.087,-2.24,-6.759,3.952,-0.984,0.029,-0.107,0.933,-0.387,-2.176,-1.541,0.538,0.427,-35.443,-154.33,1.339
13340.0,-0.953,0.022,-0.164,6.54,-3.527,-0.686,-1.004,0.106,0.098,-1.806,-5.666,3.423,-0.99,0.028,-0.118,0.949,1.383,-0.823,-1.692,0.507,0.562,-43.036,-179.657,15.171
13360.0,-0.958,0.016,-0.165,7.282,-3.424,-0.661,-1.003,0.114,0.109,-0.328,-3.374,2.684,-0.993,0.045,-0.125,0.843,2.303,-0.582,-1.916,0.376,0.624,-37.066,-207.834,38.362
13380.0,-0.983,-0.006,-0.137,5.395,-5.653,-1.641,-1.002,0.114,0.107,0.67,0.016,1.758,-0.996,0.046,-0.138,0.075,2.755,-0.65,-2.104,0.345,0.699,-17.663,-237.525,71.49
13400.0,-0.991,-0.004,-0.118,3.5,-9.8,-3.15,-1.001,0.108,0.1,1.248,1.778,0.646,-1.004,0.046,-0.153,-0.061,1.976,-0.879,-2.258,0.366,0.757,3.592,-271.438,106.082
13420.0,-0.989,0.032,-0.109,3.499,-11.866,-4.116,-1.009,0.108,0.079,1.619,1.659,0.475,-1.004,0.051,-0.157,-0.286,-0.205,-1.676,-2.321,0.552,0.751,17.226,-322.183,133.353
13440.0,-1.053,0.01,-0.13,3.099,-14.128,-5.064,-1.022,0.098,0.068,2.303,-0.042,1.273,-1.011,0.053,-0.153,-0.565,-1.953,-2.422,-2.32,0.627,0.84,13.743,-344.509,149.394
13460.0,-1.106,0.027,-0.158,-1.151,-16.859,-3.879,-1.024,0.093,0.068,3.209,-2.174,3.046,-1.014,0.06,-0.157,0.238,-4.352,-3.535,-2.407,0.996,0.978,-29.965,-346.603,145.33
13480.0,-1.116,0.016,-0.154,-4.497,-15.096,-3.546,-1.024,0.117,0.066,2.908,-3.55,4.491,-1.008,0.054,-0.158,0.473,-6.634,-4.466,-2.459,1.078,0.859,-117.11,-365.236,128.709
13500.0,-1.125,0.003,-0.062,-2.689,-19.178,-2.581,-1.024,0.123,0.064,1.622,-4.991,5.403,-0.999,0.045,-0.151,0.286,-7.98,-4.628,-2.372,0.968,0.756,-170.815,-380.552,111.736
13520.0,-1.109,0.009,-0.018,-0.957,-26.002,-1.122,-1.018,0.12,0.073,1.238,-6.988,5.654,-1.004,0.036,-0.145,1.19,-9.38,-4.76,-2.219,0.817,0.675,-181.771,-383.173,101.349
13540.0,-1.048,0.006,-0.024,-0.35,-29.68,0.28,-1.012,0.129,0.084,0.75,-7.604,5.348,-1.004,0.035,-0.134,1.12,-10.43,-4.62,-2.106,0.869,0.555,-184.552,-384.274,94.454
13560.0,-1.021,0.003,-0.041,0.53,-29.091,2.046,-1.012,0.138,0.096,-0.893,-7.261,4.521,-0.997,0.038,-0.139,1.33,-10.64,-4.2,-1.886,0.883,0.346,-190.576,-395.077,90.983
13580.0,-1.018,0.006,-0.026,1.884,-27.01,3.913,-1.012,0.132,0.09,-3.654,-5.997,3.897,-0.997,0.042,-0.132,0.42,-10.71,-4.13,-1.686,0.806,0.382,-188.748,-391.848,86.383
13600.0,-1.005,0.007,0.023,1.458,-26.238,3.51,-1.006,0.119,0.085,-4.11,-5.757,3.78,-0.997,0.039,-0.123,0.14,-10.36,-4.2,-1.512,0.747,0.377,-184.641,-367.844,81.369
13620.0,-0.996,0.025,0.062,-0.499,-25.822,3.754,-1.007,0.124,0.088,-3.118,-6.115,3.6,-1.0,0.044,-0.126,-0.322,-10.499,-3.991,-1.295,0.739,0.232,-200.538,-354.38,71.267
13640.0,-1.003,0.024,0.09,-1.845,-25.551,3.92,-1.014,0.132,0.092,-3.312,-6.107,3.068,-1.005,0.043,-0.124,-0.999,-10.436,-4.119,-1.038,0.567,0.182,-199.576,-338.977,59.865
13660.0,-0.991,0.026,0.097,-4.643,-25.756,3.859,-1.016,0.129,0.091,-4.351,-6.015,2.888,-1.004,0.052,-0.122,-2.667,-10.79,-3.95,-0.944,0.436,0.17,-189.29,-324.209,52.35
13680.0,-1.118,0.031,0.099,-5.823,-24.746,3.71,-1.02,0.111,0.086,-4.484,-6.738,3.247,-0.994,0.041,-0.116,-3.199,-10.764,-4.333,-0.816,0.339,0.121,-173.495,-312.689,49.132
13700.0,-1.01,0.041,0.102,-6.183,-23.482,3.71,-1.022,0.103,0.089,-3.5,-7.489,3.717,-0.993,0.026,-0.107,-3.19,-10.186,-4.379,-0.648,0.241,0.119,-155.328,-307.266,51.107
13720.0,-1.001,0.051,0.09,-6.805,-20.791,3.774,-1.014,0.113,0.099,-2.238,-8.349,3.824,-0.996,0.016,-0.11,-2.33,-9.822,-3.818,-0.611,0.316,0.122,-163.31,-310.8,47.793
13740.0,-0.981,0.039,0.084,-11.247,-17.939,4.406,-1.001,0.133,0.093,-3.578,-7.916,3.458,-0.998,0.026,-0.109,-2.646,-9.393,-3.621,-0.486,0.33,0.088,-171.469,-303.94,34.877
13760.0,-0.955,0.023,0.048,-13.571,-17.856,3.591,-0.997,0.132,0.109,-4.035,-7.561,2.673,-0.996,0.059,-0.107,-3.347,-9.126,-3.494,-0.37,0.211,-0.03,-156.925,-301.98,31.985
13780.0,-0.933,0.021,0.021,-12.617,-10.724,3.361,-1.001,0.13,0.116,-4.039,-6.887,1.975,-0.992,0.051,-0.112,-3.321,-9.05,-3.64,-0.261,0.113,-0.205,-134.252,-308.455,38.295
13800.0,-0.95,0.018,0.027,-12.499,-4.006,3.484,-1.001,0.132,0.115,-4.122,-5.979,1.638,-0.992,0.019,-0.104,-3.01,-8.573,-3.791,-0.097,0.105,-0.206,-116.9,-307.63,41.642
13820.0,-0.973,0.009,0.044,-11.97,-0.009,2.31,-0.997,0.133,0.108,-3.949,-4.42,0.951,-0.988,0.012,-0.088,-1.552,-6.757,-3.025,0.023,0.078,-0.154,-100.3,-275.546,41.179
13840.0,-1.02,0.009,0.043,-11.141,-0.232,1.159,-0.989,0.131,0.108,-3.561,-2.855,-0.092,-0.979,0.011,-0.077,0.065,-4.498,-1.882,0.149,-0.019,-0.351,-111.037,-213.97,39.057
13860.0,-1.048,-0.003,0.034,-9.406,-3.939,0.297,-0.987,0.128,0.114,-4.277,-1.911,-1.01,-0.982,0.006,-0.072,0.659,-1.949,-0.506,0.203,-0.066,-0.65,-150.364,-193.148,29.472
13880.0,-1.034,-0.002,-0.005,-7.066,-7.485,-1.143,-1.006,0.139,0.111,-2.883,-1.371,-1.4,-0.988,0.009,-0.087,1.132,0.16,0.811,0.417,-0.432,-0.786,-135.363,-159.947,24.794
13900.0,-0.993,0.017,-0.045,-6.83,-6.144,-3.286,-1.011,0.111,0.108,-2.169,-1.213,-1.379,-0.993,0.026,-0.086,1.543,1.839,1.718,0.558,-0.458,-0.857,-86.961,-126.439,21.579
13920.0,-0.992,0.033,-0.039,-7.64,-3.858,-4.065,-1.002,0.112,0.107,-1.4,-0.728,-1.061,-0.987,0.032,-0.084,1.548,4.162,2.097,0.661,-0.41,-0.915,-66.577,-99.134,18.447
13940.0,-1.003,0.024,-0.014,-7.596,-4.792,-4.312,-0.999,0.128,0.109,-1.532,-0.333,-1.355,-0.982,0.038,-0.089,0.916,6.076,2.849,0.76,-0.394,-0.963,-59.423,-70.982,11.122
13960.0,-0.998,0.001,-0.026,-6.572,-7.211,-4.105,-0.996,0.125,0.109,-1.942,0.916,-1.783,-0.99,0.025,-0.095,1.117,6.946,3.324,0.912,-0.502,-0.885,-45.701,-27.438,4.714
13980.0,-0.967,0.001,-0.056,-4.328,-5.766,-3.85,-0.992,0.122,0.106,-1.697,2.239,-2.471,-1.005,0.033,-0.103,1.5,7.181,3.158,1.09,-0.548,-0.732,-10.246,3.575,4.84
14000.0,-0.954,0.003,-0.056,-1.112,-1.111,-3.354,-0.991,0.101,0.127,-0.017,3.731,-3.564,-1.01,0.056,-0.117,0.934,6.773,3.267,0.959,-0.48,-0.714,7.238,29.324,4.702
14020.0,-0.972,-0.016,-0.028,2.031,-0.229,-2.246,-1.004,0.118,0.135,1.874,4.962,-3.878,-1.015,0.061,-0.138,1.817,5.406,3.408,0.958,-0.467,-0.561,23.919,39.663,8.263
14040.0,-1.022,-0.025,-0.023,4.513,-3.271,-2.11,-1.027,0.097,0.094,2.633,4.569,-2.583,-1.016,0.051,-0.144,1.735,3.005,2.97,0.957,-0.424,-0.322,37.31,40.25,11.27
14060.0,-1.045,0.008,-0.024,6.008,-3.352,-1.946,-1.029,0.09,0.084,5.53,2.66,-0.84,-1.01,0.058,-0.13,0.356,1.802,0.694,0.99,-0.483,-0.111,48.462,33.695,9.755
14080.0,-1.049,0.053,0.027,8.914,0.783,-1.336,-1.018,0.106,0.083,5.809,1.156,0.654,-1.012,0.061,-0.151,1.422,-1.078,-0.484,0.995,-0.412,0.083,36.802,38.625,5.608
14100.0,-1.05,0.049,0.1,11.952,1.273,0.048,-1.014,0.12,0.087,3.198,0.732,1.298,-1.007,0.07,-0.145,0.418,-3.289,-1.387,0.975,-0.533,0.055,28.106,28.96,4.516
14120.0,-1.031,0.004,0.104,13.965,-1.546,0.586,-1.024,0.11,0.083,2.8,-0.902,1.946,-0.996,0.046,-0.138,0.7,-4.97,-1.75,1.003,-0.64,0.078,38.884,11.15,5.852
14140.0,-0.986,-0.014,0.037,13.8,-3.278,-0.281,-1.025,0.095,0.071,2.479,-2.918,3.438,-0.993,0.041,-0.124,1.818,-5.776,-2.017,0.981,-0.622,0.159,38.224,7.998,1.638
14160.0,-0.965,0.02,0.008,10.215,0.52,-1.813,-1.021,0.096,0.074,3.159,-4.365,4.841,-0.99,0.038,-0.115,1.639,-5.355,-1.772,0.987,-0.632,0.141,23.278,7.979,-5.798
14180.0,-0.974,0.047,0.032,9.685,6.082,-2.785,-1.013,0.119,0.086,3.15,-5.897,5.369,-0.99,0.037,-0.113,1.61,-4.126,-1.123,0.991,-0.689,0.039,18.069,5.05,-7.455
14200.0,-1.02,0.052,0.039,10.087,4.951,-2.57,-1.017,0.125,0.092,2.207,-6.086,5.206,-0.993,0.043,-0.109,1.479,-2.546,-1.116,0.977,-0.657,0.045,17.817,1.863,-7.427
14220.0,-1.021,0.044,0.015,7.807,3.463,-0.998,-1.001,0.131,0.099,1.075,-5.628,4.625,-0.994,0.044,-0.104,0.995,-0.89,-1.067,0.929,-0.578,0.075,16.643,2.78,-7.483
14240.0,-1.016,0.038,0.013,4.438,4.703,-0.576,-0.999,0.141,0.11,-0.59,-4.452,3.545,-0.993,0.039,-0.107,1.081,0.555,-0.805,0.914,-0.531,0.114,18.533,9.479,-6.726
14260.0,-1.017,0.044,0.019,2.25,6.393,-0.703,-0.997,0.128,0.12,-0.435,-2.513,2.121,-0.99,0.046,-0.114,1.802,1.843,-0.493,0.932,-0.487,0.071,21.64,18.611,-6.221
14280.0,-1.002,0.053,0.015,0.442,7.504,-0.612,-0.997,0.124,0.115,-0.326,-0.476,1.059,-0.989,0.05,-0.124,1.595,2.037,-0.42,0.938,-0.445,-0.011,21.288,28.337,-5.906
14300.0,-0.99,0.043,0.019,-2.173,8.626,-0.483,-0.998,0.123,0.11,0.191,1.189,0.17,-0.991,0.046,-0.136,1.089,1.691,-0.502,0.961,-0.457,-0.158,13.706,41.287,-7.171
14320.0,-0.985,0.015,0.024,-4.277,8.873,-1.418,-0.992,0.123,0.105,1.466,2.172,-0.913,-1.0,0.042,-0.138,0.505,0.822,-0.809,0.962,-0.562,-0.357,12.822,51.519,-6.447
14340.0,-0.986,-0.001,0.017,-4.999,8.133,-2.614,-0.994,0.129,0.105,2.131,2.903,-2.18,-1.009,0.048,-0.138,-1.019,-0.371,-1.04,0.958,-0.575,-0.453,27.935,67.353,-6.199
14360.0,-1.013,-0.006,-0.007,-2.166,7.541,-2.713,-1.014,0.136,0.096,1.33,3.81,-2.418,-1.014,0.055,-0.144,-1.129,-2.024,-1.297,0.918,-0.518,-0.447,45.06,93.85,-8.898
14380.0,-1.056,0.012,-0.02,2.352,6.273,-1.509,-1.031,0.113,0.079,0.568,3.016,-1.44,-1.005,0.06,-0.141,-0.449,-4.038,-1.613,0.861,-0.479,-0.433,66.165,118.119,-12.436
14400.0,-1.063,0.026,-0.035,5.692,5.376,0.528,-1.028,0.1,0.076,1.679,1.442,0.048,-0.998,0.051,-0.135,0.152,-5.017,-2.07,0.819,-0.38,-0.445,70.397,147.686,-15.419
14420.0,-1.059,0.018,-0.027,7.484,4.94,1.815,-1.02,0.114,0.076,1.678,0.413,0.556,-1.001,0.053,-0.136,0.693,-5.8,-2.576,0.764,-0.257,-0.452,69.754,175.876,-15.739
14440.0,-1.061,0.024,0.012,5.25,2.03,1.12,-1.017,0.118,0.078,0.123,-0.103,0.9,-0.992,0.05,-0.129,0.648,-6.116,-2.76,0.724,-0.22,-0.425,74.91,200.272,-10.847
14460.0,-1.036,0.03,-0.032,3.554,-4.85,-0.17,-1.018,0.108,0.073,-0.21,-0.659,1.852,-0.978,0.049,-0.121,1.03,-5.102,-2.87,0.753,-0.122,-0.452,71.707,248.076,-6.769
