Millis	AccelX	AccelY	AccelZ	GyroX	GyroY	GyroZ
0	-1.021	-0.022	-0.032	35.35	13.23	-3.78
20	-1.02	-0.016	-0.04	35.49	11.76	-5.95
40	-1.001	-0.007	-0.035	36.33	10.85	-8.33
57	-0.999	0.013	-0.03	35.7	10.99	-9.8
80	-1.015	0.026	-0.028	33.39	10.29	-11.06
97	-1.023	0.024	-0.032	31.85	8.82	-11.41
116	-1.018	0.028	-0.038	31.22	7.56	-11.55
137	-1.005	0.044	-0.041	27.72	10.01	-11.41
161	-1.049	0.041	-0.043	28.84	5.18	-11.34
181	-1.036	0.029	-0.053	28.7	3.71	-9.38
197	-1.022	0.034	-0.051	28.98	3.29	-7.28
216	-1.019	0.035	-0.047	27.72	3.29	-5.6
241	-1.028	0.03	-0.059	24.99	2.17	-4.69
260	-1.015	0.019	-0.066	23.94	1.47	-4.62
280	-0.997	0.024	-0.057	21.77	2.17	-4.9
300	-0.996	0.028	-0.056	17.78	3.29	-5.67
324	-1.011	0.03	-0.054	13.72	2.87	-6.86
344	-1.002	0.027	-0.057	10.01	1.47	-7.28
364	-0.995	0.033	-0.048	7.0	0.98	-7.35
383	-0.994	0.036	-0.05	3.57	1.4	-7.14
402	-1.007	0.038	-0.047	0.0	0.35	-6.86
422	-0.998	0.026	-0.049	-2.03	-0.21	-6.23
446	-1.015	0.017	-0.047	-2.31	-0.77	-5.67
461	-1.026	0.024	-0.047	-2.59	-1.82	-5.39
481	-1.013	0.026	-0.055	-4.34	-3.57	-4.34
503	-1.005	0.023	-0.057	-6.93	-4.06	-2.66
527	-1.0	0.018	-0.053	-10.01	-4.27	-1.89
542	-1.0	0.014	-0.06	-11.76	-3.85	-2.17
562	-1.009	0.011	-0.065	-14.56	-4.2	-2.73
587	-0.875	0.009	-0.071	-17.78	-5.88	-2.03
607	-0.991	-0.0	-0.076	-20.44	-6.44	-0.91
626	-1.002	-0.008	-0.074	-20.37	-6.51	0.07
650	-1.021	-0.03	-0.087	-17.78	-6.79	1.26
670	-1.031	-0.038	-0.084	-14.14	-7.98	2.59
688	-1.025	-0.03	-0.084	-10.64	-8.96	3.99
708	-1.009	-0.039	-0.087	-9.8	-9.38	5.67
727	-1.026	-0.042	-0.087	-9.66	-9.87	6.51
751	-1.017	-0.063	-0.094	-7.42	-11.27	6.44
774	-1.004	-0.067	-0.085	-5.18	-11.13	4.83
794	-1.028	-0.067	-0.091	-6.37	-10.29	2.24
814	-1.035	-0.081	-0.103	-6.02	-10.57	-1.26
835	-1.001	-0.062	-0.09	-6.86	-9.87	-3.92
857	-0.985	-0.041	-0.078	-13.72	-8.05	-6.86
878	-0.996	-0.024	-0.067	-23.1	-6.93	-9.94
902	-0.976	-0.039	-0.058	-29.05	-7.49	-12.46
922	-0.975	-0.039	-0.049	-30.45	-6.65	-13.65
941	-1.012	-0.033	-0.042	-30.31	-7.84	-14.07
962	-1.048	-0.034	-0.046	-29.05	-9.59	-13.44
986	-1.059	-0.031	-0.037	-26.32	-11.69	-10.22
1009	-1.043	-0.037	-0.037	-23.66	-12.11	-4.69
1028	-1.013	-0.032	-0.03	-21.63	-10.99	17.71
1046	-1.002	-0.018	-0.018	-22.4	-10.43	3.64
1069	-0.997	-0.014	-0.008	-27.44	-10.99	7.07
1089	-0.996	-0.034	-0.008	-31.29	-12.88	8.96
1110	-0.985	-0.063	0.003	-30.8	-13.86	9.73
1129	-0.983	-0.06	0.018	-27.93	-11.55	9.59
1149	-1.009	-0.079	0.015	-25.34	-12.88	8.68
1169	-0.998	-0.081	0.021	-22.89	-14.7	8.89
1193	-1.002	-0.074	0.037	-20.93	-15.96	8.96
1210	-0.992	-0.065	0.046	-23.24	-16.59	8.75
1232	-0.996	-0.084	0.046	-23.45	-19.32	8.96
1253	-0.989	-0.112	0.039	-14.63	-21.14	8.68
1277	-0.992	-0.099	0.05	-3.64	-22.12	8.75
1296	-0.984	-0.096	0.052	4.48	-22.33	9.31
1315	-0.996	-0.09	0.033	13.09	-21.84	9.73
1335	-0.984	-0.08	0.02	20.02	-23.17	10.22
1358	-0.996	-0.047	0.032	23.8	-24.08	10.08
1378	-0.992	-0.052	0.029	22.68	-24.64	9.59
1402	-0.977	-0.056	0.03	24.15	-21.35	8.68
1422	-0.965	-0.044	0.03	24.15	-17.85	7.07
1442	-0.997	-0.037	0.016	21.07	-16.38	4.9
1461	-0.977	-0.04	0.02	17.71	-14.42	3.57
1485	-0.952	-0.051	0.026	16.45	-10.29	0.98
1504	-0.948	-0.04	0.024	14.84	-6.3	-1.12
1525	-0.964	-0.018	0.033	11.76	-3.57	-3.64
1545	-0.975	-0.033	0.078	5.04	-3.29	-5.18
1570	-0.946	-0.047	0.077	2.03	4.76	-6.58
1588	-0.922	-0.024	0.082	0.14	10.64	-9.73
1604	-0.929	-0.025	0.122	-13.72	7.14	-12.25
1628	-0.874	-0.059	0.151	-20.79	6.02	-14.84
1649	-0.862	-0.077	0.141	-11.69	10.43	-17.22
1669	-0.862	-0.019	0.141	-1.68	11.83	-18.55
1688	-0.875	-0.006	0.166	-1.26	10.43	-23.1
1708	-0.849	-0.022	0.13	-3.22	11.55	-24.01
1724	-0.825	-0.038	0.089	1.61	13.51	-21.77
1749	-0.825	-0.02	0.106	7.07	12.11	-22.75
1769	-0.82	-0.012	0.098	7.0	9.17	-21.77
1789	-0.792	-0.035	0.03	13.16	10.71	-21.28
1806	-0.797	-0.041	0.011	18.41	10.99	-21.35
1830	-0.779	-0.07	0.027	22.89	12.46	-18.76
1845	-0.758	-0.044	0.027	28.42	14.7	-16.59
1870	-0.691	-0.071	-0.033	29.96	16.87	-13.86
1886	-0.649	-0.045	-0.047	34.72	20.02	-14.77
1905	-0.661	-0.02	-0.021	29.54	19.04	-17.64
1930	-0.653	0.006	0.023	15.68	19.46	-22.54
1950	-0.642	0.038	0.01	-5.18	22.26	-24.71
1970	-0.659	0.049	-0.024	-34.09	25.06	-26.74
1988	-0.73	0.042	-0.014	-39.76	24.22	-27.58
2012	-0.779	0.071	0.002	-64.82	15.54	-25.62
2032	-0.723	-0.027	-0.055	-71.82	11.13	-22.47
2052	-0.738	-0.05	-0.042	-71.12	8.12	-22.47
2070	-0.916	-0.092	-0.068	-68.74	3.64	-23.87
2092	-1.006	-0.209	-0.144	-56.21	0.21	-19.04
2112	-1.059	-0.202	-0.221	-8.12	-13.72	-23.24
2132	-0.868	-0.067	-0.248	-0.42	7.28	-18.69
2152	-1.103	-0.047	-0.229	-10.99	-9.8	-18.41
2172	-1.072	-0.203	-0.257	-13.37	-14.49	-9.03
2187	-1.033	-0.22	-0.268	0.98	-7.91	-0.91
2208	-1.038	-0.045	-0.238	13.23	-0.77	7.42
2231	-1.03	0.053	-0.17	-22.68	-7.42	17.57
2252	-0.999	-0.056	-0.244	-57.89	-7.07	21.35
2272	-1.191	-0.293	-0.285	-65.24	6.09	20.58
2291	-1.306	-0.273	-0.256	-53.41	-14.0	18.48
2308	-1.24	-0.238	-0.197	-51.38	-2.17	19.74
2332	-1.226	-0.278	-0.181	-37.1	-11.2	20.93
2348	-1.199	-0.273	-0.163	-14.49	-14.0	26.04
2368	-1.161	-0.19	-0.085	13.79	-4.06	29.54
2392	-1.246	-0.052	-0.056	7.28	0.49	33.39
2411	-1.272	-0.152	-0.145	-6.44	-5.67	34.23
2432	-1.271	-0.124	-0.116	-21.07	-3.57	28.14
2447	-1.304	-0.062	-0.06	-52.29	0.63	22.82
2472	-1.427	-0.16	-0.115	-91.77	-6.86	15.26
2492	-1.39	-0.495	-0.19	-78.33	-3.15	7.0
2511	-1.517	-0.42	-0.19	-40.25	5.6	0.63
2529	-1.606	-0.347	-0.057	-30.66	10.85	0.42
2549	-1.582	-0.49	-0.05	-4.55	8.89	3.92
2573	-1.561	-0.48	-0.064	52.99	20.79	4.69
2592	-1.6	-0.369	-0.092	79.38	21.98	1.12
2610	-1.611	-0.262	-0.129	83.72	16.1	-6.86
2629	-1.563	-0.233	-0.134	77.56	1.82	-14.42
2651	-1.484	-0.185	-0.097	82.46	2.87	-15.89
2669	-1.475	-0.22	-0.123	83.3	0.91	-15.61
2694	-1.439	-0.124	-0.079	82.46	2.24	-12.67
2714	-1.421	0.009	0.018	53.83	12.11	-13.44
2734	-1.397	0.053	0.053	-5.95	8.05	-7.49
2752	-1.354	-0.151	-0.025	-38.22	-0.21	-4.06
2770	-1.328	-0.191	-0.061	-62.65	-8.4	-0.84
2790	-1.237	-0.093	-0.01	-78.05	-9.52	1.96
2814	-1.172	-0.053	-0.039	-85.12	-0.77	4.9
2834	-1.259	-0.072	-0.136	-98.0	-21.98	6.58
2854	-1.151	-0.123	-0.196	-96.32	-30.94	9.24
2874	-1.045	0.011	-0.098	-75.6	-29.61	17.15
2894	-0.966	0.023	-0.102	-75.95	-23.38	21.7
2918	-1.074	-0.024	-0.245	-69.72	-47.32	23.66
2935	-0.967	-0.017	-0.178	-59.85	-55.37	24.36
2956	-0.799	-0.036	-0.075	-40.25	-57.89	26.46
2977	-0.796	-0.001	-0.098	-20.79	-46.06	27.51
2997	-0.9	0.0	-0.179	-12.6	-59.15	25.97
3021	-0.676	0.039	-0.074	3.08	-54.25	27.86
3041	-0.69	0.08	-0.067	8.54	-46.97	30.24
3060	-0.657	0.03	-0.088	19.25	-45.85	30.8
3081	-0.67	0.034	-0.049	29.33	-40.74	31.85
3103	-0.665	0.155	0.039	11.55	-43.68	30.31
3122	-0.639	0.16	0.068	-14.0	-45.01	28.42
3146	-0.61	0.083	0.051	-22.4	-42.98	23.8
3165	-0.589	0.014	0.053	-13.44	-41.09	19.81
3186	-0.553	0.013	0.064	4.2	-39.34	14.07
3204	-0.586	0.06	0.073	3.71	-32.27	8.47
3228	-0.712	0.046	0.05	-0.91	-44.31	-2.52
3248	-0.666	0.056	0.086	3.22	-59.64	-14.14
3268	-0.649	0.012	0.147	1.12	-61.95	-21.49
3288	-0.664	-0.041	0.169	-1.61	-57.82	-28.98
3307	-0.69	-0.057	0.22	6.02	-48.86	-38.29
3326	-0.628	0.045	0.471	2.73	-28.84	-45.29
3350	-0.677	-0.057	0.319	-11.62	12.6	-44.45
3370	-0.789	-0.2	0.201	12.95	16.52	-44.8
3388	-0.806	-0.187	0.23	42.84	22.61	-46.48
3407	-0.863	-0.044	0.332	52.85	24.92	-44.94
3430	-0.884	0.0	0.305	29.4	19.74	-39.34
3450	-0.9	0.038	0.272	16.73	17.36	-35.0
3473	-0.858	-0.093	0.206	2.38	8.12	-28.21
3493	-0.839	-0.089	0.176	17.08	10.99	-24.57
3513	-0.857	-0.061	0.157	18.83	6.16	-23.52
3537	-0.837	-0.0	0.197	7.63	-1.96	-23.17
3552	-0.762	-0.096	0.202	-1.33	-1.54	-19.18
3576	-0.716	-0.091	0.162	5.18	15.82	-15.68
3597	-0.773	-0.025	0.165	-0.63	19.95	-17.08
3615	-0.75	-0.058	0.129	-8.12	19.46	-17.08
3635	-0.716	-0.115	0.094	-2.45	19.18	-16.24
3659	-0.682	-0.148	0.075	14.0	21.91	-13.72
3677	-0.692	-0.067	0.112	23.24	26.25	-13.51
3701	-0.63	-0.039	0.099	13.65	33.04	-14.28
3718	-0.637	-0.048	0.077	9.17	41.72	-15.75
3738	-0.7	-0.063	-0.001	14.14	45.57	-16.73
3758	-0.759	-0.085	-0.018	8.4	35.49	-15.47
3782	-0.729	-0.116	-0.014	-1.68	23.03	-13.51
3802	-0.681	-0.069	0.005	-10.08	34.23	-15.75
3822	-0.869	-0.074	-0.07	-20.16	47.18	-20.02
3842	-0.952	-0.186	-0.123	-14.49	31.78	-20.72
3862	-0.833	-0.255	-0.124	-0.63	22.61	-16.03
3886	-0.815	-0.107	-0.102	3.57	30.1	-13.44
3906	-0.932	-0.041	-0.156	-11.48	24.71	-12.81
3924	-1.01	-0.116	-0.178	-21.63	13.23	-9.59
3945	-1.022	-0.281	-0.207	-19.74	6.79	-2.66
3965	-0.995	-0.142	-0.127	-18.06	9.1	0.77
3989	-1.03	-0.114	-0.117	-43.4	21.21	4.9
4009	-1.158	-0.302	-0.202	-30.59	16.38	7.21
4029	-1.168	-0.358	-0.197	-5.6	3.64	11.06
4044	-1.159	-0.303	-0.113	9.1	9.66	12.88
4069	-1.205	-0.218	-0.056	7.77	13.72	15.26
4088	-1.177	-0.138	-0.055	-19.6	14.91	15.75
4108	-1.285	-0.248	-0.134	-28.98	16.52	15.19
4128	-1.369	-0.328	-0.224	-22.05	-15.82	13.23
4152	-1.328	-0.268	-0.137	-10.08	-15.96	11.83
4169	-1.172	-0.114	0.039	-42.35	-10.08	11.69
4190	-1.164	-0.135	-0.031	-74.55	8.05	7.35
4210	-1.354	-0.218	-0.104	-88.62	0.14	5.46
4229	-1.339	-0.398	-0.139	-49.63	-18.9	9.66
4253	-1.312	-0.267	-0.093	-0.56	-5.88	11.69
4273	-1.472	-0.184	-0.173	24.64	-1.33	11.48
4297	-1.402	-0.137	-0.07	21.21	-1.82	11.62
4317	-1.416	-0.167	-0.099	10.29	4.83	14.21
4337	-1.485	-0.201	-0.11	15.68	5.53	15.82
4357	-1.457	-0.141	-0.083	6.37	5.81	11.62
4373	-1.488	-0.124	-0.077	-9.8	1.05	6.37
4397	-1.457	-0.258	-0.106	-1.54	1.05	3.64
4416	-1.425	-0.259	-0.088	14.07	-4.2	4.83
4434	-1.39	-0.316	-0.108	29.12	-2.1	4.62
4458	-1.437	-0.243	-0.107	50.68	0.42	9.8
4478	-1.438	-0.127	-0.031	54.88	-7.35	7.91
4498	-1.382	-0.121	-0.023	58.73	-0.14	9.87
4517	-1.402	-0.14	-0.045	59.15	2.66	11.9
4540	-1.376	-0.108	-0.026	47.46	2.52	12.67
4562	-1.319	-0.068	-0.02	22.75	3.36	14.84
4581	-1.213	-0.078	-0.022	8.12	3.36	16.17
4600	-1.219	-0.113	-0.064	-1.19	6.09	13.79
4625	-1.253	-0.061	-0.078	-11.34	-7.56	9.8
4645	-1.118	0.022	-0.072	-30.03	-5.81	15.12
4661	-0.998	-0.091	-0.081	-24.08	3.43	20.16
4684	-1.082	-0.068	-0.174	-20.51	-7.7	21.7
4700	-1.06	-0.066	-0.161	-22.05	-24.5	21.49
4722	-0.902	-0.006	-0.078	-24.01	-33.39	25.83
4742	-0.891	0.002	-0.13	-18.69	-16.24	27.93
4766	-1.082	0.006	-0.255	-19.04	-31.99	27.23
4786	-0.95	-0.023	-0.165	-10.08	-39.62	31.78
4805	-0.83	0.0	-0.067	-1.26	-32.2	36.61
4822	-0.926	0.036	-0.123	0.21	-26.25	38.43
4843	-1.012	0.014	-0.134	7.7	-40.81	41.86
4866	-0.855	0.016	-0.083	19.74	-40.81	51.66
4883	-0.775	0.058	-0.043	22.96	-37.94	56.21
4907	-0.864	0.176	-0.051	3.36	-33.46	60.06
4927	-1.007	0.135	-0.068	-7.14	-47.74	63.56
4947	-0.891	0.12	0.008	-13.86	-55.16	69.3
4962	-0.793	0.113	0.026	-15.05	-52.57	72.24
4986	-0.815	0.099	-0.004	-4.62	-44.94	71.05
5002	-0.894	0.133	0.041	8.47	-48.44	69.44
5023	-0.835	0.24	0.104	13.86	-56.98	65.94
5047	-0.734	0.207	0.095	4.34	-56.91	65.24
5066	-0.658	0.15	0.071	5.95	-54.95	62.3
5085	-0.652	0.156	0.078	-0.84	-57.4	56.63
5110	-0.593	0.113	0.083	3.99	-60.06	48.09
5128	-0.57	0.218	0.189	1.26	-63.28	41.23
5150	-0.415	0.14	0.208	-12.88	-54.25	33.46
5172	-0.401	0.054	0.24	-9.31	-39.48	21.49
5189	-0.379	0.077	0.227	-1.82	-30.52	10.5
5207	-0.394	0.144	0.221	7.49	-22.47	-2.1
5227	-0.455	0.223	0.288	11.2	-23.45	-16.17
5251	-0.417	0.24	0.31	-2.45	-27.02	-27.93
5272	-0.398	0.144	0.256	13.3	-11.48	-36.68
5292	-0.487	0.301	0.33	6.93	-9.52	-48.3
5310	-0.461	0.259	0.357	-8.26	0.56	-56.07
5332	-0.531	0.22	0.346	-6.02	15.75	-67.9
5356	-0.589	0.219	0.303	-12.74	26.18	-80.22
5376	-0.624	0.125	0.274	-9.94	33.25	-85.61
5391	-0.695	0.157	0.296	-9.52	36.33	-87.99
5413	-0.727	0.211	0.27	-27.93	37.59	-93.1
5432	-0.798	0.134	0.218	-36.54	37.66	-94.85
5456	-0.764	0.041	0.156	-21.14	49.98	-94.92
5475	-0.848	0.027	0.129	6.72	53.13	-97.79
5499	-0.931	0.153	0.101	17.92	56.7	-97.93
5518	-0.889	0.19	0.088	16.31	68.53	-86.73
5542	-0.763	-0.008	0.003	15.47	69.44	-70.84
5561	-0.734	-0.031	-0.016	29.54	72.03	-57.61
5580	-0.757	0.132	-0.024	21.14	70.7	-52.08
5600	-0.794	0.241	-0.067	-16.66	58.73	-43.26
5622	-0.67	0.121	-0.079	-80.99	34.09	-30.52
5645	-0.583	-0.065	-0.118	-118.23	37.87	-17.71
5662	-0.68	-0.143	-0.122	-110.88	40.39	-13.79
5681	-0.754	-0.188	-0.136	-92.68	39.41	-13.02
5701	-0.832	-0.185	-0.168	-76.09	39.48	-12.81
5726	-0.969	-0.228	-0.177	-50.12	24.43	-13.93
5741	-0.968	-0.185	-0.187	-30.31	22.47	-11.55
5766	-0.961	-0.084	-0.171	-12.67	25.55	-4.06
5783	-1.015	-0.217	-0.386	-14.28	37.31	0.98
5807	-1.245	-0.117	-0.328	-9.87	1.61	0.49
5827	-1.176	-0.109	-0.122	-28.56	-4.41	2.38
5846	-1.259	-0.527	-0.349	-36.68	21.07	9.17
5866	-1.465	-0.608	-0.408	17.92	-6.02	0.28
5890	-1.435	-0.241	-0.145	23.24	-2.03	-19.25
5913	-1.38	-0.194	-0.096	26.25	-8.33	-14.91
5932	-1.348	-0.319	-0.102	68.04	5.88	5.32
5953	-1.569	-0.253	-0.228	102.2	-9.52	22.19
5976	-1.583	0.067	-0.059	7.63	-25.62	23.24
5992	-1.521	0.049	-0.023	-52.99	-36.89	18.62
6012	-1.363	-0.231	-0.019	-90.23	-22.54	19.32
6033	-1.372	-0.481	-0.137	-43.75	-10.29	22.19
6052	-1.435	-0.323	-0.041	7.49	-12.81	17.08
6072	-1.428	-0.176	0.094	-2.03	1.19	7.21
6092	-1.518	-0.195	0.054	-17.15	4.27	-2.73
6117	-1.54	-0.377	0.113	-7.0	-12.81	-5.53
6132	-1.461	-0.324	0.082	38.15	-8.47	-5.04
6157	-1.464	-0.219	0.044	59.57	-1.47	-5.04
6177	-1.447	-0.162	-0.116	81.13	12.74	-5.81
6195	-1.518	-0.089	-0.113	75.18	4.9	-5.53
6215	-1.425	-0.126	-0.136	56.35	-0.7	-2.73
6239	-1.416	-0.113	-0.09	43.12	-1.54	0.35
6254	-1.354	-0.095	-0.041	28.91	-1.89	3.08
6278	-1.253	-0.182	-0.077	28.98	8.96	9.45
6299	-1.298	-0.216	-0.165	13.86	21.21	6.44
6323	-1.379	-0.224	-0.213	-0.21	19.6	1.19
6340	-1.26	-0.097	-0.113	-15.05	2.38	-0.7
6359	-1.179	-0.188	-0.151	-21.77	1.75	-2.38
6383	-1.234	-0.252	-0.181	0.07	-13.44	-8.05
6400	-1.145	-0.194	-0.144	15.12	-9.24	-11.27
6419	-1.035	-0.135	-0.132	36.4	3.29	-9.1
6441	-1.116	-0.138	-0.195	49.21	-3.78	-6.72
6461	-1.098	-0.086	-0.143	55.93	-20.16	-2.8
6483	-0.981	0.02	-0.046	47.74	-24.92	9.03
6502	-0.965	0.041	-0.106	39.55	-17.92	21.07
6527	-1.088	0.094	-0.142	30.66	-34.86	41.65
6543	-0.992	0.016	-0.107	29.61	-43.54	55.79
6567	-0.941	0.019	-0.066	31.15	-37.59	75.32
6586	-0.905	0.015	-0.066	28.84	-34.65	87.36
6607	-0.886	0.019	-0.087	24.71	-23.45	97.3
6623	-0.914	0.053	-0.047	17.15	-25.83	97.51
6643	-0.879	0.085	-0.02	7.07	-25.69	93.8
6667	-0.864	0.136	-0.031	-11.76	-27.58	83.02
6685	-0.894	0.142	-0.051	-28.63	-41.37	69.72
6703	-0.877	0.095	-0.021	-40.25	-57.4	56.07
6727	-0.711	0.086	0.072	-43.89	-75.6	43.75
6743	-0.602	0.073	0.106	-41.65	-66.78	37.38
6767	-0.598	0.076	0.099	-34.58	-70.98	27.3
6786	-0.593	0.072	0.105	-40.6	-76.51	18.13
6806	-0.59	0.002	0.125	-33.88	-84.35	10.85
6829	-0.579	0.06	0.16	-26.6	-87.78	4.97
6848	-0.569	0.057	0.134	-28.21	-91.28	0.0
6870	-0.551	0.02	0.175	-30.24	-94.5	-6.02
6892	-0.551	0.03	0.207	-26.39	-84.56	-11.76
6912	-0.581	0.066	0.24	-33.74	-75.11	-17.22
6931	-0.598	0.028	0.321	-46.83	-71.19	-24.36
6952	-0.594	-0.068	0.343	-37.38	-59.71	-33.6
6973	-0.618	-0.055	0.308	-7.56	-44.73	-44.1
6992	-0.623	0.026	0.347	6.44	-35.91	-52.29
7016	-0.602	0.067	0.41	1.54	-20.51	-59.43
7036	-0.591	-0.069	0.351	12.81	2.31	-62.51
7055	-0.645	-0.044	0.308	26.11	14.7	-64.82
7076	-0.687	0.075	0.342	24.5	23.24	-70.21
7094	-0.777	0.076	0.284	8.47	30.24	-73.78
7117	-0.821	-0.014	0.282	4.9	38.08	-73.22
7138	-0.752	0.005	0.34	15.82	52.43	-68.53
7157	-0.81	0.008	0.246	21.42	63.14	-64.75
7182	-0.834	0.039	0.183	32.97	73.5	-56.35
7202	-0.85	0.041	0.167	27.58	65.31	-51.17
7222	-0.818	0.004	0.205	16.52	59.5	-39.27
7237	-0.785	0.028	0.212	5.53	57.47	-31.43
7260	-0.723	-0.004	0.135	-1.96	63.77	-23.59
7280	-0.871	0.02	0.102	-6.65	67.9	-21.42
7300	-0.782	0.002	0.15	-25.97	56.91	-20.93
7319	-0.662	-0.049	0.135	-33.74	53.76	-16.94
7341	-0.668	-0.058	0.091	-42.28	59.5	-12.39
7363	-0.692	-0.017	0.046	-42.49	65.94	-13.93
7387	-0.886	0.002	0.099	-74.69	53.41	-14.7
7405	-0.891	-0.214	0.026	-79.59	42.35	-11.69
7425	-0.859	-0.245	-0.026	-51.38	38.71	-8.4
7445	-0.761	-0.142	-0.066	-33.88	42.84	-5.74
7467	-0.827	0.011	-0.031	-55.09	50.82	-6.02
7487	-1.02	-0.154	-0.133	-74.97	31.08	-5.6
7509	-0.943	-0.255	-0.126	-49.7	9.87	-1.82
7529	-0.844	-0.204	-0.097	-24.5	26.11	1.61
7549	-0.99	-0.116	-0.084	-17.36	43.82	5.88
7572	-1.181	-0.266	-0.234	-14.98	30.03	14.28
7593	-1.158	-0.299	-0.154	9.8	5.25	16.31
7612	-1.004	-0.21	-0.198	4.41	9.17	15.96
7631	-1.077	-0.127	-0.122	-13.86	24.15	15.47
7652	-1.293	-0.302	-0.273	-29.47	14.84	17.99
7676	-1.239	-0.291	-0.268	-23.94	7.49	15.05
7693	-1.174	-0.275	-0.068	-38.15	4.13	11.2
7715	-1.117	-0.426	-0.073	-10.29	19.67	13.58
7732	-1.225	-0.399	-0.08	27.23	24.78	15.61
7756	-1.304	-0.226	-0.058	43.82	15.4	15.12
7776	-1.378	-0.111	-0.115	-2.52	-0.21	11.48
7796	-1.398	-0.281	-0.145	-10.01	-12.46	7.21
7816	-1.372	-0.239	-0.14	-13.02	-2.87	2.8
7840	-1.439	-0.247	-0.147	-15.33	-4.55	1.75
7858	-1.429	-0.201	-0.03	-33.67	-2.1	1.96
7882	-1.518	-0.273	-0.073	-35.0	-4.41	0.91
7900	-1.554	-0.499	-0.066	-30.45	-11.13	-1.4
7920	-1.441	-0.312	-0.091	-13.93	-2.59	-4.2
7940	-1.49	-0.321	-0.117	8.47	3.99	-3.78
7964	-1.492	-0.338	-0.14	35.28	-3.01	-6.72
7984	-1.444	-0.366	-0.113	52.5	-2.66	-11.76
8003	-1.438	-0.205	-0.048	51.38	-1.68	-17.71
8027	-1.431	-0.147	-0.081	36.19	-6.44	-22.61
8047	-1.418	-0.122	-0.074	37.94	-7.49	-22.26
8066	-1.429	-0.166	-0.082	19.6	-13.86	-24.29
8090	-1.37	-0.192	0.008	-5.6	-24.15	-21.0
8110	-1.213	-0.212	0.041	-33.53	-19.18	-16.94
8126	-1.196	-0.285	0.066	-23.24	1.26	-14.84
8148	-1.184	-0.288	0.006	0.77	18.83	-8.82
8172	-1.176	-0.3	-0.027	24.01	26.18	-3.92
8188	-1.14	-0.239	-0.021	35.49	27.44	0.21
8211	-1.151	-0.231	-0.075	29.12	25.2	3.64
8232	-1.147	-0.245	-0.083	44.66	11.27	6.09
8248	-1.156	-0.096	-0.024	43.26	-7.98	5.39
8272	-1.107	-0.012	-0.002	18.69	-29.96	9.52
8292	-1.081	-0.111	-0.003	0.63	-47.18	15.89
8307	-1.045	-0.175	0.017	11.76	-49.0	22.54
8330	-1.059	-0.193	-0.016	41.09	-46.27	32.97
8352	-1.05	-0.127	-0.072	63.07	-63.7	46.62
8368	-0.941	-0.005	-0.062	57.61	-79.24	56.35
8392	-0.874	-0.018	-0.055	42.56	-86.38	69.72
8411	-0.897	-0.084	-0.072	43.4	-97.58	76.44
8430	-0.852	-0.079	-0.087	46.41	-106.33	79.24
8454	-0.807	-0.025	-0.067	41.79	-115.85	77.84
8473	-0.758	0.015	-0.017	29.68	-119.77	73.22
8492	-0.762	0.0	0.017	19.53	-115.36	66.43
8517	-0.823	-0.004	0.008	14.63	-105.0	51.87
8537	-0.911	0.032	-0.011	11.97	-115.29	37.59
8557	-0.778	0.056	0.007	11.55	-112.91	26.95
8577	-0.712	0.048	0.013	9.17	-104.3	12.04
8592	-0.571	-0.038	0.059	8.05	-93.31	4.76
8616	-0.586	0.063	0.224	-11.2	-80.36	-0.98
8636	-0.566	0.001	0.106	-35.42	-69.09	-1.68
8653	-0.622	-0.066	0.098	-26.04	-62.65	-8.54
8677	-0.745	0.012	0.257	-36.68	-88.9	-18.27
8697	-0.633	-0.162	0.273	-19.67	-74.06	-22.12
8720	-0.741	-0.053	0.396	13.65	-68.67	-25.2
8739	-0.586	-0.072	0.345	36.47	-45.71	-22.54
8758	-0.608	0.007	0.398	56.77	-30.73	-20.86
8783	-0.639	0.094	0.465	27.3	-18.34	-19.53
8807	-0.675	0.108	0.518	-4.9	-17.78	-17.99
8827	-0.573	0.029	0.541	-15.05	16.24	-16.03
8847	-0.594	0.011	0.498	-8.89	18.62	-18.34
8863	-0.649	0.027	0.473	-6.44	26.6	-21.63
8887	-0.674	0.033	0.413	-10.5	33.18	-29.05
8907	-0.658	0.002	0.421	-12.67	39.55	-34.23
8926	-0.705	0.036	0.478	-23.87	42.42	-38.29
8942	-0.738	-0.011	0.527	-28.98	46.41	-39.27
8965	-0.676	-0.061	0.436	-12.81	55.23	-37.38
8987	-0.736	0.031	0.382	3.36	70.91	-37.66
9004	-0.837	0.059	0.387	-3.15	66.08	-37.1
9023	-0.811	-0.041	0.409	-3.43	56.77	-32.13
9048	-0.736	-0.011	0.367	2.59	64.82	-24.64
9068	-0.807	0.063	0.311	-2.45	63.56	-23.03
9084	-0.861	0.049	0.319	-13.86	50.12	-20.02
9103	-0.794	-0.031	0.318	-26.04	41.93	-15.47
9127	-0.702	-0.104	0.27	-15.61	45.29	-8.12
9148	-0.704	0.011	0.244	-10.78	56.98	-5.88
9167	-0.795	0.002	0.261	-20.51	47.18	-6.02
9192	-0.755	-0.066	0.232	-23.94	37.45	-7.07
9208	-0.664	-0.073	0.209	-18.06	43.89	-5.95
9232	-0.623	-0.083	0.183	-12.53	50.96	-5.53
9252	-0.703	0.025	0.171	-31.15	61.74	-6.09
9270	-0.819	-0.032	0.131	-52.64	48.58	-4.83
9290	-0.745	-0.124	0.103	-50.12	40.74	-1.47
9310	-0.687	-0.152	0.048	-38.08	35.91	0.77
9333	-0.646	-0.091	0.056	-30.1	44.1	-1.19
9353	-0.802	-0.028	0.151	-60.13	52.43	-4.62
9373	-0.863	-0.462	-0.047	-34.86	49.49	-4.13
9397	-0.86	-0.496	-0.097	61.53	45.78	-7.63
9417	-0.858	-0.086	0.006	90.44	56.42	-11.9
9437	-0.989	0.009	-0.033	49.77	50.19	-11.97
9456	-1.051	0.027	-0.097	3.85	37.8	-7.49
9473	-1.124	-0.18	-0.127	-16.52	30.59	-1.4
9497	-1.086	-0.255	-0.063	-7.77	26.04	7.42
9517	-1.093	-0.194	-0.04	-4.27	28.91	10.57
9535	-1.182	-0.164	-0.106	-19.04	29.89	11.9
9555	-1.28	-0.166	-0.102	-46.76	23.73	10.92
9580	-1.342	-0.329	-0.161	-60.62	10.15	12.32
9595	-1.233	-0.49	-0.163	-35.63	13.93	14.07
9619	-1.179	-0.405	-0.096	15.89	29.05	9.73
9639	-1.248	-0.232	-0.04	22.4	33.39	2.87
9659	-1.286	-0.178	0.009	6.65	22.96	0.77
9679	-1.33	-0.211	-0.05	-7.42	18.62	5.74
9699	-1.302	-0.187	-0.081	-5.88	13.09	8.75
9717	-1.286	-0.03	-0.073	-19.18	15.26	8.26
9738	-1.288	-0.102	-0.077	-42.28	7.14	5.46
9758	-1.227	-0.135	0.03	-56.35	8.68	5.67
9782	-1.239	-0.23	0.017	-56.28	19.04	9.52
9798	-1.308	-0.229	-0.046	-34.37	22.47	12.88
9822	-1.4	-0.132	-0.007	-32.13	14.7	7.35
9841	-1.423	-0.23	-0.094	-31.22	-4.55	2.1
9862	-1.456	-0.2	-0.044	-31.5	-6.02	-0.42
9878	-1.458	-0.254	-0.078	-30.87	-11.34	0.0
9898	-1.442	-0.323	-0.104	-17.08	-8.05	2.31
9921	-1.401	-0.379	-0.134	7.28	-6.09	6.37
9945	-1.383	-0.265	-0.105	34.02	1.47	8.19
9969	-1.364	-0.221	-0.094	45.92	10.36	6.93
9989	-1.371	-0.121	-0.076	46.83	11.62	7.0
10008	-1.326	-0.164	-0.044	37.73	7.63	7.42
10028	-1.295	-0.094	-0.032	26.46	6.02	8.75
10052	-1.309	-0.048	-0.024	-8.05	-3.85	12.53
10072	-1.295	-0.203	-0.028	-22.82	-5.88	12.81
10096	-1.3	-0.224	-0.131	-23.66	-13.79	13.79
10116	-1.255	-0.224	-0.135	-24.5	-17.99	9.59
10132	-1.303	-0.199	-0.098	-20.65	-31.92	6.16
10153	-1.2	-0.203	-0.083	-7.84	-37.87	0.56
10174	-1.149	-0.231	-0.0	18.83	-27.51	-0.91
10198	-1.069	-0.213	-0.093	49.07	-21.77	-2.73
10215	-1.069	-0.137	-0.115	59.5	-21.0	-5.11
10240	-1.031	-0.024	-0.066	49.7	-24.01	-5.46
10259	-1.005	0.025	-0.035	24.5	-26.46	-4.27
10275	-1.021	-0.011	-0.079	4.9	-36.19	-3.5
10294	-0.976	-0.089	-0.094	0.28	-46.27	-3.78
10316	-0.911	-0.072	-0.026	4.83	-45.99	-4.13
10338	-0.95	-0.041	-0.056	7.84	-42.21	-4.34
10358	-0.966	-0.032	-0.034	5.32	-52.43	-5.32
10377	-0.911	-0.048	-0.05	9.17	-59.15	-4.9
10402	-0.852	-0.053	-0.056	25.97	-55.65	-0.91
10422	-0.908	-0.031	-0.003	41.58	-51.1	4.27
10443	-0.926	0.012	0.028	40.46	-49.84	9.94
10460	-0.93	0.077	0.039	30.1	-51.31	14.84
10482	-0.909	0.036	0.019	22.89	-53.34	23.45
10506	-0.944	-0.015	0.062	34.44	-49.63	33.25
10524	-1.062	-0.023	0.022	48.51	-57.33	40.67
10544	-0.974	0.045	0.003	56.0	-71.19	49.63
10566	-0.98	0.061	0.073	51.8	-69.79	59.99
10583	-1.065	0.065	0.189	44.24	-74.34	68.74
10604	-1.073	0.084	0.155	31.85	-93.45	82.18
10628	-1.037	0.156	0.118	15.96	-109.41	95.76
10648	-1.125	0.091	0.126	2.59	-118.72	101.99
10668	-1.085	0.072	0.162	-3.99	-145.32	108.15
10691	-0.871	0.004	0.193	-14.07	-150.15	109.97
10715	-0.814	-0.018	0.264	4.27	-139.79	107.52
10733	-0.7	0.023	0.249	29.54	-134.47	101.78
10753	-0.565	0.073	0.289	39.2	-120.12	89.74
10772	-0.467	0.118	0.303	35.42	-105.91	76.51
10797	-0.375	0.144	0.336	25.2	-88.83	58.03
10817	-0.309	0.153	0.349	21.35	-70.42	44.03
10835	-0.282	0.166	0.329	14.84	-63.0	29.82
10857	-0.146	0.154	0.342	10.22	-48.23	11.69
10877	-0.149	0.226	0.405	9.45	-22.26	-0.77
10901	-0.195	0.241	0.445	7.49	-5.53	-15.12
10921	-0.213	0.272	0.458	9.87	13.23	-24.36
10941	-0.254	0.301	0.485	5.32	22.19	-35.42
10961	-0.285	0.322	0.514	-2.59	35.63	-41.86
10980	-0.313	0.253	0.515	2.8	55.79	-44.94
11005	-0.38	0.32	0.531	20.79	72.17	-52.29
11021	-0.469	0.388	0.492	0.91	67.34	-54.32
11043	-0.426	0.239	0.377	5.39	74.41	-56.7
11067	-0.459	0.247	0.416	26.81	89.25	-60.69
11083	-0.528	0.391	0.455	6.16	96.18	-63.7
11106	-0.601	0.37	0.392	-25.62	100.8	-68.25
11123	-0.651	0.317	0.32	-43.12	99.82	-71.68
11146	-0.651	0.129	0.273	-34.93	104.09	-73.78
11170	-0.685	0.043	0.221	-14.98	112.0	-74.34
11185	-0.708	0.118	0.191	9.17	116.62	-77.91
11209	-0.773	0.223	0.236	-14.7	110.6	-84.07
11228	-0.797	0.116	0.276	-36.75	107.8	-85.19
11252	-0.788	0.028	0.175	-46.62	91.84	-84.21
11272	-0.721	0.018	0.101	-43.61	84.49	-85.61
11292	-0.788	0.165	0.073	-81.69	87.71	-83.51
11308	-1.011	0.142	0.097	-118.44	70.77	-84.42
11332	-0.943	-0.025	0.077	-140.56	62.23	-82.67
11352	-0.911	-0.061	-0.042	-146.79	61.74	-78.47
11375	-0.944	-0.113	-0.102	-120.4	69.16	-73.99
11396	-1.264	-0.066	-0.255	-90.93	51.31	-67.34
11416	-1.109	-0.258	-0.328	-40.18	15.33	-44.94
11435	-0.911	-0.253	-0.343	2.31	17.64	-18.55
11454	-0.988	-0.221	-0.326	27.72	25.55	3.01
11473	-1.163	-0.169	-0.272	30.1	20.44	17.99
11498	-1.1	-0.268	-0.189	28.28	33.04	22.68
11522	-1.134	-0.22	-0.073	15.54	43.05	18.48
11542	-1.169	-0.294	-0.025	6.3	47.53	15.47
11560	-1.304	-0.403	-0.102	-4.62	43.75	11.27
11577	-1.272	-0.371	-0.07	4.83	18.76	5.39
11601	-1.292	-0.311	-0.041	29.54	27.09	6.93
11618	-1.336	-0.315	-0.014	32.69	17.64	9.87
11639	-1.367	-0.105	-0.008	10.43	11.06	9.1
11659	-1.452	-0.159	-0.064	-28.21	-15.96	8.19
11680	-1.36	-0.28	0.029	-27.23	-9.73	17.43
11704	-1.334	-0.366	-0.003	11.27	0.35	23.45
11723	-1.481	-0.123	0.049	6.09	0.84	16.31
11747	-1.323	-0.142	0.149	-9.31	-15.33	2.1
11771	-1.262	-0.309	0.152	10.15	5.67	3.99
11788	-1.3	-0.264	0.144	19.95	4.69	5.88
11806	-1.355	-0.173	0.1	3.22	-1.47	2.52
11830	-1.316	-0.082	0.092	-17.85	-0.42	-7.14
11849	-1.325	-0.188	-0.009	-37.03	8.54	-8.96
11873	-1.308	-0.237	-0.06	-17.92	12.25	-3.01
11897	-1.35	-0.185	-0.089	-12.04	4.69	4.48
11917	-1.329	-0.155	-0.105	-23.87	0.49	6.3
11935	-1.334	-0.154	-0.102	-32.83	0.77	3.29
11956	-1.341	-0.19	-0.144	-54.18	-5.18	-2.38
11974	-1.321	-0.263	-0.161	-61.81	-5.67	-6.79
11998	-1.278	-0.295	-0.143	-45.08	-9.8	-8.54
12017	-1.211	-0.255	-0.139	-36.4	-8.47	-6.16
12036	-1.145	-0.345	-0.164	-29.12	-2.87	-6.37
12058	-1.153	-0.392	-0.208	-10.64	6.58	-10.92
12077	-1.184	-0.284	-0.175	6.44	5.88	-12.95
12100	-1.181	-0.184	-0.162	13.65	1.4	-13.65
12118	-1.18	-0.155	-0.143	21.14	0.42	-12.81
12136	-1.173	-0.186	-0.203	17.15	-5.6	-11.55
12160	-1.118	-0.231	-0.229	21.98	-13.93	-8.33
12184	-1.122	-0.006	-0.164	22.75	-20.37	-8.33
12205	-1.148	-0.158	-0.115	0.21	-34.86	-10.78
12221	-1.128	-0.255	-0.149	0.49	-38.5	-13.79
12244	-1.084	-0.24	-0.139	15.26	-40.88	-17.85
12264	-0.99	-0.156	-0.128	31.78	-32.13	-20.3
12280	-0.998	-0.125	-0.105	36.82	-27.86	-21.63
12301	-1.045	-0.206	-0.125	27.16	-31.01	-22.12
12320	-1.089	-0.251	-0.165	36.47	-35.7	-23.45
12343	-0.976	-0.124	-0.14	55.09	-35.91	-24.5
12365	-0.945	-0.079	-0.109	58.31	-36.61	-21.7
12385	-0.947	-0.19	-0.119	54.39	-44.45	-17.71
12408	-0.959	-0.188	-0.061	59.29	-49.42	-12.11
12430	-0.919	-0.152	-0.079	76.09	-50.05	-6.23
12450	-0.841	-0.02	0.008	80.29	-49.77	0.77
12469	-0.775	-0.184	0.025	68.11	-52.78	7.14
12494	-0.709	-0.208	0.035	72.03	-41.79	8.89
12517	-0.812	-0.119	0.077	73.64	-26.67	10.29
12538	-0.838	-0.028	0.115	52.64	-39.41	8.75
12554	-0.753	-0.129	0.105	43.96	-46.48	8.61
12578	-0.659	-0.168	0.125	53.13	-40.32	7.42
12597	-0.722	-0.04	0.168	51.03	-36.61	7.56
12616	-0.758	-0.012	0.19	33.88	-42.42	8.68
12641	-0.735	-0.069	0.196	28.21	-42.49	12.67
12660	-0.741	-0.08	0.228	28.35	-39.55	17.15
12681	-0.748	-0.062	0.185	33.88	-26.95	22.54
12700	-0.814	0.034	0.209	31.15	-28.14	24.99
12724	-0.829	-0.019	0.253	10.57	-42.49	30.45
12743	-0.777	-0.096	0.216	21.49	-38.29	36.33
12764	-0.759	-0.069	0.256	28.21	-36.68	39.13
12787	-0.77	-0.025	0.248	23.45	-29.54	39.41
12806	-0.808	0.035	0.28	14.77	-33.11	37.59
12829	-0.737	0.041	0.398	-0.91	-39.41	35.98
12849	-0.736	-0.023	0.423	-16.59	-36.61	36.89
12869	-0.771	-0.099	0.403	-7.07	-33.74	34.65
12888	-0.829	-0.058	0.376	7.42	-29.47	29.89
12908	-0.899	0.048	0.413	5.04	-30.52	22.89
12932	-0.876	-0.045	0.46	-12.32	-41.02	19.6
12952	-0.803	-0.106	0.435	7.63	-28.77	19.46
12972	-0.799	-0.027	0.435	16.1	-15.33	17.29
12991	-0.854	0.075	0.42	16.59	-9.38	11.76
13016	-0.858	0.085	0.433	-10.85	-14.91	7.98
13036	-0.765	-0.072	0.41	-1.82	-8.68	8.61
13056	-0.685	-0.055	0.388	11.13	8.54	8.33
13076	-0.843	0.061	0.373	14.49	12.18	2.45
13095	-0.86	0.002	0.348	8.61	6.58	-3.15
13115	-0.786	-0.024	0.338	22.26	12.6	-6.79
13139	-0.712	-0.005	0.298	25.2	24.01	-9.38
13159	-0.7	0.057	0.279	15.4	38.64	-12.39
13175	-0.774	0.081	0.277	-3.43	35.28	-14.84
13195	-0.775	0.02	0.25	-20.72	31.22	-17.29
13215	-0.77	-0.04	0.241	-22.54	31.29	-18.34
13234	-0.764	-0.037	0.224	-14.77	36.33	-19.46
13259	-0.741	-0.031	0.229	-10.08	42.35	-21.28
13279	-0.764	-0.015	0.21	-11.76	51.24	-22.89
13299	-0.864	0.004	0.196	-13.58	48.86	-26.04
13319	-0.831	-0.052	0.178	-21.42	42.49	-28.0
13339	-0.787	-0.087	0.169	-11.06	44.17	-28.84
13356	-0.74	-0.049	0.171	-6.09	49.63	-29.4
13375	-0.742	-0.034	0.161	-11.34	57.12	-29.26
13395	-0.791	-0.027	0.12	-14.91	57.12	-30.1
13419	-0.84	-0.046	0.13	-29.89	49.21	-29.68
13443	-0.818	-0.059	0.127	-37.8	45.01	-26.67
13461	-0.8	-0.062	0.098	-41.37	47.95	-24.01
13480	-0.868	-0.082	0.064	-46.69	46.83	-21.91
13504	-0.89	-0.077	0.045	-47.32	41.72	-20.09
13524	-0.838	-0.038	0.026	-62.72	31.08	-18.62
13541	-0.73	-0.144	0.001	-68.18	30.52	-14.84
13565	-0.733	-0.125	0.03	-67.83	38.57	-9.1
13586	-0.818	-0.17	0.033	-59.92	44.24	-4.9
13606	-0.852	-0.292	-0.081	-18.69	47.74	-4.9
13628	-0.878	-0.228	-0.073	22.89	39.76	-9.66
13652	-0.863	-0.131	0.004	26.74	42.35	-13.16
13672	-1.001	-0.091	-0.063	16.03	44.94	-7.28
13692	-1.076	-0.106	-0.127	4.62	33.67	-3.85
13708	-1.139	-0.118	-0.115	-8.68	23.59	-2.87
13731	-1.127	-0.065	-0.102	-39.83	17.78	0.77
13752	-1.131	-0.316	-0.143	-41.37	20.72	7.77
13772	-1.207	-0.343	-0.136	-12.88	25.48	12.95
13792	-1.299	-0.284	-0.203	0.7	19.88	14.49
13811	-1.311	-0.222	-0.181	-0.14	12.88	14.28
13831	-1.247	-0.097	-0.074	-32.13	9.45	13.23
13851	-1.229	-0.251	-0.13	-51.38	15.19	16.45
13872	-1.308	-0.324	-0.155	-30.73	19.39	17.22
13894	-1.411	-0.147	-0.018	-30.66	14.63	12.53
13918	-1.399	-0.125	-0.051	-76.44	7.28	6.86
13937	-1.427	-0.305	-0.169	-70.0	9.31	6.79
13955	-1.499	-0.38	-0.19	-40.95	-0.14	11.06
13975	-1.492	-0.345	-0.106	-4.69	-0.56	12.32
13995	-1.543	-0.207	-0.067	7.56	5.53	10.08
14019	-1.52	-0.247	-0.122	11.06	9.59	6.37
14036	-1.507	-0.349	-0.099	6.86	2.66	4.9
14055	-1.412	-0.293	-0.007	18.13	7.7	2.8
14075	-1.451	-0.181	-0.013	0.07	12.18	-0.07
14099	-1.436	-0.2	-0.096	-10.01	12.74	-6.09
14119	-1.411	-0.209	-0.172	-15.68	8.12	-11.27
14139	-1.409	-0.161	-0.22	-25.06	2.24	-17.22
14159	-1.349	-0.297	-0.136	-34.16	-6.58	-15.47
14183	-1.315	-0.33	-0.121	4.55	-2.73	-8.96
14203	-1.302	-0.304	-0.124	31.01	-6.23	-9.73
14219	-1.278	-0.281	-0.081	46.13	-10.29	-14.7
14242	-1.257	-0.075	-0.054	34.58	-24.85	-22.68
14263	-1.195	-0.083	-0.087	7.56	-29.54	-27.93
14280	-1.251	-0.181	-0.068	-5.11	-39.9	-28.56
14299	-1.214	-0.324	-0.025	16.59	-48.44	-23.17
14324	-1.065	-0.289	-0.013	39.83	-33.6	-9.8
14344	-1.045	-0.217	-0.0	71.33	-18.76	-3.36
14364	-1.077	-0.165	0.009	74.06	-10.29	-0.28
14384	-1.022	-0.123	0.081	61.32	-9.03	2.24
14407	-1.014	-0.173	0.036	57.96	-15.05	5.74
14427	-0.987	-0.189	-0.027	73.78	-28.0	7.63
14451	-0.97	-0.202	-0.167	86.17	-32.27	7.35
14471	-0.928	-0.177	-0.115	96.53	-33.88	6.44
14490	-0.99	0.006	-0.014	77.84	-57.54	5.53
14513	-0.984	-0.069	-0.091	66.64	-74.9	6.44
14529	-0.948	-0.133	-0.081	69.58	-84.28	5.6
14554	-0.834	-0.055	0.041	48.51	-94.43	11.76
14574	-0.823	-0.137	0.102	44.59	-85.26	17.57
14593	-0.888	-0.13	0.062	46.62	-93.24	21.7
14609	-0.799	-0.128	0.085	55.65	-97.37	24.85
14629	-0.792	-0.057	0.126	58.52	-97.86	28.07
14654	-0.813	-0.106	0.143	51.1	-97.51	30.38
14674	-0.846	-0.099	0.17	51.45	-92.26	32.34
14697	-0.848	-0.027	0.201	42.49	-90.58	32.62
14718	-0.821	-0.034	0.23	19.95	-86.38	34.02
14737	-0.79	-0.109	0.21	11.13	-80.57	34.51
14761	-0.85	-0.082	0.262	7.35	-69.65	31.85
14781	-0.867	-0.042	0.261	8.12	-65.87	29.47
14801	-0.808	-0.094	0.191	15.05	-62.65	29.12
14819	-0.748	-0.041	0.232	20.23	-58.17	28.98
14839	-0.716	0.026	0.288	4.2	-56.77	26.67
14860	-0.713	-0.043	0.299	-9.59	-56.98	25.27
14882	-0.656	-0.056	0.3	-5.39	-49.98	23.03
14906	-0.705	-0.045	0.318	2.17	-36.33	16.94
14926	-0.769	0.024	0.366	-4.2	-35.56	9.31
14946	-0.762	0.044	0.367	-16.52	-41.23	3.78
14965	-0.683	-0.037	0.361	-7.84	-40.81	3.5
14985	-0.65	-0.051	0.351	14.63	-29.47	6.65
15009	-0.668	0.025	0.399	26.32	-23.17	10.78
15024	-0.602	0.019	0.442	19.46	-15.26	11.2
15049	-0.655	0.088	0.478	-0.21	-1.47	5.74
15070	-0.671	0.027	0.413	-12.67	0.77	-0.21
15089	-0.638	0.023	0.425	-8.12	3.01	-4.9
15104	-0.595	0.034	0.433	-10.08	5.74	-7.63
15128	-0.546	0.074	0.457	-15.82	19.88	-10.85
15152	-0.617	0.118	0.421	-24.01	32.34	-15.75
15172	-0.657	0.041	0.375	-20.65	32.48	-17.85
15191	-0.637	0.033	0.383	-14.35	33.39	-18.06
15207	-0.599	0.048	0.392	-14.35	38.92	-18.41
15231	-0.615	0.081	0.378	-23.73	48.58	-18.69
15248	-0.617	0.065	0.353	-27.09	56.42	-19.25
15272	-0.623	0.063	0.359	-38.71	61.95	-20.44
15289	-0.586	0.014	0.344	-46.27	66.22	-20.72
15312	-0.617	-0.021	0.285	-42.91	73.71	-21.7
15333	-0.668	-0.013	0.251	-32.27	71.75	-25.34
15353	-0.676	0.02	0.28	-36.68	66.01	-26.39
15377	-0.628	-0.027	0.224	-41.37	73.36	-23.73
15396	-0.708	-0.028	0.185	-42.21	77.14	-21.0
15419	-0.757	0.006	0.206	-46.83	68.6	-18.41
15440	-0.716	-0.043	0.205	-58.66	59.99	-16.59
15459	-0.778	-0.103	0.209	-57.26	64.68	-13.23
15477	-0.862	-0.107	0.177	-55.86	68.95	-10.01
15501	-0.946	-0.148	0.139	-51.17	61.95	-3.78
15518	-0.924	-0.152	0.11	-38.85	48.16	-2.94
15540	-0.864	-0.141	0.14	-36.12	52.01	-4.06
15559	-1.08	-0.195	0.083	-33.53	49.0	-5.46
15579	-1.078	-0.198	0.023	-28.07	35.63	-4.9
15603	-0.979	-0.13	0.032	-39.41	34.3	-3.08
15623	-0.957	-0.106	0.019	-72.73	39.34	-0.07
15647	-1.138	-0.272	-0.016	-81.62	40.81	9.03
15667	-1.226	-0.528	-0.155	-28.63	30.8	14.14
15685	-1.134	-0.467	-0.044	25.76	32.13	13.3
15703	-1.092	-0.185	0.082	30.24	40.46	9.94
15723	-1.058	-0.145	0.095	0.77	47.67	8.4
15743	-1.189	-0.221	-0.025	-12.04	44.94	9.52
15767	-1.24	-0.262	-0.037	-4.69	15.47	15.4
15786	-1.146	-0.097	0.09	-28.35	9.94	19.32
15806	-1.262	-0.055	-0.041	-67.41	10.5	21.14
15829	-1.322	-0.192	-0.096	-84.21	2.31	23.17
15847	-1.278	-0.378	-0.049	-69.58	-7.14	25.41
15869	-1.193	-0.357	-0.041	-24.01	6.02	20.72
15892	-1.28	-0.235	-0.034	9.45	16.94	10.29
15913	-1.243	-0.105	0.066	-3.22	15.89	3.22
15933	-1.19	-0.188	0.014	-19.32	14.91	0.14
15952	-1.366	-0.219	-0.021	-2.38	18.41	4.2
15971	-1.287	-0.088	-0.007	-0.35	15.75	4.76
15988	-1.378	-0.066	0.001	-17.29	16.59	4.55
16013	-1.461	-0.195	-0.017	-33.18	6.58	4.48
16028	-1.477	-0.25	-0.024	-35.56	-5.39	3.15
16051	-1.45	-0.237	-0.012	-28.49	-8.19	1.47
16075	-1.454	-0.277	0.005	-19.32	-4.62	-2.24
16093	-1.44	-0.365	0.006	-7.28	1.61	-5.32
16116	-1.423	-0.352	0.01	16.66	8.61	-6.44
16137	-1.359	-0.234	-0.018	18.97	13.16	-8.05
16157	-1.361	-0.182	0.024	6.09	15.47	-12.74
16177	-1.398	-0.201	-0.062	-5.46	8.05	-16.66
16192	-1.41	-0.258	-0.118	-1.12	2.8	-16.8
16213	-1.37	-0.425	-0.168	34.3	4.41	-11.27
16233	-1.292	-0.411	-0.155	83.02	10.29	-6.09
16257	-1.241	-0.271	-0.111	96.32	18.97	-9.73
16277	-1.3	-0.098	-0.061	63.14	15.4	-16.73
16297	-1.269	-0.064	-0.084	36.75	5.46	-19.53
16317	-1.248	-0.155	-0.145	3.64	-9.52	-16.66
16335	-1.224	-0.216	-0.132	-7.0	-24.08	-10.15
16357	-1.148	-0.242	-0.159	2.73	-26.81	-4.41
16376	-1.092	-0.271	-0.18	18.83	-22.68	-3.71
16400	-1.121	-0.27	-0.197	46.83	-24.36	-6.86
16420	-1.024	-0.171	-0.117	45.99	-26.67	-9.52
16440	-0.983	-0.171	-0.09	39.27	-29.47	-10.08
16460	-0.888	-0.091	-0.064	25.83	-33.53	-9.03
16477	-0.873	-0.106	-0.065	7.91	-31.78	-8.54
16497	-0.887	-0.091	-0.032	-7.49	-34.23	-8.33
16516	-0.945	-0.183	-0.012	5.39	-33.95	-6.23
16536	-0.924	-0.188	0.032	13.02	-50.54	-0.7
16561	-0.818	-0.261	0.017	37.59	-55.86	5.39
16580	-0.828	-0.173	0.055	63.21	-52.99	6.3
16599	-0.86	-0.084	0.103	72.17	-55.79	5.81
16622	-0.854	-0.063	0.099	81.69	-56.42	9.45
16641	-0.853	-0.039	0.106	80.92	-61.18	13.93
16665	-0.897	0.0	0.186	68.04	-70.07	19.39
16681	-0.857	0.042	0.237	51.24	-76.86	21.42
16705	-0.843	0.02	0.193	24.92	-83.16	25.34
16724	-0.827	-0.066	0.159	21.77	-86.45	26.39
16743	-0.874	-0.121	0.178	31.22	-84.56	24.92
16763	-0.907	-0.1	0.155	42.21	-86.87	23.17
16787	-0.892	-0.127	0.109	72.52	-80.99	24.01
16806	-0.85	-0.01	0.134	77.7	-78.05	27.09
16827	-0.869	0.041	0.154	69.3	-72.45	29.96
16845	-0.875	0.026	0.154	57.75	-75.81	33.39
16867	-0.699	0.0	0.161	56.07	-81.13	40.39
16890	-0.6	0.01	0.141	49.42	-53.2	46.9
16911	-0.734	0.025	0.161	44.87	-50.33	45.92
16935	-0.704	0.033	0.252	23.38	-47.39	39.2
16959	-0.717	-0.021	0.258	19.11	-36.54	32.76
16977	-0.692	-0.034	0.272	24.43	-25.06	28.56
17001	-0.678	0.073	0.349	24.15	-12.11	21.07
17019	-0.726	0.169	0.384	5.6	-8.19	14.91
17043	-0.742	0.158	0.381	-15.68	-13.3	7.84
17063	-0.713	0.073	0.387	-23.66	-12.32	6.58
17081	-0.71	0.014	0.387	-19.32	-5.46	7.91
17102	-0.719	0.04	0.402	-12.46	0.49	6.79
17123	-0.73	0.1	0.41	-11.48	5.46	2.38
17147	-0.761	0.096	0.425	-27.09	2.17	-4.41
17164	-0.718	0.003	0.411	-25.48	3.78	-7.49
17188	-0.703	-0.012	0.414	-13.09	12.74	-10.43
17207	-0.72	0.085	0.439	-11.48	20.44	-12.25
17226	-0.723	0.083	0.403	-18.9	27.09	-14.91
17248	-0.739	0.091	0.407	-24.29	29.19	-18.2
17267	-0.734	0.092	0.405	-39.9	26.39	-20.44
17287	-0.666	0.038	0.398	-44.45	31.29	-20.65
17304	-0.67	0.006	0.356	-38.15	38.99	-20.44
17324	-0.689	0.003	0.327	-27.93	41.86	-22.61
17346	-0.672	0.027	0.314	-25.55	44.73	-26.53
17366	-0.646	0.019	0.292	-35.91	48.3	-27.02
17385	-0.648	-0.008	0.275	-36.89	57.33	-27.02
17409	-0.687	0.01	0.237	-41.65	57.89	-27.51
17430	-0.629	0.02	0.241	-46.34	58.03	-28.07
17453	-0.602	0.035	0.229	-54.39	57.75	-28.28
17474	-0.592	-0.031	0.169	-57.89	59.64	-26.6
17498	-0.646	-0.082	0.144	-48.51	59.5	-22.4
17518	-0.654	-0.014	0.119	-49.14	58.59	-18.62
17538	-0.639	0.021	0.101	-55.09	57.12	-16.73
17558	-0.675	-0.049	0.065	-65.45	59.22	-15.96
17574	-0.788	-0.098	0.027	-63.28	59.99	-15.75
17598	-0.861	-0.08	0.009	-60.27	48.72	-13.79
17618	-0.842	-0.073	0.029	-69.37	44.03	-12.25
17641	-0.949	-0.102	-0.055	-81.48	37.59	-9.87
17661	-0.954	-0.09	-0.063	-87.92	33.11	-7.21
17681	-0.966	-0.073	-0.006	-110.11	32.06	-2.31
17700	-1.035	-0.26	-0.082	-124.46	35.77	5.6
17725	-1.09	-0.421	-0.169	-68.6	22.12	11.83
17744	-1.117	-0.212	0.033	-37.8	35.98	10.85
17768	-1.317	-0.18	0.048	-36.12	33.95	10.43
17789	-1.336	-0.227	-0.146	-38.15	14.28	15.33
17808	-1.322	-0.299	-0.18	-33.95	5.11	25.83
17830	-1.37	-0.232	-0.099	-37.66	2.52	32.97
17849	-1.398	-0.178	-0.105	-53.34	3.01	32.97
17872	-1.382	-0.261	-0.161	-56.0	5.53	28.98
17888	-1.339	-0.302	-0.102	-55.09	6.44	25.2
17913	-1.287	-0.407	-0.052	-34.37	20.37	20.44
17932	-1.333	-0.449	-0.007	3.01	28.21	17.22
17952	-1.427	-0.296	-0.03	36.33	24.85	16.03
17977	-1.462	-0.14	-0.01	23.03	13.23	12.81
17999	-1.458	-0.201	0.014	0.49	13.93	10.43
18017	-1.509	-0.228	0.014	-6.93	3.15	9.31
18041	-1.505	-0.224	0.017	-3.08	5.81	6.44
18058	-1.568	-0.181	0.05	-12.25	1.68	4.06
18081	-1.514	-0.257	0.003	-15.68	3.01	0.42
18100	-1.468	-0.248	0.02	-12.88	7.49	-3.36
18123	-1.445	-0.27	-0.001	-9.17	10.85	-7.21
18143	-1.427	-0.256	-0.069	1.26	11.06	-9.87
18167	-1.376	-0.252	-0.089	13.02	13.3	-10.5
18185	-1.336	-0.226	-0.058	27.09	21.07	-7.56
18204	-1.347	-0.286	-0.139	29.75	22.68	-7.28
18228	-1.416	-0.28	-0.136	42.21	19.67	-15.26
18248	-1.385	-0.081	-0.043	20.23	4.97	-23.45
18268	-1.246	-0.129	-0.039	4.41	8.26	-25.48
18288	-1.242	-0.228	-0.101	10.36	8.75	-19.81
18308	-1.281	-0.175	-0.105	7.49	5.67	-14.77
18328	-1.266	-0.139	-0.079	5.46	-7.0	-11.2
18351	-1.179	-0.144	-0.122	3.78	-12.88	-8.47
18372	-1.183	-0.191	-0.102	12.32	-24.15	-5.53
18391	-1.149	-0.132	-0.065	7.0	-30.38	-4.48
18411	-1.115	-0.134	-0.053	-1.05	-34.23	-3.43
18431	-1.058	-0.247	-0.111	12.39	-38.57	-2.45
18455	-1.046	-0.252	-0.147	40.81	-47.53	-5.6
18475	-0.976	-0.153	-0.069	42.07	-55.79	-8.75
18494	-0.891	-0.19	-0.061	54.6	-56.63	-10.15
18517	-0.864	-0.213	-0.106	75.18	-56.7	-10.43
18535	-0.834	-0.153	-0.042	89.25	-62.16	-9.17
18554	-0.815	-0.061	0.054	83.37	-61.6	-7.84
18579	-0.84	-0.065	0.061	77.49	-67.55	-2.17
18598	-0.813	-0.057	0.059	70.49	-73.64	3.78
18622	-0.764	-0.11	0.044	62.37	-79.8	9.73
18642	-0.762	-0.07	0.102	62.65	-79.59	9.66
18659	-0.807	-0.032	0.118	56.35	-81.9	8.4
18678	-0.753	-0.036	0.174	47.11	-84.21	7.63
18703	-0.779	0.01	0.235	28.35	-80.85	9.52
18720	-0.802	-0.017	0.211	13.93	-86.66	12.04
18744	-0.703	-0.09	0.244	20.58	-82.04	14.7
18759	-0.789	-0.058	0.255	26.11	-77.77	15.54
18779	-0.84	-0.072	0.25	30.87	-83.23	15.47
18804	-0.786	-0.077	0.263	42.35	-88.62	18.9
18824	-0.681	-0.102	0.293	55.23	-77.77	22.61
18844	-0.774	-0.077	0.283	58.8	-70.84	25.9
18864	-0.789	-0.091	0.25	69.44	-73.01	29.4
18884	-0.691	-0.054	0.268	71.54	-68.32	30.66
18904	-0.676	-0.049	0.301	64.4	-57.96	29.4
18924	-0.723	0.0	0.347	54.6	-49.14	24.5
18948	-0.722	-0.008	0.295	35.07	-48.02	19.88
18968	-0.717	-0.021	0.296	28.84	-45.64	18.34
18983	-0.692	-0.082	0.281	31.22	-43.61	16.8
19007	-0.641	-0.053	0.288	43.54	-31.01	13.65
19028	-0.631	0.013	0.286	47.11	-15.33	8.26
19047	-0.635	0.075	0.252	37.03	-9.03	3.78
19066	-0.642	0.096	0.256	15.75	-4.9	-17.85
19090	-0.611	0.017	0.252	4.41	0.49	-2.52
19109	-0.577	0.007	0.258	12.18	14.14	-5.95
19133	-0.613	0.041	0.258	17.15	28.91	-13.44
19157	-0.645	0.103	0.294	5.74	37.87	-22.33
19177	-0.655	0.07	0.301	-4.83	44.17	-25.27
19197	-0.64	0.015	0.28	-2.8	53.83	-25.69
19212	-0.649	0.043	0.277	4.48	61.04	-27.79
19236	-0.706	0.107	0.271	2.1	69.23	-32.69
19254	-0.755	0.131	0.262	-7.77	68.95	-37.03
19274	-0.737	0.095	0.278	-16.52	66.85	-37.8
19298	-0.691	0.059	0.285	-21.21	71.19	-34.79
19318	-0.723	0.054	0.268	-19.18	84.35	-34.79
19338	-0.823	0.084	0.268	-27.44	83.86	-36.96
19358	-0.833	0.068	0.266	-37.24	80.08	-36.33
19375	-0.798	0.029	0.248	-39.41	79.66	-34.72
19394	-0.809	0.059	0.266	-45.36	76.93	-32.34
19414	-0.83	-0.007	0.251	-52.92	74.83	-29.82
19433	-0.856	0.016	0.242	-57.68	72.31	-27.23
19457	-0.91	-0.022	0.202	-61.67	71.19	-24.08
19478	-0.97	-0.104	0.165	-56.07	63.63	-20.02
19502	-0.955	-0.155	0.208	-37.73	64.54	-16.31
19522	-1.015	-0.136	0.174	-31.22	59.08	-14.07
19542	-1.027	-0.162	0.123	-23.1	56.14	-14.0
19558	-1.063	-0.142	0.118	-19.18	48.16	-14.21
19580	-1.014	-0.147	0.12	-17.5	41.09	-14.42
19600	-1.046	-0.069	0.156	-32.62	39.41	-13.3
19617	-1.057	-0.159	0.061	-49.49	29.89	-10.22
19637	-1.031	-0.288	0.036	-41.44	27.23	-4.34
19662	-1.014	-0.216	0.03	-24.08	20.37	-1.19
19681	-0.98	-0.224	0.012	-19.74	23.45	-0.77
19702	-1.028	-0.156	0.024	-27.58	17.29	-1.89
19721	-1.022	-0.207	-0.027	-49.98	12.6	-3.43
19745	-0.99	-0.46	-0.067	-33.95	13.79	-1.54
19764	-0.989	-0.395	-0.065	11.55	14.98	-4.34
19789	-1.043	-0.211	-0.024	21.14	18.76	-10.36
19808	-1.129	-0.163	-0.071	-3.78	8.54	-12.95
19829	-1.147	-0.166	-0.067	-32.69	-0.07	-11.9
19846	-1.163	-0.202	-0.097	-44.94	-2.94	-8.82
19870	-1.197	-0.207	-0.148	-52.99	-2.31	-4.97
19888	-1.219	-0.129	-0.133	-61.18	0.49	-4.34
19909	-1.294	-0.135	-0.166	-81.41	-0.91	-4.27
19929	-1.277	-0.257	-0.182	-90.72	-8.12	-3.01
19949	-1.256	-0.279	-0.138	-78.19	-2.31	-3.08
19973	-1.328	-0.177	-0.127	-72.17	3.78	-4.27
19993	-1.386	-0.191	-0.163	-73.71	10.5	-3.64
20017	-1.505	-0.281	-0.169	-61.18	8.4	-3.36
20035	-1.536	-0.214	-0.126	-60.9	9.87	-4.13
20058	-1.609	-0.224	-0.14	-59.99	12.04	-3.01
20077	-1.629	-0.349	-0.198	-41.37	10.36	1.68
20096	-1.632	-0.348	-0.167	-19.67	5.32	7.35
20121	-1.565	-0.384	-0.186	-10.92	4.27	14.56
20141	-1.483	-0.324	-0.156	-0.84	7.42	17.64
20161	-1.398	-0.362	-0.183	9.24	16.73	18.55
20181	-1.391	-0.298	-0.153	22.61	23.24	17.99
20198	-1.341	-0.298	-0.145	17.71	23.52	18.27
20218	-1.277	-0.323	-0.138	14.49	18.48	18.34
20241	-1.217	-0.266	-0.123	3.92	14.7	14.07
20258	-1.223	-0.264	-0.14	-6.93	7.98	9.52
20282	-1.173	-0.264	-0.142	-19.32	-3.22	3.64
20300	-1.171	-0.305	-0.16	-21.7	-5.6	0.98
20321	-1.151	-0.315	-0.166	-17.92	-12.95	-1.68
20345	-1.094	-0.403	-0.16	-0.63	-12.53	-2.24
20361	-1.078	-0.449	-0.189	36.26	-10.85	-2.8
20385	-1.074	-0.387	-0.186	85.47	-16.94	-3.36
20404	-0.973	-0.304	-0.149	104.02	-16.8	-2.1
20425	-0.967	-0.271	-0.121	106.47	-20.79	-2.03
20443	-0.922	-0.163	-0.088	90.79	-25.13	-2.87
20467	-0.923	-0.211	-0.051	68.39	-27.72	-1.61
20487	-0.918	-0.249	-0.09	66.85	-51.94	-1.05
20507	-0.824	-0.24	-0.093	69.93	-56.35	-2.24
20527	-0.834	-0.204	-0.076	64.61	-61.53	-5.6
20546	-0.81	-0.149	-0.078	54.25	-66.71	-10.78
20565	-0.831	-0.117	-0.047	45.08	-71.05	-15.75
20587	-0.873	-0.135	-0.027	45.64	-73.92	-16.66
20607	-0.839	-0.103	-0.002	52.01	-74.97	-13.65
20627	-0.791	-0.131	-0.004	55.09	-72.17	-10.57
20651	-0.83	-0.066	0.014	61.11	-71.12	-10.22
20671	-0.881	0.017	0.057	52.92	-75.32	-11.9
20691	-0.901	0.007	0.06	51.66	-78.47	-10.85
20714	-0.873	0.014	0.077	57.33	-80.5	-5.25
20734	-0.811	0.011	0.072	63.14	-76.86	1.82
20754	-0.791	0.001	0.051	75.25	-70.28	10.15
20775	-0.795	0.035	0.07	80.64	-70.84	17.22
20795	-0.718	0.075	0.151	76.93	-72.1	23.1
20815	-0.669	0.126	0.207	61.67	-63.77	27.02
20838	-0.711	0.073	0.175	48.23	-57.33	29.68
20856	-0.775	0.05	0.149	52.57	-54.46	31.22
20876	-0.804	0.028	0.138	59.5	-53.55	34.65
20900	-0.779	0.048	0.155	66.08	-48.02	40.6
20920	-0.794	0.063	0.16	65.52	-36.68	46.27
20940	-0.864	0.083	0.196	55.16	-32.55	50.82
20957	-0.843	0.062	0.195	37.87	-27.37	54.04
20977	-0.845	0.035	0.203	22.54	-22.68	56.21
21001	-0.804	-0.005	0.22	8.54	-18.83	56.63
21021	-0.746	-0.05	0.25	-5.04	-9.59	52.5
21041	-0.766	-0.044	0.266	-21.63	3.78	45.22
21056	-0.801	-0.037	0.258	-33.18	7.42	37.31
21080	-0.82	-0.07	0.297	-49.7	8.19	23.03
21100	-0.782	-0.071	0.355	-61.6	9.52	11.69
21124	-0.777	-0.106	0.343	-65.24	22.68	-1.05
21142	-0.833	-0.115	0.327	-54.11	32.27	-8.75
21161	-0.997	-0.095	0.341	-44.03	38.36	-14.91
21183	-0.881	-0.052	0.404	-48.58	39.55	-22.12
21205	-0.912	-0.026	0.439	-63.56	45.43	-27.51
21222	-0.981	-0.043	0.431	-68.39	41.86	-30.52
21240	-0.951	-0.092	0.413	-61.46	39.62	-33.39
21260	-0.935	-0.034	0.478	-55.44	40.39	-38.36
21280	-0.967	-0.009	0.51	-59.85	38.92	-40.6
21300	-1.006	-0.036	0.498	-56.0	35.49	-40.04
21323	-0.988	-0.067	0.472	-40.04	29.54	-35.56
21343	-0.964	0.007	0.535	-31.29	30.87	-33.95
21367	-1.144	0.089	0.619	-46.62	21.42	-31.01
21384	-1.059	0.032	0.588	-54.74	11.06	-20.79
21404	-1.031	-0.012	0.567	-52.78	3.15	-16.87
21428	-1.014	-0.049	0.555	-41.51	-0.7	-7.07
21446	-1.03	-0.04	0.543	-31.99	-7.21	0.07
21470	-1.018	-0.04	0.491	-20.79	-18.06	8.75
21487	-1.0	-0.008	0.487	-18.9	-23.94	16.1
21507	-0.996	-0.013	0.495	-23.94	-31.36	22.12
21531	-0.984	-0.101	0.418	-21.98	-35.7	27.72
21551	-0.996	-0.127	0.369	-6.23	-37.73	31.78
21566	-0.978	-0.151	0.346	4.34	-39.48	32.69
21590	-0.956	-0.109	0.348	9.38	-41.09	32.34
21610	-0.909	-0.102	0.351	7.84	-41.65	30.24
21628	-0.882	-0.062	0.37	2.73	-36.05	26.81
21651	-0.898	-0.038	0.364	-5.25	-31.92	23.45
21672	-0.858	-0.066	0.386	-20.09	-31.15	18.06
21688	-0.849	-0.02	0.432	-36.4	-21.56	14.84
21711	-0.897	-0.066	0.426	-49.49	-22.4	11.9
21732	-0.834	-0.092	0.409	-51.31	-20.65	14.07
21752	-0.793	-0.072	0.464	-44.24	-13.44	19.95
21770	-0.787	-0.048	0.625	-43.54	-8.05	28.0
21790	-0.848	-0.057	0.666	-41.51	0.21	34.72
21810	-0.929	-0.112	0.704	-20.3	-0.21	41.93
21831	-0.942	-0.116	0.661	20.37	0.0	48.79
21851	-0.927	-0.099	0.621	66.57	1.12	61.46
21875	-0.967	-0.002	0.672	114.45	16.45	76.58
21893	-1.126	0.163	0.713	139.65	12.04	92.82
21912	-1.105	0.237	0.575	156.87	-5.88	110.39
21935	-1.051	0.425	0.469	155.61	-14.77	121.45
21957	-1.052	0.571	0.494	121.73	-22.4	132.93
21979	-1.114	0.561	0.38	82.6	-37.31	146.3
22003	-1.141	0.71	0.279	49.28	-63.7	147.49
22023	-1.135	1.161	0.414	-130.62	-99.4	162.19
22043	-1.027	0.602	0.419	-193.27	-101.85	184.87
22058	-0.971	0.305	0.422	-165.06	-86.03	193.97
22081	-0.972	0.099	0.327	-46.9	-50.89	192.22
22103	-0.928	0.445	0.221	-25.55	-46.76	183.89
22124	-0.706	0.273	0.175	-27.02	-22.89	186.55
22148	-0.666	0.616	0.477	-22.82	-9.94	162.89
22168	-0.457	0.519	0.336	-71.47	-4.13	139.93
22188	-0.491	0.454	0.338	-108.08	-3.08	110.32
22206	-0.382	0.825	0.458	-209.23	-10.85	92.89
22225	-0.283	0.358	0.359	-266.21	19.74	90.3
22250	-0.483	-0.113	0.377	-152.39	29.61	50.4
22270	-0.49	0.472	0.478	-159.74	-14.91	28.49
22288	-0.482	0.865	0.64	-276.08	-20.86	26.11
22310	-0.677	-0.014	1.205	-344.96	5.53	76.09
22328	-0.683	-2.035	0.575	60.97	-162.61	-48.23
22352	-0.268	0.854	1.26	-48.86	-171.43	-37.17
22368	-0.286	0.209	0.75	-111.86	-77.21	-23.1
22392	-0.57	0.509	0.826	-98.07	-150.57	-14.91
22408	-0.354	0.737	0.935	-55.09	-89.04	10.22
22430	-0.666	0.782	0.998	-122.92	-134.61	29.12
22452	-0.068	-0.009	0.754	-93.31	-106.12	30.45
22475	-0.031	-0.159	0.783	-46.13	-79.17	18.69
22493	-0.081	0.136	0.785	-25.69	-47.53	19.46
22514	-0.061	0.182	0.652	-29.19	-37.38	16.03
22534	0.029	0.102	0.624	-12.88	-31.15	0.56
22558	0.07	0.118	0.684	-3.92	-14.07	-10.99
22578	0.045	0.114	0.729	-11.76	-4.06	-15.61
22598	0.04	-0.031	0.704	1.12	-1.33	-20.65
22618	-0.033	0.098	0.752	-8.89	-12.67	-19.74
22638	-0.035	0.107	0.79	-8.89	-15.12	-22.4
22658	-0.047	0.093	0.791	-2.17	-18.13	-25.55
22674	0.024	0.043	0.74	3.15	-15.75	-23.59
22698	0.033	0.085	0.789	10.29	-11.83	-17.43
22718	-0.119	0.293	0.849	-23.94	-25.69	-7.98
22737	-0.091	0.181	0.79	-33.95	-30.03	-7.14
22758	-0.015	0.133	0.863	-37.31	-24.36	-2.8
22778	-0.041	0.096	0.866	-43.12	-20.58	0.42
22797	-0.24	0.17	0.811	-35.84	-21.63	0.98
22817	-0.211	0.19	0.776	-40.04	-35.14	2.1
22836	-0.064	0.086	0.817	-29.96	-29.68	2.45
22853	-0.053	0.086	0.924	-27.72	-0.56	3.01
22874	-0.169	0.108	0.946	-16.45	-10.22	-1.19
22898	-0.33	0.086	0.835	3.78	-28.21	-8.05
22914	-0.181	0.01	0.874	16.45	-28.21	-14.28
22938	-0.1	0.098	1.0	31.08	-12.95	-17.78
22958	-0.167	0.114	1.04	25.13	-7.0	-16.45
22978	-0.203	0.178	1.072	22.33	-12.04	-10.64
23001	-0.099	0.134	1.172	-4.2	-9.8	0.42
23022	-0.063	0.142	1.24	-8.89	7.91	3.22
23038	-0.08	0.145	1.309	-16.59	18.13	6.44
23061	-0.194	0.1	1.23	-19.32	24.15	11.69
23081	-0.275	0.065	1.331	-36.96	12.53	15.12
23098	-0.173	0.024	1.409	-25.62	21.35	12.11
23122	-0.132	-0.055	1.52	-26.95	45.92	10.57
23142	-0.204	-0.129	1.554	-26.32	50.47	10.43
23159	-0.274	-0.052	1.695	-45.57	37.66	12.67
23183	-0.216	-0.111	1.825	-45.99	21.35	10.99
23203	-0.147	-0.254	1.794	-23.24	22.75	5.74
23218	-0.13	-0.263	1.829	-0.7	20.79	0.0
23243	-0.187	-0.152	1.809	14.91	10.5	-6.3
23263	-0.187	-0.109	1.758	17.01	-13.23	-7.35
23279	-0.165	-0.078	1.658	24.64	-24.43	-7.98
23303	-0.139	0.02	1.581	22.61	-32.48	-6.51
23321	-0.122	0.073	1.488	9.59	-30.45	-2.59
23341	-0.169	0.06	1.371	0.91	-25.48	-0.56
23360	-0.202	0.122	1.298	-4.83	-15.68	-0.77
23385	-0.22	0.125	1.095	-8.54	-8.4	4.2
23401	-0.26	0.091	1.111	-22.19	-10.71	10.01
23425	-0.197	-0.041	1.044	-34.3	-3.29	18.69
23449	-0.224	-0.021	1.009	-19.18	17.92	11.69
23469	-0.246	0.009	0.948	-20.16	26.11	7.14
23489	-0.306	-0.024	0.873	-26.18	15.4	10.78
23507	-0.247	-0.039	0.971	-32.97	9.66	11.41
23530	-0.292	-0.283	0.81	-23.17	18.69	7.91
23545	-0.244	-0.264	0.817	40.88	17.08	-4.83
23569	-0.18	-0.032	1.026	51.24	30.24	-11.34
23589	-0.238	-0.024	0.912	43.4	31.22	-15.05
23606	-0.208	-0.118	0.752	45.57	22.19	-17.85
23630	-0.155	-0.142	0.935	64.68	23.73	-17.36
23650	-0.049	-0.085	0.98	37.52	27.37	-13.02
23669	-0.134	-0.212	0.758	43.05	28.98	-18.2
23693	-0.22	-0.023	0.554	68.18	-21.07	-21.21
23713	0.097	0.299	1.214	20.86	-16.52	-7.56
23732	0.018	0.248	1.173	-49.28	-20.37	9.66
23753	0.094	-0.182	0.851	-65.66	-18.34	11.69
23770	0.053	-0.336	0.735	-23.31	-17.01	5.39
23790	0.012	-0.123	0.834	-3.22	-32.97	5.67
23814	-0.056	0.038	0.876	-9.17	-50.05	11.06
23833	-0.077	0.025	0.771	-18.34	-71.96	13.79
23854	-0.05	-0.091	0.711	2.87	-76.16	14.28
23878	-0.0	-0.126	0.674	44.1	-78.47	11.27
23893	0.043	-0.005	0.667	63.91	-65.38	9.1
23918	0.015	0.171	0.814	35.49	-58.52	12.04
23938	0.039	0.155	0.773	-2.87	-38.92	10.36
23958	0.061	0.068	0.694	-29.12	-31.5	5.46
23977	0.128	-0.035	0.653	-18.9	-12.53	0.0
24001	0.122	0.027	0.772	-4.69	-5.18	-4.34
24021	0.12	0.065	0.847	-10.43	5.6	-3.85
24041	0.076	-0.042	0.842	-0.84	4.27	-5.6
24061	0.097	-0.049	0.793	19.81	-0.63	-8.75
24081	0.156	0.031	0.784	32.27	-5.74	-9.1
24105	0.227	0.138	0.835	2.8	-6.16	-0.28
24124	0.281	0.013	0.794	-0.56	5.81	1.19
24145	0.215	0.024	0.74	10.5	20.02	-1.96
24168	0.172	0.129	0.779	5.04	25.34	-4.97
24188	0.091	0.066	0.751	-1.19	25.55	-6.86
24206	0.031	0.023	0.651	5.39	18.13	-9.66
24230	0.069	0.04	0.725	11.06	10.78	-11.2
24249	0.057	0.027	0.74	18.9	10.92	-12.04
24269	0.015	0.064	0.71	27.44	7.14	-12.53
24293	0.129	0.099	0.738	24.43	3.22	-7.91
24310	0.197	0.035	0.748	13.79	7.49	-4.13
24334	0.112	0.069	0.739	16.73	18.76	-5.04
24354	0.013	0.16	0.728	16.66	18.27	-7.07
24378	0.065	0.24	0.802	-9.03	18.2	-2.38
24398	0.116	0.109	0.849	-22.75	27.58	0.7
24416	0.009	0.028	0.769	-16.1	33.25	-1.54
24440	-0.102	0.081	0.728	0.98	30.66	-4.27
24457	-0.224	0.217	0.793	-0.07	18.41	-5.39
24481	-0.158	0.195	0.902	-22.82	13.3	-3.43
24501	-0.162	0.093	0.849	-25.9	15.96	-3.57
24519	-0.208	0.029	0.805	-9.66	19.67	-5.04
24539	-0.259	0.185	0.944	-4.76	23.59	-1.47
24558	-0.247	0.237	1.027	-28.0	22.26	6.16
24583	-0.23	0.088	1.022	-40.67	27.09	11.27
24603	-0.251	0.022	1.092	-37.87	38.78	10.85
24623	-0.308	-0.024	1.109	-22.19	46.48	8.4
24639	-0.362	0.017	1.149	-16.59	41.16	10.29
24662	-0.397	-0.023	1.254	-2.66	31.22	8.12
24683	-0.362	-0.057	1.262	20.3	30.1	-0.28
24703	-0.336	-0.061	1.401	41.37	48.02	-7.28
24719	-0.445	0.171	1.482	32.27	51.94	-8.68
24742	-0.508	0.21	1.388	-12.04	36.82	3.29
24763	-0.453	0.039	1.377	-13.23	27.3	0.91
24782	-0.444	-0.088	1.387	20.65	44.52	-5.46
24803	-0.557	0.143	1.492	33.74	47.25	-8.75
24827	-0.731	0.262	1.415	-9.03	49.7	-2.17
24847	-0.636	0.081	1.119	22.33	24.15	-4.41
24870	-0.645	0.005	1.322	57.26	57.54	-12.81
24886	-0.73	0.105	1.475	83.86	37.1	-19.53
24910	-0.811	0.225	1.278	89.11	47.81	-21.35
24929	-0.95	0.487	1.162	59.92	13.93	-19.39
24954	-0.65	0.162	1.355	48.93	47.6	-19.81
24974	-0.58	0.135	1.494	69.93	40.18	-12.46
24990	-0.596	0.25	1.423	30.38	49.77	-8.05
25012	-0.596	0.136	0.849	61.74	58.38	-28.21
25034	-0.638	0.331	1.383	78.33	48.86	-36.68
25054	-0.594	0.409	1.715	52.5	49.0	-36.4
25072	-0.574	0.151	1.553	30.38	43.96	-32.69
25093	-0.527	0.382	1.33	74.97	34.72	-31.01
25116	-0.411	0.374	1.464	50.82	12.53	-8.68
25132	-0.347	0.371	1.4	-13.3	2.94	7.56
25152	-0.301	0.001	0.9	-28.14	14.77	11.9
25176	-0.466	0.098	0.233	36.68	10.15	-4.83
25197	-0.301	0.147	0.614	31.92	-7.14	0.98
25214	-0.192	0.137	0.71	-11.83	-1.68	11.76
25237	-0.233	0.021	0.548	-32.27	21.35	11.27
25258	-0.27	-0.103	0.232	-22.89	43.19	-0.42
25282	-0.268	-0.167	0.054	10.36	42.84	7.91
25302	-0.45	0.07	0.191	-13.37	32.76	14.63
25319	-0.53	0.024	0.296	-0.21	44.73	10.64
25343	-0.592	0.189	0.349	16.94	65.24	2.94
25361	-0.614	0.142	0.108	6.65	76.51	0.42
25380	-0.569	0.093	0.146	-3.71	72.66	11.97
25404	-0.573	0.092	0.158	-7.49	60.2	19.46
25424	-0.527	0.266	0.181	2.45	60.76	17.99
25448	-0.694	0.158	0.36	17.85	82.18	12.53
25468	-0.739	0.178	0.604	69.86	85.82	-10.5
25484	-0.654	0.54	0.72	60.83	100.73	-20.16
25508	-0.711	0.485	0.364	4.83	98.35	-25.76
25528	-0.722	0.279	0.523	36.54	90.3	-32.13
25548	-0.627	0.375	0.702	71.33	99.68	-42.84
25566	-0.801	0.631	0.815	70.7	83.23	-54.88
25590	-0.747	0.55	0.781	25.13	62.09	-68.39
25610	-0.76	0.213	0.795	35.21	64.89	-77.84
25628	-0.872	0.436	0.949	57.47	69.79	-87.71
25652	-0.996	0.534	0.734	34.58	19.18	-88.55
25672	-0.744	0.375	0.642	27.3	5.81	-80.78
25691	-0.665	0.118	0.62	50.96	8.75	-65.94
25711	-0.713	0.186	0.727	58.03	10.92	-44.87
25731	-0.846	0.289	0.719	36.96	10.22	-23.17
25755	-1.012	0.226	0.501	40.53	2.52	-6.37
25770	-0.946	0.334	0.506	47.32	-6.23	1.05
25795	-0.886	0.385	0.584	33.11	4.2	15.33
25815	-0.919	0.387	0.51	13.16	24.22	22.47
25835	-1.032	0.422	0.437	5.39	20.3	30.52
25855	-0.993	0.48	0.521	-16.1	-8.05	41.65
25871	-0.893	0.496	0.587	-30.1	-2.38	47.81
25894	-0.986	0.249	0.462	-31.36	9.17	46.41
25918	-0.978	0.217	0.548	-0.63	14.0	45.43
25937	-1.086	0.451	0.61	-23.38	3.29	47.04
25958	-1.208	0.461	0.566	-63.56	-37.94	46.55
25982	-1.046	0.272	0.553	-47.25	-36.75	40.39
26001	-1.067	0.238	0.477	-33.53	-39.76	40.04
26020	-1.0	0.336	0.546	-26.04	-39.13	41.58
26039	-1.053	0.346	0.512	-40.95	-38.99	45.78
26064	-1.036	0.226	0.584	-36.68	-37.66	38.5
26083	-1.131	0.202	0.634	-19.32	-41.02	25.76
26101	-1.085	0.336	0.648	-18.69	-43.82	18.62
26125	-1.128	0.423	0.64	-35.28	-47.39	9.73
26143	-1.002	0.293	0.549	-51.1	-58.87	6.3
26163	-0.884	0.145	0.527	-36.12	-68.32	6.3
26182	-0.796	0.194	0.538	-12.6	-64.54	7.63
26206	-0.87	0.346	0.558	-14.63	-66.22	8.75
26227	-0.847	0.343	0.523	-37.31	-76.23	6.79
26242	-0.755	0.252	0.487	-31.64	-69.51	4.97
26267	-0.745	0.228	0.473	-15.75	-57.12	0.56
26287	-0.744	0.282	0.461	-7.77	-51.38	-4.13
26306	-0.741	0.372	0.456	-6.02	-50.68	-7.56
26323	-0.683	0.423	0.443	-6.86	-51.45	-6.79
26347	-0.638	0.416	0.486	-10.64	-49.91	-3.15
26364	-0.636	0.379	0.52	-3.36	-48.72	-2.17
26387	-0.655	0.425	0.581	9.31	-33.74	-3.08
26407	-0.702	0.493	0.6	3.15	-27.16	-6.09
26425	-0.756	0.469	0.52	-9.03	-28.14	-7.42
26444	-0.779	0.429	0.522	-10.15	-44.59	-9.45
26469	-0.635	0.428	0.698	-14.07	-35.42	-10.01
26485	-0.644	0.344	0.734	-20.65	-27.09	-12.04
26507	-0.64	0.254	0.658	-3.43	-25.76	-18.97
26529	-0.548	0.308	0.715	-0.07	-29.89	-19.88
26548	-0.528	0.361	0.772	1.4	-30.31	-17.57
26573	-0.423	0.35	0.889	-1.61	-30.31	-15.12
26593	-0.341	0.301	0.966	5.25	-16.17	-12.25
26611	-0.454	0.414	0.988	-8.89	-16.03	-9.1
26635	-0.572	0.371	0.935	-42.63	-42.7	-6.09
26655	-0.394	0.216	1.059	-39.9	-54.39	-5.81
26675	-0.357	0.048	1.11	-14.21	-27.3	-6.09
26695	-0.549	0.132	1.045	-37.45	-36.26	-4.13
26715	-0.495	-0.023	0.921	-35.35	-54.46	-4.41
26731	-0.612	0.029	0.96	-26.74	-61.67	-5.11
26750	-0.455	-0.09	0.931	-9.1	-69.79	-9.38
26775	-0.377	-0.079	0.901	9.17	-58.66	-13.02
26795	-0.39	0.006	0.895	3.22	-45.92	-11.62
26813	-0.352	0.009	0.825	-7.07	-39.2	-8.12
26836	-0.328	-0.033	0.665	-9.45	-40.11	-1.75
26856	-0.276	-0.055	0.637	-8.61	-47.32	6.86
26876	-0.297	0.021	0.663	-11.13	-42.07	14.63
26900	-0.329	0.045	0.647	-13.86	-41.37	22.33
26920	-0.297	0.021	0.622	-26.95	-43.96	29.68
26940	-0.153	-0.001	0.6	-63.98	-59.57	37.45
26960	-0.11	-0.147	0.499	-50.26	-45.85	38.43
26984	-0.282	-0.041	0.529	-19.95	-51.52	30.59
27003	-0.19	0.104	0.611	-41.09	-56.0	27.79
27019	-0.124	-0.054	0.577	-38.43	-43.26	24.01
27043	-0.302	0.03	0.565	-30.1	-35.42	23.17
27064	-0.441	0.138	0.614	-16.1	-54.39	19.95
27083	-0.27	0.227	0.802	-21.84	-61.74	23.45
27101	-0.184	0.114	0.84	-52.57	-41.51	27.44
27125	-0.272	-0.125	0.686	-22.33	-10.71	16.8
27145	-0.561	0.144	0.677	14.14	-15.19	12.04
27164	-0.434	0.236	0.967	-13.23	-50.47	14.28
27189	-0.273	0.04	0.993	-17.92	-22.05	12.11
27207	-0.341	0.016	0.946	14.98	-6.23	4.97
27231	-0.381	0.168	0.982	29.4	3.64	3.43
27251	-0.306	0.206	1.141	14.56	-4.2	5.74
27275	-0.255	0.156	1.259	11.97	1.61	8.96
27295	-0.255	0.192	1.33	4.76	23.94	7.7
27312	-0.337	0.216	1.352	4.97	30.45	3.78
27332	-0.436	0.287	1.303	-4.27	28.35	2.73
27356	-0.388	0.171	1.423	-14.28	13.23	1.75
27376	-0.433	0.077	1.426	-15.33	23.1	2.1
27400	-0.428	0.03	1.372	-1.4	28.7	-2.1
27420	-0.421	0.159	1.362	14.56	31.36	-1.82
27439	-0.363	0.211	1.444	-4.34	36.05	5.25
27461	-0.448	0.163	1.475	-14.77	38.22	9.66
27482	-0.47	0.08	1.45	0.49	31.71	6.86
27502	-0.453	0.073	1.622	24.22	21.49	3.99
27519	-0.43	0.181	1.528	28.7	14.35	3.85
27539	-0.454	0.269	1.517	30.45	9.59	0.77
27560	-0.503	0.198	1.36	19.32	5.81	-3.92
27580	-0.386	0.15	1.358	22.89	-6.79	-5.81
27601	-0.352	0.108	1.384	14.56	5.25	1.82
27624	-0.485	0.158	1.363	3.43	-2.38	1.05
27644	-0.527	0.103	1.241	6.58	-6.09	-2.45
27663	-0.479	0.159	1.245	9.66	-7.21	-1.4
27688	-0.494	0.132	1.246	-3.22	-5.81	1.75
27708	-0.546	0.058	1.191	-7.56	-7.84	-1.12
27728	-0.556	-0.044	1.079	4.69	-12.46	-9.03
27748	-0.546	0.092	0.963	41.44	-23.31	-15.54
27772	-0.499	0.253	1.018	35.14	-26.11	-13.86
27792	-0.449	0.154	0.883	29.54	-35.35	-10.01
27812	-0.325	0.072	0.702	42.56	-25.9	-10.29
27832	-0.386	0.006	0.499	81.41	-22.33	-16.1
27852	-0.359	0.218	0.492	87.36	-25.06	-23.1
27868	-0.24	0.314	0.685	37.8	-15.75	-17.92
27892	-0.178	0.219	0.617	-9.31	3.92	-14.21
27912	-0.132	0.027	0.611	-30.38	10.29	-12.11
27932	-0.101	0.045	0.609	-36.47	-5.18	-4.2
27952	-0.093	0.04	0.629	-27.93	-12.04	1.96
27972	-0.226	0.161	0.704	-36.54	-38.22	7.7
27996	-0.13	0.102	0.729	-45.99	-52.36	13.58
28016	-0.056	0.024	0.793	-43.47	-54.11	18.97
28036	-0.017	-0.013	0.793	-36.75	-48.51	22.19
28060	-0.221	-0.132	0.549	9.66	-30.17	16.59
28080	-0.556	0.028	0.482	78.61	-50.19	5.67
28103	-0.159	0.418	0.755	66.08	-85.68	4.06
28125	0.054	0.286	0.901	-3.08	-27.72	10.08
28147	0.026	-0.006	0.816	-32.48	-9.8	9.31
28166	0.027	-0.107	0.834	-4.34	19.74	3.5
28184	-0.051	0.081	0.908	17.08	31.57	-2.24
28208	-0.125	0.266	0.997	19.25	21.7	-9.94
28228	-0.128	0.272	1.047	4.27	12.04	-9.59
28251	-0.153	0.137	1.027	7.35	-2.8	-8.54
28270	-0.132	0.06	0.917	38.5	-12.18	-11.83
28289	-0.079	0.209	0.905	51.94	-16.73	-14.0
28314	-0.038	0.268	0.918	33.11	-8.26	-15.4
28332	-0.021	0.266	0.923	13.79	2.87	-15.89
28351	-0.029	0.254	0.907	-4.41	18.62	-13.93
28373	-0.139	0.192	0.844	-2.52	21.63	-12.67
28397	-0.139	0.215	0.851	0.77	20.65	-11.9
28417	-0.112	0.205	0.89	-0.49	24.36	-11.48
28434	-0.138	0.169	0.824	1.26	26.11	-12.11
28453	-0.142	0.165	0.773	10.43	20.23	-12.32
28476	-0.129	0.224	0.853	9.59	18.9	-10.36
28498	-0.112	0.211	0.896	-5.04	15.68	-7.49
28519	-0.027	0.136	0.847	-10.29	24.01	-4.83
28543	-0.083	0.117	0.809	-5.25	21.49	-2.03
28562	-0.107	0.126	0.8	9.24	17.29	0.91
28581	-0.159	0.257	0.854	-3.15	0.91	7.35
28601	-0.117	0.172	0.866	-8.12	-4.83	11.62
28625	-0.14	0.065	0.816	7.7	-8.4	12.53
28645	-0.144	0.132	0.86	22.47	-16.87	12.67
28665	-0.159	0.26	0.861	11.9	-15.96	16.1
28684	-0.203	0.346	0.783	-10.57	-27.93	20.23
28704	-0.113	0.178	0.748	-7.49	-23.94	21.07
28728	-0.186	0.185	0.821	6.72	-11.48	16.24
28744	-0.217	0.271	0.822	0.77	-12.04	15.96
28763	-0.221	0.28	0.761	-17.64	-10.08	15.96
28788	-0.241	0.145	0.608	5.67	-8.82	14.77
28808	-0.196	0.165	0.649	17.5	-5.95	11.69
28828	-0.237	0.243	0.718	23.66	11.48	2.38
28852	-0.331	0.208	0.646	33.88	28.0	-5.25
28874	-0.455	0.313	0.624	60.27	35.0	-14.63
28894	-0.485	0.332	0.6	69.79	16.1	-21.42
28915	-0.48	0.485	0.797	103.67	76.44	-35.35
28934	-0.797	0.771	0.926	50.68	64.4	-32.83
28958	-0.626	0.656	1.109	10.15	53.97	-30.66
28978	-0.592	0.499	1.253	10.36	98.77	-45.71
28995	-0.764	0.651	1.447	27.51	114.59	-58.87
29019	-0.988	0.705	1.526	-33.04	90.3	-53.69
29039	-1.041	0.549	1.372	-20.3	62.09	-52.29
29059	-0.946	0.346	1.321	33.95	37.8	-56.14
29082	-0.813	0.724	1.809	39.76	26.32	-59.99
29101	-0.791	0.795	1.746	-23.31	40.11	-36.54
29126	-0.901	0.36	1.372	-27.72	15.33	-40.6
29146	-0.609	0.415	1.4	56.77	44.94	-43.54
29166	-0.797	0.877	1.54	-5.74	33.6	-22.96
29184	-0.776	0.835	1.454	-47.18	29.19	-11.76
29202	-0.854	0.417	1.345	-74.13	-2.66	-11.34
29226	-0.627	0.228	1.153	-12.25	-3.43	-5.53
29247	-0.642	0.248	1.078	-34.23	6.72	-5.32
29266	-0.683	0.169	0.982	-11.55	25.2	-6.37
29286	-0.851	0.372	1.03	-14.63	19.74	-6.37
29306	-0.859	0.197	0.769	-24.15	-17.29	-2.94
29330	-0.773	0.485	1.044	-26.67	-28.56	-2.94
29351	-0.667	0.248	0.777	31.57	28.91	0.21
29368	-0.929	0.721	0.89	-22.61	-7.77	0.77
29392	-0.732	0.26	0.567	-67.27	-28.7	-9.24
29412	-0.725	0.215	0.407	-65.03	-37.1	-15.61
29431	-0.494	0.105	0.995	-107.1	-43.47	5.81
29448	-0.36	-0.02	0.972	-78.4	-2.94	10.22
29471	-0.502	-0.172	0.789	3.36	8.26	58.87
29495	-0.335	-0.232	0.589	-28.28	-26.74	-13.79
29514	-0.416	0.078	0.619	63.35	-46.06	8.12
29535	-0.385	0.338	0.683	-4.83	-57.05	10.92
29555	-0.141	-0.081	0.574	-37.45	-65.24	3.43
29575	-0.182	0.03	0.612	-45.71	-68.6	-4.2
29599	-0.106	-0.216	0.586	-19.25	-53.34	-1.19
29618	-0.23	-0.099	0.5	12.46	-42.7	-6.44
29635	-0.354	0.139	0.462	-17.64	-46.34	-8.68
29659	-0.405	0.108	0.642	-36.19	-56.07	-7.49
29679	-0.313	-0.327	0.412	3.71	-44.73	-5.39
29699	-0.422	-0.199	0.445	50.4	-25.13	5.11
29719	-0.437	0.006	0.452	19.32	-42.07	12.81
29739	-0.393	0.18	0.499	17.22	-1.54	17.5
29759	-0.323	-0.019	0.523	5.81	23.66	15.75
29779	-0.318	-0.3	0.646	55.79	48.72	7.42
29799	-0.311	0.177	0.869	46.97	58.52	10.5
29820	-0.322	-0.312	0.613	126.56	70.0	-12.25
29844	-0.671	0.507	0.996	68.6	20.86	-24.64
29863	-0.386	0.197	1.075	53.13	7.7	-20.93
29883	-0.356	0.185	1.063	65.31	25.55	7.0
29901	-0.454	0.142	0.896	105.91	17.15	-3.15
29925	-0.464	0.232	1.002	82.18	11.62	-1.89
29941	-0.571	0.325	0.872	94.01	12.04	-0.91
29965	-0.455	0.219	0.769	33.11	25.34	1.82
29985	-0.556	0.284	0.734	35.98	36.54	4.62
30009	-0.541	0.451	0.852	-3.15	28.35	-1.26
30029	-0.523	0.372	0.843	-27.02	27.02	-7.7
30049	-0.415	0.158	0.745	-44.38	6.09	-7.28
30067	-0.257	0.093	0.804	-45.22	15.05	-8.26
30090	-0.291	0.101	0.792	-58.52	25.41	-5.46
30107	-0.461	0.098	0.716	-9.8	38.71	-15.82
30126	-0.6	0.241	0.613	-9.03	2.8	-11.27
30152	-0.412	0.122	0.651	-9.66	-21.21	0.14
30171	-0.215	0.076	0.677	-7.7	15.89	3.78
30188	-0.325	0.157	0.636	17.71	18.06	-8.89
30208	-0.483	0.134	0.724	-5.74	-26.25	-23.24
30232	-0.301	-0.05	0.541	-7.14	-52.78	-20.23
30250	-0.215	-0.071	0.41	41.02	-55.58	-22.4
30270	-0.162	-0.03	0.368	111.72	-20.51	-27.16
30289	-0.367	0.395	0.544	174.93	-2.8	-44.87
30314	-0.401	0.487	0.693	91.49	-45.85	-27.65
30331	-0.028	0.172	0.521	143.85	8.05	-8.96
30353	-0.492	0.422	0.377	219.94	44.52	-11.69
30377	-0.571	0.656	0.356	153.23	-15.47	-10.57
30397	-0.411	0.708	0.328	96.95	-23.38	8.61
30417	-0.537	0.759	0.569	80.5	-13.58	22.19
30435	-0.72	0.808	0.423	87.08	7.91	17.43
30458	-0.913	0.987	0.213	14.35	-6.86	25.06
30478	-0.754	0.88	0.338	-112.0	-45.78	62.09
30501	-0.846	0.305	0.85	17.08	-44.03	30.45
30521	-0.768	0.794	0.761	48.09	23.31	6.02
30539	-0.882	0.509	0.588	62.79	44.17	-12.18
30562	-0.808	0.345	1.107	-134.96	-79.87	-3.99
30577	-0.697	0.555	0.859	24.15	-20.16	-19.25
30597	-1.022	0.759	0.737	9.24	14.91	-40.18
30622	-0.948	1.093	0.924	-63.56	136.22	-46.48
30642	-1.079	0.721	0.992	-34.65	12.74	-48.23
30661	-0.993	0.925	0.894	-23.8	36.61	-73.15
30680	-1.169	0.729	1.019	2.17	49.7	-63.63
30705	-0.98	0.68	1.165	16.1	63.49	-61.88
30721	-1.06	0.695	1.176	13.02	78.33	-58.66
30741	-1.081	0.563	1.02	49.7	82.11	-56.07
30762	-1.185	0.842	0.819	91.49	58.24	-52.43
30782	-1.026	1.179	1.166	46.27	39.48	-36.33
30806	-0.909	1.023	1.051	-26.11	24.29	-10.57
30826	-0.9	0.759	0.95	-31.92	29.96	-0.21
30846	-0.812	0.717	1.002	-28.35	38.08	3.5
30863	-0.829	0.73	1.068	-21.14	40.46	1.54
30886	-0.893	0.664	1.011	-57.19	49.56	5.74
30909	-0.968	0.625	0.867	-52.71	44.73	1.26
30928	-0.922	0.552	0.696	-43.68	56.84	-0.84
30952	-0.976	0.512	0.548	-39.27	50.4	-10.29
30968	-0.956	0.496	0.519	-58.1	37.8	-14.42
30989	-0.912	0.315	0.435	-34.02	34.93	-13.3
31010	-0.85	0.411	0.422	1.47	33.53	-13.02
31030	-0.815	0.4	0.403	2.17	27.93	-11.06
31049	-0.687	0.323	0.369	6.44	5.95	-7.21
31074	-0.543	0.498	0.382	-11.83	-39.9	-3.71
31096	-0.257	0.244	0.566	-43.68	-25.9	17.99
31116	-0.171	0.226	0.594	-49.77	-27.93	34.16
31137	-0.165	0.221	0.509	-42.21	-18.2	39.97
31160	-0.327	0.277	0.467	-27.09	-18.97	38.01
31179	-0.436	0.272	0.403	-30.87	-50.54	38.92
31200	-0.36	0.157	0.419	12.74	-66.22	45.01
31224	-0.367	0.381	0.595	38.64	-59.43	45.92
31242	-0.584	0.498	0.453	-9.03	-64.47	55.02
31259	-0.768	0.206	0.094	-7.77	-82.18	54.18
31279	-0.758	0.29	0.084	27.79	-101.5	42.07
31301	-0.776	0.339	0.127	30.59	-79.17	29.4
31324	-0.875	0.282	0.351	40.18	-79.45	11.69
31344	-0.567	0.204	0.538	37.73	-61.95	4.41
31364	-0.406	0.352	0.665	11.06	-21.77	9.17
31384	-0.54	0.52	0.708	-32.48	-11.48	7.7
31403	-0.487	0.339	0.636	-22.96	0.77	0.56
31424	-0.52	0.314	0.608	-19.6	14.0	-4.62
31447	-0.443	0.395	0.611	68.32	40.04	-1.68
31468	-0.603	0.426	0.552	94.43	37.24	-3.15
31487	-0.592	0.395	0.425	124.11	29.4	-3.43
31507	-0.597	0.454	0.402	132.86	18.62	3.01
31527	-0.525	0.489	0.508	136.99	12.32	18.06
31551	-0.57	0.714	0.562	140.91	11.9	5.04
31572	-0.511	0.61	0.511	99.26	0.91	-4.9
31588	-0.433	0.411	0.442	139.02	31.08	-6.79
31611	-0.628	0.672	0.445	165.48	31.29	-14.0
31631	-0.55	0.666	0.408	148.12	27.58	-9.45
31649	-0.629	0.696	0.353	180.11	25.76	-5.6
31669	-0.615	0.93	0.367	158.34	20.86	-13.51
31688	-0.528	0.852	0.303	94.08	23.24	-12.04
31711	-0.557	0.737	0.241	47.18	18.06	-7.56
31732	-0.538	0.659	0.088	25.9	7.56	-10.22
31748	-0.536	0.707	0.064	16.52	-2.73	-14.21
31773	-0.421	0.819	0.094	-21.84	-20.23	-12.67
31791	-0.352	0.758	0.118	-57.26	-20.16	-3.92
31814	-0.312	0.434	0.178	-67.34	-23.52	16.66
31832	-0.292	0.614	0.204	-54.04	-23.59	21.28
31852	-0.212	0.561	0.207	-70.49	-28.63	25.62
31873	-0.285	0.632	0.148	-84.98	-37.1	35.14
31894	-0.495	0.571	0.156	-51.38	-57.89	23.8
31918	-0.2	0.497	0.305	-44.66	-64.33	22.54
31938	-0.099	0.545	0.398	-49.84	-35.7	31.29
31958	-0.319	0.386	0.29	-79.17	-37.31	32.97
31978	-0.388	0.389	0.307	-35.56	-39.06	24.15
32002	-0.376	0.574	0.329	-28.0	-7.35	20.09
32022	-0.523	0.488	0.477	-24.64	-16.8	10.22
32040	-0.503	0.633	0.514	-26.18	-8.54	9.03
32062	-0.802	0.711	0.393	-31.43	-4.62	4.62
32080	-0.816	0.696	0.256	-17.85	-14.98	-2.38
32104	-0.717	0.746	0.332	5.46	7.42	-10.15
32123	-0.912	1.022	0.56	-10.36	23.94	-15.96
32144	-1.247	0.935	0.531	-19.95	10.15	-20.58
32165	-1.119	0.98	0.466	-7.84	5.88	-24.71
32185	-1.118	1.028	0.484	7.7	13.79	-25.13
32209	-1.146	1.118	0.742	0.0	31.08	-19.18
32228	-1.365	1.269	0.892	-11.97	38.71	-15.68
32252	-1.283	1.303	0.725	-24.15	14.63	-17.29
32271	-1.23	1.16	0.671	-21.21	11.55	-12.53
32289	-1.094	1.148	0.795	-4.55	11.62	-9.94
32310	-1.069	1.224	0.924	-3.64	10.36	-1.4
32331	-0.996	1.243	0.868	-4.97	4.83	10.22
32352	-0.959	1.24	0.803	-9.17	0.56	22.4
32371	-0.961	1.121	0.712	-2.38	-12.39	28.98
32395	-0.976	0.989	0.695	8.12	-15.4	33.88
32413	-0.978	0.926	0.626	27.16	-19.6	53.69
32431	-0.904	0.882	0.369	20.72	-22.54	36.54
32451	-0.757	0.806	0.462	18.13	-20.58	29.05
32471	-0.788	0.675	0.474	9.31	0.28	19.53
32495	-0.82	0.662	0.621	11.55	5.95	6.51
32514	-0.752	0.573	0.475	7.98	35.0	0.56
32538	-0.843	0.471	0.312	16.66	33.67	1.12
32558	-0.859	0.388	0.157	43.89	24.78	4.2
32578	-0.689	0.364	0.054	81.06	19.95	2.66
32598	-0.515	0.273	0.095	104.65	15.54	4.55
32617	-0.343	0.215	0.127	130.48	27.02	8.61
32639	-0.229	0.256	0.259	150.57	51.31	8.61
32660	-0.328	0.366	0.222	154.63	45.92	16.8
32680	-0.094	0.322	0.257	152.39	-0.77	12.11
32704	0.169	0.537	0.433	113.47	38.85	9.8
32724	0.07	0.563	0.25	86.59	80.57	10.29
32744	-0.261	0.605	0.076	80.85	56.28	3.99
32764	-0.3	0.714	-0.022	76.3	7.21	4.83
32783	-0.102	0.967	0.024	15.4	5.53	4.48
32807	-0.225	0.661	-0.048	-9.59	65.73	14.49
32828	-0.627	0.581	-0.091	23.8	29.75	10.15
32848	-0.595	0.642	-0.138	79.03	9.38	7.21
32872	-0.425	0.877	-0.133	66.01	-13.02	-3.22
32892	-0.488	0.998	-0.105	5.04	-6.44	-11.97
32909	-0.678	1.233	-0.084	-56.14	-39.06	-17.29
32934	-0.469	1.101	-0.154	-125.44	-41.44	-24.29
32950	-0.444	1.049	-0.176	-145.67	-32.83	-32.9
32973	-0.577	0.958	-0.042	-165.55	-38.36	-35.91
32993	-0.596	0.661	0.348	-172.27	-45.85	-22.4
33013	-0.517	0.563	0.346	-137.48	-46.48	-3.99
33034	-0.523	0.668	0.307	-73.57	-40.95	0.0
33055	-0.549	0.784	0.262	-61.81	-41.58	-5.32
33073	-0.519	0.827	0.276	-68.46	-45.57	-12.25
33097	-0.436	0.699	0.31	-87.15	-25.97	-15.47
33117	-0.506	0.552	0.334	-81.2	-13.09	-8.68
33141	-0.643	0.607	0.395	-59.29	-14.42	-12.95
33161	-0.642	0.654	0.419	-45.22	-27.23	-22.89
33177	-0.551	0.589	0.387	-37.66	-22.19	-22.68
33201	-0.517	0.534	0.393	-20.79	-7.35	-21.84
33221	-0.559	0.608	0.389	-4.83	4.83	-20.58
33238	-0.572	0.642	0.389	-3.85	-2.87	-19.95
33259	-0.498	0.663	0.453	-18.48	-4.62	-21.77
33279	-0.541	0.586	0.314	-10.78	7.49	-20.93
33299	-0.648	0.625	0.312	-8.89	-4.69	-21.14
33323	-0.554	0.612	0.322	-20.51	-0.63	-18.76
33342	-0.473	0.546	0.393	-19.46	-13.37	-19.11
33359	-0.396	0.504	0.408	-22.4	-4.06	-19.25
33383	-0.349	0.419	0.324	-25.9	-1.12	-15.12
33401	-0.305	0.455	0.312	-26.6	1.4	-10.43
33423	-0.297	0.559	0.429	-18.9	-8.4	-5.25
33443	-0.23	0.583	0.547	-51.1	-11.41	-1.05
33463	-0.208	0.396	0.382	-54.74	-3.15	7.28
33481	-0.243	0.322	0.362	-40.11	-5.46	6.16
33503	-0.278	0.426	0.295	-28.42	-0.7	10.78
33520	-0.351	0.441	0.339	-29.12	4.27	17.29
33540	-0.493	0.569	0.529	-10.57	19.39	5.04
33559	-0.654	0.646	0.313	-29.47	1.54	2.66
33583	-0.761	0.476	0.376	-32.2	-21.14	11.55
33599	-0.619	0.557	0.39	-12.81	-0.98	16.66
33624	-0.879	0.773	0.324	5.6	15.47	11.13
33644	-1.078	0.941	0.476	-18.27	-16.1	2.8
33664	-0.941	0.835	0.511	-51.03	-9.38	-1.89
33685	-0.85	0.529	0.384	-64.19	9.31	15.05
33704	-0.825	0.487	0.345	-15.89	35.42	17.64
33728	-1.073	0.786	0.404	10.92	46.69	8.75
33747	-1.108	0.842	0.498	19.6	25.13	0.91
33771	-0.987	0.739	0.472	25.2	28.35	-1.54
33791	-1.041	0.75	0.499	16.24	24.01	-1.68
33810	-1.086	0.738	0.554	16.38	28.63	-7.21
33831	-1.228	0.843	0.679	21.63	42.49	-18.97
33849	-1.247	0.835	0.55	15.26	43.89	-23.03
33869	-1.348	0.927	0.664	0.21	32.62	-17.99
33889	-1.287	0.886	0.841	-21.14	8.12	-17.22
33910	-1.181	0.751	0.929	-3.29	20.51	-22.05
33930	-1.188	0.854	0.89	8.47	23.52	-25.48
33955	-1.262	0.937	0.732	-13.3	9.94	-17.29
33974	-1.208	0.866	0.726	-2.59	-14.84	-10.22
33993	-1.086	0.817	0.791	18.41	-22.89	-8.82
34012	-0.943	0.808	0.766	21.77	-22.68	-7.7
34037	-0.946	0.888	0.646	5.46	-17.64	-5.53
34055	-1.036	0.807	0.518	-16.94	-23.45	-2.59
34075	-1.018	0.6	0.374	-6.58	-40.39	-0.28
34099	-0.852	0.578	0.334	12.25	-41.93	-6.51
34119	-0.725	0.661	0.497	-14.28	-1.96	-10.92
34138	-0.868	0.53	0.36	-46.97	-2.66	-18.97
34160	-0.744	0.424	0.254	-46.41	-7.42	-25.83
34180	-0.68	0.338	0.205	-35.77	-3.5	-21.49
34204	-0.53	0.186	0.134	-20.16	-13.86	-8.96
34225	-0.262	0.2	0.296	-17.99	-20.02	-2.8
34239	-0.143	0.223	0.473	-16.94	-18.06	-0.28
34262	-0.104	0.231	0.406	-9.66	31.36	10.01
34282	-0.367	0.278	0.244	30.52	25.76	15.96
34306	-0.34	0.4	0.276	41.3	-14.07	21.7
34326	-0.261	0.52	0.447	32.41	-20.58	31.29
34346	-0.334	0.731	0.648	-24.78	-35.7	34.58
34365	-0.319	0.38	0.573	-32.06	-28.49	35.14
34383	-0.423	0.338	0.417	3.08	-10.22	38.64
34405	-0.683	0.502	0.302	28.07	-5.67	36.19
34426	-0.894	0.615	0.303	17.78	-39.48	31.36
34449	-0.716	0.363	0.447	-4.55	-56.49	22.19
34469	-0.558	0.274	0.474	3.01	-23.45	13.58
34492	-0.59	0.376	0.434	9.94	6.51	4.76
34513	-0.637	0.504	0.461	10.22	9.94	-0.42
34529	-0.63	0.627	0.487	-1.12	6.37	-2.31
34554	-0.603	0.547	0.609	0.7	2.1	-3.85
34573	-0.581	0.568	0.562	12.25	9.87	-2.38
34597	-0.678	0.594	0.543	7.21	-12.39	4.62
34617	-0.609	0.554	0.515	1.54	-23.24	8.96
34636	-0.564	0.545	0.469	4.2	-22.82	8.47
34657	-0.533	0.45	0.479	3.43	-17.85	5.6
34677	-0.439	0.461	0.504	12.11	4.27	-2.31
34692	-0.486	0.497	0.434	10.08	24.71	-6.93
34716	-0.584	0.524	0.368	8.12	23.8	-13.09
34736	-0.599	0.594	0.4	-7.63	15.54	-17.08
34753	-0.575	0.533	0.415	-11.55	8.19	-18.97
34773	-0.54	0.438	0.452	-4.55	8.96	-15.96
34796	-0.536	0.465	0.458	2.03	8.68	-13.79
34814	-0.519	0.441	0.358	-2.8	4.27	-10.22
34835	-0.513	0.452	0.415	-8.4	-3.43	-8.12
34857	-0.439	0.43	0.447	-9.73	-7.42	-4.06
34877	-0.386	0.42	0.502	-13.44	-8.89	-0.07
34900	-0.37	0.366	0.456	-11.2	-0.56	3.71
34920	-0.441	0.445	0.428	-11.2	-5.81	7.07
34939	-0.407	0.43	0.427	-17.85	-20.65	17.22
34962	-0.371	0.462	0.62	-21.91	-28.91	21.42
34982	-0.361	0.355	0.502	-19.6	-23.66	21.28
35002	-0.429	0.426	0.465	-4.2	-10.01	17.57
35025	-0.615	0.596	0.333	-20.72	-13.65	13.86
35050	-0.641	0.495	0.37	-42.14	-43.33	6.86
35068	-0.475	0.378	0.617	-22.26	-17.01	0.77
35088	-0.731	0.499	0.473	-5.6	36.75	0.07
35108	-1.067	0.666	0.276	-22.89	9.31	-8.54
35132	-0.88	0.738	0.486	-7.56	-34.37	-7.21
35152	-0.724	0.627	0.668	-11.97	2.52	-11.76
35172	-0.893	0.623	0.652	5.18	33.46	-13.93
35192	-1.068	0.656	0.497	17.29	27.3	-14.49
35208	-1.125	0.885	0.518	16.52	19.53	-15.12
35231	-1.128	0.912	0.556	0.84	17.08	-18.27
35252	-1.155	0.851	0.726	-2.94	18.76	-20.3
35269	-1.085	0.646	0.72	3.78	31.08	-17.36
35292	-1.209	0.746	0.665	27.02	42.35	-16.94
35313	-1.301	0.911	0.596	27.72	24.78	-20.09
35332	-1.162	0.976	0.712	5.32	17.57	-19.25
35355	-1.135	0.791	0.835	-8.75	24.22	-11.41
35376	-1.139	0.752	0.753	7.28	28.84	-8.05
35394	-1.144	0.769	0.68	16.31	20.65	-6.37
35414	-1.119	0.835	0.635	14.98	0.7	-8.12
35438	-1.004	0.831	0.845	14.63	4.06	-14.77
35456	-1.066	0.778	0.831	8.47	16.31	-9.31
35474	-1.063	0.681	0.734	24.5	9.8	-4.41
35499	-1.112	0.807	0.67	27.86	-1.19	-0.77
35515	-1.092	0.698	0.57	22.68	-34.02	-3.08
35535	-0.95	0.686	0.638	18.9	-35.07	-5.04
35559	-0.959	0.612	0.586	10.78	-24.22	-5.39
35576	-0.929	0.52	0.479	8.12	-24.29	-5.67
35597	-0.862	0.426	0.373	11.55	-17.36	-4.13
35617	-0.782	0.421	0.2	8.47	-23.8	-8.33
35638	-0.57	0.314	0.259	4.69	-22.54	-11.9
35661	-0.433	0.306	0.295	16.03	1.4	-10.5
35681	-0.426	0.397	0.359	9.8	9.59	-6.37
35701	-0.39	0.397	0.5	2.24	-9.1	2.45
35717	-0.244	0.374	0.505	-37.38	-26.46	7.07
35736	-0.1	0.155	0.347	-42.63	-45.99	17.22
35760	0.01	0.264	0.386	-5.6	-9.94	27.37
35779	-0.218	0.567	0.454	-20.72	9.94	32.41
35798	-0.393	0.393	0.485	-54.39	-24.78	37.1
35821	-0.24	0.244	0.476	-36.96	-34.65	44.38
35841	-0.406	0.37	0.384	-11.34	-5.74	44.59
35862	-0.72	0.56	0.277	14.56	-4.2	38.85
35883	-0.859	0.627	0.254	12.53	-41.72	29.89
35904	-0.758	0.502	0.343	-3.71	-61.53	20.72
35924	-0.624	0.368	0.532	-20.37	-58.66	16.31
35948	-0.441	0.312	0.506	-4.9	-10.85	9.03
35967	-0.53	0.535	0.49	4.76	15.89	2.94
35991	-0.583	0.624	0.49	-7.35	11.9	-1.12
36006	-0.623	0.642	0.584	-15.47	1.05	-2.03
36031	-0.564	0.493	0.617	-17.57	-13.93	1.19
36051	-0.498	0.432	0.607	2.94	-3.71	3.85
36068	-0.566	0.464	0.563	18.62	-4.83	4.41
36092	-0.572	0.521	0.526	22.96	-16.52	6.65
36112	-0.512	0.559	0.547	26.53	-15.61	6.23
36135	-0.494	0.6	0.559	14.21	-7.14	4.48
36155	-0.505	0.589	0.543	11.27	3.22	-4.06
36175	-0.544	0.623	0.487	8.89	13.16	-12.25
36196	-0.59	0.633	0.524	-3.71	6.58	-12.39
36215	-0.556	0.635	0.591	-8.19	9.52	-10.29
36239	-0.618	0.622	0.558	-21.63	5.88	-5.32
36259	-0.616	0.523	0.539	-10.78	-2.03	-3.22
36280	-0.483	0.475	0.51	7.91	8.4	-2.94
36299	-0.539	0.535	0.491	14.07	11.48	-3.43
36323	-0.513	0.532	0.467	7.77	6.16	-7.42
36342	-0.535	0.526	0.434	6.16	5.32	-10.85
36359	-0.496	0.485	0.456	5.88	3.15	-13.37
36383	-0.45	0.444	0.452	8.26	11.27	-12.39
36403	-0.456	0.466	0.478	2.03	9.59	-11.62
36423	-0.424	0.466	0.451	-6.86	10.08	-8.61
36446	-0.422	0.46	0.463	-13.09	9.73	-6.58
36469	-0.381	0.407	0.464	-22.05	11.06	-1.4
36492	-0.396	0.372	0.398	-22.96	15.05	1.47
36512	-0.436	0.365	0.334	-18.69	9.03	2.73
36533	-0.449	0.409	0.285	-18.55	4.62	3.01
36553	-0.453	0.252	0.331	-20.72	1.89	4.27
36570	-0.401	0.342	0.393	-15.4	5.11	4.27
36594	-0.435	0.367	0.333	-10.5	19.39	3.15
36614	-0.555	0.45	0.341	-10.71	17.71	-1.26
36629	-0.613	0.487	0.366	-13.3	19.95	-4.27
36649	-0.673	0.417	0.36	-13.23	17.85	-3.15
36673	-0.675	0.473	0.355	-8.96	15.75	-6.3
36691	-0.709	0.528	0.419	-15.12	27.23	-10.43
36715	-0.814	0.545	0.47	-16.38	34.65	-17.36
36734	-0.923	0.593	0.474	-20.72	41.86	-20.65
36755	-0.996	0.589	0.396	-27.37	41.65	-21.28
36775	-1.098	0.6	0.402	-20.09	39.06	-24.08
36794	-1.097	0.593	0.665	-12.32	35.91	-26.11
36813	-1.133	0.624	0.701	-3.43	54.81	-31.15
36836	-1.257	0.7	0.598	1.82	63.7	-34.23
36858	-1.435	0.748	0.627	-2.73	46.62	-30.87
36882	-1.384	0.935	0.827	13.16	28.14	-21.91
36900	-1.384	0.896	0.856	6.44	25.55	-19.25
36920	-1.43	0.871	0.773	18.97	29.75	-15.61
36943	-1.528	0.882	0.742	11.69	6.79	-11.2
36964	-1.371	0.746	0.728	8.68	-3.57	-1.82
36984	-1.29	0.725	0.783	15.26	1.68	6.44
37002	-1.264	0.723	0.711	21.77	8.96	14.14
37026	-1.305	0.762	0.612	19.6	-1.4	21.07
37046	-1.23	0.718	0.501	9.8	-16.45	25.9
37070	-1.137	0.669	0.54	-3.15	-23.1	23.94
37090	-1.112	0.57	0.511	-10.99	-18.06	20.72
37108	-1.06	0.496	0.436	-7.35	-10.64	16.87
37131	-1.083	0.47	0.352	-14.91	-13.16	10.57
37152	-1.048	0.373	0.28	-11.55	-20.58	4.48
37169	-0.987	0.325	0.27	-8.54	-27.09	-0.21
37189	-0.836	0.237	0.215	-1.47	-31.71	-4.27
37212	-0.664	0.205	0.198	8.96	-24.5	-4.62
37231	-0.545	0.215	0.246	13.44	-6.02	-1.12
37248	-0.513	0.274	0.283	10.01	0.49	2.24
37268	-0.465	0.244	0.322	-0.14	-5.53	5.18
37290	-0.367	0.214	0.244	-1.47	-15.96	10.78
37310	-0.274	0.204	0.225	30.59	0.35	15.12
37332	-0.345	0.433	0.323	18.9	-1.89	22.89
37352	-0.413	0.54	0.576	-34.65	-27.23	30.1
37377	-0.24	0.228	0.569	-63.28	-37.52	45.78
37395	-0.323	0.201	0.546	-27.72	-25.55	50.05
37415	-0.514	0.395	0.477	-10.71	-23.87	55.72
37434	-0.694	0.455	0.407	-5.46	-32.34	51.17
37454	-0.832	0.457	0.351	7.28	-49.07	35.98
37479	-0.78	0.376	0.344	16.38	-72.8	17.85
37495	-0.656	0.372	0.455	14.14	-68.46	11.13
37519	-0.481	0.331	0.604	25.55	-41.3	7.28
37539	-0.512	0.514	0.609	32.48	-6.44	7.07
37559	-0.602	0.635	0.51	26.32	-2.59	7.84
37582	-0.574	0.694	0.562	12.18	-14.91	11.97
37603	-0.557	0.666	0.658	-13.51	-18.69	16.52
37627	-0.569	0.574	0.635	-12.88	-21.91	17.5
37645	-0.64	0.6	0.567	-10.22	-25.27	17.36
37664	-0.654	0.535	0.504	-14.98	-36.82	17.92
37689	-0.59	0.443	0.487	-6.44	-39.2	16.1
37707	-0.529	0.398	0.473	3.43	-33.67	13.16
37730	-0.471	0.447	0.473	11.13	-19.88	7.63
37750	-0.483	0.499	0.474	5.81	-9.52	-1.54
37769	-0.477	0.497	0.442	-0.91	0.7	-7.42
37790	-0.527	0.507	0.463	-0.35	3.99	-12.81
37812	-0.514	0.505	0.469	-1.68	7.84	-17.43
37833	-0.498	0.456	0.463	9.24	15.19	-23.03
37853	-0.507	0.464	0.437	18.76	18.76	-27.37
37874	-0.493	0.464	0.399	21.56	17.85	-27.86
37898	-0.445	0.421	0.375	18.06	12.32	-25.06
37918	-0.403	0.4	0.39	11.97	8.12	-23.17
37938	-0.366	0.365	0.359	15.82	10.78	-21.35
37956	-0.345	0.387	0.33	18.69	10.64	-19.39
37975	-0.307	0.395	0.33	12.6	7.63	-14.63
37994	-0.278	0.374	0.322	3.85	5.18	-5.88
38014	-0.252	0.365	0.336	-6.02	2.94	0.77
38037	-0.237	0.349	0.331	-5.88	8.96	4.69
38057	-0.488	0.405	0.321	-5.18	10.78	5.88
38081	-0.448	0.448	0.264	-4.55	6.79	3.99
38100	-0.487	0.537	0.306	-14.91	4.13	3.29
38123	-0.483	0.395	0.387	-13.09	8.54	-2.03
38143	-0.555	0.403	0.405	0.0	18.13	-9.87
38167	-0.663	0.504	0.278	15.61	30.8	-17.15
38186	-0.815	0.664	0.288	8.05	24.99	-21.7
38203	-0.814	0.627	0.395	1.05	22.47	-28.35
38227	-0.892	0.729	0.42	0.28	47.95	-38.5
38243	-1.076	0.745	0.364	3.64	53.62	-46.13
38267	-1.168	0.765	0.341	10.08	50.12	-52.78
38287	-1.21	0.75	0.35	7.84	69.02	-56.35
38305	-1.441	0.702	0.366	23.73	76.09	-65.24
38322	-1.499	0.715	0.335	37.03	76.86	-66.43
38347	-1.615	0.869	0.4	39.83	76.65	-60.34
38365	-1.647	0.88	0.45	27.16	62.58	-61.74
38384	-1.618	0.783	0.439	25.69	68.74	-67.48
38408	-1.618	0.678	0.33	34.37	67.2	-71.61
38429	-1.604	0.731	0.348	38.01	62.37	-63.77
38446	-1.643	0.715	0.499	33.04	46.13	-59.01
38470	-1.448	0.618	0.723	25.48	42.14	-53.06
38490	-1.402	0.524	0.624	27.02	52.85	-43.75
38509	-1.405	0.564	0.499	25.13	45.22	-38.99
38529	-1.417	0.566	0.392	-1.61	19.11	-32.48
38553	-1.267	0.483	0.376	-1.19	3.71	-27.3
38573	-1.192	0.408	0.32	7.91	4.34	-24.57
38593	-1.149	0.386	0.232	17.22	0.77	-22.61
38608	-1.106	0.387	0.213	21.49	-2.94	-21.7
38631	-1.022	0.365	0.185	32.9	-8.33	-22.96
38650	-1.005	0.381	0.142	24.36	-8.89	-24.71
38675	-0.958	0.388	0.142	14.7	-5.18	-20.79
38695	-0.903	0.356	0.136	4.69	0.56	-18.9
38715	-0.784	0.37	0.169	-6.23	-0.91	-13.44
38737	-0.627	0.285	0.197	-10.85	-4.27	-5.88
38760	-0.508	0.255	0.233	-2.59	0.98	5.67
38776	-0.45	0.233	0.261	-0.98	2.66	15.19
38801	-0.412	0.23	0.211	-8.19	2.38	27.86
38820	-0.381	0.226	0.152	-14.28	-4.69	37.87
38840	-0.351	0.217	0.11	-19.95	-10.29	47.95
38864	-0.368	0.177	0.06	-25.48	-8.4	56.07
38883	-0.47	0.178	0.002	-23.24	-8.89	55.86
38904	-0.578	0.181	-0.048	-8.26	-3.85	52.99
38923	-0.755	0.224	-0.089	1.26	-0.63	49.0
38948	-0.865	0.256	-0.175	15.26	-11.41	37.45
38963	-0.91	0.256	-0.198	25.55	-9.1	26.6
38983	-0.981	0.329	-0.244	41.86	-6.72	9.8
39007	-0.993	0.334	-0.207	61.6	-14.0	-4.76
39025	-0.926	0.437	-0.097	66.15	-13.72	-20.86
39044	-0.879	0.398	0.136	63.98	-22.19	-35.98
39070	-0.945	0.599	0.34	3.92	-17.78	-41.86
39089	-1.025	0.407	0.347	-95.97	-39.83	-47.46
39109	-0.942	0.208	0.301	-118.44	-55.79	-51.17
39129	-0.874	0.012	0.331	-97.58	-36.19	-56.42
39149	-0.942	-0.025	0.299	-69.58	-25.55	-61.88
39173	-0.979	-0.069	0.249	-29.75	-21.28	-67.48
39193	-0.992	-0.041	0.212	1.33	-18.34	-71.4
39211	-0.996	-0.001	0.206	25.06	-19.18	-74.76
39229	-0.986	0.048	0.22	35.7	-20.23	-78.19
39252	-0.985	0.09	0.259	36.75	-21.56	-83.23
39273	-1.012	0.095	0.277	30.52	-22.75	-88.27
39296	-1.042	0.084	0.235	32.62	-27.51	-94.57
39315	-1.028	0.062	0.213	42.14	-28.63	-97.51
39340	-1.026	0.056	0.245	60.06	-24.99	-97.09
39356	-1.032	0.072	0.261	67.83	-20.72	-93.24
39375	-1.035	0.064	0.239	80.78	-15.26	-86.66
39400	-1.029	0.066	0.223	98.49	-10.43	-75.81
39419	-1.009	0.097	0.246	105.07	-4.69	-66.22
39440	-1.024	0.157	0.256	101.22	-2.45	-55.58
39458	-1.02	0.199	0.263	89.11	-3.5	-46.9
39477	-1.011	0.216	0.261	67.34	-3.99	-38.85
39501	-1.015	0.165	0.329	45.57	-6.72	-28.63
39519	-0.968	0.117	0.343	39.41	-1.19	-22.33
39538	-1.021	0.093	0.285	36.12	-1.61	-17.08
39563	-0.985	0.086	0.277	39.41	-8.19	-13.3
39581	-0.956	0.121	0.305	31.5	-7.28	-9.1
39603	-0.955	0.117	0.335	20.86	-8.12	-3.85
39623	-0.929	0.111	0.348	11.76	-7.56	-0.28
39645	-0.922	0.09	0.33	5.67	-6.02	2.87
39665	-0.932	0.084	0.312	1.12	-6.58	5.6
39684	-0.937	0.075	0.326	-2.24	-8.12	8.19
39709	-0.935	0.074	0.34	-9.17	-9.66	11.34
39728	-0.95	0.052	0.319	-11.48	-9.73	12.95
39748	-0.954	0.048	0.327	-12.67	-11.83	15.54
39772	-0.942	0.042	0.332	-16.03	-10.57	20.37
39791	-0.954	0.031	0.364	-22.12	-9.45	23.24
39812	-0.971	0.002	0.344	-24.5	-9.1	25.13
39831	-0.981	-0.005	0.332	-24.57	-8.96	25.9
39851	-0.977	-0.006	0.362	-26.39	-9.87	26.88
39875	-0.949	-0.004	0.391	-32.06	-7.35	28.98
39894	-0.933	-0.028	0.386	-38.78	-4.9	29.47
39913	-0.931	-0.039	0.386	-41.65	-3.71	28.49
39938	-0.931	-0.046	0.369	-41.37	-4.69	26.81
39955	-0.935	-0.05	0.357	-41.02	-5.32	24.71
39974	-0.934	-0.061	0.35	-39.97	-7.56	22.4
39998	-0.957	-0.058	0.348	-39.97	-7.42	19.11
40018	-0.966	-0.073	0.343	-37.17	-11.06	16.8
40038	-0.942	-0.079	0.33	-32.48	-9.8	15.26
40058	-0.944	-0.08	0.329	-28.14	-7.98	14.35
40081	-0.958	-0.086	0.339	-22.61	-6.72	13.09
40100	-0.965	-0.076	0.324	-18.97	-7.63	12.18
40124	-0.944	-0.073	0.317	-15.82	-8.68	11.06
40144	-0.925	-0.072	0.323	-13.3	-7.77	11.13
40161	-0.897	-0.089	0.335	-10.08	-6.79	11.13
40184	-0.911	-0.102	0.314	-2.24	-1.54	8.75
40205	-0.945	-0.096	0.312	5.39	-5.25	6.16
40222	-0.922	-0.084	0.319	6.58	-4.2	3.85
40243	-0.917	-0.097	0.326	6.09	-2.94	0.35
40262	-0.913	-0.1	0.323	8.54	-0.28	-3.71
40281	-0.936	-0.096	0.307	10.01	2.66	-7.7
40301	-0.969	-0.092	0.308	10.71	3.22	-10.85
40326	-0.985	-0.089	0.307	11.41	3.15	-12.04
40343	-0.952	-0.079	0.3	11.48	3.57	-11.97
40362	-0.959	-0.066	0.3	10.64	8.19	-12.25
40386	-0.993	-0.044	0.302	4.9	6.51	-12.6
40404	-0.972	-0.063	0.296	-0.63	6.16	-12.95
40423	-0.979	-0.083	0.283	-0.14	6.51	-13.86
40448	-0.944	-0.076	0.287	0.98	5.74	-13.86
40468	-0.951	-0.072	0.275	1.54	9.38	-13.79
40484	-0.973	-0.067	0.279	0.0	7.28	-13.16
40504	-0.941	-0.07	0.277	-1.4	9.8	-12.53
40524	-0.936	-0.062	0.268	-3.71	12.04	-12.32
40544	-0.916	-0.036	0.285	-7.21	14.28	-12.67
40568	-0.919	-0.007	0.323	-23.31	15.96	-12.6
40588	-0.906	-0.027	0.333	-31.92	16.17	-11.34
40608	-0.891	-0.061	0.321	-33.95	17.78	-12.18
40628	-0.917	-0.07	0.318	-25.34	18.27	-12.95
40648	-0.936	-0.032	0.326	-24.99	12.95	-11.97
40672	-0.929	-0.059	0.315	-23.52	5.18	-8.96
40692	-0.906	-0.093	0.291	-15.26	4.9	-6.3
40711	-0.957	-0.076	0.282	-3.71	5.67	-4.06
40731	-0.984	-0.038	0.283	3.92	0.7	0.07
40755	-0.948	-0.012	0.265	6.16	-0.28	7.63
40775	-0.935	-0.019	0.236	8.26	1.96	12.67
40795	-0.965	-0.033	0.215	12.04	7.98	14.84
40815	-1.092	-0.067	0.194	16.8	10.85	14.98
40834	-1.111	-0.091	0.185	30.1	3.29	11.97
40855	-1.019	-0.038	0.191	38.99	9.31	7.21
40873	-1.01	0.008	0.223	39.48	14.7	2.24
40897	-1.033	0.063	0.251	26.39	20.02	-4.76
40915	-1.105	0.057	0.22	7.63	13.58	-11.62
40935	-1.113	0.053	0.195	-2.45	8.68	-18.69
40956	-1.06	0.046	0.198	-3.78	-0.84	-20.16
40980	-0.946	0.049	0.204	0.98	5.18	-17.57
40996	-0.902	0.037	0.224	5.67	10.36	-14.35
41020	-0.921	0.07	0.243	9.1	17.15	-10.01
41040	-0.991	0.078	0.254	5.53	16.66	-6.51
41059	-1.011	0.033	0.23	2.59	10.57	-4.06
41079	-1.013	-0.011	0.211	10.08	7.42	-3.71
41099	-1.012	-0.001	0.233	19.6	1.12	-4.83
41118	-1.012	0.014	0.248	23.38	-0.07	-5.32
41137	-0.986	0.003	0.243	24.99	-1.19	-4.97
41162	-1.002	-0.02	0.225	29.89	5.11	-4.97
41180	-1.086	-0.045	0.215	36.12	0.21	-5.46
41197	-1.044	-0.036	0.219	36.47	-2.45	-5.04
41219	-0.992	-0.032	0.276	36.26	-3.71	-4.06
41241	-0.879	0.001	0.291	19.95	0.14	-2.31
41265	-0.962	-0.153	0.258	0.84	-2.17	-7.07
41283	-1.055	-0.281	0.494	-16.59	14.77	-13.09
41305	-1.142	-0.523	0.572	-32.69	-21.56	-19.88
41329	-0.855	-1.152	0.365	10.78	7.0	-52.36
41347	-1.025	-1.0	0.413	83.23	21.07	-77.0
41372	-1.228	-0.413	0.696	-4.48	-25.27	-104.37
41391	-1.093	-0.813	0.74	-52.71	-25.83	-127.61
41411	-1.197	-1.164	0.484	-21.7	-18.34	-143.57
41429	-1.227	-1.072	0.627	18.13	-41.02	-150.64
41453	-1.147	-1.025	0.633	33.67	-26.32	-159.95
41473	-1.39	-1.217	0.566	51.66	-26.32	-166.39
41493	-1.433	-1.006	0.482	104.23	-68.46	-183.12
41516	-1.463	-0.777	0.483	104.93	-80.64	-201.6
41537	-1.708	-0.727	0.324	84.77	-104.02	-204.4
41557	-1.705	-1.017	0.25	129.99	-137.13	-197.26
41576	-1.672	-0.71	0.355	144.97	-152.46	-188.44
41599	-1.497	-0.8	0.241	120.96	-163.1	-175.98
41619	-1.339	-0.693	0.359	121.52	-145.88	-165.83
41639	-1.247	-0.645	0.346	131.04	-140.42	-157.57
41659	-1.148	-0.624	0.292	170.73	-140.07	-140.84
41679	-0.94	-0.578	0.165	225.61	-141.61	-119.42
41703	-0.836	-0.317	0.184	279.51	-125.37	-94.08
41723	-0.706	-0.024	0.09	264.11	-120.33	-68.11
41747	-0.668	0.07	0.081	217.84	-127.05	-50.82
41767	-0.517	0.17	0.193	159.95	-116.13	-40.88
41787	-0.428	-0.029	0.223	138.88	-92.75	-36.89
41805	-0.45	-0.08	0.069	148.33	-79.87	-36.47
41829	-0.395	0.126	0.149	141.61	-94.15	-36.96
41849	-0.232	0.209	0.249	106.33	-89.74	-34.16
41867	-0.175	0.135	0.333	86.24	-50.75	-27.02
41891	-0.2	0.104	0.327	74.13	-41.51	-22.19
41911	-0.105	0.295	0.556	46.06	-37.94	-16.66
41931	-0.051	0.303	0.645	-9.94	-5.88	-0.77
41947	-0.199	0.12	0.548	-44.24	1.26	14.0
41971	-0.103	-0.036	0.666	-28.84	-17.92	27.16
41991	0.002	0.065	0.789	-31.15	-6.3	34.37
42008	0.085	0.056	0.83	-32.97	-5.25	30.52
42028	0.199	0.032	0.896	-25.97	-22.26	21.98
42052	0.423	0.263	1.252	-28.35	-1.75	7.63
42071	0.305	0.398	1.179	-125.86	20.23	16.8
42095	0.32	-0.047	1.054	-167.65	-5.67	31.78
42115	0.41	-0.276	1.103	-95.06	9.03	29.68
42134	0.254	-0.222	1.18	-44.73	19.88	31.99
42155	0.2	-0.366	1.16	17.71	3.92	34.79
42175	0.231	-0.215	1.123	41.93	17.29	37.73
42199	0.104	-0.301	1.071	55.37	22.4	39.97
42218	0.119	-0.184	1.02	58.8	12.04	38.64
42237	0.126	-0.125	1.064	34.93	5.67	35.28
42257	0.123	-0.133	1.101	23.94	0.21	29.75
42281	0.087	-0.098	1.065	15.82	4.62	26.74
42301	0.05	-0.211	0.976	23.03	-13.86	26.88
42321	0.218	-0.217	0.995	34.3	-17.43	24.92
42345	0.218	-0.218	0.917	37.94	3.36	22.68
42365	0.046	-0.162	0.89	38.15	-15.75	22.33
42383	0.15	-0.126	0.924	33.74	-17.85	21.14
42404	0.16	-0.058	0.977	21.28	3.92	18.83
42428	0.027	-0.059	0.986	-0.28	12.74	19.25
42448	-0.002	-0.146	0.987	-6.65	15.96	16.8
42468	-0.091	0.05	1.195	-40.6	36.4	17.36
42490	-0.246	-0.1	1.143	-66.92	13.58	18.83
42512	-0.229	-0.133	1.001	-54.95	0.35	16.45
42532	-0.278	-0.17	0.913	-36.19	3.99	15.19
42551	-0.319	-0.351	0.892	7.0	-25.48	21.42
42571	-0.092	-0.291	0.932	48.51	-19.25	23.8
42595	-0.11	-0.193	0.937	61.39	11.76	23.38
42615	-0.268	-0.064	0.983	58.03	0.98	22.19
42635	-0.173	0.131	1.018	22.47	-3.85	18.55
42653	-0.144	0.122	1.047	-22.96	6.65	12.95
42674	-0.311	0.117	1.021	-47.74	8.82	10.78
42698	-0.317	0.037	1.015	-55.65	-12.39	12.74
42718	-0.183	0.083	1.04	-58.17	-23.38	20.3
42738	-0.186	-0.11	1.029	-38.92	6.93	28.56
42757	-0.295	-0.097	0.975	4.34	8.05	36.05
42777	-0.201	-0.069	0.918	34.37	-5.04	40.67
42801	-0.101	0.021	1.013	23.73	0.84	48.44
42821	-0.139	0.024	0.914	3.08	15.12	51.52
42841	-0.135	-0.011	0.887	-14.14	-12.6	60.48
42861	0.041	-0.075	0.712	-2.94	-20.02	58.73
42879	0.062	-0.112	0.494	28.21	27.86	51.94
42899	-0.183	-0.074	0.309	74.62	57.19	50.05
42923	-0.185	0.101	0.23	111.51	36.47	51.52
42940	-0.038	0.304	0.143	89.74	62.02	59.15
42961	-0.112	0.304	0.001	29.54	126.63	80.64
42983	-0.617	0.033	-0.165	7.91	168.28	92.19
43002	-0.676	-0.059	-0.247	38.99	183.96	92.75
43022	-0.751	0.036	-0.287	45.22	233.94	87.92
43047	-1.078	-0.072	-0.45	35.7	309.19	88.41
43067	-1.447	-0.189	-0.101	76.58	276.36	80.64
43086	-1.227	0.605	-0.127	-48.16	312.9	80.43
43106	-1.602	0.207	-0.24	-146.02	397.11	82.74
43126	-2.091	0.815	0.506	-252.14	353.85	74.48
43150	-2.102	0.701	0.339	-538.16	304.22	110.46
43170	-2.448	-0.676	-0.222	-586.46	307.79	161.98
43190	-2.855	-0.846	-0.083	-471.24	209.93	167.3
43207	-2.825	-0.748	0.058	-505.75	131.74	187.88
43231	-2.574	-1.755	-0.081	-491.12	82.32	237.23
43255	-2.14	-1.974	0.042	-278.88	66.15	216.3
43275	-1.805	-0.895	0.282	-193.27	95.06	183.33
43294	-1.727	-0.584	0.347	-249.83	69.86	163.59
43315	-1.477	-1.166	0.352	-250.74	60.83	173.53
43336	-1.406	-1.787	0.548	-144.9	53.55	207.13
43357	-1.266	-1.508	0.988	-21.63	38.85	137.2
43377	-1.259	-0.297	0.606	-87.99	-9.17	35.07
43401	-0.956	-0.684	0.189	-113.26	-56.56	164.57
43421	-1.583	-0.082	0.57	-82.88	-124.11	-75.81
43438	-0.716	-0.529	0.027	120.68	-108.78	-70.98
43461	-0.42	0.892	-0.336	123.34	19.18	-54.53
43484	-1.38	0.872	-0.515	44.31	-182.56	-54.88
43505	-0.821	0.366	-0.057	37.38	-60.9	-50.96
43525	-0.91	0.129	0.081	-23.17	2.45	-62.93
43545	-1.152	-0.398	0.118	-25.9	-16.1	-68.04
43566	-1.11	-0.854	-0.024	14.91	-7.91	-87.99
43590	-1.208	-0.926	-0.068	80.71	-11.9	-127.05
43610	-1.229	-0.797	0.215	81.97	-4.41	-155.26
43628	-1.36	-0.888	-0.023	80.43	-14.42	-172.62
43648	-1.39	-0.874	0.094	98.91	-29.26	-191.38
43672	-1.399	-0.858	0.098	122.36	-24.64	-202.23
43692	-1.611	-0.805	0.137	138.39	-30.31	-208.74
43711	-1.74	-0.731	0.131	166.95	-58.87	-209.09
43732	-1.536	-0.867	0.137	191.59	-70.07	-202.3
43749	-1.537	-0.698	0.025	230.65	-60.55	-203.28
43773	-1.728	-0.33	0.048	223.65	-90.72	-196.28
43793	-1.529	-0.318	0.288	165.97	-103.95	-189.07
43813	-1.323	-0.634	0.299	162.54	-82.67	-179.62
43832	-1.349	-0.785	0.18	207.41	-63.63	-175.28
43851	-1.32	-0.679	0.036	297.57	-53.97	-174.09
43870	-1.382	-0.286	0.118	305.97	-73.99	-167.93
43889	-1.232	-0.351	0.135	291.97	-102.69	-160.02
43912	-1.018	-0.308	0.126	299.74	-102.83	-147.49
43934	-0.973	0.003	0.223	270.41	-105.21	-136.92
43954	-0.947	0.227	0.454	168.84	-109.34	-124.25
43974	-0.668	-0.133	0.458	114.94	-132.37	-110.81
43994	-0.426	-0.259	0.351	144.41	-118.23	-103.53
44012	-0.444	-0.077	0.297	178.22	-62.72	-97.58
44035	-0.699	0.144	0.269	170.8	-71.12	-82.6
44051	-0.542	0.183	0.293	133.21	-111.51	-69.72
44071	-0.241	0.173	0.281	101.92	-110.6	-68.04
44091	-0.188	0.275	0.405	70.0	-42.28	-54.25
44116	-0.488	0.239	0.36	48.58	-32.83	-44.1
44136	-0.303	0.182	0.391	39.62	-39.27	-36.54
44155	-0.131	0.049	0.464	51.31	2.59	-31.92
44175	-0.308	0.211	0.534	68.88	42.84	-34.16
44199	-0.555	0.462	0.567	46.83	40.81	-39.34
44219	-0.616	0.424	0.602	-5.67	44.24	-34.23
44239	-0.671	0.326	0.611	-30.45	24.78	-23.1
44257	-0.517	0.37	0.789	-40.39	33.95	-11.06
44278	-0.547	0.409	0.901	-53.9	45.57	4.06
44302	-0.677	0.336	0.842	-82.46	54.53	21.77
44322	-0.759	0.022	0.714	-53.2	27.79	31.92
44342	-0.615	0.066	0.79	-24.85	28.0	42.0
44362	-0.745	0.152	0.804	-28.91	37.31	50.61
44386	-0.836	0.168	0.863	-33.95	15.68	57.47
44406	-0.769	0.16	0.874	-45.57	10.64	61.81
44426	-0.732	0.062	0.754	-45.29	18.48	61.67
44445	-0.867	0.055	0.728	-33.6	20.72	64.19
44466	-0.835	0.104	0.616	-26.81	10.15	68.04
44490	-0.767	0.108	0.47	-20.86	35.63	76.3
44510	-0.823	0.115	0.4	-14.42	41.37	81.41
44529	-0.969	0.106	0.313	-25.69	38.64	89.18
44550	-0.946	0.089	0.298	-29.12	38.29	99.12
44570	-0.893	0.138	0.21	-47.95	53.9	107.1
44589	-0.922	0.062	0.092	-57.4	68.11	113.19
44607	-1.035	0.047	0.203	-71.68	86.17	116.9
44627	-1.08	-0.037	0.189	-87.22	80.92	125.72
44651	-0.929	-0.046	0.19	-86.1	95.83	131.04
44670	-1.015	-0.066	0.315	-98.56	124.18	127.75
44694	-1.202	-0.047	0.27	-131.25	114.94	124.11
44714	-1.216	0.169	0.445	-217.07	113.05	126.91
44734	-1.207	-0.08	0.502	-281.19	125.58	139.93
44754	-1.29	-0.644	0.231	-232.12	116.2	149.1
44769	-1.226	-0.507	0.198	-185.57	98.98	146.93
44789	-1.2	-0.315	0.358	-228.55	95.2	146.16
44809	-1.255	-0.468	0.396	-248.92	89.67	149.31
44832	-1.273	-0.592	0.12	-252.35	79.59	146.44
44851	-1.382	-0.537	0.117	-264.53	70.35	145.67
44876	-1.399	-1.016	0.228	-249.48	45.36	154.21
44896	-1.13	-1.007	0.396	-176.61	77.91	149.94
44916	-1.299	-0.799	0.35	-137.55	84.21	137.97
44934	-1.397	-0.587	0.272	-112.77	52.36	127.05
44956	-1.079	-0.838	0.254	-73.08	31.29	118.09
44976	-0.962	-0.838	0.367	-24.36	48.51	106.05
44999	-1.118	-0.436	0.407	-10.15	56.63	82.6
45019	-1.183	-0.287	0.358	-22.75	40.67	64.89
45036	-1.117	-0.086	0.479	-47.25	41.79	51.17
45056	-0.979	-0.512	0.572	-44.66	60.34	51.24
45080	-0.953	-0.245	0.763	-53.76	71.61	54.46
45100	-0.893	-0.758	-0.024	-30.52	114.38	44.66
45119	-0.815	0.287	0.635	-33.88	145.32	40.25
45140	-1.583	-0.2	0.282	-33.6	31.29	19.88
45155	-1.206	-0.089	0.204	26.04	-6.23	7.42
45175	-1.008	0.256	0.199	72.03	-17.92	8.4
45195	-0.989	0.446	0.225	54.67	-25.06	7.63
45215	-0.924	0.376	0.142	0.07	-31.5	0.14
45239	-0.893	0.198	0.049	-47.67	-32.13	-11.55
45258	-0.892	0.04	-0.007	-63.42	-34.44	-15.89
45276	-0.894	-0.063	0.013	-44.31	-26.18	-16.38
45300	-1.001	-0.042	0.06	-13.79	-13.93	-18.62
45316	-1.124	-0.037	0.109	6.79	-26.95	-16.17
45337	-1.094	-0.106	0.148	1.47	-18.41	-14.84
45356	-1.132	-0.354	0.038	18.06	-13.3	-20.86
45380	-1.062	-0.426	0.06	69.37	-15.54	-38.43
45401	-0.996	-0.314	0.22	79.38	1.47	-49.07
45418	-1.058	-0.395	0.171	82.32	13.58	-59.5
45441	-1.08	-0.608	0.09	96.67	0.42	-75.39
45460	-0.953	-0.525	0.236	102.48	15.12	-99.47
45484	-1.203	-0.545	0.224	83.44	10.57	-123.27
45500	-1.293	-0.674	0.024	122.92	-26.95	-136.15
45521	-1.237	-0.719	-0.037	157.36	-37.03	-143.92
45543	-1.319	-0.638	0.019	202.02	-49.21	-141.75
45563	-1.293	-0.418	0.097	210.91	-62.72	-137.06
45587	-1.255	-0.41	0.164	192.64	-63.42	-135.59
45607	-1.331	-0.54	0.139	197.33	-69.16	-136.92
45627	-1.311	-0.397	0.184	200.69	-86.03	-141.33
45644	-1.216	-0.339	0.297	196.77	-86.17	-145.11
45664	-1.169	-0.33	0.29	187.39	-77.0	-145.53
45684	-1.219	-0.31	0.197	186.48	-79.73	-143.71
45708	-1.157	-0.259	0.254	182.21	-97.58	-139.16
45728	-1.018	-0.192	0.364	162.54	-102.06	-134.96
45748	-0.956	-0.186	0.377	148.54	-97.09	-129.5
45763	-0.932	-0.173	0.366	152.32	-85.75	-125.51
45783	-0.933	-0.087	0.346	145.18	-87.15	-117.39
45808	-0.805	-0.049	0.365	133.28	-93.73	-103.04
45828	-0.684	-0.011	0.386	128.1	-78.4	-94.15
45848	-0.684	0.01	0.369	130.13	-62.51	-79.1
45864	-0.65	0.074	0.383	133.0	-61.88	-66.71
45888	-0.61	0.095	0.324	122.85	-45.78	-52.29
45907	-0.694	0.101	0.304	111.37	-40.81	-43.54
45928	-0.763	0.213	0.382	86.87	-28.21	-33.67
45948	-0.774	0.183	0.376	49.77	-28.21	-25.34
45964	-0.684	0.182	0.375	24.85	-16.59	-17.99
45987	-0.781	0.143	0.376	-5.32	1.61	-11.69
46008	-0.824	0.127	0.429	-21.56	3.01	-5.46
46027	-0.74	0.143	0.469	-24.92	15.75	1.68
46046	-0.712	0.157	0.43	-23.59	28.98	11.48
46066	-0.816	0.235	0.388	-29.47	27.09	21.56
46088	-0.904	0.084	0.398	-41.65	19.53	36.19
46107	-0.917	-0.008	0.38	-20.93	15.47	48.93
46132	-0.932	0.104	0.379	7.35	27.58	57.89
46152	-1.019	0.239	0.375	8.68	36.54	62.23
46170	-1.056	0.282	0.309	-12.39	34.51	67.27
46191	-1.102	0.242	0.271	-34.37	41.72	75.81
46215	-1.104	0.192	0.233	-54.18	44.1	86.59
46235	-1.051	0.222	0.252	-67.69	56.49	93.59
46252	-1.163	0.266	0.237	-91.49	58.87	97.58
46273	-1.2	0.153	0.197	-102.27	58.66	105.77
46294	-1.205	0.019	0.209	-90.72	63.56	120.89
46313	-1.178	0.001	0.232	-65.17	80.36	129.99
46338	-1.319	0.064	0.227	-59.71	84.91	138.39
46357	-1.343	0.135	0.231	-70.84	83.65	143.22
46375	-1.386	0.095	0.151	-89.81	80.15	147.14
46399	-1.425	0.0	0.147	-114.03	78.96	147.14
46418	-1.441	0.035	0.186	-142.1	79.1	145.53
46436	-1.455	0.034	0.174	-190.96	68.25	140.7
46455	-1.335	-0.134	0.087	-220.22	56.35	137.62
46479	-1.246	-0.293	0.043	-214.13	49.98	131.81
46499	-1.182	-0.248	0.101	-206.5	42.0	121.31
46520	-1.224	-0.092	0.212	-257.04	27.09	111.79
46539	-1.096	-0.389	0.146	-268.66	19.46	108.22
46563	-1.034	-0.5	0.137	-231.77	26.74	101.92
46581	-1.028	-0.437	0.178	-193.13	34.3	95.83
46601	-1.112	-0.344	0.201	-154.49	31.64	88.34
46625	-1.089	-0.356	0.223	-117.6	18.34	83.93
46646	-0.864	-0.364	0.295	-96.6	10.71	79.17
46665	-0.862	-0.202	0.411	-90.23	36.26	72.87
46685	-1.021	-0.092	0.41	-119.49	28.42	67.41
46704	-1.004	-0.394	0.292	-91.98	25.13	64.89
46728	-1.003	-0.508	0.318	-29.82	32.13	55.09
46752	-1.063	-0.278	0.374	11.34	38.22	44.52
46776	-1.143	-0.194	0.403	-15.26	26.11	36.4
46796	-1.078	-0.442	0.312	15.82	26.6	32.48
46816	-1.069	-0.354	0.403	29.47	24.85	28.21
46836	-0.98	-0.268	0.416	28.49	31.99	20.16
46860	-0.828	-0.098	-0.199	-41.02	86.87	-3.5
46875	-0.616	0.049	0.198	-41.51	42.98	-16.17
46900	-1.195	-0.065	0.097	-122.64	66.01	-13.65
46920	-1.078	-0.132	0.306	-70.21	-5.46	-20.51
46940	-0.791	0.047	0.401	-44.87	31.92	-15.54
46963	-1.102	0.072	0.422	-27.16	28.7	-20.37
46982	-0.978	0.058	0.492	-4.13	26.25	-23.38
47002	-1.019	0.084	0.45	-11.2	26.32	-25.55
47026	-1.018	-0.004	0.368	-20.44	5.74	-18.76
47046	-1.047	0.009	0.307	-14.63	-7.49	-12.11
47066	-1.018	0.051	0.25	-11.76	-24.36	-9.03
47084	-0.994	0.036	0.171	-2.38	-22.19	-7.56
47106	-1.023	0.044	0.104	17.36	-21.84	-8.26
47129	-0.98	0.131	0.084	20.93	-14.07	-4.76
47149	-1.033	0.114	0.045	12.18	-14.35	-5.11
47169	-1.03	0.053	0.077	19.11	-10.99	-13.37
47193	-1.026	0.01	0.142	28.98	-15.68	-10.64
47213	-0.98	-0.02	0.165	28.35	-16.03	-4.97
47232	-0.977	-0.141	0.172	26.11	-7.84	-3.64
47253	-1.008	-0.328	0.264	26.18	-11.97	-4.27
47272	-0.934	-0.423	0.315	37.38	-17.43	-7.77
47291	-0.951	-0.568	0.258	69.02	3.15	-25.97
47311	-1.053	-0.537	0.176	98.98	-1.82	-49.42
47331	-1.039	-0.529	0.159	118.93	-13.09	-68.53
47355	-1.078	-0.507	0.193	113.82	-24.43	-79.94
47375	-1.059	-0.6	0.185	121.59	-31.78	-86.66
47395	-1.065	-0.622	0.128	157.15	-27.37	-94.64
47415	-1.12	-0.493	0.077	194.46	-34.72	-103.04
47431	-1.099	-0.36	0.112	199.57	-36.12	-106.61
47451	-1.096	-0.328	0.133	188.3	-37.66	-108.36
47474	-1.113	-0.281	0.141	173.46	-41.09	-109.55
47495	-1.093	-0.229	0.192	162.33	-42.07	-110.74
47515	-1.071	-0.215	0.196	146.86	-41.58	-110.39
47535	-1.064	-0.227	0.157	144.83	-44.52	-110.6
47555	-1.028	-0.206	0.14	153.09	-42.07	-111.3
47575	-1.01	-0.097	0.239	144.13	-43.61	-107.87
47599	-0.955	-0.05	0.271	129.22	-37.8	-102.06
47619	-0.882	-0.053	0.28	110.88	-27.79	-97.58
47638	-0.909	-0.027	0.276	107.94	-24.5	-92.26
47659	-0.862	0.04	0.319	83.72	-19.32	-85.96
47679	-0.913	-0.029	0.295	73.99	-13.02	-77.7
47697	-0.929	-0.031	0.311	67.97	-12.46	-70.07
47721	-0.961	-0.019	0.323	62.37	-6.16	-58.31
47738	-0.963	-0.012	0.31	57.19	-8.61	-51.59
47757	-0.996	-0.011	0.282	56.28	3.22	-44.8
47782	-1.122	0.015	0.332	46.55	-10.15	-34.65
47802	-0.936	0.022	0.381	31.36	-3.85	-24.36
47822	-0.988	-0.073	0.292	22.54	10.57	-18.55
47842	-1.151	-0.072	0.212	29.75	5.32	-15.96
47864	-1.188	-0.052	0.242	28.0	-7.28	-16.24
47885	-1.066	-0.087	0.258	29.96	-8.68	-16.73
47905	-0.962	-0.037	0.281	30.59	-0.14	-16.94
47925	-0.867	-0.015	0.269	38.92	15.61	-16.31
47944	-0.87	0.055	0.323	37.52	23.1	-15.19
47969	-0.895	0.081	0.359	25.69	21.63	-11.62
47989	-0.896	0.073	0.337	22.61	21.49	-7.21
48007	-0.936	0.099	0.322	16.94	18.34	-0.98
48029	-0.962	0.155	0.342	2.1	10.64	7.14
48049	-0.992	0.09	0.311	-9.03	1.61	15.61
48073	-1.004	0.085	0.291	-7.07	-3.99	30.24
48093	-1.017	0.064	0.295	0.07	-2.66	45.01
48109	-1.051	0.067	0.279	8.19	1.61	53.76
48128	-1.133	0.152	0.225	22.12	6.23	64.47
48148	-1.209	0.404	0.241	7.21	0.98	73.92
48173	-1.173	0.369	0.288	-33.11	-12.25	92.4
48193	-1.1	0.218	0.233	-21.63	1.26	108.36
48211	-1.154	0.241	0.135	-0.14	8.19	117.11
48232	-1.093	0.372	0.178	0.84	13.3	120.75
48253	-1.034	0.642	0.189	-51.03	18.13	117.6
48272	-1.076	0.647	0.121	-119.28	18.76	112.07
48296	-1.2	0.639	0.059	-163.66	8.26	102.34
48316	-1.064	0.557	0.054	-191.94	-1.05	94.01
48335	-1.047	0.536	0.03	-243.11	10.99	92.12
48352	-1.113	0.291	0.002	-257.74	17.71	95.41
48371	-1.266	0.275	-0.011	-258.86	10.36	97.93
48396	-1.328	0.418	0.005	-284.13	-11.9	103.32
48415	-1.362	0.347	0.037	-322.7	-25.41	119.7
48435	-1.102	-0.232	-0.052	-291.34	-19.18	141.47
48455	-1.153	-0.308	0.016	-213.36	-3.5	144.06
48478	-1.168	-0.22	0.048	-144.27	-20.58	140.98
48497	-1.03	-0.3	0.06	-106.26	-24.01	139.02
48522	-0.912	-0.364	0.082	-83.37	-12.32	130.69
48542	-0.937	-0.34	0.142	-49.07	-5.53	117.04
48560	-1.019	-0.237	0.239	-28.7	-5.67	101.08
48578	-0.991	-0.209	0.293	-29.33	-3.22	82.67
48599	-0.855	-0.33	0.308	-26.95	8.75	62.79
48623	-0.966	-0.333	0.256	-21.77	29.82	40.95
48643	-1.161	-0.329	0.216	-2.1	23.31	28.35
48660	-1.13	-0.203	0.279	0.56	20.51	20.3
48684	-1.085	-0.091	0.423	-32.55	18.55	13.3
48704	-0.991	-0.2	0.486	-59.5	15.82	11.27
48722	-0.921	-0.344	0.507	-50.19	22.33	8.33
48742	-0.883	-0.545	0.39	-18.2	33.46	-10.43
48766	-0.96	-0.336	-0.144	30.31	42.63	-14.28
48784	-0.632	0.271	0.574	-21.07	59.71	-16.24
48806	-1.196	-0.325	0.217	-100.8	31.36	-13.51
48830	-1.009	-0.272	0.398	56.28	-10.15	-35.7
48854	-0.894	0.103	0.546	66.01	17.08	-35.07
48874	-0.888	0.172	0.524	57.12	47.88	-29.19
48894	-1.06	0.282	0.518	23.94	25.41	-28.56
48914	-0.898	0.112	0.429	-3.08	5.74	-20.58
48938	-0.845	0.141	0.431	-15.33	13.37	-11.34
48957	-0.959	0.064	0.416	-18.55	8.19	-15.33
48978	-0.961	-0.04	0.374	-9.66	-4.9	-20.44
49002	-0.942	-0.011	0.347	-5.46	-2.94	-20.72
49022	-0.951	-0.019	0.365	-8.4	0.35	-19.88
49046	-0.977	-0.005	0.359	-7.14	-0.07	-16.38
49066	-0.991	0.064	0.329	-3.43	2.45	-12.25
49085	-1.009	0.114	0.319	-6.65	-3.01	-11.34
49102	-0.974	0.122	0.322	-13.37	-4.55	-10.08
49122	-0.965	0.084	0.341	-17.92	-2.1	-9.1
49141	-0.971	0.007	0.293	-10.71	-5.32	-6.3
49166	-0.93	-0.006	0.285	7.42	-4.48	-1.33
49185	-0.953	0.044	0.302	10.01	-4.27	0.14
49205	-0.957	0.041	0.331	2.52	-7.42	-0.56
49228	-0.946	-0.047	0.323	4.48	-9.17	1.05
49252	-0.935	-0.088	0.298	16.31	-8.4	1.89
49272	-0.922	-0.066	0.324	17.99	-3.71	-1.61
49291	-0.996	-0.058	0.315	10.57	-2.03	-3.64
49310	-1.014	-0.104	0.306	8.75	-7.84	-5.53
49330	-0.98	-0.164	0.314	22.89	-8.19	-7.49
49352	-1.042	-0.16	0.428	14.42	-8.82	-7.42
49372	-0.986	-0.26	0.405	8.68	-4.76	-6.02
49396	-0.952	-0.365	0.336	21.98	0.84	-12.67
49416	-0.947	-0.425	0.335	42.42	0.91	-20.93
49440	-0.891	-0.446	0.257	66.22	10.22	-31.64
49459	-0.862	-0.427	0.148	77.56	29.12	-45.64
49480	-0.965	-0.411	0.092	86.66	24.29	-59.71
49500	-0.977	-0.333	0.055	85.89	9.94	-73.64
49519	-0.939	-0.268	0.021	76.86	1.82	-83.16
49538	-0.981	-0.211	0.05	64.05	-6.58	-87.29
49560	-0.972	-0.226	0.061	59.71	-10.57	-89.25
49580	-0.954	-0.244	0.083	64.33	-4.06	-90.44
49604	-0.954	-0.277	0.123	72.1	8.4	-89.74
49624	-0.995	-0.298	0.094	94.36	14.14	-88.76
49642	-1.009	-0.201	0.151	116.27	14.91	-88.69
49664	-1.007	-0.161	0.24	115.29	15.96	-86.31
49684	-1.0	-0.194	0.291	108.71	20.16	-81.48
49708	-1.059	-0.231	0.291	115.71	17.43	-76.37
49728	-1.023	-0.221	0.288	122.15	10.99	-73.57
49747	-0.983	-0.2	0.355	121.73	9.24	-68.39
49771	-0.956	-0.222	0.374	112.07	2.03	-62.23
49792	-0.933	-0.233	0.36	110.39	2.66	-60.27
49810	-0.94	-0.216	0.372	110.25	-0.77	-61.53
49829	-0.919	-0.161	0.363	108.22	-3.57	-58.8
49854	-0.902	-0.173	0.35	101.36	-1.26	-53.69
49873	-0.947	-0.144	0.346	100.59	5.18	-47.95
49897	-0.995	-0.172	0.293	101.43	2.31	-37.87
49917	-0.995	-0.169	0.251	115.01	3.57	-31.43
49937	-0.997	-0.151	0.201	126.91	3.85	-28.63
49955	-0.968	-0.06	0.206	135.87	4.2	-27.79
49977	-1.017	0.006	0.129	126.91	13.58	-30.66
49996	-1.132	0.067	0.122	116.27	6.3	-33.04
50015	-1.118	0.121	0.189	97.72	-12.88	-30.94
50035	-0.929	0.133	0.262	74.06	-9.59	-30.17
50055	-0.935	0.152	0.215	46.27	2.87	-29.89
50079	-1.094	0.209	0.243	-2.59	-4.13	-27.51
50099	-1.09	0.064	0.233	-18.34	-17.92	-21.7
50119	-0.994	-0.063	0.21	-3.71	-12.39	-14.77
50137	-1.001	-0.079	0.18	27.58	-2.8	-11.76
50155	-1.052	0.073	0.189	46.97	0.63	-9.87
50179	-1.085	0.175	0.216	23.03	-9.8	-7.21
50197	-1.064	0.167	0.261	5.32	-10.64	-3.99
50219	-1.037	0.162	0.268	-14.98	-8.82	4.48
50239	-1.025	0.131	0.258	-23.45	-3.85	9.73
50259	-1.047	0.116	0.235	-18.97	2.73	14.07
50279	-1.115	0.222	0.242	-19.88	0.56	18.13
50303	-1.127	0.214	0.205	-25.06	-1.33	26.74
50323	-1.096	0.163	0.181	-22.82	1.19	39.13
50343	-1.119	0.195	0.189	-31.01	4.13	49.07
50361	-1.164	0.147	0.161	-35.98	6.86	54.95
50383	-1.163	0.17	0.142	-33.18	2.66	62.09
50404	-1.098	0.179	0.148	-39.06	9.03	69.58
50424	-1.129	0.17	0.154	-45.71	10.78	80.01
50448	-1.121	0.104	0.138	-58.87	7.84	91.07
50468	-1.144	0.059	0.1	-63.77	9.1	97.23
50488	-1.166	0.045	0.064	-69.72	7.35	103.88
50507	-1.159	-0.035	0.005	-72.59	9.73	109.48
50528	-1.125	-0.11	0.032	-57.26	15.26	113.89
50548	-1.0	-0.043	0.096	-51.8	26.18	117.39
50566	-1.116	-0.031	0.103	-45.85	30.17	119.0
50589	-1.04	0.01	0.116	-47.88	28.98	118.65
50607	-0.939	0.048	0.176	-66.36	31.99	115.43
50627	-0.948	0.076	0.215	-102.48	36.47	113.12
50651	-0.983	-0.03	0.236	-136.43	38.43	117.6
50670	-0.923	-0.209	0.475	-103.32	63.42	121.87
50688	-0.981	-0.368	0.201	-80.43	66.5	120.61
50708	-0.996	-0.295	0.11	4.69	66.01	97.16
50727	-1.138	0.01	0.223	11.83	66.64	75.6
50747	-1.208	0.017	0.363	-22.19	52.22	60.83
50772	-1.017	-0.231	0.415	-10.29	65.66	64.89
50792	-0.868	-0.241	0.315	0.35	97.23	45.43
50812	-0.984	-0.096	0.291	-8.54	94.15	29.54
50830	-0.992	-0.786	0.312	51.24	84.49	24.08
50849	-1.297	-0.122	0.577	226.45	57.19	-38.78
50874	-0.858	0.288	0.566	-0.28	-42.56	-35.77
50894	-0.764	-0.08	0.129	22.54	56.98	-45.99
50914	-1.08	0.297	-0.04	-24.29	33.11	-54.95
50934	-1.037	0.197	-0.105	-31.43	16.03	-47.81
50955	-0.99	0.476	-0.207	-11.97	8.19	-35.98
50977	-0.963	0.439	-0.202	-52.5	-28.14	-28.49
50998	-1.067	0.405	-0.073	-38.71	-84.56	-25.62
51017	-0.948	0.699	0.196	-87.78	-93.24	-28.28
51042	-0.843	0.147	0.239	-95.83	-52.85	-38.5
51061	-0.716	-0.226	0.309	-42.56	-15.12	-25.13
51077	-0.858	0.011	0.393	-15.89	11.06	-23.1
51102	-1.002	0.125	0.418	-18.41	18.69	-16.38
51121	-1.11	0.176	0.325	-17.29	13.65	-10.64
51139	-1.072	0.131	0.284	-12.11	1.89	-10.57
51158	-1.012	0.112	0.315	-13.51	-5.81	-8.61
51183	-0.982	0.077	0.284	-2.59	-5.53	-1.82
51199	-1.008	0.145	0.238	-0.07	-5.74	3.29
51223	-1.04	0.174	0.187	5.53	-15.4	7.63
51243	-0.99	0.178	0.19	5.95	-17.78	5.46
51262	-0.955	0.168	0.17	6.16	-7.28	3.08
51286	-0.964	0.194	0.223	-8.19	-1.05	4.06
51306	-0.977	0.09	0.214	-8.82	8.54	17.01
51326	-1.034	0.009	0.25	-0.35	7.0	27.44
51346	-0.986	-0.142	0.321	6.02	-8.96	22.89
51370	-0.963	-0.249	0.53	26.32	26.18	-12.95
51389	-1.02	-0.295	0.586	-31.22	11.62	-47.32
51410	-1.054	-0.533	0.425	-43.82	4.76	-76.65
51430	-1.254	-0.486	0.335	-58.1	-31.57	-102.34
51454	-1.152	-0.813	0.272	-21.0	-53.55	-120.19
51473	-1.217	-0.781	0.251	10.92	-57.19	-131.74
51493	-1.257	-0.819	0.202	63.77	-66.43	-144.48
51513	-1.322	-0.733	0.228	102.34	-69.51	-147.28
51533	-1.281	-0.732	0.29	135.59	-81.2	-151.27
51552	-1.219	-0.66	0.311	152.39	-75.39	-154.21
51577	-1.309	-0.481	0.345	148.75	-74.55	-162.19
51597	-1.406	-0.438	0.389	117.53	-97.3	-164.01
51617	-1.194	-0.674	0.337	137.76	-100.03	-166.39
51637	-1.19	-0.578	0.28	175.84	-83.16	-163.59
51655	-1.335	-0.435	0.339	191.73	-93.1	-160.02
51679	-1.18	-0.433	0.361	194.18	-114.59	-152.32
51703	-1.031	-0.413	0.353	220.78	-105.7	-140.7
51721	-1.0	-0.32	0.302	237.93	-94.99	-130.9
51742	-1.049	-0.021	0.36	217.21	-105.49	-120.19
51766	-0.858	0.082	0.417	137.27	-129.29	-110.39
51784	-0.651	-0.01	0.455	105.28	-110.53	-103.25
51805	-0.694	-0.154	0.434	115.15	-86.66	-96.32
51829	-0.642	0.037	0.384	131.67	-90.79	-88.34
51849	-0.612	0.281	0.462	59.08	-92.61	-80.78
51869	-0.549	0.002	0.45	34.86	-80.85	-72.87
51886	-0.52	-0.119	0.417	57.19	-62.44	-63.0
51909	-0.53	-0.029	0.436	79.24	-38.64	-50.89
51928	-0.624	0.07	0.427	81.41	-25.48	-45.64
51950	-0.756	0.109	0.485	55.16	-25.76	-38.29
51970	-0.613	0.033	0.527	47.25	-23.59	-31.15
51990	-0.618	0.025	0.56	48.79	5.04	-25.27
52009	-0.735	-0.011	0.498	54.32	6.58	-19.88
52032	-0.758	0.176	0.498	45.22	0.63	-15.96
52053	-0.741	0.107	0.424	25.13	-8.4	-9.73
52071	-0.645	0.094	0.452	28.07	1.75	-2.94
52093	-0.611	0.099	0.424	31.15	21.63	3.78
52114	-0.644	0.181	0.362	36.75	35.56	6.58
52133	-0.704	0.213	0.272	33.25	44.94	9.1
52153	-0.776	0.248	0.233	31.85	53.97	14.0
52177	-0.858	0.276	0.364	22.12	73.71	21.56
52192	-0.898	0.306	0.337	15.26	73.36	29.19
52217	-0.781	0.299	0.225	17.71	90.65	38.92
52236	-0.864	0.23	0.037	51.31	123.69	43.96
52257	-1.049	0.231	-0.027	47.11	149.8	46.83
52275	-1.272	0.436	0.03	13.09	141.05	52.5
52295	-1.238	0.505	0.021	-52.43	139.93	64.19
52319	-1.389	0.411	-0.092	-128.87	155.19	78.05
52338	-1.578	0.231	0.011	-187.88	146.16	90.3
52357	-1.536	0.176	0.191	-248.71	131.81	111.16
52376	-1.432	0.042	0.116	-259.07	145.88	125.93
52400	-1.541	-0.078	0.003	-249.48	154.14	137.13
52420	-1.723	-0.103	0.176	-247.8	151.69	149.24
52435	-1.668	-0.332	0.262	-239.33	147.7	154.56
52458	-1.564	-0.47	0.166	-203.84	147.42	157.64
52477	-1.554	-0.441	0.185	-171.29	136.92	152.95
52502	-1.465	-0.351	0.329	-146.16	130.55	142.73
52522	-1.383	-0.464	0.42	-123.62	118.51	132.09
52542	-1.255	-0.698	0.218	-71.61	109.48	113.19
52562	-1.4	-0.479	0.061	-38.64	107.73	92.96
52581	-1.555	-0.308	0.135	-23.94	63.28	79.66
52601	-1.373	-0.244	0.294	-20.3	33.95	79.52
52625	-1.049	-0.198	0.395	-15.33	38.15	88.69
52640	-0.764	-0.305	0.365	-12.95	57.89	86.66
52660	-0.823	-0.12	0.257	-14.0	108.36	72.24
52680	-1.119	-0.173	0.053	-12.11	97.51	66.36
52705	-1.157	0.096	0.152	9.38	80.78	52.5
52722	-1.102	0.016	0.253	-8.68	76.02	48.23
52744	-1.069	-0.065	0.226	-4.2	97.44	27.93
52766	-1.17	0.1	0.16	1.61	104.3	-3.57
52787	-1.198	-0.417	0.056	20.23	96.53	-16.38
52805	-1.365	-0.497	0.358	158.27	0.35	-49.21
52828	-0.846	0.382	0.371	52.64	-9.03	-29.68
52852	-0.991	0.386	0.18	7.7	-3.71	-23.73
52870	-1.144	0.517	0.148	-56.14	-37.8	-37.1
52890	-1.003	0.425	0.138	-62.37	-51.03	-53.48
52910	-0.823	0.053	0.169	-52.29	-25.76	-23.66
52934	-0.85	0.326	0.104	-9.66	32.2	-23.8
52954	-1.025	0.274	0.052	-8.12	13.44	-32.41
52971	-0.963	0.273	0.071	-14.14	-2.03	-40.25
52995	-0.959	0.213	0.065	-25.69	-12.11	-48.37
53015	-1.008	0.193	0.065	-36.19	-23.45	-44.94
53033	-0.964	0.132	0.053	-30.73	-19.6	-37.59
53051	-1.017	0.234	0.022	-24.01	-13.44	-31.43
53070	-1.083	0.356	-0.012	-36.82	-21.42	-28.56
53095	-1.019	0.301	-0.043	-58.8	-31.15	-25.55
53113	-1.007	0.243	-0.022	-59.85	-25.27	-21.98
53134	-0.988	0.197	0.044	-48.93	-26.67	-23.03
53154	-0.917	0.177	0.02	-54.46	-14.63	-17.92
53175	-0.985	0.175	0.077	-73.5	-7.56	-11.48
53198	-1.044	0.078	0.176	-86.52	-21.35	-3.22
53218	-1.007	-0.136	0.155	-68.04	-16.17	-3.78
53237	-1.096	-0.164	0.242	-42.42	-25.48	-14.21
53257	-1.2	-0.136	0.359	-51.45	-46.97	-26.67
53282	-1.16	-0.121	0.357	-92.4	-76.16	-35.84
53298	-1.117	-0.328	0.329	-90.51	-82.39	-46.48
53321	-1.152	-0.432	0.303	-82.39	-87.15	-67.06
53342	-1.144	-0.559	0.279	-49.14	-98.28	-85.05
53366	-1.096	-0.593	0.308	-22.26	-94.85	-102.9
53385	-1.12	-0.626	0.303	4.62	-88.9	-110.95
53405	-1.094	-0.672	0.295	27.86	-79.45	-115.99
53429	-1.195	-0.705	0.334	71.26	-72.17	-125.44
53449	-1.166	-0.64	0.312	99.19	-75.74	-129.08
53473	-1.173	-0.642	0.277	123.55	-68.18	-135.52
53496	-1.203	-0.575	0.3	145.81	-70.0	-143.71
53517	-1.264	-0.443	0.364	142.24	-77.07	-149.38
53536	-1.246	-0.443	0.403	139.02	-86.03	-154.91
53552	-1.17	-0.412	0.405	136.08	-85.47	-158.13
53577	-1.13	-0.474	0.426	130.41	-93.45	-157.36
53592	-1.056	-0.547	0.458	152.6	-85.19	-154.77
53616	-1.096	-0.31	0.531	181.51	-84.84	-151.83
53637	-1.059	-0.162	0.516	131.04	-112.28	-149.66
53657	-0.865	-0.356	0.478	134.05	-104.58	-144.41
53673	-0.837	-0.29	0.553	146.02	-94.64	-138.39
53697	-0.81	-0.215	0.6	156.1	-98.91	-123.9
53716	-0.772	-0.062	0.529	157.92	-87.57	-118.44
53736	-0.769	0.035	0.614	116.55	-107.94	-111.16
53760	-0.561	-0.057	0.62	86.87	-119.28	-96.32
53780	-0.374	-0.072	0.671	91.07	-85.05	-84.21
53800	-0.46	-0.027	0.608	99.54	-79.38	-81.41
53820	-0.409	0.057	0.609	93.17	-87.71	-74.13
53844	-0.305	0.017	0.639	92.05	-67.69	-63.7
53864	-0.321	0.042	0.58	99.61	-52.64	-56.07
53883	-0.397	0.196	0.562	81.76	-51.66	-46.62
53903	-0.428	0.171	0.561	49.21	-44.17	-39.97
53926	-0.427	0.118	0.569	37.03	-43.68	-30.94
53947	-0.338	0.131	0.556	29.82	-23.31	-26.46
53967	-0.556	0.122	0.476	24.36	2.1	-23.66
53984	-0.613	0.232	0.621	8.54	-13.02	-18.06
54004	-0.376	0.135	0.714	-20.65	-2.24	-11.27
54024	-0.439	0.047	0.677	-13.44	14.91	-4.48
54048	-0.548	0.039	0.591	13.65	28.7	5.88
54066	-0.625	0.081	0.54	17.01	21.63	15.89
54090	-0.626	0.053	0.513	8.61	18.97	23.66
54110	-0.6	0.014	0.512	13.86	24.43	26.88
54129	-0.576	0.156	0.549	5.74	37.45	27.44
54149	-0.618	0.141	0.509	-2.03	50.68	28.91
54173	-0.685	0.112	0.46	1.54	65.59	35.98
54193	-0.632	0.034	0.463	19.11	97.93	36.89
54212	-0.793	0.132	0.39	29.89	117.25	36.12
54231	-0.953	0.392	0.355	2.73	114.52	36.75
54250	-0.98	0.319	0.345	-25.9	110.32	39.97
54270	-1.036	0.223	0.405	-56.35	111.37	50.26
54294	-1.259	0.085	0.447	-69.79	96.53	64.26
54313	-1.128	0.084	0.417	-68.95	93.45	77.49
54337	-1.166	0.099	0.33	-69.65	115.08	95.06
54354	-1.241	0.143	0.525	-87.64	126.07	104.3
54373	-1.266	0.323	0.539	-157.36	133.77	123.9
54398	-1.387	0.069	0.383	-210.84	144.13	147.42
54414	-1.414	-0.016	0.233	-228.13	143.22	161.28
54434	-1.447	-0.164	0.12	-204.96	151.69	176.4
54456	-1.486	-0.143	0.23	-179.9	143.36	180.39
54478	-1.412	-0.19	0.168	-159.88	138.95	186.06
54502	-1.43	-0.189	0.087	-128.94	154.28	181.3
54521	-1.669	-0.086	0.098	-128.87	142.17	168.42
54545	-1.728	-0.194	0.145	-168.42	112.56	160.09
54562	-1.727	-0.346	0.319	-164.08	100.17	158.9
54581	-1.549	-0.529	0.259	-116.13	85.47	161.28
54605	-1.169	-0.515	0.109	-30.52	66.57	167.3
54626	-0.993	-0.397	0.274	9.94	84.63	142.94
54646	-1.088	-0.253	0.33	16.45	86.52	122.43
54669	-1.043	-0.196	0.297	13.44	86.45	108.36
54693	-1.126	-0.239	0.266	5.74	80.36	90.44
54711	-1.194	-0.092	0.275	12.67	72.8	71.05
54732	-1.181	0.005	0.3	-29.61	61.04	50.19
54748	-1.142	-0.069	0.291	-47.88	72.73	18.06
54773	-1.191	-0.227	0.239	-12.46	82.11	17.57
54790	-1.125	-0.239	0.219	39.41	92.89	8.54
54809	-1.184	0.128	0.271	51.87	80.64	-7.56
54834	-1.602	-0.253	0.58	63.84	-24.15	-57.82
54853	-0.88	-0.664	0.673	223.65	-107.52	-87.92
54873	-0.323	0.717	0.897	70.14	28.14	-50.82
54893	-1.093	0.045	0.52	-20.09	68.46	-50.96
54914	-1.14	0.468	0.248	-19.39	-25.62	-54.46
54934	-0.819	0.349	0.131	-41.16	5.95	-42.07
54958	-0.918	0.274	-0.022	-58.45	7.63	-41.79
54976	-0.904	0.265	-0.141	6.79	26.53	-37.17
54997	-1.111	0.591	-0.103	0.7	1.12	-38.01
55021	-1.045	0.476	-0.098	-48.44	-34.86	-33.6
55039	-1.027	0.156	0.075	-62.23	-61.46	-29.89
55059	-0.861	0.053	0.263	-15.47	-50.96	-27.58
55083	-0.878	0.25	0.28	-3.5	-20.16	-23.1
55103	-0.975	0.304	0.148	-27.65	-14.07	-18.97
55127	-0.978	0.319	0.004	-51.1	-6.65	-11.2
55147	-0.948	0.185	-0.029	-27.02	2.8	-9.24
55164	-0.904	0.168	0.043	1.33	9.1	-10.43
55183	-0.925	0.239	0.027	10.85	27.58	-11.13
55207	-1.143	0.33	0.005	-3.29	17.01	-29.89
55227	-1.173	0.181	0.257	-45.78	-38.15	-40.88
55245	-0.969	0.005	0.359	-92.89	-44.38	-41.65
55268	-1.048	-0.226	0.364	-105.7	-48.58	-49.98
55284	-1.111	-0.397	0.322	-61.88	-51.1	-56.56
55309	-1.058	-0.442	0.443	-17.08	-51.52	-64.68
55329	-1.069	-0.486	0.382	6.79	-46.55	-72.94
55349	-1.114	-0.564	0.274	41.16	-36.61	-86.66
55366	-1.209	-0.481	0.297	58.59	-38.15	-97.23
55390	-1.261	-0.441	0.34	45.71	-59.5	-106.26
55405	-1.187	-0.496	0.323	45.22	-69.02	-110.74
55430	-1.173	-0.496	0.384	51.1	-66.15	-120.33
55449	-1.218	-0.562	0.35	55.51	-63.84	-122.36
55472	-1.233	-0.789	0.188	93.1	-82.53	-121.59
55492	-1.114	-0.665	0.412	147.77	-82.18	-124.11
55513	-1.189	-0.58	0.386	178.29	-72.94	-119.84
55533	-1.306	-0.634	0.215	221.48	-85.12	-113.54
55557	-1.21	-0.468	0.375	233.31	-107.03	-109.62
55577	-1.171	-0.38	0.529	217.77	-106.19	-105.28
55597	-1.117	-0.335	0.534	207.13	-103.53	-101.5
55614	-1.166	-0.263	0.531	201.6	-106.19	-102.41
55634	-1.068	-0.218	0.545	172.13	-130.76	-103.46
55653	-0.946	-0.151	0.543	151.55	-130.9	-101.64
55677	-0.935	-0.051	0.695	123.55	-126.63	-100.94
55701	-0.752	-0.113	0.633	113.4	-127.4	-92.26
55721	-0.815	-0.087	0.575	107.38	-134.54	-87.99
55740	-0.769	-0.043	0.612	106.47	-143.36	-84.35
55759	-0.671	-0.011	0.693	105.63	-143.01	-74.2
55780	-0.543	0.002	0.642	105.42	-120.96	-66.22
55799	-0.695	0.029	0.586	112.7	-111.72	-62.58
55819	-0.767	0.095	0.653	100.03	-124.39	-51.8
55844	-0.58	-0.124	0.617	97.72	-123.34	-40.88
55864	-0.524	0.049	0.627	106.26	-92.19	-36.26
55884	-0.643	0.199	0.63	94.64	-87.99	-32.83
55899	-0.66	0.222	0.549	64.26	-89.67	-29.05
55920	-0.557	0.051	0.479	55.23	-95.2	-24.85
55944	-0.472	0.115	0.539	64.05	-68.6	-19.39
55964	-0.497	0.203	0.512	58.38	-59.85	-14.91
55981	-0.515	0.209	0.441	48.37	-50.19	-7.77
56000	-0.529	0.153	0.381	45.71	-41.65	0.35
56023	-0.48	0.134	0.344	44.45	-29.89	7.98
56045	-0.422	0.242	0.364	27.72	-16.73	10.5
56069	-0.426	0.266	0.38	11.48	10.5	13.51
56089	-0.483	0.269	0.37	-2.94	23.87	14.56
56109	-0.474	0.239	0.332	-19.18	37.45	16.03
56129	-0.477	0.236	0.396	-31.01	58.17	19.95
56146	-0.518	0.248	0.437	-23.66	76.44	21.21
56170	-0.589	0.26	0.478	-13.23	94.71	23.8
56189	-0.584	0.267	0.405	-2.52	116.9	29.19
56208	-0.661	0.257	0.302	-0.28	147.21	38.08
56228	-0.839	0.301	0.339	-12.04	180.11	50.96
56248	-0.995	0.428	0.337	-55.3	184.8	69.16
56271	-1.006	0.373	0.195	-100.66	188.93	90.51
