Millis	AccelX	AccelY	AccelZ	GyroX	GyroY	GyroZ
0	-1.0	-0.078	-0.0	31.5	14.84	17.78
24	-0.999	-0.07	-0.114	31.85	13.86	16.24
43	-0.996	-0.062	-0.121	32.83	12.74	15.47
66	-0.996	-0.064	-0.129	32.48	11.76	14.77
87	-0.982	-0.07	-0.138	32.48	11.48	13.72
107	-0.977	-0.056	-0.136	32.55	13.23	12.88
122	-0.988	-0.064	-0.127	32.55	13.3	12.32
147	-0.993	-0.069	-0.136	31.71	10.64	11.69
165	-0.988	-0.059	-0.146	31.5	9.87	10.99
185	-0.996	-0.051	-0.149	31.92	10.22	10.29
209	-1.004	-0.051	-0.15	31.85	10.36	9.45
225	-1.008	-0.053	-0.156	30.17	10.57	8.75
250	-0.997	-0.052	-0.161	28.56	10.64	7.42
267	-0.991	-0.054	-0.159	27.23	10.36	6.72
290	-0.991	-0.046	-0.154	25.9	9.24	5.32
310	-0.998	-0.033	-0.163	23.66	7.98	4.97
331	-1.005	-0.021	-0.173	19.53	7.77	4.34
351	-1.011	-0.013	-0.168	16.38	6.86	3.92
369	-1.009	-0.021	-0.166	14.21	4.83	3.22
392	-1.005	-0.025	-0.167	12.18	3.29	2.17
412	-1.004	-0.024	-0.17	9.31	2.38	1.47
431	-1.001	-0.018	-0.163	6.51	0.91	1.05
455	-0.993	-0.02	-0.16	4.34	-1.26	0.77
475	-0.99	-0.019	-0.158	2.24	-3.08	0.63
496	-0.999	-0.019	-0.159	-17.78	-4.34	0.63
514	-1.007	-0.024	-0.173	-3.36	-5.67	0.35
535	-1.005	-0.022	-0.175	-7.35	-5.6	-0.56
556	-1.005	-0.007	-0.173	-10.85	-5.88	-0.98
575	-1.005	-0.005	-0.174	-14.0	-6.93	-2.03
594	-1.003	-0.002	-0.177	-16.87	-7.0	-2.52
611	-0.999	-0.021	-0.175	-18.48	-6.93	-3.01
634	-0.995	-0.039	-0.165	-19.11	-7.56	-4.13
655	-0.99	-0.041	-0.154	-19.74	-9.17	-5.32
675	-0.99	-0.046	-0.147	-19.6	-10.71	-6.37
694	-0.996	-0.056	-0.139	-18.83	-11.83	-6.3
711	-1.003	-0.063	-0.131	-17.22	-12.74	-5.95
734	-1.003	-0.054	-0.133	-15.75	-12.6	-5.95
755	-1.004	-0.047	-0.132	-15.61	-11.2	-6.23
774	-0.992	-0.049	-0.14	-14.56	-10.71	-6.37
799	-0.977	-0.042	-0.134	-13.09	-8.47	-6.86
819	-0.983	-0.038	-0.132	-10.92	-6.79	-7.56
837	-0.988	-0.029	-0.128	-9.45	-4.69	-8.54
857	-0.994	-0.02	-0.139	-11.83	-3.85	-9.52
879	-0.991	-0.015	-0.149	-15.19	-2.45	-10.5
901	-0.988	-0.007	-0.154	-18.2	0.07	-11.41
922	-0.991	-0.021	-0.148	-19.6	0.84	-13.09
939	-0.986	-0.031	-0.152	-20.58	-0.07	-14.14
959	-0.983	-0.044	-0.142	-22.05	-1.89	-15.54
980	-0.995	-0.064	-0.123	-22.75	-3.85	-17.08
1004	-1.02	-0.103	-0.121	-19.39	-7.91	-17.85
1028	-1.021	-0.129	-0.136	-16.31	-11.97	-18.34
1048	-1.024	-0.146	-0.152	-14.63	-13.16	-18.48
1067	-1.021	-0.148	-0.15	-14.21	-12.95	-18.2
1085	-1.015	-0.165	-0.133	-12.67	-11.27	-17.92
1108	-1.017	-0.173	-0.097	-10.29	-10.71	-16.94
1132	-1.01	-0.172	-0.072	-8.96	-14.56	-16.66
1152	-0.995	-0.167	-0.064	-8.19	-20.79	-16.73
1169	-0.996	-0.161	-0.072	-6.44	-22.96	-16.66
1193	-1.003	-0.159	-0.075	-4.13	-24.08	-14.98
1213	-1.017	-0.175	-0.074	-1.75	-25.06	-13.79
1233	-1.03	-0.179	-0.064	0.49	-26.25	-13.3
1253	-1.027	-0.182	-0.053	2.94	-28.91	-12.88
1276	-1.001	-0.188	-0.042	5.04	-31.22	-12.88
1297	-0.991	-0.194	-0.034	6.72	-32.62	-12.88
1317	-0.972	-0.202	-0.015	8.05	-32.69	-13.16
1337	-0.973	-0.19	0.01	9.38	-32.55	-13.23
1354	-0.987	-0.186	0.026	11.34	-32.69	-12.67
1373	-0.98	-0.198	0.02	13.79	-33.18	-11.62
1398	-0.96	-0.203	0.013	14.49	-31.01	-10.43
1418	-0.957	-0.214	0.021	15.61	-26.88	-10.08
1441	-0.962	-0.213	0.045	16.38	-21.91	-9.8
1462	-0.978	-0.208	0.068	17.29	-18.9	-10.01
1485	-0.981	-0.21	0.078	19.32	-18.06	-7.91
1505	-0.961	-0.218	0.067	18.76	-16.24	-7.49
1528	-0.952	-0.211	0.048	17.29	-12.67	-6.44
1552	-0.948	-0.2	0.041	16.1	-7.77	-5.11
1572	-0.949	-0.199	0.047	14.0	-2.73	-3.92
1594	-0.951	-0.201	0.065	12.95	1.19	-2.66
1618	-0.955	-0.201	0.066	12.95	4.97	-1.47
1637	-0.957	-0.193	0.069	11.06	8.68	0.07
1657	-0.983	-0.193	0.075	6.79	12.25	1.61
1678	-0.976	-0.192	0.065	2.03	15.96	4.13
1698	-0.974	-0.176	0.058	-1.82	20.44	7.0
1718	-0.953	-0.168	0.04	-0.84	22.82	11.83
1742	-0.922	-0.174	0.004	1.89	28.42	19.95
1762	-0.918	-0.176	0.0	2.17	35.84	26.88
1778	-0.906	-0.176	-0.011	3.08	41.86	33.46
1801	-0.904	-0.19	-0.036	4.13	47.81	40.88
1823	-0.9	-0.172	-0.047	4.97	56.21	46.76
1840	-0.903	-0.129	-0.065	5.18	61.95	52.22
1864	-0.893	-0.108	-0.114	7.07	70.49	57.96
1883	-0.879	-0.075	-0.132	8.89	78.89	61.95
1907	-0.866	-0.044	-0.164	10.43	88.27	68.81
1926	-0.843	-0.042	-0.215	10.08	97.79	72.45
1947	-0.826	0.013	-0.264	6.86	110.11	78.68
1967	-0.824	0.058	-0.27	-0.63	126.42	81.69
1984	-0.819	0.091	-0.278	-3.64	134.96	83.79
2004	-0.795	0.107	-0.29	-6.16	143.57	83.65
2028	-0.75	0.114	-0.298	-7.07	144.62	80.22
2048	-0.745	0.125	-0.339	-4.48	142.45	76.16
2068	-0.713	0.136	-0.447	-0.7	145.04	77.98
2087	-0.637	0.115	-0.525	1.89	156.17	70.63
2108	-0.616	0.134	-0.535	-1.89	157.64	65.66
2128	-0.614	0.219	-0.6	-10.57	155.54	59.78
2148	-0.644	0.267	-0.674	-19.88	164.99	53.97
2169	-0.641	0.358	-0.679	-32.69	179.06	50.68
2188	-0.668	0.362	-0.641	-36.33	160.51	48.51
2208	-0.559	0.304	-0.74	-32.34	146.23	37.66
2232	-0.507	0.365	-0.887	-30.52	142.24	23.73
2250	-0.46	0.365	-0.88	-28.63	147.7	20.51
2274	-0.365	0.263	-0.782	-25.97	148.26	15.89
2294	-0.301	0.342	-0.665	-23.66	120.19	13.23
2314	-0.216	0.278	-0.89	-17.85	111.86	14.14
2334	-0.345	0.642	-1.12	-20.37	123.27	19.39
2358	-0.486	0.602	-0.925	-26.18	115.99	27.65
2378	-0.346	0.509	-0.88	-25.83	89.81	28.98
2402	-0.246	0.462	-1.02	-25.27	78.96	29.19
2422	-0.139	0.421	-1.064	-25.55	88.13	25.55
2440	-0.051	0.328	-1.009	-24.64	89.25	17.5
2462	-0.026	0.374	-0.997	-18.62	87.43	16.73
2479	-0.153	0.43	-1.01	-19.18	86.94	8.89
2504	-0.175	0.468	-1.02	-10.85	97.79	16.66
2522	-0.087	0.481	-1.135	-11.9	107.87	22.89
2541	-0.025	0.499	-1.072	-10.85	103.25	27.37
2566	-0.058	0.597	-1.065	-12.81	79.52	19.46
2585	-0.025	0.636	-1.028	-15.75	64.96	12.74
2606	0.009	0.596	-1.093	-12.53	40.32	7.56
2626	0.053	0.563	-1.144	2.1	11.83	0.0
2646	0.081	0.556	-1.09	15.4	-17.15	-5.18
2666	0.069	0.564	-1.069	18.13	-36.68	-4.41
2686	0.045	0.521	-1.098	25.2	-54.95	2.8
2707	0.012	0.487	-1.106	36.4	-75.04	-2.17
2725	0.007	0.469	-1.088	42.21	-83.44	-12.32
2749	-0.007	0.415	-1.016	46.48	-92.82	-26.46
2769	-0.053	0.376	-1.026	49.42	-100.8	-36.82
2790	-0.091	0.366	-1.078	56.7	-108.78	-38.85
2810	-0.088	0.381	-1.142	59.36	-112.84	-32.83
2828	-0.11	0.341	-1.087	64.26	-111.02	-34.86
2852	-0.158	0.332	-1.004	65.45	-114.87	-39.13
2872	-0.224	0.322	-0.968	65.66	-121.94	-40.46
2890	-0.259	0.251	-0.987	66.71	-128.1	-44.94
2911	-0.305	0.172	-0.968	67.76	-134.68	-45.5
2930	-0.339	0.234	-0.952	65.73	-135.73	-47.32
2955	-0.373	0.339	-0.937	59.29	-134.26	-44.03
2970	-0.43	0.249	-0.957	55.02	-135.59	-40.67
2996	-0.463	0.178	-0.939	47.67	-140.77	-43.4
3013	-0.461	0.178	-0.839	44.94	-141.47	-49.77
3037	-0.514	0.135	-0.757	42.7	-144.27	-54.67
3057	-0.591	0.075	-0.771	38.85	-146.44	-58.1
3077	-0.618	0.092	-0.761	38.85	-144.06	-59.78
3099	-0.616	0.091	-0.713	41.09	-139.93	-57.82
3119	-0.657	0.0	-0.644	36.68	-133.7	-65.59
3143	-0.668	0.009	-0.612	30.8	-128.31	-53.41
3163	-0.703	-0.003	-0.58	25.9	-127.26	-57.61
3182	-0.709	0.044	-0.541	25.48	-125.51	-51.31
3204	-0.688	0.001	-0.472	22.82	-122.64	-49.14
3220	-0.735	-0.039	-0.464	20.09	-113.68	-52.5
3240	-0.747	-0.043	-0.425	12.88	-110.95	-44.03
3260	-0.766	-0.048	-0.413	11.97	-102.48	-43.47
3280	-0.763	-0.068	-0.388	10.99	-95.13	-38.15
3304	-0.764	-0.111	-0.355	12.25	-88.06	-34.58
3324	-0.758	-0.15	-0.307	13.02	-78.47	-31.5
3341	-0.77	-0.151	-0.282	11.9	-73.36	-28.14
3365	-0.784	-0.153	-0.249	9.66	-64.12	-22.82
3384	-0.788	-0.179	-0.235	5.46	-55.58	-19.6
3402	-0.809	-0.165	-0.225	2.45	-46.76	-15.68
3425	-0.807	-0.152	-0.218	-1.26	-38.22	-8.89
3445	-0.803	-0.163	-0.218	-7.63	-28.21	-6.23
3465	-0.827	-0.183	-0.198	-12.46	-19.81	-4.13
3483	-0.849	-0.193	-0.18	-14.14	-11.34	-1.96
3505	-0.851	-0.199	-0.179	-18.48	-2.38	2.17
3525	-0.857	-0.178	-0.189	-23.52	5.32	7.7
3549	-0.842	-0.195	-0.186	-32.2	12.39	12.18
3568	-0.86	-0.176	-0.202	-40.46	23.1	15.68
3589	-0.877	-0.173	-0.197	-44.59	30.8	20.09
3609	-0.881	-0.175	-0.198	-48.37	37.8	24.85
3628	-0.869	-0.145	-0.21	-49.7	43.89	29.47
3649	-0.883	-0.113	-0.251	-49.7	47.53	37.03
3669	-0.86	-0.086	-0.286	-50.26	52.43	43.89
3689	-0.846	-0.076	-0.336	-51.94	60.97	48.3
3709	-0.81	-0.069	-0.366	-52.22	68.6	52.01
3729	-0.791	-0.058	-0.364	-54.67	77.35	56.28
3749	-0.761	-0.039	-0.366	-58.1	85.61	58.73
3768	-0.746	-0.044	-0.376	-58.52	87.92	59.78
3789	-0.734	-0.039	-0.449	-53.62	87.08	59.71
3808	-0.711	0.017	-0.535	-53.55	96.46	61.95
3827	-0.728	0.08	-0.508	-55.37	111.65	65.94
3850	-0.728	0.083	-0.42	-54.81	111.86	67.83
3871	-0.721	0.084	-0.527	-48.16	99.54	67.13
3890	-0.682	0.107	-0.626	-46.27	102.2	67.13
3911	-0.66	0.141	-0.558	-49.63	126.0	64.61
3930	-0.604	0.141	-0.467	-42.98	128.1	63.7
3953	-0.519	0.143	-0.635	-34.86	116.76	59.64
3973	-0.457	0.19	-0.816	-38.64	123.55	53.41
3996	-0.455	0.291	-0.861	-41.72	143.08	48.93
4015	-0.467	0.315	-0.675	-37.45	144.62	49.21
4039	-0.436	0.272	-0.649	-28.84	126.91	47.18
4060	-0.36	0.291	-0.918	-25.48	124.95	42.7
4077	-0.342	0.406	-0.987	-25.06	131.53	40.6
4101	-0.385	0.477	-0.869	-20.16	127.54	38.08
4121	-0.356	0.504	-0.882	-16.59	116.27	34.79
4140	-0.283	0.454	-1.019	-15.82	111.86	31.15
4159	-0.242	0.463	-1.026	-18.2	113.19	26.25
4183	-0.226	0.526	-1.0	-19.25	104.86	22.19
4207	-0.188	0.55	-1.012	-16.24	94.01	20.44
4227	-0.157	0.52	-1.01	-12.95	86.52	17.57
4249	-0.078	0.499	-1.033	-10.15	82.25	16.31
4270	-0.046	0.583	-1.077	-9.8	82.04	13.44
4291	-0.107	0.562	-1.026	-13.79	76.16	15.89
4315	-0.103	0.602	-0.998	-18.48	66.5	21.14
4331	-0.078	0.61	-1.026	-18.62	63.0	33.81
4354	-0.029	0.575	-1.049	-11.55	48.3	36.12
4371	-0.02	0.546	-1.032	-8.19	37.38	32.41
4390	-0.002	0.562	-1.046	1.4	20.23	25.69
4414	0.018	0.555	-1.042	9.8	2.87	19.18
4435	0.02	0.54	-1.022	16.66	-13.44	15.05
4451	0.025	0.539	-1.029	22.47	-25.83	10.99
4475	-0.001	0.528	-1.027	28.84	-39.27	3.85
4496	0.003	0.489	-1.052	33.6	-46.06	1.68
4512	0.022	0.46	-1.08	35.35	-50.33	-0.7
4536	-0.026	0.485	-1.036	40.67	-57.68	-7.56
4554	-0.045	0.484	-1.042	42.14	-64.82	-11.62
4578	-0.057	0.436	-1.059	44.59	-70.63	-10.22
4602	-0.088	0.414	-1.053	46.48	-77.91	-10.99
4622	-0.118	0.372	-1.034	51.45	-86.45	-14.98
4641	-0.096	0.339	-1.052	56.28	-87.85	-16.59
4659	-0.094	0.34	-1.028	60.34	-87.36	-17.43
4678	-0.148	0.356	-0.993	62.3	-93.52	-18.06
4702	-0.179	0.339	-0.963	61.53	-104.09	-18.34
4723	-0.216	0.261	-0.949	61.25	-110.04	-21.98
4743	-0.274	0.277	-0.949	60.13	-112.84	-25.34
4761	-0.324	0.292	-0.924	55.02	-116.83	-28.28
4782	-0.33	0.255	-0.92	47.04	-121.66	-31.64
4803	-0.314	0.164	-0.938	42.28	-124.46	-36.68
4824	-0.341	0.137	-0.904	40.18	-119.35	-38.57
4843	-0.396	0.108	-0.808	38.5	-117.6	-41.09
4863	-0.483	0.108	-0.82	35.21	-121.38	-40.32
4882	-0.474	0.068	-0.878	34.58	-121.38	-41.09
4903	-0.464	0.102	-0.844	39.55	-119.56	-46.2
4923	-0.519	0.057	-0.724	42.77	-113.26	-46.34
4940	-0.591	0.054	-0.679	41.44	-112.7	-46.48
4959	-0.622	0.019	-0.695	39.48	-114.87	-44.87
4979	-0.639	0.009	-0.658	40.25	-114.1	-45.43
5001	-0.686	-0.01	-0.646	43.61	-112.28	-46.34
5020	-0.71	-0.016	-0.644	44.03	-109.41	-46.83
5045	-0.713	-0.018	-0.615	40.11	-107.1	-44.73
5064	-0.691	-0.02	-0.538	33.25	-105.0	-44.1
5084	-0.771	-0.0	-0.492	30.87	-109.34	-40.32
5105	-0.783	-0.075	-0.474	34.65	-106.54	-39.13
5125	-0.703	-0.064	-0.485	38.99	-98.49	-38.36
5149	-0.726	-0.103	-0.473	44.17	-86.73	-31.01
5167	-0.767	-0.13	-0.421	41.58	-84.63	-26.53
5190	-0.745	-0.117	-0.396	35.0	-80.71	-21.07
5208	-0.734	-0.088	-0.356	27.09	-70.21	-17.78
5228	-0.769	-0.078	-0.32	21.91	-58.24	-13.58
5252	-0.799	-0.101	-0.268	17.43	-44.38	-7.14
5272	-0.864	-0.14	-0.233	12.39	-35.91	-4.97
5290	-0.886	-0.165	-0.244	8.47	-33.18	-3.15
5311	-0.869	-0.191	-0.257	0.63	-26.88	-2.17
5332	-0.867	-0.184	-0.243	-6.23	-18.06	-1.26
5352	-0.867	-0.174	-0.215	-12.04	-11.13	1.12
5367	-0.858	-0.158	-0.203	-14.21	-6.09	3.15
5387	-0.832	-0.149	-0.212	-17.36	-0.91	7.0
5407	-0.782	-0.142	-0.248	-21.07	5.53	11.97
5431	-0.77	-0.131	-0.285	-28.98	19.04	16.31
5451	-0.78	-0.133	-0.289	-37.03	29.75	21.35
5475	-0.784	-0.143	-0.298	-42.28	40.53	26.6
5495	-0.793	-0.115	-0.321	-46.76	50.68	31.01
5515	-0.787	-0.087	-0.35	-53.48	60.27	35.91
5539	-0.764	-0.093	-0.364	-57.61	70.0	42.7
5559	-0.744	-0.066	-0.392	-59.29	81.27	46.76
5578	-0.723	-0.082	-0.437	-60.62	90.44	53.48
5596	-0.684	-0.045	-0.474	-65.45	100.31	53.06
5619	-0.69	-0.02	-0.504	-69.16	112.35	57.12
5639	-0.683	0.002	-0.512	-68.95	120.4	62.23
5658	-0.639	-0.01	-0.545	-68.04	133.35	63.21
5675	-0.634	-0.001	-0.535	-67.62	142.38	63.77
5699	-0.606	0.002	-0.492	-63.35	145.04	61.04
5717	-0.556	0.046	-0.522	-56.14	138.46	59.29
5735	-0.514	0.137	-0.654	-56.42	133.91	60.13
5754	-0.461	0.208	-0.732	-65.17	141.82	58.38
5780	-0.416	0.176	-0.668	-63.07	152.74	51.45
5799	-0.431	0.154	-0.676	-51.31	149.59	48.72
5820	-0.394	0.211	-0.774	-42.56	149.52	43.68
5839	-0.352	0.28	-0.906	-44.38	156.87	36.12
5858	-0.341	0.273	-0.936	-44.52	158.27	38.5
5876	-0.299	0.288	-0.9	-37.1	147.91	35.63
5895	-0.26	0.38	-1.023	-27.86	147.28	35.84
5916	-0.292	0.511	-1.102	-32.9	150.99	39.62
5936	-0.343	0.514	-1.04	-35.91	146.23	44.38
5959	-0.298	0.438	-1.053	-27.23	131.53	48.93
5979	-0.154	0.363	-1.155	-26.18	131.74	52.15
5998	-0.138	0.483	-1.22	-30.24	133.0	51.45
6023	-0.079	0.521	-1.106	-26.11	120.68	52.08
6039	-0.052	0.51	-1.064	-20.37	109.9	45.99
6058	0.057	0.488	-1.014	-21.07	104.09	43.33
6081	0.128	0.522	-1.061	-24.57	98.0	34.16
6100	0.161	0.552	-1.109	-20.3	79.17	29.19
6120	0.133	0.589	-1.037	-20.16	67.27	29.61
6144	0.167	0.604	-1.031	-20.65	48.72	26.25
6163	0.216	0.556	-1.017	-16.94	30.66	19.39
6184	0.215	0.527	-1.054	0.49	-3.15	9.03
6203	0.226	0.516	-1.018	9.38	-28.07	4.69
6223	0.24	0.509	-1.017	17.15	-49.35	3.92
6242	0.222	0.489	-1.016	24.92	-64.33	2.73
6267	0.207	0.447	-0.999	38.5	-74.83	1.47
6286	0.202	0.443	-0.999	40.74	-77.28	-1.68
6307	0.183	0.413	-1.036	43.26	-87.15	-11.69
6322	0.152	0.393	-1.053	49.21	-93.31	-18.76
6343	0.131	0.385	-1.099	56.84	-101.64	-27.3
6362	0.082	0.394	-1.071	58.52	-105.0	-31.57
6384	0.074	0.427	-1.004	60.69	-97.51	-32.48
6407	-0.032	0.356	-0.975	54.6	-101.22	-26.88
6425	-0.018	0.284	-1.014	56.63	-109.34	-29.26
6449	-0.056	0.278	-1.032	60.27	-108.85	-30.45
6467	-0.102	0.307	-1.006	62.23	-110.32	-31.01
6489	-0.17	0.326	-1.058	65.94	-112.77	-31.71
6505	-0.203	0.304	-1.045	67.76	-113.82	-31.57
6525	-0.241	0.26	-0.97	63.77	-117.81	-30.87
6549	-0.32	0.274	-0.987	55.86	-120.54	-32.76
6568	-0.356	0.28	-1.057	50.61	-113.89	-32.69
6592	-0.366	0.293	-1.046	35.28	-98.14	-28.7
6612	-0.384	0.182	-0.943	17.92	-101.01	-30.59
6631	-0.433	0.0	-0.801	11.06	-116.69	-33.67
6647	-0.457	0.079	-0.75	12.74	-133.28	-36.89
6672	-0.482	0.048	-0.742	26.04	-145.25	-40.18
6692	-0.527	0.108	-0.74	30.73	-148.4	-41.02
6712	-0.554	0.075	-0.763	30.52	-146.65	-40.95
6730	-0.587	0.04	-0.741	31.92	-146.09	-39.76
6754	-0.615	0.017	-0.678	34.09	-147.7	-37.31
6771	-0.643	0.025	-0.62	33.53	-144.27	-38.57
6795	-0.7	0.04	-0.54	35.42	-140.7	-41.02
6815	-0.731	0.002	-0.522	37.31	-142.24	-40.18
6834	-0.719	-0.024	-0.496	37.38	-142.94	-40.6
6853	-0.687	-0.014	-0.471	37.73	-141.26	-41.79
6877	-0.669	0.047	-0.404	42.28	-138.88	-42.35
6893	-0.626	-0.04	-0.446	38.64	-129.15	-40.6
6917	-0.619	-0.058	-0.407	31.5	-106.68	-36.54
6937	-0.7	-0.113	-0.32	27.93	-89.81	-34.44
6953	-0.729	-0.151	-0.272	28.84	-82.74	-31.57
6972	-0.786	-0.17	-0.229	31.36	-75.25	-27.93
6997	-0.824	-0.172	-0.221	29.19	-61.81	-19.67
7014	-0.883	-0.153	-0.263	23.8	-48.51	-14.0
7037	-0.885	-0.153	-0.265	14.07	-32.34	-6.09
7057	-0.863	-0.147	-0.241	5.46	-24.15	-0.21
7078	-0.834	-0.164	-0.207	0.56	-14.21	4.9
7102	-0.809	-0.175	-0.181	-3.99	-4.69	6.58
7122	-0.813	-0.163	-0.155	-6.44	7.84	9.03
7143	-0.833	-0.157	-0.182	-11.06	19.04	12.04
7162	-0.833	-0.167	-0.253	-16.66	28.91	16.38
7182	-0.848	-0.168	-0.246	-21.7	42.0	19.74
7206	-0.888	-0.15	-0.229	-27.79	52.15	24.5
7226	-0.886	-0.118	-0.222	-31.92	54.18	29.96
7242	-0.865	-0.098	-0.241	-34.37	58.45	31.92
7266	-0.849	-0.094	-0.296	-45.36	64.68	35.77
7285	-0.819	-0.087	-0.334	-51.31	72.24	36.05
7304	-0.789	-0.087	-0.34	-55.86	81.41	37.87
7328	-0.785	-0.08	-0.356	-56.49	90.16	38.85
7348	-0.781	-0.071	-0.397	-54.95	93.52	41.37
7372	-0.762	-0.052	-0.456	-55.93	103.6	45.57
7390	-0.753	-0.053	-0.473	-57.68	109.27	46.69
7414	-0.723	-0.012	-0.466	-58.24	119.42	46.9
7433	-0.716	0.033	-0.487	-59.08	116.97	46.55
7457	-0.671	0.049	-0.573	-56.21	114.52	45.36
7477	-0.649	0.045	-0.621	-53.2	134.54	48.37
7496	-0.621	0.045	-0.589	-45.99	139.37	49.28
7520	-0.551	0.107	-0.603	-49.49	139.72	46.83
7544	-0.523	0.134	-0.73	-51.03	132.09	38.29
7565	-0.526	0.208	-0.743	-47.32	134.96	35.14
7584	-0.491	0.228	-0.734	-38.15	142.1	34.51
7601	-0.407	0.204	-0.821	-34.51	142.31	30.8
7625	-0.366	0.256	-0.904	-39.06	139.86	26.25
7640	-0.38	0.309	-0.914	-36.75	141.96	27.23
7663	-0.344	0.224	-0.815	-31.08	140.98	27.79
7686	-0.291	0.247	-0.92	-29.96	138.11	27.51
7706	-0.325	0.418	-1.019	-30.24	138.88	27.3
7730	-0.333	0.496	-1.047	-24.92	135.87	34.58
7750	-0.237	0.452	-1.012	-28.14	128.87	41.58
7770	-0.185	0.36	-0.973	-29.61	122.57	38.85
7789	-0.116	0.442	-1.035	-27.72	125.58	33.88
7806	-0.057	0.444	-1.036	-28.42	121.1	32.76
7826	0.034	0.48	-1.017	-30.24	126.84	26.67
7846	0.12	0.476	-1.082	-35.07	129.01	19.18
7870	0.159	0.463	-1.082	-27.79	151.55	13.58
7886	0.157	0.451	-1.086	-33.81	135.45	7.0
7910	0.084	0.474	-1.082	-28.63	99.96	17.64
7930	0.195	0.545	-1.113	-18.69	74.13	25.83
7950	0.247	0.6	-1.067	-12.32	54.6	24.78
7974	0.23	0.608	-0.983	-4.06	20.16	20.16
7993	0.226	0.578	-0.984	0.56	-1.89	17.5
8012	0.233	0.529	-0.987	7.84	-24.57	12.25
8036	0.24	0.481	-1.021	22.75	-54.95	7.56
8054	0.229	0.463	-1.029	38.5	-74.83	5.11
8073	0.21	0.446	-1.02	48.51	-91.07	1.68
8093	0.187	0.423	-1.034	59.29	-100.03	-5.11
8117	0.187	0.43	-1.048	61.04	-103.88	-11.62
8133	0.116	0.412	-1.052	55.93	-108.08	-14.56
8153	0.085	0.39	-1.048	54.88	-111.86	-17.08
8177	0.044	0.318	-1.086	57.26	-117.11	-23.31
8198	0.015	0.298	-1.028	55.72	-113.96	-30.03
8215	-0.018	0.307	-1.015	55.86	-115.71	-29.47
8239	-0.052	0.283	-1.064	54.88	-117.32	-30.45
8259	-0.081	0.287	-1.075	51.66	-115.22	-33.32
8278	-0.156	0.266	-1.039	49.91	-118.86	-30.17
8297	-0.193	0.202	-1.017	49.98	-130.83	-36.05
8317	-0.251	0.273	-1.011	49.28	-134.75	-30.52
8337	-0.285	0.228	-1.007	48.51	-136.99	-27.79
8360	-0.329	0.197	-0.988	49.0	-138.95	-26.74
8383	-0.365	0.154	-0.963	50.26	-142.8	-28.21
8404	-0.39	0.131	-0.895	52.78	-145.39	-30.24
8424	-0.43	0.123	-0.841	53.62	-149.24	-32.2
8444	-0.434	0.107	-0.781	54.32	-153.86	-32.83
8464	-0.439	0.11	-0.708	54.25	-155.4	-30.73
8482	-0.491	0.094	-0.665	50.68	-155.05	-29.82
8503	-0.509	0.061	-0.7	40.81	-145.11	-32.48
8527	-0.573	0.06	-0.706	32.9	-132.44	-35.84
8546	-0.651	0.079	-0.672	33.53	-125.37	-32.13
8564	-0.66	0.06	-0.596	35.14	-118.58	-29.05
8583	-0.711	0.02	-0.546	32.13	-115.43	-29.26
8603	-0.773	-0.004	-0.496	28.28	-115.08	-30.31
8627	-0.81	-0.053	-0.496	23.1	-114.24	-26.04
8646	-0.782	-0.093	-0.527	19.74	-114.17	-27.51
8663	-0.781	-0.1	-0.496	20.51	-108.64	-28.49
8682	-0.69	-0.097	-0.493	17.78	-102.76	-26.11
8706	-0.651	-0.11	-0.452	16.24	-93.1	-25.2
8727	-0.65	-0.119	-0.351	16.45	-78.61	-24.29
8745	-0.739	-0.144	-0.301	19.88	-70.63	-21.35
8765	-0.816	-0.171	-0.26	23.38	-62.37	-16.66
8790	-0.883	-0.186	-0.264	25.9	-53.34	-10.92
8809	-1.024	-0.218	-0.274	23.87	-51.8	-5.74
8829	-0.957	-0.161	-0.264	17.92	-47.95	-3.78
8845	-0.921	-0.133	-0.269	16.66	-42.98	-3.99
8869	-0.866	-0.135	-0.264	13.65	-32.76	-2.03
8886	-0.838	-0.118	-0.229	8.4	-26.67	0.07
8905	-0.821	-0.14	-0.185	3.22	-21.07	1.96
8925	-0.858	-0.182	-0.173	-0.77	-16.66	0.28
8950	-0.877	-0.174	-0.203	-1.96	-6.65	0.49
8968	-0.88	-0.152	-0.176	-3.36	2.1	1.4
8991	-0.918	-0.151	-0.132	-7.28	7.07	3.29
9010	-0.931	-0.143	-0.145	-10.5	10.5	5.74
9033	-0.93	-0.16	-0.163	-13.44	15.54	8.75
9055	-0.906	-0.154	-0.164	-13.58	22.61	10.15
9075	-0.896	-0.137	-0.191	-16.24	27.3	12.53
9095	-0.881	-0.144	-0.236	-18.83	33.18	14.07
9118	-0.843	-0.123	-0.266	-24.08	40.6	15.26
9136	-0.838	-0.112	-0.262	-27.58	48.44	16.66
9155	-0.855	-0.098	-0.261	-31.99	54.6	16.94
9175	-0.85	-0.103	-0.282	-38.64	61.88	23.38
9200	-0.825	-0.101	-0.336	-43.26	65.94	27.37
9220	-0.795	-0.066	-0.398	-51.38	75.67	31.08
9241	-0.808	-0.061	-0.395	-57.26	82.32	34.93
9259	-0.797	-0.053	-0.398	-59.5	92.33	37.8
9280	-0.782	-0.028	-0.416	-56.28	100.31	41.93
9297	-0.744	-0.02	-0.421	-54.95	104.3	46.62
9317	-0.701	-0.014	-0.427	-58.45	108.36	49.42
9341	-0.698	-0.05	-0.46	-62.58	117.53	45.78
9361	-0.695	-0.055	-0.509	-57.4	122.15	46.06
9381	-0.613	0.007	-0.556	-47.6	130.55	50.54
9400	-0.536	0.052	-0.579	-44.8	140.14	50.33
9424	-0.565	0.078	-0.641	-46.83	144.2	45.01
9444	-0.585	0.125	-0.655	-47.11	149.31	45.5
9464	-0.493	0.174	-0.677	-42.56	155.12	45.78
9480	-0.449	0.144	-0.71	-41.09	156.24	41.86
9500	-0.412	0.168	-0.806	-43.12	153.44	35.28
9524	-0.435	0.257	-0.839	-40.67	151.2	30.52
9544	-0.418	0.301	-0.85	-35.14	150.01	28.35
9564	-0.358	0.257	-0.915	-29.47	147.98	24.29
9583	-0.287	0.289	-1.028	-30.38	150.92	21.56
9600	-0.278	0.407	-1.044	-33.11	154.21	21.21
9619	-0.315	0.414	-0.937	-33.46	146.3	21.91
9641	-0.234	0.511	-1.104	-46.55	146.93	33.53
9660	-0.182	0.385	-1.075	-38.01	132.16	29.82
9679	-0.12	0.412	-1.051	-34.3	118.23	22.47
9699	-0.119	0.448	-0.986	-36.33	111.23	14.63
9724	0.084	0.578	-1.081	-67.06	143.92	13.58
9748	0.077	0.53	-1.045	-67.55	145.81	13.23
9765	0.087	0.479	-0.95	-73.43	143.43	6.23
9786	0.139	0.457	-0.964	-67.06	126.42	-5.46
9806	0.202	0.503	-0.951	-63.42	108.29	-7.07
9830	0.226	0.546	-0.962	-64.68	98.0	5.53
9846	0.316	0.602	-0.955	-55.65	71.12	12.46
9871	0.347	0.635	-0.978	-51.94	59.43	13.58
9888	0.306	0.65	-0.894	-54.88	50.82	9.8
9910	0.314	0.6	-0.895	-42.14	46.97	2.94
9930	0.34	0.587	-0.916	-28.56	37.24	2.59
9949	0.353	0.59	-0.928	-2.52	15.68	-1.19
9973	0.32	0.62	-0.874	22.54	-10.99	-4.34
9997	0.319	0.626	-0.866	38.22	-37.03	-0.77
10017	0.305	0.591	-0.895	48.09	-55.37	2.1
10037	0.287	0.579	-0.904	59.92	-75.88	3.92
10057	0.259	0.501	-0.92	90.3	-96.32	8.82
10076	0.244	0.565	-0.924	92.12	-108.92	11.34
10100	0.214	0.524	-0.95	88.97	-112.84	6.16
10123	0.167	0.496	-1.003	91.56	-125.65	-4.69
10144	0.163	0.455	-0.979	87.29	-114.94	-34.79
10169	0.07	0.388	-1.009	68.11	-102.13	-25.41
10188	0.076	0.432	-0.996	71.19	-103.6	-28.14
10208	0.01	0.37	-1.02	67.2	-102.76	-24.57
10229	-0.03	0.349	-1.005	66.71	-104.37	-16.45
10248	-0.087	0.329	-0.984	65.73	-105.77	-12.53
10267	-0.105	0.309	-1.012	57.19	-103.74	-12.53
10288	-0.176	0.292	-0.987	58.31	-108.57	-13.79
10307	-0.129	0.322	-1.037	44.17	-103.95	-17.22
10327	-0.201	0.181	-0.995	43.89	-106.47	-18.83
10351	-0.228	0.213	-0.915	45.85	-118.23	-22.4
10371	-0.273	0.221	-0.9	44.8	-123.9	-24.57
10395	-0.3	0.221	-0.92	40.53	-125.65	-26.32
10415	-0.325	0.193	-0.916	35.63	-125.86	-26.74
10434	-0.345	0.14	-0.874	33.6	-126.28	-28.35
10455	-0.364	0.11	-0.802	36.89	-129.15	-30.59
10470	-0.417	0.115	-0.762	38.92	-125.51	-30.31
10495	-0.454	0.1	-0.772	36.68	-123.97	-30.38
10515	-0.491	0.086	-0.776	32.13	-122.43	-30.1
10533	-0.523	0.073	-0.752	28.21	-122.01	-30.31
10556	-0.556	0.022	-0.741	30.31	-117.53	-31.71
10572	-0.583	0.007	-0.722	33.74	-112.7	-32.48
10596	-0.619	0.012	-0.661	36.96	-105.77	-32.9
10615	-0.656	0.028	-0.615	38.08	-105.07	-31.71
10638	-0.673	0.021	-0.601	36.26	-104.93	-30.94
10657	-0.696	0.017	-0.589	33.95	-101.78	-29.89
10677	-0.711	0.042	-0.582	32.34	-97.58	-27.02
10700	-0.698	0.012	-0.59	29.82	-90.86	-23.45
10721	-0.667	-0.053	-0.543	26.25	-79.17	-23.24
10741	-0.699	-0.042	-0.487	25.48	-71.82	-22.26
10761	-0.731	-0.062	-0.445	26.32	-66.85	-18.06
10785	-0.751	-0.126	-0.416	24.99	-62.09	-15.33
10805	-0.77	-0.173	-0.394	22.61	-56.98	-14.91
10825	-0.808	-0.209	-0.367	25.06	-51.38	-14.84
10842	-0.845	-0.192	-0.366	27.16	-47.32	-13.51
10867	-0.862	-0.164	-0.387	27.79	-41.3	-8.82
10884	-0.844	-0.158	-0.401	24.78	-33.95	-7.35
10906	-0.819	-0.154	-0.362	26.46	-23.17	-5.6
10927	-0.834	-0.142	-0.304	28.84	-16.52	-2.94
10942	-0.837	-0.179	-0.31	28.07	-13.58	-0.35
10966	-0.817	-0.173	-0.32	21.91	-8.47	3.71
10984	-0.821	-0.161	-0.332	15.68	-0.84	4.48
11008	-0.845	-0.16	-0.318	11.83	9.31	5.25
11032	-0.855	-0.158	-0.307	10.78	16.1	6.02
11052	-0.865	-0.155	-0.311	7.35	22.33	7.56
11072	-0.873	-0.16	-0.332	0.14	27.79	8.68
11095	-0.85	-0.164	-0.336	-8.68	34.93	8.89
11119	-0.834	-0.158	-0.316	-14.98	42.63	10.15
11139	-0.844	-0.17	-0.321	-17.5	49.42	10.78
11160	-0.813	-0.141	-0.372	-19.67	55.09	12.74
11179	-0.778	-0.086	-0.385	-26.95	64.05	16.17
11200	-0.767	-0.085	-0.393	-32.83	71.4	20.44
11220	-0.738	-0.102	-0.407	-36.19	77.28	23.31
11239	-0.728	-0.09	-0.421	-40.25	87.36	25.2
11259	-0.693	-0.032	-0.471	-49.7	92.54	26.74
11278	-0.661	-0.006	-0.534	-60.2	99.05	26.95
11302	-0.639	-0.005	-0.584	-68.18	108.71	27.37
11320	-0.618	-0.034	-0.597	-69.02	119.91	27.72
11342	-0.582	0.004	-0.586	-71.82	124.32	28.21
11361	-0.583	0.027	-0.599	-79.38	121.66	25.83
11379	-0.587	0.027	-0.669	-81.06	123.06	20.86
11399	-0.539	0.047	-0.742	-79.24	130.34	20.23
11423	-0.477	0.074	-0.71	-79.1	137.13	26.18
11443	-0.424	0.066	-0.716	-89.32	143.01	21.77
11467	-0.459	0.179	-0.747	-94.15	144.27	13.3
11486	-0.427	0.272	-0.709	-82.6	138.18	19.88
11510	-0.371	0.2	-0.813	-56.84	129.71	22.05
11528	-0.275	0.203	-0.955	-51.38	129.57	24.08
11547	-0.286	0.306	-1.037	-52.92	139.72	27.09
11571	-0.335	0.337	-0.952	-50.47	134.05	33.74
11592	-0.293	0.314	-0.938	-43.96	128.66	37.38
11611	-0.246	0.324	-1.046	-42.91	133.77	35.21
11629	-0.176	0.405	-1.01	-29.47	120.12	37.17
11649	-0.185	0.406	-1.053	-37.94	128.17	34.23
11669	-0.074	0.377	-1.062	-59.92	156.24	30.87
11693	0.029	0.458	-1.163	-83.44	176.33	32.69
11710	0.11	0.529	-1.08	-103.53	175.49	25.76
11729	0.136	0.549	-1.046	-93.66	175.49	10.57
11750	0.141	0.495	-1.109	-83.72	145.67	5.18
11770	0.187	0.557	-0.962	-57.19	110.95	6.16
11791	0.18	0.6	-0.837	-39.83	86.17	11.41
11811	0.216	0.659	-0.824	-35.21	65.03	14.21
11833	0.301	0.694	-0.886	-20.16	48.65	11.76
11851	0.366	0.668	-0.926	-7.28	30.59	9.17
11871	0.379	0.629	-0.903	-6.16	19.32	5.39
11891	0.391	0.595	-0.885	-3.99	11.13	0.98
11912	0.37	0.59	-0.876	5.81	1.33	-1.05
11932	0.376	0.58	-0.871	12.53	-11.83	1.19
11955	0.379	0.548	-0.868	20.37	-24.57	1.26
11975	0.373	0.537	-0.883	30.24	-36.05	-0.14
11996	0.359	0.534	-0.893	44.73	-51.03	0.42
12018	0.379	0.589	-0.868	65.45	-72.59	2.17
12036	0.311	0.51	-0.93	78.4	-88.9	2.45
12058	0.282	0.497	-0.941	89.32	-108.64	0.7
12082	0.187	0.407	-0.975	99.61	-123.69	0.84
12102	0.23	0.457	-0.963	85.26	-118.09	-0.35
12117	0.233	0.464	-0.975	75.95	-92.68	-5.95
12142	0.184	0.459	-0.966	61.88	-82.6	-7.77
12161	0.121	0.395	-0.984	58.8	-85.96	-0.14
12180	0.063	0.345	-0.981	52.5	-85.68	1.75
12204	0.011	0.312	-0.953	52.78	-101.36	-2.59
12226	-0.011	0.3	-0.992	53.76	-105.14	-8.68
12245	-0.028	0.246	-1.048	54.18	-105.49	-12.88
12265	-0.049	0.246	-1.037	52.29	-107.24	-15.68
12288	-0.104	0.224	-1.033	51.1	-117.53	-14.91
12308	-0.142	0.217	-1.018	51.24	-121.03	-14.56
12327	-0.183	0.171	-0.972	52.78	-121.38	-17.64
12352	-0.24	0.146	-0.938	54.32	-124.46	-22.96
12372	-0.293	0.134	-0.968	52.01	-124.39	-28.0
12387	-0.339	0.146	-0.969	49.0	-124.04	-29.89
12411	-0.357	0.162	-0.933	44.73	-125.3	-27.58
12428	-0.407	0.105	-0.903	39.69	-125.09	-29.75
12448	-0.434	0.064	-0.874	36.05	-126.0	-31.99
12468	-0.465	0.061	-0.84	34.3	-126.07	-34.02
12490	-0.497	0.061	-0.823	31.85	-123.06	-35.63
12512	-0.541	0.035	-0.805	30.24	-119.35	-34.79
12536	-0.576	0.007	-0.768	29.75	-116.13	-35.28
12555	-0.61	-0.024	-0.723	30.52	-114.45	-34.93
12576	-0.647	-0.041	-0.681	33.25	-116.06	-34.65
12594	-0.681	-0.028	-0.661	35.98	-116.97	-33.18
12613	-0.681	-0.03	-0.639	36.12	-115.64	-29.82
12634	-0.699	-0.08	-0.607	31.99	-116.34	-29.12
12653	-0.676	-0.081	-0.578	31.71	-114.73	-32.69
12678	-0.699	-0.074	-0.555	32.83	-118.44	-27.16
12697	-0.741	-0.113	-0.54	36.19	-114.8	-25.34
12721	-0.756	-0.116	-0.507	36.82	-108.22	-19.88
12741	-0.789	-0.161	-0.468	33.88	-102.13	-19.46
12761	-0.804	-0.163	-0.437	32.62	-106.33	-15.4
12779	-0.795	-0.151	-0.383	30.45	-101.57	-12.11
12802	-0.817	-0.18	-0.345	33.95	-95.41	-9.8
12821	-0.849	-0.186	-0.321	35.7	-96.67	-5.46
12841	-0.825	-0.206	-0.285	36.82	-92.75	-3.43
12861	-0.809	-0.194	-0.27	34.65	-85.96	-2.87
12881	-0.803	-0.161	-0.238	32.62	-81.48	-2.8
12900	-0.79	-0.124	-0.184	31.64	-74.13	-1.75
12924	-0.803	-0.112	-0.153	33.25	-65.45	1.4
12944	-0.827	-0.126	-0.152	30.17	-55.23	3.64
12962	-0.857	-0.167	-0.169	25.06	-42.84	5.18
12984	-0.899	-0.191	-0.139	18.06	-32.83	5.74
13006	-0.93	-0.219	-0.081	15.47	-24.78	4.2
13025	-0.953	-0.203	-0.056	12.25	-21.35	3.85
13050	-0.959	-0.178	-0.085	7.0	-13.86	5.67
13065	-0.934	-0.152	-0.092	4.27	-7.56	7.56
13091	-0.901	-0.144	-0.084	1.68	4.2	12.88
13110	-0.869	-0.17	-0.074	0.42	12.39	14.84
13129	-0.859	-0.185	-0.08	-3.15	21.63	15.82
13149	-0.863	-0.175	-0.12	-6.51	32.76	16.03
13168	-0.881	-0.175	-0.134	-10.43	44.03	17.92
13193	-0.901	-0.162	-0.102	-14.77	51.17	19.32
13213	-0.896	-0.133	-0.108	-19.53	60.34	19.67
13232	-0.895	-0.107	-0.114	-20.93	64.89	22.33
13251	-0.908	-0.093	-0.135	-25.69	68.11	25.41
13272	-0.922	-0.107	-0.171	-27.09	71.33	27.58
13291	-0.919	-0.085	-0.201	-27.23	80.22	28.28
13316	-0.9	-0.079	-0.233	-26.25	83.72	30.1
13336	-0.865	-0.083	-0.234	-26.95	87.85	30.31
13355	-0.857	-0.072	-0.252	-28.42	92.26	28.56
13373	-0.831	-0.07	-0.31	-31.15	98.56	25.55
13397	-0.799	-0.067	-0.338	-33.32	104.16	24.29
13415	-0.767	-0.069	-0.402	-31.08	106.47	23.87
13435	-0.73	-0.03	-0.506	-30.45	112.84	24.71
13457	-0.712	0.006	-0.521	-31.29	120.19	26.53
13477	-0.726	0.027	-0.518	-32.83	124.74	26.04
13495	-0.737	0.054	-0.557	-34.09	127.4	26.67
13515	-0.725	0.064	-0.608	-35.0	126.42	27.16
13535	-0.676	0.077	-0.679	-33.53	121.73	28.56
13558	-0.646	0.097	-0.736	-33.74	122.15	29.47
13577	-0.606	0.074	-0.736	-37.52	133.98	23.87
13601	-0.587	0.1	-0.656	-41.58	135.03	21.91
13617	-0.536	0.103	-0.645	-45.36	129.08	18.06
13638	-0.494	0.139	-0.745	-48.72	126.98	16.73
13658	-0.458	0.204	-0.77	-51.52	131.25	17.85
13678	-0.402	0.208	-0.773	-49.21	132.86	20.65
13701	-0.353	0.178	-0.824	-44.87	132.86	22.12
13722	-0.286	0.208	-0.917	-44.94	137.34	18.76
13742	-0.301	0.266	-0.94	-44.45	144.2	17.36
13761	-0.297	0.278	-0.92	-42.49	145.11	17.85
13781	-0.229	0.266	-0.974	-39.13	140.77	17.92
13805	-0.187	0.273	-1.024	-40.88	139.02	15.4
13823	-0.185	0.342	-1.073	-41.86	135.66	14.42
13843	-0.148	0.379	-1.104	-39.55	130.9	15.61
13867	-0.097	0.356	-1.068	-36.33	125.58	15.19
13887	-0.02	0.366	-1.088	-43.47	133.56	15.26
13906	0.0	0.319	-1.064	-43.89	122.92	13.02
13926	0.061	0.378	-1.125	-47.53	134.33	9.17
13948	0.054	0.426	-1.081	-46.48	129.78	3.43
13967	0.147	0.405	-1.113	-46.34	116.97	8.82
13986	0.204	0.399	-1.054	-54.74	108.01	17.36
14002	0.277	0.406	-0.987	-53.13	101.64	18.69
14022	0.245	0.454	-1.013	-51.94	90.65	19.74
14044	0.256	0.529	-1.02	-39.34	68.25	22.54
14066	0.279	0.561	-0.999	-25.2	43.96	29.19
14088	0.298	0.549	-0.989	-5.25	9.66	38.85
14108	0.286	0.512	-0.988	11.62	-21.77	44.66
14127	0.299	0.494	-0.997	28.49	-48.86	42.0
14150	0.324	0.469	-1.034	55.09	-81.34	37.17
14172	0.321	0.42	-1.044	88.34	-109.76	25.2
14191	0.264	0.457	-1.032	82.88	-122.78	16.31
14210	0.241	0.399	-1.058	69.79	-132.16	6.16
14230	0.175	0.372	-1.054	36.89	-78.47	-13.44
14253	0.254	0.303	-1.071	36.47	-60.2	-60.48
14274	0.277	0.383	-1.001	36.82	-80.99	-22.75
14294	0.125	0.328	-1.03	40.95	-84.56	-22.4
14314	0.089	0.31	-1.023	40.18	-95.83	-21.84
14333	0.006	0.276	-1.059	37.17	-94.78	-22.61
14354	-0.02	0.244	-1.055	32.76	-98.77	-21.91
14377	-0.016	0.275	-0.975	41.37	-111.09	-20.72
14398	-0.083	0.241	-0.974	39.9	-115.15	-24.85
14416	-0.162	0.2	-0.996	40.39	-116.9	-25.83
14440	-0.117	0.247	-1.041	42.98	-115.08	-27.23
14462	-0.143	0.251	-1.012	48.51	-119.91	-25.13
14481	-0.164	0.246	-0.963	46.27	-125.3	-24.01
14500	-0.194	0.179	-0.928	39.76	-130.2	-24.36
14520	-0.25	0.167	-0.872	36.54	-135.52	-26.53
14541	-0.301	0.154	-0.805	36.75	-141.12	-26.95
14565	-0.343	0.135	-0.809	37.03	-138.88	-27.72
14584	-0.356	0.113	-0.864	36.4	-133.77	-29.47
14604	-0.4	0.081	-0.884	34.09	-127.47	-34.37
14624	-0.415	0.122	-0.853	32.13	-123.13	-35.7
14643	-0.462	0.114	-0.748	31.36	-126.28	-31.5
14665	-0.523	0.089	-0.722	32.69	-125.37	-30.38
14690	-0.561	0.055	-0.713	31.29	-123.41	-31.64
14709	-0.599	0.041	-0.689	30.31	-120.75	-33.11
14729	-0.631	0.044	-0.649	27.51	-115.99	-36.19
14750	-0.674	0.008	-0.664	29.19	-117.81	-32.27
14765	-0.678	-0.025	-0.661	29.54	-118.79	-30.52
14788	-0.659	-0.024	-0.595	30.87	-118.02	-29.54
14807	-0.709	-0.042	-0.52	31.78	-115.57	-29.47
14829	-0.765	-0.067	-0.489	32.34	-113.26	-28.98
14851	-0.804	-0.102	-0.494	31.29	-105.35	-31.71
14875	-0.794	-0.109	-0.529	27.23	-102.48	-24.01
14892	-0.766	-0.137	-0.496	28.77	-91.21	-23.31
14914	-0.791	-0.123	-0.399	37.03	-86.17	-21.07
14935	-0.823	-0.117	-0.329	42.77	-85.54	-15.61
14955	-0.81	-0.103	-0.306	37.73	-80.15	-11.41
14975	-0.809	-0.136	-0.289	30.52	-72.66	-10.15
14996	-0.826	-0.134	-0.271	25.62	-62.09	-11.2
15019	-0.864	-0.145	-0.232	21.42	-47.32	-9.94
15040	-0.885	-0.201	-0.22	15.61	-42.63	-9.31
15059	-0.881	-0.194	-0.195	13.58	-37.52	-8.75
15079	-0.899	-0.186	-0.185	11.76	-32.62	-7.91
15099	-0.909	-0.17	-0.183	8.19	-25.9	-6.23
15119	-0.89	-0.177	-0.188	5.39	-17.08	-3.92
15139	-0.865	-0.187	-0.197	3.15	-8.4	-2.38
15156	-0.849	-0.194	-0.193	1.05	0.49	-0.35
15179	-0.86	-0.202	-0.176	-3.15	13.02	1.89
15200	-0.869	-0.193	-0.173	-6.65	21.21	3.22
15219	-0.867	-0.183	-0.157	-10.01	28.56	4.55
15243	-0.876	-0.175	-0.154	-14.63	35.63	7.14
15262	-0.861	-0.173	-0.177	-16.45	41.09	9.87
15282	-0.843	-0.168	-0.208	-17.85	47.39	12.81
15303	-0.842	-0.176	-0.225	-21.49	59.15	15.26
15323	-0.856	-0.149	-0.255	-26.11	70.63	17.43
15343	-0.856	-0.001	-0.316	-31.01	76.93	22.05
15366	-0.784	-0.109	-0.361	-36.33	87.15	23.52
15384	-0.761	-0.068	-0.355	-44.03	99.47	27.58
15405	-0.762	-0.066	-0.339	-52.57	107.52	31.29
15429	-0.741	-0.082	-0.364	-54.88	113.19	33.88
15446	-0.704	-0.072	-0.424	-57.26	120.54	35.7
15465	-0.684	-0.078	-0.452	-59.36	130.55	35.49
15485	-0.686	-0.053	-0.49	-59.43	136.22	35.35
15504	-0.666	-0.026	-0.567	-55.79	137.9	36.82
15529	-0.63	0.028	-0.658	-55.51	143.5	40.6
15548	-0.626	0.023	-0.683	-55.09	151.9	38.85
15567	-0.645	0.059	-0.72	-54.81	155.26	37.38
15592	-0.581	0.074	-0.752	-49.84	152.25	39.06
15609	-0.493	0.106	-0.761	-51.03	147.77	36.96
15629	-0.516	0.102	-0.778	-51.73	142.03	30.24
15652	-0.491	0.16	-0.815	-50.12	138.95	26.88
15676	-0.438	0.119	-0.838	-42.49	132.44	22.47
15696	-0.365	0.145	-0.949	-46.55	133.49	17.78
15716	-0.358	0.216	-0.907	-51.03	136.22	14.28
15735	-0.419	0.245	-0.862	-48.3	131.32	15.75
15756	-0.363	0.138	-0.936	-43.61	120.96	21.77
15779	-0.22	0.224	-1.046	-47.74	126.63	26.46
15800	-0.207	0.259	-1.018	-41.3	126.49	23.31
15818	0.029	0.356	-1.017	-38.43	145.11	16.24
15838	0.127	0.41	-1.04	-41.09	173.32	9.24
15862	-0.086	0.311	-1.1	-57.4	204.68	2.45
15879	0.093	0.494	-1.13	-77.35	185.64	0.77
15897	0.05	0.375	-1.11	-68.18	152.32	10.78
15923	0.096	0.372	-1.005	-59.57	126.77	8.96
15942	0.203	0.476	-0.948	-56.35	121.94	-0.28
15962	0.168	0.518	-0.873	-54.53	102.13	0.7
15986	0.23	0.571	-0.901	-48.51	87.78	-0.28
16005	0.347	0.56	-0.941	-49.14	74.97	0.0
16021	0.391	0.521	-0.875	-49.98	74.83	-2.94
16046	0.36	0.54	-0.824	-42.56	52.85	-2.73
16062	0.418	0.529	-0.891	-45.15	52.29	-0.77
16085	0.453	0.543	-0.943	-32.34	37.24	0.28
16105	0.484	0.579	-0.938	-20.72	25.76	2.94
16125	0.408	0.595	-0.864	-9.52	8.05	6.79
16150	0.397	0.604	-0.869	1.19	-14.7	8.82
16168	0.415	0.61	-0.875	11.69	-30.17	10.5
16191	0.41	0.578	-0.904	25.41	-52.78	13.16
16209	0.408	0.585	-0.87	48.51	-75.88	12.74
16229	0.363	0.566	-0.906	55.58	-90.37	8.82
16254	0.342	0.536	-0.931	67.48	-111.23	3.22
16273	0.293	0.483	-0.932	69.86	-118.72	1.96
16292	0.236	0.434	-0.896	73.29	-137.41	-0.07
16312	0.149	0.429	-0.987	83.3	-143.57	4.2
16336	0.115	0.386	-1.118	98.49	-168.28	8.96
16355	0.116	0.38	-1.08	88.9	-179.48	-14.7
16376	0.098	0.422	-1.116	74.76	-155.89	-22.54
16393	0.053	0.37	-1.115	73.78	-148.33	-25.69
16417	-0.151	0.267	-1.052	41.72	-119.91	-11.97
16434	-0.058	0.295	-0.995	41.37	-123.62	-10.71
16455	-0.156	0.179	-1.024	52.57	-148.54	-15.47
16478	-0.21	0.159	-1.042	59.22	-164.43	-18.69
16496	-0.244	0.225	-1.022	54.18	-156.94	-21.84
16514	-0.248	0.209	-0.994	51.52	-152.6	-20.86
16534	-0.271	0.206	-0.928	51.03	-148.26	-24.15
16556	-0.329	0.191	-0.841	51.45	-144.48	-26.95
16577	-0.407	0.203	-0.826	46.06	-141.54	-28.35
16598	-0.411	0.19	-0.892	43.19	-139.93	-27.37
16621	-0.394	0.144	-0.878	39.41	-129.92	-24.08
16645	-0.444	0.09	-0.739	37.45	-120.19	-26.95
16669	-0.512	0.054	-0.678	32.97	-119.84	-28.84
16689	-0.572	0.037	-0.69	25.69	-118.44	-29.75
16709	-0.635	0.037	-0.716	22.89	-116.9	-30.94
16729	-0.656	0.003	-0.704	26.46	-114.31	-32.69
16749	-0.637	-0.024	-0.686	33.39	-109.83	-33.39
16768	-0.631	-0.008	-0.632	34.93	-109.06	-31.08
16794	-0.655	0.004	-0.569	34.16	-108.43	-32.76
16810	-0.691	0.026	-0.481	34.16	-108.57	-32.2
16833	-0.79	0.041	-0.434	38.78	-110.25	-28.7
16852	-0.849	0.015	-0.442	37.87	-112.63	-22.26
16877	-0.864	-0.009	-0.462	30.45	-114.24	-17.92
16897	-0.856	-0.05	-0.465	22.33	-110.6	-18.13
16917	-0.87	-0.102	-0.427	20.3	-103.39	-21.0
16937	-0.786	-0.099	-0.371	23.94	-101.29	-20.72
16957	-0.721	-0.103	-0.267	24.99	-95.27	-18.83
16977	-0.756	-0.125	-0.19	21.49	-88.41	-18.2
17001	-0.814	-0.158	-0.151	20.93	-85.61	-18.41
17021	-0.836	-0.173	-0.174	23.24	-77.98	-14.63
17040	-0.874	-0.172	-0.178	24.5	-64.96	-11.27
17060	-0.925	-0.182	-0.158	23.1	-58.03	-8.96
17078	-0.947	-0.172	-0.134	20.09	-53.62	-7.91
17102	-0.937	-0.172	-0.117	17.22	-44.31	-6.79
17122	-0.908	-0.174	-0.073	14.63	-36.47	-6.09
17142	-0.891	-0.18	-0.044	13.51	-31.57	-5.18
17160	-0.868	-0.186	-0.052	12.18	-21.49	-4.83
17182	-0.88	-0.17	-0.076	6.58	-7.35	-3.57
17203	-0.896	-0.167	-0.075	0.91	3.01	-3.22
17217	-0.91	-0.17	-0.08	-0.7	11.06	-2.73
17242	-0.921	-0.177	-0.071	-1.61	18.83	-0.7
17262	-0.925	-0.185	-0.08	-3.29	28.77	1.33
17281	-0.915	-0.183	-0.083	-5.53	34.23	4.06
17302	-0.902	-0.17	-0.093	-8.54	42.7	6.93
17323	-0.904	-0.162	-0.099	-10.85	50.26	10.15
17342	-0.894	-0.159	-0.119	-12.6	58.38	11.34
17361	-0.862	-0.151	-0.178	-14.14	65.73	12.67
17380	-0.84	-0.139	-0.216	-16.52	73.5	14.14
17402	-0.837	-0.131	-0.236	-21.28	86.38	15.26
17422	-0.85	-0.003	-0.262	-26.18	90.02	16.73
17443	-0.818	-0.119	-0.285	-31.99	102.76	17.71
17462	-0.813	-0.085	-0.276	-39.13	112.7	19.6
17484	-0.81	-0.068	-0.285	-46.34	117.88	20.58
17506	-0.774	-0.053	-0.335	-53.13	123.34	21.63
17526	-0.702	-0.032	-0.431	-57.96	129.43	23.52
17543	-0.674	-0.001	-0.476	-61.04	134.75	25.83
17562	-0.652	-0.003	-0.508	-66.36	142.59	27.65
17586	-0.637	-0.008	-0.549	-67.9	150.22	29.26
17607	-0.589	-0.016	-0.559	-65.45	155.89	31.5
17622	-0.578	-0.023	-0.58	-64.12	154.56	32.62
17647	-0.58	-0.001	-0.666	-66.15	158.97	30.1
17667	-0.529	0.049	-0.77	-66.99	163.1	26.74
17687	-0.486	0.081	-0.75	-62.23	165.97	26.88
17707	-0.479	0.081	-0.763	-53.13	162.05	28.42
17726	-0.44	0.159	-0.845	-51.66	160.23	28.28
17751	-0.389	0.206	-0.89	-58.59	158.76	24.22
17772	-0.368	0.206	-0.915	-60.06	155.96	19.39
17787	-0.299	0.239	-0.986	-57.05	155.33	21.28
17807	-0.267	0.274	-0.994	-62.09	159.74	19.95
17827	-0.222	0.209	-1.039	-62.93	153.23	14.0
17851	-0.212	0.264	-1.104	-53.62	143.15	23.24
17871	-0.19	0.291	-1.152	-51.1	153.23	21.7
17890	-0.169	0.316	-1.046	-66.36	173.88	30.38
17911	-0.093	0.431	-1.003	-115.92	217.35	32.9
17931	-0.379	0.114	-0.953	-52.85	133.0	23.03
17951	0.231	0.53	-1.158	-85.82	182.35	11.62
17975	0.235	0.444	-1.036	-82.25	160.79	0.56
17994	0.087	0.354	-0.981	-42.49	128.24	-8.82
18017	0.233	0.452	-0.943	-22.26	110.81	-11.69
18036	0.38	0.548	-0.987	-49.07	103.74	-7.42
18056	0.349	0.51	-0.959	-25.48	76.16	-5.6
18080	0.362	0.636	-0.972	-29.19	66.78	-1.96
18095	0.366	0.687	-0.986	-27.51	49.07	4.06
18121	0.38	0.657	-0.963	-13.51	26.67	11.27
18139	0.38	0.634	-0.964	-2.03	-0.7	13.3
18159	0.357	0.611	-0.92	17.43	-26.18	10.71
18176	0.366	0.625	-0.893	31.5	-38.64	8.05
18196	0.365	0.549	-0.956	46.83	-60.83	2.45
18216	0.352	0.558	-0.958	61.88	-81.2	-1.54
18239	0.324	0.481	-0.975	83.44	-105.91	-2.87
18263	0.29	0.449	-1.0	93.38	-125.23	-1.54
18282	0.242	0.422	-1.034	97.86	-145.25	-3.29
18299	0.2	0.388	-1.045	93.94	-153.72	-8.26
18323	0.221	0.369	-1.011	77.0	-139.16	-29.68
18341	0.144	0.326	-1.011	61.39	-113.47	-25.97
18363	0.051	0.306	-1.017	60.48	-110.25	-15.4
18382	0.011	0.299	-1.03	63.77	-123.55	-15.61
18400	0.004	0.306	-1.094	65.59	-127.19	-16.87
18420	-0.036	0.257	-1.116	69.58	-128.03	-15.75
18445	-0.098	0.211	-1.058	73.01	-132.37	-17.29
18462	-0.19	0.211	-1.007	75.04	-138.95	-19.11
18483	-0.237	0.21	-1.061	72.17	-140.28	-22.12
18504	-0.27	0.158	-1.033	72.24	-140.35	-25.83
18528	-0.312	0.146	-0.913	75.74	-150.57	-28.63
18548	-0.377	0.129	-0.894	68.53	-158.83	-38.57
18568	-0.354	0.146	-0.947	62.51	-156.8	-31.78
18586	-0.414	0.081	-0.949	61.53	-152.74	-32.06
18608	-0.422	0.064	-0.811	52.15	-147.35	-32.06
18629	-0.485	0.023	-0.759	44.73	-146.93	-32.27
18647	-0.528	0.007	-0.753	42.28	-146.16	-32.41
18666	-0.546	-0.009	-0.732	41.72	-140.0	-30.94
18688	-0.579	-0.032	-0.673	41.86	-138.46	-27.09
18709	-0.623	-0.044	-0.626	40.88	-137.9	-23.94
18733	-0.67	-0.073	-0.598	38.43	-135.8	-22.05
18753	-0.699	-0.081	-0.56	36.89	-133.56	-20.58
18771	-0.711	-0.102	-0.528	36.96	-131.18	-18.2
18791	-0.677	-0.139	-0.484	36.4	-125.02	-16.73
18812	-0.685	-0.15	-0.431	38.71	-118.58	-15.26
18834	-0.728	-0.123	-0.415	39.13	-110.25	-10.36
18856	-0.712	-0.138	-0.382	37.66	-97.16	-6.65
18876	-0.746	-0.162	-0.365	37.1	-87.15	-3.99
18899	-0.774	-0.185	-0.335	36.12	-75.04	-0.49
18920	-0.771	-0.238	-0.31	36.61	-64.05	3.22
18940	-0.79	-0.267	-0.284	36.61	-57.82	5.39
18959	-0.802	-0.237	-0.275	36.61	-51.8	6.79
18980	-0.803	-0.203	-0.263	36.47	-44.17	9.45
19000	-0.817	-0.171	-0.219	34.86	-34.93	12.67
19017	-0.824	-0.157	-0.198	30.1	-21.98	15.05
19037	-0.861	-0.169	-0.22	28.21	-16.8	16.66
19057	-0.864	-0.189	-0.205	27.86	-12.39	17.5
19081	-0.874	-0.192	-0.188	28.0	-5.11	16.66
19099	-0.885	-0.148	-0.201	26.04	0.63	16.31
19119	-0.889	-0.134	-0.2	19.81	6.86	16.31
19138	-0.896	-0.124	-0.192	13.3	12.6	15.47
19161	-0.909	-0.117	-0.169	7.49	19.95	15.47
19185	-0.897	-0.121	-0.187	1.68	25.9	15.75
19205	-0.876	-0.118	-0.183	-1.19	31.78	15.82
19223	-0.892	-0.106	-0.179	-2.87	37.8	16.52
19247	-0.895	-0.117	-0.198	-5.39	43.12	17.5
19267	-0.863	-0.118	-0.238	-11.41	49.7	17.43
19287	-0.838	-0.108	-0.266	-16.52	57.05	18.2
19307	-0.826	-0.109	-0.289	-21.35	63.56	19.32
19327	-0.819	-0.119	-0.301	-26.04	71.12	19.25
19351	-0.81	-0.119	-0.309	-28.14	77.21	19.04
19371	-0.789	-0.083	-0.332	-31.43	87.99	18.97
19391	-0.789	-0.056	-0.355	-37.8	95.69	19.46
19411	-0.774	-0.065	-0.41	-42.91	99.89	19.11
19430	-0.73	-0.048	-0.442	-46.97	108.85	20.16
19455	-0.714	-0.05	-0.432	-45.29	117.18	20.37
19470	-0.685	-0.053	-0.469	-43.82	118.79	20.51
19496	-0.645	-0.038	-0.543	-44.24	123.62	19.04
19516	-0.637	-0.019	-0.574	-47.46	132.79	18.48
19535	-0.647	-0.013	-0.64	-44.38	131.81	19.32
19552	-0.636	-0.005	-0.735	-40.46	129.92	20.37
19572	-0.594	0.036	-0.785	-45.5	139.09	17.57
19594	-0.599	0.041	-0.727	-45.64	142.17	11.55
19618	-0.628	0.049	-0.741	-33.32	132.3	7.21
19638	-0.569	0.095	-0.862	-24.43	128.52	6.23
19657	-0.484	0.142	-0.935	-26.81	133.07	5.81
19677	-0.42	0.12	-0.877	-34.58	136.71	2.52
19697	-0.432	0.107	-0.762	-35.0	129.01	-1.96
19720	-0.401	0.095	-0.834	-28.14	116.2	-3.22
19740	-0.31	0.128	-0.988	-27.44	115.22	-6.23
19760	-0.265	0.177	-1.01	-32.76	122.43	-8.54
19780	-0.263	0.21	-0.901	-35.07	120.4	-6.72
19799	-0.225	0.226	-0.894	-34.58	111.09	-5.88
19824	-0.155	0.239	-0.939	-36.19	102.13	-6.37
19848	-0.125	0.31	-1.011	-37.66	99.82	-8.75
19865	-0.106	0.352	-1.061	-42.91	97.37	-7.28
19890	-0.061	0.341	-1.059	-48.3	95.34	-7.56
19909	-0.049	0.345	-1.039	-48.86	86.59	-6.65
19929	0.015	0.323	-1.116	-47.39	86.73	-7.35
19947	0.109	0.286	-1.088	-48.79	103.11	-19.67
19970	0.018	0.282	-0.995	-38.64	79.1	-6.72
19990	0.024	0.25	-1.053	-38.29	85.47	-11.06
20014	0.106	0.296	-1.07	-31.64	65.52	-13.16
20031	0.142	0.333	-1.071	-38.22	80.78	-15.96
20055	0.193	0.419	-1.093	-37.87	63.35	-10.64
20075	0.204	0.458	-1.106	-35.21	52.85	-6.58
20094	0.225	0.432	-1.136	-23.31	33.39	-8.96
20113	0.228	0.37	-1.154	-12.95	23.87	-11.55
20133	0.241	0.347	-1.153	4.69	7.84	-15.4
20158	0.228	0.375	-1.164	29.05	-9.24	-12.11
20178	0.155	0.378	-1.183	48.09	-35.42	-7.63
20203	0.16	0.378	-1.134	61.46	-59.15	-5.74
20219	0.154	0.353	-1.078	60.83	-65.45	-6.16
20243	0.084	0.288	-1.04	50.26	-52.01	-11.34
20263	0.064	0.308	-1.039	56.35	-68.25	-15.12
20283	0.1	0.331	-1.078	55.79	-70.14	-17.22
20303	0.074	0.316	-1.097	56.98	-76.86	-15.33
20322	0.049	0.305	-1.078	59.99	-86.66	-13.3
20345	0.02	0.291	-1.073	63.0	-93.1	-14.35
20365	0.026	0.279	-1.08	62.79	-97.3	-13.79
20389	-0.035	0.225	-1.044	61.46	-102.48	-13.16
20409	-0.1	0.169	-1.037	65.87	-108.92	-13.37
20425	-0.136	0.144	-1.061	67.9	-112.14	-13.65
20449	-0.143	0.091	-1.06	70.98	-117.32	-14.28
20469	-0.199	0.084	-1.018	71.4	-118.16	-15.33
20488	-0.225	0.128	-0.991	65.8	-120.05	-15.47
20507	-0.308	0.191	-0.999	59.01	-130.76	-13.44
20527	-0.292	0.171	-1.014	54.95	-122.29	-12.95
20547	-0.301	0.169	-0.922	51.24	-120.75	-11.13
20566	-0.341	0.136	-0.824	46.41	-125.86	-11.48
20590	-0.381	0.095	-0.836	39.76	-134.47	-14.14
20610	-0.393	0.054	-0.898	35.56	-136.15	-16.24
20630	-0.421	0.002	-0.869	33.25	-133.21	-17.85
20654	-0.463	-0.046	-0.772	34.86	-134.4	-19.11
20674	-0.518	-0.053	-0.706	37.1	-138.11	-19.81
20693	-0.575	-0.019	-0.683	40.67	-141.68	-16.17
20715	-0.65	-0.016	-0.679	39.9	-140.56	-13.44
20732	-0.671	-0.055	-0.649	39.83	-134.47	-11.2
20754	-0.727	-0.101	-0.582	41.16	-127.96	-8.47
20778	-0.788	-0.12	-0.544	42.07	-122.85	-5.25
20798	-0.802	-0.112	-0.498	44.03	-124.25	-1.96
20818	-0.781	-0.109	-0.454	45.43	-119.84	3.43
20835	-0.782	-0.131	-0.415	43.26	-115.36	8.05
20855	-0.716	-0.178	-0.352	38.78	-113.96	6.72
20875	-0.732	-0.239	-0.338	39.48	-117.53	-1.47
20899	-0.725	-0.194	-0.34	45.08	-112.63	-4.2
20917	-0.667	-0.163	-0.324	50.82	-101.85	-2.03
20937	-0.72	-0.175	-0.267	49.84	-90.72	0.49
20960	-0.785	-0.157	-0.262	46.97	-83.09	4.13
20979	-0.807	-0.169	-0.232	43.96	-72.45	5.6
20999	-0.882	-0.197	-0.197	42.07	-65.1	7.84
21023	-0.911	-0.22	-0.175	42.07	-61.04	8.19
21043	-0.892	-0.236	-0.13	40.46	-58.31	5.32
21062	-0.898	-0.222	-0.113	36.33	-56.63	1.96
21084	-0.889	-0.211	-0.115	27.23	-54.53	-3.5
21103	-0.872	-0.173	-0.111	21.77	-44.31	-5.67
21127	-0.889	-0.15	-0.076	18.2	-35.0	-6.44
21147	-0.922	-0.152	-0.049	14.42	-30.94	-6.02
21171	-0.944	-0.178	-0.043	11.34	-27.79	-6.58
21188	-0.965	-0.179	-0.03	9.66	-24.36	-7.56
21210	-0.983	-0.16	-0.034	8.26	-17.29	-6.93
21230	-1.008	-0.168	-0.029	5.81	-11.48	-5.32
21254	-0.99	-0.164	0.0	-0.07	-8.89	-4.55
21274	-0.991	-0.168	0.025	-6.23	-8.26	-4.55
21294	-0.987	-0.187	0.036	-8.61	-8.12	-4.34
21315	-0.971	-0.216	0.034	-8.89	-6.93	-5.18
21333	-0.946	-0.274	0.028	-7.63	-6.37	-6.86
21353	-0.941	-0.302	0.025	-6.51	-5.67	-9.73
21373	-0.954	-0.298	0.03	-4.27	-3.01	-11.2
21397	-0.977	-0.3	0.036	-2.73	-0.98	-11.27
21418	-0.972	-0.305	0.023	-1.82	-0.7	-11.62
21432	-0.979	-0.285	0.021	-1.89	0.91	-11.06
21457	-1.007	-0.264	0.053	-3.01	3.99	-9.73
21477	-1.031	-0.26	0.083	-4.27	1.33	-8.4
21496	-1.023	-0.256	0.074	-3.36	-0.98	-7.63
21516	-0.996	-0.249	0.049	-3.71	-2.73	-7.0
21540	-0.96	-0.252	0.0	-6.72	-3.29	-6.23
21560	-0.941	-0.26	0.027	-12.74	0.0	-6.65
21580	-0.967	-0.244	0.06	-15.47	1.05	-8.89
21600	-0.983	-0.238	0.054	-17.43	0.42	-10.22
21620	-0.987	-0.25	0.046	-19.81	-1.05	-10.99
21641	-0.982	-0.283	0.042	-19.88	-0.84	-11.62
21660	-0.97	-0.316	0.051	-17.15	-0.07	-12.46
21679	-0.943	-0.342	0.043	-16.03	-17.92	-14.98
21705	-0.922	-0.351	0.022	-15.82	1.26	-17.36
21724	-0.901	-0.365	0.025	-14.63	4.34	-18.9
21744	-0.898	-0.364	0.042	-13.09	6.65	-20.02
21768	-0.879	-0.366	0.021	-10.22	9.38	-20.72
21787	-0.871	-0.39	0.011	-10.08	14.63	-21.0
21807	-0.896	-0.384	0.011	-8.82	14.35	-21.21
21828	-0.899	-0.372	-0.014	-7.14	15.89	-19.39
21852	-0.934	-0.358	-0.007	-8.75	13.86	-14.84
21867	-0.952	-0.365	-0.014	-12.46	8.89	-10.78
21887	-0.925	-0.381	-0.042	-16.24	8.96	-5.11
21907	-0.935	-0.414	-0.022	-17.29	11.41	-0.56
21927	-0.996	-0.421	-0.022	-12.6	11.27	2.45
21953	-1.026	-0.42	-0.019	-8.19	10.57	10.08
21970	-0.98	-0.438	-0.027	-3.22	8.96	14.35
21989	-0.967	-0.396	-0.04	0.63	7.28	16.17
22013	-0.982	-0.355	-0.049	0.56	5.81	19.25
22034	-0.972	-0.371	-0.047	0.21	2.24	20.3
22054	-0.944	-0.407	-0.027	-0.98	-3.01	18.48
22069	-0.912	-0.408	-0.018	-3.43	-6.79	15.4
22093	-0.885	-0.41	-0.006	-8.89	-14.91	10.29
22114	-0.868	-0.411	0.007	-13.86	-22.4	5.95
22131	-0.886	-0.395	0.032	-14.7	-27.44	4.27
22152	-0.964	-0.375	0.021	-16.52	-32.62	4.13
22175	-1.055	-0.349	-0.139	-19.53	-26.53	8.19
22195	-1.073	-0.349	-0.212	-16.24	-7.84	12.39
22212	-1.043	-0.363	-0.193	-5.32	5.18	14.07
22236	-0.985	-0.321	-0.134	3.29	14.21	13.86
22256	-0.967	-0.19	-0.079	2.31	15.89	14.63
22273	-0.952	-0.066	-0.08	-6.09	13.23	15.26
22296	-0.969	0.01	-0.099	-15.89	7.98	14.56
22315	-0.981	0.042	-0.148	-29.4	1.75	16.52
22339	-0.971	0.05	-0.177	-33.95	5.25	20.79
22359	-0.996	0.02	-0.175	-38.71	7.14	18.13
22379	-0.993	-0.068	-0.165	-29.4	11.13	17.99
22399	-0.998	-0.15	-0.098	-14.49	14.56	16.24
22417	-1.037	-0.181	-0.076	-3.85	14.14	16.03
22441	-1.003	-0.236	-0.093	3.5	13.79	13.65
22460	-0.948	-0.166	-0.094	4.34	15.75	12.11
22480	-0.926	-0.083	-0.081	1.75	20.72	11.83
22504	-0.914	0.002	-0.081	-0.56	26.81	13.16
22525	-0.904	0.024	-0.101	0.77	28.7	17.36
22543	-0.904	0.006	-0.123	1.61	27.86	18.48
22567	-0.902	0.007	-0.183	3.78	24.92	17.36
22590	-0.853	0.002	-0.242	2.1	28.0	13.65
22610	-0.8	-0.002	-0.225	3.36	36.54	10.43
22631	-0.747	-0.019	-0.202	4.76	43.12	8.05
22650	-0.681	-0.063	-0.144	6.65	44.94	5.18
22674	-0.606	-0.07	-0.127	8.54	44.24	0.84
22692	-0.567	-0.015	-0.143	4.69	44.59	-1.75
22710	-0.569	0.019	-0.177	1.47	46.55	-2.8
22734	-0.578	-0.039	-0.204	3.85	55.23	-0.35
22755	-0.575	-0.064	-0.142	14.28	63.42	0.91
22775	-0.597	0.0	-0.164	2.52	58.45	-2.94
22794	-0.612	-0.002	-0.296	-13.65	53.34	-6.79
22817	-0.63	-0.023	-0.302	-17.15	46.41	-9.24
22841	-0.711	-0.02	-0.197	-10.5	52.71	-9.38
22861	-0.758	0.038	-0.187	-10.22	42.98	-7.07
22880	-0.759	-0.001	-0.343	-17.08	40.39	-5.04
22900	-0.783	-0.114	-0.413	-13.72	38.78	-4.76
22924	-0.816	-0.106	-0.423	-9.59	38.22	-5.25
22944	-0.845	-0.093	-0.431	-13.44	36.68	-7.0
22963	-0.89	-0.138	-0.562	-12.88	37.17	-5.88
22984	-0.995	-0.278	-0.651	6.02	34.16	-1.61
23004	-1.053	-0.312	-0.552	20.37	31.99	0.98
23027	-1.041	-0.255	-0.548	15.61	22.54	-0.7
23047	-1.023	-0.2	-0.729	9.66	11.83	-2.45
23070	-1.074	-0.18	-0.737	4.97	13.72	-2.59
23088	-1.113	-0.159	-0.69	-1.68	11.83	1.05
23113	-1.137	-0.245	-0.681	-0.7	2.1	-4.55
23131	-1.128	-0.332	-0.827	4.34	-1.82	-9.03
23152	-1.119	-0.353	-0.914	7.49	8.61	-9.45
23173	-1.206	-0.378	-0.855	-0.77	13.72	-9.73
23196	-1.263	-0.406	-0.827	17.15	6.02	-8.12
23216	-1.249	-0.324	-0.875	8.33	-2.59	-5.25
23236	-1.21	-0.242	-0.876	3.43	-0.07	-3.71
23260	-1.24	-0.194	-0.9	0.91	2.52	-1.96
23279	-1.213	-0.187	-0.939	1.4	6.58	0.63
23300	-1.159	-0.239	-0.777	-5.04	12.95	-2.59
23315	-1.129	-0.254	-0.693	-6.16	10.85	-7.84
23340	-1.131	-0.21	-0.756	-5.6	4.55	-10.22
23358	-1.068	-0.208	-0.841	-3.92	7.7	-8.4
23377	-1.023	-0.249	-0.811	-6.58	14.42	-8.61
23402	-1.021	-0.272	-0.723	-7.84	13.51	-9.66
23420	-1.028	-0.26	-0.714	-4.9	2.87	-9.03
23439	-1.023	-0.256	-0.723	-2.38	-4.27	-6.58
23461	-1.029	-0.263	-0.705	-5.39	-11.2	-7.42
23479	-1.026	-0.269	-0.712	-5.74	-17.85	-9.24
23499	-0.983	-0.25	-0.716	-0.98	-26.81	-9.59
23518	-0.965	-0.222	-0.658	-1.54	-31.15	-8.4
23543	-0.989	-0.21	-0.569	-1.05	-37.8	-6.16
23560	-1.016	-0.223	-0.553	3.29	-44.17	-4.69
23579	-0.981	-0.255	-0.568	9.45	-53.9	-3.78
23605	-0.935	-0.272	-0.537	6.72	-61.53	-6.37
23624	-0.948	-0.299	-0.433	3.5	-63.49	-8.4
23639	-0.947	-0.28	-0.369	6.58	-63.21	-10.57
23664	-0.934	-0.234	-0.281	16.03	-68.11	-8.96
23680	-0.851	-0.22	-0.319	26.67	-74.55	-4.76
23703	-0.764	-0.277	-0.317	35.7	-79.87	-1.4
23724	-0.766	-0.276	-0.176	37.31	-79.45	-3.43
23744	-0.743	-0.189	-0.073	34.72	-87.78	-4.48
23768	-0.621	-0.142	-0.049	34.09	-96.25	-5.46
23788	-0.49	-0.102	-0.061	41.09	-99.05	-3.64
23803	-0.346	-0.082	-0.099	46.62	-103.81	-0.63
23828	-0.186	-0.015	-0.137	35.91	-102.34	5.95
23848	-0.151	-0.016	-0.072	23.17	-92.89	4.27
23868	-0.214	-0.0	0.02	19.46	-87.08	4.06
23892	-0.366	-0.061	0.03	20.09	-88.34	3.43
23909	-0.491	-0.111	-0.008	14.14	-69.51	1.82
23932	-0.793	-0.181	-0.069	12.81	-59.29	0.49
23952	-1.006	-0.234	-0.245	7.56	-32.76	-1.26
23976	-1.266	-0.325	-0.384	-8.33	8.61	-4.69
23996	-1.287	-0.366	-0.298	-12.32	12.67	-6.16
24015	-1.174	-0.27	0.042	-11.97	6.58	-1.89
24040	-1.082	-0.192	0.308	-5.46	-16.03	5.95
24057	-0.938	-0.15	0.305	3.29	-29.26	10.22
24077	-0.842	-0.133	0.203	13.86	-35.7	13.23
24101	-0.773	-0.166	0.09	18.34	-30.87	9.8
24117	-0.825	-0.168	-0.023	11.06	-12.32	6.44
24138	-0.952	-0.186	-0.042	-2.87	6.44	2.24
24158	-0.988	-0.154	-0.048	-8.89	17.71	-1.05
24182	-0.912	-0.103	-0.01	-10.78	27.23	17.71
24203	-0.821	-0.061	0.031	-13.51	28.56	2.03
24220	-0.758	-0.039	0.051	-17.29	32.62	3.99
24239	-0.702	-0.03	0.079	-17.85	35.7	6.51
24259	-0.655	-0.059	0.074	-13.72	39.41	8.82
24280	-0.616	-0.118	0.072	-3.85	42.35	9.03
24304	-0.594	-0.177	0.044	7.0	44.17	6.72
24329	-0.646	-0.139	0.011	2.94	45.64	1.19
24348	-0.783	-0.138	-0.023	-3.29	48.58	-1.68
24366	-0.823	-0.141	0.015	-1.26	52.01	-3.29
24387	-0.777	-0.123	0.017	4.2	50.19	-4.27
24407	-0.716	-0.101	-0.11	-1.82	49.98	-4.9
24430	-0.704	-0.117	-0.181	-13.65	56.21	-5.18
24451	-0.714	-0.112	-0.092	-18.13	61.6	-4.76
24470	-0.702	-0.076	-0.04	-18.13	62.79	-4.48
24490	-0.666	-0.12	-0.191	-9.8	60.55	-3.64
24510	-0.657	-0.163	-0.345	-5.11	67.41	-3.15
24530	-0.695	-0.213	-0.347	-4.83	67.9	-4.55
24554	-0.718	-0.201	-0.287	-13.3	64.4	-10.15
24573	-0.827	-0.25	-0.283	-11.55	58.73	-12.04
24593	-0.919	-0.325	-0.376	-0.84	48.65	-12.95
24612	-0.981	-0.304	-0.446	-0.28	46.9	-12.67
24636	-1.113	-0.315	-0.293	-7.77	44.1	-13.58
24655	-1.136	-0.258	-0.298	-9.94	37.94	-15.75
24676	-1.098	-0.264	-0.423	-5.25	20.02	-10.08
24700	-1.107	-0.292	-0.546	-4.69	18.13	-6.79
24720	-1.159	-0.31	-0.624	-7.56	23.1	-5.04
24736	-1.236	-0.347	-0.665	-1.47	21.14	-3.29
24756	-1.313	-0.372	-0.729	8.19	20.02	-1.12
24776	-1.245	-0.337	-0.794	4.69	40.67	-2.31
24800	-1.278	-0.337	-0.744	-0.42	44.03	-5.95
24820	-1.397	-0.364	-0.791	0.84	35.07	-3.78
24837	-1.311	-0.355	-0.823	2.31	32.76	-0.42
24856	-1.209	-0.319	-0.806	-0.56	34.16	-1.54
24881	-1.157	-0.308	-0.828	-7.7	48.3	-7.77
24901	-1.278	-0.311	-0.755	-15.26	54.74	-6.86
24916	-1.287	-0.296	-0.775	-18.76	45.57	-4.06
24940	-1.174	-0.326	-0.86	-14.0	31.5	2.73
24960	-1.037	-0.368	-0.791	-13.86	34.16	-5.25
24979	-1.154	-0.332	-0.687	-13.93	26.95	-10.22
24999	-1.163	-0.335	-0.768	-15.61	19.88	-10.29
25023	-1.108	-0.291	-0.91	-18.97	23.59	-3.78
25043	-1.038	-0.292	-0.872	-20.02	28.7	-9.59
25063	-1.079	-0.243	-0.743	-22.05	28.0	-9.66
25083	-1.069	-0.256	-0.744	-26.6	20.3	-9.45
25102	-0.983	-0.261	-0.797	-24.29	18.97	-9.31
25126	-0.978	-0.243	-0.753	-13.79	16.73	-8.68
25147	-0.984	-0.228	-0.659	-15.05	6.37	-7.35
25161	-0.936	-0.266	-0.566	-15.05	-2.31	-8.54
25185	-0.832	-0.334	-0.548	-5.25	-14.28	-10.08
25206	-0.709	-0.33	-0.608	8.96	-19.39	-7.98
25226	-0.579	-0.27	-0.556	3.29	-10.22	-3.78
25242	-0.487	-0.32	-0.422	-1.4	-3.01	-1.89
25266	-0.429	-0.378	-0.274	1.82	5.46	-1.4
25282	-0.446	-0.386	-0.223	14.28	4.13	0.84
25305	-0.436	-0.384	-0.253	27.51	3.85	4.13
25326	-0.42	-0.33	-0.286	28.63	0.84	7.56
25346	-0.372	-0.227	-0.337	25.9	-3.99	8.47
25366	-0.369	-0.1	-0.415	20.16	-3.29	6.37
25386	-0.338	0.064	-0.459	7.91	-9.17	12.6
25409	-0.329	0.1	-0.396	-9.38	-14.7	17.71
25430	-0.353	0.081	-0.394	-11.83	-19.6	22.75
25449	-0.275	0.039	-0.535	-9.45	-13.02	24.22
25469	-0.343	0.118	-0.678	-13.58	0.91	23.1
25493	-0.456	0.23	-0.699	-19.95	18.41	17.71
25513	-0.563	0.257	-0.493	-33.32	27.58	15.26
25530	-0.644	-0.017	-0.419	-33.74	24.5	9.38
25554	-0.773	-0.114	-0.397	-24.29	28.28	-11.41
25571	-0.741	-0.152	-0.571	-16.59	51.38	-13.16
25590	-0.658	-0.225	-0.608	-9.52	71.19	-8.4
25610	-0.625	-0.209	-0.528	6.3	78.68	-7.07
25630	-0.61	-0.147	-0.483	30.24	55.16	-9.8
25654	-0.559	-0.071	-0.746	46.41	64.75	-10.64
25673	-0.503	-0.093	-0.938	57.12	68.46	-11.06
25692	-0.522	-0.122	-0.952	63.63	82.6	-6.65
25716	-0.585	-0.272	-0.785	72.94	79.52	-3.22
25737	-0.563	-0.389	-0.689	80.78	61.46	-4.2
25757	-0.537	-0.357	-0.698	67.62	50.33	-8.05
25777	-0.571	-0.19	-0.768	47.74	39.27	-11.2
25797	-0.576	0.003	-0.883	1.47	39.13	-5.18
25816	-0.553	-0.183	-0.964	-22.47	45.5	8.4
25835	-0.505	-0.484	-1.039	-36.82	52.29	7.63
25858	-0.552	-0.532	-1.052	-47.88	52.29	-6.93
25879	-0.58	-0.562	-0.911	-58.45	41.72	-22.12
25896	-0.581	-0.504	-0.783	-59.29	24.64	-28.56
25920	-0.544	-0.413	-0.714	-54.46	-4.9	-30.24
25939	-0.432	-0.3	-0.805	-50.89	-20.72	-30.17
25959	-0.251	-0.243	-0.933	-53.76	-17.64	-29.33
25979	-0.284	-0.25	-0.993	-52.78	-9.59	-23.45
26003	-0.39	-0.25	-0.941	-42.21	-6.65	-11.62
26022	-0.502	-0.222	-0.968	-26.18	-11.69	-3.64
26046	-0.479	-0.193	-1.131	-26.39	-5.53	1.61
26066	-0.479	-0.148	-1.125	-32.76	-1.33	-2.59
26086	-0.549	-0.098	-0.933	-38.08	-7.42	-8.33
26105	-0.583	-0.028	-0.733	-35.91	-26.53	-13.51
26125	-0.553	0.028	-0.757	-30.1	-43.12	-13.79
26149	-0.454	0.0	-0.859	-24.64	-44.38	-7.91
26169	-0.473	-0.16	-0.898	-2.52	-41.23	-1.82
26187	-0.579	-0.168	-0.807	13.79	-42.49	-2.03
26211	-0.671	-0.171	-0.794	22.75	-46.9	-3.29
26230	-0.617	-0.085	-0.852	28.21	-39.55	-1.54
26254	-0.613	0.02	-0.833	28.91	-33.67	2.94
26270	-0.671	0.129	-0.795	21.21	-34.58	6.09
26294	-0.645	0.143	-0.747	15.75	-33.88	11.76
26315	-0.635	0.066	-0.706	13.58	-35.21	16.73
26332	-0.585	-0.017	-0.746	13.93	-35.35	13.09
26354	-0.558	-0.051	-0.758	14.63	-34.65	7.0
26373	-0.603	-0.02	-0.685	15.26	-35.0	2.87
26397	-0.642	0.014	-0.637	15.26	-39.2	5.39
26417	-0.621	0.073	-0.748	12.25	-40.32	4.76
26437	-0.612	0.069	-0.813	4.34	-37.8	4.13
26460	-0.635	0.071	-0.804	1.68	-33.32	5.04
26480	-0.679	-0.015	-0.703	8.12	-32.34	7.84
26497	-0.711	-0.081	-0.676	14.35	-34.3	8.82
26522	-0.731	-0.087	-0.707	18.06	-34.86	7.91
26541	-0.734	-0.025	-0.729	28.63	-31.64	9.94
26561	-0.758	-0.027	-0.665	38.85	-30.31	14.14
26581	-0.758	-0.046	-0.618	44.03	-31.71	14.07
26599	-0.761	-0.106	-0.623	48.37	-34.58	12.39
26619	-0.736	-0.19	-0.742	49.98	-30.1	9.24
26642	-0.771	-0.217	-0.617	38.08	-24.71	1.4
26660	-0.82	-0.212	-0.498	22.61	-29.82	-6.86
26680	-0.811	-0.223	-0.468	13.93	-37.45	-10.85
26704	-0.752	-0.326	-0.528	11.9	-38.99	-8.05
26724	-0.725	-0.437	-0.554	13.44	-34.37	-4.48
26743	-0.741	-0.479	-0.477	15.05	-33.67	-4.27
26768	-0.779	-0.447	-0.468	18.97	-33.6	-3.71
26789	-0.802	-0.409	-0.49	22.89	-31.08	-1.05
26808	-0.797	-0.395	-0.485	22.12	-25.83	-1.82
26828	-0.781	-0.373	-0.414	18.2	-23.1	-5.6
26849	-0.758	-0.326	-0.42	9.03	-23.8	-9.59
26869	-0.666	-0.315	-0.431	-0.14	-21.49	-14.35
26892	-0.562	-0.306	-0.406	-8.82	-14.7	-19.74
26909	-0.517	-0.313	-0.351	-13.79	-11.76	-21.0
26928	-0.487	-0.312	-0.26	-20.02	-11.97	-26.18
26953	-0.414	-0.252	-0.312	-18.9	-14.63	-24.22
26974	-0.359	-0.315	-0.38	-18.76	-3.99	-20.3
26993	-0.344	-0.286	-0.244	-24.43	7.0	-19.81
27010	-0.37	-0.221	-0.107	-26.39	9.24	-18.48
27034	-0.394	-0.12	-0.219	-13.09	1.96	-7.98
27054	-0.288	-0.041	-0.451	-9.1	12.25	4.34
27078	-0.211	-0.045	-0.45	-7.35	33.18	14.91
27098	-0.274	-0.135	-0.323	-5.11	46.69	12.04
27118	-0.462	-0.223	-0.365	1.54	36.26	9.45
27138	-0.577	-0.246	-0.408	-11.27	28.35	3.36
27158	-0.844	-0.158	-0.3	-27.79	16.38	-3.22
27176	-0.996	-0.089	-0.405	-31.85	9.17	-5.25
27200	-0.933	-0.088	-0.879	-14.21	10.29	9.52
27218	-0.815	-0.14	-0.945	-8.75	27.3	20.58
27242	-0.886	-0.23	-0.74	-12.95	26.88	12.04
27260	-1.033	-0.254	-0.593	-7.56	1.19	7.91
27281	-1.029	-0.305	-0.798	5.53	-3.22	7.14
27303	-1.087	-0.333	-0.917	10.01	14.42	1.75
27323	-1.105	-0.397	-0.832	4.69	11.76	-4.69
27342	-1.09	-0.306	-0.89	-5.6	4.76	-9.03
27367	-1.008	-0.229	-0.974	-5.74	10.29	-4.2
27388	-1.043	-0.255	-0.85	2.59	7.42	-1.05
27406	-1.074	-0.254	-0.891	2.03	4.76	-2.59
27426	-1.063	-0.248	-1.027	-1.47	8.82	-1.68
27450	-1.098	-0.271	-1.1	-4.76	10.08	2.17
27470	-1.114	-0.282	-1.04	-2.1	15.61	-0.56
27489	-1.14	-0.243	-0.909	-7.84	6.58	-2.87
27512	-1.121	-0.168	-0.932	-9.87	-0.14	-1.05
27531	-1.046	-0.157	-0.981	-11.62	3.64	0.98
27554	-1.008	-0.202	-0.923	-18.27	6.09	-0.42
27574	-1.01	-0.272	-0.857	-18.62	2.17	-3.08
27594	-1.003	-0.249	-0.839	-15.75	-1.4	-2.8
27617	-0.956	-0.231	-0.858	-13.3	-2.8	-1.82
27638	-0.908	-0.254	-0.847	-14.07	-2.73	-1.75
27656	-0.884	-0.244	-0.859	-12.74	-1.54	-1.4
27678	-0.898	-0.217	-0.837	-7.91	-1.54	-1.89
27698	-0.903	-0.16	-0.767	-7.77	-1.61	-0.14
27718	-0.894	-0.194	-0.74	-6.23	-9.94	1.47
27739	-0.898	-0.193	-0.743	-0.98	-16.24	0.77
27763	-0.926	-0.174	-0.713	6.3	-26.18	1.82
27782	-0.9	-0.197	-0.692	8.68	-32.55	1.96
27802	-0.9	-0.227	-0.651	9.8	-36.82	0.28
27822	-0.881	-0.223	-0.614	14.42	-39.9	-2.94
27846	-0.855	-0.189	-0.568	21.0	-48.09	-1.47
27866	-0.82	-0.176	-0.504	23.31	-50.75	0.28
27881	-0.796	-0.203	-0.451	27.72	-57.96	0.63
27905	-0.724	-0.151	-0.41	28.49	-61.67	-0.84
27926	-0.629	-0.142	-0.303	29.33	-66.15	-1.96
27945	-0.544	-0.127	-0.197	32.27	-72.03	1.33
27968	-0.435	-0.121	-0.163	39.9	-93.8	3.85
27992	-0.313	-0.114	-0.183	46.2	-113.12	4.13
28012	-0.24	-0.055	-0.26	48.02	-112.77	6.02
28030	-0.193	-0.016	-0.24	45.01	-106.19	9.59
28052	-0.2	-0.022	-0.198	34.86	-99.47	10.64
28073	-0.301	-0.04	-0.22	25.13	-88.69	8.54
28092	-0.382	-0.078	-0.262	19.88	-77.14	6.79
28110	-0.478	-0.094	-0.314	14.98	-64.33	6.44
28130	-0.658	-0.192	-0.387	7.56	-39.62	5.46
28150	-1.044	-0.335	-0.45	-2.52	-31.08	1.12
28174	-1.617	-0.433	-0.44	-9.87	-14.56	-7.35
28193	-1.659	-0.421	-0.203	-1.61	-26.6	-14.49
28210	-1.137	-0.198	-0.07	12.53	-42.07	-3.85
28233	-0.962	-0.222	-0.013	25.2	-55.3	9.17
28250	-0.76	-0.21	0.005	29.33	-62.79	13.58
28274	-0.68	-0.181	-0.037	27.93	-58.17	12.6
28294	-0.658	-0.193	-0.159	24.08	-44.87	9.94
28313	-0.744	-0.188	-0.242	15.47	-20.09	6.37
28333	-0.918	-0.204	-0.281	7.77	5.67	2.59
28353	-1.039	-0.217	-0.204	2.38	20.3	0.49
28377	-1.084	-0.216	-0.116	-0.35	16.1	0.14
28397	-1.015	-0.186	-0.081	0.28	9.45	0.49
28417	-0.943	-0.176	-0.035	0.0	8.89	1.75
28440	-0.908	-0.164	-0.026	2.31	9.94	4.34
28460	-0.865	-0.166	-0.073	4.27	16.17	6.09
28477	-0.843	-0.164	-0.115	3.5	23.38	5.81
28498	-0.831	-0.154	-0.147	0.98	31.08	4.62
28517	-0.819	-0.142	-0.162	-0.91	37.59	3.36
28542	-0.807	-0.141	-0.13	-2.03	40.39	1.75
28562	-0.739	-0.145	-0.081	-1.96	40.25	-0.91
28581	-0.671	-0.119	-0.067	-4.06	41.93	-3.01
28605	-0.595	-0.118	-0.05	-8.68	39.83	-3.99
28621	-0.524	-0.084	-0.067	-10.22	39.97	-4.06
28645	-0.499	-0.051	-0.084	-14.21	47.46	-3.22
28665	-0.534	-0.049	-0.053	-14.21	48.93	-1.75
28690	-0.571	-0.062	-0.119	-7.77	45.78	-0.07
28708	-0.615	-0.1	-0.21	-4.34	47.95	2.8
28729	-0.663	-0.158	-0.226	-2.1	52.5	1.82
28750	-0.687	-0.183	-0.185	-2.45	71.54	-0.98
28769	-0.747	-0.202	-0.179	-0.42	52.85	-5.18
28788	-0.763	-0.19	-0.211	0.35	49.14	-7.49
28808	-0.777	-0.186	-0.282	2.59	42.42	-6.51
28828	-0.79	-0.181	-0.337	3.29	42.07	-4.2
28851	-0.886	-0.173	-0.366	3.5	39.97	-2.31
28871	-0.943	-0.148	-0.458	0.56	38.71	-1.12
28894	-0.981	-0.134	-0.588	-3.36	43.47	1.89
28914	-1.061	-0.187	-0.638	-1.33	43.4	1.12
28932	-1.128	-0.261	-0.641	3.57	40.67	-0.49
28952	-1.224	-0.324	-0.63	-0.28	36.33	-5.25
28974	-1.304	-0.381	-0.676	-6.93	29.26	-10.85
28993	-1.382	-0.386	-0.728	-5.25	19.46	-11.62
29011	-1.405	-0.345	-0.767	-2.59	12.95	-11.41
29031	-1.334	-0.295	-0.856	-3.29	12.11	-12.18
29056	-1.338	-0.292	-0.919	-2.24	11.06	-10.22
29076	-1.353	-0.356	-0.913	4.2	7.07	-4.06
29094	-1.287	-0.348	-0.881	2.17	10.43	-2.73
29114	-1.216	-0.333	-0.803	-10.71	18.48	-9.66
29133	-1.298	-0.31	-0.724	-13.58	11.69	-13.86
29154	-1.273	-0.249	-0.754	-4.76	2.1	-10.78
29177	-1.161	-0.228	-0.852	-0.56	8.05	-6.16
29198	-1.078	-0.22	-0.787	-14.98	16.1	-4.76
29218	-1.073	-0.233	-0.656	-21.21	13.02	-5.74
29242	-1.068	-0.246	-0.697	-8.26	6.09	-4.55
29260	-1.03	-0.252	-0.749	-1.82	9.45	-0.77
29284	-1.013	-0.268	-0.713	-10.43	10.99	0.35
29302	-0.992	-0.259	-0.658	-13.79	6.58	-2.03
29322	-0.961	-0.249	-0.649	-14.0	0.63	-4.9
29346	-0.943	-0.226	-0.603	-13.51	-2.66	-5.32
29366	-0.951	-0.223	-0.553	-8.19	-6.51	-4.69
29386	-0.965	-0.214	-0.556	-5.11	-14.63	-3.78
29406	-0.965	-0.217	-0.602	-5.04	-19.67	-1.89
29423	-0.94	-0.23	-0.607	-4.48	-23.38	-0.84
29442	-0.921	-0.218	-0.552	-3.57	-28.63	-1.19
29467	-0.919	-0.166	-0.426	-1.75	-40.53	-0.14
29484	-0.904	-0.176	-0.375	-0.14	-51.94	0.21
29507	-0.821	-0.151	-0.297	8.47	-59.01	-0.77
29528	-0.718	-0.132	-0.226	18.83	-67.69	0.28
29548	-0.585	-0.131	-0.261	28.91	-75.18	0.63
29568	-0.44	-0.124	-0.259	37.03	-81.62	5.95
29588	-0.35	-0.111	-0.215	38.29	-78.75	7.0
29611	-0.274	-0.115	-0.191	44.1	-88.13	6.16
29630	-0.252	-0.085	-0.195	45.57	-93.03	4.34
29651	-0.276	-0.058	-0.204	39.83	-93.45	5.18
29672	-0.345	-0.081	-0.207	32.97	-91.0	4.97
29692	-0.427	-0.074	-0.228	23.1	-75.53	2.31
29712	-0.54	-0.089	-0.266	16.17	-64.75	3.29
29736	-0.708	-0.122	-0.302	7.77	-45.36	5.18
29755	-0.866	-0.215	-0.396	3.99	-29.19	5.25
29779	-1.155	-0.337	-0.405	-0.63	-3.71	3.29
29799	-1.427	-0.449	-0.325	-12.81	0.0	-3.08
29819	-1.423	-0.41	-0.263	-19.11	-5.25	-8.19
29838	-1.176	-0.231	-0.134	-19.46	-5.32	-5.81
29857	-1.009	-0.172	-0.037	-10.43	-7.49	2.24
29878	-0.792	-0.126	-0.049	9.31	-11.62	11.83
29899	-0.667	-0.136	-0.095	17.36	-13.09	16.8
29919	-0.628	-0.146	-0.149	14.98	-7.21	15.05
29939	-0.686	-0.162	-0.171	3.92	2.87	11.06
29957	-0.769	-0.183	-0.178	0.7	4.9	7.7
29977	-0.834	-0.153	-0.188	-1.89	10.43	5.74
30000	-0.996	-0.171	-0.212	-7.49	16.52	5.88
30019	-1.111	-0.25	-0.205	-7.21	19.67	4.41
30039	-1.182	-0.279	-0.219	-5.95	23.94	1.61
30059	-1.171	-0.28	-0.228	-5.88	27.58	-0.07
30079	-1.05	-0.234	-0.212	-5.04	28.98	0.07
30094	-0.928	-0.194	-0.214	-3.43	29.33	1.89
30120	-0.82	-0.16	-0.213	-0.49	31.15	5.39
30138	-0.752	-0.137	-0.21	0.98	36.4	7.28
30160	-0.711	-0.002	-0.18	-0.28	40.04	6.23
30179	-0.69	-0.1	-0.186	-2.73	37.8	4.34
30199	-0.655	-0.079	-0.27	-3.92	39.27	2.59
30219	-0.612	-0.063	-0.318	-8.47	47.53	0.7
30240	-0.553	-0.083	-0.256	-10.64	52.29	-3.01
30260	-0.468	-0.106	-0.15	1.47	44.87	-6.44
30284	-0.391	-0.102	-0.067	21.77	26.11	-6.3
30304	-0.34	-0.063	-0.133	25.06	26.46	-3.36
30324	-0.374	-0.057	-0.094	8.82	39.34	-4.55
30344	-0.549	-0.108	0.003	-3.5	31.99	-7.35
30368	-0.643	-0.111	-0.108	-4.48	10.15	-12.95
30388	-0.664	-0.038	-0.243	-6.79	14.28	-14.49
30408	-0.694	0.005	-0.408	-12.39	27.86	-10.43
30427	-0.78	-0.044	-0.43	-12.6	38.92	-4.41
30448	-0.861	-0.113	-0.458	-1.75	43.12	1.4
30470	-0.918	-0.186	-0.513	4.76	38.78	7.42
30490	-0.985	-0.278	-0.569	6.93	40.67	5.74
30513	-1.103	-0.335	-0.574	5.53	37.94	-2.24
30532	-1.17	-0.367	-0.608	7.14	36.96	-7.63
30551	-1.19	-0.337	-0.717	6.44	36.68	-8.96
30575	-1.223	-0.251	-0.678	-1.12	39.97	-5.04
30596	-1.27	-0.179	-0.661	-3.85	34.65	-3.43
30614	-1.249	-0.219	-0.665	-1.82	24.64	1.61
30639	-1.23	-0.304	-0.757	4.41	28.91	-6.79
30658	-1.266	-0.324	-0.883	-2.03	35.98	-12.32
30678	-1.375	-0.341	-0.945	-9.94	30.31	-15.47
30698	-1.351	-0.316	-0.962	-8.05	20.23	-12.88
30722	-1.264	-0.314	-0.99	-5.88	21.91	-11.55
30742	-1.247	-0.303	-0.964	-7.21	24.29	-12.32
30760	-1.293	-0.28	-0.878	-6.72	19.53	-11.83
30780	-1.254	-0.244	-0.807	-8.26	11.76	-7.77
30804	-1.183	-0.201	-0.803	-16.1	3.08	-3.43
30824	-1.113	-0.234	-0.798	-16.03	-2.94	-2.87
30843	-1.043	-0.276	-0.764	-6.86	-6.51	-4.62
30866	-1.023	-0.311	-0.79	3.64	-5.81	-5.11
30887	-1.026	-0.335	-0.806	1.96	-13.58	-3.08
30907	-0.999	-0.279	-0.771	-0.56	-14.77	-2.17
30927	-0.986	-0.219	-0.728	0.28	-18.76	-1.4
30947	-1.003	-0.199	-0.658	0.21	-22.54	0.84
30971	-1.027	-0.223	-0.663	1.61	-27.3	2.03
30990	-1.044	-0.246	-0.658	0.98	-32.76	2.17
31010	-1.037	-0.23	-0.632	3.78	-39.13	2.03
31034	-0.995	-0.236	-0.629	4.06	-41.37	2.59
31054	-0.951	-0.259	-0.544	6.09	-44.73	2.94
31073	-0.899	-0.252	-0.496	7.0	-51.73	2.52
31091	-0.83	-0.247	-0.407	6.09	-50.89	-0.21
31114	-0.751	-0.215	-0.297	8.4	-55.72	-2.1
31135	-0.598	-0.154	-0.158	12.18	-64.82	-2.52
31155	-0.439	-0.099	-0.109	20.86	-79.59	0.28
31179	-0.282	-0.055	-0.142	27.65	-91.07	3.57
31199	-0.132	-0.031	-0.169	38.08	-91.14	4.34
31214	-0.088	-0.036	-0.148	39.34	-95.9	5.18
31237	-0.145	-0.023	-0.094	30.94	-94.92	5.46
31256	-0.262	-0.008	-0.098	22.61	-94.5	5.46
31277	-0.37	-0.029	-0.137	22.4	-94.22	6.86
31297	-0.496	-0.108	-0.269	24.64	-90.79	9.03
31317	-0.597	-0.158	-0.389	16.87	-76.02	9.31
31340	-0.864	-0.233	-0.514	-17.29	-14.56	-0.84
31357	-1.179	-0.391	-0.611	-15.75	-11.97	-8.26
31376	-1.264	-0.346	-0.534	-18.83	21.98	-10.08
31401	-1.249	-0.326	-0.043	-11.48	13.58	-6.02
31421	-1.198	-0.221	0.203	-4.69	-4.69	-2.73
31441	-1.028	-0.173	0.212	8.89	-38.71	2.87
31464	-0.827	-0.173	0.058	21.7	-64.47	6.65
31487	-0.767	-0.183	-0.121	23.94	-59.85	7.21
31506	-0.803	-0.185	-0.217	17.5	-43.89	5.25
31530	-0.886	-0.171	-0.25	4.69	-17.57	3.99
31550	-0.973	-0.179	-0.163	-3.78	-6.02	1.26
31570	-1.001	-0.2	-0.061	-6.93	-3.64	-0.07
31586	-0.99	-0.199	0.016	-5.04	-6.3	-0.07
31609	-0.941	-0.173	0.039	0.63	-5.46	0.98
31629	-0.922	-0.169	-0.004	5.25	-5.04	3.43
31653	-0.934	-0.192	-0.035	5.81	-0.98	6.16
31673	-0.971	-0.211	-0.01	5.39	0.77	6.09
31693	-0.983	-0.197	-0.004	2.66	-0.42	5.04
31708	-0.963	-0.19	0.001	1.26	-3.5	3.64
31733	-0.946	-0.157	-0.061	4.48	-2.03	2.8
31752	-0.917	-0.155	-0.08	4.69	5.74	2.31
31773	-0.888	-0.15	-0.03	2.73	12.39	0.7
31792	-0.862	-0.156	0.002	-0.28	12.53	-0.77
31812	-0.832	-0.158	-0.003	-1.96	11.06	-2.52
31834	-0.754	-0.136	-0.033	-3.43	10.29	-4.13
31854	-0.645	-0.09	-0.022	-4.48	19.95	-4.2
31875	-0.558	-0.108	-0.017	-1.12	21.56	-2.45
31898	-0.427	-0.12	-0.043	5.53	24.92	-1.4
31918	-0.324	-0.118	-0.034	8.33	30.59	-2.45
31934	-0.295	-0.081	-0.041	4.76	52.99	-2.59
31958	-0.353	-0.071	-0.081	-0.49	46.34	-2.24
31978	-0.429	-0.071	-0.09	-6.37	52.01	-3.01
32002	-0.545	-0.068	-0.161	-15.4	57.68	-5.46
32023	-0.72	-0.082	-0.223	-12.32	55.44	-4.27
32041	-0.818	-0.095	-0.23	-11.41	66.01	-3.57
32061	-0.908	-0.11	-0.264	-12.53	67.41	-1.47
32086	-0.996	-0.156	-0.352	-14.21	71.89	-3.57
32105	-1.094	-0.176	-0.369	-16.52	69.23	-5.25
32128	-1.152	-0.238	-0.44	-18.62	63.14	-3.99
32144	-1.186	-0.334	-0.606	-35.35	63.91	-5.6
32169	-1.23	-0.381	-0.671	-13.3	86.38	-16.66
32189	-1.342	-0.308	-0.621	-18.48	79.8	-15.47
32205	-1.367	-0.227	-0.709	-17.5	75.46	-10.22
32230	-1.341	-0.301	-0.877	-14.7	84.84	-9.31
32248	-1.432	-0.31	-0.877	-17.01	87.36	-7.84
32267	-1.455	-0.346	-0.957	-14.84	80.22	-6.93
32293	-1.359	-0.311	-1.07	-22.05	74.69	-5.88
32312	-1.322	-0.301	-0.954	-26.67	66.64	-6.65
32335	-1.401	-0.287	-0.831	-15.19	34.72	-7.77
32354	-1.337	-0.303	-0.897	-8.19	15.19	-7.21
32377	-1.192	-0.259	-0.94	-10.08	8.05	-6.16
32398	-1.145	-0.206	-0.879	-14.0	0.7	-5.53
32415	-1.1	-0.187	-0.835	-13.02	-3.64	-6.86
32435	-1.053	-0.209	-0.774	-10.36	-9.45	-7.42
32458	-1.017	-0.247	-0.756	-9.1	-14.84	-9.24
32477	-1.037	-0.274	-0.788	-8.12	-18.83	-7.84
32502	-1.05	-0.28	-0.785	-5.53	-21.63	-7.84
32519	-1.076	-0.247	-0.775	-0.21	-26.95	-6.58
32540	-1.075	-0.258	-0.752	6.23	-34.23	-4.34
32564	-1.056	-0.263	-0.699	7.49	-40.88	-0.49
32584	-1.057	-0.285	-0.584	9.1	-49.98	-2.17
32604	-1.048	-0.249	-0.456	11.27	-60.9	-3.99
32622	-1.025	-0.191	-0.371	14.21	-66.43	-5.95
32646	-0.966	-0.195	-0.315	15.96	-71.75	-7.56
32666	-0.86	-0.167	-0.305	15.68	-65.52	-10.22
32685	-0.69	-0.132	-0.273	16.66	-66.01	-12.18
32703	-0.512	-0.066	-0.213	22.26	-71.33	-14.35
32725	-0.454	-0.058	-0.139	26.32	-97.02	-2.8
32747	-0.235	-0.096	-0.092	38.92	-110.53	0.42
32768	-0.168	-0.097	-0.069	44.38	-115.08	2.94
32787	-0.13	-0.101	-0.078	48.79	-114.31	4.2
32807	-0.145	-0.118	-0.049	50.26	-115.08	5.32
32822	-0.116	-0.123	-0.159	37.1	-103.88	5.81
32847	-0.262	-0.137	-0.203	14.7	-81.41	4.27
32867	-0.515	-0.162	-0.224	8.75	-58.87	1.26
32885	-0.76	-0.176	-0.292	7.0	-46.13	0.49
32909	-0.961	-0.203	-0.479	-3.85	-5.25	-1.89
32929	-1.351	-0.335	-0.478	-11.06	26.74	-8.47
32948	-1.347	-0.346	-0.109	-6.02	17.01	-7.7
32968	-1.268	-0.281	0.247	9.38	-14.77	0.56
32992	-1.106	-0.264	0.106	26.39	-37.17	10.43
33012	-0.901	-0.23	-0.052	31.43	-38.64	13.58
33032	-0.768	-0.21	-0.088	30.24	-29.4	8.68
33052	-0.797	-0.155	-0.006	17.08	-21.49	2.45
33069	-0.895	-0.124	-0.006	9.03	-11.62	0.91
33089	-1.021	-0.134	-0.016	3.5	-0.84	2.73
33109	-1.013	-0.195	-0.078	2.03	2.87	4.41
33129	-0.95	-0.238	-0.138	2.52	4.2	3.36
33153	-0.897	-0.255	-0.138	4.34	10.01	2.52
33173	-0.883	-0.268	-0.082	5.74	16.87	4.2
33189	-0.913	-0.274	-0.005	12.39	16.73	5.11
33208	-1.019	-0.227	0.1	15.12	13.58	3.85
33228	-1.081	-0.198	0.021	16.31	13.65	5.53
33254	-1.079	-0.197	-0.05	18.2	1.68	6.93
33271	-1.025	-0.2	-0.05	19.67	-5.67	7.63
33291	-0.976	-0.207	-0.042	17.78	-1.89	7.14
33315	-0.953	-0.186	-0.071	10.5	5.11	3.43
33335	-0.892	-0.172	-0.087	1.26	12.46	0.77
33352	-0.834	-0.171	-0.078	-1.68	13.44	-1.12
33376	-0.799	-0.173	-0.101	-1.26	12.74	-3.57
33396	-0.763	-0.18	-0.124	-0.84	15.68	-4.83
33411	-0.731	-0.193	-0.146	-2.52	20.09	-6.09
33436	-0.675	-0.193	-0.138	-3.92	26.32	-9.17
33457	-0.579	-0.138	-0.102	-8.96	28.49	-12.39
33476	-0.468	-0.062	-0.063	-18.2	32.2	-15.82
33501	-0.406	0.084	-0.142	-40.95	48.86	-14.49
33520	-0.335	0.151	-0.426	-38.57	82.74	-7.7
33540	-0.223	0.013	-0.383	-30.38	92.82	-2.24
33556	-0.17	-0.071	-0.058	-27.3	93.94	-1.54
33579	-0.3	-0.056	0.095	-23.94	82.18	-3.64
33600	-0.572	-0.094	-0.003	-27.79	55.72	-5.95
33620	-0.757	-0.174	-0.293	-26.74	56.98	-17.92
33635	-0.931	-0.212	-0.378	-26.88	70.77	-24.99
33660	-1.18	-0.201	-0.304	-20.65	55.58	-17.08
33677	-1.383	-0.29	-0.399	-16.24	30.31	-12.95
33697	-1.355	-0.306	-0.605	-18.62	21.77	-9.03
33718	-1.238	-0.304	-0.763	-25.76	34.02	-4.13
33739	-1.169	-0.349	-0.736	-24.64	46.55	-1.89
33763	-1.109	-0.382	-0.697	-11.97	56.21	-9.24
33783	-1.113	-0.273	-0.672	-4.83	59.15	-12.39
33801	-1.213	-0.278	-0.726	-5.25	58.73	-11.62
33826	-1.201	-0.396	-0.795	-6.93	58.87	-12.18
33845	-1.223	-0.404	-0.742	-10.99	44.24	-17.57
33861	-1.291	-0.384	-0.833	-11.69	29.19	-19.32
33881	-1.281	-0.385	-0.934	-7.91	20.51	-17.08
33904	-1.239	-0.338	-0.888	-5.81	21.07	-12.95
33925	-1.25	-0.337	-0.839	-7.28	12.95	-6.16
33945	-1.256	-0.331	-0.966	-6.37	8.54	-2.52
33963	-1.192	-0.272	-0.966	-8.68	13.37	-2.31
33985	-1.212	-0.252	-0.802	-12.32	6.23	-0.63
34002	-1.189	-0.283	-0.762	-9.87	-7.77	-1.4
34027	-1.12	-0.319	-0.814	-5.74	-16.24	-4.48
34046	-1.083	-0.328	-0.772	-3.99	-16.87	-7.98
34066	-1.101	-0.296	-0.732	-5.81	-23.59	-10.01
34089	-1.074	-0.28	-0.817	-8.19	-23.24	-6.44
34109	-1.031	-0.295	-0.825	-9.24	-9.87	-4.06
34130	-1.009	-0.286	-0.62	-9.73	-14.07	-1.82
34150	-1.042	-0.308	-0.52	-4.48	-29.12	1.05
34169	-1.069	-0.303	-0.563	0.77	-37.31	6.3
34195	-1.077	-0.268	-0.554	12.32	-48.37	8.89
34214	-1.0	-0.205	-0.419	11.62	-53.41	11.97
34232	-0.917	-0.192	-0.392	7.0	-52.99	10.78
34256	-0.791	-0.141	-0.388	6.44	-47.39	6.3
34276	-0.656	-0.092	-0.28	5.04	-48.02	6.44
34291	-0.425	-0.086	-0.187	4.9	-45.15	2.94
34315	-0.282	-0.07	-0.165	12.53	-78.26	6.58
34335	-0.111	-0.064	-0.113	20.51	-82.6	6.3
34355	-0.04	-0.089	-0.051	25.9	-83.93	4.69
34379	-0.085	-0.098	-0.024	34.16	-90.23	5.6
34396	-0.13	-0.131	0.016	43.05	-94.36	7.07
34416	-0.265	-0.16	-0.04	41.3	-92.68	8.4
34436	-0.494	-0.181	-0.149	35.49	-83.09	9.03
34459	-0.676	-0.148	-0.303	23.87	-61.81	10.57
34480	-1.01	-0.148	-0.511	10.92	-27.65	7.35
34499	-1.251	-0.265	-0.598	-5.95	2.31	1.12
34522	-1.499	-0.336	-0.575	-13.72	22.19	-5.18
34542	-1.273	-0.304	-0.222	-11.97	9.38	-3.99
34562	-1.182	-0.279	0.068	-1.61	-7.56	-0.28
34582	-1.045	-0.216	0.159	13.23	-36.26	4.62
34606	-0.854	-0.193	0.075	27.23	-57.47	8.61
34626	-0.71	-0.193	-0.01	39.9	-66.92	7.7
34647	-0.674	-0.161	-0.169	34.93	-50.68	7.14
34665	-0.793	-0.15	-0.393	19.46	-7.7	5.18
34683	-0.914	-0.146	-0.363	1.05	23.59	2.87
34703	-0.978	-0.17	-0.241	-13.58	33.95	-1.26
34727	-0.999	-0.196	-0.122	-16.38	26.6	-2.73
34747	-0.995	-0.205	-0.056	-10.08	17.92	-1.26
34767	-0.974	-0.204	-0.059	-4.9	13.58	0.98
34787	-0.917	-0.207	-0.098	-0.49	11.69	2.03
34807	-0.857	-0.191	-0.193	-0.28	14.42	2.52
34826	-0.781	-0.186	-0.237	-2.17	19.88	2.17
34851	-0.711	-0.183	-0.234	-0.49	28.98	0.49
34871	-0.672	-0.171	-0.236	1.54	33.39	-0.77
34891	-0.634	-0.168	-0.217	-0.7	37.03	-3.08
34913	-0.612	-0.131	-0.14	-3.78	38.15	-6.79
34935	-0.575	-0.098	-0.052	-11.83	31.99	-8.89
34955	-0.534	-0.072	-0.009	-12.67	19.81	-8.12
34975	-0.499	-0.081	-0.024	-8.68	12.18	-6.37
34991	-0.462	-0.105	-0.078	-0.42	11.41	-5.25
35015	-0.461	-0.13	-0.124	2.03	15.05	-6.93
35031	-0.462	-0.112	-0.114	-4.69	17.36	-8.75
35054	-0.51	-0.07	-0.18	-9.45	18.55	-8.54
35073	-0.612	-0.076	-0.301	-9.66	22.96	-6.44
35093	-0.743	-0.123	-0.369	-3.99	24.57	-5.25
35115	-0.908	-0.15	-0.343	-7.49	33.81	-3.64
35134	-1.075	-0.134	-0.366	-13.51	35.07	-0.35
35158	-1.213	-0.182	-0.509	-17.85	35.7	0.77
35173	-1.275	-0.249	-0.602	-20.02	36.26	2.45
35198	-1.37	-0.267	-0.595	-22.75	43.68	0.14
35216	-1.35	-0.307	-0.511	-21.7	46.69	-3.22
35236	-1.367	-0.391	-0.526	-6.79	38.85	-3.99
35256	-1.277	-0.419	-0.591	7.84	36.54	-8.05
35277	-1.227	-0.338	-0.625	3.22	46.34	-11.48
35301	-1.341	-0.317	-0.636	-7.21	35.49	-6.3
35321	-1.454	-0.354	-0.72	-10.29	22.68	-1.47
35340	-1.431	-0.34	-0.81	-8.61	20.65	1.61
35360	-1.285	-0.293	-0.836	-14.14	23.24	-1.19
35380	-1.329	-0.303	-0.748	-15.82	22.96	-6.93
35399	-1.39	-0.291	-0.638	-6.44	10.08	-5.74
35425	-1.317	-0.258	-0.719	1.4	-2.24	-2.59
35443	-1.243	-0.248	-0.727	-1.61	-3.78	-1.82
35466	-1.18	-0.268	-0.707	-4.55	-5.67	-2.03
35485	-1.15	-0.302	-0.662	-4.55	-8.54	-3.22
35508	-1.137	-0.297	-0.623	-4.55	-13.58	-4.06
35529	-1.139	-0.296	-0.619	-2.87	-18.9	-3.85
35549	-1.118	-0.264	-0.615	3.36	-20.65	-4.41
35568	-1.132	-0.257	-0.565	4.13	-22.68	-2.45
35590	-1.156	-0.287	-0.518	6.86	-27.93	-3.15
35610	-1.145	-0.289	-0.465	8.61	-33.67	-4.76
35630	-1.143	-0.295	-0.43	10.85	-40.81	-7.07
35650	-1.111	-0.265	-0.406	12.25	-46.62	-7.91
35673	-1.078	-0.239	-0.361	16.8	-52.36	-5.11
35693	-0.989	-0.224	-0.277	21.91	-54.81	-4.48
35712	-0.857	-0.18	-0.17	23.17	-56.7	-7.0
35731	-0.75	-0.13	-0.071	23.24	-62.37	-6.58
35756	-0.598	-0.096	-0.063	27.37	-79.66	-2.17
35773	-0.408	-0.075	-0.115	32.48	-84.84	2.24
35797	-0.233	-0.049	-0.113	37.8	-86.45	9.03
35817	-0.153	-0.042	-0.028	45.78	-104.02	13.65
35837	-0.046	-0.04	-0.027	51.45	-107.59	15.75
35858	-0.011	-0.051	-0.087	51.03	-102.48	15.75
35877	-0.081	-0.031	-0.168	41.16	-82.39	14.21
35895	-0.287	-0.018	-0.208	30.8	-59.5	13.79
35920	-0.448	-0.085	-0.199	17.5	-4.69	3.57
35938	-0.916	-0.148	-0.261	10.71	4.13	-0.7
35958	-1.435	-0.386	-0.473	-11.41	54.46	-4.34
35978	-1.629	-0.535	-0.469	-10.85	57.12	-15.54
36001	-1.348	-0.34	0.031	-7.77	30.1	-11.9
36025	-1.325	-0.316	0.331	-2.1	-5.46	0.14
36045	-1.08	-0.209	0.298	19.95	-34.65	10.15
36065	-0.805	-0.194	0.149	36.89	-46.76	16.8
36084	-0.687	-0.179	-0.0	41.09	-44.45	15.68
36108	-0.712	-0.123	-0.176	26.18	-21.49	11.55
36126	-0.813	-0.105	-0.22	14.49	3.64	7.98
36150	-0.935	-0.113	-0.147	0.84	24.36	2.1
36170	-1.034	-0.172	-0.058	-2.8	24.85	-1.4
36188	-1.041	-0.211	0.0	-1.82	16.38	-3.57
36208	-1.047	-0.218	0.026	-2.17	7.35	-3.36
36228	-1.066	-0.207	0.022	-2.17	5.18	-1.19
36247	-1.056	-0.212	0.011	-0.35	4.13	0.7
36272	-1.015	-0.207	-0.006	3.15	1.54	3.22
36291	-0.948	-0.196	-0.064	6.02	2.45	4.62
36308	-0.902	-0.194	-0.096	5.53	6.09	4.76
36328	-0.886	-0.191	-0.095	3.5	11.27	3.15
36351	-0.897	-0.198	-0.08	-0.28	15.26	-0.07
36371	-0.893	-0.208	-0.076	-2.52	15.89	-3.57
36395	-0.877	-0.223	-0.075	-4.48	17.57	-8.05
36415	-0.876	-0.229	-0.083	-10.71	17.08	-11.55
36436	-0.822	-0.206	-0.116	-14.35	16.38	-15.12
36460	-0.755	-0.173	-0.003	-21.91	20.93	-16.38
36480	-0.718	-0.137	-0.092	-29.54	19.53	-16.31
36500	-0.666	-0.076	-0.123	-35.98	17.64	-14.98
36516	-0.605	-0.048	-0.122	-42.56	21.14	-14.07
36539	-0.583	-0.036	-0.061	-46.76	23.17	-13.23
36559	-0.564	-0.053	-0.056	-41.37	18.76	-12.39
36577	-0.53	-0.142	-0.107	-27.16	20.16	-7.63
36601	-0.532	-0.216	-0.129	-12.04	23.31	-7.56
36621	-0.578	-0.241	-0.12	-11.2	24.99	-14.35
36636	-0.622	-0.215	-0.096	-19.95	25.62	-20.23
36660	-0.669	-0.189	-0.101	-26.25	22.12	-23.1
36680	-0.72	-0.167	-0.168	-17.01	22.26	-20.65
36701	-0.834	-0.173	-0.307	-8.47	27.72	-14.14
36717	-0.903	-0.183	-0.305	-7.21	31.85	-7.77
36737	-1.017	-0.206	-0.267	-12.6	34.93	-2.17
36761	-1.103	-0.205	-0.36	-12.32	36.96	2.17
36780	-1.148	-0.257	-0.517	-7.28	42.84	6.65
36802	-1.148	-0.252	-0.506	-11.06	51.87	9.31
36821	-1.194	-0.26	-0.475	-12.6	50.96	10.22
36841	-1.338	-0.244	-0.531	-7.91	49.35	12.81
36860	-1.381	-0.238	-0.525	-11.62	49.28	15.54
36878	-1.383	-0.267	-0.558	-21.14	48.72	11.06
36901	-1.348	-0.298	-0.635	-30.38	42.42	1.89
36922	-1.366	-0.35	-0.74	-36.75	37.24	-6.23
36942	-1.392	-0.403	-0.802	-34.44	37.17	-12.88
36966	-1.384	-0.5	-0.853	-30.59	38.36	-12.53
36984	-1.408	-0.311	-0.837	-27.16	39.06	-8.47
37006	-1.38	-0.276	-0.815	-28.35	33.81	-1.89
37024	-1.348	-0.292	-0.713	-27.79	25.76	-2.03
37045	-1.292	-0.289	-0.668	-23.87	14.49	-4.83
37067	-1.237	-0.281	-0.636	-17.29	1.26	-6.86
37088	-1.199	-0.269	-0.67	-16.24	-5.25	-7.07
37110	-1.155	-0.278	-0.705	-17.5	-7.49	-7.42
37131	-1.139	-0.272	-0.68	-17.36	-9.31	-8.54
37151	-1.139	-0.267	-0.621	-9.94	-15.54	-6.51
37175	-1.13	-0.28	-0.6	2.38	-22.68	-3.01
37194	-1.108	-0.306	-0.576	10.36	-28.7	-2.03
37215	-1.086	-0.332	-0.499	17.22	-35.0	-3.15
37234	-1.043	-0.32	-0.408	19.46	-39.83	-6.93
37253	-0.878	-0.288	-0.316	20.79	-47.25	-9.1
37276	-0.893	-0.225	-0.225	25.62	-60.41	-9.24
37295	-0.737	-0.192	-0.223	28.98	-66.5	-10.36
37312	-0.638	-0.19	-0.213	32.83	-73.29	-10.5
37332	-0.438	-0.15	-0.174	40.39	-72.66	-10.78
37356	-0.317	-0.14	-0.098	46.76	-79.45	-9.31
37371	-0.261	-0.136	-0.082	48.86	-84.91	-6.44
37393	-0.192	-0.111	-0.082	50.4	-89.39	-0.42
37412	-0.178	-0.12	-0.11	51.03	-94.15	2.24
37431	-0.19	-0.108	-0.142	49.77	-98.28	6.37
37451	-0.273	-0.095	-0.178	40.18	-87.22	6.93
37471	-0.384	-0.082	-0.184	29.54	-71.26	5.81
37495	-0.578	-0.09	-0.191	24.57	-53.06	1.82
37515	-0.842	-0.094	-0.315	12.18	-40.04	-1.05
37535	-1.296	-0.267	-0.501	-8.89	12.32	-5.81
37554	-1.473	-0.504	-0.467	-14.35	31.57	-11.97
37579	-1.386	-0.427	-0.129	-11.97	15.33	-5.32
37599	-1.19	-0.374	0.177	-3.5	-13.86	-0.84
37623	-0.973	-0.269	0.258	16.03	-42.35	5.67
37641	-0.785	-0.24	0.171	30.52	-55.16	12.81
37665	-0.652	-0.254	0.007	40.81	-57.33	14.7
37685	-0.695	-0.219	-0.145	30.59	-35.35	12.25
37705	-0.841	-0.212	-0.148	17.01	-7.0	9.38
37722	-0.95	-0.211	-0.098	7.28	5.6	4.97
37746	-1.036	-0.229	-0.055	1.4	10.08	0.49
37766	-1.004	-0.24	-0.068	3.36	9.1	-0.14
37782	-0.962	-0.244	-0.05	2.52	12.95	0.84
37806	-0.953	-0.254	-0.007	3.36	12.67	2.8
37826	-0.946	-0.251	0.002	4.2	15.61	3.5
37846	-0.952	-0.25	0.02	5.74	16.52	3.57
37870	-0.938	-0.224	-0.018	6.16	15.05	2.66
37893	-0.919	-0.205	-0.07	4.27	16.8	1.75
37915	-0.891	-0.189	-0.1	-0.35	22.89	0.21
37935	-0.849	-0.151	-0.106	-5.53	29.89	-1.96
37953	-0.789	-0.111	-0.105	-10.01	34.44	-2.38
37977	-0.709	-0.098	-0.136	-12.32	40.32	-1.68
37996	-0.588	-0.11	-0.164	-9.1	44.1	-1.12
38015	-0.479	-0.123	-0.172	-4.41	46.13	-0.49
38035	-0.393	-0.126	-0.128	-3.57	50.75	-0.91
38056	-0.34	-0.109	-0.051	-1.33	49.35	-1.54
38080	-0.299	-0.08	-0.016	1.75	44.31	-0.98
38100	-0.293	-0.05	-0.007	5.25	36.47	1.12
38120	-0.336	-0.093	-0.045	8.12	28.84	0.49
38140	-0.501	-0.134	-0.054	6.65	23.52	-1.89
38165	-0.676	-0.146	-0.069	3.08	26.32	-2.66
38184	-0.862	-0.165	-0.113	-0.77	32.9	-6.23
38204	-0.993	-0.189	-0.256	-7.0	32.83	-5.88
38224	-1.103	-0.203	-0.515	-3.57	50.89	-3.71
38248	-1.212	-0.245	-0.422	-10.85	56.77	6.09
38268	-1.237	-0.13	-0.36	-18.41	44.87	5.53
38285	-1.327	-0.221	-0.497	-24.15	40.11	2.1
38309	-1.451	-0.196	-0.619	-29.47	59.22	7.35
38329	-1.563	-0.192	-0.496	-23.73	58.45	15.82
38345	-1.479	-0.272	-0.587	-11.27	47.74	9.1
38366	-1.406	-0.448	-0.834	-5.32	42.56	-3.5
38389	-1.393	-0.503	-0.848	-8.89	48.93	-16.66
38409	-1.469	-0.466	-0.674	-18.76	41.79	-22.89
38431	-1.494	-0.444	-0.751	-11.69	31.64	-25.97
38450	-1.428	-0.409	-0.799	-6.23	28.35	-22.47
38470	-1.38	-0.336	-0.761	-8.75	23.59	-18.76
38490	-1.393	-0.31	-0.73	-6.65	14.84	-14.84
38509	-1.34	-0.282	-0.713	-4.55	8.4	-12.04
38528	-1.261	-0.265	-0.741	-6.09	4.76	-9.73
38548	-1.203	-0.254	-0.734	-6.51	2.66	-8.4
38567	-1.16	-0.255	-0.694	-4.76	0.21	-8.61
38591	-1.105	-0.275	-0.639	-3.29	-3.36	-10.57
38611	-1.075	-0.283	-0.614	-3.01	-7.21	-11.9
38631	-1.065	-0.276	-0.608	-4.2	-9.24	-12.04
38649	-1.062	-0.286	-0.57	-7.07	-14.98	-11.62
38673	-0.993	-0.273	-0.554	-2.73	-16.45	-12.25
38692	-0.948	-0.266	-0.476	-3.64	-15.82	-14.0
38709	-0.921	-0.27	-0.412	-4.83	-20.51	-14.28
38733	-0.915	-0.271	-0.432	-2.31	-27.93	-13.09
38753	-0.857	-0.25	-0.416	0.84	-27.79	-11.9
38775	-0.794	-0.225	-0.298	5.32	-27.09	-10.85
38797	-0.709	-0.185	-0.155	11.13	-32.83	-10.15
38817	-0.544	-0.126	-0.1	16.1	-43.19	-7.49
38837	-0.435	-0.089	-0.122	25.13	-55.09	-1.54
38857	-0.332	-0.087	-0.17	35.49	-59.85	3.5
38877	-0.244	-0.064	-0.165	38.85	-58.1	6.16
38893	-0.244	-0.043	-0.134	36.4	-63.42	10.5
38913	-0.269	-0.004	-0.124	32.34	-64.4	13.79
38933	-0.337	-0.039	-0.142	29.4	-63.14	14.07
38957	-0.435	-0.095	-0.153	22.12	-57.19	8.96
38975	-0.691	-0.197	-0.211	17.99	-56.49	5.67
38995	-0.862	-0.2	-0.34	10.36	-49.07	3.15
39019	-1.034	-0.195	-0.624	-0.42	-22.12	0.28
39036	-1.13	-0.286	-0.596	-14.07	-6.51	-3.22
39056	-1.141	-0.373	-0.422	-23.31	-3.01	-3.57
39075	-1.14	-0.393	-0.133	-21.7	-1.19	-5.32
39100	-1.072	-0.388	0.039	-3.36	-21.7	-3.71
39118	-0.948	-0.327	-0.013	18.13	-32.2	-1.61
39138	-0.868	-0.27	-0.141	32.27	-36.96	2.38
39157	-0.811	-0.234	-0.221	38.08	-32.9	6.44
39182	-0.829	-0.203	-0.279	36.89	-19.46	9.31
39200	-0.891	-0.173	-0.272	28.98	-7.56	8.96
39222	-0.97	-0.162	-0.196	19.04	-2.8	7.56
39240	-0.978	-0.152	-0.182	12.95	-3.64	3.99
39260	-0.961	-0.167	-0.178	7.42	-3.85	1.05
39284	-0.948	-0.211	-0.171	8.47	-1.96	-0.56
39304	-0.943	-0.247	-0.164	10.64	-0.07	-0.42
39324	-0.935	-0.262	-0.158	10.36	0.77	-1.05
39344	-0.936	-0.274	-0.162	9.8	1.75	-1.61
39362	-0.952	-0.271	-0.158	9.94	3.78	-1.68
39384	-0.946	-0.283	-0.153	10.22	4.83	-2.03
39404	-0.939	-0.281	-0.148	9.24	5.32	-2.17
39427	-0.94	-0.281	-0.152	6.37	6.23	-2.38
39447	-0.944	-0.273	-0.167	3.78	8.05	-2.73
39464	-0.936	-0.29	-0.162	3.85	9.31	-2.8
39483	-0.932	-0.315	-0.151	4.76	8.68	-3.22
39504	-0.923	-0.346	-0.146	4.69	8.68	-4.27
39528	-0.91	-0.363	-0.138	4.13	10.08	-6.16
39548	-0.941	-0.377	-0.138	3.71	6.58	-7.07
39568	-0.907	-0.356	-0.157	7.21	4.83	-8.12
39584	-0.947	-0.324	-0.173	8.19	5.32	-7.07
39608	-0.933	-0.327	-0.187	7.0	3.92	-6.44
39625	-0.947	-0.305	-0.179	4.34	5.11	-7.28
39646	-0.974	-0.287	-0.163	3.92	5.88	-7.84
39670	-0.975	-0.281	-0.177	3.92	4.55	-6.79
39687	-0.956	-0.273	-0.197	2.38	3.08	-5.95
39705	-0.94	-0.279	-0.202	1.26	2.17	-5.18
39730	-0.928	-0.285	-0.201	0.91	2.17	-4.2
39753	-0.923	-0.29	-0.189	-0.42	1.47	-3.57
39774	-0.915	-0.299	-0.197	-1.75	1.19	-3.36
39793	-0.909	-0.306	-0.199	-3.78	2.17	-3.71
39813	-0.913	-0.329	-0.186	-5.39	2.66	-4.62
39837	-0.915	-0.343	-0.175	-6.09	0.7	-6.65
39857	-0.928	-0.35	-0.173	-6.44	-1.26	-7.98
39875	-0.929	-0.356	-0.188	-8.75	-2.87	-9.17
39895	-0.933	-0.362	-0.182	-12.67	-4.62	-10.64
39914	-0.936	-0.362	-0.187	-15.68	-5.39	-11.97
39939	-0.939	-0.356	-0.197	-15.89	-5.53	-12.18
39960	-0.931	-0.35	-0.198	-15.26	-6.44	-11.76
39978	-0.922	-0.354	-0.197	-15.75	-7.14	-11.83
40000	-0.92	-0.365	-0.188	-17.15	-7.91	-11.13
40019	-0.899	-0.363	-0.198	-16.1	-9.73	-11.41
40044	-0.92	-0.346	-0.177	-12.81	-7.77	-9.17
40061	-0.936	-0.378	-0.201	-11.97	-10.29	-8.05
40078	-0.914	-0.377	-0.195	-10.99	-9.03	-7.84
40098	-0.936	-0.382	-0.183	-8.12	-6.3	-7.49
40123	-0.941	-0.369	-0.168	-5.67	-6.44	-5.88
40139	-0.933	-0.37	-0.173	-4.76	-6.93	-4.97
40158	-0.912	-0.374	-0.188	-2.87	-7.49	-4.76
40178	-0.905	-0.383	-0.187	-0.35	-6.37	-4.48
40203	-0.901	-0.376	-0.175	0.07	-4.55	-4.27
40224	-0.894	-0.372	-0.176	0.77	-3.64	-3.36
40242	-0.889	-0.367	-0.18	2.8	-2.52	-2.45
40262	-0.887	-0.371	-0.185	4.55	-1.54	-1.19
40282	-0.894	-0.376	-0.192	7.0	-0.21	0.14
40302	-0.898	-0.379	-0.192	9.45	1.82	0.77
40326	-0.901	-0.379	-0.193	11.76	4.9	1.4
40345	-0.901	-0.392	-0.194	13.58	6.23	1.96
40365	-0.907	-0.392	-0.202	15.61	6.16	2.45
40389	-0.905	-0.387	-0.219	16.59	6.86	2.8
40408	-0.899	-0.373	-0.248	16.73	8.75	3.29
40429	-0.91	-0.367	-0.265	14.28	11.13	3.15
40447	-0.91	-0.366	-0.274	13.58	12.88	2.59
40471	-0.922	-0.359	-0.263	14.07	13.86	3.15
40492	-0.902	-0.385	-0.259	15.33	12.11	2.31
40511	-0.901	-0.386	-0.212	17.78	14.35	3.15
40531	-0.911	-0.393	-0.225	18.55	8.82	1.68
40550	-0.851	-0.375	-0.232	16.1	5.81	0.21
40567	-0.861	-0.361	-0.242	12.67	6.09	-1.05
40590	-0.889	-0.361	-0.241	10.22	4.76	-2.31
40610	-0.906	-0.362	-0.271	6.93	2.45	-1.96
40626	-0.903	-0.372	-0.281	1.75	-0.35	-1.96
40651	-0.899	-0.363	-0.279	-7.14	-3.71	-1.82
40675	-0.892	-0.35	-0.273	-10.29	-6.51	0.63
40693	-0.881	-0.349	-0.27	-11.13	-8.75	3.5
40712	-0.885	-0.363	-0.267	-11.34	-9.87	5.95
40737	-0.881	-0.373	-0.277	-13.3	-11.76	8.68
40757	-0.886	-0.372	-0.266	-14.35	-11.97	10.36
40777	-0.915	-0.363	-0.266	-15.54	-13.79	12.04
40797	-0.918	-0.333	-0.262	-17.5	-14.56	14.84
40821	-0.909	-0.299	-0.235	-19.81	-13.93	17.57
40840	-0.917	-0.261	-0.205	-23.45	-14.14	19.11
40860	-0.955	-0.202	-0.192	-29.4	-17.15	21.77
40880	-0.997	-0.184	-0.197	-34.16	-16.8	23.8
40904	-1.055	-0.164	-0.174	-34.44	-12.88	23.87
40924	-1.082	-0.141	-0.136	-31.29	-9.52	24.99
40945	-1.095	-0.133	-0.081	-31.29	-7.42	24.36
40963	-1.082	-0.188	-0.07	-30.66	-15.89	20.44
40983	-1.039	-0.184	-0.131	-25.13	-15.05	14.98
41004	-1.043	-0.233	-0.165	-17.99	-14.84	7.84
41028	-1.006	-0.208	-0.129	-13.44	-11.2	3.78
41048	-0.992	-0.176	-0.084	-13.58	-7.35	3.36
41069	-0.968	-0.159	-0.025	-15.68	-8.82	2.31
41086	-0.95	-0.175	0.028	-14.42	-15.96	0.91
41108	-0.921	-0.185	-0.01	-6.65	-23.59	17.85
41127	-0.93	-0.209	-0.057	1.89	-23.52	-0.28
41151	-0.95	-0.232	-0.082	9.87	-17.01	-0.28
41172	-0.972	-0.245	-0.082	16.1	-10.01	-1.05
41196	-0.956	-0.219	-0.075	18.76	-2.94	-3.29
41214	-0.938	-0.183	-0.076	21.21	0.14	-3.64
41237	-0.928	-0.176	-0.124	26.6	2.52	-1.54
41258	-0.929	-0.179	-0.203	30.38	4.27	-1.68
41278	-0.93	-0.185	-0.234	24.57	11.9	-5.6
41298	-0.936	-0.179	-0.196	12.39	17.71	-12.95
41317	-0.911	-0.143	-0.103	3.57	17.01	-14.28
41338	-0.942	-0.212	-0.13	8.89	13.3	-11.76
41357	-0.959	-0.25	-0.101	16.24	10.78	-9.87
41381	-1.071	-0.289	-0.116	18.48	10.15	-11.34
41401	-1.093	-0.353	-0.106	19.25	10.85	-15.89
41420	-1.106	-0.367	-0.102	16.24	7.0	-18.27
41440	-1.036	-0.309	-0.151	12.25	3.64	-16.31
41460	-0.942	-0.253	-0.205	6.37	3.36	-7.77
41479	-0.898	-0.263	-0.212	-0.28	6.44	-1.75
41499	-0.899	-0.21	-0.142	-5.81	13.23	1.75
41523	-0.887	-0.164	-0.18	-12.6	17.5	6.93
41543	-0.845	-0.132	-0.248	-22.89	18.76	10.15
41559	-0.837	-0.137	-0.255	-29.61	17.92	11.27
41578	-0.886	-0.127	-0.225	-37.03	14.28	10.43
41603	-0.954	-0.162	-0.243	-21.7	7.0	9.52
41622	-0.972	-0.266	-0.222	2.45	7.98	9.8
41646	-1.104	-0.475	-0.115	20.3	15.47	3.22
41671	-1.304	-0.478	-0.161	46.83	-14.07	-5.88
41689	-1.28	-0.362	-0.215	48.65	-25.13	-9.52
41709	-1.228	-0.267	-0.195	46.62	-31.43	-8.82
41732	-1.154	-0.194	-0.146	41.09	-37.59	-1.54
41754	-1.089	-0.117	-0.122	34.09	-42.49	7.63
41773	-0.979	-0.09	-0.113	34.02	-41.58	12.25
41792	-0.873	-0.051	-0.16	31.08	-36.33	11.76
41816	-0.845	0.028	-0.143	24.01	-30.52	17.5
41835	-0.784	0.061	-0.102	16.66	-26.32	16.87
41854	-0.805	0.074	-0.169	8.68	-13.02	14.56
41874	-0.817	0.053	-0.095	-0.7	-7.28	10.92
41893	-0.873	-0.031	-0.054	-8.68	-10.15	7.0
41918	-0.905	0.002	-0.197	-11.06	-2.24	3.15
41935	-0.974	-0.02	-0.164	-15.19	5.74	1.19
41957	-0.971	-0.017	-0.126	-20.72	2.24	-1.19
41977	-0.992	-0.061	-0.164	-19.46	2.87	-3.57
42001	-1.002	-0.055	-0.159	-12.46	7.35	-3.64
42022	-1.004	-0.128	-0.084	-4.41	4.13	-4.06
42041	-0.96	-0.136	-0.094	0.49	1.96	-4.48
42059	-0.952	-0.186	-0.119	5.95	-1.61	-6.72
42082	-0.953	-0.313	-0.167	19.88	-3.57	-8.96
42103	-0.89	-0.516	-0.307	24.29	19.11	-12.25
42123	-0.89	-0.642	-0.142	4.76	30.66	-20.72
42142	-0.919	-0.571	-0.027	-3.08	17.08	-24.36
42160	-0.936	-0.517	-0.081	-5.6	4.55	-21.63
42185	-0.978	-0.45	-0.081	-11.34	-3.43	-16.52
42203	-1.056	-0.431	-0.008	-8.96	-8.89	-11.55
42223	-1.097	-0.445	-0.022	-6.16	-13.37	-7.42
42246	-1.054	-0.467	0.0	-1.33	-18.34	-5.95
42265	-0.966	-0.458	-0.019	3.78	-23.66	-6.58
42285	-0.89	-0.427	-0.04	6.44	-27.44	-9.1
42309	-0.807	-0.405	-0.061	6.02	-30.31	-13.44
42330	-0.771	-0.382	-0.028	-3.08	-33.39	-18.76
42346	-0.737	-0.368	-0.038	-10.36	-30.94	-22.26
42365	-0.716	-0.386	0.021	-16.17	-36.89	-25.83
42389	-0.687	-0.402	-0.031	-12.32	-36.12	-25.2
42408	-0.717	-0.476	-0.037	-11.9	-35.63	-25.13
42429	-0.796	-0.529	0.057	-7.63	-34.09	-26.74
42449	-0.904	-0.545	-0.016	6.16	-32.83	-25.76
42465	-1.027	-0.541	-0.041	10.08	-28.42	-22.96
42489	-1.155	-0.536	-0.009	5.67	-26.39	-21.91
42506	-1.342	-0.455	0.015	4.34	-28.98	-20.65
42529	-1.491	-0.301	-0.126	7.84	-15.96	-13.72
42549	-1.363	-0.105	-0.134	7.35	3.92	-8.4
42569	-1.102	-0.06	0.066	11.83	4.48	1.61
42589	-0.852	-0.091	0.134	21.21	-6.44	9.94
42613	-0.695	-0.084	0.055	15.54	-13.65	13.16
42633	-0.725	-0.109	0.079	4.97	-15.19	7.84
42653	-0.807	-0.137	0.089	-2.8	-16.59	0.28
42672	-0.937	-0.119	0.024	-5.88	-13.86	-5.39
42692	-1.09	-0.098	-0.055	-11.83	-5.46	-8.12
42716	-1.117	-0.092	-0.085	-20.51	2.66	-7.21
42736	-1.136	-0.108	-0.04	-23.52	1.54	-3.36
42755	-1.129	-0.129	-0.013	-23.03	-2.1	4.55
42776	-1.096	-0.16	-0.033	-21.56	0.7	13.72
42800	-1.049	-0.178	-0.005	-18.97	3.29	21.07
42820	-1.023	-0.211	0.021	-15.82	5.74	24.36
42840	-0.978	-0.231	-0.015	-12.18	9.8	24.08
42860	-0.947	-0.227	-0.066	-10.43	18.41	22.96
42877	-0.925	-0.231	-0.077	-7.35	24.22	22.4
42902	-0.918	-0.305	-0.027	-2.66	29.68	20.37
42918	-0.955	-0.407	0.024	0.35	29.75	19.25
42937	-0.98	-0.486	-0.033	9.31	26.18	17.64
42957	-0.951	-0.553	-0.098	15.26	29.12	15.47
42980	-0.945	-0.664	-0.071	19.46	32.83	9.59
43000	-0.925	-0.687	-0.066	25.34	32.48	3.78
43020	-0.942	-0.56	-0.001	29.96	31.57	-0.77
43044	-0.941	-0.414	0.014	37.52	25.76	0.49
43064	-0.876	-0.334	0.013	41.09	21.98	2.38
43081	-0.834	-0.291	0.025	37.24	20.37	2.31
43099	-0.842	-0.262	0.04	25.76	20.86	0.42
43120	-0.881	-0.259	0.059	14.91	13.93	-3.64
43143	-0.879	-0.245	0.02	7.0	5.04	-7.98
43160	-0.848	-0.275	-0.052	-2.87	-0.7	-10.64
43180	-0.788	-0.273	-0.068	-17.99	3.71	-13.02
43204	-0.887	-0.261	0.079	-30.52	-2.24	-16.66
43225	-0.944	-0.135	0.04	-31.29	-12.18	-7.63
43242	-0.867	-0.257	-0.078	-40.74	-13.09	4.62
43260	-0.865	-0.389	-0.037	-44.38	-10.71	10.92
43285	-1.01	-0.392	-0.054	-45.71	-15.26	17.15
43304	-1.275	-0.342	-0.208	-52.29	-16.03	27.09
43324	-1.478	-0.374	-0.432	-54.11	-5.46	37.24
43342	-1.118	-0.409	-0.218	-33.6	14.84	31.29
43360	-1.043	-0.325	0.088	-5.53	6.65	31.5
43381	-0.953	-0.328	0.068	-1.05	-9.94	17.01
43402	-0.845	-0.159	0.021	-3.43	-23.03	7.14
43426	-0.776	-0.12	-0.266	-9.38	-25.62	3.36
43446	-0.78	-0.115	-0.307	-35.49	-7.84	7.91
43466	-0.921	-0.16	-0.174	-22.12	6.51	9.03
43485	-1.052	-0.209	-0.055	-21.7	11.69	7.21
43505	-1.145	-0.26	-0.021	-19.95	0.35	2.87
43530	-1.095	-0.214	-0.066	-16.45	-10.71	-2.38
43549	-0.992	-0.178	-0.11	-11.13	-12.67	0.21
43567	-0.915	-0.207	-0.137	-6.44	-10.29	0.98
43590	-0.847	-0.226	-0.183	-3.15	0.77	-2.03
43610	-0.857	-0.219	-0.127	3.36	10.36	-6.23
43626	-0.882	-0.251	-0.112	8.33	14.35	-8.68
43651	-0.932	-0.252	-0.18	15.4	19.88	-10.78
43668	-1.027	-0.253	-0.172	18.76	23.45	-12.6
43687	-0.997	-0.29	-0.157	24.71	28.35	-15.05
43707	-0.896	-0.335	-0.121	33.53	27.37	-15.89
43733	-0.858	-0.388	-0.104	44.8	21.56	-12.46
43751	-0.857	-0.408	-0.141	44.94	17.85	-7.7
43767	-0.93	-0.367	-0.147	33.11	15.33	-4.62
43791	-1.019	-0.34	-0.16	16.17	10.57	-1.82
43809	-1.103	-0.253	-0.107	7.42	9.1	0.28
43829	-1.179	-0.185	-0.125	4.62	6.44	6.09
43848	-1.179	-0.17	-0.137	5.04	3.29	13.79
43873	-1.133	-0.227	-0.084	7.77	0.42	21.21
43889	-1.082	-0.315	-0.047	10.29	-7.49	19.39
43912	-0.961	-0.343	-0.061	11.13	-18.9	11.97
43931	-0.891	-0.34	-0.086	8.12	-21.0	4.06
43953	-0.839	-0.342	-0.093	5.88	-20.65	-4.62
43973	-0.772	-0.381	-0.102	2.8	-19.25	-10.43
43993	-0.794	-0.38	-0.067	-1.12	-20.58	-13.65
44010	-0.823	-0.382	-0.078	-2.87	-21.98	-15.19
44030	-0.815	-0.38	-0.048	-3.64	-20.3	-17.57
44053	-0.821	-0.348	-0.06	-2.87	-24.43	-16.52
44071	-0.795	-0.369	-0.125	1.19	-27.51	-15.89
44089	-0.78	-0.422	-0.104	0.84	-26.39	-13.58
44114	-0.79	-0.447	-0.054	-6.65	-25.06	-14.63
44133	-0.906	-0.427	-0.081	-3.43	-21.77	-14.84
44154	-0.982	-0.457	-0.038	0.07	-15.68	-19.6
44178	-1.1	-0.422	-0.027	-1.75	-20.09	-24.29
44197	-1.142	-0.401	-0.086	-7.77	-19.25	-28.91
44221	-1.151	-0.328	-0.081	-10.36	-13.02	-28.77
44242	-1.11	-0.27	-0.136	-10.57	-9.73	-24.78
44260	-1.045	-0.192	-0.087	-5.25	-4.2	-20.09
44281	-1.069	-0.095	-0.063	2.38	-5.25	-11.34
44300	-1.181	-0.005	-0.26	6.44	7.28	-1.26
44325	-1.237	0.046	-0.165	6.02	25.69	10.15
44344	-1.127	0.01	0.065	4.69	26.46	14.14
44364	-1.006	-0.061	0.169	6.3	8.68	14.77
44388	-0.847	-0.132	0.065	10.85	-5.74	12.74
44406	-0.813	-0.149	-0.007	10.57	-8.54	7.28
44430	-0.87	-0.121	-0.032	5.88	-14.91	0.14
44450	-0.933	-0.07	-0.071	1.68	-14.98	-6.65
44470	-1.045	-0.013	-0.134	-4.9	-9.8	-9.24
44487	-1.184	0.029	-0.178	-4.48	-2.87	-8.61
44510	-1.212	0.024	-0.154	-9.31	3.85	-6.3
44530	-1.196	-0.014	-0.123	-10.43	-1.54	-3.36
44554	-1.107	-0.034	-0.12	-10.85	-7.84	0.42
44574	-1.073	-0.006	-0.083	-11.2	-9.31	4.62
44594	-1.033	0.009	-0.054	-9.31	-10.36	8.47
44613	-1.029	0.019	-0.052	-10.57	-10.08	10.99
44636	-1.047	0.013	-0.048	-13.72	-11.48	12.18
44656	-1.055	0.031	-0.098	-9.52	-11.06	11.69
44677	-1.008	-0.028	-0.065	-8.26	-6.16	13.51
44697	-0.987	-0.096	-0.048	-6.3	-7.07	15.47
44721	-0.956	-0.176	-0.073	-5.46	-3.15	16.31
44741	-0.971	-0.316	-0.015	-7.07	1.4	14.91
44764	-0.96	-0.376	-0.01	-3.99	3.15	13.93
44785	-0.927	-0.427	-0.045	3.57	9.38	12.53
44802	-0.894	-0.527	-0.04	12.04	16.17	9.45
44822	-0.899	-0.582	-0.017	18.2	21.42	5.53
44846	-0.9	-0.538	-0.036	15.75	20.65	-0.42
44864	-0.932	-0.483	-0.02	10.57	21.07	-3.43
44884	-0.935	-0.447	-0.003	15.82	22.82	-5.81
44901	-0.921	-0.41	0.038	28.77	27.23	-2.8
44922	-0.876	-0.373	0.016	37.38	28.35	-0.7
44945	-0.823	-0.345	-0.039	32.06	28.42	1.54
44966	-0.863	-0.339	-0.032	17.85	32.62	-6.86
44985	-0.953	-0.307	-0.006	9.17	28.35	-12.67
45006	-0.955	-0.304	-0.012	3.08	20.09	-17.71
45025	-0.972	-0.305	-0.024	-0.07	11.41	-19.6
45042	-0.939	-0.32	-0.069	-5.32	-0.28	-18.2
45061	-0.935	-0.325	-0.099	-13.23	-3.78	-15.4
45086	-0.973	-0.332	-0.08	-18.13	-6.23	-12.6
45105	-0.995	-0.3	-0.098	-11.76	-13.3	-9.52
45126	-0.97	-0.302	-0.154	-10.01	-14.42	-4.62
45146	-0.888	-0.305	-0.124	-12.25	-19.6	-1.54
45162	-0.93	-0.276	-0.113	-17.15	-20.37	0.49
45182	-0.959	-0.251	-0.142	-22.33	-18.69	2.38
45202	-1.015	-0.269	-0.191	-19.81	-12.46	3.15
45226	-1.044	-0.285	-0.277	-14.42	7.98	7.56
45241	-1.001	-0.353	-0.185	-7.35	14.49	10.01
45265	-0.96	-0.358	-0.073	2.66	25.83	7.07
45285	-0.91	-0.325	0.007	10.01	19.39	5.6
45305	-0.841	-0.325	-0.014	11.13	8.05	2.8
45329	-0.845	-0.329	-0.069	10.5	0.49	-1.54
45349	-0.849	-0.346	-0.16	10.57	0.42	-4.83
45369	-0.871	-0.37	-0.203	11.27	8.19	-7.84
45388	-0.958	-0.377	-0.16	8.96	12.32	-10.01
45407	-1.026	-0.375	-0.135	7.56	12.11	-11.13
45427	-1.047	-0.347	-0.116	8.82	9.87	-9.94
45447	-1.037	-0.317	-0.127	11.97	8.47	-7.7
45471	-1.017	-0.324	-0.14	13.51	8.47	-4.69
45492	-0.985	-0.332	-0.125	13.86	7.21	-2.17
45511	-0.953	-0.326	-0.125	14.49	5.88	0.0
45532	-0.922	-0.362	-0.12	14.7	3.5	2.94
45552	-0.899	-0.365	-0.122	17.15	-1.89	3.43
45576	-0.904	-0.368	-0.13	16.73	-0.84	4.9
45596	-0.915	-0.392	-0.131	15.54	-3.01	5.46
45612	-0.9	-0.393	-0.145	14.91	-3.71	5.32
45636	-0.917	-0.39	-0.128	12.46	-1.05	6.58
45656	-0.929	-0.395	-0.096	10.92	-2.24	7.0
45672	-0.942	-0.386	-0.097	10.92	-3.78	7.42
45696	-0.919	-0.422	-0.11	11.48	-6.23	8.75
45716	-0.9	-0.454	-0.109	10.92	-7.84	8.19
45732	-0.905	-0.459	-0.1	12.11	-9.1	7.07
45751	-0.891	-0.465	-0.087	12.95	-10.99	6.44
45776	-0.861	-0.446	-0.1	12.46	-8.82	4.76
45795	-0.87	-0.415	-0.102	11.76	-7.07	4.41
45815	-0.873	-0.398	-0.082	10.71	-7.35	4.34
45839	-0.855	-0.399	-0.077	8.96	-8.68	4.55
45855	-0.844	-0.43	-0.093	9.45	-9.24	3.57
45874	-0.856	-0.436	-0.085	7.07	-10.71	1.4
45896	-0.864	-0.444	-0.051	3.22	-14.56	-2.24
45915	-0.866	-0.416	-0.046	0.77	-18.27	-5.25
45939	-0.889	-0.369	-0.045	-3.01	-23.94	-7.49
45959	-0.913	-0.311	-0.081	-3.71	-25.2	-7.42
45978	-0.97	-0.24	-0.115	-5.81	-21.63	-4.48
46000	-1.047	-0.224	-0.193	-11.2	-14.42	-3.36
46017	-1.059	-0.163	-0.261	-9.24	2.52	-1.61
46035	-1.07	-0.157	-0.216	-6.16	14.42	2.8
46054	-1.101	-0.113	-0.165	0.28	20.58	6.65
46077	-1.13	-0.049	-0.166	4.69	22.4	15.19
46101	-1.12	-0.057	0.006	7.07	19.53	14.77
46121	-1.106	0.009	0.075	7.21	4.13	14.98
46140	-1.016	0.035	-0.037	6.02	-8.47	13.16
46164	-0.941	0.061	-0.135	1.96	-11.9	12.46
46184	-0.986	0.032	-0.171	-4.97	-9.17	10.85
46203	-1.082	0.024	-0.238	-8.96	1.61	9.59
46224	-1.144	0.009	-0.175	-10.08	7.56	9.94
46243	-1.156	-0.004	-0.112	-11.9	4.27	9.17
46268	-1.119	-0.001	-0.114	-16.1	-3.15	6.3
46288	-1.082	0.049	-0.121	-23.94	-5.46	5.25
46308	-1.043	0.081	-0.127	-29.89	-5.53	5.11
46327	-0.982	0.055	-0.131	-33.32	-4.97	5.04
46350	-0.94	0.015	-0.113	-35.21	-5.67	2.1
46370	-0.949	0.013	-0.101	-34.93	-8.47	-1.96
46394	-0.963	0.002	-0.091	-29.33	-8.26	-4.55
46414	-0.976	-0.048	-0.1	-24.22	-8.47	-7.7
46432	-1.011	-0.031	-0.118	-26.74	-8.75	-10.92
46452	-1.052	0.01	-0.115	-31.92	-13.02	-13.79
46476	-1.08	0.061	-0.133	-32.27	-5.39	-12.04
46495	-1.105	0.013	-0.084	-32.06	-5.88	-9.45
46516	-1.1	-0.006	-0.043	-34.3	-10.57	-10.43
46534	-1.105	-0.002	-0.069	-30.66	-12.39	-11.9
46554	-1.113	-0.005	-0.082	-24.57	-14.21	-12.25
46577	-1.077	-0.011	-0.103	-19.39	-16.24	-11.69
46600	-1.047	-0.017	-0.084	-18.13	-16.59	-9.03
46624	-1.019	-0.036	-0.11	-16.03	-16.31	-5.46
46643	-0.992	-0.069	-0.152	-15.82	-10.71	-3.22
46665	-1.008	-0.113	-0.148	-14.84	0.56	4.41
46683	-0.995	-0.191	-0.1	-6.72	6.37	10.08
46704	-0.954	-0.266	-0.043	8.96	5.67	14.84
46724	-0.891	-0.328	-0.061	14.77	5.25	16.87
46744	-0.849	-0.402	-0.051	17.57	5.81	15.12
46764	-0.866	-0.462	-0.074	19.25	4.06	11.41
46782	-0.889	-0.435	-0.109	21.56	1.68	6.79
46806	-0.906	-0.405	-0.136	20.58	7.07	2.17
46826	-0.948	-0.41	-0.097	15.61	10.57	-3.64
46843	-1.008	-0.375	-0.075	9.73	8.75	-8.96
46866	-1.011	-0.325	-0.082	6.51	5.6	-12.95
46888	-0.965	-0.346	-0.034	9.94	2.73	-15.54
46907	-0.958	-0.386	-0.019	11.2	-2.87	-18.34
46927	-0.901	-0.387	-0.081	10.15	-2.1	-21.28
46947	-0.867	-0.347	-0.119	5.25	-1.61	-23.45
46970	-0.998	-0.263	-0.117	1.47	5.11	-20.93
46989	-0.931	-0.276	-0.058	3.71	2.66	-17.5
47013	-0.915	-0.364	0.006	6.65	-8.12	-16.66
47032	-0.88	-0.436	-0.062	4.55	-12.18	-19.6
47052	-0.87	-0.458	-0.1	-2.24	-5.81	-23.31
47072	-0.896	-0.456	-0.072	-4.76	-3.08	-23.8
47096	-0.909	-0.4	-0.056	-0.77	-4.69	-16.8
47115	-0.942	-0.357	-0.068	0.56	-5.46	-13.23
47136	-0.965	-0.335	-0.093	0.42	-5.04	-8.33
47156	-0.965	-0.323	-0.17	2.03	-2.52	-1.96
47175	-0.971	-0.352	-0.166	2.66	5.32	3.08
47200	-1.009	-0.302	-0.149	5.04	13.51	10.64
47221	-1.007	-0.285	-0.145	3.64	15.05	15.47
47240	-0.971	-0.321	-0.134	2.24	16.52	14.91
47260	-0.949	-0.34	-0.11	6.02	20.02	12.18
47277	-0.938	-0.354	-0.085	11.48	18.2	10.01
47296	-0.897	-0.358	-0.094	13.23	14.49	7.35
47315	-0.868	-0.355	-0.099	11.97	12.53	5.25
47341	-0.91	-0.36	-0.088	12.53	10.78	5.6
47358	-0.953	-0.402	-0.091	13.72	4.62	6.02
47377	-0.918	-0.397	-0.116	14.77	0.77	4.76
47402	-0.929	-0.383	-0.12	13.58	-2.66	4.2
47421	-0.94	-0.369	-0.073	15.54	-5.53	3.64
47441	-0.964	-0.329	-0.111	17.01	-5.67	4.97
47458	-0.991	-0.335	-0.122	16.24	-3.5	8.12
47478	-0.986	-0.353	-0.124	12.81	-2.38	11.76
47500	-0.958	-0.37	-0.098	11.48	-4.55	14.21
47517	-0.935	-0.364	-0.082	11.83	-6.93	14.77
47537	-0.915	-0.387	-0.056	12.67	-9.1	14.56
47557	-0.894	-0.399	-0.064	14.28	-10.5	12.67
47580	-0.878	-0.417	-0.084	15.96	-10.36	10.5
47604	-0.851	-0.418	-0.09	15.19	-8.75	7.56
47622	-0.854	-0.426	-0.077	13.02	-5.25	5.95
47647	-0.887	-0.433	-0.035	12.39	-1.96	4.27
47664	-0.901	-0.424	-0.025	12.18	-3.01	3.99
47688	-0.887	-0.422	-0.026	11.9	-4.69	3.92
47707	-0.867	-0.424	-0.049	10.5	-6.09	4.55
47728	-0.876	-0.423	-0.055	10.36	-6.02	4.48
47748	-0.931	-0.362	-0.08	7.21	-7.77	4.13
47767	-0.973	-0.324	-0.101	3.43	-8.05	3.08
47790	-1.0	-0.287	-0.111	6.23	-3.15	1.96
47809	-1.002	-0.258	-0.108	14.42	6.93	2.52
47832	-1.05	-0.19	-0.248	16.94	9.1	3.29
47851	-1.062	-0.02	-0.355	13.79	23.52	11.41
47870	-1.11	0.06	-0.181	17.01	29.54	22.05
47889	-1.157	0.093	-0.009	20.09	28.42	23.17
47909	-1.237	0.143	-0.033	22.96	10.71	29.33
47933	-1.181	0.083	-0.149	10.08	0.84	27.37
47951	-1.15	0.05	-0.195	-14.84	0.7	14.14
47975	-1.168	0.049	-0.187	-28.77	4.62	2.17
47996	-1.114	0.095	-0.127	-38.64	2.17	1.54
48014	-1.045	0.118	-0.082	-40.6	-2.31	4.97
48038	-0.969	0.08	-0.05	-38.5	-8.96	8.89
48058	-0.912	0.032	-0.082	-33.25	-15.68	10.64
48074	-0.854	-0.009	-0.117	-24.71	-14.49	11.97
48098	-0.859	-0.044	-0.116	-15.89	-7.28	14.98
48117	-0.904	-0.047	-0.12	-7.56	-2.1	16.45
48134	-0.925	-0.021	-0.113	-3.5	-0.56	16.1
48157	-0.966	0.033	-0.103	-2.17	-0.28	14.49
48177	-1.013	0.063	-0.102	-3.64	-1.4	12.18
48200	-1.041	0.055	-0.121	-6.02	-1.68	7.7
48220	-1.058	0.041	-0.127	-9.24	-2.59	3.22
48244	-1.061	0.03	-0.118	-12.46	-3.01	-0.91
48264	-1.058	0.039	-0.078	-14.21	-3.08	-4.34
48284	-1.041	0.044	-0.045	-16.17	-7.35	-6.65
48304	-1.038	0.018	-0.084	-17.22	-14.56	-9.38
48323	-0.98	0.039	-0.122	-14.14	-12.32	-11.55
48347	-1.006	0.026	-0.094	-11.55	-10.92	-13.37
48367	-1.01	0.007	-0.083	-10.22	-13.09	-13.86
48388	-1.002	0.008	-0.098	-10.29	-13.44	-15.05
48406	-1.005	0.064	-0.064	-12.39	-13.3	-16.66
48427	-1.02	0.086	-0.046	-14.07	-14.42	-18.34
48450	-1.002	0.077	-0.064	-16.66	-16.17	-19.46
48469	-0.995	0.089	-0.06	-19.39	-16.87	-22.19
48492	-0.988	0.116	-0.049	-22.61	-15.19	-25.62
48513	-0.995	0.122	-0.034	-27.23	-11.48	-27.65
48532	-1.016	0.105	-0.03	-29.47	-11.06	-27.16
48552	-1.021	0.067	-0.028	-28.42	-11.06	-27.72
48576	-1.016	0.023	-0.02	-21.98	-12.88	-26.04
48595	-1.002	-0.023	-0.022	-17.08	-12.88	-22.89
48619	-0.999	-0.092	-0.033	-14.91	-11.27	-20.58
48638	-1.025	-0.117	-0.049	-11.27	-6.51	-19.18
48659	-0.999	-0.111	-0.039	-5.46	-4.83	-14.07
48679	-1.022	-0.18	-0.096	12.53	-3.15	-8.47
48694	-1.071	-0.34	-0.243	26.53	10.99	-2.24
48719	-1.14	-0.442	-0.245	24.64	32.06	-0.14
48739	-1.142	-0.397	-0.16	12.88	28.63	-5.39
48759	-1.066	-0.337	-0.072	4.2	23.03	-3.92
48780	-0.936	-0.353	-0.047	8.26	9.8	0.77
48798	-0.878	-0.387	-0.08	17.99	4.9	4.34
48820	-0.853	-0.386	-0.098	29.96	5.04	4.27
48839	-0.865	-0.422	-0.121	28.56	5.39	-0.56
48864	-0.911	-0.418	-0.145	19.11	8.75	-10.01
48884	-0.949	-0.321	-0.111	13.37	8.82	-10.15
48903	-0.949	-0.311	-0.069	14.0	10.08	-10.29
48921	-0.923	-0.34	-0.047	16.45	10.64	-10.99
48944	-0.892	-0.395	-0.053	15.19	7.35	-13.93
48961	-0.869	-0.412	-0.065	11.76	4.9	-18.27
48981	-0.862	-0.398	-0.052	6.23	3.78	-22.61
49000	-0.863	-0.357	-0.025	2.87	0.21	-25.27
49021	-0.855	-0.34	-0.058	1.75	-4.13	-25.55
49045	-0.871	-0.347	-0.086	1.26	-5.74	-23.38
49065	-0.933	-0.366	-0.109	-3.01	-1.47	-22.12
49084	-0.97	-0.356	-0.088	-9.24	0.49	-21.42
49104	-0.972	-0.362	-0.084	-10.36	-1.33	-19.67
49128	-0.97	-0.366	-0.091	-9.73	-3.85	-16.52
49146	-0.974	-0.377	-0.088	-8.54	-6.16	-14.14
49166	-0.971	-0.375	-0.082	-6.93	-6.65	-11.62
49190	-0.955	-0.389	-0.067	-2.66	-7.91	-9.73
49208	-0.94	-0.39	-0.081	1.19	-6.93	-7.7
49228	-0.922	-0.378	-0.087	4.83	-5.74	-5.53
49252	-0.909	-0.375	-0.08	5.46	-4.13	-4.76
49272	-0.904	-0.377	-0.088	5.39	-3.01	-4.69
49291	-0.909	-0.382	-0.088	6.58	-1.96	-3.71
49311	-0.912	-0.391	-0.103	8.05	-0.84	-3.22
49332	-0.9	-0.377	-0.091	10.71	2.1	-1.82
49352	-0.914	-0.385	-0.094	11.27	4.06	-0.7
49370	-0.913	-0.41	-0.092	12.39	5.6	-0.84
49390	-0.932	-0.427	-0.086	14.77	6.51	-1.82
49410	-0.943	-0.434	-0.069	17.85	6.09	-2.24
49433	-0.959	-0.4	-0.065	19.74	6.3	-0.49
49456	-0.953	-0.389	-0.085	20.79	6.44	2.52
49478	-0.936	-0.398	-0.094	22.61	6.51	6.65
49497	-0.926	-0.396	-0.085	25.69	6.02	9.1
49516	-0.909	-0.392	-0.073	29.54	4.27	10.57
49536	-0.906	-0.379	-0.083	33.74	3.01	11.69
49559	-0.918	-0.377	-0.087	34.79	2.38	13.23
49577	-0.929	-0.367	-0.092	34.16	2.03	14.56
49601	-0.944	-0.344	-0.071	31.01	2.03	16.45
49621	-0.962	-0.335	-0.043	26.11	0.56	18.97
49636	-0.957	-0.346	-0.039	23.73	-1.61	20.09
49661	-0.937	-0.354	-0.049	20.58	-4.69	20.02
49678	-0.926	-0.361	-0.048	17.85	-5.95	19.25
49701	-0.918	-0.389	-0.02	14.77	-6.37	18.69
49722	-0.903	-0.417	-0.013	12.39	-7.77	14.56
49737	-0.888	-0.431	-0.006	11.27	-8.33	12.04
49762	-0.874	-0.421	-0.017	10.5	-9.1	9.1
49782	-0.865	-0.427	-0.028	8.75	-6.16	7.56
49802	-0.892	-0.453	-0.013	5.25	-5.18	7.0
49826	-0.888	-0.447	-0.02	6.51	-6.58	4.55
49846	-0.875	-0.436	-0.038	9.17	-5.11	4.27
49865	-0.862	-0.436	-0.031	9.17	-3.78	4.97
49889	-0.862	-0.418	-0.011	8.05	-4.2	2.8
49909	-0.911	-0.378	0.025	0.0	-8.12	0.56
49929	-0.937	-0.338	0.039	-4.9	-13.09	-1.89
49949	-0.978	-0.271	0.007	-9.73	-17.85	-2.52
49967	-1.019	-0.216	-0.066	-12.32	-17.29	-0.84
49989	-1.053	-0.173	-0.131	-9.8	-9.73	2.03
50008	-1.053	-0.156	-0.117	-4.41	-0.84	3.71
50032	-1.041	-0.167	-0.069	-0.42	3.43	5.25
50047	-1.071	-0.096	-0.107	2.8	3.92	6.93
50072	-1.142	-0.011	-0.132	9.17	8.4	17.99
50092	-1.109	-0.037	-0.039	11.55	14.49	26.39
50110	-1.096	-0.066	0.046	10.29	13.37	25.06
50133	-1.033	-0.036	0.024	12.25	0.7	15.26
50154	-0.921	0.062	-0.074	12.11	-2.59	13.58
50172	-0.923	0.096	-0.124	4.83	0.0	13.51
50192	-0.999	0.06	-0.126	1.19	6.23	13.16
50215	-1.081	0.048	-0.07	-0.56	8.96	12.95
50236	-1.112	0.062	-0.095	-9.1	8.61	12.53
50254	-1.086	0.074	-0.099	-14.07	8.82	11.27
50278	-1.051	0.041	-0.079	-15.05	6.37	9.52
50293	-1.028	0.034	-0.088	-13.37	5.32	8.68
50317	-1.043	0.018	-0.068	-14.0	2.03	5.46
50337	-1.017	0.042	-0.089	-16.52	1.19	3.5
50357	-1.018	0.02	-0.098	-16.66	1.4	2.52
50381	-1.022	0.012	-0.079	-13.3	2.24	0.77
50401	-1.052	0.026	-0.079	-12.95	3.43	-2.87
50416	-1.083	0.038	-0.083	-17.71	2.45	-6.37
50441	-1.101	0.046	-0.122	-20.23	0.07	-10.08
50460	-1.088	0.066	-0.117	-19.95	-1.4	-10.43
50481	-1.056	0.073	-0.1	-17.99	-5.04	-10.57
50500	-1.019	0.072	-0.101	-16.94	-7.56	-11.13
50525	-1.006	0.055	-0.119	-18.06	-6.86	-11.48
50541	-1.009	0.022	-0.132	-15.4	-4.83	-11.41
50565	-1.04	-0.021	-0.138	-12.67	-5.04	-10.15
50584	-1.06	-0.069	-0.15	-11.27	-5.53	-10.78
50602	-1.076	-0.081	-0.157	-11.9	-2.03	-12.32
50626	-1.091	-0.067	-0.102	-11.83	1.12	-12.53
50647	-1.055	-0.08	-0.073	-6.23	2.03	-9.1
50665	-0.975	-0.117	-0.086	-0.7	2.03	-2.8
50684	-0.898	-0.164	-0.081	8.26	3.64	1.61
50707	-0.866	-0.244	-0.038	14.98	4.2	5.88
50725	-0.909	-0.31	-0.006	17.64	-0.21	7.56
50745	-0.921	-0.399	-0.046	15.68	-3.57	3.15
50765	-0.943	-0.399	-0.088	11.48	-4.9	-5.11
50788	-1.017	-0.358	-0.099	6.51	-0.98	-10.64
50807	-1.062	-0.356	-0.044	1.26	0.0	-13.65
50826	-1.046	-0.354	-0.007	-5.74	-3.43	-17.43
50850	-0.983	-0.32	0.012	-10.71	-6.86	-21.42
50869	-0.92	-0.369	-0.041	-10.01	-6.79	-22.47
50890	-0.891	-0.41	-0.032	-7.35	-2.38	-24.43
50913	-0.87	-0.411	-0.04	-7.14	0.84	-27.86
50933	-0.855	-0.395	-0.007	-8.19	0.35	-30.17
50957	-0.85	-0.351	-0.044	-7.91	0.63	-30.03
50976	-0.854	-0.358	-0.091	-7.56	4.13	-30.03
50997	-0.85	-0.407	-0.126	-6.72	7.91	-29.89
51016	-0.844	-0.428	-0.08	-8.47	10.29	-30.66
51035	-0.87	-0.417	-0.029	-9.03	8.68	-30.17
51057	-0.917	-0.42	-0.063	-3.78	7.07	-29.47
51077	-0.918	-0.46	-0.056	-3.01	4.97	-28.63
51101	-0.935	-0.425	-0.073	-0.35	4.13	-25.48
51121	-0.958	-0.394	-0.056	5.04	2.59	-20.93
51141	-0.969	-0.371	-0.077	10.43	1.89	-14.28
51165	-0.937	-0.363	-0.131	14.63	2.17	-6.58
51185	-0.902	-0.369	-0.191	15.47	5.88	-1.75
51202	-0.9	-0.349	-0.098	11.97	10.92	1.19
51226	-0.983	-0.322	-0.086	9.03	11.13	5.6
51246	-0.981	-0.321	-0.109	6.23	11.2	7.91
51267	-0.966	-0.354	-0.104	2.52	11.27	6.3
51286	-0.962	-0.362	-0.13	3.15	9.1	5.46
51306	-0.931	-0.37	-0.13	4.83	9.8	5.32
51326	-0.915	-0.418	-0.119	5.67	9.38	5.11
51350	-0.881	-0.427	-0.092	8.68	8.61	3.08
51371	-0.883	-0.427	-0.078	9.59	5.32	0.98
51390	-0.899	-0.417	-0.053	12.6	2.17	-0.28
51407	-0.91	-0.398	-0.087	15.19	0.35	0.49
51431	-0.917	-0.389	-0.102	16.1	-0.21	2.8
51451	-0.952	-0.393	-0.1	13.37	0.7	3.85
51466	-0.987	-0.404	-0.106	12.6	-0.77	3.64
51492	-0.959	-0.395	-0.128	15.4	-1.96	4.76
51509	-0.916	-0.388	-0.115	16.1	-0.84	7.0
51531	-0.913	-0.404	-0.063	12.67	-0.56	9.1
51550	-0.915	-0.414	-0.067	12.6	-3.36	9.45
51573	-0.909	-0.427	-0.079	15.47	-2.1	10.36
51593	-0.909	-0.441	-0.077	18.48	-2.45	10.78
51612	-0.886	-0.445	-0.087	18.83	-2.31	9.73
51636	-0.88	-0.444	-0.078	19.04	-1.05	8.12
51659	-0.872	-0.437	-0.07	19.39	1.33	9.31
51677	-0.87	-0.444	-0.056	17.29	3.15	9.87
51697	-0.896	-0.447	-0.036	16.87	3.15	9.66
51721	-0.9	-0.441	-0.041	17.43	1.82	10.29
51741	-0.901	-0.45	-0.079	18.69	2.8	12.46
51761	-0.892	-0.464	-0.102	17.57	4.13	13.93
51778	-0.88	-0.472	-0.06	14.98	4.34	14.35
51801	-0.874	-0.467	-0.009	14.7	0.28	13.65
51822	-0.87	-0.458	-0.051	16.52	-3.43	14.28
51842	-0.87	-0.422	-0.08	17.08	-2.73	15.05
51861	-0.858	-0.404	-0.049	12.6	-3.92	15.47
51881	-0.877	-0.383	0.016	7.07	-6.58	16.24
51904	-0.9	-0.355	-0.035	3.71	-11.34	16.8
51925	-0.96	-0.317	-0.075	-1.68	-12.32	15.54
51944	-1.015	-0.226	-0.118	-3.92	-8.19	16.73
51964	-1.048	-0.158	-0.156	-1.68	0.49	21.7
51983	-1.058	-0.189	-0.103	1.12	5.25	26.46
52007	-1.086	-0.157	-0.132	3.43	-1.33	26.39
52028	-1.106	-0.056	-0.233	5.74	-1.4	28.0
52051	-1.099	0.03	-0.176	14.14	10.64	32.9
52075	-1.113	0.082	-0.017	22.54	11.34	34.86
52095	-1.097	0.119	-0.044	25.06	-4.27	34.51
52113	-1.004	0.127	-0.143	17.99	-8.68	32.27
52134	-0.959	0.111	-0.208	3.01	-6.93	23.31
52156	-0.996	0.154	-0.17	-6.65	-0.56	17.43
52177	-1.052	0.162	-0.105	-14.77	5.81	14.49
52197	-1.057	0.096	-0.154	-24.85	4.9	9.73
52221	-0.993	0.14	-0.167	-28.84	2.94	5.04
52240	-1.0	0.138	-0.207	-26.18	4.2	4.9
52263	-0.971	0.101	-0.196	-25.83	6.3	6.65
52284	-0.98	0.037	-0.145	-26.6	3.99	4.27
52304	-1.015	0.053	-0.103	-25.34	0.98	1.61
52319	-1.042	0.066	-0.148	-26.81	-2.03	-0.49
52339	-1.04	0.1	-0.17	-26.18	-0.91	-3.78
52364	-1.028	0.092	-0.217	-28.21	0.91	-5.25
52382	-1.056	0.098	-0.145	-26.18	0.0	-6.16
52405	-1.055	0.067	-0.114	-27.93	-5.18	-8.19
52423	-1.056	0.062	-0.133	-27.44	-10.29	-10.78
52443	-1.056	0.083	-0.117	-24.15	-11.41	-12.25
52464	-1.041	0.09	-0.109	-24.99	-13.02	-10.99
52486	-1.016	0.094	-0.146	-30.8	-12.39	-10.85
52509	-1.019	0.158	-0.153	-35.0	-6.16	-10.36
52526	-1.039	0.172	-0.18	-39.55	-2.03	-9.66
52550	-1.02	0.165	-0.167	-40.88	-5.74	-8.75
52569	-0.994	0.099	-0.091	-40.32	-10.08	-13.09
52592	-1.042	0.108	-0.059	-37.1	-17.57	-16.94
52610	-1.085	0.15	-0.087	-30.87	-20.09	-16.45
52634	-1.053	-0.063	-0.248	-26.04	-11.62	-13.72
52651	-1.018	-0.184	-0.266	-27.72	-2.87	-17.99
52671	-1.03	-0.211	-0.154	-23.45	0.49	-24.85
52691	-0.982	-0.139	-0.067	-14.21	-0.14	-22.47
52714	-0.929	-0.168	0.035	3.92	-4.34	-13.86
52738	-0.914	-0.27	0.035	18.41	-8.61	-1.82
52757	-0.926	-0.371	-0.03	24.71	-6.79	0.84
52778	-0.978	-0.419	-0.122	23.03	1.82	-2.73
52796	-1.01	-0.407	-0.12	21.63	8.47	-5.53
52820	-0.999	-0.396	-0.09	23.24	12.67	-8.05
52840	-1.035	-0.405	-0.052	20.16	14.56	-12.53
52860	-1.075	-0.383	-0.015	16.66	12.18	-35.63
52879	-1.007	-0.362	-0.019	17.36	4.69	-24.99
52904	-0.911	-0.33	-0.033	16.59	-2.66	-32.2
52924	-0.82	-0.319	-0.079	13.86	-3.36	-34.58
52949	-0.779	-0.341	-0.093	10.36	0.98	-34.37
52968	-0.785	-0.36	-0.05	1.89	1.05	-34.79
52987	-0.83	-0.373	-0.044	-3.99	-0.35	-35.7
53005	-0.869	-0.37	-0.058	-5.25	-0.56	-36.54
53028	-0.918	-0.352	-0.076	-1.89	-1.05	-35.91
53048	-0.916	-0.344	-0.095	-3.15	-1.68	-33.53
53064	-0.941	-0.339	-0.119	-7.49	-2.52	-32.27
53087	-0.958	-0.336	-0.134	-13.65	-4.06	-27.16
53105	-0.959	-0.374	-0.131	-16.17	-2.45	-22.82
53126	-0.972	-0.409	-0.116	-14.98	1.33	-19.95
53149	-0.985	-0.404	-0.102	-12.04	2.24	-15.89
53170	-0.975	-0.391	-0.12	-4.2	4.27	-11.62
53189	-0.931	-0.389	-0.16	0.91	8.19	-7.63
53209	-0.88	-0.389	-0.086	5.53	14.14	-5.46
53229	-0.919	-0.333	-0.047	7.14	10.22	-2.59
53244	-0.916	-0.316	-0.048	7.21	3.71	-1.75
53267	-0.909	-0.324	-0.076	3.29	-4.48	-1.54
53290	-0.921	-0.345	-0.144	3.43	-4.06	-0.98
53311	-0.95	-0.397	-0.154	0.63	-4.13	-0.77
53332	-0.93	-0.396	-0.102	-4.41	-2.03	-0.84
53351	-0.943	-0.403	-0.096	-5.18	-2.87	-1.26
53367	-0.941	-0.438	-0.075	-2.59	-2.73	-1.61
53390	-0.933	-0.468	-0.079	2.38	-3.08	-2.52
53410	-0.926	-0.481	-0.096	9.03	-2.73	-2.24
53427	-0.915	-0.467	-0.085	13.3	-1.68	-1.54
53447	-0.909	-0.471	-0.061	17.5	-1.19	-1.12
53471	-0.914	-0.451	-0.063	21.98	-1.61	0.42
53491	-0.913	-0.417	-0.072	24.15	-1.47	2.03
53510	-0.905	-0.394	-0.067	25.48	-0.7	3.92
53531	-0.911	-0.411	-0.051	24.22	-1.19	6.23
53547	-0.918	-0.421	-0.041	22.33	-2.38	6.44
53567	-0.918	-0.418	-0.035	20.65	-4.2	5.11
53591	-0.92	-0.408	-0.067	19.11	-5.88	4.27
53610	-0.89	-0.435	-0.101	16.1	-3.92	4.06
53631	-0.885	-0.442	-0.081	12.11	-1.89	3.22
53650	-0.908	-0.437	-0.039	10.78	-1.19	3.57
53671	-0.901	-0.458	-0.042	11.69	-3.01	4.2
53691	-0.889	-0.443	-0.037	11.9	-4.48	5.46
53710	-0.884	-0.438	-0.04	11.62	-5.32	6.79
53731	-0.883	-0.438	-0.034	11.55	-5.39	8.89
53749	-0.879	-0.472	-0.061	9.45	-6.23	9.87
53768	-0.842	-0.473	-0.052	8.61	-3.43	10.01
53793	-0.838	-0.495	-0.063	5.04	-2.94	9.38
53813	-0.838	-0.501	-0.033	4.83	-1.96	7.77
53833	-0.855	-0.477	-0.031	5.6	-3.78	6.37
53854	-0.871	-0.462	-0.007	4.06	-7.21	4.97
53874	-0.852	-0.439	-0.007	1.54	-9.03	4.2
53893	-0.809	-0.46	0.018	-0.28	-9.24	2.52
53914	-0.84	-0.449	0.025	-1.82	-10.01	0.07
53933	-0.871	-0.427	-0.014	-2.66	-16.31	0.49
53952	-0.937	-0.338	-0.068	-7.77	-14.14	-0.21
53972	-1.018	-0.242	-0.131	-11.27	-7.14	0.98
53997	-1.094	-0.186	-0.114	-7.21	6.72	5.04
54016	-1.121	-0.145	-0.151	-4.27	11.69	9.24
54035	-1.143	-0.085	-0.193	-1.75	17.5	14.7
54059	-1.199	-0.076	-0.135	8.54	19.04	20.3
54081	-1.126	-0.084	0.032	13.79	19.11	21.91
54104	-1.078	-0.064	0.054	15.4	4.69	22.12
54123	-0.967	0.026	-0.012	18.34	-7.21	21.77
54142	-0.941	0.053	-0.072	16.52	-9.59	20.37
54162	-0.956	0.035	-0.122	13.23	-7.07	17.85
54182	-1.0	0.006	-0.128	7.07	3.99	15.54
54201	-1.061	-0.023	-0.102	4.76	9.45	12.6
54226	-1.039	-0.038	-0.181	1.19	9.59	9.31
54241	-1.011	-0.004	-0.173	-1.05	20.16	10.64
54265	-1.102	-0.01	-0.065	-3.85	17.92	11.41
54286	-1.124	0.017	-0.09	-5.67	8.75	11.41
54306	-1.102	-0.006	-0.13	-7.28	7.28	10.22
54326	-1.075	-0.025	-0.163	-9.1	5.74	7.7
54342	-1.058	0.01	-0.157	-8.68	2.8	6.51
54367	-1.016	0.043	-0.122	-6.02	0.7	6.44
54386	-1.007	0.034	-0.115	-6.79	-1.26	5.67
54406	-1.001	0.013	-0.143	-10.92	-4.55	2.17
54427	-1.017	0.038	-0.142	-19.32	-7.56	-2.1
54446	-1.03	0.088	-0.152	-16.87	-8.33	-3.99
54466	-1.017	0.091	-0.175	-13.51	-7.56	-3.22
54482	-1.0	0.072	-0.174	-14.35	-6.58	-3.01
54506	-1.015	0.057	-0.174	-18.83	-6.79	-1.68
54526	-1.025	0.046	-0.141	-23.94	-8.61	-1.68
54546	-1.021	0.065	-0.106	-24.92	-12.32	-1.4
54566	-1.033	0.07	-0.084	-21.56	-18.83	-0.28
54586	-1.1	0.01	-0.139	-13.65	-25.06	0.28
54605	-1.159	-0.052	-0.243	-8.61	-20.51	1.33
54624	-1.121	-0.049	-0.217	-13.3	-2.59	3.5
54648	-1.053	-0.141	-0.115	-24.43	4.27	0.07
54668	-0.965	-0.177	-0.06	-32.76	7.0	-5.18
54687	-0.896	-0.158	0.021	-28.07	2.73	-6.23
54706	-0.807	-0.172	-0.02	-11.2	-0.49	-2.45
54729	-0.772	-0.334	-0.098	3.22	1.61	-0.7
54749	-0.856	-0.441	-0.132	3.22	2.52	-5.11
54773	-0.996	-0.423	-0.14	-2.87	4.2	-11.62
54793	-1.112	-0.447	-0.12	-1.4	2.73	-12.81
54813	-1.106	-0.465	-0.101	6.72	7.56	-13.44
54833	-1.072	-0.429	-0.076	10.78	8.96	-13.51
54849	-1.037	-0.431	-0.068	11.83	7.14	-12.04
54868	-0.959	-0.45	-0.052	13.58	5.46	-12.04
54893	-0.879	-0.456	-0.059	20.44	7.07	-15.54
54908	-0.805	-0.442	-0.062	25.34	9.66	-20.09
54933	-0.768	-0.385	-0.082	26.88	10.71	-24.43
54953	-0.775	-0.354	-0.088	23.52	12.11	-25.83
54977	-0.815	-0.319	-0.073	21.98	9.94	-26.46
54997	-0.84	-0.344	-0.094	21.56	7.98	-24.36
55017	-0.861	-0.415	-0.095	18.41	5.67	-24.5
55037	-0.906	-0.463	-0.08	16.66	1.33	-26.39
55057	-0.956	-0.401	-0.079	15.26	0.14	-23.52
55077	-0.976	-0.363	-0.074	18.48	0.0	-21.42
55093	-0.981	-0.352	-0.064	18.41	1.4	-20.09
55117	-0.98	-0.321	-0.094	16.59	2.8	-14.7
55137	-0.955	-0.331	-0.086	13.79	4.06	-10.71
55157	-0.971	-0.334	-0.076	10.01	1.05	-9.03
55177	-0.988	-0.29	-0.101	5.46	2.17	-5.53
55197	-0.977	-0.318	-0.108	2.52	-0.77	-3.15
55218	-0.967	-0.262	-0.134	-1.12	1.75	0.63
55242	-0.967	-0.273	-0.145	-5.81	5.39	4.48
55262	-0.939	-0.325	-0.102	-11.27	5.95	3.92
55282	-0.946	-0.362	-0.1	-10.92	6.09	1.47
55302	-0.934	-0.377	-0.105	-9.73	6.09	-2.24
55322	-0.911	-0.372	-0.097	-10.15	6.51	-4.69
55341	-0.912	-0.397	-0.097	-11.27	6.58	-7.0
55366	-0.904	-0.419	-0.099	-8.89	7.21	-9.31
55384	-0.898	-0.411	-0.087	-7.56	5.46	-10.36
55406	-0.907	-0.422	-0.1	-9.45	1.89	-10.29
55426	-0.909	-0.466	-0.114	-8.47	-1.19	-10.71
55445	-0.909	-0.468	-0.11	-6.51	-2.38	-11.06
55468	-0.924	-0.44	-0.107	-3.57	-3.71	-8.33
55492	-0.925	-0.444	-0.109	-3.5	-6.37	-5.67
55513	-0.914	-0.448	-0.109	-3.01	-7.7	-3.57
55532	-0.9	-0.455	-0.106	-0.35	-6.44	-1.19
55547	-0.896	-0.457	-0.102	1.47	-6.72	0.35
