Timestamp,AccelX,AccelY,AccelZ,GyroX,GyroY,GyroZ
1743902555.2124732,0.056,-0.070,1.032,0.490,-2.590,-0.700
1743902555.2324731,0.057,-0.071,1.028,0.560,-2.450,-0.700
1743902555.252473,0.058,-0.071,1.029,0.420,-2.380,-0.910
1743902555.272473,0.057,-0.070,1.032,0.560,-2.520,-0.630
1743902555.292473,0.057,-0.071,1.034,0.490,-2.590,-0.770
1743902555.312473,0.057,-0.070,1.031,0.420,-2.450,-0.700
1743902555.2281322,0.056,-0.068,1.030,0.490,-2.520,-0.700
1743902555.2481322,0.057,-0.070,1.029,0.560,-2.450,-0.700
1743902555.2681322,0.056,-0.073,1.033,0.490,-2.450,-0.770
1743902555.2881322,0.058,-0.071,1.033,0.420,-2.520,-0.630
1743902555.3081322,0.059,-0.069,1.030,0.490,-2.520,-0.840
1743902555.3281322,0.056,-0.070,1.034,0.560,-2.520,-0.700
1743902555.273327,0.057,-0.072,1.034,0.490,-2.520,-0.770
1743902555.293327,0.058,-0.071,1.035,0.490,-2.520,-0.630
1743902555.313327,0.058,-0.070,1.028,0.560,-2.380,-0.770
1743902555.333327,0.058,-0.072,1.033,0.490,-2.310,-0.700
1743902555.353327,0.057,-0.069,1.036,0.490,-2.660,-0.770
1743902555.373327,0.055,-0.072,1.032,0.490,-2.520,-0.770
1743902555.3184521,0.058,-0.069,1.030,0.420,-2.310,-0.770
1743902555.338452,0.058,-0.069,1.028,0.490,-2.380,-0.770
1743902555.358452,0.056,-0.071,1.036,0.490,-2.450,-0.700
1743902555.378452,0.058,-0.070,1.034,0.420,-2.380,-0.700
1743902555.398452,0.058,-0.070,1.031,0.420,-2.450,-0.770
1743902555.418452,0.057,-0.072,1.032,0.420,-2.450,-0.700
1743902555.34831,0.057,-0.071,1.035,0.420,-2.450,-0.770
1743902555.36831,0.056,-0.070,1.030,0.420,-2.380,-0.700
1743902555.38831,0.056,-0.072,1.030,0.490,-2.310,-0.770
1743902555.40831,0.059,-0.071,1.035,0.490,-2.520,-0.770
1743902555.42831,0.054,-0.073,1.034,0.350,-2.520,-0.700
1743902555.44831,0.058,-0.070,1.032,0.490,-2.380,-0.700
1743902555.408948,0.055,-0.069,1.033,0.420,-2.380,-0.700
1743902555.428948,0.056,-0.071,1.032,0.350,-2.520,-0.700
1743902555.448948,0.057,-0.073,1.031,0.490,-2.380,-0.770
1743902555.468948,0.058,-0.070,1.032,0.420,-2.450,-0.770
1743902555.4889479,0.055,-0.071,1.028,0.350,-2.380,-0.770
1743902555.5089478,0.056,-0.072,1.033,0.420,-2.310,-0.770
1743902555.4519873,0.058,-0.072,1.034,0.350,-2.520,-0.700
1743902555.4719872,0.058,-0.075,1.030,0.420,-2.520,-0.840
1743902555.4919872,0.058,-0.070,1.026,0.350,-2.310,-0.770
1743902555.5119872,0.058,-0.071,1.036,0.350,-2.380,-0.770
1743902555.5319872,0.057,-0.070,1.033,0.350,-2.450,-0.770
1743902555.5519872,0.057,-0.069,1.030,0.350,-2.520,-0.700
1743902555.5139112,0.058,-0.071,1.030,0.420,-2.450,-0.630
1743902555.5339112,0.058,-0.070,1.032,0.350,-2.520,-0.700
1743902555.5539112,0.057,-0.072,1.035,0.420,-2.520,-0.840
1743902555.5739112,0.059,-0.071,1.031,0.420,-2.450,-0.700
1743902555.5939112,0.058,-0.071,1.029,0.420,-2.450,-0.700
1743902555.6139112,0.060,-0.072,1.034,0.420,-2.380,-0.700
1743902555.528238,0.056,-0.073,1.033,0.420,-2.380,-0.770
1743902555.548238,0.059,-0.070,1.033,0.420,-2.520,-0.700
1743902555.568238,0.057,-0.072,1.027,0.490,-2.520,-0.700
1743902555.588238,0.058,-0.070,1.030,0.420,-2.380,-0.770
1743902555.608238,0.056,-0.071,1.032,0.420,-2.520,-0.770
1743902555.628238,0.057,-0.069,1.033,0.350,-2.520,-0.700
1743902555.558257,0.058,-0.070,1.029,0.350,-2.450,-0.770
1743902555.578257,0.058,-0.072,1.030,0.490,-2.520,-0.770
1743902555.598257,0.058,-0.071,1.034,0.350,-2.590,-0.770
1743902555.618257,0.055,-0.069,1.032,0.280,-2.520,-0.700
1743902555.638257,0.055,-0.073,1.030,0.350,-2.520,-0.700
1743902555.658257,0.057,-0.072,1.032,0.420,-2.380,-0.770
1743902555.6180983,0.056,-0.071,1.034,0.210,-2.590,-0.840
1743902555.6380982,0.055,-0.070,1.030,0.350,-2.450,-0.630
1743902555.6580982,0.058,-0.071,1.031,0.350,-2.380,-0.770
1743902555.6780982,0.056,-0.072,1.035,0.210,-2.450,-0.700
1743902555.6980982,0.059,-0.070,1.034,0.280,-2.520,-0.770
1743902555.7180982,0.059,-0.071,1.030,0.280,-2.590,-0.770
1743902555.6632621,0.058,-0.071,1.031,0.280,-2.450,-0.770
1743902555.683262,0.057,-0.070,1.033,0.350,-2.380,-0.770
1743902555.703262,0.058,-0.070,1.031,0.140,-2.450,-0.700
1743902555.723262,0.059,-0.072,1.028,0.420,-2.380,-0.700
1743902555.743262,0.057,-0.069,1.036,0.280,-2.450,-0.700
1743902555.763262,0.059,-0.071,1.036,0.280,-2.590,-0.700
1743902555.708116,0.056,-0.071,1.031,0.280,-2.450,-0.700
1743902555.728116,0.054,-0.070,1.029,0.420,-2.450,-0.700
1743902555.748116,0.058,-0.072,1.032,0.280,-2.380,-0.770
1743902555.768116,0.054,-0.071,1.033,0.280,-2.520,-0.700
1743902555.788116,0.056,-0.071,1.030,0.280,-2.380,-0.700
1743902555.808116,0.058,-0.069,1.030,0.350,-2.450,-0.840
1743902555.73807,0.056,-0.071,1.035,0.280,-2.380,-0.700
1743902555.75807,0.060,-0.069,1.033,0.280,-2.520,-0.700
1743902555.77807,0.059,-0.069,1.029,0.420,-2.590,-0.700
1743902555.79807,0.060,-0.073,1.030,0.280,-2.450,-0.770
1743902555.81807,0.059,-0.070,1.035,0.280,-2.450,-0.700
1743902555.83807,0.058,-0.071,1.031,0.280,-2.450,-0.840
1743902555.8121161,0.058,-0.070,1.029,0.350,-2.310,-0.700
1743902555.8321161,0.058,-0.070,1.035,0.350,-2.450,-0.700
1743902555.852116,0.058,-0.068,1.036,0.280,-2.590,-0.700
1743902555.872116,0.056,-0.072,1.030,0.280,-2.450,-0.700
1743902555.892116,0.057,-0.071,1.033,0.350,-2.170,-0.700
1743902555.912116,0.055,-0.070,1.034,0.420,-2.520,-0.700
1743902555.843142,0.056,-0.071,1.028,0.280,-2.380,-0.700
1743902555.863142,0.058,-0.069,1.030,0.210,-2.310,-0.770
1743902555.883142,0.058,-0.071,1.033,0.210,-2.450,-0.700
1743902555.903142,0.056,-0.070,1.036,0.350,-2.450,-0.700
1743902555.923142,0.060,-0.073,1.033,0.350,-2.450,-0.700
1743902555.943142,0.056,-0.071,1.031,0.350,-2.380,-0.700
1743902555.889975,0.058,-0.070,1.031,0.420,-2.380,-0.700
1743902555.909975,0.058,-0.068,1.035,0.280,-2.240,-0.700
1743902555.929975,0.058,-0.070,1.033,0.280,-2.590,-0.700
1743902555.949975,0.059,-0.069,1.030,0.280,-2.380,-0.700
1743902555.969975,0.059,-0.069,1.030,0.210,-2.380,-0.700
1743902555.989975,0.056,-0.071,1.032,0.070,-2.240,-0.630
1743902555.918199,0.057,-0.070,1.032,0.210,-2.590,-0.770
1743902555.938199,0.057,-0.070,1.032,0.280,-2.590,-0.700
1743902555.958199,0.058,-0.070,1.031,0.140,-2.450,-0.700
1743902555.978199,0.058,-0.072,1.033,-0.070,-2.310,-0.700
1743902555.998199,0.056,-0.070,1.035,-0.070,-2.450,-0.700
1743902556.018199,0.058,-0.073,1.031,-0.070,-2.380,-0.700
1743902555.9630432,0.058,-0.075,1.029,0.000,-2.240,-0.700
1743902555.9830432,0.055,-0.074,1.030,0.070,-2.380,-0.630
1743902556.0030432,0.054,-0.076,1.034,0.210,-2.520,-0.700
1743902556.0230432,0.056,-0.076,1.032,0.560,-2.730,-0.700
1743902556.0430431,0.054,-0.076,1.030,0.560,-2.730,-0.770
1743902556.063043,0.054,-0.074,1.034,0.630,-2.800,-0.770
1743902556.0085042,0.055,-0.073,1.035,0.840,-2.800,-0.770
1743902556.0285041,0.054,-0.070,1.034,0.700,-2.800,-0.770
1743902556.048504,0.057,-0.068,1.031,0.630,-2.450,-0.700
1743902556.068504,0.058,-0.071,1.039,0.910,-2.520,-0.560
1743902556.088504,0.056,-0.069,1.037,0.560,-2.170,-0.700
1743902556.108504,0.056,-0.070,1.033,0.630,-2.170,-0.700
1743902556.0532312,0.057,-0.071,1.030,0.700,-1.890,-0.840
1743902556.0732312,0.058,-0.068,1.033,0.840,-1.680,-0.840
1743902556.0932312,0.059,-0.065,1.036,0.770,-1.750,-0.700
1743902556.1132312,0.061,-0.065,1.032,0.000,-1.750,-0.700
1743902556.1332312,0.062,-0.068,1.028,-0.210,-1.890,-0.700
1743902556.1532311,0.060,-0.069,1.026,0.000,-2.030,-0.700
1743902556.113913,0.057,-0.071,1.031,-0.070,-1.820,-0.840
1743902556.133913,0.057,-0.072,1.030,-0.140,-1.960,-0.770
1743902556.153913,0.058,-0.071,1.026,0.000,-2.450,-0.770
1743902556.173913,0.060,-0.070,1.026,0.070,-2.310,-0.770
1743902556.193913,0.058,-0.071,1.029,-0.210,-2.730,-0.700
1743902556.213913,0.057,-0.071,1.033,-0.070,-2.730,-0.770
1743902556.1432772,0.055,-0.070,1.031,0.000,-2.730,-0.770
1743902556.1632771,0.058,-0.073,1.030,0.140,-2.590,-0.770
1743902556.1832771,0.059,-0.071,1.036,0.210,-2.800,-0.700
1743902556.203277,0.058,-0.070,1.035,0.280,-2.870,-0.630
1743902556.223277,0.060,-0.073,1.029,0.280,-2.730,-0.770
1743902556.243277,0.057,-0.072,1.028,0.420,-2.800,-0.770
1743902556.190129,0.058,-0.071,1.035,0.490,-2.660,-0.840
1743902556.210129,0.057,-0.074,1.033,0.350,-2.800,-0.770
1743902556.230129,0.060,-0.069,1.030,0.280,-2.520,-0.700
1743902556.250129,0.061,-0.071,1.030,0.490,-2.590,-0.630
1743902556.270129,0.058,-0.069,1.029,0.280,-2.660,-0.840
1743902556.290129,0.058,-0.070,1.032,0.210,-2.380,-0.700
1743902556.2182431,0.058,-0.070,1.032,0.140,-2.380,-0.630
1743902556.238243,0.059,-0.070,1.030,0.210,-2.450,-0.700
1743902556.258243,0.060,-0.071,1.031,0.140,-2.310,-0.700
1743902556.278243,0.058,-0.070,1.034,0.140,-2.240,-0.700
1743902556.298243,0.057,-0.071,1.032,0.210,-2.380,-0.770
1743902556.318243,0.056,-0.071,1.030,0.140,-2.170,-0.630
1743902556.24823,0.057,-0.070,1.035,0.140,-2.030,-0.700
1743902556.26823,0.057,-0.071,1.036,0.140,-2.240,-0.770
1743902556.28823,0.056,-0.072,1.030,0.350,-2.380,-0.630
1743902556.30823,0.058,-0.070,1.028,0.210,-2.450,-0.700
1743902556.32823,0.057,-0.072,1.030,0.280,-2.240,-0.770
1743902556.34823,0.058,-0.072,1.033,0.210,-2.450,-0.770
1743902556.2935662,0.055,-0.072,1.033,0.350,-2.380,-0.630
1743902556.3135662,0.057,-0.075,1.030,0.490,-2.450,-0.840
1743902556.3335662,0.054,-0.072,1.032,0.560,-2.520,-0.770
1743902556.3535662,0.057,-0.075,1.030,0.350,-2.590,-0.770
1743902556.3735662,0.054,-0.072,1.033,0.560,-2.660,-0.700
1743902556.3935661,0.059,-0.071,1.027,0.490,-2.450,-0.770
1743902556.3399382,0.057,-0.072,1.032,0.490,-2.450,-0.840
1743902556.3599381,0.058,-0.071,1.036,0.420,-2.590,-0.700
1743902556.3799381,0.056,-0.072,1.033,0.560,-2.660,-0.700
1743902556.399938,0.057,-0.073,1.030,0.420,-2.660,-0.700
1743902556.419938,0.061,-0.074,1.031,0.490,-2.590,-0.700
1743902556.439938,0.057,-0.072,1.034,0.420,-2.520,-0.630
1743902556.413953,0.058,-0.070,1.030,0.560,-2.660,-0.770
1743902556.433953,0.055,-0.071,1.028,0.630,-2.450,-0.770
1743902556.453953,0.061,-0.073,1.031,0.490,-2.590,-0.770
1743902556.473953,0.056,-0.071,1.037,0.700,-2.730,-0.700
1743902556.493953,0.059,-0.071,1.027,-0.140,-2.380,-0.700
1743902556.513953,0.058,-0.075,1.032,0.700,-2.450,-0.700
1743902556.428267,0.058,-0.071,1.033,0.840,-2.590,-0.770
1743902556.448267,0.059,-0.069,1.036,0.490,-2.520,-0.700
1743902556.468267,0.059,-0.073,1.030,0.070,-2.380,-0.770
1743902556.488267,0.055,-0.071,1.031,0.770,-2.450,-0.700
1743902556.508267,0.057,-0.070,1.032,0.210,-2.450,-0.770
1743902556.528267,0.058,-0.070,1.034,0.210,-2.520,-0.630
1743902556.473064,0.057,-0.072,1.032,0.630,-2.590,-0.770
1743902556.493064,0.058,-0.068,1.029,0.280,-2.450,-0.700
1743902556.513064,0.056,-0.071,1.033,0.420,-2.520,-0.700
1743902556.533064,0.056,-0.072,1.034,0.700,-2.450,-0.770
1743902556.5530639,0.058,-0.068,1.031,0.280,-2.380,-0.770
1743902556.5730639,0.057,-0.069,1.030,0.140,-2.310,-0.700
1743902556.503488,0.057,-0.069,1.032,0.490,-2.450,-0.700
1743902556.523488,0.058,-0.069,1.034,0.350,-2.380,-0.770
1743902556.543488,0.057,-0.069,1.034,0.140,-2.450,-0.700
1743902556.563488,0.059,-0.071,1.029,0.280,-2.380,-0.770
1743902556.583488,0.055,-0.071,1.033,0.420,-2.380,-0.770
1743902556.603488,0.058,-0.072,1.034,0.210,-2.520,-0.770
1743902556.5516992,0.058,-0.071,1.028,0.490,-2.450,-0.700
1743902556.5716991,0.059,-0.073,1.030,0.210,-2.380,-0.770
1743902556.5916991,0.055,-0.071,1.032,0.350,-2.450,-0.700
1743902556.611699,0.058,-0.071,1.035,0.420,-2.520,-0.840
1743902556.631699,0.060,-0.071,1.030,0.420,-2.590,-0.770
1743902556.651699,0.057,-0.073,1.031,0.350,-2.310,-0.770
1743902556.593092,0.058,-0.074,1.034,0.630,-2.520,-0.770
1743902556.613092,0.058,-0.070,1.034,0.560,-2.450,-0.770
1743902556.633092,0.057,-0.071,1.029,0.350,-2.450,-0.770
1743902556.653092,0.059,-0.070,1.031,0.490,-2.240,-0.700
1743902556.673092,0.058,-0.068,1.036,0.420,-2.380,-0.700
1743902556.6930919,0.056,-0.072,1.033,0.350,-2.520,-0.770
1743902556.6383042,0.056,-0.071,1.028,0.420,-2.310,-0.700
1743902556.6583042,0.058,-0.071,1.028,0.560,-2.240,-0.700
1743902556.6783042,0.058,-0.071,1.030,0.490,-2.240,-0.770
1743902556.6983042,0.058,-0.069,1.036,0.350,-2.380,-0.700
1743902556.7183042,0.057,-0.072,1.035,0.350,-2.450,-0.700
1743902556.7383041,0.057,-0.072,1.030,0.420,-2.380,-0.700
1743902556.713277,0.055,-0.073,1.032,0.420,-2.450,-0.770
1743902556.733277,0.056,-0.072,1.032,0.490,-2.450,-0.700
1743902556.753277,0.058,-0.071,1.032,0.490,-2.590,-0.770
1743902556.773277,0.059,-0.070,1.030,0.420,-2.450,-0.840
1743902556.793277,0.057,-0.072,1.031,0.420,-2.310,-0.770
1743902556.813277,0.058,-0.073,1.034,0.630,-2.520,-0.770
1743902556.7143822,0.058,-0.073,1.033,0.420,-2.520,-0.840
1743902556.7343822,0.059,-0.072,1.030,0.490,-2.450,-0.630
1743902556.7543821,0.057,-0.071,1.028,0.490,-2.380,-0.770
1743902556.774382,0.057,-0.072,1.034,0.490,-2.380,-0.700
1743902556.794382,0.056,-0.068,1.034,0.560,-2.590,-0.560
1743902556.814382,0.056,-0.072,1.033,0.420,-2.520,-0.770
1743902556.7582781,0.055,-0.070,1.029,0.560,-2.450,-0.770
1743902556.778278,0.059,-0.071,1.029,0.560,-2.450,-0.770
1743902556.798278,0.058,-0.071,1.035,0.420,-2.450,-0.770
1743902556.818278,0.059,-0.071,1.033,0.350,-2.380,-0.700
1743902556.838278,0.058,-0.071,1.031,0.420,-2.380,-0.770
1743902556.858278,0.056,-0.071,1.029,0.280,-2.380,-0.700
1743902556.803422,0.058,-0.069,1.035,0.350,-2.660,-0.630
1743902556.823422,0.059,-0.072,1.035,0.350,-2.450,-0.770
1743902556.843422,0.057,-0.072,1.030,0.280,-2.520,-0.630
1743902556.863422,0.059,-0.072,1.030,0.420,-2.240,-0.700
1743902556.883422,0.059,-0.073,1.035,0.280,-2.590,-0.770
1743902556.9034219,0.058,-0.072,1.030,0.280,-2.450,-0.770
1743902556.8329592,0.058,-0.069,1.029,0.280,-2.310,-0.770
1743902556.8529592,0.057,-0.071,1.032,0.350,-2.380,-0.770
1743902556.8729591,0.057,-0.070,1.034,0.280,-2.450,-0.770
1743902556.892959,0.058,-0.071,1.034,0.210,-2.380,-0.770
1743902556.912959,0.056,-0.070,1.033,0.350,-2.450,-0.700
1743902556.932959,0.057,-0.071,1.031,0.350,-2.520,-0.630
1743902556.863459,0.058,-0.071,1.031,0.420,-2.310,-0.630
1743902556.883459,0.058,-0.073,1.036,0.350,-2.590,-0.700
1743902556.903459,0.056,-0.070,1.032,0.350,-2.590,-0.700
1743902556.923459,0.059,-0.072,1.029,0.350,-2.660,-0.770
1743902556.943459,0.057,-0.071,1.032,0.350,-2.450,-0.700
1743902556.963459,0.056,-0.072,1.033,0.350,-2.660,-0.630
1743902556.909126,0.057,-0.070,1.035,0.490,-2.590,-0.770
1743902556.929126,0.057,-0.071,1.031,0.280,-2.450,-0.700
1743902556.949126,0.059,-0.072,1.029,0.280,-2.520,-0.770
1743902556.969126,0.058,-0.071,1.029,0.420,-2.380,-0.770
1743902556.989126,0.056,-0.073,1.036,0.420,-2.380,-0.700
1743902557.009126,0.056,-0.071,1.030,0.420,-2.590,-0.840
1743902556.95372,0.059,-0.070,1.028,0.420,-2.240,-0.700
1743902556.97372,0.058,-0.071,1.032,0.420,-2.450,-0.770
1743902556.99372,0.059,-0.069,1.037,0.350,-2.520,-0.770
1743902557.01372,0.058,-0.071,1.028,0.350,-2.450,-0.700
1743902557.03372,0.057,-0.072,1.028,0.420,-2.380,-0.630
1743902557.05372,0.057,-0.069,1.029,0.420,-2.380,-0.770
1743902557.013021,0.058,-0.071,1.034,0.420,-2.380,-0.770
1743902557.033021,0.058,-0.069,1.033,0.350,-2.450,-0.700
1743902557.053021,0.054,-0.072,1.030,0.420,-2.520,-0.770
1743902557.073021,0.057,-0.070,1.029,0.350,-2.170,-0.700
1743902557.093021,0.057,-0.071,1.030,0.420,-2.450,-0.770
1743902557.113021,0.056,-0.071,1.035,0.350,-2.450,-0.770
1743902557.0270352,0.057,-0.071,1.031,0.280,-2.450,-0.840
1743902557.0470352,0.055,-0.071,1.030,0.420,-2.450,-0.770
1743902557.0670352,0.057,-0.070,1.033,0.280,-2.380,-0.770
1743902557.0870352,0.058,-0.071,1.033,0.280,-2.520,-0.840
1743902557.1070352,0.057,-0.072,1.032,0.280,-2.380,-0.630
1743902557.1270351,0.057,-0.072,1.029,0.280,-2.240,-0.700
1743902557.0734363,0.058,-0.071,1.032,0.420,-2.380,-0.770
1743902557.0934362,0.058,-0.072,1.034,0.420,-2.520,-0.700
1743902557.1134362,0.057,-0.073,1.034,0.350,-2.590,-0.700
1743902557.1334362,0.056,-0.072,1.031,0.350,-2.380,-0.700
1743902557.1534362,0.057,-0.071,1.032,0.350,-2.310,-0.840
1743902557.1734362,0.057,-0.069,1.034,0.490,-2.590,-0.840
1743902557.118169,0.057,-0.070,1.026,0.350,-2.380,-0.770
1743902557.138169,0.058,-0.071,1.027,0.280,-2.380,-0.770
1743902557.158169,0.057,-0.069,1.036,0.420,-2.450,-0.770
1743902557.178169,0.057,-0.071,1.033,0.350,-2.310,-0.770
1743902557.198169,0.056,-0.072,1.028,0.280,-2.520,-0.700
1743902557.218169,0.056,-0.071,1.030,0.280,-2.450,-0.700
1743902557.165021,0.058,-0.071,1.035,0.350,-2.450,-0.770
1743902557.185021,0.055,-0.071,1.030,0.210,-2.660,-0.770
1743902557.205021,0.058,-0.072,1.029,0.490,-2.450,-0.700
1743902557.225021,0.056,-0.069,1.032,0.350,-2.380,-0.840
1743902557.2450209,0.059,-0.070,1.034,0.420,-2.520,-0.840
1743902557.2650208,0.054,-0.072,1.030,0.560,-2.520,-0.700
1743902557.209947,0.058,-0.071,1.029,0.490,-2.450,-0.700
1743902557.229947,0.058,-0.072,1.030,0.280,-2.520,-0.700
1743902557.249947,0.057,-0.073,1.035,0.560,-2.590,-0.630
1743902557.269947,0.059,-0.071,1.032,0.420,-2.660,-0.630
1743902557.289947,0.057,-0.070,1.027,0.350,-2.590,-0.700
1743902557.309947,0.057,-0.072,1.032,0.490,-2.450,-0.630
1743902557.2562432,0.056,-0.073,1.033,0.420,-2.590,-0.630
1743902557.2762432,0.059,-0.072,1.031,0.420,-2.380,-0.770
1743902557.2962432,0.059,-0.073,1.032,0.630,-2.450,-0.700
1743902557.3162432,0.055,-0.071,1.037,0.630,-2.520,-0.770
1743902557.3362432,0.058,-0.071,1.033,0.420,-2.380,-0.700
1743902557.3562431,0.058,-0.070,1.031,0.560,-2.450,-0.700
1743902557.315011,0.057,-0.073,1.028,0.560,-2.520,-0.700
1743902557.335011,0.057,-0.070,1.030,0.420,-2.450,-0.700
1743902557.355011,0.059,-0.071,1.034,0.420,-2.520,-0.770
1743902557.375011,0.057,-0.070,1.032,0.420,-2.520,-0.770
1743902557.395011,0.057,-0.072,1.031,0.420,-2.380,-0.770
1743902557.415011,0.060,-0.069,1.034,0.560,-2.450,-0.700
1743902557.3448951,0.057,-0.072,1.034,0.490,-2.660,-0.770
1743902557.364895,0.057,-0.068,1.032,0.490,-2.590,-0.770
1743902557.384895,0.058,-0.069,1.031,0.490,-2.450,-0.700
1743902557.404895,0.058,-0.071,1.032,0.490,-2.450,-0.770
1743902557.424895,0.057,-0.070,1.032,0.490,-2.450,-0.770
1743902557.444895,0.061,-0.070,1.032,0.490,-2.590,-0.630
1743902557.386697,0.059,-0.070,1.030,0.420,-2.520,-0.770
1743902557.406697,0.058,-0.069,1.032,0.560,-2.520,-0.840
1743902557.426697,0.060,-0.070,1.034,0.420,-2.520,-0.770
1743902557.446697,0.057,-0.069,1.032,0.420,-2.380,-0.700
1743902557.466697,0.057,-0.070,1.032,0.420,-2.520,-0.700
1743902557.486697,0.058,-0.071,1.033,0.350,-2.450,-0.770
1743902557.4185112,0.059,-0.070,1.034,0.420,-2.520,-0.700
1743902557.4385111,0.060,-0.071,1.033,0.490,-2.450,-0.770
1743902557.458511,0.058,-0.073,1.031,0.350,-2.520,-0.630
1743902557.478511,0.058,-0.072,1.031,0.420,-2.450,-0.770
1743902557.498511,0.055,-0.072,1.034,0.420,-2.520,-0.770
1743902557.518511,0.056,-0.072,1.034,0.350,-2.450,-0.700
1743902557.447101,0.056,-0.068,1.028,0.420,-2.520,-0.700
1743902557.467101,0.058,-0.069,1.030,0.420,-2.310,-0.700
1743902557.487101,0.059,-0.068,1.034,0.280,-2.310,-0.840
1743902557.507101,0.060,-0.070,1.033,0.280,-2.660,-0.700
1743902557.527101,0.058,-0.072,1.030,0.350,-2.590,-0.770
1743902557.547101,0.059,-0.073,1.032,0.280,-2.380,-0.700
1743902557.4949412,0.057,-0.072,1.030,0.350,-2.380,-0.630
1743902557.5149412,0.056,-0.072,1.033,0.420,-2.660,-0.840
1743902557.5349412,0.056,-0.069,1.030,0.280,-2.590,-0.770
1743902557.5549412,0.059,-0.071,1.030,0.210,-2.380,-0.770
1743902557.5749412,0.057,-0.071,1.034,0.420,-2.450,-0.700
1743902557.5949411,0.057,-0.072,1.032,0.210,-2.590,-0.700
1743902557.5831633,0.059,-0.070,1.026,0.280,-2.450,-0.700
1743902557.6031632,0.058,-0.070,1.033,0.140,-2.450,-0.700
1743902557.6231632,0.056,-0.069,1.033,0.280,-2.660,-0.700
1743902557.6431632,0.059,-0.072,1.031,0.210,-2.590,-0.700
1743902557.6631632,0.059,-0.070,1.030,0.280,-2.520,-0.700
1743902557.6831632,0.059,-0.071,1.032,0.350,-2.520,-0.700
1743902557.6126332,0.058,-0.071,1.034,0.210,-2.520,-0.630
1743902557.6326332,0.056,-0.069,1.032,0.280,-2.730,-0.770
1743902557.6526332,0.058,-0.072,1.030,0.140,-2.450,-0.700
1743902557.6726332,0.057,-0.070,1.029,0.280,-2.520,-0.770
1743902557.6926332,0.060,-0.071,1.034,0.350,-2.590,-0.700
1743902557.7126331,0.056,-0.072,1.033,0.210,-2.380,-0.700
1743902557.616867,0.059,-0.072,1.031,0.280,-2.450,-0.770
1743902557.636867,0.059,-0.071,1.029,0.280,-2.520,-0.700
1743902557.656867,0.059,-0.070,1.033,0.420,-2.450,-0.770
1743902557.676867,0.058,-0.070,1.034,0.350,-2.520,-0.770
1743902557.696867,0.058,-0.071,1.034,0.420,-2.450,-0.770
1743902557.716867,0.058,-0.072,1.029,0.420,-2.310,-0.700
1743902557.6598473,0.061,-0.072,1.032,0.420,-2.450,-0.630
1743902557.6798472,0.056,-0.071,1.034,0.560,-2.520,-0.700
1743902557.6998472,0.061,-0.071,1.033,0.420,-2.450,-0.700
1743902557.7198472,0.058,-0.070,1.030,0.490,-2.450,-0.770
1743902557.7398472,0.058,-0.070,1.031,0.490,-2.380,-0.630
1743902557.7598472,0.059,-0.071,1.034,0.490,-2.380,-0.700
1743902557.705133,0.057,-0.071,1.033,0.490,-2.450,-0.770
1743902557.725133,0.057,-0.070,1.033,0.420,-2.450,-0.700
1743902557.745133,0.057,-0.072,1.031,0.490,-2.380,-0.840
1743902557.765133,0.059,-0.070,1.034,0.420,-2.450,-0.700
1743902557.785133,0.058,-0.070,1.030,0.420,-2.590,-0.700
1743902557.8051329,0.059,-0.071,1.031,0.490,-2.380,-0.840
1743902557.749794,0.057,-0.070,1.031,0.490,-2.310,-0.700
1743902557.769794,0.059,-0.070,1.034,0.280,-2.450,-0.630
1743902557.789794,0.056,-0.071,1.034,0.350,-2.450,-0.770
1743902557.809794,0.058,-0.072,1.028,0.420,-2.450,-0.700
1743902557.829794,0.059,-0.069,1.033,0.420,-2.380,-0.700
1743902557.849794,0.058,-0.068,1.033,0.350,-2.380,-0.770
1743902557.792303,0.059,-0.069,1.036,0.420,-2.590,-0.700
1743902557.812303,0.058,-0.070,1.031,0.350,-2.590,-0.700
1743902557.832303,0.058,-0.070,1.027,0.350,-2.310,-0.840
1743902557.852303,0.058,-0.069,1.031,0.350,-2.380,-0.770
1743902557.872303,0.058,-0.071,1.032,0.350,-2.590,-0.700
1743902557.892303,0.056,-0.069,1.034,0.280,-2.520,-0.700
1743902557.8237731,0.059,-0.071,1.029,0.420,-2.450,-0.770
1743902557.8437731,0.061,-0.069,1.032,0.420,-2.380,-0.770
1743902557.863773,0.057,-0.073,1.034,0.280,-2.660,-0.700
1743902557.883773,0.059,-0.072,1.033,0.350,-2.590,-0.770
1743902557.903773,0.058,-0.072,1.031,0.350,-2.590,-0.700
1743902557.923773,0.059,-0.070,1.034,0.280,-2.380,-0.770
1743902557.910998,0.059,-0.071,1.032,0.350,-2.520,-0.700
1743902557.930998,0.056,-0.069,1.032,0.280,-2.590,-0.630
1743902557.950998,0.058,-0.072,1.030,0.280,-2.450,-0.840
1743902557.970998,0.058,-0.071,1.034,0.210,-2.520,-0.700
1743902557.990998,0.059,-0.071,1.034,0.280,-2.590,-0.770
1743902558.010998,0.058,-0.070,1.032,0.280,-2.450,-0.700
1743902557.9146543,0.059,-0.070,1.031,0.210,-2.450,-0.770
1743902557.9346542,0.058,-0.069,1.031,0.280,-2.450,-0.770
1743902557.9546542,0.056,-0.070,1.033,0.210,-2.590,-0.770
1743902557.9746542,0.057,-0.072,1.035,0.280,-2.590,-0.770
1743902557.9946542,0.058,-0.070,1.029,0.210,-2.520,-0.770
1743902558.0146542,0.060,-0.069,1.029,0.420,-2.450,-0.700
1743902557.960599,0.058,-0.071,1.035,0.280,-2.660,-0.770
1743902557.980599,0.059,-0.072,1.030,0.210,-2.590,-0.840
1743902558.000599,0.058,-0.071,1.030,0.280,-2.380,-0.840
1743902558.020599,0.060,-0.072,1.033,0.210,-2.520,-0.770
1743902558.0405989,0.057,-0.071,1.033,0.350,-2.660,-0.700
1743902558.0605989,0.058,-0.071,1.029,0.210,-2.450,-0.770
1743902558.00322,0.057,-0.070,1.029,0.420,-2.450,-0.770
1743902558.02322,0.056,-0.071,1.033,0.210,-2.450,-0.770
1743902558.04322,0.057,-0.071,1.034,0.350,-2.520,-0.700
1743902558.06322,0.057,-0.072,1.031,0.490,-2.520,-0.700
1743902558.08322,0.058,-0.072,1.029,0.350,-2.310,-0.700
1743902558.10322,0.057,-0.072,1.035,0.280,-2.450,-0.700
1743902558.047307,0.058,-0.070,1.034,0.280,-2.730,-0.700
1743902558.067307,0.057,-0.068,1.032,0.350,-2.450,-0.700
1743902558.087307,0.058,-0.070,1.027,0.280,-2.380,-0.770
1743902558.107307,0.058,-0.070,1.032,0.350,-2.520,-0.770
1743902558.127307,0.058,-0.071,1.033,0.420,-2.450,-0.700
1743902558.147307,0.058,-0.071,1.030,0.350,-2.380,-0.630
1743902558.0787241,0.057,-0.072,1.028,0.420,-2.380,-0.700
1743902558.0987241,0.059,-0.071,1.031,0.420,-2.380,-0.700
1743902558.118724,0.060,-0.072,1.035,0.350,-2.240,-0.700
1743902558.138724,0.058,-0.072,1.033,0.420,-2.520,-0.700
1743902558.158724,0.059,-0.071,1.029,0.490,-2.450,-0.700
1743902558.178724,0.060,-0.071,1.034,0.420,-2.310,-0.700
1743902558.135687,0.057,-0.070,1.034,0.280,-2.450,-0.770
1743902558.155687,0.059,-0.073,1.030,0.490,-2.380,-0.630
1743902558.175687,0.058,-0.067,1.030,0.560,-2.310,-0.700
1743902558.195687,0.059,-0.073,1.034,0.350,-2.310,-0.700
1743902558.215687,0.061,-0.072,1.034,0.350,-2.450,-0.630
1743902558.235687,0.058,-0.069,1.032,0.280,-2.450,-0.770
1743902558.2120972,0.059,-0.072,1.026,0.280,-2.240,-0.770
1743902558.2320971,0.058,-0.071,1.029,0.420,-2.310,-0.700
1743902558.2520971,0.057,-0.071,1.034,0.280,-2.380,-0.700
1743902558.272097,0.056,-0.071,1.032,0.420,-2.380,-0.770
1743902558.292097,0.058,-0.070,1.028,0.210,-2.380,-0.700
1743902558.312097,0.056,-0.070,1.032,0.280,-2.240,-0.700
1743902558.2164512,0.057,-0.071,1.034,0.280,-2.450,-0.700
1743902558.2364511,0.057,-0.072,1.031,0.280,-2.380,-0.770
1743902558.2564511,0.058,-0.070,1.028,0.420,-2.380,-0.630
1743902558.276451,0.056,-0.071,1.029,0.350,-2.380,-0.700
1743902558.296451,0.057,-0.071,1.034,0.210,-2.520,-0.700
1743902558.316451,0.058,-0.072,1.031,0.280,-2.520,-0.630
1743902558.2449741,0.057,-0.072,1.027,0.350,-2.450,-0.700
1743902558.264974,0.058,-0.070,1.031,0.280,-2.380,-0.700
1743902558.284974,0.058,-0.071,1.034,0.350,-2.450,-0.770
1743902558.304974,0.056,-0.070,1.035,0.280,-2.520,-0.700
1743902558.324974,0.057,-0.070,1.032,0.280,-2.450,-0.770
1743902558.344974,0.058,-0.072,1.029,0.280,-2.380,-0.630
1743902558.2903233,0.057,-0.071,1.033,0.350,-2.380,-0.700
1743902558.3103232,0.058,-0.069,1.035,0.420,-2.310,-0.700
1743902558.3303232,0.059,-0.070,1.028,0.280,-2.520,-0.630
1743902558.3503232,0.058,-0.070,1.031,0.350,-2.380,-0.700
1743902558.3703232,0.058,-0.071,1.035,0.420,-2.450,-0.630
1743902558.3903232,0.058,-0.073,1.033,0.210,-2.450,-0.700
1743902558.3485951,0.060,-0.073,1.030,0.420,-2.380,-0.630
1743902558.3685951,0.058,-0.071,1.029,0.350,-2.380,-0.700
1743902558.388595,0.057,-0.071,1.031,0.350,-2.450,-0.700
1743902558.408595,0.057,-0.070,1.030,0.350,-2.380,-0.700
1743902558.428595,0.057,-0.072,1.030,0.420,-2.310,-0.630
1743902558.448595,0.058,-0.071,1.032,0.350,-2.520,-0.840
1743902558.3771071,0.058,-0.072,1.033,0.210,-2.380,-0.770
1743902558.3971071,0.059,-0.070,1.031,0.420,-2.450,-0.700
1743902558.417107,0.059,-0.072,1.028,0.420,-2.310,-0.700
1743902558.437107,0.057,-0.075,1.031,0.280,-2.450,-0.700
1743902558.457107,0.060,-0.073,1.035,0.420,-2.380,-0.700
1743902558.477107,0.059,-0.073,1.032,0.420,-2.310,-0.700
1743902558.422449,0.057,-0.072,1.031,0.420,-2.310,-0.630
1743902558.442449,0.058,-0.071,1.035,0.490,-2.450,-0.770
1743902558.462449,0.060,-0.071,1.034,0.350,-2.590,-0.770
1743902558.482449,0.060,-0.071,1.030,0.350,-2.380,-0.700
1743902558.502449,0.058,-0.073,1.028,0.420,-2.310,-0.630
1743902558.522449,0.059,-0.071,1.033,0.350,-2.450,-0.700
1743902558.49614,0.059,-0.071,1.035,0.420,-2.590,-0.630
1743902558.51614,0.059,-0.071,1.034,0.350,-2.450,-0.840
1743902558.53614,0.058,-0.073,1.030,0.420,-2.380,-0.770
1743902558.55614,0.056,-0.070,1.034,0.350,-2.380,-0.770
1743902558.57614,0.058,-0.073,1.032,0.490,-2.590,-0.700
1743902558.59614,0.058,-0.070,1.030,0.490,-2.520,-0.840
1743902558.5131001,0.060,-0.071,1.030,0.350,-2.520,-0.770
1743902558.5331001,0.059,-0.071,1.030,0.420,-2.590,-0.770
1743902558.5531,0.059,-0.069,1.034,0.350,-2.590,-0.700
1743902558.5731,0.057,-0.068,1.029,0.350,-2.660,-0.770
1743902558.5931,0.058,-0.068,1.028,0.350,-2.520,-0.770
1743902558.6131,0.058,-0.073,1.031,0.350,-2.520,-0.770
1743902558.5598712,0.059,-0.071,1.034,0.280,-2.520,-0.700
1743902558.5798712,0.059,-0.071,1.031,0.350,-2.520,-0.700
1743902558.5998712,0.057,-0.072,1.028,0.280,-2.520,-0.700
1743902558.6198711,0.056,-0.072,1.031,0.350,-2.520,-0.770
1743902558.6398711,0.058,-0.072,1.034,0.350,-2.590,-0.770
1743902558.659871,0.056,-0.071,1.031,0.350,-2.590,-0.700
1743902558.590015,0.060,-0.070,1.031,0.350,-2.450,-0.770
1743902558.610015,0.058,-0.071,1.032,0.280,-2.450,-0.700
1743902558.630015,0.058,-0.070,1.035,0.350,-2.590,-0.770
1743902558.6500149,0.057,-0.072,1.030,0.280,-2.520,-0.700
1743902558.6700149,0.058,-0.072,1.029,0.350,-2.520,-0.630
1743902558.6900148,0.058,-0.072,1.033,0.350,-2.380,-0.700
1743902558.6514492,0.058,-0.071,1.033,0.280,-2.660,-0.700
1743902558.6714492,0.057,-0.069,1.034,0.350,-2.520,-0.770
1743902558.6914492,0.057,-0.069,1.030,0.350,-2.380,-0.770
1743902558.7114491,0.058,-0.073,1.030,0.280,-2.520,-0.700
1743902558.7314491,0.058,-0.070,1.033,0.280,-2.240,-0.630
1743902558.751449,0.059,-0.071,1.030,0.280,-2.590,-0.770
1743902558.680339,0.060,-0.070,1.030,0.280,-2.450,-0.630
1743902558.700339,0.059,-0.073,1.032,0.280,-2.380,-0.770
1743902558.720339,0.058,-0.073,1.034,0.280,-2.520,-0.700
1743902558.740339,0.058,-0.071,1.031,0.350,-2.520,-0.770
1743902558.760339,0.058,-0.072,1.029,0.280,-2.450,-0.630
1743902558.780339,0.058,-0.071,1.032,0.280,-2.380,-0.770
1743902558.725959,0.058,-0.071,1.035,0.280,-2.310,-0.700
1743902558.745959,0.058,-0.074,1.031,0.280,-2.450,-0.700
1743902558.765959,0.057,-0.072,1.028,0.490,-2.380,-0.700
1743902558.785959,0.058,-0.070,1.034,0.490,-2.380,-0.700
1743902558.805959,0.058,-0.071,1.033,0.280,-2.590,-0.700
1743902558.825959,0.056,-0.071,1.032,0.280,-2.380,-0.840
1743902558.811618,0.058,-0.072,1.029,0.350,-2.240,-0.700
1743902558.831618,0.058,-0.073,1.034,0.280,-2.380,-0.700
1743902558.851618,0.058,-0.073,1.035,0.350,-2.520,-0.700
1743902558.871618,0.058,-0.073,1.033,0.420,-2.450,-0.630
1743902558.891618,0.058,-0.069,1.030,0.350,-2.310,-0.700
1743902558.911618,0.059,-0.072,1.032,0.350,-2.100,-0.630
1743902558.814495,0.060,-0.069,1.034,0.420,-2.380,-0.770
1743902558.834495,0.058,-0.074,1.028,0.490,-2.380,-0.770
1743902558.854495,0.060,-0.072,1.030,0.280,-2.310,-0.700
1743902558.874495,0.059,-0.071,1.033,0.490,-2.380,-0.770
1743902558.894495,0.057,-0.073,1.036,0.420,-2.380,-0.700
1743902558.914495,0.057,-0.071,1.034,0.490,-2.380,-0.630
1743902558.843172,0.059,-0.072,1.029,0.350,-2.380,-0.630
1743902558.863172,0.061,-0.070,1.027,0.490,-2.310,-0.630
1743902558.883172,0.058,-0.071,1.032,0.490,-2.310,-0.770
1743902558.903172,0.061,-0.072,1.034,0.490,-2.310,-0.770
1743902558.923172,0.060,-0.071,1.033,0.350,-2.310,-0.560
1743902558.943172,0.058,-0.071,1.029,0.420,-2.310,-0.770
1743902558.873107,0.061,-0.071,1.029,0.420,-2.310,-0.700
1743902558.893107,0.059,-0.071,1.036,0.420,-2.520,-0.700
1743902558.913107,0.057,-0.071,1.034,0.350,-2.450,-0.700
1743902558.933107,0.059,-0.070,1.031,0.350,-2.450,-0.770
1743902558.9531069,0.058,-0.072,1.031,0.420,-2.240,-0.700
1743902558.9731069,0.059,-0.070,1.034,0.420,-2.450,-0.770
1743902558.917378,0.057,-0.073,1.034,0.350,-2.450,-0.770
1743902558.937378,0.057,-0.069,1.032,0.350,-2.240,-0.770
1743902558.957378,0.057,-0.070,1.032,0.490,-2.380,-0.630
1743902558.977378,0.057,-0.072,1.034,0.420,-2.450,-0.770
1743902558.9973779,0.058,-0.073,1.030,0.350,-2.450,-0.700
1743902559.0173779,0.059,-0.074,1.029,0.420,-2.380,-0.770
1743902558.9623642,0.058,-0.073,1.032,0.350,-2.380,-0.700
1743902558.9823642,0.058,-0.071,1.033,0.280,-2.380,-0.770
1743902559.0023642,0.057,-0.072,1.030,0.280,-2.450,-0.770
1743902559.0223641,0.059,-0.072,1.030,0.350,-2.520,-0.770
1743902559.0423641,0.059,-0.069,1.033,0.350,-2.590,-0.770
1743902559.062364,0.057,-0.071,1.032,0.280,-2.380,-0.770
1743902559.020744,0.058,-0.071,1.033,0.280,-2.520,-0.770
1743902559.040744,0.058,-0.070,1.032,0.280,-2.520,-0.700
1743902559.060744,0.057,-0.072,1.032,0.350,-2.520,-0.700
1743902559.080744,0.058,-0.070,1.033,0.350,-2.450,-0.700
1743902559.100744,0.058,-0.070,1.035,0.350,-2.520,-0.700
1743902559.120744,0.059,-0.072,1.032,0.350,-2.450,-0.700
1743902559.0524101,0.061,-0.071,1.032,0.420,-2.590,-0.630
1743902559.07241,0.058,-0.070,1.032,0.350,-2.520,-0.770
1743902559.09241,0.060,-0.072,1.035,0.350,-2.660,-0.700
1743902559.11241,0.060,-0.072,1.032,0.350,-2.520,-0.700
1743902559.13241,0.060,-0.072,1.032,0.280,-2.310,-0.770
1743902559.15241,0.058,-0.071,1.034,0.420,-2.520,-0.630
1743902559.096054,0.057,-0.073,1.035,0.420,-2.520,-0.700
1743902559.116054,0.058,-0.071,1.030,0.280,-2.450,-0.770
1743902559.136054,0.057,-0.072,1.028,0.350,-2.450,-0.770
1743902559.156054,0.060,-0.071,1.031,0.420,-2.380,-0.700
1743902559.176054,0.058,-0.072,1.033,0.280,-2.520,-0.770
1743902559.196054,0.059,-0.071,1.033,0.280,-2.450,-0.630
1743902559.128251,0.058,-0.070,1.029,0.350,-2.310,-0.700
1743902559.148251,0.059,-0.069,1.035,0.490,-2.450,-0.700
1743902559.168251,0.058,-0.070,1.031,0.280,-2.450,-0.770
1743902559.188251,0.059,-0.071,1.031,0.350,-2.450,-0.700
1743902559.208251,0.058,-0.070,1.030,0.420,-2.380,-0.630
1743902559.228251,0.058,-0.072,1.035,0.350,-2.450,-0.630
1743902559.1732981,0.059,-0.070,1.030,0.350,-2.520,-0.770
1743902559.193298,0.057,-0.071,1.029,0.350,-2.310,-0.700
1743902559.213298,0.057,-0.072,1.032,0.350,-2.380,-0.700
1743902559.233298,0.058,-0.073,1.032,0.420,-2.590,-0.560
1743902559.253298,0.056,-0.071,1.031,0.490,-2.520,-0.700
1743902559.273298,0.059,-0.070,1.030,0.350,-2.310,-0.770
1743902559.217362,0.060,-0.072,1.032,0.350,-2.380,-0.630
1743902559.237362,0.057,-0.071,1.034,0.420,-2.450,-0.700
1743902559.257362,0.058,-0.070,1.033,0.350,-2.520,-0.770
1743902559.2773619,0.059,-0.071,1.031,0.350,-2.310,-0.700
1743902559.2973619,0.056,-0.070,1.030,0.420,-2.380,-0.630
1743902559.3173618,0.057,-0.072,1.032,0.350,-2.310,-0.700
1743902559.2623773,0.058,-0.072,1.031,0.350,-2.520,-0.700
1743902559.2823772,0.058,-0.070,1.030,0.420,-2.450,-0.770
1743902559.3023772,0.061,-0.069,1.030,0.350,-2.310,-0.700
1743902559.3223772,0.058,-0.074,1.034,0.490,-2.380,-0.700
1743902559.3423772,0.057,-0.070,1.029,0.420,-2.520,-0.770
1743902559.3623772,0.059,-0.071,1.031,0.350,-2.380,-0.770
1743902559.309946,0.058,-0.071,1.033,0.420,-2.520,-0.700
1743902559.329946,0.060,-0.070,1.033,0.420,-2.590,-0.700
1743902559.349946,0.058,-0.070,1.033,0.420,-2.450,-0.770
1743902559.369946,0.059,-0.070,1.031,0.490,-2.380,-0.700
1743902559.389946,0.059,-0.071,1.030,0.490,-2.380,-0.770
1743902559.409946,0.057,-0.070,1.037,0.280,-2.450,-0.700
1743902559.353139,0.059,-0.071,1.032,0.210,-2.380,-0.770
1743902559.373139,0.057,-0.073,1.030,0.280,-2.450,-0.630
1743902559.393139,0.058,-0.068,1.030,0.350,-2.450,-0.770
1743902559.4131389,0.058,-0.071,1.034,0.350,-2.520,-0.770
1743902559.4331388,0.058,-0.073,1.029,0.350,-2.450,-0.840
1743902559.4531388,0.059,-0.072,1.029,0.280,-2.450,-0.630
1743902559.3977852,0.058,-0.072,1.035,0.280,-2.310,-0.700
1743902559.4177852,0.055,-0.069,1.035,0.280,-2.520,-0.770
1743902559.4377851,0.055,-0.069,1.034,0.350,-2.590,-0.700
1743902559.4577851,0.060,-0.070,1.029,0.280,-2.310,-0.700
1743902559.477785,0.058,-0.076,1.031,0.280,-2.380,-0.700
1743902559.497785,0.057,-0.071,1.032,0.210,-2.590,-0.840
1743902559.42721,0.059,-0.072,1.033,0.350,-2.520,-0.770
1743902559.44721,0.058,-0.071,1.030,0.280,-2.380,-0.770
1743902559.46721,0.056,-0.072,1.028,0.280,-2.450,-0.770
1743902559.48721,0.057,-0.071,1.034,0.490,-2.450,-0.700
1743902559.50721,0.057,-0.071,1.034,0.420,-2.520,-0.770
1743902559.52721,0.058,-0.072,1.029,0.350,-2.380,-0.770
1743902559.4740872,0.058,-0.073,1.030,0.350,-2.450,-0.700
1743902559.4940872,0.058,-0.073,1.035,0.350,-2.450,-0.770
1743902559.5140872,0.057,-0.071,1.033,0.350,-2.450,-0.770
1743902559.5340872,0.059,-0.070,1.031,0.420,-2.520,-0.700
1743902559.5540872,0.058,-0.071,1.031,0.350,-2.520,-0.630
1743902559.5740871,0.059,-0.071,1.033,0.350,-2.450,-0.770
1743902559.5184062,0.059,-0.072,1.033,0.490,-2.520,-0.770
1743902559.5384061,0.056,-0.072,1.030,0.350,-2.520,-0.700
1743902559.558406,0.060,-0.072,1.030,0.350,-2.450,-0.770
1743902559.578406,0.058,-0.071,1.034,0.350,-2.380,-0.700
1743902559.598406,0.060,-0.071,1.034,0.420,-2.520,-0.770
1743902559.618406,0.058,-0.073,1.029,0.350,-2.450,-0.700
1743902559.547247,0.057,-0.072,1.029,0.490,-2.240,-0.700
1743902559.567247,0.059,-0.072,1.034,0.280,-2.450,-0.770
1743902559.587247,0.058,-0.072,1.031,0.350,-2.450,-0.770
1743902559.6072469,0.060,-0.070,1.031,0.210,-2.520,-0.630
1743902559.6272469,0.059,-0.070,1.031,0.350,-2.450,-0.700
1743902559.6472468,0.059,-0.071,1.034,0.350,-2.380,-0.700
1743902559.5923662,0.059,-0.072,1.035,0.420,-2.520,-0.770
1743902559.6123662,0.058,-0.071,1.029,0.280,-2.520,-0.700
1743902559.6323662,0.057,-0.069,1.028,0.350,-2.450,-0.770
1743902559.6523662,0.060,-0.070,1.035,0.350,-2.520,-0.630
1743902559.6723661,0.057,-0.070,1.031,0.350,-2.450,-0.700
1743902559.6923661,0.059,-0.071,1.028,0.350,-2.380,-0.700
1743902559.6372871,0.059,-0.071,1.029,0.350,-2.380,-0.700
1743902559.6572871,0.056,-0.074,1.032,0.280,-2.450,-0.700
1743902559.677287,0.057,-0.070,1.032,0.350,-2.450,-0.700
1743902559.697287,0.059,-0.071,1.029,0.420,-2.380,-0.770
1743902559.717287,0.059,-0.068,1.031,0.280,-2.310,-0.700
1743902559.737287,0.059,-0.071,1.034,0.280,-2.310,-0.770
1743902559.710807,0.059,-0.070,1.034,0.280,-2.380,-0.700
1743902559.730807,0.057,-0.070,1.030,0.350,-2.520,-0.700
1743902559.750807,0.058,-0.071,1.031,0.420,-2.310,-0.770
1743902559.770807,0.059,-0.074,1.034,0.280,-2.380,-0.770
1743902559.790807,0.060,-0.072,1.031,0.280,-2.450,-0.840
1743902559.810807,0.058,-0.073,1.029,0.350,-2.380,-0.700
1743902559.7407942,0.058,-0.071,1.032,0.420,-2.450,-0.770
1743902559.7607942,0.059,-0.074,1.036,0.350,-2.520,-0.700
1743902559.7807941,0.058,-0.072,1.030,0.420,-2.520,-0.770
1743902559.8007941,0.060,-0.073,1.029,0.350,-2.380,-0.700
1743902559.820794,0.061,-0.071,1.032,0.210,-2.380,-0.770
1743902559.840794,0.061,-0.072,1.036,0.210,-2.380,-0.700
1743902559.7574692,0.059,-0.072,1.031,0.490,-2.660,-0.630
1743902559.7774692,0.058,-0.070,1.029,0.280,-2.520,-0.700
1743902559.7974691,0.060,-0.072,1.029,0.350,-2.380,-0.770
1743902559.8174691,0.059,-0.070,1.033,0.350,-2.380,-0.700
1743902559.837469,0.058,-0.070,1.035,0.420,-2.450,-0.700
1743902559.857469,0.059,-0.070,1.032,0.350,-2.380,-0.770
1743902559.8035812,0.060,-0.073,1.027,0.280,-2.450,-0.700
1743902559.8235812,0.059,-0.073,1.035,0.350,-2.520,-0.630
1743902559.8435812,0.058,-0.071,1.032,0.350,-2.590,-0.700
1743902559.8635812,0.057,-0.072,1.032,0.350,-2.520,-0.700
1743902559.8835812,0.058,-0.071,1.029,0.420,-2.450,-0.700
1743902559.9035811,0.058,-0.072,1.035,0.420,-2.380,-0.700
1743902559.8485732,0.059,-0.071,1.034,0.420,-2.450,-0.770
1743902559.8685732,0.058,-0.072,1.033,0.280,-2.520,-0.770
1743902559.8885732,0.056,-0.071,1.029,0.350,-2.450,-0.770
1743902559.9085732,0.059,-0.071,1.032,0.280,-2.380,-0.700
1743902559.9285731,0.060,-0.070,1.034,0.350,-2.590,-0.700
1743902559.948573,0.058,-0.071,1.033,0.280,-2.450,-0.770
1743902559.921215,0.060,-0.071,1.031,0.350,-2.450,-0.700
1743902559.941215,0.059,-0.070,1.031,0.420,-2.450,-0.700
1743902559.961215,0.059,-0.070,1.034,0.420,-2.450,-0.770
1743902559.981215,0.059,-0.070,1.034,0.350,-2.450,-0.700
1743902560.001215,0.060,-0.070,1.032,0.350,-2.520,-0.630
1743902560.021215,0.058,-0.068,1.030,0.350,-2.380,-0.770
1743902559.926683,0.057,-0.071,1.035,0.210,-2.380,-0.770
1743902559.946683,0.057,-0.073,1.035,0.350,-2.590,-0.770
1743902559.966683,0.059,-0.071,1.030,0.280,-2.450,-0.770
1743902559.986683,0.058,-0.072,1.030,0.420,-2.450,-0.700
1743902560.0066829,0.058,-0.072,1.031,0.420,-2.310,-0.840
1743902560.0266829,0.058,-0.070,1.033,0.280,-2.520,-0.630
1743902559.9811482,0.059,-0.073,1.028,0.350,-2.240,-0.840
1743902560.0011482,0.059,-0.071,1.032,0.420,-2.450,-0.700
1743902560.0211482,0.058,-0.070,1.035,0.280,-2.380,-0.700
1743902560.0411482,0.058,-0.071,1.032,0.350,-2.520,-0.770
1743902560.0611482,0.057,-0.070,1.027,0.280,-2.380,-0.770
1743902560.0811481,0.060,-0.073,1.031,0.210,-2.380,-0.700
1743902560.0131512,0.058,-0.072,1.034,0.420,-2.520,-0.770
1743902560.0331511,0.056,-0.069,1.035,0.490,-2.450,-0.700
1743902560.0531511,0.060,-0.072,1.032,0.420,-2.450,-0.770
1743902560.073151,0.058,-0.069,1.030,0.280,-2.310,-0.770
1743902560.093151,0.058,-0.074,1.034,0.350,-2.520,-0.630
1743902560.113151,0.057,-0.072,1.032,0.280,-2.520,-0.700
1743902560.0583062,0.057,-0.074,1.028,0.420,-2.520,-0.770
1743902560.0783062,0.059,-0.073,1.031,0.350,-2.520,-0.700
1743902560.0983062,0.059,-0.072,1.034,0.350,-2.450,-0.770
1743902560.1183062,0.056,-0.070,1.033,0.280,-2.380,-0.700
1743902560.1383061,0.059,-0.071,1.032,0.280,-2.450,-0.630
1743902560.1583061,0.059,-0.075,1.031,0.350,-2.450,-0.770
1743902560.102348,0.060,-0.073,1.035,0.280,-2.590,-0.630
1743902560.122348,0.058,-0.072,1.032,0.350,-2.520,-0.770
1743902560.142348,0.058,-0.072,1.031,0.350,-2.450,-0.700
1743902560.162348,0.059,-0.071,1.034,0.280,-2.660,-0.770
1743902560.182348,0.058,-0.072,1.033,0.280,-2.590,-0.700
1743902560.202348,0.060,-0.071,1.032,0.280,-2.520,-0.770
1743902560.148189,0.057,-0.071,1.032,0.280,-2.520,-0.770
1743902560.168189,0.060,-0.073,1.035,0.350,-2.450,-0.700
1743902560.188189,0.057,-0.071,1.033,0.280,-2.520,-0.630
1743902560.208189,0.058,-0.073,1.030,0.280,-2.590,-0.700
1743902560.228189,0.060,-0.071,1.031,0.350,-2.450,-0.770
1743902560.248189,0.058,-0.071,1.034,0.280,-2.380,-0.700
1743902560.222376,0.059,-0.073,1.032,0.210,-2.520,-0.770
1743902560.242376,0.060,-0.072,1.032,0.280,-2.380,-0.770
1743902560.262376,0.061,-0.071,1.035,0.280,-2.380,-0.700
1743902560.282376,0.058,-0.071,1.033,0.280,-2.520,-0.770
1743902560.302376,0.057,-0.072,1.030,0.350,-2.450,-0.700
1743902560.322376,0.059,-0.072,1.032,0.420,-2.450,-0.770
1743902560.240057,0.057,-0.072,1.032,0.420,-2.450,-0.700
1743902560.260057,0.058,-0.072,1.034,0.490,-2.520,-0.770
1743902560.280057,0.059,-0.074,1.031,0.420,-2.380,-0.700
1743902560.300057,0.057,-0.072,1.031,0.420,-2.380,-0.700
1743902560.320057,0.059,-0.071,1.032,0.490,-2.380,-0.770
1743902560.340057,0.058,-0.071,1.028,0.420,-2.450,-0.700
1743902560.2849822,0.061,-0.071,1.029,0.490,-2.450,-0.770
1743902560.3049822,0.057,-0.070,1.033,0.420,-2.450,-0.700
1743902560.3249822,0.060,-0.071,1.034,0.420,-2.450,-0.700
1743902560.3449821,0.060,-0.071,1.028,0.280,-2.450,-0.700
1743902560.3649821,0.058,-0.071,1.028,0.350,-2.450,-0.700
1743902560.384982,0.058,-0.072,1.033,0.350,-2.520,-0.700
1743902560.3423762,0.061,-0.070,1.032,0.350,-2.590,-0.700
1743902560.3623762,0.061,-0.072,1.028,0.420,-2.450,-0.700
1743902560.3823762,0.058,-0.070,1.033,0.630,-2.450,-0.770
1743902560.4023762,0.058,-0.072,1.034,0.140,-2.590,-0.630
1743902560.4223762,0.058,-0.072,1.031,0.280,-2.660,-0.770
1743902560.4423761,0.056,-0.072,1.029,0.630,-2.520,-0.630
1743902560.3750253,0.059,-0.071,1.035,1.050,-2.800,-0.700
1743902560.3950253,0.063,-0.068,1.034,-0.630,-2.100,-0.560
1743902560.4150252,0.054,-0.072,1.026,1.050,-2.590,-0.630
1743902560.4350252,0.057,-0.075,1.037,1.750,-2.660,-0.980
1743902560.4550252,0.058,-0.068,1.027,-0.210,-2.590,-0.350
1743902560.4750252,0.062,-0.070,1.017,0.280,-2.660,-0.630
1743902560.419912,0.057,-0.078,1.038,1.330,-2.310,-0.770
1743902560.439912,0.057,-0.074,1.045,0.770,-3.080,-0.700
1743902560.459912,0.061,-0.068,1.029,-0.140,-3.010,-0.560
1743902560.479912,0.061,-0.073,1.018,0.910,-2.380,-0.700
1743902560.499912,0.059,-0.071,1.043,1.890,-2.870,-0.700
1743902560.519912,0.058,-0.067,1.030,0.210,-2.800,-0.630
1743902560.464987,0.059,-0.072,1.021,1.120,-2.450,-0.630
1743902560.484987,0.060,-0.070,1.031,0.910,-2.590,-0.630
1743902560.504987,0.060,-0.068,1.034,0.210,-2.800,-0.700
1743902560.524987,0.058,-0.071,1.033,0.630,-2.590,-0.700
1743902560.544987,0.057,-0.070,1.027,0.630,-2.730,-0.700
1743902560.564987,0.059,-0.069,1.029,0.280,-2.590,-0.700
1743902560.5251222,0.062,-0.069,1.032,0.490,-2.520,-0.770
1743902560.5451221,0.056,-0.071,1.028,0.070,-2.100,-0.770
1743902560.5651221,0.054,-0.074,1.035,0.630,-2.450,-0.630
1743902560.585122,0.062,-0.073,1.035,0.700,-2.170,-0.700
1743902560.605122,0.059,-0.069,1.031,0.350,-2.590,-0.700
1743902560.625122,0.059,-0.071,1.033,0.840,-2.380,-0.630
1743902560.540141,0.058,-0.069,1.035,0.770,-2.310,-0.630
1743902560.560141,0.058,-0.069,1.032,0.560,-2.590,-0.630
1743902560.580141,0.058,-0.072,1.032,0.700,-2.170,-0.770
1743902560.600141,0.060,-0.070,1.029,0.770,-2.520,-0.700
1743902560.620141,0.057,-0.068,1.031,0.350,-2.310,-0.840
1743902560.640141,0.059,-0.070,1.032,0.630,-2.100,-0.770
1743902560.5986161,0.061,-0.067,1.033,0.490,-2.310,-0.770
1743902560.618616,0.061,-0.069,1.028,0.280,-2.170,-0.700
1743902560.638616,0.057,-0.071,1.034,0.490,-2.380,-0.630
1743902560.658616,0.061,-0.068,1.033,0.210,-2.310,-0.700
1743902560.678616,0.058,-0.072,1.027,0.420,-2.240,-0.630
1743902560.698616,0.061,-0.072,1.032,0.560,-2.310,-0.770
1743902560.6433342,0.060,-0.072,1.034,0.420,-2.240,-0.700
1743902560.6633341,0.059,-0.070,1.033,0.350,-2.520,-0.700
1743902560.683334,0.060,-0.072,1.028,0.560,-2.310,-0.700
1743902560.703334,0.057,-0.071,1.030,0.490,-2.240,-0.700
1743902560.723334,0.057,-0.070,1.032,0.350,-2.450,-0.770
1743902560.743334,0.061,-0.072,1.032,0.630,-2.380,-0.770
1743902560.701323,0.057,-0.072,1.030,0.560,-2.310,-0.700
1743902560.721323,0.060,-0.069,1.029,0.420,-2.240,-0.700
1743902560.741323,0.059,-0.072,1.034,0.420,-2.310,-0.770
1743902560.761323,0.057,-0.069,1.029,0.490,-2.380,-0.630
1743902560.781323,0.059,-0.068,1.028,0.420,-2.310,-0.700
1743902560.801323,0.058,-0.070,1.031,0.420,-2.380,-0.840
1743902560.7308083,0.059,-0.071,1.031,0.490,-2.450,-0.770
1743902560.7508082,0.059,-0.068,1.030,0.350,-2.380,-0.630
1743902560.7708082,0.060,-0.070,1.031,0.490,-2.310,-0.770
1743902560.7908082,0.059,-0.067,1.030,0.420,-2.520,-0.630
1743902560.8108082,0.058,-0.071,1.035,0.350,-2.380,-0.700
1743902560.8308082,0.057,-0.070,1.029,0.420,-2.450,-0.630
1743902560.7639532,0.058,-0.071,1.029,0.350,-2.310,-0.770
1743902560.7839532,0.059,-0.071,1.031,1.400,-2.940,-0.630
1743902560.8039532,0.065,-0.063,1.036,-0.070,-1.820,-0.630
1743902560.8239532,0.058,-0.065,1.034,-1.820,-3.010,-0.700
1743902560.8439531,0.047,-0.090,1.029,0.700,-4.060,-0.910
1743902560.863953,0.075,-0.058,1.035,1.470,-0.770,-0.630
1743902560.8358402,0.059,-0.066,1.031,-2.450,-4.130,-0.560
1743902560.8558402,0.053,-0.085,1.040,0.560,-2.170,-0.840
1743902560.8758402,0.073,-0.077,1.034,2.730,-2.520,-0.770
1743902560.8958402,0.047,-0.062,1.017,-1.120,-3.500,-0.630
1743902560.9158401,0.070,-0.080,1.045,0.910,-1.190,-0.770
1743902560.9358401,0.058,-0.076,1.036,1.750,-3.710,-0.770
1743902560.865808,0.049,-0.062,1.021,-0.840,-3.430,-0.700
1743902560.885808,0.065,-0.072,1.024,-1.120,-1.190,-0.700
1743902560.905808,0.054,-0.073,1.037,1.820,-2.100,-0.840
1743902560.925808,0.062,-0.065,1.035,-0.280,-2.800,-0.630
1743902560.945808,0.067,-0.076,1.019,0.490,-1.960,-0.700
1743902560.965808,0.054,-0.073,1.021,1.540,-2.940,-0.910
1743902560.9108772,0.058,-0.066,1.039,0.980,-2.100,-0.700
1743902560.9308772,0.061,-0.066,1.038,-0.420,-2.030,-0.630
1743902560.9508772,0.054,-0.073,1.024,0.420,-3.150,-0.770
1743902560.9708772,0.058,-0.064,1.034,0.560,-1.540,-0.770
1743902560.9908772,0.055,-0.065,1.035,-0.350,-2.940,-0.700
1743902561.0108771,0.059,-0.073,1.034,0.000,-2.730,-0.770
1743902560.9425712,0.060,-0.069,1.023,0.770,-2.030,-0.700
1743902560.9625711,0.056,-0.065,1.027,-0.140,-2.380,-0.630
1743902560.9825711,0.058,-0.073,1.036,17.780,-2.380,-0.770
1743902561.002571,0.060,-0.072,1.034,0.700,-2.450,-0.700
1743902561.022571,0.058,-0.069,1.028,0.140,-2.450,-0.700
1743902561.042571,0.061,-0.073,1.031,-0.140,-2.240,-0.700
1743902560.9858541,0.056,-0.073,1.036,0.770,-2.520,-0.770
1743902561.0058541,0.056,-0.070,1.034,0.490,-2.940,-0.770
1743902561.025854,0.060,-0.070,1.030,0.140,-2.170,-0.700
1743902561.045854,0.058,-0.072,1.029,0.490,-2.450,-0.770
1743902561.065854,0.059,-0.068,1.036,0.490,-2.450,-0.700
1743902561.085854,0.056,-0.069,1.029,0.210,-2.310,-0.560
1743902561.0183141,0.057,-0.070,1.031,0.490,-2.380,-0.700
1743902561.038314,0.060,-0.070,1.033,0.350,-2.310,-0.700
1743902561.058314,0.059,-0.070,1.033,0.140,-2.590,-0.770
1743902561.078314,0.060,-0.071,1.030,0.420,-2.310,-0.770
1743902561.098314,0.059,-0.069,1.029,0.280,-2.310,-0.700
1743902561.118314,0.059,-0.069,1.033,0.350,-2.310,-0.770
1743902561.063262,0.060,-0.071,1.035,0.490,-2.240,-0.770
1743902561.083262,0.059,-0.069,1.031,0.560,-2.520,-0.700
1743902561.103262,0.061,-0.069,1.030,0.280,-2.520,-0.630
1743902561.123262,0.059,-0.070,1.033,0.420,-2.310,-0.700
1743902561.143262,0.059,-0.071,1.032,0.420,-2.520,-0.700
1743902561.163262,0.059,-0.070,1.031,0.210,-2.380,-0.700
1743902561.1250153,0.060,-0.072,1.027,0.350,-2.310,-0.770
1743902561.1450152,0.060,-0.073,1.036,0.350,-2.380,-0.770
1743902561.1650152,0.059,-0.071,1.029,0.140,-2.450,-0.700
1743902561.1850152,0.057,-0.073,1.028,0.420,-2.310,-0.770
1743902561.2050152,0.056,-0.071,1.031,0.350,-2.380,-0.700
1743902561.2250152,0.057,-0.070,1.034,0.210,-2.520,-0.700
1743902561.165814,0.057,-0.071,1.034,0.420,-2.310,-0.840
1743902561.185814,0.058,-0.068,1.028,0.280,-2.380,-0.630
1743902561.205814,0.058,-0.067,1.031,0.420,-2.380,-0.770
1743902561.2258139,0.058,-0.069,1.034,0.490,-2.450,-0.700
1743902561.2458138,0.057,-0.070,1.031,0.350,-2.380,-0.770
1743902561.2658138,0.059,-0.072,1.029,0.210,-2.380,-0.700
1743902561.226169,0.059,-0.070,1.034,0.700,-2.450,-0.700
1743902561.246169,0.058,-0.068,1.033,0.350,-2.450,-0.630
1743902561.266169,0.061,-0.069,1.033,0.420,-2.520,-0.630
1743902561.286169,0.059,-0.071,1.030,0.630,-2.380,-0.700
1743902561.306169,0.059,-0.068,1.031,0.490,-2.450,-0.700
1743902561.326169,0.059,-0.068,1.034,0.420,-2.520,-0.770
1743902561.256889,0.059,-0.069,1.033,0.560,-2.450,-0.770
1743902561.276889,0.060,-0.067,1.031,0.490,-2.380,-0.770
1743902561.296889,0.059,-0.069,1.033,0.280,-2.450,-0.700
1743902561.316889,0.058,-0.072,1.031,0.490,-2.520,-0.770
1743902561.336889,0.058,-0.068,1.031,0.350,-2.450,-0.700
1743902561.356889,0.057,-0.069,1.030,0.490,-2.380,-0.630
1743902561.288387,0.061,-0.072,1.033,0.490,-2.380,-0.700
1743902561.308387,0.058,-0.070,1.032,0.350,-2.380,-0.770
1743902561.328387,0.060,-0.069,1.029,0.350,-2.520,-0.770
1743902561.348387,0.059,-0.070,1.030,0.490,-2.240,-0.770
1743902561.368387,0.053,-0.070,1.034,0.490,-2.450,-0.770
1743902561.388387,0.057,-0.069,1.035,0.560,-2.450,-0.700
1743902561.332473,0.058,-0.070,1.030,0.490,-2.520,-0.700
1743902561.352473,0.057,-0.070,1.028,0.420,-2.380,-0.700
1743902561.372473,0.059,-0.071,1.032,0.490,-2.520,-0.700
1743902561.392473,0.058,-0.069,1.031,0.560,-2.450,-0.700
1743902561.412473,0.059,-0.069,1.031,0.420,-2.590,-0.700
1743902561.432473,0.059,-0.071,1.031,0.630,-2.380,-0.770
1743902561.362471,0.057,-0.069,1.032,0.700,-2.450,-0.700
1743902561.382471,0.058,-0.068,1.034,0.630,-2.660,-0.840
1743902561.402471,0.061,-0.070,1.031,0.280,-2.170,-0.770
1743902561.422471,0.059,-0.072,1.029,0.490,-2.520,-0.770
1743902561.442471,0.058,-0.074,1.032,0.700,-2.310,-0.840
1743902561.462471,0.060,-0.068,1.036,0.490,-2.240,-0.770
1743902561.425079,0.057,-0.068,1.034,0.420,-2.590,-0.770
1743902561.445079,0.058,-0.070,1.029,0.700,-2.380,-0.770
1743902561.465079,0.059,-0.068,1.033,0.770,-2.310,-0.700
1743902561.485079,0.059,-0.067,1.031,0.560,-2.520,-0.700
1743902561.505079,0.057,-0.069,1.031,0.700,-2.170,-0.700
1743902561.525079,0.058,-0.068,1.030,0.490,-2.380,-0.630
1743902561.4673772,0.058,-0.068,1.030,0.560,-2.310,-0.700
1743902561.4873772,0.058,-0.070,1.030,0.700,-2.380,-0.700
1743902561.5073771,0.058,-0.070,1.034,0.560,-2.380,-0.700
1743902561.5273771,0.058,-0.067,1.029,0.560,-2.240,-0.630
1743902561.547377,0.059,-0.069,1.033,0.630,-2.240,-0.770
1743902561.567377,0.057,-0.067,1.034,0.420,-2.310,-0.700
1743902561.50002,0.058,-0.069,1.033,0.350,-2.380,-0.770
1743902561.52002,0.059,-0.070,1.030,0.630,-2.310,-0.770
1743902561.54002,0.061,-0.071,1.033,0.490,-2.100,-0.770
1743902561.56002,0.061,-0.069,1.035,0.560,-2.240,-0.770
1743902561.58002,0.059,-0.071,1.035,0.700,-2.240,-0.630
1743902561.60002,0.058,-0.072,1.029,0.700,-2.310,-0.770
1743902561.5449831,0.057,-0.069,1.030,0.350,-2.310,-0.770
1743902561.5649831,0.059,-0.070,1.034,0.700,-2.240,-0.770
1743902561.584983,0.057,-0.069,1.032,0.840,-2.450,-0.700
1743902561.604983,0.057,-0.068,1.029,0.770,-2.240,-0.700
1743902561.624983,0.056,-0.069,1.032,0.490,-2.170,-0.770
1743902561.644983,0.056,-0.069,1.035,0.770,-2.310,-0.770
1743902561.6031742,0.057,-0.069,1.029,0.560,-2.310,-0.770
1743902561.6231742,0.057,-0.069,1.027,0.560,-2.240,-0.700
1743902561.6431742,0.057,-0.068,1.031,0.630,-2.310,-0.770
1743902561.6631742,0.058,-0.067,1.035,0.630,-2.310,-0.630
1743902561.6831741,0.060,-0.068,1.031,0.280,-2.380,-0.630
1743902561.703174,0.060,-0.067,1.029,1.260,-2.380,-0.840
1743902561.633089,0.060,-0.064,1.035,0.280,-2.030,-0.630
1743902561.653089,0.056,-0.066,1.033,0.070,-2.380,-0.770
1743902561.673089,0.057,-0.068,1.032,0.630,-2.520,-0.840
1743902561.693089,0.060,-0.067,1.032,0.560,-2.170,-0.840
1743902561.713089,0.061,-0.067,1.032,0.630,-2.590,-0.840
1743902561.733089,0.060,-0.065,1.031,0.280,-1.960,-0.770
1743902561.7211661,0.056,-0.067,1.023,0.210,-2.170,-0.840
1743902561.741166,0.055,-0.069,1.035,0.490,-2.310,-0.770
1743902561.761166,0.059,-0.068,1.031,0.280,-2.170,-0.700
1743902561.781166,0.059,-0.071,1.028,0.490,-2.380,-0.700
1743902561.801166,0.059,-0.067,1.033,0.630,-2.100,-0.700
1743902561.821166,0.058,-0.067,1.035,0.280,-2.170,-0.700
1743902561.7239811,0.058,-0.071,1.034,0.280,-2.310,-0.770
1743902561.7439811,0.056,-0.068,1.031,0.700,-2.310,-0.770
1743902561.763981,0.058,-0.071,1.032,0.350,-2.310,-0.770
1743902561.783981,0.058,-0.067,1.031,0.140,-2.240,-0.770
1743902561.803981,0.057,-0.068,1.033,0.420,-2.240,-0.630
1743902561.823981,0.058,-0.068,1.031,0.490,-2.520,-0.560
1743902561.767424,0.055,-0.069,1.027,0.350,-2.310,-0.700
1743902561.787424,0.058,-0.070,1.032,0.420,-2.310,-0.700
1743902561.807424,0.056,-0.067,1.035,0.420,-2.380,-0.700
1743902561.827424,0.058,-0.069,1.032,0.350,-2.380,-0.700
1743902561.847424,0.056,-0.067,1.030,0.490,-2.240,-0.630
1743902561.867424,0.058,-0.069,1.035,0.490,-2.380,-0.700
1743902561.8124352,0.057,-0.068,1.035,0.350,-2.590,-0.700
1743902561.8324351,0.058,-0.067,1.033,0.420,-2.240,-0.770
1743902561.852435,0.058,-0.071,1.028,0.490,-2.310,-0.700
1743902561.872435,0.059,-0.068,1.033,0.350,-2.520,-0.770
1743902561.892435,0.057,-0.069,1.032,0.350,-2.450,-0.700
1743902561.912435,0.059,-0.067,1.031,0.420,-2.520,-0.770
1743902561.870874,0.058,-0.068,1.030,0.420,-2.450,-0.700
1743902561.890874,0.056,-0.068,1.033,0.420,-2.450,-0.700
1743902561.910874,0.057,-0.069,1.033,0.490,-2.520,-0.700
1743902561.9308739,0.060,-0.067,1.030,0.350,-2.450,-0.770
1743902561.9508739,0.056,-0.069,1.029,0.350,-2.380,-0.700
1743902561.9708738,0.058,-0.069,1.035,0.350,-2.520,-0.630
1743902561.9023452,0.057,-0.069,1.035,0.420,-2.520,-0.840
1743902561.9223452,0.058,-0.067,1.029,0.280,-2.520,-0.700
1743902561.9423451,0.058,-0.068,1.029,0.490,-2.450,-0.700
1743902561.9623451,0.056,-0.066,1.030,0.490,-2.590,-0.840
1743902561.982345,0.058,-0.068,1.035,0.490,-2.520,-0.700
1743902562.002345,0.058,-0.069,1.026,0.350,-2.450,-0.700
1743902561.976833,0.055,-0.068,1.029,0.350,-2.520,-0.700
1743902561.996833,0.060,-0.069,1.033,0.490,-2.520,-0.770
1743902562.016833,0.057,-0.067,1.035,0.420,-2.520,-0.700
1743902562.036833,0.057,-0.069,1.033,0.350,-2.590,-0.630
1743902562.056833,0.057,-0.070,1.029,0.350,-2.450,-0.700
1743902562.076833,0.055,-0.071,1.037,0.420,-2.380,-0.630
1743902561.992189,0.057,-0.069,1.037,0.490,-2.380,-0.700
1743902562.012189,0.058,-0.071,1.034,0.560,-2.450,-0.630
1743902562.032189,0.058,-0.066,1.028,0.630,-2.310,-0.700
1743902562.0521889,0.054,-0.070,1.034,0.490,-2.310,-0.700
1743902562.0721889,0.057,-0.070,1.035,0.630,-2.520,-0.770
1743902562.0921888,0.057,-0.066,1.031,0.560,-2.450,-0.700
1743902562.022705,0.060,-0.067,1.030,0.560,-2.240,-0.770
1743902562.042705,0.059,-0.066,1.032,0.700,-2.450,-0.700
1743902562.062705,0.056,-0.066,1.031,0.280,-2.380,-0.700
1743902562.082705,0.057,-0.068,1.033,0.490,-2.450,-0.700
1743902562.102705,0.059,-0.066,1.032,0.350,-2.520,-0.770
1743902562.122705,0.057,-0.069,1.033,0.280,-2.450,-0.700
1743902562.0682912,0.059,-0.070,1.031,0.420,-2.380,-0.770
1743902562.0882912,0.056,-0.068,1.031,0.490,-2.450,-0.770
1743902562.1082911,0.059,-0.067,1.031,0.280,-2.450,-0.770
1743902562.1282911,0.057,-0.068,1.030,0.420,-2.450,-0.700
1743902562.148291,0.057,-0.068,1.030,0.560,-2.590,-0.700
1743902562.168291,0.056,-0.069,1.033,0.280,-2.520,-0.770
1743902562.0985022,0.057,-0.069,1.031,0.280,-2.520,-0.770
1743902562.1185021,0.057,-0.069,1.032,0.420,-2.380,-0.770
1743902562.1385021,0.058,-0.066,1.034,0.210,-2.520,-0.700
1743902562.158502,0.056,-0.067,1.033,0.140,-2.590,-0.770
1743902562.178502,0.057,-0.068,1.030,0.280,-2.590,-0.700
1743902562.198502,0.059,-0.069,1.033,0.140,-2.520,-0.630
1743902562.1450782,0.056,-0.067,1.034,0.140,-2.590,-0.770
1743902562.1650782,0.057,-0.066,1.031,0.140,-2.660,-0.770
1743902562.1850781,0.056,-0.068,1.030,0.000,-2.660,-0.770
1743902562.2050781,0.058,-0.069,1.032,0.140,-2.590,-0.700
1743902562.225078,0.056,-0.069,1.034,0.140,-2.590,-0.700
1743902562.245078,0.059,-0.069,1.032,0.070,-2.660,-0.700
1743902562.200735,0.059,-0.070,1.031,0.280,-2.450,-0.700
1743902562.220735,0.057,-0.072,1.035,0.280,-2.450,-0.700
1743902562.240735,0.057,-0.071,1.034,0.350,-2.590,-0.770
1743902562.260735,0.058,-0.071,1.029,0.350,-2.520,-0.700
1743902562.280735,0.057,-0.070,1.030,0.210,-2.450,-0.770
1743902562.300735,0.057,-0.071,1.035,0.420,-2.520,-0.840
1743902562.2612462,0.060,-0.068,1.033,0.210,-2.660,-0.770
1743902562.2812462,0.057,-0.069,1.029,0.140,-2.380,-0.700
1743902562.3012462,0.058,-0.068,1.032,0.420,-2.450,-0.770
1743902562.3212461,0.058,-0.068,1.033,0.210,-2.520,-0.700
1743902562.3412461,0.057,-0.069,1.033,0.140,-2.590,-0.770
1743902562.361246,0.056,-0.069,1.029,0.210,-2.520,-0.770
1743902562.277743,0.057,-0.069,1.032,0.420,-2.380,-0.770
1743902562.297743,0.057,-0.069,1.032,0.140,-2.520,-0.770
1743902562.317743,0.057,-0.071,1.033,0.350,-2.590,-0.700
1743902562.337743,0.060,-0.068,1.031,0.210,-2.660,-0.700
1743902562.357743,0.059,-0.070,1.031,0.070,-2.590,-0.630
1743902562.377743,0.061,-0.071,1.032,0.350,-2.450,-0.700
1743902562.32241,0.057,-0.068,1.031,0.070,-2.660,-0.770
1743902562.34241,0.060,-0.069,1.030,0.280,-2.520,-0.770
1743902562.36241,0.060,-0.070,1.033,0.280,-2.520,-0.770
1743902562.38241,0.058,-0.071,1.032,0.210,-2.660,-0.700
1743902562.40241,0.062,-0.069,1.033,0.140,-2.520,-0.770
1743902562.42241,0.059,-0.068,1.032,0.210,-2.590,-0.700
1743902562.368349,0.056,-0.067,1.031,0.210,-2.590,-0.770
1743902562.388349,0.057,-0.070,1.030,0.210,-2.590,-0.700
1743902562.408349,0.058,-0.070,1.032,0.210,-2.800,-0.700
1743902562.428349,0.058,-0.069,1.029,0.210,-2.660,-0.700
1743902562.448349,0.060,-0.067,1.032,0.280,-2.520,-0.770
1743902562.468349,0.057,-0.068,1.033,0.210,-2.730,-0.700
1743902562.4125981,0.059,-0.069,1.033,0.280,-2.660,-0.770
1743902562.432598,0.060,-0.068,1.031,0.210,-2.730,-0.700
1743902562.452598,0.058,-0.067,1.033,0.140,-2.520,-0.700
1743902562.472598,0.057,-0.069,1.032,0.140,-2.730,-0.700
1743902562.492598,0.058,-0.068,1.028,0.140,-2.730,-0.700
1743902562.512598,0.060,-0.067,1.029,0.140,-2.730,-0.700
1743902562.457705,0.059,-0.070,1.032,0.140,-2.660,-0.770
1743902562.477705,0.059,-0.069,1.033,0.210,-2.730,-0.700
1743902562.497705,0.060,-0.068,1.031,0.140,-2.590,-0.770
1743902562.517705,0.058,-0.069,1.030,0.210,-2.660,-0.770
1743902562.537705,0.057,-0.068,1.033,0.280,-2.590,-0.770
1743902562.557705,0.058,-0.069,1.034,0.140,-2.590,-0.770
1743902562.516438,0.059,-0.070,1.034,0.210,-2.800,-0.840
1743902562.536438,0.057,-0.068,1.030,0.210,-2.800,-0.700
1743902562.556438,0.058,-0.069,1.031,0.210,-2.730,-0.770
1743902562.576438,0.058,-0.069,1.033,0.070,-2.730,-0.700
1743902562.596438,0.058,-0.069,1.033,0.000,-2.660,-0.700
1743902562.616438,0.058,-0.069,1.031,0.070,-2.730,-0.700
1743902562.561884,0.059,-0.071,1.033,0.210,-2.590,-0.630
1743902562.581884,0.058,-0.070,1.032,0.000,-2.590,-0.700
1743902562.601884,0.060,-0.071,1.032,-0.070,-2.590,-0.700
1743902562.6218839,0.059,-0.072,1.028,0.210,-2.590,-0.700
1743902562.6418839,0.058,-0.070,1.033,0.070,-2.660,-0.770
1743902562.6618838,0.058,-0.070,1.032,0.140,-2.520,-0.770
1743902562.579999,0.058,-0.070,1.031,0.210,-2.590,-0.770
1743902562.599999,0.060,-0.068,1.032,0.000,-2.590,-0.700
1743902562.619999,0.057,-0.071,1.032,0.000,-2.450,-0.770
1743902562.639999,0.057,-0.068,1.031,0.210,-2.450,-0.770
1743902562.659999,0.058,-0.068,1.029,-0.070,-2.660,-0.770
1743902562.6799989,0.058,-0.070,1.029,0.140,-2.590,-0.770
1743902562.62499,0.060,-0.070,1.033,0.140,-2.310,-0.770
1743902562.64499,0.056,-0.069,1.034,0.140,-2.660,-0.630
1743902562.66499,0.059,-0.073,1.031,0.070,-2.450,-0.700
1743902562.68499,0.058,-0.072,1.034,0.280,-2.450,-0.700
1743902562.70499,0.057,-0.069,1.032,0.140,-2.660,-0.630
1743902562.72499,0.059,-0.071,1.036,-0.070,-2.520,-0.770
1743902562.683218,0.058,-0.072,1.030,0.210,-2.590,-0.770
1743902562.703218,0.058,-0.071,1.028,0.420,-2.520,-0.700
1743902562.723218,0.061,-0.070,1.032,0.140,-2.450,-0.770
1743902562.743218,0.058,-0.070,1.034,0.280,-2.730,-0.770
1743902562.763218,0.058,-0.070,1.032,0.420,-2.520,-0.840
1743902562.783218,0.058,-0.069,1.032,0.210,-2.590,-0.700
1743902562.72828,0.059,-0.073,1.033,0.070,-2.590,-0.770
1743902562.74828,0.058,-0.072,1.034,0.350,-2.590,-0.700
1743902562.76828,0.059,-0.070,1.030,0.280,-2.660,-0.770
1743902562.78828,0.059,-0.070,1.031,0.280,-2.380,-0.700
1743902562.80828,0.060,-0.072,1.033,0.420,-2.450,-0.700
1743902562.82828,0.061,-0.070,1.033,0.350,-2.520,-0.700
1743902562.771297,0.060,-0.072,1.030,0.280,-2.450,-0.700
1743902562.791297,0.060,-0.070,1.030,0.420,-2.380,-0.770
1743902562.811297,0.061,-0.068,1.034,0.280,-2.310,-0.700
1743902562.831297,0.059,-0.069,1.035,0.350,-2.520,-0.700
1743902562.851297,0.059,-0.069,1.033,0.280,-2.590,-0.700
1743902562.871297,0.060,-0.070,1.031,0.350,-2.520,-0.700
1743902562.7896721,0.060,-0.071,1.032,0.280,-2.380,-0.770
1743902562.809672,0.060,-0.072,1.034,0.280,-2.450,-0.700
1743902562.829672,0.058,-0.071,1.033,0.350,-2.520,-0.630
1743902562.849672,0.057,-0.070,1.030,0.210,-2.380,-0.770
1743902562.869672,0.060,-0.070,1.032,0.420,-2.380,-0.630
1743902562.889672,0.059,-0.067,1.033,0.350,-2.520,-0.630
1743902562.87636,0.059,-0.070,1.033,0.420,-2.520,-0.700
1743902562.89636,0.060,-0.070,1.028,0.350,-2.450,-0.770
1743902562.91636,0.058,-0.069,1.034,0.420,-2.380,-0.770
1743902562.93636,0.059,-0.069,1.034,0.280,-2.520,-0.630
1743902562.9563599,0.057,-0.068,1.032,0.210,-2.520,-0.770
1743902562.9763598,0.061,-0.069,1.027,0.280,-2.450,-0.770
1743902562.879716,0.058,-0.069,1.034,0.210,-2.240,-0.770
1743902562.899716,0.058,-0.070,1.034,0.210,-2.730,-0.770
1743902562.919716,0.059,-0.071,1.028,0.280,-2.380,-0.700
1743902562.9397159,0.061,-0.072,1.029,0.350,-2.450,-0.770
1743902562.9597158,0.060,-0.070,1.035,0.210,-2.450,-0.770
1743902562.9797158,0.061,-0.070,1.033,0.280,-2.520,-0.630
1743902562.923296,0.058,-0.071,1.029,0.420,-2.590,-0.700
1743902562.943296,0.061,-0.070,1.030,0.280,-2.450,-0.700
1743902562.963296,0.059,-0.070,1.031,0.420,-2.450,-0.700
1743902562.983296,0.059,-0.071,1.035,0.280,-2.520,-0.770
1743902563.003296,0.061,-0.069,1.031,0.280,-2.590,-0.770
1743902563.0232959,0.060,-0.072,1.030,0.350,-2.380,-0.770
1743902562.9682431,0.057,-0.069,1.034,0.280,-2.450,-0.770
1743902562.988243,0.060,-0.070,1.033,0.420,-2.520,-0.770
1743902563.008243,0.062,-0.070,1.030,0.560,-2.450,-0.770
1743902563.028243,0.060,-0.068,1.034,0.350,-2.380,-0.770
1743902563.048243,0.061,-0.070,1.033,0.490,-2.520,-0.630
1743902563.068243,0.057,-0.071,1.029,0.630,-2.450,-0.700
1743902563.015422,0.058,-0.068,1.028,0.350,-2.450,-0.700
1743902563.035422,0.060,-0.069,1.032,0.210,-2.380,-0.700
1743902563.055422,0.059,-0.072,1.036,0.490,-2.380,-0.700
1743902563.075422,0.059,-0.070,1.030,0.280,-2.450,-0.630
1743902563.095422,0.059,-0.068,1.029,0.420,-2.310,-0.770
1743902563.115422,0.060,-0.072,1.034,0.630,-2.380,-0.700
1743902563.060022,0.057,-0.069,1.033,0.420,-2.450,-0.700
1743902563.080022,0.060,-0.073,1.028,0.350,-2.240,-0.700
1743902563.100022,0.061,-0.071,1.029,0.630,-2.240,-0.700
1743902563.120022,0.059,-0.069,1.031,0.280,-2.380,-0.770
1743902563.140022,0.061,-0.069,1.032,0.280,-2.450,-0.840
1743902563.160022,0.059,-0.073,1.031,0.560,-2.310,-0.770
1743902563.105189,0.060,-0.068,1.032,0.280,-2.380,-0.770
1743902563.125189,0.059,-0.071,1.034,0.560,-2.380,-0.630
1743902563.145189,0.060,-0.068,1.032,0.560,-2.310,-0.840
1743902563.165189,0.056,-0.071,1.031,0.420,-2.380,-0.700
1743902563.185189,0.062,-0.072,1.031,0.350,-2.310,-0.770
1743902563.205189,0.059,-0.068,1.032,0.420,-2.310,-0.770
1743902563.1771212,0.057,-0.070,1.032,0.490,-2.450,-0.630
1743902563.1971211,0.059,-0.070,1.032,0.280,-2.380,-0.700
1743902563.2171211,0.058,-0.071,1.031,0.490,-2.380,-0.770
1743902563.237121,0.060,-0.068,1.032,0.350,-2.310,-0.700
1743902563.257121,0.058,-0.070,1.032,0.350,-2.450,-0.770
1743902563.277121,0.059,-0.069,1.030,0.490,-2.520,-0.700
1743902563.1815162,0.060,-0.069,1.030,0.420,-2.450,-0.770
1743902563.2015162,0.060,-0.070,1.030,0.280,-2.380,-0.770
1743902563.2215161,0.061,-0.071,1.034,0.350,-2.380,-0.910
1743902563.241516,0.060,-0.071,1.031,0.490,-2.520,-0.700
1743902563.261516,0.059,-0.070,1.027,0.420,-2.520,-0.770
1743902563.281516,0.060,-0.071,1.029,0.420,-2.450,-0.840
1743902563.2403603,0.058,-0.071,1.034,0.350,-2.380,-0.700
1743902563.2603602,0.059,-0.071,1.032,0.280,-2.450,-0.770
1743902563.2803602,0.060,-0.072,1.030,0.420,-2.380,-0.770
1743902563.3003602,0.061,-0.068,1.032,0.210,-2.380,-0.700
1743902563.3203602,0.058,-0.068,1.035,0.420,-2.520,-0.700
1743902563.3403602,0.059,-0.069,1.032,0.350,-2.450,-0.700
1743902563.284928,0.059,-0.069,1.028,0.280,-2.450,-0.630
1743902563.304928,0.061,-0.069,1.033,0.350,-2.450,-0.700
1743902563.324928,0.060,-0.069,1.036,0.420,-2.520,-0.700
1743902563.344928,0.060,-0.068,1.033,0.420,-2.520,-0.630
1743902563.364928,0.059,-0.069,1.030,0.280,-2.450,-0.770
1743902563.384928,0.058,-0.072,1.033,0.420,-2.520,-0.700
1743902563.3153052,0.060,-0.069,1.034,0.210,-2.380,-0.700
1743902563.3353052,0.061,-0.071,1.034,0.350,-2.450,-0.770
1743902563.3553052,0.059,-0.069,1.030,0.420,-2.380,-0.700
1743902563.3753052,0.059,-0.070,1.027,0.560,-2.450,-0.770
1743902563.3953052,0.059,-0.070,1.034,0.420,-2.240,-0.770
1743902563.4153051,0.059,-0.072,1.035,0.350,-2.450,-0.700
1743902563.34504,0.059,-0.070,1.030,0.420,-2.450,-0.840
1743902563.36504,0.057,-0.070,1.029,0.280,-2.310,-0.630
1743902563.38504,0.061,-0.070,1.032,0.210,-2.170,-0.770
1743902563.40504,0.057,-0.069,1.034,0.420,-2.450,-0.770
1743902563.42504,0.057,-0.070,1.029,0.350,-2.520,-0.700
1743902563.44504,0.057,-0.070,1.031,0.350,-2.310,-0.700
1743902563.389968,0.057,-0.069,1.031,0.490,-2.380,-0.630
1743902563.409968,0.058,-0.069,1.036,0.420,-2.450,-0.700
1743902563.4299679,0.057,-0.070,1.031,0.350,-2.450,-0.700
1743902563.4499679,0.059,-0.072,1.034,0.560,-2.450,-0.630
1743902563.4699678,0.058,-0.071,1.035,0.420,-2.520,-0.630
1743902563.4899678,0.059,-0.069,1.033,0.280,-2.520,-0.630
1743902563.477169,0.059,-0.072,1.031,0.420,-2.310,-0.770
1743902563.497169,0.058,-0.068,1.027,0.490,-2.310,-0.840
1743902563.517169,0.058,-0.069,1.032,0.280,-2.380,-0.630
1743902563.537169,0.060,-0.073,1.034,0.490,-2.520,-0.700
1743902563.557169,0.057,-0.069,1.031,0.280,-2.450,-0.700
1743902563.577169,0.058,-0.069,1.030,0.280,-2.380,-0.770
1743902563.4813342,0.057,-0.069,1.033,0.420,-2.380,-0.770
1743902563.5013342,0.060,-0.070,1.034,0.350,-2.590,-0.770
1743902563.5213342,0.060,-0.069,1.027,0.280,-2.380,-0.630
1743902563.5413342,0.059,-0.068,1.029,0.420,-2.380,-0.770
1743902563.5613341,0.060,-0.069,1.033,0.350,-2.450,-0.700
1743902563.581334,0.057,-0.069,1.034,0.280,-2.520,-0.560
1743902563.52461,0.058,-0.070,1.033,0.420,-2.520,-0.700
1743902563.54461,0.060,-0.072,1.033,0.490,-2.450,-0.770
1743902563.56461,0.058,-0.071,1.034,0.210,-2.590,-0.630
1743902563.58461,0.059,-0.072,1.034,0.350,-2.450,-0.840
1743902563.60461,0.059,-0.069,1.031,0.420,-2.380,-0.840
1743902563.62461,0.060,-0.069,1.033,0.420,-2.380,-0.700
1743902563.5701342,0.060,-0.071,1.036,0.350,-2.520,-0.770
1743902563.5901341,0.058,-0.070,1.034,0.350,-2.450,-0.770
1743902563.6101341,0.060,-0.067,1.032,0.280,-2.450,-0.700
1743902563.630134,0.061,-0.068,1.034,0.280,-2.450,-0.700
1743902563.650134,0.059,-0.070,1.033,0.210,-2.450,-0.630
1743902563.670134,0.058,-0.069,1.030,0.350,-2.310,-0.700
1743902563.614954,0.061,-0.070,1.031,0.280,-2.380,-0.700
1743902563.634954,0.059,-0.071,1.032,0.350,-2.380,-0.630
1743902563.654954,0.060,-0.072,1.034,0.280,-2.380,-0.770
1743902563.674954,0.059,-0.068,1.031,0.280,-2.240,-0.770
1743902563.694954,0.060,-0.071,1.031,0.350,-2.310,-0.770
1743902563.714954,0.058,-0.070,1.032,0.350,-2.380,-0.700
1743902563.660026,0.057,-0.071,1.031,0.210,-2.310,-0.630
1743902563.680026,0.060,-0.070,1.031,0.350,-2.450,-0.770
1743902563.700026,0.057,-0.070,1.031,0.350,-2.450,-0.770
1743902563.720026,0.059,-0.069,1.031,0.420,-2.520,-0.770
1743902563.740026,0.059,-0.071,1.031,0.420,-2.520,-0.700
1743902563.760026,0.058,-0.069,1.031,0.490,-2.380,-0.770
1743902563.705141,0.060,-0.070,1.034,0.350,-2.450,-0.700
1743902563.725141,0.058,-0.072,1.033,0.490,-2.450,-0.770
1743902563.745141,0.060,-0.071,1.031,0.420,-2.590,-0.770
1743902563.765141,0.059,-0.068,1.029,0.420,-2.520,-0.840
1743902563.785141,0.059,-0.070,1.032,0.280,-2.310,-0.700
1743902563.805141,0.060,-0.071,1.032,0.280,-2.380,-0.770
1743902563.762211,0.060,-0.071,1.034,0.280,-2.660,-0.630
1743902563.782211,0.059,-0.070,1.032,0.350,-2.380,-0.770
1743902563.802211,0.060,-0.070,1.028,0.350,-2.450,-0.700
1743902563.822211,0.059,-0.069,1.031,0.280,-2.380,-0.770
1743902563.842211,0.059,-0.073,1.035,0.350,-2.520,-0.630
1743902563.862211,0.057,-0.071,1.032,0.350,-2.450,-0.770
1743902563.795262,0.060,-0.071,1.031,0.350,-2.380,-0.630
1743902563.815262,0.060,-0.069,1.029,0.280,-2.450,-0.770
1743902563.835262,0.059,-0.072,1.034,0.350,-2.590,-0.770
1743902563.855262,0.059,-0.070,1.031,0.350,-2.380,-0.770
1743902563.875262,0.060,-0.069,1.032,0.420,-2.450,-0.770
1743902563.895262,0.060,-0.070,1.033,0.420,-2.450,-0.770
1743902563.8253112,0.061,-0.068,1.034,0.350,-2.380,-0.770
1743902563.8453112,0.059,-0.072,1.034,0.280,-2.520,-0.840
1743902563.8653111,0.059,-0.070,1.030,0.280,-2.380,-0.630
1743902563.8853111,0.059,-0.070,1.031,0.420,-2.380,-0.700
1743902563.905311,0.058,-0.069,1.035,0.280,-2.590,-0.700
1743902563.925311,0.059,-0.073,1.034,0.280,-2.450,-0.700
1743902563.8701472,0.059,-0.069,1.030,0.420,-2.450,-0.630
1743902563.8901472,0.059,-0.070,1.033,0.070,-2.380,-0.630
1743902563.9101472,0.059,-0.070,1.035,0.350,-2.660,-0.700
1743902563.9301472,0.059,-0.072,1.032,0.350,-2.590,-0.770
1743902563.9501472,0.059,-0.070,1.029,0.280,-2.520,-0.700
1743902563.9701471,0.059,-0.069,1.033,0.280,-2.450,-0.770
1743902563.927565,0.059,-0.070,1.033,0.490,-2.520,-0.700
1743902563.947565,0.057,-0.069,1.032,0.280,-2.520,-0.770
1743902563.967565,0.059,-0.069,1.032,0.210,-2.590,-0.700
1743902563.987565,0.061,-0.072,1.028,0.420,-2.520,-0.700
1743902564.007565,0.060,-0.070,1.034,0.350,-2.590,-0.770
1743902564.027565,0.058,-0.070,1.033,0.280,-2.520,-0.770
1743902563.957377,0.060,-0.070,1.031,0.280,-2.590,-0.700
1743902563.977377,0.059,-0.071,1.032,0.210,-2.520,-0.700
1743902563.997377,0.061,-0.072,1.033,0.210,-2.450,-0.700
1743902564.017377,0.061,-0.069,1.030,0.280,-2.520,-0.770
1743902564.0373769,0.057,-0.069,1.030,0.350,-2.590,-0.700
1743902564.0573769,0.060,-0.070,1.034,0.420,-2.520,-0.770
1743902564.005127,0.058,-0.070,1.034,0.280,-2.590,-0.700
1743902564.025127,0.060,-0.070,1.033,0.350,-2.660,-0.630
1743902564.045127,0.060,-0.070,1.030,0.280,-2.380,-0.630
1743902564.065127,0.061,-0.069,1.033,0.490,-2.520,-0.770
1743902564.0851269,0.060,-0.071,1.035,0.420,-2.520,-0.770
1743902564.1051269,0.060,-0.067,1.032,0.280,-2.520,-0.700
1743902564.0771313,0.061,-0.071,1.029,0.350,-2.380,-0.700
1743902564.0971313,0.061,-0.069,1.031,0.490,-2.240,-0.770
1743902564.1171312,0.059,-0.071,1.034,0.280,-2.450,-0.700
1743902564.1371312,0.061,-0.071,1.034,0.280,-2.450,-0.700
1743902564.1571312,0.060,-0.071,1.028,0.420,-2.450,-0.700
1743902564.1771312,0.059,-0.071,1.033,0.280,-2.380,-0.770
1743902564.081799,0.059,-0.068,1.036,0.420,-2.520,-0.700
1743902564.101799,0.059,-0.071,1.030,0.350,-2.520,-0.700
1743902564.121799,0.060,-0.071,1.029,0.210,-2.380,-0.630
1743902564.141799,0.060,-0.071,1.032,0.280,-2.450,-0.700
1743902564.161799,0.058,-0.071,1.033,0.350,-2.450,-0.770
1743902564.181799,0.058,-0.070,1.029,0.280,-2.450,-0.700
1743902564.125012,0.059,-0.070,1.032,0.350,-2.450,-0.700
1743902564.145012,0.058,-0.072,1.032,0.350,-2.590,-0.700
1743902564.165012,0.060,-0.069,1.034,0.280,-2.520,-0.700
1743902564.1850119,0.058,-0.070,1.030,0.350,-2.590,-0.770
1743902564.2050118,0.060,-0.070,1.032,0.280,-2.380,-0.700
1743902564.2250118,0.059,-0.069,1.032,0.280,-2.590,-0.770
1743902564.183206,0.057,-0.071,1.032,0.350,-2.520,-0.770
1743902564.203206,0.061,-0.071,1.029,0.210,-2.590,-0.700
1743902564.223206,0.058,-0.071,1.029,0.280,-2.450,-0.700
1743902564.243206,0.061,-0.071,1.035,0.490,-2.450,-0.770
1743902564.263206,0.060,-0.070,1.033,0.280,-2.520,-0.770
1743902564.283206,0.059,-0.071,1.031,0.280,-2.450,-0.770
1743902564.230267,0.060,-0.071,1.031,0.490,-2.520,-0.700
1743902564.250267,0.060,-0.072,1.033,0.280,-2.380,-0.770
1743902564.270267,0.060,-0.073,1.032,0.350,-2.380,-0.700
1743902564.290267,0.060,-0.069,1.030,0.420,-2.310,-0.700
1743902564.310267,0.061,-0.070,1.033,0.490,-2.450,-0.840
1743902564.330267,0.060,-0.071,1.034,0.490,-2.450,-0.770
1743902564.275434,0.059,-0.069,1.032,0.420,-2.310,-0.700
1743902564.295434,0.061,-0.072,1.030,0.420,-2.380,-0.700
1743902564.315434,0.059,-0.069,1.033,0.420,-2.310,-0.840
1743902564.335434,0.057,-0.071,1.035,0.490,-2.450,-0.700
1743902564.355434,0.061,-0.070,1.031,0.350,-2.520,-0.700
1743902564.375434,0.060,-0.071,1.029,0.420,-2.450,-0.700
1743902564.3053222,0.060,-0.070,1.033,0.490,-2.380,-0.630
1743902564.3253222,0.061,-0.073,1.033,0.490,-2.450,-0.770
1743902564.3453221,0.060,-0.072,1.032,0.420,-2.520,-0.700
1743902564.365322,0.060,-0.072,1.027,0.420,-2.310,-0.700
1743902564.385322,0.058,-0.070,1.033,0.490,-2.380,-0.770
1743902564.405322,0.059,-0.070,1.033,0.350,-2.240,-0.770
1743902564.38892,0.061,-0.070,1.033,0.490,-2.520,-0.700
1743902564.40892,0.061,-0.069,1.031,0.350,-2.310,-0.770
1743902564.42892,0.058,-0.067,1.030,0.350,-2.380,-0.770
1743902564.44892,0.059,-0.069,1.032,0.280,-2.240,-0.770
1743902564.46892,0.060,-0.071,1.032,0.420,-2.380,-0.770
1743902564.48892,0.058,-0.069,1.033,0.420,-2.380,-0.840
1743902564.395567,0.059,-0.071,1.029,0.350,-2.380,-0.700
1743902564.415567,0.058,-0.070,1.031,0.490,-2.380,-0.770
1743902564.435567,0.059,-0.070,1.032,0.420,-2.310,-0.770
1743902564.455567,0.060,-0.070,1.031,0.350,-2.520,-0.700
1743902564.4755669,0.059,-0.071,1.030,0.420,-2.380,-0.700
1743902564.4955668,0.058,-0.069,1.032,0.490,-2.310,-0.700
1743902564.4443932,0.059,-0.070,1.035,0.420,-2.520,-0.700
1743902564.4643931,0.058,-0.070,1.029,0.420,-2.450,-0.700
1743902564.4843931,0.060,-0.069,1.030,0.490,-2.380,-0.770
1743902564.504393,0.058,-0.071,1.033,0.420,-2.450,-0.700
1743902564.524393,0.059,-0.070,1.031,0.490,-2.520,-0.700
1743902564.544393,0.058,-0.070,1.032,0.420,-2.520,-0.700
1743902564.470028,0.061,-0.070,1.029,0.350,-2.380,-0.700
1743902564.490028,0.062,-0.071,1.034,0.350,-2.450,-0.840
1743902564.510028,0.061,-0.069,1.033,0.280,-2.450,-0.770
1743902564.5300279,0.057,-0.071,1.032,0.420,-2.450,-0.700
1743902564.5500278,0.057,-0.072,1.029,0.420,-2.380,-0.770
1743902564.5700278,0.061,-0.071,1.033,0.350,-2.450,-0.770
1743902564.5141551,0.057,-0.071,1.032,0.420,-2.590,-0.630
1743902564.5341551,0.060,-0.071,1.029,0.420,-2.520,-0.700
1743902564.554155,0.059,-0.072,1.031,0.350,-2.450,-0.700
1743902564.574155,0.059,-0.071,1.034,0.490,-2.450,-0.700
1743902564.594155,0.059,-0.070,1.030,0.280,-2.520,-0.630
1743902564.614155,0.060,-0.069,1.026,0.350,-2.380,-0.700
1743902564.5725691,0.060,-0.068,1.034,0.490,-2.450,-0.700
1743902564.592569,0.058,-0.073,1.033,0.350,-2.520,-0.700
1743902564.612569,0.061,-0.070,1.028,0.280,-2.380,-0.700
1743902564.632569,0.061,-0.070,1.032,0.420,-2.310,-0.700
1743902564.652569,0.059,-0.070,1.033,0.420,-2.380,-0.700
1743902564.672569,0.058,-0.069,1.034,0.350,-2.450,-0.700
1743902564.617539,0.061,-0.069,1.033,0.420,-2.240,-0.840
1743902564.637539,0.060,-0.066,1.031,0.980,-2.520,-0.700
1743902564.657539,0.057,-0.074,1.034,-0.770,-2.030,-0.700
1743902564.6775389,0.054,-0.077,1.032,1.400,-2.730,-0.770
1743902564.6975389,0.061,-0.072,1.032,1.120,-2.030,-0.700
1743902564.7175388,0.060,-0.063,1.033,-0.490,-2.100,-0.700
1743902564.676084,0.058,-0.077,1.037,0.560,-2.590,-0.770
1743902564.696084,0.061,-0.070,1.029,1.330,-2.240,-0.840
1743902564.716084,0.060,-0.065,1.022,-0.420,-2.380,-0.700
1743902564.736084,0.060,-0.074,1.033,1.330,-1.960,-0.700
1743902564.756084,0.057,-0.068,1.040,0.770,-2.450,-0.700
1743902564.776084,0.061,-0.069,1.025,-0.420,-2.520,-0.770
1743902564.693469,0.058,-0.073,1.027,1.120,-2.100,-0.770
1743902564.713469,0.056,-0.067,1.039,0.210,-2.800,-0.700
1743902564.733469,0.059,-0.068,1.038,-0.280,-2.310,-0.770
1743902564.753469,0.061,-0.072,1.026,0.070,-2.240,-0.770
1743902564.773469,0.061,-0.068,1.033,0.700,-2.380,-0.700
1743902564.793469,0.060,-0.066,1.036,-0.140,-2.380,-0.770
1743902564.7383542,0.057,-0.072,1.034,0.000,-2.380,-0.770
1743902564.7583542,0.058,-0.073,1.030,0.770,-2.520,-0.770
1743902564.7783542,0.060,-0.066,1.024,0.350,-2.170,-0.700
1743902564.7983541,0.058,-0.071,1.034,0.000,-2.520,-0.770
1743902564.8183541,0.060,-0.071,1.032,0.700,-2.520,-0.700
1743902564.838354,0.061,-0.070,1.030,0.210,-2.520,-0.700
1743902564.7824671,0.058,-0.071,1.033,0.210,-2.380,-0.700
1743902564.802467,0.060,-0.071,1.033,0.560,-2.380,-0.770
1743902564.822467,0.060,-0.068,1.030,0.280,-2.590,-0.770
1743902564.842467,0.060,-0.071,1.033,0.490,-2.450,-0.770
1743902564.862467,0.060,-0.071,1.033,0.490,-2.520,-0.700
1743902564.882467,0.059,-0.069,1.033,0.210,-2.520,-0.700
1743902564.827438,0.060,-0.072,1.033,0.420,-2.450,-0.700
1743902564.847438,0.059,-0.071,1.030,0.420,-2.520,-0.630
1743902564.867438,0.060,-0.069,1.031,0.210,-2.380,-0.700
1743902564.887438,0.058,-0.068,1.031,0.350,-2.590,-0.700
1743902564.907438,0.060,-0.069,1.032,0.490,-2.520,-0.700
1743902564.927438,0.060,-0.068,1.032,0.350,-2.520,-0.700
1743902564.872534,0.060,-0.069,1.033,0.420,-2.590,-0.770
1743902564.892534,0.060,-0.069,1.032,0.280,-2.380,-0.700
1743902564.912534,0.059,-0.070,1.030,0.140,-2.520,-0.770
1743902564.932534,0.058,-0.069,1.030,0.280,-2.310,-0.770
1743902564.952534,0.059,-0.069,1.031,0.280,-2.100,-0.770
1743902564.972534,0.056,-0.070,1.036,0.350,-2.520,-0.630
1743902564.9174743,0.057,-0.069,1.031,0.210,-2.450,-0.770
1743902564.9374743,0.058,-0.071,1.034,0.490,-2.450,-0.770
1743902564.9574742,0.057,-0.070,1.027,0.490,-2.520,-0.770
1743902564.9774742,0.060,-0.072,1.035,0.420,-2.450,-0.700
1743902564.9974742,0.058,-0.071,1.031,0.490,-2.590,-0.770
1743902565.0174742,0.059,-0.071,1.029,0.420,-2.450,-0.770
1743902564.9775672,0.060,-0.069,1.031,0.490,-2.380,-0.700
1743902564.9975672,0.061,-0.069,1.032,0.420,-2.660,-0.700
1743902565.0175672,0.060,-0.071,1.031,0.490,-2.380,-0.700
1743902565.0375671,0.061,-0.067,1.031,0.210,-2.380,-0.700
1743902565.0575671,0.060,-0.067,1.028,17.430,-2.590,-0.770
1743902565.077567,0.056,-0.076,1.030,0.910,-1.750,-0.770
1743902565.010159,0.064,-0.065,1.033,0.210,-1.470,-0.630
1743902565.030159,0.054,-0.075,1.027,17.500,-3.220,-0.700
1743902565.050159,0.059,-0.075,1.034,1.680,-2.310,-0.840
1743902565.070159,0.067,-0.068,1.035,0.700,-2.310,-0.770
1743902565.090159,0.053,-0.066,1.029,-0.700,-3.010,-0.700
1743902565.110159,0.063,-0.078,1.029,0.490,-2.380,-0.770
1743902565.0675793,0.058,-0.067,1.032,0.770,-2.310,-0.770
1743902565.0875793,0.055,-0.062,1.031,-0.280,-3.080,-0.700
1743902565.1075792,0.061,-0.069,1.031,0.700,-1.820,-0.630
1743902565.1275792,0.057,-0.072,1.033,1.120,-2.660,-0.700
1743902565.1475792,0.056,-0.065,1.033,-0.070,-2.800,-0.630
1743902565.1675792,0.058,-0.073,1.029,0.420,-1.890,-0.630
1743902565.0852022,0.055,-0.067,1.035,0.630,-2.730,-0.770
1743902565.1052022,0.062,-0.067,1.031,-0.350,-2.030,-0.700
1743902565.1252022,0.058,-0.074,1.029,0.070,-2.800,-0.700
1743902565.1452022,0.057,-0.068,1.032,0.910,-2.730,-0.700
1743902565.1652021,0.061,-0.067,1.031,-0.280,-2.170,-0.700
1743902565.1852021,0.058,-0.074,1.030,0.630,-2.660,-0.700
1743902565.12997,0.059,-0.072,1.030,0.630,-2.100,-0.700
1743902565.14997,0.058,-0.067,1.033,-0.140,-2.590,-0.630
1743902565.16997,0.061,-0.070,1.034,0.420,-2.450,-0.630
1743902565.18997,0.060,-0.070,1.033,0.770,-2.380,-0.770
1743902565.20997,0.061,-0.068,1.031,0.070,-2.520,-0.700
1743902565.22997,0.061,-0.068,1.031,0.420,-2.310,-0.700
1743902565.175013,0.059,-0.071,1.032,0.700,-2.520,-0.630
1743902565.195013,0.057,-0.068,1.035,0.490,-2.660,-0.630
1743902565.215013,0.060,-0.071,1.029,0.140,-2.240,-0.700
1743902565.235013,0.059,-0.072,1.032,0.700,-2.450,-0.700
1743902565.255013,0.057,-0.071,1.035,0.210,-2.520,-0.770
1743902565.275013,0.058,-0.071,1.030,0.070,-2.240,-0.770
1743902565.2199702,0.059,-0.072,1.031,0.490,-2.520,-0.700
1743902565.2399702,0.060,-0.068,1.033,0.210,-2.380,-0.770
1743902565.2599702,0.059,-0.070,1.033,0.280,-2.520,-0.700
1743902565.2799702,0.057,-0.072,1.032,0.560,-2.660,-0.770
1743902565.2999701,0.061,-0.070,1.030,0.490,-2.310,-0.770
1743902565.3199701,0.059,-0.071,1.034,0.420,-2.520,-0.700
1743902565.277434,0.060,-0.069,1.031,0.420,-2.520,-0.770
1743902565.297434,0.060,-0.070,1.029,0.420,-2.450,-0.700
1743902565.317434,0.059,-0.073,1.031,0.560,-2.450,-0.700
1743902565.337434,0.061,-0.068,1.033,0.420,-2.520,-0.700
1743902565.357434,0.058,-0.069,1.029,0.350,-2.520,-0.700
1743902565.377434,0.059,-0.069,1.030,0.350,-2.380,-0.770
1743902565.310106,0.059,-0.069,1.034,0.350,-2.520,-0.700
1743902565.330106,0.058,-0.070,1.033,0.280,-2.450,-0.770
1743902565.350106,0.060,-0.070,1.031,0.420,-2.520,-0.700
1743902565.370106,0.058,-0.071,1.030,0.420,-2.450,-0.770
1743902565.390106,0.058,-0.069,1.031,0.280,-2.380,-0.770
1743902565.410106,0.059,-0.070,1.036,0.420,-2.660,-0.630
1743902565.340116,0.059,-0.068,1.031,0.420,-2.520,-0.770
1743902565.360116,0.059,-0.070,1.030,0.280,-2.520,-0.770
1743902565.380116,0.059,-0.068,1.028,0.350,-2.310,-0.770
1743902565.400116,0.059,-0.069,1.031,0.350,-2.590,-0.700
1743902565.420116,0.060,-0.071,1.032,0.420,-2.450,-0.700
1743902565.440116,0.060,-0.068,1.032,0.280,-2.380,-0.700
1743902565.3850303,0.058,-0.070,1.029,0.280,-2.520,-0.700
1743902565.4050303,0.060,-0.069,1.029,0.280,-2.520,-0.700
1743902565.4250302,0.059,-0.069,1.030,0.420,-2.590,-0.630
1743902565.4450302,0.059,-0.070,1.034,0.280,-2.590,-0.770
1743902565.4650302,0.058,-0.070,1.031,0.280,-2.520,-0.770
1743902565.4850302,0.059,-0.070,1.028,0.420,-2.380,-0.630
1743902565.414331,0.060,-0.070,1.031,0.350,-2.450,-0.700
1743902565.434331,0.060,-0.068,1.033,0.210,-2.520,-0.770
1743902565.454331,0.060,-0.069,1.031,0.350,-2.450,-0.770
1743902565.474331,0.059,-0.071,1.032,0.350,-2.590,-0.700
1743902565.494331,0.058,-0.071,1.031,0.280,-2.380,-0.630
1743902565.5143309,0.058,-0.070,1.034,0.350,-2.380,-0.630
1743902565.47156,0.060,-0.071,1.033,0.280,-2.520,-0.700
1743902565.49156,0.060,-0.070,1.029,0.280,-2.450,-0.770
1743902565.51156,0.060,-0.070,1.030,0.350,-2.520,-0.700
1743902565.53156,0.061,-0.070,1.035,0.420,-2.590,-0.700
1743902565.55156,0.058,-0.069,1.029,0.490,-2.450,-0.840
1743902565.57156,0.059,-0.069,1.030,0.420,-2.520,-0.700
1743902565.503099,0.060,-0.069,1.034,0.350,-2.520,-0.700
1743902565.523099,0.059,-0.070,1.033,0.490,-2.520,-0.700
1743902565.543099,0.059,-0.071,1.031,0.350,-2.520,-0.700
1743902565.563099,0.059,-0.070,1.030,0.350,-2.520,-0.770
1743902565.583099,0.060,-0.069,1.036,0.420,-2.380,-0.840
1743902565.6030989,0.058,-0.070,1.033,0.350,-2.450,-0.770
1743902565.592168,0.060,-0.069,1.029,0.210,-2.450,-0.770
1743902565.612168,0.060,-0.070,1.032,0.350,-2.380,-0.770
1743902565.632168,0.057,-0.069,1.032,0.350,-2.450,-0.700
1743902565.652168,0.060,-0.069,1.033,0.280,-2.520,-0.770
1743902565.672168,0.060,-0.068,1.029,0.350,-2.450,-0.770
1743902565.692168,0.061,-0.071,1.032,0.280,-2.450,-0.700
1743902565.5966082,0.059,-0.070,1.033,0.350,-2.310,-0.700
1743902565.6166081,0.057,-0.069,1.031,0.350,-2.380,-0.770
1743902565.6366081,0.057,-0.071,1.031,0.350,-2.310,-0.840
1743902565.656608,0.061,-0.071,1.029,0.420,-2.380,-0.700
1743902565.676608,0.057,-0.070,1.034,0.350,-2.380,-0.700
1743902565.696608,0.059,-0.072,1.033,0.420,-2.520,-0.630
1743902565.64004,0.059,-0.071,1.028,0.490,-2.380,-0.700
1743902565.66004,0.060,-0.070,1.031,0.420,-2.310,-0.700
1743902565.68004,0.058,-0.072,1.034,0.420,-2.520,-0.770
1743902565.7000399,0.060,-0.070,1.031,0.350,-2.520,-0.700
1743902565.7200398,0.061,-0.070,1.030,0.420,-2.380,-0.910
1743902565.7400398,0.060,-0.071,1.032,0.350,-2.310,-0.630
1743902565.6850972,0.061,-0.072,1.032,0.350,-2.450,-0.840
1743902565.7050972,0.057,-0.072,1.033,0.280,-2.660,-0.700
1743902565.7250972,0.058,-0.070,1.030,0.350,-2.520,-0.630
1743902565.7450972,0.061,-0.070,1.029,0.350,-2.310,-0.770
1743902565.7650971,0.060,-0.070,1.033,0.350,-2.450,-0.700
1743902565.7850971,0.061,-0.070,1.034,0.490,-2.660,-0.770
1743902565.712861,0.060,-0.068,1.030,0.490,-2.380,-0.630
1743902565.732861,0.061,-0.070,1.028,0.070,-2.240,-0.770
1743902565.752861,0.059,-0.072,1.031,0.350,-2.310,-0.700
1743902565.772861,0.059,-0.074,1.031,0.700,-2.310,-0.840
1743902565.792861,0.059,-0.069,1.034,0.420,-2.380,-0.700
1743902565.812861,0.057,-0.068,1.032,0.350,-2.590,-0.700
1743902565.758637,0.060,-0.069,1.033,0.560,-2.310,-0.700
1743902565.778637,0.060,-0.070,1.034,0.630,-2.310,-0.700
1743902565.798637,0.057,-0.067,1.033,0.350,-2.590,-0.700
1743902565.818637,0.059,-0.071,1.026,0.280,-2.380,-0.700
1743902565.8386369,0.061,-0.073,1.031,0.560,-2.310,-0.770
1743902565.8586369,0.056,-0.068,1.033,0.420,-2.450,-0.700
1743902565.804227,0.062,-0.069,1.033,0.140,-2.380,-0.700
1743902565.824227,0.059,-0.068,1.032,0.280,-2.310,-0.700
1743902565.844227,0.059,-0.070,1.032,0.350,-2.520,-0.630
1743902565.864227,0.061,-0.070,1.033,0.210,-2.380,-0.700
1743902565.884227,0.060,-0.071,1.034,0.280,-2.450,-0.700
1743902565.904227,0.060,-0.070,1.033,0.420,-2.450,-0.770
1743902565.8612041,0.059,-0.070,1.031,0.350,-2.380,-0.770
1743902565.8812041,0.058,-0.071,1.029,0.280,-2.520,-0.630
1743902565.901204,0.061,-0.071,1.030,0.490,-2.380,-0.770
1743902565.921204,0.061,-0.070,1.032,0.490,-2.310,-0.700
1743902565.941204,0.061,-0.071,1.032,0.280,-2.450,-0.630
1743902565.961204,0.061,-0.072,1.029,0.420,-2.380,-0.770
1743902565.8776712,0.061,-0.069,1.029,0.420,-2.310,-0.700
1743902565.8976712,0.057,-0.070,1.030,0.350,-2.520,-0.700
1743902565.9176712,0.059,-0.070,1.032,0.350,-2.520,-0.770
1743902565.9376712,0.059,-0.071,1.031,0.350,-2.450,-0.700
1743902565.9576712,0.058,-0.069,1.031,0.420,-2.450,-0.700
1743902565.9776711,0.058,-0.070,1.033,0.350,-2.450,-0.700
1743902565.908292,0.059,-0.068,1.032,0.420,-2.590,-0.630
1743902565.928292,0.061,-0.068,1.033,0.350,-2.590,-0.770
1743902565.948292,0.059,-0.070,1.031,0.350,-2.450,-0.770
1743902565.968292,0.057,-0.070,1.034,0.350,-2.450,-0.770
1743902565.988292,0.058,-0.071,1.031,0.350,-2.380,-0.700
1743902566.008292,0.059,-0.071,1.032,0.350,-2.520,-0.770
1743902565.953372,0.057,-0.069,1.028,0.420,-2.520,-0.770
1743902565.973372,0.059,-0.070,1.033,0.420,-2.240,-0.700
1743902565.993372,0.059,-0.071,1.035,0.280,-2.520,-0.700
1743902566.013372,0.058,-0.070,1.031,0.420,-2.590,-0.770
1743902566.033372,0.059,-0.069,1.030,0.350,-2.380,-0.700
1743902566.053372,0.059,-0.069,1.032,0.280,-2.310,-0.700
1743902565.995901,0.059,-0.068,1.035,0.420,-2.450,-0.700
1743902566.015901,0.061,-0.069,1.031,0.350,-2.450,-0.770
1743902566.035901,0.059,-0.070,1.030,0.350,-2.520,-0.630
1743902566.055901,0.059,-0.071,1.028,0.350,-2.520,-0.770
1743902566.075901,0.058,-0.069,1.028,0.280,-2.590,-0.700
1743902566.095901,0.059,-0.069,1.035,0.210,-2.520,-0.700
1743902566.027476,0.060,-0.070,1.031,0.350,-2.450,-0.700
1743902566.047476,0.059,-0.070,1.031,0.490,-2.380,-0.700
1743902566.067476,0.058,-0.071,1.032,0.350,-2.380,-0.700
1743902566.087476,0.058,-0.071,1.033,0.350,-2.450,-0.770
1743902566.107476,0.058,-0.071,1.029,0.490,-2.590,-0.770
1743902566.127476,0.059,-0.070,1.031,0.350,-2.450,-0.770
1743902566.075099,0.057,-0.071,1.032,0.280,-2.590,-0.700
1743902566.095099,0.062,-0.068,1.035,0.350,-2.590,-0.700
1743902566.115099,0.061,-0.069,1.025,0.210,-2.450,-0.700
1743902566.135099,0.060,-0.069,1.032,0.280,-2.450,-0.770
1743902566.155099,0.061,-0.071,1.035,0.350,-2.450,-0.700
1743902566.175099,0.059,-0.073,1.034,0.280,-2.450,-0.700
1743902566.12007,0.059,-0.070,1.029,0.210,-2.380,-0.840
1743902566.14007,0.058,-0.069,1.029,0.210,-2.450,-0.770
1743902566.16007,0.059,-0.070,1.029,0.350,-2.520,-0.770
1743902566.18007,0.057,-0.069,1.033,0.350,-2.450,-0.770
1743902566.20007,0.058,-0.070,1.032,0.280,-2.590,-0.700
1743902566.22007,0.058,-0.070,1.032,0.350,-2.520,-0.770
1743902566.1775131,0.060,-0.070,1.032,0.210,-2.380,-0.770
1743902566.197513,0.059,-0.072,1.033,0.210,-2.450,-0.630
1743902566.217513,0.059,-0.074,1.034,0.280,-2.450,-0.770
1743902566.237513,0.060,-0.072,1.030,0.280,-2.450,-0.770
1743902566.257513,0.060,-0.069,1.030,0.350,-2.450,-0.700
1743902566.277513,0.058,-0.069,1.034,0.420,-2.590,-0.770
1743902566.192338,0.060,-0.069,1.033,0.490,-2.450,-0.700
1743902566.212338,0.060,-0.069,1.032,0.490,-2.450,-0.770
1743902566.232338,0.060,-0.070,1.029,0.350,-2.520,-0.700
1743902566.252338,0.062,-0.067,1.031,0.350,-2.450,-0.700
1743902566.272338,0.059,-0.071,1.033,0.280,-2.590,-0.770
1743902566.292338,0.063,-0.072,1.030,0.350,-2.450,-0.630
1743902566.240132,0.061,-0.070,1.031,0.420,-2.310,-0.700
1743902566.260132,0.059,-0.070,1.034,0.350,-2.380,-0.700
1743902566.280132,0.059,-0.072,1.034,0.280,-2.450,-0.770
1743902566.300132,0.059,-0.069,1.028,0.420,-2.520,-0.700
1743902566.320132,0.060,-0.071,1.032,0.350,-2.450,-0.770
1743902566.340132,0.061,-0.069,1.034,0.420,-2.380,-0.700
1743902566.284997,0.058,-0.070,1.032,0.560,-2.520,-0.840
1743902566.304997,0.061,-0.069,1.032,0.350,-2.450,-0.630
1743902566.324997,0.060,-0.071,1.031,0.210,-2.240,-0.770
1743902566.344997,0.059,-0.069,1.033,0.490,-2.450,-0.700
1743902566.364997,0.060,-0.069,1.031,0.280,-2.520,-0.700
1743902566.384997,0.059,-0.067,1.030,0.420,-2.520,-0.770
1743902566.3301811,0.059,-0.068,1.033,0.420,-2.380,-0.770
1743902566.350181,0.059,-0.071,1.034,0.420,-2.590,-0.630
1743902566.370181,0.058,-0.070,1.032,0.350,-2.450,-0.770
1743902566.390181,0.060,-0.070,1.030,0.490,-2.450,-0.770
1743902566.410181,0.059,-0.071,1.033,0.280,-2.450,-0.770
1743902566.430181,0.059,-0.072,1.035,0.280,-2.450,-0.700
1743902566.3875012,0.059,-0.072,1.034,0.280,-2.380,-0.770
1743902566.4075012,0.059,-0.073,1.034,0.350,-2.590,-0.700
1743902566.4275012,0.058,-0.072,1.030,0.280,-2.380,-0.700
1743902566.4475012,0.058,-0.072,1.033,0.420,-2.380,-0.770
1743902566.4675012,0.058,-0.070,1.034,0.420,-2.590,-0.700
1743902566.4875011,0.058,-0.070,1.034,0.420,-2.450,-0.770
1743902566.417458,0.060,-0.070,1.029,0.420,-2.310,-0.770
1743902566.437458,0.058,-0.068,1.029,0.490,-2.590,-0.700
1743902566.457458,0.057,-0.069,1.031,0.490,-2.380,-0.630
1743902566.477458,0.059,-0.070,1.034,0.350,-2.450,-0.700
1743902566.497458,0.059,-0.070,1.030,0.420,-2.380,-0.770
1743902566.517458,0.059,-0.071,1.028,0.490,-2.310,-0.700
1743902566.477232,0.059,-0.070,1.033,0.420,-2.380,-0.770
1743902566.497232,0.059,-0.070,1.034,0.350,-2.450,-0.700
1743902566.517232,0.061,-0.072,1.034,0.210,-2.520,-0.700
1743902566.537232,0.060,-0.072,1.030,0.350,-2.380,-0.630
1743902566.557232,0.059,-0.072,1.030,0.420,-2.380,-0.770
1743902566.577232,0.060,-0.072,1.034,0.490,-2.450,-0.840
1743902566.482366,0.060,-0.070,1.032,0.560,-2.450,-0.700
1743902566.502366,0.059,-0.069,1.030,0.420,-2.380,-0.630
1743902566.522366,0.060,-0.070,1.031,0.350,-2.450,-0.700
1743902566.542366,0.059,-0.069,1.034,0.490,-2.450,-0.770
1743902566.562366,0.060,-0.068,1.032,0.350,-2.660,-0.700
1743902566.582366,0.060,-0.070,1.032,0.210,-2.450,-0.700
1743902566.5251422,0.060,-0.071,1.030,0.350,-2.310,-0.700
1743902566.5451422,0.060,-0.067,1.033,0.490,-2.310,-0.770
1743902566.5651422,0.060,-0.070,1.034,0.280,-2.590,-0.770
1743902566.5851421,0.060,-0.071,1.031,0.420,-2.450,-0.700
1743902566.605142,0.059,-0.071,1.029,0.490,-2.590,-0.770
1743902566.625142,0.059,-0.069,1.033,0.350,-2.450,-0.700
1743902566.570169,0.061,-0.072,1.033,0.210,-2.520,-0.630
1743902566.590169,0.061,-0.072,1.031,0.420,-2.520,-0.700
1743902566.610169,0.061,-0.069,1.031,0.420,-2.380,-0.700
1743902566.630169,0.060,-0.069,1.034,0.420,-2.450,-0.840
1743902566.650169,0.058,-0.070,1.031,0.420,-2.450,-0.770
1743902566.6701689,0.057,-0.071,1.032,0.490,-2.520,-0.770
1743902566.6132581,0.059,-0.068,1.030,0.280,-2.520,-0.770
1743902566.633258,0.062,-0.071,1.033,0.420,-2.450,-0.840
1743902566.653258,0.060,-0.070,1.034,0.420,-2.520,-0.700
1743902566.673258,0.060,-0.069,1.032,0.350,-2.520,-0.840
1743902566.693258,0.061,-0.070,1.031,0.280,-2.310,-0.700
1743902566.713258,0.061,-0.073,1.032,0.490,-2.310,-0.770
1743902566.6590872,0.061,-0.067,1.035,0.350,-2.590,-0.560
1743902566.6790872,0.059,-0.068,1.031,0.350,-2.520,-0.770
1743902566.6990871,0.060,-0.070,1.028,0.350,-2.450,-0.700
1743902566.7190871,0.058,-0.071,1.033,0.350,-2.240,-0.840
1743902566.739087,0.060,-0.068,1.032,0.420,-2.450,-0.770
1743902566.759087,0.061,-0.070,1.029,0.350,-2.310,-0.630
1743902566.702588,0.059,-0.070,1.031,0.350,-2.450,-0.700
1743902566.722588,0.060,-0.069,1.035,0.350,-2.380,-0.700
1743902566.742588,0.057,-0.071,1.035,0.420,-2.380,-0.770
1743902566.762588,0.057,-0.068,1.028,0.350,-2.520,-0.770
1743902566.782588,0.060,-0.069,1.028,0.350,-2.380,-0.700
1743902566.802588,0.059,-0.069,1.033,0.420,-2.520,-0.770
1743902566.784327,0.060,-0.070,1.033,0.350,-2.450,-0.630
1743902566.804327,0.061,-0.071,1.029,0.420,-2.450,-0.630
1743902566.824327,0.060,-0.071,1.033,0.420,-2.380,-0.840
1743902566.844327,0.057,-0.069,1.035,0.350,-2.520,-0.770
1743902566.864327,0.060,-0.071,1.032,0.350,-2.590,-0.700
1743902566.884327,0.061,-0.070,1.030,0.420,-2.380,-0.700
1743902566.784998,0.060,-0.070,1.031,0.210,-2.450,-0.630
1743902566.804998,0.058,-0.072,1.033,0.280,-2.520,-0.700
1743902566.824998,0.061,-0.071,1.031,0.420,-2.520,-0.770
1743902566.844998,0.061,-0.071,1.031,0.280,-2.520,-0.700
1743902566.8649979,0.061,-0.070,1.031,0.280,-2.380,-0.770
1743902566.8849978,0.060,-0.069,1.033,0.350,-2.520,-0.700
1743902566.838534,0.059,-0.070,1.032,0.280,-2.590,-0.630
1743902566.858534,0.062,-0.070,1.031,0.350,-2.450,-0.770
1743902566.878534,0.060,-0.070,1.031,0.420,-2.450,-0.770
1743902566.898534,0.061,-0.069,1.034,0.350,-2.520,-0.700
1743902566.918534,0.061,-0.071,1.031,0.350,-2.380,-0.770
1743902566.938534,0.061,-0.068,1.032,0.350,-2.450,-0.840
1743902566.883588,0.060,-0.070,1.031,0.280,-2.380,-0.700
1743902566.903588,0.060,-0.069,1.034,0.350,-2.590,-0.770
1743902566.923588,0.059,-0.071,1.032,0.350,-2.450,-0.700
1743902566.943588,0.061,-0.072,1.029,0.210,-2.380,-0.700
1743902566.963588,0.060,-0.070,1.033,0.280,-2.520,-0.700
1743902566.983588,0.059,-0.071,1.034,0.350,-2.450,-0.770
1743902566.927691,0.060,-0.069,1.031,0.210,-2.380,-0.700
1743902566.947691,0.059,-0.069,1.029,0.210,-2.450,-0.770
1743902566.967691,0.059,-0.070,1.034,0.280,-2.380,-0.700
1743902566.987691,0.060,-0.071,1.032,0.210,-2.380,-0.700
1743902567.007691,0.059,-0.069,1.033,0.280,-2.450,-0.700
1743902567.027691,0.061,-0.071,1.030,0.350,-2.380,-0.630
1743902566.9710302,0.060,-0.071,1.033,0.210,-2.240,-0.700
1743902566.9910302,0.059,-0.070,1.033,0.280,-2.380,-0.770
1743902567.0110302,0.060,-0.070,1.033,0.350,-2.520,-0.770
1743902567.0310302,0.058,-0.070,1.031,0.420,-2.520,-0.700
1743902567.0510302,0.060,-0.069,1.030,0.350,-2.450,-0.700
1743902567.0710301,0.059,-0.070,1.034,0.420,-2.450,-0.770
1743902567.003591,0.061,-0.068,1.032,0.350,-2.520,-0.700
1743902567.023591,0.060,-0.071,1.031,0.420,-2.520,-0.770
1743902567.043591,0.060,-0.072,1.029,0.420,-2.380,-0.700
1743902567.063591,0.059,-0.068,1.033,0.560,-2.380,-0.630
1743902567.083591,0.063,-0.064,1.035,0.560,-2.520,-0.630
1743902567.103591,0.064,-0.065,1.022,-1.120,-2.030,-0.700
1743902567.077531,0.055,-0.081,1.026,-0.420,-2.590,-0.840
1743902567.097531,0.063,-0.073,1.036,1.750,-2.100,-0.770
1743902567.117531,0.059,-0.061,1.034,0.560,-2.030,-0.630
1743902567.137531,0.055,-0.070,1.031,-0.210,-2.730,-0.700
1743902567.157531,0.061,-0.077,1.035,1.330,-2.100,-0.840
1743902567.177531,0.058,-0.071,1.034,0.630,-2.730,-0.700
1743902567.0922751,0.060,-0.072,1.026,-0.070,-2.660,-0.630
1743902567.1122751,0.062,-0.076,1.029,0.420,-1.820,-0.770
1743902567.132275,0.059,-0.065,1.037,0.770,-2.520,-0.630
1743902567.152275,0.056,-0.066,1.033,-0.280,-2.660,-0.630
1743902567.172275,0.061,-0.072,1.029,0.140,-2.100,-0.770
1743902567.192275,0.057,-0.072,1.032,0.980,-2.310,-0.770
1743902567.1231222,0.060,-0.068,1.035,-0.210,-2.380,-0.630
1743902567.1431222,0.061,-0.071,1.033,0.280,-2.310,-0.700
1743902567.1631222,0.059,-0.072,1.029,0.560,-2.520,-0.770
1743902567.1831222,0.060,-0.067,1.035,0.070,-2.240,-0.630
1743902567.2031221,0.060,-0.071,1.032,0.350,-2.590,-0.700
1743902567.2231221,0.059,-0.068,1.031,0.770,-2.520,-0.770
1743902567.170083,0.061,-0.071,1.033,0.000,-2.310,-0.630
1743902567.190083,0.060,-0.072,1.033,0.490,-2.380,-0.840
1743902567.210083,0.060,-0.071,1.029,0.560,-2.380,-0.700
1743902567.230083,0.058,-0.070,1.033,0.000,-2.380,-0.770
1743902567.250083,0.061,-0.072,1.033,0.420,-2.520,-0.700
1743902567.270083,0.059,-0.071,1.030,0.420,-2.380,-0.770
1743902567.2142172,0.058,-0.068,1.029,0.140,-2.450,-0.630
1743902567.2342172,0.058,-0.069,1.033,0.210,-2.310,-0.770
1743902567.2542171,0.061,-0.073,1.034,0.490,-2.380,-0.700
1743902567.2742171,0.061,-0.071,1.034,0.490,-2.590,-0.770
1743902567.294217,0.061,-0.069,1.031,0.210,-2.380,-0.700
1743902567.314217,0.057,-0.071,1.034,0.490,-2.520,-0.770
1743902567.2601132,0.060,-0.071,1.035,0.490,-2.450,-0.770
1743902567.2801132,0.059,-0.070,1.032,0.210,-2.380,-0.630
1743902567.3001132,0.060,-0.071,1.030,0.490,-2.450,-0.700
1743902567.3201132,0.060,-0.071,1.034,0.350,-2.380,-0.700
1743902567.3401132,0.060,-0.072,1.033,0.210,-2.520,-0.770
1743902567.3601131,0.059,-0.070,1.030,0.420,-2.590,-0.700
1743902567.3052351,0.060,-0.068,1.034,0.490,-2.310,-0.630
1743902567.3252351,0.059,-0.070,1.034,0.350,-2.450,-0.630
1743902567.345235,0.059,-0.070,1.029,0.560,-2.450,-0.770
1743902567.365235,0.060,-0.070,1.030,0.490,-2.520,-0.770
1743902567.385235,0.058,-0.067,1.030,0.280,-2.450,-0.770
1743902567.405235,0.058,-0.071,1.032,0.490,-2.380,-0.630
1743902567.377464,0.060,-0.069,1.034,0.350,-2.520,-0.840
1743902567.397464,0.060,-0.070,1.030,0.420,-2.450,-0.770
1743902567.417464,0.059,-0.072,1.032,0.560,-2.380,-0.700
1743902567.437464,0.061,-0.070,1.035,0.420,-2.380,-0.840
1743902567.457464,0.057,-0.071,1.031,0.350,-2.380,-0.700
1743902567.477464,0.058,-0.073,1.031,0.490,-2.310,-0.770
1743902567.395137,0.058,-0.072,1.034,0.420,-2.450,-0.700
1743902567.415137,0.059,-0.068,1.035,0.420,-2.380,-0.770
1743902567.435137,0.061,-0.070,1.035,0.280,-2.380,-0.770
1743902567.455137,0.060,-0.070,1.030,0.420,-2.310,-0.700
1743902567.475137,0.057,-0.070,1.032,0.420,-2.310,-0.700
1743902567.495137,0.058,-0.071,1.034,0.350,-2.380,-0.700
1743902567.4384933,0.059,-0.069,1.034,0.210,-2.520,-0.770
1743902567.4584932,0.059,-0.071,1.028,0.210,-2.450,-0.700
1743902567.4784932,0.059,-0.070,1.033,0.280,-2.380,-0.630
1743902567.4984932,0.058,-0.069,1.032,0.350,-2.520,-0.700
1743902567.5184932,0.057,-0.070,1.032,0.560,-2.380,-0.700
1743902567.5384932,0.059,-0.068,1.032,0.490,-2.450,-0.770
1743902567.483552,0.059,-0.070,1.032,0.280,-2.380,-0.700
1743902567.503552,0.061,-0.069,1.033,0.350,-2.310,-0.700
1743902567.523552,0.057,-0.070,1.031,0.280,-2.520,-0.770
1743902567.543552,0.058,-0.071,1.031,0.420,-2.240,-0.770
1743902567.563552,0.060,-0.071,1.033,0.420,-2.450,-0.700
1743902567.583552,0.057,-0.070,1.034,0.420,-2.520,-0.770
1743902567.527607,0.060,-0.071,1.031,0.280,-2.310,-0.770
1743902567.547607,0.059,-0.069,1.032,0.280,-2.450,-0.700
1743902567.567607,0.060,-0.070,1.032,0.350,-2.520,-0.770
1743902567.587607,0.058,-0.070,1.033,0.280,-2.450,-0.630
1743902567.607607,0.057,-0.070,1.031,0.350,-2.520,-0.840
1743902567.6276069,0.061,-0.073,1.032,0.420,-2.380,-0.770
1743902567.572566,0.059,-0.069,1.034,0.280,-2.520,-0.700
1743902567.592566,0.057,-0.071,1.030,0.420,-2.590,-0.770
1743902567.612566,0.060,-0.072,1.030,0.420,-2.380,-0.770
1743902567.632566,0.059,-0.070,1.032,0.350,-2.380,-0.700
1743902567.652566,0.057,-0.072,1.034,0.420,-2.450,-0.700
1743902567.672566,0.059,-0.069,1.027,0.420,-2.450,-0.700
1743902567.661345,0.060,-0.069,1.031,0.490,-2.380,-0.770
1743902567.681345,0.060,-0.069,1.030,0.420,-2.450,-0.700
1743902567.701345,0.061,-0.071,1.032,0.420,-2.520,-0.700
1743902567.721345,0.059,-0.069,1.029,0.350,-2.450,-0.700
1743902567.741345,0.060,-0.069,1.028,0.420,-2.240,-0.700
1743902567.761345,0.060,-0.070,1.035,0.420,-2.380,-0.700
1743902567.677609,0.060,-0.068,1.032,0.420,-2.450,-0.700
1743902567.697609,0.060,-0.071,1.032,0.350,-2.310,-0.770
1743902567.717609,0.057,-0.072,1.031,0.420,-2.310,-0.770
1743902567.737609,0.059,-0.071,1.034,0.350,-2.520,-0.700
1743902567.757609,0.058,-0.068,1.033,0.420,-2.380,-0.770
1743902567.7776089,0.059,-0.071,1.030,0.490,-2.520,-0.700
1743902567.7102191,0.060,-0.071,1.034,0.420,-2.240,-0.700
1743902567.7302191,0.059,-0.071,1.034,0.420,-2.590,-0.700
1743902567.750219,0.059,-0.070,1.031,0.490,-2.520,-0.700
1743902567.770219,0.061,-0.070,1.031,0.490,-2.380,-0.700
1743902567.790219,0.059,-0.068,1.032,0.350,-2.520,-0.770
1743902567.810219,0.061,-0.070,1.031,0.280,-2.450,-0.630
1743902567.7401862,0.059,-0.069,1.032,0.350,-2.450,-0.770
1743902567.7601862,0.059,-0.071,1.030,0.420,-2.450,-0.770
1743902567.7801862,0.060,-0.067,1.030,0.350,-2.380,-0.770
1743902567.8001862,0.057,-0.068,1.033,0.420,-2.450,-0.700
1743902567.8201861,0.059,-0.069,1.030,0.350,-2.310,-0.770
1743902567.840186,0.060,-0.070,1.031,0.350,-2.520,-0.770
1743902567.785154,0.060,-0.069,1.032,0.490,-2.380,-0.770
1743902567.805154,0.061,-0.069,1.036,0.420,-2.450,-0.770
1743902567.825154,0.058,-0.070,1.033,0.280,-2.380,-0.700
1743902567.845154,0.061,-0.072,1.028,0.350,-2.310,-0.840
1743902567.865154,0.061,-0.071,1.033,0.350,-2.310,-0.700
1743902567.885154,0.060,-0.071,1.032,0.350,-2.450,-0.770
1743902567.8451562,0.059,-0.071,1.031,0.350,-2.380,-0.700
1743902567.8651562,0.059,-0.070,1.030,0.280,-2.310,-0.700
1743902567.8851562,0.061,-0.070,1.033,0.350,-2.450,-0.630
1743902567.9051561,0.060,-0.070,1.031,0.280,-2.450,-0.700
1743902567.925156,0.059,-0.070,1.029,0.350,-2.450,-0.700
1743902567.945156,0.060,-0.069,1.030,0.280,-2.380,-0.770
1743902567.890306,0.058,-0.068,1.035,0.210,-2.240,-0.770
1743902567.910306,0.059,-0.071,1.033,0.350,-2.520,-0.630
1743902567.930306,0.058,-0.071,1.029,0.350,-2.380,-0.700
1743902567.950306,0.060,-0.070,1.031,0.420,-2.380,-0.770
1743902567.970306,0.061,-0.067,1.031,0.280,-2.380,-0.630
1743902567.990306,0.059,-0.071,1.033,0.280,-2.450,-0.700
1743902567.9202552,0.058,-0.069,1.031,0.490,-2.310,-0.700
1743902567.9402552,0.058,-0.069,1.034,0.280,-2.380,-0.630
1743902567.9602551,0.059,-0.069,1.034,0.560,-2.520,-0.700
1743902567.9802551,0.060,-0.070,1.031,0.420,-2.380,-0.770
1743902568.000255,0.061,-0.070,1.027,0.210,-2.450,-0.700
1743902568.020255,0.060,-0.071,1.031,0.420,-2.380,-0.700
1743902567.980267,0.058,-0.070,1.033,0.420,-2.590,-0.630
1743902568.000267,0.060,-0.069,1.029,0.280,-2.380,-0.700
1743902568.020267,0.058,-0.069,1.033,0.280,-2.240,-0.770
1743902568.040267,0.058,-0.070,1.034,0.490,-2.380,-0.700
1743902568.060267,0.059,-0.069,1.033,0.350,-2.590,-0.700
1743902568.080267,0.061,-0.071,1.032,0.350,-2.380,-0.700
1743902568.0101953,0.059,-0.071,1.028,0.350,-2.450,-0.770
1743902568.0301952,0.060,-0.069,1.033,0.350,-2.450,-0.700
1743902568.0501952,0.059,-0.072,1.029,0.350,-2.520,-0.770
1743902568.0701952,0.057,-0.071,1.031,0.420,-2.450,-0.700
1743902568.0901952,0.060,-0.069,1.029,0.490,-2.380,-0.700
1743902568.1101952,0.060,-0.071,1.033,0.420,-2.380,-0.630
1743902568.07019,0.059,-0.071,1.036,0.490,-2.450,-0.700
1743902568.09019,0.060,-0.070,1.030,0.280,-2.450,-0.700
1743902568.11019,0.060,-0.071,1.029,0.490,-2.310,-0.630
1743902568.13019,0.060,-0.071,1.033,0.420,-2.520,-0.700
1743902568.1501899,0.060,-0.071,1.031,0.420,-2.310,-0.630
1743902568.1701899,0.061,-0.071,1.029,0.350,-2.310,-0.770
1743902568.100279,0.060,-0.070,1.033,0.350,-2.310,-0.700
1743902568.120279,0.058,-0.070,1.035,0.490,-2.380,-0.770
1743902568.140279,0.057,-0.069,1.033,0.350,-2.380,-0.770
1743902568.160279,0.058,-0.069,1.031,0.490,-2.380,-0.630
1743902568.180279,0.059,-0.069,1.034,0.420,-2.310,-0.770
1743902568.200279,0.058,-0.070,1.035,0.420,-2.520,-0.770
1743902568.145291,0.059,-0.070,1.030,0.350,-2.310,-0.630
1743902568.165291,0.060,-0.068,1.026,0.420,-2.380,-0.770
1743902568.185291,0.060,-0.070,1.032,0.490,-2.520,-0.700
1743902568.205291,0.059,-0.069,1.032,0.350,-2.450,-0.770
1743902568.225291,0.055,-0.068,1.029,0.420,-2.520,-0.700
1743902568.245291,0.060,-0.073,1.032,0.280,-2.380,-0.700
1743902568.1902132,0.058,-0.072,1.031,0.490,-2.380,-0.700
1743902568.2102132,0.060,-0.068,1.033,0.420,-2.450,-0.700
1743902568.2302132,0.059,-0.068,1.032,0.350,-2.520,-0.700
1743902568.2502131,0.060,-0.069,1.028,0.350,-2.240,-0.770
1743902568.2702131,0.058,-0.070,1.032,0.350,-2.380,-0.700
1743902568.290213,0.057,-0.069,1.034,0.280,-2.380,-0.770
1743902568.27691,0.057,-0.069,1.033,0.350,-2.520,-0.770
1743902568.29691,0.061,-0.069,1.031,0.350,-2.310,-0.700
1743902568.31691,0.057,-0.071,1.031,0.210,-2.380,-0.770
1743902568.33691,0.058,-0.072,1.033,0.280,-2.520,-0.770
1743902568.35691,0.057,-0.069,1.033,0.420,-2.450,-0.700
1743902568.37691,0.058,-0.071,1.028,0.280,-2.520,-0.700
1743902568.278474,0.059,-0.070,1.031,0.210,-2.450,-0.700
1743902568.298474,0.060,-0.072,1.034,0.350,-2.450,-0.700
1743902568.318474,0.058,-0.072,1.030,0.350,-2.450,-0.770
1743902568.338474,0.059,-0.073,1.031,0.280,-2.380,-0.770
1743902568.358474,0.058,-0.072,1.033,0.350,-2.310,-0.700
1743902568.378474,0.057,-0.071,1.031,0.350,-2.590,-0.700
1743902568.310306,0.058,-0.071,1.033,0.350,-2.520,-0.700
1743902568.330306,0.058,-0.072,1.032,0.350,-2.520,-0.700
1743902568.350306,0.057,-0.070,1.030,0.350,-2.450,-0.770
1743902568.370306,0.061,-0.069,1.034,0.420,-2.450,-0.700
1743902568.390306,0.057,-0.070,1.033,0.420,-2.590,-0.700
1743902568.410306,0.061,-0.070,1.025,0.630,-2.450,-0.700
1743902568.355333,0.060,-0.070,1.031,0.350,-2.310,-0.770
1743902568.375333,0.059,-0.072,1.030,0.280,-2.660,-0.700
1743902568.395333,0.057,-0.068,1.031,0.560,-2.450,-0.630
1743902568.415333,0.059,-0.069,1.031,0.420,-2.450,-0.700
1743902568.435333,0.058,-0.071,1.031,0.490,-2.450,-0.700
1743902568.455333,0.059,-0.071,1.032,0.560,-2.380,-0.770
1743902568.4001002,0.058,-0.071,1.035,0.490,-2.310,-0.700
1743902568.4201002,0.061,-0.070,1.031,0.420,-2.520,-0.700
1743902568.4401002,0.061,-0.070,1.030,0.770,-2.380,-0.700
1743902568.4601002,0.059,-0.071,1.033,0.560,-2.450,-0.770
1743902568.4801002,0.058,-0.070,1.036,0.630,-2.450,-0.840
1743902568.5001001,0.057,-0.070,1.033,0.770,-2.450,-0.770
1743902568.444178,0.058,-0.068,1.028,0.490,-2.450,-0.700
1743902568.464178,0.057,-0.068,1.033,0.420,-2.380,-0.630
1743902568.484178,0.059,-0.071,1.033,0.700,-2.450,-0.770
1743902568.504178,0.059,-0.068,1.034,0.280,-2.520,-0.770
1743902568.524178,0.060,-0.066,1.028,0.210,-2.450,-0.630
1743902568.544178,0.059,-0.069,1.028,0.350,-2.520,-0.700
1743902568.4752212,0.058,-0.069,1.034,0.560,-2.310,-0.770
1743902568.4952211,0.059,-0.067,1.033,0.350,-2.520,-0.700
1743902568.515221,0.057,-0.068,1.031,0.420,-2.450,-0.700
1743902568.535221,0.059,-0.071,1.028,0.560,-2.170,-0.770
1743902568.555221,0.059,-0.070,1.033,0.280,-2.450,-0.840
1743902568.575221,0.058,-0.071,1.032,0.350,-2.450,-0.770
1743902568.5200691,0.059,-0.072,1.028,0.420,-2.380,-0.700
1743902568.540069,0.060,-0.069,1.031,0.280,-2.380,-0.700
1743902568.560069,0.057,-0.070,1.035,0.350,-2.380,-0.700
1743902568.580069,0.058,-0.072,1.034,0.350,-2.450,-0.700
1743902568.600069,0.059,-0.069,1.027,0.350,-2.380,-0.700
1743902568.620069,0.059,-0.068,1.032,0.420,-2.380,-0.630
1743902568.5775552,0.058,-0.070,1.032,0.210,-2.380,-0.840
1743902568.5975552,0.059,-0.069,1.035,0.280,-2.450,-0.770
1743902568.6175551,0.058,-0.071,1.026,0.350,-2.380,-0.700
1743902568.6375551,0.059,-0.069,1.031,0.350,-2.450,-0.700
1743902568.657555,0.059,-0.067,1.034,0.210,-2.450,-0.700
1743902568.677555,0.059,-0.071,1.035,0.280,-2.590,-0.770
1743902568.610191,0.060,-0.070,1.031,0.420,-2.380,-0.770
1743902568.630191,0.057,-0.068,1.030,0.280,-2.380,-0.770
1743902568.650191,0.058,-0.070,1.035,0.280,-2.450,-0.770
1743902568.670191,0.061,-0.070,1.033,0.420,-2.450,-0.700
1743902568.690191,0.058,-0.069,1.031,0.280,-2.450,-0.700
1743902568.710191,0.060,-0.071,1.034,0.350,-2.380,-0.700
1743902568.6551232,0.058,-0.070,1.035,0.420,-2.380,-0.700
1743902568.6751232,0.058,-0.070,1.032,0.490,-2.450,-0.700
1743902568.6951232,0.060,-0.070,1.026,0.420,-2.450,-0.700
1743902568.7151232,0.058,-0.070,1.031,0.280,-2.310,-0.630
1743902568.7351232,0.059,-0.070,1.035,0.420,-2.310,-0.770
1743902568.7551231,0.058,-0.067,1.033,0.280,-2.450,-0.700
1743902568.6853,0.059,-0.070,1.030,0.350,-2.520,-0.630
1743902568.7053,0.059,-0.071,1.031,0.350,-2.310,-0.700
1743902568.7253,0.057,-0.070,1.034,0.280,-2.380,-0.630
1743902568.7453,0.060,-0.069,1.035,0.140,-2.450,-0.700
1743902568.7653,0.058,-0.069,1.029,0.420,-2.310,-0.770
1743902568.7853,0.061,-0.071,1.028,0.280,-2.450,-0.770
1743902568.7301083,0.058,-0.070,1.033,0.210,-2.240,-0.700
1743902568.7501082,0.060,-0.071,1.033,0.280,-2.450,-0.700
1743902568.7701082,0.056,-0.068,1.029,0.420,-2.450,-0.700
1743902568.7901082,0.058,-0.069,1.030,0.280,-2.310,-0.700
1743902568.8101082,0.060,-0.069,1.034,0.560,-2.380,-0.770
1743902568.8301082,0.059,-0.070,1.034,0.420,-2.520,-0.700
1743902568.775119,0.059,-0.068,1.033,0.490,-2.450,-0.700
1743902568.795119,0.057,-0.068,1.029,0.350,-2.310,-0.700
1743902568.815119,0.059,-0.070,1.032,0.420,-2.380,-0.770
1743902568.835119,0.058,-0.068,1.036,0.420,-2.450,-0.770
1743902568.855119,0.060,-0.071,1.033,0.280,-2.380,-0.770
1743902568.875119,0.060,-0.072,1.029,0.350,-2.450,-0.700
1743902568.862899,0.060,-0.070,1.032,0.420,-2.310,-0.700
1743902568.882899,0.058,-0.069,1.034,0.420,-2.520,-0.700
1743902568.902899,0.057,-0.066,1.033,0.210,-2.520,-0.700
1743902568.922899,0.061,-0.070,1.028,0.420,-2.380,-0.630
1743902568.942899,0.059,-0.070,1.031,0.420,-2.380,-0.630
1743902568.962899,0.060,-0.069,1.033,0.350,-2.520,-0.560
1743902568.893004,0.057,-0.070,1.032,0.350,-2.380,-0.770
1743902568.913004,0.060,-0.069,1.029,0.490,-2.380,-0.700
1743902568.933004,0.060,-0.069,1.032,0.350,-2.450,-0.700
1743902568.953004,0.061,-0.070,1.034,0.350,-2.310,-0.770
1743902568.9730039,0.058,-0.069,1.034,0.420,-2.310,-0.700
1743902568.9930038,0.057,-0.068,1.029,0.350,-2.520,-0.630
1743902568.896277,0.056,-0.069,1.030,0.350,-2.380,-0.630
1743902568.916277,0.060,-0.072,1.031,0.420,-2.380,-0.700
1743902568.936277,0.061,-0.069,1.031,0.350,-2.380,-0.700
1743902568.956277,0.057,-0.069,1.034,0.280,-2.450,-0.770
1743902568.9762769,0.059,-0.072,1.028,0.350,-2.450,-0.700
1743902568.9962769,0.061,-0.071,1.033,0.350,-2.450,-0.700
1743902568.9402132,0.061,-0.073,1.031,0.490,-2.380,-0.700
1743902568.9602132,0.058,-0.071,1.032,0.420,-2.380,-0.700
1743902568.9802132,0.059,-0.070,1.030,0.420,-2.520,-0.840
1743902569.0002131,0.059,-0.069,1.033,0.350,-2.450,-0.770
1743902569.0202131,0.060,-0.070,1.036,0.420,-2.590,-0.700
1743902569.040213,0.061,-0.071,1.031,0.280,-2.660,-0.700
1743902568.985179,0.061,-0.069,1.029,0.420,-2.660,-0.630
1743902569.005179,0.061,-0.070,1.026,0.420,-2.450,-0.700
1743902569.025179,0.060,-0.070,1.035,0.420,-2.380,-0.700
1743902569.045179,0.058,-0.069,1.033,0.350,-2.590,-0.700
1743902569.0651789,0.061,-0.071,1.030,0.420,-2.450,-0.770
1743902569.0851789,0.058,-0.070,1.033,0.490,-2.310,-0.700
1743902569.0302262,0.059,-0.067,1.037,0.140,-2.310,-0.770
1743902569.0502262,0.059,-0.070,1.032,0.420,-2.520,-0.770
1743902569.0702262,0.058,-0.070,1.028,0.420,-2.450,-0.630
1743902569.0902262,0.058,-0.070,1.033,0.350,-2.310,-0.770
1743902569.1102262,0.060,-0.070,1.035,0.280,-2.380,-0.700
1743902569.1302261,0.059,-0.070,1.030,0.490,-2.520,-0.770
1743902569.0726762,0.060,-0.069,1.031,0.420,-2.310,-0.700
1743902569.0926762,0.061,-0.070,1.034,0.420,-2.380,-0.700
1743902569.1126761,0.060,-0.070,1.032,0.350,-2.520,-0.700
1743902569.1326761,0.060,-0.068,1.034,0.350,-2.520,-0.770
1743902569.152676,0.059,-0.070,1.030,0.280,-2.450,-0.630
1743902569.172676,0.059,-0.071,1.030,0.420,-2.310,-0.840
1743902569.1053572,0.059,-0.071,1.035,0.280,-2.520,-0.700
1743902569.1253572,0.061,-0.071,1.030,0.280,-2.520,-0.770
1743902569.1453571,0.060,-0.070,1.030,0.490,-2.380,-0.700
1743902569.165357,0.058,-0.068,1.034,0.280,-2.380,-0.700
1743902569.185357,0.057,-0.070,1.034,0.350,-2.450,-0.770
1743902569.205357,0.058,-0.070,1.032,0.420,-2.380,-0.630
1743902569.1777802,0.059,-0.069,1.031,0.420,-2.450,-0.700
1743902569.1977801,0.057,-0.071,1.034,0.420,-2.450,-0.770
1743902569.21778,0.061,-0.069,1.034,0.350,-2.590,-0.700
1743902569.23778,0.060,-0.069,1.029,0.350,-2.450,-0.770
1743902569.25778,0.060,-0.070,1.031,0.350,-2.380,-0.770
1743902569.27778,0.060,-0.069,1.033,0.490,-2.450,-0.770
1743902569.195036,0.056,-0.070,1.035,0.280,-2.590,-0.630
1743902569.215036,0.058,-0.070,1.032,0.280,-2.520,-0.700
1743902569.235036,0.061,-0.069,1.028,0.350,-2.450,-0.700
1743902569.2550359,0.058,-0.068,1.032,0.280,-2.380,-0.770
1743902569.2750359,0.058,-0.071,1.033,0.280,-2.660,-0.700
1743902569.2950358,0.060,-0.071,1.030,0.420,-2.520,-0.840
1743902569.252772,0.059,-0.068,1.029,0.490,-2.450,-0.770
1743902569.272772,0.058,-0.068,1.030,0.420,-2.380,-0.770
1743902569.292772,0.058,-0.069,1.030,0.210,-2.380,-0.630
1743902569.312772,0.061,-0.071,1.035,0.420,-2.520,-0.700
1743902569.332772,0.057,-0.071,1.032,0.560,-2.520,-0.630
1743902569.352772,0.060,-0.069,1.032,0.350,-2.450,-0.630
1743902569.2852361,0.057,-0.069,1.031,0.560,-2.590,-0.840
1743902569.305236,0.061,-0.071,1.033,0.420,-2.450,-0.630
1743902569.325236,0.058,-0.069,1.028,0.350,-2.380,-0.700
1743902569.345236,0.059,-0.070,1.032,0.350,-2.380,-0.770
1743902569.365236,0.060,-0.070,1.032,0.420,-2.450,-0.700
1743902569.385236,0.060,-0.069,1.032,0.350,-2.380,-0.840
1743902569.330144,0.060,-0.071,1.029,0.420,-2.380,-0.770
1743902569.350144,0.060,-0.069,1.033,0.420,-2.450,-0.700
1743902569.370144,0.058,-0.070,1.033,0.210,-2.380,-0.700
1743902569.3901439,0.058,-0.068,1.033,0.350,-2.450,-0.770
1743902569.4101439,0.058,-0.068,1.027,0.350,-2.450,-0.700
1743902569.4301438,0.060,-0.067,1.030,0.280,-2.450,-0.630
1743902569.3751771,0.058,-0.071,1.034,0.350,-2.240,-0.700
1743902569.3951771,0.058,-0.069,1.034,0.350,-2.450,-0.700
1743902569.415177,0.060,-0.068,1.033,0.350,-2.450,-0.630
1743902569.435177,0.059,-0.071,1.034,0.420,-2.450,-0.700
1743902569.455177,0.060,-0.071,1.035,0.350,-2.380,-0.700
1743902569.475177,0.060,-0.070,1.035,0.280,-2.520,-0.700
1743902569.405849,0.061,-0.067,1.031,0.420,-2.240,-0.770
1743902569.425849,0.059,-0.065,1.033,0.210,-2.380,-0.630
1743902569.445849,0.061,-0.070,1.034,0.350,-2.520,-0.770
1743902569.465849,0.060,-0.071,1.034,0.420,-2.450,-0.770
1743902569.485849,0.060,-0.068,1.029,0.350,-2.310,-0.700
1743902569.505849,0.061,-0.071,1.029,0.350,-2.450,-0.700
1743902569.47778,0.061,-0.069,1.035,0.490,-2.520,-0.700
1743902569.49778,0.059,-0.070,1.033,0.420,-2.450,-0.770
1743902569.51778,0.058,-0.070,1.029,0.350,-2.520,-0.700
1743902569.53778,0.061,-0.069,1.029,0.420,-2.310,-0.770
1743902569.55778,0.059,-0.071,1.031,0.490,-2.450,-0.840
1743902569.57778,0.058,-0.070,1.033,0.280,-2.380,-0.770
1743902569.495253,0.059,-0.068,1.026,0.350,-2.380,-0.700
1743902569.515253,0.059,-0.069,1.028,0.420,-2.380,-0.630
1743902569.535253,0.060,-0.069,1.034,0.280,-2.310,-0.770
1743902569.555253,0.059,-0.070,1.033,0.350,-2.380,-0.770
1743902569.575253,0.058,-0.067,1.029,0.210,-2.450,-0.700
1743902569.595253,0.058,-0.067,1.035,0.280,-2.240,-0.700
1743902569.537632,0.058,-0.070,1.033,0.420,-2.590,-0.700
1743902569.557632,0.059,-0.069,1.033,0.210,-2.590,-0.700
1743902569.577632,0.059,-0.072,1.030,0.210,-2.380,-0.770
1743902569.597632,0.060,-0.071,1.033,0.280,-2.450,-0.770
1743902569.617632,0.058,-0.067,1.031,0.140,-2.520,-0.700
1743902569.637632,0.062,-0.070,1.033,0.350,-2.520,-0.840
1743902569.583986,0.061,-0.068,1.029,0.280,-2.520,-0.700
1743902569.603986,0.059,-0.071,1.032,0.280,-2.450,-0.700
1743902569.623986,0.058,-0.068,1.036,0.420,-2.380,-0.770
1743902569.643986,0.060,-0.072,1.031,0.350,-2.450,-0.770
1743902569.663986,0.060,-0.072,1.032,0.350,-2.380,-0.840
1743902569.683986,0.059,-0.067,1.034,0.350,-2.450,-0.770
1743902569.627655,0.058,-0.070,1.037,0.350,-2.450,-0.700
1743902569.647655,0.058,-0.070,1.030,0.420,-2.450,-0.700
1743902569.667655,0.058,-0.070,1.028,0.420,-2.310,-0.630
1743902569.687655,0.059,-0.068,1.029,0.280,-2.380,-0.700
1743902569.707655,0.059,-0.070,1.033,0.350,-2.450,-0.770
1743902569.727655,0.058,-0.071,1.032,0.350,-2.450,-0.700
1743902569.65801,0.061,-0.069,1.029,0.350,-2.450,-0.770
1743902569.67801,0.059,-0.070,1.032,0.420,-2.520,-0.630
1743902569.69801,0.058,-0.070,1.034,0.420,-2.450,-0.700
1743902569.71801,0.059,-0.073,1.031,0.420,-2.520,-0.840
1743902569.73801,0.060,-0.072,1.030,0.350,-2.450,-0.770
1743902569.75801,0.058,-0.071,1.033,0.350,-2.450,-0.700
1743902569.703516,0.058,-0.068,1.033,0.420,-2.450,-0.770
1743902569.723516,0.060,-0.070,1.032,0.350,-2.450,-0.700
1743902569.743516,0.058,-0.071,1.030,0.490,-2.380,-0.700
1743902569.763516,0.058,-0.068,1.034,0.350,-2.380,-0.630
1743902569.783516,0.059,-0.072,1.034,0.350,-2.380,-0.770
1743902569.803516,0.060,-0.069,1.029,0.350,-2.450,-0.770
1743902569.77606,0.058,-0.071,1.031,0.280,-2.450,-0.700
1743902569.79606,0.059,-0.071,1.032,0.280,-2.450,-0.630
1743902569.81606,0.060,-0.068,1.033,0.420,-2.450,-0.770
1743902569.83606,0.058,-0.070,1.032,0.490,-2.380,-0.770
1743902569.85606,0.058,-0.070,1.029,0.420,-2.380,-0.700
1743902569.87606,0.058,-0.070,1.030,0.420,-2.380,-0.770
1743902569.7944381,0.060,-0.069,1.035,0.420,-2.450,-0.770
1743902569.814438,0.060,-0.070,1.033,0.280,-2.310,-0.770
1743902569.834438,0.058,-0.068,1.029,0.350,-2.380,-0.770
1743902569.854438,0.060,-0.069,1.033,0.350,-2.380,-0.700
1743902569.874438,0.060,-0.067,1.034,0.420,-2.520,-0.770
1743902569.894438,0.059,-0.072,1.030,0.350,-2.590,-0.700
1743902569.8528051,0.060,-0.067,1.027,0.350,-2.380,-0.770
1743902569.872805,0.059,-0.069,1.033,0.350,-2.450,-0.770
1743902569.892805,0.058,-0.069,1.033,0.350,-2.520,-0.770
1743902569.912805,0.061,-0.071,1.032,0.490,-2.520,-0.770
1743902569.932805,0.059,-0.070,1.029,0.350,-2.450,-0.770
1743902569.952805,0.059,-0.068,1.030,0.420,-2.450,-0.770
1743902569.871357,0.058,-0.069,1.035,0.420,-2.520,-0.840
1743902569.891357,0.057,-0.069,1.034,0.420,-2.660,-0.840
1743902569.911357,0.058,-0.070,1.030,0.350,-2.310,-0.700
1743902569.931357,0.059,-0.069,1.033,0.490,-2.450,-0.700
1743902569.951357,0.060,-0.072,1.037,0.350,-2.450,-0.700
1743902569.9713569,0.062,-0.068,1.029,0.420,-2.450,-0.700
1743902569.9300942,0.061,-0.070,1.028,0.420,-2.450,-0.630
1743902569.9500942,0.061,-0.069,1.030,0.350,-2.380,-0.770
1743902569.9700942,0.060,-0.069,1.034,0.420,-2.520,-0.770
1743902569.9900942,0.060,-0.072,1.031,0.420,-2.380,-0.700
1743902570.0100942,0.058,-0.071,1.032,0.490,-2.590,-0.700
1743902570.0300941,0.059,-0.070,1.030,0.350,-2.520,-0.700
1743902569.960334,0.060,-0.069,1.033,0.420,-2.450,-0.700
1743902569.980334,0.058,-0.070,1.033,0.420,-2.310,-0.840
1743902570.000334,0.059,-0.071,1.030,0.490,-2.310,-0.700
1743902570.020334,0.058,-0.070,1.030,0.350,-2.450,-0.700
1743902570.040334,0.058,-0.069,1.033,0.490,-2.520,-0.770
1743902570.060334,0.059,-0.070,1.032,0.490,-2.240,-0.700
1743902570.0052311,0.059,-0.072,1.029,0.210,-2.520,-0.770
1743902570.0252311,0.059,-0.067,1.033,0.350,-2.450,-0.700
1743902570.045231,0.061,-0.071,1.031,0.350,-2.450,-0.770
1743902570.065231,0.059,-0.069,1.031,0.210,-2.520,-0.770
1743902570.085231,0.058,-0.069,1.030,0.280,-2.450,-0.770
1743902570.105231,0.058,-0.072,1.031,0.420,-2.520,-0.700
