Timestamp,AccelX,AccelY,AccelZ,GyroX,GyroY,GyroZ
1743888262.7475789,-0.03513599932193756,-0.053679998964071274,1.053104043006897,0.7699999809265137,-2.450000047683716,-0.7699999809265137
1743888262.7675788,-0.034648001194000244,-0.05514400079846382,1.052616000175476,0.7699999809265137,-2.5199999809265137,-0.6299999952316284
1743888262.7875788,-0.03513599932193756,-0.05660799890756607,1.0540800094604492,0.9100000262260437,-2.380000114440918,-0.7699999809265137
1743888262.755223,-0.034648001194000244,-0.05270399898290634,1.0648159980773926,0.9800000190734863,-2.450000047683716,-0.8399999737739563
1743888262.775223,-0.03513599932193756,-0.05660799890756607,1.053104043006897,0.699999988079071,-2.380000114440918,-0.9100000262260437
1743888262.795223,-0.03415999934077263,-0.05563199892640114,1.0560319423675537,0.9800000190734863,-2.380000114440918,-0.7699999809265137
1743888262.772009,-0.035624001175165176,-0.056120000779628754,1.0516400337219238,0.9800000190734863,-2.380000114440918,-0.9100000262260437
1743888262.7920089,-0.035624001175165176,-0.05319200083613396,1.052616000175476,0.9800000190734863,-2.5199999809265137,-0.7699999809265137
1743888262.8120089,-0.03513599932193756,-0.054655998945236206,1.051151990890503,0.9100000262260437,-2.309999942779541,-0.7699999809265137
1743888262.8319418,-0.03611199930310249,-0.05416800081729889,1.0560319423675537,1.0499999523162842,-2.380000114440918,-0.699999988079071
1743888262.8519418,-0.034648001194000244,-0.05124000087380409,1.0521279573440552,0.8399999737739563,-2.380000114440918,-0.699999988079071
1743888262.8719418,-0.03611199930310249,-0.05270399898290634,1.0560319423675537,0.9100000262260437,-2.450000047683716,-0.7699999809265137
1743888262.847101,-0.037087999284267426,-0.05416800081729889,1.050663948059082,0.9100000262260437,-2.380000114440918,-0.7699999809265137
1743888262.867101,-0.03757600113749504,-0.053679998964071274,1.050663948059082,0.9100000262260437,-2.5199999809265137,-0.8399999737739563
1743888262.887101,-0.037087999284267426,-0.052216000854969025,1.053104043006897,0.8399999737739563,-2.450000047683716,-0.7699999809265137
1743888262.8607152,-0.03806399926543236,-0.052216000854969025,1.0545680522918701,0.8399999737739563,-2.450000047683716,-0.9100000262260437
1743888262.8807151,-0.03806399926543236,-0.052216000854969025,1.0472480058670044,0.7699999809265137,-2.380000114440918,-0.7699999809265137
1743888262.900715,-0.03415999934077263,-0.053679998964071274,1.0570080280303955,0.8399999737739563,-2.450000047683716,-0.7699999809265137
1743888262.863478,-0.03269600123167038,-0.054655998945236206,1.0496879816055298,0.9100000262260437,-2.380000114440918,-0.7699999809265137
1743888262.883478,-0.03513599932193756,-0.054655998945236206,1.0560319423675537,0.699999988079071,-2.450000047683716,-0.8399999737739563
1743888262.903478,-0.034648001194000244,-0.054655998945236206,1.052616000175476,0.7699999809265137,-2.5199999809265137,-0.8399999737739563
1743888262.89254,-0.034648001194000244,-0.057583998888731,1.0535919666290283,0.8399999737739563,-2.380000114440918,-0.7699999809265137
1743888262.91254,-0.034648001194000244,-0.056120000779628754,1.0560319423675537,0.8399999737739563,-2.5199999809265137,-0.7699999809265137
1743888262.93254,-0.03611199930310249,-0.05563199892640114,1.0516400337219238,0.8399999737739563,-2.380000114440918,-0.8399999737739563
1743888262.9217012,-0.035624001175165176,-0.05660799890756607,1.051151990890503,0.9100000262260437,-2.380000114440918,-0.699999988079071
1743888262.9417012,-0.03660000115633011,-0.057096000760793686,1.0540800094604492,0.7699999809265137,-2.380000114440918,-0.8399999737739563
1743888262.9617012,-0.03660000115633011,-0.057096000760793686,1.053104043006897,0.9800000190734863,-2.380000114440918,-0.8399999737739563
1743888262.935592,-0.037087999284267426,-0.057096000760793686,1.0535919666290283,0.7699999809265137,-2.380000114440918,-0.8399999737739563
1743888262.955592,-0.03611199930310249,-0.05563199892640114,1.0535919666290283,0.9800000190734863,-2.450000047683716,-0.7699999809265137
1743888262.975592,-0.035624001175165176,-0.05319200083613396,1.053104043006897,0.8399999737739563,-2.380000114440918,-0.8399999737739563
1743888262.966177,-0.03269600123167038,-0.053679998964071274,1.0545680522918701,0.7699999809265137,-2.450000047683716,-0.699999988079071
1743888262.986177,-0.034648001194000244,-0.05172799900174141,1.051151990890503,1.0499999523162842,-2.380000114440918,-0.8399999737739563
1743888263.006177,-0.035624001175165176,-0.05172799900174141,1.0521279573440552,0.7699999809265137,-2.450000047683716,-0.8399999737739563
1743888262.981077,-0.034648001194000244,-0.05124000087380409,1.0516400337219238,0.7699999809265137,-2.450000047683716,-0.699999988079071
1743888263.001077,-0.035624001175165176,-0.05319200083613396,1.052616000175476,0.7699999809265137,-2.450000047683716,-0.699999988079071
1743888263.021077,-0.037087999284267426,-0.056120000779628754,1.0535919666290283,0.8399999737739563,-2.450000047683716,-0.699999988079071
1743888263.012962,-0.03513599932193756,-0.05416800081729889,1.0535919666290283,0.8399999737739563,-2.380000114440918,-0.7699999809265137
1743888263.032962,-0.037087999284267426,-0.05563199892640114,1.0521279573440552,0.8399999737739563,-2.450000047683716,-0.699999988079071
1743888263.052962,-0.03513599932193756,-0.05563199892640114,1.052616000175476,0.8399999737739563,-2.380000114440918,-0.699999988079071
1743888263.0412512,-0.035624001175165176,-0.056120000779628754,1.0535919666290283,0.8399999737739563,-2.450000047683716,-0.8399999737739563
1743888263.0612512,-0.037087999284267426,-0.05660799890756607,1.0535919666290283,0.9100000262260437,-2.5199999809265137,-0.8399999737739563
1743888263.0812511,-0.03611199930310249,-0.05563199892640114,1.052616000175476,0.9100000262260437,-2.5199999809265137,-0.8399999737739563
1743888263.060388,-0.03513599932193756,-0.05416800081729889,1.0545680522918701,0.9100000262260437,-2.5199999809265137,-0.699999988079071
1743888263.080388,-0.034648001194000244,-0.054655998945236206,1.053104043006897,0.9800000190734863,-2.380000114440918,-0.8399999737739563
1743888263.100388,-0.03415999934077263,-0.05514400079846382,1.053104043006897,0.9800000190734863,-2.450000047683716,-0.6299999952316284
1743888263.069992,-0.034648001194000244,-0.05172799900174141,1.0540800094604492,0.7699999809265137,-2.380000114440918,-0.699999988079071
1743888263.089992,-0.03367200121283531,-0.05270399898290634,1.0540800094604492,0.7699999809265137,-2.380000114440918,-0.7699999809265137
1743888263.109992,-0.03415999934077263,-0.05563199892640114,1.053104043006897,0.7699999809265137,-2.5199999809265137,-0.8399999737739563
1743888263.131365,-0.03513599932193756,-0.05319200083613396,1.052616000175476,0.8399999737739563,-2.380000114440918,-0.7699999809265137
1743888263.151365,-0.03415999934077263,-0.05563199892640114,1.0555440187454224,0.9100000262260437,-2.450000047683716,-0.699999988079071
1743888263.171365,-0.03513599932193756,-0.056120000779628754,1.0555440187454224,0.8399999737739563,-2.450000047683716,-0.7699999809265137
1743888263.133238,-0.037087999284267426,-0.056120000779628754,1.053104043006897,0.7699999809265137,-2.380000114440918,-0.6299999952316284
1743888263.153238,-0.03513599932193756,-0.053679998964071274,1.0545680522918701,0.7699999809265137,-2.5199999809265137,-0.7699999809265137
1743888263.173238,-0.03611199930310249,-0.05319200083613396,1.0550559759140015,0.9100000262260437,-2.380000114440918,-0.8399999737739563
1743888263.14803,-0.035624001175165176,-0.054655998945236206,1.0540800094604492,0.8399999737739563,-2.450000047683716,-0.8399999737739563
1743888263.16803,-0.035624001175165176,-0.05514400079846382,1.0521279573440552,0.9100000262260437,-2.5199999809265137,-0.8399999737739563
1743888263.18803,-0.03513599932193756,-0.05514400079846382,1.0555440187454224,0.7699999809265137,-2.380000114440918,-0.7699999809265137
1743888263.1776452,-0.03611199930310249,-0.05319200083613396,1.052616000175476,0.9100000262260437,-2.380000114440918,-0.7699999809265137
1743888263.1976452,-0.03415999934077263,-0.05416800081729889,1.0570080280303955,0.8399999737739563,-2.5199999809265137,-0.7699999809265137
1743888263.2176452,-0.035624001175165176,-0.05270399898290634,1.0535919666290283,0.9100000262260437,-2.5199999809265137,-0.7699999809265137
1743888263.190808,-0.03611199930310249,-0.05514400079846382,1.0550559759140015,0.8399999737739563,-2.380000114440918,-0.699999988079071
1743888263.210808,-0.034648001194000244,-0.05416800081729889,1.053104043006897,0.8399999737739563,-2.380000114440918,-0.7699999809265137
1743888263.230808,-0.03757600113749504,-0.05514400079846382,1.0516400337219238,0.8399999737739563,-2.380000114440918,-0.7699999809265137
1743888263.2210572,-0.035624001175165176,-0.05270399898290634,1.0555440187454224,0.9100000262260437,-2.380000114440918,-0.7699999809265137
1743888263.2410572,-0.035624001175165176,-0.053679998964071274,1.0570080280303955,0.699999988079071,-2.450000047683716,-0.9100000262260437
1743888263.2610571,-0.03611199930310249,-0.053679998964071274,1.0555440187454224,0.699999988079071,-2.380000114440918,-0.6299999952316284
1743888263.236004,-0.034648001194000244,-0.05514400079846382,1.0555440187454224,0.8399999737739563,-2.450000047683716,-0.7699999809265137
1743888263.256004,-0.035624001175165176,-0.053679998964071274,1.052616000175476,0.8399999737739563,-2.450000047683716,-0.7699999809265137
1743888263.276004,-0.034648001194000244,-0.054655998945236206,1.0545680522918701,0.9800000190734863,-2.450000047683716,-0.699999988079071
1743888263.267176,-0.035624001175165176,-0.056120000779628754,1.052616000175476,0.9100000262260437,-2.380000114440918,-0.7699999809265137
1743888263.287176,-0.03513599932193756,-0.05124000087380409,1.0516400337219238,0.8399999737739563,-2.450000047683716,-0.7699999809265137
1743888263.3071759,-0.03513599932193756,-0.052216000854969025,1.0545680522918701,0.8399999737739563,-2.450000047683716,-0.8399999737739563
1743888263.2805321,-0.035624001175165176,-0.05319200083613396,1.0516400337219238,0.9100000262260437,-2.309999942779541,-0.699999988079071
1743888263.300532,-0.03513599932193756,-0.05319200083613396,1.0535919666290283,0.8399999737739563,-2.450000047683716,-0.7699999809265137
1743888263.320532,-0.03611199930310249,-0.05124000087380409,1.0516400337219238,0.7699999809265137,-2.450000047683716,-0.9100000262260437
1743888263.2958941,-0.03611199930310249,-0.05270399898290634,1.0521279573440552,0.8399999737739563,-2.5199999809265137,-0.699999988079071
1743888263.3158941,-0.03660000115633011,-0.05563199892640114,1.0540800094604492,0.9800000190734863,-2.450000047683716,-0.699999988079071
1743888263.335894,-0.03757600113749504,-0.05416800081729889,1.0516400337219238,0.9100000262260437,-2.380000114440918,-0.699999988079071
1743888263.3279731,-0.037087999284267426,-0.05416800081729889,1.053104043006897,0.9800000190734863,-2.380000114440918,-0.699999988079071
1743888263.347973,-0.03806399926543236,-0.057096000760793686,1.0521279573440552,0.8399999737739563,-2.450000047683716,-0.8399999737739563
1743888263.367973,-0.03611199930310249,-0.053679998964071274,1.0545680522918701,0.8399999737739563,-2.380000114440918,-0.8399999737739563
1743888263.342147,-0.03611199930310249,-0.057096000760793686,1.051151990890503,0.9100000262260437,-2.450000047683716,-0.699999988079071
1743888263.362147,-0.03757600113749504,-0.05563199892640114,1.0540800094604492,0.9100000262260437,-2.450000047683716,-0.699999988079071
1743888263.382147,-0.037087999284267426,-0.054655998945236206,1.053104043006897,0.9100000262260437,-2.450000047683716,-0.8399999737739563
1743888263.371983,-0.03367200121283531,-0.053679998964071274,1.050663948059082,0.7699999809265137,-2.380000114440918,-0.9100000262260437
1743888263.391983,-0.03611199930310249,-0.05416800081729889,1.052616000175476,0.9100000262260437,-2.450000047683716,-0.8399999737739563
1743888263.411983,-0.03513599932193756,-0.05514400079846382,1.0545680522918701,0.699999988079071,-2.450000047683716,-0.7699999809265137
1743888263.4325492,-0.03611199930310249,-0.056120000779628754,1.0521279573440552,0.9100000262260437,-2.450000047683716,-0.7699999809265137
1743888263.4525492,-0.035624001175165176,-0.054655998945236206,1.053104043006897,0.8399999737739563,-2.450000047683716,-0.9100000262260437
1743888263.4725492,-0.034648001194000244,-0.05416800081729889,1.0545680522918701,0.7699999809265137,-2.380000114440918,-0.699999988079071
1743888263.445819,-0.03611199930310249,-0.054655998945236206,1.0496879816055298,0.9800000190734863,-2.380000114440918,-0.7699999809265137
1743888263.465819,-0.03415999934077263,-0.054655998945236206,1.0535919666290283,0.8399999737739563,-2.450000047683716,-0.8399999737739563
1743888263.4858189,-0.035624001175165176,-0.05416800081729889,1.0535919666290283,0.8399999737739563,-2.380000114440918,-0.8399999737739563
1743888263.447977,-0.03660000115633011,-0.05416800081729889,1.053104043006897,0.8399999737739563,-2.380000114440918,-0.7699999809265137
1743888263.467977,-0.035624001175165176,-0.057096000760793686,1.0550559759140015,0.7699999809265137,-2.380000114440918,-0.7699999809265137
1743888263.487977,-0.037087999284267426,-0.05563199892640114,1.0535919666290283,0.7699999809265137,-2.450000047683716,-0.7699999809265137
1743888263.460661,-0.034648001194000244,-0.056120000779628754,1.052616000175476,0.7699999809265137,-2.450000047683716,-0.7699999809265137
1743888263.480661,-0.034648001194000244,-0.054655998945236206,1.0545680522918701,0.7699999809265137,-2.5199999809265137,-0.7699999809265137
1743888263.500661,-0.037087999284267426,-0.05319200083613396,1.0545680522918701,0.9100000262260437,-2.450000047683716,-0.7699999809265137
1743888263.4768178,-0.035624001175165176,-0.05563199892640114,1.0535919666290283,0.9100000262260437,-2.450000047683716,-0.7699999809265137
1743888263.4968178,-0.03660000115633011,-0.05563199892640114,1.0540800094604492,0.9100000262260437,-2.380000114440918,-0.8399999737739563
1743888263.5168178,-0.035624001175165176,-0.054655998945236206,1.052616000175476,0.7699999809265137,-2.309999942779541,-0.8399999737739563
1743888263.491315,-0.035624001175165176,-0.05563199892640114,1.052616000175476,0.7699999809265137,-2.5199999809265137,-0.699999988079071
1743888263.5113149,-0.034648001194000244,-0.053679998964071274,1.0535919666290283,0.9100000262260437,-2.380000114440918,-0.699999988079071
1743888263.5313148,-0.037087999284267426,-0.053679998964071274,1.052616000175476,0.7699999809265137,-2.380000114440918,-0.7699999809265137
1743888263.5230541,-0.035624001175165176,-0.05172799900174141,1.052616000175476,0.7699999809265137,-2.450000047683716,-0.699999988079071
1743888263.543054,-0.037087999284267426,-0.05319200083613396,1.053104043006897,0.9100000262260437,-2.450000047683716,-0.699999988079071
1743888263.563054,-0.03367200121283531,-0.05514400079846382,1.052616000175476,0.7699999809265137,-2.5199999809265137,-0.7699999809265137
1743888263.566226,-0.034648001194000244,-0.05416800081729889,1.0535919666290283,0.8399999737739563,-2.5199999809265137,-0.8399999737739563
1743888263.586226,-0.035624001175165176,-0.053679998964071274,1.052616000175476,0.8399999737739563,-2.5199999809265137,-0.8399999737739563
1743888263.606226,-0.03367200121283531,-0.052216000854969025,1.0545680522918701,0.7699999809265137,-2.380000114440918,-0.699999988079071
1743888263.568404,-0.034648001194000244,-0.053679998964071274,1.0555440187454224,0.8399999737739563,-2.450000047683716,-0.699999988079071
1743888263.588404,-0.035624001175165176,-0.05075199902057648,1.051151990890503,0.8399999737739563,-2.450000047683716,-0.7699999809265137
1743888263.608404,-0.035624001175165176,-0.05416800081729889,1.0565199851989746,0.8399999737739563,-2.450000047683716,-0.7699999809265137
1743888263.597341,-0.03513599932193756,-0.054655998945236206,1.053104043006897,0.9100000262260437,-2.450000047683716,-0.7699999809265137
1743888263.617341,-0.03660000115633011,-0.054655998945236206,1.053104043006897,0.7699999809265137,-2.380000114440918,-0.699999988079071
1743888263.637341,-0.03367200121283531,-0.05660799890756607,1.052616000175476,0.9100000262260437,-2.380000114440918,-0.7699999809265137
1743888263.6121333,-0.03513599932193756,-0.054655998945236206,1.0545680522918701,0.9100000262260437,-2.5199999809265137,-0.699999988079071
1743888263.6321332,-0.037087999284267426,-0.05416800081729889,1.0540800094604492,0.7699999809265137,-2.5199999809265137,-0.7699999809265137
1743888263.6521332,-0.03660000115633011,-0.05563199892640114,1.052616000175476,0.8399999737739563,-2.380000114440918,-0.7699999809265137
1743888263.642037,-0.03513599932193756,-0.05514400079846382,1.052616000175476,0.9100000262260437,-2.450000047683716,-0.8399999737739563
1743888263.662037,-0.03415999934077263,-0.05319200083613396,1.0560319423675537,0.7699999809265137,-2.5199999809265137,-0.7699999809265137
1743888263.6820369,-0.04001599922776222,-0.05514400079846382,1.050663948059082,0.9100000262260437,-2.450000047683716,-0.9100000262260437
1743888263.655816,-0.03660000115633011,-0.05416800081729889,1.052616000175476,0.8399999737739563,-2.309999942779541,-0.699999988079071
1743888263.675816,-0.035624001175165176,-0.05416800081729889,1.0535919666290283,0.8399999737739563,-2.450000047683716,-0.7699999809265137
1743888263.695816,-0.03611199930310249,-0.05416800081729889,1.0540800094604492,0.9100000262260437,-2.450000047683716,-0.7699999809265137
1743888263.687509,-0.035624001175165176,-0.05416800081729889,1.052616000175476,0.9100000262260437,-2.450000047683716,-0.8399999737739563
1743888263.707509,-0.034648001194000244,-0.054655998945236206,1.0550559759140015,0.7699999809265137,-2.380000114440918,-0.7699999809265137
1743888263.727509,-0.03513599932193756,-0.05563199892640114,1.0550559759140015,0.8399999737739563,-2.450000047683716,-0.699999988079071
1743888263.731656,-0.03513599932193756,-0.05416800081729889,1.052616000175476,0.8399999737739563,-2.450000047683716,-0.699999988079071
1743888263.751656,-0.034648001194000244,-0.05319200083613396,1.0535919666290283,0.7699999809265137,-2.450000047683716,-0.7699999809265137
1743888263.771656,-0.03367200121283531,-0.05563199892640114,1.0521279573440552,0.8399999737739563,-2.380000114440918,-0.8399999737739563
1743888263.732995,-0.03611199930310249,-0.05514400079846382,1.0501760244369507,0.9100000262260437,-2.380000114440918,-0.7699999809265137
1743888263.752995,-0.03367200121283531,-0.05660799890756607,1.053104043006897,0.8399999737739563,-2.450000047683716,-0.7699999809265137
1743888263.772995,-0.03367200121283531,-0.05563199892640114,1.052616000175476,0.8399999737739563,-2.380000114440918,-0.699999988079071
1743888263.747274,-0.03513599932193756,-0.054655998945236206,1.0535919666290283,0.7699999809265137,-2.450000047683716,-0.7699999809265137
1743888263.767274,-0.03513599932193756,-0.056120000779628754,1.0540800094604492,0.7699999809265137,-2.450000047683716,-0.699999988079071
1743888263.787274,-0.03660000115633011,-0.054655998945236206,1.0540800094604492,0.9100000262260437,-2.450000047683716,-0.699999988079071
1743888263.777118,-0.03513599932193756,-0.053679998964071274,1.0540800094604492,0.9100000262260437,-2.309999942779541,-0.699999988079071
1743888263.797118,-0.03513599932193756,-0.05172799900174141,1.053104043006897,0.8399999737739563,-2.380000114440918,-0.7699999809265137
1743888263.817118,-0.03513599932193756,-0.05319200083613396,1.0535919666290283,0.9100000262260437,-2.380000114440918,-0.7699999809265137
1743888263.790322,-0.03855200111865997,-0.05563199892640114,1.053104043006897,0.7699999809265137,-2.450000047683716,-0.7699999809265137
1743888263.810322,-0.03806399926543236,-0.054655998945236206,1.050663948059082,0.7699999809265137,-2.450000047683716,-0.8399999737739563
1743888263.830322,-0.03757600113749504,-0.05416800081729889,1.0521279573440552,0.8399999737739563,-2.5199999809265137,-0.7699999809265137
1743888263.820638,-0.03855200111865997,-0.05514400079846382,1.053104043006897,0.8399999737739563,-2.380000114440918,-0.7699999809265137
1743888263.840638,-0.03855200111865997,-0.057096000760793686,1.053104043006897,0.8399999737739563,-2.380000114440918,-0.7699999809265137
1743888263.860638,-0.035624001175165176,-0.05514400079846382,1.0550559759140015,0.7699999809265137,-2.450000047683716,-0.699999988079071
1743888263.836801,-0.03757600113749504,-0.05514400079846382,1.0560319423675537,0.8399999737739563,-2.380000114440918,-0.7699999809265137
1743888263.856801,-0.03415999934077263,-0.05416800081729889,1.052616000175476,0.9100000262260437,-2.450000047683716,-0.7699999809265137
1743888263.876801,-0.03611199930310249,-0.05416800081729889,1.052616000175476,0.9800000190734863,-2.380000114440918,-0.699999988079071
1743888263.866731,-0.03415999934077263,-0.05416800081729889,1.0545680522918701,0.9100000262260437,-2.5199999809265137,-0.9100000262260437
1743888263.886731,-0.03367200121283531,-0.054655998945236206,1.0550559759140015,0.9800000190734863,-2.5199999809265137,-0.7699999809265137
1743888263.906731,-0.03611199930310249,-0.05416800081729889,1.0545680522918701,0.9100000262260437,-2.380000114440918,-0.8399999737739563
1743888263.896467,-0.035624001175165176,-0.05416800081729889,1.0540800094604492,0.8399999737739563,-2.450000047683716,-0.699999988079071
1743888263.916467,-0.03806399926543236,-0.05319200083613396,1.0516400337219238,0.9100000262260437,-2.450000047683716,-0.7699999809265137
1743888263.936467,-0.03806399926543236,-0.054655998945236206,1.0521279573440552,0.699999988079071,-2.450000047683716,-0.7699999809265137
1743888263.9101481,-0.03660000115633011,-0.054655998945236206,1.0521279573440552,0.9100000262260437,-2.380000114440918,-0.7699999809265137
1743888263.9301481,-0.03757600113749504,-0.05416800081729889,1.0550559759140015,0.9100000262260437,-2.5199999809265137,-0.8399999737739563
1743888263.950148,-0.03611199930310249,-0.05514400079846382,1.0521279573440552,0.9800000190734863,-2.5199999809265137,-0.9100000262260437
1743888263.9401321,-0.03611199930310249,-0.05270399898290634,1.0550559759140015,0.8399999737739563,-2.5199999809265137,-0.9100000262260437
1743888263.9601321,-0.035624001175165176,-0.052216000854969025,1.0545680522918701,0.8399999737739563,-2.380000114440918,-0.8399999737739563
1743888263.980132,-0.03757600113749504,-0.05319200083613396,1.052616000175476,0.9100000262260437,-2.450000047683716,-0.699999988079071
1743888263.9568,-0.03415999934077263,-0.05319200083613396,1.0550559759140015,0.9100000262260437,-2.380000114440918,-0.6299999952316284
1743888263.9768,-0.03806399926543236,-0.05416800081729889,1.0535919666290283,0.9100000262260437,-2.5199999809265137,-0.7699999809265137
1743888263.9968,-0.035624001175165176,-0.05319200083613396,1.052616000175476,0.8399999737739563,-2.5199999809265137,-0.7699999809265137
1743888263.9858189,-0.035624001175165176,-0.05319200083613396,1.0555440187454224,0.9800000190734863,-2.380000114440918,-0.7699999809265137
1743888264.0058188,-0.03611199930310249,-0.05514400079846382,1.0540800094604492,0.7699999809265137,-2.5199999809265137,-0.7699999809265137
1743888264.0258188,-0.03660000115633011,-0.054655998945236206,1.052616000175476,0.9100000262260437,-2.450000047683716,-0.7699999809265137
1743888264.0309892,-0.03660000115633011,-0.05563199892640114,1.0516400337219238,0.9100000262260437,-2.450000047683716,-0.7699999809265137
1743888264.0509892,-0.03611199930310249,-0.05514400079846382,1.0516400337219238,0.8399999737739563,-2.450000047683716,-0.699999988079071
1743888264.0709891,-0.03611199930310249,-0.05514400079846382,1.0535919666290283,0.9100000262260437,-2.309999942779541,-0.699999988079071
1743888264.03364,-0.03513599932193756,-0.05416800081729889,1.0555440187454224,0.9100000262260437,-2.450000047683716,-0.7699999809265137
1743888264.05364,-0.03513599932193756,-0.05319200083613396,1.0516400337219238,0.9100000262260437,-2.380000114440918,-0.699999988079071
1743888264.0736399,-0.034648001194000244,-0.054655998945236206,1.052616000175476,0.7699999809265137,-2.380000114440918,-0.699999988079071
1743888264.047629,-0.03513599932193756,-0.054655998945236206,1.0540800094604492,0.8399999737739563,-2.450000047683716,-0.699999988079071
1743888264.067629,-0.03367200121283531,-0.05270399898290634,1.0521279573440552,0.7699999809265137,-2.450000047683716,-0.7699999809265137
1743888264.087629,-0.03269600123167038,-0.05124000087380409,1.051151990890503,0.699999988079071,-2.5199999809265137,-0.8399999737739563
1743888264.077128,-0.03415999934077263,-0.052216000854969025,1.0540800094604492,0.9100000262260437,-2.380000114440918,-0.699999988079071
1743888264.097128,-0.0331839993596077,-0.05514400079846382,1.0540800094604492,0.9100000262260437,-2.380000114440918,-0.8399999737739563
1743888264.117128,-0.03660000115633011,-0.05416800081729889,1.0545680522918701,0.9100000262260437,-2.450000047683716,-0.7699999809265137
1743888264.090632,-0.037087999284267426,-0.05563199892640114,1.0540800094604492,0.8399999737739563,-2.450000047683716,-0.7699999809265137
1743888264.110632,-0.03757600113749504,-0.057096000760793686,1.0550559759140015,0.9100000262260437,-2.450000047683716,-0.7699999809265137
1743888264.130632,-0.03855200111865997,-0.05563199892640114,1.053104043006897,0.8399999737739563,-2.380000114440918,-0.7699999809265137
1743888264.122488,-0.03611199930310249,-0.05563199892640114,1.0521279573440552,0.8399999737739563,-2.450000047683716,-0.8399999737739563
1743888264.142488,-0.03611199930310249,-0.057096000760793686,1.053104043006897,0.8399999737739563,-2.309999942779541,-0.699999988079071
1743888264.162488,-0.03757600113749504,-0.05563199892640114,1.053104043006897,0.9800000190734863,-2.450000047683716,-0.7699999809265137
1743888264.135489,-0.037087999284267426,-0.05660799890756607,1.0545680522918701,0.8399999737739563,-2.380000114440918,-0.7699999809265137
1743888264.155489,-0.03415999934077263,-0.05660799890756607,1.0535919666290283,0.8399999737739563,-2.5199999809265137,-0.7699999809265137
1743888264.175489,-0.035624001175165176,-0.05660799890756607,1.0535919666290283,0.8399999737739563,-2.380000114440918,-0.8399999737739563
1743888264.165747,-0.034648001194000244,-0.05319200083613396,1.052616000175476,0.9100000262260437,-2.380000114440918,-0.699999988079071
1743888264.185747,-0.03513599932193756,-0.052216000854969025,1.0535919666290283,0.9100000262260437,-2.450000047683716,-0.7699999809265137
1743888264.205747,-0.0331839993596077,-0.052216000854969025,1.053104043006897,0.7699999809265137,-2.450000047683716,-0.8399999737739563
1743888264.197595,-0.03367200121283531,-0.05026400089263916,1.0535919666290283,0.9800000190734863,-2.380000114440918,-0.8399999737739563
1743888264.2175949,-0.03269600123167038,-0.05172799900174141,1.052616000175476,0.9100000262260437,-2.450000047683716,-0.7699999809265137
1743888264.2375948,-0.03367200121283531,-0.05319200083613396,1.052616000175476,0.9100000262260437,-2.450000047683716,-0.7699999809265137
1743888264.227453,-0.034648001194000244,-0.053679998964071274,1.0545680522918701,0.9100000262260437,-2.5199999809265137,-0.7699999809265137
1743888264.247453,-0.03660000115633011,-0.052216000854969025,1.0535919666290283,0.9100000262260437,-2.5199999809265137,-0.7699999809265137
1743888264.267453,-0.03660000115633011,-0.057096000760793686,1.052616000175476,0.9100000262260437,-2.5199999809265137,-0.699999988079071
1743888264.2409642,-0.035624001175165176,-0.05514400079846382,1.0540800094604492,0.7699999809265137,-2.450000047683716,-0.8399999737739563
1743888264.2609642,-0.03660000115633011,-0.05514400079846382,1.0550559759140015,0.9100000262260437,-2.450000047683716,-0.8399999737739563
1743888264.2809641,-0.03660000115633011,-0.05563199892640114,1.0501760244369507,0.9100000262260437,-2.450000047683716,-0.9800000190734863
1743888264.271483,-0.0331839993596077,-0.05514400079846382,1.0535919666290283,0.9100000262260437,-2.309999942779541,-0.8399999737739563
1743888264.291483,-0.03611199930310249,-0.05514400079846382,1.0521279573440552,0.8399999737739563,-2.450000047683716,-0.7699999809265137
1743888264.311483,-0.03367200121283531,-0.05319200083613396,1.053104043006897,0.9100000262260437,-2.5199999809265137,-0.699999988079071
1743888264.288074,-0.03611199930310249,-0.05270399898290634,1.050663948059082,0.8399999737739563,-2.450000047683716,-0.699999988079071
1743888264.308074,-0.03611199930310249,-0.05319200083613396,1.0535919666290283,0.7699999809265137,-2.380000114440918,-0.7699999809265137
1743888264.328074,-0.03855200111865997,-0.05416800081729889,1.053104043006897,0.9100000262260437,-2.450000047683716,-0.8399999737739563
1743888264.3311381,-0.03757600113749504,-0.053679998964071274,1.050663948059082,0.7699999809265137,-2.450000047683716,-0.8399999737739563
1743888264.351138,-0.03611199930310249,-0.05416800081729889,1.053104043006897,0.9100000262260437,-2.450000047683716,-0.7699999809265137
1743888264.371138,-0.03806399926543236,-0.05514400079846382,1.0516400337219238,0.8399999737739563,-2.450000047683716,-0.8399999737739563
1743888264.3341372,-0.03660000115633011,-0.05416800081729889,1.051151990890503,0.9800000190734863,-2.380000114440918,-0.699999988079071
1743888264.3541372,-0.037087999284267426,-0.053679998964071274,1.0540800094604492,0.9100000262260437,-2.450000047683716,-0.8399999737739563
1743888264.3741372,-0.03611199930310249,-0.05563199892640114,1.0535919666290283,0.8399999737739563,-2.380000114440918,-0.7699999809265137
1743888264.347009,-0.037087999284267426,-0.05416800081729889,1.053104043006897,0.9100000262260437,-2.380000114440918,-0.7699999809265137
1743888264.367009,-0.034648001194000244,-0.05416800081729889,1.0521279573440552,0.7699999809265137,-2.5199999809265137,-0.7699999809265137
1743888264.387009,-0.034648001194000244,-0.054655998945236206,1.0535919666290283,0.7699999809265137,-2.380000114440918,-0.6299999952316284
1743888264.3626509,-0.0331839993596077,-0.053679998964071274,1.0535919666290283,0.9100000262260437,-2.450000047683716,-0.7699999809265137
1743888264.3826509,-0.034648001194000244,-0.056120000779628754,1.052616000175476,0.699999988079071,-2.450000047683716,-0.7699999809265137
1743888264.4026508,-0.032207999378442764,-0.054655998945236206,1.0516400337219238,0.7699999809265137,-2.380000114440918,-0.8399999737739563
1743888264.391788,-0.03367200121283531,-0.054655998945236206,1.053104043006897,0.699999988079071,-2.380000114440918,-0.8399999737739563
1743888264.411788,-0.03513599932193756,-0.05270399898290634,1.0555440187454224,0.9100000262260437,-2.5199999809265137,-0.7699999809265137
1743888264.431788,-0.034648001194000244,-0.053679998964071274,1.0521279573440552,0.9100000262260437,-2.450000047683716,-0.7699999809265137
1743888264.422525,-0.03660000115633011,-0.056120000779628754,1.0516400337219238,0.8399999737739563,-2.450000047683716,-0.7699999809265137
1743888264.442525,-0.037087999284267426,-0.053679998964071274,1.0545680522918701,0.8399999737739563,-2.450000047683716,-0.699999988079071
1743888264.462525,-0.03757600113749504,-0.053679998964071274,1.053104043006897,0.8399999737739563,-2.450000047683716,-0.699999988079071
1743888264.4394922,-0.03513599932193756,-0.05172799900174141,1.0535919666290283,0.9100000262260437,-2.450000047683716,-0.7699999809265137
1743888264.4594922,-0.03611199930310249,-0.05514400079846382,1.0516400337219238,0.8399999737739563,-2.380000114440918,-0.7699999809265137
1743888264.4794922,-0.03611199930310249,-0.05514400079846382,1.0550559759140015,0.8399999737739563,-2.380000114440918,-0.8399999737739563
1743888264.4690142,-0.035624001175165176,-0.05514400079846382,1.053104043006897,0.8399999737739563,-2.450000047683716,-0.7699999809265137
1743888264.4890141,-0.03660000115633011,-0.052216000854969025,1.0545680522918701,0.7699999809265137,-2.450000047683716,-0.7699999809265137
1743888264.5090141,-0.03806399926543236,-0.05416800081729889,1.0545680522918701,0.9100000262260437,-2.450000047683716,-0.699999988079071
1743888264.483974,-0.035624001175165176,-0.05514400079846382,1.0540800094604492,0.8399999737739563,-2.380000114440918,-0.6299999952316284
1743888264.503974,-0.034648001194000244,-0.056120000779628754,1.0521279573440552,0.7699999809265137,-2.380000114440918,-0.699999988079071
1743888264.523974,-0.034648001194000244,-0.05416800081729889,1.050663948059082,0.9100000262260437,-2.5199999809265137,-0.7699999809265137
1743888264.5112162,-0.03269600123167038,-0.056120000779628754,1.0535919666290283,0.7699999809265137,-2.380000114440918,-0.8399999737739563
1743888264.5312161,-0.03367200121283531,-0.05416800081729889,1.0535919666290283,0.9100000262260437,-2.5199999809265137,-0.7699999809265137
1743888264.5512161,-0.03415999934077263,-0.05319200083613396,1.051151990890503,0.9800000190734863,-2.380000114440918,-0.7699999809265137
1743888264.52601,-0.03367200121283531,-0.054655998945236206,1.0545680522918701,0.8399999737739563,-2.450000047683716,-0.8399999737739563
1743888264.54601,-0.035624001175165176,-0.053679998964071274,1.0540800094604492,0.7699999809265137,-2.450000047683716,-0.7699999809265137
1743888264.56601,-0.03513599932193756,-0.05319200083613396,1.050663948059082,0.9100000262260437,-2.5199999809265137,-0.7699999809265137
1743888264.5720851,-0.03611199930310249,-0.05319200083613396,1.053104043006897,0.9100000262260437,-2.380000114440918,-0.8399999737739563
1743888264.5920851,-0.03611199930310249,-0.05124000087380409,1.0560319423675537,0.8399999737739563,-2.450000047683716,-0.7699999809265137
1743888264.612085,-0.034648001194000244,-0.05270399898290634,1.052616000175476,0.8399999737739563,-2.450000047683716,-0.7699999809265137
1743888264.573048,-0.035624001175165176,-0.05319200083613396,1.053104043006897,0.9100000262260437,-2.5199999809265137,-0.8399999737739563
1743888264.593048,-0.03611199930310249,-0.05124000087380409,1.0555440187454224,0.8399999737739563,-2.380000114440918,-0.7699999809265137
1743888264.613048,-0.03611199930310249,-0.052216000854969025,1.0540800094604492,0.699999988079071,-2.450000047683716,-0.9100000262260437
1743888264.632302,-0.03513599932193756,-0.05270399898290634,1.0540800094604492,0.8399999737739563,-2.450000047683716,-0.9100000262260437
1743888264.652302,-0.03513599932193756,-0.054655998945236206,1.053104043006897,0.9100000262260437,-2.450000047683716,-0.7699999809265137
1743888264.672302,-0.03513599932193756,-0.05416800081729889,1.052616000175476,0.7699999809265137,-2.380000114440918,-0.8399999737739563
1743888264.633585,-0.03611199930310249,-0.056120000779628754,1.0535919666290283,0.9100000262260437,-2.380000114440918,-0.7699999809265137
1743888264.653585,-0.03611199930310249,-0.053679998964071274,1.0545680522918701,0.9100000262260437,-2.450000047683716,-0.8399999737739563
1743888264.673585,-0.035624001175165176,-0.053679998964071274,1.053104043006897,0.7699999809265137,-2.5199999809265137,-0.8399999737739563
1743888264.646917,-0.03660000115633011,-0.05514400079846382,1.0516400337219238,0.8399999737739563,-2.309999942779541,-0.699999988079071
1743888264.666917,-0.03660000115633011,-0.05660799890756607,1.0540800094604492,0.9100000262260437,-2.450000047683716,-0.7699999809265137
1743888264.686917,-0.03660000115633011,-0.057583998888731,1.0501760244369507,0.7699999809265137,-2.5199999809265137,-0.699999988079071
1743888264.662217,-0.03660000115633011,-0.05563199892640114,1.0540800094604492,0.9100000262260437,-2.450000047683716,-0.7699999809265137
1743888264.682217,-0.03806399926543236,-0.05563199892640114,1.0540800094604492,0.8399999737739563,-2.450000047683716,-0.7699999809265137
1743888264.7022169,-0.03611199930310249,-0.05514400079846382,1.0555440187454224,0.8399999737739563,-2.450000047683716,-0.699999988079071
1743888264.692251,-0.03660000115633011,-0.054655998945236206,1.053104043006897,0.7699999809265137,-2.380000114440918,-0.8399999737739563
1743888264.712251,-0.03611199930310249,-0.054655998945236206,1.0535919666290283,0.7699999809265137,-2.380000114440918,-0.699999988079071
1743888264.732251,-0.03415999934077263,-0.053679998964071274,1.0521279573440552,0.9100000262260437,-2.5199999809265137,-0.699999988079071
1743888264.721991,-0.03415999934077263,-0.05270399898290634,1.052616000175476,0.8399999737739563,-2.309999942779541,-0.8399999737739563
1743888264.741991,-0.03415999934077263,-0.053679998964071274,1.0545680522918701,0.9100000262260437,-2.5199999809265137,-0.8399999737739563
1743888264.761991,-0.034648001194000244,-0.05416800081729889,1.0545680522918701,0.8399999737739563,-2.450000047683716,-0.8399999737739563
1743888264.7509,-0.03367200121283531,-0.05270399898290634,1.0560319423675537,0.7699999809265137,-2.450000047683716,-0.7699999809265137
1743888264.7709,-0.035624001175165176,-0.05124000087380409,1.052616000175476,0.8399999737739563,-2.450000047683716,-0.699999988079071
1743888264.7909,-0.035624001175165176,-0.05319200083613396,1.0555440187454224,0.9100000262260437,-2.450000047683716,-0.6299999952316284
1743888264.753911,-0.03903999924659729,-0.056120000779628754,1.0545680522918701,0.8399999737739563,-2.380000114440918,-0.7699999809265137
1743888264.773911,-0.03660000115633011,-0.053679998964071274,1.053104043006897,0.8399999737739563,-2.5199999809265137,-0.699999988079071
1743888264.793911,-0.037087999284267426,-0.05416800081729889,1.0550559759140015,0.9100000262260437,-2.5199999809265137,-0.7699999809265137
1743888264.782528,-0.03806399926543236,-0.057096000760793686,1.0555440187454224,0.9100000262260437,-2.380000114440918,-0.8399999737739563
1743888264.802528,-0.035624001175165176,-0.056120000779628754,1.0516400337219238,0.9800000190734863,-2.380000114440918,-0.699999988079071
1743888264.822528,-0.03660000115633011,-0.05807200074195862,1.053104043006897,0.7699999809265137,-2.450000047683716,-0.7699999809265137
1743888264.81254,-0.03513599932193756,-0.05319200083613396,1.0535919666290283,0.8399999737739563,-2.5899999141693115,-0.7699999809265137
1743888264.83254,-0.035624001175165176,-0.053679998964071274,1.0516400337219238,0.8399999737739563,-2.450000047683716,-0.7699999809265137
1743888264.85254,-0.035624001175165176,-0.054655998945236206,1.0540800094604492,0.9800000190734863,-2.380000114440918,-0.9100000262260437
1743888264.829303,-0.03415999934077263,-0.053679998964071274,1.053104043006897,0.9800000190734863,-2.5199999809265137,-0.699999988079071
1743888264.849303,-0.03660000115633011,-0.05270399898290634,1.051151990890503,0.8399999737739563,-2.5199999809265137,-0.9100000262260437
1743888264.869303,-0.035624001175165176,-0.05270399898290634,1.0540800094604492,0.9100000262260437,-2.450000047683716,-0.699999988079071
1743888264.8590071,-0.03660000115633011,-0.054655998945236206,1.052616000175476,0.8399999737739563,-2.450000047683716,-0.7699999809265137
1743888264.879007,-0.034648001194000244,-0.05514400079846382,1.0521279573440552,0.9100000262260437,-2.450000047683716,-0.7699999809265137
1743888264.899007,-0.03513599932193756,-0.05319200083613396,1.0521279573440552,0.8399999737739563,-2.450000047683716,-0.8399999737739563
1743888264.872245,-0.03611199930310249,-0.05416800081729889,1.052616000175476,0.9100000262260437,-2.380000114440918,-0.7699999809265137
1743888264.892245,-0.03660000115633011,-0.054655998945236206,1.0560319423675537,0.9100000262260437,-2.5199999809265137,-0.8399999737739563
1743888264.912245,-0.03415999934077263,-0.054655998945236206,1.0535919666290283,0.8399999737739563,-2.450000047683716,-0.7699999809265137
1743888264.933079,-0.035624001175165176,-0.05270399898290634,1.0535919666290283,0.8399999737739563,-2.450000047683716,-0.9100000262260437
1743888264.953079,-0.03513599932193756,-0.054655998945236206,1.052616000175476,0.8399999737739563,-2.5199999809265137,-0.7699999809265137
1743888264.973079,-0.03415999934077263,-0.05172799900174141,1.053104043006897,0.9100000262260437,-2.450000047683716,-0.699999988079071
1743888264.9343622,-0.03367200121283531,-0.054655998945236206,1.0521279573440552,0.7699999809265137,-2.450000047683716,-0.7699999809265137
1743888264.9543622,-0.03367200121283531,-0.05514400079846382,1.052616000175476,0.8399999737739563,-2.450000047683716,-0.8399999737739563
1743888264.9743621,-0.03513599932193756,-0.056120000779628754,1.052616000175476,0.9100000262260437,-2.450000047683716,-0.699999988079071
1743888264.948833,-0.03513599932193756,-0.05270399898290634,1.0560319423675537,0.9800000190734863,-2.5199999809265137,-0.699999988079071
1743888264.968833,-0.03903999924659729,-0.05270399898290634,1.052616000175476,0.9800000190734863,-2.309999942779541,-0.8399999737739563
1743888264.988833,-0.03660000115633011,-0.05563199892640114,1.0540800094604492,0.9100000262260437,-2.380000114440918,-0.7699999809265137
1743888264.96245,-0.035624001175165176,-0.05563199892640114,1.0521279573440552,0.8399999737739563,-2.380000114440918,-0.7699999809265137
1743888264.98245,-0.035624001175165176,-0.05319200083613396,1.0555440187454224,0.9100000262260437,-2.450000047683716,-0.8399999737739563
1743888265.00245,-0.03611199930310249,-0.05319200083613396,1.053104043006897,0.9100000262260437,-2.450000047683716,-0.699999988079071
1743888264.9789581,-0.037087999284267426,-0.053679998964071274,1.0540800094604492,0.9100000262260437,-2.450000047683716,-0.9100000262260437
1743888264.998958,-0.03855200111865997,-0.05514400079846382,1.0535919666290283,0.7699999809265137,-2.309999942779541,-0.7699999809265137
1743888265.018958,-0.03611199930310249,-0.054655998945236206,1.0521279573440552,0.8399999737739563,-2.450000047683716,-0.7699999809265137
1743888265.006777,-0.03513599932193756,-0.053679998964071274,1.0555440187454224,0.9800000190734863,-2.450000047683716,-0.699999988079071
1743888265.026777,-0.03415999934077263,-0.05514400079846382,1.0560319423675537,0.7699999809265137,-2.380000114440918,-0.7699999809265137
1743888265.046777,-0.03367200121283531,-0.05172799900174141,1.0550559759140015,0.9800000190734863,-2.450000047683716,-0.7699999809265137
1743888265.038996,-0.03269600123167038,-0.053679998964071274,1.051151990890503,0.8399999737739563,-2.450000047683716,-0.7699999809265137
1743888265.058996,-0.03415999934077263,-0.056120000779628754,1.051151990890503,0.9100000262260437,-2.450000047683716,-0.699999988079071
1743888265.078996,-0.03513599932193756,-0.053679998964071274,1.0535919666290283,0.8399999737739563,-2.450000047683716,-0.7699999809265137
1743888265.052313,-0.03513599932193756,-0.056120000779628754,1.0535919666290283,0.8399999737739563,-2.380000114440918,-0.7699999809265137
1743888265.072313,-0.03415999934077263,-0.054655998945236206,1.052616000175476,0.7699999809265137,-2.309999942779541,-0.8399999737739563
1743888265.092313,-0.037087999284267426,-0.054655998945236206,1.053104043006897,0.9800000190734863,-2.450000047683716,-0.7699999809265137
1743888265.080629,-0.034648001194000244,-0.053679998964071274,1.0521279573440552,0.9100000262260437,-2.380000114440918,-0.8399999737739563
1743888265.100629,-0.03611199930310249,-0.05514400079846382,1.052616000175476,0.7699999809265137,-2.450000047683716,-0.9100000262260437
1743888265.120629,-0.03660000115633011,-0.052216000854969025,1.0540800094604492,0.8399999737739563,-2.450000047683716,-0.7699999809265137
1743888265.113407,-0.03513599932193756,-0.05319200083613396,1.0535919666290283,0.7699999809265137,-2.450000047683716,-0.8399999737739563
1743888265.1334069,-0.03513599932193756,-0.053679998964071274,1.0540800094604492,0.7699999809265137,-2.450000047683716,-0.8399999737739563
1743888265.1534069,-0.03660000115633011,-0.05270399898290634,1.0521279573440552,0.7699999809265137,-2.450000047683716,-0.8399999737739563
1743888265.127201,-0.035624001175165176,-0.05270399898290634,1.0550559759140015,0.7699999809265137,-2.380000114440918,-0.7699999809265137
1743888265.147201,-0.037087999284267426,-0.05416800081729889,1.0540800094604492,0.699999988079071,-2.450000047683716,-0.9100000262260437
1743888265.167201,-0.03513599932193756,-0.054655998945236206,1.0516400337219238,0.7699999809265137,-2.5899999141693115,-0.699999988079071
1743888265.1407712,-0.034648001194000244,-0.05514400079846382,1.0521279573440552,0.8399999737739563,-2.380000114440918,-0.5600000023841858
1743888265.1607711,-0.034648001194000244,-0.053679998964071274,1.053104043006897,0.9100000262260437,-2.380000114440918,-0.699999988079071
1743888265.180771,-0.03513599932193756,-0.05514400079846382,1.0535919666290283,0.8399999737739563,-2.450000047683716,-0.699999988079071
1743888265.1707132,-0.03513599932193756,-0.056120000779628754,1.0555440187454224,0.9100000262260437,-2.450000047683716,-0.8399999737739563
1743888265.1907132,-0.03611199930310249,-0.057096000760793686,1.0521279573440552,0.9100000262260437,-2.5199999809265137,-0.8399999737739563
1743888265.2107131,-0.035624001175165176,-0.056120000779628754,1.052616000175476,0.9100000262260437,-2.450000047683716,-0.7699999809265137
1743888265.245766,-0.03415999934077263,-0.054655998945236206,1.0540800094604492,0.9800000190734863,-2.380000114440918,-0.7699999809265137
1743888265.265766,-0.034648001194000244,-0.05416800081729889,1.053104043006897,0.9100000262260437,-2.450000047683716,-0.8399999737739563
1743888265.285766,-0.03611199930310249,-0.05563199892640114,1.0550559759140015,0.9800000190734863,-2.450000047683716,-0.6299999952316284
1743888265.249171,-0.035624001175165176,-0.05270399898290634,1.0521279573440552,0.8399999737739563,-2.450000047683716,-0.9100000262260437
1743888265.269171,-0.034648001194000244,-0.05075199902057648,1.0550559759140015,0.9100000262260437,-2.450000047683716,-0.7699999809265137
1743888265.289171,-0.03611199930310249,-0.052216000854969025,1.050663948059082,0.9100000262260437,-2.5199999809265137,-0.8399999737739563
1743888265.250159,-0.03660000115633011,-0.05660799890756607,1.0545680522918701,0.7699999809265137,-2.450000047683716,-0.699999988079071
1743888265.270159,-0.03611199930310249,-0.05319200083613396,1.052616000175476,0.7699999809265137,-2.5899999141693115,-0.7699999809265137
1743888265.290159,-0.03757600113749504,-0.05416800081729889,1.053104043006897,0.9100000262260437,-2.5199999809265137,-0.7699999809265137
1743888265.260593,-0.03415999934077263,-0.05660799890756607,1.0535919666290283,0.9100000262260437,-2.5199999809265137,-0.7699999809265137
1743888265.280593,-0.03513599932193756,-0.054655998945236206,1.0540800094604492,1.0499999523162842,-2.380000114440918,-0.8399999737739563
1743888265.300593,-0.03611199930310249,-0.05416800081729889,1.053104043006897,0.9100000262260437,-2.380000114440918,-0.7699999809265137
1743888265.277419,-0.03660000115633011,-0.05319200083613396,1.0550559759140015,0.8399999737739563,-2.5199999809265137,-0.8399999737739563
1743888265.297419,-0.03757600113749504,-0.05319200083613396,1.0540800094604492,0.9100000262260437,-2.450000047683716,-0.8399999737739563
1743888265.317419,-0.03660000115633011,-0.05563199892640114,1.0540800094604492,0.9100000262260437,-2.450000047683716,-0.7699999809265137
1743888265.3073292,-0.035624001175165176,-0.05319200083613396,1.0535919666290283,0.9100000262260437,-2.450000047683716,-0.8399999737739563
1743888265.3273292,-0.03367200121283531,-0.05514400079846382,1.0535919666290283,0.8399999737739563,-2.5199999809265137,-0.7699999809265137
1743888265.3473291,-0.03611199930310249,-0.054655998945236206,1.053104043006897,0.8399999737739563,-2.450000047683716,-0.9100000262260437
1743888265.36899,-0.037087999284267426,-0.053679998964071274,1.0545680522918701,0.7699999809265137,-2.450000047683716,-0.699999988079071
1743888265.38899,-0.03513599932193756,-0.05514400079846382,1.0521279573440552,0.7699999809265137,-2.450000047683716,-0.7699999809265137
1743888265.40899,-0.035624001175165176,-0.054655998945236206,1.051151990890503,0.9100000262260437,-2.380000114440918,-0.7699999809265137
1743888265.370238,-0.034648001194000244,-0.05563199892640114,1.0535919666290283,0.7699999809265137,-2.380000114440918,-0.8399999737739563
1743888265.390238,-0.03611199930310249,-0.05416800081729889,1.0540800094604492,0.9800000190734863,-2.380000114440918,-0.6299999952316284
1743888265.410238,-0.03660000115633011,-0.05563199892640114,1.0535919666290283,0.7699999809265137,-2.380000114440918,-0.6299999952316284
1743888265.370804,-0.035624001175165176,-0.053679998964071274,1.0516400337219238,0.8399999737739563,-2.450000047683716,-0.7699999809265137
1743888265.390804,-0.035624001175165176,-0.053679998964071274,1.0540800094604492,0.9100000262260437,-2.5899999141693115,-0.7699999809265137
1743888265.410804,-0.03611199930310249,-0.05124000087380409,1.053104043006897,0.9800000190734863,-2.450000047683716,-0.7699999809265137
1743888265.397621,-0.03611199930310249,-0.05416800081729889,1.0545680522918701,0.8399999737739563,-2.450000047683716,-0.8399999737739563
1743888265.417621,-0.034648001194000244,-0.05172799900174141,1.0521279573440552,0.8399999737739563,-2.450000047683716,-0.8399999737739563
1743888265.4376209,-0.034648001194000244,-0.05270399898290634,1.0570080280303955,0.8399999737739563,-2.5199999809265137,-0.7699999809265137
1743888265.425672,-0.03611199930310249,-0.05514400079846382,1.052616000175476,0.9100000262260437,-2.450000047683716,-0.7699999809265137
1743888265.445672,-0.03660000115633011,-0.054655998945236206,1.0540800094604492,0.7699999809265137,-2.5199999809265137,-0.7699999809265137
1743888265.465672,-0.037087999284267426,-0.05514400079846382,1.0550559759140015,0.9100000262260437,-2.380000114440918,-0.8399999737739563
1743888265.457243,-0.03660000115633011,-0.05514400079846382,1.0540800094604492,0.9100000262260437,-2.450000047683716,-0.699999988079071
1743888265.477243,-0.03757600113749504,-0.05514400079846382,1.0521279573440552,0.8399999737739563,-2.450000047683716,-0.8399999737739563
1743888265.497243,-0.035624001175165176,-0.056120000779628754,1.0540800094604492,0.9800000190734863,-2.5199999809265137,-0.8399999737739563
1743888265.475732,-0.03660000115633011,-0.05563199892640114,1.0516400337219238,0.8399999737739563,-2.450000047683716,-0.7699999809265137
1743888265.495732,-0.03415999934077263,-0.053679998964071274,1.0550559759140015,0.9100000262260437,-2.450000047683716,-0.7699999809265137
1743888265.515732,-0.03415999934077263,-0.05563199892640114,1.0545680522918701,0.9100000262260437,-2.450000047683716,-0.699999988079071
1743888265.487461,-0.034648001194000244,-0.05563199892640114,1.0550559759140015,0.8399999737739563,-2.450000047683716,-0.7699999809265137
1743888265.507461,-0.0331839993596077,-0.053679998964071274,1.0555440187454224,0.7699999809265137,-2.450000047683716,-0.7699999809265137
1743888265.527461,-0.03415999934077263,-0.053679998964071274,1.0516400337219238,0.7699999809265137,-2.380000114440918,-0.6299999952316284
1743888265.533826,-0.03660000115633011,-0.05416800081729889,1.0555440187454224,0.9100000262260437,-2.450000047683716,-0.6299999952316284
1743888265.553826,-0.03611199930310249,-0.05319200083613396,1.0535919666290283,0.9100000262260437,-2.5199999809265137,-0.7699999809265137
1743888265.573826,-0.035624001175165176,-0.05270399898290634,1.053104043006897,0.8399999737739563,-2.380000114440918,-0.7699999809265137
1743888265.534975,-0.035624001175165176,-0.053679998964071274,1.052616000175476,0.9800000190734863,-2.450000047683716,-0.7699999809265137
1743888265.554975,-0.03660000115633011,-0.05319200083613396,1.053104043006897,0.8399999737739563,-2.450000047683716,-0.8399999737739563
1743888265.574975,-0.03757600113749504,-0.054655998945236206,1.0540800094604492,0.9800000190734863,-2.450000047683716,-0.699999988079071
1743888265.547161,-0.0331839993596077,-0.053679998964071274,1.0540800094604492,0.9800000190734863,-2.380000114440918,-0.7699999809265137
1743888265.567161,-0.03513599932193756,-0.05514400079846382,1.0545680522918701,0.8399999737739563,-2.5199999809265137,-0.7699999809265137
1743888265.587161,-0.034648001194000244,-0.05270399898290634,1.051151990890503,0.8399999737739563,-2.450000047683716,-0.7699999809265137
1743888265.5775418,-0.035624001175165176,-0.05124000087380409,1.052616000175476,0.8399999737739563,-2.450000047683716,-0.8399999737739563
1743888265.5975418,-0.03415999934077263,-0.054655998945236206,1.051151990890503,0.8399999737739563,-2.450000047683716,-0.8399999737739563
1743888265.6175418,-0.03611199930310249,-0.052216000854969025,1.0550559759140015,0.9100000262260437,-2.380000114440918,-0.7699999809265137
1743888265.594142,-0.03611199930310249,-0.053679998964071274,1.0516400337219238,0.9100000262260437,-2.450000047683716,-0.7699999809265137
1743888265.614142,-0.03757600113749504,-0.05416800081729889,1.053104043006897,0.8399999737739563,-2.450000047683716,-0.7699999809265137
1743888265.634142,-0.03415999934077263,-0.054655998945236206,1.0570080280303955,0.8399999737739563,-2.380000114440918,-0.699999988079071
1743888265.6094322,-0.037087999284267426,-0.054655998945236206,1.0516400337219238,0.7699999809265137,-2.380000114440918,-0.7699999809265137
1743888265.6294322,-0.035624001175165176,-0.054655998945236206,1.051151990890503,0.8399999737739563,-2.450000047683716,-0.7699999809265137
1743888265.6494322,-0.03611199930310249,-0.05563199892640114,1.0535919666290283,0.9100000262260437,-2.450000047683716,-0.8399999737739563
1743888265.636671,-0.03415999934077263,-0.054655998945236206,1.0516400337219238,0.8399999737739563,-2.380000114440918,-0.8399999737739563
1743888265.656671,-0.0331839993596077,-0.054655998945236206,1.0535919666290283,0.9100000262260437,-2.309999942779541,-0.8399999737739563
1743888265.676671,-0.03269600123167038,-0.05319200083613396,1.0521279573440552,0.7699999809265137,-2.309999942779541,-0.7699999809265137
1743888265.667298,-0.03513599932193756,-0.05075199902057648,1.0540800094604492,0.8399999737739563,-2.450000047683716,-0.6299999952316284
1743888265.687298,-0.03415999934077263,-0.053679998964071274,1.0521279573440552,0.7699999809265137,-2.450000047683716,-0.8399999737739563
1743888265.707298,-0.034648001194000244,-0.05124000087380409,1.0521279573440552,0.9100000262260437,-2.450000047683716,-0.699999988079071
1743888265.683938,-0.03415999934077263,-0.05270399898290634,1.0555440187454224,0.699999988079071,-2.450000047683716,-0.699999988079071
1743888265.703938,-0.035624001175165176,-0.052216000854969025,1.0535919666290283,0.699999988079071,-2.450000047683716,-0.7699999809265137
1743888265.723938,-0.03513599932193756,-0.05660799890756607,1.052616000175476,0.8399999737739563,-2.380000114440918,-0.7699999809265137
1743888265.71386,-0.034648001194000244,-0.057096000760793686,1.0516400337219238,0.8399999737739563,-2.450000047683716,-0.7699999809265137
1743888265.73386,-0.03855200111865997,-0.056120000779628754,1.0535919666290283,0.8399999737739563,-2.450000047683716,-0.8399999737739563
1743888265.75386,-0.03660000115633011,-0.053679998964071274,1.053104043006897,0.7699999809265137,-2.5199999809265137,-0.8399999737739563
1743888265.7271721,-0.034648001194000244,-0.054655998945236206,1.053104043006897,0.9100000262260437,-2.450000047683716,-0.7699999809265137
1743888265.747172,-0.034648001194000244,-0.05416800081729889,1.0516400337219238,0.9100000262260437,-2.450000047683716,-0.699999988079071
1743888265.767172,-0.03513599932193756,-0.05270399898290634,1.0545680522918701,1.0499999523162842,-2.380000114440918,-0.699999988079071
1743888265.742516,-0.034648001194000244,-0.05416800081729889,1.053104043006897,0.9800000190734863,-2.450000047683716,-0.7699999809265137
1743888265.762516,-0.03757600113749504,-0.05514400079846382,1.0540800094604492,0.9100000262260437,-2.450000047683716,-0.7699999809265137
1743888265.782516,-0.037087999284267426,-0.053679998964071274,1.0521279573440552,0.8399999737739563,-2.450000047683716,-0.699999988079071
1743888265.774286,-0.035624001175165176,-0.05172799900174141,1.0545680522918701,0.9100000262260437,-2.380000114440918,-0.7699999809265137
1743888265.794286,-0.03757600113749504,-0.05270399898290634,1.0540800094604492,0.9100000262260437,-2.380000114440918,-0.7699999809265137
1743888265.814286,-0.03611199930310249,-0.05660799890756607,1.053104043006897,0.9100000262260437,-2.450000047683716,-0.7699999809265137
1743888265.832208,-0.037087999284267426,-0.05416800081729889,1.053104043006897,0.8399999737739563,-2.450000047683716,-0.5600000023841858
1743888265.852208,-0.039528001099824905,-0.05514400079846382,1.0535919666290283,0.8399999737739563,-2.5899999141693115,-0.8399999737739563
1743888265.8722079,-0.037087999284267426,-0.05514400079846382,1.052616000175476,0.9100000262260437,-2.5199999809265137,-0.699999988079071
1743888265.834806,-0.037087999284267426,-0.056120000779628754,1.0535919666290283,1.0499999523162842,-2.380000114440918,-0.699999988079071
1743888265.854806,-0.035624001175165176,-0.05563199892640114,1.053104043006897,0.9800000190734863,-2.450000047683716,-0.8399999737739563
1743888265.874806,-0.037087999284267426,-0.05514400079846382,1.053104043006897,0.8399999737739563,-2.380000114440918,-0.8399999737739563
1743888265.845438,-0.0331839993596077,-0.05416800081729889,1.053104043006897,0.7699999809265137,-2.380000114440918,-0.699999988079071
1743888265.865438,-0.0331839993596077,-0.05416800081729889,1.052616000175476,0.9800000190734863,-2.450000047683716,-0.699999988079071
1743888265.885438,-0.034648001194000244,-0.05563199892640114,1.053104043006897,0.8399999737739563,-2.450000047683716,-0.5600000023841858
1743888265.864532,-0.03513599932193756,-0.053679998964071274,1.051151990890503,0.8399999737739563,-2.380000114440918,-0.8399999737739563
1743888265.884532,-0.03513599932193756,-0.054655998945236206,1.052616000175476,0.8399999737739563,-2.450000047683716,-0.8399999737739563
1743888265.904532,-0.03757600113749504,-0.053679998964071274,1.051151990890503,0.9100000262260437,-2.380000114440918,-0.8399999737739563
1743888265.8942778,-0.039528001099824905,-0.05416800081729889,1.0545680522918701,0.7699999809265137,-2.380000114440918,-0.7699999809265137
1743888265.9142778,-0.03806399926543236,-0.057096000760793686,1.0565199851989746,0.9100000262260437,-2.5199999809265137,-0.7699999809265137
1743888265.9342778,-0.037087999284267426,-0.052216000854969025,1.052616000175476,0.7699999809265137,-2.450000047683716,-0.7699999809265137
1743888265.922421,-0.03611199930310249,-0.053679998964071274,1.0535919666290283,0.9100000262260437,-2.380000114440918,-0.8399999737739563
1743888265.942421,-0.03513599932193756,-0.054655998945236206,1.0516400337219238,0.9100000262260437,-2.380000114440918,-0.699999988079071
1743888265.962421,-0.034648001194000244,-0.054655998945236206,1.052616000175476,0.9100000262260437,-2.450000047683716,-0.8399999737739563
1743888265.937539,-0.03415999934077263,-0.05514400079846382,1.0535919666290283,0.9800000190734863,-2.5199999809265137,-0.8399999737739563
1743888265.957539,-0.03415999934077263,-0.054655998945236206,1.0516400337219238,0.7699999809265137,-2.380000114440918,-0.699999988079071
1743888265.977539,-0.034648001194000244,-0.05563199892640114,1.0550559759140015,0.9100000262260437,-2.5899999141693115,-0.7699999809265137
1743888265.967745,-0.03415999934077263,-0.05319200083613396,1.0555440187454224,0.9100000262260437,-2.5899999141693115,-0.7699999809265137
1743888265.987745,-0.034648001194000244,-0.053679998964071274,1.0516400337219238,0.7699999809265137,-2.5199999809265137,-0.8399999737739563
1743888266.007745,-0.03513599932193756,-0.05514400079846382,1.0555440187454224,0.8399999737739563,-2.380000114440918,-0.9100000262260437
1743888265.9814112,-0.035624001175165176,-0.05416800081729889,1.053104043006897,0.9100000262260437,-2.380000114440918,-0.7699999809265137
1743888266.0014112,-0.03513599932193756,-0.05563199892640114,1.052616000175476,0.8399999737739563,-2.450000047683716,-0.6299999952316284
1743888266.0214112,-0.03611199930310249,-0.05270399898290634,1.053104043006897,0.8399999737739563,-2.380000114440918,-0.6299999952316284
1743888266.010765,-0.03660000115633011,-0.05270399898290634,1.051151990890503,0.9100000262260437,-2.380000114440918,-0.7699999809265137
1743888266.030765,-0.034648001194000244,-0.05124000087380409,1.0540800094604492,0.7699999809265137,-2.380000114440918,-0.7699999809265137
1743888266.050765,-0.035624001175165176,-0.053679998964071274,1.0521279573440552,0.9100000262260437,-2.380000114440918,-0.8399999737739563
1743888266.040926,-0.03367200121283531,-0.05319200083613396,1.0555440187454224,0.9100000262260437,-2.450000047683716,-0.8399999737739563
1743888266.060926,-0.03660000115633011,-0.05416800081729889,1.0560319423675537,0.699999988079071,-2.309999942779541,-0.7699999809265137
1743888266.080926,-0.034648001194000244,-0.053679998964071274,1.0555440187454224,0.8399999737739563,-2.450000047683716,-0.7699999809265137
1743888266.043735,-0.035624001175165176,-0.05514400079846382,1.0550559759140015,0.9100000262260437,-2.380000114440918,-0.7699999809265137
1743888266.063735,-0.034648001194000244,-0.05514400079846382,1.0540800094604492,0.9800000190734863,-2.380000114440918,-0.699999988079071
1743888266.083735,-0.037087999284267426,-0.054655998945236206,1.0521279573440552,0.9100000262260437,-2.450000047683716,-0.7699999809265137
1743888266.071137,-0.03513599932193756,-0.053679998964071274,1.052616000175476,0.9100000262260437,-2.450000047683716,-0.699999988079071
1743888266.091137,-0.03415999934077263,-0.05514400079846382,1.0560319423675537,0.699999988079071,-2.380000114440918,-0.699999988079071
1743888266.111137,-0.03660000115633011,-0.05563199892640114,1.0535919666290283,0.8399999737739563,-2.5199999809265137,-0.699999988079071
1743888266.131987,-0.03806399926543236,-0.053679998964071274,1.0545680522918701,0.9100000262260437,-2.380000114440918,-0.699999988079071
1743888266.151987,-0.035624001175165176,-0.05416800081729889,1.053104043006897,0.9100000262260437,-2.5199999809265137,-0.7699999809265137
1743888266.171987,-0.03757600113749504,-0.05319200083613396,1.0540800094604492,0.9800000190734863,-2.5199999809265137,-0.7699999809265137
1743888266.136045,-0.034648001194000244,-0.052216000854969025,1.0550559759140015,0.9100000262260437,-2.450000047683716,-0.8399999737739563
1743888266.156045,-0.03367200121283531,-0.05319200083613396,1.0516400337219238,0.9100000262260437,-2.450000047683716,-0.7699999809265137
1743888266.176045,-0.034648001194000244,-0.052216000854969025,1.0535919666290283,0.9100000262260437,-2.380000114440918,-0.7699999809265137
1743888266.147089,-0.0331839993596077,-0.05514400079846382,1.0550559759140015,0.9800000190734863,-2.309999942779541,-0.7699999809265137
1743888266.167089,-0.034648001194000244,-0.05514400079846382,1.053104043006897,0.9100000262260437,-2.450000047683716,-0.7699999809265137
1743888266.187089,-0.03367200121283531,-0.053679998964071274,1.050663948059082,0.7699999809265137,-2.380000114440918,-0.8399999737739563
1743888266.160838,-0.035624001175165176,-0.053679998964071274,1.0535919666290283,0.9800000190734863,-2.5199999809265137,-0.7699999809265137
1743888266.1808379,-0.03513599932193756,-0.05416800081729889,1.0545680522918701,0.7699999809265137,-2.450000047683716,-0.7699999809265137
1743888266.2008379,-0.03367200121283531,-0.056120000779628754,1.0545680522918701,0.6299999952316284,-2.380000114440918,-0.9100000262260437
1743888266.191061,-0.03611199930310249,-0.05563199892640114,1.052616000175476,0.8399999737739563,-2.450000047683716,-0.7699999809265137
1743888266.211061,-0.035624001175165176,-0.05514400079846382,1.053104043006897,0.9100000262260437,-2.450000047683716,-0.8399999737739563
1743888266.231061,-0.035624001175165176,-0.056120000779628754,1.0550559759140015,0.8399999737739563,-2.450000047683716,-0.699999988079071
1743888266.207007,-0.03757600113749504,-0.056120000779628754,1.0555440187454224,0.8399999737739563,-2.450000047683716,-0.699999988079071
1743888266.227007,-0.03611199930310249,-0.056120000779628754,1.052616000175476,0.8399999737739563,-2.450000047683716,-0.7699999809265137
1743888266.247007,-0.03660000115633011,-0.05514400079846382,1.0535919666290283,0.7699999809265137,-2.380000114440918,-0.8399999737739563
1743888266.253586,-0.03806399926543236,-0.056120000779628754,1.0535919666290283,0.9800000190734863,-2.5199999809265137,-0.7699999809265137
1743888266.273586,-0.03415999934077263,-0.054655998945236206,1.0521279573440552,0.9100000262260437,-2.380000114440918,-0.7699999809265137
1743888266.293586,-0.035624001175165176,-0.053679998964071274,1.0521279573440552,0.9800000190734863,-2.380000114440918,-0.7699999809265137
1743888266.2547212,-0.035624001175165176,-0.05270399898290634,1.0540800094604492,1.0499999523162842,-2.450000047683716,-0.7699999809265137
1743888266.2747211,-0.03611199930310249,-0.054655998945236206,1.0545680522918701,0.7699999809265137,-2.450000047683716,-0.9100000262260437
1743888266.2947211,-0.035624001175165176,-0.053679998964071274,1.050663948059082,0.8399999737739563,-2.380000114440918,-0.7699999809265137
1743888266.280653,-0.03611199930310249,-0.054655998945236206,1.0555440187454224,0.9100000262260437,-2.450000047683716,-0.7699999809265137
1743888266.300653,-0.03269600123167038,-0.05416800081729889,1.0540800094604492,0.8399999737739563,-2.5199999809265137,-0.699999988079071
1743888266.320653,-0.03415999934077263,-0.053679998964071274,1.051151990890503,0.9800000190734863,-2.450000047683716,-0.7699999809265137
1743888266.3138282,-0.03513599932193756,-0.054655998945236206,1.0535919666290283,0.8399999737739563,-2.450000047683716,-0.699999988079071
1743888266.3338282,-0.035624001175165176,-0.05416800081729889,1.053104043006897,0.8399999737739563,-2.450000047683716,-0.7699999809265137
1743888266.3538282,-0.035624001175165176,-0.05563199892640114,1.0540800094604492,0.9800000190734863,-2.450000047683716,-0.7699999809265137
1743888266.329142,-0.03367200121283531,-0.054655998945236206,1.0516400337219238,0.8399999737739563,-2.450000047683716,-0.7699999809265137
1743888266.349142,-0.03660000115633011,-0.053679998964071274,1.0535919666290283,0.8399999737739563,-2.380000114440918,-0.699999988079071
1743888266.369142,-0.035624001175165176,-0.05514400079846382,1.0545680522918701,0.8399999737739563,-2.380000114440918,-0.7699999809265137
1743888266.3414001,-0.03611199930310249,-0.05270399898290634,1.0535919666290283,0.9100000262260437,-2.380000114440918,-0.699999988079071
1743888266.3614001,-0.03660000115633011,-0.053679998964071274,1.053104043006897,0.7699999809265137,-2.380000114440918,-0.7699999809265137
1743888266.3814,-0.03513599932193756,-0.05514400079846382,1.0540800094604492,0.9100000262260437,-2.380000114440918,-0.7699999809265137
1743888266.372587,-0.03415999934077263,-0.05319200083613396,1.0545680522918701,0.9100000262260437,-2.450000047683716,-0.699999988079071
1743888266.392587,-0.034648001194000244,-0.054655998945236206,1.0540800094604492,0.7699999809265137,-2.450000047683716,-0.699999988079071
1743888266.412587,-0.03513599932193756,-0.053679998964071274,1.0521279573440552,0.7699999809265137,-2.450000047683716,-0.9100000262260437
1743888266.4350562,-0.03611199930310249,-0.05563199892640114,1.0540800094604492,0.9800000190734863,-2.5199999809265137,-0.699999988079071
1743888266.4550562,-0.03660000115633011,-0.05514400079846382,1.052616000175476,0.9800000190734863,-2.380000114440918,-0.8399999737739563
1743888266.4750562,-0.03660000115633011,-0.054655998945236206,1.0501760244369507,0.8399999737739563,-2.450000047683716,-0.7699999809265137
1743888266.43644,-0.035624001175165176,-0.05563199892640114,1.052616000175476,0.7699999809265137,-2.5199999809265137,-0.7699999809265137
1743888266.45644,-0.03513599932193756,-0.05319200083613396,1.0545680522918701,0.9100000262260437,-2.5199999809265137,-0.699999988079071
1743888266.47644,-0.035624001175165176,-0.05416800081729889,1.0521279573440552,0.8399999737739563,-2.309999942779541,-0.7699999809265137
1743888266.437015,-0.03513599932193756,-0.053679998964071274,1.0501760244369507,0.7699999809265137,-2.450000047683716,-0.699999988079071
1743888266.457015,-0.034648001194000244,-0.05416800081729889,1.0521279573440552,0.8399999737739563,-2.450000047683716,-0.7699999809265137
1743888266.477015,-0.03415999934077263,-0.053679998964071274,1.053104043006897,0.7699999809265137,-2.5199999809265137,-0.7699999809265137
1743888266.460896,-0.034648001194000244,-0.05514400079846382,1.053104043006897,0.9100000262260437,-2.450000047683716,-0.699999988079071
1743888266.480896,-0.03415999934077263,-0.05514400079846382,1.053104043006897,0.8399999737739563,-2.450000047683716,-0.7699999809265137
1743888266.500896,-0.03513599932193756,-0.05514400079846382,1.053104043006897,0.8399999737739563,-2.380000114440918,-0.7699999809265137
1743888266.493916,-0.034648001194000244,-0.056120000779628754,1.0560319423675537,0.8399999737739563,-2.450000047683716,-0.699999988079071
1743888266.513916,-0.03513599932193756,-0.05416800081729889,1.052616000175476,0.8399999737739563,-2.380000114440918,-0.7699999809265137
1743888266.533916,-0.035624001175165176,-0.054655998945236206,1.0550559759140015,0.9100000262260437,-2.450000047683716,-0.7699999809265137
1743888266.5073018,-0.03757600113749504,-0.05514400079846382,1.0550559759140015,0.9100000262260437,-2.380000114440918,-0.7699999809265137
1743888266.5273018,-0.03611199930310249,-0.05416800081729889,1.0496879816055298,0.7699999809265137,-2.380000114440918,-0.7699999809265137
1743888266.5473018,-0.035624001175165176,-0.053679998964071274,1.0521279573440552,0.9100000262260437,-2.380000114440918,-0.8399999737739563
1743888266.520493,-0.03611199930310249,-0.054655998945236206,1.0550559759140015,0.9100000262260437,-2.450000047683716,-0.8399999737739563
1743888266.540493,-0.03611199930310249,-0.05563199892640114,1.0535919666290283,0.9100000262260437,-2.450000047683716,-0.8399999737739563
1743888266.560493,-0.03611199930310249,-0.05563199892640114,1.0550559759140015,0.8399999737739563,-2.450000047683716,-0.7699999809265137
1743888266.5538309,-0.03611199930310249,-0.05563199892640114,1.053104043006897,0.8399999737739563,-2.450000047683716,-0.699999988079071
1743888266.5738308,-0.035624001175165176,-0.05172799900174141,1.0501760244369507,0.8399999737739563,-2.5899999141693115,-0.7699999809265137
1743888266.5938308,-0.034648001194000244,-0.053679998964071274,1.0535919666290283,0.8399999737739563,-2.450000047683716,-0.7699999809265137
1743888266.569192,-0.03513599932193756,-0.05416800081729889,1.050663948059082,0.9100000262260437,-2.5199999809265137,-0.7699999809265137
1743888266.589192,-0.03611199930310249,-0.05563199892640114,1.0521279573440552,0.8399999737739563,-2.450000047683716,-0.6299999952316284
1743888266.609192,-0.03660000115633011,-0.05563199892640114,1.053104043006897,0.9800000190734863,-2.5899999141693115,-0.8399999737739563
1743888266.5976698,-0.03513599932193756,-0.05319200083613396,1.0535919666290283,0.8399999737739563,-2.450000047683716,-0.7699999809265137
1743888266.6176698,-0.03611199930310249,-0.05270399898290634,1.0545680522918701,0.7699999809265137,-2.450000047683716,-0.7699999809265137
1743888266.6376698,-0.03660000115633011,-0.05270399898290634,1.051151990890503,0.8399999737739563,-2.380000114440918,-0.7699999809265137
1743888266.627329,-0.035624001175165176,-0.05124000087380409,1.0545680522918701,0.8399999737739563,-2.450000047683716,-0.7699999809265137
1743888266.647329,-0.03513599932193756,-0.052216000854969025,1.0550559759140015,0.7699999809265137,-2.450000047683716,-0.9100000262260437
1743888266.667329,-0.03415999934077263,-0.053679998964071274,1.0521279573440552,0.9100000262260437,-2.380000114440918,-0.699999988079071
1743888266.655786,-0.03415999934077263,-0.05270399898290634,1.0540800094604492,0.9100000262260437,-2.450000047683716,-0.699999988079071
1743888266.675786,-0.03513599932193756,-0.052216000854969025,1.0540800094604492,0.7699999809265137,-2.450000047683716,-0.6299999952316284
1743888266.695786,-0.034648001194000244,-0.05416800081729889,1.0521279573440552,0.8399999737739563,-2.450000047683716,-0.699999988079071
1743888266.674003,-0.03611199930310249,-0.054655998945236206,1.052616000175476,0.8399999737739563,-2.380000114440918,-0.699999988079071
1743888266.6940029,-0.03611199930310249,-0.054655998945236206,1.0550559759140015,0.8399999737739563,-2.450000047683716,-0.7699999809265137
1743888266.7140028,-0.03611199930310249,-0.05319200083613396,1.0535919666290283,0.9100000262260437,-2.450000047683716,-0.8399999737739563
1743888266.7320242,-0.034648001194000244,-0.053679998964071274,1.0550559759140015,0.9100000262260437,-2.380000114440918,-0.7699999809265137
1743888266.7520242,-0.03611199930310249,-0.05416800081729889,1.0550559759140015,0.9100000262260437,-2.450000047683716,-0.699999988079071
1743888266.7720242,-0.03660000115633011,-0.053679998964071274,1.0535919666290283,0.9100000262260437,-2.309999942779541,-0.7699999809265137
1743888266.734636,-0.03611199930310249,-0.05514400079846382,1.0560319423675537,0.7699999809265137,-2.380000114440918,-0.699999988079071
1743888266.754636,-0.03757600113749504,-0.05514400079846382,1.0535919666290283,0.9100000262260437,-2.380000114440918,-0.6299999952316284
1743888266.774636,-0.035624001175165176,-0.05514400079846382,1.0535919666290283,0.9100000262260437,-2.380000114440918,-0.7699999809265137
1743888266.747089,-0.034648001194000244,-0.053679998964071274,1.0535919666290283,0.8399999737739563,-2.5199999809265137,-0.699999988079071
1743888266.767089,-0.035624001175165176,-0.05319200083613396,1.0545680522918701,0.9100000262260437,-2.450000047683716,-0.7699999809265137
1743888266.7870889,-0.03415999934077263,-0.054655998945236206,1.052616000175476,0.9100000262260437,-2.450000047683716,-0.699999988079071
1743888266.763519,-0.03513599932193756,-0.053679998964071274,1.0560319423675537,0.8399999737739563,-2.5199999809265137,-0.699999988079071
1743888266.783519,-0.03513599932193756,-0.053679998964071274,1.053104043006897,0.9100000262260437,-2.450000047683716,-0.7699999809265137
1743888266.803519,-0.0331839993596077,-0.054655998945236206,1.052616000175476,0.7699999809265137,-2.450000047683716,-0.9100000262260437
1743888266.7774138,-0.035624001175165176,-0.05172799900174141,1.0521279573440552,0.9100000262260437,-2.450000047683716,-0.699999988079071
1743888266.7974138,-0.035624001175165176,-0.053679998964071274,1.0521279573440552,0.8399999737739563,-2.450000047683716,-0.8399999737739563
1743888266.8174138,-0.034648001194000244,-0.05270399898290634,1.0516400337219238,0.9800000190734863,-2.380000114440918,-0.8399999737739563
1743888266.807605,-0.035624001175165176,-0.05319200083613396,1.0540800094604492,0.8399999737739563,-2.380000114440918,-0.699999988079071
1743888266.827605,-0.03415999934077263,-0.054655998945236206,1.0516400337219238,0.8399999737739563,-2.380000114440918,-0.8399999737739563
1743888266.847605,-0.034648001194000244,-0.05807200074195862,1.053104043006897,0.9100000262260437,-2.5199999809265137,-0.7699999809265137
1743888266.8244941,-0.03513599932193756,-0.054655998945236206,1.053104043006897,0.9100000262260437,-2.380000114440918,-0.699999988079071
1743888266.844494,-0.0331839993596077,-0.05416800081729889,1.053104043006897,0.8399999737739563,-2.5199999809265137,-0.7699999809265137
1743888266.864494,-0.03513599932193756,-0.057583998888731,1.051151990890503,0.9800000190734863,-2.5199999809265137,-0.699999988079071
1743888266.853982,-0.034648001194000244,-0.05660799890756607,1.052616000175476,0.9100000262260437,-2.5199999809265137,-0.7699999809265137
1743888266.873982,-0.03611199930310249,-0.05514400079846382,1.0487120151519775,0.9100000262260437,-2.450000047683716,-0.7699999809265137
1743888266.893982,-0.037087999284267426,-0.054655998945236206,1.0535919666290283,0.8399999737739563,-2.380000114440918,-0.7699999809265137
1743888266.865746,-0.03855200111865997,-0.05416800081729889,1.0560319423675537,1.0499999523162842,-2.5199999809265137,-0.8399999737739563
1743888266.885746,-0.03611199930310249,-0.054655998945236206,1.052616000175476,0.9100000262260437,-2.450000047683716,-0.8399999737739563
1743888266.905746,-0.03806399926543236,-0.053679998964071274,1.0535919666290283,0.8399999737739563,-2.309999942779541,-0.6299999952316284
1743888266.897247,-0.03757600113749504,-0.05416800081729889,1.0521279573440552,0.8399999737739563,-2.450000047683716,-0.8399999737739563
1743888266.917247,-0.03660000115633011,-0.05416800081729889,1.053104043006897,0.9100000262260437,-2.380000114440918,-0.699999988079071
1743888266.937247,-0.03660000115633011,-0.05319200083613396,1.0545680522918701,0.8399999737739563,-2.450000047683716,-0.7699999809265137
1743888266.925776,-0.03367200121283531,-0.05416800081729889,1.053104043006897,0.9800000190734863,-2.450000047683716,-0.8399999737739563
1743888266.945776,-0.035624001175165176,-0.05563199892640114,1.0540800094604492,0.9100000262260437,-2.5199999809265137,-0.6299999952316284
1743888266.965776,-0.03415999934077263,-0.053679998964071274,1.0496879816055298,0.6299999952316284,-2.450000047683716,-0.8399999737739563
1743888266.9445882,-0.034648001194000244,-0.05172799900174141,1.0550559759140015,0.9100000262260437,-2.380000114440918,-0.8399999737739563
1743888266.9645882,-0.03415999934077263,-0.057096000760793686,1.051151990890503,0.8399999737739563,-2.380000114440918,-0.7699999809265137
1743888266.9845881,-0.034648001194000244,-0.05514400079846382,1.050663948059082,1.0499999523162842,-2.450000047683716,-0.699999988079071
1743888266.958807,-0.034648001194000244,-0.053679998964071274,1.052616000175476,0.8399999737739563,-2.5199999809265137,-0.7699999809265137
1743888266.978807,-0.03513599932193756,-0.054655998945236206,1.053104043006897,0.7699999809265137,-2.450000047683716,-0.699999988079071
1743888266.998807,-0.03269600123167038,-0.056120000779628754,1.0516400337219238,0.8399999737739563,-2.5199999809265137,-0.7699999809265137
1743888266.9875422,-0.03806399926543236,-0.053679998964071274,1.053104043006897,0.8399999737739563,-2.450000047683716,-0.7699999809265137
1743888267.0075421,-0.03660000115633011,-0.05660799890756607,1.053104043006897,0.9100000262260437,-2.450000047683716,-0.7699999809265137
1743888267.027542,-0.03757600113749504,-0.05563199892640114,1.052616000175476,0.9100000262260437,-2.380000114440918,-0.7699999809265137
1743888267.032535,-0.03513599932193756,-0.05416800081729889,1.0521279573440552,0.9100000262260437,-2.450000047683716,-0.8399999737739563
1743888267.052535,-0.032207999378442764,-0.05416800081729889,1.0540800094604492,0.9100000262260437,-2.450000047683716,-0.7699999809265137
1743888267.072535,-0.034648001194000244,-0.05660799890756607,1.0535919666290283,1.0499999523162842,-2.5199999809265137,-0.7699999809265137
1743888267.0479093,-0.03611199930310249,-0.05124000087380409,1.053104043006897,0.9100000262260437,-2.450000047683716,-0.7699999809265137
1743888267.0679092,-0.037087999284267426,-0.053679998964071274,1.0545680522918701,0.7699999809265137,-2.450000047683716,-0.7699999809265137
1743888267.0879092,-0.035624001175165176,-0.05416800081729889,1.052616000175476,0.7699999809265137,-2.450000047683716,-0.8399999737739563
1743888267.048783,-0.037087999284267426,-0.05514400079846382,1.0555440187454224,0.8399999737739563,-2.450000047683716,-0.699999988079071
1743888267.068783,-0.034648001194000244,-0.05416800081729889,1.0545680522918701,0.9100000262260437,-2.5199999809265137,-0.699999988079071
1743888267.088783,-0.035624001175165176,-0.057096000760793686,1.051151990890503,0.699999988079071,-2.309999942779541,-0.7699999809265137
1743888267.077548,-0.037087999284267426,-0.054655998945236206,1.0535919666290283,0.9100000262260437,-2.380000114440918,-0.699999988079071
1743888267.097548,-0.03660000115633011,-0.056120000779628754,1.0545680522918701,0.9800000190734863,-2.5899999141693115,-0.8399999737739563
1743888267.117548,-0.03513599932193756,-0.05563199892640114,1.0550559759140015,0.9800000190734863,-2.5199999809265137,-0.8399999737739563
1743888267.094944,-0.035624001175165176,-0.05416800081729889,1.053104043006897,0.7699999809265137,-2.450000047683716,-0.8399999737739563
1743888267.114944,-0.03415999934077263,-0.05416800081729889,1.0521279573440552,0.8399999737739563,-2.309999942779541,-0.699999988079071
1743888267.134944,-0.03367200121283531,-0.05319200083613396,1.0555440187454224,0.8399999737739563,-2.5899999141693115,-0.6299999952316284
1743888267.124077,-0.035624001175165176,-0.05270399898290634,1.0545680522918701,0.9800000190734863,-2.380000114440918,-0.699999988079071
1743888267.144077,-0.03513599932193756,-0.052216000854969025,1.0540800094604492,0.8399999737739563,-2.450000047683716,-0.7699999809265137
1743888267.164077,-0.03513599932193756,-0.05319200083613396,1.0545680522918701,0.8399999737739563,-2.450000047683716,-0.7699999809265137
1743888267.152359,-0.03367200121283531,-0.054655998945236206,1.0540800094604492,0.9100000262260437,-2.450000047683716,-0.699999988079071
1743888267.172359,-0.03611199930310249,-0.05319200083613396,1.0516400337219238,0.7699999809265137,-2.380000114440918,-0.8399999737739563
1743888267.192359,-0.035624001175165176,-0.05563199892640114,1.051151990890503,0.8399999737739563,-2.380000114440918,-0.7699999809265137
1743888267.165768,-0.03367200121283531,-0.054655998945236206,1.0540800094604492,0.9100000262260437,-2.309999942779541,-0.7699999809265137
1743888267.185768,-0.03611199930310249,-0.05660799890756607,1.053104043006897,0.7699999809265137,-2.380000114440918,-0.8399999737739563
1743888267.2057679,-0.03660000115633011,-0.054655998945236206,1.0540800094604492,0.8399999737739563,-2.450000047683716,-0.8399999737739563
1743888267.183993,-0.03367200121283531,-0.05563199892640114,1.0545680522918701,0.9100000262260437,-2.450000047683716,-0.699999988079071
1743888267.203993,-0.03513599932193756,-0.05514400079846382,1.0545680522918701,0.8399999737739563,-2.450000047683716,-0.8399999737739563
1743888267.223993,-0.037087999284267426,-0.053679998964071274,1.053104043006897,0.8399999737739563,-2.450000047683716,-0.7699999809265137
1743888267.213225,-0.03513599932193756,-0.053679998964071274,1.0535919666290283,0.7699999809265137,-2.450000047683716,-0.7699999809265137
1743888267.2332249,-0.035624001175165176,-0.056120000779628754,1.0535919666290283,0.8399999737739563,-2.5199999809265137,-0.699999988079071
1743888267.2532248,-0.035624001175165176,-0.05416800081729889,1.051151990890503,0.9800000190734863,-2.380000114440918,-0.699999988079071
1743888267.2267861,-0.03415999934077263,-0.053679998964071274,1.0555440187454224,0.8399999737739563,-2.309999942779541,-0.7699999809265137
1743888267.246786,-0.03611199930310249,-0.053679998964071274,1.0540800094604492,0.9100000262260437,-2.450000047683716,-0.7699999809265137
1743888267.266786,-0.035624001175165176,-0.05514400079846382,1.0521279573440552,0.8399999737739563,-2.380000114440918,-0.7699999809265137
1743888267.259098,-0.03513599932193756,-0.05514400079846382,1.0521279573440552,0.8399999737739563,-2.5199999809265137,-0.8399999737739563
1743888267.279098,-0.03513599932193756,-0.05514400079846382,1.0516400337219238,0.8399999737739563,-2.309999942779541,-0.7699999809265137
1743888267.299098,-0.03513599932193756,-0.052216000854969025,1.0540800094604492,0.9800000190734863,-2.5199999809265137,-0.699999988079071
1743888267.289314,-0.03513599932193756,-0.052216000854969025,1.0545680522918701,0.9100000262260437,-2.450000047683716,-0.699999988079071
1743888267.309314,-0.035624001175165176,-0.05416800081729889,1.0550559759140015,0.9100000262260437,-2.450000047683716,-0.7699999809265137
1743888267.329314,-0.03611199930310249,-0.05416800081729889,1.0535919666290283,0.9800000190734863,-2.450000047683716,-0.8399999737739563
1743888267.3318331,-0.034648001194000244,-0.05563199892640114,1.0560319423675537,0.9100000262260437,-2.450000047683716,-0.699999988079071
1743888267.351833,-0.034648001194000244,-0.05319200083613396,1.052616000175476,0.9100000262260437,-2.450000047683716,-0.9100000262260437
1743888267.371833,-0.03415999934077263,-0.053679998964071274,1.0540800094604492,0.8399999737739563,-2.450000047683716,-0.8399999737739563
1743888267.332706,-0.03513599932193756,-0.05319200083613396,1.0516400337219238,0.9800000190734863,-2.450000047683716,-0.8399999737739563
1743888267.352706,-0.035624001175165176,-0.05270399898290634,1.053104043006897,0.8399999737739563,-2.380000114440918,-0.7699999809265137
1743888267.372706,-0.03513599932193756,-0.05514400079846382,1.0535919666290283,0.6299999952316284,-2.450000047683716,-0.8399999737739563
1743888267.348927,-0.03611199930310249,-0.05514400079846382,1.0535919666290283,0.7699999809265137,-2.450000047683716,-0.8399999737739563
1743888267.368927,-0.035624001175165176,-0.05416800081729889,1.052616000175476,0.9100000262260437,-2.380000114440918,-0.9100000262260437
1743888267.388927,-0.03415999934077263,-0.05416800081729889,1.0535919666290283,0.8399999737739563,-2.450000047683716,-0.8399999737739563
1743888267.378467,-0.037087999284267426,-0.054655998945236206,1.0535919666290283,0.7699999809265137,-2.450000047683716,-0.7699999809265137
1743888267.398467,-0.03415999934077263,-0.054655998945236206,1.053104043006897,0.8399999737739563,-2.450000047683716,-0.8399999737739563
1743888267.418467,-0.03415999934077263,-0.05416800081729889,1.053104043006897,0.9100000262260437,-2.5199999809265137,-0.699999988079071
1743888267.40943,-0.035624001175165176,-0.05514400079846382,1.0560319423675537,0.8399999737739563,-2.380000114440918,-0.8399999737739563
1743888267.42943,-0.035624001175165176,-0.05416800081729889,1.0550559759140015,0.8399999737739563,-2.450000047683716,-0.699999988079071
1743888267.44943,-0.03611199930310249,-0.05319200083613396,1.053104043006897,0.9100000262260437,-2.450000047683716,-0.8399999737739563
1743888267.422386,-0.034648001194000244,-0.05416800081729889,1.0535919666290283,0.7699999809265137,-2.450000047683716,-0.7699999809265137
1743888267.442386,-0.037087999284267426,-0.053679998964071274,1.0540800094604492,0.9800000190734863,-2.380000114440918,-0.699999988079071
1743888267.462386,-0.037087999284267426,-0.056120000779628754,1.0560319423675537,0.9100000262260437,-2.380000114440918,-0.8399999737739563
1743888267.439004,-0.035624001175165176,-0.05270399898290634,1.052616000175476,0.8399999737739563,-2.5899999141693115,-0.7699999809265137
1743888267.459004,-0.034648001194000244,-0.05270399898290634,1.052616000175476,0.7699999809265137,-2.5199999809265137,-0.8399999737739563
1743888267.479004,-0.03513599932193756,-0.05563199892640114,1.0516400337219238,0.8399999737739563,-2.309999942779541,-0.8399999737739563
1743888267.469074,-0.03513599932193756,-0.056120000779628754,1.051151990890503,0.8399999737739563,-2.380000114440918,-0.8399999737739563
1743888267.489074,-0.034648001194000244,-0.054655998945236206,1.052616000175476,0.8399999737739563,-2.380000114440918,-0.699999988079071
1743888267.509074,-0.0331839993596077,-0.054655998945236206,1.051151990890503,0.9100000262260437,-2.450000047683716,-0.7699999809265137
1743888267.4806771,-0.034648001194000244,-0.053679998964071274,1.0516400337219238,0.7699999809265137,-2.380000114440918,-0.7699999809265137
1743888267.500677,-0.035624001175165176,-0.05270399898290634,1.0545680522918701,0.9100000262260437,-2.450000047683716,-0.7699999809265137
1743888267.520677,-0.03660000115633011,-0.053679998964071274,1.0545680522918701,0.9100000262260437,-2.450000047683716,-0.8399999737739563
1743888267.5108,-0.035624001175165176,-0.057096000760793686,1.0521279573440552,0.9100000262260437,-2.5199999809265137,-0.8399999737739563
1743888267.5307999,-0.035624001175165176,-0.054655998945236206,1.052616000175476,0.9100000262260437,-2.450000047683716,-0.7699999809265137
1743888267.5507998,-0.03660000115633011,-0.053679998964071274,1.0550559759140015,0.7699999809265137,-2.450000047683716,-0.699999988079071
1743888267.527281,-0.03660000115633011,-0.05270399898290634,1.0555440187454224,0.9100000262260437,-2.450000047683716,-0.699999988079071
1743888267.547281,-0.03513599932193756,-0.054655998945236206,1.0560319423675537,0.8399999737739563,-2.5199999809265137,-0.699999988079071
1743888267.567281,-0.03611199930310249,-0.054655998945236206,1.052616000175476,0.9100000262260437,-2.380000114440918,-0.699999988079071
1743888267.557215,-0.035624001175165176,-0.05319200083613396,1.0545680522918701,0.9800000190734863,-2.450000047683716,-0.699999988079071
1743888267.577215,-0.03415999934077263,-0.054655998945236206,1.053104043006897,0.9800000190734863,-2.5199999809265137,-0.8399999737739563
1743888267.597215,-0.035624001175165176,-0.054655998945236206,1.0516400337219238,0.9100000262260437,-2.450000047683716,-0.7699999809265137
1743888267.570689,-0.034648001194000244,-0.053679998964071274,1.0501760244369507,0.7699999809265137,-2.450000047683716,-0.7699999809265137
1743888267.590689,-0.03367200121283531,-0.05416800081729889,1.053104043006897,0.8399999737739563,-2.380000114440918,-0.7699999809265137
1743888267.610689,-0.03660000115633011,-0.053679998964071274,1.0545680522918701,0.8399999737739563,-2.450000047683716,-0.699999988079071
1743888267.630923,-0.035624001175165176,-0.052216000854969025,1.0550559759140015,0.8399999737739563,-2.450000047683716,-0.7699999809265137
1743888267.650923,-0.03513599932193756,-0.05514400079846382,1.052616000175476,0.699999988079071,-2.450000047683716,-0.7699999809265137
1743888267.670923,-0.03415999934077263,-0.05416800081729889,1.0550559759140015,0.8399999737739563,-2.450000047683716,-0.8399999737739563
1743888267.633999,-0.035624001175165176,-0.05319200083613396,1.0540800094604492,0.7699999809265137,-2.450000047683716,-0.8399999737739563
1743888267.653999,-0.037087999284267426,-0.053679998964071274,1.0540800094604492,0.8399999737739563,-2.380000114440918,-0.7699999809265137
1743888267.673999,-0.034648001194000244,-0.054655998945236206,1.050663948059082,0.9100000262260437,-2.450000047683716,-0.7699999809265137
1743888267.647289,-0.03611199930310249,-0.057096000760793686,1.0535919666290283,0.8399999737739563,-2.309999942779541,-0.7699999809265137
1743888267.667289,-0.03611199930310249,-0.05319200083613396,1.0540800094604492,0.8399999737739563,-2.450000047683716,-0.8399999737739563
1743888267.687289,-0.034648001194000244,-0.05416800081729889,1.0550559759140015,0.9800000190734863,-2.380000114440918,-0.8399999737739563
1743888267.660584,-0.03513599932193756,-0.05514400079846382,1.0501760244369507,0.9100000262260437,-2.450000047683716,-0.7699999809265137
1743888267.680584,-0.034648001194000244,-0.053679998964071274,1.052616000175476,0.9100000262260437,-2.450000047683716,-0.7699999809265137
1743888267.700584,-0.03415999934077263,-0.053679998964071274,1.053104043006897,0.9800000190734863,-2.450000047683716,-0.7699999809265137
1743888267.691044,-0.03513599932193756,-0.05416800081729889,1.0535919666290283,0.8399999737739563,-2.450000047683716,-0.699999988079071
1743888267.711044,-0.03611199930310249,-0.05319200083613396,1.053104043006897,0.9100000262260437,-2.380000114440918,-0.7699999809265137
1743888267.731044,-0.037087999284267426,-0.05319200083613396,1.0550559759140015,0.9100000262260437,-2.380000114440918,-0.8399999737739563
1743888267.7071931,-0.03367200121283531,-0.05514400079846382,1.052616000175476,0.8399999737739563,-2.380000114440918,-0.7699999809265137
1743888267.727193,-0.03611199930310249,-0.05514400079846382,1.0540800094604492,0.8399999737739563,-2.450000047683716,-0.7699999809265137
1743888267.747193,-0.03660000115633011,-0.05416800081729889,1.051151990890503,0.7699999809265137,-2.380000114440918,-0.699999988079071
1743888267.739505,-0.035624001175165176,-0.05416800081729889,1.0516400337219238,0.9800000190734863,-2.380000114440918,-0.7699999809265137
1743888267.759505,-0.03611199930310249,-0.05416800081729889,1.0545680522918701,0.9100000262260437,-2.380000114440918,-0.7699999809265137
1743888267.779505,-0.037087999284267426,-0.057096000760793686,1.053104043006897,0.8399999737739563,-2.450000047683716,-0.6299999952316284
1743888267.752166,-0.03660000115633011,-0.05514400079846382,1.0535919666290283,0.8399999737739563,-2.380000114440918,-0.699999988079071
1743888267.772166,-0.03513599932193756,-0.054655998945236206,1.0555440187454224,0.8399999737739563,-2.380000114440918,-0.7699999809265137
1743888267.792166,-0.037087999284267426,-0.05660799890756607,1.0555440187454224,0.9100000262260437,-2.450000047683716,-0.8399999737739563
1743888267.782163,-0.034648001194000244,-0.05514400079846382,1.0540800094604492,0.7699999809265137,-2.450000047683716,-0.8399999737739563
1743888267.802163,-0.03660000115633011,-0.05563199892640114,1.0545680522918701,0.9100000262260437,-2.380000114440918,-0.6299999952316284
1743888267.8221629,-0.03611199930310249,-0.05319200083613396,1.0535919666290283,0.9100000262260437,-2.450000047683716,-0.8399999737739563
1743888267.811855,-0.03367200121283531,-0.053679998964071274,1.0540800094604492,0.9800000190734863,-2.5199999809265137,-0.699999988079071
1743888267.831855,-0.03513599932193756,-0.05416800081729889,1.053104043006897,0.9100000262260437,-2.380000114440918,-0.7699999809265137
1743888267.851855,-0.03415999934077263,-0.052216000854969025,1.053104043006897,0.7699999809265137,-2.450000047683716,-0.8399999737739563
1743888267.8293982,-0.034648001194000244,-0.054655998945236206,1.0540800094604492,0.9100000262260437,-2.5199999809265137,-0.699999988079071
1743888267.8493981,-0.03367200121283531,-0.05124000087380409,1.052616000175476,0.8399999737739563,-2.450000047683716,-0.8399999737739563
1743888267.869398,-0.034648001194000244,-0.052216000854969025,1.0540800094604492,0.8399999737739563,-2.5199999809265137,-0.8399999737739563
1743888267.842193,-0.03513599932193756,-0.054655998945236206,1.0555440187454224,0.8399999737739563,-2.5199999809265137,-0.7699999809265137
1743888267.8621929,-0.035624001175165176,-0.052216000854969025,1.0535919666290283,0.9100000262260437,-2.380000114440918,-0.8399999737739563
1743888267.8821929,-0.034648001194000244,-0.05319200083613396,1.0545680522918701,0.7699999809265137,-2.450000047683716,-0.699999988079071
1743888267.8591192,-0.03513599932193756,-0.054655998945236206,1.050663948059082,0.8399999737739563,-2.450000047683716,-0.8399999737739563
1743888267.8791192,-0.03611199930310249,-0.052216000854969025,1.0540800094604492,0.9100000262260437,-2.450000047683716,-0.7699999809265137
1743888267.8991191,-0.03513599932193756,-0.05563199892640114,1.0555440187454224,0.9100000262260437,-2.5199999809265137,-0.7699999809265137
1743888267.890195,-0.03611199930310249,-0.05514400079846382,1.0535919666290283,0.8399999737739563,-2.450000047683716,-0.8399999737739563
1743888267.9101949,-0.03660000115633011,-0.057096000760793686,1.0516400337219238,0.9800000190734863,-2.450000047683716,-0.8399999737739563
1743888267.9301949,-0.03513599932193756,-0.05514400079846382,1.052616000175476,0.8399999737739563,-2.450000047683716,-0.8399999737739563
1743888267.961911,-0.035624001175165176,-0.05514400079846382,1.0545680522918701,0.8399999737739563,-2.380000114440918,-0.8399999737739563
1743888267.981911,-0.034648001194000244,-0.05416800081729889,1.0550559759140015,0.9100000262260437,-2.5199999809265137,-0.7699999809265137
1743888268.001911,-0.03611199930310249,-0.05514400079846382,1.053104043006897,0.699999988079071,-2.450000047683716,-0.8399999737739563
1743888267.965875,-0.03757600113749504,-0.05416800081729889,1.0521279573440552,0.8399999737739563,-2.309999942779541,-0.7699999809265137
1743888267.985875,-0.03611199930310249,-0.056120000779628754,1.0560319423675537,0.7699999809265137,-2.380000114440918,-0.8399999737739563
1743888268.0058749,-0.03611199930310249,-0.05270399898290634,1.053104043006897,0.699999988079071,-2.380000114440918,-0.699999988079071
1743888267.966524,-0.03660000115633011,-0.053679998964071274,1.0521279573440552,0.8399999737739563,-2.450000047683716,-0.699999988079071
1743888267.9865239,-0.03806399926543236,-0.052216000854969025,1.0535919666290283,0.9100000262260437,-2.380000114440918,-0.7699999809265137
1743888268.0065238,-0.037087999284267426,-0.05416800081729889,1.053104043006897,0.9100000262260437,-2.380000114440918,-0.8399999737739563
1743888267.9941602,-0.03660000115633011,-0.05563199892640114,1.051151990890503,0.9100000262260437,-2.380000114440918,-0.8399999737739563
1743888268.0141602,-0.035624001175165176,-0.054655998945236206,1.0521279573440552,0.7699999809265137,-2.5199999809265137,-0.7699999809265137
1743888268.0341601,-0.03660000115633011,-0.05563199892640114,1.051151990890503,0.9100000262260437,-2.380000114440918,-0.7699999809265137
1743888267.995313,-0.035624001175165176,-0.05319200083613396,1.0545680522918701,0.7699999809265137,-2.5199999809265137,-0.7699999809265137
1743888268.015313,-0.03611199930310249,-0.054655998945236206,1.0545680522918701,0.9100000262260437,-2.450000047683716,-0.699999988079071
1743888268.035313,-0.03660000115633011,-0.05514400079846382,1.053104043006897,0.8399999737739563,-2.450000047683716,-0.7699999809265137
1743888268.022835,-0.035624001175165176,-0.05514400079846382,1.0540800094604492,0.8399999737739563,-2.380000114440918,-0.7699999809265137
1743888268.042835,-0.0331839993596077,-0.05563199892640114,1.0550559759140015,0.9100000262260437,-2.450000047683716,-0.8399999737739563
1743888268.062835,-0.035624001175165176,-0.057583998888731,1.053104043006897,0.8399999737739563,-2.5199999809265137,-0.699999988079071
1743888268.050662,-0.034648001194000244,-0.05514400079846382,1.0545680522918701,0.7699999809265137,-2.380000114440918,-0.7699999809265137
1743888268.070662,-0.032207999378442764,-0.05514400079846382,1.050663948059082,0.9100000262260437,-2.450000047683716,-0.699999988079071
1743888268.090662,-0.035624001175165176,-0.054655998945236206,1.0501760244369507,0.8399999737739563,-2.5199999809265137,-0.699999988079071
1743888268.0699232,-0.035624001175165176,-0.05319200083613396,1.051151990890503,0.7699999809265137,-2.450000047683716,-0.7699999809265137
1743888268.0899231,-0.03513599932193756,-0.054655998945236206,1.052616000175476,0.8399999737739563,-2.5899999141693115,-0.7699999809265137
1743888268.1099231,-0.03513599932193756,-0.053679998964071274,1.0535919666290283,0.9100000262260437,-2.380000114440918,-0.7699999809265137
1743888268.082505,-0.03855200111865997,-0.053679998964071274,1.053104043006897,0.7699999809265137,-2.380000114440918,-0.7699999809265137
1743888268.102505,-0.034648001194000244,-0.05416800081729889,1.053104043006897,0.9800000190734863,-2.380000114440918,-0.699999988079071
1743888268.122505,-0.03757600113749504,-0.05416800081729889,1.0516400337219238,0.8399999737739563,-2.380000114440918,-0.7699999809265137
1743888268.110866,-0.034648001194000244,-0.05270399898290634,1.0516400337219238,0.9100000262260437,-2.450000047683716,-0.8399999737739563
1743888268.130866,-0.03415999934077263,-0.05514400079846382,1.0535919666290283,0.8399999737739563,-2.450000047683716,-0.7699999809265137
1743888268.150866,-0.03513599932193756,-0.054655998945236206,1.053104043006897,0.8399999737739563,-2.450000047683716,-0.699999988079071
1743888268.1426618,-0.035624001175165176,-0.05416800081729889,1.0521279573440552,0.8399999737739563,-2.5199999809265137,-0.6299999952316284
1743888268.1626618,-0.03415999934077263,-0.05514400079846382,1.0535919666290283,0.7699999809265137,-2.5199999809265137,-0.7699999809265137
1743888268.1826618,-0.03611199930310249,-0.057096000760793686,1.053104043006897,0.9100000262260437,-2.450000047683716,-0.7699999809265137
1743888268.159135,-0.035624001175165176,-0.05514400079846382,1.0560319423675537,0.9100000262260437,-2.380000114440918,-0.7699999809265137
1743888268.179135,-0.03513599932193756,-0.05514400079846382,1.053104043006897,0.9100000262260437,-2.380000114440918,-0.7699999809265137
1743888268.199135,-0.03660000115633011,-0.05514400079846382,1.052616000175476,0.9100000262260437,-2.380000114440918,-0.7699999809265137
1743888268.1890619,-0.03757600113749504,-0.054655998945236206,1.052616000175476,0.9100000262260437,-2.450000047683716,-0.699999988079071
1743888268.2090619,-0.03757600113749504,-0.056120000779628754,1.0521279573440552,0.8399999737739563,-2.450000047683716,-0.6299999952316284
1743888268.2290618,-0.03757600113749504,-0.056120000779628754,1.0545680522918701,0.7699999809265137,-2.380000114440918,-0.9100000262260437
1743888268.231968,-0.035624001175165176,-0.05514400079846382,1.0540800094604492,0.8399999737739563,-2.380000114440918,-0.7699999809265137
1743888268.251968,-0.03367200121283531,-0.05319200083613396,1.0540800094604492,0.8399999737739563,-2.450000047683716,-0.7699999809265137
1743888268.271968,-0.03513599932193756,-0.053679998964071274,1.0521279573440552,0.699999988079071,-2.450000047683716,-0.7699999809265137
1743888268.235187,-0.03660000115633011,-0.05270399898290634,1.0550559759140015,0.8399999737739563,-2.5199999809265137,-0.7699999809265137
1743888268.255187,-0.03513599932193756,-0.053679998964071274,1.053104043006897,0.9100000262260437,-2.380000114440918,-0.7699999809265137
1743888268.275187,-0.03660000115633011,-0.053679998964071274,1.0521279573440552,0.7699999809265137,-2.380000114440918,-0.7699999809265137
1743888268.294983,-0.03611199930310249,-0.054655998945236206,1.0535919666290283,0.9100000262260437,-2.450000047683716,-0.7699999809265137
1743888268.314983,-0.034648001194000244,-0.05514400079846382,1.0535919666290283,0.8399999737739563,-2.5899999141693115,-0.699999988079071
1743888268.3349829,-0.03513599932193756,-0.05563199892640114,1.0535919666290283,0.7699999809265137,-2.380000114440918,-0.8399999737739563
1743888268.296252,-0.035624001175165176,-0.056120000779628754,1.053104043006897,0.8399999737739563,-2.5199999809265137,-0.7699999809265137
1743888268.316252,-0.03415999934077263,-0.056120000779628754,1.052616000175476,0.9100000262260437,-2.450000047683716,-0.7699999809265137
1743888268.336252,-0.035624001175165176,-0.05514400079846382,1.0545680522918701,0.7699999809265137,-2.450000047683716,-0.7699999809265137
1743888268.2970052,-0.03611199930310249,-0.057096000760793686,1.0540800094604492,0.8399999737739563,-2.450000047683716,-0.8399999737739563
1743888268.3170052,-0.03513599932193756,-0.05416800081729889,1.053104043006897,0.8399999737739563,-2.5199999809265137,-0.8399999737739563
1743888268.3370051,-0.03611199930310249,-0.054655998945236206,1.0550559759140015,0.9100000262260437,-2.380000114440918,-0.9100000262260437
1743888268.309181,-0.03611199930310249,-0.05124000087380409,1.0540800094604492,0.8399999737739563,-2.380000114440918,-0.7699999809265137
1743888268.329181,-0.03660000115633011,-0.053679998964071274,1.0521279573440552,0.9100000262260437,-2.450000047683716,-0.8399999737739563
1743888268.349181,-0.03611199930310249,-0.05319200083613396,1.0545680522918701,0.9100000262260437,-2.5199999809265137,-0.8399999737739563
1743888268.337259,-0.03513599932193756,-0.053679998964071274,1.052616000175476,0.9100000262260437,-2.450000047683716,-0.7699999809265137
1743888268.357259,-0.03513599932193756,-0.05660799890756607,1.052616000175476,1.0499999523162842,-2.380000114440918,-0.7699999809265137
1743888268.377259,-0.035624001175165176,-0.05660799890756607,1.0565199851989746,0.8399999737739563,-2.450000047683716,-0.7699999809265137
1743888268.367448,-0.03513599932193756,-0.056120000779628754,1.0555440187454224,0.9100000262260437,-2.380000114440918,-0.699999988079071
1743888268.387448,-0.035624001175165176,-0.05416800081729889,1.052616000175476,0.7699999809265137,-2.450000047683716,-0.8399999737739563
1743888268.407448,-0.035624001175165176,-0.053679998964071274,1.0545680522918701,0.6299999952316284,-2.380000114440918,-0.7699999809265137
1743888268.3685992,-0.03415999934077263,-0.05270399898290634,1.0540800094604492,0.8399999737739563,-2.380000114440918,-0.8399999737739563
1743888268.3885992,-0.03513599932193756,-0.05270399898290634,1.0535919666290283,0.699999988079071,-2.450000047683716,-0.9100000262260437
1743888268.4085991,-0.03757600113749504,-0.05270399898290634,1.0535919666290283,0.8399999737739563,-2.5199999809265137,-0.699999988079071
1743888268.399206,-0.03611199930310249,-0.054655998945236206,1.051151990890503,0.9800000190734863,-2.450000047683716,-0.699999988079071
1743888268.419206,-0.03611199930310249,-0.05563199892640114,1.053104043006897,0.8399999737739563,-2.450000047683716,-0.7699999809265137
1743888268.439206,-0.03513599932193756,-0.05416800081729889,1.0555440187454224,0.699999988079071,-2.450000047683716,-0.8399999737739563
1743888268.4289439,-0.034648001194000244,-0.05514400079846382,1.053104043006897,0.7699999809265137,-2.380000114440918,-0.8399999737739563
1743888268.4489439,-0.035624001175165176,-0.053679998964071274,1.0540800094604492,0.8399999737739563,-2.5199999809265137,-0.7699999809265137
1743888268.4689438,-0.034648001194000244,-0.05563199892640114,1.0521279573440552,0.9100000262260437,-2.450000047683716,-0.8399999737739563
1743888268.44273,-0.034648001194000244,-0.053679998964071274,1.052616000175476,0.8399999737739563,-2.450000047683716,-0.7699999809265137
1743888268.46273,-0.03415999934077263,-0.05660799890756607,1.0545680522918701,0.9100000262260437,-2.450000047683716,-0.7699999809265137
1743888268.48273,-0.03415999934077263,-0.052216000854969025,1.053104043006897,0.9100000262260437,-2.450000047683716,-0.7699999809265137
1743888268.488085,-0.035624001175165176,-0.05416800081729889,1.052616000175476,0.9100000262260437,-2.309999942779541,-0.7699999809265137
1743888268.508085,-0.03513599932193756,-0.05416800081729889,1.0550559759140015,0.8399999737739563,-2.450000047683716,-0.8399999737739563
1743888268.528085,-0.03513599932193756,-0.053679998964071274,1.0545680522918701,0.8399999737739563,-2.450000047683716,-0.8399999737739563
1743888268.504884,-0.03513599932193756,-0.05319200083613396,1.0516400337219238,0.8399999737739563,-2.309999942779541,-0.699999988079071
1743888268.524884,-0.03611199930310249,-0.05319200083613396,1.051151990890503,0.9100000262260437,-2.5199999809265137,-0.7699999809265137
1743888268.544884,-0.035624001175165176,-0.05319200083613396,1.053104043006897,0.8399999737739563,-2.380000114440918,-0.699999988079071
1743888268.5160441,-0.037087999284267426,-0.05416800081729889,1.0535919666290283,0.8399999737739563,-2.450000047683716,-0.8399999737739563
1743888268.5360441,-0.03806399926543236,-0.05172799900174141,1.0516400337219238,0.7699999809265137,-2.450000047683716,-0.9100000262260437
1743888268.556044,-0.03757600113749504,-0.05416800081729889,1.0535919666290283,0.9100000262260437,-2.450000047683716,-0.8399999737739563
1743888268.5463822,-0.03660000115633011,-0.05563199892640114,1.0540800094604492,0.9100000262260437,-2.450000047683716,-0.8399999737739563
1743888268.5663822,-0.035624001175165176,-0.056120000779628754,1.0550559759140015,0.8399999737739563,-2.5899999141693115,-0.9100000262260437
1743888268.5863822,-0.03757600113749504,-0.056120000779628754,1.053104043006897,0.9800000190734863,-2.5899999141693115,-0.7699999809265137
1743888268.594222,-0.03611199930310249,-0.056120000779628754,1.0540800094604492,0.8399999737739563,-2.450000047683716,-0.8399999737739563
1743888268.614222,-0.03611199930310249,-0.056120000779628754,1.0535919666290283,0.8399999737739563,-2.450000047683716,-0.699999988079071
1743888268.634222,-0.03513599932193756,-0.054655998945236206,1.0540800094604492,0.9100000262260437,-2.450000047683716,-0.7699999809265137
1743888268.594804,-0.03415999934077263,-0.053679998964071274,1.053104043006897,0.9800000190734863,-2.309999942779541,-0.7699999809265137
1743888268.614804,-0.034648001194000244,-0.05416800081729889,1.0545680522918701,0.9800000190734863,-2.450000047683716,-0.699999988079071
1743888268.634804,-0.03660000115633011,-0.05416800081729889,1.053104043006897,0.9100000262260437,-2.5199999809265137,-0.7699999809265137
1743888268.607452,-0.034648001194000244,-0.054655998945236206,1.0540800094604492,0.8399999737739563,-2.450000047683716,-0.8399999737739563
1743888268.627452,-0.03611199930310249,-0.053679998964071274,1.052616000175476,0.7699999809265137,-2.380000114440918,-0.8399999737739563
1743888268.6474519,-0.03415999934077263,-0.05416800081729889,1.0535919666290283,0.9800000190734863,-2.380000114440918,-0.7699999809265137
1743888268.6376882,-0.03757600113749504,-0.05319200083613396,1.0540800094604492,0.9100000262260437,-2.380000114440918,-0.6299999952316284
1743888268.6576881,-0.034648001194000244,-0.053679998964071274,1.0555440187454224,0.8399999737739563,-2.380000114440918,-0.7699999809265137
1743888268.6776881,-0.03415999934077263,-0.05514400079846382,1.0521279573440552,0.9800000190734863,-2.450000047683716,-0.7699999809265137
1743888268.651755,-0.03611199930310249,-0.054655998945236206,1.053104043006897,0.8399999737739563,-2.450000047683716,-0.6299999952316284
1743888268.671755,-0.034648001194000244,-0.05416800081729889,1.0521279573440552,0.9100000262260437,-2.450000047683716,-0.699999988079071
1743888268.691755,-0.03367200121283531,-0.054655998945236206,1.0521279573440552,0.7699999809265137,-2.450000047683716,-0.7699999809265137
1743888268.684164,-0.035624001175165176,-0.054655998945236206,1.0550559759140015,0.8399999737739563,-2.380000114440918,-0.7699999809265137
1743888268.704164,-0.035624001175165176,-0.05563199892640114,1.0555440187454224,0.699999988079071,-2.450000047683716,-0.7699999809265137
1743888268.724164,-0.03513599932193756,-0.05514400079846382,1.0540800094604492,0.8399999737739563,-2.450000047683716,-0.8399999737739563
1743888268.712874,-0.03611199930310249,-0.05660799890756607,1.0540800094604492,0.7699999809265137,-2.380000114440918,-0.8399999737739563
1743888268.732874,-0.03611199930310249,-0.05563199892640114,1.0521279573440552,0.9800000190734863,-2.450000047683716,-0.699999988079071
1743888268.752874,-0.03415999934077263,-0.057583998888731,1.0535919666290283,0.7699999809265137,-2.450000047683716,-0.7699999809265137
1743888268.725812,-0.035624001175165176,-0.05563199892640114,1.0501760244369507,0.8399999737739563,-2.309999942779541,-0.8399999737739563
1743888268.745812,-0.03660000115633011,-0.053679998964071274,1.0550559759140015,0.7699999809265137,-2.5199999809265137,-0.8399999737739563
1743888268.765812,-0.03513599932193756,-0.05416800081729889,1.0545680522918701,0.9100000262260437,-2.5199999809265137,-0.699999988079071
1743888268.7443788,-0.03513599932193756,-0.053679998964071274,1.0555440187454224,0.8399999737739563,-2.450000047683716,-0.6299999952316284
1743888268.7643788,-0.035624001175165176,-0.05416800081729889,1.052616000175476,0.8399999737739563,-2.380000114440918,-0.7699999809265137
1743888268.7843788,-0.03611199930310249,-0.053679998964071274,1.053104043006897,0.8399999737739563,-2.450000047683716,-0.699999988079071
1743888268.7738361,-0.035624001175165176,-0.054655998945236206,1.0540800094604492,0.9100000262260437,-2.450000047683716,-0.8399999737739563
1743888268.793836,-0.037087999284267426,-0.052216000854969025,1.0521279573440552,0.8399999737739563,-2.380000114440918,-0.7699999809265137
1743888268.813836,-0.034648001194000244,-0.054655998945236206,1.0516400337219238,0.7699999809265137,-2.450000047683716,-0.7699999809265137
1743888268.788804,-0.03513599932193756,-0.05563199892640114,1.0545680522918701,0.8399999737739563,-2.380000114440918,-0.8399999737739563
1743888268.808804,-0.03415999934077263,-0.054655998945236206,1.053104043006897,0.9100000262260437,-2.450000047683716,-0.7699999809265137
1743888268.828804,-0.03513599932193756,-0.05563199892640114,1.0545680522918701,0.9100000262260437,-2.5199999809265137,-0.7699999809265137
1743888268.815409,-0.037087999284267426,-0.05514400079846382,1.0555440187454224,0.9100000262260437,-2.380000114440918,-0.6299999952316284
1743888268.835409,-0.037087999284267426,-0.05416800081729889,1.0545680522918701,0.7699999809265137,-2.450000047683716,-0.699999988079071
1743888268.855409,-0.034648001194000244,-0.05514400079846382,1.053104043006897,0.9100000262260437,-2.380000114440918,-0.8399999737739563
1743888268.845374,-0.03660000115633011,-0.05660799890756607,1.0540800094604492,0.9100000262260437,-2.380000114440918,-0.7699999809265137
1743888268.865374,-0.037087999284267426,-0.056120000779628754,1.0521279573440552,0.9100000262260437,-2.5199999809265137,-0.7699999809265137
1743888268.885374,-0.03660000115633011,-0.054655998945236206,1.0516400337219238,0.7699999809265137,-2.380000114440918,-0.7699999809265137
1743888268.8925052,-0.035624001175165176,-0.054655998945236206,1.050663948059082,0.9100000262260437,-2.380000114440918,-0.8399999737739563
1743888268.9125051,-0.035624001175165176,-0.053679998964071274,1.0516400337219238,0.9100000262260437,-2.450000047683716,-0.699999988079071
1743888268.9325051,-0.037087999284267426,-0.05319200083613396,1.0521279573440552,0.7699999809265137,-2.380000114440918,-0.9800000190734863
1743888268.905558,-0.03367200121283531,-0.053679998964071274,1.0535919666290283,0.8399999737739563,-2.5199999809265137,-0.7699999809265137
1743888268.925558,-0.03367200121283531,-0.05124000087380409,1.053104043006897,0.9100000262260437,-2.380000114440918,-0.7699999809265137
1743888268.945558,-0.03513599932193756,-0.052216000854969025,1.0535919666290283,0.9100000262260437,-2.5199999809265137,-0.8399999737739563
1743888268.907211,-0.03513599932193756,-0.05416800081729889,1.052616000175476,0.8399999737739563,-2.450000047683716,-0.699999988079071
1743888268.927211,-0.034648001194000244,-0.054655998945236206,1.052616000175476,0.7699999809265137,-2.5199999809265137,-0.699999988079071
1743888268.947211,-0.03611199930310249,-0.053679998964071274,1.0550559759140015,0.9800000190734863,-2.450000047683716,-0.9100000262260437
1743888268.920206,-0.03367200121283531,-0.05416800081729889,1.0521279573440552,0.7699999809265137,-2.450000047683716,-0.8399999737739563
1743888268.940206,-0.03513599932193756,-0.053679998964071274,1.052616000175476,0.8399999737739563,-2.450000047683716,-0.8399999737739563
1743888268.960206,-0.03660000115633011,-0.05514400079846382,1.052616000175476,0.9100000262260437,-2.380000114440918,-0.9100000262260437
1743888268.9521601,-0.03611199930310249,-0.054655998945236206,1.0516400337219238,0.8399999737739563,-2.450000047683716,-0.8399999737739563
1743888268.97216,-0.03660000115633011,-0.05416800081729889,1.0540800094604492,0.9100000262260437,-2.380000114440918,-0.7699999809265137
1743888268.99216,-0.035624001175165176,-0.05416800081729889,1.0521279573440552,0.8399999737739563,-2.380000114440918,-0.8399999737739563
1743888268.982239,-0.03611199930310249,-0.054655998945236206,1.0560319423675537,0.8399999737739563,-2.450000047683716,-0.8399999737739563
1743888269.002239,-0.03415999934077263,-0.057583998888731,1.0516400337219238,0.8399999737739563,-2.240000009536743,-0.7699999809265137
1743888269.022239,-0.03611199930310249,-0.05270399898290634,1.053104043006897,0.9100000262260437,-2.380000114440918,-0.8399999737739563
1743888268.996309,-0.03660000115633011,-0.05563199892640114,1.0540800094604492,0.9100000262260437,-2.450000047683716,-0.699999988079071
1743888269.016309,-0.03513599932193756,-0.05514400079846382,1.0535919666290283,0.9800000190734863,-2.380000114440918,-0.7699999809265137
1743888269.036309,-0.03415999934077263,-0.05660799890756607,1.052616000175476,0.8399999737739563,-2.450000047683716,-0.8399999737739563
1743888269.0259042,-0.037087999284267426,-0.05270399898290634,1.053104043006897,0.9100000262260437,-2.450000047683716,-0.8399999737739563
1743888269.0459042,-0.03660000115633011,-0.053679998964071274,1.0545680522918701,0.9800000190734863,-2.450000047683716,-0.699999988079071
1743888269.0659041,-0.035624001175165176,-0.05514400079846382,1.0550559759140015,0.9100000262260437,-2.450000047683716,-0.7699999809265137
1743888269.042551,-0.035624001175165176,-0.05270399898290634,1.0535919666290283,0.8399999737739563,-2.380000114440918,-0.8399999737739563
1743888269.062551,-0.03660000115633011,-0.05416800081729889,1.052616000175476,0.8399999737739563,-2.450000047683716,-0.699999988079071
1743888269.082551,-0.037087999284267426,-0.05563199892640114,1.0540800094604492,0.7699999809265137,-2.450000047683716,-0.7699999809265137
1743888269.074579,-0.035624001175165176,-0.054655998945236206,1.050663948059082,0.9800000190734863,-2.450000047683716,-0.8399999737739563
1743888269.094579,-0.037087999284267426,-0.05660799890756607,1.0570080280303955,0.699999988079071,-2.380000114440918,-0.7699999809265137
1743888269.114579,-0.03660000115633011,-0.057096000760793686,1.0540800094604492,0.7699999809265137,-2.380000114440918,-0.8399999737739563
1743888269.087541,-0.035624001175165176,-0.054655998945236206,1.052616000175476,0.8399999737739563,-2.450000047683716,-0.699999988079071
1743888269.107541,-0.03415999934077263,-0.05563199892640114,1.0535919666290283,0.8399999737739563,-2.450000047683716,-0.8399999737739563
1743888269.127541,-0.034648001194000244,-0.05807200074195862,1.0535919666290283,0.7699999809265137,-2.380000114440918,-0.699999988079071
1743888269.117094,-0.03611199930310249,-0.05319200083613396,1.0550559759140015,0.8399999737739563,-2.450000047683716,-0.8399999737739563
1743888269.137094,-0.035624001175165176,-0.05563199892640114,1.0535919666290283,0.8399999737739563,-2.380000114440918,-0.7699999809265137
1743888269.157094,-0.03660000115633011,-0.053679998964071274,1.0516400337219238,0.8399999737739563,-2.5199999809265137,-0.699999988079071
1743888269.134483,-0.03513599932193756,-0.054655998945236206,1.052616000175476,0.8399999737739563,-2.5199999809265137,-0.7699999809265137
1743888269.154483,-0.03415999934077263,-0.05319200083613396,1.053104043006897,0.9100000262260437,-2.380000114440918,-0.9100000262260437
1743888269.174483,-0.035624001175165176,-0.05514400079846382,1.051151990890503,0.8399999737739563,-2.5199999809265137,-0.9100000262260437
1743888269.2209191,-0.035624001175165176,-0.053679998964071274,1.0521279573440552,0.7699999809265137,-2.380000114440918,-0.8399999737739563
1743888269.240919,-0.03660000115633011,-0.053679998964071274,1.0516400337219238,0.9800000190734863,-2.5199999809265137,-0.699999988079071
1743888269.260919,-0.03757600113749504,-0.05172799900174141,1.053104043006897,0.8399999737739563,-2.450000047683716,-0.699999988079071
1743888269.2240589,-0.037087999284267426,-0.05563199892640114,1.0521279573440552,0.8399999737739563,-2.380000114440918,-0.7699999809265137
1743888269.2440588,-0.03611199930310249,-0.05514400079846382,1.051151990890503,0.8399999737739563,-2.450000047683716,-0.699999988079071
1743888269.2640588,-0.034648001194000244,-0.053679998964071274,1.0550559759140015,0.9100000262260437,-2.380000114440918,-0.7699999809265137
1743888269.224425,-0.03660000115633011,-0.054655998945236206,1.052616000175476,0.9100000262260437,-2.450000047683716,-0.8399999737739563
1743888269.244425,-0.03611199930310249,-0.054655998945236206,1.0535919666290283,0.7699999809265137,-2.450000047683716,-0.7699999809265137
1743888269.264425,-0.037087999284267426,-0.057096000760793686,1.0540800094604492,0.9100000262260437,-2.450000047683716,-0.8399999737739563
1743888269.226059,-0.035624001175165176,-0.053679998964071274,1.0550559759140015,0.9100000262260437,-2.450000047683716,-0.7699999809265137
1743888269.246059,-0.035624001175165176,-0.05514400079846382,1.0545680522918701,0.9100000262260437,-2.380000114440918,-0.8399999737739563
1743888269.266059,-0.03611199930310249,-0.05319200083613396,1.052616000175476,0.9100000262260437,-2.450000047683716,-0.7699999809265137
1743888269.254358,-0.03660000115633011,-0.05416800081729889,1.0535919666290283,0.9100000262260437,-2.5199999809265137,-0.7699999809265137
1743888269.274358,-0.034648001194000244,-0.05514400079846382,1.0550559759140015,0.9100000262260437,-2.380000114440918,-0.699999988079071
1743888269.294358,-0.034648001194000244,-0.054655998945236206,1.0535919666290283,0.8399999737739563,-2.5199999809265137,-0.699999988079071
1743888269.2671611,-0.035624001175165176,-0.05319200083613396,1.0540800094604492,0.9100000262260437,-2.380000114440918,-0.7699999809265137
