Timestamp,AccelX,AccelY,AccelZ,GyroX,GyroY,GyroZ
1743435534.092909,-0.113,-0.028,1.175,-133.0,9.73,4.48
1743435534.112909,-0.099,-0.057,1.161,-143.85,7.35,7.56
1743435534.132909,-0.08,-0.107,1.105,-150.99,6.3,9.73
1743435534.152909,-0.083,-0.153,1.039,-153.93,19.6,6.3
1743435534.172909,-0.077,-0.198,0.919,-164.01,37.38,2.03
1743435534.192909,-0.082,-0.212,0.894,-156.59,44.24,1.33
1743435534.212909,-0.089,-0.214,0.91,-160.02,61.18,7.35
1743435534.232909,-0.066,-0.191,0.972,-165.83,80.08,15.82
1743435534.252909,-0.093,-0.18,1.128,-181.65,70.14,38.01
1743435534.272909,-0.114,-0.37,1.163,-183.82,44.94,47.32
1743435534.292909,-0.162,-0.447,1.036,-171.08,19.81,37.73
1743435534.312909,-0.126,-0.489,0.881,-179.9,18.27,22.75
1743435534.3329089,-0.041,-0.506,0.851,-179.06,34.58,17.85
1743435534.3529088,-0.072,-0.628,0.851,-174.79,44.59,-3.85
1743435534.3729088,-0.103,-0.607,0.895,-167.86,29.4,-7.21
1743435534.3929088,-0.124,-0.588,0.921,-161.21,14.07,-9.87
1743435534.4129088,-0.243,-0.626,0.81,-170.03,7.49,-20.09
1743435534.4329088,-0.34,-0.648,0.713,-181.37,16.59,-38.71
1743435534.4529088,-0.374,-0.667,0.658,-189.0,34.3,-70.0
1743435534.4729087,-0.345,-0.674,0.651,-181.72,49.56,-77.91
1743435534.4929087,-0.286,-0.667,0.684,-165.55,63.98,-79.8
1743435534.5129087,-0.187,-0.66,0.722,-146.79,70.07,-70.63
1743435534.532909,-0.132,-0.662,0.74,-133.56,67.27,-62.23
1743435534.552909,-0.099,-0.667,0.743,-120.54,52.85,-55.86
1743435534.5729086,-0.086,-0.654,0.566,-137.34,59.64,-58.31
1743435534.5929086,-0.031,-0.691,0.456,-129.78,71.26,-51.38
1743435534.6129086,-0.005,-0.69,0.479,-121.52,79.1,-37.03
1743435534.6329086,-0.042,-0.673,0.543,-113.96,76.51,-19.67
1743435534.6529086,-0.165,-0.687,0.6,-110.95,57.05,-8.19
1743435534.6729083,-0.251,-0.734,0.597,-112.42,35.56,-2.1
1743435534.6929083,-0.278,-0.794,0.549,-115.85,21.77,-9.73
1743435534.7129085,-0.242,-0.874,0.452,-117.04,21.42,-23.1
1743435534.7329085,-0.086,-0.96,0.267,-110.95,40.18,-35.0
1743435534.7529085,0.166,-0.646,0.813,-241.01,59.22,-18.76
1743435534.7729084,0.053,-0.76,0.58,-94.92,35.0,5.18
1743435534.7929084,-0.092,-0.805,0.54,-117.74,-7.21,15.96
1743435534.8129084,-0.196,-0.988,0.621,-96.88,-45.5,5.88
1743435534.8329084,-0.252,-0.945,0.591,-106.12,-89.25,-8.61
1743435534.8529084,-0.285,-0.904,0.489,-115.57,-118.65,-11.41
1743435534.8729084,-0.303,-0.89,0.441,-136.57,-128.1,-10.64
1743435534.8929083,-0.291,-0.924,0.417,-135.59,-138.25,-9.94
1743435534.9129083,-0.273,-0.911,0.424,-138.67,-156.38,-6.09
1743435534.9329083,-0.263,-0.914,0.406,-141.05,-164.85,-1.96
1743435534.9529085,-0.19,-0.919,0.38,-149.31,-185.57,-0.42
1743435534.9729085,-0.145,-0.937,0.348,-151.62,-192.22,1.05
1743435534.9929082,-0.141,-0.892,0.375,-152.11,-199.64,6.58
1743435535.0129082,-0.159,-0.86,0.348,-158.69,-210.63,17.29
1743435535.0329082,-0.162,-0.957,0.356,-160.16,-235.62,17.29
1743435535.0529082,-0.257,-1.176,0.232,-176.82,-240.31,-8.12
1743435535.0729082,-0.279,-1.164,0.092,-183.33,-232.05,-43.19
1743435535.092908,-0.224,-1.081,0.015,-174.72,-213.15,-50.19
1743435535.112908,-0.179,-0.996,-0.048,-159.11,-189.91,-48.72
1743435535.132908,-0.138,-0.959,-0.122,-135.03,-162.96,-46.34
1743435535.152908,-0.136,-0.959,-0.155,-129.78,-155.12,-47.18
1743435535.172908,-0.131,-0.969,-0.188,-120.12,-132.37,-48.02
1743435535.192908,-0.121,-1.005,-0.207,-112.07,-119.0,-51.03
1743435535.212908,-0.133,-1.029,-0.202,-97.3,-112.35,-55.3
1743435535.232908,-0.142,-0.978,-0.176,-91.49,-100.8,-58.87
1743435535.252908,-0.148,-0.913,-0.141,-85.12,-96.46,-50.96
1743435535.272908,-0.146,-0.866,-0.101,-77.56,-98.84,-40.39
1743435535.292908,-0.129,-0.83,-0.068,-68.18,-105.98,-28.56
1743435535.312908,-0.141,-0.833,-0.064,-65.17,-115.29,-18.34
1743435535.332908,-0.128,-0.843,-0.077,-63.91,-127.19,-17.36
1743435535.352908,-0.113,-0.936,-0.219,-33.74,-120.68,-16.17
1743435535.372908,-0.058,-0.924,-0.219,-53.34,-113.82,-18.41
1743435535.392908,-0.042,-0.92,-0.257,-38.64,-100.45,-22.96
1743435535.4129078,-0.008,-0.921,-0.267,-45.22,-75.32,-24.15
1743435535.4329078,0.001,-0.903,-0.245,-45.22,-62.16,-22.96
1743435535.4529078,-0.011,-0.889,-0.219,-43.68,-54.81,-20.09
1743435535.4729078,-0.021,-0.91,-0.171,-38.01,-49.07,-14.28
1743435535.4929078,-0.018,-0.957,-0.133,-33.32,-45.92,-10.64
1743435535.5129075,-0.039,-1.002,-0.083,-26.88,-44.73,-10.71
1743435535.5329075,-0.038,-1.109,-0.051,-25.76,-43.47,-15.96
1743435535.5529077,-0.061,-1.148,-0.012,-29.75,-44.24,-27.02
1743435535.5729077,-0.088,-1.212,0.013,-37.03,-47.81,-37.73
1743435535.5929077,-0.049,-1.228,0.021,-47.25,-54.88,-59.64
1743435535.6129076,0.006,-1.1,0.02,-57.54,-83.72,-76.37
1743435535.6329076,0.062,-0.982,-0.023,-69.86,-108.64,-75.88
1743435535.6529076,0.078,-0.972,-0.163,-95.13,-121.17,-72.66
1743435535.6729076,0.095,-0.974,-0.271,-99.96,-131.04,-76.16
1743435535.6929076,0.072,-0.932,-0.368,-106.26,-133.7,-79.31
1743435535.7129076,0.071,-0.879,-0.419,-108.08,-130.41,-82.46
1743435535.7329075,0.042,-0.857,-0.468,-114.59,-120.89,-86.17
1743435535.7529075,0.074,-0.826,-0.492,-126.28,-99.05,-88.62
1743435535.7729075,0.096,-0.731,-0.543,-132.79,-85.82,-84.77
1743435535.7929077,0.079,-0.668,-0.554,-118.86,-80.22,-66.08
1743435535.8129077,0.119,-0.593,-0.526,-102.69,-82.74,-40.32
1743435535.8329074,0.173,-0.599,-0.495,-73.99,-90.3,-18.06
1743435535.8529074,0.192,-0.692,-0.507,-56.28,-99.4,10.85
1743435535.8729074,0.117,-0.712,-0.516,-45.71,-102.34,23.17
1743435535.8929074,0.068,-0.742,-0.575,-37.87,-99.96,29.75
1743435535.9129074,0.043,-0.781,-0.61,-29.12,-88.48,28.35
1743435535.932907,0.022,-0.822,-0.595,-19.67,-73.85,24.08
1743435535.952907,0.04,-0.814,-0.541,-15.75,-67.9,24.5
1743435535.9729073,0.053,-0.807,-0.515,-16.94,-66.15,27.09
1743435535.9929073,0.05,-0.804,-0.519,-18.69,-66.92,32.97
1743435536.0129073,0.026,-0.797,-0.539,-16.38,-63.91,36.89
1743435536.0329072,0.007,-0.798,-0.561,-12.81,-60.55,41.51
1743435536.0529072,-0.016,-0.821,-0.575,-11.48,-56.21,42.77
1743435536.0729072,-0.032,-0.89,-0.608,-10.36,-39.48,39.76
1743435536.0929072,-0.066,-0.94,-0.628,-9.38,-27.02,31.57
1743435536.1129072,-0.052,-0.948,-0.604,-8.82,-13.09,21.35
1743435536.1329072,-0.047,-0.935,-0.574,-9.17,-5.95,15.26
1743435536.1529071,-0.046,-0.907,-0.544,-9.94,-5.11,12.88
1743435536.172907,-0.039,-0.859,-0.53,-11.48,-5.04,14.07
1743435536.192907,-0.042,-0.853,-0.535,-11.9,-4.41,17.78
1743435536.212907,-0.053,-0.864,-0.539,-11.69,-3.78,18.76
1743435536.232907,-0.08,-0.908,-0.559,-11.97,3.36,14.98
1743435536.252907,-0.08,-0.916,-0.552,-12.39,8.05,10.43
1743435536.272907,-0.081,-0.901,-0.515,-11.55,8.54,6.86
1743435536.292907,-0.081,-0.888,-0.505,-12.18,7.42,5.95
1743435536.312907,-0.08,-0.874,-0.503,-14.91,5.6,4.27
1743435536.332907,-0.104,-0.894,-0.512,-22.68,5.32,-0.35
1743435536.352907,-0.101,-0.881,-0.508,-24.71,4.55,-3.43
1743435536.372907,-0.096,-0.853,-0.505,-24.36,0.49,-3.92
1743435536.392907,-0.089,-0.822,-0.509,-24.15,-2.66,-2.8
1743435536.412907,-0.087,-0.814,-0.522,-25.62,-4.27,-1.68
1743435536.4329069,-0.074,-0.807,-0.529,-25.41,-6.16,1.96
1743435536.4529068,-0.064,-0.813,-0.537,-24.5,-9.17,4.83
1743435536.4729068,-0.062,-0.828,-0.551,-24.92,-11.41,3.29
1743435536.4929068,-0.087,-0.816,-0.573,-26.74,-11.55,-4.62
1743435536.5129068,-0.091,-0.802,-0.581,-28.35,-10.29,-10.22
1743435536.5329068,-0.081,-0.777,-0.582,-29.75,-10.57,-12.11
1743435536.5529068,-0.065,-0.753,-0.576,-32.62,-12.88,-10.43
1743435536.5729067,-0.052,-0.731,-0.579,-22.19,-18.55,-1.68
1743435536.5929067,-0.049,-0.743,-0.586,-16.38,-21.63,6.93
1743435536.6129067,-0.045,-0.76,-0.608,-10.08,-23.1,16.1
1743435536.632907,-0.053,-0.782,-0.623,-7.42,-21.98,19.6
1743435536.652907,-0.115,-0.809,-0.601,-8.75,-20.93,19.74
1743435536.6729066,-0.122,-0.816,-0.61,-6.65,-21.63,18.62
1743435536.6929066,-0.127,-0.824,-0.603,-0.63,-23.38,17.36
1743435536.7129066,-0.125,-0.836,-0.592,0.98,-27.93,16.45
1743435536.7329066,-0.127,-0.858,-0.613,-4.69,-28.21,13.3
1743435536.7529066,-0.137,-0.884,-0.639,-10.36,-25.41,7.77
1743435536.7729063,-0.135,-0.888,-0.643,-12.46,-22.33,-0.63
1743435536.7929063,-0.13,-0.874,-0.632,-15.47,-20.93,-6.65
1743435536.8129065,-0.131,-0.844,-0.594,-17.08,-22.33,-11.13
1743435536.8329065,-0.13,-0.818,-0.581,-17.57,-27.09,-17.57
1743435536.8529065,-0.122,-0.758,-0.558,-18.06,-40.46,-15.61
1743435536.8729064,-0.12,-0.733,-0.582,-11.2,-42.56,-7.21
1743435536.8929064,-0.121,-0.732,-0.637,-5.04,-40.18,1.54
1743435536.9129064,-0.154,-0.761,-0.641,-0.91,-34.86,7.49
1743435536.9329064,-0.182,-0.793,-0.634,-1.89,-27.79,8.26
1743435536.9529064,-0.189,-0.811,-0.624,-4.41,-22.33,4.48
1743435536.9729064,-0.188,-0.797,-0.604,-3.99,-17.92,1.19
1743435536.9929063,-0.176,-0.782,-0.565,-3.22,-20.02,-1.89
1743435537.0129063,-0.156,-0.79,-0.578,-9.45,-22.05,-5.53
1743435537.0329063,-0.146,-0.78,-0.604,-15.26,-19.67,-8.47
1743435537.0529065,-0.177,-0.767,-0.61,-14.42,-14.84,-9.24
1743435537.0729065,-0.171,-0.774,-0.615,-13.79,-12.04,-7.98
1743435537.0929062,-0.148,-0.767,-0.637,-12.74,-2.52,-1.26
1743435537.1129062,-0.134,-0.758,-0.658,-12.53,5.39,3.5
1743435537.1329062,-0.143,-0.745,-0.663,-9.73,11.13,7.63
1743435537.1529062,-0.154,-0.743,-0.652,-9.45,15.47,12.6
1743435537.1729062,-0.168,-0.748,-0.637,-6.93,17.99,12.74
1743435537.192906,-0.151,-0.746,-0.63,-0.77,16.66,14.91
1743435537.212906,-0.144,-0.762,-0.616,1.05,17.29,17.15
1743435537.232906,-0.155,-0.769,-0.624,0.21,20.23,17.29
1743435537.252906,-0.155,-0.774,-0.643,1.33,23.59,16.1
1743435537.272906,-0.155,-0.773,-0.639,4.48,29.12,14.35
1743435537.292906,-0.197,-0.782,-0.564,4.13,23.24,7.28
1743435537.312906,-0.172,-0.777,-0.576,1.54,11.69,3.36
1743435537.332906,-0.154,-0.778,-0.605,0.63,7.56,4.2
1743435537.352906,-0.139,-0.798,-0.639,2.59,7.7,7.84
1743435537.372906,-0.132,-0.798,-0.657,5.74,12.53,9.87
1743435537.392906,-0.141,-0.788,-0.642,10.57,13.86,9.52
1743435537.412906,-0.134,-0.772,-0.595,15.54,6.02,5.95
1743435537.432906,-0.129,-0.756,-0.529,19.81,-15.68,3.85
1743435537.452906,-0.145,-0.749,-0.553,24.22,-27.65,2.38
1743435537.472906,-0.137,-0.737,-0.586,21.91,-34.09,2.24
1743435537.492906,-0.133,-0.717,-0.608,25.2,-35.21,7.91
1743435537.5129058,-0.137,-0.709,-0.613,34.86,-29.19,22.75
1743435537.5329058,-0.133,-0.734,-0.654,39.83,-19.46,41.93
1743435537.5529058,-0.177,-0.765,-0.672,49.42,-11.06,53.34
1743435537.5729058,-0.22,-0.841,-0.681,45.99,5.81,46.41
1743435537.5929058,-0.249,-0.917,-0.705,23.94,24.78,26.53
1743435537.6129055,-0.231,-0.93,-0.664,7.56,57.89,3.29
1743435537.6329055,-0.194,-0.881,-0.633,-4.2,70.49,-3.71
1743435537.6529057,-0.185,-0.829,-0.674,-11.62,88.06,4.76
1743435537.6729057,-0.17,-0.802,-0.7,-3.15,108.64,17.5
1743435537.6929057,-0.153,-0.784,-0.687,5.18,116.55,26.11
1743435537.7129056,-0.133,-0.785,-0.69,10.57,129.36,40.53
1743435537.7329056,-0.115,-0.806,-0.703,25.2,142.24,50.89
1743435537.7529056,-0.115,-0.831,-0.677,37.45,142.59,51.45
1743435537.7729056,-0.102,-0.826,-0.593,53.27,135.87,57.26
1743435537.7929056,-0.093,-0.856,-0.559,58.73,122.22,56.77
1743435537.8129056,-0.107,-0.866,-0.519,51.59,110.39,50.33
1743435537.8329055,-0.139,-0.88,-0.542,66.15,96.95,44.73
1743435537.8529055,-0.099,-0.867,-0.572,70.28,93.45,45.15
1743435537.8729055,-0.071,-0.828,-0.589,59.99,97.44,45.57
1743435537.8929057,-0.054,-0.807,-0.597,48.02,99.54,44.52
1743435537.9129057,-0.012,-0.746,-0.605,43.96,105.98,48.02
1743435537.9329054,-0.066,-0.67,-0.55,46.62,100.8,56.56
1743435537.9529054,-0.139,-0.689,-0.492,47.25,90.23,68.46
1743435537.9729054,-0.126,-0.709,-0.483,38.29,81.76,81.13
1743435537.9929054,-0.117,-0.694,-0.575,15.4,84.35,92.61
1743435538.0129054,-0.14,-0.635,-0.752,-13.86,99.12,105.35
1743435538.032905,-0.13,-0.612,-0.774,-26.67,116.83,126.28
1743435538.052905,-0.137,-0.633,-0.77,-17.64,144.55,142.31
1743435538.0729053,-0.117,-0.664,-0.671,15.68,161.56,154.42
1743435538.0929053,-0.191,-0.84,-0.597,21.42,174.02,157.71
1743435538.1129053,-0.257,-0.936,-0.469,31.78,169.96,150.08
1743435538.1329052,-0.269,-1.04,-0.386,39.13,150.78,123.97
1743435538.1529052,-0.272,-1.1,-0.32,38.99,127.54,98.91
1743435538.1729052,-0.275,-1.122,-0.26,29.61,75.39,62.93
1743435538.1929052,-0.254,-1.097,-0.254,23.38,39.83,28.49
1743435538.2129052,-0.187,-1.062,-0.273,25.9,13.72,-3.08
1743435538.2329051,-0.124,-0.977,-0.322,27.02,-12.81,-7.56
1743435538.2529051,-0.094,-0.872,-0.434,22.75,-30.38,-5.6
1743435538.272905,-0.088,-0.798,-0.486,26.18,-37.73,-2.1
1743435538.292905,-0.102,-0.756,-0.558,25.83,-37.03,9.17
1743435538.312905,-0.163,-0.796,-0.59,32.13,-26.6,12.32
1743435538.332905,-0.204,-0.913,-0.535,33.11,-11.9,7.91
1743435538.352905,-0.219,-0.946,-0.514,21.77,-3.22,-0.56
1743435538.372905,-0.209,-0.959,-0.493,9.94,5.25,-19.39
1743435538.392905,-0.16,-0.927,-0.51,0.77,9.38,-22.89
1743435538.412905,-0.111,-0.869,-0.504,-1.12,11.97,-16.8
1743435538.432905,-0.104,-0.854,-0.508,2.45,9.66,-10.71
1743435538.452905,-0.098,-0.874,-0.518,3.57,9.31,-10.92
1743435538.472905,-0.13,-0.937,-0.509,11.83,5.39,-15.33
1743435538.492905,-0.178,-1.001,-0.494,17.71,2.52,-21.77
1743435538.512905,-0.184,-1.025,-0.504,18.06,-1.61,-34.44
1743435538.5329049,-0.188,-1.027,-0.506,23.66,-5.04,-39.9
1743435538.5529048,-0.173,-0.999,-0.53,28.07,-4.69,-47.25
1743435538.5729048,-0.116,-1.016,-0.572,43.89,0.14,-58.38
1743435538.5929048,-0.115,-1.068,-0.611,54.81,5.88,-79.66
1743435538.6129048,-0.104,-1.117,-0.663,53.97,41.79,-101.22
1743435538.6329048,-0.114,-1.087,-0.709,46.97,65.87,-123.27
1743435538.6529047,-0.131,-0.973,-0.639,44.03,93.94,-136.15
1743435538.6729047,-0.136,-0.857,-0.543,44.73,111.02,-137.55
1743435538.6929047,-0.105,-0.806,-0.455,50.68,112.28,-124.95
1743435538.7129047,-0.077,-0.793,-0.395,54.39,105.35,-108.92
1743435538.732905,-0.028,-0.854,-0.335,68.88,85.89,-98.91
1743435538.752905,-0.038,-0.88,-0.314,69.16,73.01,-100.24
1743435538.7729046,-0.031,-0.892,-0.317,67.06,63.91,-108.43
1743435538.7929046,0.003,-0.887,-0.317,53.76,66.43,-118.58
1743435538.8129046,-0.007,-0.908,-0.324,69.23,65.52,-123.76
1743435538.8329046,-0.026,-0.958,-0.264,59.43,65.73,-145.11
1743435538.8529046,0.026,-0.973,-0.225,40.18,63.49,-162.75
1743435538.8729043,0.085,-0.948,-0.264,33.6,58.87,-176.26
1743435538.8929043,0.167,-0.92,-0.341,32.48,59.85,-176.54
1743435538.9129045,0.212,-0.915,-0.381,35.0,64.19,-176.12
1743435538.9329045,0.273,-0.891,-0.427,43.12,82.04,-175.7
1743435538.9529045,0.259,-0.882,-0.418,45.29,98.42,-170.24
1743435538.9729044,0.299,-0.841,-0.355,52.15,111.16,-166.6
1743435538.9929044,0.346,-0.817,-0.269,52.78,115.71,-164.64
1743435539.0129044,0.269,-0.858,-0.249,57.4,103.39,-166.74
1743435539.0329044,0.409,-0.93,-0.286,53.97,108.85,-182.7
1743435539.0529044,0.46,-0.873,-0.295,28.28,120.75,-189.7
1743435539.0729043,0.473,-0.771,-0.219,14.07,125.44,-170.66
1743435539.0929043,0.535,-0.675,-0.166,12.95,111.16,-152.6
1743435539.1129043,0.574,-0.646,-0.118,5.25,95.55,-128.66
1743435539.1329043,0.647,-0.644,-0.156,-11.55,90.51,-101.85
1743435539.1529045,0.613,-0.637,-0.18,-31.92,88.62,-79.24
1743435539.1729045,0.616,-0.602,-0.154,-44.52,93.1,-62.65
1743435539.1929042,0.603,-0.668,-0.254,-16.17,128.31,-109.55
1743435539.2129042,0.532,-0.763,-0.107,-59.36,187.39,-128.17
1743435539.2329042,0.566,-0.732,0.009,-53.69,188.93,-146.37
1743435539.2529042,0.657,-0.608,-0.001,-52.29,188.3,-147.91
1743435539.2729042,0.709,-0.51,-0.008,-39.69,190.05,-135.52
1743435539.292904,0.733,-0.496,0.065,-26.67,176.61,-117.74
1743435539.312904,0.724,-0.454,0.118,-41.23,154.63,-80.08
1743435539.332904,0.697,-0.446,0.148,-63.28,144.06,-71.68
1743435539.352904,0.697,-0.504,0.141,-78.12,141.12,-67.76
1743435539.372904,0.795,-0.547,0.06,-74.62,155.47,-64.61
1743435539.392904,0.76,-0.535,0.106,-59.57,159.67,-58.24
1743435539.412904,0.775,-0.49,0.14,-51.31,160.72,-48.65
1743435539.432904,0.793,-0.509,0.342,-16.52,130.76,-38.92
1743435539.452904,0.799,-0.528,0.29,-7.7,93.73,-37.73
1743435539.472904,0.749,-0.554,0.164,-9.87,88.97,-44.03
1743435539.492904,0.771,-0.567,0.012,-17.36,101.15,-57.12
1743435539.512904,0.804,-0.559,0.022,-31.01,136.5,-83.65
1743435539.532904,0.803,-0.535,0.218,-35.42,161.63,-96.32
1743435539.552904,0.83,-0.449,0.329,-33.6,165.69,-96.88
1743435539.572904,0.806,-0.408,0.412,-26.67,161.14,-77.77
1743435539.592904,0.844,-0.446,0.368,-49.91,155.05,-76.58
1743435539.6129038,0.81,-0.434,0.27,-64.47,172.97,-77.14
1743435539.6329038,0.769,-0.461,0.268,-74.55,192.99,-79.66
1743435539.6529038,0.751,-0.43,0.303,-94.71,219.31,-83.65
1743435539.6729038,0.705,-0.45,0.277,-119.14,236.67,-85.61
1743435539.6929038,0.738,-0.368,0.308,-150.15,261.52,-80.29
1743435539.7129035,0.691,-0.343,0.326,-201.11,294.56,-65.94
1743435539.7329037,0.672,-0.307,0.558,-204.4,307.65,-37.66
1743435539.7529037,0.719,-0.465,0.622,-162.05,297.78,-27.09
1743435539.7729037,0.658,-0.51,0.893,-110.67,245.56,-24.01
1743435539.7929037,0.671,-0.541,0.947,-85.4,207.62,-22.75
1743435539.8129036,0.681,-0.517,0.95,-44.8,156.52,-15.82
1743435539.8329036,0.652,-0.466,0.961,-20.16,108.01,-6.16
1743435539.8529036,0.658,-0.486,0.969,4.27,42.98,-1.19
1743435539.8729036,0.644,-0.531,0.835,9.52,15.47,-0.21
1743435539.8929036,0.64,-0.551,0.688,3.85,17.92,-14.21
1743435539.9129035,0.63,-0.58,0.666,-6.86,28.7,-28.14
1743435539.9329035,0.619,-0.482,0.573,-17.85,46.34,-38.85
1743435539.9529035,0.63,-0.426,0.605,-12.11,56.07,-36.54
1743435539.9729035,0.632,-0.416,0.688,-5.74,54.53,-29.54
1743435539.9929037,0.627,-0.447,0.836,-0.07,39.62,-24.08
1743435540.0129037,0.661,-0.476,0.956,4.06,-0.14,-19.46
1743435540.0329034,0.68,-0.484,1.019,9.1,-50.54,-11.41
1743435540.0529034,0.663,-0.533,0.99,8.19,-63.63,-16.52
1743435540.0729034,0.659,-0.512,0.883,9.94,-98.14,-17.15
1743435540.0929034,0.676,-0.458,0.714,5.04,-105.07,-11.34
1743435540.1129034,0.671,-0.478,0.665,1.54,-103.53,-12.11
1743435540.132903,0.703,-0.462,0.673,-8.61,-103.46,-13.51
1743435540.1529033,0.739,-0.436,0.703,-16.73,-112.14,-13.3
1743435540.1729033,0.721,-0.438,0.858,-12.11,-146.58,-12.04
1743435540.1929033,0.722,-0.448,0.947,-5.88,-189.35,-11.76
1743435540.2129033,0.708,-0.474,1.04,-0.77,-259.98,-14.14
1743435540.2329032,0.726,-0.461,1.043,-1.26,-311.92,-12.67
1743435540.2529032,0.669,-0.392,0.831,1.61,-395.01,-3.57
1743435540.2729032,0.613,-0.383,0.696,10.08,-433.65,4.9
1743435540.2929032,0.581,-0.399,0.558,19.04,-453.81,8.68
1743435540.3129032,0.57,-0.395,0.474,19.67,-467.88,7.91
1743435540.3329031,0.5,-0.367,0.37,15.19,-484.05,10.15
1743435540.3529031,0.457,-0.307,0.302,9.24,-506.94,13.65
1743435540.372903,0.457,-0.304,0.165,-11.69,-513.73,29.75
1743435540.392903,0.449,-0.316,-0.318,-36.82,-458.78,38.57
1743435540.412903,0.437,-0.374,-0.81,-45.43,-378.77,39.83
1743435540.432903,0.475,-0.421,-0.942,-50.75,-327.39,28.42
1743435540.452903,0.593,-0.518,-0.985,-48.58,-200.83,17.57
1743435540.472903,0.667,-0.503,-0.819,-51.66,-151.34,6.23
1743435540.492903,0.732,-0.467,-0.412,-44.17,-134.47,-2.52
1743435540.512903,0.748,-0.433,-0.286,-40.18,-142.03,-3.22
1743435540.532903,0.74,-0.435,-0.203,-30.17,-160.3,-3.64
1743435540.552903,0.732,-0.416,-0.193,-30.94,-189.14,-2.52
1743435540.572903,0.719,-0.378,-0.263,-28.77,-210.35,2.31
1743435540.592903,0.672,-0.387,-0.299,-27.16,-231.98,1.82
1743435540.6129029,0.657,-0.458,-0.405,-23.24,-233.38,-4.55
1743435540.6329029,0.675,-0.424,-0.436,-22.33,-230.23,-8.19
1743435540.6529028,0.621,-0.307,-0.394,-11.76,-240.31,0.42
1743435540.6729028,0.609,-0.273,-0.457,-9.59,-259.84,14.7
1743435540.6929028,0.566,-0.206,-0.544,-14.84,-264.88,53.9
1743435540.7129028,0.51,-0.176,-0.57,-38.08,-266.84,79.94
1743435540.7329028,0.359,-0.249,-0.538,-90.51,-267.82,104.79
1743435540.7529027,0.271,-0.295,-0.62,-109.69,-265.86,112.21
1743435540.7729027,0.116,-0.424,-0.849,-120.96,-258.02,107.1
1743435540.7929027,0.067,-0.49,-1.194,-115.43,-232.54,73.29
1743435540.8129027,0.118,-0.452,-1.292,-92.4,-148.54,57.82
1743435540.832903,0.188,-0.379,-1.234,-79.03,-112.56,52.29
1743435540.852903,0.237,-0.315,-1.151,-73.85,-91.35,56.63
1743435540.8729026,0.237,-0.285,-1.08,-72.03,-72.1,60.34
1743435540.8929026,0.241,-0.263,-0.935,-72.8,-77.28,67.27
1743435540.9129026,0.126,-0.284,-0.931,-69.44,-97.79,70.35
1743435540.9329026,0.086,-0.307,-1.006,-67.34,-112.7,71.75
1743435540.9529026,0.081,-0.307,-1.165,-61.39,-113.96,70.84
1743435540.9729023,0.055,-0.315,-1.304,-48.44,-87.5,67.13
1743435540.9929025,0.034,-0.317,-1.313,-32.55,-63.49,61.6
1743435541.0129025,0.037,-0.294,-1.202,-24.08,-44.1,57.61
1743435541.0329025,0.023,-0.285,-1.12,-21.21,-38.29,57.19
1743435541.0529025,-0.019,-0.297,-1.125,-18.41,-32.06,54.81
1743435541.0729024,-0.036,-0.315,-1.142,-16.38,-20.51,49.28
1743435541.0929024,-0.027,-0.304,-1.12,-12.53,-13.44,43.26
1743435541.1129024,-0.015,-0.288,-1.065,-8.54,-9.45,41.09
1743435541.1329024,-0.02,-0.287,-1.056,-4.62,-9.03,38.36
1743435541.1529024,-0.025,-0.292,-1.088,-0.07,-5.32,35.77
1743435541.1729023,-0.035,-0.311,-1.12,3.92,2.24,29.33
1743435541.1929023,-0.043,-0.328,-1.137,13.09,23.38,22.05
1743435541.2129023,-0.042,-0.331,-1.218,16.45,42.14,17.29
1743435541.2329023,-0.047,-0.382,-1.331,25.83,72.73,9.1
1743435541.2529025,-0.048,-0.419,-1.438,37.03,109.62,-11.13
1743435541.2729025,-0.079,-0.455,-1.526,48.58,164.99,-21.84
1743435541.2929022,-0.078,-0.435,-1.479,77.77,230.09,-38.01
1743435541.3129022,-0.056,-0.412,-1.255,89.32,253.54,-49.14
1743435541.3329022,-0.037,-0.405,-1.149,96.18,265.23,-57.68
1743435541.3529022,-0.006,-0.41,-1.049,99.61,275.73,-65.24
1743435541.3729022,0.044,-0.397,-1.002,96.6,289.45,-68.74
1743435541.392902,0.092,-0.377,-0.982,90.44,308.63,-69.58
1743435541.412902,0.189,-0.372,-0.97,80.57,333.27,-70.56
1743435541.432902,0.247,-0.358,-0.979,75.46,393.68,-73.71
1743435541.452902,0.348,-0.319,-0.836,82.74,413.21,-78.33
1743435541.472902,0.431,-0.29,-0.615,93.38,416.36,-80.5
1743435541.492902,0.502,-0.264,-0.343,90.44,376.95,-70.7
1743435541.512902,0.604,-0.234,-0.334,65.1,354.76,-38.92
1743435541.532902,0.667,-0.212,-0.368,55.58,340.62,-33.39
1743435541.552902,0.692,-0.281,-0.33,37.94,327.53,-6.23
1743435541.572902,0.611,-0.356,-0.343,24.92,308.0,-2.52
1743435541.592902,0.621,-0.331,-0.342,23.66,310.87,0.14
1743435541.612902,0.689,-0.336,-0.207,21.56,305.97,-2.73
1743435541.632902,0.743,-0.316,-0.056,14.14,293.79,-4.83
1743435541.652902,0.793,-0.282,0.054,13.51,246.4,2.17
1743435541.672902,0.83,-0.261,0.222,6.44,202.3,21.91
1743435541.6929018,0.891,-0.267,0.139,-12.6,167.02,36.68
1743435541.7129018,0.919,-0.301,-0.081,-17.99,148.33,71.47
1743435541.7329018,0.877,-0.333,-0.183,-18.69,166.39,61.95
1743435541.7529018,0.8,-0.374,-0.269,-15.12,199.92,63.84
1743435541.7729018,0.71,-0.429,-0.28,-7.49,236.18,60.06
1743435541.7929018,0.665,-0.45,-0.183,6.86,270.06,45.15
1743435541.8129015,0.682,-0.436,-0.036,19.95,275.17,36.33
1743435541.8329017,0.732,-0.382,0.209,18.69,264.74,46.06
1743435541.8529017,0.757,-0.38,0.259,5.88,257.74,56.42
1743435541.8729017,0.725,-0.404,0.27,4.97,249.97,59.36
1743435541.8929017,0.68,-0.452,0.396,12.04,230.65,56.63
1743435541.9129016,0.642,-0.498,0.519,14.42,207.27,56.84
1743435541.9329016,0.622,-0.512,0.435,8.05,190.12,54.18
1743435541.9529016,0.63,-0.502,0.329,14.35,192.71,51.45
1743435541.9729016,0.628,-0.478,0.32,37.24,205.59,51.03
1743435541.9929016,0.633,-0.479,0.45,48.09,214.97,51.1
1743435542.0129015,0.634,-0.501,0.562,56.35,194.25,47.25
1743435542.0329015,0.619,-0.498,0.649,60.41,166.53,45.64
1743435542.0529015,0.604,-0.515,0.781,64.4,136.15,45.57
1743435542.0729015,0.606,-0.572,0.811,52.99,108.64,39.48
1743435542.0929017,0.596,-0.57,0.706,45.57,98.35,36.05
1743435542.1129014,0.544,-0.55,0.597,45.85,104.44,29.54
1743435542.1329014,0.544,-0.557,0.608,47.04,111.93,26.88
1743435542.1529014,0.52,-0.569,0.65,43.26,117.39,17.57
1743435542.1729014,0.532,-0.543,0.724,39.55,119.28,13.37
1743435542.1929014,0.558,-0.52,0.829,36.61,101.36,15.4
1743435542.2129014,0.547,-0.529,0.911,37.03,71.96,16.03
1743435542.232901,0.531,-0.55,0.956,27.23,47.18,14.21
1743435542.2529013,0.515,-0.581,0.943,21.07,20.23,10.71
1743435542.2729013,0.522,-0.576,0.911,13.09,4.48,7.63
1743435542.2929013,0.538,-0.565,0.9,1.26,-7.56,4.97
1743435542.3129013,0.531,-0.547,0.819,-0.14,-13.37,5.95
1743435542.3329012,0.529,-0.53,0.73,2.45,-9.87,6.65
1743435542.3529012,0.537,-0.521,0.719,5.74,-4.48,7.98
1743435542.3729012,0.547,-0.529,0.791,1.4,-8.82,6.09
1743435542.3929012,0.541,-0.55,0.851,4.83,-21.0,4.34
1743435542.4129012,0.565,-0.566,0.929,3.36,-43.61,1.12
1743435542.4329011,0.579,-0.57,0.985,0.63,-75.74,-1.4
1743435542.4529011,0.595,-0.585,1.032,-5.88,-107.24,-5.25
1743435542.472901,0.575,-0.61,1.082,-16.94,-152.18,-10.85
1743435542.492901,0.563,-0.601,1.102,-51.66,-206.71,-16.24
1743435542.512901,0.539,-0.61,1.05,-52.78,-243.95,-33.6
1743435542.532901,0.52,-0.601,1.015,-52.43,-304.29,-43.4
1743435542.552901,0.509,-0.602,0.96,-44.24,-339.78,-56.49
1743435542.572901,0.508,-0.576,0.938,-21.42,-389.9,-65.1
1743435542.592901,0.51,-0.543,0.939,-3.57,-434.14,-71.05
1743435542.612901,0.464,-0.521,0.933,4.97,-480.62,-73.99
1743435542.632901,0.414,-0.503,0.924,-3.5,-543.34,-77.91
1743435542.652901,0.223,-0.358,0.932,-24.99,-606.83,-74.48
1743435542.672901,0.076,-0.246,0.895,-65.87,-721.07,-63.07
1743435542.692901,-0.061,-0.147,0.682,-90.02,-791.14,-43.4
1743435542.7129009,-0.22,-0.091,0.291,-118.09,-845.04,-27.02
1743435542.7329009,-0.347,0.016,-0.151,-129.01,-871.5,-7.35
1743435542.7529008,-0.328,0.001,-0.49,-111.86,-833.42,23.24
1743435542.7729008,-0.3,-0.073,-0.629,-106.12,-765.94,28.21
1743435542.7929008,-0.225,-0.11,-0.891,-88.76,-652.96,44.52
1743435542.8129008,-0.143,-0.111,-1.266,-76.3,-567.91,59.71
1743435542.8329008,-0.254,-0.284,-1.365,-100.38,-457.03,70.77
1743435542.8529007,-0.241,-0.314,-1.745,-114.45,-375.34,73.29
1743435542.8729007,-0.209,-0.541,-2.092,-71.89,-254.03,56.49
1743435542.8929007,-0.121,-0.654,-2.267,-33.18,-57.26,16.73
1743435542.9129007,-0.069,-0.601,-2.009,-21.07,23.03,-3.08
1743435542.932901,-0.026,-0.547,-1.73,-4.2,75.81,-38.22
1743435542.9529006,0.039,-0.535,-1.346,2.66,101.22,-49.98
1743435542.9729006,0.223,-0.338,-0.851,4.9,52.29,-44.8
1743435542.9929006,0.327,-0.244,-0.721,-2.03,-15.47,-24.01
1743435543.0129006,0.387,-0.192,-0.741,-7.56,-54.25,8.89
1743435543.0329006,0.384,-0.197,-0.938,-9.52,-91.14,33.39
1743435543.0529006,0.254,-0.287,-1.228,-9.24,-76.16,39.13
1743435543.0729003,0.154,-0.307,-1.275,-4.55,-40.67,37.66
1743435543.0929005,0.041,-0.353,-1.258,-0.7,-12.32,28.28
1743435543.1129005,-0.054,-0.428,-1.39,2.38,24.85,15.82
1743435543.1329005,-0.112,-0.481,-1.516,12.25,95.48,-6.37
1743435543.1529005,-0.115,-0.469,-1.446,21.14,138.53,-33.18
1743435543.1729004,-0.063,-0.419,-1.271,31.15,178.92,-43.54
1743435543.1929004,-0.021,-0.394,-1.184,38.43,212.94,-57.19
1743435543.2129004,0.081,-0.36,-1.073,34.44,234.29,-65.94
1743435543.2329004,0.137,-0.313,-1.005,34.51,250.32,-62.72
1743435543.2529004,0.189,-0.321,-0.982,38.08,266.77,-62.93
1743435543.2729003,0.244,-0.337,-0.886,43.54,282.1,-63.56
1743435543.2929003,0.295,-0.368,-0.812,39.34,292.18,-63.98
1743435543.3129003,0.345,-0.38,-0.801,20.93,299.46,-60.27
1743435543.3329003,0.416,-0.331,-0.871,12.32,327.32,-52.85
1743435543.3529005,0.44,-0.329,-0.892,9.31,379.4,-46.27
1743435543.3729002,0.455,-0.356,-0.949,-11.55,411.32,-41.65
1743435543.3929002,0.492,-0.339,-1.037,-11.97,464.59,-38.36
1743435543.4129002,0.528,-0.262,-0.881,-14.07,562.52,-25.62
1743435543.4329002,0.531,-0.217,-0.58,-23.94,585.13,-14.07
1743435543.4529002,0.629,-0.173,-0.28,-39.2,606.48,13.72
1743435543.4729002,0.608,-0.174,-0.078,-42.56,597.03,45.15
1743435543.4929,0.564,-0.182,0.047,-47.6,582.68,66.92
1743435543.5129,0.564,-0.257,0.121,-47.95,564.9,71.4
1743435543.5329,0.592,-0.295,0.58,-51.8,531.72,80.71
1743435543.5529,0.593,-0.39,0.733,-55.79,474.46,86.94
1743435543.5729,0.612,-0.462,0.882,-55.79,413.0,76.93
1743435543.5929,0.608,-0.55,0.9,-44.31,343.7,64.75
1743435543.6129,0.604,-0.521,0.983,-17.29,269.15,54.6
1743435543.6329,0.625,-0.522,0.878,-22.4,190.47,34.93
1743435543.6529,0.668,-0.529,0.57,-41.51,169.68,21.07
1743435543.6729,0.699,-0.45,0.383,-33.95,177.8,14.56
1743435543.6929,0.822,-0.385,0.402,-8.61,181.44,12.46
1743435543.7129,0.88,-0.357,0.56,7.07,170.73,24.22
1743435543.7329,0.85,-0.368,0.673,11.69,128.31,35.77
1743435543.7529,0.78,-0.427,0.629,15.68,105.42,35.0
1743435543.7729,0.711,-0.482,0.603,16.66,98.14,32.13
1743435543.7928998,0.661,-0.505,0.606,14.84,89.32,26.46
1743435543.8128998,0.649,-0.506,0.592,11.9,87.29,15.82
1743435543.8328998,0.609,-0.499,0.526,14.77,102.27,11.13
1743435543.8528998,0.665,-0.457,0.508,5.53,115.43,6.44
1743435543.8728998,0.686,-0.439,0.576,6.93,120.68,9.1
1743435543.8928998,0.688,-0.404,0.731,15.96,100.17,14.35
1743435543.9128995,0.693,-0.429,0.799,18.48,60.06,18.2
1743435543.9328997,0.665,-0.452,0.672,13.3,46.41,17.71
1743435543.9528997,0.651,-0.438,0.647,14.14,46.48,17.57
1743435543.9728997,0.631,-0.442,0.727,17.22,41.09,16.73
1743435543.9928997,0.63,-0.476,0.801,22.12,10.57,13.51
1743435544.0128996,0.626,-0.51,0.91,19.95,-12.25,9.24
1743435544.0328996,0.639,-0.532,0.983,17.78,-46.62,0.42
1743435544.0528996,0.648,-0.539,1.027,15.82,-103.11,-7.63
1743435544.0728996,0.652,-0.541,1.055,14.14,-117.53,-18.13
1743435544.0928996,0.649,-0.543,1.109,9.66,-193.55,-28.07
1743435544.1128995,0.63,-0.544,1.142,3.71,-250.25,-37.52
1743435544.1328995,0.563,-0.549,1.129,-10.15,-352.31,-47.25
1743435544.1528995,0.514,-0.559,1.064,-20.02,-400.82,-58.66
1743435544.1728995,0.484,-0.552,0.909,-18.48,-432.11,-68.95
1743435544.1928997,0.478,-0.513,0.827,-4.2,-459.48,-81.13
1743435544.2128994,0.498,-0.468,0.763,32.48,-507.36,-93.8
1743435544.2328994,0.492,-0.417,0.721,68.11,-554.96,-97.51
1743435544.2528994,0.391,-0.329,0.692,83.3,-666.05,-91.84
1743435544.2728994,0.344,-0.281,0.571,65.8,-748.93,-80.43
1743435544.2928994,0.273,-0.131,0.366,33.11,-785.12,-59.5
1743435544.3128994,0.193,-0.144,0.141,12.32,-815.85,-40.95
1743435544.332899,0.123,-0.072,-0.158,-13.02,-822.08,-6.72
1743435544.3528993,0.155,-0.078,-0.455,-24.43,-798.7,20.65
1743435544.3728993,0.165,-0.061,-0.7,-42.42,-727.51,46.48
1743435544.3928993,0.125,-0.161,-0.809,-38.43,-663.18,60.27
1743435544.4128993,0.122,-0.233,-0.973,-40.74,-572.18,68.74
1743435544.4328992,0.105,-0.287,-1.22,-38.22,-488.74,73.43
1743435544.4528992,0.067,-0.322,-1.351,-29.12,-377.02,70.42
1743435544.4728992,0.074,-0.413,-1.547,-21.49,-249.76,63.56
1743435544.4928992,0.066,-0.445,-1.636,-14.7,-178.57,50.47
1743435544.5128992,0.02,-0.499,-1.523,-7.14,-110.88,21.14
1743435544.5328991,0.087,-0.434,-1.374,-1.54,-65.1,14.42
1743435544.5528991,0.128,-0.374,-1.22,1.68,-49.98,16.17
1743435544.572899,0.151,-0.34,-1.081,-1.61,-52.57,21.35
1743435544.592899,0.15,-0.329,-1.093,-2.59,-55.72,27.72
1743435544.612899,0.144,-0.341,-1.157,-1.4,-51.38,26.46
1743435544.632899,0.138,-0.331,-1.201,-1.96,-22.61,24.08
1743435544.652899,0.106,-0.313,-1.195,-1.75,-3.99,22.89
1743435544.672899,0.051,-0.328,-1.228,0.28,16.94,19.25
1743435544.692899,-0.017,-0.376,-1.396,5.53,47.67,6.02
1743435544.712899,-0.074,-0.413,-1.509,17.92,120.61,-6.3
1743435544.732899,-0.07,-0.41,-1.491,26.25,178.5,-21.14
1743435544.752899,-0.057,-0.407,-1.462,39.06,226.38,-36.19
1743435544.772899,-0.005,-0.369,-1.315,51.94,272.23,-60.2
1743435544.792899,0.047,-0.352,-1.073,65.31,301.56,-70.35
1743435544.8128989,0.157,-0.338,-0.655,56.84,286.58,-76.02
1743435544.8328989,0.219,-0.331,-0.556,46.55,266.77,-72.24
1743435544.8528988,0.336,-0.307,-0.529,34.37,232.33,-65.94
1743435544.8728988,0.455,-0.306,-0.625,21.07,213.57,-58.73
1743435544.8928988,0.576,-0.271,-0.755,16.03,221.76,-51.45
1743435544.9128988,0.588,-0.267,-0.783,15.05,236.25,-43.05
1743435544.9328988,0.578,-0.284,-0.788,18.27,254.38,-32.41
1743435544.9528987,0.571,-0.309,-0.754,16.8,281.05,-31.01
1743435544.9728987,0.571,-0.352,-0.625,9.52,295.75,-33.81
1743435544.9928987,0.632,-0.34,-0.529,-0.7,301.14,-35.7
1743435545.0128987,0.686,-0.283,-0.461,-8.68,304.36,-25.97
1743435545.032899,0.721,-0.308,-0.491,-11.48,310.03,-18.48
1743435545.0528986,0.722,-0.319,-0.483,-19.46,342.93,-11.13
1743435545.0728986,0.727,-0.301,-0.465,-19.25,362.53,-3.64
1743435545.0928986,0.732,-0.294,-0.511,-26.81,395.92,1.61
1743435545.1128986,0.723,-0.275,-0.466,-31.5,453.32,11.41
1743435545.1328986,0.735,-0.241,-0.279,-42.7,468.93,28.42
1743435545.1528986,0.745,-0.233,-0.094,-47.6,476.98,44.66
1743435545.1728983,0.755,-0.272,0.141,-60.41,459.2,54.95
1743435545.1928985,0.788,-0.297,0.375,-63.84,409.15,66.01
1743435545.2128985,0.817,-0.348,0.543,-65.8,359.59,70.42
1743435545.2328985,0.827,-0.356,0.547,-68.04,306.18,75.04
1743435545.2528985,0.825,-0.364,0.493,-65.1,275.73,77.7
1743435545.2728984,0.813,-0.374,0.318,-49.42,264.04,75.18
1743435545.2928984,0.818,-0.336,0.194,-26.04,265.58,76.09
1743435545.3128984,0.768,-0.35,0.323,7.42,262.78,77.98
1743435545.3328984,0.731,-0.394,0.489,29.05,234.36,72.24
1743435545.3528984,0.706,-0.468,0.628,31.57,201.04,61.6
1743435545.3728983,0.711,-0.484,0.692,24.64,145.32,53.55
1743435545.3928983,0.706,-0.488,0.702,21.28,115.57,48.3
1743435545.4128983,0.638,-0.52,0.615,25.41,100.66,35.0
1743435545.4328983,0.635,-0.534,0.664,16.73,92.47,29.05
1743435545.4528985,0.636,-0.541,0.721,7.28,73.22,24.57
1743435545.4728982,0.627,-0.533,0.691,4.83,59.43,16.66
1743435545.4928982,0.642,-0.503,0.693,5.25,45.36,13.93
1743435545.5128982,0.652,-0.496,0.653,3.57,36.05,12.81
1743435545.5328982,0.673,-0.474,0.589,1.05,39.97,11.9
1743435545.5528982,0.659,-0.457,0.638,6.37,40.32,13.51
1743435545.572898,0.651,-0.473,0.72,12.6,27.72,12.95
1743435545.592898,0.646,-0.516,0.796,13.3,-5.32,6.02
1743435545.612898,0.622,-0.546,0.84,6.3,-28.42,-6.93
1743435545.632898,0.643,-0.547,0.889,2.52,-54.88,-16.66
1743435545.652898,0.658,-0.538,0.898,-3.78,-105.63,-21.07
1743435545.672898,0.66,-0.524,0.834,-11.34,-123.34,-22.96
1743435545.692898,0.678,-0.48,0.617,-18.62,-122.99,-20.58
1743435545.712898,0.698,-0.453,0.468,-17.78,-107.31,-16.73
1743435545.732898,0.719,-0.46,0.477,-12.88,-85.89,-15.05
1743435545.752898,0.732,-0.477,0.538,-10.85,-85.4,-16.03
1743435545.772898,0.75,-0.49,0.611,-13.16,-107.31,-18.13
1743435545.792898,0.735,-0.499,0.672,-14.42,-113.75,-18.2
1743435545.812898,0.703,-0.511,0.606,-24.15,-120.89,-20.86
1743435545.832898,0.751,-0.476,0.444,-29.82,-109.41,-19.46
1743435545.852898,0.819,-0.406,0.249,-28.56,-73.78,-12.39
1743435545.872898,0.829,-0.401,0.246,-22.4,-43.82,-7.07
1743435545.8928978,0.803,-0.44,0.328,-18.2,-24.15,-5.95
1743435545.9128978,0.787,-0.467,0.398,-16.24,-23.8,-8.26
1743435545.9328978,0.788,-0.468,0.426,-14.0,-31.57,-11.06
1743435545.9528978,0.797,-0.467,0.449,-13.58,-39.41,-13.09
1743435545.9728978,0.818,-0.468,0.454,-14.49,-49.56,-14.14
1743435545.9928975,0.818,-0.462,0.408,-17.01,-55.44,-13.86
1743435546.0128975,0.815,-0.453,0.356,-15.54,-55.44,-13.51
1743435546.0328977,0.811,-0.463,0.363,-14.63,-54.32,-16.8
1743435546.0528977,0.818,-0.49,0.402,-15.4,-64.61,-22.47
1743435546.0728977,0.831,-0.493,0.434,-17.22,-78.54,-27.65
1743435546.0928977,0.84,-0.479,0.486,-17.15,-99.05,-31.08
1743435546.1128976,0.844,-0.474,0.527,-17.57,-134.61,-36.68
1743435546.1328976,0.852,-0.447,0.571,-26.74,-170.45,-38.85
1743435546.1528976,0.837,-0.43,0.514,-28.91,-211.96,-33.04
1743435546.1728976,0.784,-0.419,0.306,-24.64,-228.97,-29.89
1743435546.1928976,0.826,-0.402,0.013,-15.89,-210.0,-23.73
1743435546.2128975,0.875,-0.374,-0.136,-15.4,-156.24,-17.64
1743435546.2328975,0.883,-0.38,-0.144,-19.81,-109.2,-18.13
1743435546.2528975,0.884,-0.435,0.057,-24.5,-75.88,-22.54
1743435546.2728975,0.89,-0.445,0.167,-22.54,-86.1,-29.12
1743435546.2928977,0.897,-0.463,0.299,-15.47,-113.26,-38.29
1743435546.3128974,0.902,-0.42,0.318,-9.45,-169.96,-41.23
1743435546.3328974,0.871,-0.4,0.293,-4.41,-204.82,-40.39
1743435546.3528974,0.847,-0.399,0.172,1.68,-230.65,-39.83
1743435546.3728974,0.84,-0.389,0.08,4.76,-244.79,-40.04
1743435546.3928974,0.8,-0.369,-0.038,10.29,-250.11,-39.55
1743435546.412897,0.801,-0.355,-0.128,16.94,-247.66,-39.97
1743435546.432897,0.806,-0.359,-0.168,24.64,-243.25,-43.05
1743435546.4528973,0.824,-0.338,-0.185,33.04,-242.76,-42.28
1743435546.4728973,0.822,-0.331,-0.186,38.5,-247.73,-38.5
1743435546.4928973,0.787,-0.32,-0.179,41.58,-257.95,-33.88
1743435546.5128973,0.781,-0.327,-0.223,41.09,-269.29,-27.58
1743435546.5328972,0.801,-0.305,-0.33,30.45,-273.63,-14.77
1743435546.5528972,0.796,-0.294,-0.4,25.41,-265.58,-4.55
1743435546.5728972,0.744,-0.301,-0.463,29.05,-262.29,5.11
1743435546.5928972,0.72,-0.323,-0.517,31.08,-256.9,10.71
1743435546.6128972,0.691,-0.337,-0.57,22.82,-250.32,15.54
1743435546.6328971,0.654,-0.34,-0.619,30.1,-241.43,21.7
1743435546.6528971,0.612,-0.339,-0.691,36.4,-228.9,28.0
1743435546.672897,0.592,-0.358,-0.769,23.8,-214.06,32.69
1743435546.692897,0.573,-0.362,-0.797,13.93,-193.13,34.93
1743435546.712897,0.557,-0.498,-0.826,5.53,-165.62,34.02
1743435546.732897,0.54,-0.389,-0.829,-8.82,-145.67,32.69
1743435546.752897,0.522,-0.395,-0.834,-18.34,-128.52,28.63
1743435546.772897,0.508,-0.391,-0.824,-23.87,-115.08,26.95
1743435546.792897,0.498,-0.386,-0.811,-25.27,-103.39,26.25
1743435546.812897,0.491,-0.381,-0.809,-23.87,-99.33,25.76
1743435546.832897,0.485,-0.384,-0.825,-23.1,-93.8,25.13
1743435546.852897,0.461,-0.386,-0.847,-21.56,-84.91,24.43
1743435546.872897,0.429,-0.38,-0.852,-21.21,-81.55,24.36
1743435546.892897,0.416,-0.39,-0.854,-18.41,-80.01,23.03
1743435546.9128969,0.411,-0.392,-0.863,-17.99,-76.65,22.26
1743435546.9328969,0.411,-0.383,-0.867,-17.29,-72.03,21.49
1743435546.9528968,0.411,-0.38,-0.874,-13.09,-70.14,21.98
1743435546.9728968,0.393,-0.39,-0.892,-12.04,-67.76,22.05
1743435546.9928968,0.384,-0.385,-0.909,-12.18,-61.74,21.14
1743435547.0128968,0.381,-0.378,-0.908,-11.83,-56.84,21.28
1743435547.0328968,0.374,-0.382,-0.906,-8.33,-52.64,20.86
1743435547.0528967,0.355,-0.391,-0.903,-4.2,-50.75,20.3
1743435547.0728967,0.352,-0.395,-0.916,-4.41,-48.65,19.53
1743435547.0928967,0.335,-0.393,-0.935,-3.57,-42.7,18.62
1743435547.1128967,0.334,-0.4,-0.936,-2.87,-37.87,17.99
1743435547.132897,0.316,-0.409,-0.939,-4.34,-32.55,16.31
1743435547.1528966,0.316,-0.403,-0.936,-5.67,-28.56,14.14
1743435547.1728966,0.303,-0.412,-0.933,-2.1,-26.74,11.27
1743435547.1928966,0.301,-0.416,-0.943,3.43,-26.53,9.31
1743435547.2128966,0.304,-0.418,-0.984,1.26,-20.02,8.05
1743435547.2328966,0.293,-0.405,-0.994,1.05,-8.96,6.93
1743435547.2528963,0.285,-0.404,-0.968,1.12,-2.87,5.25
1743435547.2728963,0.277,-0.411,-0.936,5.6,0.56,3.08
1743435547.2928965,0.27,-0.416,-0.923,9.59,-1.19,1.12
1743435547.3128965,0.263,-0.407,-0.928,9.73,0.91,-0.7
1743435547.3328965,0.264,-0.393,-0.898,11.48,1.75,-1.47
1743435547.3528965,0.278,-0.395,-0.871,17.29,-2.17,-1.89
1743435547.3728964,0.285,-0.402,-0.891,24.99,-6.86,-1.68
1743435547.3928964,0.279,-0.412,-0.925,25.27,-4.2,-2.31
1743435547.4128964,0.27,-0.416,-0.935,24.5,6.37,-5.88
1743435547.4328964,0.272,-0.428,-0.915,25.62,14.35,-9.8
1743435547.4528964,0.275,-0.441,-0.908,29.75,24.08,-13.72
1743435547.4728963,0.28,-0.446,-0.891,26.18,29.47,-17.92
1743435547.4928963,0.298,-0.436,-0.873,23.94,35.14,-21.21
1743435547.5128963,0.315,-0.431,-0.845,23.45,35.7,-20.58
1743435547.5328965,0.346,-0.43,-0.83,21.7,31.08,-18.97
1743435547.5528965,0.361,-0.424,-0.825,18.69,31.01,-17.29
1743435547.5728962,0.369,-0.422,-0.82,19.88,29.89,-16.1
1743435547.5928962,0.371,-0.435,-0.829,23.52,29.82,-15.75
1743435547.6128962,0.373,-0.45,-0.855,24.22,33.32,-15.68
1743435547.6328962,0.368,-0.458,-0.866,24.22,38.29,-18.48
1743435547.6528962,0.353,-0.499,-0.935,34.3,48.79,-26.6
1743435547.672896,0.347,-0.534,-0.994,41.86,73.78,-40.25
1743435547.692896,0.381,-0.516,-1.022,29.89,95.55,-45.64
1743435547.712896,0.378,-0.467,-0.969,21.7,115.01,-51.66
1743435547.732896,0.4,-0.417,-0.859,20.16,124.67,-48.93
1743435547.752896,0.436,-0.401,-0.719,24.15,108.01,-41.37
1743435547.772896,0.475,-0.396,-0.619,28.07,75.74,-32.27
1743435547.792896,0.499,-0.384,-0.621,31.99,50.68,-24.99
1743435547.812896,0.511,-0.4,-0.635,36.12,38.43,-20.44
1743435547.832896,0.508,-0.431,-0.649,37.1,31.15,-20.16
1743435547.852896,0.511,-0.454,-0.683,31.36,27.86,-23.73
1743435547.872896,0.534,-0.432,-0.667,29.75,30.8,-24.57
1743435547.892896,0.571,-0.431,-0.635,31.08,33.74,-24.36
1743435547.912896,0.591,-0.437,-0.605,31.36,34.51,-24.08
1743435547.932896,0.589,-0.443,-0.587,28.49,32.41,-22.75
1743435547.952896,0.589,-0.461,-0.564,27.37,29.26,-24.43
1743435547.972896,0.618,-0.443,-0.529,22.12,25.13,-22.75
1743435547.9928958,0.65,-0.424,-0.497,19.04,11.97,-17.43
1743435548.0128958,0.661,-0.433,-0.496,17.57,2.17,-12.04
1743435548.0328958,0.657,-0.445,-0.526,15.05,-5.74,-8.05
1743435548.0528958,0.651,-0.448,-0.539,14.35,-11.83,-6.37
1743435548.0728958,0.633,-0.477,-0.576,15.61,-12.25,-7.91
1743435548.0928955,0.6,-0.506,-0.646,23.1,-9.38,-10.29
1743435548.1128955,0.584,-0.533,-0.748,25.69,4.69,-20.79
1743435548.1328957,0.57,-0.537,-0.797,20.86,31.01,-27.79
1743435548.1528957,0.568,-0.513,-0.773,8.4,41.37,-31.22
1743435548.1728957,0.591,-0.466,-0.688,4.13,43.82,-30.24
1743435548.1928957,0.62,-0.432,-0.634,4.13,36.12,-24.92
1743435548.2128956,0.639,-0.42,-0.598,10.78,23.87,-15.4
1743435548.2328956,0.626,-0.427,-0.599,17.08,6.51,-9.59
1743435548.2528956,0.589,-0.465,-0.649,21.28,2.52,-9.24
1743435548.2728956,0.57,-0.491,-0.701,20.86,5.25,-13.72
1743435548.2928956,0.557,-0.501,-0.71,20.09,12.04,-18.97
1743435548.3128955,0.548,-0.508,-0.712,21.21,19.46,-23.87
1743435548.3328955,0.559,-0.493,-0.691,22.75,23.66,-26.81
1743435548.3528955,0.578,-0.484,-0.675,23.38,26.53,-28.49
1743435548.3728957,0.586,-0.477,-0.655,23.1,27.58,-28.84
1743435548.3928957,0.598,-0.46,-0.624,23.66,25.9,-28.21
1743435548.4128954,0.604,-0.468,-0.595,26.88,21.0,-28.56
1743435548.4328954,0.602,-0.465,-0.586,27.02,16.17,-28.98
1743435548.4528954,0.617,-0.453,-0.571,27.37,12.39,-28.49
1743435548.4728954,0.644,-0.441,-0.548,28.28,9.03,-27.44
1743435548.4928954,0.668,-0.439,-0.534,29.19,4.27,-26.67
1743435548.512895,0.676,-0.434,-0.534,28.91,0.91,-24.43
1743435548.532895,0.673,-0.436,-0.536,30.03,-1.19,-23.24
1743435548.5528953,0.672,-0.443,-0.531,30.17,-2.45,-22.89
1743435548.5728953,0.683,-0.454,-0.543,24.71,0.07,-24.01
1743435548.5928953,0.704,-0.443,-0.528,21.7,5.88,-24.57
1743435548.6128953,0.722,-0.437,-0.511,19.81,11.2,-24.08
1743435548.6328952,0.74,-0.43,-0.476,16.59,13.58,-22.33
1743435548.6528952,0.752,-0.423,-0.436,12.74,13.93,-21.07
1743435548.6728952,0.763,-0.418,-0.414,10.92,12.46,-18.06
1743435548.6928952,0.783,-0.414,-0.398,8.96,9.17,-16.17
1743435548.7128952,0.79,-0.418,-0.393,5.46,6.37,-15.05
1743435548.7328951,0.804,-0.408,-0.372,1.47,2.66,-12.46
1743435548.752895,0.828,-0.396,-0.348,-1.33,-4.2,-6.37
1743435548.772895,0.834,-0.394,-0.331,-2.8,-11.55,-2.17
1743435548.792895,0.839,-0.404,-0.341,-6.58,-21.21,3.01
1743435548.812895,0.849,-0.386,-0.346,-12.32,-26.11,6.58
1743435548.832895,0.846,-0.381,-0.337,-15.47,-31.29,14.49
1743435548.852895,0.839,-0.388,-0.336,-18.97,-39.55,18.97
1743435548.872895,0.818,-0.4,-0.347,-23.17,-46.34,23.1
1743435548.892895,0.787,-0.401,-0.37,-30.45,-53.48,26.39
1743435548.912895,0.779,-0.395,-0.382,-36.33,-59.15,29.75
1743435548.932895,0.773,-0.389,-0.403,-39.76,-66.92,35.14
1743435548.952895,0.712,-0.415,-0.453,-37.52,-69.58,33.81
1743435548.972895,0.712,-0.397,-0.475,-46.62,-76.44,34.58
1743435548.992895,0.705,-0.378,-0.48,-49.56,-85.68,40.88
1743435549.0128949,0.666,-0.383,-0.519,-47.25,-100.31,50.12
1743435549.0328948,0.652,-0.367,-0.576,-54.04,-106.19,56.14
1743435549.0528948,0.634,-0.376,-0.563,-55.37,-114.73,60.06
1743435549.0728948,0.617,-0.374,-0.549,-57.19,-124.04,63.14
1743435549.0928948,0.601,-0.354,-0.543,-58.87,-135.17,71.33
1743435549.1128948,0.577,-0.328,-0.55,-64.54,-150.85,80.29
1743435549.1328948,0.5,-0.317,-0.574,-67.34,-164.71,92.05
1743435549.1528947,0.447,-0.339,-0.634,-66.22,-173.81,98.07
1743435549.1728947,0.393,-0.372,-0.69,-62.51,-181.44,100.03
1743435549.1928947,0.324,-0.42,-0.802,-54.46,-188.51,96.46
1743435549.212895,0.276,-0.415,-0.925,-49.42,-182.98,92.68
1743435549.232895,0.279,-0.402,-0.966,-49.0,-173.04,91.49
1743435549.2528946,0.268,-0.396,-0.973,-51.1,-160.51,90.72
1743435549.2728946,0.238,-0.389,-0.965,-53.27,-134.75,90.93
1743435549.2928946,0.211,-0.36,-0.915,-57.19,-127.96,92.96
1743435549.3128946,0.192,-0.349,-0.882,-59.43,-122.99,96.53
1743435549.3328946,0.107,-0.372,-0.867,-53.27,-127.68,93.31
1743435549.3528943,0.003,-0.42,-0.895,-32.27,-150.29,87.85
1743435549.3728943,-0.035,-0.428,-1.002,-20.3,-155.54,83.3
1743435549.3928945,-0.04,-0.402,-1.073,-18.97,-142.8,82.95
1743435549.4128945,-0.04,-0.38,-1.1,-17.08,-126.28,82.39
1743435549.4328945,-0.058,-0.386,-1.099,-15.26,-108.57,80.29
1743435549.4528944,-0.09,-0.387,-1.077,-16.73,-91.07,77.91
1743435549.4728944,-0.106,-0.367,-1.034,-20.02,-74.83,74.9
1743435549.4928944,-0.136,-0.363,-1.016,-16.17,-64.05,68.81
1743435549.5128944,-0.224,-0.432,-1.009,0.21,-71.33,55.37
1743435549.5328944,-0.263,-0.446,-1.016,20.65,-77.14,48.51
1743435549.5528944,-0.223,-0.374,-1.009,26.74,-79.52,45.57
1743435549.5728943,-0.21,-0.346,-0.988,35.42,-80.29,48.02
1743435549.5928943,-0.213,-0.358,-0.954,45.36,-81.83,48.58
1743435549.6128943,-0.235,-0.389,-0.932,52.5,-85.05,47.04
1743435549.6328945,-0.249,-0.411,-0.935,58.94,-87.36,46.27
1743435549.6528945,-0.27,-0.441,-0.938,57.26,-87.29,42.91
1743435549.6728942,-0.285,-0.439,-0.965,49.42,-78.68,39.55
1743435549.6928942,-0.32,-0.519,-0.967,41.09,-61.11,32.2
1743435549.7128942,-0.327,-0.514,-0.953,33.18,-52.64,24.78
1743435549.7328942,-0.306,-0.487,-0.969,29.33,-39.34,15.19
1743435549.7528942,-0.295,-0.471,-0.982,27.16,-24.22,12.25
1743435549.772894,-0.311,-0.486,-0.951,25.76,-1.47,7.35
1743435549.792894,-0.294,-0.486,-0.924,22.82,7.63,3.85
1743435549.812894,-0.28,-0.485,-0.887,19.81,11.83,1.05
1743435549.832894,-0.264,-0.474,-0.856,20.16,11.27,0.84
1743435549.852894,-0.243,-0.456,-0.833,23.87,6.37,3.22
1743435549.872894,-0.226,-0.452,-0.824,26.25,1.19,7.7
1743435549.892894,-0.226,-0.45,-0.815,35.42,-15.47,15.61
1743435549.912894,-0.276,-0.45,-0.774,40.11,-20.44,21.0
1743435549.932894,-0.265,-0.507,-0.77,29.82,-25.2,16.24
1743435549.952894,-0.192,-0.517,-0.803,26.18,-27.72,10.64
1743435549.972894,-0.181,-0.53,-0.892,21.35,-23.94,6.02
1743435549.992894,-0.234,-0.538,-0.945,26.25,-11.69,3.08
1743435550.012894,-0.266,-0.551,-0.935,26.81,5.53,-2.17
1743435550.032894,-0.245,-0.555,-0.931,26.04,18.27,-9.1
1743435550.052894,-0.223,-0.534,-0.897,16.52,33.95,-13.65
1743435550.072894,-0.203,-0.53,-0.88,20.02,36.54,-10.78
1743435550.0928938,-0.163,-0.496,-0.836,23.45,27.79,-3.43
1743435550.1128938,-0.156,-0.501,-0.816,33.04,20.58,4.41
1743435550.1328938,-0.17,-0.536,-0.837,38.43,6.79,13.16
1743435550.1528938,-0.18,-0.543,-0.881,38.57,3.01,16.1
1743435550.1728938,-0.22,-0.55,-0.907,43.96,7.28,15.96
1743435550.1928935,-0.231,-0.556,-0.873,46.76,15.96,12.53
1743435550.2128935,-0.237,-0.561,-0.813,44.31,23.87,7.7
1743435550.2328937,-0.251,-0.575,-0.785,40.6,29.68,-2.66
1743435550.2528937,-0.262,-0.574,-0.72,29.12,33.53,-7.84
1743435550.2728937,-0.24,-0.557,-0.695,24.36,30.1,-11.69
1743435550.2928936,-0.207,-0.558,-0.695,17.36,29.05,-15.68
1743435550.3128936,-0.168,-0.548,-0.697,11.76,26.18,-14.42
1743435550.3328936,-0.135,-0.539,-0.705,14.56,13.02,-10.22
1743435550.3528936,-0.123,-0.544,-0.715,19.18,0.21,-5.32
1743435550.3728936,-0.139,-0.553,-0.731,22.19,-7.98,0.49
1743435550.3928936,-0.157,-0.577,-0.752,24.99,-10.85,0.0
1743435550.4128935,-0.183,-0.603,-0.78,19.11,-11.55,-2.03
1743435550.4328935,-0.195,-0.595,-0.789,19.95,-15.12,-2.8
1743435550.4528935,-0.217,-0.588,-0.783,22.4,-18.48,-2.52
1743435550.4728937,-0.225,-0.601,-0.762,24.29,-15.82,-6.02
1743435550.4928937,-0.193,-0.617,-0.736,15.4,-13.79,-10.15
1743435550.5128934,-0.171,-0.605,-0.743,8.68,-12.18,-10.64
1743435550.5328934,-0.174,-0.605,-0.766,10.78,-13.79,-8.33
1743435550.5528934,-0.169,-0.597,-0.786,13.86,-17.85,-4.34
1743435550.5728934,-0.184,-0.606,-0.819,24.29,-21.49,-2.52
1743435550.5928934,-0.187,-0.621,-0.829,23.52,-17.36,-2.38
1743435550.612893,-0.201,-0.618,-0.831,23.38,-10.15,-0.98
1743435550.632893,-0.223,-0.63,-0.814,24.22,-1.89,-3.29
1743435550.6528933,-0.194,-0.643,-0.751,23.24,-2.1,-3.5
1743435550.6728933,-0.347,-0.626,-0.642,-6.86,16.1,-27.3
1743435550.6928933,-0.271,-0.657,-0.662,-2.52,25.06,-46.97
1743435550.7128932,-0.212,-0.694,-0.676,-8.26,30.45,-62.72
1743435550.7328932,-0.194,-0.676,-0.723,-51.45,28.35,-67.34
1743435550.7528932,-0.137,-0.59,-0.781,-46.62,16.59,-53.48
1743435550.7728932,-0.114,-0.568,-0.797,-26.95,10.99,-38.57
1743435550.7928932,-0.097,-0.595,-0.811,-14.84,1.4,-31.15
1743435550.8128932,-0.098,-0.607,-0.836,-14.0,1.96,-24.5
1743435550.8328931,-0.158,-0.621,-0.846,-13.23,11.69,-21.84
1743435550.852893,-0.137,-0.636,-0.847,-34.02,38.57,-27.44
1743435550.872893,-0.121,-0.624,-0.825,-42.42,45.15,-35.28
1743435550.892893,-0.129,-0.596,-0.751,-28.49,39.41,-36.75
1743435550.912893,-0.102,-0.577,-0.718,-21.98,24.92,-32.69
1743435550.932893,-0.066,-0.57,-0.705,-30.1,12.25,-30.24
1743435550.952893,-0.109,-0.58,-0.709,-26.04,5.67,-29.89
1743435550.972893,-0.104,-0.598,-0.72,-28.63,0.21,-31.36
1743435550.992893,-0.096,-0.614,-0.769,-26.18,-12.32,-36.33
1743435551.012893,-0.103,-0.606,-0.854,-5.88,-35.14,-34.37
1743435551.032893,-0.088,-0.585,-0.893,18.55,-41.02,-26.32
1743435551.052893,-0.137,-0.579,-0.934,38.92,-42.56,-16.87
1743435551.072893,-0.139,-0.605,-0.889,35.21,-30.87,-15.33
1743435551.092893,-0.087,-0.631,-0.868,17.01,-8.19,-23.73
1743435551.1128929,-0.106,-0.637,-0.845,12.53,0.42,-32.97
1743435551.1328928,-0.126,-0.637,-0.812,18.9,-0.07,-36.68
1743435551.1528928,-0.131,-0.626,-0.785,20.02,-3.43,-37.94
1743435551.1728928,-0.123,-0.612,-0.773,24.43,-11.83,-33.67
1743435551.1928928,-0.104,-0.588,-0.778,25.83,-24.22,-24.64
1743435551.2128928,-0.05,-0.543,-0.785,37.59,-28.91,-6.37
1743435551.2328928,-0.044,-0.588,-0.76,50.96,-38.85,-0.91
1743435551.2528927,-0.032,-0.626,-0.757,57.61,-51.1,1.61
1743435551.2728927,-0.051,-0.643,-0.784,64.54,-60.69,2.1
1743435551.2928927,-0.132,-0.633,-0.847,140.84,-94.01,9.17
1743435551.312893,-0.148,-0.694,-0.762,161.07,-101.78,8.05
1743435551.332893,-0.157,-0.714,-0.711,160.72,-102.41,5.18
1743435551.3528926,-0.189,-0.732,-0.682,138.25,-90.86,0.98
1743435551.3728926,-0.185,-0.735,-0.639,113.75,-71.4,-8.89
1743435551.3928926,-0.161,-0.686,-0.586,40.53,-1.12,-0.07
1743435551.4128926,-0.2,-0.801,-0.693,-4.9,44.66,-29.61
1743435551.4328926,-0.135,-0.755,-0.653,-13.65,40.32,-27.44
1743435551.4528923,-0.133,-0.707,-0.643,1.75,29.82,-21.63
1743435551.4728923,-0.15,-0.751,-0.606,31.78,7.28,-24.64
1743435551.4928925,-0.16,-0.76,-0.598,19.46,7.42,-23.1
1743435551.5128925,-0.164,-0.739,-0.615,-7.07,16.94,-16.87
1743435551.5328925,-0.15,-0.727,-0.653,-1.19,19.39,-14.7
1743435551.5528924,-0.106,-0.734,-0.617,9.38,11.76,-11.48
1743435551.5728924,-0.044,-0.709,-0.588,-6.86,22.05,-21.91
1743435551.5928924,-0.043,-0.766,-0.66,-43.05,47.81,-19.18
1743435551.6128924,-0.037,-0.697,-0.68,6.58,15.4,-7.14
1743435551.6328924,-0.064,-0.723,-0.683,21.63,4.69,0.21
1743435551.6528924,-0.079,-0.766,-0.674,30.17,-1.4,1.75
1743435551.6728923,-0.113,-0.787,-0.651,27.23,2.1,-2.31
1743435551.6928923,-0.118,-0.785,-0.59,13.02,8.82,-7.49
1743435551.7128923,-0.089,-0.778,-0.583,7.07,8.54,-8.12
1743435551.7328925,-0.07,-0.754,-0.597,6.93,0.35,-3.15
1743435551.7528925,-0.073,-0.736,-0.612,13.3,-11.2,4.83
1743435551.7728922,-0.092,-0.76,-0.652,26.88,-20.44,8.82
1743435551.7928922,-0.139,-0.803,-0.63,-3.36,4.76,-14.7
1743435551.8128922,-0.089,-0.818,-0.682,-18.9,27.72,-26.39
1743435551.8328922,-0.073,-0.798,-0.702,-24.71,44.52,-31.64
1743435551.8528922,-0.038,-0.736,-0.636,-40.6,56.28,-32.48
1743435551.872892,-0.122,-0.877,-0.622,-32.55,57.61,-69.58
1743435551.892892,-0.102,-0.848,-0.484,-32.48,54.32,-85.33
1743435551.912892,-0.07,-0.771,-0.554,-69.23,52.99,-77.63
1743435551.932892,-0.004,-0.617,-0.703,-72.24,51.24,-50.33
1743435551.952892,0.046,-0.613,-0.696,-53.69,50.47,-28.7
1743435551.972892,0.037,-0.71,-0.701,-55.72,53.69,-18.41
1743435551.992892,0.01,-0.782,-0.754,-61.81,52.64,-25.13
1743435552.012892,0.016,-0.731,-0.821,-59.78,59.15,-28.84
1743435552.032892,0.051,-0.693,-0.809,-54.11,70.14,-27.86
1743435552.052892,0.057,-0.692,-0.781,-47.11,76.16,-27.44
1743435552.072892,0.072,-0.693,-0.719,-43.4,76.09,-28.35
1743435552.092892,0.068,-0.707,-0.699,-49.91,73.92,-29.68
1743435552.112892,0.083,-0.713,-0.729,-58.03,73.78,-33.25
1743435552.132892,0.092,-0.688,-0.765,-60.06,74.48,-43.33
1743435552.152892,0.108,-0.667,-0.756,-43.26,71.54,-46.06
1743435552.172892,0.137,-0.625,-0.706,-41.93,68.25,-43.75
1743435552.1928918,0.156,-0.61,-0.708,-50.19,66.71,-37.73
1743435552.2128918,0.152,-0.608,-0.717,-50.05,62.3,-33.88
1743435552.2328918,0.174,-0.608,-0.732,-43.61,48.72,-29.75
1743435552.2528918,0.21,-0.609,-0.766,-41.16,45.43,-27.3
1743435552.2728918,0.215,-0.596,-0.785,-42.56,45.08,-22.68
1743435552.2928915,0.223,-0.604,-0.806,-43.4,52.08,-25.27
1743435552.3128915,0.198,-0.616,-0.804,-44.59,64.19,-28.63
1743435552.3328917,0.221,-0.615,-0.78,-50.68,69.09,-32.06
1743435552.3528917,0.243,-0.657,-0.81,-51.73,76.02,-49.0
1743435552.3728917,0.265,-0.618,-0.816,-69.79,89.6,-52.01
1743435552.3928916,0.275,-0.564,-0.83,-75.53,100.03,-50.12
1743435552.4128916,0.305,-0.522,-0.806,-74.62,104.65,-46.69
1743435552.4328916,0.318,-0.515,-0.802,-70.21,102.2,-43.33
1743435552.4528916,0.335,-0.512,-0.797,-65.8,98.0,-40.39
1743435552.4728916,0.357,-0.504,-0.786,-63.63,94.71,-38.57
1743435552.4928916,0.38,-0.486,-0.774,-59.92,91.84,-36.05
1743435552.5128915,0.412,-0.472,-0.785,-58.1,88.2,-30.45
1743435552.5328915,0.427,-0.477,-0.812,-57.47,86.94,-23.94
1743435552.5528915,0.447,-0.471,-0.848,-62.37,96.18,-20.44
1743435552.5728917,0.456,-0.442,-0.863,-86.73,116.48,-17.29
1743435552.5928917,0.427,-0.482,-0.935,-100.1,143.78,-16.66
1743435552.6128914,0.413,-0.463,-0.953,-132.37,185.99,-18.62
1743435552.6328914,0.443,-0.41,-0.919,-154.56,229.67,-14.28
1743435552.6528914,0.471,-0.359,-0.796,-155.75,247.87,-8.05
1743435552.6728914,0.523,-0.314,-0.727,-163.94,245.14,10.5
1743435552.6928914,0.571,-0.294,-0.664,-171.78,231.07,16.59
1743435552.712891,0.597,-0.314,-0.685,-173.67,226.66,16.59
1743435552.732891,0.696,-0.258,-0.567,-140.77,186.76,20.44
1743435552.7528913,0.74,-0.28,-0.567,-106.61,169.96,22.33
1743435552.7728913,0.773,-0.292,-0.603,-95.27,161.07,22.05
1743435552.7928913,0.78,-0.278,-0.694,-94.57,174.44,20.3
1743435552.8128912,0.738,-0.25,-0.804,-97.65,190.4,20.86
1743435552.8328912,0.707,-0.232,-0.772,-100.52,206.99,24.43
1743435552.8528912,0.724,-0.2,-0.665,-105.7,225.89,28.98
1743435552.8728912,0.765,-0.193,-0.532,-109.41,217.07,38.85
1743435552.8928912,0.835,-0.183,-0.261,-112.35,203.35,46.13
1743435552.9128911,0.86,-0.199,-0.357,-111.16,181.65,56.63
1743435552.9328911,0.888,-0.218,-0.355,-105.49,157.78,62.51
1743435552.952891,0.878,-0.215,-0.372,-87.85,149.17,60.97
1743435552.972891,0.822,-0.246,-0.376,-71.96,142.24,56.07
1743435552.992891,0.812,-0.266,-0.347,-55.79,133.84,44.03
1743435553.012891,0.862,-0.254,-0.36,-54.95,130.2,36.96
1743435553.032891,0.902,-0.199,-0.356,-60.62,126.07,45.29
1743435553.052891,0.901,-0.127,-0.35,-58.66,121.31,58.52
1743435553.072891,0.923,-0.218,-0.392,-46.83,128.17,53.13
1743435553.092891,0.933,-0.302,-0.377,-49.35,144.27,38.57
1743435553.112891,0.848,-0.323,-0.254,-45.64,150.15,32.9
1743435553.132891,0.853,-0.245,-0.188,-54.39,151.2,32.55
1743435553.152891,0.96,-0.22,-0.168,-54.6,149.31,37.45
1743435553.172891,0.99,-0.225,-0.104,-49.14,147.35,49.63
1743435553.192891,0.952,-0.248,-0.061,-40.53,132.58,52.85
1743435553.2128909,0.923,-0.308,-0.047,-25.48,109.06,51.52
1743435553.2328908,0.915,-0.333,-0.042,-24.36,100.94,48.09
1743435553.2528908,0.934,-0.338,-0.068,-27.72,98.0,38.5
1743435553.2728908,0.945,-0.322,-0.08,-32.62,103.95,35.84
1743435553.2928908,0.931,-0.309,-0.041,-30.31,108.36,36.33
1743435553.3128908,0.944,-0.331,-0.067,-24.71,130.27,38.78
1743435553.3328907,0.862,-0.374,-0.19,-36.61,178.36,26.88
1743435553.3528907,0.819,-0.393,-0.091,-31.43,204.96,13.93
1743435553.3728907,0.863,-0.339,0.091,-27.58,211.96,12.53
1743435553.3928907,0.878,-0.335,0.195,-27.3,202.93,12.81
1743435553.412891,0.887,-0.34,0.292,-26.6,184.03,18.55
1743435553.432891,0.897,-0.357,0.379,-23.73,144.41,22.54
1743435553.4528906,0.908,-0.366,0.375,-20.72,125.23,24.64
1743435553.4728906,0.895,-0.365,0.338,-13.79,99.26,27.79
1743435553.4928906,0.872,-0.362,0.306,-6.09,84.7,28.84
1743435553.5128906,0.874,-0.371,0.294,1.26,72.45,28.21
1743435553.5328906,0.853,-0.387,0.265,4.41,70.63,26.74
1743435553.5528903,0.832,-0.386,0.249,4.97,74.34,24.36
1743435553.5728903,0.815,-0.399,0.248,5.53,82.88,20.23
1743435553.5928905,0.834,-0.41,0.283,3.57,94.71,17.57
1743435553.6128905,0.873,-0.407,0.346,-2.38,97.86,18.06
1743435553.6328905,0.886,-0.393,0.371,-6.3,97.86,19.25
1743435553.6528904,0.876,-0.385,0.383,-7.56,92.82,21.0
1743435553.6728904,0.864,-0.38,0.397,-4.9,89.11,22.47
1743435553.6928904,0.896,-0.386,0.423,-4.41,86.17,26.25
1743435553.7128904,0.877,-0.383,0.445,-4.83,80.71,29.4
1743435553.7328904,0.845,-0.402,0.47,-1.05,71.26,32.76
1743435553.7528903,0.805,-0.436,0.497,0.35,66.15,32.97
1743435553.7728903,0.768,-0.495,0.52,-0.21,63.7,28.42
1743435553.7928903,0.729,-0.523,0.515,-8.05,60.83,15.61
1743435553.8128903,0.722,-0.526,0.501,-16.45,58.59,6.58
1743435553.8328905,0.766,-0.505,0.503,-21.84,56.14,0.35
1743435553.8528905,0.834,-0.422,0.489,-26.39,53.06,-0.49
1743435553.8728902,0.871,-0.374,0.494,-20.79,45.99,8.75
1743435553.8928902,0.878,-0.338,0.492,-12.39,35.07,18.41
1743435553.9128902,0.843,-0.38,0.469,-2.66,34.44,22.54
1743435553.9328902,0.795,-0.449,0.493,-1.05,34.86,21.77
1743435553.9528902,0.763,-0.479,0.525,-0.77,33.32,18.06
1743435553.97289,0.757,-0.496,0.558,-1.68,29.47,15.12
1743435553.99289,0.756,-0.517,0.564,-8.82,26.6,10.36
1743435554.01289,0.747,-0.493,0.561,-10.43,20.23,7.35
1743435554.03289,0.733,-0.479,0.559,-4.41,12.39,5.6
1743435554.05289,0.734,-0.468,0.565,-3.78,2.31,1.61
1743435554.07289,0.747,-0.465,0.549,-0.98,-8.68,0.49
1743435554.09289,0.719,-0.454,0.535,6.51,-19.88,-0.35
1743435554.11289,0.722,-0.473,0.524,10.5,-23.38,-3.71
1743435554.13289,0.75,-0.471,0.523,10.43,-25.9,-7.98
1743435554.15289,0.785,-0.447,0.528,12.25,-32.41,-6.72
1743435554.17289,0.793,-0.427,0.528,17.64,-35.77,-4.06
1743435554.19289,0.767,-0.476,0.505,18.13,-35.63,-2.24
1743435554.21289,0.735,-0.518,0.463,10.57,-25.83,-10.64
1743435554.23289,0.725,-0.508,0.462,4.06,-19.25,-17.99
1743435554.25289,0.773,-0.461,0.474,-0.42,-15.26,-18.76
1743435554.27289,0.799,-0.431,0.49,0.49,-13.02,-16.52
1743435554.2928898,0.796,-0.424,0.511,4.62,-19.04,-14.0
1743435554.3128898,0.797,-0.429,0.535,7.14,-24.99,-12.74
1743435554.3328898,0.808,-0.441,0.522,7.35,-29.75,-12.11
1743435554.3528898,0.821,-0.422,0.465,6.23,-31.5,-7.56
1743435554.3728898,0.813,-0.397,0.431,8.61,-29.05,-3.43
1743435554.3928895,0.824,-0.409,0.42,12.81,-20.58,-1.68
1743435554.4128897,0.817,-0.439,0.424,8.05,-16.59,-3.71
1743435554.4328897,0.784,-0.428,0.451,4.76,-13.02,-6.3
1743435554.4528897,0.797,-0.422,0.48,4.69,-13.37,-4.83
1743435554.4728897,0.805,-0.413,0.472,3.5,-17.29,-2.66
1743435554.4928896,0.813,-0.396,0.43,2.45,-17.57,-0.21
1743435554.5128896,0.821,-0.392,0.404,3.57,-15.61,1.12
1743435554.5328896,0.832,-0.386,0.41,6.16,-10.99,3.08
1743435554.5528896,0.874,-0.253,0.386,-0.91,-7.0,4.69
1743435554.5728896,0.951,-0.333,0.355,-2.66,5.95,11.76
1743435554.5928895,0.897,-0.35,0.356,6.65,14.14,15.19
1743435554.6128895,0.913,-0.383,0.416,7.14,22.4,12.25
1743435554.6328895,0.856,-0.502,0.581,6.58,25.69,7.14
1743435554.6528895,0.041,-1.27,2.524,-144.41,-444.57,-117.32
1743435554.6728897,0.129,-0.217,1.568,-67.34,-553.14,-106.68
1743435554.6928897,0.486,-0.294,-0.403,-117.53,-465.92,-77.98
1743435554.7128894,0.566,-0.02,-0.617,-54.25,-367.01,-34.58
1743435554.7328894,0.874,-0.363,-0.305,-72.8,-166.11,-33.74
1743435554.7528894,0.848,-0.292,-0.048,-35.7,-165.06,-59.08
1743435554.7728894,1.154,-0.265,-0.174,-25.76,-159.53,-51.87
1743435554.7928894,1.222,-0.282,-0.285,-18.76,-103.67,-46.06
1743435554.812889,1.05,-0.286,-0.273,-0.91,-66.78,-38.15
1743435554.8328893,1.06,-0.201,-0.296,5.74,-8.33,-14.77
1743435554.8528893,1.052,-0.202,-0.27,19.95,33.18,-0.7
1743435554.8728893,0.977,-0.21,-0.159,31.99,63.21,3.92
1743435554.8928893,0.907,-0.285,-0.061,52.15,67.06,2.87
1743435554.9128892,0.931,-0.298,-0.029,58.24,70.0,-0.21
1743435554.9328892,0.949,-0.269,-0.002,63.77,78.12,2.73
1743435554.9528892,0.956,-0.249,0.016,59.64,89.81,8.33
1743435554.9728892,0.793,-0.158,0.134,73.08,104.86,18.76
1743435554.9928892,0.907,-0.414,0.354,46.34,84.84,21.35
1743435555.0128891,0.878,-0.506,0.47,24.01,47.04,-6.51
1743435555.0328891,0.831,-0.494,0.457,14.0,3.92,-20.86
1743435555.052889,0.826,-0.384,0.372,16.73,-33.88,-29.96
1743435555.072889,0.9,-0.303,0.232,27.86,-59.36,-24.43
1743435555.092889,0.979,-0.242,0.046,31.29,-57.61,-15.54
1743435555.112889,1.038,-0.208,-0.039,27.86,-37.8,-4.62
1743435555.132889,1.038,-0.194,-0.125,21.7,-18.48,4.97
1743435555.152889,1.036,-0.214,-0.104,17.22,10.99,10.01
1743435555.172889,1.051,-0.226,-0.084,14.0,29.4,15.26
1743435555.192889,1.053,-0.213,-0.026,9.52,42.77,20.3
1743435555.212889,1.137,-0.274,0.097,12.46,63.21,24.29
1743435555.232889,0.987,-0.333,0.347,23.8,60.06,26.74
1743435555.252889,0.841,-0.422,0.517,26.74,35.49,32.9
1743435555.272889,-0.279,-0.727,3.592,-363.44,-170.94,-81.2
1743435555.2928889,0.71,-0.161,0.956,-73.64,-303.73,-50.54
1743435555.3128889,0.899,-0.209,-0.41,9.66,-291.34,-51.66
1743435555.3328888,1.163,-0.07,-0.874,29.26,-161.28,-8.96
1743435555.3528888,1.056,-0.018,-0.921,22.68,-24.99,4.76
1743435555.3728888,1.369,-0.09,-0.529,44.94,152.88,24.43
1743435555.3928888,0.974,0.035,0.049,55.23,189.63,57.61
1743435555.4128888,0.785,-0.371,0.403,46.62,176.54,59.99
1743435555.4328887,0.723,-0.51,0.551,23.45,150.78,40.04
1743435555.4528887,0.712,-0.68,0.722,5.32,88.41,16.59
1743435555.4728887,0.679,-0.677,0.761,-14.77,23.31,-33.32
1743435555.4928887,0.743,-0.521,0.609,-29.75,-50.82,-44.45
1743435555.512889,0.855,-0.367,0.305,-20.58,-89.88,-38.01
1743435555.532889,1.106,-0.221,0.055,-18.76,-85.89,-29.89
1743435555.5528886,1.057,-0.175,-0.151,-10.22,-67.06,-11.76
1743435555.5728886,1.063,-0.109,-0.28,-8.61,-35.0,-1.12
1743435555.5928886,1.103,-0.064,-0.391,-6.3,18.69,13.09
1743435555.6128886,1.119,-0.13,-0.224,14.56,52.57,24.99
1743435555.6328886,1.102,-0.3,0.102,9.45,68.6,26.39
1743435555.6528883,1.042,-0.36,0.274,0.35,58.24,22.68
1743435555.6728885,0.878,-0.416,0.446,11.55,36.05,24.29
1743435555.6928885,-0.458,-1.529,5.881,-232.96,-369.95,-62.44
1743435555.7128885,0.715,0.337,0.605,38.5,-334.32,-37.1
1743435555.7328885,0.74,-0.516,-0.825,-12.6,-338.03,-24.36
1743435555.7528884,1.2,0.032,-1.2,20.79,-161.77,0.98
1743435555.7728884,1.281,-0.11,-0.982,1.68,22.61,8.26
1743435555.7928884,1.196,-0.208,-0.737,36.61,103.95,6.44
1743435555.8128884,1.079,-0.064,-0.271,52.08,150.22,31.99
1743435555.8328884,0.921,-0.202,-0.006,56.56,172.13,42.56
1743435555.8528883,0.779,-0.238,0.269,49.42,171.85,53.2
1743435555.8728883,0.78,-0.496,0.506,39.06,151.34,31.85
1743435555.8928883,0.773,-0.631,0.693,9.03,85.89,13.02
1743435555.9128883,0.753,-0.626,0.712,-9.66,-0.98,-14.07
1743435555.9328885,0.838,-0.437,0.419,-21.35,-48.3,-32.06
1743435555.9528885,1.145,-0.208,0.041,-14.0,-78.61,-23.52
1743435555.9728882,1.304,-0.044,-0.307,-3.78,-28.42,7.0
1743435555.9928882,1.25,-0.012,-0.407,10.01,21.14,30.45
1743435556.0128882,0.836,-0.598,3.601,18.34,21.84,2.24
1743435556.0328882,0.609,0.217,1.344,112.63,-379.33,-31.92
1743435556.0528882,0.906,-0.452,-0.537,-70.91,-385.49,-28.56
1743435556.072888,1.006,-0.447,-1.256,-56.84,-206.15,-11.83
1743435556.092888,1.187,-0.163,-0.641,7.84,15.47,5.67
1743435556.112888,1.206,-0.216,-0.401,33.88,37.94,16.87
1743435556.132888,1.037,-0.196,-0.462,77.63,66.99,21.0
1743435556.152888,0.974,-0.205,-0.312,98.07,103.39,27.44
1743435556.172888,0.915,-0.343,-0.101,88.34,177.94,26.53
1743435556.192888,0.638,-0.286,-0.006,38.64,212.45,32.97
1743435556.212888,0.556,-0.463,0.304,11.48,226.73,39.97
1743435556.232888,0.634,-0.605,0.618,-13.23,173.95,13.51
1743435556.252888,0.862,-0.552,0.597,-41.37,60.97,-25.27
1743435556.272888,1.266,-0.236,0.31,-19.53,-32.97,-36.12
1743435556.292888,1.246,-0.058,0.113,15.26,-70.49,-17.22
1743435556.312888,0.947,0.003,0.042,47.39,-101.71,-5.11
1743435556.332888,0.3,0.069,1.548,-115.92,-490.91,-21.91
1743435556.352888,0.706,-0.498,-0.218,-104.09,-537.04,-15.75
1743435556.3728878,0.871,-0.272,-0.921,-38.5,-430.29,0.35
1743435556.3928878,0.795,-0.097,-1.029,-4.2,-269.22,7.63
1743435556.4128878,0.865,-0.265,-0.878,35.98,-225.96,-0.21
1743435556.4328878,0.932,-0.476,-0.756,63.0,-164.43,-53.9
1743435556.4528878,0.957,-0.472,-0.646,81.69,-126.21,-86.38
1743435556.4728878,1.004,-0.427,-0.552,97.09,-83.72,-98.77
1743435556.4928875,1.023,-0.343,-0.501,91.56,-25.69,-96.32
1743435556.5128877,0.975,-0.226,-0.559,112.56,19.46,-80.01
1743435556.5328877,0.812,0.221,-0.492,189.63,59.64,-20.3
1743435556.5528877,0.68,-0.039,-0.301,219.73,50.26,14.35
1743435556.5728877,0.851,-0.455,0.219,217.56,-11.62,13.16
1743435556.5928876,1.043,-0.735,0.665,174.51,-93.87,-21.77
1743435556.6128876,1.033,-0.625,0.141,80.43,-193.27,-52.57
1743435556.6328876,0.814,-0.401,-0.273,35.35,-201.25,-53.76
1743435556.6528876,0.687,-0.219,-0.296,31.08,-202.09,-44.38
1743435556.6728876,0.738,-0.366,-0.285,37.66,-196.56,-52.08
1743435556.6928875,0.784,-0.328,-0.349,40.11,-188.37,-53.06
1743435556.7128875,0.895,-0.281,-0.671,39.62,-111.02,-37.94
1743435556.7328875,1.119,-0.233,-1.21,-15.12,97.44,-10.64
1743435556.7528875,1.146,-0.245,-1.569,-57.47,340.62,31.64
1743435556.7728877,1.048,-0.221,-1.548,-97.16,564.83,56.7
1743435556.7928874,0.77,-0.295,-1.267,-177.45,675.22,37.87
1743435556.8128874,0.511,-0.447,-0.931,-185.01,717.43,21.91
1743435556.8328874,0.285,-0.228,-0.468,-175.7,705.11,20.86
1743435556.8528874,0.231,-0.156,-0.102,-144.55,672.14,26.39
1743435556.8728874,0.189,-0.052,0.309,-80.64,552.37,32.9
1743435556.8928874,0.317,-0.858,0.961,-2.73,356.23,25.2
1743435556.912887,0.89,-0.398,1.357,54.46,186.13,15.4
1743435556.9328873,0.825,-0.421,1.679,61.95,-76.09,-49.42
1743435556.9528873,0.741,-0.69,1.376,119.21,-397.88,-120.68
1743435556.9728873,0.676,-0.64,1.39,170.73,-561.4,-168.21
1743435556.9928873,0.675,-0.451,0.837,164.92,-652.54,-160.44
1743435557.0128872,0.684,-0.332,0.511,162.61,-666.47,-125.79
1743435557.0328872,0.669,-0.254,0.318,105.35,-572.67,-70.0
1743435557.0528872,0.901,-0.158,-0.77,71.68,-444.08,-10.64
1743435557.0728872,1.017,-0.243,-1.542,42.21,-143.08,10.01
1743435557.0928872,1.151,-0.234,-2.012,2.31,178.92,2.73
1743435557.1128871,1.099,-0.226,-1.893,-57.19,285.32,-10.15
1743435557.1328871,0.857,-0.159,-1.287,-63.91,420.77,-26.74
1743435557.152887,1.014,0.123,0.286,97.93,319.76,-29.54
1743435557.172887,1.078,-0.092,2.046,143.64,-250.39,-43.54
1743435557.192887,1.116,-0.342,2.768,120.75,-587.93,-37.59
1743435557.212887,0.931,-0.229,1.148,56.56,-721.28,1.47
1743435557.232887,0.625,-0.325,0.205,47.04,-719.32,16.52
1743435557.252887,0.464,-0.268,-0.553,46.62,-556.99,67.2
1743435557.272887,0.132,-0.24,-1.644,105.91,-256.62,60.83
1743435557.292887,0.032,-0.427,-3.322,89.46,-31.01,2.52
1743435557.312887,0.067,-0.484,-3.509,5.81,299.11,-52.71
1743435557.332887,-0.015,-0.412,-3.145,-8.75,505.12,-112.49
1743435557.352887,-0.101,-0.065,-1.978,-63.91,690.62,-101.78
1743435557.372887,0.12,-0.028,-0.535,-195.09,728.77,-82.81
1743435557.3928869,0.513,0.061,0.32,-241.99,574.98,-52.85
1743435557.4128869,0.934,0.041,1.111,-235.9,370.79,-51.31
1743435557.4328868,1.542,0.49,4.323,167.02,-322.84,22.33
1743435557.4528868,0.773,-0.22,1.117,55.65,-470.54,45.64
1743435557.4728868,0.654,-0.313,-0.097,111.09,-438.97,98.77
1743435557.4928868,0.569,-0.383,-0.945,113.96,-195.23,68.39
1743435557.5128868,0.611,-0.681,-1.579,-13.79,8.68,-41.86
1743435557.5328867,0.938,-0.358,-1.763,-109.83,215.81,-83.79
1743435557.5528867,0.992,0.05,-1.142,-214.2,402.15,-62.3
1743435557.5728867,1.051,0.106,-0.368,-250.39,509.39,19.81
1743435557.5928867,1.048,-0.062,0.035,-253.4,442.89,48.79
1743435557.612887,0.872,-0.156,0.485,-188.3,311.92,31.01
1743435557.6328866,0.801,-0.195,0.902,-31.08,30.31,-20.44
1743435557.6528866,0.857,-0.313,1.351,62.02,-155.26,-78.61
1743435557.6728866,1.006,-0.441,1.885,135.17,-387.8,-77.56
1743435557.6928866,0.718,-0.153,1.383,46.76,-634.55,-29.96
1743435557.7128866,0.953,0.183,0.268,45.64,-624.96,57.26
1743435557.7328866,0.991,0.03,-1.238,-39.62,-513.45,131.04
1743435557.7528863,0.499,-0.108,-2.914,-95.69,-249.06,95.55
1743435557.7728865,0.193,-0.109,-3.317,-135.03,277.27,48.58
1743435557.7928865,0.294,0.034,-2.02,-96.6,534.52,27.65
1743435557.8128865,0.549,-0.05,-0.789,-56.49,571.69,17.64
1743435557.8328865,0.301,0.008,0.023,-9.94,305.55,-32.34
1743435557.8528864,0.626,0.033,0.822,145.25,23.66,-70.42
1743435557.8728864,1.284,-0.056,1.203,198.87,-227.01,-46.06
1743435557.8928864,1.39,-0.016,1.125,161.63,-416.57,-21.21
1743435557.9128864,1.236,-0.032,0.828,134.54,-522.48,28.49
1743435557.9328864,0.841,-0.072,-0.014,101.15,-503.51,65.94
1743435557.9528863,0.889,-0.195,-0.803,111.65,-357.84,84.21
1743435557.9728863,1.033,-0.373,-2.006,78.33,-134.82,79.24
1743435557.9928863,0.611,-0.393,-2.649,0.14,88.2,46.27
1743435558.0128863,-0.091,-0.206,-2.215,-67.34,396.69,-0.42
1743435558.0328865,0.264,-0.217,-1.284,-100.24,643.09,-17.01
1743435558.0528862,0.436,-0.294,-0.193,-85.75,635.25,-36.33
1743435558.0728862,0.52,-0.098,0.495,-33.18,272.65,-51.24
1743435558.0928862,0.978,0.02,1.191,99.47,45.71,-46.69
1743435558.1128862,1.105,-0.052,1.349,165.2,-271.81,3.99
1743435558.1328862,1.103,-0.176,1.139,159.32,-470.89,29.54
1743435558.1528862,1.2,-0.28,0.553,88.41,-435.26,54.6
1743435558.172886,1.246,-0.09,-1.364,28.42,-290.99,97.58
1743435558.192886,0.733,-0.053,-1.973,7.7,100.24,102.06
1743435558.212886,0.191,-0.142,-1.674,-32.27,339.85,76.37
1743435558.232886,0.297,-0.297,-0.834,-89.88,481.46,30.66
1743435558.252886,0.89,-0.4,0.143,-126.98,467.25,15.54
1743435558.272886,0.833,-0.064,0.217,-144.06,318.85,54.74
1743435558.292886,0.653,0.078,0.005,-111.23,121.94,82.88
1743435558.312886,0.459,0.094,-0.166,-52.01,54.67,94.15
1743435558.332886,0.886,-0.076,-0.491,-50.19,65.1,81.9
1743435558.352886,1.251,-0.246,-0.845,-36.54,117.88,59.78
1743435558.372886,1.202,-0.185,-0.95,-18.27,218.47,19.67
1743435558.392886,1.027,-0.075,-0.844,17.36,303.03,13.51
1743435558.412886,0.714,0.055,-0.373,70.14,326.41,24.78
1743435558.432886,0.597,-0.006,0.011,97.93,332.15,60.83
1743435558.452886,0.606,-0.201,0.524,80.64,313.04,77.91
1743435558.4728858,0.646,-0.369,0.86,38.85,183.68,77.84
1743435558.4928858,0.732,-0.532,1.079,34.44,88.41,70.98
1743435558.5128858,0.83,-0.558,1.069,48.58,-8.96,71.05
1743435558.5328858,1.133,-0.573,0.873,74.06,-157.08,80.08
1743435558.5528858,1.252,-0.57,0.588,95.48,-203.14,77.14
1743435558.5728858,0.962,-0.519,0.296,150.5,-216.58,75.88
1743435558.5928855,0.842,-0.46,0.135,159.11,-182.21,103.11
1743435558.6128857,0.935,-0.57,0.045,149.45,-149.73,102.83
1743435558.6328857,0.967,-0.684,0.05,119.14,-104.79,80.78
1743435558.6528857,0.906,-0.848,0.125,66.78,-60.06,4.83
1743435558.6728857,0.953,-0.75,0.184,13.79,-18.9,-22.47
1743435558.6928856,0.969,-0.632,0.142,-28.21,17.29,-36.75
1743435558.7128856,0.974,-0.49,0.163,-70.84,52.71,-29.82
1743435558.7328856,1.047,-0.421,-0.065,-57.4,88.06,-24.01
1743435558.7528856,0.839,-0.342,-0.176,-44.94,134.33,-33.39
1743435558.7728856,0.992,-0.64,-1.335,-48.93,630.0,-126.49
1743435558.7928855,0.216,-1.296,-1.107,-199.78,869.89,-305.62
1743435558.8128855,-0.862,-0.62,0.205,-539.77,1313.97,-353.22
1743435558.8328855,-1.0,-0.577,1.431,-514.29,1206.8,-303.8
1743435558.8528855,-0.495,-0.531,2.684,-363.02,862.54,-305.97
1743435558.8728857,0.174,-0.403,3.308,-116.34,-18.55,-300.02
1743435558.8928854,0.641,0.27,2.089,131.88,-363.65,-221.83
1743435558.9128854,0.851,0.352,1.007,284.69,-560.14,-80.64
1743435558.9328854,0.482,0.183,0.772,323.33,-604.03,-12.81
1743435558.9528854,0.366,-0.003,0.715,402.15,-664.09,24.08
1743435558.9728854,0.727,-0.374,1.24,405.3,-708.33,56.42
1743435558.9928854,0.883,-1.195,1.149,342.93,-730.1,-22.19
1743435559.012885,0.78,-0.574,0.698,420.7,-687.47,-17.43
1743435559.0328853,1.055,-0.381,-0.293,318.71,-413.63,-61.25
1743435559.0528853,0.821,-0.68,-1.134,160.16,-137.13,-173.39
1743435559.0728853,0.658,-0.364,-1.144,-54.81,92.54,-314.58
1743435559.0928853,0.562,0.24,-0.531,-109.55,142.73,-294.56
1743435559.1128852,0.76,0.49,0.331,-55.09,-30.31,-241.22
1743435559.1328852,1.221,0.36,1.231,190.89,-268.45,-152.46
1743435559.1528852,1.205,0.35,1.182,261.8,-483.56,-63.7
1743435559.1728852,1.432,0.418,0.432,181.79,-385.28,-3.29
1743435559.1928852,1.774,0.435,0.061,-72.24,-13.02,82.46
1743435559.2128851,1.638,0.348,-0.602,-220.22,287.91,104.58
1743435559.2328851,0.959,0.206,-0.974,-360.92,481.11,76.93
1743435559.252885,0.513,0.208,-0.905,-359.52,545.3,32.62
1743435559.272885,0.301,0.095,-0.473,-331.8,509.6,-11.34
1743435559.292885,0.254,-0.005,0.112,-294.98,403.27,-48.93
1743435559.312885,0.328,-0.007,0.537,-164.22,133.14,-92.33
1743435559.332885,0.508,0.002,0.964,-36.89,-133.0,-139.3
1743435559.352885,0.478,-0.232,2.109,102.76,-312.2,-136.64
1743435559.372885,0.907,0.143,0.977,133.21,-346.64,-87.99
1743435559.392885,1.527,0.268,0.759,50.54,-236.46,-43.89
1743435559.412885,1.843,0.573,0.366,-63.7,-55.37,112.42
1743435559.432885,1.525,0.471,0.051,-141.54,117.81,126.42
1743435559.452885,0.791,0.11,-0.292,-171.92,201.81,98.98
1743435559.472885,0.525,-0.115,-0.192,-155.68,235.69,28.77
1743435559.4928849,0.619,-0.143,0.196,-154.98,226.38,-85.82
1743435559.5128849,0.72,-0.058,0.541,-160.16,156.38,-136.78
1743435559.5328848,1.076,0.182,1.081,-185.43,62.37,-175.0
1743435559.5528848,1.076,0.609,1.168,-197.68,-90.16,-15.54
1743435559.5728848,0.934,0.816,0.537,-88.76,-173.74,75.95
1743435559.5928848,0.891,0.492,0.121,46.97,-188.93,97.23
1743435559.6128848,0.88,0.278,-0.223,97.09,-68.67,125.72
1743435559.6328847,0.869,0.112,0.128,52.08,-3.99,115.36
1743435559.6528847,0.938,-0.01,0.426,24.08,-7.28,64.12
1743435559.6728847,1.019,0.071,0.407,16.66,-33.53,58.17
1743435559.6928847,1.057,0.352,0.126,50.47,-20.65,83.72
1743435559.712885,0.92,0.227,0.065,95.41,21.35,109.97
1743435559.7328846,0.948,0.095,0.023,102.55,150.22,116.27
1743435559.7528846,0.729,-0.562,0.496,13.16,157.15,34.16
1743435559.7728846,0.555,-0.714,1.205,44.8,44.73,-71.33
1743435559.7928846,0.743,-0.553,0.819,78.47,-29.54,-160.58
1743435559.8128846,0.642,-0.163,0.507,94.15,-58.03,-231.42
1743435559.8328846,0.944,0.188,0.557,103.11,-53.83,-213.08
1743435559.8528843,1.041,0.238,0.557,81.06,-42.49,-192.22
1743435559.8728845,1.007,0.169,0.657,77.07,-49.14,-197.75
1743435559.8928845,0.876,-0.027,0.78,105.91,-112.21,-263.55
1743435559.9128845,0.772,-0.244,0.544,226.17,-167.02,-328.93
1743435559.9328845,0.644,-0.102,0.723,284.06,-207.9,-365.4
1743435559.9528844,0.482,0.001,0.886,400.47,-324.94,-406.84
1743435559.9728844,0.556,0.08,0.964,516.6,-431.34,-429.66
1743435559.9928844,0.609,0.345,0.795,580.51,-564.13,-426.51
1743435560.0128844,0.514,0.374,0.03,779.73,-655.13,-424.34
1743435560.0328844,0.313,0.511,-0.179,928.62,-727.58,-386.33
1743435560.0528843,0.122,0.437,-0.599,931.21,-717.43,-330.96
1743435560.0728843,0.35,0.387,-0.642,641.62,-599.27,-281.96
1743435560.0928843,0.45,0.859,-1.796,263.34,-358.47,-119.42
1743435560.1128843,-0.056,0.913,-3.562,-134.75,24.78,92.75
1743435560.1328845,-0.417,0.672,-4.002,-422.45,463.33,245.42
1743435560.1528842,-0.614,0.254,-2.997,-563.64,687.61,283.08
1743435560.1728842,-0.401,0.069,-0.95,-629.65,828.24,246.54
1743435560.1928842,0.241,0.514,0.118,-587.93,780.78,194.81
1743435560.2128842,0.676,1.0,0.717,-457.45,505.05,152.88
1743435560.2328842,1.057,1.454,2.584,-9.8,118.16,114.17
1743435560.252884,1.421,1.339,4.054,462.49,-476.63,126.42
1743435560.272884,0.874,0.766,2.876,495.53,-752.64,152.6
1743435560.292884,0.339,0.479,1.08,483.91,-791.98,206.5
1743435560.312884,-0.011,0.133,0.132,433.65,-680.05,242.76
1743435560.332884,-0.614,-0.648,-0.543,384.02,-691.18,237.02
1743435560.352884,-0.706,-1.045,-1.583,396.62,-698.46,180.53
1743435560.372884,-1.166,-1.229,-3.593,394.45,-509.46,144.13
1743435560.392884,-1.429,-1.259,-4.859,323.47,55.09,107.59
1743435560.412884,-1.797,-0.829,-4.746,-98.42,593.11,68.6
1743435560.432884,-1.661,-0.553,-3.097,-313.6,967.75,53.62
1743435560.452884,-1.578,-0.278,-2.161,-303.38,1063.86,75.25
1743435560.472884,-1.322,-0.081,-0.936,-224.7,1115.73,78.96
1743435560.492884,-0.88,0.365,0.757,-301.63,1117.27,74.06
1743435560.512884,0.172,1.172,2.55,-390.53,1170.05,30.52
1743435560.532884,0.67,-0.542,10.218,54.18,-13.44,-93.94
1743435560.552884,2.021,0.838,8.944,353.85,-815.92,151.27
1743435560.5728838,-0.116,0.244,3.626,318.36,-1198.61,238.28
1743435560.5928838,-0.72,-0.681,1.003,274.26,-1101.73,229.6
1743435560.6128838,-1.383,-1.744,-1.478,267.12,-1031.94,150.71
1743435560.6328838,-1.399,-2.091,-5.157,465.01,-543.83,75.25
1743435560.6528838,-1.834,-1.814,-6.484,268.59,71.05,-25.27
1743435560.6728835,-1.979,-1.071,-5.043,-49.35,724.57,-68.25
1743435560.6928835,-1.403,-0.451,-2.264,-134.05,1067.78,-55.93
1743435560.7128837,-0.864,0.027,-0.407,-145.53,1128.96,-64.12
1743435560.7328837,1.125,0.753,4.676,-87.29,766.36,-99.96
1743435560.7528837,1.97,1.176,6.61,21.49,75.25,-85.61
1743435560.7728837,2.113,1.733,5.733,110.18,-491.4,185.85
1743435560.7928836,0.908,0.919,3.752,135.8,-880.32,233.31
1743435560.8128836,-0.317,-0.244,1.171,42.7,-894.6,233.38
1743435560.8328836,-0.891,-1.221,-0.819,-5.81,-873.95,179.2
1743435560.8528836,-1.521,-2.359,-4.007,-43.26,-627.9,-44.52
1743435560.8728836,-1.774,-1.767,-6.3,-85.05,-151.48,-154.28
1743435560.8928835,-1.076,-0.355,-4.802,-134.68,533.75,-137.13
1743435560.9128835,-0.514,-0.167,-2.818,-155.61,815.36,-60.34
1743435560.9328835,-0.389,-0.535,-1.803,-109.06,837.27,-96.81
1743435560.9528835,-0.346,-0.512,-0.856,-122.43,873.95,-153.93
1743435560.9728837,0.002,0.661,1.485,-118.93,880.39,-190.68
1743435560.9928834,1.433,2.133,5.387,41.72,415.73,-114.24
1743435561.0128834,2.21,2.37,6.84,69.3,-346.36,65.31
1743435561.0328834,1.936,1.545,4.979,118.23,-726.46,226.8
1743435561.0528834,0.446,0.155,2.869,79.66,-837.83,241.43
1743435561.0728834,-0.387,-0.495,0.752,46.83,-900.48,156.59
1743435561.092883,-1.071,-1.494,-1.845,52.64,-943.81,23.38
1743435561.112883,-1.663,-1.823,-5.383,84.07,-485.73,-53.34
1743435561.1328833,-1.683,-0.998,-6.518,42.91,50.26,-134.26
1743435561.1528833,-0.894,-0.064,-4.281,-132.79,942.34,-45.01
1743435561.1728833,-0.484,0.071,-1.906,-269.36,1039.5,7.07
1743435561.1928833,-0.294,-0.619,-0.159,-139.93,923.23,-43.96
1743435561.2128832,1.12,1.055,3.407,-115.92,695.17,-123.13
1743435561.2328832,1.684,1.575,5.679,63.56,236.39,-86.24
1743435561.2528832,2.172,1.764,5.601,112.77,-337.12,220.29
1743435561.2728832,1.399,0.762,4.074,108.57,-712.88,280.0
1743435561.2928832,-0.284,-0.635,1.243,45.64,-879.06,221.48
1743435561.3128831,-0.952,-1.176,-0.796,31.57,-903.63,131.81
1743435561.3328831,-1.531,-1.806,-4.582,94.29,-798.07,-61.46
1743435561.352883,-1.863,-1.239,-6.435,85.61,321.79,-119.63
1743435561.372883,-0.569,0.117,-1.928,-233.45,1009.96,-3.43
1743435561.392883,-0.27,-0.923,0.289,-133.84,907.41,-17.01
1743435561.412883,0.219,-0.69,0.993,-81.83,704.2,-108.71
1743435561.432883,1.165,0.575,3.447,-53.48,573.16,-155.89
1743435561.452883,2.288,2.348,6.203,85.68,-225.96,-87.71
1743435561.472883,2.199,2.196,4.703,129.78,-591.92,151.2
1743435561.492883,0.952,1.257,3.048,145.74,-923.23,300.72
1743435561.512883,-0.118,0.011,2.184,129.99,-997.64,269.15
1743435561.532883,-1.197,-0.663,0.684,58.52,-1066.17,194.18
1743435561.552883,-2.16,-1.556,-1.561,50.54,-1074.99,79.38
1743435561.572883,-2.696,-2.44,-5.829,123.06,-426.65,-92.12
1743435561.5928829,-3.272,-2.183,-7.299,39.06,452.97,-197.82
1743435561.6128829,-2.056,-0.575,-4.376,-105.63,877.8,-176.96
1743435561.6328828,-1.325,-0.124,-2.234,-245.42,1137.5,-81.69
1743435561.6528828,-0.999,-0.716,-0.232,-130.9,1102.71,-131.25
1743435561.6728828,-0.577,-0.436,0.316,-48.86,971.46,-197.96
1743435561.6928828,1.204,1.43,2.761,-148.26,867.79,-188.16
1743435561.7128828,1.819,2.177,6.11,111.44,195.16,-85.89
1743435561.7328827,2.532,2.165,6.06,97.72,-244.02,167.23
1743435561.7528827,1.437,1.007,4.907,156.8,-781.41,245.77
1743435561.7728827,0.027,0.075,2.473,145.11,-1005.62,247.52
1743435561.7928827,-0.923,-0.411,1.213,117.53,-1042.02,208.81
1743435561.812883,-1.499,-1.133,-1.595,89.04,-1020.46,32.13
1743435561.8328826,-2.175,-2.265,-4.733,77.35,-800.66,-97.86
1743435561.8528826,-1.946,-1.032,-5.795,-82.04,629.23,-181.86
1743435561.8728826,-1.29,-0.151,-3.062,-195.44,1026.41,-84.77
1743435561.8928826,-0.932,-0.484,-0.364,-215.04,1069.53,-118.16
1743435561.9128826,-0.508,-0.855,0.765,-91.28,901.88,-191.87
1743435561.9328823,0.372,0.283,1.487,-203.28,837.83,-229.81
1743435561.9528823,1.466,1.521,3.557,-179.41,447.72,-144.69
1743435561.9728825,2.318,2.046,7.0,133.77,-307.65,8.61
1743435561.9928825,2.263,2.07,6.0,175.0,-916.44,207.97
1743435562.0128825,0.53,0.887,2.78,177.8,-1058.54,292.6
1743435562.0328825,-0.289,0.341,1.884,181.72,-1104.81,333.97
1743435562.0528824,-1.041,-0.281,0.675,147.98,-1089.34,318.99
1743435562.0728824,-1.52,-1.036,-0.747,115.08,-974.19,166.53
1743435562.0928824,-2.018,-2.36,-4.409,62.44,-727.09,-26.25
1743435562.1128824,-1.981,-2.286,-6.692,-15.61,5.18,-126.98
1743435562.1328824,-2.195,-1.746,-6.065,-115.15,737.24,-142.59
1743435562.1528823,-1.48,-0.239,-3.343,-254.24,1086.82,-56.14
1743435562.1728823,-1.016,-0.669,-0.076,-205.73,1092.63,-54.6
1743435562.1928823,-0.689,-0.831,1.104,-118.37,946.19,-126.7
1743435562.2128825,0.227,-0.148,1.926,-162.19,796.88,-237.02
1743435562.2328825,1.123,0.935,3.705,-143.64,493.71,-255.85
1743435562.2528822,2.506,1.719,4.917,35.7,-104.86,-184.52
1743435562.2728822,2.165,1.912,3.709,112.91,-696.57,126.49
1743435562.2928822,0.795,1.057,1.492,170.66,-934.71,234.01
1743435562.3128822,0.056,0.321,0.691,194.81,-928.2,255.92
1743435562.3328822,-0.81,-0.665,-0.739,198.52,-829.36,192.92
1743435562.352882,-0.861,-1.177,-1.719,166.88,-714.77,120.54
1743435562.372882,-0.923,-1.792,-3.404,69.16,-449.89,-84.98
1743435562.392882,-1.073,-1.451,-5.106,-20.23,88.62,-146.86
1743435562.412882,-1.246,-0.283,-4.334,-139.58,780.5,-97.93
1743435562.432882,-1.134,-0.298,-1.79,-206.71,1023.68,-30.03
1743435562.452882,-0.924,-0.385,-0.154,-211.75,1091.37,-49.77
1743435562.472882,-0.415,-0.02,1.264,-228.34,1040.76,-94.57
1743435562.492882,0.658,0.61,2.64,-217.84,783.09,-102.62
1743435562.512882,1.461,0.841,4.425,-46.27,417.83,-92.54
1743435562.532882,2.128,0.951,5.224,121.24,-254.66,-62.93
1743435562.552882,1.996,1.086,4.816,214.48,-844.55,94.92
1743435562.572882,0.481,0.486,2.399,304.64,-1068.69,219.66
1743435562.592882,-0.216,0.142,1.602,312.62,-1130.92,261.38
1743435562.612882,-0.803,-0.122,0.682,264.74,-1096.83,242.2
1743435562.632882,-1.095,-0.54,-0.483,187.88,-938.77,150.15
1743435562.652882,-1.443,-1.595,-3.215,58.87,-658.91,61.88
1743435562.6728818,-1.366,-2.251,-5.081,-56.77,-182.49,-105.14
1743435562.6928818,-1.597,-1.754,-5.888,-122.78,551.67,-152.88
1743435562.7128818,-1.641,-0.558,-4.623,-211.68,955.71,-70.91
1743435562.7328818,-1.218,-0.295,-1.676,-231.63,1139.39,-32.41
1743435562.7528818,-0.992,-0.585,0.283,-206.01,1127.77,-52.99
1743435562.7728815,-0.503,-0.489,1.334,-187.46,967.61,-143.22
1743435562.7928815,0.431,0.459,2.299,-221.55,740.88,-173.39
1743435562.8128817,1.619,1.111,4.822,-54.88,435.68,-154.56
1743435562.8328817,2.327,1.27,5.606,135.73,-464.52,-52.64
1743435562.8528817,1.97,1.309,4.228,197.19,-903.42,115.92
1743435562.8728817,0.709,0.881,2.179,226.59,-1065.54,255.71
1743435562.8928816,-0.448,0.057,0.386,247.24,-1036.84,279.86
1743435562.9128816,-0.869,-0.56,-0.742,225.89,-925.4,172.27
1743435562.9328816,-1.021,-1.329,-2.384,138.32,-541.03,-2.52
1743435562.9528816,-1.052,-1.861,-4.114,53.27,-36.26,-117.88
1743435562.9728816,-1.212,-1.331,-5.44,-116.48,325.15,-155.4
1743435562.9928815,-1.224,-0.239,-4.108,-199.99,908.11,-79.66
1743435563.0128815,-1.202,-0.26,-1.548,-244.79,1138.48,-8.89
1743435563.0328815,-0.913,-0.24,0.066,-258.44,1165.92,-18.13
1743435563.0528817,-0.055,0.163,1.615,-300.44,1034.39,-50.82
1743435563.0728817,0.532,0.605,2.669,-276.29,868.07,-55.16
1743435563.0928814,1.358,0.557,4.657,-60.27,335.51,-58.38
1743435563.1128814,1.938,0.56,5.572,136.85,-536.69,10.85
1743435563.1328814,1.264,0.618,3.841,223.72,-914.27,114.31
1743435563.1528814,0.464,0.695,2.385,250.04,-1073.66,236.25
1743435563.1728814,-0.071,0.825,1.821,241.85,-1136.24,297.43
1743435563.192881,-0.626,0.527,1.395,223.16,-1145.83,304.64
1743435563.212881,-1.38,-0.216,0.438,202.02,-1100.82,291.83
1743435563.2328813,-1.572,-0.798,-0.616,123.97,-1006.53,235.9
1743435563.2528813,-1.618,-1.137,-1.395,63.07,-805.35,132.09
1743435563.2728813,-1.679,-2.068,-3.087,40.11,-421.96,30.45
1743435563.2928813,-2.011,-2.21,-5.304,-66.15,96.32,-109.55
1743435563.3128812,-1.813,-1.464,-4.941,-132.51,726.32,-132.65
1743435563.3328812,-1.664,-1.001,-3.071,-158.62,925.75,-138.81
1743435563.3528812,-1.486,-0.84,-2.124,-141.75,1017.03,-174.79
1743435563.3728812,-1.2,-0.234,-0.379,-169.96,1105.3,-184.8
1743435563.3928812,-0.92,0.042,0.265,-201.74,1114.12,-192.08
1743435563.4128811,-0.072,0.849,1.005,-307.09,1082.27,-147.42
1743435563.432881,0.503,1.394,2.465,-340.34,976.99,-96.25
1743435563.452881,1.802,0.967,5.479,25.97,371.35,-57.61
1743435563.472881,2.194,0.792,6.296,154.91,-325.5,-16.73
1743435563.492881,1.35,0.702,4.08,218.54,-854.84,101.64
1743435563.512881,-0.003,0.157,2.079,263.9,-1135.4,231.14
1743435563.532881,-0.859,-0.264,0.108,331.8,-1094.45,261.87
1743435563.552881,-1.235,-0.596,-0.704,302.89,-920.43,211.68
1743435563.572881,-1.146,-1.193,-1.984,210.56,-730.17,60.76
1743435563.592881,-1.111,-1.996,-3.349,14.7,-369.67,-71.75
1743435563.612881,-1.322,-1.892,-4.962,-82.95,133.0,-146.79
1743435563.632881,-1.457,-1.286,-4.688,-142.8,566.86,-153.51
1743435563.652881,-1.399,-0.654,-3.001,-188.93,931.28,-141.4
1743435563.672881,-1.339,-0.672,-1.69,-191.38,1046.36,-144.55
1743435563.6928809,-1.058,-0.583,-0.015,-177.66,1063.79,-162.68
1743435563.7128808,-0.704,-0.058,0.573,-256.2,1046.5,-173.67
1743435563.7328808,-0.325,0.335,1.178,-356.58,1018.15,-136.85
1743435563.7528808,0.077,0.652,1.816,-409.92,831.88,-82.39
1743435563.7728808,1.092,0.556,3.358,-311.43,620.9,-66.01
1743435563.7928808,1.85,0.376,4.701,-0.07,184.03,-61.32
1743435563.8128808,1.892,0.44,4.793,131.25,-366.24,-29.89
1743435563.8328807,1.256,0.605,3.562,309.19,-867.65,52.08
1743435563.8528807,0.27,0.263,1.972,390.53,-1073.31,164.08
1743435563.8728807,0.054,0.073,1.373,443.87,-1097.18,198.59
1743435563.892881,-0.186,-0.265,0.866,485.45,-1050.63,191.24
1743435563.912881,-0.485,-0.447,0.279,437.78,-980.0,170.17
1743435563.9328806,-0.535,-0.793,-0.567,298.55,-880.88,148.19
1743435563.9528806,-0.858,-1.559,-2.028,104.3,-626.36,22.96
1743435563.9728806,-1.03,-1.737,-3.836,17.29,-203.56,-69.51
1743435563.9928806,-0.973,-1.29,-4.165,-100.73,405.23,-101.92
1743435564.0128806,-0.521,-0.77,-2.3,-284.27,594.3,-99.47
1743435564.0328803,-0.099,-0.698,-0.699,-300.37,674.45,-108.92
1743435564.0528803,0.282,-0.576,0.179,-252.84,588.28,-157.64
1743435564.0728805,0.823,0.014,0.904,-226.38,483.14,-166.53
1743435564.0928805,1.53,0.783,1.591,-168.28,316.19,-144.9
1743435564.1128805,1.77,0.952,2.26,-29.12,-32.41,-92.54
1743435564.1328804,1.86,1.068,2.378,83.51,-277.48,30.94
1743435564.1528804,1.454,0.968,1.616,157.01,-593.67,103.11
1743435564.1728804,0.757,0.556,0.075,186.13,-680.75,164.22
1743435564.1928804,0.53,0.407,-0.402,172.55,-648.62,187.74
1743435564.2128804,0.162,0.203,-0.928,100.59,-531.86,175.49
1743435564.2328804,-0.063,-0.107,-1.263,64.82,-399.49,144.62
1743435564.2528803,-0.066,-0.932,-1.886,50.54,-294.84,83.79
1743435564.2728803,-0.219,-1.027,-2.766,15.68,-132.44,35.42
1743435564.2928803,-0.287,-0.865,-3.027,-36.33,97.51,10.43
1743435564.3128805,-0.235,-0.921,-2.82,-68.74,382.34,-29.54
1743435564.3328805,-0.254,-0.955,-2.025,-101.71,462.98,-80.22
1743435564.3528802,-0.259,-0.781,-1.609,-102.41,549.92,-110.88
1743435564.3728802,-0.239,-0.712,-1.19,-102.27,602.91,-148.12
1743435564.3928802,-0.192,-0.545,-0.709,-84.42,611.59,-177.87
1743435564.4128802,0.087,0.076,0.107,-83.44,608.93,-197.54
1743435564.4328802,0.674,0.64,0.523,-139.16,584.36,-191.52
1743435564.45288,1.02,1.138,0.86,-194.39,544.95,-109.9
1743435564.47288,1.39,1.208,1.254,-176.12,285.95,-48.44
1743435564.49288,1.556,0.848,1.678,-11.41,45.71,0.42
1743435564.51288,1.469,0.591,1.377,60.69,-177.03,69.51
1743435564.53288,1.103,0.288,0.696,161.0,-293.72,93.73
1743435564.55288,0.9,0.004,0.27,189.28,-336.98,93.45
1743435564.57288,0.677,-0.142,-0.065,184.66,-307.86,80.22
1743435564.59288,0.597,-0.213,-0.317,147.84,-253.75,40.81
1743435564.61288,0.616,-0.253,-0.347,108.36,-187.53,21.98
1743435564.63288,0.672,-0.286,-0.32,84.28,-150.99,-0.28
1743435564.65288,0.798,-0.198,-0.34,56.28,-120.82,-3.71
1743435564.67288,0.827,-0.124,-0.412,28.21,-89.39,17.15
1743435564.69288,0.832,-0.114,-0.421,11.48,-65.52,-0.21
1743435564.71288,0.807,-0.16,-0.362,-4.34,-34.02,-4.83
1743435564.73288,0.814,-0.193,-0.244,-11.83,-31.5,-13.86
1743435564.75288,0.824,-0.154,-0.267,-14.49,-35.0,-25.83
1743435564.7728798,0.839,-0.077,-0.316,-12.04,-39.06,-31.78
1743435564.7928798,0.868,0.013,-0.344,-11.76,-42.77,-33.32
1743435564.8128798,0.88,0.087,-0.364,-11.9,-46.48,-33.18
1743435564.8328798,0.908,0.13,-0.495,-7.42,-55.3,-30.87
1743435564.8528798,0.941,0.214,-0.471,-0.14,-61.53,-20.79
1743435564.8728795,0.95,0.247,-0.578,0.14,-56.84,-10.29
1743435564.8928795,0.929,0.169,-0.592,1.26,-53.34,-3.15
1743435564.9128797,0.903,0.09,-0.543,3.08,-52.22,-2.17
1743435564.9328797,0.887,0.02,-0.512,5.6,-54.25,-6.3
1743435564.9528797,0.901,0.018,-0.543,10.01,-54.53,-8.68
1743435564.9728796,0.908,0.08,-0.649,1.12,-46.13,-7.28
1743435564.9928796,0.906,0.095,-0.669,0.98,-37.31,-5.46
1743435565.0128796,0.905,0.096,-0.667,-0.7,-26.39,-4.97
1743435565.0328796,0.892,0.092,-0.656,-1.4,-21.91,-4.69
1743435565.0528796,0.881,0.076,-0.602,0.84,-21.28,-5.6
1743435565.0728796,0.889,0.102,-0.635,-1.54,-20.79,-4.55
1743435565.0928795,0.89,0.128,-0.654,-3.57,-17.99,0.91
1743435565.1128795,0.88,0.122,-0.639,0.28,-13.16,5.32
1743435565.1328795,0.861,0.077,-0.596,1.4,-10.92,6.93
1743435565.1528797,0.834,0.048,-0.568,3.15,-10.57,5.39
1743435565.1728797,0.815,0.013,-0.518,5.67,-13.23,2.59
1743435565.1928794,0.809,0.009,-0.499,12.95,-18.9,0.0
1743435565.2128794,0.818,0.044,-0.537,13.72,-20.23,0.07
1743435565.2328794,0.818,0.055,-0.54,11.06,-18.06,1.96
1743435565.2528794,0.808,0.038,-0.535,10.99,-15.75,2.03
1743435565.2728794,0.803,0.012,-0.538,11.27,-8.61,-1.19
1743435565.292879,0.809,0.002,-0.495,8.12,-8.96,-6.09
1743435565.312879,0.801,0.025,-0.523,6.02,-9.31,-7.7
1743435565.3328793,0.811,0.041,-0.565,10.43,-7.35,-7.91
1743435565.3528793,0.834,0.063,-0.548,8.61,-4.34,-6.37
1743435565.3728793,0.839,0.068,-0.534,7.42,-4.13,-5.95
1743435565.3928792,0.858,0.076,-0.549,4.62,-3.29,-4.06
1743435565.4128792,0.867,0.101,-0.604,-7.42,3.29,0.56
1743435565.4328792,0.858,0.088,-0.583,-15.47,7.49,2.45
1743435565.4528792,0.861,0.051,-0.512,-11.41,3.64,1.19
1743435565.4728792,0.862,0.06,-0.518,-10.01,2.24,1.19
1743435565.4928792,0.863,0.063,-0.515,-7.77,0.77,1.12
1743435565.5128791,0.865,0.062,-0.514,-7.49,-0.91,0.14
1743435565.532879,0.859,0.06,-0.508,0.21,-6.51,-0.49
1743435565.552879,0.866,0.076,-0.526,2.66,-7.7,-0.21
1743435565.572879,0.869,0.087,-0.568,-1.82,-3.85,1.96
1743435565.592879,0.855,0.081,-0.57,-2.17,1.05,3.15
1743435565.612879,0.843,0.047,-0.528,0.35,2.45,2.31
1743435565.632879,0.835,0.033,-0.511,3.15,0.21,1.33
1743435565.652879,0.825,0.032,-0.505,7.07,-2.59,-0.7
1743435565.672879,0.839,0.046,-0.549,0.98,-3.43,-1.54
1743435565.692879,0.835,0.069,-0.56,-1.47,-2.1,-1.12
1743435565.712879,0.847,0.066,-0.536,0.42,-2.66,0.56
1743435565.732879,0.836,0.048,-0.542,0.91,-2.03,0.77
1743435565.752879,0.816,0.034,-0.539,1.12,-1.33,-1.19
1743435565.772879,0.805,0.017,-0.509,5.74,-5.81,-4.27
1743435565.7928789,0.803,0.02,-0.501,9.17,-10.78,-6.3
1743435565.8128788,0.804,0.025,-0.514,12.18,-14.63,-8.4
1743435565.8328788,0.823,0.072,-0.551,10.57,-14.7,-6.58
1743435565.8528788,0.836,0.095,-0.571,4.76,-9.8,-4.2
1743435565.8728788,0.852,0.088,-0.571,2.17,-6.09,-0.84
1743435565.8928788,0.841,0.071,-0.578,-2.17,-2.87,0.63
1743435565.9128788,0.825,0.047,-0.57,-3.08,0.91,-0.77
1743435565.9328787,0.837,0.05,-0.566,-8.82,4.62,-1.54
1743435565.9528787,0.848,0.062,-0.559,-10.99,5.67,-0.35
1743435565.9728787,0.848,0.06,-0.536,-9.73,3.85,-0.35
1743435565.992879,0.844,0.053,-0.513,-4.06,-1.4,-1.33
1743435566.012879,0.836,0.047,-0.523,0.28,-3.71,-2.66
1743435566.0328786,0.839,0.064,-0.536,0.21,-3.92,-3.92
1743435566.0528786,0.859,0.09,-0.531,0.91,-5.04,-0.56
1743435566.0728786,0.877,0.121,-0.532,0.98,-6.16,3.78
1743435566.0928786,0.867,0.101,-0.503,0.77,-10.01,5.74
1743435566.1128786,0.859,0.065,-0.481,6.79,-21.63,5.67
1743435566.1328783,0.849,0.059,-0.494,10.08,-23.31,5.74
1743435566.1528783,0.847,0.064,-0.51,7.07,-24.08,6.23
1743435566.1728785,0.835,0.048,-0.503,7.7,-25.06,5.95
1743435566.1928785,0.817,0.025,-0.514,9.73,-26.67,3.99
1743435566.2128785,0.806,0.02,-0.524,11.76,-27.93,2.24
1743435566.2328784,0.821,0.048,-0.539,7.49,-27.09,2.94
1743435566.2528784,0.836,0.088,-0.534,3.01,-27.16,5.25
1743435566.2728784,0.847,0.112,-0.495,4.2,-30.66,11.2
1743435566.2928784,0.861,0.133,-0.467,9.38,-53.34,16.24
1743435566.3128784,0.851,0.104,-0.471,14.98,-69.23,22.75
1743435566.3328784,0.813,-0.114,-0.61,21.21,-63.21,21.56
1743435566.3528783,0.729,-0.729,-1.377,20.86,11.13,-44.66
1743435566.3728783,0.401,-0.57,-2.277,-23.03,246.82,-75.6
1743435566.3928783,0.191,-0.348,-3.003,-97.23,538.44,-90.93
1743435566.4128785,-0.163,0.012,-2.213,-342.79,867.72,-79.66
1743435566.4328785,-0.188,-0.007,-1.198,-392.49,982.73,-67.97
1743435566.4528782,-0.018,0.039,-0.215,-407.82,1010.45,-47.39
1743435566.4728782,0.081,0.069,0.823,-416.5,876.82,-26.81
1743435566.4928782,0.275,0.052,1.156,-415.66,759.29,-12.18
1743435566.5128782,0.333,-0.001,1.456,-412.02,657.86,7.42
1743435566.5328782,0.411,-0.313,1.676,-366.31,450.52,-0.42
1743435566.552878,0.408,-0.43,1.882,-234.43,235.06,-51.66
1743435566.572878,0.8,-0.21,1.782,-114.73,93.8,-75.95
1743435566.592878,1.058,0.453,1.738,-43.4,-88.27,-49.56
1743435566.612878,1.341,0.889,1.882,46.97,-243.88,-11.83
1743435566.632878,1.407,0.98,2.183,183.47,-557.62,73.01
1743435566.652878,1.099,0.761,2.514,361.76,-721.49,161.0
1743435566.672878,0.827,0.205,2.573,422.1,-892.15,200.41
1743435566.692878,0.585,-0.035,2.416,437.99,-1009.12,231.84
1743435566.712878,0.228,-0.449,2.114,409.99,-1019.9,235.34
1743435566.732878,-0.242,-0.641,1.17,380.52,-990.43,224.21
1743435566.752878,-0.652,-0.744,0.342,330.96,-907.48,206.43
1743435566.772878,-0.85,-0.951,-0.676,259.35,-778.26,157.5
1743435566.792878,-0.812,-1.182,-2.334,93.73,-480.41,113.05
1743435566.812878,-0.806,-1.02,-3.436,-89.88,-214.69,59.57
1743435566.832878,-0.651,-0.725,-3.703,-269.08,244.58,21.84
1743435566.852878,-0.25,-0.43,-2.776,-329.07,489.51,5.95
1743435566.8728778,-0.029,-0.155,-1.838,-336.56,579.95,-4.06
1743435566.8928778,0.667,-0.31,-0.645,-138.81,476.35,-20.44
1743435566.9128778,0.687,-0.117,-1.224,-116.62,474.6,-11.55
1743435566.9328778,0.443,0.023,-1.693,-126.77,570.64,29.96
1743435566.9528778,0.04,0.152,-1.5,-158.41,718.69,47.67
1743435566.9728775,-0.09,0.104,-0.318,-210.98,816.34,63.56
1743435566.9928775,-0.151,-0.039,0.171,-198.1,792.05,58.45
1743435567.0128777,-0.078,-0.281,0.788,-157.08,683.27,31.15
1743435567.0328777,0.247,-0.207,1.828,-81.97,500.29,-17.64
1743435567.0528777,1.17,0.439,3.175,55.58,109.97,-27.65
1743435567.0728776,1.465,0.612,3.506,136.57,-124.11,10.36
1743435567.0928776,1.346,0.395,3.497,256.48,-501.76,86.03
1743435567.1128776,0.922,0.038,3.003,285.74,-756.84,132.58
1743435567.1328776,0.289,-0.467,2.296,241.92,-871.78,132.93
1743435567.1528776,0.109,-0.545,1.928,175.07,-900.2,113.47
1743435567.1728776,0.0,-0.392,1.376,119.0,-884.66,93.31
1743435567.1928775,-0.084,-0.222,1.063,63.84,-844.83,109.13
1743435567.2128775,-0.369,0.013,0.553,-16.59,-819.0,136.85
1743435567.2328775,-0.719,-0.193,-0.294,-37.94,-801.92,151.2
1743435567.2528777,-0.933,-0.77,-1.279,-29.05,-710.57,100.73
1743435567.2728777,-1.151,-1.574,-3.46,-29.19,-373.38,-40.67
1743435567.2928774,-1.981,-1.228,-7.032,-74.13,266.14,-127.4
1743435567.3128774,-2.18,-0.058,-4.819,-62.37,745.64,-59.92
1743435567.3328774,-1.409,-0.193,-2.202,-119.21,961.03,-22.82
1743435567.3528774,-1.1,-0.854,-1.161,-62.02,936.46,-102.13
1743435567.3728774,-0.87,-0.73,-0.555,9.45,845.88,-169.47
1743435567.392877,-0.976,-0.227,-0.27,3.22,852.53,-217.84
1743435567.412877,-0.988,0.168,0.449,-25.41,841.4,-229.18
1743435567.4328773,-0.531,1.097,1.303,-72.31,861.0,-219.94
1743435567.4528773,0.256,1.784,2.757,-256.41,819.21,-163.1
1743435567.4728773,1.139,1.707,3.884,-218.33,682.5,-65.66
1743435567.4928772,2.382,1.302,4.695,-78.75,7.63,3.15
1743435567.5128772,2.354,1.182,4.239,64.05,-283.92,89.74
1743435567.5328772,1.3,0.687,3.626,212.87,-601.79,189.35
1743435567.5528772,0.52,0.056,2.9,282.87,-788.69,243.46
1743435567.5728772,0.302,-0.4,2.361,268.73,-832.79,230.79
1743435567.5928771,0.28,-0.49,1.996,216.02,-747.95,189.14
1743435567.6128771,0.478,-0.305,1.409,41.44,-690.48,167.02
1743435567.632877,0.362,-0.058,1.237,-55.93,-627.27,170.24
1743435567.652877,0.37,0.023,1.118,-103.46,-625.66,190.26
1743435567.672877,0.093,0.077,0.908,-159.81,-655.06,206.64
1743435567.692877,-0.772,0.051,0.235,-130.13,-752.85,217.91
1743435567.712877,-1.095,-0.032,-0.507,-64.26,-772.59,211.96
1743435567.732877,-1.358,-0.341,-0.906,-37.03,-765.87,137.55
1743435567.752877,-1.824,-0.962,-2.462,12.95,-655.55,44.24
1743435567.772877,-2.455,-1.311,-5.261,38.01,-271.04,-35.56
1743435567.792877,-2.591,-1.06,-5.793,31.22,188.51,-53.62
1743435567.812877,-2.729,-0.651,-4.596,-25.62,492.45,-56.35
1743435567.832877,-2.153,-0.712,-2.973,-105.28,778.19,-101.5
1743435567.852877,-1.801,-0.9,-1.506,-44.03,764.82,-193.62
1743435567.872877,-1.556,-0.906,-1.229,-6.65,723.38,-300.51
1743435567.8928769,-1.306,-0.386,-0.99,-3.15,730.8,-338.94
1743435567.9128768,-0.982,0.105,-0.744,2.59,722.96,-347.34
1743435567.9328768,-0.557,1.336,-0.468,-70.49,822.5,-267.96
1743435567.9528768,-0.299,1.648,-0.355,-142.03,935.97,-176.75
1743435567.9728768,-0.247,1.622,0.131,-251.72,1039.43,-55.3
1743435567.9928768,-0.317,1.317,0.522,-300.72,1089.41,108.71
1743435568.0128767,-0.474,0.914,1.344,-234.43,1036.84,194.04
1743435568.0328767,-0.356,0.707,2.573,-102.55,834.33,235.76
1743435568.0528767,0.134,0.352,3.807,71.19,352.87,229.46
1743435568.0728767,0.545,-0.247,4.849,180.46,-27.86,191.45
1743435568.092877,0.518,-0.506,4.667,216.79,-425.32,143.15
1743435568.112877,0.308,-0.549,3.919,172.83,-651.84,135.87
1743435568.1328766,0.216,-0.531,3.067,122.64,-739.06,114.1
1743435568.1528766,0.31,-0.443,2.525,43.82,-746.83,103.25
1743435568.1728766,0.446,-0.335,1.993,-62.23,-696.85,99.75
1743435568.1928766,0.53,-0.02,1.621,-140.91,-641.34,121.24
1743435568.2128766,0.516,0.24,1.444,-202.58,-626.36,145.11
1743435568.2328763,0.343,0.145,1.315,-222.74,-652.89,157.29
1743435568.2528763,-0.049,0.093,1.042,-214.13,-694.05,161.28
1743435568.2728765,-0.418,0.053,0.787,-180.18,-744.73,158.9
1743435568.2928765,-0.857,0.05,0.582,-120.47,-796.74,149.59
1743435568.3128765,-1.128,0.236,0.206,-67.9,-860.37,139.79
1743435568.3328764,-1.777,0.202,-0.748,17.15,-918.61,122.99
1743435568.3528764,-2.503,-0.058,-2.091,48.65,-908.6,74.13
1743435568.3728764,-2.767,-0.763,-4.596,78.47,-610.4,20.3
1743435568.3928764,-3.377,-1.017,-5.292,40.88,-4.06,-15.05
1743435568.4128764,-3.282,-0.657,-4.525,-46.2,311.29,-26.81
1743435568.4328763,-2.423,-0.669,-2.763,-171.64,597.73,-60.48
1743435568.4528763,-2.018,-0.954,-1.371,-147.0,557.9,-169.61
1743435568.4728763,-1.57,-0.996,-0.877,9.73,436.52,-285.74
1743435568.4928763,-1.22,-0.64,-1.288,38.85,396.41,-355.18
1743435568.5128765,-1.042,-0.07,-1.551,34.72,408.03,-390.18
1743435568.5328765,-0.819,0.345,-1.551,50.26,475.72,-381.85
1743435568.5528762,-0.751,0.546,-1.371,51.94,569.59,-353.57
1743435568.5728762,-0.915,0.778,-0.797,1.61,729.68,-323.33
1743435568.5928762,-0.786,1.046,-0.004,-43.82,812.56,-296.31
1743435568.6128762,-0.326,1.472,0.472,-82.25,877.24,-214.69
1743435568.6328762,0.004,1.688,0.837,-148.05,907.76,-97.51
1743435568.652876,-0.036,1.781,1.477,-214.06,919.52,49.42
1743435568.672876,-0.243,1.668,1.856,-217.14,891.73,202.23
1743435568.692876,-0.51,1.228,2.305,-163.38,829.08,287.91
1743435568.712876,-0.678,0.6,2.803,-33.81,747.46,318.64
1743435568.732876,-0.195,-0.447,4.45,71.54,568.19,279.37
1743435568.752876,-0.048,-0.856,4.833,47.18,216.86,205.45
1743435568.772876,-0.074,-0.995,4.779,18.62,-16.66,102.48
1743435568.792876,-0.225,-0.991,3.841,6.65,-316.26,13.09
1743435568.812876,0.124,-0.601,2.462,-18.48,-372.68,-32.76
1743435568.832876,0.222,-0.258,2.074,-45.99,-338.87,-23.8
1743435568.852876,0.624,-0.146,1.797,-118.93,-311.01,12.18
1743435568.872876,0.594,-0.097,1.768,-133.07,-303.45,25.06
1743435568.892876,0.898,-0.151,1.896,-166.53,-324.03,34.65
1743435568.912876,0.957,-0.169,2.181,-196.98,-385.28,14.91
1743435568.932876,0.918,0.004,2.472,-203.35,-597.73,-0.91
1743435568.952876,0.833,0.2,2.684,-210.35,-761.18,-4.34
1743435568.9728758,0.291,0.611,2.542,-181.16,-976.85,14.56
1743435568.9928758,-0.214,0.946,2.176,-170.87,-1085.56,55.86
1743435569.0128758,-0.964,1.17,1.7,-161.35,-1203.37,131.11
1743435569.0328758,-1.445,1.357,1.269,-144.27,-1248.38,212.17
1743435569.0528758,-2.257,1.498,0.629,11.27,-1239.35,307.65
1743435569.0728755,-2.809,1.511,0.218,161.0,-1186.5,334.95
1743435569.0928757,-3.049,1.319,0.044,193.62,-1168.79,336.84
1743435569.1128757,-3.369,0.753,-0.289,194.46,-1068.34,330.54
1743435569.1328757,-3.67,0.135,-1.324,132.02,-993.16,336.21
1743435569.1528757,-3.965,-0.818,-2.36,242.83,-753.55,295.54
1743435569.1728756,-4.241,-1.837,-3.257,321.93,-445.69,134.89
1743435569.1928756,-4.28,-2.344,-3.337,154.84,33.53,-12.25
1743435569.2128756,-3.999,-1.824,-2.414,-190.47,460.46,-110.81
1743435569.2328756,-3.479,-1.258,-2.069,-251.3,609.7,-196.56
1743435569.2528756,-2.957,-0.776,-1.502,-256.06,700.49,-213.78
1743435569.2728755,-2.759,-0.846,-1.444,-146.02,667.38,-297.64
1743435569.2928755,-2.442,-0.566,-1.697,-40.95,638.89,-387.87
1743435569.3128755,-2.234,-0.222,-1.769,14.42,678.09,-436.1
1743435569.3328755,-2.051,0.087,-1.653,37.1,752.15,-447.44
1743435569.3528757,-2.004,0.317,-1.298,50.12,808.08,-449.19
1743435569.3728757,-1.994,1.039,-0.441,22.54,987.56,-443.1
1743435569.3928754,-1.834,1.632,-0.052,-12.18,1103.34,-396.97
1743435569.4128754,-1.481,1.998,0.442,-77.56,1216.95,-304.99
1743435569.4328754,-1.352,2.16,0.914,-98.7,1297.94,-95.13
1743435569.4528754,-1.415,1.767,1.763,-50.54,1347.08,68.6
1743435569.4728754,-1.435,1.392,2.477,31.01,1213.38,153.44
1743435569.492875,-1.361,0.953,3.452,54.46,1103.9,188.86
1743435569.5128753,-1.108,0.482,4.654,78.96,825.02,203.91
1743435569.5328753,-0.339,-0.328,5.736,82.95,436.31,120.75
1743435569.5528753,-0.018,-0.655,5.72,48.02,21.14,48.65
1743435569.5728753,-0.368,-0.646,4.332,16.66,-390.39,-26.6
1743435569.5928752,-0.571,-0.544,2.824,46.41,-465.92,-63.14
1743435569.6128752,-0.582,-0.529,1.744,47.46,-430.78,-70.7
1743435569.6328752,-0.202,-0.567,1.32,16.45,-341.46,-73.71
1743435569.6528752,0.236,-0.411,1.26,-51.59,-224.0,-50.05
1743435569.6728752,0.554,-0.27,1.465,-156.66,-151.69,-42.49
1743435569.6928751,0.953,-0.221,1.911,-207.9,-185.15,-40.74
1743435569.7128751,1.083,-0.093,2.092,-218.68,-253.47,-42.07
1743435569.732875,1.238,0.045,2.503,-206.64,-443.52,-45.36
1743435569.752875,1.18,0.1,2.586,-182.21,-639.17,-45.78
1743435569.772875,0.682,0.265,2.528,-149.38,-792.75,-46.76
1743435569.792875,0.201,0.541,2.203,-134.89,-1001.84,-5.39
1743435569.812875,-0.171,0.722,1.709,-123.2,-1091.72,65.45
1743435569.832875,-0.86,0.929,1.261,-119.63,-1186.01,122.29
1743435569.852875,-1.613,1.114,0.509,-96.95,-1179.99,202.37
1743435569.872875,-1.929,1.136,0.165,-14.91,-1120.28,237.3
1743435569.892875,-2.174,1.12,-0.116,133.07,-1083.25,254.03
1743435569.912875,-2.383,0.887,-0.038,217.56,-1100.68,272.02
1743435569.932875,-2.678,0.675,-0.458,190.54,-1102.01,312.69
1743435569.952875,-3.063,0.359,-1.057,136.01,-956.06,328.72
1743435569.9728749,-3.292,-0.201,-1.636,146.09,-695.73,302.33
1743435569.9928749,-3.451,-1.109,-2.29,188.44,-381.29,214.34
1743435570.0128748,-3.782,-1.986,-2.956,105.35,-155.82,48.44
1743435570.0328748,-3.881,-2.176,-3.062,-26.04,239.61,-89.88
1743435570.0528748,-3.675,-1.688,-2.724,-207.83,539.56,-177.31
1743435570.0728748,-3.261,-1.198,-1.75,-247.87,629.58,-230.09
1743435570.0928748,-2.861,-1.04,-1.524,-211.4,667.8,-298.9
1743435570.1128747,-2.78,-0.965,-1.68,-124.88,670.81,-381.92
1743435570.1328747,-2.669,-0.523,-1.707,-91.42,728.56,-462.35
1743435570.1528747,-2.266,0.186,-1.452,-92.54,839.51,-455.0
1743435570.1728747,-1.889,0.749,-1.09,-111.09,998.2,-404.74
1743435570.192875,-1.882,0.953,-0.79,-115.64,1083.74,-365.19
1743435570.212875,-1.867,1.208,-0.048,-129.92,1193.22,-253.4
1743435570.2328746,-1.611,1.538,0.484,-143.71,1353.31,-185.15
1743435570.2528746,-1.338,1.661,1.057,-156.1,1413.3,-83.93
1743435570.2728746,-1.233,1.416,1.784,-83.93,1394.68,76.23
1743435570.2928746,-1.134,1.163,2.403,-34.23,1194.13,159.6
1743435570.3128746,-0.904,0.767,2.878,-5.39,1038.38,208.18
1743435570.3328743,-0.661,0.08,3.75,34.3,783.93,193.48
1743435570.3528745,-0.187,-0.319,4.574,63.77,494.62,158.06
1743435570.3728745,0.053,-0.54,4.859,61.39,-2.45,77.49
1743435570.3928745,0.075,-0.615,4.396,56.21,-257.11,25.76
1743435570.4128745,-0.183,-0.335,2.786,65.1,-370.37,-0.35
1743435570.4328744,-0.227,-0.384,1.975,77.21,-416.36,-6.37
1743435570.4528744,-0.146,-0.488,1.396,57.19,-370.79,-4.97
1743435570.4728744,0.168,-0.545,1.205,-9.66,-285.88,-2.45
1743435570.4928744,0.363,-0.529,1.133,-76.65,-215.53,-0.28
1743435570.5128744,0.626,-0.457,1.227,-132.79,-169.19,-2.52
1743435570.5328743,0.752,-0.358,1.435,-166.67,-190.19,-24.5
1743435570.5528743,0.915,-0.24,1.597,-171.15,-291.34,-32.97
1743435570.5728743,1.168,0.064,1.805,-161.21,-409.29,-31.5
1743435570.5928743,1.021,0.249,1.817,-138.39,-622.09,-23.38
1743435570.6128745,0.92,0.406,1.765,-106.54,-759.01,19.32
1743435570.6328745,0.621,0.548,1.689,-65.38,-922.6,59.85
1743435570.6528742,0.095,0.725,1.418,-59.99,-1002.26,96.53
1743435570.6728742,-0.492,0.888,1.158,-61.81,-1092.7,162.19
1743435570.6928742,-1.02,0.978,0.829,-39.9,-1133.86,243.88
1743435570.7128742,-1.618,0.974,0.677,-6.51,-1149.19,272.23
1743435570.7328742,-2.266,0.791,0.475,65.1,-1150.66,300.65
1743435570.752874,-2.578,0.57,0.282,88.06,-1137.36,283.71
1743435570.772874,-2.893,0.264,-0.118,46.69,-1098.37,252.84
1743435570.792874,-3.324,-0.419,-0.916,132.65,-919.1,222.39
1743435570.812874,-3.881,-1.888,-2.899,222.18,-761.46,156.38
1743435570.832874,-4.71,-2.796,-4.572,168.7,-419.51,-92.33
1743435570.852874,-4.557,-2.34,-4.565,21.56,493.01,-238.14
1743435570.872874,-3.994,-1.034,-3.706,-337.19,920.78,-280.0
1743435570.892874,-3.238,-0.397,-2.144,-280.84,1037.4,-280.49
1743435570.912874,-2.845,-0.243,-1.641,-142.17,1074.43,-291.69
1743435570.932874,-2.742,-0.145,-1.294,-80.29,1072.4,-318.5
1743435570.952874,-2.645,0.014,-1.048,-10.99,1129.87,-332.29
1743435570.972874,-2.582,0.789,-0.039,-60.06,1235.43,-296.31
1743435570.992874,-2.632,1.111,0.323,-40.6,1355.62,-242.41
1743435571.012874,-2.699,1.467,1.264,11.69,1504.51,-194.81
1743435571.032874,-2.223,1.547,2.439,55.16,1498.49,-104.65
1743435571.0528738,-1.085,1.892,3.432,6.37,1384.81,-3.85
1743435571.0728738,-0.513,1.528,4.022,-56.49,1197.98,206.71
1743435571.0928738,0.387,0.76,5.434,1.89,803.18,232.54
1743435571.1128738,0.919,-0.554,7.015,94.57,30.24,166.18
1743435571.1328738,-0.071,-0.64,4.892,111.37,-601.51,70.49
1743435571.1528738,-0.683,-0.118,3.191,189.91,-892.64,40.04
1743435571.1728735,-0.543,-0.101,2.109,224.63,-893.97,44.66
1743435571.1928737,-0.196,-0.107,1.758,184.52,-748.79,83.23
1743435571.2128737,0.683,0.08,1.85,4.97,-642.18,144.62
1743435571.2328737,0.839,0.173,2.143,-82.32,-607.6,228.69
1743435571.2528737,0.9,0.127,2.655,-165.9,-674.24,253.68
1743435571.2728736,0.433,0.162,2.745,-189.0,-944.86,256.34
1743435571.2928736,-0.829,0.486,2.052,-192.36,-1120.56,277.97
1743435571.3128736,-1.521,0.587,1.26,-166.11,-1195.53,296.66
1743435571.3328736,-2.237,0.573,0.523,-102.97,-1233.26,260.4
1743435571.3528736,-2.845,0.531,-0.969,-96.6,-1197.35,261.17
1743435571.3728735,-5.841,-2.766,-6.985,137.69,-627.13,13.93
1743435571.3928735,-6.946,-2.124,-9.005,-12.25,249.34,-183.33
1743435571.4128735,-4.9,-0.509,-4.717,-104.44,1092.63,-147.56
1743435571.4328735,-3.616,-0.327,-1.794,-77.56,1137.22,-162.12
1743435571.4528737,-2.77,-0.582,-0.532,15.75,1039.36,-350.77
1743435571.4728734,-2.24,0.485,0.09,-29.47,1125.18,-433.86
1743435571.4928734,-1.151,2.148,1.565,-56.98,1158.85,-436.52
1743435571.5128734,0.724,2.791,4.894,177.66,1042.93,-382.41
1743435571.5328734,4.128,4.191,8.456,217.63,305.69,-53.69
1743435571.5528734,4.099,3.197,7.412,372.89,-543.69,347.34
1743435571.5728734,1.926,0.978,5.928,412.86,-902.72,579.04
1743435571.592873,0.309,-0.039,3.953,271.95,-951.86,521.99
1743435571.6128733,-0.093,-1.149,1.421,58.66,-793.24,385.98
1743435571.6328733,-0.207,-0.773,1.078,-136.29,-678.86,335.16
1743435571.6528733,-0.645,-0.545,0.2,-296.87,-599.13,339.57
1743435571.6728733,-1.603,-0.986,-1.207,-339.64,-485.73,261.03
1743435571.6928732,-3.586,-1.941,-4.503,-321.09,-396.97,100.8
1743435571.7128732,-4.542,-1.993,-6.394,-200.97,125.86,-212.24
1743435571.7328732,-4.421,-0.974,-6.059,-157.92,546.77,-224.28
1743435571.7528732,-3.038,-0.31,-3.641,-114.38,779.87,-181.86
1743435571.7728732,-1.681,-0.168,-1.327,-136.64,794.22,-186.27
1743435571.7928731,-0.534,0.421,0.161,-108.92,763.98,-242.83
1743435571.8128731,0.663,1.29,1.486,-51.87,714.84,-309.75
1743435571.832873,3.454,2.822,3.824,96.53,-2.24,-143.22
1743435571.852873,3.747,3.424,4.393,236.39,-378.49,202.37
1743435571.872873,2.067,1.305,3.294,210.63,-642.11,483.0
1743435571.892873,0.899,-0.72,2.075,172.62,-672.42,418.46
1743435571.912873,-0.259,-2.305,-0.539,42.56,-520.87,251.16
1743435571.932873,-1.206,-2.725,-3.189,-109.06,-278.46,-48.79
1743435571.952873,-2.092,-2.207,-4.183,-128.38,30.03,-162.96
1743435571.972873,-2.17,-1.514,-4.051,-43.33,388.57,-210.07
1743435571.992873,-1.441,-0.762,-2.507,-8.26,532.14,-234.99
1743435572.012873,0.316,0.876,0.949,-1.33,478.31,-267.96
1743435572.032873,2.351,1.625,2.375,6.93,374.78,-250.04
1743435572.052873,3.62,2.486,3.855,53.06,-22.54,59.78
1743435572.0728729,3.22,2.274,3.421,93.66,-388.15,223.16
1743435572.0928729,1.915,0.283,1.853,0.14,-499.8,298.83
1743435572.1128728,0.673,-1.111,0.307,-108.22,-507.29,237.79
1743435572.1328728,-0.292,-1.58,-1.768,-169.26,-419.16,75.88
1743435572.1528728,-1.483,-1.23,-3.984,-202.65,-276.99,-11.69
1743435572.1728728,-2.162,-1.036,-5.567,-84.28,-84.84,-62.86
1743435572.1928728,-2.834,-0.631,-5.364,28.56,216.37,-99.89
1743435572.2128727,-2.398,-0.693,-3.499,109.34,349.51,-177.87
1743435572.2328727,-1.363,-0.061,-1.915,191.73,470.33,-236.53
1743435572.2528727,0.989,1.465,0.692,180.04,502.25,-272.79
1743435572.2728727,3.267,2.95,3.909,170.94,391.65,3.99
1743435572.292873,4.478,3.33,5.351,201.95,-169.82,309.05
1743435572.3128726,2.934,1.476,3.715,105.7,-532.91,395.64
1743435572.3328726,0.699,-0.965,0.626,-47.88,-520.8,343.28
1743435572.3528726,-0.705,-1.639,-1.504,-105.7,-441.0,173.67
1743435572.3728726,-1.443,-1.844,-3.335,-126.07,-202.23,62.51
1743435572.3928726,-2.611,-1.875,-5.123,-57.12,79.31,-73.36
1743435572.4128726,-3.248,-1.585,-5.238,53.2,248.36,-177.94
1743435572.4328723,-2.382,-0.95,-3.362,149.59,364.91,-221.69
1743435572.4528725,-1.449,-0.721,-2.253,237.16,341.11,-284.27
1743435572.4728725,-0.675,0.255,-0.743,350.7,393.19,-357.14
1743435572.4928725,1.383,2.058,2.753,222.6,425.74,-372.54
1743435572.5128725,4.166,4.227,4.9,95.76,303.24,49.49
1743435572.5328724,4.555,3.468,6.268,86.94,-201.6,344.75
1743435572.5528724,1.868,1.031,3.66,26.95,-600.11,374.01
1743435572.5728724,0.411,-0.555,1.487,-12.25,-532.49,329.77
1743435572.5928724,-0.428,-1.399,-0.119,-77.42,-351.26,201.18
1743435572.6128724,-1.12,-2.044,-2.603,-201.39,-114.24,81.62
1743435572.6328723,-2.277,-2.344,-4.262,-168.14,19.25,-31.85
1743435572.6528723,-2.897,-2.281,-4.844,-74.69,255.57,-188.37
1743435572.6728723,-2.226,-1.342,-3.608,-78.54,444.01,-288.89
1743435572.6928723,-1.015,-0.775,-1.909,3.43,434.91,-316.47
1743435572.7128725,-0.222,-0.128,-0.382,161.77,315.49,-361.06
1743435572.7328722,2.356,3.062,2.913,102.9,342.23,-276.57
1743435572.7528722,4.646,4.305,5.324,72.94,-47.04,66.36
1743435572.7728722,3.309,2.882,4.194,16.1,-404.25,317.73
1743435572.7928722,1.116,0.331,2.208,-51.94,-556.01,317.66
1743435572.8128722,0.121,-0.975,-0.318,-138.6,-403.34,239.68
1743435572.8328722,-0.884,-1.375,-1.963,-206.5,-317.73,193.27
1743435572.852872,-1.846,-1.865,-4.722,-167.65,-193.06,25.55
1743435572.872872,-2.888,-2.216,-6.203,-78.12,64.54,-105.14
1743435572.892872,-3.487,-1.845,-5.435,-24.01,435.19,-194.25
1743435572.912872,-2.254,-1.268,-3.204,47.04,530.25,-315.98
1743435572.932872,-1.27,-0.919,-2.11,174.37,413.0,-372.75
1743435572.952872,-1.08,-0.258,-1.639,262.29,448.77,-430.78
1743435572.972872,0.248,2.501,0.91,182.14,498.47,-381.71
1743435572.992872,2.882,4.43,4.254,49.63,415.1,-103.11
1743435573.012872,4.579,5.275,6.185,199.43,-121.17,260.33
1743435573.032872,3.577,3.181,6.032,49.35,-460.53,440.58
1743435573.052872,1.108,0.612,3.175,-43.19,-632.38,435.05
1743435573.072872,0.307,-1.01,1.144,-41.51,-566.37,259.42
1743435573.092872,-0.142,-1.142,-1.483,-144.06,-455.7,221.34
1743435573.112872,-0.759,-1.662,-3.962,-207.62,-173.74,149.8
1743435573.132872,-3.08,-2.573,-5.773,-56.28,71.89,-23.59
1743435573.1528718,-3.479,-2.846,-4.852,7.49,341.53,-147.98
1743435573.1728718,-2.821,-2.445,-4.016,-3.22,571.83,-296.94
1743435573.1928718,-1.627,-1.197,-1.73,89.88,604.87,-330.54
1743435573.2128718,0.522,0.937,1.916,113.61,423.64,-327.04
1743435573.2328718,2.504,2.803,4.699,124.74,396.55,-82.95
1743435573.2528718,5.008,4.965,6.89,117.46,-236.67,301.42
1743435573.2728715,2.983,3.416,4.147,21.28,-619.99,413.14
1743435573.2928717,0.357,-0.418,0.424,-116.2,-544.74,318.64
1743435573.3128717,-0.652,-1.125,-1.744,-207.62,-420.0,261.52
1743435573.3328717,-1.102,-1.911,-4.289,-194.25,-267.47,147.35
1743435573.3528717,-2.856,-2.317,-5.612,-110.11,-85.05,13.93
1743435573.3728716,-3.517,-2.316,-5.352,-6.65,365.96,-154.07
1743435573.3928716,-2.351,-1.691,-3.379,61.53,539.49,-273.28
1743435573.4128716,-1.33,-1.212,-1.816,123.34,503.44,-360.99
1743435573.4328716,-1.047,-0.648,-0.759,247.52,360.99,-443.45
1743435573.4528716,-0.349,1.349,0.66,269.85,417.2,-459.13
1743435573.4728715,0.817,3.046,2.506,109.69,449.33,-408.24
1743435573.4928715,4.01,4.883,5.0,43.96,290.92,-35.84
1743435573.5128715,4.104,4.342,5.005,76.51,-201.11,260.54
1743435573.5328715,1.336,0.932,2.496,-30.87,-453.6,314.3
1743435573.5528717,0.82,-0.313,1.074,-112.56,-395.15,265.93
1743435573.5728714,0.451,-1.007,0.028,-208.6,-317.94,170.31
1743435573.5928714,-0.02,-1.322,-0.824,-255.08,-258.65,118.09
1743435573.6128714,-0.275,-1.61,-2.743,-130.55,-207.83,6.09
1743435573.6328714,-0.581,-1.416,-4.598,-84.14,-34.51,-115.22
1743435573.6528714,-1.154,-1.016,-4.928,-55.16,231.28,-136.22
1743435573.6728714,-1.325,-0.943,-4.017,-1.26,371.28,-134.05
1743435573.692871,-0.613,-0.903,-2.187,55.58,462.35,-157.22
1743435573.7128713,-0.448,-0.758,-0.989,101.57,429.24,-266.21
1743435573.7328713,-0.126,-0.041,-0.288,129.99,413.56,-301.7
1743435573.7528713,0.526,1.952,1.437,62.3,472.5,-255.01
1743435573.7728713,3.547,4.552,4.614,-42.21,329.7,-8.68
1743435573.7928712,3.484,4.37,4.6,80.71,-262.64,327.88
1743435573.8128712,1.734,1.289,2.73,81.34,-500.64,469.0
1743435573.8328712,0.488,0.067,1.568,26.74,-486.99,415.87
1743435573.8528712,-0.304,-1.51,-0.373,8.68,-411.81,298.9
1743435573.8728712,-0.609,-1.886,-1.994,-19.53,-277.69,183.68
1743435573.8928711,-0.813,-2.101,-3.325,-92.68,7.7,29.96
1743435573.9128711,-1.387,-2.106,-4.099,-25.62,149.94,-70.35
1743435573.932871,-1.49,-1.838,-3.421,33.88,290.85,-179.55
1743435573.952871,-1.15,-1.463,-1.933,51.66,327.11,-213.71
1743435573.972871,-0.737,-1.224,-1.177,89.95,289.38,-265.23
1743435573.992871,-0.425,-0.793,-0.207,155.61,233.66,-333.62
1743435574.012871,0.681,1.545,1.382,97.23,233.38,-337.75
1743435574.032871,1.977,3.12,2.414,-35.84,269.15,-159.25
1743435574.052871,3.808,4.296,3.725,-13.02,-150.64,170.31
1743435574.072871,3.136,3.242,3.142,29.05,-414.75,390.46
1743435574.092871,0.963,0.582,1.536,-10.01,-453.18,442.54
1743435574.112871,0.284,-0.501,0.439,-81.41,-399.84,374.22
1743435574.132871,-0.484,-1.402,-0.699,-91.28,-354.69,226.94
1743435574.152871,-0.58,-1.898,-2.663,-72.8,-167.16,122.01
1743435574.1728709,-1.411,-2.406,-4.849,-15.26,55.79,-56.07
1743435574.1928709,-1.769,-2.149,-4.912,-18.55,236.81,-138.25
1743435574.2128708,-1.995,-1.942,-3.575,-3.92,463.47,-199.71
1743435574.2328708,-1.538,-1.768,-2.009,51.45,453.67,-301.42
1743435574.2528708,-0.499,-0.097,0.14,151.76,373.59,-347.41
1743435574.2728708,0.943,1.646,2.008,63.91,326.83,-322.14
1743435574.2928708,3.442,4.515,4.905,-28.49,-102.83,19.53
1743435574.3128707,3.948,4.852,4.985,95.48,-452.27,342.3
1743435574.3328707,2.005,1.4,2.483,32.9,-548.73,438.48
1743435574.3528707,0.634,-0.044,0.754,13.09,-496.3,413.77
1743435574.3728707,-0.073,-1.183,-0.207,-85.54,-358.33,264.25
1743435574.392871,-0.622,-1.554,-1.615,-146.86,-226.52,164.5
1743435574.4128706,-1.063,-2.161,-3.484,-102.27,-65.87,59.57
1743435574.4328706,-1.533,-2.136,-4.392,-62.23,161.49,-109.48
1743435574.4528706,-1.895,-1.81,-3.702,-40.67,399.7,-193.55
1743435574.4728706,-1.382,-1.565,-2.381,54.53,422.38,-262.5
1743435574.4928706,-0.348,0.17,-0.434,64.75,362.6,-307.3
1743435574.5128706,1.46,1.572,-0.149,-67.34,400.19,-242.48
1743435574.5328703,2.199,2.769,-0.002,-115.43,439.6,-133.98
1743435574.5528705,2.218,2.991,-0.208,-21.7,339.64,228.9
1743435574.5728705,1.037,0.709,0.533,64.68,246.12,267.19
1743435574.5928705,0.953,0.277,1.509,94.92,142.87,259.14
1743435574.6128705,0.931,-0.07,2.448,97.51,52.36,215.81
1743435574.6328704,0.823,-0.368,2.919,39.55,-51.8,180.25
1743435574.6528704,0.833,-0.591,2.921,-53.48,-112.77,153.79
1743435574.6728704,0.85,-0.668,2.675,-73.78,-202.44,120.96
1743435574.6928704,0.746,-0.799,1.896,-105.35,-261.38,86.94
1743435574.7128704,0.422,-0.981,1.257,-158.76,-254.24,64.26
1743435574.7328703,0.179,-1.284,0.525,-241.57,-241.78,18.83
1743435574.7528703,-0.141,-1.575,-0.694,-260.19,-220.29,-60.97
1743435574.7728703,-0.287,-1.562,-2.359,-208.18,-156.03,-134.82
1743435574.7928703,-0.335,-1.463,-3.549,-77.7,-24.15,-215.39
1743435574.8128705,-0.57,-0.976,-4.146,-12.6,89.39,-263.55
1743435574.8328702,-0.485,-0.428,-3.648,41.16,257.32,-268.24
1743435574.8528702,-0.163,-0.348,-2.344,103.39,326.62,-277.41
1743435574.8728702,-0.017,0.072,-1.107,161.7,350.42,-288.96
1743435574.8928702,1.341,2.433,1.129,44.03,435.82,-264.11
1743435574.9128702,2.971,3.86,2.878,13.51,406.77,-68.39
1743435574.93287,3.23,4.111,3.935,129.36,4.41,242.62
1743435574.95287,2.126,2.07,3.59,58.8,-242.27,388.92
1743435574.97287,0.64,-0.369,2.031,-18.27,-376.32,339.15
1743435574.99287,0.154,-1.684,1.026,-48.51,-353.57,221.76
1743435575.01287,0.004,-1.627,0.356,-125.65,-305.34,103.53
1743435575.03287,-0.19,-1.533,-0.174,-189.07,-248.57,29.75
1743435575.05287,-0.261,-1.344,-1.793,-142.73,-229.11,-75.32
1743435575.07287,-0.271,-1.133,-2.951,-85.75,-153.51,-141.75
1743435575.09287,-0.447,-0.911,-3.559,9.24,-0.28,-172.62
1743435575.11287,-0.583,-0.674,-3.325,20.93,192.71,-176.96
1743435575.13287,-0.329,-0.732,-2.381,55.65,250.6,-179.69
1743435575.15287,-0.203,-0.691,-1.668,94.01,291.9,-248.5
1743435575.17287,-0.006,-0.106,-0.39,124.81,315.98,-273.77
1743435575.19287,1.159,1.377,0.811,71.61,344.68,-242.83
1743435575.21287,3.443,3.768,3.705,84.07,49.0,126.84
1743435575.23287,3.033,2.954,3.349,95.48,-241.57,288.12
1743435575.2528698,1.647,1.117,2.44,21.77,-345.52,334.11
1743435575.2728698,0.901,-0.607,1.213,24.29,-339.99,267.19
1743435575.2928698,0.274,-1.183,0.301,-109.34,-280.91,228.06
1743435575.3128698,-0.006,-1.466,-0.445,-175.77,-232.12,119.49
1743435575.3328698,-0.321,-1.674,-1.143,-171.64,-191.17,27.44
