Millis,AccelX,AccelY,AccelZ,GyroX,GyroY,GyroZ
1213520,-0.995,0.189,-0.063,21.210,-8.050,3.570
1213545,-0.989,0.227,-0.075,23.310,-8.120,3.640
1213564,-0.979,0.264,-0.067,19.110,-7.560,3.290
1213585,-0.978,0.259,-0.067,14.910,-6.790,2.380
1213608,-0.996,0.219,-0.056,10.430,-6.370,2.450
1213626,-1.003,0.197,-0.043,15.050,-7.210,3.500
1213645,-0.999,0.225,-0.078,17.150,-8.960,4.620
1213670,-0.990,0.256,-0.052,13.230,-9.870,4.760
1213690,-0.976,0.282,-0.079,6.790,-9.030,4.900
1213709,-0.979,0.253,-0.073,0.280,-6.440,2.590
1213729,-1.005,0.191,-0.055,-0.910,-7.770,1.750
1213753,-0.987,0.210,-0.057,4.270,-7.070,1.400
1213769,-0.977,0.236,-0.023,7.700,-7.140,1.190
1213792,-0.987,0.214,-0.030,6.720,-6.440,1.050
1213813,-0.985,0.275,-0.050,1.540,-4.550,2.310
1213832,-0.971,0.281,-0.073,-4.550,-2.730,0.140
1213852,-0.983,0.272,-0.051,-10.080,-3.500,-1.680
1213873,-0.973,0.236,-0.044,-13.300,-1.260,-2.870
1213894,-0.991,0.159,-0.023,-10.850,-0.420,-2.450
1213912,-0.983,0.235,-0.012,-7.210,0.210,0.700
1213933,-0.986,0.306,-0.084,-21.070,-0.490,1.260
1213954,-0.980,0.324,-0.089,-53.200,0.980,-1.050
1213973,-1.001,0.241,-0.023,-39.690,-0.140,-2.870
1213992,-0.976,0.184,-0.040,-32.970,0.700,-2.030
1214016,-0.988,0.244,-0.030,-32.900,4.410,-2.660
1214035,-0.992,0.259,-0.039,-38.850,3.220,-3.920
1214054,-0.983,0.267,-0.058,-44.030,2.170,-5.390
1214074,-0.979,0.270,-0.053,-48.860,2.380,-6.090
1214098,-0.946,0.293,-0.040,-44.170,10.500,-5.600
1214117,-1.007,0.134,-0.025,-53.550,10.500,-8.960
1214134,-1.035,0.090,-0.032,-40.180,7.840,-8.610
1214156,-1.014,0.181,-0.057,-20.440,3.290,-5.530
1214178,-0.996,0.260,-0.058,-29.190,1.470,-6.090
1214196,-1.012,0.219,-0.050,-36.820,-1.400,-5.250
1214215,-0.976,0.189,-0.019,-27.370,1.890,-2.100
1214235,-1.002,0.131,-0.027,-27.510,1.470,-0.630
1214260,-1.017,0.163,-0.036,-19.320,-0.560,-0.980
1214278,-0.989,0.227,-0.040,-15.050,-1.820,-0.070
1214299,-0.996,0.253,-0.038,-22.680,-2.870,-0.350
1214323,-1.007,0.250,-0.036,-32.200,-3.360,-2.240
1214343,-1.010,0.244,-0.031,-38.360,-5.880,-1.890
1214361,-1.006,0.166,-0.042,-35.280,-8.260,-2.240
1214384,-0.993,0.157,-0.016,-25.130,-9.590,-1.750
1214401,-0.980,0.176,-0.010,-17.570,-7.140,-2.800
1214420,-1.006,0.186,-0.023,-13.650,-6.440,-3.640
1214440,-0.996,0.245,-0.019,-14.070,-6.300,-5.040
1214465,-0.981,0.277,0.011,-18.480,-4.900,-7.770
1214484,-0.975,0.234,0.013,-19.110,-0.980,-10.010
1214501,-0.994,0.182,0.003,-17.080,-0.140,-9.450
1214525,-1.008,0.161,-0.016,-8.890,-1.540,-9.170
1214545,-1.008,0.150,-0.005,-2.870,-2.240,-9.170
1214565,-0.995,0.158,-0.000,2.800,-2.450,-7.980
1214584,-0.993,0.158,-0.006,1.750,-1.120,-7.000
1214603,-1.003,0.154,0.012,0.000,-0.910,-5.040
1214628,-1.001,0.165,-0.004,1.610,-0.210,-4.760
1214651,-1.001,0.155,0.002,2.940,-0.210,-5.040
1214672,-0.999,0.161,0.000,8.050,0.420,-4.690
1214692,-0.998,0.184,-0.007,8.820,1.260,-6.090
1214710,-0.996,0.178,-0.008,9.170,2.030,-7.070
1214731,-1.000,0.167,-0.002,10.990,2.450,-7.350
1214755,-0.998,0.174,-0.016,11.060,4.270,-7.560
1214773,-1.007,0.180,-0.020,8.050,4.060,-7.280
1214793,-1.008,0.164,-0.021,5.530,3.360,-7.210
1214817,-0.996,0.173,-0.026,3.220,2.380,-6.230
1214837,-0.996,0.165,-0.025,-1.190,3.290,-5.810
1214855,-1.017,0.143,-0.024,-0.770,2.100,-4.830
1214877,-1.004,0.119,-0.032,-1.750,2.240,-3.920
1214897,-1.004,0.111,-0.040,1.050,1.960,-2.870
1214915,-1.009,0.126,-0.026,3.080,0.840,-1.610
1214934,-1.006,0.139,-0.045,5.180,0.700,-1.050
1214954,-1.009,0.145,-0.054,4.830,0.070,-0.490
1214979,-1.011,0.132,-0.043,5.110,-2.310,0.280
1214995,-1.006,0.117,-0.041,6.650,-3.220,1.050
1215019,-1.012,0.140,-0.037,7.910,-3.150,1.120
1215039,-1.014,0.143,-0.036,7.630,-4.060,0.840
1215057,-1.013,0.128,-0.036,7.840,-4.690,1.120
1215076,-1.002,0.162,-0.029,9.380,-3.990,0.560
1215096,-1.006,0.176,-0.041,5.530,-4.340,-0.420
1215120,-1.022,0.155,-0.036,1.400,-5.320,-1.680
1215140,-1.013,0.142,-0.033,0.840,-6.580,-1.680
1215159,-1.022,0.123,-0.037,2.310,-7.140,-0.980
1215179,-1.012,0.120,-0.043,4.550,-9.520,0.490
1215203,-0.998,0.144,-0.045,4.620,-10.080,0.630
1215223,-1.007,0.130,-0.045,4.830,-11.970,1.470
1215241,-1.019,0.102,-0.034,7.210,-13.860,1.610
1215265,-1.008,0.102,-0.024,13.930,-15.190,1.820
1215285,-0.994,0.132,-0.006,17.430,-15.120,1.050
1215304,-1.000,0.138,-0.015,16.380,-14.420,-0.280
1215324,-1.013,0.141,-0.020,16.030,-16.800,0.140
1215348,-1.018,0.125,-0.011,13.790,-17.780,-1.050
1215366,-1.019,0.127,0.005,18.690,-20.300,-1.260
1215390,-1.008,0.127,0.006,19.320,-20.930,-2.940
1215410,-0.978,0.128,0.014,15.820,-19.460,-3.920
1215429,-0.977,0.121,0.036,14.700,-17.430,-7.700
1215450,-1.042,0.106,0.047,19.810,-15.820,-10.640
1215470,-0.993,0.103,0.046,27.300,-16.520,-11.550
1215493,-1.012,0.172,0.076,29.120,-11.480,-11.200
1215517,-1.057,0.182,0.015,24.570,-14.280,-8.330
1215537,-1.030,0.102,0.028,13.090,-29.610,-3.920
1215555,-0.990,0.011,0.026,21.350,-17.850,-7.140
1215575,-1.021,0.034,0.069,28.140,-13.160,-5.040
1215595,-1.040,0.141,0.048,24.500,-13.930,-2.870
1215618,-1.009,0.129,0.062,16.450,-9.940,-3.290
1215637,-0.996,0.143,0.028,15.960,-9.940,-2.100
1215657,-1.049,0.117,0.052,13.860,-13.720,-2.590
1215682,-1.124,0.095,0.058,12.180,-14.280,-0.560
1215700,-1.011,0.136,0.082,7.980,-14.000,0.490
1215720,-1.014,0.034,0.113,8.260,-12.600,0.350
1215742,-1.025,-0.044,0.066,10.360,-14.420,5.950
1215766,-0.969,0.204,0.114,5.390,-8.960,7.490
1215786,-1.016,0.292,0.060,-2.310,-9.240,-4.270
1215806,-0.991,0.237,0.060,-13.790,-9.030,-13.510
1215825,-1.004,0.107,0.116,-22.050,-6.300,-13.930
1215846,-0.998,0.023,0.120,-11.690,-3.080,-10.500
1215870,-0.963,0.028,0.095,6.720,4.480,-9.030
1215890,-1.026,-0.073,0.127,12.810,5.530,-7.070
1215910,-1.015,0.016,0.108,22.330,5.110,-1.610
1215929,-0.986,0.108,0.096,24.080,9.870,-3.430
1215949,-1.049,0.067,0.040,24.920,7.700,-5.740
1215973,-1.034,0.153,0.035,20.440,6.440,-4.690
1215993,-1.018,0.123,0.113,12.040,1.610,-4.970
1216011,-1.003,0.004,0.053,9.730,5.250,-5.460
1216033,-1.038,0.003,0.068,10.290,1.260,1.960
1216053,-1.033,0.041,0.065,15.540,-0.140,4.410
1216072,-0.987,0.146,0.043,12.600,2.800,1.260
1216096,-1.024,0.183,0.060,2.310,1.680,-2.520
1216112,-1.035,0.120,0.017,-10.920,-0.980,-4.060
1216131,-1.007,0.088,0.061,-21.140,-3.990,-3.710
1216155,-1.013,0.012,0.083,-16.380,-1.960,-2.730
1216175,-1.021,0.020,0.070,-12.880,-2.030,0.770
1216199,-1.017,0.031,0.050,-11.130,-2.870,4.760
1216219,-1.013,0.014,0.064,-6.720,-3.290,7.140
1216239,-1.016,0.008,0.045,-0.420,-2.730,10.150
1216257,-1.036,0.015,0.068,3.500,-4.900,13.230
1216276,-1.020,0.056,0.065,5.530,-5.390,14.840
1216295,-1.005,0.066,0.057,3.430,-6.370,14.910
1216320,-1.029,0.081,0.088,2.100,-6.790,15.470
1216339,-1.014,0.106,0.062,5.530,-6.300,15.120
1216355,-0.999,0.128,0.066,-0.770,-6.020,13.930
1216380,-1.009,0.128,0.070,-7.070,-4.620,13.720
1216400,-1.029,0.139,0.065,-5.740,-5.950,13.300
1216420,-0.993,0.159,0.075,-13.230,-5.110,11.620
1216439,-1.003,0.117,0.066,-14.560,-2.380,10.430
1216463,-0.998,0.145,0.092,-17.290,-2.800,10.640
1216483,-1.019,0.107,0.078,-16.940,-1.050,10.710
1216501,-1.022,0.063,0.095,-12.110,-0.350,12.320
1216522,-0.987,0.082,0.091,-1.820,-0.490,13.370
1216546,-1.010,0.099,0.070,1.540,3.220,13.440
1216566,-0.998,0.135,0.061,3.990,0.840,13.020
1216584,-0.974,0.188,0.065,2.450,2.380,10.850
1216608,-0.967,0.148,0.067,-6.300,3.640,9.310
1216627,-0.984,0.146,0.087,-8.330,6.860,9.590
1216648,-1.036,0.134,0.065,-9.590,4.690,9.590
1216668,-1.020,0.120,0.058,-9.030,3.990,9.450
1216692,-1.010,0.183,0.036,-4.200,2.870,8.750
1216712,-0.993,0.195,0.049,-8.820,3.360,6.510
1216731,-1.019,0.163,0.072,-8.120,5.670,3.640
1216750,-0.998,0.209,0.058,-5.180,7.140,2.170
1216775,-0.990,0.193,0.060,-17.150,7.910,-0.980
1216795,-1.028,0.139,0.040,-16.730,7.210,-1.260
1216814,-1.027,0.111,0.040,-9.520,3.570,-1.680
1216838,-0.969,0.140,0.047,-1.960,6.160,-3.920
1216853,-0.990,0.158,0.025,-0.770,6.930,-6.160
1216878,-1.001,0.204,0.027,-2.450,8.120,-9.170
1216898,-0.996,0.179,0.041,-3.990,10.010,-13.860
1216916,-1.002,0.162,0.046,-1.610,11.340,-17.570
1216939,-1.020,0.140,0.048,-3.360,11.200,-18.060
1216958,-1.038,0.103,0.004,-4.760,10.290,-16.520
1216979,-1.035,0.089,0.003,-4.270,6.300,-13.930
1217000,-1.004,0.091,0.003,-0.140,4.550,-10.640
1217020,-1.034,0.124,-0.037,-1.540,1.120,-7.560
1217044,-1.031,0.099,-0.047,-8.400,-4.480,-3.360
1217063,-1.052,0.058,-0.015,-9.590,-12.600,2.310
1217084,-1.025,0.041,-0.003,-3.570,-17.430,7.000
1217107,-1.004,0.071,0.021,0.140,-16.450,9.100
1217128,-1.020,0.105,0.038,-0.980,-17.920,10.360
1217147,-1.003,0.080,0.044,-1.400,-18.690,10.780
1217172,-1.001,0.088,0.055,0.560,-17.430,10.990
1217192,-1.008,0.129,0.039,2.240,-17.850,10.080
1217212,-0.997,0.139,0.058,0.350,-18.690,8.330
1217229,-0.981,0.154,0.068,1.190,-16.170,7.070
1217253,-0.996,0.170,0.079,-2.100,-14.000,5.810
1217273,-1.045,0.162,0.061,-4.270,-12.740,4.130
1217290,-1.014,0.121,0.082,-2.940,-18.550,4.060
1217313,-0.952,0.081,0.130,3.920,-13.510,0.770
1217334,-1.012,0.162,0.097,12.670,-6.860,1.260
1217353,-1.027,0.207,0.085,8.050,-6.090,-0.770
1217377,-1.006,0.174,0.090,-1.750,-9.590,-0.280
1217397,-0.929,0.010,0.120,9.240,-0.770,-5.250
1217415,-1.032,-0.014,0.121,28.070,2.310,-5.320
1217439,-0.995,0.225,0.080,31.220,8.470,-2.450
1217458,-0.971,0.297,0.061,11.130,9.940,-7.280
1217477,-1.021,0.129,0.084,1.470,9.240,-10.990
1217496,-1.023,0.025,0.073,5.460,7.560,-7.420
1217521,-1.004,0.157,0.025,15.890,9.870,-4.480
1217539,-1.017,0.202,0.033,8.750,7.980,-7.630
1217559,-1.022,0.109,0.037,4.270,6.720,-7.910
1217579,-1.040,0.047,0.054,0.280,0.980,-5.250
1217602,-1.016,0.064,0.020,8.890,0.910,-1.820
1217626,-1.039,0.093,0.047,6.230,-1.540,-1.680
1217646,-1.019,0.132,0.042,3.220,-2.450,-2.240
1217666,-1.004,0.052,0.042,3.850,-2.520,-1.330
1217684,-1.020,0.049,0.044,6.860,-3.780,3.710
1217705,-0.998,0.123,0.093,17.010,-1.750,2.940
1217729,-0.978,0.144,0.038,22.960,1.260,-1.260
1217750,-1.025,0.118,0.030,10.010,-0.210,-0.700
1217769,-1.007,0.101,0.066,21.910,0.910,3.430
1217787,-1.009,0.070,0.044,19.180,0.560,3.360
1217811,-1.025,0.072,0.032,21.140,0.350,2.310
1217831,-1.035,0.076,0.034,15.890,-1.540,6.020
1217850,-0.990,0.111,0.006,25.620,-0.280,9.730
1217874,-1.026,0.144,0.053,17.430,0.350,8.540
1217894,-1.005,0.114,0.031,14.910,-1.750,6.300
1217914,-0.989,0.189,0.039,7.630,-1.400,5.180
1217934,-1.022,0.181,0.028,1.820,0.070,3.850
1217954,-1.020,0.145,0.020,-7.420,-1.330,2.660
1217976,-1.027,0.078,0.023,-3.710,-3.780,3.570
1217998,-1.027,0.070,0.044,-1.330,-5.670,7.280
1218018,-1.026,0.108,0.011,6.090,-6.090,7.980
1218041,-1.008,0.152,0.018,2.730,-7.840,7.560
1218061,-1.016,0.181,0.035,-5.600,-8.890,9.450
1218081,-1.034,0.117,0.031,-2.450,-11.410,9.520
1218104,-0.984,0.170,0.033,4.060,-9.660,7.980
1218125,-1.007,0.161,0.046,-5.460,-10.500,6.720
1218145,-1.003,0.133,0.072,-5.740,-8.540,6.860
1218160,-1.017,0.094,0.066,-3.500,-8.750,8.050
1218180,-1.017,0.134,0.060,2.660,-7.910,9.100
1218200,-0.994,0.238,0.021,-0.420,-7.770,7.910
1218225,-0.996,0.305,0.031,-19.320,-7.630,3.850
1218245,-1.008,0.198,0.073,-37.030,-8.610,1.540
1218265,-0.988,0.086,0.093,-36.540,-7.910,3.570
1218288,-1.014,0.069,0.069,-24.640,-5.670,7.420
1218307,-0.998,0.108,0.115,-17.780,-6.510,10.640
1218329,-0.996,0.076,0.084,-10.360,-3.710,12.320
1218353,-1.008,0.076,0.074,-0.350,-5.530,15.610
1218373,-0.996,0.121,0.073,10.850,-5.250,17.500
1218391,-1.011,0.151,0.082,11.550,-6.580,18.130
1218412,-0.983,0.131,0.065,13.510,-7.490,17.850
1218436,-0.969,0.216,0.064,13.160,-4.970,20.160
1218456,-1.020,0.183,0.063,7.630,-8.190,19.950
1218471,-1.039,0.207,0.091,6.580,-7.560,19.320
1218496,-0.984,0.226,0.094,7.490,-8.120,13.580
1218516,-0.950,0.269,0.102,4.690,0.350,8.050
1218535,-0.979,0.312,0.102,-0.630,2.450,1.680
1218554,-0.948,0.303,0.100,-3.570,7.420,-6.370
1218574,-0.956,0.259,0.093,-7.490,15.120,-12.320
1218596,-0.985,0.259,0.080,-8.050,17.080,-13.370
1218617,-1.005,0.230,0.054,-16.240,16.870,-13.650
1218641,-1.018,0.180,0.046,-24.150,14.070,-11.060
1218665,-1.008,0.155,0.036,-21.980,11.410,-8.890
1218684,-0.996,0.184,0.038,-19.530,11.690,-8.190
1218703,-1.013,0.163,0.020,-18.830,8.540,-7.140
1218720,-1.014,0.167,0.029,-17.150,7.420,-6.440
1218745,-1.017,0.136,0.043,-10.500,4.130,-4.970
1218765,-1.042,0.089,0.024,-1.680,0.210,-2.520
1218784,-1.032,0.142,0.022,1.260,-2.520,-0.840
1218803,-0.996,0.191,0.029,-0.420,-2.940,-0.560
1218825,-1.001,0.223,0.020,-2.940,-2.660,-1.750
1218849,-1.012,0.193,0.033,-8.680,-3.850,-2.590
1218867,-1.013,0.147,0.040,-13.090,-4.550,-3.220
1218891,-1.023,0.108,0.054,-7.770,-6.580,-1.890
1218910,-1.021,0.092,0.041,2.590,-8.750,-2.100
1218929,-0.981,0.220,0.040,4.760,-7.210,-1.260
1218950,-0.999,0.215,0.027,0.420,-8.120,-5.040
1218974,-1.007,0.203,0.053,-5.320,-8.820,-6.720
1218994,-1.011,0.107,0.060,-5.460,-8.890,-6.440
1219014,-1.024,0.091,0.058,-2.450,-11.060,-1.750
1219033,-1.008,0.131,0.055,1.190,-10.290,-1.680
1219054,-0.998,0.175,0.073,-0.210,-11.900,-3.570
1219073,-0.978,0.143,0.059,-4.200,-10.290,-4.550
1219097,-0.987,0.135,0.085,-4.270,-9.240,-3.010
1219117,-1.031,0.133,0.047,0.560,-8.960,-3.430
1219140,-1.031,0.170,0.084,0.840,-13.860,-1.610
1219161,-0.986,0.130,0.097,-2.030,-13.020,-0.700
1219179,-0.980,0.176,0.078,-6.860,-10.780,0.840
1219198,-0.981,0.148,0.080,-6.860,-9.100,-0.700
1219222,-1.005,0.043,0.096,3.430,-6.510,-2.240
1219241,-1.012,0.032,0.137,16.380,-6.300,-0.770
1219260,-0.970,0.170,0.138,22.960,-1.750,-1.330
1219285,-0.971,0.307,0.087,14.910,6.090,-5.250
1219304,-0.998,0.180,0.092,2.380,7.280,-10.780
1219325,-1.000,0.056,0.100,2.170,5.110,-8.470
1219340,-0.963,0.181,0.081,2.170,9.940,-8.330
1219364,-1.034,0.210,0.058,3.990,10.570,-14.000
1219385,-1.006,0.142,0.061,-2.380,11.480,-15.470
1219405,-1.018,0.036,0.053,-2.590,8.470,-10.780
1219425,-1.037,-0.006,0.032,5.460,6.300,-5.460
1219445,-1.006,0.128,0.029,8.050,6.090,-1.960
1219469,-1.036,0.136,0.064,6.930,4.270,-4.760
1219489,-1.042,0.073,0.019,7.630,1.470,-3.850
1219509,-1.011,0.082,0.038,5.390,0.770,-0.910
1219529,-1.000,0.080,0.044,11.620,2.520,-0.490
1219549,-1.014,0.111,0.069,13.580,5.180,-2.030
1219566,-1.022,0.111,0.046,15.400,4.760,-2.870
1219588,-1.017,0.109,0.028,9.170,3.920,-0.910
1219607,-1.026,0.095,0.001,7.770,4.130,-0.420
1219626,-1.011,0.117,0.051,9.520,4.620,-2.100
1219651,-1.010,0.100,0.028,10.570,2.800,-2.520
1219671,-1.026,0.116,0.010,0.840,1.890,1.120
1219689,-1.025,0.082,0.029,1.960,-1.050,2.030
1219712,-0.996,0.056,0.034,2.800,-0.980,3.780
1219732,-1.015,0.043,0.025,2.450,-0.630,7.700
1219752,-1.035,0.066,0.021,8.190,-3.500,10.290
1219776,-0.988,0.074,0.026,7.350,-3.500,12.180
1219796,-1.007,0.053,0.020,11.410,-5.110,13.160
1219820,-1.009,0.086,0.029,13.860,-5.390,13.650
1219837,-1.011,0.120,0.047,10.710,-6.580,13.790
1219861,-1.015,0.162,0.050,11.620,-6.300,14.490
1219880,-1.034,0.152,-0.009,7.000,-11.130,14.280
1219898,-1.020,0.136,0.006,-3.990,-11.690,14.350
1219918,-1.039,0.125,-0.002,-2.450,-14.350,16.520
1219942,-1.029,0.099,0.051,1.960,-16.450,15.190
1219960,-0.969,0.137,0.058,10.360,-13.860,13.650
1219984,-0.976,0.211,0.055,9.940,-7.980,9.450
1220004,-0.999,0.276,0.082,0.770,-6.790,7.350
1220024,-0.986,0.342,0.027,-20.510,-4.130,1.750
1220048,-0.968,0.331,0.016,-44.940,-0.700,-5.950
1220068,-1.005,0.048,0.085,-46.410,0.840,-9.450
1220087,-1.012,-0.058,0.126,-23.240,3.990,-6.020
1220107,-1.014,-0.024,0.089,0.070,5.040,0.350
1220128,-0.982,0.183,0.092,11.200,9.800,-0.980
1220147,-1.020,0.230,-0.001,4.900,10.080,-4.480
1220172,-1.017,0.205,0.011,-5.950,4.620,-4.410
1220192,-1.018,0.095,0.027,-0.420,2.100,-1.470
1220209,-1.037,0.077,0.033,6.090,0.140,2.030
1220232,-1.001,0.086,0.044,8.260,-0.210,4.270
1220253,-1.018,0.163,0.035,5.110,-1.050,5.180
1220273,-1.013,0.192,0.057,1.050,-1.610,5.250
1220293,-1.016,0.141,0.022,-0.840,-2.730,4.410
1220317,-0.999,0.145,0.026,-0.910,-3.150,4.060
1220337,-1.003,0.177,0.035,-4.690,-2.380,2.590
1220355,-0.995,0.187,0.041,-8.120,-0.630,-0.280
1220377,-0.995,0.213,0.053,-13.300,2.590,-3.010
1220396,-1.002,0.194,0.046,-15.960,3.990,-6.090
1220421,-1.012,0.165,0.039,-15.960,5.670,-8.540
1220439,-1.017,0.100,0.027,-15.330,4.060,-9.240
1220463,-1.027,0.065,0.021,-5.810,2.240,-7.840
1220482,-1.023,0.078,0.013,1.120,-0.910,-5.670
1220501,-0.997,0.108,-0.001,4.060,-2.240,-5.320
1220525,-1.013,0.130,-0.002,4.550,-4.690,-5.810
1220544,-1.021,0.132,0.014,3.990,-7.000,-5.250
1220564,-1.016,0.123,0.025,5.390,-9.240,-3.710
1220588,-1.039,0.118,0.023,7.560,-10.710,-1.120
1220606,-1.028,0.140,0.043,1.890,-11.830,0.070
1220625,-1.006,0.130,0.029,-3.290,-12.670,0.840
1220649,-0.994,0.125,0.037,-6.860,-11.970,1.330
1220669,-1.039,0.114,0.044,-3.430,-13.790,3.010
1220686,-1.018,0.101,0.033,-0.350,-16.030,3.990
1220709,-0.983,0.107,0.041,-2.310,-18.270,5.390
1220726,-0.983,0.114,0.062,-3.570,-18.830,6.300
1220745,-0.996,0.120,0.068,-5.040,-18.480,6.790
1220770,-1.010,0.133,0.081,-8.610,-16.590,6.440
1220790,-1.024,0.138,0.094,-9.730,-16.100,6.510
1220808,-0.991,0.140,0.110,-11.550,-15.190,6.230
1220825,-1.001,0.154,0.094,-12.740,-12.390,6.160
1220850,-0.998,0.140,0.108,-18.270,-14.280,5.670
1220868,-0.964,0.111,0.105,-18.130,-16.310,4.900
1220887,-0.984,0.107,0.128,-12.110,-10.220,3.360
1220907,-1.030,0.114,0.149,-2.380,-8.330,4.060
1220931,-1.037,0.146,0.125,-0.210,-10.990,6.510
1220952,-0.991,0.212,0.089,-2.520,-10.920,8.890
1220972,-0.973,0.113,0.130,-6.860,-8.190,4.340
1220992,-1.063,0.000,0.143,6.510,-11.900,5.950
1221012,-0.972,0.076,0.153,18.900,-10.150,10.080
1221032,-0.938,0.180,0.158,22.050,-2.170,6.930
1221055,-0.996,0.276,0.111,9.170,5.810,0.280
1221078,-1.009,0.160,0.125,3.150,4.480,-3.640
1221099,-0.940,0.118,0.111,12.880,9.940,-3.640
1221123,-0.996,0.142,0.139,10.290,11.130,-4.690
1221143,-0.985,0.269,0.091,1.960,17.150,-5.950
1221163,-1.006,0.227,0.097,-7.840,16.380,-12.950
1221183,-1.010,0.084,0.047,-6.580,15.050,-14.770
1221205,-1.025,0.100,0.087,-1.890,13.230,-12.390
1221226,-0.993,0.116,0.070,0.140,13.090,-9.800
1221246,-1.012,0.098,0.060,1.050,13.440,-8.400
1221270,-1.029,0.116,0.072,5.320,10.010,-3.500
1221290,-1.023,0.099,0.038,6.790,5.950,-0.910
1221308,-1.027,0.075,0.053,10.360,4.270,0.700
1221329,-1.020,0.101,0.043,15.610,1.820,2.030
1221350,-1.013,0.149,0.071,13.580,0.910,1.050
1221374,-1.023,0.086,0.042,11.970,0.350,1.050
1221394,-0.997,0.170,0.050,14.000,2.310,2.520
1221414,-1.005,0.189,0.069,6.650,2.450,-1.120
1221434,-1.012,0.115,0.036,3.990,2.170,-2.870
1221458,-1.020,0.102,0.056,-1.750,1.120,1.470
1221478,-1.011,0.081,0.070,5.810,2.380,1.820
1221498,-1.004,0.135,0.048,7.560,3.710,0.420
1221518,-1.024,0.144,0.052,3.990,6.230,-0.560
1221538,-1.018,0.118,0.035,7.280,4.480,0.560
1221562,-1.006,0.089,0.024,6.090,3.010,1.050
1221580,-1.012,0.091,0.028,6.300,2.940,2.730
1221604,-1.011,0.088,0.030,7.700,1.260,6.020
1221624,-1.001,0.084,0.032,3.990,0.070,7.910
1221642,-1.032,0.119,0.017,6.230,-0.700,8.190
1221666,-1.022,0.132,0.028,3.500,-1.680,8.050
1221684,-1.004,0.119,0.026,4.690,-3.220,8.260
1221705,-1.012,0.132,0.027,4.060,-3.500,9.310
1221726,-1.005,0.106,0.044,2.940,-5.110,10.710
1221745,-1.021,0.145,0.006,7.070,-5.390,11.760
1221770,-1.018,0.141,0.033,5.670,-8.190,11.970
1221789,-1.002,0.102,0.035,10.780,-8.190,12.810
1221808,-1.037,0.116,0.035,12.950,-9.170,14.490
1221832,-1.012,0.158,0.020,16.800,-11.760,14.840
1221852,-0.973,0.185,0.034,14.560,-10.220,12.390
1221872,-0.992,0.215,0.037,9.800,-9.240,10.500
1221892,-0.985,0.220,0.047,4.270,-7.210,9.590
1221916,-1.031,0.159,0.053,-1.540,-7.560,9.870
1221931,-1.009,0.152,0.053,4.060,-6.370,9.660
1221955,-1.003,0.187,0.021,8.820,-5.670,7.910
1221976,-0.979,0.180,0.050,5.880,-7.840,8.120
1221993,-1.008,0.175,0.030,8.610,-5.180,8.610
1222012,-1.003,0.235,0.049,5.880,-8.820,8.050
1222037,-0.976,0.283,0.037,-9.380,-5.740,5.880
1222057,-0.996,0.234,0.081,-15.330,-3.500,3.010
1222077,-1.006,0.176,0.089,-13.580,-2.730,1.400
1222097,-0.961,0.196,0.080,-12.110,2.030,-1.050
1222117,-0.971,0.160,0.070,-10.290,4.550,-4.270
1222137,-0.961,0.198,0.039,-7.420,6.930,-5.670
1222157,-1.006,0.264,0.050,-9.870,9.170,-6.790
1222181,-1.057,0.206,0.040,-14.630,5.670,-7.000
1222196,-1.008,0.140,0.042,-17.430,1.960,-4.760
1222221,-0.995,0.078,-0.028,0.910,-0.560,1.540
1222241,-1.032,0.138,0.064,1.190,2.520,2.940
1222261,-1.021,0.113,0.039,3.850,-5.040,2.100
1222278,-0.968,0.163,0.041,4.900,-3.430,-0.210
1222298,-0.991,0.252,0.065,-0.980,2.660,-3.850
1222320,-1.038,0.239,0.045,-7.840,1.540,-6.160
1222344,-1.012,0.205,0.040,-11.410,-0.280,-5.810
1222364,-0.999,0.141,0.041,-7.420,-0.140,-6.230
1222382,-1.011,0.137,0.043,-4.340,-0.140,-5.880
1222404,-1.007,0.182,0.044,-4.550,0.140,-5.670
1222423,-1.013,0.175,0.038,-8.190,-0.910,-6.160
1222444,-1.009,0.126,0.023,-9.800,-2.590,-5.670
1222468,-1.014,0.115,0.035,-5.880,-3.780,-4.060
1222488,-1.009,0.140,0.032,-1.750,-3.920,-3.290
1222506,-1.015,0.158,0.052,-1.120,-4.060,-5.110
1222528,-1.009,0.161,0.035,-3.780,-5.180,-5.390
1222546,-1.011,0.133,0.035,-0.350,-4.620,-4.550
1222569,-1.015,0.128,0.040,1.540,-6.440,-2.170
1222589,-1.008,0.154,0.041,2.940,-7.070,-2.310
1222613,-1.011,0.167,0.033,2.380,-7.700,-3.920
1222631,-1.005,0.149,0.041,0.280,-9.800,-2.870
1222653,-0.999,0.096,0.047,-0.420,-10.220,-0.840
1222673,-1.012,0.123,0.064,1.680,-10.780,1.260
1222697,-1.002,0.159,0.052,-1.750,-9.800,0.700
1222714,-1.009,0.193,0.051,-8.050,-9.310,-0.070
1222738,-1.025,0.161,0.055,-12.040,-10.080,-0.770
1222757,-0.968,0.102,0.064,-10.990,-11.200,-1.610
1222778,-1.005,0.069,0.089,-3.430,-7.420,-0.980
1222798,-1.027,0.084,0.088,3.570,-8.540,2.940
1222813,-1.016,0.128,0.078,5.810,-8.610,5.950
1222838,-1.003,0.203,0.055,-3.710,-11.480,8.680
1222858,-1.026,0.137,0.097,-13.720,-13.230,8.680
1222876,-1.014,0.086,0.101,-6.090,-16.240,10.920
1222895,-0.996,0.117,0.099,1.680,-15.260,12.040
1222919,-0.977,0.197,0.130,7.910,-8.120,9.800
1222943,-0.966,0.151,0.142,5.810,-0.700,4.690
1222962,-0.983,0.087,0.140,14.910,0.420,4.270
1222981,-0.962,0.211,0.109,15.120,6.790,2.100
1223001,-0.968,0.272,0.078,10.430,13.020,-1.960
1223024,-1.007,0.194,0.086,-1.960,12.460,-7.910
1223045,-1.011,0.175,0.064,-3.360,13.720,-8.190
1223065,-0.980,0.253,0.090,-6.440,16.240,-10.010
1223084,-0.976,0.183,0.078,-11.270,19.180,-14.560
1223104,-1.038,0.151,0.057,-11.270,18.830,-16.870
1223124,-1.038,0.102,0.043,-10.150,12.040,-13.580
1223147,-1.011,0.053,0.076,-6.440,16.380,-11.900
1223171,-1.010,0.136,0.015,6.020,15.400,-9.030
1223189,-1.023,0.175,-0.007,-0.350,11.830,-9.240
1223212,-1.029,0.145,-0.001,-8.820,9.870,-10.290
1223233,-1.037,0.114,0.036,-6.790,5.390,-11.970
1223252,-0.978,0.152,0.000,-7.210,6.720,-13.370
1223272,-1.007,0.098,-0.007,-10.640,7.070,-13.300
1223296,-1.032,0.011,0.036,-7.770,5.180,-7.350
1223316,-1.016,0.026,0.034,0.420,3.500,-1.960
1223335,-0.997,0.010,0.011,7.490,5.950,0.560
1223355,-1.027,-0.011,0.019,11.970,3.430,9.450
1223374,-1.047,-0.022,0.018,14.840,0.210,17.640
1223398,-1.012,0.032,0.005,22.890,-0.770,20.230
1223418,-1.009,0.142,0.004,21.000,-1.190,19.600
1223434,-1.021,0.163,-0.010,19.670,-1.260,18.550
1223457,-1.015,0.180,-0.007,12.740,-3.150,17.570
1223478,-1.000,0.146,-0.002,14.630,-1.750,14.210
1223497,-1.005,0.113,0.028,18.130,-0.560,12.670
1223518,-0.992,0.164,-0.023,19.600,-1.610,12.670
1223537,-1.021,0.179,-0.019,12.670,-0.700,12.110
1223561,-1.017,0.139,-0.022,10.710,-3.850,13.720
1223579,-1.008,0.141,-0.020,11.900,-4.830,14.910
1223599,-1.009,0.121,-0.014,13.650,-5.740,15.330
1223623,-1.017,0.151,-0.004,16.310,-8.190,17.220
1223643,-1.011,0.235,-0.028,13.230,-10.430,16.590
1223663,-0.997,0.220,-0.004,6.860,-11.970,14.700
1223682,-1.006,0.158,0.015,6.440,-12.740,12.460
1223701,-0.999,0.185,0.001,9.940,-11.550,12.320
1223720,-0.990,0.225,0.017,9.730,-9.660,10.780
1223744,-1.001,0.207,0.021,4.900,-10.850,8.890
1223765,-0.995,0.203,0.025,5.040,-8.260,6.790
1223783,-0.987,0.204,0.020,8.750,-7.070,3.990
1223802,-0.999,0.196,-0.000,8.400,-6.230,2.170
1223821,-0.989,0.222,0.046,3.990,-6.230,2.380
1223845,-0.990,0.167,0.037,3.640,-3.080,0.840
1223866,-1.005,0.202,0.015,5.250,-3.150,1.050
1223890,-0.977,0.201,0.019,1.330,-2.240,0.070
1223908,-1.006,0.157,0.024,6.790,-0.980,0.840
1223925,-1.003,0.177,0.009,8.820,-1.960,1.190
1223945,-0.982,0.221,0.005,8.960,-0.630,1.890
1223970,-0.987,0.262,-0.001,-5.040,-2.240,0.840
1223990,-1.020,0.148,0.016,-2.730,-3.570,-0.350
1224009,-0.994,0.154,0.020,-0.140,-3.780,1.750
1224029,-1.001,0.195,0.011,2.240,-2.660,1.610
1224052,-0.985,0.251,0.041,-1.120,-2.660,1.120
1224072,-1.020,0.232,-0.015,-9.870,-1.680,-1.330
1224091,-1.009,0.128,0.021,-11.060,-3.990,-1.050
1224111,-1.011,0.117,0.031,3.710,-5.950,0.490
1224135,-0.980,0.205,0.013,6.930,-4.200,-0.980
1224155,-0.983,0.240,0.016,3.500,-1.190,-4.340
1224175,-0.982,0.231,0.006,-4.130,-0.980,-5.670
1224200,-1.014,0.173,0.017,-9.380,-1.400,-6.090
1224219,-1.007,0.208,0.026,-8.960,-1.540,-4.900
1224238,-1.004,0.224,0.014,-15.400,-1.050,-5.530
1224258,-1.028,0.147,0.004,-17.570,-4.060,-3.150
1224278,-1.025,0.103,0.011,-14.210,-7.630,-0.840
1224302,-0.984,0.124,0.013,-2.730,-8.470,0.700
1224322,-0.975,0.198,0.016,-2.100,-5.950,-1.260
1224342,-0.979,0.256,0.030,-9.940,-3.430,-3.850
1224365,-0.997,0.213,0.053,-16.800,-1.400,-6.720
1224385,-1.030,0.111,0.049,-11.760,-2.870,-5.670
1224406,-1.008,0.131,0.027,-4.900,-2.660,-2.940
1224425,-1.001,0.196,0.029,-7.630,-3.430,-2.030
1224449,-1.007,0.180,0.007,-12.670,-4.130,-1.960
1224469,-1.024,0.129,0.023,-11.620,-5.600,-2.310
1224487,-1.017,0.091,0.040,-5.740,-9.660,-0.210
1224511,-1.005,0.107,0.048,3.010,-10.010,2.170
1224531,-1.009,0.157,0.036,4.690,-9.870,3.570
1224550,-1.016,0.161,0.039,2.870,-10.780,3.570
1224575,-1.034,0.121,0.045,3.780,-15.470,6.160
1224592,-1.016,0.134,0.040,9.660,-16.800,8.750
1224611,-0.939,0.213,0.016,40.460,-6.440,12.040
1224636,-1.033,0.210,0.066,6.510,-12.740,8.260
1224656,-0.987,0.193,0.089,0.140,-10.150,6.650
1224676,-1.028,0.125,0.061,-2.870,-14.980,9.100
1224700,-1.001,0.180,0.041,-2.520,-15.610,12.110
1224718,-0.968,0.200,0.061,-5.390,-12.740,8.400
1224742,-0.993,0.254,0.090,-19.250,-10.780,5.320
1224761,-0.992,0.207,0.100,-21.490,-9.660,3.990
1224785,-0.975,0.177,0.102,-16.800,-12.180,3.850
1224805,-0.991,0.203,0.101,-11.130,-8.400,1.960
1224825,-1.016,0.212,0.102,-8.540,-8.750,1.680
1224845,-0.995,0.195,0.131,-9.030,-10.010,1.610
1224867,-0.976,0.151,0.103,-4.900,-9.380,3.290
1224891,-0.969,0.133,0.141,0.070,-2.100,-1.680
1224911,-0.985,0.264,0.099,0.350,0.700,-3.010
1224927,-0.973,0.271,0.110,-5.950,2.800,-6.720
1224946,-0.962,0.185,0.102,-5.180,6.230,-10.640
1224970,-0.958,0.223,0.095,-5.670,11.270,-11.900
1224994,-1.015,0.242,0.076,-13.440,13.580,-15.400
1225014,-0.989,0.274,0.099,-18.270,14.140,-18.270
1225032,-0.979,0.116,0.090,-20.790,12.460,-18.410
1225054,-1.005,0.036,0.122,1.540,16.450,-0.910
1225073,-1.015,0.137,0.069,3.850,14.070,-10.850
1225097,-1.029,0.130,0.056,-8.680,13.160,-10.850
1225117,-1.045,0.096,0.048,-3.850,6.860,-10.080
1225132,-1.009,0.071,-0.000,3.780,7.910,-10.850
1225152,-1.028,0.146,0.071,3.360,7.630,-8.890
1225174,-0.999,0.180,0.034,15.190,8.680,-7.070
1225194,-1.017,0.110,-0.015,6.930,6.720,-9.520
1225214,-1.042,0.133,0.033,-8.190,2.380,-7.560
1225238,-1.011,0.112,0.094,-0.560,1.680,-5.810
1225258,-1.006,0.025,0.022,3.220,2.450,-5.810
1225277,-1.011,0.100,0.038,5.810,4.620,-1.960
1225298,-1.032,0.111,0.027,7.910,3.360,-0.700
1225318,-1.016,0.121,0.009,6.160,3.220,-1.050
1225337,-1.013,0.135,0.017,5.390,1.820,-2.170
1225357,-1.010,0.126,0.027,3.990,1.890,-2.800
1225376,-1.018,0.128,0.011,2.030,2.450,-2.240
1225401,-1.010,0.060,0.021,-0.210,0.000,0.490
1225420,-1.004,0.036,0.032,5.250,0.910,2.800
1225440,-1.044,0.081,-0.005,11.830,1.050,7.000
1225464,-1.011,0.092,0.025,9.030,-3.430,8.400
1225484,-1.010,0.100,0.000,9.380,-3.010,9.310
1225499,-1.028,0.144,-0.007,6.510,-6.300,11.200
1225524,-1.016,0.135,0.021,1.750,-7.210,10.500
1225539,-1.005,0.107,0.022,4.270,-8.680,9.590
1225563,-1.018,0.108,0.032,1.260,-7.980,10.500
1225584,-1.017,0.111,0.039,2.170,-9.800,10.990
1225604,-0.985,0.124,0.019,3.220,-8.260,10.360
1225624,-1.010,0.122,0.032,1.400,-9.520,10.430
1225644,-1.007,0.125,0.043,0.980,-10.010,10.780
1225662,-1.007,0.140,0.041,4.060,-9.450,9.940
1225686,-1.011,0.165,0.056,1.680,-9.170,10.220
1225706,-0.995,0.137,0.039,-0.210,-9.310,10.290
1225726,-1.035,0.146,0.044,0.840,-9.730,10.780
1225743,-1.018,0.194,0.035,2.450,-10.500,10.010
1225763,-0.976,0.197,0.032,-0.140,-10.430,7.420
1225787,-0.993,0.153,0.066,-2.030,-6.790,6.230
1225805,-1.013,0.149,0.067,-2.240,-7.210,8.120
1225829,-1.006,0.143,0.066,2.310,-6.300,8.540
1225849,-0.997,0.161,0.073,2.590,-4.130,7.070
1225867,-1.015,0.192,0.069,-1.050,-4.130,6.370
1225891,-0.988,0.202,0.038,-3.150,-2.170,4.970
1225911,-0.974,0.237,0.034,-10.640,-2.100,4.480
1225930,-1.025,0.191,0.058,-13.720,-1.190,3.570
1225949,-1.024,0.148,0.068,-9.030,-2.660,5.460
1225974,-1.000,0.182,0.049,-10.570,-1.960,7.840
1225993,-0.980,0.166,0.064,-14.140,-1.190,7.210
1226013,-1.012,0.138,0.061,-8.890,-1.400,7.000
1226032,-0.998,0.157,0.067,-5.600,-3.360,6.790
1226054,-0.970,0.183,0.081,-0.910,1.260,2.940
1226074,-0.979,0.248,0.098,-0.070,4.900,-1.050
1226098,-1.010,0.233,0.059,-3.920,8.190,-5.180
1226118,-0.987,0.242,0.041,-9.940,10.080,-6.510
1226137,-0.990,0.198,0.043,-11.620,8.750,-8.610
1226160,-0.978,0.185,0.047,-10.150,12.460,-11.200
1226180,-1.032,0.236,0.055,-13.370,14.560,-9.170
1226204,-1.032,0.198,0.046,-21.980,12.180,-9.590
1226224,-1.004,0.130,0.030,-24.150,10.360,-8.960
1226243,-0.969,0.095,0.010,-19.530,12.950,-9.730
1226262,-0.980,0.153,0.027,-16.730,14.840,-10.570
1226285,-1.017,0.196,0.034,-17.220,16.310,-9.800
1226304,-1.029,0.159,0.001,-21.490,13.510,-9.310
1226328,-1.028,0.122,0.004,-23.240,10.290,-7.210
1226348,-1.008,0.094,-0.043,-14.140,6.650,-7.420
1226368,-0.961,0.135,-0.028,-10.710,8.540,-10.290
1226387,-1.010,0.242,0.074,-10.920,15.120,-9.800
1226407,-1.121,0.064,-0.025,-4.830,6.860,-7.770
1226431,-1.061,0.054,-0.022,-2.940,0.770,-0.280
1226450,-0.993,0.075,-0.039,0.420,-3.010,2.590
1226472,-0.991,0.092,-0.031,5.180,-3.710,3.080
1226492,-1.028,0.115,-0.029,10.570,-6.160,4.480
1226516,-1.017,0.144,-0.023,10.290,-7.910,2.380
1226535,-0.987,0.135,-0.020,8.890,-8.470,-0.350
1226556,-0.989,0.149,0.022,10.780,-4.410,-3.920
1226571,-1.022,0.193,0.041,13.510,-3.290,-4.340
1226596,-1.027,0.119,-0.030,8.890,-3.710,-3.640
1226616,-1.021,0.137,-0.019,-0.350,-7.280,0.560
1226634,-1.014,0.101,-0.023,-0.560,-9.940,1.890
1226653,-1.026,0.091,-0.024,2.520,-12.600,2.870
1226672,-1.026,0.097,-0.024,5.740,-15.190,4.620
1226697,-1.020,0.143,-0.004,6.440,-18.970,7.840
1226716,-0.997,0.140,0.007,5.600,-18.970,8.400
1226735,-1.007,0.108,0.028,5.250,-17.430,7.630
1226760,-1.023,0.144,0.028,5.950,-18.550,8.610
1226777,-1.006,0.157,0.031,2.870,-19.390,7.700
1226797,-1.009,0.147,0.042,-1.400,-18.620,7.700
1226821,-1.034,0.072,0.032,-0.630,-19.740,9.310
1226841,-1.034,0.071,0.038,7.980,-24.780,12.810
1226861,-1.011,0.142,0.059,13.440,-25.620,16.800
1226881,-1.007,0.151,0.050,7.700,-27.860,19.740
1226905,-1.009,0.138,0.094,1.610,-29.680,21.280
1226925,-0.997,0.081,0.088,11.410,-27.790,22.260
1226945,-0.997,0.156,0.102,14.840,-25.620,22.890
1226965,-0.984,0.265,0.103,10.920,-27.300,23.240
1226989,-0.976,0.240,0.120,2.030,-25.760,20.930
1227009,-0.994,0.184,0.137,4.690,-23.870,18.760
1227029,-0.981,0.203,0.143,10.150,-21.910,15.960
1227049,-0.954,0.229,0.184,14.350,-18.760,14.000
1227069,-0.937,0.213,0.131,16.520,-11.060,10.920
1227089,-0.953,0.339,0.153,10.220,-3.850,8.540
1227108,-0.993,0.260,0.142,4.830,-3.920,3.010
1227127,-0.963,0.271,0.121,8.120,1.750,-0.630
1227151,-0.982,0.244,0.134,0.700,4.340,-2.380
1227169,-0.982,0.275,0.126,-5.810,6.580,-2.380
1227193,-0.992,0.226,0.117,-7.700,6.720,-6.930
1227213,-0.980,0.210,0.150,3.290,8.750,-8.960
1227233,-0.952,0.291,0.133,-0.210,13.230,-8.540
1227253,-0.995,0.228,0.085,-9.940,16.100,-12.460
1227272,-1.023,0.265,0.131,-11.410,13.790,-13.860
1227297,-0.969,0.317,0.108,-11.200,14.910,-18.690
1227317,-0.996,0.159,0.074,-15.260,16.870,-22.050
1227337,-1.041,0.145,0.057,-6.720,10.990,-15.890
1227356,-1.016,0.192,0.097,-10.430,9.100,-15.400
1227376,-1.001,0.169,0.073,-5.880,10.010,-16.450
1227397,-1.036,0.126,0.041,-5.530,6.160,-16.100
1227417,-1.037,0.106,0.101,-3.780,2.940,-12.040
1227437,-1.007,0.132,0.046,2.310,0.980,-7.700
1227455,-0.993,0.101,0.085,6.510,4.130,-7.420
1227474,-0.996,0.104,0.064,11.200,2.030,-5.110
1227498,-1.005,0.126,0.085,7.910,2.590,-1.960
1227518,-1.031,0.096,0.069,10.500,0.490,1.050
1227538,-0.988,0.163,0.090,11.410,2.100,2.450
1227555,-1.006,0.136,0.085,13.650,2.940,1.540
1227575,-1.014,0.135,0.033,9.170,1.400,3.360
1227595,-1.013,0.137,0.060,4.340,-0.070,6.300
1227619,-0.989,0.140,0.094,12.460,2.940,4.270
1227638,-0.990,0.160,0.064,15.050,4.130,1.750
1227662,-1.020,0.163,0.061,9.660,3.500,2.240
1227682,-0.997,0.137,0.036,6.370,3.570,3.640
1227702,-0.877,0.121,0.028,9.310,2.590,5.040
1227722,-1.029,0.149,0.057,13.370,3.290,4.690
1227742,-1.000,0.159,0.031,11.970,1.190,6.230
1227764,-1.015,0.147,0.033,1.890,0.140,8.540
1227784,-1.033,0.119,0.020,4.620,-2.380,11.620
1227804,-1.003,0.141,0.034,9.730,-4.830,11.760
1227828,-0.993,0.172,0.072,17.360,-2.310,10.220
1227847,-1.019,0.184,0.029,17.010,-1.400,7.490
1227867,-0.994,0.251,0.026,10.710,-0.420,5.740
1227889,-0.993,0.232,0.025,-1.050,-0.280,4.550
1227913,-1.018,0.170,0.023,-0.770,-1.750,3.570
1227932,-1.015,0.150,0.032,3.850,-3.710,3.430
1227953,-1.007,0.178,0.039,5.250,-2.520,2.590
1227971,-1.015,0.269,0.037,5.040,-2.940,1.820
1227991,-0.981,0.297,0.027,-6.440,-1.750,-2.380
1228015,-1.014,0.153,0.026,-13.020,0.630,-5.880
1228033,-1.013,0.176,0.017,-11.480,-1.190,-3.920
1228052,-0.987,0.172,0.052,-13.160,-1.330,-3.430
1228077,-0.999,0.081,0.044,-7.280,0.140,-2.240
1228097,-0.985,0.151,0.034,-2.590,0.000,0.910
1228117,-1.014,0.136,0.049,-1.960,-1.400,1.890
1228137,-1.017,0.149,0.041,2.940,-0.280,3.430
1228157,-0.983,0.210,0.031,3.920,-1.960,3.920
1228176,-1.002,0.147,0.025,4.340,-0.490,2.520
1228195,-1.023,0.156,0.023,6.090,-3.990,4.760
1228215,-1.009,0.155,0.037,8.610,-6.020,5.600
1228240,-0.976,0.193,0.025,9.240,-3.710,4.550
1228260,-1.000,0.178,-0.001,6.230,-4.550,2.030
1228275,-1.000,0.235,0.024,3.710,-6.230,2.590
1228295,-1.008,0.225,0.052,-1.400,-6.440,1.610
1228316,-1.013,0.185,0.046,-2.590,-7.000,0.980
1228336,-1.011,0.210,0.034,-3.990,-6.300,0.490
1228356,-0.984,0.225,0.046,-8.680,-5.810,-3.150
1228375,-0.980,0.193,0.041,-11.130,-1.960,-5.880
1228400,-0.991,0.165,0.055,-3.710,0.910,-7.490
1228420,-0.986,0.202,0.045,-4.270,2.730,-8.330
1228444,-1.122,0.217,0.038,-11.550,3.150,-8.470
1228464,-0.999,0.176,0.024,-14.070,4.340,-7.210
1228483,-1.031,0.082,0.026,-15.190,1.190,-7.000
1228504,-1.018,0.100,0.041,-5.600,-1.120,-5.250
1228523,-1.017,0.137,0.041,2.170,-2.170,-4.760
1228544,-1.012,0.186,0.028,0.280,-2.660,-3.920
1228568,-1.013,0.193,0.032,-2.870,-3.990,-4.620
1228588,-0.990,0.163,0.011,-1.820,-1.540,-4.970
1228606,-1.018,0.161,0.049,-6.930,-2.380,-4.340
1228628,-1.000,0.113,0.008,-0.420,-3.430,-2.520
1228648,-0.992,0.172,0.043,12.530,1.960,-2.870
1228668,-1.008,0.121,0.031,-4.060,-2.450,-5.390
1228688,-1.029,0.108,0.037,-5.740,-4.970,-2.450
1228707,-1.032,0.083,0.012,-3.080,-8.470,0.140
1228727,-1.041,0.119,0.041,0.840,-11.760,3.570
1228748,-1.021,0.102,0.024,1.960,-16.730,6.720
1228772,-1.030,0.120,0.034,-0.420,-19.250,10.360
1228792,-1.032,0.123,0.042,-1.890,-24.150,13.020
1228812,-1.018,0.117,0.051,-2.170,-28.420,14.000
1228830,-1.011,0.152,0.062,-1.680,-28.630,15.120
1228851,-0.990,0.175,0.084,-4.130,-28.840,15.680
1228875,-1.004,0.145,0.100,-6.300,-29.540,16.520
1228894,-0.977,0.184,0.102,-7.280,-29.610,17.710
1228914,-0.989,0.195,0.100,-11.200,-25.200,16.940
1228934,-1.033,0.186,0.111,-17.500,-27.300,17.780
1228953,-0.995,0.161,0.151,-14.210,-31.920,20.440
1228978,-0.990,0.073,0.158,-7.630,-35.560,24.710
1228993,-1.024,0.092,0.163,8.050,-36.050,28.140
1229018,-0.995,0.225,0.164,12.880,-33.880,29.680
1229038,-0.938,0.332,0.246,1.610,-34.230,27.510
1229058,-0.876,0.285,0.194,-3.080,-26.600,22.890
1229077,-0.971,0.292,0.204,-6.860,-16.520,15.540
1229101,-0.990,0.259,0.237,-3.710,-15.260,14.770
1229116,-0.961,0.193,0.241,5.740,-15.540,13.160
1229140,-0.848,0.311,0.233,13.300,-1.540,10.220
1229161,-1.014,0.302,0.208,0.070,3.570,3.290
1229178,-0.973,0.337,0.212,-7.350,2.800,1.960
1229197,-0.897,0.307,0.226,-9.520,6.440,-2.240
1229222,-0.963,0.229,0.159,-8.890,10.500,-4.830
1229237,-1.000,0.343,0.201,-11.130,9.940,-4.270
1229261,-0.964,0.293,0.206,-17.850,7.560,-10.710
1229282,-0.947,0.197,0.223,-14.700,12.040,-12.460
1229300,-0.958,0.197,0.181,-3.430,16.240,-11.690
1229324,-0.999,0.314,0.188,-9.240,16.100,-12.880
1229342,-0.948,0.285,0.196,-9.590,17.640,-17.290
1229362,-0.972,0.196,0.145,-13.650,18.900,-18.550
1229386,-1.007,0.219,0.189,-11.900,21.560,-19.460
1229404,-0.983,0.225,0.177,-2.660,17.570,-20.300
1229427,-0.970,0.116,0.094,-4.060,18.760,-19.950
1229448,-1.056,0.116,0.127,-2.870,13.510,-12.460
1229467,-1.028,0.225,0.161,3.570,8.190,-9.100
1229483,-0.957,0.150,0.078,7.280,10.850,-11.130
1229507,-1.018,0.128,0.116,7.350,9.240,-7.560
1229528,-1.036,0.131,0.163,11.340,6.090,-3.500
1229547,-0.982,0.125,0.119,18.480,7.630,-2.660
1229571,-0.985,0.199,0.114,17.080,8.190,-1.820
1229591,-1.025,0.176,0.102,12.600,6.160,-0.210
1229612,-1.017,0.232,0.078,7.980,3.710,4.340
1229630,-1.019,0.157,0.089,4.690,0.560,3.850
1229650,-0.995,0.135,0.122,11.340,0.350,4.270
1229674,-1.004,0.121,0.109,11.830,0.140,7.070
1229694,-1.032,0.146,0.080,16.940,-3.710,11.130
1229713,-1.005,0.129,0.099,19.250,-4.480,11.830
1229732,-0.988,0.215,0.107,22.820,-4.340,12.110
1229755,-0.992,0.261,0.091,19.180,-3.010,8.400
1229778,-0.989,0.294,0.086,6.440,-3.150,5.880
1229799,-0.996,0.217,0.115,-3.990,-2.380,4.970
1229819,-1.003,0.177,0.093,-2.660,-2.800,5.950
1229843,-0.994,0.194,0.102,-0.840,-2.240,6.720
1229859,-0.995,0.180,0.111,0.070,-1.610,6.790
1229881,-1.003,0.185,0.088,2.800,-2.660,6.440
1229903,-0.996,0.224,0.098,-0.070,-2.660,6.720
1229923,-0.988,0.203,0.094,-1.470,-1.400,6.720
1229941,-1.006,0.192,0.102,0.210,-2.730,7.560
1229960,-0.993,0.193,0.117,0.070,-2.520,8.540
1229985,-1.002,0.175,0.081,5.950,-1.470,8.260
1230007,-0.996,0.238,0.107,8.750,-4.410,9.940
1230029,-0.990,0.238,0.075,5.600,-2.380,9.310
1230049,-0.992,0.243,0.078,3.010,-3.360,9.940
1230069,-0.991,0.218,0.081,0.560,-6.440,10.430
1230093,-0.979,0.200,0.059,-0.140,-6.790,10.640
1230108,-0.988,0.223,0.100,-0.140,-7.630,9.870
1230132,-0.973,0.257,0.147,10.850,-5.460,1.820
1230152,-0.910,0.351,0.149,13.650,5.600,-8.260
1230173,-0.969,0.279,0.104,7.000,17.010,-17.360
1230193,-1.007,0.238,0.067,6.790,15.120,-16.870
1230212,-0.996,0.250,0.078,1.470,12.250,-15.050
1230235,-0.964,0.211,0.044,-1.470,12.670,-16.310
1230256,-0.975,0.261,0.050,-4.690,14.980,-17.290
1230276,-1.024,0.268,0.088,-16.450,12.460,-14.140
1230296,-1.030,0.155,0.056,-21.280,9.800,-12.110
1230312,-0.982,0.197,0.040,-16.450,10.150,-9.870
1230336,-0.993,0.199,0.055,-17.430,10.570,-10.990
1230353,-1.009,0.200,0.064,-16.660,10.850,-12.040
1230377,-0.984,0.233,0.068,-20.020,13.160,-13.440
1230396,-0.957,0.197,0.052,-27.090,16.450,-15.820
1230420,-0.991,0.166,0.055,-25.760,18.900,-16.590
1230440,-1.022,0.140,0.017,-22.540,17.290,-15.120
1230460,-1.027,0.125,0.013,-21.560,13.370,-11.270
1230480,-1.029,0.080,0.002,-17.290,9.730,-9.800
1230499,-1.030,0.085,0.002,-9.520,6.580,-7.490
1230523,-1.034,0.104,0.004,-4.410,2.660,-4.550
1230543,-1.012,0.124,0.012,-2.170,0.840,-3.010
1230563,-1.004,0.143,0.017,-3.220,0.000,-2.170
1230583,-1.021,0.116,0.016,-3.850,-1.120,-1.820
1230601,-1.022,0.141,0.018,-1.260,-4.550,-0.070
1230625,-0.989,0.139,-0.000,-0.700,-2.520,-0.350
1230645,-1.010,0.145,0.004,0.000,-3.710,-0.140
1230665,-1.021,0.123,0.008,0.070,-4.830,0.420
1230684,-1.030,0.081,0.008,5.740,-8.190,2.660
1230708,-0.944,0.185,0.117,42.420,-0.210,8.400
1230726,-1.000,0.166,0.010,32.130,-2.380,5.950
1230745,-1.005,0.161,-0.012,12.390,-2.590,1.050
1230768,-1.038,0.143,-0.004,1.190,-5.880,-0.490
1230789,-1.039,0.081,0.023,3.150,-8.680,-0.280
1230809,-1.034,0.100,0.020,10.500,-11.480,3.500
1230833,-1.017,0.102,0.039,10.430,-14.700,4.340
1230852,-1.011,0.148,0.025,13.300,-15.260,8.540
1230871,-1.004,0.181,0.031,10.430,-17.360,9.660
1230894,-0.999,0.224,0.044,0.000,-17.640,11.270
1230914,-1.031,0.206,0.048,-10.710,-21.910,12.460
1230934,-1.027,0.156,0.051,-18.270,-24.990,14.350
1230953,-1.035,0.109,0.068,-20.090,-28.910,16.310
1230978,-1.009,0.063,0.051,-14.490,-32.970,19.670
1230997,-0.968,0.091,0.064,-5.390,-27.230,19.040
1231021,-0.970,0.224,0.153,-7.770,-20.020,16.660
1231041,-0.992,0.166,0.116,-9.940,-18.620,14.770
1231060,-1.055,0.149,0.091,-9.310,-22.470,15.750
1231080,-1.005,0.217,0.132,-4.410,-28.280,18.970
1231101,-0.946,0.308,0.118,0.490,-22.610,16.870
1231125,-0.950,0.289,0.136,-9.310,-16.590,10.780
1231148,-0.969,0.200,0.174,-7.980,-11.270,9.100
1231169,-0.949,0.160,0.168,-2.450,-6.930,8.890
1231186,-0.999,0.181,0.148,2.730,-0.490,4.900
1231206,-0.960,0.325,0.179,9.870,0.350,1.610
1231229,-0.947,0.180,0.152,2.730,6.860,-2.940
1231250,-0.984,0.239,0.099,5.040,14.560,-4.900
1231274,-0.992,0.379,0.152,25.970,21.560,-6.090
1231294,-0.981,0.183,0.156,2.590,15.260,-12.390
1231312,-0.962,0.185,0.113,-1.960,22.960,-12.460
1231331,-1.017,0.319,0.111,-5.600,23.240,-12.740
1231351,-0.976,0.290,0.094,-14.210,21.000,-16.940
1231373,-0.993,0.091,0.068,-17.850,20.860,-20.790
1231395,-1.057,0.045,0.056,-7.560,17.850,-12.110
1231416,-1.010,0.221,0.084,-2.870,14.070,-8.190
1231434,-0.966,0.136,0.044,-1.960,17.850,-10.150
1231455,-1.047,0.043,0.057,3.010,14.350,-5.320
1231476,-1.049,0.073,0.065,19.110,9.100,2.660
1231495,-0.978,0.169,0.050,23.660,11.690,4.410
1231520,-0.992,0.196,0.022,26.670,12.250,0.560
1231539,-1.023,0.183,0.013,22.260,9.870,1.260
1231558,-1.026,0.186,-0.004,17.850,6.440,3.080
1231579,-0.982,0.321,0.014,18.550,7.630,1.190
1231598,-0.988,0.318,0.022,10.850,9.310,-7.350
1231623,-1.010,0.188,0.007,-1.610,8.400,-11.550
1231643,-1.032,0.181,-0.020,-4.410,6.510,-8.680
1231666,-0.985,0.121,0.044,-0.840,5.810,-8.120
1231686,-0.994,0.027,-0.007,14.700,5.320,-5.670
1231703,-1.025,0.245,0.002,9.730,4.480,0.560
1231727,-1.009,0.153,-0.025,8.050,-0.560,4.130
1231747,-1.005,0.148,0.015,4.690,-1.960,3.430
1231766,-1.017,0.132,-0.012,9.520,-3.290,4.410
1231791,-0.990,0.135,-0.006,9.310,-4.200,5.180
1231809,-0.985,0.156,-0.023,5.600,-6.580,6.860
1231830,-1.038,0.131,0.003,-0.420,-8.540,9.520
1231851,-1.035,0.112,0.009,7.280,-11.690,11.830
1231869,-1.009,0.119,-0.011,14.280,-13.650,12.110
1231888,-0.999,0.146,-0.022,15.050,-16.170,14.210
1231907,-1.019,0.194,0.016,12.950,-16.520,14.980
1231932,-1.032,0.182,0.032,15.750,-19.180,13.580
1231952,-0.977,0.222,0.015,16.450,-15.120,10.500
1231972,-0.979,0.199,0.011,15.610,-13.860,6.930
1231988,-0.976,0.290,0.050,8.750,-11.480,6.860
1232007,-1.014,0.261,0.025,3.640,-8.050,3.080
1232027,-0.953,0.282,0.042,5.950,-4.900,0.490
1232052,-0.956,0.231,0.048,-1.400,2.660,-7.910
1232069,-1.001,0.212,0.062,3.430,3.570,-10.640
1232092,-0.963,0.209,0.052,-0.210,8.260,-13.790
1232110,-0.963,0.219,0.007,-0.350,10.640,-14.490
1232133,-0.995,0.244,-0.008,-7.910,13.090,-16.800
1232154,-0.997,0.208,0.013,-18.060,10.570,-18.130
1232174,-1.021,0.180,0.024,-22.050,13.300,-17.500
1232194,-1.053,0.094,-0.024,-0.140,5.950,-13.510
1232218,-1.014,0.035,0.011,-11.620,2.940,-8.890
1232236,-1.010,0.054,-0.011,-1.330,-1.540,-4.130
1232255,-0.988,0.180,0.003,4.550,-1.470,-0.630
1232280,-1.050,0.146,-0.014,3.220,-0.140,-1.890
1232299,-1.032,0.169,-0.008,-2.730,-5.390,-0.910
1232323,-1.004,0.142,-0.000,-3.990,-6.860,0.000
1232338,-0.999,0.170,0.001,-8.120,-8.540,0.420
1232362,-0.984,0.111,-0.007,-8.960,-5.670,-2.100
1232383,-1.016,0.122,0.030,-1.260,-5.600,-2.310
1232403,-1.004,0.157,0.001,-0.980,-5.530,-3.290
1232422,-0.996,0.186,0.001,-5.810,-4.410,-3.990
1232446,-0.973,0.209,-0.015,9.100,-1.680,-2.800
1232466,-0.989,0.147,0.007,-2.450,0.210,-5.460
1232485,-1.009,0.152,0.031,-13.300,0.140,-7.700
1232509,-1.033,0.099,0.030,-13.230,-0.350,-9.030
1232530,-1.063,0.025,0.017,2.450,-3.780,-6.160
1232550,-1.023,0.080,0.009,9.380,-5.880,-3.570
1232570,-1.014,0.115,0.000,8.470,-9.030,-1.680
1232594,-1.030,0.130,-0.006,3.570,-9.800,0.210
1232611,-1.023,0.139,-0.002,4.130,-12.250,0.840
1232633,-1.001,0.173,0.025,-3.710,-12.180,1.960
1232652,-1.009,0.119,0.008,-6.160,-11.620,3.360
1232677,-1.011,0.096,0.040,-6.370,-11.410,4.550
1232696,-1.022,0.089,0.041,-6.370,-12.460,5.880
1232720,-1.025,0.110,0.034,-7.070,-13.440,8.680
1232739,-1.026,0.110,0.022,-7.560,-15.960,10.640
1232760,-1.030,0.108,0.042,-8.190,-20.230,12.740
1232779,-1.043,0.047,0.050,0.000,-24.990,12.950
1232803,-1.013,0.088,0.045,14.630,-26.040,14.560
1232824,-0.989,0.166,0.084,10.220,-25.270,15.540
1232843,-0.988,0.167,0.085,6.650,-24.290,15.400
1232861,-0.996,0.163,0.076,3.220,-21.560,13.790
1232881,-1.015,0.162,0.085,-0.910,-19.600,12.950
1232905,-0.989,0.117,0.093,8.750,-21.560,13.300
1232925,-0.963,0.095,0.102,18.340,-15.330,11.270
1232945,-1.044,0.100,0.151,17.430,-17.990,14.000
1232964,-0.981,0.175,0.144,22.820,-17.710,17.360
1232981,-1.003,0.218,0.136,21.420,-15.960,17.570
1233000,-0.961,0.305,0.126,11.200,-17.290,17.360
1233025,-0.976,0.248,0.136,0.910,-12.040,12.740
1233045,-1.023,0.141,0.147,3.570,-14.210,14.280
1233065,-0.996,0.118,0.126,21.770,-13.160,14.490
1233081,-0.960,0.300,0.163,26.670,-10.780,14.210
1233104,-0.916,0.308,0.116,14.980,-4.060,7.560
1233125,-0.977,0.343,0.165,-3.010,4.480,0.840
1233145,-0.938,0.356,0.129,-12.810,4.410,-2.380
1233163,-0.942,0.291,0.124,-19.040,12.880,-9.520
1233187,-0.984,0.239,0.149,-16.170,17.290,-15.470
1233206,-0.922,0.346,0.185,-28.630,24.570,-21.770
1233226,-0.960,0.249,0.101,-16.450,33.460,-30.660
1233250,-0.964,0.339,0.114,-21.070,38.360,-34.580
1233268,-0.992,0.164,0.039,-35.070,41.300,-39.550
1233292,-1.024,0.239,0.023,-46.690,40.390,-41.230
1233312,-1.037,0.386,-0.009,-55.510,33.390,-42.420
1233329,-0.986,0.048,-0.024,-66.640,30.170,-44.310
1233351,-1.079,-0.230,0.030,-62.720,23.590,-34.650
1233373,-1.004,-0.039,0.047,-24.850,20.440,-21.070
1233392,-0.993,0.018,-0.014,-9.660,15.610,-20.160
1233417,-1.035,0.084,-0.020,-9.450,18.830,-21.000
1233436,-1.078,0.142,-0.017,-15.190,15.330,-19.320
1233457,-1.019,0.103,-0.013,-18.970,9.940,-19.530
1233477,-0.982,0.000,0.006,-23.380,10.290,-19.320
1233493,-0.994,-0.070,-0.008,-13.720,9.380,-17.010
1233513,-1.057,-0.040,-0.061,-8.680,2.590,-8.540
1233533,-1.023,-0.007,0.123,-14.210,1.750,-3.220
1233552,-1.029,-0.059,0.010,-10.430,-0.420,4.130
1233578,-0.997,-0.068,0.005,0.350,0.560,12.880
1233595,-1.024,-0.011,0.023,7.490,4.200,19.740
1233619,-1.061,0.026,-0.034,14.560,3.850,24.780
1233639,-1.033,0.062,-0.010,9.870,-1.470,22.820
1233657,-0.994,0.079,-0.024,10.570,0.210,19.040
1233679,-1.018,0.121,-0.028,8.610,-1.120,15.400
1233695,-1.004,0.120,-0.008,4.270,-2.030,13.090
1233715,-1.011,0.081,-0.036,-1.050,-2.730,12.250
1233739,-0.996,0.045,0.007,0.770,-2.310,14.350
1233759,-1.025,0.002,-0.028,7.210,-2.590,18.060
1233777,-1.023,0.006,-0.009,18.900,-2.730,21.210
1233799,-1.036,0.073,-0.040,20.930,-5.460,24.780
1233818,-1.028,0.190,-0.086,25.620,-8.890,25.480
1233838,-0.990,0.198,-0.024,3.360,-13.580,22.120
1233863,-1.041,0.144,-0.027,3.990,-14.350,21.770
1233883,-1.042,0.135,-0.027,2.660,-19.390,21.910
1233902,-0.944,0.138,0.029,11.200,-13.930,24.360
1233923,-1.061,0.028,0.021,11.970,-15.680,24.360
1233941,-1.003,0.148,-0.020,24.220,-17.010,26.110
1233959,-0.993,0.216,-0.018,27.160,-15.540,24.780
1233979,-0.999,0.256,0.005,26.810,-15.260,21.490
1234002,-0.978,0.316,-0.015,15.260,-13.790,12.880
1234023,-0.959,0.224,0.039,8.330,-13.020,8.750
1234040,-0.980,0.158,0.049,7.840,-7.840,7.560
1234062,-0.995,0.198,0.013,16.380,-5.740,6.790
1234086,-0.995,0.209,0.018,15.750,-6.370,0.840
1234105,-0.950,0.238,-0.012,11.620,-3.850,-2.310
1234126,-0.988,0.271,0.003,3.850,-1.120,-5.250
1234144,-1.021,0.292,0.048,-0.980,-1.540,-4.270
1234168,-1.057,0.155,0.020,-12.600,-6.930,-2.030
1234185,-1.002,0.136,0.034,-3.920,-7.840,1.890
1234207,-1.005,0.145,-0.006,1.960,-10.220,1.400
1234229,-1.023,0.123,0.046,8.120,-11.690,0.770
1234247,-0.986,0.142,0.058,13.440,-9.100,1.400
1234270,-1.004,0.173,0.040,19.810,-9.240,-1.190
1234291,-0.946,0.368,0.070,14.000,-2.870,-4.130
1234309,-0.986,0.275,0.026,-17.010,-0.420,-10.640
1234329,-1.005,0.220,0.050,-14.000,0.000,-11.830
1234353,-0.988,0.145,0.044,-14.280,-0.210,-15.120
1234373,-1.123,0.148,0.042,-5.880,3.430,-14.700
1234389,-0.997,0.202,0.025,-2.590,4.760,-15.890
1234408,-0.975,0.243,0.018,-7.490,6.790,-18.620
1234433,-1.003,0.206,0.018,-17.430,9.310,-21.420
1234453,-1.033,0.108,0.026,-18.410,6.790,-21.490
1234473,-0.998,0.089,0.043,-8.820,9.030,-22.120
1234493,-0.970,0.152,0.002,6.160,17.430,-20.090
1234510,-1.035,0.135,0.034,0.630,15.540,-21.420
1234532,-1.015,0.048,0.001,-4.200,11.900,-22.540
1234553,-1.013,0.029,0.001,4.200,9.800,-24.360
1234574,-0.993,0.085,0.031,11.270,12.040,-25.690
1234591,-1.035,0.175,-0.000,7.420,15.190,-23.730
1234610,-1.035,0.120,-0.051,1.750,14.420,-24.920
1234635,-1.101,0.014,-0.058,17.290,5.320,-15.820
1234653,-1.022,-0.003,-0.019,25.410,0.210,-9.730
1234674,-0.947,0.001,-0.092,15.470,2.100,-9.100
1234698,-1.051,0.064,-0.047,3.080,-2.240,-5.460
1234718,-1.022,0.039,-0.076,-3.360,-4.130,-3.920
1234738,-1.025,0.032,-0.053,-3.500,-1.960,-6.790
1234757,-0.995,0.048,-0.012,-0.280,2.240,-9.170
1234778,-1.011,0.080,0.011,4.340,5.390,-12.950
1234797,-1.061,0.121,-0.007,-1.470,8.330,-14.840
1234820,-1.070,0.039,-0.055,-0.840,6.510,-17.710
1234840,-0.996,0.064,-0.088,-2.590,11.410,-13.160
1234860,-1.090,-0.004,-0.087,4.760,8.820,-5.880
1234884,-1.027,-0.090,-0.083,22.610,7.350,-3.710
1234903,-1.132,-0.212,-0.055,40.040,3.850,-3.570
1234925,-1.044,-0.154,0.066,47.880,-0.420,-8.610
1234944,-1.000,-0.206,0.172,45.150,-0.420,-15.470
1234963,-0.998,-0.175,0.195,40.250,-6.370,-18.690
1234987,-0.959,-0.108,0.212,23.240,-10.010,-17.640
1235006,-0.977,-0.073,0.195,6.580,-15.050,-14.560
1235028,-1.028,-0.049,0.150,-5.390,-22.260,-11.900
1235051,-0.975,0.021,0.149,-12.670,-28.630,-6.510
1235075,-1.021,0.060,0.084,-15.400,-35.210,-0.630
1235099,-0.998,0.167,0.045,-18.410,-32.690,3.570
1235119,-0.996,0.142,-0.030,-8.890,-27.720,7.280
1235136,-1.024,0.134,-0.090,3.150,-28.000,12.460
1235160,-0.990,0.169,-0.078,13.790,-27.300,22.890
1235177,-0.987,0.053,0.004,38.850,-27.580,28.350
1235201,-0.975,0.105,0.096,52.850,-20.930,31.360
1235221,-0.992,0.125,0.221,49.700,-23.520,32.550
1235241,-1.045,0.077,0.146,42.140,-33.250,33.250
1235260,-1.070,-0.224,0.025,33.390,-33.530,21.420
1235281,-1.063,0.031,0.281,15.750,-28.070,21.140
1235301,-1.064,-0.029,0.326,-3.780,-37.240,20.090
1235324,-1.063,0.025,0.272,-31.500,-31.990,5.530
1235348,-1.071,0.166,0.284,-53.550,-36.260,8.330
1235368,-1.056,-0.036,0.093,-49.350,-38.990,10.850
1235386,-0.992,-0.126,-0.106,-22.050,-37.940,6.860
1235410,-0.950,0.069,-0.064,-10.570,-23.310,6.650
1235430,-0.990,0.207,0.061,-13.300,-34.160,16.800
1235450,-0.902,0.164,-0.042,-5.390,-34.230,20.860
1235470,-0.888,0.208,-0.098,4.480,-31.290,31.430
1235490,-0.845,0.122,-0.222,18.690,-24.780,38.290
1235507,-0.820,0.158,-0.240,21.560,-14.000,40.810
1235527,-0.973,0.086,-0.132,-1.750,-6.510,34.860
1235551,-0.771,-0.417,0.016,-39.550,43.260,-13.720
1235571,-1.129,0.495,0.899,-65.660,25.690,15.330
1235590,-1.190,-0.077,0.507,-34.720,13.650,20.790
1235614,-1.182,-0.430,-0.273,33.320,41.440,-5.950
1235632,-1.034,0.488,0.143,16.870,69.510,15.470
1235650,-0.999,0.356,-0.137,-29.330,47.110,7.000
1235674,-1.076,0.256,0.038,-75.810,34.790,6.580
1235698,-0.975,-0.123,-0.042,-50.400,35.770,2.870
1235718,-1.072,-0.073,0.038,-0.630,27.020,15.190
1235738,-1.002,0.176,0.042,-4.130,30.520,16.940
1235756,-1.049,0.300,-0.012,-32.690,25.130,16.170
1235777,-1.053,0.129,0.019,-44.660,22.820,11.200
1235801,-1.054,0.056,0.012,-20.160,12.180,8.680
1235821,-1.009,0.159,0.038,-7.070,12.880,3.430
1235840,-1.024,0.195,0.011,-2.520,10.290,1.680
1235864,-1.029,0.133,0.003,4.970,7.630,-3.920
1235882,-1.010,0.081,0.033,16.310,2.240,-5.740
1235904,-1.017,0.128,0.039,15.820,3.850,-5.390
1235928,-1.016,0.127,0.025,9.940,6.650,-8.890
1235946,-0.988,0.189,0.028,16.940,9.800,-12.390
1235969,-1.009,0.189,0.010,24.990,3.990,-19.740
1235989,-0.996,0.178,0.022,17.570,1.330,-23.660
1236006,-1.021,0.084,-0.026,33.460,1.820,-25.900
1236029,-0.935,0.248,0.101,38.430,16.940,-45.990
1236050,-1.010,0.178,-0.041,8.890,19.460,-56.420
1236070,-0.938,0.122,0.053,14.280,17.430,-57.890
1236089,-0.902,0.036,0.073,27.510,37.730,-75.180
1236108,-1.033,0.100,0.069,16.170,15.820,-52.640
1236127,-1.048,-0.233,-0.177,-9.380,29.960,-69.090
1236147,-0.991,-0.084,-0.003,8.400,31.080,-59.080
1236168,-1.109,-0.231,-0.040,34.020,36.890,-78.960
1236192,-0.750,0.215,0.072,5.810,28.000,-63.140
1236210,-1.159,-0.227,-0.123,17.570,19.530,-59.710
1236232,-0.929,-0.064,-0.168,-15.330,42.490,-24.080
1236251,-0.893,-0.275,-0.101,15.890,33.810,-42.070
1236276,-0.597,-0.209,-0.206,14.350,65.940,-54.530
1236296,-1.091,-0.198,-0.171,22.540,51.730,-46.620
1236315,-0.921,-0.341,-0.188,33.320,71.120,-37.800
1236335,-1.251,-0.210,-0.191,34.510,77.630,-50.050
1236354,-1.081,-0.084,-0.347,34.650,92.190,-60.900
1236377,-1.117,-0.311,-0.105,31.430,71.120,-62.720
1236398,-1.062,-0.419,-0.248,4.060,54.180,-63.350
1236422,-0.995,-0.180,-0.207,11.900,62.440,-58.310
1236440,-0.728,-0.460,-0.363,16.660,73.430,-48.300
1236459,-0.616,-0.453,-0.364,13.650,74.690,-39.340
1236482,-0.748,-0.466,-0.441,21.350,60.340,-25.550
1236501,-0.769,-0.484,-0.449,21.910,52.570,-21.210
1236526,-0.850,-0.398,-0.393,26.740,45.920,-19.740
1236546,-0.839,-0.391,-0.447,28.350,36.750,-24.010
1236564,-0.826,-0.352,-0.513,24.220,23.800,-26.040
1236584,-0.779,-0.386,-0.511,19.040,10.290,-31.430
1236607,-0.760,-0.448,-0.458,17.990,-0.140,-36.120
1236628,-0.837,-0.476,-0.421,16.170,-11.060,-36.820
1236648,-0.771,-0.481,-0.441,13.790,-16.590,-34.370
1236670,-0.758,-0.479,-0.390,8.890,-19.530,-29.260
1236688,-0.736,-0.556,-0.364,6.020,-19.810,-23.940
1236708,-0.738,-0.537,-0.403,5.530,-25.690,-17.010
1236732,-0.746,-0.467,-0.440,3.710,-27.650,-6.020
1236751,-0.735,-0.540,-0.382,-1.330,-28.350,0.490
1236772,-0.747,-0.565,-0.331,-6.160,-31.150,4.200
1236791,-0.733,-0.531,-0.366,-7.630,-34.160,10.150
1236808,-0.739,-0.514,-0.371,-5.390,-34.370,17.710
1236827,-0.782,-0.527,-0.330,-4.270,-35.280,24.010
1236852,-0.771,-0.468,-0.349,-6.160,-37.380,28.350
1236872,-0.719,-0.396,-0.347,-14.910,-34.930,34.440
1236890,-0.834,-0.561,-0.237,-4.620,-39.270,38.150
1236913,-0.844,-0.521,-0.239,-5.880,-46.830,38.150
1236932,-0.813,-0.422,-0.330,-4.410,-50.540,40.040
1236954,-0.845,-0.339,-0.366,-3.150,-54.880,46.620
1236978,-0.770,-0.367,-0.332,-4.060,-55.230,58.170
1236998,-0.866,-0.522,-0.253,5.390,-63.700,60.900
1237018,-0.878,-0.495,-0.147,5.810,-66.920,64.400
1237042,-0.972,-0.400,-0.166,-1.330,-70.630,69.650
1237061,-0.978,-0.262,-0.306,1.750,-74.760,73.430
1237082,-1.173,-0.513,0.057,5.810,-79.380,80.570
1237104,-1.448,-0.232,0.151,-3.220,-67.130,77.210
1237126,-0.990,-0.205,-0.220,-11.760,-33.740,69.580
1237146,-1.049,-0.255,-0.014,-13.440,-44.450,74.900
1237166,-0.893,-0.188,-0.183,-11.480,-33.810,99.680
1237184,-1.257,-0.240,-0.048,-3.430,-71.890,101.710
1237205,-1.091,-0.231,-0.024,-1.330,-77.630,91.700
1237225,-0.909,-0.049,-0.057,-9.730,-63.700,82.530
1237249,-0.851,-0.014,0.044,-18.620,-44.660,72.870
1237269,-0.928,0.073,0.008,-36.260,-29.540,72.660
1237293,-0.926,0.043,0.083,-51.730,-20.440,55.370
1237317,-0.980,0.300,0.243,-69.230,-26.250,63.980
1237337,-1.121,-0.134,0.183,-76.930,-51.660,61.110
1237356,-0.994,-0.431,0.132,-20.510,-43.540,45.850
1237376,-0.646,0.550,0.506,34.720,8.120,6.370
1237400,-0.936,0.726,0.120,33.180,26.460,-18.550
1237415,-0.969,0.287,-0.094,-22.470,55.510,-25.550
1237439,-1.180,-0.069,-0.043,-19.180,27.020,-22.890
1237458,-1.078,-0.177,-0.112,16.940,-1.540,-5.600
1237479,-1.038,-0.187,0.015,18.060,0.980,0.210
1237503,-1.024,-0.118,0.000,33.600,-4.130,9.030
1237523,-0.972,0.085,0.061,18.690,-2.240,8.610
1237539,-1.034,0.180,0.128,13.370,-2.870,-0.420
1237559,-1.029,0.152,0.111,4.690,-2.310,-10.220
1237583,-1.019,0.113,0.070,1.610,6.510,-18.060
1237602,-0.957,0.126,0.058,16.800,12.110,-21.000
1237623,-0.972,0.068,0.061,2.870,-5.600,-31.290
1237643,-1.036,0.075,0.149,5.110,10.990,-39.130
1237663,-1.050,0.010,0.066,-5.530,6.650,-55.160
1237683,-0.884,-0.099,-0.081,-2.590,65.870,-67.130
1237707,-0.975,-0.250,0.250,82.670,10.780,-51.240
1237726,-0.951,-0.090,0.075,74.410,44.450,-59.500
1237746,-0.977,-0.295,-0.205,46.340,27.930,-59.570
1237767,-0.971,-0.068,-0.137,11.410,55.440,-61.250
1237788,-1.019,-0.133,-0.033,64.540,47.180,-55.510
1237812,-1.024,0.021,-0.012,21.000,61.880,-66.780
1237832,-0.979,-0.090,0.053,13.580,22.610,-41.790
1237847,-1.401,-0.445,0.045,2.030,1.890,-52.640
1237872,-1.363,-0.041,-0.020,-6.090,84.700,-15.050
1237892,-1.044,-0.219,-0.098,-4.480,46.060,-33.250
1237908,-1.118,-0.296,-0.198,-3.710,55.090,-36.330
1237930,-0.998,-0.375,-0.266,12.600,61.530,-35.210
1237949,-1.267,-0.360,-0.130,43.890,92.400,-37.100
1237974,-1.184,0.027,-0.003,5.810,79.730,-57.680
1237992,-0.758,-0.381,-0.194,1.680,80.150,-51.660
1238012,-0.632,-0.412,-0.333,2.800,79.520,-43.470
1238036,-0.910,-0.385,-0.353,3.780,74.480,-34.860
1238056,-0.876,-0.366,-0.268,14.070,67.760,-32.480
1238080,-0.665,-0.448,-0.283,12.320,70.140,-19.110
1238100,-0.747,-0.470,-0.312,5.250,67.060,-11.830
1238117,-0.895,-0.428,-0.410,13.860,64.260,-10.920
1238136,-0.962,-0.365,-0.409,16.800,55.930,-8.260
1238160,-0.833,-0.312,-0.504,16.730,49.770,-12.250
1238180,-0.881,-0.228,-0.575,16.310,42.070,-17.080
1238204,-0.869,-0.368,-0.580,17.290,17.920,-23.240
1238224,-0.853,-0.335,-0.542,13.230,3.220,-35.770
1238242,-0.861,-0.351,-0.577,15.750,-7.770,-41.650
1238261,-0.848,-0.354,-0.526,12.460,-19.040,-42.840
1238286,-0.744,-0.466,-0.456,5.040,-22.680,-41.720
1238304,-0.737,-0.560,-0.377,8.050,-31.780,-37.170
1238325,-0.686,-0.488,-0.482,-2.800,-33.390,-33.320
1238345,-0.759,-0.509,-0.444,-1.820,-39.270,-28.000
1238369,-0.861,-0.453,-0.378,-2.310,-51.450,-22.890
1238389,-0.726,-0.475,-0.427,0.840,-56.630,-17.570
1238408,-0.600,-0.301,-0.406,-7.910,-52.220,-10.150
1238428,-0.662,-0.514,-0.387,12.670,-44.870,-10.640
1238452,-0.768,-0.491,-0.298,-4.620,-56.210,4.340
1238472,-0.803,-0.532,-0.327,0.210,-63.350,10.570
1238492,-0.711,-0.380,-0.236,-19.530,-56.140,-1.680
1238512,-0.835,-0.645,-0.296,-19.740,-69.370,-0.280
1238531,-0.939,-0.601,-0.209,-26.950,-76.370,3.150
1238552,-1.123,-0.523,-0.238,-49.980,-81.620,8.400
1238572,-0.970,-0.438,-0.228,-15.330,-63.700,16.800
1238595,-1.033,-0.439,-0.233,-34.160,-51.520,19.740
1238616,-0.923,-0.464,-0.363,-5.320,-56.770,40.950
1238637,-1.264,-0.366,-0.218,-10.850,-59.570,81.060
1238660,-0.823,-0.370,-0.124,13.790,6.860,99.610
1238679,-1.273,-0.387,-0.293,-26.670,-65.450,102.480
1238700,-0.693,-0.535,-0.458,-41.300,-70.910,101.640
1238724,-0.055,-0.611,-0.407,-16.660,-67.410,92.750
1238744,0.185,-0.220,0.695,-39.900,-54.880,131.460
1238761,-0.843,-1.481,-0.280,-54.530,-97.720,116.760
1238783,-0.861,-0.644,0.389,-27.230,-118.230,65.310
1238800,-1.263,0.663,0.179,-54.390,21.770,126.490
1238825,-1.704,0.778,-0.593,-146.720,-11.550,78.750
1238845,-1.035,0.007,0.430,-157.290,7.770,32.690
1238865,-1.343,-0.699,0.335,-59.010,-0.490,19.530
1238882,-0.970,-0.330,-0.071,4.060,-93.450,46.410
1238903,-0.520,0.225,-0.160,49.630,-0.210,37.940
1238925,-1.037,0.345,0.056,-16.520,18.270,12.530
1238949,-1.384,0.228,0.075,-29.190,-9.170,3.430
1238969,-0.970,0.026,-0.075,-31.570,-1.610,-2.450
1238993,-0.874,-0.028,-0.090,3.640,3.220,-13.300
1239012,-0.854,0.020,-0.242,-1.750,6.230,-10.990
1239033,-0.918,-0.018,-0.104,-32.900,5.810,-3.990
1239053,-1.030,-0.261,0.075,-6.160,10.080,-8.610
1239077,-1.132,-0.218,0.219,26.320,24.080,-26.250
1239097,-1.260,-0.162,-0.017,50.750,13.440,-19.880
1239116,-1.250,0.336,-0.003,87.640,39.900,-22.960
1239140,-1.458,0.351,-0.033,67.340,53.970,-34.370
1239160,-1.300,0.052,0.095,92.680,87.710,-41.230
1239180,-1.390,-0.256,0.275,115.780,71.540,-46.270
1239200,-1.096,-0.308,-0.178,78.890,57.470,-47.810
1239220,-0.908,-0.113,-0.401,62.090,47.810,-29.960
1239244,-0.697,0.085,-0.195,-1.050,18.200,-11.620
1239263,-0.470,0.578,0.883,-72.800,-33.320,16.870
1239284,-0.300,0.063,0.373,-45.990,-106.120,79.100
1239303,-0.033,-0.240,-0.372,-30.660,-93.660,64.820
1239324,-0.587,-0.069,-0.389,-76.090,-43.050,58.380
1239348,-1.020,-0.573,-0.749,-85.120,-53.060,65.590
1239368,-1.266,-3.169,-1.785,-7.000,61.110,-66.290
1239388,-1.837,1.045,1.588,-109.270,-15.680,10.570
1239410,-1.213,-0.609,-0.611,-120.890,-155.470,70.000
1239430,-1.190,-0.117,0.418,-71.610,26.740,25.060
1239448,-1.216,-0.247,0.268,25.550,-14.980,39.970
1239472,-1.197,0.145,-0.212,-52.080,-7.770,26.390
1239492,-1.036,0.066,-0.094,-37.310,-1.120,26.180
1239512,-0.922,-0.079,-0.197,-17.780,-6.090,31.570
1239532,-0.883,-0.104,-0.219,-15.960,-19.880,41.860
1239555,-1.045,0.042,-0.023,10.710,-67.480,68.670
1239576,-1.181,0.203,0.256,4.200,-13.650,46.760
1239595,-1.149,0.075,0.064,-19.600,8.820,25.760
1239616,-0.969,-0.189,-0.194,14.490,0.420,25.340
1239640,-1.047,0.368,-0.062,20.160,-2.730,23.310
1239656,-1.053,0.231,-0.019,-8.050,-6.790,10.570
1239680,-1.005,0.197,-0.016,-24.640,-2.730,0.490
1239699,-1.019,0.006,-0.104,-6.930,-1.610,3.640
1239720,-1.003,0.061,-0.014,-8.680,-7.910,9.520
1239738,-1.035,0.068,-0.002,-3.150,-6.300,8.890
1239758,-0.996,0.073,-0.050,2.940,-7.070,6.020
1239781,-1.025,0.123,-0.041,14.350,-8.680,0.980
1239800,-1.013,0.132,-0.005,8.680,-12.180,-2.590
1239820,-1.040,0.146,0.021,3.500,-12.530,-3.360
1239840,-0.991,0.162,-0.020,3.920,-11.200,-7.140
1239864,-1.011,0.139,0.005,2.170,-16.520,-9.310
1239884,-1.022,0.094,0.012,5.460,-18.200,-9.800
1239903,-1.035,0.076,-0.021,0.560,-21.490,-9.800
1239927,-1.012,0.050,0.034,1.820,-23.170,-8.820
1239945,-1.024,-0.036,0.010,20.510,-23.940,-5.460
1239965,-1.044,-0.004,-0.036,22.750,-24.640,-0.700
1239989,-1.041,0.041,-0.026,37.380,-24.780,-2.940
1240007,-1.116,0.067,0.036,45.850,-35.280,-1.470
1240029,-1.076,-0.057,0.040,58.450,-47.460,-4.830
1240049,-1.125,-0.010,-0.030,75.040,-48.720,-9.520
1240069,-1.056,0.121,0.040,54.600,-58.450,-10.850
1240093,-1.026,0.042,-0.024,57.330,-48.510,-14.420
1240113,-1.001,-0.030,-0.071,84.490,-31.360,-23.870
1240131,-0.994,0.191,0.037,97.160,-13.300,-33.040
1240153,-1.067,0.328,0.098,68.950,-0.490,-43.120
1240173,-1.078,-0.360,-0.377,70.910,19.880,-62.440
1240197,-1.335,-0.443,-0.495,68.670,32.760,-69.930
1240217,-1.028,-0.020,0.124,8.260,66.640,-76.020
1240236,-1.077,-0.183,0.107,-21.910,58.520,-73.710
1240260,-0.891,0.056,0.267,-43.330,64.680,-65.310
1240280,-0.861,0.056,0.331,-44.800,43.400,-56.140
1240298,-0.746,-0.000,0.310,-18.620,34.930,-38.500
1240317,-0.696,-0.008,0.421,26.460,22.190,-19.810
1240341,-0.865,-0.241,0.293,85.820,-15.330,-20.160
1240361,-0.205,-0.369,0.339,105.560,-25.690,-17.990
1240385,-0.998,0.290,0.209,7.000,40.880,-24.430
1240401,-0.861,-0.173,-0.382,45.640,-95.200,-8.470
1240421,-1.032,-0.549,-0.023,88.060,-4.550,-24.850
1240445,-0.696,-0.378,0.399,32.690,12.320,-85.330
1240465,-1.493,0.243,0.030,38.570,-61.740,-59.640
1240484,-1.821,1.035,-0.244,27.160,129.080,-64.050
1240501,-1.094,-0.244,0.073,-30.940,35.490,-80.780
1240525,-0.806,-0.644,0.006,17.640,85.680,-57.610
1240549,-0.376,-0.769,-0.401,64.330,78.190,-49.070
1240569,-0.361,-0.507,-0.277,38.290,12.250,-33.950
1240589,-2.094,-0.089,0.318,52.220,5.530,-17.640
1240606,-1.255,-0.333,-0.317,44.380,102.130,-34.510
1240625,-0.607,-0.429,-0.241,41.440,87.850,-26.250
1240648,-1.340,-0.231,-0.155,25.410,73.920,-45.640
1240672,-1.155,-0.241,-0.394,12.950,100.450,-50.330
1240692,-1.085,-0.443,-0.133,2.380,78.890,-46.200
1240710,-0.959,-0.572,-0.114,-5.040,72.310,-39.760
1240732,-0.691,-0.508,-0.242,-6.440,62.790,-32.900
1240755,-0.562,-0.452,-0.405,-0.070,52.850,-25.410
1240772,-0.712,-0.430,-0.463,3.780,43.680,-21.700
1240796,-0.901,-0.451,-0.403,3.710,30.380,-19.320
1240816,-0.941,-0.324,-0.373,-0.280,24.290,-19.390
1240834,-0.813,-0.474,-0.374,-1.750,21.280,-20.510
1240856,-0.769,-0.415,-0.411,-4.200,6.720,-18.690
1240876,-0.672,-0.459,-0.463,-12.110,-5.460,-17.710
1240892,-0.765,-0.361,-0.468,-7.210,-15.260,-17.430
1240916,-0.901,-0.496,-0.395,0.070,-19.390,-17.080
1240934,-0.973,-0.601,-0.237,-0.840,-24.360,-18.830
1240951,-0.898,-0.616,-0.206,-12.040,-22.540,-16.590
1240976,-0.795,-0.611,-0.255,-17.150,-28.770,-11.830
1240996,-0.700,-0.522,-0.316,-19.950,-31.360,-6.090
1241013,-0.779,-0.451,-0.399,-9.240,-33.180,0.630
1241033,-0.773,-0.526,-0.342,-5.110,-40.320,8.750
1241052,-0.765,-0.632,-0.270,-3.640,-43.540,9.240
1241077,-0.804,-0.492,-0.276,-10.080,-52.010,15.820
1241097,-0.804,-0.450,-0.328,-16.170,-50.330,20.300
1241117,-0.865,-0.508,-0.258,-16.450,-52.570,24.780
1241141,-0.801,-0.496,-0.261,-15.890,-58.030,33.740
1241159,-0.743,-0.549,-0.207,-12.180,-53.690,38.710
1241179,-0.880,-0.560,-0.139,-13.930,-55.300,46.760
1241202,-0.931,-0.436,-0.241,-11.480,-60.130,59.500
1241223,-0.870,-0.390,-0.267,7.700,-59.990,70.560
1241238,-0.961,-0.469,-0.159,12.390,-63.070,76.860
1241261,-0.959,-0.435,-0.124,14.980,-67.130,91.770
1241285,-0.973,-0.300,-0.164,12.950,-67.480,102.900
1241305,-1.064,-0.415,-0.098,8.820,-80.430,91.140
1241321,-1.085,-0.273,0.176,-11.200,-79.660,110.320
1241340,-1.296,0.034,-0.087,-17.920,-49.070,129.290
1241364,-1.444,-0.211,0.040,38.430,-80.780,99.190
1241385,-0.854,-0.227,0.032,-34.860,-59.780,82.460
1241404,-0.422,-0.323,-0.022,-28.700,9.730,11.900
1241428,-1.150,-0.106,0.213,-16.100,13.370,53.480
1241448,-1.327,-0.104,0.138,10.010,-70.630,70.630
1241468,-0.740,0.015,0.019,1.470,-74.270,70.350
1241486,-0.799,-0.050,0.028,8.750,-57.750,66.150
1241508,-0.709,0.068,0.074,-0.210,-55.580,50.400
1241531,-0.550,0.166,0.058,-15.330,-21.490,25.760
1241551,-0.730,0.345,0.305,-26.460,7.700,-7.000
1241570,-1.083,0.452,0.266,-28.840,49.770,-20.790
1241594,-1.881,-0.045,0.242,-45.990,6.650,-16.170
1241614,-1.132,-0.291,0.133,0.140,-43.470,4.830
1241632,-0.786,-0.121,0.008,9.800,-5.810,-4.200
1241652,-0.883,-0.124,0.101,8.960,3.430,-2.240
1241676,-1.016,-0.064,0.064,23.310,-2.100,1.610
1241696,-1.066,0.074,0.066,4.340,-3.780,7.560
1241714,-1.062,0.014,0.154,-9.450,-13.440,9.380
1241736,-0.921,-0.013,0.104,-9.940,-2.800,4.270
1241755,-0.974,0.016,0.135,-13.580,3.430,1.260
1241776,-1.096,-0.004,0.124,-5.670,4.480,0.210
1241795,-1.070,-0.006,0.083,-2.590,-2.520,1.960
1241818,-0.993,-0.046,0.094,7.280,-3.920,5.600
1241837,-0.953,-0.004,0.102,24.500,-0.560,7.210
1241857,-0.931,-0.066,0.091,13.440,8.120,-3.080
1241879,-0.975,0.117,0.155,6.160,20.510,-11.340
1241898,-1.018,0.155,0.146,-2.450,27.090,-21.280
1241919,-1.061,0.057,0.145,-14.280,2.590,-62.860
1241940,-0.968,0.074,0.081,-28.000,20.720,-63.070
1241960,-0.999,0.001,0.087,-40.180,14.280,-67.830
1241979,-0.973,-0.078,0.103,-45.290,23.380,-78.050
1242001,-0.976,-0.103,0.022,-39.690,29.260,-76.790
1242025,-1.017,-0.242,-0.007,-33.950,31.080,-83.020
1242049,-0.998,-0.189,0.113,-35.350,36.540,-61.740
1242069,-1.128,-0.324,-0.046,65.520,8.540,-62.020
1242089,-0.675,-0.030,0.185,27.440,11.340,-76.230
1242106,-1.103,-0.460,-0.174,40.460,42.420,-72.940
1242130,-0.934,-0.169,0.055,31.920,13.510,-70.210
1242150,-0.848,-0.278,0.021,3.500,44.730,-67.900
1242170,-0.838,-0.233,0.017,9.730,39.060,-48.510
1242189,-1.047,-0.468,-0.084,-10.990,9.800,-39.200
1242209,-0.723,-0.321,-0.032,11.550,60.130,-39.060
1242232,-0.887,-0.331,-0.101,16.030,53.410,-28.910
1242253,-0.924,-0.333,-0.094,21.280,69.580,-28.000
1242273,-0.979,-0.409,-0.146,30.170,76.160,-25.690
1242292,-0.997,-0.343,-0.199,25.410,94.710,-24.850
1242313,-1.192,-0.384,-0.310,34.440,87.220,-30.660
1242337,-1.262,-0.487,-0.056,27.440,83.510,-35.070
1242357,-1.098,-0.653,-0.036,12.390,68.950,-32.480
1242376,-0.689,-0.581,-0.219,-3.360,65.940,-33.180
1242394,-0.744,-0.392,-0.346,-4.690,63.140,-27.090
1242418,-0.692,-0.468,-0.447,-0.070,54.810,-19.670
1242435,-0.734,-0.521,-0.360,5.530,42.420,-18.200
1242459,-0.787,-0.531,-0.305,4.340,27.510,-22.190
1242478,-0.950,-0.444,-0.351,7.280,18.060,-24.850
1242499,-0.910,-0.417,-0.377,3.500,8.120,-27.370
1242519,-0.848,-0.530,-0.355,1.540,-2.310,-28.140
1242543,-0.806,-0.556,-0.315,1.540,-9.870,-28.070
1242563,-0.732,-0.461,-0.389,-3.150,-14.140,-22.470
1242582,-0.772,-0.611,-0.382,-3.850,-19.180,-15.750
1242601,-0.858,-0.679,-0.227,-0.910,-25.550,-11.270
1242622,-0.827,-0.621,-0.260,-6.020,-34.580,-10.080
1242646,-0.727,-0.450,-0.403,-8.190,-40.600,-5.880
1242666,-0.686,-0.512,-0.312,-8.610,-43.470,2.590
1242684,-0.787,-0.656,-0.213,-9.240,-48.300,9.730
1242708,-0.879,-0.561,-0.238,-16.660,-61.530,11.970
1242728,-0.798,-0.524,-0.283,-19.110,-69.160,13.230
1242744,-0.745,-0.513,-0.274,-24.430,-60.900,18.760
1242768,-0.909,-0.552,-0.282,-10.710,-64.330,30.520
1242788,-0.813,-0.510,-0.254,-5.250,-61.460,35.140
1242808,-0.789,-0.573,-0.187,-3.500,-55.160,42.140
1242828,-0.951,-0.557,-0.126,6.370,-56.070,60.760
1242847,-0.918,-0.432,-0.197,-4.970,-63.980,61.320
1242871,-0.943,-0.375,-0.196,-1.050,-64.470,69.720
1242889,-0.851,-0.375,-0.190,1.470,-68.810,84.140
1242913,-0.747,-0.512,-0.191,7.210,-67.690,103.320
1242933,-1.039,-0.548,-0.030,25.130,-73.640,124.740
1242953,-1.224,-0.198,0.098,8.470,-68.460,119.350
1242971,-1.071,-0.194,-0.045,5.530,-41.230,125.440
1242992,-1.038,-0.197,0.158,-53.130,-25.410,98.630
1243016,-1.077,-0.333,0.255,-34.020,10.360,63.420
1243035,-1.668,-0.359,0.181,22.610,-98.560,78.820
1243055,-0.622,-0.118,-0.023,24.220,-87.710,70.420
1243074,-0.721,-0.020,0.009,10.430,-55.440,65.030
1243099,-0.779,-0.046,-0.056,7.280,-55.510,58.170
1243118,-0.714,0.060,-0.022,11.130,-43.540,45.570
1243137,-0.775,0.067,0.129,0.560,-32.760,36.260
1243157,-0.843,0.007,0.109,-13.090,-26.250,23.590
1243182,-0.873,0.181,0.169,-9.450,-5.530,-0.560
1243201,-1.072,0.140,0.317,-4.970,16.940,-16.450
1243225,-1.550,-0.200,0.260,-1.960,18.410,-11.830
1243249,-1.371,-0.098,0.200,13.160,-29.190,10.360
1243269,-0.821,0.022,0.123,9.030,-14.420,1.750
1243289,-0.905,0.090,0.142,-5.250,2.380,-4.830
1243313,-1.012,-0.055,0.129,-13.860,0.700,-5.040
1243332,-0.983,-0.209,0.134,-18.200,-4.690,-0.910
1243352,-0.894,-0.236,0.127,-2.310,-6.300,0.910
1243373,-0.811,-0.108,0.049,6.230,2.730,0.350
1243397,-0.922,0.024,0.110,-3.500,7.210,-1.610
1243417,-1.094,-0.033,0.126,-16.870,4.970,3.220
1243437,-1.203,-0.128,0.214,-11.690,-10.500,8.960
1243457,-0.970,-0.048,0.165,2.730,-3.850,7.980
1243475,-0.998,0.061,0.157,0.210,5.180,4.760
1243498,-1.035,0.085,0.163,-8.400,10.080,-1.400
1243517,-1.051,-0.025,0.105,-4.900,8.050,-4.270
1243542,-1.000,-0.176,0.072,6.580,5.740,-2.730
1243560,-0.974,-0.125,0.165,30.240,1.960,2.800
1243583,-0.874,-0.158,0.118,20.440,10.990,-6.160
1243604,-0.871,-0.058,0.250,14.910,28.980,-21.980
1243623,-0.920,0.155,0.176,9.590,51.800,-37.940
1243647,-0.993,0.310,0.121,-0.280,80.850,-68.530
1243667,-1.387,0.013,0.177,-21.140,21.840,-95.550
1243691,-0.912,-0.073,0.133,0.630,77.140,-111.580
1243709,-1.105,-0.300,-0.018,-18.410,11.060,-50.050
1243731,-0.914,-0.473,-0.278,-0.280,35.210,-50.120
1243747,-0.932,-0.462,-0.056,29.470,43.330,-53.480
1243770,-0.811,-0.106,-0.188,64.120,14.000,-74.620
1243791,-1.142,-0.254,0.170,5.530,11.690,-73.780
1243811,-0.867,-0.582,-0.089,-3.990,59.850,-85.470
1243830,-0.834,-0.314,-0.275,8.960,61.950,-77.140
1243854,-0.749,-0.220,-0.351,-4.830,42.980,-90.440
1243878,-1.082,-0.439,-0.176,1.610,53.550,-62.510
1243896,-1.092,-0.342,-0.243,15.610,49.210,-54.040
1243920,-0.870,-0.301,-0.292,36.190,73.850,-46.620
1243937,-0.860,-0.713,-0.023,12.740,61.740,-49.630
1243956,-0.903,-0.667,0.007,4.060,61.600,-47.110
1243980,-0.853,-0.592,-0.224,-3.220,60.340,-36.890
1244000,-0.786,-0.512,-0.295,5.740,53.970,-24.360
1244021,-0.805,-0.660,-0.233,8.680,42.770,-15.190
1244040,-0.715,-0.528,-0.299,4.200,37.940,-13.020
1244057,-0.550,-0.560,-0.377,-0.350,28.210,-11.550
1244081,-0.767,-0.618,-0.283,4.830,16.940,-9.030
1244101,-0.869,-0.468,-0.323,4.550,3.640,-8.820
1244116,-0.854,-0.464,-0.325,2.450,0.980,-4.690
1244141,-0.833,-0.590,-0.276,2.310,-6.440,-0.420
1244161,-0.723,-0.535,-0.304,0.000,-10.010,4.270
1244179,-0.798,-0.579,-0.278,0.560,-16.800,9.520
1244199,-0.855,-0.572,-0.241,1.960,-16.730,16.030
1244223,-0.874,-0.575,-0.237,0.070,-16.590,20.860
1244243,-0.831,-0.536,-0.267,-1.330,-16.520,24.010
1244260,-0.812,-0.511,-0.274,-3.220,-19.460,26.390
1244283,-0.798,-0.524,-0.266,-2.240,-27.370,30.170
1244300,-0.798,-0.491,-0.280,-2.170,-32.130,32.970
1244320,-0.807,-0.477,-0.272,1.330,-40.110,40.950
1244341,-0.840,-0.475,-0.249,2.660,-41.090,45.150
1244363,-0.876,-0.498,-0.189,-0.140,-46.550,47.740
1244380,-0.845,-0.477,-0.208,-1.540,-50.190,51.660
1244404,-0.928,-0.390,-0.224,-0.070,-56.350,57.890
1244425,-0.921,-0.396,-0.235,-0.350,-61.040,61.530
1244449,-0.884,-0.445,-0.204,7.770,-63.140,69.860
1244469,-1.344,-0.714,0.142,9.660,-80.500,64.400
1244489,-1.132,-0.337,0.033,-9.940,-85.400,79.940
1244509,-1.148,-0.242,-0.154,40.460,-67.760,98.700
1244529,-1.075,-0.131,-0.110,-8.960,-69.790,111.230
1244549,-1.113,-0.366,-0.073,-11.130,-73.220,93.310
1244569,-0.979,-0.393,-0.109,-41.510,-70.280,70.070
1244593,-0.743,-0.069,0.091,-27.440,-16.800,71.610
1244613,-0.908,-0.207,0.017,-25.690,-16.170,66.010
1244630,-1.433,-0.042,0.301,-3.990,-94.640,82.460
1244652,-0.747,-0.192,0.002,-13.790,-106.750,89.950
1244675,-0.738,-0.007,0.094,-10.290,-66.360,88.410
1244696,-0.789,-0.069,0.230,-20.580,-68.740,72.240
1244712,-0.738,-0.177,0.241,-36.960,-55.790,68.600
1244736,-0.856,0.281,0.293,-40.180,-15.400,27.090
1244760,-1.086,1.041,0.552,-10.360,24.570,-16.450
1244779,-0.927,0.119,0.106,-44.310,13.580,-23.240
1244800,-0.652,-0.390,0.024,-3.290,62.930,-41.650
1244820,-1.527,-0.081,0.233,-4.690,9.450,-20.230
1244840,-0.915,-0.238,0.080,-6.090,-3.570,-5.320
1244864,-1.009,-0.307,0.093,32.130,-1.960,-0.630
1244884,-0.980,-0.028,0.075,27.300,-7.420,8.190
1244904,-0.988,0.132,0.131,5.110,-2.380,13.580
1244923,-0.995,0.028,0.158,-24.920,-8.120,8.540
1244948,-0.987,0.003,0.219,-9.870,2.940,1.750
1244966,-1.092,0.016,0.161,-1.610,0.700,-1.470
1244987,-1.009,0.050,0.140,-5.390,3.220,-4.200
1245008,-0.975,0.021,0.144,-9.310,-0.350,-2.590
1245028,-0.990,-0.092,0.091,-11.620,3.780,-3.500
1245048,-1.012,-0.113,0.130,-1.750,5.670,-4.200
1245072,-0.985,0.001,0.148,7.350,9.100,-7.350
1245092,-0.968,0.057,0.153,2.870,16.730,-12.740
1245107,-0.999,0.043,0.136,1.330,19.670,-16.310
1245131,-1.055,-0.055,0.104,-2.030,17.920,-19.320
1245152,-1.047,-0.068,0.116,1.680,12.740,-15.330
1245169,-0.977,-0.061,0.108,14.350,14.840,-17.640
1245193,-0.915,0.085,0.158,6.370,26.810,-28.700
1245213,-0.971,0.040,0.065,-12.390,36.260,-35.840
1245231,-1.150,-0.103,0.097,-27.160,26.460,-34.160
1245253,-0.958,-0.118,0.119,25.200,22.750,-36.260
1245273,-0.899,0.045,0.144,23.030,36.470,-45.710
1245297,-1.019,0.068,-0.013,-10.360,37.660,-72.030
1245317,-1.013,-0.265,0.056,-7.560,39.620,-94.710
1245335,-1.006,-0.194,-0.008,21.140,37.240,-88.480
1245353,-0.894,-0.131,0.021,15.540,52.780,-94.920
1245377,-1.016,-0.133,-0.072,29.190,33.250,-90.300
1245397,-0.892,-0.463,0.018,13.930,10.780,-76.020
1245416,-0.822,-0.156,-0.084,4.900,21.700,-57.330
1245440,-0.922,-0.160,-0.041,1.050,14.630,-74.970
1245459,-0.748,-0.520,-0.170,-27.510,46.060,-73.640
1245480,-0.992,-0.438,0.005,-21.350,20.720,-61.390
1245500,-1.015,-0.346,-0.023,-2.870,35.840,-50.050
1245524,-0.916,-0.330,-0.143,-5.250,63.000,-43.050
1245544,-0.932,-0.416,-0.203,-5.880,59.780,-37.240
1245568,-0.937,-0.541,-0.198,-4.550,53.760,-31.290
1245588,-0.996,-0.447,-0.202,2.240,45.500,-25.340
1245608,-0.837,-0.450,-0.248,1.890,37.660,-22.890
1245627,-0.925,-0.640,-0.177,-5.740,27.580,-22.960
1245648,-0.870,-0.537,-0.284,-7.210,16.870,-21.980
1245668,-0.898,-0.557,-0.201,-6.370,8.260,-20.720
1245687,-0.854,-0.524,-0.224,-1.680,0.980,-19.180
1245705,-0.870,-0.488,-0.258,-1.750,-5.460,-17.920
1245726,-0.883,-0.553,-0.214,-0.280,-14.980,-13.650
1245745,-0.874,-0.586,-0.159,-0.840,-20.510,-7.910
1245770,-0.865,-0.517,-0.215,-4.760,-23.380,-0.910
1245790,-0.895,-0.576,-0.181,-1.050,-30.100,6.720
1245808,-0.821,-0.556,-0.160,-0.140,-29.680,13.930
1245829,-0.854,-0.588,-0.160,-2.520,-33.530,21.700
1245853,-0.873,-0.565,-0.171,-0.280,-36.330,29.330
1245873,-0.856,-0.563,-0.124,1.540,-38.780,36.190
1245888,-0.845,-0.549,-0.109,0.910,-36.470,40.390
1245908,-0.943,-0.523,-0.099,-2.940,-35.140,46.760
1245932,-0.965,-0.393,-0.158,0.210,-30.450,54.880
1245953,-0.928,-0.436,-0.145,3.920,-24.920,60.900
1245969,-0.981,-0.394,-0.155,12.600,-28.210,62.580
1245993,-0.936,-0.403,-0.102,16.170,-29.400,70.700
1246013,-0.944,-0.411,-0.114,9.240,-33.530,84.210
1246032,-0.994,-0.332,-0.085,8.540,-33.600,104.440
1246053,-0.944,-0.302,-0.082,3.010,-59.990,102.130
1246073,-0.989,-0.291,-0.101,-0.070,-41.300,105.630
1246089,-1.076,-0.308,-0.047,14.210,-71.680,112.420
1246113,-1.122,-0.348,0.005,15.750,-71.400,107.310
1246132,-1.126,-0.409,-0.023,12.880,-62.370,87.010
1246152,-0.744,-0.291,-0.095,11.270,-49.700,51.030
1246173,-0.995,-0.025,0.081,-28.000,23.240,45.220
1246193,-1.217,-0.098,0.120,16.450,-22.190,75.740
1246210,-1.370,-0.043,0.149,23.590,-93.170,88.550
1246234,-0.791,0.042,0.079,7.490,-96.740,84.630
1246251,-0.854,0.214,0.190,-4.690,-69.020,81.690
1246271,-0.949,0.193,0.186,-30.940,-64.610,74.690
1246295,-0.772,0.088,0.263,-47.180,-51.940,36.540
1246315,-0.620,0.302,0.531,-27.020,22.750,-16.030
1246335,-0.883,0.826,0.559,-16.520,41.300,-13.720
1246355,-0.946,-0.069,-0.080,-26.180,48.790,-39.340
1246378,-1.083,-0.193,0.045,11.620,60.830,-42.140
1246399,-1.319,0.017,0.104,24.010,-6.090,-20.930
1246419,-0.992,-0.335,0.061,0.630,4.830,-15.050
1246437,-1.052,-0.333,0.135,43.120,-1.470,-2.800
1246455,-0.984,-0.115,0.080,52.850,-3.360,3.780
1246475,-1.044,0.187,0.119,21.070,6.090,10.010
1246498,-1.156,0.196,0.152,-14.910,-15.190,13.160
1246519,-0.997,0.015,0.125,-26.810,-15.260,6.370
1246538,-0.957,-0.064,0.166,-9.450,-8.610,3.220
1246562,-0.973,0.047,0.172,-5.390,-1.260,1.890
1246581,-1.001,0.025,0.145,-12.600,2.520,2.100
1246598,-1.029,0.040,0.163,-9.940,2.310,1.890
1246622,-1.003,0.034,0.108,-5.810,2.030,-0.770
1246646,-1.042,-0.043,0.133,0.140,1.120,-2.520
1246664,-1.013,-0.031,0.128,10.010,-2.310,-1.470
1246684,-0.980,-0.005,0.145,15.610,0.910,-3.010
1246705,-0.989,-0.041,0.146,24.430,5.250,-8.330
1246726,-0.970,0.061,0.171,31.570,12.180,-14.980
1246750,-0.986,0.136,0.149,21.840,18.690,-21.280
1246770,-0.964,0.109,0.139,2.170,30.170,-30.450
1246789,-0.958,0.033,0.160,-0.420,38.010,-41.370
1246810,-0.901,0.082,0.169,-0.210,48.650,-50.680
1246833,-0.975,0.007,0.132,-6.790,82.110,-47.390
1246853,-0.845,-0.040,0.052,-12.390,23.520,-53.970
1246874,-0.997,0.046,0.086,-1.680,52.640,-55.370
1246894,-0.988,-0.085,0.057,-16.450,49.490,-87.500
1246914,-1.012,-0.140,0.065,-20.650,57.470,-82.740
1246934,-0.986,-0.080,0.031,3.360,55.790,-81.970
1246958,-0.996,-0.203,-0.160,11.830,63.350,-104.860
1246978,-1.077,-0.124,-0.020,-11.550,26.040,-83.580
1246998,-0.539,-0.391,-0.190,-17.710,55.650,-80.010
1247018,-0.893,-0.375,-0.141,9.590,11.620,-85.330
1247041,-1.127,-0.269,-0.102,16.380,-1.750,-81.690
1247062,-0.808,-0.472,-0.207,1.750,14.070,-58.590
1247078,-0.969,-0.464,-0.192,-23.520,57.190,-46.690
1247101,-1.000,-0.464,-0.256,-10.360,67.340,-59.500
1247122,-0.843,-0.456,-0.217,13.580,84.560,-39.060
1247142,-0.820,-0.524,-0.231,16.030,55.160,-33.250
1247161,-1.199,-0.513,-0.255,38.290,50.050,-37.030
1247186,-1.078,-0.598,-0.059,26.320,50.470,-34.720
1247206,-0.756,-0.555,-0.154,10.360,18.760,-24.500
1247226,-0.580,-0.471,-0.392,2.380,32.760,-16.940
1247244,-0.780,-0.533,-0.334,4.340,29.190,-7.910
1247268,-0.830,-0.527,-0.206,3.780,17.780,-2.800
1247286,-0.588,-0.428,-0.354,-2.030,18.550,1.960
1247307,-0.761,-0.503,-0.390,8.610,11.550,8.960
1247328,-0.891,-0.579,-0.212,16.100,0.630,12.110
1247347,-0.862,-0.556,-0.233,3.500,-6.090,11.200
1247367,-0.819,-0.429,-0.325,-2.170,-6.230,12.530
1247391,-0.842,-0.492,-0.305,-0.420,-10.290,16.730
1247411,-0.847,-0.530,-0.256,2.170,-22.960,19.670
1247429,-0.817,-0.503,-0.266,3.570,-27.860,22.120
1247448,-0.799,-0.431,-0.293,2.730,-30.940,25.480
1247472,-0.854,-0.418,-0.293,1.750,-33.040,32.410
1247491,-0.871,-0.437,-0.297,0.420,-35.350,37.450
1247509,-0.845,-0.491,-0.216,0.420,-40.600,42.420
1247531,-0.886,-0.458,-0.239,1.470,-46.690,46.410
1247551,-0.906,-0.348,-0.250,1.610,-52.850,52.640
1247573,-0.937,-0.405,-0.213,-6.230,-60.620,55.230
1247597,-1.290,-0.736,0.040,5.460,-79.450,48.860
1247616,-1.146,-0.290,-0.219,-11.200,-61.180,69.860
1247637,-1.101,-0.149,-0.174,13.370,-50.890,76.720
1247657,-1.060,-0.326,-0.106,-5.740,-63.210,75.670
1247681,-1.037,-0.401,-0.160,-5.740,-78.960,108.290
1247701,-1.321,-0.374,-0.038,16.730,-89.670,91.630
1247721,-1.055,-0.301,-0.006,3.290,-79.870,90.720
1247741,-0.858,-0.077,0.041,-7.700,-75.110,74.760
1247761,-0.605,0.121,0.123,-21.700,-11.620,53.550
1247779,-0.930,-0.180,0.052,-23.380,-2.590,69.580
1247802,-1.337,-0.079,0.214,-30.730,-113.120,82.600
1247823,-0.696,0.022,0.087,-32.200,-86.590,75.740
1247847,-0.763,0.016,0.197,-49.140,-54.810,74.060
1247866,-0.901,-0.257,0.339,-54.460,-40.810,52.430
1247890,-0.820,0.118,0.332,-23.030,-7.910,15.960
1247909,-1.029,0.788,0.249,-25.340,20.860,-4.410
1247928,-0.987,0.205,0.119,-49.630,33.110,-31.990
1247949,-1.338,-0.224,0.102,5.110,69.090,-36.750
1247973,-1.031,-0.280,-0.030,21.560,-11.270,-8.750
1247988,-0.978,-0.228,0.071,26.880,-5.530,-4.690
1248008,-1.050,-0.096,0.099,35.420,-10.080,5.040
1248033,-0.971,-0.027,0.060,22.960,-8.260,8.050
1248052,-1.024,0.034,0.150,-7.070,-10.990,10.710
1248075,-0.987,0.056,0.174,-15.330,-7.700,5.810
1248095,-1.001,0.001,0.184,-9.730,0.770,-1.260
1248119,-0.994,0.020,0.155,3.360,7.490,-6.720
1248138,-0.997,0.066,0.100,-7.770,10.780,-7.420
1248158,-1.033,-0.058,0.095,-21.560,8.050,-7.490
1248178,-1.015,-0.116,0.103,-7.420,3.290,-9.170
1248201,-0.936,-0.103,0.129,18.060,10.500,-15.820
1248222,-0.899,-0.020,0.189,17.640,30.170,-29.680
1248242,-0.981,0.172,0.233,21.630,44.310,-44.800
1248266,-1.000,0.140,0.135,-0.630,58.380,-63.140
1248286,-1.020,0.034,0.156,-23.940,58.310,-68.950
1248304,-0.876,-0.229,0.019,-25.480,50.540,-68.460
1248326,-0.883,-0.256,0.051,7.350,55.300,-56.490
1248342,-1.028,-0.209,0.077,7.350,51.240,-67.690
1248366,-1.039,-0.270,0.012,12.950,49.070,-72.520
1248385,-0.808,-0.177,-0.076,22.400,55.440,-69.720
1248406,-0.920,-0.445,-0.110,25.200,27.860,-72.870
1248426,-0.900,-0.177,-0.017,15.190,38.360,-67.900
1248450,-1.316,-0.253,-0.080,17.780,17.220,-71.960
1248465,-0.919,-0.283,-0.103,7.000,28.630,-65.170
1248490,-0.974,-0.306,-0.027,-11.200,8.050,-62.580
1248510,-0.568,-0.315,-0.234,-11.410,91.770,-64.400
1248528,-1.269,-0.339,-0.132,-8.190,46.200,-68.460
1248548,-1.050,-0.412,-0.129,1.050,64.960,-72.590
1248570,-0.795,-0.581,-0.275,2.310,48.370,-68.180
1248590,-1.081,-0.414,-0.283,5.880,37.590,-63.280
1248610,-1.171,-0.534,-0.139,11.270,41.930,-65.800
1248631,-1.024,-0.554,-0.143,1.820,33.110,-63.630
1248651,-0.652,-0.533,-0.300,-3.080,31.640,-50.960
1248675,-0.715,-0.502,-0.382,0.700,25.060,-36.190
1248695,-0.737,-0.710,-0.233,2.450,16.590,-27.650
1248713,-0.774,-0.637,-0.150,-0.210,7.070,-24.150
1248733,-0.581,-0.522,-0.349,-10.430,14.490,-16.590
1248752,-0.806,-0.566,-0.301,0.490,6.020,-3.220
1248772,-0.931,-0.701,-0.219,7.140,-4.480,1.050
1248797,-0.781,-0.630,-0.228,-2.100,-10.430,4.480
1248815,-0.761,-0.592,-0.274,-5.670,-8.960,9.520
1248838,-0.784,-0.622,-0.247,-5.810,-11.130,16.730
1248858,-0.779,-0.597,-0.251,-6.790,-16.870,24.150
1248874,-0.732,-0.610,-0.241,-5.460,-20.090,29.750
1248894,-0.766,-0.532,-0.257,-5.600,-21.910,36.610
1248919,-0.766,-0.492,-0.279,-5.740,-24.360,48.510
1248940,-0.802,-0.544,-0.244,-0.420,-29.470,58.730
1248960,-0.768,-0.549,-0.225,1.820,-40.740,65.240
1248980,-0.749,-0.496,-0.258,4.830,-45.290,72.450
1249003,-0.832,-0.341,-0.318,7.700,-49.560,80.080
1249024,-1.158,-0.828,-0.108,-0.490,-50.190,76.790
1249047,-1.162,-0.445,-0.041,-16.520,-67.970,89.110
1249071,-1.071,-0.239,-0.346,22.260,-34.930,99.540
1249089,-1.028,-0.173,-0.079,-5.600,-54.040,104.300
1249110,-0.985,-0.347,-0.175,0.630,-43.050,108.080
1249134,-1.078,-0.366,-0.152,-10.640,-66.360,128.310
1249154,-0.996,-0.229,-0.234,-2.310,-66.780,93.310
1249174,-0.980,-0.199,-0.056,4.130,-102.270,103.250
1249190,-0.955,-0.027,-0.006,19.740,-94.080,96.670
1249214,-1.030,-0.007,-0.183,-5.390,-68.390,76.160
1249234,-0.516,-0.031,0.202,-16.380,22.330,40.530
1249250,-0.923,-0.053,0.208,-23.310,3.150,67.550
1249269,-1.324,0.210,0.272,-29.890,-121.100,93.170
1249294,-0.686,0.174,0.103,-58.660,-76.440,94.500
1249309,-0.821,-0.016,0.224,-60.410,-55.440,84.770
1249330,-0.913,-0.300,0.235,-62.790,-37.380,51.100
1249354,-0.567,0.671,0.750,-20.020,19.320,-24.150
1249374,-1.055,0.713,0.207,-20.090,16.590,-10.920
1249393,-0.766,-0.468,-0.292,-1.610,63.840,-50.820
1249413,-1.362,-0.193,0.071,51.310,76.370,-49.560
1249433,-1.176,-0.152,0.089,41.160,-49.350,-3.430
1249457,-0.916,-0.116,0.036,28.070,-3.500,6.510
1249477,-1.083,-0.036,0.100,27.580,-24.360,16.170
1249496,-0.935,0.052,0.061,12.950,-9.520,15.540
1249515,-1.088,0.145,0.151,-5.880,-12.530,13.090
1249537,-0.975,0.132,0.181,-13.090,-13.650,4.130
1249558,-0.942,0.019,0.152,2.030,0.630,-3.430
1249580,-0.973,0.059,0.129,11.690,3.710,-8.890
1249599,-1.006,0.087,0.128,7.560,7.280,-8.330
1249624,-1.044,0.041,0.080,-5.670,1.400,-5.320
1249644,-1.037,-0.002,0.087,-6.790,-2.380,-4.130
1249663,-1.014,-0.052,0.102,-1.960,-2.800,-4.060
1249687,-1.027,-0.001,0.125,5.250,-3.990,-2.100
1249708,-1.017,-0.034,0.137,14.140,-3.290,-4.760
1249727,-0.986,-0.005,0.152,27.160,1.470,-11.480
1249746,-0.969,0.079,0.153,26.950,7.980,-18.970
1249771,-0.942,0.166,0.151,17.430,22.680,-27.230
1249791,-0.966,0.064,0.140,2.380,32.620,-38.290
1249811,-0.965,0.022,0.162,1.610,40.040,-48.860
1249831,-0.985,0.156,0.182,-0.140,49.980,-47.390
1249850,-1.185,0.177,0.074,-2.240,12.950,-58.310
1249871,-1.052,-0.033,0.020,-35.770,38.990,-50.050
1249891,-0.945,-0.148,0.100,-30.030,30.030,-48.510
1249908,-1.025,-0.375,0.043,-45.780,43.820,-62.090
1249929,-0.917,-0.300,-0.029,-22.470,50.750,-60.550
1249950,-1.048,-0.188,-0.012,-2.310,59.780,-57.750
1249974,-1.015,-0.129,-0.085,-3.430,60.410,-64.190
1249994,-0.998,-0.188,-0.054,37.310,35.350,-62.370
1250014,-0.978,-0.169,0.071,23.240,45.430,-63.420
1250033,-1.101,-0.254,-0.098,32.900,40.530,-70.490
1250057,-1.141,-0.233,-0.051,2.240,44.100,-63.350
1250075,-1.136,-0.668,-0.094,25.690,8.960,-52.780
1250099,-0.872,-0.214,-0.052,2.030,20.930,-45.290
1250119,-1.064,-0.203,-0.343,15.050,40.390,-55.090
1250139,-0.928,-0.452,-0.203,-2.590,48.370,-45.500
1250157,-1.459,-0.509,-0.220,12.180,27.650,-40.740
1250174,-1.140,-0.405,-0.242,36.260,63.420,-42.840
1250195,-1.226,-0.236,-0.234,37.240,69.790,-40.040
1250216,-0.970,-0.366,-0.260,30.310,67.830,-29.470
1250234,-0.782,-0.539,-0.321,29.330,62.580,-15.820
1250258,-0.677,-0.533,-0.275,32.830,65.240,2.940
1250281,-0.758,-0.586,-0.271,31.220,59.360,9.380
1250298,-0.730,-0.611,-0.290,31.430,37.310,4.830
1250322,-0.819,-0.567,-0.300,13.720,14.910,-7.560
1250341,-0.881,-0.371,-0.440,-0.700,-5.950,-19.600
1250360,-0.772,-0.301,-0.495,-1.750,-22.330,-25.900
1250384,-0.824,-0.435,-0.385,-3.080,-32.760,-27.370
1250403,-0.909,-0.553,-0.307,-5.950,-51.170,-29.050
1250421,-0.857,-0.547,-0.309,-2.940,-57.820,-28.140
1250444,-0.772,-0.551,-0.280,-6.090,-64.750,-21.840
1250468,-0.783,-0.577,-0.203,-4.690,-68.600,-6.230
1250488,-0.756,-0.583,-0.224,-6.090,-68.110,8.400
1250506,-0.808,-0.555,-0.158,-0.700,-60.340,24.080
1250528,-0.917,-0.566,-0.131,-4.900,-57.890,35.280
1250544,-1.095,-0.636,-0.040,-6.020,-58.170,37.730
1250568,-0.935,-0.569,-0.133,-7.560,-49.910,46.900
1250588,-0.856,-0.380,-0.085,-14.070,-44.030,52.500
1250606,-0.918,-0.402,-0.119,-11.200,-49.630,67.900
1250627,-0.993,-0.446,-0.130,-1.750,-45.430,82.250
1250647,-0.936,-0.394,-0.130,5.180,-53.480,99.680
1250671,-1.024,-0.380,-0.128,-1.190,-50.540,114.450
1250691,-1.055,-0.345,-0.064,5.460,-47.600,116.410
1250710,-1.119,-0.346,-0.071,9.730,-62.650,121.380
1250731,-1.156,-0.367,-0.088,22.050,-79.450,112.000
1250751,-1.008,-0.320,-0.055,44.450,-78.050,109.900
1250775,-0.907,-0.203,-0.183,4.270,-48.300,36.610
1250793,-0.787,0.008,0.170,-4.480,14.490,30.380
1250817,-1.281,0.004,0.138,15.470,-87.290,79.100
1250835,-0.989,0.022,-0.046,-14.840,-115.430,79.240
1250857,-0.780,0.270,0.079,-45.080,-91.420,83.440
1250876,-0.839,0.202,0.274,-86.170,-66.220,88.340
1250901,-0.976,-0.420,0.336,-98.140,-53.270,49.700
1250921,-0.635,0.037,0.567,-32.200,-18.690,-17.430
1250941,-0.821,1.012,0.406,9.100,36.050,-15.050
1250960,-0.978,0.297,-0.079,-20.090,46.480,-52.640
1250983,-1.064,-0.348,0.157,17.010,51.310,-48.580
1251003,-1.512,-0.174,0.174,17.080,-7.490,-18.480
1251024,-0.890,-0.195,0.090,18.550,4.270,-13.510
1251044,-1.027,-0.163,0.106,30.380,-4.900,-2.170
1251067,-0.948,-0.236,0.071,15.330,-11.270,5.250
1251088,-1.053,-0.163,0.163,24.990,-12.670,14.070
1251106,-1.002,-0.018,0.146,17.850,-12.180,13.930
1251126,-0.943,0.147,0.205,22.610,-2.730,8.260
1251145,-1.019,0.220,0.175,7.630,3.430,-0.910
1251170,-0.986,0.041,0.159,-22.330,7.770,-6.580
1251190,-0.984,-0.072,0.142,-23.310,10.150,-5.040
1251209,-0.997,-0.060,0.131,-19.250,12.040,-3.570
1251233,-1.005,-0.026,0.139,-5.460,14.490,-3.920
1251253,-1.037,-0.068,0.093,-6.370,10.780,-4.690
1251272,-1.039,-0.120,0.118,-4.270,7.140,-0.630
1251295,-1.009,-0.099,0.115,7.210,4.270,0.490
1251314,-0.969,-0.020,0.113,17.780,9.240,-4.270
1251333,-0.965,0.058,0.138,10.360,18.060,-10.150
1251358,-0.956,0.050,0.174,4.060,29.050,-25.690
1251377,-0.906,0.033,0.255,4.130,52.640,-47.880
1251395,-0.944,0.117,0.114,4.270,68.530,-57.190
1251415,-0.945,0.006,0.092,-19.250,32.690,-70.000
1251434,-1.043,-0.077,0.058,11.410,48.160,-66.290
1251455,-1.136,-0.212,-0.020,45.220,51.520,-85.680
1251479,-0.962,-0.010,0.084,2.450,57.260,-104.720
1251499,-0.895,-0.188,0.024,-8.260,52.430,-94.990
1251519,-0.692,-0.142,-0.061,-9.170,54.180,-100.450
1251543,-0.522,-0.641,-0.293,-36.890,41.860,-76.790
1251567,-0.909,-0.642,0.218,-10.570,22.960,-52.010
1251585,-1.859,-0.465,-0.276,55.090,53.340,-78.610
1251606,-0.652,-0.634,-0.060,6.300,78.680,-75.950
1251626,-0.859,-0.220,-0.162,22.470,64.400,-50.400
1251650,-1.179,-0.418,-0.300,21.140,62.370,-42.210
1251670,-1.313,-0.566,-0.221,35.350,71.960,-42.770
1251694,-0.977,-0.538,-0.134,19.110,67.480,-40.530
1251714,-0.560,-0.606,-0.211,16.380,67.130,-33.110
1251734,-0.752,-0.495,-0.293,23.240,60.550,-16.730
1251752,-0.936,-0.535,-0.346,25.830,48.720,-11.200
1251772,-0.735,-0.515,-0.339,16.800,37.940,-10.640
1251796,-0.739,-0.500,-0.307,4.480,26.950,-10.850
1251816,-0.788,-0.481,-0.349,2.940,18.900,-6.860
1251836,-0.826,-0.495,-0.364,5.880,5.110,-2.660
1251855,-0.745,-0.539,-0.340,3.850,-4.130,0.140
1251876,-0.773,-0.554,-0.276,-3.080,-8.750,5.180
1251900,-0.786,-0.569,-0.283,-9.240,-10.360,14.630
1251915,-0.828,-0.613,-0.254,-6.650,-16.100,23.590
1251939,-0.830,-0.596,-0.248,-4.270,-21.770,33.110
1251958,-0.825,-0.505,-0.265,-4.690,-21.350,39.970
1251977,-0.859,-0.452,-0.300,-7.490,-24.080,47.390
1251998,-0.830,-0.469,-0.316,-7.630,-28.000,53.130
1252022,-0.747,-0.441,-0.324,-5.040,-33.950,60.410
1252038,-0.785,-0.414,-0.326,0.070,-41.720,66.010
1252061,-0.890,-0.360,-0.286,8.260,-49.140,73.990
1252080,-1.023,-0.595,-0.206,9.030,-67.340,60.200
1252100,-0.908,-0.294,-0.312,7.980,-64.890,86.940
1252124,-1.110,-0.518,-0.159,17.290,-80.500,82.040
1252144,-1.320,-0.290,0.235,-20.090,-87.010,94.990
1252164,-1.045,-0.137,-0.391,7.070,-52.850,78.820
1252183,-0.952,0.000,0.069,-12.320,-53.690,63.770
1252204,-0.996,-0.317,-0.179,-3.150,-76.790,93.870
1252224,-1.158,-0.325,-0.076,10.780,-107.590,81.200
1252241,-0.924,-0.203,-0.028,34.510,-99.610,80.220
1252265,-0.976,-0.113,-0.071,29.050,-86.170,69.300
1252285,-0.809,-0.104,-0.107,-13.650,-40.320,35.630
1252305,-1.029,0.080,0.177,-17.710,-10.920,33.950
1252325,-1.192,0.002,0.142,-24.990,-53.620,52.290
1252348,-0.932,0.204,0.163,-52.360,-93.590,56.700
1252372,-0.746,0.251,0.127,-80.010,-66.220,48.860
1252391,-0.915,-0.008,0.232,-105.070,-37.450,47.250
1252412,-1.065,-0.292,0.298,-66.430,-36.960,40.600
1252432,-1.039,-0.055,0.209,-13.510,-36.400,27.440
1252452,-0.932,0.178,0.194,-2.870,-26.950,7.490
1252472,-0.896,0.316,0.221,17.780,-6.510,-15.960
1252492,-0.961,0.052,0.153,21.000,3.360,-22.820
1252511,-1.068,-0.052,0.208,12.530,1.890,-20.300
1252533,-1.082,-0.095,0.193,16.660,-5.880,-12.250
1252555,-1.005,-0.027,0.140,24.500,-10.290,-12.180
1252579,-1.019,0.003,0.165,19.390,-10.150,-13.090
1252599,-0.984,0.051,0.199,11.410,-9.590,-13.160
1252616,-1.095,0.010,0.206,7.840,-8.750,-9.660
1252640,-1.083,-0.089,0.214,6.860,-16.170,-9.520
1252657,-1.033,-0.008,0.246,16.870,-14.770,-10.080
1252676,-1.017,0.042,0.238,6.160,-10.290,-12.740
1252695,-1.035,0.011,0.228,-4.200,-10.150,-12.880
1252715,-0.988,-0.027,0.200,-10.920,-10.010,-11.830
1252740,-1.062,-0.124,0.224,-9.520,-11.690,-7.490
1252760,-1.048,-0.118,0.223,3.010,-18.550,-2.940
1252776,-1.004,-0.044,0.224,7.070,-18.270,-2.520
1252796,-0.996,0.001,0.233,10.150,-14.000,-2.380
1252820,-1.027,-0.008,0.242,2.870,-16.520,-2.240
1252835,-0.989,0.021,0.224,-0.490,-15.680,-0.770
1252860,-0.999,0.016,0.238,-17.990,-13.510,0.140
1252880,-1.010,-0.046,0.238,-20.440,-12.880,0.280
1252895,-0.992,-0.047,0.229,-19.670,-11.830,0.700
1252920,-0.961,-0.031,0.218,-16.870,-9.450,-0.140
1252940,-0.962,-0.011,0.227,-17.710,-7.070,-1.400
1252960,-0.980,-0.088,0.257,-16.660,-6.930,-2.660
1252980,-0.961,-0.102,0.221,-3.220,-6.930,-1.190
1252997,-0.968,-0.018,0.268,1.890,-4.270,0.070
1253020,-1.011,-0.061,0.282,-6.720,-8.260,-0.490
1253039,-0.992,-0.100,0.270,-4.900,-8.470,-0.630
1253059,-1.019,-0.105,0.286,-5.250,-9.660,-0.210
1253083,-0.990,-0.067,0.303,-5.180,-9.870,2.940
1253103,-0.994,-0.142,0.285,-1.680,-10.640,3.360
1253123,-0.995,-0.153,0.300,6.370,-11.060,4.830
1253143,-0.999,-0.087,0.284,6.650,-12.180,5.390
1253163,-1.005,-0.116,0.255,7.280,-11.480,6.230
1253187,-0.970,-0.086,0.235,9.660,-11.830,7.210
1253207,-0.972,-0.151,0.207,8.960,-11.760,7.000
1253227,-0.942,-0.177,0.035,25.970,-13.230,11.830
1253247,-0.876,-0.133,-0.048,34.860,0.420,12.670
1253271,-0.921,-0.087,0.072,-1.820,-1.540,4.970
1253295,-0.932,-0.252,-0.080,-35.910,12.390,-17.710
1253314,-0.985,-0.238,-0.065,-46.970,25.340,-20.580
1253333,-0.957,-0.226,0.017,-28.350,27.720,-21.630
1253355,-0.923,-0.272,0.050,-19.670,41.720,-31.780
1253374,-1.004,-0.209,0.092,-11.690,47.530,-35.980
1253399,-1.022,-0.227,0.122,-25.690,52.780,-47.600
1253419,-1.071,-0.248,0.101,-30.100,56.490,-49.770
1253437,-1.064,-0.275,0.084,-31.430,57.820,-53.060
1253460,-1.049,-0.303,0.070,-24.710,61.810,-53.970
1253481,-1.065,-0.285,0.030,-14.210,63.560,-56.770
1253496,-1.073,-0.179,0.087,-20.300,68.320,-57.960
1253519,-1.086,-0.137,0.092,-18.900,59.570,-52.010
1253539,-0.993,-0.318,0.008,-16.450,58.870,-51.030
1253563,-1.049,-0.324,0.076,1.260,62.370,-45.430
1253583,-1.047,-0.206,0.051,18.830,49.770,-39.480
1253603,-0.993,-0.128,0.060,9.870,48.720,-36.750
1253626,-0.973,-0.225,0.118,10.150,40.880,-27.370
1253648,-0.961,-0.315,0.068,28.910,37.940,-22.190
1253672,-1.002,-0.212,0.106,31.780,34.020,-14.770
1253692,-0.978,-0.183,0.136,20.230,26.810,-9.800
1253712,-0.954,-0.180,0.132,12.110,22.890,-5.880
1253730,-0.959,-0.238,0.125,8.610,18.130,-0.490
1253752,-0.945,-0.254,0.156,12.530,16.450,6.020
1253775,-0.969,-0.267,0.176,14.210,10.780,13.720
1253795,-1.017,-0.349,0.141,16.590,2.590,17.360
1253815,-0.976,-0.413,0.081,15.400,-2.940,15.120
1253834,-0.995,-0.289,0.094,6.160,-6.090,15.610
1253854,-1.024,-0.363,0.043,-1.260,-16.030,14.140
1253878,-1.001,-0.346,-0.090,-4.760,-20.860,14.770
1253898,-0.953,-0.218,-0.181,-26.600,-15.960,14.210
1253919,-0.956,-0.044,-0.226,-63.140,-10.150,15.400
1253939,-0.913,0.112,-0.276,-103.880,-3.430,19.530
1253959,-0.900,-0.005,-0.190,-132.510,-5.530,30.520
1253982,-0.871,-0.212,-0.131,-108.360,-6.930,36.750
1254003,-1.087,-0.366,-0.201,-52.920,-17.290,42.910
1254022,-0.994,-0.164,-0.194,-27.230,-20.020,49.140
1254043,-0.893,-0.066,-0.038,-21.980,-21.000,47.250
1254062,-0.910,-0.138,-0.129,-7.560,-16.590,48.160
1254083,-0.984,-0.075,-0.033,-18.270,-11.690,50.330
1254103,-0.896,-0.079,0.047,-21.980,-0.770,49.770
1254123,-1.113,-0.009,-0.371,-67.760,12.180,65.310
1254142,-1.029,-0.564,0.092,-40.950,-24.640,36.050
1254166,-0.724,-0.081,0.051,-37.590,19.460,19.180
1254186,-1.292,0.004,-0.281,-44.870,16.590,36.190
1254206,-1.218,-0.185,0.077,-67.130,-10.010,37.520
1254226,-1.019,-0.245,-0.023,-40.950,-27.300,44.380
1254246,-1.066,-0.103,-0.051,-54.460,-26.250,50.820
1254266,-0.895,-0.060,-0.087,-42.770,-41.510,63.280
1254286,-1.112,0.111,-0.017,-51.590,-14.630,57.750
1254306,-1.265,0.127,0.079,-68.320,-16.100,52.780
1254323,-1.081,-0.094,0.031,-61.180,-7.280,42.210
1254346,-0.913,0.146,-0.122,-44.660,3.500,37.100
1254366,-0.973,0.471,-0.023,-63.490,-1.960,33.600
1254389,-1.007,0.199,-0.114,-70.490,1.330,6.790
1254412,-1.041,0.103,-0.071,-53.830,3.080,-3.780
1254432,-1.032,0.055,-0.065,-45.360,5.460,-5.460
1254453,-1.070,-0.003,-0.077,-37.100,-3.290,-5.250
1254471,-1.027,-0.076,-0.087,-25.900,-3.850,3.500
1254490,-1.005,-0.013,-0.103,-14.630,-5.040,9.380
1254515,-0.977,0.059,-0.032,-9.800,-2.170,11.480
1254534,-0.989,0.080,-0.096,-7.630,-1.820,12.180
1254555,-1.031,0.128,-0.046,-8.330,-1.750,9.380
1254575,-1.037,0.048,-0.093,-2.730,-3.150,9.870
1254592,-1.017,0.076,-0.078,-7.000,-4.900,13.370
1254615,-1.019,0.088,-0.066,-7.630,-6.650,14.560
1254636,-0.992,-0.008,-0.019,-0.210,-5.110,8.470
1254655,-1.010,-0.064,-0.060,-10.150,2.940,11.270
1254674,-1.029,0.155,-0.071,-1.470,-5.460,7.980
1254694,-1.004,0.179,-0.010,13.440,-6.370,2.030
1254715,-1.063,0.203,-0.024,19.950,-18.900,1.400
1254735,-0.927,0.177,0.042,10.150,-3.850,-1.750
1254759,-1.000,0.036,-0.007,16.240,4.970,-0.910
1254775,-1.026,0.036,-0.041,17.430,7.000,-1.330
1254799,-1.031,0.168,-0.050,20.860,7.490,-10.220
1254819,-0.987,0.264,0.022,25.270,8.540,-16.380
1254839,-1.047,0.019,-0.159,18.410,3.010,-15.260
1254857,-1.063,-0.034,-0.044,13.230,2.730,-11.130
1254880,-1.047,-0.060,-0.104,25.060,-3.640,7.630
1254899,-0.991,0.034,-0.146,29.820,-11.760,22.610
1254918,-0.841,-0.006,-0.143,40.390,-7.420,23.100
1254943,-1.002,0.101,-0.005,48.790,-9.730,23.310
1254963,-1.070,0.241,-0.139,16.310,-15.120,31.290
1254983,-0.986,0.209,-0.178,4.760,-12.320,31.220
1254998,-0.981,0.228,0.032,1.680,-9.030,31.710
1255018,-0.993,0.061,-0.077,3.850,-12.320,24.220
1255043,-0.979,0.157,-0.057,23.240,-1.890,15.680
1255063,-1.028,0.324,-0.086,21.910,-5.320,9.730
1255083,-1.031,0.192,-0.046,22.470,-6.510,4.830
1255102,-1.033,0.077,-0.139,36.960,-8.260,3.920
1255118,-1.044,0.071,-0.129,60.200,-12.460,-0.770
1255143,-1.107,-0.013,-0.045,68.110,-17.920,-12.110
1255163,-1.110,-0.040,-0.109,116.900,-32.200,-13.720
1255182,-0.877,0.425,-0.130,116.200,-33.600,-4.690
1255202,-0.825,0.384,-0.148,95.690,-19.250,-13.160
1255225,-1.035,0.228,0.032,66.010,-17.500,-19.880
1255246,-1.057,0.064,-0.016,55.370,-20.580,-20.020
1255266,-0.966,0.214,-0.022,46.060,-13.440,-12.040
1255286,-0.964,0.216,-0.025,18.900,-8.750,-13.790
1255304,-1.044,0.101,-0.024,4.830,-7.490,-16.380
1255325,-0.876,0.250,-0.004,2.870,-8.190,-16.590
1255345,-0.985,0.176,-0.032,-16.100,-1.820,-22.120
1255368,-1.026,0.048,0.015,-8.820,2.940,-27.790
1255389,-0.878,0.110,-0.053,-10.290,0.840,-24.010
1255410,-1.047,0.033,-0.015,-9.660,2.730,-32.690
1255429,-1.063,0.020,0.029,5.320,4.270,-37.800
1255454,-1.086,-0.023,0.043,6.720,8.330,-40.460
1255474,-1.167,-0.179,0.138,28.700,10.990,-45.710
1255491,-1.239,-0.301,0.171,55.650,9.310,-49.490
1255515,-1.359,-0.276,0.216,144.200,31.710,-54.180
1255534,-1.380,0.282,0.014,159.250,35.490,-51.450
1255554,-1.320,0.429,0.035,80.710,46.270,-49.560
1255578,-1.117,-0.240,-0.178,-9.100,17.010,-41.160
1255597,-1.038,-0.468,0.082,-32.410,-25.900,-30.590
1255615,-0.593,-0.680,-0.821,32.760,-76.300,-3.220
1255639,-2.115,-0.726,2.055,67.130,-208.180,-49.000
1255654,0.576,-0.385,0.313,177.100,-136.430,5.460
1255674,-0.404,0.310,0.348,162.330,-124.670,61.880
1255699,-1.139,-0.011,0.246,39.970,-145.950,24.430
1255714,-0.651,-0.085,-0.395,51.240,-79.800,24.010
1255736,-1.846,0.743,-0.119,-0.140,-133.840,64.820
1255760,-0.678,0.268,-0.526,-104.300,-161.560,59.010
1255780,-0.927,-0.667,-0.269,-47.460,-76.650,28.980
1255799,-1.000,-0.637,-0.399,5.950,-99.260,35.210
1255819,-0.838,-0.744,-1.201,-14.350,-51.450,15.820
1255843,-0.702,-0.098,-0.192,10.290,43.400,8.050
1255863,-1.017,-0.216,0.617,81.830,8.260,10.010
1255878,-1.296,0.847,1.019,54.040,-39.410,0.280
1255903,-0.771,0.516,-0.181,77.840,13.300,0.350
1255927,-1.485,0.881,1.336,35.700,45.150,4.270
1255944,-1.538,-0.049,0.615,33.460,-11.970,-16.870
1255966,-1.273,0.013,0.476,21.280,18.970,-9.030
1255989,-0.855,0.200,0.212,-8.470,-4.620,-1.890
1256008,-0.741,0.119,0.163,-56.210,37.520,-14.840
1256032,-1.038,-0.232,0.223,-43.120,14.910,-12.460
1256052,-1.035,-0.122,0.278,-9.660,11.200,-5.950
1256072,-1.042,-0.088,0.280,0.700,5.040,-3.430
1256096,-1.002,0.049,0.287,3.920,3.640,-6.510
1256111,-1.028,0.090,0.256,-10.360,0.420,-9.170
1256136,-1.082,-0.005,0.304,-11.690,-7.420,-10.430
1256156,-1.101,-0.022,0.329,-16.730,-11.410,-8.890
1256176,-1.144,0.009,0.368,-15.540,-13.300,-6.510
1256196,-1.184,-0.066,0.386,-20.720,-21.560,-5.180
1256215,-1.175,-0.053,0.399,-16.030,-28.280,-3.290
1256240,-1.157,0.001,0.356,-12.390,-37.030,2.170
1256258,-1.095,0.089,0.284,-8.820,-41.370,7.630
1256281,-1.057,0.136,0.185,-3.430,-44.590,14.490
1256302,-1.057,0.213,0.150,-0.420,-50.050,23.380
1256322,-0.932,0.303,0.061,5.880,-49.560,25.480
1256342,-0.729,0.295,-0.227,-3.570,-10.010,9.310
1256361,-0.875,-0.134,-0.753,-2.030,22.050,-9.450
1256378,-0.963,-0.078,-1.053,9.520,50.610,-14.280
1256402,-0.996,-0.234,-1.429,-92.820,120.540,-66.920
1256422,-1.308,-0.109,-0.497,-268.240,147.770,-94.850
1256441,-1.212,-0.077,-0.208,-172.060,152.530,-57.190
1256460,-1.233,-0.241,-0.649,-102.830,119.280,-23.940
1256482,-0.916,-0.190,-0.414,-109.480,192.150,-42.070
1256502,-1.403,0.229,0.102,-71.820,153.370,18.690
1256521,-0.824,0.108,-0.146,-111.230,129.080,40.600
1256542,-0.744,-0.314,0.339,-108.570,95.200,37.240
1256562,-0.776,-0.203,0.370,-69.370,75.740,55.510
1256582,-0.691,-0.079,0.444,-68.740,57.750,90.370
1256597,-0.831,-0.192,0.529,-51.590,20.860,105.210
1256622,-0.867,-0.350,0.586,-21.000,-20.300,116.480
1256642,-0.994,-0.360,0.683,3.640,-40.740,130.410
1256660,-1.196,-0.282,0.647,-5.600,-40.670,138.740
1256679,-1.890,-0.608,2.066,-3.360,-32.690,139.510
1256704,-2.713,-1.201,-0.704,-162.260,-134.470,41.790
1256724,-1.062,-1.470,-2.727,-51.310,-132.580,-14.210
1256744,-1.884,2.323,1.749,-306.040,254.100,19.950
1256764,-1.797,-3.028,-2.464,-16.030,-319.900,42.700
1256782,0.209,0.365,0.085,56.000,11.970,4.550
1256806,-0.585,1.008,0.062,124.600,-22.260,23.170
1256826,-0.748,0.685,-0.285,-9.940,37.170,-32.760
1256841,-1.194,0.427,0.081,-22.820,26.460,-31.430
1256865,-1.175,0.141,0.041,-37.520,-4.830,-11.550
1256883,-0.961,0.020,-0.073,-57.540,3.570,-7.910
1256907,-1.004,0.022,-0.064,-27.720,0.140,-2.590
1256927,-0.993,-0.043,-0.082,7.630,3.710,-4.900
1256947,-1.027,0.175,-0.050,24.430,3.010,-6.370
1256971,-1.007,0.251,-0.074,19.320,1.890,-11.340
1256988,-1.004,0.236,-0.053,6.510,3.010,-10.430
1257010,-1.013,0.067,-0.044,3.220,0.140,-11.760
1257032,-0.986,0.091,-0.036,33.250,6.790,-12.460
1257054,-1.036,0.024,-0.020,45.010,12.040,-12.740
1257078,-1.103,-0.058,-0.013,70.210,14.420,-12.810
1257095,-1.077,-0.192,0.102,121.030,19.390,-21.840
1257119,-1.035,-0.162,0.007,165.900,38.640,-39.900
1257138,-1.150,-0.039,0.068,195.230,56.490,-46.900
1257158,-1.275,-0.020,-0.080,199.430,66.570,-38.920
1257177,-1.462,0.041,0.292,148.610,75.040,-43.050
1257202,-1.383,-0.070,0.079,126.560,43.960,-27.510
1257217,-2.036,-0.554,-0.338,120.330,-67.970,-2.730
1257241,-1.393,-1.399,0.859,184.310,-52.360,-57.680
1257262,-0.747,-0.775,0.914,207.830,-63.350,-39.270
1257286,-0.834,-0.529,0.739,156.730,-81.970,-33.460
1257304,-0.927,0.003,0.493,55.790,-108.150,-33.180
1257324,-0.925,-0.121,0.244,31.430,-115.500,-22.540
1257346,-1.021,0.101,0.173,-6.860,-109.340,-22.890
1257365,-1.094,-0.038,-0.068,-15.470,-99.610,-11.060
1257390,-1.320,0.137,-0.280,3.640,-184.380,27.090
1257408,-0.994,-0.281,-0.219,-5.530,-151.690,21.630
1257426,-1.209,-0.525,-0.073,38.780,-151.760,20.930
1257450,-1.131,-0.089,-0.191,86.450,-170.800,42.560
1257465,-0.791,0.427,-0.383,68.250,-138.460,50.190
1257488,-0.830,0.756,-0.536,-43.960,-84.700,51.520
1257510,-1.033,0.791,-0.821,-198.730,-68.250,34.510
1257534,-1.110,-0.255,-1.567,-327.040,-65.240,6.370
1257554,-0.368,-1.316,-0.680,-175.840,3.360,-28.910
1257578,-0.547,-0.563,-0.638,94.780,61.740,-0.770
1257594,-1.243,1.187,-0.029,157.220,83.230,13.230
1257618,-1.103,0.052,0.275,31.010,3.080,11.200
1257638,-0.832,-0.096,0.134,116.900,49.140,8.820
1257657,-1.625,0.490,1.081,76.370,51.590,32.340
1257678,-0.835,0.355,0.500,-11.620,54.040,18.270
1257698,-1.264,0.121,1.227,-115.150,67.270,-4.340
1257720,-1.662,-0.348,0.040,-56.560,59.220,14.210
1257738,-1.576,0.132,0.171,-19.110,19.810,27.650
1257758,-0.687,0.376,0.014,-61.460,17.500,14.560
1257782,-0.915,0.030,0.101,-83.790,49.140,-2.030
1257801,-1.055,-0.393,0.119,-61.670,26.600,0.350
1257823,-0.990,-0.376,0.156,-14.070,20.790,9.520
1257842,-0.971,-0.240,0.207,-3.710,22.190,13.300
1257865,-1.034,-0.205,0.112,7.070,14.070,16.030
1257885,-1.027,0.008,0.118,-0.560,7.280,13.020
1257904,-1.089,-0.030,0.088,-1.820,3.500,6.440
1257928,-1.094,-0.046,0.203,-7.910,-5.460,1.470
1257949,-1.048,-0.001,0.129,6.370,-1.890,-4.760
1257968,-1.090,0.008,0.167,-1.190,-6.720,-11.830
1257985,-1.079,-0.097,0.144,0.140,-9.590,-17.570
1258009,-1.117,-0.031,0.178,6.860,-12.810,-20.580
1258029,-1.163,-0.124,0.238,7.630,-14.630,-23.240
1258045,-1.151,-0.189,0.264,8.960,-23.450,-22.120
1258064,-1.118,-0.136,0.229,9.380,-26.530,-21.000
1258087,-1.136,-0.064,0.218,11.550,-32.550,-21.140
1258108,-1.146,-0.033,0.236,5.250,-39.060,-21.560
1258127,-1.151,-0.014,0.250,3.360,-44.240,-18.690
1258151,-1.145,0.065,0.205,0.980,-47.600,-10.430
1258171,-1.117,0.138,0.156,6.300,-52.570,-4.900
1258191,-0.953,0.264,-0.069,27.230,-34.930,-0.980
1258211,-0.894,0.157,-0.404,29.260,-17.080,-3.290
1258231,-0.843,-0.027,-0.778,8.260,4.410,-14.840
1258250,-0.913,0.059,-0.934,16.450,13.720,-10.150
1258275,-0.871,0.054,-0.586,-66.570,51.800,-21.280
1258294,-1.064,-0.265,-0.611,-47.880,69.930,-5.250
1258315,-0.894,-0.128,-0.798,106.260,89.180,28.910
1258337,-0.763,0.072,-0.705,20.720,172.480,-15.260
1258357,-1.327,0.352,-0.071,-46.970,169.050,-12.740
1258376,-1.193,0.104,-0.090,-96.180,99.610,-2.380
1258401,-0.911,0.014,0.023,-119.350,102.480,24.850
1258420,-0.720,-0.268,0.018,-112.560,102.060,38.430
1258439,-0.905,-0.539,0.294,-74.620,66.080,59.080
1258460,-0.779,-0.795,0.428,0.700,65.800,69.720
1258484,-0.919,-0.433,0.454,51.310,50.890,83.090
1258503,-1.080,-0.220,0.591,17.920,22.960,83.090
1258523,-1.101,-0.325,0.639,-1.960,-3.570,77.630
1258542,-1.047,-0.066,0.548,-32.200,-6.930,82.180
1258567,-1.156,0.129,0.440,-158.130,-9.940,88.480
1258587,-1.725,-0.614,1.599,-140.210,-75.320,22.120
1258606,-3.062,-3.258,-0.272,-35.770,-234.920,-24.710
1258627,-0.851,1.186,0.109,-49.630,100.520,64.610
1258647,-1.545,0.240,0.102,-224.350,-56.630,14.280
1258667,-0.824,-0.541,-0.406,-106.050,-7.000,-8.540
1258691,-0.908,-0.093,-0.060,7.700,5.180,0.210
1258706,-0.944,-0.047,-0.196,68.530,-1.190,-0.350
1258726,-0.957,0.191,-0.109,74.480,2.240,-7.140
1258750,-1.066,0.201,-0.076,49.630,4.130,-6.930
1258774,-1.058,-0.000,-0.051,16.870,-2.590,-9.940
1258794,-0.980,-0.071,-0.070,28.910,9.730,-9.240
1258812,-1.033,-0.121,-0.025,36.400,16.380,-14.070
1258831,-1.182,-0.282,0.031,58.030,5.810,-17.430
1258850,-1.139,-0.363,0.057,101.010,4.200,-25.690
1258875,-1.088,-0.026,0.098,125.090,7.700,-11.760
1258895,-1.265,-0.264,0.336,96.040,-8.050,-38.290
1258916,-1.062,-0.370,0.373,126.280,-17.500,-31.780
1258936,-0.978,-0.244,0.461,116.620,-14.210,-31.220
1258956,-0.959,-0.239,0.555,108.430,-27.650,-26.810
1258975,-1.113,-0.261,0.479,80.220,-46.830,-24.640
1259000,-1.063,-0.148,0.433,51.520,-60.970,-20.650
1259019,-1.052,-0.136,0.353,41.160,-63.560,-19.390
1259039,-1.098,-0.070,0.309,29.890,-68.180,-17.150
1259063,-1.052,-0.005,0.269,18.480,-69.370,-18.200
1259081,-1.105,-0.015,0.161,14.910,-59.150,-8.400
1259101,-1.271,-0.158,-0.031,13.020,-108.920,-2.380
1259124,-1.105,0.075,0.058,12.110,-98.000,4.620
1259145,-1.106,0.174,0.149,5.250,-108.570,15.400
1259164,-1.047,0.129,0.085,0.770,-104.510,15.820
1259187,-1.038,0.174,0.003,-5.670,-102.130,17.990
1259208,-0.969,0.130,-0.133,-15.260,-96.110,17.990
1259226,-0.843,0.095,-0.297,-15.540,-77.630,15.260
1259245,-0.784,0.022,-0.342,-25.410,-53.550,11.060
1259270,-0.738,0.019,-0.319,-56.210,-23.170,-0.280
1259290,-0.747,0.129,-0.203,-91.210,-1.470,-6.160
1259308,-0.633,0.360,-0.143,-118.720,20.370,-11.340
1259330,-0.796,-0.000,-0.461,-179.900,33.530,-20.300
1259350,-0.665,-1.481,-0.711,-89.880,60.130,-65.380
1259374,-0.877,-0.729,-0.922,-29.610,83.720,-27.930
1259394,-0.909,0.487,0.115,73.010,122.570,-4.200
1259412,-1.606,0.353,0.272,83.650,24.920,-5.460
1259432,-1.031,0.645,0.021,56.350,90.790,-1.680
1259454,-1.358,0.303,0.329,-21.490,63.140,9.100
1259470,-2.526,-0.393,0.830,-51.240,59.010,5.880
1259490,-1.000,-0.221,0.538,-83.510,20.790,-25.270
1259514,-1.020,-0.255,-0.101,-40.320,65.100,12.390
1259536,-0.932,-0.232,0.207,-43.750,21.560,27.160
1259558,-1.023,-0.316,-0.062,-24.150,13.790,29.680
1259578,-1.090,-0.041,-0.020,-6.230,2.310,24.430
1259597,-0.869,-0.004,0.079,-18.340,23.870,16.590
1259621,-1.104,-0.220,0.037,-20.160,21.000,17.010
1259641,-1.090,-0.041,-0.050,-29.960,17.430,20.230
1259660,-1.068,-0.117,-0.002,-23.100,5.040,16.030
1259680,-1.054,-0.195,-0.004,-22.050,-8.330,20.440
1259704,-1.024,-0.197,0.005,-2.520,-3.990,24.850
1259724,-1.034,-0.128,-0.015,9.800,-4.480,28.280
1259744,-1.010,-0.020,0.013,11.830,-9.100,23.030
1259763,-1.018,0.010,0.030,1.750,-6.930,12.320
1259783,-1.019,-0.059,0.020,3.290,-10.010,4.620
1259807,-1.008,-0.070,0.098,-3.710,-9.520,2.660
1259822,-1.027,-0.066,0.039,0.560,-5.950,-1.960
1259843,-1.020,0.006,-0.004,0.560,-8.540,-10.220
1259866,-1.028,-0.006,-0.010,-0.560,-13.580,-18.200
1259883,-1.033,-0.107,0.051,-4.480,-17.150,-21.770
1259902,-1.014,-0.115,0.040,4.130,-16.240,-21.210
1259927,-1.024,-0.086,-0.005,5.880,-18.830,-20.860
1259947,-1.040,-0.065,0.026,7.350,-19.460,-22.540
1259967,-1.076,-0.052,0.045,0.980,-25.410,-22.960
1259987,-1.076,-0.121,0.032,2.030,-25.830,-22.610
1260007,-1.022,-0.058,0.085,-1.890,-16.800,-26.110
1260027,-1.135,-0.060,0.105,2.170,-18.480,-26.530
1260046,-1.293,-0.097,0.221,10.430,-24.570,-25.830
1260067,-1.388,-0.070,0.310,9.170,-43.330,-24.150
1260087,-1.183,-0.132,0.271,-1.050,-46.270,-25.270
1260105,-1.133,-0.111,0.272,5.320,-42.490,-28.560
1260127,-1.104,0.039,0.194,3.360,-42.210,-30.380
1260147,-1.043,0.130,0.111,0.630,-38.220,-31.220
1260171,-1.025,0.142,-0.132,26.530,-35.420,-24.640
1260187,-0.915,0.134,-0.157,26.460,-23.240,-23.170
1260211,-0.879,-0.115,-0.521,16.870,-17.220,-21.840
1260231,-0.818,-0.141,-0.913,45.920,-10.780,-21.630
1260251,-0.764,0.398,-0.593,0.140,14.000,-15.470
1260271,-0.804,-0.229,-0.608,-33.600,40.670,-12.670
1260290,-0.924,-0.166,-0.583,-20.160,64.820,2.240
1260309,-0.939,0.147,-0.527,38.150,77.350,22.190
1260330,-0.863,0.176,-0.512,-35.420,101.990,7.910
1260350,-1.049,0.099,-0.213,-91.840,120.190,10.640
1260374,-1.100,-0.198,-0.313,-86.940,93.100,27.090
1260394,-1.649,-0.251,-0.231,-63.490,55.300,52.220
1260414,-0.873,-0.065,-0.073,-61.600,100.590,62.160
1260437,-0.935,-0.268,-0.043,-52.640,85.820,71.050
1260456,-1.139,-0.485,0.005,-36.260,66.150,76.580
1260479,-1.038,-0.433,0.315,-41.860,61.810,78.750
1260500,-0.999,-0.576,0.354,-38.990,47.250,72.800
1260520,-1.148,-0.544,0.359,-50.260,32.760,74.060
1260539,-1.155,-0.490,0.416,-67.410,25.620,67.830
1260560,-1.154,-0.462,0.707,-43.610,17.640,68.740
1260576,-2.632,-0.096,5.155,-435.470,242.690,-129.430
1260595,0.415,-0.867,-0.300,8.680,-129.990,-50.470
1260620,-0.826,0.424,-0.281,-95.550,15.400,7.980
1260640,-1.677,-0.631,-0.304,-53.620,-66.640,3.640
1260658,-1.059,-0.457,0.062,63.420,7.980,-10.010
1260675,-1.228,-0.623,-0.122,111.580,-2.590,-6.510
1260700,-1.139,-0.284,-0.019,150.290,-2.240,-13.230
1260720,-1.060,-0.272,0.068,147.980,-4.130,-23.100
1260741,-1.015,-0.331,0.113,165.130,-5.880,-25.970
1260762,-1.025,-0.369,0.249,162.750,-10.990,-24.290
1260786,-1.069,-0.297,0.380,139.230,-20.510,-29.750
1260802,-1.023,-0.165,0.433,80.780,-36.890,-29.050
1260823,-0.998,-0.264,0.348,40.880,-49.210,-23.660
1260847,-1.013,-0.308,0.272,33.390,-62.510,-17.430
1260867,-1.075,-0.297,0.253,31.290,-72.660,-13.510
1260887,-1.021,-0.167,0.238,23.380,-75.110,-8.120
1260906,-1.086,-0.125,0.075,5.180,-80.500,-8.820
1260925,-1.125,-0.117,-0.007,11.270,-82.950,-6.160
1260950,-1.162,-0.147,-0.074,11.410,-94.430,1.890
1260967,-1.135,0.020,-0.102,8.680,-106.960,11.900
1260986,-1.007,0.020,-0.171,-8.610,-102.830,12.040
1261006,-1.028,-0.051,-0.147,-18.340,-90.370,8.400
1261030,-1.072,0.001,-0.188,-21.140,-96.180,9.170
1261051,-0.875,0.205,-0.374,-39.970,-82.460,7.280
1261066,-0.825,0.336,-0.325,-91.070,-44.520,4.270
1261090,-0.816,0.218,-0.301,-124.390,-27.510,3.010
1261109,-0.684,-0.018,-0.403,-148.330,6.020,1.960
1261134,-0.651,0.055,-0.534,-67.130,36.960,18.480
1261154,-1.008,0.100,-0.323,-21.140,-2.380,26.110
1261174,-0.739,-0.035,-0.468,55.300,73.010,-2.310
1261190,-1.134,0.437,-0.177,102.900,67.200,28.070
1261209,-1.208,0.640,0.166,78.330,27.580,24.500
1261234,-1.084,0.074,0.711,-2.660,83.230,9.590
1261252,-2.388,-0.550,1.181,-127.890,61.320,30.310
1261272,-0.932,0.113,-0.143,-49.630,26.180,52.010
1261293,-1.251,0.203,0.062,-53.340,62.510,9.730
1261317,-0.930,-0.148,-0.158,-62.650,16.730,34.440
1261337,-1.080,-0.126,-0.070,-14.770,14.700,44.380
1261356,-1.107,-0.085,-0.001,18.200,29.890,43.260
1261377,-1.082,0.006,-0.029,-10.640,26.950,31.010
1261397,-1.098,0.062,-0.095,-18.060,24.150,22.190
1261412,-1.068,0.022,-0.010,-24.010,11.900,18.970
1261437,-1.025,0.011,-0.014,-32.270,-1.820,20.090
1261457,-1.031,0.002,-0.031,-27.230,-5.530,17.920
1261476,-1.016,-0.031,-0.008,-23.730,-2.170,19.670
1261500,-0.978,0.020,0.002,-14.560,2.380,24.290
1261520,-1.004,0.010,0.018,-13.860,1.750,21.630
1261539,-1.024,0.034,0.030,-14.770,0.560,20.650
1261559,-1.024,0.064,0.021,-11.340,3.780,14.910
1261579,-1.024,0.100,0.023,-22.330,4.550,9.590
1261599,-0.982,0.099,0.007,-26.110,4.970,3.290
1261623,-1.016,0.052,0.001,-25.900,7.560,-2.660
1261642,-1.037,0.046,-0.023,-19.250,8.330,-7.910
1261666,-1.034,0.029,-0.012,-12.040,5.460,-8.470
1261686,-1.031,0.015,-0.019,-12.040,3.220,-10.430
1261705,-1.022,0.019,-0.024,-12.250,0.630,-8.260
1261724,-1.034,-0.020,-0.032,-5.740,-2.240,-3.360
1261748,-1.037,-0.015,-0.026,-0.770,-5.390,0.910
1261768,-1.026,0.019,-0.008,0.840,-8.120,1.680
1261788,-1.028,0.033,-0.024,1.050,-10.150,0.210
1261807,-1.032,0.029,-0.017,-0.840,-13.230,-1.260
1261826,-1.020,0.022,-0.004,0.560,-13.300,-2.240
1261845,-1.024,0.037,-0.020,5.950,-14.350,-3.850
1261870,-1.024,0.027,0.010,0.980,-14.910,-7.070
1261890,-1.020,0.010,-0.004,4.130,-16.800,-6.440
1261907,-1.034,0.014,0.004,7.070,-18.690,-7.910
1261927,-1.036,0.017,0.004,9.450,-20.650,-14.210
1261951,-1.018,0.047,0.037,12.810,-20.090,-21.630
1261971,-1.037,0.050,0.031,13.440,-21.420,-28.070
1261991,-1.032,0.081,0.050,14.350,-19.040,-37.170
1262009,-1.046,0.058,0.021,16.870,-21.000,-45.360
1262031,-1.056,0.031,0.051,15.050,-22.610,-47.180
1262050,-1.062,0.029,0.076,14.700,-26.670,-53.830
1262073,-1.030,0.097,0.040,15.680,-27.790,-57.540
1262094,-1.081,0.070,0.060,3.150,-24.640,-62.720
1262113,-1.200,0.022,0.021,-4.830,-25.480,-63.000
1262132,-1.235,-0.003,0.090,14.910,-22.680,-58.310
1262156,-1.344,-0.140,0.332,8.120,-30.940,-49.070
1262175,-1.210,-0.157,0.212,71.750,-24.360,-38.500
1262194,-1.122,-0.040,0.089,48.720,-23.450,-41.860
1262216,-1.046,0.103,-0.106,32.340,-14.070,-42.000
1262235,-1.016,-0.064,-0.775,48.440,-15.190,-37.170
1262260,-0.839,0.086,-0.784,70.630,42.910,-21.630
1262276,-1.009,0.502,-0.284,33.880,25.830,0.980
1262300,-0.756,-0.023,-0.328,-3.850,40.180,-4.690
1262320,-0.855,-0.041,-0.131,57.610,64.820,22.120
1262337,-0.896,0.147,-0.250,30.520,52.360,30.240
1262356,-1.279,0.307,-0.095,-8.190,52.990,43.890
1262376,-0.680,0.152,-0.147,-51.380,64.190,43.680
1262396,-0.950,-0.123,-0.018,-66.850,60.620,47.460
1262421,-0.897,-0.397,0.199,-42.910,59.710,44.450
1262441,-0.936,-0.491,0.167,10.220,58.310,48.160
1262459,-1.031,-0.032,0.076,-2.450,56.560,61.320
1262481,-1.072,-0.223,0.216,-55.650,39.270,54.950
1262501,-0.963,-0.556,0.186,-10.640,23.450,51.660
1262524,-0.981,-0.285,0.224,12.250,21.770,62.090
1262544,-1.009,-0.262,0.220,-8.190,21.210,67.060
1262568,-1.160,-0.313,0.122,-20.300,9.240,59.010
1262587,-1.214,-0.281,0.148,-41.580,-0.840,52.710
1262606,-1.096,-0.173,0.135,-66.850,-2.450,47.320
1262627,-1.096,-0.155,0.120,-82.040,1.820,40.530
1262651,-1.048,-0.164,0.049,-81.340,9.170,37.660
1262671,-1.112,-0.268,-0.070,-82.740,-5.880,30.660
1262686,-1.121,-0.218,0.071,-77.560,0.350,25.830
1262706,-1.080,-0.143,0.714,-72.030,9.940,8.890
1262730,-1.192,-0.411,0.362,-68.880,-26.600,12.810
1262746,-0.993,-0.129,-0.027,-36.330,-12.670,9.800
1262771,-0.892,-0.346,-0.369,-10.570,15.050,8.330
1262795,-1.232,-0.277,0.183,1.960,8.680,-1.680
1262815,-1.042,-0.274,0.008,57.960,-23.800,-6.720
1262834,-1.069,-0.186,0.073,59.640,-1.680,-10.990
1262855,-1.080,-0.300,0.053,107.100,-9.730,-10.150
1262875,-1.380,-0.389,0.165,142.800,-39.410,-10.150
1262891,-1.011,-0.280,0.110,159.460,-17.150,-15.050
1262915,-1.154,-0.260,0.219,151.900,-27.300,-24.780
1262935,-1.134,-0.266,0.229,146.930,-37.450,-29.680
1262954,-1.103,-0.186,0.291,121.870,-40.810,-33.530
1262975,-1.062,-0.109,0.326,87.570,-40.530,-36.820
1262994,-1.068,-0.138,0.278,63.280,-44.240,-40.670
1263018,-1.088,-0.184,0.224,37.590,-42.630,-43.470
1263034,-1.115,-0.191,0.205,34.020,-50.120,-39.900
1263054,-1.169,-0.129,0.186,29.750,-64.050,-34.440
1263078,-1.096,0.010,0.152,10.220,-77.140,-29.750
1263098,-1.086,0.037,0.133,-2.240,-85.190,-25.410
1263116,-1.061,0.027,0.085,-7.490,-88.620,-21.490
1263139,-1.069,0.021,0.028,-7.210,-94.500,-15.190
1263160,-0.999,0.013,-0.189,0.000,-90.370,-16.170
1263179,-1.018,0.087,-0.202,-16.100,-76.930,-14.770
1263199,-1.010,0.071,-0.150,-37.520,-74.340,-17.850
1263223,-0.920,-0.047,-0.097,-38.850,-63.280,-21.560
1263242,-0.787,0.139,-0.116,-40.460,-42.210,-17.010
1263262,-0.773,0.301,-0.112,-58.520,-21.700,-15.960
1263283,-0.689,0.491,-0.224,-97.230,-0.420,-3.150
1263301,-0.658,0.475,-0.491,-146.230,22.470,5.320
1263325,-0.748,-0.686,-0.607,-94.360,39.200,-7.980
1263345,-0.978,-0.767,-0.712,51.100,-7.840,10.150
1263365,-0.826,0.137,-0.271,64.470,53.480,5.250
1263382,-1.002,0.291,-0.070,146.300,48.300,29.820
1263400,-1.245,0.559,0.113,75.600,31.360,30.660
1263420,-1.157,0.239,0.245,57.890,37.240,35.980
1263445,-1.207,-0.202,0.505,52.570,34.230,35.700
1263465,-1.403,-0.213,1.043,-8.330,38.220,21.140
1263489,-1.388,0.152,0.266,-23.100,42.280,58.170
1263509,-1.507,0.265,0.108,-25.200,20.930,52.080
1263528,-0.716,-0.020,-0.007,-41.440,14.910,26.810
1263549,-0.798,0.061,0.090,-35.560,31.430,18.760
1263567,-0.926,-0.001,-0.063,-29.540,34.510,20.860
1263591,-1.128,0.027,-0.021,-3.710,33.880,15.470
1263611,-1.173,0.052,0.115,-12.950,17.710,13.440
1263631,-1.072,-0.078,0.023,-19.740,5.600,18.270
1263651,-1.033,-0.007,0.078,-17.290,0.560,20.790
1263671,-0.988,0.032,0.020,-13.650,1.820,15.190
1263690,-1.027,0.084,0.057,-15.050,3.150,10.150
1263710,-1.035,-0.035,0.058,-18.340,-0.280,6.090
1263729,-1.038,-0.013,0.050,-4.620,-1.540,3.430
1263751,-1.013,0.032,0.095,2.520,-3.220,0.140
1263771,-1.024,0.000,0.068,-7.140,-2.660,-1.260
1263790,-1.022,0.013,0.040,-0.210,-2.940,-5.320
1263810,-1.027,0.077,0.043,0.280,-5.530,-8.260
1263834,-1.017,0.011,0.088,-2.450,-7.420,-15.540
1263855,-1.033,-0.063,0.031,16.940,-7.840,-20.020
1263872,-1.038,0.057,0.078,16.380,-7.000,-21.000
1263893,-1.037,0.028,0.063,12.040,-8.470,-27.090
1263912,-1.074,0.027,0.104,6.930,-8.610,-30.310
