Millis,AccelX,AccelY,AccelZ,GyroX,GyroY,GyroZ
11160398,-1.000,-0.078,-0.000,31.500,14.840,17.780
11160422,-0.999,-0.070,-0.114,31.850,13.860,16.240
11160441,-0.996,-0.062,-0.121,32.830,12.740,15.470
11160464,-0.996,-0.064,-0.129,32.480,11.760,14.770
11160485,-0.982,-0.070,-0.138,32.480,11.480,13.720
11160505,-0.977,-0.056,-0.136,32.550,13.230,12.880
11160520,-0.988,-0.064,-0.127,32.550,13.300,12.320
11160545,-0.993,-0.069,-0.136,31.710,10.640,11.690
11160563,-0.988,-0.059,-0.146,31.500,9.870,10.990
11160583,-0.996,-0.051,-0.149,31.920,10.220,10.290
11160607,-1.004,-0.051,-0.150,31.850,10.360,9.450
11160623,-1.008,-0.053,-0.156,30.170,10.570,8.750
11160648,-0.997,-0.052,-0.161,28.560,10.640,7.420
11160665,-0.991,-0.054,-0.159,27.230,10.360,6.720
11160688,-0.991,-0.046,-0.154,25.900,9.240,5.320
11160708,-0.998,-0.033,-0.163,23.660,7.980,4.970
11160729,-1.005,-0.021,-0.173,19.530,7.770,4.340
11160749,-1.011,-0.013,-0.168,16.380,6.860,3.920
11160767,-1.009,-0.021,-0.166,14.210,4.830,3.220
11160790,-1.005,-0.025,-0.167,12.180,3.290,2.170
11160810,-1.004,-0.024,-0.170,9.310,2.380,1.470
11160829,-1.001,-0.018,-0.163,6.510,0.910,1.050
11160853,-0.993,-0.020,-0.160,4.340,-1.260,0.770
11160873,-0.990,-0.019,-0.158,2.240,-3.080,0.630
11160894,-0.999,-0.019,-0.159,-17.780,-4.340,0.630
11160912,-1.007,-0.024,-0.173,-3.360,-5.670,0.350
11160933,-1.005,-0.022,-0.175,-7.350,-5.600,-0.560
11160954,-1.005,-0.007,-0.173,-10.850,-5.880,-0.980
11160973,-1.005,-0.005,-0.174,-14.000,-6.930,-2.030
11160992,-1.003,-0.002,-0.177,-16.870,-7.000,-2.520
11161009,-0.999,-0.021,-0.175,-18.480,-6.930,-3.010
11161032,-0.995,-0.039,-0.165,-19.110,-7.560,-4.130
11161053,-0.990,-0.041,-0.154,-19.740,-9.170,-5.320
11161073,-0.990,-0.046,-0.147,-19.600,-10.710,-6.370
11161092,-0.996,-0.056,-0.139,-18.830,-11.830,-6.300
11161109,-1.003,-0.063,-0.131,-17.220,-12.740,-5.950
11161132,-1.003,-0.054,-0.133,-15.750,-12.600,-5.950
11161153,-1.004,-0.047,-0.132,-15.610,-11.200,-6.230
11161172,-0.992,-0.049,-0.140,-14.560,-10.710,-6.370
11161197,-0.977,-0.042,-0.134,-13.090,-8.470,-6.860
11161217,-0.983,-0.038,-0.132,-10.920,-6.790,-7.560
11161235,-0.988,-0.029,-0.128,-9.450,-4.690,-8.540
11161255,-0.994,-0.020,-0.139,-11.830,-3.850,-9.520
11161277,-0.991,-0.015,-0.149,-15.190,-2.450,-10.500
11161299,-0.988,-0.007,-0.154,-18.200,0.070,-11.410
11161320,-0.991,-0.021,-0.148,-19.600,0.840,-13.090
11161337,-0.986,-0.031,-0.152,-20.580,-0.070,-14.140
11161357,-0.983,-0.044,-0.142,-22.050,-1.890,-15.540
11161378,-0.995,-0.064,-0.123,-22.750,-3.850,-17.080
11161402,-1.020,-0.103,-0.121,-19.390,-7.910,-17.850
11161426,-1.021,-0.129,-0.136,-16.310,-11.970,-18.340
11161446,-1.024,-0.146,-0.152,-14.630,-13.160,-18.480
11161465,-1.021,-0.148,-0.150,-14.210,-12.950,-18.200
11161483,-1.015,-0.165,-0.133,-12.670,-11.270,-17.920
11161506,-1.017,-0.173,-0.097,-10.290,-10.710,-16.940
11161530,-1.010,-0.172,-0.072,-8.960,-14.560,-16.660
11161550,-0.995,-0.167,-0.064,-8.190,-20.790,-16.730
11161567,-0.996,-0.161,-0.072,-6.440,-22.960,-16.660
11161591,-1.003,-0.159,-0.075,-4.130,-24.080,-14.980
11161611,-1.017,-0.175,-0.074,-1.750,-25.060,-13.790
11161631,-1.030,-0.179,-0.064,0.490,-26.250,-13.300
11161651,-1.027,-0.182,-0.053,2.940,-28.910,-12.880
11161674,-1.001,-0.188,-0.042,5.040,-31.220,-12.880
11161695,-0.991,-0.194,-0.034,6.720,-32.620,-12.880
11161715,-0.972,-0.202,-0.015,8.050,-32.690,-13.160
11161735,-0.973,-0.190,0.010,9.380,-32.550,-13.230
11161752,-0.987,-0.186,0.026,11.340,-32.690,-12.670
11161771,-0.980,-0.198,0.020,13.790,-33.180,-11.620
11161796,-0.960,-0.203,0.013,14.490,-31.010,-10.430
11161816,-0.957,-0.214,0.021,15.610,-26.880,-10.080
11161839,-0.962,-0.213,0.045,16.380,-21.910,-9.800
11161860,-0.978,-0.208,0.068,17.290,-18.900,-10.010
11161883,-0.981,-0.210,0.078,19.320,-18.060,-7.910
11161903,-0.961,-0.218,0.067,18.760,-16.240,-7.490
11161926,-0.952,-0.211,0.048,17.290,-12.670,-6.440
11161950,-0.948,-0.200,0.041,16.100,-7.770,-5.110
11161970,-0.949,-0.199,0.047,14.000,-2.730,-3.920
11161992,-0.951,-0.201,0.065,12.950,1.190,-2.660
11162016,-0.955,-0.201,0.066,12.950,4.970,-1.470
11162035,-0.957,-0.193,0.069,11.060,8.680,0.070
11162055,-0.983,-0.193,0.075,6.790,12.250,1.610
11162076,-0.976,-0.192,0.065,2.030,15.960,4.130
11162096,-0.974,-0.176,0.058,-1.820,20.440,7.000
11162116,-0.953,-0.168,0.040,-0.840,22.820,11.830
11162140,-0.922,-0.174,0.004,1.890,28.420,19.950
11162160,-0.918,-0.176,0.000,2.170,35.840,26.880
11162176,-0.906,-0.176,-0.011,3.080,41.860,33.460
11162199,-0.904,-0.190,-0.036,4.130,47.810,40.880
11162221,-0.900,-0.172,-0.047,4.970,56.210,46.760
11162238,-0.903,-0.129,-0.065,5.180,61.950,52.220
11162262,-0.893,-0.108,-0.114,7.070,70.490,57.960
11162281,-0.879,-0.075,-0.132,8.890,78.890,61.950
11162305,-0.866,-0.044,-0.164,10.430,88.270,68.810
11162324,-0.843,-0.042,-0.215,10.080,97.790,72.450
11162345,-0.826,0.013,-0.264,6.860,110.110,78.680
11162365,-0.824,0.058,-0.270,-0.630,126.420,81.690
11162382,-0.819,0.091,-0.278,-3.640,134.960,83.790
11162402,-0.795,0.107,-0.290,-6.160,143.570,83.650
11162426,-0.750,0.114,-0.298,-7.070,144.620,80.220
11162446,-0.745,0.125,-0.339,-4.480,142.450,76.160
11162466,-0.713,0.136,-0.447,-0.700,145.040,77.980
11162485,-0.637,0.115,-0.525,1.890,156.170,70.630
11162506,-0.616,0.134,-0.535,-1.890,157.640,65.660
11162526,-0.614,0.219,-0.600,-10.570,155.540,59.780
11162546,-0.644,0.267,-0.674,-19.880,164.990,53.970
11162567,-0.641,0.358,-0.679,-32.690,179.060,50.680
11162586,-0.668,0.362,-0.641,-36.330,160.510,48.510
11162606,-0.559,0.304,-0.740,-32.340,146.230,37.660
11162630,-0.507,0.365,-0.887,-30.520,142.240,23.730
11162648,-0.460,0.365,-0.880,-28.630,147.700,20.510
11162672,-0.365,0.263,-0.782,-25.970,148.260,15.890
11162692,-0.301,0.342,-0.665,-23.660,120.190,13.230
11162712,-0.216,0.278,-0.890,-17.850,111.860,14.140
11162732,-0.345,0.642,-1.120,-20.370,123.270,19.390
11162756,-0.486,0.602,-0.925,-26.180,115.990,27.650
11162776,-0.346,0.509,-0.880,-25.830,89.810,28.980
11162800,-0.246,0.462,-1.020,-25.270,78.960,29.190
11162820,-0.139,0.421,-1.064,-25.550,88.130,25.550
11162838,-0.051,0.328,-1.009,-24.640,89.250,17.500
11162860,-0.026,0.374,-0.997,-18.620,87.430,16.730
11162877,-0.153,0.430,-1.010,-19.180,86.940,8.890
11162902,-0.175,0.468,-1.020,-10.850,97.790,16.660
11162920,-0.087,0.481,-1.135,-11.900,107.870,22.890
11162939,-0.025,0.499,-1.072,-10.850,103.250,27.370
11162964,-0.058,0.597,-1.065,-12.810,79.520,19.460
11162983,-0.025,0.636,-1.028,-15.750,64.960,12.740
11163004,0.009,0.596,-1.093,-12.530,40.320,7.560
11163024,0.053,0.563,-1.144,2.100,11.830,0.000
11163044,0.081,0.556,-1.090,15.400,-17.150,-5.180
11163064,0.069,0.564,-1.069,18.130,-36.680,-4.410
11163084,0.045,0.521,-1.098,25.200,-54.950,2.800
11163105,0.012,0.487,-1.106,36.400,-75.040,-2.170
11163123,0.007,0.469,-1.088,42.210,-83.440,-12.320
11163147,-0.007,0.415,-1.016,46.480,-92.820,-26.460
11163167,-0.053,0.376,-1.026,49.420,-100.800,-36.820
11163188,-0.091,0.366,-1.078,56.700,-108.780,-38.850
11163208,-0.088,0.381,-1.142,59.360,-112.840,-32.830
11163226,-0.110,0.341,-1.087,64.260,-111.020,-34.860
11163250,-0.158,0.332,-1.004,65.450,-114.870,-39.130
11163270,-0.224,0.322,-0.968,65.660,-121.940,-40.460
11163288,-0.259,0.251,-0.987,66.710,-128.100,-44.940
11163309,-0.305,0.172,-0.968,67.760,-134.680,-45.500
11163328,-0.339,0.234,-0.952,65.730,-135.730,-47.320
11163353,-0.373,0.339,-0.937,59.290,-134.260,-44.030
11163368,-0.430,0.249,-0.957,55.020,-135.590,-40.670
11163394,-0.463,0.178,-0.939,47.670,-140.770,-43.400
11163411,-0.461,0.178,-0.839,44.940,-141.470,-49.770
11163435,-0.514,0.135,-0.757,42.700,-144.270,-54.670
11163455,-0.591,0.075,-0.771,38.850,-146.440,-58.100
11163475,-0.618,0.092,-0.761,38.850,-144.060,-59.780
11163497,-0.616,0.091,-0.713,41.090,-139.930,-57.820
11163517,-0.657,0.000,-0.644,36.680,-133.700,-65.590
11163541,-0.668,0.009,-0.612,30.800,-128.310,-53.410
11163561,-0.703,-0.003,-0.580,25.900,-127.260,-57.610
11163580,-0.709,0.044,-0.541,25.480,-125.510,-51.310
11163602,-0.688,0.001,-0.472,22.820,-122.640,-49.140
11163618,-0.735,-0.039,-0.464,20.090,-113.680,-52.500
11163638,-0.747,-0.043,-0.425,12.880,-110.950,-44.030
11163658,-0.766,-0.048,-0.413,11.970,-102.480,-43.470
11163678,-0.763,-0.068,-0.388,10.990,-95.130,-38.150
11163702,-0.764,-0.111,-0.355,12.250,-88.060,-34.580
11163722,-0.758,-0.150,-0.307,13.020,-78.470,-31.500
11163739,-0.770,-0.151,-0.282,11.900,-73.360,-28.140
11163763,-0.784,-0.153,-0.249,9.660,-64.120,-22.820
11163782,-0.788,-0.179,-0.235,5.460,-55.580,-19.600
11163800,-0.809,-0.165,-0.225,2.450,-46.760,-15.680
11163823,-0.807,-0.152,-0.218,-1.260,-38.220,-8.890
11163843,-0.803,-0.163,-0.218,-7.630,-28.210,-6.230
11163863,-0.827,-0.183,-0.198,-12.460,-19.810,-4.130
11163881,-0.849,-0.193,-0.180,-14.140,-11.340,-1.960
11163903,-0.851,-0.199,-0.179,-18.480,-2.380,2.170
11163923,-0.857,-0.178,-0.189,-23.520,5.320,7.700
11163947,-0.842,-0.195,-0.186,-32.200,12.390,12.180
11163966,-0.860,-0.176,-0.202,-40.460,23.100,15.680
11163987,-0.877,-0.173,-0.197,-44.590,30.800,20.090
11164007,-0.881,-0.175,-0.198,-48.370,37.800,24.850
11164026,-0.869,-0.145,-0.210,-49.700,43.890,29.470
11164047,-0.883,-0.113,-0.251,-49.700,47.530,37.030
11164067,-0.860,-0.086,-0.286,-50.260,52.430,43.890
11164087,-0.846,-0.076,-0.336,-51.940,60.970,48.300
11164107,-0.810,-0.069,-0.366,-52.220,68.600,52.010
11164127,-0.791,-0.058,-0.364,-54.670,77.350,56.280
11164147,-0.761,-0.039,-0.366,-58.100,85.610,58.730
11164166,-0.746,-0.044,-0.376,-58.520,87.920,59.780
11164187,-0.734,-0.039,-0.449,-53.620,87.080,59.710
11164206,-0.711,0.017,-0.535,-53.550,96.460,61.950
11164225,-0.728,0.080,-0.508,-55.370,111.650,65.940
11164248,-0.728,0.083,-0.420,-54.810,111.860,67.830
11164269,-0.721,0.084,-0.527,-48.160,99.540,67.130
11164288,-0.682,0.107,-0.626,-46.270,102.200,67.130
11164309,-0.660,0.141,-0.558,-49.630,126.000,64.610
11164328,-0.604,0.141,-0.467,-42.980,128.100,63.700
11164351,-0.519,0.143,-0.635,-34.860,116.760,59.640
11164371,-0.457,0.190,-0.816,-38.640,123.550,53.410
11164394,-0.455,0.291,-0.861,-41.720,143.080,48.930
11164413,-0.467,0.315,-0.675,-37.450,144.620,49.210
11164437,-0.436,0.272,-0.649,-28.840,126.910,47.180
11164458,-0.360,0.291,-0.918,-25.480,124.950,42.700
11164475,-0.342,0.406,-0.987,-25.060,131.530,40.600
11164499,-0.385,0.477,-0.869,-20.160,127.540,38.080
11164519,-0.356,0.504,-0.882,-16.590,116.270,34.790
11164538,-0.283,0.454,-1.019,-15.820,111.860,31.150
11164557,-0.242,0.463,-1.026,-18.200,113.190,26.250
11164581,-0.226,0.526,-1.000,-19.250,104.860,22.190
11164605,-0.188,0.550,-1.012,-16.240,94.010,20.440
11164625,-0.157,0.520,-1.010,-12.950,86.520,17.570
11164647,-0.078,0.499,-1.033,-10.150,82.250,16.310
11164668,-0.046,0.583,-1.077,-9.800,82.040,13.440
11164689,-0.107,0.562,-1.026,-13.790,76.160,15.890
11164713,-0.103,0.602,-0.998,-18.480,66.500,21.140
11164729,-0.078,0.610,-1.026,-18.620,63.000,33.810
11164752,-0.029,0.575,-1.049,-11.550,48.300,36.120
11164769,-0.020,0.546,-1.032,-8.190,37.380,32.410
11164788,-0.002,0.562,-1.046,1.400,20.230,25.690
11164812,0.018,0.555,-1.042,9.800,2.870,19.180
11164833,0.020,0.540,-1.022,16.660,-13.440,15.050
11164849,0.025,0.539,-1.029,22.470,-25.830,10.990
11164873,-0.001,0.528,-1.027,28.840,-39.270,3.850
11164894,0.003,0.489,-1.052,33.600,-46.060,1.680
11164910,0.022,0.460,-1.080,35.350,-50.330,-0.700
11164934,-0.026,0.485,-1.036,40.670,-57.680,-7.560
11164952,-0.045,0.484,-1.042,42.140,-64.820,-11.620
11164976,-0.057,0.436,-1.059,44.590,-70.630,-10.220
11165000,-0.088,0.414,-1.053,46.480,-77.910,-10.990
11165020,-0.118,0.372,-1.034,51.450,-86.450,-14.980
11165039,-0.096,0.339,-1.052,56.280,-87.850,-16.590
11165057,-0.094,0.340,-1.028,60.340,-87.360,-17.430
11165076,-0.148,0.356,-0.993,62.300,-93.520,-18.060
11165100,-0.179,0.339,-0.963,61.530,-104.090,-18.340
11165121,-0.216,0.261,-0.949,61.250,-110.040,-21.980
11165141,-0.274,0.277,-0.949,60.130,-112.840,-25.340
11165159,-0.324,0.292,-0.924,55.020,-116.830,-28.280
11165180,-0.330,0.255,-0.920,47.040,-121.660,-31.640
11165201,-0.314,0.164,-0.938,42.280,-124.460,-36.680
11165222,-0.341,0.137,-0.904,40.180,-119.350,-38.570
11165241,-0.396,0.108,-0.808,38.500,-117.600,-41.090
11165261,-0.483,0.108,-0.820,35.210,-121.380,-40.320
11165280,-0.474,0.068,-0.878,34.580,-121.380,-41.090
11165301,-0.464,0.102,-0.844,39.550,-119.560,-46.200
11165321,-0.519,0.057,-0.724,42.770,-113.260,-46.340
11165338,-0.591,0.054,-0.679,41.440,-112.700,-46.480
11165357,-0.622,0.019,-0.695,39.480,-114.870,-44.870
11165377,-0.639,0.009,-0.658,40.250,-114.100,-45.430
11165399,-0.686,-0.010,-0.646,43.610,-112.280,-46.340
11165418,-0.710,-0.016,-0.644,44.030,-109.410,-46.830
11165443,-0.713,-0.018,-0.615,40.110,-107.100,-44.730
11165462,-0.691,-0.020,-0.538,33.250,-105.000,-44.100
11165482,-0.771,-0.000,-0.492,30.870,-109.340,-40.320
11165503,-0.783,-0.075,-0.474,34.650,-106.540,-39.130
11165523,-0.703,-0.064,-0.485,38.990,-98.490,-38.360
11165547,-0.726,-0.103,-0.473,44.170,-86.730,-31.010
11165565,-0.767,-0.130,-0.421,41.580,-84.630,-26.530
11165588,-0.745,-0.117,-0.396,35.000,-80.710,-21.070
11165606,-0.734,-0.088,-0.356,27.090,-70.210,-17.780
11165626,-0.769,-0.078,-0.320,21.910,-58.240,-13.580
11165650,-0.799,-0.101,-0.268,17.430,-44.380,-7.140
11165670,-0.864,-0.140,-0.233,12.390,-35.910,-4.970
11165688,-0.886,-0.165,-0.244,8.470,-33.180,-3.150
11165709,-0.869,-0.191,-0.257,0.630,-26.880,-2.170
11165730,-0.867,-0.184,-0.243,-6.230,-18.060,-1.260
11165750,-0.867,-0.174,-0.215,-12.040,-11.130,1.120
11165765,-0.858,-0.158,-0.203,-14.210,-6.090,3.150
11165785,-0.832,-0.149,-0.212,-17.360,-0.910,7.000
11165805,-0.782,-0.142,-0.248,-21.070,5.530,11.970
11165829,-0.770,-0.131,-0.285,-28.980,19.040,16.310
11165849,-0.780,-0.133,-0.289,-37.030,29.750,21.350
11165873,-0.784,-0.143,-0.298,-42.280,40.530,26.600
11165893,-0.793,-0.115,-0.321,-46.760,50.680,31.010
11165913,-0.787,-0.087,-0.350,-53.480,60.270,35.910
11165937,-0.764,-0.093,-0.364,-57.610,70.000,42.700
11165957,-0.744,-0.066,-0.392,-59.290,81.270,46.760
11165976,-0.723,-0.082,-0.437,-60.620,90.440,53.480
11165994,-0.684,-0.045,-0.474,-65.450,100.310,53.060
11166017,-0.690,-0.020,-0.504,-69.160,112.350,57.120
11166037,-0.683,0.002,-0.512,-68.950,120.400,62.230
11166056,-0.639,-0.010,-0.545,-68.040,133.350,63.210
11166073,-0.634,-0.001,-0.535,-67.620,142.380,63.770
11166097,-0.606,0.002,-0.492,-63.350,145.040,61.040
11166115,-0.556,0.046,-0.522,-56.140,138.460,59.290
11166133,-0.514,0.137,-0.654,-56.420,133.910,60.130
11166152,-0.461,0.208,-0.732,-65.170,141.820,58.380
11166178,-0.416,0.176,-0.668,-63.070,152.740,51.450
11166197,-0.431,0.154,-0.676,-51.310,149.590,48.720
11166218,-0.394,0.211,-0.774,-42.560,149.520,43.680
11166237,-0.352,0.280,-0.906,-44.380,156.870,36.120
11166256,-0.341,0.273,-0.936,-44.520,158.270,38.500
11166274,-0.299,0.288,-0.900,-37.100,147.910,35.630
11166293,-0.260,0.380,-1.023,-27.860,147.280,35.840
11166314,-0.292,0.511,-1.102,-32.900,150.990,39.620
11166334,-0.343,0.514,-1.040,-35.910,146.230,44.380
11166357,-0.298,0.438,-1.053,-27.230,131.530,48.930
11166377,-0.154,0.363,-1.155,-26.180,131.740,52.150
11166396,-0.138,0.483,-1.220,-30.240,133.000,51.450
11166421,-0.079,0.521,-1.106,-26.110,120.680,52.080
11166437,-0.052,0.510,-1.064,-20.370,109.900,45.990
11166456,0.057,0.488,-1.014,-21.070,104.090,43.330
11166479,0.128,0.522,-1.061,-24.570,98.000,34.160
11166498,0.161,0.552,-1.109,-20.300,79.170,29.190
11166518,0.133,0.589,-1.037,-20.160,67.270,29.610
11166542,0.167,0.604,-1.031,-20.650,48.720,26.250
11166561,0.216,0.556,-1.017,-16.940,30.660,19.390
11166582,0.215,0.527,-1.054,0.490,-3.150,9.030
11166601,0.226,0.516,-1.018,9.380,-28.070,4.690
11166621,0.240,0.509,-1.017,17.150,-49.350,3.920
11166640,0.222,0.489,-1.016,24.920,-64.330,2.730
11166665,0.207,0.447,-0.999,38.500,-74.830,1.470
11166684,0.202,0.443,-0.999,40.740,-77.280,-1.680
11166705,0.183,0.413,-1.036,43.260,-87.150,-11.690
11166720,0.152,0.393,-1.053,49.210,-93.310,-18.760
11166741,0.131,0.385,-1.099,56.840,-101.640,-27.300
11166760,0.082,0.394,-1.071,58.520,-105.000,-31.570
11166782,0.074,0.427,-1.004,60.690,-97.510,-32.480
11166805,-0.032,0.356,-0.975,54.600,-101.220,-26.880
11166823,-0.018,0.284,-1.014,56.630,-109.340,-29.260
11166847,-0.056,0.278,-1.032,60.270,-108.850,-30.450
11166865,-0.102,0.307,-1.006,62.230,-110.320,-31.010
11166887,-0.170,0.326,-1.058,65.940,-112.770,-31.710
11166903,-0.203,0.304,-1.045,67.760,-113.820,-31.570
11166923,-0.241,0.260,-0.970,63.770,-117.810,-30.870
11166947,-0.320,0.274,-0.987,55.860,-120.540,-32.760
11166966,-0.356,0.280,-1.057,50.610,-113.890,-32.690
11166990,-0.366,0.293,-1.046,35.280,-98.140,-28.700
11167010,-0.384,0.182,-0.943,17.920,-101.010,-30.590
11167029,-0.433,0.000,-0.801,11.060,-116.690,-33.670
11167045,-0.457,0.079,-0.750,12.740,-133.280,-36.890
11167070,-0.482,0.048,-0.742,26.040,-145.250,-40.180
11167090,-0.527,0.108,-0.740,30.730,-148.400,-41.020
11167110,-0.554,0.075,-0.763,30.520,-146.650,-40.950
11167128,-0.587,0.040,-0.741,31.920,-146.090,-39.760
11167152,-0.615,0.017,-0.678,34.090,-147.700,-37.310
11167169,-0.643,0.025,-0.620,33.530,-144.270,-38.570
11167193,-0.700,0.040,-0.540,35.420,-140.700,-41.020
11167213,-0.731,0.002,-0.522,37.310,-142.240,-40.180
11167232,-0.719,-0.024,-0.496,37.380,-142.940,-40.600
11167251,-0.687,-0.014,-0.471,37.730,-141.260,-41.790
11167275,-0.669,0.047,-0.404,42.280,-138.880,-42.350
11167291,-0.626,-0.040,-0.446,38.640,-129.150,-40.600
11167315,-0.619,-0.058,-0.407,31.500,-106.680,-36.540
11167335,-0.700,-0.113,-0.320,27.930,-89.810,-34.440
11167351,-0.729,-0.151,-0.272,28.840,-82.740,-31.570
11167370,-0.786,-0.170,-0.229,31.360,-75.250,-27.930
11167395,-0.824,-0.172,-0.221,29.190,-61.810,-19.670
11167412,-0.883,-0.153,-0.263,23.800,-48.510,-14.000
11167435,-0.885,-0.153,-0.265,14.070,-32.340,-6.090
11167455,-0.863,-0.147,-0.241,5.460,-24.150,-0.210
11167476,-0.834,-0.164,-0.207,0.560,-14.210,4.900
11167500,-0.809,-0.175,-0.181,-3.990,-4.690,6.580
11167520,-0.813,-0.163,-0.155,-6.440,7.840,9.030
11167541,-0.833,-0.157,-0.182,-11.060,19.040,12.040
11167560,-0.833,-0.167,-0.253,-16.660,28.910,16.380
11167580,-0.848,-0.168,-0.246,-21.700,42.000,19.740
11167604,-0.888,-0.150,-0.229,-27.790,52.150,24.500
11167624,-0.886,-0.118,-0.222,-31.920,54.180,29.960
11167640,-0.865,-0.098,-0.241,-34.370,58.450,31.920
11167664,-0.849,-0.094,-0.296,-45.360,64.680,35.770
11167683,-0.819,-0.087,-0.334,-51.310,72.240,36.050
11167702,-0.789,-0.087,-0.340,-55.860,81.410,37.870
11167726,-0.785,-0.080,-0.356,-56.490,90.160,38.850
11167746,-0.781,-0.071,-0.397,-54.950,93.520,41.370
11167770,-0.762,-0.052,-0.456,-55.930,103.600,45.570
11167788,-0.753,-0.053,-0.473,-57.680,109.270,46.690
11167812,-0.723,-0.012,-0.466,-58.240,119.420,46.900
11167831,-0.716,0.033,-0.487,-59.080,116.970,46.550
11167855,-0.671,0.049,-0.573,-56.210,114.520,45.360
11167875,-0.649,0.045,-0.621,-53.200,134.540,48.370
11167894,-0.621,0.045,-0.589,-45.990,139.370,49.280
11167918,-0.551,0.107,-0.603,-49.490,139.720,46.830
11167942,-0.523,0.134,-0.730,-51.030,132.090,38.290
11167963,-0.526,0.208,-0.743,-47.320,134.960,35.140
11167982,-0.491,0.228,-0.734,-38.150,142.100,34.510
11167999,-0.407,0.204,-0.821,-34.510,142.310,30.800
11168023,-0.366,0.256,-0.904,-39.060,139.860,26.250
11168038,-0.380,0.309,-0.914,-36.750,141.960,27.230
11168061,-0.344,0.224,-0.815,-31.080,140.980,27.790
11168084,-0.291,0.247,-0.920,-29.960,138.110,27.510
11168104,-0.325,0.418,-1.019,-30.240,138.880,27.300
11168128,-0.333,0.496,-1.047,-24.920,135.870,34.580
11168148,-0.237,0.452,-1.012,-28.140,128.870,41.580
11168168,-0.185,0.360,-0.973,-29.610,122.570,38.850
11168187,-0.116,0.442,-1.035,-27.720,125.580,33.880
11168204,-0.057,0.444,-1.036,-28.420,121.100,32.760
11168224,0.034,0.480,-1.017,-30.240,126.840,26.670
11168244,0.120,0.476,-1.082,-35.070,129.010,19.180
11168268,0.159,0.463,-1.082,-27.790,151.550,13.580
11168284,0.157,0.451,-1.086,-33.810,135.450,7.000
11168308,0.084,0.474,-1.082,-28.630,99.960,17.640
11168328,0.195,0.545,-1.113,-18.690,74.130,25.830
11168348,0.247,0.600,-1.067,-12.320,54.600,24.780
11168372,0.230,0.608,-0.983,-4.060,20.160,20.160
11168391,0.226,0.578,-0.984,0.560,-1.890,17.500
11168410,0.233,0.529,-0.987,7.840,-24.570,12.250
11168434,0.240,0.481,-1.021,22.750,-54.950,7.560
11168452,0.229,0.463,-1.029,38.500,-74.830,5.110
11168471,0.210,0.446,-1.020,48.510,-91.070,1.680
11168491,0.187,0.423,-1.034,59.290,-100.030,-5.110
11168515,0.187,0.430,-1.048,61.040,-103.880,-11.620
11168531,0.116,0.412,-1.052,55.930,-108.080,-14.560
11168551,0.085,0.390,-1.048,54.880,-111.860,-17.080
11168575,0.044,0.318,-1.086,57.260,-117.110,-23.310
11168596,0.015,0.298,-1.028,55.720,-113.960,-30.030
11168613,-0.018,0.307,-1.015,55.860,-115.710,-29.470
11168637,-0.052,0.283,-1.064,54.880,-117.320,-30.450
11168657,-0.081,0.287,-1.075,51.660,-115.220,-33.320
11168676,-0.156,0.266,-1.039,49.910,-118.860,-30.170
11168695,-0.193,0.202,-1.017,49.980,-130.830,-36.050
11168715,-0.251,0.273,-1.011,49.280,-134.750,-30.520
11168735,-0.285,0.228,-1.007,48.510,-136.990,-27.790
11168758,-0.329,0.197,-0.988,49.000,-138.950,-26.740
11168781,-0.365,0.154,-0.963,50.260,-142.800,-28.210
11168802,-0.390,0.131,-0.895,52.780,-145.390,-30.240
11168822,-0.430,0.123,-0.841,53.620,-149.240,-32.200
11168842,-0.434,0.107,-0.781,54.320,-153.860,-32.830
11168862,-0.439,0.110,-0.708,54.250,-155.400,-30.730
11168880,-0.491,0.094,-0.665,50.680,-155.050,-29.820
11168901,-0.509,0.061,-0.700,40.810,-145.110,-32.480
11168925,-0.573,0.060,-0.706,32.900,-132.440,-35.840
11168944,-0.651,0.079,-0.672,33.530,-125.370,-32.130
11168962,-0.660,0.060,-0.596,35.140,-118.580,-29.050
11168981,-0.711,0.020,-0.546,32.130,-115.430,-29.260
11169001,-0.773,-0.004,-0.496,28.280,-115.080,-30.310
11169025,-0.810,-0.053,-0.496,23.100,-114.240,-26.040
11169044,-0.782,-0.093,-0.527,19.740,-114.170,-27.510
11169061,-0.781,-0.100,-0.496,20.510,-108.640,-28.490
11169080,-0.690,-0.097,-0.493,17.780,-102.760,-26.110
11169104,-0.651,-0.110,-0.452,16.240,-93.100,-25.200
11169125,-0.650,-0.119,-0.351,16.450,-78.610,-24.290
11169143,-0.739,-0.144,-0.301,19.880,-70.630,-21.350
11169163,-0.816,-0.171,-0.260,23.380,-62.370,-16.660
11169188,-0.883,-0.186,-0.264,25.900,-53.340,-10.920
11169207,-1.024,-0.218,-0.274,23.870,-51.800,-5.740
11169227,-0.957,-0.161,-0.264,17.920,-47.950,-3.780
11169243,-0.921,-0.133,-0.269,16.660,-42.980,-3.990
11169267,-0.866,-0.135,-0.264,13.650,-32.760,-2.030
11169284,-0.838,-0.118,-0.229,8.400,-26.670,0.070
11169303,-0.821,-0.140,-0.185,3.220,-21.070,1.960
11169323,-0.858,-0.182,-0.173,-0.770,-16.660,0.280
11169348,-0.877,-0.174,-0.203,-1.960,-6.650,0.490
11169366,-0.880,-0.152,-0.176,-3.360,2.100,1.400
11169389,-0.918,-0.151,-0.132,-7.280,7.070,3.290
11169408,-0.931,-0.143,-0.145,-10.500,10.500,5.740
11169431,-0.930,-0.160,-0.163,-13.440,15.540,8.750
11169453,-0.906,-0.154,-0.164,-13.580,22.610,10.150
11169473,-0.896,-0.137,-0.191,-16.240,27.300,12.530
11169493,-0.881,-0.144,-0.236,-18.830,33.180,14.070
11169516,-0.843,-0.123,-0.266,-24.080,40.600,15.260
11169534,-0.838,-0.112,-0.262,-27.580,48.440,16.660
11169553,-0.855,-0.098,-0.261,-31.990,54.600,16.940
11169573,-0.850,-0.103,-0.282,-38.640,61.880,23.380
11169598,-0.825,-0.101,-0.336,-43.260,65.940,27.370
11169618,-0.795,-0.066,-0.398,-51.380,75.670,31.080
11169639,-0.808,-0.061,-0.395,-57.260,82.320,34.930
11169657,-0.797,-0.053,-0.398,-59.500,92.330,37.800
11169678,-0.782,-0.028,-0.416,-56.280,100.310,41.930
11169695,-0.744,-0.020,-0.421,-54.950,104.300,46.620
11169715,-0.701,-0.014,-0.427,-58.450,108.360,49.420
11169739,-0.698,-0.050,-0.460,-62.580,117.530,45.780
11169759,-0.695,-0.055,-0.509,-57.400,122.150,46.060
11169779,-0.613,0.007,-0.556,-47.600,130.550,50.540
11169798,-0.536,0.052,-0.579,-44.800,140.140,50.330
11169822,-0.565,0.078,-0.641,-46.830,144.200,45.010
11169842,-0.585,0.125,-0.655,-47.110,149.310,45.500
11169862,-0.493,0.174,-0.677,-42.560,155.120,45.780
11169878,-0.449,0.144,-0.710,-41.090,156.240,41.860
11169898,-0.412,0.168,-0.806,-43.120,153.440,35.280
11169922,-0.435,0.257,-0.839,-40.670,151.200,30.520
11169942,-0.418,0.301,-0.850,-35.140,150.010,28.350
11169962,-0.358,0.257,-0.915,-29.470,147.980,24.290
11169981,-0.287,0.289,-1.028,-30.380,150.920,21.560
11169998,-0.278,0.407,-1.044,-33.110,154.210,21.210
11170017,-0.315,0.414,-0.937,-33.460,146.300,21.910
11170039,-0.234,0.511,-1.104,-46.550,146.930,33.530
11170058,-0.182,0.385,-1.075,-38.010,132.160,29.820
11170077,-0.120,0.412,-1.051,-34.300,118.230,22.470
11170097,-0.119,0.448,-0.986,-36.330,111.230,14.630
11170122,0.084,0.578,-1.081,-67.060,143.920,13.580
11170146,0.077,0.530,-1.045,-67.550,145.810,13.230
11170163,0.087,0.479,-0.950,-73.430,143.430,6.230
11170184,0.139,0.457,-0.964,-67.060,126.420,-5.460
11170204,0.202,0.503,-0.951,-63.420,108.290,-7.070
11170228,0.226,0.546,-0.962,-64.680,98.000,5.530
11170244,0.316,0.602,-0.955,-55.650,71.120,12.460
11170269,0.347,0.635,-0.978,-51.940,59.430,13.580
11170286,0.306,0.650,-0.894,-54.880,50.820,9.800
11170308,0.314,0.600,-0.895,-42.140,46.970,2.940
11170328,0.340,0.587,-0.916,-28.560,37.240,2.590
11170347,0.353,0.590,-0.928,-2.520,15.680,-1.190
11170371,0.320,0.620,-0.874,22.540,-10.990,-4.340
11170395,0.319,0.626,-0.866,38.220,-37.030,-0.770
11170415,0.305,0.591,-0.895,48.090,-55.370,2.100
11170435,0.287,0.579,-0.904,59.920,-75.880,3.920
11170455,0.259,0.501,-0.920,90.300,-96.320,8.820
11170474,0.244,0.565,-0.924,92.120,-108.920,11.340
11170498,0.214,0.524,-0.950,88.970,-112.840,6.160
11170521,0.167,0.496,-1.003,91.560,-125.650,-4.690
11170542,0.163,0.455,-0.979,87.290,-114.940,-34.790
11170567,0.070,0.388,-1.009,68.110,-102.130,-25.410
11170586,0.076,0.432,-0.996,71.190,-103.600,-28.140
11170606,0.010,0.370,-1.020,67.200,-102.760,-24.570
11170627,-0.030,0.349,-1.005,66.710,-104.370,-16.450
11170646,-0.087,0.329,-0.984,65.730,-105.770,-12.530
11170665,-0.105,0.309,-1.012,57.190,-103.740,-12.530
11170686,-0.176,0.292,-0.987,58.310,-108.570,-13.790
11170705,-0.129,0.322,-1.037,44.170,-103.950,-17.220
11170725,-0.201,0.181,-0.995,43.890,-106.470,-18.830
11170749,-0.228,0.213,-0.915,45.850,-118.230,-22.400
11170769,-0.273,0.221,-0.900,44.800,-123.900,-24.570
11170793,-0.300,0.221,-0.920,40.530,-125.650,-26.320
11170813,-0.325,0.193,-0.916,35.630,-125.860,-26.740
11170832,-0.345,0.140,-0.874,33.600,-126.280,-28.350
11170853,-0.364,0.110,-0.802,36.890,-129.150,-30.590
11170868,-0.417,0.115,-0.762,38.920,-125.510,-30.310
11170893,-0.454,0.100,-0.772,36.680,-123.970,-30.380
11170913,-0.491,0.086,-0.776,32.130,-122.430,-30.100
11170931,-0.523,0.073,-0.752,28.210,-122.010,-30.310
11170954,-0.556,0.022,-0.741,30.310,-117.530,-31.710
11170970,-0.583,0.007,-0.722,33.740,-112.700,-32.480
11170994,-0.619,0.012,-0.661,36.960,-105.770,-32.900
11171013,-0.656,0.028,-0.615,38.080,-105.070,-31.710
11171036,-0.673,0.021,-0.601,36.260,-104.930,-30.940
11171055,-0.696,0.017,-0.589,33.950,-101.780,-29.890
11171075,-0.711,0.042,-0.582,32.340,-97.580,-27.020
11171098,-0.698,0.012,-0.590,29.820,-90.860,-23.450
11171119,-0.667,-0.053,-0.543,26.250,-79.170,-23.240
11171139,-0.699,-0.042,-0.487,25.480,-71.820,-22.260
11171159,-0.731,-0.062,-0.445,26.320,-66.850,-18.060
11171183,-0.751,-0.126,-0.416,24.990,-62.090,-15.330
11171203,-0.770,-0.173,-0.394,22.610,-56.980,-14.910
11171223,-0.808,-0.209,-0.367,25.060,-51.380,-14.840
11171240,-0.845,-0.192,-0.366,27.160,-47.320,-13.510
11171265,-0.862,-0.164,-0.387,27.790,-41.300,-8.820
11171282,-0.844,-0.158,-0.401,24.780,-33.950,-7.350
11171304,-0.819,-0.154,-0.362,26.460,-23.170,-5.600
11171325,-0.834,-0.142,-0.304,28.840,-16.520,-2.940
11171340,-0.837,-0.179,-0.310,28.070,-13.580,-0.350
11171364,-0.817,-0.173,-0.320,21.910,-8.470,3.710
11171382,-0.821,-0.161,-0.332,15.680,-0.840,4.480
11171406,-0.845,-0.160,-0.318,11.830,9.310,5.250
11171430,-0.855,-0.158,-0.307,10.780,16.100,6.020
11171450,-0.865,-0.155,-0.311,7.350,22.330,7.560
11171470,-0.873,-0.160,-0.332,0.140,27.790,8.680
11171493,-0.850,-0.164,-0.336,-8.680,34.930,8.890
11171517,-0.834,-0.158,-0.316,-14.980,42.630,10.150
11171537,-0.844,-0.170,-0.321,-17.500,49.420,10.780
11171558,-0.813,-0.141,-0.372,-19.670,55.090,12.740
11171577,-0.778,-0.086,-0.385,-26.950,64.050,16.170
11171598,-0.767,-0.085,-0.393,-32.830,71.400,20.440
11171618,-0.738,-0.102,-0.407,-36.190,77.280,23.310
11171637,-0.728,-0.090,-0.421,-40.250,87.360,25.200
11171657,-0.693,-0.032,-0.471,-49.700,92.540,26.740
11171676,-0.661,-0.006,-0.534,-60.200,99.050,26.950
11171700,-0.639,-0.005,-0.584,-68.180,108.710,27.370
11171718,-0.618,-0.034,-0.597,-69.020,119.910,27.720
11171740,-0.582,0.004,-0.586,-71.820,124.320,28.210
11171759,-0.583,0.027,-0.599,-79.380,121.660,25.830
11171777,-0.587,0.027,-0.669,-81.060,123.060,20.860
11171797,-0.539,0.047,-0.742,-79.240,130.340,20.230
11171821,-0.477,0.074,-0.710,-79.100,137.130,26.180
11171841,-0.424,0.066,-0.716,-89.320,143.010,21.770
11171865,-0.459,0.179,-0.747,-94.150,144.270,13.300
11171884,-0.427,0.272,-0.709,-82.600,138.180,19.880
11171908,-0.371,0.200,-0.813,-56.840,129.710,22.050
11171926,-0.275,0.203,-0.955,-51.380,129.570,24.080
11171945,-0.286,0.306,-1.037,-52.920,139.720,27.090
11171969,-0.335,0.337,-0.952,-50.470,134.050,33.740
11171990,-0.293,0.314,-0.938,-43.960,128.660,37.380
11172009,-0.246,0.324,-1.046,-42.910,133.770,35.210
11172027,-0.176,0.405,-1.010,-29.470,120.120,37.170
11172047,-0.185,0.406,-1.053,-37.940,128.170,34.230
11172067,-0.074,0.377,-1.062,-59.920,156.240,30.870
11172091,0.029,0.458,-1.163,-83.440,176.330,32.690
11172108,0.110,0.529,-1.080,-103.530,175.490,25.760
11172127,0.136,0.549,-1.046,-93.660,175.490,10.570
11172148,0.141,0.495,-1.109,-83.720,145.670,5.180
11172168,0.187,0.557,-0.962,-57.190,110.950,6.160
11172189,0.180,0.600,-0.837,-39.830,86.170,11.410
11172209,0.216,0.659,-0.824,-35.210,65.030,14.210
11172231,0.301,0.694,-0.886,-20.160,48.650,11.760
11172249,0.366,0.668,-0.926,-7.280,30.590,9.170
11172269,0.379,0.629,-0.903,-6.160,19.320,5.390
11172289,0.391,0.595,-0.885,-3.990,11.130,0.980
11172310,0.370,0.590,-0.876,5.810,1.330,-1.050
11172330,0.376,0.580,-0.871,12.530,-11.830,1.190
11172353,0.379,0.548,-0.868,20.370,-24.570,1.260
11172373,0.373,0.537,-0.883,30.240,-36.050,-0.140
11172394,0.359,0.534,-0.893,44.730,-51.030,0.420
11172416,0.379,0.589,-0.868,65.450,-72.590,2.170
11172434,0.311,0.510,-0.930,78.400,-88.900,2.450
11172456,0.282,0.497,-0.941,89.320,-108.640,0.700
11172480,0.187,0.407,-0.975,99.610,-123.690,0.840
11172500,0.230,0.457,-0.963,85.260,-118.090,-0.350
11172515,0.233,0.464,-0.975,75.950,-92.680,-5.950
11172540,0.184,0.459,-0.966,61.880,-82.600,-7.770
11172559,0.121,0.395,-0.984,58.800,-85.960,-0.140
11172578,0.063,0.345,-0.981,52.500,-85.680,1.750
11172602,0.011,0.312,-0.953,52.780,-101.360,-2.590
11172624,-0.011,0.300,-0.992,53.760,-105.140,-8.680
11172643,-0.028,0.246,-1.048,54.180,-105.490,-12.880
11172663,-0.049,0.246,-1.037,52.290,-107.240,-15.680
11172686,-0.104,0.224,-1.033,51.100,-117.530,-14.910
11172706,-0.142,0.217,-1.018,51.240,-121.030,-14.560
11172725,-0.183,0.171,-0.972,52.780,-121.380,-17.640
11172750,-0.240,0.146,-0.938,54.320,-124.460,-22.960
11172770,-0.293,0.134,-0.968,52.010,-124.390,-28.000
11172785,-0.339,0.146,-0.969,49.000,-124.040,-29.890
11172809,-0.357,0.162,-0.933,44.730,-125.300,-27.580
11172826,-0.407,0.105,-0.903,39.690,-125.090,-29.750
11172846,-0.434,0.064,-0.874,36.050,-126.000,-31.990
11172866,-0.465,0.061,-0.840,34.300,-126.070,-34.020
11172888,-0.497,0.061,-0.823,31.850,-123.060,-35.630
11172910,-0.541,0.035,-0.805,30.240,-119.350,-34.790
11172934,-0.576,0.007,-0.768,29.750,-116.130,-35.280
11172953,-0.610,-0.024,-0.723,30.520,-114.450,-34.930
11172974,-0.647,-0.041,-0.681,33.250,-116.060,-34.650
11172992,-0.681,-0.028,-0.661,35.980,-116.970,-33.180
11173011,-0.681,-0.030,-0.639,36.120,-115.640,-29.820
11173032,-0.699,-0.080,-0.607,31.990,-116.340,-29.120
11173051,-0.676,-0.081,-0.578,31.710,-114.730,-32.690
11173076,-0.699,-0.074,-0.555,32.830,-118.440,-27.160
11173095,-0.741,-0.113,-0.540,36.190,-114.800,-25.340
11173119,-0.756,-0.116,-0.507,36.820,-108.220,-19.880
11173139,-0.789,-0.161,-0.468,33.880,-102.130,-19.460
11173159,-0.804,-0.163,-0.437,32.620,-106.330,-15.400
11173177,-0.795,-0.151,-0.383,30.450,-101.570,-12.110
11173200,-0.817,-0.180,-0.345,33.950,-95.410,-9.800
11173219,-0.849,-0.186,-0.321,35.700,-96.670,-5.460
11173239,-0.825,-0.206,-0.285,36.820,-92.750,-3.430
11173259,-0.809,-0.194,-0.270,34.650,-85.960,-2.870
11173279,-0.803,-0.161,-0.238,32.620,-81.480,-2.800
11173298,-0.790,-0.124,-0.184,31.640,-74.130,-1.750
11173322,-0.803,-0.112,-0.153,33.250,-65.450,1.400
11173342,-0.827,-0.126,-0.152,30.170,-55.230,3.640
11173360,-0.857,-0.167,-0.169,25.060,-42.840,5.180
11173382,-0.899,-0.191,-0.139,18.060,-32.830,5.740
11173404,-0.930,-0.219,-0.081,15.470,-24.780,4.200
11173423,-0.953,-0.203,-0.056,12.250,-21.350,3.850
11173448,-0.959,-0.178,-0.085,7.000,-13.860,5.670
11173463,-0.934,-0.152,-0.092,4.270,-7.560,7.560
11173489,-0.901,-0.144,-0.084,1.680,4.200,12.880
11173508,-0.869,-0.170,-0.074,0.420,12.390,14.840
11173527,-0.859,-0.185,-0.080,-3.150,21.630,15.820
11173547,-0.863,-0.175,-0.120,-6.510,32.760,16.030
11173566,-0.881,-0.175,-0.134,-10.430,44.030,17.920
11173591,-0.901,-0.162,-0.102,-14.770,51.170,19.320
11173611,-0.896,-0.133,-0.108,-19.530,60.340,19.670
11173630,-0.895,-0.107,-0.114,-20.930,64.890,22.330
11173649,-0.908,-0.093,-0.135,-25.690,68.110,25.410
11173670,-0.922,-0.107,-0.171,-27.090,71.330,27.580
11173689,-0.919,-0.085,-0.201,-27.230,80.220,28.280
11173714,-0.900,-0.079,-0.233,-26.250,83.720,30.100
11173734,-0.865,-0.083,-0.234,-26.950,87.850,30.310
11173753,-0.857,-0.072,-0.252,-28.420,92.260,28.560
11173771,-0.831,-0.070,-0.310,-31.150,98.560,25.550
11173795,-0.799,-0.067,-0.338,-33.320,104.160,24.290
11173813,-0.767,-0.069,-0.402,-31.080,106.470,23.870
11173833,-0.730,-0.030,-0.506,-30.450,112.840,24.710
11173855,-0.712,0.006,-0.521,-31.290,120.190,26.530
11173875,-0.726,0.027,-0.518,-32.830,124.740,26.040
11173893,-0.737,0.054,-0.557,-34.090,127.400,26.670
11173913,-0.725,0.064,-0.608,-35.000,126.420,27.160
11173933,-0.676,0.077,-0.679,-33.530,121.730,28.560
11173956,-0.646,0.097,-0.736,-33.740,122.150,29.470
11173975,-0.606,0.074,-0.736,-37.520,133.980,23.870
11173999,-0.587,0.100,-0.656,-41.580,135.030,21.910
11174015,-0.536,0.103,-0.645,-45.360,129.080,18.060
11174036,-0.494,0.139,-0.745,-48.720,126.980,16.730
11174056,-0.458,0.204,-0.770,-51.520,131.250,17.850
11174076,-0.402,0.208,-0.773,-49.210,132.860,20.650
11174099,-0.353,0.178,-0.824,-44.870,132.860,22.120
11174120,-0.286,0.208,-0.917,-44.940,137.340,18.760
11174140,-0.301,0.266,-0.940,-44.450,144.200,17.360
11174159,-0.297,0.278,-0.920,-42.490,145.110,17.850
11174179,-0.229,0.266,-0.974,-39.130,140.770,17.920
11174203,-0.187,0.273,-1.024,-40.880,139.020,15.400
11174221,-0.185,0.342,-1.073,-41.860,135.660,14.420
11174241,-0.148,0.379,-1.104,-39.550,130.900,15.610
11174265,-0.097,0.356,-1.068,-36.330,125.580,15.190
11174285,-0.020,0.366,-1.088,-43.470,133.560,15.260
11174304,0.000,0.319,-1.064,-43.890,122.920,13.020
11174324,0.061,0.378,-1.125,-47.530,134.330,9.170
11174346,0.054,0.426,-1.081,-46.480,129.780,3.430
11174365,0.147,0.405,-1.113,-46.340,116.970,8.820
11174384,0.204,0.399,-1.054,-54.740,108.010,17.360
11174400,0.277,0.406,-0.987,-53.130,101.640,18.690
11174420,0.245,0.454,-1.013,-51.940,90.650,19.740
11174442,0.256,0.529,-1.020,-39.340,68.250,22.540
11174464,0.279,0.561,-0.999,-25.200,43.960,29.190
11174486,0.298,0.549,-0.989,-5.250,9.660,38.850
11174506,0.286,0.512,-0.988,11.620,-21.770,44.660
11174525,0.299,0.494,-0.997,28.490,-48.860,42.000
11174548,0.324,0.469,-1.034,55.090,-81.340,37.170
11174570,0.321,0.420,-1.044,88.340,-109.760,25.200
11174589,0.264,0.457,-1.032,82.880,-122.780,16.310
11174608,0.241,0.399,-1.058,69.790,-132.160,6.160
11174628,0.175,0.372,-1.054,36.890,-78.470,-13.440
11174651,0.254,0.303,-1.071,36.470,-60.200,-60.480
11174672,0.277,0.383,-1.001,36.820,-80.990,-22.750
11174692,0.125,0.328,-1.030,40.950,-84.560,-22.400
11174712,0.089,0.310,-1.023,40.180,-95.830,-21.840
11174731,0.006,0.276,-1.059,37.170,-94.780,-22.610
11174752,-0.020,0.244,-1.055,32.760,-98.770,-21.910
11174775,-0.016,0.275,-0.975,41.370,-111.090,-20.720
11174796,-0.083,0.241,-0.974,39.900,-115.150,-24.850
11174814,-0.162,0.200,-0.996,40.390,-116.900,-25.830
11174838,-0.117,0.247,-1.041,42.980,-115.080,-27.230
11174860,-0.143,0.251,-1.012,48.510,-119.910,-25.130
11174879,-0.164,0.246,-0.963,46.270,-125.300,-24.010
11174898,-0.194,0.179,-0.928,39.760,-130.200,-24.360
11174918,-0.250,0.167,-0.872,36.540,-135.520,-26.530
11174939,-0.301,0.154,-0.805,36.750,-141.120,-26.950
11174963,-0.343,0.135,-0.809,37.030,-138.880,-27.720
11174982,-0.356,0.113,-0.864,36.400,-133.770,-29.470
11175002,-0.400,0.081,-0.884,34.090,-127.470,-34.370
11175022,-0.415,0.122,-0.853,32.130,-123.130,-35.700
11175041,-0.462,0.114,-0.748,31.360,-126.280,-31.500
11175063,-0.523,0.089,-0.722,32.690,-125.370,-30.380
11175088,-0.561,0.055,-0.713,31.290,-123.410,-31.640
11175107,-0.599,0.041,-0.689,30.310,-120.750,-33.110
11175127,-0.631,0.044,-0.649,27.510,-115.990,-36.190
11175148,-0.674,0.008,-0.664,29.190,-117.810,-32.270
11175163,-0.678,-0.025,-0.661,29.540,-118.790,-30.520
11175186,-0.659,-0.024,-0.595,30.870,-118.020,-29.540
11175205,-0.709,-0.042,-0.520,31.780,-115.570,-29.470
11175227,-0.765,-0.067,-0.489,32.340,-113.260,-28.980
11175249,-0.804,-0.102,-0.494,31.290,-105.350,-31.710
11175273,-0.794,-0.109,-0.529,27.230,-102.480,-24.010
11175290,-0.766,-0.137,-0.496,28.770,-91.210,-23.310
11175312,-0.791,-0.123,-0.399,37.030,-86.170,-21.070
11175333,-0.823,-0.117,-0.329,42.770,-85.540,-15.610
11175353,-0.810,-0.103,-0.306,37.730,-80.150,-11.410
11175373,-0.809,-0.136,-0.289,30.520,-72.660,-10.150
11175394,-0.826,-0.134,-0.271,25.620,-62.090,-11.200
11175417,-0.864,-0.145,-0.232,21.420,-47.320,-9.940
11175438,-0.885,-0.201,-0.220,15.610,-42.630,-9.310
11175457,-0.881,-0.194,-0.195,13.580,-37.520,-8.750
11175477,-0.899,-0.186,-0.185,11.760,-32.620,-7.910
11175497,-0.909,-0.170,-0.183,8.190,-25.900,-6.230
11175517,-0.890,-0.177,-0.188,5.390,-17.080,-3.920
11175537,-0.865,-0.187,-0.197,3.150,-8.400,-2.380
11175554,-0.849,-0.194,-0.193,1.050,0.490,-0.350
11175577,-0.860,-0.202,-0.176,-3.150,13.020,1.890
11175598,-0.869,-0.193,-0.173,-6.650,21.210,3.220
11175617,-0.867,-0.183,-0.157,-10.010,28.560,4.550
11175641,-0.876,-0.175,-0.154,-14.630,35.630,7.140
11175660,-0.861,-0.173,-0.177,-16.450,41.090,9.870
11175680,-0.843,-0.168,-0.208,-17.850,47.390,12.810
11175701,-0.842,-0.176,-0.225,-21.490,59.150,15.260
11175721,-0.856,-0.149,-0.255,-26.110,70.630,17.430
11175741,-0.856,-0.001,-0.316,-31.010,76.930,22.050
11175764,-0.784,-0.109,-0.361,-36.330,87.150,23.520
11175782,-0.761,-0.068,-0.355,-44.030,99.470,27.580
11175803,-0.762,-0.066,-0.339,-52.570,107.520,31.290
11175827,-0.741,-0.082,-0.364,-54.880,113.190,33.880
11175844,-0.704,-0.072,-0.424,-57.260,120.540,35.700
11175863,-0.684,-0.078,-0.452,-59.360,130.550,35.490
11175883,-0.686,-0.053,-0.490,-59.430,136.220,35.350
11175902,-0.666,-0.026,-0.567,-55.790,137.900,36.820
11175927,-0.630,0.028,-0.658,-55.510,143.500,40.600
11175946,-0.626,0.023,-0.683,-55.090,151.900,38.850
11175965,-0.645,0.059,-0.720,-54.810,155.260,37.380
11175990,-0.581,0.074,-0.752,-49.840,152.250,39.060
11176007,-0.493,0.106,-0.761,-51.030,147.770,36.960
11176027,-0.516,0.102,-0.778,-51.730,142.030,30.240
11176050,-0.491,0.160,-0.815,-50.120,138.950,26.880
11176074,-0.438,0.119,-0.838,-42.490,132.440,22.470
11176094,-0.365,0.145,-0.949,-46.550,133.490,17.780
11176114,-0.358,0.216,-0.907,-51.030,136.220,14.280
11176133,-0.419,0.245,-0.862,-48.300,131.320,15.750
11176154,-0.363,0.138,-0.936,-43.610,120.960,21.770
11176177,-0.220,0.224,-1.046,-47.740,126.630,26.460
11176198,-0.207,0.259,-1.018,-41.300,126.490,23.310
11176216,0.029,0.356,-1.017,-38.430,145.110,16.240
11176236,0.127,0.410,-1.040,-41.090,173.320,9.240
11176260,-0.086,0.311,-1.100,-57.400,204.680,2.450
11176277,0.093,0.494,-1.130,-77.350,185.640,0.770
11176295,0.050,0.375,-1.110,-68.180,152.320,10.780
11176321,0.096,0.372,-1.005,-59.570,126.770,8.960
11176340,0.203,0.476,-0.948,-56.350,121.940,-0.280
11176360,0.168,0.518,-0.873,-54.530,102.130,0.700
11176384,0.230,0.571,-0.901,-48.510,87.780,-0.280
11176403,0.347,0.560,-0.941,-49.140,74.970,0.000
11176419,0.391,0.521,-0.875,-49.980,74.830,-2.940
11176444,0.360,0.540,-0.824,-42.560,52.850,-2.730
11176460,0.418,0.529,-0.891,-45.150,52.290,-0.770
11176483,0.453,0.543,-0.943,-32.340,37.240,0.280
11176503,0.484,0.579,-0.938,-20.720,25.760,2.940
11176523,0.408,0.595,-0.864,-9.520,8.050,6.790
11176548,0.397,0.604,-0.869,1.190,-14.700,8.820
11176566,0.415,0.610,-0.875,11.690,-30.170,10.500
11176589,0.410,0.578,-0.904,25.410,-52.780,13.160
11176607,0.408,0.585,-0.870,48.510,-75.880,12.740
11176627,0.363,0.566,-0.906,55.580,-90.370,8.820
11176652,0.342,0.536,-0.931,67.480,-111.230,3.220
11176671,0.293,0.483,-0.932,69.860,-118.720,1.960
11176690,0.236,0.434,-0.896,73.290,-137.410,-0.070
11176710,0.149,0.429,-0.987,83.300,-143.570,4.200
11176734,0.115,0.386,-1.118,98.490,-168.280,8.960
11176753,0.116,0.380,-1.080,88.900,-179.480,-14.700
11176774,0.098,0.422,-1.116,74.760,-155.890,-22.540
11176791,0.053,0.370,-1.115,73.780,-148.330,-25.690
11176815,-0.151,0.267,-1.052,41.720,-119.910,-11.970
11176832,-0.058,0.295,-0.995,41.370,-123.620,-10.710
11176853,-0.156,0.179,-1.024,52.570,-148.540,-15.470
11176876,-0.210,0.159,-1.042,59.220,-164.430,-18.690
11176894,-0.244,0.225,-1.022,54.180,-156.940,-21.840
11176912,-0.248,0.209,-0.994,51.520,-152.600,-20.860
11176932,-0.271,0.206,-0.928,51.030,-148.260,-24.150
11176954,-0.329,0.191,-0.841,51.450,-144.480,-26.950
11176975,-0.407,0.203,-0.826,46.060,-141.540,-28.350
11176996,-0.411,0.190,-0.892,43.190,-139.930,-27.370
11177019,-0.394,0.144,-0.878,39.410,-129.920,-24.080
11177043,-0.444,0.090,-0.739,37.450,-120.190,-26.950
11177067,-0.512,0.054,-0.678,32.970,-119.840,-28.840
11177087,-0.572,0.037,-0.690,25.690,-118.440,-29.750
11177107,-0.635,0.037,-0.716,22.890,-116.900,-30.940
11177127,-0.656,0.003,-0.704,26.460,-114.310,-32.690
11177147,-0.637,-0.024,-0.686,33.390,-109.830,-33.390
11177166,-0.631,-0.008,-0.632,34.930,-109.060,-31.080
11177192,-0.655,0.004,-0.569,34.160,-108.430,-32.760
11177208,-0.691,0.026,-0.481,34.160,-108.570,-32.200
11177231,-0.790,0.041,-0.434,38.780,-110.250,-28.700
11177250,-0.849,0.015,-0.442,37.870,-112.630,-22.260
11177275,-0.864,-0.009,-0.462,30.450,-114.240,-17.920
11177295,-0.856,-0.050,-0.465,22.330,-110.600,-18.130
11177315,-0.870,-0.102,-0.427,20.300,-103.390,-21.000
11177335,-0.786,-0.099,-0.371,23.940,-101.290,-20.720
11177355,-0.721,-0.103,-0.267,24.990,-95.270,-18.830
11177375,-0.756,-0.125,-0.190,21.490,-88.410,-18.200
11177399,-0.814,-0.158,-0.151,20.930,-85.610,-18.410
11177419,-0.836,-0.173,-0.174,23.240,-77.980,-14.630
11177438,-0.874,-0.172,-0.178,24.500,-64.960,-11.270
11177458,-0.925,-0.182,-0.158,23.100,-58.030,-8.960
11177476,-0.947,-0.172,-0.134,20.090,-53.620,-7.910
11177500,-0.937,-0.172,-0.117,17.220,-44.310,-6.790
11177520,-0.908,-0.174,-0.073,14.630,-36.470,-6.090
11177540,-0.891,-0.180,-0.044,13.510,-31.570,-5.180
11177558,-0.868,-0.186,-0.052,12.180,-21.490,-4.830
11177580,-0.880,-0.170,-0.076,6.580,-7.350,-3.570
11177601,-0.896,-0.167,-0.075,0.910,3.010,-3.220
11177615,-0.910,-0.170,-0.080,-0.700,11.060,-2.730
11177640,-0.921,-0.177,-0.071,-1.610,18.830,-0.700
11177660,-0.925,-0.185,-0.080,-3.290,28.770,1.330
11177679,-0.915,-0.183,-0.083,-5.530,34.230,4.060
11177700,-0.902,-0.170,-0.093,-8.540,42.700,6.930
11177721,-0.904,-0.162,-0.099,-10.850,50.260,10.150
11177740,-0.894,-0.159,-0.119,-12.600,58.380,11.340
11177759,-0.862,-0.151,-0.178,-14.140,65.730,12.670
11177778,-0.840,-0.139,-0.216,-16.520,73.500,14.140
11177800,-0.837,-0.131,-0.236,-21.280,86.380,15.260
11177820,-0.850,-0.003,-0.262,-26.180,90.020,16.730
11177841,-0.818,-0.119,-0.285,-31.990,102.760,17.710
11177860,-0.813,-0.085,-0.276,-39.130,112.700,19.600
11177882,-0.810,-0.068,-0.285,-46.340,117.880,20.580
11177904,-0.774,-0.053,-0.335,-53.130,123.340,21.630
11177924,-0.702,-0.032,-0.431,-57.960,129.430,23.520
11177941,-0.674,-0.001,-0.476,-61.040,134.750,25.830
11177960,-0.652,-0.003,-0.508,-66.360,142.590,27.650
11177984,-0.637,-0.008,-0.549,-67.900,150.220,29.260
11178005,-0.589,-0.016,-0.559,-65.450,155.890,31.500
11178020,-0.578,-0.023,-0.580,-64.120,154.560,32.620
11178045,-0.580,-0.001,-0.666,-66.150,158.970,30.100
11178065,-0.529,0.049,-0.770,-66.990,163.100,26.740
11178085,-0.486,0.081,-0.750,-62.230,165.970,26.880
11178105,-0.479,0.081,-0.763,-53.130,162.050,28.420
11178124,-0.440,0.159,-0.845,-51.660,160.230,28.280
11178149,-0.389,0.206,-0.890,-58.590,158.760,24.220
11178170,-0.368,0.206,-0.915,-60.060,155.960,19.390
11178185,-0.299,0.239,-0.986,-57.050,155.330,21.280
11178205,-0.267,0.274,-0.994,-62.090,159.740,19.950
11178225,-0.222,0.209,-1.039,-62.930,153.230,14.000
11178249,-0.212,0.264,-1.104,-53.620,143.150,23.240
11178269,-0.190,0.291,-1.152,-51.100,153.230,21.700
11178288,-0.169,0.316,-1.046,-66.360,173.880,30.380
11178309,-0.093,0.431,-1.003,-115.920,217.350,32.900
11178329,-0.379,0.114,-0.953,-52.850,133.000,23.030
11178349,0.231,0.530,-1.158,-85.820,182.350,11.620
11178373,0.235,0.444,-1.036,-82.250,160.790,0.560
11178392,0.087,0.354,-0.981,-42.490,128.240,-8.820
11178415,0.233,0.452,-0.943,-22.260,110.810,-11.690
11178434,0.380,0.548,-0.987,-49.070,103.740,-7.420
11178454,0.349,0.510,-0.959,-25.480,76.160,-5.600
11178478,0.362,0.636,-0.972,-29.190,66.780,-1.960
11178493,0.366,0.687,-0.986,-27.510,49.070,4.060
11178519,0.380,0.657,-0.963,-13.510,26.670,11.270
11178537,0.380,0.634,-0.964,-2.030,-0.700,13.300
11178557,0.357,0.611,-0.920,17.430,-26.180,10.710
11178574,0.366,0.625,-0.893,31.500,-38.640,8.050
11178594,0.365,0.549,-0.956,46.830,-60.830,2.450
11178614,0.352,0.558,-0.958,61.880,-81.200,-1.540
11178637,0.324,0.481,-0.975,83.440,-105.910,-2.870
11178661,0.290,0.449,-1.000,93.380,-125.230,-1.540
11178680,0.242,0.422,-1.034,97.860,-145.250,-3.290
11178697,0.200,0.388,-1.045,93.940,-153.720,-8.260
11178721,0.221,0.369,-1.011,77.000,-139.160,-29.680
11178739,0.144,0.326,-1.011,61.390,-113.470,-25.970
11178761,0.051,0.306,-1.017,60.480,-110.250,-15.400
11178780,0.011,0.299,-1.030,63.770,-123.550,-15.610
11178798,0.004,0.306,-1.094,65.590,-127.190,-16.870
11178818,-0.036,0.257,-1.116,69.580,-128.030,-15.750
11178843,-0.098,0.211,-1.058,73.010,-132.370,-17.290
11178860,-0.190,0.211,-1.007,75.040,-138.950,-19.110
11178881,-0.237,0.210,-1.061,72.170,-140.280,-22.120
11178902,-0.270,0.158,-1.033,72.240,-140.350,-25.830
11178926,-0.312,0.146,-0.913,75.740,-150.570,-28.630
11178946,-0.377,0.129,-0.894,68.530,-158.830,-38.570
11178966,-0.354,0.146,-0.947,62.510,-156.800,-31.780
11178984,-0.414,0.081,-0.949,61.530,-152.740,-32.060
11179006,-0.422,0.064,-0.811,52.150,-147.350,-32.060
11179027,-0.485,0.023,-0.759,44.730,-146.930,-32.270
11179045,-0.528,0.007,-0.753,42.280,-146.160,-32.410
11179064,-0.546,-0.009,-0.732,41.720,-140.000,-30.940
11179086,-0.579,-0.032,-0.673,41.860,-138.460,-27.090
11179107,-0.623,-0.044,-0.626,40.880,-137.900,-23.940
11179131,-0.670,-0.073,-0.598,38.430,-135.800,-22.050
11179151,-0.699,-0.081,-0.560,36.890,-133.560,-20.580
11179169,-0.711,-0.102,-0.528,36.960,-131.180,-18.200
11179189,-0.677,-0.139,-0.484,36.400,-125.020,-16.730
11179210,-0.685,-0.150,-0.431,38.710,-118.580,-15.260
11179232,-0.728,-0.123,-0.415,39.130,-110.250,-10.360
11179254,-0.712,-0.138,-0.382,37.660,-97.160,-6.650
11179274,-0.746,-0.162,-0.365,37.100,-87.150,-3.990
11179297,-0.774,-0.185,-0.335,36.120,-75.040,-0.490
11179318,-0.771,-0.238,-0.310,36.610,-64.050,3.220
11179338,-0.790,-0.267,-0.284,36.610,-57.820,5.390
11179357,-0.802,-0.237,-0.275,36.610,-51.800,6.790
11179378,-0.803,-0.203,-0.263,36.470,-44.170,9.450
11179398,-0.817,-0.171,-0.219,34.860,-34.930,12.670
11179415,-0.824,-0.157,-0.198,30.100,-21.980,15.050
11179435,-0.861,-0.169,-0.220,28.210,-16.800,16.660
11179455,-0.864,-0.189,-0.205,27.860,-12.390,17.500
11179479,-0.874,-0.192,-0.188,28.000,-5.110,16.660
11179497,-0.885,-0.148,-0.201,26.040,0.630,16.310
11179517,-0.889,-0.134,-0.200,19.810,6.860,16.310
11179536,-0.896,-0.124,-0.192,13.300,12.600,15.470
11179559,-0.909,-0.117,-0.169,7.490,19.950,15.470
11179583,-0.897,-0.121,-0.187,1.680,25.900,15.750
11179603,-0.876,-0.118,-0.183,-1.190,31.780,15.820
11179621,-0.892,-0.106,-0.179,-2.870,37.800,16.520
11179645,-0.895,-0.117,-0.198,-5.390,43.120,17.500
11179665,-0.863,-0.118,-0.238,-11.410,49.700,17.430
11179685,-0.838,-0.108,-0.266,-16.520,57.050,18.200
11179705,-0.826,-0.109,-0.289,-21.350,63.560,19.320
11179725,-0.819,-0.119,-0.301,-26.040,71.120,19.250
11179749,-0.810,-0.119,-0.309,-28.140,77.210,19.040
11179769,-0.789,-0.083,-0.332,-31.430,87.990,18.970
11179789,-0.789,-0.056,-0.355,-37.800,95.690,19.460
11179809,-0.774,-0.065,-0.410,-42.910,99.890,19.110
11179828,-0.730,-0.048,-0.442,-46.970,108.850,20.160
11179853,-0.714,-0.050,-0.432,-45.290,117.180,20.370
11179868,-0.685,-0.053,-0.469,-43.820,118.790,20.510
11179894,-0.645,-0.038,-0.543,-44.240,123.620,19.040
11179914,-0.637,-0.019,-0.574,-47.460,132.790,18.480
11179933,-0.647,-0.013,-0.640,-44.380,131.810,19.320
11179950,-0.636,-0.005,-0.735,-40.460,129.920,20.370
11179970,-0.594,0.036,-0.785,-45.500,139.090,17.570
11179992,-0.599,0.041,-0.727,-45.640,142.170,11.550
11180016,-0.628,0.049,-0.741,-33.320,132.300,7.210
11180036,-0.569,0.095,-0.862,-24.430,128.520,6.230
11180055,-0.484,0.142,-0.935,-26.810,133.070,5.810
11180075,-0.420,0.120,-0.877,-34.580,136.710,2.520
11180095,-0.432,0.107,-0.762,-35.000,129.010,-1.960
11180118,-0.401,0.095,-0.834,-28.140,116.200,-3.220
11180138,-0.310,0.128,-0.988,-27.440,115.220,-6.230
11180158,-0.265,0.177,-1.010,-32.760,122.430,-8.540
11180178,-0.263,0.210,-0.901,-35.070,120.400,-6.720
11180197,-0.225,0.226,-0.894,-34.580,111.090,-5.880
11180222,-0.155,0.239,-0.939,-36.190,102.130,-6.370
11180246,-0.125,0.310,-1.011,-37.660,99.820,-8.750
11180263,-0.106,0.352,-1.061,-42.910,97.370,-7.280
11180288,-0.061,0.341,-1.059,-48.300,95.340,-7.560
11180307,-0.049,0.345,-1.039,-48.860,86.590,-6.650
11180327,0.015,0.323,-1.116,-47.390,86.730,-7.350
11180345,0.109,0.286,-1.088,-48.790,103.110,-19.670
11180368,0.018,0.282,-0.995,-38.640,79.100,-6.720
11180388,0.024,0.250,-1.053,-38.290,85.470,-11.060
11180412,0.106,0.296,-1.070,-31.640,65.520,-13.160
11180429,0.142,0.333,-1.071,-38.220,80.780,-15.960
11180453,0.193,0.419,-1.093,-37.870,63.350,-10.640
11180473,0.204,0.458,-1.106,-35.210,52.850,-6.580
11180492,0.225,0.432,-1.136,-23.310,33.390,-8.960
11180511,0.228,0.370,-1.154,-12.950,23.870,-11.550
11180531,0.241,0.347,-1.153,4.690,7.840,-15.400
11180556,0.228,0.375,-1.164,29.050,-9.240,-12.110
11180576,0.155,0.378,-1.183,48.090,-35.420,-7.630
11180601,0.160,0.378,-1.134,61.460,-59.150,-5.740
11180617,0.154,0.353,-1.078,60.830,-65.450,-6.160
11180641,0.084,0.288,-1.040,50.260,-52.010,-11.340
11180661,0.064,0.308,-1.039,56.350,-68.250,-15.120
11180681,0.100,0.331,-1.078,55.790,-70.140,-17.220
11180701,0.074,0.316,-1.097,56.980,-76.860,-15.330
11180720,0.049,0.305,-1.078,59.990,-86.660,-13.300
11180743,0.020,0.291,-1.073,63.000,-93.100,-14.350
11180763,0.026,0.279,-1.080,62.790,-97.300,-13.790
11180787,-0.035,0.225,-1.044,61.460,-102.480,-13.160
11180807,-0.100,0.169,-1.037,65.870,-108.920,-13.370
11180823,-0.136,0.144,-1.061,67.900,-112.140,-13.650
11180847,-0.143,0.091,-1.060,70.980,-117.320,-14.280
11180867,-0.199,0.084,-1.018,71.400,-118.160,-15.330
11180886,-0.225,0.128,-0.991,65.800,-120.050,-15.470
11180905,-0.308,0.191,-0.999,59.010,-130.760,-13.440
11180925,-0.292,0.171,-1.014,54.950,-122.290,-12.950
11180945,-0.301,0.169,-0.922,51.240,-120.750,-11.130
11180964,-0.341,0.136,-0.824,46.410,-125.860,-11.480
11180988,-0.381,0.095,-0.836,39.760,-134.470,-14.140
11181008,-0.393,0.054,-0.898,35.560,-136.150,-16.240
11181028,-0.421,0.002,-0.869,33.250,-133.210,-17.850
11181052,-0.463,-0.046,-0.772,34.860,-134.400,-19.110
11181072,-0.518,-0.053,-0.706,37.100,-138.110,-19.810
11181091,-0.575,-0.019,-0.683,40.670,-141.680,-16.170
11181113,-0.650,-0.016,-0.679,39.900,-140.560,-13.440
11181130,-0.671,-0.055,-0.649,39.830,-134.470,-11.200
11181152,-0.727,-0.101,-0.582,41.160,-127.960,-8.470
11181176,-0.788,-0.120,-0.544,42.070,-122.850,-5.250
11181196,-0.802,-0.112,-0.498,44.030,-124.250,-1.960
11181216,-0.781,-0.109,-0.454,45.430,-119.840,3.430
11181233,-0.782,-0.131,-0.415,43.260,-115.360,8.050
11181253,-0.716,-0.178,-0.352,38.780,-113.960,6.720
11181273,-0.732,-0.239,-0.338,39.480,-117.530,-1.470
11181297,-0.725,-0.194,-0.340,45.080,-112.630,-4.200
11181315,-0.667,-0.163,-0.324,50.820,-101.850,-2.030
11181335,-0.720,-0.175,-0.267,49.840,-90.720,0.490
11181358,-0.785,-0.157,-0.262,46.970,-83.090,4.130
11181377,-0.807,-0.169,-0.232,43.960,-72.450,5.600
11181397,-0.882,-0.197,-0.197,42.070,-65.100,7.840
11181421,-0.911,-0.220,-0.175,42.070,-61.040,8.190
11181441,-0.892,-0.236,-0.130,40.460,-58.310,5.320
11181460,-0.898,-0.222,-0.113,36.330,-56.630,1.960
11181482,-0.889,-0.211,-0.115,27.230,-54.530,-3.500
11181501,-0.872,-0.173,-0.111,21.770,-44.310,-5.670
11181525,-0.889,-0.150,-0.076,18.200,-35.000,-6.440
11181545,-0.922,-0.152,-0.049,14.420,-30.940,-6.020
11181569,-0.944,-0.178,-0.043,11.340,-27.790,-6.580
11181586,-0.965,-0.179,-0.030,9.660,-24.360,-7.560
11181608,-0.983,-0.160,-0.034,8.260,-17.290,-6.930
11181628,-1.008,-0.168,-0.029,5.810,-11.480,-5.320
11181652,-0.990,-0.164,0.000,-0.070,-8.890,-4.550
11181672,-0.991,-0.168,0.025,-6.230,-8.260,-4.550
11181692,-0.987,-0.187,0.036,-8.610,-8.120,-4.340
11181713,-0.971,-0.216,0.034,-8.890,-6.930,-5.180
11181731,-0.946,-0.274,0.028,-7.630,-6.370,-6.860
11181751,-0.941,-0.302,0.025,-6.510,-5.670,-9.730
11181771,-0.954,-0.298,0.030,-4.270,-3.010,-11.200
11181795,-0.977,-0.300,0.036,-2.730,-0.980,-11.270
11181816,-0.972,-0.305,0.023,-1.820,-0.700,-11.620
11181830,-0.979,-0.285,0.021,-1.890,0.910,-11.060
11181855,-1.007,-0.264,0.053,-3.010,3.990,-9.730
11181875,-1.031,-0.260,0.083,-4.270,1.330,-8.400
11181894,-1.023,-0.256,0.074,-3.360,-0.980,-7.630
11181914,-0.996,-0.249,0.049,-3.710,-2.730,-7.000
11181938,-0.960,-0.252,0.000,-6.720,-3.290,-6.230
11181958,-0.941,-0.260,0.027,-12.740,0.000,-6.650
11181978,-0.967,-0.244,0.060,-15.470,1.050,-8.890
11181998,-0.983,-0.238,0.054,-17.430,0.420,-10.220
11182018,-0.987,-0.250,0.046,-19.810,-1.050,-10.990
11182039,-0.982,-0.283,0.042,-19.880,-0.840,-11.620
11182058,-0.970,-0.316,0.051,-17.150,-0.070,-12.460
11182077,-0.943,-0.342,0.043,-16.030,-17.920,-14.980
11182103,-0.922,-0.351,0.022,-15.820,1.260,-17.360
11182122,-0.901,-0.365,0.025,-14.630,4.340,-18.900
11182142,-0.898,-0.364,0.042,-13.090,6.650,-20.020
11182166,-0.879,-0.366,0.021,-10.220,9.380,-20.720
11182185,-0.871,-0.390,0.011,-10.080,14.630,-21.000
11182205,-0.896,-0.384,0.011,-8.820,14.350,-21.210
11182226,-0.899,-0.372,-0.014,-7.140,15.890,-19.390
11182250,-0.934,-0.358,-0.007,-8.750,13.860,-14.840
11182265,-0.952,-0.365,-0.014,-12.460,8.890,-10.780
11182285,-0.925,-0.381,-0.042,-16.240,8.960,-5.110
11182305,-0.935,-0.414,-0.022,-17.290,11.410,-0.560
11182325,-0.996,-0.421,-0.022,-12.600,11.270,2.450
11182351,-1.026,-0.420,-0.019,-8.190,10.570,10.080
11182368,-0.980,-0.438,-0.027,-3.220,8.960,14.350
11182387,-0.967,-0.396,-0.040,0.630,7.280,16.170
11182411,-0.982,-0.355,-0.049,0.560,5.810,19.250
11182432,-0.972,-0.371,-0.047,0.210,2.240,20.300
11182452,-0.944,-0.407,-0.027,-0.980,-3.010,18.480
11182467,-0.912,-0.408,-0.018,-3.430,-6.790,15.400
11182491,-0.885,-0.410,-0.006,-8.890,-14.910,10.290
11182512,-0.868,-0.411,0.007,-13.860,-22.400,5.950
11182529,-0.886,-0.395,0.032,-14.700,-27.440,4.270
11182550,-0.964,-0.375,0.021,-16.520,-32.620,4.130
11182573,-1.055,-0.349,-0.139,-19.530,-26.530,8.190
11182593,-1.073,-0.349,-0.212,-16.240,-7.840,12.390
11182610,-1.043,-0.363,-0.193,-5.320,5.180,14.070
11182634,-0.985,-0.321,-0.134,3.290,14.210,13.860
11182654,-0.967,-0.190,-0.079,2.310,15.890,14.630
11182671,-0.952,-0.066,-0.080,-6.090,13.230,15.260
11182694,-0.969,0.010,-0.099,-15.890,7.980,14.560
11182713,-0.981,0.042,-0.148,-29.400,1.750,16.520
11182737,-0.971,0.050,-0.177,-33.950,5.250,20.790
11182757,-0.996,0.020,-0.175,-38.710,7.140,18.130
11182777,-0.993,-0.068,-0.165,-29.400,11.130,17.990
11182797,-0.998,-0.150,-0.098,-14.490,14.560,16.240
11182815,-1.037,-0.181,-0.076,-3.850,14.140,16.030
11182839,-1.003,-0.236,-0.093,3.500,13.790,13.650
11182858,-0.948,-0.166,-0.094,4.340,15.750,12.110
11182878,-0.926,-0.083,-0.081,1.750,20.720,11.830
11182902,-0.914,0.002,-0.081,-0.560,26.810,13.160
11182923,-0.904,0.024,-0.101,0.770,28.700,17.360
11182941,-0.904,0.006,-0.123,1.610,27.860,18.480
11182965,-0.902,0.007,-0.183,3.780,24.920,17.360
11182988,-0.853,0.002,-0.242,2.100,28.000,13.650
11183008,-0.800,-0.002,-0.225,3.360,36.540,10.430
11183029,-0.747,-0.019,-0.202,4.760,43.120,8.050
11183048,-0.681,-0.063,-0.144,6.650,44.940,5.180
11183072,-0.606,-0.070,-0.127,8.540,44.240,0.840
11183090,-0.567,-0.015,-0.143,4.690,44.590,-1.750
11183108,-0.569,0.019,-0.177,1.470,46.550,-2.800
11183132,-0.578,-0.039,-0.204,3.850,55.230,-0.350
11183153,-0.575,-0.064,-0.142,14.280,63.420,0.910
11183173,-0.597,0.000,-0.164,2.520,58.450,-2.940
11183192,-0.612,-0.002,-0.296,-13.650,53.340,-6.790
11183215,-0.630,-0.023,-0.302,-17.150,46.410,-9.240
11183239,-0.711,-0.020,-0.197,-10.500,52.710,-9.380
11183259,-0.758,0.038,-0.187,-10.220,42.980,-7.070
11183278,-0.759,-0.001,-0.343,-17.080,40.390,-5.040
11183298,-0.783,-0.114,-0.413,-13.720,38.780,-4.760
11183322,-0.816,-0.106,-0.423,-9.590,38.220,-5.250
11183342,-0.845,-0.093,-0.431,-13.440,36.680,-7.000
11183361,-0.890,-0.138,-0.562,-12.880,37.170,-5.880
11183382,-0.995,-0.278,-0.651,6.020,34.160,-1.610
11183402,-1.053,-0.312,-0.552,20.370,31.990,0.980
11183425,-1.041,-0.255,-0.548,15.610,22.540,-0.700
11183445,-1.023,-0.200,-0.729,9.660,11.830,-2.450
11183468,-1.074,-0.180,-0.737,4.970,13.720,-2.590
11183486,-1.113,-0.159,-0.690,-1.680,11.830,1.050
11183511,-1.137,-0.245,-0.681,-0.700,2.100,-4.550
11183529,-1.128,-0.332,-0.827,4.340,-1.820,-9.030
11183550,-1.119,-0.353,-0.914,7.490,8.610,-9.450
11183571,-1.206,-0.378,-0.855,-0.770,13.720,-9.730
11183594,-1.263,-0.406,-0.827,17.150,6.020,-8.120
11183614,-1.249,-0.324,-0.875,8.330,-2.590,-5.250
11183634,-1.210,-0.242,-0.876,3.430,-0.070,-3.710
11183658,-1.240,-0.194,-0.900,0.910,2.520,-1.960
11183677,-1.213,-0.187,-0.939,1.400,6.580,0.630
11183698,-1.159,-0.239,-0.777,-5.040,12.950,-2.590
11183713,-1.129,-0.254,-0.693,-6.160,10.850,-7.840
11183738,-1.131,-0.210,-0.756,-5.600,4.550,-10.220
11183756,-1.068,-0.208,-0.841,-3.920,7.700,-8.400
11183775,-1.023,-0.249,-0.811,-6.580,14.420,-8.610
11183800,-1.021,-0.272,-0.723,-7.840,13.510,-9.660
11183818,-1.028,-0.260,-0.714,-4.900,2.870,-9.030
11183837,-1.023,-0.256,-0.723,-2.380,-4.270,-6.580
11183859,-1.029,-0.263,-0.705,-5.390,-11.200,-7.420
11183877,-1.026,-0.269,-0.712,-5.740,-17.850,-9.240
11183897,-0.983,-0.250,-0.716,-0.980,-26.810,-9.590
11183916,-0.965,-0.222,-0.658,-1.540,-31.150,-8.400
11183941,-0.989,-0.210,-0.569,-1.050,-37.800,-6.160
11183958,-1.016,-0.223,-0.553,3.290,-44.170,-4.690
11183977,-0.981,-0.255,-0.568,9.450,-53.900,-3.780
11184003,-0.935,-0.272,-0.537,6.720,-61.530,-6.370
11184022,-0.948,-0.299,-0.433,3.500,-63.490,-8.400
11184037,-0.947,-0.280,-0.369,6.580,-63.210,-10.570
11184062,-0.934,-0.234,-0.281,16.030,-68.110,-8.960
11184078,-0.851,-0.220,-0.319,26.670,-74.550,-4.760
11184101,-0.764,-0.277,-0.317,35.700,-79.870,-1.400
11184122,-0.766,-0.276,-0.176,37.310,-79.450,-3.430
11184142,-0.743,-0.189,-0.073,34.720,-87.780,-4.480
11184166,-0.621,-0.142,-0.049,34.090,-96.250,-5.460
11184186,-0.490,-0.102,-0.061,41.090,-99.050,-3.640
11184201,-0.346,-0.082,-0.099,46.620,-103.810,-0.630
11184226,-0.186,-0.015,-0.137,35.910,-102.340,5.950
11184246,-0.151,-0.016,-0.072,23.170,-92.890,4.270
11184266,-0.214,-0.000,0.020,19.460,-87.080,4.060
11184290,-0.366,-0.061,0.030,20.090,-88.340,3.430
11184307,-0.491,-0.111,-0.008,14.140,-69.510,1.820
11184330,-0.793,-0.181,-0.069,12.810,-59.290,0.490
11184350,-1.006,-0.234,-0.245,7.560,-32.760,-1.260
11184374,-1.266,-0.325,-0.384,-8.330,8.610,-4.690
11184394,-1.287,-0.366,-0.298,-12.320,12.670,-6.160
11184413,-1.174,-0.270,0.042,-11.970,6.580,-1.890
11184438,-1.082,-0.192,0.308,-5.460,-16.030,5.950
11184455,-0.938,-0.150,0.305,3.290,-29.260,10.220
11184475,-0.842,-0.133,0.203,13.860,-35.700,13.230
11184499,-0.773,-0.166,0.090,18.340,-30.870,9.800
11184515,-0.825,-0.168,-0.023,11.060,-12.320,6.440
11184536,-0.952,-0.186,-0.042,-2.870,6.440,2.240
11184556,-0.988,-0.154,-0.048,-8.890,17.710,-1.050
11184580,-0.912,-0.103,-0.010,-10.780,27.230,17.710
11184601,-0.821,-0.061,0.031,-13.510,28.560,2.030
11184618,-0.758,-0.039,0.051,-17.290,32.620,3.990
11184637,-0.702,-0.030,0.079,-17.850,35.700,6.510
11184657,-0.655,-0.059,0.074,-13.720,39.410,8.820
11184678,-0.616,-0.118,0.072,-3.850,42.350,9.030
11184702,-0.594,-0.177,0.044,7.000,44.170,6.720
11184727,-0.646,-0.139,0.011,2.940,45.640,1.190
11184746,-0.783,-0.138,-0.023,-3.290,48.580,-1.680
11184764,-0.823,-0.141,0.015,-1.260,52.010,-3.290
11184785,-0.777,-0.123,0.017,4.200,50.190,-4.270
11184805,-0.716,-0.101,-0.110,-1.820,49.980,-4.900
11184828,-0.704,-0.117,-0.181,-13.650,56.210,-5.180
11184849,-0.714,-0.112,-0.092,-18.130,61.600,-4.760
11184868,-0.702,-0.076,-0.040,-18.130,62.790,-4.480
11184888,-0.666,-0.120,-0.191,-9.800,60.550,-3.640
11184908,-0.657,-0.163,-0.345,-5.110,67.410,-3.150
11184928,-0.695,-0.213,-0.347,-4.830,67.900,-4.550
11184952,-0.718,-0.201,-0.287,-13.300,64.400,-10.150
11184971,-0.827,-0.250,-0.283,-11.550,58.730,-12.040
11184991,-0.919,-0.325,-0.376,-0.840,48.650,-12.950
11185010,-0.981,-0.304,-0.446,-0.280,46.900,-12.670
11185034,-1.113,-0.315,-0.293,-7.770,44.100,-13.580
11185053,-1.136,-0.258,-0.298,-9.940,37.940,-15.750
11185074,-1.098,-0.264,-0.423,-5.250,20.020,-10.080
11185098,-1.107,-0.292,-0.546,-4.690,18.130,-6.790
11185118,-1.159,-0.310,-0.624,-7.560,23.100,-5.040
11185134,-1.236,-0.347,-0.665,-1.470,21.140,-3.290
11185154,-1.313,-0.372,-0.729,8.190,20.020,-1.120
11185174,-1.245,-0.337,-0.794,4.690,40.670,-2.310
11185198,-1.278,-0.337,-0.744,-0.420,44.030,-5.950
11185218,-1.397,-0.364,-0.791,0.840,35.070,-3.780
11185235,-1.311,-0.355,-0.823,2.310,32.760,-0.420
11185254,-1.209,-0.319,-0.806,-0.560,34.160,-1.540
11185279,-1.157,-0.308,-0.828,-7.700,48.300,-7.770
11185299,-1.278,-0.311,-0.755,-15.260,54.740,-6.860
11185314,-1.287,-0.296,-0.775,-18.760,45.570,-4.060
11185338,-1.174,-0.326,-0.860,-14.000,31.500,2.730
11185358,-1.037,-0.368,-0.791,-13.860,34.160,-5.250
11185377,-1.154,-0.332,-0.687,-13.930,26.950,-10.220
11185397,-1.163,-0.335,-0.768,-15.610,19.880,-10.290
11185421,-1.108,-0.291,-0.910,-18.970,23.590,-3.780
11185441,-1.038,-0.292,-0.872,-20.020,28.700,-9.590
11185461,-1.079,-0.243,-0.743,-22.050,28.000,-9.660
11185481,-1.069,-0.256,-0.744,-26.600,20.300,-9.450
11185500,-0.983,-0.261,-0.797,-24.290,18.970,-9.310
11185524,-0.978,-0.243,-0.753,-13.790,16.730,-8.680
11185545,-0.984,-0.228,-0.659,-15.050,6.370,-7.350
11185559,-0.936,-0.266,-0.566,-15.050,-2.310,-8.540
11185583,-0.832,-0.334,-0.548,-5.250,-14.280,-10.080
11185604,-0.709,-0.330,-0.608,8.960,-19.390,-7.980
11185624,-0.579,-0.270,-0.556,3.290,-10.220,-3.780
11185640,-0.487,-0.320,-0.422,-1.400,-3.010,-1.890
11185664,-0.429,-0.378,-0.274,1.820,5.460,-1.400
11185680,-0.446,-0.386,-0.223,14.280,4.130,0.840
11185703,-0.436,-0.384,-0.253,27.510,3.850,4.130
11185724,-0.420,-0.330,-0.286,28.630,0.840,7.560
11185744,-0.372,-0.227,-0.337,25.900,-3.990,8.470
11185764,-0.369,-0.100,-0.415,20.160,-3.290,6.370
11185784,-0.338,0.064,-0.459,7.910,-9.170,12.600
11185807,-0.329,0.100,-0.396,-9.380,-14.700,17.710
11185828,-0.353,0.081,-0.394,-11.830,-19.600,22.750
11185847,-0.275,0.039,-0.535,-9.450,-13.020,24.220
11185867,-0.343,0.118,-0.678,-13.580,0.910,23.100
11185891,-0.456,0.230,-0.699,-19.950,18.410,17.710
11185911,-0.563,0.257,-0.493,-33.320,27.580,15.260
11185928,-0.644,-0.017,-0.419,-33.740,24.500,9.380
11185952,-0.773,-0.114,-0.397,-24.290,28.280,-11.410
11185969,-0.741,-0.152,-0.571,-16.590,51.380,-13.160
11185988,-0.658,-0.225,-0.608,-9.520,71.190,-8.400
11186008,-0.625,-0.209,-0.528,6.300,78.680,-7.070
11186028,-0.610,-0.147,-0.483,30.240,55.160,-9.800
11186052,-0.559,-0.071,-0.746,46.410,64.750,-10.640
11186071,-0.503,-0.093,-0.938,57.120,68.460,-11.060
11186090,-0.522,-0.122,-0.952,63.630,82.600,-6.650
11186114,-0.585,-0.272,-0.785,72.940,79.520,-3.220
11186135,-0.563,-0.389,-0.689,80.780,61.460,-4.200
11186155,-0.537,-0.357,-0.698,67.620,50.330,-8.050
11186175,-0.571,-0.190,-0.768,47.740,39.270,-11.200
11186195,-0.576,0.003,-0.883,1.470,39.130,-5.180
11186214,-0.553,-0.183,-0.964,-22.470,45.500,8.400
11186233,-0.505,-0.484,-1.039,-36.820,52.290,7.630
11186256,-0.552,-0.532,-1.052,-47.880,52.290,-6.930
11186277,-0.580,-0.562,-0.911,-58.450,41.720,-22.120
11186294,-0.581,-0.504,-0.783,-59.290,24.640,-28.560
11186318,-0.544,-0.413,-0.714,-54.460,-4.900,-30.240
11186337,-0.432,-0.300,-0.805,-50.890,-20.720,-30.170
11186357,-0.251,-0.243,-0.933,-53.760,-17.640,-29.330
11186377,-0.284,-0.250,-0.993,-52.780,-9.590,-23.450
11186401,-0.390,-0.250,-0.941,-42.210,-6.650,-11.620
11186420,-0.502,-0.222,-0.968,-26.180,-11.690,-3.640
11186444,-0.479,-0.193,-1.131,-26.390,-5.530,1.610
11186464,-0.479,-0.148,-1.125,-32.760,-1.330,-2.590
11186484,-0.549,-0.098,-0.933,-38.080,-7.420,-8.330
11186503,-0.583,-0.028,-0.733,-35.910,-26.530,-13.510
11186523,-0.553,0.028,-0.757,-30.100,-43.120,-13.790
11186547,-0.454,0.000,-0.859,-24.640,-44.380,-7.910
11186567,-0.473,-0.160,-0.898,-2.520,-41.230,-1.820
11186585,-0.579,-0.168,-0.807,13.790,-42.490,-2.030
11186609,-0.671,-0.171,-0.794,22.750,-46.900,-3.290
11186628,-0.617,-0.085,-0.852,28.210,-39.550,-1.540
11186652,-0.613,0.020,-0.833,28.910,-33.670,2.940
11186668,-0.671,0.129,-0.795,21.210,-34.580,6.090
11186692,-0.645,0.143,-0.747,15.750,-33.880,11.760
11186713,-0.635,0.066,-0.706,13.580,-35.210,16.730
11186730,-0.585,-0.017,-0.746,13.930,-35.350,13.090
11186752,-0.558,-0.051,-0.758,14.630,-34.650,7.000
11186771,-0.603,-0.020,-0.685,15.260,-35.000,2.870
11186795,-0.642,0.014,-0.637,15.260,-39.200,5.390
11186815,-0.621,0.073,-0.748,12.250,-40.320,4.760
11186835,-0.612,0.069,-0.813,4.340,-37.800,4.130
11186858,-0.635,0.071,-0.804,1.680,-33.320,5.040
11186878,-0.679,-0.015,-0.703,8.120,-32.340,7.840
11186895,-0.711,-0.081,-0.676,14.350,-34.300,8.820
11186920,-0.731,-0.087,-0.707,18.060,-34.860,7.910
11186939,-0.734,-0.025,-0.729,28.630,-31.640,9.940
11186959,-0.758,-0.027,-0.665,38.850,-30.310,14.140
11186979,-0.758,-0.046,-0.618,44.030,-31.710,14.070
11186997,-0.761,-0.106,-0.623,48.370,-34.580,12.390
11187017,-0.736,-0.190,-0.742,49.980,-30.100,9.240
11187040,-0.771,-0.217,-0.617,38.080,-24.710,1.400
11187058,-0.820,-0.212,-0.498,22.610,-29.820,-6.860
11187078,-0.811,-0.223,-0.468,13.930,-37.450,-10.850
11187102,-0.752,-0.326,-0.528,11.900,-38.990,-8.050
11187122,-0.725,-0.437,-0.554,13.440,-34.370,-4.480
11187141,-0.741,-0.479,-0.477,15.050,-33.670,-4.270
11187166,-0.779,-0.447,-0.468,18.970,-33.600,-3.710
11187187,-0.802,-0.409,-0.490,22.890,-31.080,-1.050
11187206,-0.797,-0.395,-0.485,22.120,-25.830,-1.820
11187226,-0.781,-0.373,-0.414,18.200,-23.100,-5.600
11187247,-0.758,-0.326,-0.420,9.030,-23.800,-9.590
11187267,-0.666,-0.315,-0.431,-0.140,-21.490,-14.350
11187290,-0.562,-0.306,-0.406,-8.820,-14.700,-19.740
11187307,-0.517,-0.313,-0.351,-13.790,-11.760,-21.000
11187326,-0.487,-0.312,-0.260,-20.020,-11.970,-26.180
11187351,-0.414,-0.252,-0.312,-18.900,-14.630,-24.220
11187372,-0.359,-0.315,-0.380,-18.760,-3.990,-20.300
11187391,-0.344,-0.286,-0.244,-24.430,7.000,-19.810
11187408,-0.370,-0.221,-0.107,-26.390,9.240,-18.480
11187432,-0.394,-0.120,-0.219,-13.090,1.960,-7.980
11187452,-0.288,-0.041,-0.451,-9.100,12.250,4.340
11187476,-0.211,-0.045,-0.450,-7.350,33.180,14.910
11187496,-0.274,-0.135,-0.323,-5.110,46.690,12.040
11187516,-0.462,-0.223,-0.365,1.540,36.260,9.450
11187536,-0.577,-0.246,-0.408,-11.270,28.350,3.360
11187556,-0.844,-0.158,-0.300,-27.790,16.380,-3.220
11187574,-0.996,-0.089,-0.405,-31.850,9.170,-5.250
11187598,-0.933,-0.088,-0.879,-14.210,10.290,9.520
11187616,-0.815,-0.140,-0.945,-8.750,27.300,20.580
11187640,-0.886,-0.230,-0.740,-12.950,26.880,12.040
11187658,-1.033,-0.254,-0.593,-7.560,1.190,7.910
11187679,-1.029,-0.305,-0.798,5.530,-3.220,7.140
11187701,-1.087,-0.333,-0.917,10.010,14.420,1.750
11187721,-1.105,-0.397,-0.832,4.690,11.760,-4.690
11187740,-1.090,-0.306,-0.890,-5.600,4.760,-9.030
11187765,-1.008,-0.229,-0.974,-5.740,10.290,-4.200
11187786,-1.043,-0.255,-0.850,2.590,7.420,-1.050
11187804,-1.074,-0.254,-0.891,2.030,4.760,-2.590
11187824,-1.063,-0.248,-1.027,-1.470,8.820,-1.680
11187848,-1.098,-0.271,-1.100,-4.760,10.080,2.170
11187868,-1.114,-0.282,-1.040,-2.100,15.610,-0.560
11187887,-1.140,-0.243,-0.909,-7.840,6.580,-2.870
11187910,-1.121,-0.168,-0.932,-9.870,-0.140,-1.050
11187929,-1.046,-0.157,-0.981,-11.620,3.640,0.980
11187952,-1.008,-0.202,-0.923,-18.270,6.090,-0.420
11187972,-1.010,-0.272,-0.857,-18.620,2.170,-3.080
11187992,-1.003,-0.249,-0.839,-15.750,-1.400,-2.800
11188015,-0.956,-0.231,-0.858,-13.300,-2.800,-1.820
11188036,-0.908,-0.254,-0.847,-14.070,-2.730,-1.750
11188054,-0.884,-0.244,-0.859,-12.740,-1.540,-1.400
11188076,-0.898,-0.217,-0.837,-7.910,-1.540,-1.890
11188096,-0.903,-0.160,-0.767,-7.770,-1.610,-0.140
11188116,-0.894,-0.194,-0.740,-6.230,-9.940,1.470
11188137,-0.898,-0.193,-0.743,-0.980,-16.240,0.770
11188161,-0.926,-0.174,-0.713,6.300,-26.180,1.820
11188180,-0.900,-0.197,-0.692,8.680,-32.550,1.960
11188200,-0.900,-0.227,-0.651,9.800,-36.820,0.280
11188220,-0.881,-0.223,-0.614,14.420,-39.900,-2.940
11188244,-0.855,-0.189,-0.568,21.000,-48.090,-1.470
11188264,-0.820,-0.176,-0.504,23.310,-50.750,0.280
11188279,-0.796,-0.203,-0.451,27.720,-57.960,0.630
11188303,-0.724,-0.151,-0.410,28.490,-61.670,-0.840
11188324,-0.629,-0.142,-0.303,29.330,-66.150,-1.960
11188343,-0.544,-0.127,-0.197,32.270,-72.030,1.330
11188366,-0.435,-0.121,-0.163,39.900,-93.800,3.850
11188390,-0.313,-0.114,-0.183,46.200,-113.120,4.130
11188410,-0.240,-0.055,-0.260,48.020,-112.770,6.020
11188428,-0.193,-0.016,-0.240,45.010,-106.190,9.590
11188450,-0.200,-0.022,-0.198,34.860,-99.470,10.640
11188471,-0.301,-0.040,-0.220,25.130,-88.690,8.540
11188490,-0.382,-0.078,-0.262,19.880,-77.140,6.790
11188508,-0.478,-0.094,-0.314,14.980,-64.330,6.440
11188528,-0.658,-0.192,-0.387,7.560,-39.620,5.460
11188548,-1.044,-0.335,-0.450,-2.520,-31.080,1.120
11188572,-1.617,-0.433,-0.440,-9.870,-14.560,-7.350
11188591,-1.659,-0.421,-0.203,-1.610,-26.600,-14.490
11188608,-1.137,-0.198,-0.070,12.530,-42.070,-3.850
11188631,-0.962,-0.222,-0.013,25.200,-55.300,9.170
11188648,-0.760,-0.210,0.005,29.330,-62.790,13.580
11188672,-0.680,-0.181,-0.037,27.930,-58.170,12.600
11188692,-0.658,-0.193,-0.159,24.080,-44.870,9.940
11188711,-0.744,-0.188,-0.242,15.470,-20.090,6.370
11188731,-0.918,-0.204,-0.281,7.770,5.670,2.590
11188751,-1.039,-0.217,-0.204,2.380,20.300,0.490
11188775,-1.084,-0.216,-0.116,-0.350,16.100,0.140
11188795,-1.015,-0.186,-0.081,0.280,9.450,0.490
11188815,-0.943,-0.176,-0.035,0.000,8.890,1.750
11188838,-0.908,-0.164,-0.026,2.310,9.940,4.340
11188858,-0.865,-0.166,-0.073,4.270,16.170,6.090
11188875,-0.843,-0.164,-0.115,3.500,23.380,5.810
11188896,-0.831,-0.154,-0.147,0.980,31.080,4.620
11188915,-0.819,-0.142,-0.162,-0.910,37.590,3.360
11188940,-0.807,-0.141,-0.130,-2.030,40.390,1.750
11188960,-0.739,-0.145,-0.081,-1.960,40.250,-0.910
11188979,-0.671,-0.119,-0.067,-4.060,41.930,-3.010
11189003,-0.595,-0.118,-0.050,-8.680,39.830,-3.990
11189019,-0.524,-0.084,-0.067,-10.220,39.970,-4.060
11189043,-0.499,-0.051,-0.084,-14.210,47.460,-3.220
11189063,-0.534,-0.049,-0.053,-14.210,48.930,-1.750
11189088,-0.571,-0.062,-0.119,-7.770,45.780,-0.070
11189106,-0.615,-0.100,-0.210,-4.340,47.950,2.800
11189127,-0.663,-0.158,-0.226,-2.100,52.500,1.820
11189148,-0.687,-0.183,-0.185,-2.450,71.540,-0.980
11189167,-0.747,-0.202,-0.179,-0.420,52.850,-5.180
11189186,-0.763,-0.190,-0.211,0.350,49.140,-7.490
11189206,-0.777,-0.186,-0.282,2.590,42.420,-6.510
11189226,-0.790,-0.181,-0.337,3.290,42.070,-4.200
11189249,-0.886,-0.173,-0.366,3.500,39.970,-2.310
11189269,-0.943,-0.148,-0.458,0.560,38.710,-1.120
11189292,-0.981,-0.134,-0.588,-3.360,43.470,1.890
11189312,-1.061,-0.187,-0.638,-1.330,43.400,1.120
11189330,-1.128,-0.261,-0.641,3.570,40.670,-0.490
11189350,-1.224,-0.324,-0.630,-0.280,36.330,-5.250
11189372,-1.304,-0.381,-0.676,-6.930,29.260,-10.850
11189391,-1.382,-0.386,-0.728,-5.250,19.460,-11.620
11189409,-1.405,-0.345,-0.767,-2.590,12.950,-11.410
11189429,-1.334,-0.295,-0.856,-3.290,12.110,-12.180
11189454,-1.338,-0.292,-0.919,-2.240,11.060,-10.220
11189474,-1.353,-0.356,-0.913,4.200,7.070,-4.060
11189492,-1.287,-0.348,-0.881,2.170,10.430,-2.730
11189512,-1.216,-0.333,-0.803,-10.710,18.480,-9.660
11189531,-1.298,-0.310,-0.724,-13.580,11.690,-13.860
11189552,-1.273,-0.249,-0.754,-4.760,2.100,-10.780
11189575,-1.161,-0.228,-0.852,-0.560,8.050,-6.160
11189596,-1.078,-0.220,-0.787,-14.980,16.100,-4.760
11189616,-1.073,-0.233,-0.656,-21.210,13.020,-5.740
11189640,-1.068,-0.246,-0.697,-8.260,6.090,-4.550
11189658,-1.030,-0.252,-0.749,-1.820,9.450,-0.770
11189682,-1.013,-0.268,-0.713,-10.430,10.990,0.350
11189700,-0.992,-0.259,-0.658,-13.790,6.580,-2.030
11189720,-0.961,-0.249,-0.649,-14.000,0.630,-4.900
11189744,-0.943,-0.226,-0.603,-13.510,-2.660,-5.320
11189764,-0.951,-0.223,-0.553,-8.190,-6.510,-4.690
11189784,-0.965,-0.214,-0.556,-5.110,-14.630,-3.780
11189804,-0.965,-0.217,-0.602,-5.040,-19.670,-1.890
11189821,-0.940,-0.230,-0.607,-4.480,-23.380,-0.840
11189840,-0.921,-0.218,-0.552,-3.570,-28.630,-1.190
11189865,-0.919,-0.166,-0.426,-1.750,-40.530,-0.140
11189882,-0.904,-0.176,-0.375,-0.140,-51.940,0.210
11189905,-0.821,-0.151,-0.297,8.470,-59.010,-0.770
11189926,-0.718,-0.132,-0.226,18.830,-67.690,0.280
11189946,-0.585,-0.131,-0.261,28.910,-75.180,0.630
11189966,-0.440,-0.124,-0.259,37.030,-81.620,5.950
11189986,-0.350,-0.111,-0.215,38.290,-78.750,7.000
11190009,-0.274,-0.115,-0.191,44.100,-88.130,6.160
11190028,-0.252,-0.085,-0.195,45.570,-93.030,4.340
11190049,-0.276,-0.058,-0.204,39.830,-93.450,5.180
11190070,-0.345,-0.081,-0.207,32.970,-91.000,4.970
11190090,-0.427,-0.074,-0.228,23.100,-75.530,2.310
11190110,-0.540,-0.089,-0.266,16.170,-64.750,3.290
11190134,-0.708,-0.122,-0.302,7.770,-45.360,5.180
11190153,-0.866,-0.215,-0.396,3.990,-29.190,5.250
11190177,-1.155,-0.337,-0.405,-0.630,-3.710,3.290
11190197,-1.427,-0.449,-0.325,-12.810,0.000,-3.080
11190217,-1.423,-0.410,-0.263,-19.110,-5.250,-8.190
11190236,-1.176,-0.231,-0.134,-19.460,-5.320,-5.810
11190255,-1.009,-0.172,-0.037,-10.430,-7.490,2.240
11190276,-0.792,-0.126,-0.049,9.310,-11.620,11.830
11190297,-0.667,-0.136,-0.095,17.360,-13.090,16.800
11190317,-0.628,-0.146,-0.149,14.980,-7.210,15.050
11190337,-0.686,-0.162,-0.171,3.920,2.870,11.060
11190355,-0.769,-0.183,-0.178,0.700,4.900,7.700
11190375,-0.834,-0.153,-0.188,-1.890,10.430,5.740
11190398,-0.996,-0.171,-0.212,-7.490,16.520,5.880
11190417,-1.111,-0.250,-0.205,-7.210,19.670,4.410
11190437,-1.182,-0.279,-0.219,-5.950,23.940,1.610
11190457,-1.171,-0.280,-0.228,-5.880,27.580,-0.070
11190477,-1.050,-0.234,-0.212,-5.040,28.980,0.070
11190492,-0.928,-0.194,-0.214,-3.430,29.330,1.890
11190518,-0.820,-0.160,-0.213,-0.490,31.150,5.390
11190536,-0.752,-0.137,-0.210,0.980,36.400,7.280
11190558,-0.711,-0.002,-0.180,-0.280,40.040,6.230
11190577,-0.690,-0.100,-0.186,-2.730,37.800,4.340
11190597,-0.655,-0.079,-0.270,-3.920,39.270,2.590
11190617,-0.612,-0.063,-0.318,-8.470,47.530,0.700
11190638,-0.553,-0.083,-0.256,-10.640,52.290,-3.010
11190658,-0.468,-0.106,-0.150,1.470,44.870,-6.440
11190682,-0.391,-0.102,-0.067,21.770,26.110,-6.300
11190702,-0.340,-0.063,-0.133,25.060,26.460,-3.360
11190722,-0.374,-0.057,-0.094,8.820,39.340,-4.550
11190742,-0.549,-0.108,0.003,-3.500,31.990,-7.350
11190766,-0.643,-0.111,-0.108,-4.480,10.150,-12.950
11190786,-0.664,-0.038,-0.243,-6.790,14.280,-14.490
11190806,-0.694,0.005,-0.408,-12.390,27.860,-10.430
11190825,-0.780,-0.044,-0.430,-12.600,38.920,-4.410
11190846,-0.861,-0.113,-0.458,-1.750,43.120,1.400
11190868,-0.918,-0.186,-0.513,4.760,38.780,7.420
11190888,-0.985,-0.278,-0.569,6.930,40.670,5.740
11190911,-1.103,-0.335,-0.574,5.530,37.940,-2.240
11190930,-1.170,-0.367,-0.608,7.140,36.960,-7.630
11190949,-1.190,-0.337,-0.717,6.440,36.680,-8.960
11190973,-1.223,-0.251,-0.678,-1.120,39.970,-5.040
11190994,-1.270,-0.179,-0.661,-3.850,34.650,-3.430
11191012,-1.249,-0.219,-0.665,-1.820,24.640,1.610
11191037,-1.230,-0.304,-0.757,4.410,28.910,-6.790
11191056,-1.266,-0.324,-0.883,-2.030,35.980,-12.320
11191076,-1.375,-0.341,-0.945,-9.940,30.310,-15.470
11191096,-1.351,-0.316,-0.962,-8.050,20.230,-12.880
11191120,-1.264,-0.314,-0.990,-5.880,21.910,-11.550
11191140,-1.247,-0.303,-0.964,-7.210,24.290,-12.320
11191158,-1.293,-0.280,-0.878,-6.720,19.530,-11.830
11191178,-1.254,-0.244,-0.807,-8.260,11.760,-7.770
11191202,-1.183,-0.201,-0.803,-16.100,3.080,-3.430
11191222,-1.113,-0.234,-0.798,-16.030,-2.940,-2.870
11191241,-1.043,-0.276,-0.764,-6.860,-6.510,-4.620
11191264,-1.023,-0.311,-0.790,3.640,-5.810,-5.110
11191285,-1.026,-0.335,-0.806,1.960,-13.580,-3.080
11191305,-0.999,-0.279,-0.771,-0.560,-14.770,-2.170
11191325,-0.986,-0.219,-0.728,0.280,-18.760,-1.400
11191345,-1.003,-0.199,-0.658,0.210,-22.540,0.840
11191369,-1.027,-0.223,-0.663,1.610,-27.300,2.030
11191388,-1.044,-0.246,-0.658,0.980,-32.760,2.170
11191408,-1.037,-0.230,-0.632,3.780,-39.130,2.030
11191432,-0.995,-0.236,-0.629,4.060,-41.370,2.590
11191452,-0.951,-0.259,-0.544,6.090,-44.730,2.940
11191471,-0.899,-0.252,-0.496,7.000,-51.730,2.520
11191489,-0.830,-0.247,-0.407,6.090,-50.890,-0.210
11191512,-0.751,-0.215,-0.297,8.400,-55.720,-2.100
11191533,-0.598,-0.154,-0.158,12.180,-64.820,-2.520
11191553,-0.439,-0.099,-0.109,20.860,-79.590,0.280
11191577,-0.282,-0.055,-0.142,27.650,-91.070,3.570
11191597,-0.132,-0.031,-0.169,38.080,-91.140,4.340
11191612,-0.088,-0.036,-0.148,39.340,-95.900,5.180
11191635,-0.145,-0.023,-0.094,30.940,-94.920,5.460
11191654,-0.262,-0.008,-0.098,22.610,-94.500,5.460
11191675,-0.370,-0.029,-0.137,22.400,-94.220,6.860
11191695,-0.496,-0.108,-0.269,24.640,-90.790,9.030
11191715,-0.597,-0.158,-0.389,16.870,-76.020,9.310
11191738,-0.864,-0.233,-0.514,-17.290,-14.560,-0.840
11191755,-1.179,-0.391,-0.611,-15.750,-11.970,-8.260
11191774,-1.264,-0.346,-0.534,-18.830,21.980,-10.080
11191799,-1.249,-0.326,-0.043,-11.480,13.580,-6.020
11191819,-1.198,-0.221,0.203,-4.690,-4.690,-2.730
11191839,-1.028,-0.173,0.212,8.890,-38.710,2.870
11191862,-0.827,-0.173,0.058,21.700,-64.470,6.650
11191885,-0.767,-0.183,-0.121,23.940,-59.850,7.210
11191904,-0.803,-0.185,-0.217,17.500,-43.890,5.250
11191928,-0.886,-0.171,-0.250,4.690,-17.570,3.990
11191948,-0.973,-0.179,-0.163,-3.780,-6.020,1.260
11191968,-1.001,-0.200,-0.061,-6.930,-3.640,-0.070
11191984,-0.990,-0.199,0.016,-5.040,-6.300,-0.070
11192007,-0.941,-0.173,0.039,0.630,-5.460,0.980
11192027,-0.922,-0.169,-0.004,5.250,-5.040,3.430
11192051,-0.934,-0.192,-0.035,5.810,-0.980,6.160
11192071,-0.971,-0.211,-0.010,5.390,0.770,6.090
11192091,-0.983,-0.197,-0.004,2.660,-0.420,5.040
11192106,-0.963,-0.190,0.001,1.260,-3.500,3.640
11192131,-0.946,-0.157,-0.061,4.480,-2.030,2.800
11192150,-0.917,-0.155,-0.080,4.690,5.740,2.310
11192171,-0.888,-0.150,-0.030,2.730,12.390,0.700
11192190,-0.862,-0.156,0.002,-0.280,12.530,-0.770
11192210,-0.832,-0.158,-0.003,-1.960,11.060,-2.520
11192232,-0.754,-0.136,-0.033,-3.430,10.290,-4.130
11192252,-0.645,-0.090,-0.022,-4.480,19.950,-4.200
11192273,-0.558,-0.108,-0.017,-1.120,21.560,-2.450
11192296,-0.427,-0.120,-0.043,5.530,24.920,-1.400
11192316,-0.324,-0.118,-0.034,8.330,30.590,-2.450
11192332,-0.295,-0.081,-0.041,4.760,52.990,-2.590
11192356,-0.353,-0.071,-0.081,-0.490,46.340,-2.240
11192376,-0.429,-0.071,-0.090,-6.370,52.010,-3.010
11192400,-0.545,-0.068,-0.161,-15.400,57.680,-5.460
11192421,-0.720,-0.082,-0.223,-12.320,55.440,-4.270
11192439,-0.818,-0.095,-0.230,-11.410,66.010,-3.570
11192459,-0.908,-0.110,-0.264,-12.530,67.410,-1.470
11192484,-0.996,-0.156,-0.352,-14.210,71.890,-3.570
11192503,-1.094,-0.176,-0.369,-16.520,69.230,-5.250
11192526,-1.152,-0.238,-0.440,-18.620,63.140,-3.990
11192542,-1.186,-0.334,-0.606,-35.350,63.910,-5.600
11192567,-1.230,-0.381,-0.671,-13.300,86.380,-16.660
11192587,-1.342,-0.308,-0.621,-18.480,79.800,-15.470
11192603,-1.367,-0.227,-0.709,-17.500,75.460,-10.220
11192628,-1.341,-0.301,-0.877,-14.700,84.840,-9.310
11192646,-1.432,-0.310,-0.877,-17.010,87.360,-7.840
11192665,-1.455,-0.346,-0.957,-14.840,80.220,-6.930
11192691,-1.359,-0.311,-1.070,-22.050,74.690,-5.880
11192710,-1.322,-0.301,-0.954,-26.670,66.640,-6.650
11192733,-1.401,-0.287,-0.831,-15.190,34.720,-7.770
11192752,-1.337,-0.303,-0.897,-8.190,15.190,-7.210
11192775,-1.192,-0.259,-0.940,-10.080,8.050,-6.160
11192796,-1.145,-0.206,-0.879,-14.000,0.700,-5.530
11192813,-1.100,-0.187,-0.835,-13.020,-3.640,-6.860
11192833,-1.053,-0.209,-0.774,-10.360,-9.450,-7.420
11192856,-1.017,-0.247,-0.756,-9.100,-14.840,-9.240
11192875,-1.037,-0.274,-0.788,-8.120,-18.830,-7.840
11192900,-1.050,-0.280,-0.785,-5.530,-21.630,-7.840
11192917,-1.076,-0.247,-0.775,-0.210,-26.950,-6.580
11192938,-1.075,-0.258,-0.752,6.230,-34.230,-4.340
11192962,-1.056,-0.263,-0.699,7.490,-40.880,-0.490
11192982,-1.057,-0.285,-0.584,9.100,-49.980,-2.170
11193002,-1.048,-0.249,-0.456,11.270,-60.900,-3.990
11193020,-1.025,-0.191,-0.371,14.210,-66.430,-5.950
11193044,-0.966,-0.195,-0.315,15.960,-71.750,-7.560
11193064,-0.860,-0.167,-0.305,15.680,-65.520,-10.220
11193083,-0.690,-0.132,-0.273,16.660,-66.010,-12.180
11193101,-0.512,-0.066,-0.213,22.260,-71.330,-14.350
11193123,-0.454,-0.058,-0.139,26.320,-97.020,-2.800
11193145,-0.235,-0.096,-0.092,38.920,-110.530,0.420
11193166,-0.168,-0.097,-0.069,44.380,-115.080,2.940
11193185,-0.130,-0.101,-0.078,48.790,-114.310,4.200
11193205,-0.145,-0.118,-0.049,50.260,-115.080,5.320
11193220,-0.116,-0.123,-0.159,37.100,-103.880,5.810
11193245,-0.262,-0.137,-0.203,14.700,-81.410,4.270
11193265,-0.515,-0.162,-0.224,8.750,-58.870,1.260
11193283,-0.760,-0.176,-0.292,7.000,-46.130,0.490
11193307,-0.961,-0.203,-0.479,-3.850,-5.250,-1.890
11193327,-1.351,-0.335,-0.478,-11.060,26.740,-8.470
11193346,-1.347,-0.346,-0.109,-6.020,17.010,-7.700
11193366,-1.268,-0.281,0.247,9.380,-14.770,0.560
11193390,-1.106,-0.264,0.106,26.390,-37.170,10.430
11193410,-0.901,-0.230,-0.052,31.430,-38.640,13.580
11193430,-0.768,-0.210,-0.088,30.240,-29.400,8.680
11193450,-0.797,-0.155,-0.006,17.080,-21.490,2.450
11193467,-0.895,-0.124,-0.006,9.030,-11.620,0.910
11193487,-1.021,-0.134,-0.016,3.500,-0.840,2.730
11193507,-1.013,-0.195,-0.078,2.030,2.870,4.410
11193527,-0.950,-0.238,-0.138,2.520,4.200,3.360
11193551,-0.897,-0.255,-0.138,4.340,10.010,2.520
11193571,-0.883,-0.268,-0.082,5.740,16.870,4.200
11193587,-0.913,-0.274,-0.005,12.390,16.730,5.110
11193606,-1.019,-0.227,0.100,15.120,13.580,3.850
11193626,-1.081,-0.198,0.021,16.310,13.650,5.530
11193652,-1.079,-0.197,-0.050,18.200,1.680,6.930
11193669,-1.025,-0.200,-0.050,19.670,-5.670,7.630
11193689,-0.976,-0.207,-0.042,17.780,-1.890,7.140
11193713,-0.953,-0.186,-0.071,10.500,5.110,3.430
11193733,-0.892,-0.172,-0.087,1.260,12.460,0.770
11193750,-0.834,-0.171,-0.078,-1.680,13.440,-1.120
11193774,-0.799,-0.173,-0.101,-1.260,12.740,-3.570
11193794,-0.763,-0.180,-0.124,-0.840,15.680,-4.830
11193809,-0.731,-0.193,-0.146,-2.520,20.090,-6.090
11193834,-0.675,-0.193,-0.138,-3.920,26.320,-9.170
11193855,-0.579,-0.138,-0.102,-8.960,28.490,-12.390
11193874,-0.468,-0.062,-0.063,-18.200,32.200,-15.820
11193899,-0.406,0.084,-0.142,-40.950,48.860,-14.490
11193918,-0.335,0.151,-0.426,-38.570,82.740,-7.700
11193938,-0.223,0.013,-0.383,-30.380,92.820,-2.240
11193954,-0.170,-0.071,-0.058,-27.300,93.940,-1.540
11193977,-0.300,-0.056,0.095,-23.940,82.180,-3.640
11193998,-0.572,-0.094,-0.003,-27.790,55.720,-5.950
11194018,-0.757,-0.174,-0.293,-26.740,56.980,-17.920
11194033,-0.931,-0.212,-0.378,-26.880,70.770,-24.990
11194058,-1.180,-0.201,-0.304,-20.650,55.580,-17.080
11194075,-1.383,-0.290,-0.399,-16.240,30.310,-12.950
11194095,-1.355,-0.306,-0.605,-18.620,21.770,-9.030
11194116,-1.238,-0.304,-0.763,-25.760,34.020,-4.130
11194137,-1.169,-0.349,-0.736,-24.640,46.550,-1.890
11194161,-1.109,-0.382,-0.697,-11.970,56.210,-9.240
11194181,-1.113,-0.273,-0.672,-4.830,59.150,-12.390
11194199,-1.213,-0.278,-0.726,-5.250,58.730,-11.620
11194224,-1.201,-0.396,-0.795,-6.930,58.870,-12.180
11194243,-1.223,-0.404,-0.742,-10.990,44.240,-17.570
11194259,-1.291,-0.384,-0.833,-11.690,29.190,-19.320
11194279,-1.281,-0.385,-0.934,-7.910,20.510,-17.080
11194302,-1.239,-0.338,-0.888,-5.810,21.070,-12.950
11194323,-1.250,-0.337,-0.839,-7.280,12.950,-6.160
11194343,-1.256,-0.331,-0.966,-6.370,8.540,-2.520
11194361,-1.192,-0.272,-0.966,-8.680,13.370,-2.310
11194383,-1.212,-0.252,-0.802,-12.320,6.230,-0.630
11194400,-1.189,-0.283,-0.762,-9.870,-7.770,-1.400
11194425,-1.120,-0.319,-0.814,-5.740,-16.240,-4.480
11194444,-1.083,-0.328,-0.772,-3.990,-16.870,-7.980
11194464,-1.101,-0.296,-0.732,-5.810,-23.590,-10.010
11194487,-1.074,-0.280,-0.817,-8.190,-23.240,-6.440
11194507,-1.031,-0.295,-0.825,-9.240,-9.870,-4.060
11194528,-1.009,-0.286,-0.620,-9.730,-14.070,-1.820
11194548,-1.042,-0.308,-0.520,-4.480,-29.120,1.050
11194567,-1.069,-0.303,-0.563,0.770,-37.310,6.300
11194593,-1.077,-0.268,-0.554,12.320,-48.370,8.890
11194612,-1.000,-0.205,-0.419,11.620,-53.410,11.970
11194630,-0.917,-0.192,-0.392,7.000,-52.990,10.780
11194654,-0.791,-0.141,-0.388,6.440,-47.390,6.300
11194674,-0.656,-0.092,-0.280,5.040,-48.020,6.440
11194689,-0.425,-0.086,-0.187,4.900,-45.150,2.940
11194713,-0.282,-0.070,-0.165,12.530,-78.260,6.580
11194733,-0.111,-0.064,-0.113,20.510,-82.600,6.300
11194753,-0.040,-0.089,-0.051,25.900,-83.930,4.690
11194777,-0.085,-0.098,-0.024,34.160,-90.230,5.600
11194794,-0.130,-0.131,0.016,43.050,-94.360,7.070
11194814,-0.265,-0.160,-0.040,41.300,-92.680,8.400
11194834,-0.494,-0.181,-0.149,35.490,-83.090,9.030
11194857,-0.676,-0.148,-0.303,23.870,-61.810,10.570
11194878,-1.010,-0.148,-0.511,10.920,-27.650,7.350
11194897,-1.251,-0.265,-0.598,-5.950,2.310,1.120
11194920,-1.499,-0.336,-0.575,-13.720,22.190,-5.180
11194940,-1.273,-0.304,-0.222,-11.970,9.380,-3.990
11194960,-1.182,-0.279,0.068,-1.610,-7.560,-0.280
11194980,-1.045,-0.216,0.159,13.230,-36.260,4.620
11195004,-0.854,-0.193,0.075,27.230,-57.470,8.610
11195024,-0.710,-0.193,-0.010,39.900,-66.920,7.700
11195045,-0.674,-0.161,-0.169,34.930,-50.680,7.140
11195063,-0.793,-0.150,-0.393,19.460,-7.700,5.180
11195081,-0.914,-0.146,-0.363,1.050,23.590,2.870
11195101,-0.978,-0.170,-0.241,-13.580,33.950,-1.260
11195125,-0.999,-0.196,-0.122,-16.380,26.600,-2.730
11195145,-0.995,-0.205,-0.056,-10.080,17.920,-1.260
11195165,-0.974,-0.204,-0.059,-4.900,13.580,0.980
11195185,-0.917,-0.207,-0.098,-0.490,11.690,2.030
11195205,-0.857,-0.191,-0.193,-0.280,14.420,2.520
11195224,-0.781,-0.186,-0.237,-2.170,19.880,2.170
11195249,-0.711,-0.183,-0.234,-0.490,28.980,0.490
11195269,-0.672,-0.171,-0.236,1.540,33.390,-0.770
11195289,-0.634,-0.168,-0.217,-0.700,37.030,-3.080
11195311,-0.612,-0.131,-0.140,-3.780,38.150,-6.790
11195333,-0.575,-0.098,-0.052,-11.830,31.990,-8.890
11195353,-0.534,-0.072,-0.009,-12.670,19.810,-8.120
11195373,-0.499,-0.081,-0.024,-8.680,12.180,-6.370
11195389,-0.462,-0.105,-0.078,-0.420,11.410,-5.250
11195413,-0.461,-0.130,-0.124,2.030,15.050,-6.930
11195429,-0.462,-0.112,-0.114,-4.690,17.360,-8.750
11195452,-0.510,-0.070,-0.180,-9.450,18.550,-8.540
11195471,-0.612,-0.076,-0.301,-9.660,22.960,-6.440
11195491,-0.743,-0.123,-0.369,-3.990,24.570,-5.250
11195513,-0.908,-0.150,-0.343,-7.490,33.810,-3.640
11195532,-1.075,-0.134,-0.366,-13.510,35.070,-0.350
11195556,-1.213,-0.182,-0.509,-17.850,35.700,0.770
11195571,-1.275,-0.249,-0.602,-20.020,36.260,2.450
11195596,-1.370,-0.267,-0.595,-22.750,43.680,0.140
11195614,-1.350,-0.307,-0.511,-21.700,46.690,-3.220
11195634,-1.367,-0.391,-0.526,-6.790,38.850,-3.990
11195654,-1.277,-0.419,-0.591,7.840,36.540,-8.050
11195675,-1.227,-0.338,-0.625,3.220,46.340,-11.480
11195699,-1.341,-0.317,-0.636,-7.210,35.490,-6.300
11195719,-1.454,-0.354,-0.720,-10.290,22.680,-1.470
11195738,-1.431,-0.340,-0.810,-8.610,20.650,1.610
11195758,-1.285,-0.293,-0.836,-14.140,23.240,-1.190
11195778,-1.329,-0.303,-0.748,-15.820,22.960,-6.930
11195797,-1.390,-0.291,-0.638,-6.440,10.080,-5.740
11195823,-1.317,-0.258,-0.719,1.400,-2.240,-2.590
11195841,-1.243,-0.248,-0.727,-1.610,-3.780,-1.820
11195864,-1.180,-0.268,-0.707,-4.550,-5.670,-2.030
11195883,-1.150,-0.302,-0.662,-4.550,-8.540,-3.220
11195906,-1.137,-0.297,-0.623,-4.550,-13.580,-4.060
11195927,-1.139,-0.296,-0.619,-2.870,-18.900,-3.850
11195947,-1.118,-0.264,-0.615,3.360,-20.650,-4.410
11195966,-1.132,-0.257,-0.565,4.130,-22.680,-2.450
11195988,-1.156,-0.287,-0.518,6.860,-27.930,-3.150
11196008,-1.145,-0.289,-0.465,8.610,-33.670,-4.760
11196028,-1.143,-0.295,-0.430,10.850,-40.810,-7.070
11196048,-1.111,-0.265,-0.406,12.250,-46.620,-7.910
11196071,-1.078,-0.239,-0.361,16.800,-52.360,-5.110
11196091,-0.989,-0.224,-0.277,21.910,-54.810,-4.480
11196110,-0.857,-0.180,-0.170,23.170,-56.700,-7.000
11196129,-0.750,-0.130,-0.071,23.240,-62.370,-6.580
11196154,-0.598,-0.096,-0.063,27.370,-79.660,-2.170
11196171,-0.408,-0.075,-0.115,32.480,-84.840,2.240
11196195,-0.233,-0.049,-0.113,37.800,-86.450,9.030
11196215,-0.153,-0.042,-0.028,45.780,-104.020,13.650
11196235,-0.046,-0.040,-0.027,51.450,-107.590,15.750
11196256,-0.011,-0.051,-0.087,51.030,-102.480,15.750
11196275,-0.081,-0.031,-0.168,41.160,-82.390,14.210
11196293,-0.287,-0.018,-0.208,30.800,-59.500,13.790
11196318,-0.448,-0.085,-0.199,17.500,-4.690,3.570
11196336,-0.916,-0.148,-0.261,10.710,4.130,-0.700
11196356,-1.435,-0.386,-0.473,-11.410,54.460,-4.340
11196376,-1.629,-0.535,-0.469,-10.850,57.120,-15.540
11196399,-1.348,-0.340,0.031,-7.770,30.100,-11.900
11196423,-1.325,-0.316,0.331,-2.100,-5.460,0.140
11196443,-1.080,-0.209,0.298,19.950,-34.650,10.150
11196463,-0.805,-0.194,0.149,36.890,-46.760,16.800
11196482,-0.687,-0.179,-0.000,41.090,-44.450,15.680
11196506,-0.712,-0.123,-0.176,26.180,-21.490,11.550
11196524,-0.813,-0.105,-0.220,14.490,3.640,7.980
11196548,-0.935,-0.113,-0.147,0.840,24.360,2.100
11196568,-1.034,-0.172,-0.058,-2.800,24.850,-1.400
11196586,-1.041,-0.211,0.000,-1.820,16.380,-3.570
11196606,-1.047,-0.218,0.026,-2.170,7.350,-3.360
11196626,-1.066,-0.207,0.022,-2.170,5.180,-1.190
11196645,-1.056,-0.212,0.011,-0.350,4.130,0.700
11196670,-1.015,-0.207,-0.006,3.150,1.540,3.220
11196689,-0.948,-0.196,-0.064,6.020,2.450,4.620
11196706,-0.902,-0.194,-0.096,5.530,6.090,4.760
11196726,-0.886,-0.191,-0.095,3.500,11.270,3.150
11196749,-0.897,-0.198,-0.080,-0.280,15.260,-0.070
11196769,-0.893,-0.208,-0.076,-2.520,15.890,-3.570
11196793,-0.877,-0.223,-0.075,-4.480,17.570,-8.050
11196813,-0.876,-0.229,-0.083,-10.710,17.080,-11.550
11196834,-0.822,-0.206,-0.116,-14.350,16.380,-15.120
11196858,-0.755,-0.173,-0.003,-21.910,20.930,-16.380
11196878,-0.718,-0.137,-0.092,-29.540,19.530,-16.310
11196898,-0.666,-0.076,-0.123,-35.980,17.640,-14.980
11196914,-0.605,-0.048,-0.122,-42.560,21.140,-14.070
11196937,-0.583,-0.036,-0.061,-46.760,23.170,-13.230
11196957,-0.564,-0.053,-0.056,-41.370,18.760,-12.390
11196975,-0.530,-0.142,-0.107,-27.160,20.160,-7.630
11196999,-0.532,-0.216,-0.129,-12.040,23.310,-7.560
11197019,-0.578,-0.241,-0.120,-11.200,24.990,-14.350
11197034,-0.622,-0.215,-0.096,-19.950,25.620,-20.230
11197058,-0.669,-0.189,-0.101,-26.250,22.120,-23.100
11197078,-0.720,-0.167,-0.168,-17.010,22.260,-20.650
11197099,-0.834,-0.173,-0.307,-8.470,27.720,-14.140
11197115,-0.903,-0.183,-0.305,-7.210,31.850,-7.770
11197135,-1.017,-0.206,-0.267,-12.600,34.930,-2.170
11197159,-1.103,-0.205,-0.360,-12.320,36.960,2.170
11197178,-1.148,-0.257,-0.517,-7.280,42.840,6.650
11197200,-1.148,-0.252,-0.506,-11.060,51.870,9.310
11197219,-1.194,-0.260,-0.475,-12.600,50.960,10.220
11197239,-1.338,-0.244,-0.531,-7.910,49.350,12.810
11197258,-1.381,-0.238,-0.525,-11.620,49.280,15.540
11197276,-1.383,-0.267,-0.558,-21.140,48.720,11.060
11197299,-1.348,-0.298,-0.635,-30.380,42.420,1.890
11197320,-1.366,-0.350,-0.740,-36.750,37.240,-6.230
11197340,-1.392,-0.403,-0.802,-34.440,37.170,-12.880
11197364,-1.384,-0.500,-0.853,-30.590,38.360,-12.530
11197382,-1.408,-0.311,-0.837,-27.160,39.060,-8.470
11197404,-1.380,-0.276,-0.815,-28.350,33.810,-1.890
11197422,-1.348,-0.292,-0.713,-27.790,25.760,-2.030
11197443,-1.292,-0.289,-0.668,-23.870,14.490,-4.830
11197465,-1.237,-0.281,-0.636,-17.290,1.260,-6.860
11197486,-1.199,-0.269,-0.670,-16.240,-5.250,-7.070
11197508,-1.155,-0.278,-0.705,-17.500,-7.490,-7.420
11197529,-1.139,-0.272,-0.680,-17.360,-9.310,-8.540
11197549,-1.139,-0.267,-0.621,-9.940,-15.540,-6.510
11197573,-1.130,-0.280,-0.600,2.380,-22.680,-3.010
11197592,-1.108,-0.306,-0.576,10.360,-28.700,-2.030
11197613,-1.086,-0.332,-0.499,17.220,-35.000,-3.150
11197632,-1.043,-0.320,-0.408,19.460,-39.830,-6.930
11197651,-0.878,-0.288,-0.316,20.790,-47.250,-9.100
11197674,-0.893,-0.225,-0.225,25.620,-60.410,-9.240
11197693,-0.737,-0.192,-0.223,28.980,-66.500,-10.360
11197710,-0.638,-0.190,-0.213,32.830,-73.290,-10.500
11197730,-0.438,-0.150,-0.174,40.390,-72.660,-10.780
11197754,-0.317,-0.140,-0.098,46.760,-79.450,-9.310
11197769,-0.261,-0.136,-0.082,48.860,-84.910,-6.440
11197791,-0.192,-0.111,-0.082,50.400,-89.390,-0.420
11197810,-0.178,-0.120,-0.110,51.030,-94.150,2.240
11197829,-0.190,-0.108,-0.142,49.770,-98.280,6.370
11197849,-0.273,-0.095,-0.178,40.180,-87.220,6.930
11197869,-0.384,-0.082,-0.184,29.540,-71.260,5.810
11197893,-0.578,-0.090,-0.191,24.570,-53.060,1.820
11197913,-0.842,-0.094,-0.315,12.180,-40.040,-1.050
11197933,-1.296,-0.267,-0.501,-8.890,12.320,-5.810
11197952,-1.473,-0.504,-0.467,-14.350,31.570,-11.970
11197977,-1.386,-0.427,-0.129,-11.970,15.330,-5.320
11197997,-1.190,-0.374,0.177,-3.500,-13.860,-0.840
11198021,-0.973,-0.269,0.258,16.030,-42.350,5.670
11198039,-0.785,-0.240,0.171,30.520,-55.160,12.810
11198063,-0.652,-0.254,0.007,40.810,-57.330,14.700
11198083,-0.695,-0.219,-0.145,30.590,-35.350,12.250
11198103,-0.841,-0.212,-0.148,17.010,-7.000,9.380
11198120,-0.950,-0.211,-0.098,7.280,5.600,4.970
11198144,-1.036,-0.229,-0.055,1.400,10.080,0.490
11198164,-1.004,-0.240,-0.068,3.360,9.100,-0.140
11198180,-0.962,-0.244,-0.050,2.520,12.950,0.840
11198204,-0.953,-0.254,-0.007,3.360,12.670,2.800
11198224,-0.946,-0.251,0.002,4.200,15.610,3.500
11198244,-0.952,-0.250,0.020,5.740,16.520,3.570
11198268,-0.938,-0.224,-0.018,6.160,15.050,2.660
11198291,-0.919,-0.205,-0.070,4.270,16.800,1.750
11198313,-0.891,-0.189,-0.100,-0.350,22.890,0.210
11198333,-0.849,-0.151,-0.106,-5.530,29.890,-1.960
11198351,-0.789,-0.111,-0.105,-10.010,34.440,-2.380
11198375,-0.709,-0.098,-0.136,-12.320,40.320,-1.680
11198394,-0.588,-0.110,-0.164,-9.100,44.100,-1.120
11198413,-0.479,-0.123,-0.172,-4.410,46.130,-0.490
11198433,-0.393,-0.126,-0.128,-3.570,50.750,-0.910
11198454,-0.340,-0.109,-0.051,-1.330,49.350,-1.540
11198478,-0.299,-0.080,-0.016,1.750,44.310,-0.980
11198498,-0.293,-0.050,-0.007,5.250,36.470,1.120
11198518,-0.336,-0.093,-0.045,8.120,28.840,0.490
11198538,-0.501,-0.134,-0.054,6.650,23.520,-1.890
11198563,-0.676,-0.146,-0.069,3.080,26.320,-2.660
11198582,-0.862,-0.165,-0.113,-0.770,32.900,-6.230
11198602,-0.993,-0.189,-0.256,-7.000,32.830,-5.880
11198622,-1.103,-0.203,-0.515,-3.570,50.890,-3.710
11198646,-1.212,-0.245,-0.422,-10.850,56.770,6.090
11198666,-1.237,-0.130,-0.360,-18.410,44.870,5.530
11198683,-1.327,-0.221,-0.497,-24.150,40.110,2.100
11198707,-1.451,-0.196,-0.619,-29.470,59.220,7.350
11198727,-1.563,-0.192,-0.496,-23.730,58.450,15.820
11198743,-1.479,-0.272,-0.587,-11.270,47.740,9.100
11198764,-1.406,-0.448,-0.834,-5.320,42.560,-3.500
11198787,-1.393,-0.503,-0.848,-8.890,48.930,-16.660
11198807,-1.469,-0.466,-0.674,-18.760,41.790,-22.890
11198829,-1.494,-0.444,-0.751,-11.690,31.640,-25.970
11198848,-1.428,-0.409,-0.799,-6.230,28.350,-22.470
11198868,-1.380,-0.336,-0.761,-8.750,23.590,-18.760
11198888,-1.393,-0.310,-0.730,-6.650,14.840,-14.840
11198907,-1.340,-0.282,-0.713,-4.550,8.400,-12.040
11198926,-1.261,-0.265,-0.741,-6.090,4.760,-9.730
11198946,-1.203,-0.254,-0.734,-6.510,2.660,-8.400
11198965,-1.160,-0.255,-0.694,-4.760,0.210,-8.610
11198989,-1.105,-0.275,-0.639,-3.290,-3.360,-10.570
11199009,-1.075,-0.283,-0.614,-3.010,-7.210,-11.900
11199029,-1.065,-0.276,-0.608,-4.200,-9.240,-12.040
11199047,-1.062,-0.286,-0.570,-7.070,-14.980,-11.620
11199071,-0.993,-0.273,-0.554,-2.730,-16.450,-12.250
11199090,-0.948,-0.266,-0.476,-3.640,-15.820,-14.000
11199107,-0.921,-0.270,-0.412,-4.830,-20.510,-14.280
11199131,-0.915,-0.271,-0.432,-2.310,-27.930,-13.090
11199151,-0.857,-0.250,-0.416,0.840,-27.790,-11.900
11199173,-0.794,-0.225,-0.298,5.320,-27.090,-10.850
11199195,-0.709,-0.185,-0.155,11.130,-32.830,-10.150
11199215,-0.544,-0.126,-0.100,16.100,-43.190,-7.490
11199235,-0.435,-0.089,-0.122,25.130,-55.090,-1.540
11199255,-0.332,-0.087,-0.170,35.490,-59.850,3.500
11199275,-0.244,-0.064,-0.165,38.850,-58.100,6.160
11199291,-0.244,-0.043,-0.134,36.400,-63.420,10.500
11199311,-0.269,-0.004,-0.124,32.340,-64.400,13.790
11199331,-0.337,-0.039,-0.142,29.400,-63.140,14.070
11199355,-0.435,-0.095,-0.153,22.120,-57.190,8.960
11199373,-0.691,-0.197,-0.211,17.990,-56.490,5.670
11199393,-0.862,-0.200,-0.340,10.360,-49.070,3.150
11199417,-1.034,-0.195,-0.624,-0.420,-22.120,0.280
11199434,-1.130,-0.286,-0.596,-14.070,-6.510,-3.220
11199454,-1.141,-0.373,-0.422,-23.310,-3.010,-3.570
11199473,-1.140,-0.393,-0.133,-21.700,-1.190,-5.320
11199498,-1.072,-0.388,0.039,-3.360,-21.700,-3.710
11199516,-0.948,-0.327,-0.013,18.130,-32.200,-1.610
11199536,-0.868,-0.270,-0.141,32.270,-36.960,2.380
11199555,-0.811,-0.234,-0.221,38.080,-32.900,6.440
11199580,-0.829,-0.203,-0.279,36.890,-19.460,9.310
11199598,-0.891,-0.173,-0.272,28.980,-7.560,8.960
11199620,-0.970,-0.162,-0.196,19.040,-2.800,7.560
11199638,-0.978,-0.152,-0.182,12.950,-3.640,3.990
11199658,-0.961,-0.167,-0.178,7.420,-3.850,1.050
11199682,-0.948,-0.211,-0.171,8.470,-1.960,-0.560
11199702,-0.943,-0.247,-0.164,10.640,-0.070,-0.420
11199722,-0.935,-0.262,-0.158,10.360,0.770,-1.050
11199742,-0.936,-0.274,-0.162,9.800,1.750,-1.610
11199760,-0.952,-0.271,-0.158,9.940,3.780,-1.680
11199782,-0.946,-0.283,-0.153,10.220,4.830,-2.030
11199802,-0.939,-0.281,-0.148,9.240,5.320,-2.170
11199825,-0.940,-0.281,-0.152,6.370,6.230,-2.380
11199845,-0.944,-0.273,-0.167,3.780,8.050,-2.730
11199862,-0.936,-0.290,-0.162,3.850,9.310,-2.800
11199881,-0.932,-0.315,-0.151,4.760,8.680,-3.220
11199902,-0.923,-0.346,-0.146,4.690,8.680,-4.270
11199926,-0.910,-0.363,-0.138,4.130,10.080,-6.160
11199946,-0.941,-0.377,-0.138,3.710,6.580,-7.070
11199966,-0.907,-0.356,-0.157,7.210,4.830,-8.120
11199982,-0.947,-0.324,-0.173,8.190,5.320,-7.070
11200006,-0.933,-0.327,-0.187,7.000,3.920,-6.440
11200023,-0.947,-0.305,-0.179,4.340,5.110,-7.280
11200044,-0.974,-0.287,-0.163,3.920,5.880,-7.840
11200068,-0.975,-0.281,-0.177,3.920,4.550,-6.790
11200085,-0.956,-0.273,-0.197,2.380,3.080,-5.950
11200103,-0.940,-0.279,-0.202,1.260,2.170,-5.180
11200128,-0.928,-0.285,-0.201,0.910,2.170,-4.200
11200151,-0.923,-0.290,-0.189,-0.420,1.470,-3.570
11200172,-0.915,-0.299,-0.197,-1.750,1.190,-3.360
11200191,-0.909,-0.306,-0.199,-3.780,2.170,-3.710
11200211,-0.913,-0.329,-0.186,-5.390,2.660,-4.620
11200235,-0.915,-0.343,-0.175,-6.090,0.700,-6.650
11200255,-0.928,-0.350,-0.173,-6.440,-1.260,-7.980
11200273,-0.929,-0.356,-0.188,-8.750,-2.870,-9.170
11200293,-0.933,-0.362,-0.182,-12.670,-4.620,-10.640
11200312,-0.936,-0.362,-0.187,-15.680,-5.390,-11.970
11200337,-0.939,-0.356,-0.197,-15.890,-5.530,-12.180
11200358,-0.931,-0.350,-0.198,-15.260,-6.440,-11.760
11200376,-0.922,-0.354,-0.197,-15.750,-7.140,-11.830
11200398,-0.920,-0.365,-0.188,-17.150,-7.910,-11.130
11200417,-0.899,-0.363,-0.198,-16.100,-9.730,-11.410
11200442,-0.920,-0.346,-0.177,-12.810,-7.770,-9.170
11200459,-0.936,-0.378,-0.201,-11.970,-10.290,-8.050
11200476,-0.914,-0.377,-0.195,-10.990,-9.030,-7.840
11200496,-0.936,-0.382,-0.183,-8.120,-6.300,-7.490
11200521,-0.941,-0.369,-0.168,-5.670,-6.440,-5.880
11200537,-0.933,-0.370,-0.173,-4.760,-6.930,-4.970
11200556,-0.912,-0.374,-0.188,-2.870,-7.490,-4.760
11200576,-0.905,-0.383,-0.187,-0.350,-6.370,-4.480
11200601,-0.901,-0.376,-0.175,0.070,-4.550,-4.270
11200622,-0.894,-0.372,-0.176,0.770,-3.640,-3.360
11200640,-0.889,-0.367,-0.180,2.800,-2.520,-2.450
11200660,-0.887,-0.371,-0.185,4.550,-1.540,-1.190
11200680,-0.894,-0.376,-0.192,7.000,-0.210,0.140
11200700,-0.898,-0.379,-0.192,9.450,1.820,0.770
11200724,-0.901,-0.379,-0.193,11.760,4.900,1.400
11200743,-0.901,-0.392,-0.194,13.580,6.230,1.960
11200763,-0.907,-0.392,-0.202,15.610,6.160,2.450
11200787,-0.905,-0.387,-0.219,16.590,6.860,2.800
11200806,-0.899,-0.373,-0.248,16.730,8.750,3.290
11200827,-0.910,-0.367,-0.265,14.280,11.130,3.150
11200845,-0.910,-0.366,-0.274,13.580,12.880,2.590
11200869,-0.922,-0.359,-0.263,14.070,13.860,3.150
11200890,-0.902,-0.385,-0.259,15.330,12.110,2.310
11200909,-0.901,-0.386,-0.212,17.780,14.350,3.150
11200929,-0.911,-0.393,-0.225,18.550,8.820,1.680
11200948,-0.851,-0.375,-0.232,16.100,5.810,0.210
11200965,-0.861,-0.361,-0.242,12.670,6.090,-1.050
11200988,-0.889,-0.361,-0.241,10.220,4.760,-2.310
11201008,-0.906,-0.362,-0.271,6.930,2.450,-1.960
11201024,-0.903,-0.372,-0.281,1.750,-0.350,-1.960
11201049,-0.899,-0.363,-0.279,-7.140,-3.710,-1.820
11201073,-0.892,-0.350,-0.273,-10.290,-6.510,0.630
11201091,-0.881,-0.349,-0.270,-11.130,-8.750,3.500
11201110,-0.885,-0.363,-0.267,-11.340,-9.870,5.950
11201135,-0.881,-0.373,-0.277,-13.300,-11.760,8.680
11201155,-0.886,-0.372,-0.266,-14.350,-11.970,10.360
11201175,-0.915,-0.363,-0.266,-15.540,-13.790,12.040
11201195,-0.918,-0.333,-0.262,-17.500,-14.560,14.840
11201219,-0.909,-0.299,-0.235,-19.810,-13.930,17.570
11201238,-0.917,-0.261,-0.205,-23.450,-14.140,19.110
11201258,-0.955,-0.202,-0.192,-29.400,-17.150,21.770
11201278,-0.997,-0.184,-0.197,-34.160,-16.800,23.800
11201302,-1.055,-0.164,-0.174,-34.440,-12.880,23.870
11201322,-1.082,-0.141,-0.136,-31.290,-9.520,24.990
11201343,-1.095,-0.133,-0.081,-31.290,-7.420,24.360
11201361,-1.082,-0.188,-0.070,-30.660,-15.890,20.440
11201381,-1.039,-0.184,-0.131,-25.130,-15.050,14.980
11201402,-1.043,-0.233,-0.165,-17.990,-14.840,7.840
11201426,-1.006,-0.208,-0.129,-13.440,-11.200,3.780
11201446,-0.992,-0.176,-0.084,-13.580,-7.350,3.360
11201467,-0.968,-0.159,-0.025,-15.680,-8.820,2.310
11201484,-0.950,-0.175,0.028,-14.420,-15.960,0.910
11201506,-0.921,-0.185,-0.010,-6.650,-23.590,17.850
11201525,-0.930,-0.209,-0.057,1.890,-23.520,-0.280
11201549,-0.950,-0.232,-0.082,9.870,-17.010,-0.280
11201570,-0.972,-0.245,-0.082,16.100,-10.010,-1.050
11201594,-0.956,-0.219,-0.075,18.760,-2.940,-3.290
11201612,-0.938,-0.183,-0.076,21.210,0.140,-3.640
11201635,-0.928,-0.176,-0.124,26.600,2.520,-1.540
11201656,-0.929,-0.179,-0.203,30.380,4.270,-1.680
11201676,-0.930,-0.185,-0.234,24.570,11.900,-5.600
11201696,-0.936,-0.179,-0.196,12.390,17.710,-12.950
11201715,-0.911,-0.143,-0.103,3.570,17.010,-14.280
11201736,-0.942,-0.212,-0.130,8.890,13.300,-11.760
11201755,-0.959,-0.250,-0.101,16.240,10.780,-9.870
11201779,-1.071,-0.289,-0.116,18.480,10.150,-11.340
11201799,-1.093,-0.353,-0.106,19.250,10.850,-15.890
11201818,-1.106,-0.367,-0.102,16.240,7.000,-18.270
11201838,-1.036,-0.309,-0.151,12.250,3.640,-16.310
11201858,-0.942,-0.253,-0.205,6.370,3.360,-7.770
11201877,-0.898,-0.263,-0.212,-0.280,6.440,-1.750
11201897,-0.899,-0.210,-0.142,-5.810,13.230,1.750
11201921,-0.887,-0.164,-0.180,-12.600,17.500,6.930
11201941,-0.845,-0.132,-0.248,-22.890,18.760,10.150
11201957,-0.837,-0.137,-0.255,-29.610,17.920,11.270
11201976,-0.886,-0.127,-0.225,-37.030,14.280,10.430
11202001,-0.954,-0.162,-0.243,-21.700,7.000,9.520
11202020,-0.972,-0.266,-0.222,2.450,7.980,9.800
11202044,-1.104,-0.475,-0.115,20.300,15.470,3.220
11202069,-1.304,-0.478,-0.161,46.830,-14.070,-5.880
11202087,-1.280,-0.362,-0.215,48.650,-25.130,-9.520
11202107,-1.228,-0.267,-0.195,46.620,-31.430,-8.820
11202130,-1.154,-0.194,-0.146,41.090,-37.590,-1.540
11202152,-1.089,-0.117,-0.122,34.090,-42.490,7.630
11202171,-0.979,-0.090,-0.113,34.020,-41.580,12.250
11202190,-0.873,-0.051,-0.160,31.080,-36.330,11.760
11202214,-0.845,0.028,-0.143,24.010,-30.520,17.500
11202233,-0.784,0.061,-0.102,16.660,-26.320,16.870
11202252,-0.805,0.074,-0.169,8.680,-13.020,14.560
11202272,-0.817,0.053,-0.095,-0.700,-7.280,10.920
11202291,-0.873,-0.031,-0.054,-8.680,-10.150,7.000
11202316,-0.905,0.002,-0.197,-11.060,-2.240,3.150
11202333,-0.974,-0.020,-0.164,-15.190,5.740,1.190
11202355,-0.971,-0.017,-0.126,-20.720,2.240,-1.190
11202375,-0.992,-0.061,-0.164,-19.460,2.870,-3.570
11202399,-1.002,-0.055,-0.159,-12.460,7.350,-3.640
11202420,-1.004,-0.128,-0.084,-4.410,4.130,-4.060
11202439,-0.960,-0.136,-0.094,0.490,1.960,-4.480
11202457,-0.952,-0.186,-0.119,5.950,-1.610,-6.720
11202480,-0.953,-0.313,-0.167,19.880,-3.570,-8.960
11202501,-0.890,-0.516,-0.307,24.290,19.110,-12.250
11202521,-0.890,-0.642,-0.142,4.760,30.660,-20.720
11202540,-0.919,-0.571,-0.027,-3.080,17.080,-24.360
11202558,-0.936,-0.517,-0.081,-5.600,4.550,-21.630
11202583,-0.978,-0.450,-0.081,-11.340,-3.430,-16.520
11202601,-1.056,-0.431,-0.008,-8.960,-8.890,-11.550
11202621,-1.097,-0.445,-0.022,-6.160,-13.370,-7.420
11202644,-1.054,-0.467,0.000,-1.330,-18.340,-5.950
11202663,-0.966,-0.458,-0.019,3.780,-23.660,-6.580
11202683,-0.890,-0.427,-0.040,6.440,-27.440,-9.100
11202707,-0.807,-0.405,-0.061,6.020,-30.310,-13.440
11202728,-0.771,-0.382,-0.028,-3.080,-33.390,-18.760
11202744,-0.737,-0.368,-0.038,-10.360,-30.940,-22.260
11202763,-0.716,-0.386,0.021,-16.170,-36.890,-25.830
11202787,-0.687,-0.402,-0.031,-12.320,-36.120,-25.200
11202806,-0.717,-0.476,-0.037,-11.900,-35.630,-25.130
11202827,-0.796,-0.529,0.057,-7.630,-34.090,-26.740
11202847,-0.904,-0.545,-0.016,6.160,-32.830,-25.760
11202863,-1.027,-0.541,-0.041,10.080,-28.420,-22.960
11202887,-1.155,-0.536,-0.009,5.670,-26.390,-21.910
11202904,-1.342,-0.455,0.015,4.340,-28.980,-20.650
11202927,-1.491,-0.301,-0.126,7.840,-15.960,-13.720
11202947,-1.363,-0.105,-0.134,7.350,3.920,-8.400
11202967,-1.102,-0.060,0.066,11.830,4.480,1.610
11202987,-0.852,-0.091,0.134,21.210,-6.440,9.940
11203011,-0.695,-0.084,0.055,15.540,-13.650,13.160
11203031,-0.725,-0.109,0.079,4.970,-15.190,7.840
11203051,-0.807,-0.137,0.089,-2.800,-16.590,0.280
11203070,-0.937,-0.119,0.024,-5.880,-13.860,-5.390
11203090,-1.090,-0.098,-0.055,-11.830,-5.460,-8.120
11203114,-1.117,-0.092,-0.085,-20.510,2.660,-7.210
11203134,-1.136,-0.108,-0.040,-23.520,1.540,-3.360
11203153,-1.129,-0.129,-0.013,-23.030,-2.100,4.550
11203174,-1.096,-0.160,-0.033,-21.560,0.700,13.720
11203198,-1.049,-0.178,-0.005,-18.970,3.290,21.070
11203218,-1.023,-0.211,0.021,-15.820,5.740,24.360
11203238,-0.978,-0.231,-0.015,-12.180,9.800,24.080
11203258,-0.947,-0.227,-0.066,-10.430,18.410,22.960
11203275,-0.925,-0.231,-0.077,-7.350,24.220,22.400
11203300,-0.918,-0.305,-0.027,-2.660,29.680,20.370
11203316,-0.955,-0.407,0.024,0.350,29.750,19.250
11203335,-0.980,-0.486,-0.033,9.310,26.180,17.640
11203355,-0.951,-0.553,-0.098,15.260,29.120,15.470
11203378,-0.945,-0.664,-0.071,19.460,32.830,9.590
11203398,-0.925,-0.687,-0.066,25.340,32.480,3.780
11203418,-0.942,-0.560,-0.001,29.960,31.570,-0.770
11203442,-0.941,-0.414,0.014,37.520,25.760,0.490
11203462,-0.876,-0.334,0.013,41.090,21.980,2.380
11203479,-0.834,-0.291,0.025,37.240,20.370,2.310
11203497,-0.842,-0.262,0.040,25.760,20.860,0.420
11203518,-0.881,-0.259,0.059,14.910,13.930,-3.640
11203541,-0.879,-0.245,0.020,7.000,5.040,-7.980
11203558,-0.848,-0.275,-0.052,-2.870,-0.700,-10.640
11203578,-0.788,-0.273,-0.068,-17.990,3.710,-13.020
11203602,-0.887,-0.261,0.079,-30.520,-2.240,-16.660
11203623,-0.944,-0.135,0.040,-31.290,-12.180,-7.630
11203640,-0.867,-0.257,-0.078,-40.740,-13.090,4.620
11203658,-0.865,-0.389,-0.037,-44.380,-10.710,10.920
11203683,-1.010,-0.392,-0.054,-45.710,-15.260,17.150
11203702,-1.275,-0.342,-0.208,-52.290,-16.030,27.090
11203722,-1.478,-0.374,-0.432,-54.110,-5.460,37.240
11203740,-1.118,-0.409,-0.218,-33.600,14.840,31.290
11203758,-1.043,-0.325,0.088,-5.530,6.650,31.500
11203779,-0.953,-0.328,0.068,-1.050,-9.940,17.010
11203800,-0.845,-0.159,0.021,-3.430,-23.030,7.140
11203824,-0.776,-0.120,-0.266,-9.380,-25.620,3.360
11203844,-0.780,-0.115,-0.307,-35.490,-7.840,7.910
11203864,-0.921,-0.160,-0.174,-22.120,6.510,9.030
11203883,-1.052,-0.209,-0.055,-21.700,11.690,7.210
11203903,-1.145,-0.260,-0.021,-19.950,0.350,2.870
11203928,-1.095,-0.214,-0.066,-16.450,-10.710,-2.380
11203947,-0.992,-0.178,-0.110,-11.130,-12.670,0.210
11203965,-0.915,-0.207,-0.137,-6.440,-10.290,0.980
11203988,-0.847,-0.226,-0.183,-3.150,0.770,-2.030
11204008,-0.857,-0.219,-0.127,3.360,10.360,-6.230
11204024,-0.882,-0.251,-0.112,8.330,14.350,-8.680
11204049,-0.932,-0.252,-0.180,15.400,19.880,-10.780
11204066,-1.027,-0.253,-0.172,18.760,23.450,-12.600
11204085,-0.997,-0.290,-0.157,24.710,28.350,-15.050
11204105,-0.896,-0.335,-0.121,33.530,27.370,-15.890
11204131,-0.858,-0.388,-0.104,44.800,21.560,-12.460
11204149,-0.857,-0.408,-0.141,44.940,17.850,-7.700
11204165,-0.930,-0.367,-0.147,33.110,15.330,-4.620
11204189,-1.019,-0.340,-0.160,16.170,10.570,-1.820
11204207,-1.103,-0.253,-0.107,7.420,9.100,0.280
11204227,-1.179,-0.185,-0.125,4.620,6.440,6.090
11204246,-1.179,-0.170,-0.137,5.040,3.290,13.790
11204271,-1.133,-0.227,-0.084,7.770,0.420,21.210
11204287,-1.082,-0.315,-0.047,10.290,-7.490,19.390
11204310,-0.961,-0.343,-0.061,11.130,-18.900,11.970
11204329,-0.891,-0.340,-0.086,8.120,-21.000,4.060
11204351,-0.839,-0.342,-0.093,5.880,-20.650,-4.620
11204371,-0.772,-0.381,-0.102,2.800,-19.250,-10.430
11204391,-0.794,-0.380,-0.067,-1.120,-20.580,-13.650
11204408,-0.823,-0.382,-0.078,-2.870,-21.980,-15.190
11204428,-0.815,-0.380,-0.048,-3.640,-20.300,-17.570
11204451,-0.821,-0.348,-0.060,-2.870,-24.430,-16.520
11204469,-0.795,-0.369,-0.125,1.190,-27.510,-15.890
11204487,-0.780,-0.422,-0.104,0.840,-26.390,-13.580
11204512,-0.790,-0.447,-0.054,-6.650,-25.060,-14.630
11204531,-0.906,-0.427,-0.081,-3.430,-21.770,-14.840
11204552,-0.982,-0.457,-0.038,0.070,-15.680,-19.600
11204576,-1.100,-0.422,-0.027,-1.750,-20.090,-24.290
11204595,-1.142,-0.401,-0.086,-7.770,-19.250,-28.910
11204619,-1.151,-0.328,-0.081,-10.360,-13.020,-28.770
11204640,-1.110,-0.270,-0.136,-10.570,-9.730,-24.780
11204658,-1.045,-0.192,-0.087,-5.250,-4.200,-20.090
11204679,-1.069,-0.095,-0.063,2.380,-5.250,-11.340
11204698,-1.181,-0.005,-0.260,6.440,7.280,-1.260
11204723,-1.237,0.046,-0.165,6.020,25.690,10.150
11204742,-1.127,0.010,0.065,4.690,26.460,14.140
11204762,-1.006,-0.061,0.169,6.300,8.680,14.770
11204786,-0.847,-0.132,0.065,10.850,-5.740,12.740
11204804,-0.813,-0.149,-0.007,10.570,-8.540,7.280
11204828,-0.870,-0.121,-0.032,5.880,-14.910,0.140
11204848,-0.933,-0.070,-0.071,1.680,-14.980,-6.650
11204868,-1.045,-0.013,-0.134,-4.900,-9.800,-9.240
11204885,-1.184,0.029,-0.178,-4.480,-2.870,-8.610
11204908,-1.212,0.024,-0.154,-9.310,3.850,-6.300
11204928,-1.196,-0.014,-0.123,-10.430,-1.540,-3.360
11204952,-1.107,-0.034,-0.120,-10.850,-7.840,0.420
11204972,-1.073,-0.006,-0.083,-11.200,-9.310,4.620
11204992,-1.033,0.009,-0.054,-9.310,-10.360,8.470
11205011,-1.029,0.019,-0.052,-10.570,-10.080,10.990
11205034,-1.047,0.013,-0.048,-13.720,-11.480,12.180
11205054,-1.055,0.031,-0.098,-9.520,-11.060,11.690
11205075,-1.008,-0.028,-0.065,-8.260,-6.160,13.510
11205095,-0.987,-0.096,-0.048,-6.300,-7.070,15.470
11205119,-0.956,-0.176,-0.073,-5.460,-3.150,16.310
11205139,-0.971,-0.316,-0.015,-7.070,1.400,14.910
11205162,-0.960,-0.376,-0.010,-3.990,3.150,13.930
11205183,-0.927,-0.427,-0.045,3.570,9.380,12.530
11205200,-0.894,-0.527,-0.040,12.040,16.170,9.450
11205220,-0.899,-0.582,-0.017,18.200,21.420,5.530
11205244,-0.900,-0.538,-0.036,15.750,20.650,-0.420
11205262,-0.932,-0.483,-0.020,10.570,21.070,-3.430
11205282,-0.935,-0.447,-0.003,15.820,22.820,-5.810
11205299,-0.921,-0.410,0.038,28.770,27.230,-2.800
11205320,-0.876,-0.373,0.016,37.380,28.350,-0.700
11205343,-0.823,-0.345,-0.039,32.060,28.420,1.540
11205364,-0.863,-0.339,-0.032,17.850,32.620,-6.860
11205383,-0.953,-0.307,-0.006,9.170,28.350,-12.670
11205404,-0.955,-0.304,-0.012,3.080,20.090,-17.710
11205423,-0.972,-0.305,-0.024,-0.070,11.410,-19.600
11205440,-0.939,-0.320,-0.069,-5.320,-0.280,-18.200
11205459,-0.935,-0.325,-0.099,-13.230,-3.780,-15.400
11205484,-0.973,-0.332,-0.080,-18.130,-6.230,-12.600
11205503,-0.995,-0.300,-0.098,-11.760,-13.300,-9.520
11205524,-0.970,-0.302,-0.154,-10.010,-14.420,-4.620
11205544,-0.888,-0.305,-0.124,-12.250,-19.600,-1.540
11205560,-0.930,-0.276,-0.113,-17.150,-20.370,0.490
11205580,-0.959,-0.251,-0.142,-22.330,-18.690,2.380
11205600,-1.015,-0.269,-0.191,-19.810,-12.460,3.150
11205624,-1.044,-0.285,-0.277,-14.420,7.980,7.560
11205639,-1.001,-0.353,-0.185,-7.350,14.490,10.010
11205663,-0.960,-0.358,-0.073,2.660,25.830,7.070
11205683,-0.910,-0.325,0.007,10.010,19.390,5.600
11205703,-0.841,-0.325,-0.014,11.130,8.050,2.800
11205727,-0.845,-0.329,-0.069,10.500,0.490,-1.540
11205747,-0.849,-0.346,-0.160,10.570,0.420,-4.830
11205767,-0.871,-0.370,-0.203,11.270,8.190,-7.840
11205786,-0.958,-0.377,-0.160,8.960,12.320,-10.010
11205805,-1.026,-0.375,-0.135,7.560,12.110,-11.130
11205825,-1.047,-0.347,-0.116,8.820,9.870,-9.940
11205845,-1.037,-0.317,-0.127,11.970,8.470,-7.700
11205869,-1.017,-0.324,-0.140,13.510,8.470,-4.690
11205890,-0.985,-0.332,-0.125,13.860,7.210,-2.170
11205909,-0.953,-0.326,-0.125,14.490,5.880,0.000
11205930,-0.922,-0.362,-0.120,14.700,3.500,2.940
11205950,-0.899,-0.365,-0.122,17.150,-1.890,3.430
11205974,-0.904,-0.368,-0.130,16.730,-0.840,4.900
11205994,-0.915,-0.392,-0.131,15.540,-3.010,5.460
11206010,-0.900,-0.393,-0.145,14.910,-3.710,5.320
11206034,-0.917,-0.390,-0.128,12.460,-1.050,6.580
11206054,-0.929,-0.395,-0.096,10.920,-2.240,7.000
11206070,-0.942,-0.386,-0.097,10.920,-3.780,7.420
11206094,-0.919,-0.422,-0.110,11.480,-6.230,8.750
11206114,-0.900,-0.454,-0.109,10.920,-7.840,8.190
11206130,-0.905,-0.459,-0.100,12.110,-9.100,7.070
11206149,-0.891,-0.465,-0.087,12.950,-10.990,6.440
11206174,-0.861,-0.446,-0.100,12.460,-8.820,4.760
11206193,-0.870,-0.415,-0.102,11.760,-7.070,4.410
11206213,-0.873,-0.398,-0.082,10.710,-7.350,4.340
11206237,-0.855,-0.399,-0.077,8.960,-8.680,4.550
11206253,-0.844,-0.430,-0.093,9.450,-9.240,3.570
11206272,-0.856,-0.436,-0.085,7.070,-10.710,1.400
11206294,-0.864,-0.444,-0.051,3.220,-14.560,-2.240
11206313,-0.866,-0.416,-0.046,0.770,-18.270,-5.250
11206337,-0.889,-0.369,-0.045,-3.010,-23.940,-7.490
11206357,-0.913,-0.311,-0.081,-3.710,-25.200,-7.420
11206376,-0.970,-0.240,-0.115,-5.810,-21.630,-4.480
11206398,-1.047,-0.224,-0.193,-11.200,-14.420,-3.360
11206415,-1.059,-0.163,-0.261,-9.240,2.520,-1.610
11206433,-1.070,-0.157,-0.216,-6.160,14.420,2.800
11206452,-1.101,-0.113,-0.165,0.280,20.580,6.650
11206475,-1.130,-0.049,-0.166,4.690,22.400,15.190
11206499,-1.120,-0.057,0.006,7.070,19.530,14.770
11206519,-1.106,0.009,0.075,7.210,4.130,14.980
11206538,-1.016,0.035,-0.037,6.020,-8.470,13.160
11206562,-0.941,0.061,-0.135,1.960,-11.900,12.460
11206582,-0.986,0.032,-0.171,-4.970,-9.170,10.850
11206601,-1.082,0.024,-0.238,-8.960,1.610,9.590
11206622,-1.144,0.009,-0.175,-10.080,7.560,9.940
11206641,-1.156,-0.004,-0.112,-11.900,4.270,9.170
11206666,-1.119,-0.001,-0.114,-16.100,-3.150,6.300
11206686,-1.082,0.049,-0.121,-23.940,-5.460,5.250
11206706,-1.043,0.081,-0.127,-29.890,-5.530,5.110
11206725,-0.982,0.055,-0.131,-33.320,-4.970,5.040
11206748,-0.940,0.015,-0.113,-35.210,-5.670,2.100
11206768,-0.949,0.013,-0.101,-34.930,-8.470,-1.960
11206792,-0.963,0.002,-0.091,-29.330,-8.260,-4.550
11206812,-0.976,-0.048,-0.100,-24.220,-8.470,-7.700
11206830,-1.011,-0.031,-0.118,-26.740,-8.750,-10.920
11206850,-1.052,0.010,-0.115,-31.920,-13.020,-13.790
11206874,-1.080,0.061,-0.133,-32.270,-5.390,-12.040
11206893,-1.105,0.013,-0.084,-32.060,-5.880,-9.450
11206914,-1.100,-0.006,-0.043,-34.300,-10.570,-10.430
11206932,-1.105,-0.002,-0.069,-30.660,-12.390,-11.900
11206952,-1.113,-0.005,-0.082,-24.570,-14.210,-12.250
11206975,-1.077,-0.011,-0.103,-19.390,-16.240,-11.690
11206998,-1.047,-0.017,-0.084,-18.130,-16.590,-9.030
11207022,-1.019,-0.036,-0.110,-16.030,-16.310,-5.460
11207041,-0.992,-0.069,-0.152,-15.820,-10.710,-3.220
11207063,-1.008,-0.113,-0.148,-14.840,0.560,4.410
11207081,-0.995,-0.191,-0.100,-6.720,6.370,10.080
11207102,-0.954,-0.266,-0.043,8.960,5.670,14.840
11207122,-0.891,-0.328,-0.061,14.770,5.250,16.870
11207142,-0.849,-0.402,-0.051,17.570,5.810,15.120
11207162,-0.866,-0.462,-0.074,19.250,4.060,11.410
11207180,-0.889,-0.435,-0.109,21.560,1.680,6.790
11207204,-0.906,-0.405,-0.136,20.580,7.070,2.170
11207224,-0.948,-0.410,-0.097,15.610,10.570,-3.640
11207241,-1.008,-0.375,-0.075,9.730,8.750,-8.960
11207264,-1.011,-0.325,-0.082,6.510,5.600,-12.950
11207286,-0.965,-0.346,-0.034,9.940,2.730,-15.540
11207305,-0.958,-0.386,-0.019,11.200,-2.870,-18.340
11207325,-0.901,-0.387,-0.081,10.150,-2.100,-21.280
11207345,-0.867,-0.347,-0.119,5.250,-1.610,-23.450
11207368,-0.998,-0.263,-0.117,1.470,5.110,-20.930
11207387,-0.931,-0.276,-0.058,3.710,2.660,-17.500
11207411,-0.915,-0.364,0.006,6.650,-8.120,-16.660
11207430,-0.880,-0.436,-0.062,4.550,-12.180,-19.600
11207450,-0.870,-0.458,-0.100,-2.240,-5.810,-23.310
11207470,-0.896,-0.456,-0.072,-4.760,-3.080,-23.800
11207494,-0.909,-0.400,-0.056,-0.770,-4.690,-16.800
11207513,-0.942,-0.357,-0.068,0.560,-5.460,-13.230
11207534,-0.965,-0.335,-0.093,0.420,-5.040,-8.330
11207554,-0.965,-0.323,-0.170,2.030,-2.520,-1.960
11207573,-0.971,-0.352,-0.166,2.660,5.320,3.080
11207598,-1.009,-0.302,-0.149,5.040,13.510,10.640
11207619,-1.007,-0.285,-0.145,3.640,15.050,15.470
11207638,-0.971,-0.321,-0.134,2.240,16.520,14.910
11207658,-0.949,-0.340,-0.110,6.020,20.020,12.180
11207675,-0.938,-0.354,-0.085,11.480,18.200,10.010
11207694,-0.897,-0.358,-0.094,13.230,14.490,7.350
11207713,-0.868,-0.355,-0.099,11.970,12.530,5.250
11207739,-0.910,-0.360,-0.088,12.530,10.780,5.600
11207756,-0.953,-0.402,-0.091,13.720,4.620,6.020
11207775,-0.918,-0.397,-0.116,14.770,0.770,4.760
11207800,-0.929,-0.383,-0.120,13.580,-2.660,4.200
11207819,-0.940,-0.369,-0.073,15.540,-5.530,3.640
11207839,-0.964,-0.329,-0.111,17.010,-5.670,4.970
11207856,-0.991,-0.335,-0.122,16.240,-3.500,8.120
11207876,-0.986,-0.353,-0.124,12.810,-2.380,11.760
11207898,-0.958,-0.370,-0.098,11.480,-4.550,14.210
11207915,-0.935,-0.364,-0.082,11.830,-6.930,14.770
11207935,-0.915,-0.387,-0.056,12.670,-9.100,14.560
11207955,-0.894,-0.399,-0.064,14.280,-10.500,12.670
11207978,-0.878,-0.417,-0.084,15.960,-10.360,10.500
11208002,-0.851,-0.418,-0.090,15.190,-8.750,7.560
11208020,-0.854,-0.426,-0.077,13.020,-5.250,5.950
11208045,-0.887,-0.433,-0.035,12.390,-1.960,4.270
11208062,-0.901,-0.424,-0.025,12.180,-3.010,3.990
11208086,-0.887,-0.422,-0.026,11.900,-4.690,3.920
11208105,-0.867,-0.424,-0.049,10.500,-6.090,4.550
11208126,-0.876,-0.423,-0.055,10.360,-6.020,4.480
11208146,-0.931,-0.362,-0.080,7.210,-7.770,4.130
11208165,-0.973,-0.324,-0.101,3.430,-8.050,3.080
11208188,-1.000,-0.287,-0.111,6.230,-3.150,1.960
11208207,-1.002,-0.258,-0.108,14.420,6.930,2.520
11208230,-1.050,-0.190,-0.248,16.940,9.100,3.290
11208249,-1.062,-0.020,-0.355,13.790,23.520,11.410
11208268,-1.110,0.060,-0.181,17.010,29.540,22.050
11208287,-1.157,0.093,-0.009,20.090,28.420,23.170
11208307,-1.237,0.143,-0.033,22.960,10.710,29.330
11208331,-1.181,0.083,-0.149,10.080,0.840,27.370
11208349,-1.150,0.050,-0.195,-14.840,0.700,14.140
11208373,-1.168,0.049,-0.187,-28.770,4.620,2.170
11208394,-1.114,0.095,-0.127,-38.640,2.170,1.540
