Millis,AccelX,AccelY,AccelZ,GyroX,GyroY,GyroZ
7425507,-0.981,-0.160,-0.091,4.270,-15.050,-6.720
7425532,-0.972,-0.173,-0.092,-1.470,-11.690,3.920
7425552,-0.984,-0.145,-0.075,-2.380,-10.080,10.500
7425571,-0.994,-0.101,-0.033,-14.700,-6.790,16.520
7425591,-1.021,-0.121,-0.014,-37.450,-7.350,22.680
7425612,-0.996,-0.183,-0.006,-48.650,-6.580,33.180
7425631,-0.972,-0.222,-0.020,-49.280,-6.930,42.980
7425656,-0.946,-0.263,-0.039,-45.360,-5.040,56.770
7425676,-0.935,-0.266,-0.047,-39.410,-4.340,66.150
7425696,-0.946,-0.260,-0.039,-38.780,-3.920,70.350
7425715,-0.966,-0.329,-0.034,-34.860,-3.990,73.780
7425739,-0.986,-0.354,-0.040,-26.040,-2.240,78.470
7425883,-0.994,-0.348,-0.060,39.130,-0.490,24.570
7425902,-0.979,-0.350,-0.073,46.270,0.980,16.240
7425920,-0.976,-0.336,-0.078,56.770,0.770,8.890
7425939,-0.963,-0.313,-0.086,66.780,1.750,2.240
7425964,-0.968,-0.288,-0.091,75.040,2.520,-5.180
7425984,-0.971,-0.272,-0.107,82.600,3.290,-9.520
7426124,-1.003,-0.090,-0.227,102.900,11.620,-30.170
7426148,-1.013,-0.101,-0.180,87.990,8.190,-35.630
7426167,-0.962,-0.135,-0.203,90.930,15.540,-31.640
7426191,-0.983,-0.185,-0.257,105.210,20.580,-27.230
7426210,-0.941,-0.084,-0.163,102.200,27.370,-23.170
7426231,-1.008,-0.122,-0.178,107.800,24.850,-18.480
7426254,-0.987,-0.051,-0.146,95.620,28.490,-12.950
7426278,-0.998,-0.049,-0.152,96.530,26.740,-5.530
7426298,-1.007,0.026,-0.193,65.520,28.700,-4.760
7426317,-0.984,-0.043,-0.101,71.960,25.550,7.700
7426337,-1.041,0.037,-0.122,53.200,23.170,10.850
7426361,-1.026,0.028,-0.110,27.230,16.660,11.760
7426504,-1.028,-0.174,-0.152,-55.370,-15.750,8.960
7426524,-1.013,-0.202,-0.150,-61.810,-19.740,4.620
7426544,-0.966,-0.215,-0.144,-64.330,-16.100,1.470
7426562,-1.020,-0.209,-0.180,-51.100,-26.180,-3.220
7426586,-0.984,-0.230,-0.150,-70.000,-20.440,-8.890
7426603,-0.957,-0.239,-0.134,-64.680,-19.390,-9.030
7426625,-0.991,-0.228,-0.125,-56.910,-18.270,-9.730
7426646,-1.000,-0.248,-0.111,-56.630,-16.450,-9.660
7426669,-0.984,-0.216,-0.099,-55.860,-17.710,-12.250
7426690,-0.956,-0.214,-0.099,-54.040,-16.100,-12.810
7426710,-0.959,-0.239,-0.104,-48.230,-15.190,-13.020
7426734,-0.963,-0.244,-0.104,-41.440,-14.770,-12.180
7426751,-0.959,-0.258,-0.127,-31.640,-13.370,-10.640
7426775,-0.961,-0.247,-0.149,-20.300,-10.710,-7.070
7426794,-0.978,-0.238,-0.172,-10.920,-8.470,-5.530
7426814,-0.984,-0.201,-0.165,-8.120,-7.700,-6.860
7426833,-0.968,-0.176,-0.159,-10.850,-7.350,-10.710
7426852,-0.952,-0.149,-0.154,-20.580,-4.690,-14.840
7426877,-0.950,-0.158,-0.157,-34.720,-3.150,-21.210
7426895,-0.952,-0.156,-0.146,-41.160,-1.260,-23.730
7426914,-0.992,-0.183,-0.127,-47.110,-1.190,-24.780
7426934,-1.002,-0.204,-0.095,-50.470,-0.770,-22.190
7426959,-1.029,-0.233,-0.082,-49.560,-1.190,-18.200
7426979,-1.022,-0.256,-0.065,-51.100,-4.340,-14.980
7426999,-1.005,-0.283,-0.080,-41.860,-10.920,-10.290
7427022,-0.972,-0.296,-0.072,-28.910,-2.170,-5.390
7427041,-0.956,-0.232,-0.045,-42.700,-6.720,-4.970
7427061,-0.998,-0.240,-0.041,-46.620,-18.550,-6.440
7427085,-0.876,-0.276,-0.067,-45.710,-21.980,-6.650
7427105,-1.002,-0.294,-0.079,-42.490,-24.570,-5.810
7427125,-0.997,-0.280,-0.069,-42.910,-23.800,-5.740
7427144,-1.013,-0.311,-0.074,-38.710,-29.750,-6.300
7427165,-1.003,-0.327,-0.057,-40.950,-29.540,-8.190
7427185,-0.982,-0.337,-0.080,-41.020,-28.140,-10.290
7427205,-0.964,-0.298,-0.065,-41.370,-25.900,-14.770
7427226,-0.945,-0.342,-0.085,-39.410,-25.060,-16.730
7427249,-0.998,-0.306,-0.124,-35.490,-27.930,-23.030
7427268,-0.963,-0.329,-0.117,-33.460,-28.000,-26.250
7427290,-0.957,-0.325,-0.134,-24.780,-25.550,-27.720
7427314,-0.956,-0.330,-0.142,-18.270,-21.840,-27.300
7427334,-0.947,-0.294,-0.142,-13.370,-19.390,-27.650
7427354,-0.937,-0.290,-0.147,-11.340,-15.820,-26.600
7427371,-0.939,-0.303,-0.148,-8.470,-12.460,-23.940
7427394,-0.933,-0.297,-0.142,-5.530,-7.770,-19.040
7427414,-0.947,-0.300,-0.142,-0.910,-2.870,-12.950
7427432,-0.949,-0.279,-0.139,-0.140,-1.190,-8.750
7427452,-0.932,-0.281,-0.139,0.910,2.170,-4.060
7427474,-0.933,-0.269,-0.123,-0.490,5.950,1.260
7427494,-0.975,-0.251,-0.125,-2.100,7.140,3.920
7427516,-0.981,-0.252,-0.109,-7.560,7.420,4.970
7427539,-1.036,-0.264,-0.102,-6.860,10.640,7.000
7427560,-1.097,-0.209,-0.090,-11.060,7.980,7.700
7427579,-1.099,-0.176,-0.090,-18.340,6.930,8.680
7427603,-1.122,-0.162,-0.078,-26.670,3.010,11.200
7427620,-1.211,-0.132,-0.099,-29.120,1.260,13.300
7427644,-1.213,-0.041,-0.141,-46.410,-9.590,11.060
7427664,-1.160,-0.088,-0.141,-55.720,-11.060,15.050
7427679,-1.188,-0.086,-0.150,-52.710,-12.320,21.980
7427702,-1.201,-0.026,-0.165,-56.420,-16.520,28.840
7427726,-1.141,-0.072,-0.180,-51.380,-15.680,46.760
7427746,-1.180,-0.134,-0.206,-36.400,-23.520,60.410
7427765,-1.135,-0.139,-0.209,-15.470,-11.970,83.440
7427786,-1.179,-0.101,-0.244,5.740,-10.290,99.680
7427804,-1.177,-0.130,-0.222,14.840,-8.120,116.480
7427827,-1.163,-0.019,-0.229,30.870,5.180,132.300
7427847,-1.167,0.025,-0.227,26.460,12.460,141.890
7427865,-1.204,0.006,-0.242,25.970,18.900,149.450
7427885,-1.226,0.061,-0.278,27.230,25.270,155.470
7427905,-1.217,0.055,-0.275,24.220,30.380,156.940
7427929,-1.160,0.075,-0.267,30.940,39.410,161.630
7427947,-1.098,0.197,-0.231,22.400,45.710,165.410
7427969,-1.142,0.153,-0.192,18.130,52.430,171.850
7427993,-1.194,0.143,-0.174,10.570,52.080,177.800
7428013,-1.120,0.241,-0.178,-12.740,47.600,177.940
7428033,-0.975,0.308,-0.139,-37.380,46.480,175.980
7428053,-0.927,0.317,-0.107,-63.700,42.980,175.700
7428071,-0.953,0.246,-0.118,-73.500,31.780,175.840
7428092,-0.920,0.283,-0.146,-83.930,21.070,172.270
7428237,-0.402,0.370,0.092,-89.040,-12.530,143.010
7428255,-0.436,0.306,0.084,-37.240,-2.030,146.090
7428279,-0.441,0.622,0.063,-0.070,-13.370,136.430
7428298,-0.381,0.880,0.027,-23.590,-19.810,119.630
7428319,-0.237,0.949,0.003,-56.490,-21.000,96.320
7428339,-0.183,0.846,0.069,-59.360,-10.570,85.050
7428362,-0.130,0.716,0.245,-36.470,-7.070,78.680
7428380,-0.096,0.673,0.318,-2.170,-0.210,85.260
7428403,-0.044,0.949,0.289,10.290,-3.780,79.520
7428424,0.020,0.979,0.200,-17.850,-2.310,62.790
7428444,0.036,0.885,0.163,-21.000,-1.820,48.510
7428464,0.059,0.834,0.189,-13.090,-3.500,31.010
7428605,-0.075,0.621,0.221,54.810,16.450,-109.200
7428628,-0.124,0.799,0.224,37.940,14.350,-129.780
7428647,-0.217,0.763,0.137,11.060,10.290,-151.270
7428667,-0.269,0.613,0.082,3.010,13.300,-166.880
7428687,-0.452,0.433,0.034,-29.050,28.000,-184.100
7428711,-0.590,0.458,0.020,50.400,17.570,-188.930
7428731,-0.752,0.671,-0.084,5.670,11.200,-206.010
7428749,-0.734,0.446,-0.108,-0.350,16.310,-222.320
7428771,-0.834,0.009,-0.244,1.470,48.160,-223.020
7428794,-1.220,0.086,-0.388,88.130,30.800,-204.400
7428815,-1.201,0.317,-0.377,94.640,14.420,-211.190
7428835,-1.138,0.151,-0.407,112.770,27.230,-208.460
7428857,-1.211,0.141,-0.441,130.130,26.040,-203.490
7428881,-1.272,0.112,-0.548,146.930,22.960,-213.430
7428901,-1.412,0.165,-0.622,148.540,31.360,-194.670
7428919,-1.518,0.246,-0.689,122.570,17.500,-199.220
7428941,-1.443,0.261,-0.688,85.400,10.570,-205.870
7428959,-1.304,0.223,-0.628,60.130,35.350,-201.880
7428981,-1.470,0.078,-0.737,49.910,25.690,-189.910
7429001,-1.457,0.070,-0.678,49.420,27.580,-185.710
7429021,-1.360,-0.016,-0.583,63.350,39.690,-174.650
7429041,-1.215,-0.124,-0.488,100.730,49.000,-153.370
7429064,-1.304,-0.125,-0.504,136.990,58.310,-126.840
7429084,-1.483,-0.149,-0.615,153.020,46.060,-112.070
7429108,-1.304,-0.365,-0.373,219.590,40.250,-80.430
7429125,-1.166,-0.253,-0.413,223.930,48.860,-74.830
7429145,-1.083,-0.016,-0.292,257.110,51.800,-56.140
7429165,-1.150,0.162,-0.206,237.860,39.620,-43.610
7429184,-1.195,0.073,-0.186,192.080,22.750,-31.850
7429209,-1.126,0.116,-0.163,152.250,9.940,-9.170
7429229,-1.054,0.163,-0.145,117.040,-0.210,-4.900
7429248,-1.003,0.195,-0.183,50.260,-11.760,0.980
7429268,-1.051,0.286,-0.200,-14.350,-32.410,-2.380
7429288,-1.064,0.088,-0.326,-68.670,-47.530,-1.960
7429312,-1.044,0.036,-0.298,-112.140,-65.170,-12.810
7429331,-0.961,-0.078,-0.267,-124.040,-77.980,-14.840
7429351,-0.963,-0.140,-0.291,-139.510,-76.020,-11.550
7429371,-0.965,-0.234,-0.273,-116.410,-73.850,2.240
7429390,-1.020,-0.209,-0.313,-112.840,-73.850,10.220
7429412,-1.063,-0.231,-0.346,-111.650,-75.460,17.430
7429431,-1.064,-0.211,-0.363,-105.840,-76.580,24.220
7429456,-1.043,-0.175,-0.376,-109.410,-75.530,31.080
7429602,-1.207,-0.240,-0.454,-82.320,-44.170,110.810
7429619,-1.198,-0.240,-0.447,-66.990,-34.650,122.640
7429643,-1.206,-0.230,-0.408,-46.130,-25.060,139.370
7429663,-1.199,-0.207,-0.374,-25.340,-12.040,154.000
7429682,-1.206,-0.150,-0.352,-12.180,-3.080,164.500
7429702,-1.249,-0.090,-0.365,-13.440,2.870,172.480
7429726,-1.251,-0.071,-0.364,-27.790,5.880,178.850
7429741,-1.228,-0.073,-0.352,-36.260,5.810,181.020
7429766,-1.156,-0.062,-0.321,-44.520,7.420,185.290
7429785,-1.129,-0.051,-0.328,-52.220,11.550,187.950
7429802,-1.110,-0.035,-0.317,-58.170,13.300,189.000
7429822,-1.072,-0.058,-0.259,-60.690,17.500,189.560
7429844,-0.994,-0.076,-0.273,-46.900,17.360,200.410
7429863,-0.811,0.247,-0.132,-55.790,29.330,198.030
7429887,-0.732,0.454,-0.015,-78.750,35.490,207.410
7429907,-0.812,0.529,0.093,-104.090,33.250,216.440
7429927,-0.819,0.603,0.058,-147.770,26.040,218.820
7429947,-0.866,0.429,0.020,-174.440,10.640,214.830
7429962,-0.765,0.121,0.048,-153.090,-12.040,223.440
7429986,-0.665,0.171,0.062,-80.290,-7.140,228.900
7430007,-0.663,0.216,0.070,-7.280,-5.740,214.270
7430027,-0.574,0.363,0.069,37.800,-5.950,194.600
7430046,-0.425,0.788,0.203,64.470,-39.060,172.690
7430071,-0.273,0.909,0.339,-26.670,-2.100,114.380
7430217,0.018,1.071,0.284,-53.690,-20.300,0.770
7430235,-0.078,0.985,0.325,-64.540,-3.010,-14.070
7430254,-0.180,0.764,0.240,-35.140,-18.550,-15.330
7430278,-0.063,0.803,0.293,10.290,-9.240,-18.900
7430298,-0.071,0.803,0.351,40.740,5.880,-21.000
7430316,-0.211,0.867,0.403,52.570,7.070,-35.420
7430338,-0.226,1.008,0.425,43.120,-5.110,-50.960
7430358,-0.153,0.960,0.365,21.700,-4.620,-63.980
7430378,-0.172,0.757,0.285,22.750,-0.420,-72.800
7430397,-0.275,0.647,0.180,41.510,2.380,-83.300
7430417,-0.299,0.514,0.170,87.430,1.960,-98.560
7430437,-0.217,0.910,0.344,107.380,-0.630,-93.100
7430461,-0.339,0.792,0.283,64.330,3.430,-105.770
7430479,-0.464,0.712,0.138,58.800,-8.190,-114.730
7430498,-0.450,0.484,0.057,58.590,-2.380,-127.470
7430523,-0.610,0.246,-0.049,100.240,6.090,-136.150
7430543,-0.753,0.477,-0.133,131.460,-4.060,-147.350
7430562,-0.750,0.506,-0.177,117.950,-6.580,-167.440
7430709,-1.234,0.454,-0.496,49.070,-7.210,-208.040
7430729,-1.211,0.345,-0.488,46.830,1.400,-199.780
7430747,-1.240,0.266,-0.490,56.490,10.500,-190.890
7430766,-1.230,0.241,-0.457,65.240,17.710,-178.150
7430785,-1.238,0.175,-0.420,79.240,27.370,-162.680
7430810,-1.270,0.149,-0.459,90.860,29.610,-148.610
7430830,-1.246,0.130,-0.458,95.690,31.430,-139.020
7430849,-1.215,0.079,-0.433,99.680,30.870,-130.130
7430868,-1.242,0.036,-0.409,106.120,35.420,-119.140
7430887,-1.314,0.013,-0.457,111.650,25.830,-108.850
7430912,-1.194,0.120,-0.395,103.460,21.630,-102.900
7430931,-1.101,0.024,-0.368,92.610,15.120,-99.750
7430955,-1.149,-0.019,-0.330,95.200,21.000,-87.430
7430971,-1.162,0.007,-0.297,94.920,17.360,-80.080
7430995,-1.105,0.031,-0.276,83.720,16.100,-75.460
7431015,-1.064,0.001,-0.219,76.930,11.620,-67.690
7431031,-1.024,-0.047,-0.197,75.740,14.280,-56.630
7431055,-1.037,-0.047,-0.160,70.140,12.180,-43.680
7431071,-1.016,-0.085,-0.172,65.870,6.930,-29.750
7431092,-0.987,-0.056,-0.137,47.250,1.610,-20.160
7431113,-1.032,-0.046,-0.221,33.740,-1.120,-12.180
7431134,-1.004,-0.074,-0.238,15.050,-9.590,-9.030
7431153,-1.015,-0.068,-0.237,4.130,-17.500,-6.930
7431178,-1.008,-0.114,-0.217,-11.620,-21.560,17.220
7431196,-1.011,-0.101,-0.206,-22.750,-25.900,4.550
7431217,-0.992,-0.144,-0.202,-33.390,-27.860,11.130
7431238,-1.028,-0.185,-0.224,-41.300,-29.820,18.270
7431260,-1.039,-0.179,-0.232,-42.140,-32.410,26.600
7431284,-1.053,-0.139,-0.249,-49.350,-36.960,30.240
7431304,-1.065,-0.122,-0.270,-60.060,-39.900,31.430
7431321,-1.119,-0.104,-0.320,-71.190,-42.420,31.850
7431344,-1.141,-0.102,-0.366,-81.270,-47.740,31.570
7431365,-1.089,-0.052,-0.378,-92.960,-50.890,34.930
7431389,-1.105,-0.076,-0.397,-102.200,-49.770,43.470
7431407,-1.121,-0.103,-0.404,-102.130,-50.400,51.590
7431431,-1.121,-0.114,-0.414,-96.250,-49.630,68.810
7431448,-1.091,-0.083,-0.416,-89.810,-46.130,80.570
7431468,-1.076,-0.116,-0.379,-80.220,-41.230,99.330
7431487,-1.050,-0.154,-0.342,-65.240,-29.960,119.910
7431510,-1.074,-0.177,-0.344,-47.390,-21.000,142.590
7431530,-1.088,-0.157,-0.367,-33.530,-11.130,156.800
7431553,-1.036,-0.048,-0.361,-31.150,-0.770,169.470
7431572,-1.023,-0.057,-0.342,-32.760,8.750,178.570
7431593,-1.079,-0.082,-0.328,-28.700,15.050,184.380
7431612,-1.057,-0.041,-0.307,-27.440,35.770,184.940
7431636,-1.039,0.010,-0.310,-32.620,22.610,182.700
7431656,-1.019,0.082,-0.313,-42.140,25.410,180.110
7431676,-0.992,0.085,-0.257,-52.640,25.900,176.820
7431818,-0.657,0.376,0.061,-37.870,33.530,141.260
7431839,-0.689,0.499,0.044,-34.230,25.270,130.270
7431863,-0.683,0.627,-0.019,-46.550,16.450,110.810
7431883,-0.572,0.796,0.004,-58.590,1.400,88.900
7431903,-0.497,0.891,0.047,-84.770,3.430,68.040
7431923,-0.603,0.806,0.018,-94.850,-0.210,52.850
7431940,-0.673,0.753,0.027,-90.440,-9.870,40.390
7431960,-0.607,0.744,0.031,-62.790,-16.870,33.740
7431984,-0.568,0.789,0.068,-26.110,-21.840,27.440
7432003,-0.446,0.867,0.108,-6.790,-16.170,22.750
7432024,-0.449,0.914,0.093,-1.050,-14.350,14.630
7432042,-0.443,0.916,0.063,-1.750,-14.210,4.620
7432064,-0.418,0.904,0.046,-0.280,-14.840,-6.020
7432080,-0.395,0.890,0.057,6.090,-14.910,-13.650
7432101,-0.359,0.840,0.049,16.240,-14.210,-26.740
7432125,-0.371,0.811,0.024,23.730,-9.660,-37.170
7432145,-0.420,0.770,-0.015,27.650,-7.420,-49.280
7432165,-0.408,0.681,-0.016,36.330,-5.600,-59.850
7432184,-0.408,0.635,-0.019,45.990,-2.240,-68.880
7432208,-0.418,0.612,-0.054,58.100,1.960,-81.970
7432226,-0.465,0.600,-0.075,61.530,5.530,-93.520
7432245,-0.532,0.586,-0.112,61.320,8.050,-103.810
7432269,-0.583,0.530,-0.165,60.760,10.430,-114.310
7432290,-0.647,0.470,-0.159,69.230,10.360,-122.360
7432433,-1.270,0.439,-0.267,106.190,-22.960,-134.680
7432453,-1.216,0.500,-0.240,93.730,-31.430,-130.690
7432473,-1.228,0.502,-0.281,84.210,-40.390,-122.780
7432493,-1.195,0.500,-0.277,56.770,-49.980,-121.240
7432517,-1.190,0.422,-0.287,29.470,-53.200,-115.150
7432536,-1.232,0.351,-0.331,4.340,-50.120,-113.890
7432553,-1.262,0.239,-0.277,0.840,-48.650,-115.780
7432576,-1.200,0.228,-0.203,6.160,-41.160,-115.430
7432593,-1.150,0.207,-0.175,9.030,-35.700,-110.880
7432613,-1.140,0.145,-0.208,12.530,-27.790,-104.440
7432637,-1.153,0.093,-0.232,19.950,-24.990,-98.140
7432657,-1.045,0.106,-0.224,2.380,-23.100,-101.640
7432676,-0.949,0.118,-0.161,-8.470,-17.010,-102.130
7432697,-0.930,0.058,-0.167,-9.590,-14.280,-99.680
7432717,-0.949,-0.036,-0.137,-4.760,-16.520,-96.740
7432741,-0.933,-0.072,-0.141,-0.630,-8.190,-88.060
7432761,-0.946,-0.062,-0.163,0.000,-10.570,-81.620
7432781,-0.955,-0.097,-0.161,3.290,-9.030,-78.820
7432796,-0.965,-0.126,-0.154,6.580,-8.820,-74.900
7432816,-0.954,-0.106,-0.164,10.430,-8.400,-72.660
7432841,-0.967,-0.130,-0.183,11.130,-5.180,-69.930
7432861,-0.999,-0.142,-0.182,15.470,-0.630,-64.610
7432877,-1.056,-0.155,-0.177,21.560,0.350,-58.310
7432900,-1.046,-0.138,-0.155,28.140,1.400,-45.290
7432916,-1.028,-0.136,-0.163,32.130,2.100,-34.370
7432937,-1.018,-0.127,-0.167,32.900,2.170,-20.300
7432957,-1.030,-0.103,-0.188,31.150,0.910,-8.470
7432981,-1.003,-0.081,-0.188,24.500,-0.980,1.960
7433001,-0.978,-0.077,-0.190,16.450,-0.910,10.010
7433021,-1.004,-0.101,-0.203,10.220,0.700,20.230
7433042,-1.027,-0.067,-0.231,0.840,-1.960,27.090
7433062,-1.022,-0.060,-0.247,-6.090,-1.260,36.680
7433086,-1.032,-0.100,-0.245,-9.380,0.070,48.440
7433106,-1.045,-0.122,-0.242,-5.250,2.590,61.460
7433124,-1.053,-0.122,-0.241,-1.610,4.830,70.210
7433148,-1.057,-0.112,-0.246,0.490,7.700,80.780
7433288,-1.104,0.026,-0.274,-23.660,21.770,103.530
7433312,-1.136,0.070,-0.291,-38.850,18.690,105.070
7433332,-1.084,0.059,-0.273,-59.780,17.150,108.220
7433352,-1.047,0.007,-0.282,-68.600,19.600,114.800
7433370,-1.055,0.000,-0.278,-69.510,21.000,120.540
7433393,-1.030,-0.033,-0.220,-61.670,24.850,130.550
7433412,-1.014,-0.054,-0.214,-50.610,27.370,139.230
7433436,-0.956,0.027,-0.227,-40.880,31.640,145.040
7433456,-0.949,0.056,-0.202,-46.130,36.400,144.620
7433475,-0.918,0.073,-0.165,-44.870,34.860,143.150
7433495,-0.835,0.149,-0.112,-45.220,32.340,138.530
7433515,-0.754,0.216,-0.142,-53.760,34.300,133.700
7433539,-0.752,0.228,-0.160,-59.710,37.870,127.330
7433558,-0.794,0.221,-0.122,-50.400,34.650,122.850
7433578,-0.741,0.290,-0.048,-41.300,28.630,113.540
7433599,-0.670,0.368,-0.070,-36.890,25.550,107.030
7433619,-0.699,0.379,-0.116,-35.140,27.090,98.630
7433641,-0.742,0.439,-0.135,-25.130,19.390,84.280
7433661,-0.749,0.584,-0.137,-18.900,8.680,63.140
7433684,-0.669,0.592,-0.107,-10.850,4.760,53.200
7433704,-0.645,0.873,-0.137,-39.480,0.350,34.720
7433728,-0.635,0.847,-0.171,-61.670,-2.170,13.160
7433748,-0.628,0.831,-0.103,-72.170,4.970,10.220
7433768,-0.671,0.843,-0.077,-56.280,-9.170,6.860
7433786,-0.676,0.860,-0.140,-42.980,-7.000,11.060
7433806,-0.756,0.733,-0.224,-46.830,-16.030,14.000
7433830,-0.669,0.828,-0.128,-4.480,-9.660,10.570
7433849,-0.603,0.710,-0.022,2.800,-12.600,11.060
7433869,-0.609,0.785,-0.068,41.580,-0.070,10.640
7433890,-0.623,0.850,-0.125,28.980,-1.120,-0.770
7434033,-0.674,0.523,-0.183,37.870,-10.920,-85.050
7434057,-0.761,0.488,-0.235,44.030,-9.310,-95.760
7434077,-0.851,0.569,-0.313,37.380,-12.320,-109.970
7434095,-0.878,0.614,-0.298,25.900,-14.280,-118.720
7434114,-0.984,0.500,-0.301,30.590,-11.970,-119.910
7434137,-1.060,0.500,-0.311,41.440,-14.910,-122.290
7434158,-1.028,0.549,-0.319,44.870,-13.090,-124.390
7434177,-1.038,0.542,-0.331,47.390,-12.810,-123.690
7434197,-1.052,0.533,-0.328,46.830,-12.320,-122.150
7434217,-1.052,0.497,-0.311,40.600,-13.230,-121.520
7434236,-1.042,0.431,-0.298,39.060,-13.930,-118.230
7434261,-1.024,0.399,-0.315,40.250,-15.890,-112.140
7434281,-1.027,0.380,-0.336,37.450,-16.730,-110.460
7434299,-0.999,0.334,-0.318,30.800,-15.540,-110.110
7434321,-0.993,0.248,-0.266,31.710,-12.740,-105.280
7434345,-1.030,0.157,-0.305,51.450,-18.480,-100.590
7434364,-0.977,0.175,-0.259,43.050,-9.590,-96.670
7434385,-0.955,0.105,-0.230,42.840,-1.750,-91.070
7434409,-0.996,0.027,-0.208,51.100,-0.560,-80.290
7434429,-1.038,0.038,-0.230,56.420,-3.150,-72.800
7434448,-1.039,0.056,-0.225,51.870,-4.830,-69.160
7434469,-1.008,0.031,-0.217,47.950,-9.450,-70.210
7434488,-0.987,-0.018,-0.244,49.350,-8.680,-64.400
7434513,-1.077,-0.002,-0.315,49.000,-20.650,-66.290
7434531,-1.070,-0.038,-0.223,38.290,-18.480,-67.620
7434554,-1.031,0.018,-0.212,27.720,-22.890,-75.040
7434575,-0.986,-0.069,-0.208,14.280,-19.320,-76.720
7434593,-1.021,-0.042,-0.221,12.950,-20.510,-77.770
7434614,-0.979,-0.075,-0.199,10.150,-19.460,-75.880
7434638,-0.959,-0.102,-0.183,12.250,-17.570,-68.740
7434657,-0.978,-0.108,-0.193,16.870,-17.220,-58.380
7434675,-1.030,-0.114,-0.193,17.850,-18.480,-46.690
7434697,-0.994,-0.113,-0.172,15.400,-21.280,-34.790
7434721,-0.945,-0.108,-0.153,8.680,-20.440,-20.370
7434740,-0.956,-0.155,-0.163,7.070,-20.300,-11.760
7434761,-0.972,-0.184,-0.148,6.160,-20.370,-0.490
7434903,-1.015,-0.146,-0.190,-18.550,-14.980,26.460
7434928,-1.007,-0.175,-0.193,-21.840,-12.880,31.780
7434946,-1.020,-0.183,-0.199,-21.980,-11.130,35.630
7434968,-1.034,-0.151,-0.221,-22.120,-10.220,41.930
7434987,-1.042,-0.136,-0.231,-27.510,-9.100,45.500
7435012,-1.052,-0.137,-0.234,-31.710,-7.910,50.540
7435028,-1.044,-0.145,-0.243,-32.200,-6.650,54.180
7435049,-1.033,-0.129,-0.245,-30.170,-3.220,59.780
7435069,-1.062,-0.126,-0.229,-24.640,-1.680,65.310
7435089,-1.065,-0.102,-0.239,-21.980,-0.420,70.910
7435112,-1.041,-0.083,-0.238,-22.960,0.700,75.320
7435136,-1.044,-0.119,-0.237,-19.460,3.080,80.290
7435151,-1.081,-0.110,-0.213,-12.530,3.990,81.900
7435176,-1.075,-0.026,-0.197,-14.770,4.130,83.300
7435194,-1.030,0.031,-0.191,-26.740,3.780,81.760
7435214,-0.973,-0.004,-0.176,-35.840,6.020,81.830
7435238,-0.990,-0.054,-0.125,-31.360,8.890,88.550
7435258,-0.964,-0.035,-0.085,-13.580,9.100,97.580
7435275,-0.949,-0.000,-0.095,-10.080,12.600,103.600
7435295,-0.958,0.049,-0.115,-13.300,14.490,107.030
7435319,-0.906,0.068,-0.091,-18.130,16.660,111.720
7435339,-0.928,0.044,-0.051,-17.290,18.130,115.990
7435359,-0.947,0.080,-0.077,-8.960,16.100,119.560
7435374,-0.889,0.211,-0.093,-16.940,14.910,117.460
7435398,-0.823,0.207,-0.083,-28.630,15.190,111.510
7435419,-0.825,0.213,-0.065,-28.140,15.190,110.530
7435438,-0.840,0.264,-0.107,-26.180,13.020,106.960
7435458,-0.799,0.293,-0.139,-30.030,10.780,98.490
7435479,-0.759,0.367,-0.082,-32.830,10.220,92.190
7435503,-0.756,0.394,-0.116,-38.360,11.200,84.700
7435646,-0.843,0.650,-0.172,-27.930,2.660,7.070
7435665,-0.876,0.629,-0.117,-17.570,3.010,8.610
7435690,-0.845,0.648,-0.089,2.310,-3.150,8.400
7435708,-0.793,0.716,-0.100,10.430,-2.940,10.570
7435727,-0.798,0.716,-0.114,6.160,-1.470,9.590
7435751,-0.798,0.736,-0.136,11.900,-5.950,2.240
7435766,-0.846,0.681,-0.232,21.420,-7.630,7.280
7435786,-0.788,0.840,-0.098,13.370,-10.360,5.180
7435811,-0.808,0.768,-0.137,6.860,-11.480,-0.700
7435830,-0.793,0.763,-0.170,6.300,-9.030,-2.450
7435853,-0.757,0.750,-0.148,2.730,-2.380,-8.820
7435874,-0.732,0.700,-0.103,2.800,2.450,-13.370
7435897,-0.733,0.665,-0.113,9.660,5.670,-19.110
7435917,-0.721,0.642,-0.156,10.010,6.790,-26.110
7435937,-0.700,0.565,-0.167,8.400,8.120,-32.060
7435961,-0.671,0.491,-0.174,18.900,10.220,-38.500
7435981,-0.706,0.495,-0.164,30.520,10.360,-44.940
7435998,-0.745,0.496,-0.161,31.290,8.330,-53.270
7436022,-0.751,0.437,-0.182,32.130,7.980,-61.810
7436042,-0.852,0.401,-0.224,37.030,8.680,-68.040
7436065,-0.943,0.438,-0.245,36.890,5.390,-77.630
7436083,-0.979,0.413,-0.209,36.610,2.310,-84.560
7436107,-1.006,0.397,-0.213,42.280,-1.120,-88.900
7436127,-1.036,0.431,-0.243,42.350,-3.150,-93.170
7436144,-1.026,0.463,-0.229,38.290,-5.670,-96.040
7436167,-1.026,0.402,-0.218,36.470,-6.230,-94.850
7436187,-1.095,0.361,-0.224,38.430,-8.960,-93.170
7436207,-1.109,0.380,-0.235,38.150,-12.950,-90.580
7436228,-1.090,0.358,-0.247,35.140,-16.520,-91.280
7436252,-1.075,0.357,-0.256,32.060,-16.730,-90.510
7436272,-1.091,0.349,-0.260,22.050,-19.740,-91.560
7436290,-1.044,0.304,-0.244,16.100,-20.650,-91.210
7436314,-1.039,0.249,-0.228,14.560,-22.050,-88.690
7436334,-1.035,0.246,-0.217,14.140,-23.380,-83.370
7436352,-1.034,0.182,-0.247,15.540,-29.680,-82.110
7436373,-0.958,0.174,-0.204,6.300,-24.850,-82.110
7436393,-0.941,0.147,-0.201,6.370,-23.870,-78.330
7436414,-0.931,0.108,-0.189,4.130,-21.770,-72.380
7436432,-0.962,0.067,-0.227,6.160,-23.870,-69.580
7436453,-0.921,0.060,-0.198,-3.150,-19.250,-67.340
7436477,-0.899,0.006,-0.176,-1.120,-16.660,-64.120
7436496,-0.920,-0.043,-0.169,6.930,-10.220,-57.190
7436640,-0.991,-0.061,-0.159,4.760,-6.860,-42.840
7436656,-0.985,-0.138,-0.129,6.720,-6.580,-39.480
7436675,-0.996,-0.131,-0.135,8.330,-7.280,-37.730
7436698,-0.974,-0.148,-0.135,11.410,-6.860,-33.180
7436721,-0.977,-0.150,-0.152,14.700,-6.930,-28.350
7436737,-0.988,-0.142,-0.161,14.910,-7.280,-26.040
7436762,-1.002,-0.132,-0.171,11.410,-7.140,-21.490
7436782,-1.011,-0.135,-0.172,5.530,-7.140,-17.220
7436806,-1.016,-0.157,-0.174,0.840,-6.720,-9.730
7436826,-0.994,-0.175,-0.170,2.730,-5.740,-3.920
7436844,-0.981,-0.174,-0.175,4.200,-4.200,1.890
7436868,-0.976,-0.175,-0.183,7.140,-2.100,8.750
7436888,-0.981,-0.173,-0.189,10.850,0.910,15.960
7436908,-1.006,-0.162,-0.201,12.600,1.820,22.750
7436928,-1.022,-0.150,-0.202,12.110,1.400,26.810
7436946,-1.020,-0.129,-0.197,10.500,1.120,29.400
7436967,-1.032,-0.102,-0.197,5.530,0.420,31.500
7436990,-1.027,-0.074,-0.211,-4.270,-0.910,33.460
7437131,-1.023,-0.020,-0.214,-13.440,4.270,74.830
7437151,-1.052,0.018,-0.210,-9.660,3.430,80.080
7437171,-1.021,0.092,-0.230,-13.860,1.330,82.810
7437190,-1.007,0.118,-0.238,-26.040,1.330,84.420
7437215,-1.010,0.110,-0.216,-31.850,-0.700,87.220
7437235,-0.997,0.089,-0.202,-35.840,-1.400,88.340
7437255,-0.974,0.037,-0.205,-33.040,-0.420,89.530
7437275,-0.988,-0.001,-0.221,-22.470,3.920,90.300
7437294,-0.986,0.065,-0.211,-21.280,7.490,89.040
7437315,-0.984,0.025,-0.155,-21.910,10.290,84.490
7437332,-0.971,0.018,-0.127,-22.260,9.520,80.570
7437356,-0.916,0.013,-0.163,-27.370,9.590,75.460
7437374,-0.915,-0.035,-0.216,-24.990,10.360,71.190
7437394,-0.906,-0.058,-0.183,-14.770,9.170,65.730
7437417,-0.908,-0.039,-0.142,1.680,10.920,57.820
7437437,-0.819,0.122,-0.115,15.330,15.470,56.980
7437456,-0.866,0.204,-0.098,22.120,22.610,62.160
7437481,-0.950,0.346,-0.001,32.690,10.920,61.180
7437501,-0.861,0.325,0.096,8.330,27.930,67.620
7437520,-0.831,0.508,-0.021,25.200,10.990,72.450
7437541,-0.837,0.692,-0.112,-18.760,14.840,69.090
7437557,-0.873,0.580,-0.122,-40.530,11.690,65.100
7437577,-0.967,0.599,-0.075,-48.160,5.320,62.860
7437601,-0.964,0.624,-0.140,-78.050,-4.550,54.250
7437621,-0.934,0.519,-0.258,-81.550,-4.760,48.230
7437640,-1.055,0.551,-0.292,-71.470,-14.070,39.620
7437659,-0.987,0.551,-0.194,-77.070,-12.950,33.250
7437684,-0.967,0.428,-0.149,-50.610,-15.470,33.110
7437704,-0.937,0.397,-0.150,-22.400,-11.760,35.420
7437724,-0.866,0.450,-0.123,3.920,-6.650,35.770
7437865,-0.795,0.551,-0.198,11.760,1.330,-26.460
7437885,-0.754,0.510,-0.187,14.350,0.070,-37.730
7437905,-0.747,0.531,-0.217,17.430,2.520,-44.310
7437929,-0.778,0.489,-0.242,18.760,4.410,-53.340
7437949,-0.784,0.458,-0.213,27.020,6.090,-57.750
7437969,-0.766,0.465,-0.202,33.950,10.990,-61.040
7437984,-0.809,0.436,-0.244,35.560,14.560,-64.400
7438004,-0.888,0.445,-0.240,38.990,14.910,-70.840
7438029,-0.878,0.427,-0.234,37.660,15.610,-78.890
7438048,-0.886,0.390,-0.256,38.360,16.450,-81.410
7438069,-0.970,0.380,-0.267,42.770,13.230,-83.650
7438089,-1.006,0.395,-0.274,40.390,6.930,-87.080
7438105,-0.998,0.380,-0.291,35.700,4.340,-88.830
7438128,-1.040,0.366,-0.305,33.950,2.450,-89.880
7438149,-1.065,0.362,-0.334,33.390,0.280,-91.490
7438169,-1.075,0.332,-0.304,35.210,-2.800,-90.090
7438189,-1.065,0.310,-0.307,31.920,-3.290,-87.990
7438208,-1.089,0.315,-0.309,32.970,-5.810,-85.330
7438232,-1.137,0.307,-0.298,24.710,-9.310,-84.070
7438251,-1.097,0.271,-0.288,25.480,-10.290,-80.150
7438271,-1.062,0.247,-0.254,22.960,-10.920,-74.690
7438290,-1.043,0.178,-0.229,23.030,-12.530,-67.970
7438315,-1.040,0.139,-0.218,26.670,-15.820,-58.730
7438335,-1.022,0.179,-0.148,19.810,-19.600,-56.350
7438483,-0.953,-0.039,-0.192,-14.350,-27.580,-56.910
7438501,-0.966,-0.072,-0.194,-9.100,-24.430,-55.650
7438521,-0.949,-0.092,-0.183,-6.720,-22.050,-55.370
7438541,-0.946,-0.144,-0.196,2.590,-20.370,-54.180
7438561,-0.928,-0.130,-0.184,6.230,-18.270,-52.640
7438582,-0.932,-0.151,-0.179,5.740,-18.760,-52.640
7438604,-0.954,-0.171,-0.185,11.130,-19.600,-49.420
7438624,-0.961,-0.176,-0.196,14.070,-20.580,-47.180
7438648,-0.945,-0.210,-0.173,11.760,-21.700,-47.320
7438668,-0.920,-0.215,-0.174,9.310,-21.910,-47.180
7438688,-0.919,-0.197,-0.166,10.850,-20.580,-45.150
7438708,-0.938,-0.228,-0.150,13.370,-18.130,-42.770
7438732,-0.933,-0.256,-0.145,15.190,-19.250,-42.210
7438752,-0.943,-0.150,-0.131,18.200,-17.780,-39.340
7438770,-0.895,-0.229,-0.145,17.150,-17.010,-37.730
7438791,-0.862,-0.266,-0.121,14.910,-15.190,-34.160
7438815,-0.916,-0.285,-0.136,24.360,-8.120,-22.400
7438839,-0.956,-0.216,-0.161,16.940,-16.520,-26.110
7438857,-0.940,-0.243,-0.141,18.200,-14.070,-21.770
7438879,-0.966,-0.252,-0.143,5.880,-8.190,-15.120
7438899,-1.006,-0.299,-0.147,9.170,-4.760,-7.560
7438916,-1.065,-0.316,-0.144,14.210,-1.400,2.030
7438940,-1.083,-0.274,-0.156,21.210,-3.360,6.720
7438960,-1.027,-0.267,-0.138,25.970,-1.540,11.130
7438980,-1.036,-0.202,-0.126,22.890,-0.840,12.460
7438999,-1.035,-0.199,-0.116,20.230,-0.210,13.580
7439019,-0.987,-0.186,-0.091,15.260,2.660,18.550
7439041,-1.014,-0.165,-0.093,14.560,4.900,22.120
7439064,-1.043,-0.157,-0.102,8.470,2.520,28.630
7439084,-1.035,-0.163,-0.119,7.420,2.170,36.120
7439102,-1.016,-0.179,-0.127,7.560,2.730,42.980
7439126,-1.015,-0.152,-0.001,10.850,4.060,50.890
7439144,-1.021,-0.102,-0.110,7.210,4.550,56.000
7439166,-1.024,-0.104,-0.127,-5.600,5.040,61.950
7439186,-1.027,-0.129,-0.140,-13.720,4.900,68.250
7439210,-1.013,-0.164,-0.149,-13.510,5.600,75.670
7439352,-0.908,-0.043,-0.171,-16.940,22.120,89.040
7439370,-0.903,0.034,-0.174,-23.380,25.130,89.110
7439389,-0.953,0.017,-0.177,-28.490,25.900,89.040
7439413,-0.946,0.008,-0.171,-28.910,26.250,90.370
7439432,-0.918,0.018,-0.161,-19.880,26.600,90.930
7439456,-0.931,0.063,-0.194,-13.580,31.570,91.000
7439474,-0.973,0.096,-0.193,-9.730,32.410,87.150
7439496,-1.020,0.168,-0.133,-9.520,26.180,80.920
7439516,-0.967,0.210,-0.169,-17.080,20.930,72.590
7439535,-0.930,0.279,-0.217,-32.550,20.860,64.610
7439560,-0.987,0.253,-0.235,-41.160,16.800,57.260
7439580,-1.001,0.226,-0.177,-35.910,12.460,53.480
7439597,-0.944,0.179,-0.103,-19.180,12.670,55.720
7439621,-0.860,0.349,-0.098,-8.470,16.520,63.560
7439640,-0.867,0.408,-0.153,-24.570,19.460,64.680
7439664,-0.909,0.301,-0.152,-29.890,20.160,65.870
7439679,-0.911,0.276,-0.072,-26.040,18.410,66.640
7439704,-0.815,0.372,-0.064,-9.450,16.800,71.540
7439723,-0.765,0.431,-0.091,-13.720,17.500,69.090
7439747,-0.838,0.399,-0.169,-17.430,16.660,61.110
7439767,-0.892,0.413,-0.220,-19.460,9.450,51.660
7439787,-0.850,0.366,-0.206,-17.360,4.130,37.240
7439807,-0.825,0.520,-0.233,-9.660,2.870,28.420
7439831,-0.825,0.675,-0.250,-41.300,5.390,7.350
7439847,-0.860,0.587,-0.257,-56.420,-13.790,-11.130
7439870,-0.852,0.484,-0.234,-57.820,-10.920,-14.770
7439889,-0.879,0.522,-0.269,-61.670,-7.140,-20.230
7439910,-0.885,0.551,-0.319,-34.020,-12.950,-27.790
7439934,-0.856,0.579,-0.295,-24.290,-13.860,-30.450
7439954,-0.869,0.557,-0.305,-10.430,-9.660,-28.350
7440101,-0.957,0.565,-0.210,46.550,22.400,-37.240
7440118,-0.952,0.517,-0.247,34.300,18.970,-42.070
7440139,-1.036,0.448,-0.241,27.090,10.360,-47.320
7440163,-1.041,0.428,-0.254,20.160,-3.850,-55.090
7440182,-0.990,0.388,-0.262,18.900,-9.310,-58.940
7440200,-1.001,0.342,-0.280,23.170,-14.140,-61.670
7440221,-0.987,0.300,-0.268,27.790,-16.590,-65.590
7440244,-0.994,0.260,-0.249,32.690,-18.060,-68.530
7440264,-1.010,0.276,-0.255,42.210,-20.020,-67.760
7440285,-1.028,0.305,-0.264,42.210,-17.990,-69.020
7440309,-1.026,0.314,-0.229,31.920,-19.110,-74.620
7440328,-0.987,0.249,-0.236,23.800,-18.130,-78.120
7440347,-1.013,0.272,-0.367,13.230,-17.570,-79.450
7440369,-1.028,0.224,-0.267,17.290,-20.510,-78.610
7440389,-0.983,0.193,-0.256,16.450,-22.190,-76.860
7440409,-0.986,0.165,-0.272,16.100,-21.070,-72.170
7440433,-1.051,0.122,-0.274,16.590,-22.190,-68.810
7440450,-1.040,0.098,-0.236,19.250,-22.750,-68.810
7440473,-0.960,0.090,-0.197,23.450,-21.490,-67.550
7440492,-0.946,0.077,-0.226,23.660,-19.810,-67.200
7440517,-0.974,0.050,-0.242,15.750,-16.940,-69.510
7440537,-0.980,0.061,-0.213,9.030,-17.570,-70.000
7440555,-0.981,-0.003,-0.181,9.380,-20.300,-68.390
7440574,-0.994,-0.062,-0.191,16.730,-19.530,-64.960
7440597,-1.015,-0.024,-0.219,23.380,-21.420,-64.750
7440621,-0.991,-0.005,-0.217,12.740,-20.090,-69.230
7440641,-0.968,-0.067,-0.192,8.540,-18.690,-71.400
7440657,-0.991,-0.095,-0.201,13.020,-17.570,-69.790
7440680,-0.997,-0.101,-0.191,13.160,-15.120,-68.530
7440700,-0.995,-0.134,-0.188,17.290,-12.460,-65.870
7440846,-0.918,-0.224,-0.154,13.860,-13.020,-31.500
7440865,-0.960,-0.185,-0.160,8.610,-14.140,-29.610
7440884,-0.954,-0.216,-0.158,2.380,-12.740,-25.340
7440908,-0.963,-0.247,-0.154,0.700,-10.570,-17.570
7440928,-0.917,-0.266,-0.135,3.500,-10.430,-12.040
7440947,-0.916,-0.249,-0.150,4.690,-8.890,-7.490
7440970,-0.912,-0.244,-0.153,5.740,-7.420,-1.470
7440991,-0.918,-0.249,-0.153,4.060,-6.090,5.530
7441011,-0.944,-0.290,-0.158,5.390,-0.910,15.470
7441031,-1.009,-0.164,-0.188,-3.780,-4.830,13.580
7441050,-0.946,-0.258,-0.183,-12.810,-3.710,16.100
7441067,-0.952,-0.248,-0.181,-15.330,-1.400,20.160
7441086,-0.961,-0.264,-0.169,-16.030,1.470,26.600
7441111,-0.987,-0.280,-0.174,-11.200,3.640,35.910
7441131,-0.999,-0.265,-0.169,-6.160,5.810,43.330
7441149,-1.003,-0.237,-0.171,-7.350,4.970,46.410
7441168,-1.011,-0.253,-0.164,-6.020,5.390,50.400
7441192,-1.005,-0.221,-0.168,-5.250,5.740,55.020
7441214,-1.031,-0.209,-0.171,-5.810,6.510,59.430
7441231,-1.072,-0.194,-0.170,-7.350,4.900,61.250
7441256,-1.041,-0.144,-0.183,-11.060,3.360,63.140
7441276,-1.016,-0.115,-0.190,-16.590,4.060,64.470
7441300,-1.012,-0.120,-0.181,-16.940,6.650,68.880
7441319,-1.000,-0.097,-0.192,-8.190,5.810,71.330
7441339,-0.979,-0.062,-0.220,-3.360,7.140,74.410
7441360,-0.978,0.015,-0.201,-9.100,10.290,74.690
7441380,-0.967,0.064,-0.203,-20.930,11.690,75.180
7441396,-0.959,0.013,-0.183,-26.460,13.090,77.910
7441415,-0.937,0.021,-0.178,-22.960,16.240,85.050
7441439,-0.971,0.031,-0.178,-23.520,16.590,92.820
7441460,-0.966,0.043,-0.191,-24.920,15.820,98.350
7441480,-0.957,0.014,-0.208,-23.660,16.520,103.670
7441499,-0.937,0.069,-0.211,-17.850,20.090,108.010
7441520,-0.916,0.148,-0.222,-21.910,23.520,107.800
7441540,-0.962,0.119,-0.224,-21.210,28.490,109.970
7441558,-1.023,0.093,-0.226,-20.090,29.120,109.970
7441580,-0.992,0.139,-0.217,-20.580,28.350,105.980
7441599,-0.925,0.224,-0.218,-32.760,30.240,99.960
7441619,-0.957,0.213,-0.232,-38.640,28.980,95.270
7441639,-0.966,0.240,-0.254,-41.580,26.950,90.440
7441663,-0.963,0.282,-0.264,-44.660,20.580,80.780
7441678,-0.882,0.278,-0.245,-45.150,20.090,74.480
7441825,-0.840,0.586,-0.233,-29.750,11.970,36.260
7441849,-0.858,0.596,-0.228,-24.430,11.410,34.370
7441868,-1.098,0.627,-0.271,-16.030,-2.240,36.260
7441889,-0.897,0.610,-0.203,-1.960,-1.890,33.320
7441909,-0.807,0.652,-0.131,15.400,1.190,33.670
7441928,-0.839,0.675,-0.174,15.680,0.770,31.570
7441952,-0.895,0.758,-0.193,3.990,-7.350,23.660
7441972,-0.809,0.770,-0.202,-12.740,-13.650,14.140
7441989,-0.744,0.762,-0.216,-26.460,-15.610,6.300
7442009,-0.730,0.733,-0.221,-36.750,-15.960,-0.420
7442030,-0.751,0.692,-0.189,-42.210,-16.800,-6.370
7442053,-0.705,0.618,-0.173,-35.910,-16.170,-12.320
7442072,-0.660,0.554,-0.197,-21.770,-10.500,-15.610
7442093,-0.673,0.553,-0.207,-1.540,-4.620,-18.970
7442113,-0.729,0.529,-0.170,15.680,-1.890,-23.660
7442132,-0.717,0.529,-0.152,28.210,-4.060,-29.190
7442156,-0.728,0.505,-0.233,36.190,-3.500,-36.820
7442180,-0.788,0.494,-0.245,33.110,-2.730,-48.370
7442200,-0.810,0.465,-0.219,37.170,-6.440,-57.400
7442220,-0.787,0.426,-0.245,36.750,-7.910,-65.940
7442240,-0.811,0.383,-0.262,39.690,-4.690,-73.640
7442260,-0.897,0.399,-0.254,43.820,-5.460,-79.870
7442280,-0.944,0.389,-0.240,42.770,-7.700,-86.590
7442299,-0.975,0.347,-0.282,44.170,-8.750,-91.490
7442442,-1.040,0.296,-0.287,42.840,-19.740,-110.250
7442462,-1.034,0.218,-0.280,42.420,-17.920,-109.900
7442482,-1.034,0.156,-0.261,44.520,-15.890,-107.380
7442501,-1.028,0.077,-0.245,50.680,-15.540,-102.130
7442520,-1.043,0.020,-0.252,59.290,-12.950,-96.180
7442544,-1.078,-0.069,-0.263,74.410,-12.740,-92.260
7442563,-1.076,0.021,-0.241,77.140,-16.310,-92.750
7442587,-1.073,-0.011,-0.239,77.000,-15.890,-90.160
7442607,-1.065,-0.052,-0.230,66.010,-18.900,-90.510
7442627,-1.084,0.018,-0.229,59.990,-28.000,-99.050
7442643,-1.049,-0.136,-0.188,56.980,-33.320,-101.360
7442667,-1.037,-0.175,-0.193,65.940,-33.600,-99.820
7442683,-1.033,-0.147,-0.191,60.550,-34.020,-101.430
7442707,-1.050,-0.086,-0.229,46.130,-42.630,-112.280
7442727,-1.024,-0.145,-0.153,35.490,-43.470,-112.490
7442744,-1.024,-0.189,-0.152,30.800,-40.810,-106.610
7442763,-1.054,-0.246,-0.123,29.890,-40.320,-95.340
7442788,-1.005,-0.246,-0.103,31.780,-39.270,-81.690
7442805,-0.964,-0.245,-0.094,31.640,-35.700,-70.490
7442829,-0.980,-0.222,-0.107,31.710,-37.730,-62.580
7442847,-0.937,-0.284,-0.135,34.720,-48.160,-58.240
7442869,-0.905,-0.205,-0.074,20.720,-35.420,-49.560
7442889,-0.913,-0.215,-0.102,14.910,-32.900,-45.920
7442905,-0.908,-0.208,-0.098,9.240,-36.400,-43.680
7443056,-0.872,-0.244,-0.118,-45.150,-20.020,33.530
7443080,-0.896,-0.263,-0.129,-49.630,-16.660,46.830
7443100,-0.926,-0.269,-0.143,-54.180,-13.510,56.770
7443120,-0.942,-0.278,-0.164,-59.080,-9.660,67.130
7443140,-0.957,-0.296,-0.181,-62.090,-5.320,76.580
7443160,-0.989,-0.315,-0.182,-61.320,-0.070,84.910
7443183,-1.000,-0.342,-0.180,-53.760,5.950,95.200
7443203,-1.034,-0.358,-0.182,-44.030,11.130,104.370
7443222,-1.091,-0.376,-0.208,-31.920,14.840,111.230
7443247,-1.093,-0.336,-0.183,-26.040,20.650,114.940
7443266,-1.095,-0.353,-0.186,-14.980,22.260,116.340
7443286,-1.051,-0.334,-0.149,-8.960,32.830,116.760
7443310,-1.118,-0.256,-0.170,0.700,33.390,110.880
7443328,-1.100,-0.277,-0.133,0.140,31.990,106.610
7443352,-1.072,-0.252,-0.096,3.500,33.180,101.920
7443372,-1.020,-0.222,-0.116,1.750,34.720,97.300
7443392,-1.036,-0.139,-0.159,-5.040,28.280,86.170
7443412,-0.971,-0.125,-0.127,-10.430,24.710,81.760
7443565,-0.934,0.125,-0.228,9.660,21.560,73.640
7443585,-0.913,0.273,-0.155,-9.030,30.030,74.270
7443602,-0.983,0.310,-0.190,-19.250,17.150,66.920
7443622,-0.875,0.145,-0.117,-40.390,21.210,69.790
7443645,-0.902,0.295,-0.207,-41.370,23.100,71.820
7443666,-0.905,0.235,-0.225,-54.250,19.390,70.070
7443686,-0.882,0.170,-0.183,-48.580,17.080,69.860
7443704,-0.883,0.125,-0.182,-37.100,18.830,70.140
7443723,-0.938,0.118,-0.152,-59.640,16.870,45.150
7443743,-0.969,0.076,-0.220,-132.650,0.140,-8.330
7443767,-0.655,-0.106,-0.093,-174.300,27.020,-31.220
7443788,-0.804,-0.468,-0.357,-91.980,18.620,-36.120
7443808,-0.773,-0.493,-0.287,41.090,22.610,-30.380
7443827,-0.818,-0.223,-0.278,124.810,21.280,-30.450
7443851,-0.849,0.024,-0.281,185.430,15.610,-39.900
7443871,-0.913,0.195,-0.291,186.620,8.820,-58.030
7443890,-1.110,0.319,-0.288,176.330,-2.870,-79.520
7443910,-1.120,0.396,-0.291,122.710,-6.930,-104.440
7443934,-1.140,0.391,-0.358,61.320,-6.300,-132.230
7443953,-1.237,0.372,-0.465,14.000,-10.360,-145.250
7443973,-1.149,0.485,-0.469,-40.880,-3.500,-159.110
7443997,-1.195,0.381,-0.444,-45.290,2.450,-148.540
7444017,-1.270,0.311,-0.485,-42.140,6.790,-130.900
7444035,-1.259,0.269,-0.454,-14.770,7.210,-114.730
7444183,-1.060,0.163,-0.306,-10.290,6.790,27.790
7444202,-1.055,0.102,-0.323,-8.680,-2.660,34.020
7444222,-0.978,0.036,-0.345,1.330,-13.790,40.110
7444246,-0.956,0.021,-0.353,-2.520,-8.960,42.280
7444264,-0.915,-0.030,-0.311,-5.600,-17.290,40.530
7444286,-0.938,-0.061,-0.295,-0.280,-15.890,37.030
7444310,-0.898,-0.095,-0.328,3.570,-18.130,30.100
7444329,-0.943,-0.142,-0.346,-2.240,-18.760,22.750
7444347,-0.931,-0.167,-0.305,-4.340,-17.710,14.070
7444366,-1.010,-0.153,-0.272,5.810,-24.290,10.290
7444391,-1.046,-0.128,-0.325,5.320,-23.240,0.770
7444411,-1.057,-0.183,-0.331,11.900,-24.640,-4.970
7444426,-1.006,-0.186,-0.274,7.490,-16.660,-12.040
7444451,-0.992,-0.213,-0.242,13.790,-13.300,-21.210
7444468,-1.017,-0.210,-0.261,16.940,-13.860,-28.910
7444492,-1.019,-0.196,-0.204,15.330,-23.520,-39.690
7444512,-1.020,-0.195,-0.141,29.050,-21.490,-41.580
7444528,-1.001,-0.216,-0.164,23.100,-23.310,-51.870
7444674,-1.049,-0.142,-0.201,20.230,-42.000,-87.780
7444693,-0.985,-0.302,-0.184,16.240,-36.960,-85.610
7444712,-0.945,-0.280,-0.170,10.920,-36.890,-85.610
7444737,-0.921,-0.225,-0.167,15.610,-32.760,-78.540
7444756,-0.931,-0.207,-0.164,15.820,-33.250,-73.150
7444780,-0.938,-0.207,-0.175,19.810,-31.780,-65.380
7444797,-0.940,-0.222,-0.188,22.330,-28.280,-59.570
7444816,-0.943,-0.266,-0.194,25.480,-25.060,-52.640
7444841,-0.924,-0.282,-0.183,31.990,-21.000,-42.980
7444861,-0.910,-0.266,-0.174,36.190,-17.080,-33.950
7444877,-0.917,-0.243,-0.182,35.700,-14.490,-28.280
7444900,-0.917,-0.237,-0.176,37.240,-12.040,-16.940
7444917,-0.892,-0.221,-0.157,36.890,-10.290,-9.660
7444937,-0.874,-0.216,-0.154,30.030,-6.930,-1.890
7444961,-0.885,-0.227,-0.159,21.630,-5.110,8.330
7444981,-0.866,-0.244,-0.144,16.870,-2.730,16.590
7445005,-0.871,-0.265,-0.133,14.140,2.100,28.070
7445025,-0.923,-0.269,-0.138,13.090,5.600,36.050
7445045,-0.932,-0.251,-0.133,12.250,7.980,44.240
7445065,-0.943,-0.257,-0.132,8.750,10.150,50.610
7445084,-0.938,-0.262,-0.118,9.170,13.440,56.420
7445108,-0.966,-0.216,-0.113,4.550,16.380,63.000
7445128,-1.016,-0.230,-0.137,-0.420,17.290,66.080
7445148,-1.004,-0.229,-0.108,-0.630,18.690,70.070
7445291,-0.990,-0.116,-0.147,-12.390,16.660,78.400
7445311,-0.957,-0.094,-0.170,-18.900,17.640,78.190
7445335,-0.959,-0.116,-0.164,-23.100,18.270,79.870
7445355,-0.961,-0.133,-0.140,-19.600,17.640,80.710
7445374,-0.907,-0.123,-0.138,-17.780,18.690,79.940
7445393,-0.868,-0.083,-0.143,-16.240,21.700,79.940
7445418,-0.846,-0.094,-0.152,-15.680,25.550,79.100
7445438,-0.857,-0.110,-0.132,-9.030,27.440,77.560
7445458,-0.891,-0.097,-0.150,-3.010,25.200,74.130
7445478,-0.916,-0.044,-0.156,-7.140,23.590,66.570
7445498,-0.913,-0.037,-0.176,-14.070,20.370,57.190
7445516,-0.874,-0.047,-0.193,-16.730,20.370,46.130
7445540,-0.898,-0.062,-0.179,-9.450,21.140,33.740
7445560,-0.909,-0.006,-0.180,-4.200,21.280,24.360
7445580,-0.923,0.020,-0.214,-12.600,23.100,12.880
7445600,-0.916,-0.012,-0.241,-8.400,19.180,3.850
7445619,-0.887,-0.043,-0.231,16.800,20.580,-5.600
7445638,-0.923,-0.061,-0.271,8.820,21.490,-16.450
7445786,-0.991,0.115,-0.479,56.070,23.730,-72.730
7445810,-1.030,0.152,-0.415,18.480,23.310,-70.980
7445830,-1.062,-0.066,-0.446,30.100,18.270,-59.220
7445850,-1.128,-0.080,-0.448,57.050,16.170,-44.240
7445868,-1.077,0.266,-0.433,44.800,18.620,-29.120
7445890,-1.058,0.406,-0.592,18.410,17.010,-38.990
7445914,-1.004,0.055,-0.567,34.790,29.890,-34.230
7445932,-0.952,0.026,-0.478,64.820,35.910,-15.610
7445956,-1.024,0.036,-0.546,42.980,44.310,-3.990
7445976,-1.000,0.035,-0.436,59.500,59.850,17.570
7445994,-1.450,-0.504,-0.144,114.240,76.090,59.080
7446016,-1.240,0.022,-0.133,117.320,20.230,25.130
7446040,-1.121,0.184,-0.285,21.280,-5.180,-6.440
7446064,-0.966,-0.032,-0.467,-18.200,-14.980,-20.300
7446084,-0.818,-0.158,-0.610,-0.840,-6.160,-0.280
7446104,-0.736,-0.113,-0.597,-0.140,13.930,-4.970
7446121,-0.780,-0.141,-0.497,-8.750,25.200,3.500
7446140,-0.869,-0.173,-0.408,-14.490,27.160,7.280
7446289,-1.147,-0.081,-0.249,24.430,2.380,22.400
7446308,-1.226,-0.059,-0.276,3.500,0.980,16.380
7446327,-1.352,0.022,-0.096,-27.300,-14.980,2.170
7446347,-1.610,-0.013,0.130,-77.420,-48.440,-13.790
7446372,-1.691,-0.222,0.242,-99.470,-89.530,-40.600
7446390,-1.571,-0.321,0.244,-86.380,-118.020,-49.280
7446413,-1.655,-0.396,0.302,-91.980,-157.430,-102.410
7446434,-1.736,-0.620,0.429,-124.320,-181.510,-160.790
7446452,-1.797,-0.733,0.392,-85.820,-228.760,-193.620
7446471,-1.822,-1.059,0.320,-68.950,-245.210,-235.830
7446494,-1.936,-1.496,0.154,10.570,-262.080,-271.530
7446512,-1.914,-1.380,0.111,58.660,-259.350,-298.340
7446536,-1.850,-1.619,-0.202,73.080,-244.580,-348.530
7446556,-1.825,-1.555,-0.130,109.340,-255.290,-386.120
7446580,-1.797,-1.220,-0.102,48.090,-235.270,-440.020
7446600,-1.610,-1.239,-0.310,18.970,-203.140,-485.870
7446619,-1.268,-1.455,-0.403,13.090,-166.250,-525.630
7446640,-1.044,-1.098,-0.276,-42.700,-109.270,-543.900
7446664,-0.869,-1.802,-0.607,45.010,-28.840,-508.130
7446679,-0.830,-1.201,-0.631,65.100,7.910,-475.230
7446704,-0.612,-1.073,-0.653,63.840,34.720,-456.050
7446722,-0.313,-0.707,-0.549,-15.260,73.500,-440.230
7446746,-0.326,-0.718,-0.513,-16.590,113.680,-395.430
7446766,-0.214,-0.119,-0.361,-41.930,134.190,-391.580
7446902,-0.370,-0.369,0.235,-130.900,141.820,-174.580
7446926,-0.445,-0.326,0.739,-177.030,84.210,-181.720
7446944,-0.098,-0.128,0.494,-191.170,40.530,-188.650
7446964,0.158,-0.548,0.546,-179.060,13.790,-171.780
7446983,0.245,-0.542,0.989,-70.980,-3.010,-99.470
7447008,0.244,0.033,1.175,-97.160,-10.290,-87.850
7447028,0.561,-0.334,1.000,-104.300,-21.280,-50.330
7447048,0.847,-0.338,0.516,-50.190,1.820,-34.580
7447063,0.824,-0.417,0.725,-52.360,-4.830,-23.520
7447088,0.796,-0.343,0.686,-66.080,-14.840,-14.490
7447104,0.900,-0.552,0.697,-27.860,5.530,-15.050
7447128,0.800,-0.508,0.750,33.110,14.700,-3.080
7447268,0.768,-0.168,0.759,115.150,21.140,-5.810
7447288,0.794,-0.295,0.750,157.500,30.170,-1.400
7447308,0.688,0.139,0.833,179.690,25.480,-8.610
7447331,0.705,0.064,0.830,100.450,14.140,-33.670
7447350,0.741,-0.089,0.814,95.760,13.090,-31.150
7447370,0.704,-0.094,0.874,140.770,20.370,-21.700
7447394,0.735,-0.067,0.615,198.870,27.370,-7.630
7447414,0.719,0.255,0.536,260.820,10.850,-1.750
7447432,0.706,0.580,0.663,263.410,13.720,7.000
7447454,0.607,0.368,0.552,304.290,15.820,43.820
7447474,0.534,0.265,0.388,413.700,21.420,67.760
7447498,0.718,0.359,0.409,513.240,50.330,98.000
7447643,0.513,0.962,0.136,66.290,39.690,27.930
7447667,0.577,0.788,0.154,10.920,28.210,13.510
7447687,0.705,0.263,0.139,22.960,34.580,11.690
7447706,0.706,0.484,0.092,24.500,55.510,5.600
7447727,0.612,0.600,-0.143,-10.080,76.090,1.190
7447745,0.538,0.668,-0.253,-54.320,93.310,-5.600
7447893,0.559,0.509,0.370,-251.930,295.750,58.940
7447910,0.385,0.511,0.596,-282.240,325.220,82.600
7447933,0.183,0.378,0.683,-256.970,343.560,114.030
7447952,0.075,0.423,1.011,-262.360,320.040,135.520
7447970,0.017,0.600,1.223,-262.360,292.740,166.670
7447989,-0.020,0.357,1.126,-282.870,276.220,169.610
7448011,0.079,0.733,0.553,-245.420,287.840,193.270
7448031,-0.720,-0.623,0.741,-259.420,312.200,111.370
7448055,-1.099,-2.612,0.895,20.860,190.330,165.550
7448075,-0.463,-1.284,1.131,428.050,297.850,201.670
7448093,-1.220,0.158,1.467,273.000,220.920,101.010
7448115,-1.209,0.028,1.515,129.220,149.660,29.610
7448130,-1.160,-0.024,1.185,133.770,74.130,1.960
7448154,-0.799,0.092,1.398,74.270,72.660,-8.890
7448175,-0.921,0.112,1.273,114.800,73.430,2.240
7448195,-0.970,0.547,1.050,108.570,60.760,32.830
7448215,-0.891,1.041,0.740,46.060,31.430,47.670
7448235,-0.952,1.081,0.804,-40.180,15.190,64.890
7448259,-1.015,0.970,0.733,-106.190,2.450,86.660
7448283,-0.681,0.901,0.205,-191.800,51.520,93.800
7448307,-1.063,-0.308,0.141,-69.790,39.270,84.000
7448327,-1.025,0.071,0.723,107.170,38.780,117.950
7448347,-1.050,1.098,0.437,-87.360,23.310,111.720
7448364,-0.941,0.114,0.723,-171.360,-50.680,44.590
7448507,-0.305,0.275,0.580,21.000,-8.750,3.850
7448531,-0.225,0.293,0.560,7.350,-0.280,5.250
7448551,-0.284,0.258,0.633,11.270,8.260,4.620
7448574,-0.378,0.295,0.613,16.170,4.970,4.620
7448597,-0.375,0.314,0.611,14.210,-0.140,5.320
7448618,-0.385,0.406,0.563,10.500,-5.880,9.730
7448638,-0.429,0.383,0.559,-1.260,-13.790,6.300
7448658,-0.422,0.282,0.552,4.830,-18.970,8.820
7448677,-0.422,0.246,0.515,3.220,-26.670,10.150
7448697,-0.417,0.211,0.548,-7.210,-25.690,13.510
7448720,-0.506,0.342,0.557,-14.280,-37.100,8.470
7448740,-0.546,0.206,0.587,-20.510,-40.250,9.380
7448888,-0.694,0.224,0.915,24.780,-39.900,3.150
7448907,-0.531,0.245,0.901,40.600,-24.640,2.660
7448927,-0.505,0.275,0.854,31.080,-16.450,-0.840
7448946,-0.563,0.313,0.728,12.180,-15.050,-0.140
7448970,-0.580,0.269,0.914,9.730,-13.300,-0.350
7448988,-0.603,0.274,1.000,11.690,-7.980,-3.430
7449012,-0.544,0.383,0.973,-3.010,3.430,-6.860
7449036,-0.613,0.366,1.036,-29.960,5.810,-6.720
7449056,-0.691,0.266,1.134,-26.110,3.850,-6.440
7449076,-0.643,0.310,1.282,-17.360,10.850,-11.690
7449095,-0.557,0.448,1.317,-14.490,35.770,-15.890
7449114,-0.654,0.425,1.411,-13.300,23.100,-18.480
7449138,-0.706,0.441,1.539,4.760,19.390,-18.550
7449156,-0.745,0.527,1.650,4.760,14.770,-17.570
7449179,-0.721,0.671,1.641,6.860,9.520,-14.420
7449199,-0.750,0.725,1.680,-5.460,4.480,-9.870
7449218,-0.794,0.637,1.620,-1.750,-4.760,-3.430
7449238,-0.786,0.618,1.546,-3.710,-14.980,3.290
7449381,-0.582,0.238,0.912,-20.020,-14.350,16.660
7449401,-0.555,0.209,0.903,-20.720,-12.950,13.650
7449425,-0.491,0.132,0.932,-22.680,-8.400,7.980
7449444,-0.451,0.101,0.923,-23.450,-0.280,5.740
7449464,-0.406,0.108,0.885,-23.310,5.530,3.780
7449488,-0.444,0.160,0.996,-14.770,12.180,4.270
7449628,-0.244,0.303,0.817,6.510,16.730,-11.900
7449649,-0.317,0.210,0.892,22.610,6.230,-12.250
7449673,-0.403,0.208,0.843,34.300,-8.750,-7.560
7449693,-0.264,0.295,0.623,28.000,-14.490,-5.600
7449713,-0.042,0.412,0.630,13.230,-8.610,-10.290
7449733,-0.231,0.231,0.919,57.190,-11.410,3.220
7449757,-0.333,0.346,0.812,110.040,-25.130,12.880
7449777,-0.273,0.464,0.705,92.470,-36.680,16.450
7449797,-0.284,0.408,0.781,69.160,-43.120,21.630
7449817,-0.354,0.340,0.798,64.120,-49.770,31.570
7449841,-0.336,0.354,0.690,55.300,-56.700,37.660
7449859,-0.242,0.472,0.589,22.750,-59.990,32.690
7450008,-0.237,0.487,0.715,35.700,8.050,-4.410
7450028,-0.187,0.582,0.636,23.170,3.920,-5.810
7450050,-0.150,0.588,0.611,-1.120,0.140,-9.240
7450070,-0.129,0.488,0.587,-8.470,-0.630,-11.900
7450089,-0.086,0.482,0.595,-8.750,6.370,-12.390
7450113,-0.128,0.459,0.615,-7.840,12.250,-12.880
7450133,-0.141,0.447,0.618,-12.530,13.370,-14.770
7450153,-0.142,0.437,0.629,-22.330,17.010,-16.870
7450170,-0.184,0.426,0.612,-25.130,15.820,-17.290
7450191,-0.212,0.403,0.618,-15.400,11.970,-17.010
7450215,-0.223,0.441,0.619,-4.970,7.770,-14.490
7450235,-0.237,0.407,0.575,-5.670,4.060,-12.530
7450255,-0.234,0.377,0.554,-7.700,1.120,-15.820
7450274,-0.179,0.455,0.611,-13.440,2.450,-18.690
7450295,-0.197,0.381,0.591,-13.370,3.220,-19.740
7450315,-0.183,0.393,0.586,-8.680,6.650,-15.050
7450335,-0.231,0.343,0.555,-13.790,7.000,-13.720
7450359,-0.215,0.365,0.605,-20.790,13.020,-13.160
7450499,-0.622,0.185,0.810,-47.670,-2.100,-4.200
7450519,-0.522,0.130,0.812,-47.180,1.260,-4.270
7450542,-0.512,0.180,0.871,-42.280,9.240,-5.600
7450562,-0.482,0.243,0.936,-36.820,12.670,-8.960
7450582,-0.503,0.280,1.044,-31.010,16.940,-13.020
7450606,-0.554,0.228,1.174,-10.290,26.460,-12.250
7450623,-0.604,0.264,1.228,-5.670,30.800,-11.550
7450644,-0.661,0.309,1.322,-21.700,26.250,-16.520
7450663,-0.618,0.296,1.327,-32.340,23.310,-21.280
7450688,-0.578,0.265,1.172,-29.050,35.000,-19.670
7450708,-0.709,0.156,1.244,-14.420,47.530,-13.160
7450727,-0.875,0.236,1.421,-6.510,47.600,-14.350
7450746,-0.846,0.259,1.400,-18.200,38.850,-18.480
7450766,-0.784,0.329,1.267,-31.360,38.080,-21.280
7450786,-0.892,0.151,1.283,-24.920,44.170,-22.890
7450810,-0.954,0.183,1.276,-16.030,47.460,-23.450
7450830,-0.949,0.201,1.242,-17.010,40.880,-25.900
7450847,-0.857,0.260,1.139,-5.460,44.940,-21.700
7450871,-0.936,0.050,1.147,2.240,45.920,-19.110
7450889,-1.076,0.095,1.138,9.590,41.930,-19.530
7450911,-0.981,0.079,1.152,-26.530,33.950,-39.060
7450935,-0.971,0.121,0.893,-14.420,28.420,-44.170
7450954,-0.874,0.087,1.033,-25.970,33.950,-47.740
7450978,-0.874,0.123,1.368,-21.140,36.890,-58.590
7450998,-0.858,0.072,1.396,14.770,45.220,-51.660
7451018,-0.827,0.205,1.176,46.970,54.600,-46.620
7451038,-0.955,0.160,1.267,32.900,58.590,-44.240
7451058,-1.103,0.415,1.172,0.910,32.620,-40.460
7451082,-0.931,0.327,0.881,-22.680,19.110,-25.480
7451102,-0.725,0.221,0.693,-54.180,5.040,-25.760
7451122,-0.654,0.135,0.992,-50.330,10.220,-24.360
7451142,-0.652,0.122,0.847,-42.420,-0.770,-25.410
7451160,-0.412,0.040,0.631,-36.190,-2.800,-14.700
7451184,-0.264,0.038,0.305,-37.310,2.310,-0.420
7451204,-0.191,-0.183,0.379,-66.360,7.140,-3.290
7451221,-0.281,-0.305,0.470,-87.640,12.040,-9.730
7451371,-0.565,-0.556,0.264,-73.150,15.960,-11.060
7451387,-0.581,-0.483,0.294,-32.200,28.910,-3.920
7451411,-0.785,-0.237,0.628,-66.220,56.560,-23.100
7451430,-0.878,-0.372,0.492,-46.760,61.320,-29.680
7451448,-0.688,-0.233,0.259,-58.170,61.880,-46.130
7451467,-0.568,-0.046,0.245,-88.130,62.510,-70.070
7451489,-0.805,-0.202,0.608,-70.070,85.680,-73.500
7451512,-0.990,-0.263,0.691,12.180,81.690,-66.710
7451533,-0.765,-0.109,0.674,7.140,71.330,-72.240
7451553,-0.656,-0.353,0.592,-25.900,68.180,-74.130
7451571,-0.773,-0.159,0.797,2.590,75.250,-67.480
7451592,-0.951,-0.341,0.657,12.810,60.270,-67.550
7451615,-0.819,-0.346,0.640,25.550,46.200,-58.660
7451639,-0.927,-0.477,0.806,4.830,29.890,-51.800
7451659,-0.996,-0.421,0.724,33.670,35.280,-30.030
7451679,-1.007,-0.388,0.529,36.400,26.880,-18.900
7451700,-1.015,-0.494,0.416,32.550,23.590,-11.620
7451722,-1.043,-0.500,0.455,21.980,14.840,-3.780
7451871,-1.002,-0.465,0.482,-1.610,-5.250,45.010
7451889,-1.009,-0.501,0.437,4.550,-10.080,48.440
7451908,-1.000,-0.512,0.476,-1.330,-17.710,52.010
7451932,-0.971,-0.502,0.555,-16.940,-21.000,56.070
7451950,-0.999,-0.471,0.569,-10.640,-22.330,59.920
7451969,-1.028,-0.445,0.539,-5.740,-25.830,62.580
7451994,-1.038,-0.499,0.491,6.300,-25.970,64.750
7452014,-1.044,-0.455,0.527,14.630,-21.910,61.390
7452033,-1.032,-0.443,0.541,29.190,-26.110,54.810
7452058,-0.942,-0.386,0.451,36.960,-39.620,40.810
7452075,-0.960,-0.378,0.447,32.270,-45.500,37.310
7452098,-0.940,-0.397,0.514,25.130,-51.030,30.310
7452119,-0.963,-0.398,0.685,35.420,-44.660,29.260
7452139,-1.031,-0.359,0.631,46.410,-53.550,31.920
7452163,-0.947,-0.261,0.571,29.330,-56.000,30.170
7452187,-0.906,-0.328,0.485,18.480,-55.790,23.310
7452207,-0.852,-0.280,0.438,11.340,-52.220,16.870
7452226,-0.830,-0.213,0.407,5.880,-53.550,11.690
7452247,-0.821,-0.242,0.409,12.110,-52.850,7.910
7452267,-0.810,-0.270,0.399,26.670,-47.740,5.320
7452284,-0.843,-0.245,0.429,32.900,-42.770,6.090
7452308,-0.895,-0.223,0.470,28.630,-37.030,9.310
7452327,-0.910,-0.146,0.465,22.190,-34.020,10.010
7452348,-0.929,-0.138,0.401,8.120,-28.490,10.150
7452368,-0.898,-0.113,0.359,7.070,-28.980,5.180
7452387,-0.809,-0.051,0.364,-0.700,-27.930,0.000
7452411,-0.842,-0.081,0.420,7.630,-24.570,-2.590
7452431,-0.881,-0.106,0.462,34.650,-26.040,-2.100
7452449,-0.827,-0.031,0.521,37.870,-26.390,-8.190
7452468,-0.794,-0.031,0.580,36.470,-26.600,-14.490
7452612,-0.654,0.088,0.861,33.320,-20.930,15.610
7452632,-0.654,0.102,0.901,35.350,-20.230,24.850
7452652,-0.655,0.011,0.952,10.010,-23.590,25.480
7452670,-0.680,-0.079,1.009,3.920,-30.170,26.880
7452694,-0.610,0.003,0.994,-8.120,-32.410,30.800
7452714,-0.618,-0.102,0.978,-4.620,-37.590,35.420
7452730,-0.581,-0.120,0.945,2.170,-41.090,36.540
7452754,-0.511,-0.198,0.868,1.190,-43.330,32.060
7452778,-0.502,-0.195,0.756,5.320,-40.880,26.950
7452796,-0.490,-0.123,0.687,2.800,-41.930,24.430
7452817,-0.452,-0.079,0.644,1.470,-43.820,24.640
7452837,-0.408,-0.038,0.616,7.350,-47.600,26.810
7452856,-0.377,-0.033,0.534,3.430,-49.490,28.770
7452880,-0.404,-0.060,0.489,2.660,-48.300,28.630
7452900,-0.350,-0.062,0.563,-0.840,-50.400,24.220
7452921,-0.253,-0.034,0.628,3.710,-53.620,22.540
7452941,-0.273,0.046,0.576,0.210,-58.450,25.200
7452960,-0.180,0.020,0.455,0.630,-62.510,22.820
7452985,-0.151,-0.041,0.579,8.820,-50.540,22.400
7453005,-0.350,-0.120,0.684,33.180,-44.100,28.210
7453025,-0.508,-0.071,0.662,31.920,-42.770,32.480
7453045,-0.535,-0.074,0.538,18.760,-41.440,33.250
7453069,-0.406,0.101,0.585,-9.170,-43.190,17.780
7453089,-0.363,0.074,0.809,-29.190,-29.610,14.770
7453106,-0.601,-0.094,0.788,-4.410,-31.150,13.790
7453130,-0.513,-0.035,0.744,22.750,-29.400,10.640
7453149,-0.502,0.026,0.865,19.390,-20.160,5.950
7453169,-0.574,0.038,0.973,14.350,-12.670,0.140
7453185,-0.635,0.003,0.984,12.110,-9.170,-4.410
7453210,-0.619,0.040,1.025,21.000,-2.730,-5.950
7453228,-0.547,0.142,1.029,24.010,4.200,-4.060
7453247,-0.607,0.149,1.080,24.220,10.500,-4.060
7453272,-0.594,0.146,1.140,25.690,17.360,-3.290
7453290,-0.620,0.109,1.201,22.260,24.360,1.400
7453312,-0.677,0.142,1.229,8.400,22.820,4.900
7453333,-0.735,0.176,1.290,-28.280,20.440,2.870
7453352,-0.771,0.061,1.292,-36.120,18.550,-0.350
7453376,-0.738,0.109,1.292,-38.150,19.810,-3.500
7453394,-0.759,0.080,1.326,-28.840,23.800,-4.690
7453416,-0.764,0.154,1.347,-10.290,34.790,-4.830
7453434,-0.818,0.137,1.365,6.930,38.920,-3.640
7453458,-0.804,0.267,1.417,20.510,33.390,-1.960
7453481,-0.823,0.268,1.341,11.900,28.770,3.850
7453502,-0.773,0.302,1.317,2.450,23.030,9.240
7453520,-0.810,0.172,1.349,-4.480,16.870,10.780
7453540,-0.790,0.169,1.285,0.980,14.350,11.830
7453563,-0.706,0.197,1.181,-5.250,13.300,13.440
7453584,-0.743,0.173,1.096,-4.480,9.590,15.050
7453606,-0.730,0.152,1.141,1.960,2.940,12.950
7453630,-0.752,0.102,1.116,5.040,1.120,13.370
7453650,-0.728,0.111,1.045,5.320,-1.260,13.650
7453669,-0.698,0.123,1.012,-1.400,-5.810,10.570
7453688,-0.702,0.065,1.096,6.090,-6.020,8.260
7453708,-0.728,-0.028,1.100,26.880,-11.410,7.700
7453729,-0.771,0.034,1.000,28.350,-19.250,9.170
7453752,-0.645,0.088,0.826,2.030,-26.670,2.730
7453772,-0.572,0.081,0.711,-24.780,-31.990,-2.310
7453792,-0.516,0.074,0.652,-33.740,-31.710,0.490
7453812,-0.439,-0.082,0.543,-26.740,-32.760,2.170
7453828,-0.390,-0.110,0.468,-28.000,-29.540,0.000
7453977,-0.290,0.131,0.763,16.240,-46.620,-1.400
7453997,-0.269,0.170,0.781,22.890,-53.970,-2.870
7454015,-0.269,0.165,0.802,23.660,-55.720,-2.730
7454034,-0.353,0.087,0.747,26.110,-56.700,2.100
7454059,-0.463,-0.008,0.665,23.310,-55.160,0.910
7454079,-0.269,0.003,0.711,-8.260,-36.470,-8.470
7454099,-0.272,0.036,0.752,-34.230,-20.930,-17.430
7454118,-0.222,0.030,0.788,-19.250,-2.730,-22.330
7454139,-0.228,0.060,0.936,9.030,6.790,-22.890
7454159,-0.235,0.016,1.016,47.110,17.080,-17.640
7454177,-0.256,0.107,1.014,60.060,19.250,-13.510
7454201,-0.269,0.236,1.029,42.070,18.060,-12.110
7454217,-0.338,0.243,0.986,32.200,14.420,-9.730
7454241,-0.347,0.266,0.921,21.630,4.760,-7.910
7454261,-0.297,0.239,0.752,6.860,-1.680,-7.560
7454281,-0.249,0.165,0.828,2.870,4.900,-7.560
7454300,-0.276,0.160,0.803,4.830,12.670,-7.910
7454318,-0.296,0.169,0.793,1.470,18.760,-8.470
7454457,-0.326,0.171,0.762,-16.800,16.590,-15.400
7454482,-0.325,0.142,0.784,-12.180,15.260,-19.250
7454502,-0.312,0.173,0.793,-6.930,9.870,-21.630
7454522,-0.338,0.201,0.801,-5.040,3.080,-19.110
7454540,-0.350,0.176,0.794,2.730,-2.940,-16.380
7454562,-0.373,0.191,0.817,6.580,-11.760,-14.350
7454586,-0.366,0.224,0.765,-1.330,-24.220,-12.530
7454609,-0.333,0.218,0.705,-9.030,-43.050,-18.830
7454628,-0.295,0.127,0.757,-6.510,-40.460,-18.690
7454653,-0.370,0.069,0.811,6.300,-42.700,-17.360
7454673,-0.385,0.124,0.757,-3.290,-42.000,-15.400
7454692,-0.322,0.145,0.606,-5.110,-42.350,-15.050
7454712,-0.310,0.077,0.654,1.540,-48.020,-18.830
7454733,-0.278,0.030,0.776,17.710,-34.580,-14.910
7454755,-0.426,0.027,0.816,4.830,-29.120,-11.410
7454779,-0.409,-0.056,0.832,-9.380,-28.070,-11.340
7454798,-0.321,-0.058,0.766,-2.590,-19.460,-11.550
7454819,-0.338,0.013,0.753,-16.240,-4.830,-10.500
7454837,-0.462,-0.086,0.762,-24.500,13.300,-7.070
7454861,-0.489,-0.032,0.847,-48.580,33.950,1.610
7454884,-0.629,-0.172,0.934,-48.580,37.660,-5.530
7454908,-0.606,-0.257,0.959,-51.310,54.390,-3.570
7454927,-0.645,-0.283,0.967,-61.320,69.230,0.000
7454947,-0.660,-0.172,1.241,-49.560,90.370,-0.770
7454968,-0.948,-0.293,1.519,-80.500,84.210,-7.210
7454987,-0.858,-0.357,1.540,-73.360,90.650,-1.540
7455011,-0.972,-0.246,1.740,-68.390,88.830,-1.260
7455030,-1.134,-0.229,1.806,-57.190,75.950,4.200
7455055,-1.075,-0.180,1.571,-47.740,60.340,7.210
7455075,-0.972,-0.141,1.452,-51.660,68.600,7.350
7455219,-0.817,-0.116,1.127,-57.050,-6.440,21.280
7455239,-0.859,-0.161,0.974,-88.410,-0.210,16.170
7455259,-0.832,-0.238,0.610,-47.040,4.270,20.650
7455278,-0.905,-0.356,0.722,-26.320,-30.100,18.200
7455303,-0.820,-0.285,0.986,-53.690,-21.840,29.890
7455322,-0.777,-0.465,0.848,-76.860,-24.290,22.680
7455338,-0.699,-0.755,0.775,-5.040,-16.940,12.740
7455362,-0.723,-0.481,0.802,75.390,-2.730,15.540
7455383,-0.680,-0.340,0.749,50.820,-9.170,16.590
7455402,-0.602,-0.074,0.691,39.550,1.470,20.440
7455422,-0.500,0.200,0.580,-49.070,10.220,16.730
7455442,-0.500,-0.277,0.536,-31.220,-0.350,15.540
7455589,-0.415,-0.013,0.691,-3.780,-52.290,7.700
7455610,-0.476,-0.135,0.555,-15.400,-60.830,-0.280
7455630,-0.489,0.061,0.590,-77.770,2.730,35.280
7455654,-0.706,-0.173,0.422,-118.230,-18.620,32.410
7455674,-0.746,0.019,0.340,-40.250,-32.900,24.850
7455693,-0.625,-0.171,0.347,-30.590,-11.690,6.930
7455716,-0.578,-0.182,0.339,-15.330,18.340,2.590
7455733,-0.545,-0.246,0.435,0.070,69.090,0.140
7455755,-0.538,-0.230,0.660,20.790,77.350,-0.630
7455774,-0.776,0.309,0.539,-35.000,34.720,-56.420
7455799,-0.799,0.194,0.919,-14.000,71.820,-26.810
7455817,-0.507,-0.277,0.944,-56.560,58.310,-25.060
7455836,-0.508,-0.305,0.924,-43.960,90.930,-31.080
7455855,-0.740,-0.361,0.727,-53.900,64.540,-16.520
7455878,-0.705,-0.191,0.792,-66.430,19.740,-22.400
7455899,-0.665,-0.518,0.562,-45.640,-6.650,-23.030
7455923,-0.743,-0.208,0.470,-15.890,-25.270,-24.990
7455942,-0.684,-0.154,0.576,-55.440,-69.440,-22.960
7455963,-0.693,-0.327,0.640,-26.670,-108.220,28.070
7455987,-0.668,-0.421,0.656,-40.950,-65.100,-8.260
7456006,-0.497,-0.366,0.662,1.540,26.880,-4.830
7456025,-0.596,-0.379,0.791,2.870,23.800,-4.620
7456044,-0.549,-0.462,0.794,12.390,24.360,-1.750
7456069,-0.510,-0.033,0.642,7.280,24.080,-4.620
7456212,-0.486,0.053,0.566,-249.200,4.900,-64.260
7456232,-0.374,0.003,0.315,-319.200,-9.240,-84.840
7456251,-0.283,0.202,0.165,-409.220,-9.870,-114.660
7456271,-0.363,-0.439,0.168,-468.300,-55.230,-152.390
7456294,-0.341,-0.693,0.137,-472.570,-72.450,-149.940
7456316,-0.134,-0.823,-0.443,-479.290,-37.870,-163.940
7456333,-0.105,-0.752,-0.174,-404.180,-50.750,-140.280
7456357,-0.070,-0.780,-0.287,-419.160,-23.590,-144.340
7456377,-0.222,-0.728,-0.603,-419.090,7.140,-144.270
7456396,-0.256,-0.824,-0.960,-456.610,43.890,-149.310
7456415,-0.325,-0.967,-0.977,-351.190,-30.450,-95.410
7456437,-0.300,-0.948,-0.831,-278.530,-24.920,-70.770
7456461,-0.493,-0.720,-0.521,-211.050,-4.200,-38.220
7456485,-0.627,-0.885,-0.914,-209.090,16.730,-43.820
7456505,-0.430,-0.662,-0.963,-157.500,-11.270,-24.850
7456525,-0.649,-0.829,-1.071,-146.860,11.830,-23.240
7456549,-0.773,-0.574,-0.811,-56.280,-60.340,0.280
7456568,-0.636,-0.680,-1.221,-44.310,-49.000,33.320
7456710,-0.384,-0.962,-1.688,-2.030,-68.530,51.870
7456730,-0.400,-0.992,-1.544,36.890,-66.640,68.670
7456748,-0.526,-0.831,-1.101,82.810,-54.810,81.060
7456769,-0.601,-0.340,-0.911,51.520,-17.500,58.660
7456790,-0.528,-0.700,-1.126,-5.740,-5.040,38.850
7456814,-0.468,-0.999,-1.389,24.080,-7.350,48.510
7456829,-0.478,-0.827,-1.335,78.540,-24.150,58.590
7456854,-0.530,-0.528,-1.120,84.910,-26.600,51.030
7456874,-0.620,-0.295,-0.882,60.970,-36.610,32.200
7456894,-0.617,-0.575,-1.031,65.940,-46.200,32.900
7456914,-0.588,-0.617,-1.027,97.930,-59.430,45.430
7456934,-0.562,-0.454,-0.895,105.210,-48.370,35.700
7457074,-0.173,-0.569,-0.141,125.300,-18.130,22.400
7457093,-0.165,-0.569,-0.171,143.150,-14.560,9.870
7457117,-0.050,-0.634,-0.224,128.240,-8.190,-4.620
7457138,-0.081,-0.601,-0.213,135.240,11.270,-19.250
7457157,-0.133,-0.475,-0.222,140.980,19.530,-28.350
7457177,-0.237,-0.395,-0.333,111.930,29.610,-56.000
7457200,-0.349,-0.538,-0.381,88.900,8.540,-82.110
7457219,-0.376,-0.415,-0.323,84.490,26.530,-84.980
7457243,-0.624,-0.365,-0.587,46.830,33.040,-103.670
7457263,-0.673,-0.488,-0.731,53.760,2.380,-80.570
7457282,-0.660,-0.357,-0.708,41.860,-8.400,-60.830
7457302,-0.663,-0.556,-0.483,43.610,-27.160,-40.670
7457326,-0.563,-0.525,-0.121,52.920,-17.010,-11.830
7457346,-0.518,-0.498,-0.093,37.590,-14.630,-4.970
7457365,-0.394,-0.867,-0.059,67.130,-16.870,11.270
7457385,-0.442,-0.858,-0.122,89.600,7.070,13.930
7457404,-0.481,-0.901,-0.243,115.780,-9.450,11.130
7457429,-0.478,-0.752,-0.278,112.560,-20.720,1.330
7457568,-0.408,-0.834,0.060,63.840,11.270,-9.450
7457588,-0.420,-0.787,0.052,83.370,5.250,-13.510
7457608,-0.429,-0.827,0.091,36.820,-11.130,-18.550
7457627,-0.346,-0.921,0.131,38.150,-5.670,-6.090
7457652,-0.369,-0.833,0.028,33.950,9.590,-2.100
7457672,-0.370,-0.824,0.082,41.580,15.820,5.110
7457689,-0.389,-0.714,0.164,27.720,15.260,2.590
7457713,-0.349,-0.773,0.137,-7.560,10.920,-7.630
7457733,-0.272,-0.832,0.127,-19.320,9.730,-6.230
7457749,-0.203,-0.745,0.182,-33.810,9.310,-9.870
7457769,-0.155,-0.645,0.235,-43.750,4.830,-14.350
7457788,-0.104,-0.597,0.228,-49.700,8.890,-20.440
7457808,-0.084,-0.646,0.196,-40.670,7.420,-26.880
7457833,-0.097,-0.618,0.254,-35.070,8.120,-34.300
7457851,-0.062,-0.526,0.187,-54.040,16.520,-43.540
7457872,-0.074,-0.662,0.031,-54.040,19.320,-46.480
7457891,-0.138,-0.704,-0.095,2.030,13.300,-34.020
7457916,-0.240,-0.493,-0.009,4.480,-1.260,-32.760
7457931,-0.209,-0.552,0.108,-6.930,0.210,-36.470
7457956,-0.152,-0.608,-0.005,-29.400,19.110,-39.550
7457976,-0.305,-0.756,-0.264,-24.360,13.580,-30.590
7457996,-0.388,-0.899,-0.131,17.360,-11.340,-17.430
7458015,-0.341,-0.766,-0.027,6.720,4.060,-11.900
7458035,-0.434,-0.838,-0.180,-26.110,14.000,-16.170
7458181,-0.739,-1.688,-0.344,19.880,-24.080,26.460
7458201,-0.699,-1.454,-0.238,-7.280,-4.410,20.370
7458225,-0.763,-1.679,-0.353,-37.240,-0.980,8.960
7458244,-0.705,-1.772,-0.373,-41.650,-7.840,5.320
7458266,-0.585,-1.900,-0.313,-12.110,-16.730,4.550
7458284,-0.530,-1.781,-0.205,18.900,-8.470,8.400
7458307,-0.544,-1.581,-0.211,12.880,-9.380,-3.430
7458328,-0.451,-1.613,-0.168,7.490,-15.960,-16.940
7458349,-0.416,-1.638,-0.128,18.480,-15.680,-26.110
7458368,-0.452,-1.604,-0.149,41.160,-9.170,-28.000
7458393,-0.536,-1.400,-0.207,60.480,-13.370,-28.980
7458413,-0.468,-1.148,-0.238,61.670,-16.520,-27.230
7458433,-0.395,-0.982,-0.226,56.980,-15.960,-15.820
7458453,-0.445,-0.965,-0.158,45.430,-9.170,-6.720
7458473,-0.468,-0.994,-0.073,43.960,-3.640,6.020
7458493,-0.475,-0.865,-0.122,31.570,11.620,12.110
7458517,-0.549,-0.799,-0.223,14.140,12.600,5.530
7458537,-0.473,-0.790,-0.392,18.900,0.700,2.870
7458554,-0.410,-0.793,-0.286,39.270,-4.270,4.970
7458575,-0.382,-0.697,-0.160,89.740,-3.640,14.000
7458599,-0.319,-0.447,-0.055,94.150,-0.350,10.920
7458619,-0.233,-0.381,-0.240,81.130,-3.640,2.940
7458639,-0.070,-0.354,0.061,86.660,-24.920,-17.920
7458659,0.011,-0.569,0.571,99.960,10.010,-19.740
7458801,-0.151,-0.400,0.164,48.930,63.140,-11.970
7458825,-0.220,-0.809,-0.047,13.930,1.120,-15.190
7458845,-0.061,-1.008,0.150,89.600,-2.590,11.060
7458864,-0.130,-0.745,0.207,40.880,24.010,10.920
7458886,-0.260,-0.911,0.359,41.860,-0.350,20.510
7458908,-0.070,-0.840,0.472,44.310,26.040,38.640
7458925,-0.188,-0.736,0.427,46.830,42.140,42.140
7458949,-0.359,-0.727,0.487,27.230,22.610,32.760
7458968,-0.473,-0.525,0.677,4.130,0.420,37.590
7458986,-0.514,-0.335,0.750,-79.380,-1.050,4.900
7459006,-0.499,-0.816,0.456,-141.190,-20.860,-24.850
7459028,-0.278,-1.189,0.369,-80.010,-19.600,-13.230
7459052,-0.356,-1.094,0.426,-25.620,1.680,2.730
7459072,-0.377,-0.847,0.429,-48.860,2.240,3.290
7459092,-0.300,-0.823,0.309,-48.860,5.880,6.020
7459115,-0.287,-0.879,0.218,-40.460,6.090,7.210
7459136,-0.256,-0.889,0.277,-42.560,22.680,14.000
7459152,-0.362,-0.954,0.216,-41.020,28.350,21.000
7459300,-0.370,-0.646,0.203,-3.290,-0.350,18.410
7459322,-0.326,-0.547,0.246,-18.270,6.720,9.100
7459342,-0.355,-0.557,0.200,-27.580,2.100,5.670
7459362,-0.280,-0.580,0.226,-23.940,-0.840,2.940
7459386,-0.218,-0.563,0.184,1.400,-1.890,2.660
7459406,-0.168,-0.433,0.275,-7.560,-3.850,-5.740
7459421,-0.204,-0.517,0.267,-21.070,-9.240,-12.670
7459442,-0.122,-0.582,0.323,-20.090,-10.220,-21.910
7459466,-0.145,-0.676,0.357,3.220,3.150,-16.100
7459485,-0.268,-0.610,0.230,23.590,0.700,-10.010
7459505,-0.309,-0.667,0.198,26.600,0.700,-9.940
7459525,-0.407,-0.636,0.138,-4.620,8.050,-8.960
7459549,-0.514,-0.801,0.118,-20.790,-8.890,-14.980
7459569,-0.618,-1.004,0.115,4.830,-22.540,-12.880
7459589,-0.609,-0.891,0.005,25.410,-18.690,-11.760
7459612,-0.646,-0.856,-0.037,-11.130,-23.030,-16.520
7459633,-0.862,-1.013,0.026,-31.360,-8.610,-5.740
7459653,-0.863,-1.047,0.266,-44.800,-12.740,-6.020
7459799,-0.691,-1.295,0.080,-10.010,10.290,29.120
7459818,-0.771,-1.268,-0.006,-29.960,5.880,29.260
7459839,-0.672,-1.303,-0.164,-35.070,0.980,25.550
7459858,-0.726,-1.542,-0.085,-35.140,-13.860,25.060
7459882,-0.636,-1.612,0.141,-33.250,-8.190,19.040
7459902,-0.616,-1.621,0.265,-33.880,-4.130,15.050
7459919,-0.545,-1.622,0.329,-20.160,6.860,17.640
7459943,-0.644,-1.680,0.215,3.430,9.870,18.970
7459963,-0.652,-1.567,0.206,24.290,3.710,14.770
7459983,-0.691,-1.448,0.144,32.270,-0.140,15.680
7460003,-0.630,-1.166,0.187,28.560,2.590,16.310
7460018,-0.681,-1.103,0.176,23.310,2.520,15.960
7460042,-0.740,-0.974,0.170,9.170,-0.350,7.280
7460063,-0.762,-1.002,0.012,-15.260,-9.030,-1.330
7460082,-0.644,-0.800,-0.085,3.920,-3.290,15.540
7460107,-0.602,-0.346,-0.174,-40.950,4.270,10.570
7460122,-0.644,-0.510,-0.127,-76.720,-11.130,-0.700
7460147,-0.534,-0.735,-0.021,-73.570,-1.120,3.010
7460282,-0.170,-0.551,0.230,51.660,6.650,-9.940
7460302,-0.195,-0.430,0.213,61.390,-3.290,-16.100
7460326,-0.176,-0.490,0.331,33.040,-4.270,-26.460
7460347,-0.358,-0.777,0.330,19.390,-3.850,-33.670
7460365,-0.436,-0.896,0.130,28.910,-4.480,-34.370
7460389,-0.548,-0.790,-0.255,45.850,-13.650,-28.070
7460409,-0.523,-0.677,-0.170,26.110,-38.780,-30.730
7460427,-0.484,-0.724,-0.054,0.070,-28.070,-28.630
7460451,-0.494,-0.824,0.038,-4.620,-19.670,-18.060
7460470,-0.383,-0.834,0.099,-0.490,-8.120,-6.510
7460491,-0.365,-0.838,0.144,3.920,1.960,5.530
7460506,-0.381,-0.884,0.195,4.130,1.330,8.890
7460531,-0.353,-0.932,0.245,0.840,10.290,7.000
7460549,-0.385,-0.921,0.161,7.980,7.980,2.800
7460568,-0.385,-0.859,0.144,9.240,4.900,-2.520
7460593,-0.405,-0.872,0.070,17.780,0.490,-6.300
7460613,-0.417,-0.771,0.102,14.770,-7.140,-8.540
7460633,-0.390,-0.731,0.124,4.690,-5.460,-5.810
7460651,-0.409,-0.724,0.142,-6.440,0.490,2.380
7460670,-0.424,-0.755,0.125,-15.470,3.150,10.430
7460695,-0.407,-0.772,0.124,-14.910,4.480,18.130
7460714,-0.379,-0.760,0.153,-13.230,3.920,20.370
7460734,-0.366,-0.710,0.152,-11.410,7.000,20.860
7460758,-0.378,-0.680,0.134,-13.020,6.720,13.720
7460896,-0.297,-0.707,0.193,16.100,1.400,-13.020
7460915,-0.283,-0.619,0.186,36.960,-3.640,-19.810
7460939,-0.238,-0.575,0.253,36.260,-15.050,-32.200
7460959,-0.231,-0.672,0.231,24.570,-0.980,-32.550
7460978,-0.353,-0.652,0.101,21.350,-0.910,-29.680
7461003,-0.395,-0.606,0.015,2.660,-14.210,-33.390
7461019,-0.347,-0.725,0.088,-2.380,-22.610,-31.500
7461042,-0.384,-0.846,0.136,-2.240,-0.420,-15.540
7461061,-0.594,-0.837,0.079,-15.120,-0.350,-16.590
7461079,-0.654,-1.003,-0.025,-37.240,-10.220,-26.390
7461103,-0.609,-1.194,-0.076,-15.890,-18.900,-14.070
7461122,-0.593,-1.097,0.094,15.680,-11.480,1.260
7461144,-0.662,-1.003,0.157,-22.470,4.130,-0.210
7461166,-0.675,-1.180,0.077,-29.540,14.210,3.850
7461186,-0.805,-1.316,0.022,-10.500,11.200,14.630
7461204,-0.764,-1.261,0.083,-8.400,8.820,20.930
7461225,-0.789,-1.287,0.043,-31.430,16.380,22.750
7461246,-0.839,-1.440,0.009,-48.650,10.010,16.520
7461270,-0.810,-1.538,-0.068,-27.020,15.190,22.820
7461290,-0.836,-1.394,-0.065,-7.350,8.400,27.370
7461308,-0.793,-1.260,-0.000,-18.130,3.010,27.720
7461327,-0.766,-1.339,0.085,-36.890,2.940,23.450
7461352,-0.751,-1.554,0.061,-32.200,4.200,20.370
7461371,-0.691,-1.549,0.019,-3.150,3.290,22.540
7461510,-0.647,-1.106,0.003,29.680,-5.740,4.480
7461535,-0.644,-0.878,-0.025,19.110,-1.400,-0.280
7461555,-0.686,-0.851,-0.163,-7.210,-7.350,-7.490
7461574,-0.630,-0.827,-0.178,-5.600,-11.550,-10.780
7461593,-0.522,-0.708,-0.085,-4.480,-15.750,-10.290
7461613,-0.460,-0.687,0.073,0.630,-5.950,-2.380
7461633,-0.413,-0.556,0.090,7.350,2.520,3.290
7461657,-0.305,-0.342,-0.029,4.970,0.770,-2.380
7461673,-0.185,-0.232,0.017,-9.100,-11.410,-16.170
7461694,-0.096,-0.432,0.259,-29.120,-24.570,-35.140
7461718,-0.063,-0.755,0.365,4.620,-5.180,-31.220
7461738,-0.101,-0.675,0.347,52.850,7.840,-21.210
7461757,-0.128,-0.443,0.349,53.620,-1.470,-28.630
7461782,-0.054,-0.451,0.395,37.660,2.520,-41.930
7461801,-0.261,-0.734,0.326,24.080,1.680,-48.020
7461825,-0.385,-0.923,0.181,36.960,6.090,-41.510
7461844,-0.492,-0.844,-0.049,44.730,0.560,-35.910
7461865,-0.459,-0.676,-0.260,33.460,-17.570,-29.610
7461881,-0.454,-0.637,-0.225,21.070,-22.260,-28.000
7461905,-0.476,-0.810,0.113,5.180,-23.870,-27.300
7461923,-0.407,-0.865,0.220,4.690,-5.110,-16.800
7461943,-0.410,-0.882,0.194,4.130,3.080,-6.020
7461966,-0.312,-0.813,0.168,5.670,0.210,-2.100
7461986,-0.231,-0.892,0.268,-0.770,2.380,-3.150
7462134,-0.366,-0.791,0.181,-6.580,6.230,6.090
7462154,-0.399,-0.897,0.163,-6.650,5.040,14.700
7462173,-0.402,-0.822,0.190,-5.950,7.070,15.820
7462192,-0.426,-0.826,0.208,-11.060,2.800,12.670
7462213,-0.394,-0.843,0.206,-16.940,4.270,7.000
7462237,-0.407,-0.901,0.218,-18.480,2.730,1.820
7462257,-0.395,-0.942,0.205,-1.400,1.260,4.550
7462274,-0.351,-0.809,0.174,1.820,2.030,5.880
7462296,-0.326,-0.771,0.167,-2.940,-2.310,7.140
7462320,-0.312,-0.762,0.172,-3.990,1.540,10.780
7462340,-0.367,-0.741,0.142,-5.250,-3.220,12.390
7462361,-0.336,-0.701,0.142,-3.990,-6.860,10.430
7462376,-0.298,-0.651,0.128,-8.820,-5.040,9.590
7462396,-0.327,-0.652,0.090,-10.640,-7.000,8.750
7462416,-0.324,-0.614,0.079,-11.480,-10.360,5.740
7462440,-0.287,-0.569,0.114,-13.930,-18.060,1.680
7462460,-0.245,-0.571,0.175,-15.960,-11.830,-1.820
7462480,-0.273,-0.613,0.132,-13.020,-12.670,-4.130
7462496,-0.278,-0.574,0.150,-7.630,-13.790,-4.480
7462515,-0.302,-0.565,0.153,-10.570,-11.900,-4.620
7462540,-0.319,-0.606,0.121,-7.700,-8.400,-3.430
7462560,-0.321,-0.583,0.078,-7.700,-7.420,-4.130
7462584,-0.322,-0.605,0.088,-12.740,-5.040,-2.660
7462604,-0.380,-0.636,0.074,-22.120,0.350,-0.630
7462744,-0.625,-1.176,-0.209,-70.560,2.030,10.780
7462764,-0.650,-1.240,-0.156,-52.150,-0.840,20.090
7462784,-0.704,-1.316,-0.098,-67.970,10.500,21.280
7462804,-0.761,-1.431,-0.113,-76.580,14.700,25.550
7462823,-0.800,-1.532,-0.092,-70.910,12.460,26.880
7462842,-0.788,-1.680,-0.163,-34.510,11.550,32.060
7462860,-0.861,-1.687,-0.161,-21.840,9.030,35.280
7462879,-0.969,-1.715,-0.170,-24.850,0.070,32.200
7462904,-0.960,-1.636,-0.143,-15.960,-12.530,25.270
7462924,-0.866,-1.544,-0.084,-12.740,-13.720,20.020
7462943,-0.842,-1.577,-0.093,-1.540,-9.310,18.270
7462964,-0.881,-1.504,-0.115,15.890,-6.790,13.790
7462984,-0.885,-1.413,-0.184,17.920,-10.430,4.620
7463003,-0.806,-1.313,-0.187,23.310,-17.640,0.770
7463023,-0.746,-1.240,-0.214,34.860,-19.040,-0.910
7463044,-0.687,-1.087,-0.210,34.160,-17.710,-1.540
7463063,-0.669,-0.980,-0.237,15.750,-15.050,-5.320
7463083,-0.642,-0.963,-0.278,3.430,-18.060,-8.540
7463107,-0.592,-0.930,-0.297,-2.240,-17.360,-8.960
7463127,-0.570,-0.889,-0.334,-7.140,-17.010,-10.500
7463146,-0.519,-0.822,-0.305,-7.210,-16.940,-10.570
7463166,-0.487,-0.745,-0.215,-8.610,-12.320,-9.380
7463185,-0.456,-0.678,-0.154,1.190,-9.660,-4.480
7463209,-0.407,-0.534,-0.145,9.590,-5.950,-1.540
7463349,-0.041,-0.611,0.241,-2.870,-16.870,-60.830
7463369,-0.106,-0.967,0.279,29.610,-4.480,-59.500
7463389,-0.192,-0.973,0.168,59.430,-2.310,-56.980
7463409,-0.215,-0.858,0.025,52.990,-3.710,-54.460
7463429,-0.237,-0.915,-0.176,36.050,-4.970,-43.540
7463447,-0.297,-0.989,-0.265,38.990,-5.670,-26.740
7463469,-0.393,-0.951,-0.192,42.910,-14.490,-15.540
7463487,-0.361,-0.866,0.017,49.630,-9.520,-6.650
7463511,-0.349,-0.793,0.127,36.610,0.910,-0.980
7463531,-0.325,-0.808,0.133,19.950,8.820,-2.310
7463548,-0.313,-0.860,0.133,26.530,4.620,-5.250
7463568,-0.265,-0.878,0.164,29.750,5.600,-8.890
7463711,-0.253,-0.747,0.074,10.990,0.490,-6.160
7463730,-0.261,-0.755,0.115,1.400,7.700,2.100
7463750,-0.271,-0.769,0.127,-2.940,13.160,8.680
7463770,-0.283,-0.764,0.123,-5.390,17.640,12.740
7463795,-0.288,-0.738,0.105,-12.180,20.160,16.170
7463819,-0.277,-0.736,0.120,-20.860,22.470,18.830
7463836,-0.292,-0.734,0.090,-25.970,24.780,21.000
7463859,-0.289,-0.702,0.050,-25.480,22.750,23.030
7463879,-0.281,-0.685,0.041,-18.620,21.070,23.030
7463899,-0.265,-0.626,0.091,-9.590,20.440,23.170
7463923,-0.253,-0.559,0.112,-6.860,21.490,19.110
7463943,-0.239,-0.507,0.121,-2.870,20.790,14.700
7463963,-0.223,-0.427,0.127,0.140,20.090,6.860
7463982,-0.210,-0.415,0.110,-0.420,19.740,-0.980
7464003,-0.223,-0.436,0.097,17.850,18.550,-7.210
7464023,-0.244,-0.439,0.071,-0.980,13.650,-13.230
7464042,-0.269,-0.555,0.112,-3.850,12.180,-18.970
7464062,-0.328,-0.627,0.054,0.840,13.230,-17.430
7464208,-0.612,-1.051,-0.289,-74.900,11.690,37.310
7464228,-0.760,-1.257,-0.296,-91.000,14.000,52.080
7464252,-0.847,-1.403,-0.343,-78.610,11.830,70.980
7464272,-0.854,-1.319,-0.344,-70.420,15.260,77.280
7464291,-0.895,-1.279,-0.396,-79.240,24.990,81.760
7464312,-0.975,-1.339,-0.532,-66.920,31.570,82.880
7464332,-1.063,-1.410,-0.625,-66.710,31.430,77.910
7464356,-1.073,-1.478,-0.651,-70.140,24.570,71.960
7464375,-1.046,-1.457,-0.496,-67.130,17.010,68.810
7464396,-0.958,-1.495,-0.489,-51.520,20.930,71.050
7464416,-0.920,-1.405,-0.543,-27.440,18.970,67.970
7464440,-0.916,-1.293,-0.531,-35.210,18.340,54.180
7464460,-0.899,-1.253,-0.525,-46.200,13.300,40.810
7464480,-0.832,-1.254,-0.479,-40.880,9.450,32.410
7464497,-0.761,-1.150,-0.426,-33.320,11.480,27.300
7464517,-0.785,-1.061,-0.431,-39.410,9.520,17.570
7464537,-0.765,-1.085,-0.416,-31.640,5.950,12.460
7464557,-0.751,-1.007,-0.405,-16.030,7.560,12.250
7464581,-0.750,-0.900,-0.394,-3.850,5.530,8.890
7464600,-0.705,-0.788,-0.378,3.010,6.930,6.720
7464621,-0.690,-0.646,-0.379,0.700,7.280,2.170
7464640,-0.690,-0.620,-0.386,-4.760,8.540,0.910
7464664,-0.692,-0.603,-0.370,-5.880,7.840,-0.210
7464684,-0.651,-0.554,-0.318,-5.110,4.480,-3.220
7464822,-0.292,-0.436,-0.079,32.130,4.130,-44.240
7464846,-0.352,-0.465,-0.090,51.030,-2.100,-41.930
7464864,-0.374,-0.495,-0.088,53.620,0.070,-40.180
7464886,-0.456,-0.518,-0.153,61.250,-0.630,-32.480
7464910,-0.524,-0.492,-0.226,59.500,-2.170,-18.550
7464930,-0.586,-0.562,-0.366,43.820,-2.380,-5.320
7464949,-0.656,-0.750,-0.460,41.020,-2.450,10.080
7464973,-0.685,-0.780,-0.471,53.410,-10.150,27.160
7464993,-0.633,-0.729,-0.412,58.240,-10.640,38.570
7465013,-0.665,-0.551,-0.267,35.630,-34.440,35.350
7465033,-0.568,-0.567,-0.164,20.090,-37.240,32.200
7465052,-0.663,-0.713,-0.150,34.790,-38.570,47.740
7465074,-0.569,-0.561,-0.060,76.720,-42.000,65.660
7465095,-0.607,-0.549,-0.056,98.350,-30.380,85.540
7465111,-0.692,-0.351,-0.034,94.570,-26.250,92.190
7465136,-0.756,-0.387,-0.056,72.240,-22.400,107.800
7465156,-0.830,-0.305,-0.056,44.520,-23.450,116.200
7465176,-0.869,-0.348,-0.063,12.040,-26.740,123.340
7465320,-1.133,-0.408,-0.183,-32.830,-42.070,129.220
7465340,-1.109,-0.348,-0.191,-50.610,-42.770,110.040
7465360,-1.092,-0.311,-0.171,-75.110,-40.460,87.220
7465380,-1.070,-0.320,-0.147,-101.010,-35.350,67.410
7465400,-1.049,-0.363,-0.141,-114.800,-29.890,47.740
7465418,-1.026,-0.416,-0.154,-115.010,-25.340,35.420
7465442,-0.993,-0.424,-0.177,-103.250,-21.350,21.700
7465461,-0.982,-0.427,-0.191,-91.700,-19.950,14.910
7465483,-0.971,-0.423,-0.191,-73.080,-20.440,11.130
7465504,-0.968,-0.389,-0.202,-57.400,-19.390,10.920
7465528,-0.952,-0.374,-0.193,-49.140,-20.930,12.390
7465548,-0.940,-0.366,-0.191,-45.220,-20.020,15.610
7465568,-0.932,-0.363,-0.188,-44.100,-19.740,19.740
7465587,-0.923,-0.375,-0.186,-45.010,-18.830,22.470
7465608,-0.915,-0.387,-0.187,-43.540,-16.520,25.760
7465628,-0.906,-0.380,-0.193,-43.470,-13.230,25.830
7465647,-0.906,-0.390,-0.192,-43.680,-9.940,23.590
7465666,-0.901,-0.417,-0.194,-40.530,-5.810,19.040
7465811,-0.999,-0.376,-0.177,8.610,20.580,-52.360
7465835,-1.013,-0.355,-0.169,13.440,20.090,-60.480
7465856,-1.018,-0.341,-0.150,15.750,19.880,-65.310
7465875,-1.024,-0.313,-0.142,14.700,19.880,-68.250
7465895,-1.017,-0.303,-0.145,11.900,18.410,-70.490
7465914,-1.014,-0.300,-0.148,8.820,18.060,-70.910
7465934,-1.020,-0.294,-0.144,7.560,16.940,-69.300
7465955,-1.007,-0.300,-0.143,8.820,17.430,-65.660
7465973,-1.014,-0.302,-0.147,11.480,16.800,-61.320
7465995,-0.991,-0.316,-0.130,16.450,17.010,-55.300
7466019,-0.977,-0.313,-0.116,24.710,18.830,-46.970
7466039,-0.975,-0.299,-0.100,28.840,20.510,-39.480
7466059,-0.990,-0.293,-0.102,31.430,20.300,-32.550
7466079,-0.977,-0.289,-0.104,34.790,18.690,-26.110
7466099,-0.963,-0.285,-0.097,37.940,17.500,-20.300
7466119,-0.957,-0.267,-0.090,40.460,15.750,-15.120
7466139,-0.948,-0.261,-0.076,40.530,14.210,-8.750
7466159,-0.956,-0.244,-0.078,37.170,12.040,-2.240
7466183,-0.960,-0.237,-0.074,29.610,8.330,5.320
7466202,-0.950,-0.243,-0.071,22.120,4.410,10.150
7466221,-0.951,-0.251,-0.076,12.880,1.050,16.100
7466240,-0.944,-0.258,-0.091,6.650,-2.520,21.280
7466264,-0.958,-0.259,-0.106,0.140,-6.020,27.790
7466284,-0.970,-0.281,-0.107,-5.950,-10.570,32.760
7466426,-0.926,-0.303,-0.253,-22.540,-22.960,28.140
7466451,-0.919,-0.282,-0.250,-22.190,-20.440,19.880
7466470,-0.944,-0.278,-0.267,-25.900,-15.610,13.790
7466486,-0.967,-0.280,-0.259,-28.910,-14.910,10.290
7466511,-0.966,-0.284,-0.255,-31.850,-11.690,6.370
7466531,-0.973,-0.283,-0.263,-32.480,-12.110,5.670
7466546,-0.969,-0.280,-0.258,-34.440,-13.160,6.160
7466566,-0.968,-0.299,-0.254,-36.050,-14.910,8.050
7466591,-0.978,-0.315,-0.262,-33.040,-17.990,10.640
7466611,-0.990,-0.314,-0.249,-30.030,-21.840,10.080
7466627,-0.973,-0.308,-0.230,-30.660,-22.400,8.750
7466651,-0.968,-0.308,-0.221,-32.340,-21.980,5.530
7466666,-0.967,-0.312,-0.214,-35.420,-21.280,3.780
7466687,-0.989,-0.346,-0.209,-34.160,-19.180,2.310
7466708,-1.000,-0.370,-0.202,-25.970,-20.090,1.260
7466729,-0.973,-0.377,-0.168,-15.960,-20.230,0.210
7466749,-0.954,-0.387,-0.132,-2.310,-17.150,0.140
7466768,-0.988,-0.381,-0.136,9.940,-12.460,1.260
7466916,-1.013,-0.263,0.144,69.090,22.260,4.130
7466936,-1.034,-0.164,0.142,51.100,12.740,-7.630
7466956,-0.950,-0.165,0.150,25.900,7.700,-14.700
7466976,-0.924,-0.167,0.150,8.540,3.080,-18.760
7466996,-0.919,-0.192,0.156,3.290,-2.590,-19.040
7467014,-0.937,-0.179,0.133,-3.500,-5.110,-16.310
7467037,-0.972,-0.196,0.077,-18.760,-10.430,-13.720
7467057,-0.954,-0.247,0.062,-25.060,-16.100,-9.170
7467077,-0.931,-0.251,0.072,-27.370,-15.820,-4.410
7467097,-0.919,-0.256,0.049,-32.620,-13.790,-2.240
7467117,-0.899,-0.281,0.028,-34.230,-9.870,0.700
7467141,-0.935,-0.282,-0.002,-32.760,-4.410,5.110
7467157,-0.984,-0.287,-0.032,-32.690,-5.180,6.020
7467176,-0.973,-0.324,-0.045,-28.910,-7.210,8.050
7467197,-0.919,-0.362,-0.024,-17.010,-7.210,9.870
7467219,-1.010,-0.413,0.064,18.900,1.470,14.630
7467238,-1.093,-0.311,0.097,41.160,-1.050,14.840
7467263,-1.312,-0.310,0.489,82.110,-16.380,29.260
7467283,-1.244,-0.095,0.557,103.250,22.820,62.020
7467303,-1.489,0.482,0.504,70.490,31.850,75.810
7467321,-1.508,0.926,0.447,-29.400,-14.000,38.990
7467342,-1.573,0.749,0.274,-171.150,-59.080,28.840
7467361,-1.741,0.187,0.175,-150.990,-96.320,45.640
7467386,-1.723,0.353,0.401,-116.970,-159.810,53.900
7467533,-1.584,0.063,0.346,-50.680,-187.460,99.610
7467553,-1.566,-0.201,0.484,-30.170,-203.350,102.690
7467573,-1.428,-0.070,0.413,-2.800,-177.450,114.310
7467593,-1.466,0.293,0.327,-56.490,-178.990,86.450
7467613,-1.305,0.189,0.226,-134.120,-188.230,51.800
7467632,-1.221,0.021,0.166,-162.260,-202.930,18.480
7467657,-0.879,-0.057,0.109,-193.200,-217.070,-18.480
7467677,-0.733,-0.246,0.219,-192.990,-211.470,-37.800
7467698,-0.518,-0.289,0.196,-179.690,-184.520,-40.040
7467718,-0.483,-0.245,0.108,-177.730,-161.490,-51.030
7467737,-0.363,-0.311,0.247,-158.970,-170.310,-65.450
7467762,-0.135,-0.484,0.241,-106.750,-165.130,-55.860
7467905,0.211,-0.288,0.658,-5.180,-34.230,-3.780
7467923,0.164,-0.285,0.670,27.020,-9.730,3.780
7467940,0.062,-0.113,0.662,23.940,3.220,1.120
7467965,-0.021,-0.134,0.631,13.930,5.600,-5.670
7467985,-0.098,-0.105,0.655,8.610,19.180,-5.320
7468005,-0.322,-0.180,0.743,5.600,32.690,-0.700
7468029,-0.515,-0.251,0.740,38.150,42.840,15.680
7468048,-0.582,-0.167,0.725,59.990,36.960,21.210
7468068,-0.511,-0.187,0.818,73.780,29.820,18.620
7468091,-0.466,-0.113,0.909,83.860,39.830,15.680
7468111,-0.526,-0.002,0.988,67.900,51.730,7.070
7468131,-0.467,0.097,0.975,52.430,45.990,1.890
7468155,-0.495,0.090,0.995,21.910,33.810,2.520
7468175,-0.553,-0.030,1.054,22.610,22.610,11.900
7468194,-0.537,0.057,1.047,5.530,17.850,11.130
7468215,-0.519,0.068,0.977,-33.950,11.130,-1.400
7468234,-0.459,0.011,0.894,-49.840,5.320,-7.770
7468253,-0.484,-0.078,0.904,-54.600,2.870,-13.370
7468403,-0.342,-0.224,0.645,-64.960,7.770,-22.680
7468423,-0.185,-0.334,0.745,-72.590,13.930,-22.540
7468439,-0.183,-0.584,1.012,-49.280,38.430,-13.510
7468462,-0.250,-0.761,1.338,39.970,68.950,13.440
7468480,-0.246,-0.607,1.399,142.450,91.770,33.740
7468503,-0.351,-0.440,1.229,161.910,90.020,51.730
7468520,-0.557,0.039,1.316,118.720,51.940,39.550
7468540,-0.517,0.211,1.380,-47.040,4.270,-4.970
7468559,-0.388,-0.337,1.253,-125.440,-21.000,-35.630
7468584,-0.383,-0.639,1.158,-105.770,-18.760,-50.820
7468604,-0.324,-0.633,1.060,-108.150,-24.220,-72.800
7468623,-0.208,-0.653,0.945,-109.620,-15.190,-86.310
7468765,-0.265,-0.465,0.403,-3.430,75.740,-82.460
7468789,-0.454,-0.309,0.411,-15.750,92.120,-89.810
7468809,-0.610,-0.283,0.316,-48.230,108.780,-97.300
7468828,-0.611,-0.076,0.197,-108.920,79.170,-118.370
7468851,-0.425,-0.081,-0.002,-198.940,119.000,-118.370
7468871,-0.925,-0.517,0.081,-172.200,136.570,-101.500
7468895,-0.641,-0.543,0.058,-24.570,97.230,-59.220
7468915,-0.506,-0.297,-0.071,45.220,158.620,-28.280
7468933,-0.825,-0.135,-0.270,48.300,187.460,-19.600
7468952,-1.037,-0.123,-0.386,27.090,194.740,-13.090
7468977,-1.031,-0.268,-0.468,31.780,194.390,-5.250
7468997,-1.068,-0.312,-0.396,-0.210,237.580,-0.280
7469017,-1.249,-0.794,-0.699,10.570,276.150,18.620
7469035,-1.406,-0.764,-0.635,107.170,259.210,25.830
7469059,-1.240,-0.270,0.500,50.120,259.560,-7.000
7469079,-0.946,-0.855,0.192,-16.380,337.050,1.890
7469099,-1.189,-1.468,-0.485,53.340,372.820,36.750
7469118,-1.957,-0.895,0.467,113.680,307.790,49.420
7469139,-1.830,-0.671,0.288,18.200,296.870,-3.290
7469159,-1.574,-1.018,-0.150,23.380,240.800,-0.910
7469177,-1.593,-1.349,0.040,133.490,224.560,23.030
7469196,-2.209,-0.883,1.525,199.220,203.280,3.850
7469215,-1.437,0.234,0.303,106.400,253.330,-43.330
7469236,-1.482,0.419,-0.096,-95.060,163.940,-84.560
7469380,-0.993,-0.458,-0.093,61.390,32.410,44.310
7469403,-0.997,0.452,0.340,-100.870,-12.320,-5.810
7469423,-0.651,-1.130,-0.341,-75.530,-12.530,-1.680
7469443,-0.748,-0.815,-0.322,38.500,-18.130,37.310
7469467,-0.739,-0.259,-0.018,-39.620,-26.180,17.150
7469484,-0.816,-0.306,0.120,-52.990,-20.650,21.700
7469508,-1.064,-0.380,0.008,-79.380,-39.410,27.650
7469528,-1.195,-0.260,0.030,-58.870,-54.950,49.140
7469546,-1.372,-0.016,0.199,-14.700,-70.210,79.450
7469570,-1.376,0.056,0.375,6.580,-82.110,118.020
7469590,-1.627,-0.053,0.296,19.320,-105.140,159.040
7469610,-1.738,0.083,0.287,31.500,-150.500,183.330
7469630,-1.552,0.233,0.279,6.230,-153.580,197.190
7469654,-1.631,0.170,0.152,-12.110,-121.520,225.750
7469674,-1.903,0.219,-0.082,-47.740,-124.950,228.270
7469692,-2.123,0.081,-0.275,-83.790,-162.540,214.340
7469711,-1.964,0.059,-0.277,-119.070,-180.740,203.770
7469731,-1.749,0.052,-0.287,-211.330,-184.170,223.370
7469880,-1.057,-0.524,-0.066,-100.730,-158.760,89.250
7469899,-1.076,-0.182,-0.214,-114.730,-155.190,69.720
7469919,-1.038,-0.156,-0.096,-157.150,-161.350,37.380
7469939,-0.934,-0.203,-0.075,-184.100,-168.910,12.460
7469964,-0.663,-0.438,-0.081,-168.630,-175.770,-2.380
7469982,-0.529,-0.425,-0.072,-140.070,-139.650,3.150
7470000,-0.672,-0.261,-0.119,-123.690,-106.540,6.790
7470024,-0.597,-0.237,-0.161,-127.540,-119.910,-19.110
7470044,-0.374,-0.470,-0.067,-92.820,-121.940,-22.260
7470068,-0.271,-0.348,-0.013,-59.290,-58.030,-8.330
7470087,-0.366,-0.122,-0.045,-72.450,-35.700,-17.850
7470104,-0.275,-0.459,0.148,-77.000,-39.410,-29.890
7470128,-0.201,-0.618,0.340,5.250,15.330,-0.210
7470144,-0.237,-0.343,0.372,40.390,38.640,6.510
7470168,-0.311,-0.236,0.433,36.050,48.160,4.760
7470188,-0.328,-0.324,0.432,55.160,73.150,18.340
7470208,-0.495,-0.225,0.545,60.200,88.270,13.510
7470224,-0.596,-0.370,0.974,51.310,66.500,7.770
7470247,-0.471,-0.750,1.361,138.180,87.500,26.460
7470265,-0.431,-0.583,1.207,252.840,110.670,53.340
7470285,-0.563,-0.058,1.048,270.550,120.820,64.610
7470309,-0.743,0.517,1.192,110.880,49.630,24.710
7470329,-0.722,0.262,1.209,3.500,19.110,-10.360
7470349,-0.616,0.075,1.195,-46.830,9.170,-34.440
7470495,-0.630,-0.292,0.443,-56.840,52.990,-95.130
7470515,-0.615,-0.407,0.375,-83.790,66.990,-111.510
7470539,-0.651,-0.614,0.234,-82.810,88.270,-126.910
7470559,-0.778,-0.799,0.087,-17.080,89.320,-117.250
7470575,-0.802,-0.617,0.150,17.570,125.090,-117.740
7470597,-0.983,-0.441,0.082,24.920,142.870,-122.500
7470618,-1.065,-0.457,0.001,13.020,160.160,-127.470
7470639,-1.244,-0.556,-0.233,34.510,145.670,-143.220
7470659,-1.201,-0.430,0.001,56.140,187.530,-124.880
7470683,-1.335,-0.139,-0.138,47.040,220.990,-125.440
7470703,-1.343,-0.643,-0.491,75.040,193.270,-118.510
7470720,-1.410,-0.684,-0.073,120.470,186.480,-110.880
7470743,-1.391,-0.423,0.247,195.020,192.710,-92.050
7470760,-1.281,0.062,0.083,145.670,202.230,-107.170
7470784,-1.203,0.397,-0.158,14.630,247.660,-136.850
7470804,-1.517,-0.190,-0.299,3.570,157.010,-117.040
7470824,-1.318,-0.593,0.026,75.180,151.480,-77.070
7470844,-1.366,-0.562,0.134,173.320,160.230,-40.460
7470985,-1.059,0.052,0.009,-77.420,86.870,3.570
7471005,-1.031,-0.840,-0.094,-66.080,41.440,29.610
7471029,-0.933,-1.027,-0.085,133.980,49.000,102.970
7471048,-1.057,-0.376,0.191,113.400,57.190,97.020
7471067,-1.313,-0.529,0.766,67.970,19.460,72.730
7471091,-1.012,0.042,0.734,-110.810,50.260,2.380
7471110,-1.054,-1.120,-0.197,-105.700,20.160,7.350
7471130,-0.955,-0.850,-0.346,-51.730,7.000,12.040
7471154,-0.848,-0.887,-0.401,-35.350,-13.860,-5.530
7471170,-0.722,-0.916,-0.243,-15.820,-21.000,-12.740
7471192,-0.642,-0.731,-0.178,1.190,-19.110,-16.940
7471212,-0.551,-0.552,-0.177,-2.520,-1.750,-17.640
7471235,-0.600,-0.536,-0.167,-3.500,1.540,-15.540
7471255,-0.652,-0.581,-0.183,-3.780,3.570,-12.180
7471279,-0.821,-0.611,-0.220,-6.160,-3.010,-7.770
7471298,-0.851,-0.497,-0.199,-12.460,-4.830,-7.140
7471318,-1.023,-0.425,-0.132,-44.450,-18.760,-17.080
7471341,-1.129,-0.436,-0.119,-53.340,-42.420,-21.980
7471362,-0.989,-0.088,-0.226,-92.820,-55.160,-29.750
7471378,-0.971,-0.102,-0.221,-128.940,-66.220,-34.300
7471400,-1.032,-0.337,-0.078,-131.250,-73.780,-24.220
7471424,-1.005,-0.364,-0.055,-106.890,-79.590,-7.070
7471444,-1.004,-0.325,-0.093,-104.790,-84.700,7.840
7471464,-1.047,-0.446,-0.122,-66.360,-91.980,33.180
7471480,-1.057,-0.470,-0.063,-34.230,-102.830,53.900
7471503,-1.132,-0.474,-0.030,20.090,-103.250,89.460
7471524,-1.113,-0.214,-0.169,31.500,-105.840,112.700
7471540,-1.133,-0.131,-0.179,8.400,-108.500,119.630
7471563,-1.197,-0.190,-0.117,-3.780,-113.750,126.980
7471586,-1.275,-0.246,-0.120,-13.370,-110.600,133.700
7471727,-1.213,-0.311,-0.274,-165.900,-137.690,47.110
7471752,-1.226,-0.386,-0.219,-148.750,-140.210,38.570
7471771,-1.152,-0.336,-0.264,-140.560,-141.050,28.630
7471791,-1.070,-0.354,-0.226,-134.120,-140.210,16.590
7471814,-1.078,-0.335,-0.093,-131.320,-135.520,6.440
7471835,-1.008,-0.302,-0.208,-133.560,-134.820,-7.350
7471850,-0.922,-0.388,-0.149,-140.490,-130.690,-11.060
7471870,-0.947,-0.357,-0.112,-136.430,-116.830,-18.200
7471895,-0.885,-0.263,-0.283,-145.950,-104.790,-36.120
7471915,-0.813,-0.380,-0.093,-145.040,-95.130,-40.040
7471935,-0.663,-0.674,0.114,-100.100,-76.510,-25.200
7471959,-0.538,-0.435,0.000,-42.070,-40.040,-5.810
7471975,-0.547,-0.430,0.046,-22.260,-26.460,-1.120
7471994,-0.543,-0.637,0.262,11.620,-30.660,10.780
7472019,-0.498,-0.666,0.535,85.470,-11.200,31.010
7472039,-0.440,-0.494,0.470,86.100,14.630,32.830
7472059,-0.531,-0.485,0.472,58.310,25.620,16.660
7472079,-0.674,-0.488,0.496,43.540,25.830,7.070
7472099,-0.708,-0.440,0.496,39.970,27.510,-6.090
7472117,-0.627,-0.432,0.468,37.380,36.400,-13.020
7472139,-0.661,-0.479,0.426,27.440,43.680,-25.970
7472159,-0.748,-0.594,0.417,41.860,47.670,-37.590
7472183,-0.746,-0.562,0.341,55.300,55.860,-49.210
7472203,-0.688,-0.364,0.288,40.390,64.330,-62.160
7472347,-1.008,-0.477,0.185,42.560,114.450,-139.440
7472371,-1.119,-0.605,0.251,57.050,117.950,-141.330
7472391,-1.246,-0.701,0.421,120.260,120.960,-134.260
7472411,-1.265,-0.611,0.446,165.130,123.410,-121.730
7472428,-1.141,-0.509,0.333,188.160,134.960,-109.760
7472451,-1.182,-0.415,0.249,192.010,138.950,-97.230
7472471,-1.385,-0.410,0.466,198.170,118.650,-85.330
7472492,-1.270,-0.239,0.259,184.590,122.080,-79.030
7472512,-1.143,0.026,-0.005,111.090,108.500,-84.910
7472532,-0.984,-0.084,0.105,60.550,75.180,-92.190
7472550,-0.944,-0.300,0.191,76.160,105.700,-69.300
7472574,-1.082,-0.259,0.244,114.240,110.670,-39.690
7472594,-1.079,-0.053,0.150,94.430,103.670,-26.250
7472618,-0.976,-0.070,0.156,38.920,85.890,-24.430
7472638,-0.890,-0.123,0.163,9.870,79.870,-17.780
7472657,-0.837,-0.196,0.156,-10.780,81.410,-12.460
7472677,-0.803,-0.294,0.071,-12.320,79.590,-2.030
7472697,-0.779,-0.310,0.118,-1.890,82.320,11.200
7472721,-0.779,-0.352,0.138,-8.400,100.030,21.350
7472739,-0.886,-0.513,-0.097,-13.160,85.820,28.840
7472761,-0.879,-0.616,-0.006,3.990,73.570,42.490
7472781,-0.814,-0.661,-0.032,19.110,80.710,48.440
7472803,-0.848,-0.543,-0.238,13.230,71.260,39.830
7472824,-0.793,-0.641,-0.047,5.600,57.960,34.090
7472968,-0.792,-0.721,0.088,-16.870,11.830,-16.660
7472992,-0.889,-0.807,0.039,4.830,8.120,-7.770
7473013,-0.945,-0.686,-0.045,10.150,-7.770,-10.920
7473032,-0.866,-0.601,-0.124,3.570,-15.960,-14.210
7473056,-0.805,-0.540,-0.220,-11.200,-16.730,-17.570
7473076,-0.818,-0.604,-0.283,-22.400,-13.790,-16.310
7473096,-0.819,-0.628,-0.257,-11.620,-3.010,-12.180
7473114,-0.868,-0.635,-0.217,5.460,6.510,-4.620
7473135,-0.856,-0.378,-0.140,7.280,10.920,-1.190
7473159,-0.813,-0.538,-0.037,4.270,16.520,1.960
7473174,-0.827,-0.484,-0.025,3.850,12.740,6.160
7473199,-0.891,-0.446,0.004,-10.710,1.750,14.630
7473219,-1.011,-0.448,0.042,-12.110,-18.130,19.810
7473239,-0.915,-0.295,0.005,-19.040,-33.950,19.600
7473258,-0.886,-0.247,0.029,-41.510,-50.470,15.120
7473282,-0.980,-0.411,0.128,-23.520,-51.170,29.120
7473306,-1.116,-0.237,0.085,-14.210,-62.720,48.230
7473326,-1.185,-0.070,-0.037,-51.730,-79.800,48.720
7473346,-1.165,-0.114,-0.117,-93.380,-96.110,47.530
7473365,-1.142,-0.268,-0.087,-104.300,-105.840,54.250
7473386,-1.129,-0.398,-0.080,-86.590,-112.000,71.750
7473402,-1.120,-0.333,-0.095,-84.980,-111.930,82.530
7473425,-1.143,-0.349,-0.180,-87.710,-118.650,92.820
7473445,-1.108,-0.368,-0.207,-90.160,-114.660,100.030
7473586,-1.085,-0.413,-0.291,-112.630,-98.420,61.950
7473608,-1.051,-0.333,-0.288,-111.650,-92.260,48.580
7473628,-1.065,-0.330,-0.283,-116.550,-88.130,34.090
7473652,-1.105,-0.365,-0.244,-111.370,-82.460,23.730
7473670,-1.104,-0.363,-0.253,-108.360,-80.220,14.980
7473690,-1.134,-0.323,-0.029,-100.660,-81.830,6.860
7473712,-0.969,-0.214,-0.013,-104.510,-80.080,0.280
7473730,-0.791,-0.255,-0.122,-112.140,-64.680,1.750
7473754,-0.957,-0.455,-0.010,-83.860,-57.050,11.550
7473771,-0.914,-0.266,0.183,-59.640,-60.970,13.230
7473791,-0.690,-0.285,0.204,-60.970,-49.840,14.420
7473811,-0.667,-0.441,0.253,-53.900,-27.230,29.330
7473950,-0.846,0.067,0.596,18.690,10.360,1.190
7473970,-0.838,-0.038,0.537,-16.100,-2.310,-19.600
7473994,-0.793,-0.102,0.548,-18.760,-3.430,-25.480
7474014,-0.794,-0.141,0.566,-11.970,-7.070,-25.410
7474033,-0.789,-0.199,0.590,-7.070,-6.300,-24.290
7474053,-0.794,-0.242,0.570,-3.500,-6.160,-23.380
7474073,-0.819,-0.299,0.573,11.620,3.080,-21.350
7474093,-0.913,-0.253,0.577,30.450,0.630,-20.300
7474118,-0.893,-0.168,0.521,23.730,-2.100,-33.880
7474137,-0.876,-0.247,0.527,6.020,-3.920,-45.780
7474157,-0.911,-0.292,0.513,-21.140,-6.090,-66.570
7474176,-0.867,-0.413,0.487,-32.830,-5.390,-89.180
7474197,-0.861,-0.437,0.383,-41.230,-7.350,-111.650
7474221,-0.797,-0.513,0.406,-39.480,-7.000,-119.910
7474241,-0.765,-0.670,0.385,-11.970,7.980,-119.070
7474261,-0.730,-0.672,0.320,19.600,15.820,-112.280
7474281,-0.724,-0.882,0.159,57.680,20.930,-104.510
7474299,-0.688,-0.749,0.158,87.710,25.340,-99.330
7474439,-0.913,-0.514,0.046,63.840,99.750,-98.420
7474463,-1.016,-0.445,0.061,69.370,104.510,-92.400
7474479,-0.988,-0.505,0.059,81.760,110.670,-86.730
7474504,-0.957,-0.547,0.020,133.000,128.100,-67.830
7474523,-1.125,-0.332,0.231,166.600,133.630,-50.960
7474540,-1.325,0.062,0.448,159.180,129.990,-52.920
7474564,-1.159,0.233,0.152,64.260,123.130,-51.940
7474584,-1.233,-0.004,-0.061,33.460,95.550,-41.440
7474604,-1.208,-0.021,-0.041,19.110,95.830,-27.160
7474619,-1.213,-0.153,-0.014,26.250,92.610,-17.640
7474644,-1.165,-0.264,0.160,40.880,98.140,0.560
7474660,-1.109,-0.353,0.176,48.020,112.420,15.260
7474683,-1.072,-0.331,0.174,57.050,114.590,38.640
7474703,-1.032,-0.306,0.054,59.150,101.640,29.820
7474723,-1.164,-0.492,0.243,95.410,51.730,33.670
7474743,-1.075,0.346,0.683,37.940,23.660,18.760
7474762,-0.733,-0.051,0.258,-108.990,43.330,-30.450
7474783,-0.909,-0.892,0.187,-66.080,9.450,-14.490
7474806,-0.719,-0.847,0.110,-47.950,45.990,2.730
7474828,-0.768,-0.770,-0.023,-38.780,37.240,0.140
7474848,-0.733,-0.773,-0.077,-49.560,28.210,-19.950
7474868,-0.694,-0.871,-0.112,-34.230,24.430,-7.630
7474888,-0.665,-0.901,-0.145,-1.120,17.220,-1.610
7474912,-0.715,-0.844,-0.020,20.300,12.390,-4.690
7474936,-0.703,-0.681,-0.064,17.010,6.930,-9.380
7474960,-0.798,-0.652,-0.048,8.680,1.820,-15.050
7474980,-0.831,-0.627,-0.046,-3.360,0.560,-20.720
7474995,-0.856,-0.621,-0.072,-8.890,-1.260,-23.450
7475015,-0.839,-0.593,-0.060,-11.760,-0.980,-20.790
7475040,-0.832,-0.634,-0.116,-12.320,-2.870,-18.620
7475184,-0.724,-0.725,-0.097,10.850,-2.030,0.490
7475203,-0.738,-0.681,-0.110,12.740,-2.100,0.910
7475223,-0.733,-0.659,-0.110,12.250,-0.910,-0.350
7475247,-0.707,-0.610,-0.121,8.260,3.010,-2.800
7475263,-0.726,-0.541,-0.056,0.770,4.410,-4.480
7475283,-0.767,-0.529,-0.050,-19.460,7.210,-9.380
7475304,-0.810,-0.524,-0.039,-26.040,8.750,-10.990
7475325,-0.888,-0.382,-0.025,-37.520,3.780,-14.910
7475346,-0.940,-0.248,-0.002,-73.920,-7.910,-26.880
7475368,-0.922,-0.295,-0.034,-96.460,-25.130,-27.090
7475389,-0.914,-0.373,0.040,-102.760,-30.450,-18.200
7475410,-0.972,-0.398,0.015,-90.020,-47.390,-3.850
7475434,-0.882,-0.395,0.029,-74.340,-45.360,25.270
7475452,-1.025,-0.363,-0.058,-58.800,-70.420,42.210
7475476,-1.005,-0.390,-0.120,-55.090,-68.810,70.490
7475496,-0.985,-0.388,-0.154,-62.300,-76.440,86.240
7475514,-0.985,-0.388,-0.227,-80.080,-79.800,91.000
7475536,-0.976,-0.389,-0.340,-105.070,-84.910,92.680
7475560,-0.990,-0.382,-0.402,-132.510,-89.460,90.580
7475580,-1.025,-0.386,-0.464,-153.860,-108.570,81.480
7475600,-0.894,-0.615,-0.474,-128.380,-101.920,78.820
7475619,-0.801,-0.762,-0.384,-85.540,-89.040,83.370
7475639,-0.848,-0.744,-0.392,-27.720,-79.100,81.550
7475663,-0.804,-0.560,-0.292,2.660,-56.420,65.590
7475798,-1.116,-0.278,-0.122,-29.400,-36.680,49.210
7475822,-1.116,-0.274,-0.108,-37.940,-54.670,49.630
7475843,-1.125,-0.310,-0.065,-31.780,-64.610,55.370
7475859,-1.107,-0.286,-0.099,-28.420,-59.920,54.040
7475879,-1.196,-0.236,-0.113,-32.270,-69.160,42.210
7475898,-1.139,-0.221,-0.062,-40.950,-66.010,30.520
7475920,-1.069,-0.123,0.058,-58.030,-61.180,16.660
7475944,-0.977,-0.191,0.030,-93.030,-43.470,5.600
7475963,-1.077,-0.284,-0.014,-91.210,-32.900,3.430
7475983,-1.095,-0.322,0.071,-81.060,-39.200,-0.280
7476006,-0.904,-0.389,0.240,-58.660,-42.280,2.450
7476025,-0.763,-0.479,0.287,-20.300,-28.770,14.210
7476046,-0.815,-0.447,0.290,25.970,-11.340,28.000
7476066,-0.881,-0.367,0.273,52.220,-6.440,35.140
7476090,-0.851,-0.218,0.365,62.020,-2.940,27.860
7476110,-0.931,-0.155,0.276,49.840,-3.570,20.230
7476128,-0.967,-0.215,0.296,43.050,-4.340,14.700
7476150,-0.970,-0.138,0.339,38.080,-7.840,6.230
7476285,-0.854,-0.230,0.239,26.110,14.280,-31.500
7476311,-0.915,-0.248,0.216,34.720,18.410,-36.540
7476330,-0.957,-0.228,0.204,37.590,21.910,-41.300
7476348,-0.950,-0.230,0.166,35.420,26.600,-46.760
7476369,-0.960,-0.259,0.109,37.380,32.060,-50.680
7476389,-0.968,-0.251,0.089,38.920,36.260,-56.700
7476413,-0.958,-0.265,0.042,41.860,44.520,-66.430
7476428,-0.968,-0.308,-0.017,49.490,49.910,-70.980
7476450,-1.020,-0.318,-0.037,71.330,58.380,-71.680
7476472,-1.082,-0.254,-0.003,90.090,68.670,-70.770
7476494,-1.140,-0.293,-0.087,99.050,73.290,-72.800
7476516,-1.150,-0.275,-0.170,116.760,85.330,-77.700
7476540,-1.202,0.127,0.150,62.790,90.720,-103.390
7476558,-1.186,0.274,0.194,-1.120,89.180,-129.150
7476578,-0.973,0.024,0.196,-82.460,111.090,-139.370
7476598,-1.185,-0.547,-0.223,-30.940,79.870,-108.010
7476619,-0.928,-0.448,0.069,73.010,115.080,-86.870
7476638,-1.024,-0.487,-0.087,106.960,110.670,-68.040
7476781,-0.791,-0.285,-0.084,27.790,59.150,-80.220
7476801,-0.748,-0.104,0.037,-3.990,41.300,-67.550
7476825,-1.000,-0.378,0.167,-71.470,18.480,-43.890
7476844,-0.686,-0.399,0.052,-8.330,34.720,-20.720
7476863,-0.696,-0.159,-0.001,-39.200,16.870,-18.270
7476885,-0.527,0.001,-0.128,-156.240,26.110,-54.530
7476902,-0.388,0.198,-0.216,-280.490,59.150,-99.260
7476924,-0.540,-0.528,-0.360,-338.380,34.650,-115.290
7476943,-0.639,-1.089,-0.817,-259.980,-4.620,-96.880
7476967,-0.385,-0.885,-0.573,-201.110,-1.470,-73.500
7476985,-0.478,-0.946,-0.620,-174.300,6.440,-59.220
7477005,-0.590,-0.926,-0.599,-112.350,-8.610,-19.810
7477029,-0.577,-0.591,-0.547,-68.180,-7.770,11.550
7477045,-0.595,-0.603,-0.562,-64.120,-6.650,13.860
7477069,-0.562,-0.650,-0.715,-68.460,-4.200,12.600
7477088,-0.544,-0.670,-0.782,-49.420,-1.120,16.590
7477108,-0.544,-0.710,-0.829,-36.120,-2.100,12.530
7477132,-0.537,-0.777,-0.827,-12.950,10.290,15.470
7477271,-0.666,-0.630,-0.525,33.250,3.710,10.990
7477295,-0.625,-0.572,-0.539,56.490,-9.800,10.360
7477315,-0.596,-0.488,-0.583,65.660,-9.100,16.100
7477335,-0.633,-0.547,-0.519,71.400,-7.630,35.630
7477350,-0.929,-0.646,-0.364,86.030,-18.900,41.720
7477375,-1.011,-0.484,-0.151,117.390,-65.730,53.620
7477399,-0.957,-0.253,-0.122,133.630,-84.420,84.280
7477419,-1.062,-0.487,-0.081,133.980,-104.930,112.980
7477435,-1.029,-0.540,-0.093,184.590,-126.280,151.760
7477454,-1.159,-0.635,-0.284,246.890,-135.870,187.670
7477479,-0.996,-0.264,-0.064,221.690,-118.720,202.230
7477499,-1.039,0.350,-0.004,140.210,-106.400,202.300
7477515,-1.160,0.180,0.116,65.030,-99.540,206.220
7477539,-1.331,0.067,-0.156,19.670,-104.580,172.760
7477559,-1.378,0.047,-0.115,-92.260,-101.010,153.580
7477579,-1.385,0.029,-0.186,-150.500,-98.280,129.010
7477603,-1.461,-0.183,-0.266,-184.380,-106.680,116.970
7477621,-1.564,-0.258,-0.318,-181.090,-111.650,108.710
7477766,-1.224,-0.321,-0.281,-188.580,-146.160,13.300
7477784,-1.289,-0.419,-0.180,-158.060,-143.850,13.720
7477807,-1.121,-0.359,-0.135,-136.710,-145.530,7.070
7477828,-1.069,-0.438,-0.089,-109.200,-134.400,11.340
7477849,-1.097,-0.350,-0.024,-84.700,-122.500,5.320
7477868,-0.989,-0.331,0.061,-81.480,-131.320,-6.930
7477893,-0.737,-0.662,0.272,-24.640,-128.590,-2.590
7477912,-0.642,-0.588,0.298,59.010,-81.270,23.450
7477932,-0.772,-0.238,0.310,80.150,-73.220,24.150
7477952,-0.597,-0.180,0.433,59.990,-78.750,13.090
7477972,-0.476,-0.095,0.601,42.420,-68.530,5.180
7477994,-0.467,-0.060,0.655,5.320,-57.610,-10.990
7478143,-0.339,-0.311,0.348,-12.950,27.230,-23.450
7478163,-0.431,-0.322,0.398,18.200,31.150,-24.710
7478187,-0.304,-0.416,0.400,36.470,42.070,-24.850
7478204,-0.350,-0.369,0.463,80.570,70.560,-20.510
7478223,-0.449,-0.104,0.486,83.930,80.360,-15.890
7478247,-0.504,-0.078,0.456,39.760,92.960,-27.440
7478265,-0.430,-0.150,0.150,2.170,101.290,-38.570
7478288,-0.701,-0.515,0.292,15.680,111.160,-49.980
7478309,-0.817,-0.751,0.317,105.700,123.690,-48.510
7478325,-0.776,-0.715,0.102,155.890,156.730,-41.230
7478348,-1.004,-0.382,0.225,196.210,135.800,-73.220
7478364,-1.129,-0.448,0.364,223.930,133.000,-80.850
7478388,-1.201,-0.140,0.343,206.780,144.620,-107.660
7478408,-1.221,0.002,0.122,133.210,132.300,-144.900
7478426,-1.300,-0.193,0.150,94.850,129.920,-163.310
7478447,-1.421,-0.401,0.397,103.810,118.930,-173.250
7478470,-1.377,-0.401,0.374,128.800,128.590,-167.510
7478490,-1.332,-0.251,0.201,140.420,136.150,-158.200
7478511,-1.296,-0.112,0.159,119.210,141.190,-149.870
7478530,-1.560,-0.252,0.266,104.860,150.080,-142.590
7478555,-1.557,-0.289,0.269,135.730,129.220,-123.690
7478574,-1.491,-0.236,0.383,134.330,130.200,-119.630
7478594,-1.470,0.241,0.307,103.530,131.040,-123.060
7478614,-1.137,0.268,0.006,32.970,81.200,-123.130
7478635,-1.002,-0.120,-0.037,9.240,83.230,-99.050
7478658,-1.126,-0.462,0.033,50.750,64.120,-62.580
7478678,-1.054,-0.459,0.007,88.970,67.970,-35.070
7478697,-1.033,-0.222,-0.093,92.890,71.960,-23.170
7478721,-0.995,-0.181,-0.087,52.430,63.770,-22.050
7478740,-0.943,-0.223,-0.081,9.940,54.110,-27.720
7478764,-1.026,-0.216,0.017,-26.600,28.700,-12.320
7478784,-1.090,-0.225,0.164,-15.330,-0.840,16.590
7478804,-0.844,0.140,0.291,-94.430,-0.980,-10.780
7478822,-0.727,-0.084,0.137,-181.300,6.020,-47.390
7478844,-0.620,-0.830,-0.122,-219.240,-5.810,-66.010
7478868,-0.597,-1.211,-0.238,-118.440,8.400,-35.980
7479008,-0.736,-0.508,-0.203,-32.200,18.200,-11.340
7479033,-0.782,-0.521,-0.216,-73.570,7.210,-18.270
7479053,-0.769,-0.658,-0.260,-81.970,0.770,-20.300
7479072,-0.734,-0.718,-0.298,-79.590,-2.450,-16.380
7479091,-0.732,-0.601,-0.315,-73.640,-4.200,-16.800
7479115,-0.883,-0.902,-0.179,-111.580,-11.200,-26.670
7479134,-0.824,-0.837,-0.070,-51.170,-3.850,-22.610
7479154,-0.832,-0.594,-0.092,-53.970,-6.860,-26.040
7479179,-0.971,-0.961,-0.440,-40.600,-34.370,-13.160
7479197,-0.785,-0.590,-0.142,-13.020,-25.480,10.220
7479218,-0.928,-0.646,-0.102,2.030,-47.320,29.470
7479235,-0.966,-0.684,-0.029,60.200,-58.800,62.020
7479254,-0.981,-0.475,-0.118,94.290,-77.630,90.090
7479274,-0.834,-0.177,-0.080,91.350,-81.690,118.300
7479299,-1.071,-0.451,-0.183,108.010,-101.640,122.290
7479319,-0.966,-0.231,0.149,92.470,-103.040,143.920
7479339,-1.033,-0.163,-0.013,45.150,-82.670,138.110
7479354,-1.091,-0.033,-0.175,0.560,-83.790,125.650
7479378,-1.137,-0.112,0.148,-49.140,-68.110,126.210
7479399,-1.326,-0.224,-0.000,-84.770,-74.480,123.550
7479415,-1.307,-0.228,-0.031,-97.930,-73.780,120.960
7479434,-1.309,-0.238,-0.098,-111.090,-79.170,118.510
7479459,-1.335,-0.344,-0.126,-108.990,-82.460,123.760
7479479,-1.410,-0.318,-0.109,-92.960,-87.010,126.420
7479494,-1.418,-0.301,-0.114,-82.320,-95.060,125.090
7479519,-1.461,-0.215,-0.146,-76.230,-100.590,114.450
7479535,-1.448,-0.237,-0.143,-84.140,-108.570,108.290
7479559,-1.496,-0.133,-0.018,-90.440,-112.420,90.580
7479579,-1.490,-0.039,0.004,-133.280,-118.300,70.280
7479599,-1.506,0.254,-0.148,-200.480,-133.490,30.730
7479736,-0.893,-0.618,-0.270,-172.760,-166.810,-87.010
7479760,-0.808,-0.648,-0.198,-102.340,-145.110,-70.280
7479780,-0.795,-0.612,-0.093,-56.910,-136.990,-59.920
7479804,-0.684,-0.455,-0.034,-24.010,-113.260,-50.610
7479822,-0.619,-0.407,0.006,-38.570,-104.230,-47.950
7479841,-0.587,-0.564,0.045,-11.760,-85.050,-39.130
7479861,-0.613,-0.603,0.129,26.600,-65.170,-27.300
7479886,-0.639,-0.507,0.200,41.580,-50.540,-27.230
7479902,-0.535,-0.406,0.281,35.350,-47.810,-28.700
7479921,-0.430,-0.480,0.377,40.180,-35.700,-23.590
7479941,-0.397,-0.383,0.401,47.880,-10.990,-13.020
7479966,-0.390,-0.362,0.566,43.190,-10.500,-3.850
7480109,-0.447,-0.403,0.809,34.650,20.930,30.100
7480133,-0.493,-0.367,0.801,23.450,27.510,22.610
7480153,-0.501,-0.446,0.744,16.030,28.350,13.440
7480170,-0.482,-0.451,0.706,18.970,39.130,8.820
7480189,-0.563,-0.394,0.769,24.150,27.300,-0.980
7480214,-0.440,-0.270,0.792,35.000,24.150,3.220
7480231,-0.314,-0.163,0.685,21.490,35.070,-1.540
7480255,-0.436,-0.284,0.421,18.970,55.790,-1.680
7480275,-0.644,-0.588,0.693,54.390,49.560,-0.070
7480295,-0.567,-0.496,0.772,91.280,53.620,-1.610
7480314,-0.445,-0.385,0.661,86.800,59.500,-12.950
7480333,-0.359,-0.332,0.366,67.550,84.700,-23.520
7480358,-0.556,-0.429,0.279,60.620,106.330,-41.440
7480378,-0.667,-0.636,0.305,93.940,114.100,-47.250
7480398,-0.696,-0.643,0.269,129.990,119.560,-56.140
7480417,-0.694,-0.544,0.129,150.290,130.340,-67.130
7480438,-0.840,-0.379,0.168,145.600,130.900,-83.440
7480454,-0.836,-0.417,0.124,135.170,139.930,-93.800
7480476,-0.920,-0.423,0.050,117.740,148.890,-114.100
7480495,-1.179,-0.403,0.097,121.870,152.740,-116.060
7480519,-1.365,-0.258,0.107,78.820,149.240,-132.440
7480539,-1.347,-0.450,0.055,51.660,154.420,-142.590
7480559,-1.350,-0.549,0.171,40.180,162.680,-153.720
7480581,-1.356,-0.540,0.297,35.140,164.640,-161.630
7480726,-1.081,0.037,-0.060,-28.700,86.170,-90.930
7480747,-0.939,-0.295,-0.127,-80.850,76.720,-84.630
7480765,-0.895,-0.488,-0.174,-71.610,77.910,-66.290
7480785,-0.777,-0.671,-0.139,-41.510,84.070,-39.620
7480809,-1.289,-1.627,0.055,141.050,45.010,73.010
7480829,-0.772,0.029,0.140,180.040,40.600,103.180
7480853,-0.547,0.430,0.312,-64.890,61.600,11.340
7480870,-0.674,-0.201,-0.033,-172.830,73.430,-31.570
7480894,-0.666,-0.865,-0.243,-124.460,59.010,-2.590
7480914,-0.601,-0.833,-0.310,-64.820,51.450,16.520
7480931,-0.365,-0.412,-0.285,-145.040,74.760,-42.140
7480955,-0.563,-1.081,-0.417,-100.800,52.920,-7.350
7480975,-0.628,-0.890,-0.695,-74.270,26.390,-12.740
7480995,-0.566,-0.790,-0.574,-80.080,25.480,-19.530
7481015,-0.592,-0.742,-0.582,-91.490,28.000,-25.480
7481039,-0.580,-0.664,-0.433,-46.060,11.480,-11.620
7481063,-0.614,-0.705,-0.431,-43.890,17.780,-6.020
7481083,-0.691,-0.763,-0.444,-25.270,25.620,9.030
7481103,-0.790,-0.766,-0.460,-11.760,20.440,5.320
7481122,-0.637,-0.900,-0.285,-10.920,21.980,6.230
7481143,-0.956,-0.809,-0.394,-7.350,13.370,6.510
7481162,-0.767,-0.819,-0.560,34.370,-2.240,32.340
7481181,-0.753,-0.439,-0.409,49.070,-10.780,41.790
7481203,-0.768,-0.347,-0.326,32.340,-26.670,46.830
7481351,-1.142,0.102,-0.156,68.110,-83.930,163.870
7481371,-1.148,0.036,-0.038,7.560,-74.760,149.520
7481389,-1.274,0.179,0.066,-42.350,-93.450,129.850
7481409,-1.282,-0.249,-0.196,-100.800,-74.830,128.590
7481433,-1.420,-0.137,-0.145,-147.280,-91.280,114.170
7481450,-1.415,-0.317,-0.145,-144.690,-94.360,115.080
7481469,-1.434,-0.378,-0.129,-128.310,-99.540,117.040
7481489,-1.445,-0.340,-0.091,-109.550,-104.860,119.000
7481509,-1.487,-0.243,-0.121,-101.920,-109.900,117.320
7481534,-1.456,-0.335,-0.058,-107.730,-114.940,112.840
7481550,-1.475,-0.120,-0.104,-113.890,-120.540,100.870
7481572,-1.504,-0.056,-0.142,-147.070,-136.360,71.610
7481593,-1.473,-0.122,-0.157,-173.390,-145.740,48.440
7481616,-1.443,-0.074,-0.169,-202.720,-155.680,18.480
7481636,-1.304,-0.149,-0.246,-226.030,-161.770,-4.760
7481656,-1.318,-0.400,-0.237,-217.910,-166.320,-17.430
7481676,-1.334,-0.425,-0.152,-180.600,-170.940,-25.550
7481695,-1.245,-0.250,-0.118,-171.640,-166.180,-37.520
7481839,-0.627,-0.510,0.346,-6.580,-131.880,-40.880
7481858,-0.520,-0.363,0.396,24.290,-97.720,-28.910
7481879,-0.528,-0.327,0.279,46.830,-97.020,-19.180
7481899,-0.347,-0.156,0.436,-14.840,-58.590,-27.720
7481919,-0.329,-0.437,0.503,17.430,-59.430,-24.780
7481938,-0.202,-0.306,0.548,31.220,-45.290,-8.890
7481962,-0.150,-0.181,0.532,19.670,-21.490,-9.940
7481983,-0.242,-0.295,0.555,9.730,-16.520,-13.860
7482003,-0.246,-0.314,0.684,21.770,-11.270,-14.350
7482021,-0.220,-0.251,0.687,22.750,1.610,-16.380
7482041,-0.338,-0.230,0.664,19.390,10.430,-18.830
7482061,-0.348,-0.263,0.702,22.960,11.550,-21.280
7482209,-0.450,-0.479,0.772,69.020,70.980,-14.420
7482228,-0.463,-0.355,0.677,92.540,79.730,-22.960
7482248,-0.491,-0.267,0.499,96.040,83.650,-42.350
7482270,-0.599,-0.386,0.652,121.590,75.040,-49.350
7482292,-0.712,-0.248,0.552,134.400,99.190,-53.760
7482312,-0.671,-0.082,0.311,102.270,77.280,-83.370
7482332,-0.722,-0.170,0.562,103.530,74.690,-93.310
7482356,-0.769,-0.105,0.619,83.440,86.310,-104.790
7482376,-0.707,-0.246,0.468,51.800,98.980,-119.490
7482396,-0.669,-0.369,0.200,49.420,116.620,-128.310
7482414,-0.741,-0.401,0.231,62.090,133.140,-130.340
7482432,-0.837,-0.481,0.321,82.530,152.180,-127.540
7482578,-1.374,-0.374,0.205,103.250,177.940,-140.350
7482595,-1.427,-0.370,-0.017,89.460,171.990,-137.900
7482619,-1.422,-0.378,-0.100,81.550,142.660,-120.890
7482643,-1.456,-0.517,0.094,78.680,114.660,-112.560
7482663,-1.453,-0.502,0.352,76.790,95.830,-117.110
7482683,-1.255,-0.124,0.201,24.290,78.680,-122.640
7482703,-1.109,-0.114,0.102,-30.380,72.730,-125.860
7482722,-0.979,-0.317,0.053,-60.410,72.240,-121.800
7482746,-0.877,-0.526,0.078,-50.610,78.260,-101.500
7482767,-0.815,-0.642,0.093,-29.680,76.090,-72.310
7482786,-0.774,-0.604,0.142,-3.780,69.230,-49.350
7482810,-1.095,-0.577,0.373,24.920,51.590,8.330
7482833,-1.012,-0.090,0.280,14.140,22.050,10.220
7482857,-0.517,-0.130,0.085,-83.020,35.770,-34.580
7482882,-0.587,-0.406,-0.071,-198.100,60.060,-58.240
7482901,-0.587,-1.054,-0.074,-67.340,48.020,-28.630
7482920,-0.737,-1.225,-0.438,-76.510,20.160,11.620
7482939,-0.673,-0.989,-0.307,-60.200,25.690,11.130
7482964,-0.661,-0.766,-0.352,-55.510,16.310,9.940
7482984,-0.581,-0.517,-0.268,-102.480,26.180,-6.860
7483004,-0.686,-0.856,-0.386,-85.540,0.560,-4.060
7483024,-0.613,-0.827,-0.387,-82.810,12.810,-6.370
7483044,-0.653,-0.815,-0.403,-60.830,-12.880,-6.650
7483063,-0.660,-0.823,-0.341,-41.160,-10.150,-2.660
7483088,-0.755,-0.933,-0.279,-32.550,-15.960,-5.530
7483104,-0.717,-0.827,-0.281,-15.750,-20.510,-4.760
7483128,-0.672,-0.693,-0.357,-11.340,-22.680,-2.170
7483148,-0.618,-0.702,-0.341,7.000,-17.430,15.050
7483167,-0.706,-0.607,-0.276,17.430,-13.300,28.140
7483186,-0.816,-0.576,-0.218,26.600,-25.130,39.970
7483329,-1.158,-0.176,0.068,-4.620,-85.960,138.180
7483349,-1.196,-0.122,0.039,-29.260,-89.320,131.040
7483370,-1.145,-0.072,-0.062,-89.810,-85.470,122.640
7483389,-1.194,-0.163,-0.117,-127.960,-80.850,117.250
7483409,-1.304,-0.269,-0.121,-147.630,-82.110,113.960
7483434,-1.352,-0.332,-0.094,-149.520,-91.210,106.820
7483452,-1.277,-0.256,-0.200,-153.020,-92.540,99.890
7483472,-1.276,-0.277,-0.194,-156.310,-95.550,94.220
7483496,-1.275,-0.361,-0.120,-146.580,-95.760,91.980
7483516,-1.322,-0.412,-0.066,-127.610,-95.970,88.060
7483536,-1.312,-0.304,-0.096,-119.980,-98.000,81.830
7483554,-1.319,-0.254,-0.184,-127.330,-106.820,71.680
7483573,-1.298,-0.279,-0.140,-128.450,-115.920,62.020
7483595,-1.303,-0.303,-0.084,-128.940,-119.490,49.700
7483614,-1.306,-0.283,-0.030,-128.380,-119.210,39.200
7483634,-1.249,-0.245,-0.102,-141.190,-121.310,22.890
7483659,-1.130,-0.359,-0.077,-138.600,-121.450,15.540
7483679,-1.161,-0.487,0.024,-91.420,-118.580,21.210
7483824,-0.776,-0.699,0.322,-36.470,-107.660,-17.920
7483839,-0.759,-0.679,0.397,32.410,-91.700,2.240
7483860,-0.642,-0.329,0.410,54.110,-83.720,6.230
7483884,-0.545,-0.165,0.507,48.860,-74.270,0.770
7483903,-0.531,-0.179,0.553,23.240,-55.160,-5.670
7483923,-0.585,-0.236,0.516,11.340,-46.760,-10.010
7483942,-0.538,-0.219,0.525,4.060,-42.070,-19.600
7483966,-0.481,-0.194,0.609,3.290,-40.740,-26.250
7483987,-0.399,-0.192,0.688,8.610,-26.810,-25.620
7484005,-0.405,-0.176,0.646,10.570,-15.680,-24.990
7484026,-0.430,-0.163,0.639,4.270,-7.630,-25.550
7484046,-0.475,-0.185,0.702,1.820,-3.710,-29.400
7484069,-0.461,-0.168,0.743,11.970,0.560,-28.070
7484088,-0.438,-0.139,0.714,12.040,5.670,-27.090
7484110,-0.428,-0.149,0.657,17.290,14.350,-24.570
7484130,-0.478,-0.101,0.642,17.570,16.940,-25.410
7484149,-0.441,-0.129,0.614,7.070,17.220,-29.820
7484174,-0.346,-0.212,0.521,1.400,24.850,-31.710
7484322,-0.690,-0.490,0.189,81.060,123.340,-92.050
7484339,-0.682,-0.460,0.054,94.850,138.880,-96.880
7484362,-0.950,-0.584,0.127,133.980,159.110,-89.600
7484382,-1.180,-0.587,0.151,199.220,176.260,-83.860
7484402,-1.244,-0.404,-0.070,205.730,176.120,-94.360
7484420,-1.263,-0.178,0.042,185.710,172.550,-114.310
7484438,-1.209,-0.176,0.241,150.150,181.160,-128.170
7484462,-1.283,-0.444,0.130,153.930,196.560,-134.190
7484482,-1.395,-0.367,0.011,147.700,205.660,-145.880
7484501,-1.606,-0.292,0.218,127.120,189.840,-154.910
7484521,-1.551,-0.203,0.350,114.100,162.960,-155.190
7484545,-1.322,-0.205,0.165,70.560,136.710,-155.750
7484565,-1.147,-0.252,-0.027,43.540,126.350,-152.670
7484589,-1.330,-0.487,0.259,18.340,116.760,-127.540
7484609,-1.493,-0.585,0.332,43.960,103.600,-112.630
7484625,-1.360,-0.399,0.312,46.760,81.200,-104.790
7484645,-1.199,-0.311,0.243,22.610,62.160,-93.590
7484667,-1.076,-0.364,0.194,2.520,46.620,-80.360
7484808,-0.447,-0.241,0.050,-89.180,27.860,-39.690
7484828,-0.543,-0.539,-0.012,-157.570,26.320,-63.070
7484853,-0.494,-1.190,-0.217,-98.490,13.440,-41.300
7484872,-0.429,-1.286,-0.259,-24.710,3.710,-2.170
7484888,-0.427,-1.014,-0.184,21.070,8.330,16.730
7484908,-0.501,-0.852,-0.175,-8.330,14.910,2.030
7484933,-0.642,-0.880,-0.220,-44.520,8.330,-17.430
7484948,-0.594,-0.744,-0.215,-57.960,4.760,-24.500
7484968,-0.556,-0.764,-0.239,-77.840,5.180,-28.280
7484988,-0.530,-0.878,-0.214,-66.220,3.570,-19.390
7485013,-0.599,-0.889,-0.208,-50.050,6.090,-9.450
7485033,-0.597,-0.866,-0.234,-33.320,5.320,-2.030
7485051,-0.565,-0.881,-0.257,-5.460,4.900,7.350
7485075,-0.587,-0.847,-0.183,14.630,9.100,29.190
7485095,-0.777,-0.719,-0.019,21.980,-2.240,36.890
7485113,-0.912,-0.579,0.025,11.550,-14.910,40.810
7485134,-0.933,-0.636,-0.015,9.660,-30.870,49.560
7485158,-0.928,-0.754,-0.006,62.160,-44.170,96.740
7485178,-0.934,-0.505,0.118,98.210,-53.550,123.480
7485198,-0.945,-0.188,0.194,92.960,-59.290,140.350
7485216,-0.974,0.003,0.112,57.050,-60.200,141.330
7485234,-1.028,-0.047,0.083,10.920,-60.270,148.890
7485254,-1.077,-0.088,0.084,-37.660,-64.890,148.050
7485274,-1.179,-0.109,0.071,-66.990,-71.540,149.520
7485423,-1.444,-0.445,-0.186,-110.180,-122.220,159.110
7485441,-1.251,-0.206,-0.104,-107.170,-98.700,134.750
7485463,-1.299,-0.358,-0.143,-120.470,-107.450,91.770
7485483,-1.237,-0.184,-0.119,-150.360,-98.700,79.240
7485503,-1.208,-0.269,-0.144,-161.420,-101.290,51.590
7485520,-1.182,-0.304,-0.177,-168.700,-103.040,31.640
7485543,-1.142,-0.294,-0.203,-175.280,-106.540,4.270
7485564,-1.076,-0.279,-0.230,-181.790,-112.980,-17.570
7485583,-1.017,-0.306,-0.216,-185.150,-120.330,-34.510
7485603,-0.889,-0.319,-0.218,-185.220,-121.450,-46.900
7485623,-0.849,-0.373,-0.209,-171.570,-116.480,-51.240
7485648,-0.972,-0.394,-0.152,-149.590,-111.930,-49.560
7485668,-0.893,-0.357,-0.135,-141.890,-110.880,-53.900
7485685,-0.726,-0.341,-0.161,-140.770,-101.500,-55.020
7485706,-0.670,-0.434,-0.126,-132.790,-90.020,-49.210
7485728,-0.656,-0.574,0.081,-83.790,-69.860,-34.300
7485750,-0.581,-0.544,0.309,-22.540,-61.110,-17.850
7485772,-0.374,-0.482,0.453,6.020,-33.880,0.490
7485917,-0.662,-0.318,0.529,74.060,75.250,42.770
7485936,-0.809,-0.245,0.470,70.280,64.260,28.630
7485961,-0.787,-0.239,0.447,59.010,63.420,9.660
7485980,-0.783,-0.222,0.391,48.020,59.290,-8.470
7486000,-0.684,-0.197,0.224,37.310,65.030,-23.310
7486020,-0.938,-0.300,0.394,55.790,62.860,-37.450
7486044,-0.878,-0.269,0.429,67.340,63.560,-51.590
7486064,-0.744,-0.234,0.268,68.530,76.300,-64.540
7486082,-0.877,-0.330,0.262,88.550,87.500,-70.350
7486106,-1.072,-0.311,0.477,125.860,75.880,-75.880
7486126,-1.018,-0.234,0.421,140.140,84.700,-84.840
7486145,-1.033,-0.199,0.223,145.880,91.070,-93.380
7486161,-1.050,-0.189,0.074,148.610,97.300,-99.260
7486184,-1.205,-0.289,0.223,177.870,95.970,-103.250
7486205,-1.279,-0.224,0.186,194.950,105.420,-117.320
7486229,-1.241,-0.175,0.000,181.860,118.860,-139.860
7486249,-1.435,-0.216,0.095,182.280,122.290,-152.250
7486269,-1.526,-0.207,0.263,184.310,122.850,-158.760
7486409,-0.928,-0.134,0.209,-17.080,89.530,-150.010
7486429,-0.935,-0.466,0.224,-27.720,80.290,-132.160
7486452,-0.932,-0.480,0.176,-32.620,73.570,-110.880
7486472,-0.806,-0.638,0.054,-18.760,53.830,-79.660
7486493,-0.672,-0.521,-0.032,-16.170,37.100,-56.700
7486513,-0.670,-0.602,-0.042,-19.670,42.980,-41.510
7486533,-0.702,-0.568,0.020,-45.780,25.270,-39.340
7486557,-0.558,-0.656,0.014,-56.210,34.230,-28.770
7486574,-0.556,-0.749,-0.052,-70.350,34.020,-24.010
7486594,-0.527,-0.775,-0.075,-62.510,30.380,-11.340
7486614,-0.519,-0.742,-0.101,-47.950,22.820,1.330
7486634,-0.491,-0.703,-0.116,-31.780,12.180,11.830
7486658,-0.481,-0.623,-0.102,-11.130,0.700,30.170
7486677,-0.499,-0.575,-0.087,3.220,-8.890,47.670
7486697,-0.499,-0.502,-0.080,25.690,-15.820,71.820
7486717,-0.546,-0.435,-0.069,31.080,-21.280,92.400
7486737,-0.637,-0.405,-0.107,36.680,-27.510,118.370
7486761,-0.721,-0.337,-0.118,31.220,-33.530,147.770
7486781,-0.856,-0.247,-0.157,4.830,-33.040,163.660
7486796,-0.987,-0.165,-0.187,-32.970,-39.830,169.190
7486820,-1.115,-0.131,-0.265,-108.780,-45.850,167.090
7486844,-1.277,-0.163,-0.364,-175.490,-53.060,162.190
7486864,-1.365,-0.214,-0.472,-215.740,-65.450,149.660
7486883,-1.394,-0.249,-0.548,-247.310,-73.710,131.880
7487033,-1.096,-0.521,-0.365,-53.340,-30.030,49.770
7487053,-1.082,-0.438,-0.367,-27.230,-31.150,47.810
7487073,-1.023,-0.380,-0.358,-8.330,-32.970,45.920
7487093,-0.989,-0.310,-0.357,-3.850,-36.330,40.740
7487113,-0.951,-0.287,-0.333,-9.870,-38.920,35.560
7487133,-0.920,-0.291,-0.315,-15.820,-39.760,32.200
7487153,-0.889,-0.312,-0.296,-20.720,-38.500,30.730
7487171,-0.867,-0.336,-0.285,-20.930,-35.490,30.450
7487192,-0.857,-0.354,-0.287,-18.970,-30.800,30.100
7487215,-0.846,-0.371,-0.284,-16.170,-26.320,28.350
7487233,-0.833,-0.386,-0.285,-10.150,-20.860,24.990
7487255,-0.834,-0.393,-0.297,-2.870,-14.980,19.110
7487277,-0.863,-0.400,-0.316,7.350,-10.080,11.620
7487297,-0.893,-0.410,-0.323,17.920,-6.510,2.520
