Timestamp,AccelX,AccelY,AccelZ,GyroX,GyroY,GyroZ
864.628173,-0.014,0.102,1.046,1.610,-3.010,-0.770
864.632071,-0.018,0.106,1.047,1.750,-3.220,-0.770
864.641019,-0.016,0.104,1.050,1.680,-3.080,-0.770
864.649827,-0.016,0.104,1.047,1.400,-3.290,-0.700
864.656832,-0.012,0.101,1.046,2.380,-3.080,-0.770
864.664285,-0.014,0.111,1.049,0.980,-2.730,-0.910
864.67317,-0.012,0.104,1.049,0.770,-3.080,-0.770
864.682123,-0.015,0.102,1.046,2.310,-3.360,-0.770
864.686096,-0.013,0.110,1.048,2.100,-3.010,-0.770
864.695095,-0.013,0.103,1.046,2.170,-2.870,-0.840
864.706352,-0.016,0.105,1.051,3.150,-3.080,-0.840
864.711268,-0.013,0.109,1.049,2.870,-3.010,-0.840
864.720122,-0.012,0.108,1.049,2.450,-3.010,-0.910
864.728324,-0.011,0.107,1.051,2.660,-2.940,-0.840
864.737158,-0.011,0.107,1.049,2.730,-2.800,-0.840
864.748439,-0.012,0.109,1.050,2.380,-2.870,-0.700
864.753519,-0.012,0.109,1.053,2.380,-2.730,-0.840
864.757439,-0.014,0.113,1.052,1.750,-2.800,-0.980
864.766418,-0.009,0.107,1.052,2.170,-2.380,-0.840
864.774474,-0.010,0.110,1.050,1.610,-2.590,-0.840
864.781898,-0.012,0.108,1.053,1.330,-2.170,-0.840
864.786816,-0.013,0.107,1.050,1.400,-2.450,-0.700
864.795712,-0.014,0.109,1.053,1.260,-2.310,-0.840
864.804544,-0.008,0.112,1.055,0.770,-2.310,-0.840
864.808452,-0.010,0.110,1.052,0.560,-2.100,-0.840
864.823412,-0.013,0.109,1.051,0.350,-2.100,-0.770
864.832388,-0.012,0.108,1.052,0.280,-2.240,-0.630
864.836383,-0.012,0.106,1.049,0.210,-2.170,-0.700
864.845413,-0.012,0.111,1.051,-0.070,-2.240,-0.770
864.854417,-0.011,0.109,1.050,-0.420,-1.960,-0.700
864.865767,-0.013,0.110,1.051,-0.700,-1.960,-0.770
864.874769,-0.013,0.106,1.047,-0.700,-1.820,-0.770
864.883772,-0.011,0.107,1.048,-0.490,-2.030,-0.770
864.890633,-0.015,0.104,1.047,0.000,-2.030,-0.770
864.894536,-0.012,0.104,1.048,0.070,-2.100,-0.840
864.903927,-0.012,0.108,1.047,0.140,-2.100,-0.770
864.910984,-0.014,0.107,1.047,0.210,-2.030,-0.770
864.91489,-0.014,0.103,1.048,0.420,-2.100,-0.840
864.923781,-0.014,0.106,1.048,0.350,-2.170,-0.840
864.930788,-0.016,0.104,1.048,0.420,-2.310,-0.770
864.938315,-0.017,0.105,1.049,0.350,-2.240,-0.770
864.947141,-0.015,0.106,1.050,0.210,-2.240,-0.840
864.951167,-0.016,0.105,1.047,0.280,-2.380,-0.770
864.96011,-0.017,0.103,1.046,0.350,-2.310,-0.770
864.964068,-0.017,0.105,1.046,0.420,-2.240,-0.770
864.97654,-0.015,0.105,1.048,0.700,-2.450,-0.910
864.980496,-0.015,0.104,1.048,0.840,-2.450,-0.770
864.987469,-0.017,0.104,1.043,0.980,-2.520,-0.840
864.996413,-0.015,0.105,1.047,1.400,-2.590,-0.840
865.005169,-0.016,0.106,1.048,1.330,-2.730,-0.910
865.016462,-0.014,0.104,1.048,1.680,-2.730,-0.910
865.025457,-0.013,0.109,1.046,1.540,-2.730,-0.910
865.032463,-0.013,0.105,1.049,1.470,-2.730,-0.840
865.036422,-0.014,0.105,1.048,1.610,-2.870,-0.840
865.045404,-0.012,0.104,1.047,1.820,-2.940,-0.910
865.060979,-0.014,0.106,1.047,2.240,-3.010,-0.910
865.064883,-0.014,0.105,1.047,2.380,-3.080,-0.980
865.073774,-0.012,0.107,1.047,2.520,-3.080,-0.910
865.082787,-0.016,0.106,1.048,2.870,-3.150,-0.840
865.091778,-0.014,0.108,1.049,2.940,-3.220,-0.840
865.1031,-0.015,0.110,1.047,2.870,-3.150,-0.910
865.110136,-0.013,0.111,1.049,2.870,-3.080,-0.840
865.119163,-0.012,0.110,1.052,2.800,-3.150,-0.910
865.123116,-0.012,0.110,1.050,2.590,-3.010,-0.910
865.132012,-0.012,0.113,1.051,2.030,-2.870,-0.770
865.143346,-0.012,0.111,1.052,2.310,-3.080,-0.770
865.150434,-0.012,0.111,1.048,2.170,-2.800,-0.910
865.157434,-0.011,0.110,1.054,1.680,-2.800,-0.840
865.166426,-0.009,0.109,1.051,1.960,-2.730,-0.910
865.175419,-0.012,0.111,1.051,1.820,-2.730,-0.910
865.186701,-0.012,0.113,1.051,1.050,-2.590,-0.770
865.190684,-0.011,0.111,1.050,1.260,-2.590,-0.840
865.194606,-0.010,0.108,1.048,1.470,-2.660,-0.770
865.203434,-0.009,0.111,1.048,1.050,-2.450,-0.770
865.212416,-0.011,0.111,1.049,1.050,-2.450,-0.910
865.223802,-0.010,0.112,1.048,0.980,-2.450,-0.910
865.230813,-0.013,0.109,1.045,0.840,-2.310,-0.770
865.239708,-0.010,0.109,1.049,1.190,-2.450,-0.910
865.248543,-0.012,0.110,1.052,0.840,-2.380,-0.840
865.25245,-0.012,0.108,1.043,1.540,-2.310,-0.840
865.268797,-0.010,0.112,1.050,1.190,-2.380,-0.770
865.277772,-0.014,0.109,1.049,1.610,-2.380,-0.700
865.281695,-0.012,0.112,1.044,1.540,-2.310,-0.770
865.290446,-0.010,0.112,1.050,1.330,-2.520,-0.700
865.299431,-0.011,0.110,1.052,1.330,-2.310,-0.840
865.310844,-0.013,0.113,1.053,1.120,-2.380,-0.770
865.318811,-0.011,0.113,1.054,0.770,-2.380,-0.770
865.327522,-0.012,0.111,1.049,1.050,-2.380,-0.840
865.33144,-0.014,0.114,1.054,0.700,-2.240,-0.700
865.340421,-0.013,0.111,1.048,0.700,-2.380,-0.840
865.352849,-0.010,0.110,1.048,0.840,-2.100,-0.770
865.356799,-0.014,0.108,1.046,0.700,-2.310,-0.700
865.365743,-0.012,0.108,1.046,0.560,-2.310,-0.770
865.374742,-0.011,0.107,1.048,1.330,-2.450,-0.770
865.383521,-0.014,0.110,1.047,1.470,-2.520,-0.770
865.390976,-0.014,0.111,1.047,1.050,-2.590,-0.700
865.399802,-0.009,0.107,1.050,1.470,-2.590,-0.700
865.403708,-0.009,0.108,1.051,0.910,-2.660,-0.630
865.410777,-0.020,0.242,1.045,2.730,-2.800,-0.840
865.418089,-0.026,0.111,1.060,-2.030,-3.150,-0.770
865.425539,-0.022,0.102,1.052,0.070,-2.870,-0.700
865.434409,-0.001,0.120,1.051,1.610,-0.770,-0.700
865.443382,-0.011,0.125,1.043,-2.660,-3.640,-0.840
865.45143,-0.008,0.105,1.058,-1.260,-0.910,-0.630
865.460385,-0.013,0.110,1.052,0.280,-2.590,-0.770
865.471698,-0.005,0.117,1.051,-1.610,-2.660,-0.770
865.47569,-0.017,0.104,1.047,-0.840,-2.730,-0.700
865.47964,-0.007,0.104,1.050,0.070,-1.890,-0.770
865.486459,-0.014,0.109,1.051,-0.840,-2.170,-0.770
865.49538,-0.011,0.107,1.043,0.070,-2.030,-0.840
865.505938,-0.013,0.110,1.048,-0.770,-2.730,-0.840
865.514779,-0.010,0.110,1.042,0.420,-3.080,-0.770
865.523704,-0.015,0.116,1.043,-3.080,-1.400,-0.700
865.530616,-0.011,0.092,1.051,-0.910,-1.260,-0.560
865.534516,-0.026,0.098,1.040,3.150,-3.780,-0.420
865.547103,-0.005,0.119,1.045,-0.280,-3.150,-0.910
865.554223,-0.011,0.107,1.051,-0.280,-3.010,-0.910
865.558128,-0.003,0.102,1.056,3.430,-2.100,-0.910
865.567007,-0.017,0.120,1.043,0.280,-3.080,-0.980
865.573889,-0.003,0.107,1.053,1.050,-2.100,-1.050
865.585122,-0.017,0.110,1.043,3.570,-2.730,-0.980
865.59411,-0.015,0.115,1.051,0.140,-2.870,-0.980
865.601297,-0.017,0.103,1.049,1.190,-2.450,-0.840
865.610154,-0.013,0.113,1.050,2.240,-2.450,-0.910
865.614096,-0.012,0.109,1.051,-0.140,-1.960,-0.980
865.630418,-0.017,0.107,1.049,0.840,-2.100,-0.770
865.634407,-0.021,0.113,1.046,-1.120,-3.990,-0.840
865.64341,-0.009,0.102,1.045,4.270,-1.890,-0.700
865.65242,-0.020,0.126,1.048,1.260,-2.310,-1.050
865.661417,0.002,0.118,1.050,-0.490,-3.710,-1.050
865.672768,-0.008,0.112,1.053,3.500,-2.310,-0.840
865.681771,-0.021,0.117,1.038,1.260,-3.570,-0.910
865.690773,-0.007,0.111,1.057,0.910,-2.660,-0.840
865.699779,-0.016,0.106,1.054,1.820,-2.940,-0.910
865.703756,-0.010,0.111,1.045,1.540,-2.870,-0.700
865.720143,-0.006,0.106,1.053,0.560,-2.660,-0.770
865.724109,-0.010,0.113,1.058,1.190,-2.940,-0.840
865.732261,-0.007,0.107,1.048,0.210,-2.240,-0.840
865.741108,-0.009,0.108,1.049,-0.140,-2.870,-0.770
865.750103,-0.006,0.111,1.053,-0.630,-2.100,-0.840
865.761441,-0.011,0.107,1.053,-0.560,-1.890,-0.700
865.770413,-0.008,0.115,1.054,-1.610,-1.610,-0.770
865.778646,-0.011,0.114,1.054,-1.750,-1.470,-0.770
865.782592,-0.011,0.115,1.055,-2.100,-1.120,-0.840
865.791402,-0.015,0.114,1.053,-2.870,-1.050,-0.770
865.806899,-0.011,0.107,1.049,-3.010,-0.910,-0.700
865.810795,-0.013,0.105,1.045,-2.590,-1.050,-0.700
865.81977,-0.010,0.105,1.045,-2.380,-1.190,-0.770
865.82869,-0.010,0.101,1.043,-1.330,-1.400,-0.700
865.836611,-0.012,0.102,1.043,-1.260,-1.400,-0.770
865.843948,-0.016,0.100,1.046,-0.770,-1.400,-0.700
865.849901,-0.014,0.100,1.045,-0.350,-1.540,-0.560
865.856852,-0.016,0.101,1.048,0.140,-1.540,-0.840
865.860785,-0.014,0.106,1.046,0.070,-1.610,-0.560
865.869757,-0.015,0.105,1.045,0.140,-1.610,-0.770
865.881168,-0.016,0.106,1.049,0.630,-1.820,-0.770
865.888111,-0.015,0.105,1.049,0.630,-1.890,-0.700
865.897044,-0.014,0.106,1.049,0.560,-2.030,-0.560
865.905787,-0.016,0.103,1.048,0.560,-1.890,-0.490
865.914773,-0.015,0.103,1.051,0.490,-1.960,-0.560
865.926107,-0.012,0.104,1.051,0.490,-2.310,-0.560
865.93298,-0.018,0.105,1.049,0.490,-2.520,-0.560
865.936885,-0.013,0.105,1.053,-0.770,-2.240,-0.630
865.945776,-0.015,0.103,1.053,-0.840,-2.310,-0.630
865.953825,-0.012,0.105,1.056,0.280,-3.500,-0.350
865.96126,-0.009,0.114,1.060,-3.290,1.610,-0.910
865.970112,-0.043,0.114,1.076,-4.410,-5.320,-0.770
865.979038,-0.018,0.079,1.104,-2.870,0.910,-0.350
865.987884,-0.015,0.107,1.014,1.750,0.630,-0.490
865.991778,-0.042,0.101,1.074,-6.860,-6.090,-0.910
866.003229,-0.015,0.100,1.041,-0.840,-0.560,-0.700
866.007131,-0.037,0.111,1.063,-3.150,-3.710,-0.630
866.016135,-0.013,0.099,1.034,-3.780,-0.910,-0.560
866.022392,-0.022,0.103,1.051,-3.850,-2.520,-0.770
866.031154,-0.021,0.098,1.057,-4.200,-1.750,-0.630
866.042458,-0.018,0.096,1.044,-2.590,-2.380,-0.840
866.051445,-0.016,0.099,1.047,-1.400,-2.030,-0.630
866.060383,-0.023,0.093,1.041,-0.630,-2.310,-0.700
866.064371,-0.020,0.099,1.042,-0.630,-3.010,-0.700
866.073379,-0.018,0.087,1.042,-0.490,-2.590,-0.700
866.084696,-0.018,0.089,1.041,2.240,-2.800,-0.700
866.091794,-0.016,0.095,1.040,1.750,-3.080,-0.630
866.100762,-0.017,0.088,1.041,2.520,-3.640,-0.700
866.109697,-0.015,0.085,1.047,3.850,-3.080,-0.910
866.118531,-0.014,0.092,1.043,4.830,-3.360,-0.910
866.129826,-0.010,0.104,1.047,3.570,-3.360,-1.050
866.137875,-0.012,0.098,1.053,4.130,-3.430,-0.980
866.14677,-0.010,0.098,1.052,5.740,-3.290,-0.910
866.150732,-0.012,0.109,1.055,3.640,-3.570,-0.910
866.159459,-0.011,0.106,1.059,2.800,-2.870,-0.910
866.170789,-0.010,0.105,1.060,1.890,-2.730,-0.840
866.177839,-0.012,0.109,1.059,0.490,-2.590,-0.910
866.186691,-0.013,0.108,1.060,-0.070,-2.520,-0.700
866.195528,-0.012,0.104,1.063,-0.210,-2.380,-0.630
866.199423,-0.010,0.105,1.057,-0.840,-2.380,-0.700
866.210878,-0.012,0.101,1.054,-2.380,-1.750,-0.560
866.219767,-0.014,0.100,1.055,-2.590,-2.100,-0.560
866.223758,-0.011,0.098,1.050,-3.080,-1.470,-0.490
866.232752,-0.013,0.095,1.053,-3.360,-1.750,-0.630
866.240799,-0.009,0.096,1.051,-2.520,-1.400,-0.700
866.248148,-0.013,0.098,1.044,-2.380,-1.400,-0.700
866.257119,-0.015,0.097,1.043,-1.610,-1.610,-0.770
866.264139,-0.011,0.097,1.043,-1.330,-1.610,-0.910
866.269161,-0.013,0.096,1.045,-0.910,-1.750,-0.910
866.273057,-0.011,0.094,1.044,-0.630,-1.680,-0.910
866.285411,-0.014,0.093,1.044,0.210,-1.680,-1.120
866.289401,-0.016,0.094,1.044,0.770,-2.030,-0.980
866.298417,-0.019,0.096,1.047,1.260,-2.030,-0.980
866.307408,-0.016,0.092,1.047,1.820,-2.100,-0.840
866.316411,-0.016,0.095,1.045,1.890,-2.240,-0.840
866.32779,-0.017,0.098,1.049,2.030,-2.380,-0.840
866.336765,-0.016,0.094,1.049,2.030,-2.380,-0.840
866.345767,-0.015,0.101,1.057,1.680,-2.590,-0.840
866.353847,-0.013,0.096,1.051,1.750,-1.890,-0.840
866.357785,-0.020,0.103,1.052,0.280,-3.220,-0.700
866.370136,-0.005,0.099,1.055,1.330,-1.750,-0.630
866.374167,-0.026,0.097,1.055,0.700,-3.640,-0.560
866.383104,-0.017,0.101,1.050,1.330,-1.750,-0.630
866.392092,-0.018,0.104,1.054,-1.260,-2.800,-0.630
866.4011,-0.009,0.092,1.051,-0.700,-1.890,-0.630
866.410676,-0.015,0.094,1.049,-0.420,-1.890,-0.630
866.419547,-0.014,0.097,1.050,-1.330,-2.520,-0.700
866.428417,-0.017,0.094,1.050,-0.840,-2.660,-0.630
866.432407,-0.015,0.094,1.048,-0.070,-2.450,-0.630
866.441399,-0.013,0.095,1.047,-0.420,-2.030,-0.700
866.45596,-0.017,0.096,1.048,0.140,-2.730,-0.700
866.459856,-0.016,0.095,1.048,0.350,-2.450,-0.840
866.468751,-0.016,0.094,1.047,0.630,-2.310,-0.770
866.477752,-0.017,0.093,1.048,1.190,-2.940,-0.840
866.484618,-0.015,0.093,1.048,1.120,-2.660,-0.840
866.491954,-0.023,0.094,1.048,1.050,-3.010,-0.700
866.499872,-0.016,0.093,1.046,1.470,-2.450,-0.770
866.508768,-0.018,0.094,1.047,1.540,-2.660,-0.840
866.512735,-0.014,0.092,1.046,2.310,-2.730,-0.840
866.521747,-0.009,0.098,1.051,2.100,-3.010,-0.840
866.533127,-0.012,0.093,1.048,3.570,-2.800,-0.700
866.542059,-0.015,0.102,1.054,2.450,-3.220,-0.840
866.550812,-0.013,0.101,1.054,2.660,-2.520,-0.770
866.559774,-0.020,0.098,1.052,2.870,-3.080,-0.700
866.568739,-0.014,0.100,1.053,2.100,-2.520,-0.840
866.580055,-0.014,0.098,1.055,1.680,-2.520,-0.700
866.588893,-0.013,0.100,1.051,1.680,-2.660,-0.770
866.5928,-0.016,0.097,1.051,1.050,-2.590,-0.700
866.60176,-0.015,0.096,1.051,1.260,-2.590,-0.700
866.609782,-0.013,0.099,1.051,0.840,-2.450,-0.770
866.61745,-0.016,0.096,1.051,0.770,-2.450,-0.840
866.626405,-0.013,0.096,1.051,0.770,-2.450,-0.840
866.635408,-0.015,0.098,1.050,0.490,-2.450,-0.770
866.644415,-0.013,0.100,1.049,0.630,-2.450,-0.770
866.648392,-0.013,0.097,1.052,0.490,-2.450,-0.770
866.664781,-0.014,0.097,1.048,0.840,-2.520,-0.770
866.673771,-0.017,0.100,1.046,0.770,-2.590,-0.770
866.677751,-0.013,0.096,1.050,1.190,-2.450,-0.700
866.68477,-0.014,0.095,1.053,1.330,-2.380,-0.840
866.693733,-0.014,0.098,1.049,1.540,-2.660,-0.770
866.705049,-0.018,0.097,1.051,1.470,-2.520,-0.770
866.713805,-0.017,0.096,1.052,1.890,-2.520,-0.770
866.721972,-0.016,0.098,1.050,1.820,-2.590,-0.840
866.730889,-0.014,0.099,1.052,1.400,-2.520,-0.840
866.73482,-0.015,0.098,1.052,1.400,-2.520,-0.630
866.751116,-0.015,0.099,1.050,0.840,-2.450,-0.840
866.755038,-0.016,0.098,1.050,0.910,-2.450,-0.770
866.762065,-0.012,0.100,1.049,1.050,-2.380,-0.840
866.771069,-0.012,0.099,1.051,0.700,-2.450,-0.840
866.780078,-0.015,0.099,1.049,0.630,-2.380,-0.910
866.791361,-0.011,0.098,1.048,0.840,-2.380,-0.770
866.800167,-0.013,0.099,1.049,0.840,-2.520,-0.770
866.809115,-0.018,0.097,1.047,0.700,-2.380,-0.770
866.813052,-0.018,0.102,1.051,0.560,-2.380,-0.700
866.822002,-0.015,0.098,1.044,0.350,-2.170,-0.770
866.833405,-0.017,0.098,1.048,0.560,-2.380,-0.910
866.842409,-0.015,0.095,1.045,1.050,-2.450,-0.700
866.849415,-0.016,0.097,1.048,1.190,-2.520,-0.770
866.858152,-0.015,0.098,1.047,1.050,-2.590,-0.700
866.867104,-0.013,0.098,1.048,1.330,-2.590,-0.700
866.874591,-0.015,0.098,1.053,1.610,-2.520,-0.630
866.883399,-0.016,0.099,1.049,1.610,-2.660,-0.770
866.887335,-0.015,0.099,1.052,1.470,-2.520,-0.840
866.895203,-0.017,0.097,1.050,0.910,-2.520,-0.770
866.904095,-0.018,0.100,1.052,0.560,-2.660,-0.700
866.915498,-0.015,0.098,1.052,-0.140,-2.380,-0.700
866.920582,-0.012,0.101,1.046,1.470,-3.150,-0.910
866.929427,-0.010,0.100,1.061,-1.470,-4.410,-0.770
866.938404,-0.026,0.086,1.045,0.630,-4.130,-0.700
866.942363,-0.015,0.107,1.053,-0.350,-1.680,-0.840
866.957854,-0.004,0.086,1.047,1.960,-2.170,-0.840
866.966771,-0.020,0.108,1.050,1.260,-3.150,-0.770
866.970748,-0.007,0.093,1.046,0.700,-1.610,-0.770
866.978908,-0.018,0.096,1.052,1.750,-3.080,-0.980
866.987841,-0.008,0.101,1.052,0.910,-1.750,-0.980
866.999112,-0.019,0.097,1.048,1.680,-2.240,-0.980
867.008085,-0.011,0.099,1.049,1.260,-2.520,-0.980
867.016128,-0.015,0.091,1.047,2.100,-2.730,-0.980
867.025105,-0.017,0.100,1.045,1.120,-2.100,-0.840
867.029054,-0.023,0.093,1.047,1.190,-2.730,-0.700
867.045417,-0.016,0.099,1.054,1.470,-2.310,-0.770
867.049407,-0.017,0.099,1.050,0.840,-2.520,-0.840
867.056568,-0.018,0.102,1.051,1.470,-2.730,-0.630
867.064545,-0.018,0.103,1.052,1.120,-2.730,-0.770
867.073436,-0.013,0.099,1.052,2.380,-2.730,-0.770
867.08476,-0.013,0.099,1.051,3.010,-2.730,-0.770
867.093751,-0.017,0.105,1.045,1.680,-2.940,-0.840
867.101775,-0.012,0.099,1.051,1.330,-2.730,-0.840
867.105693,-0.017,0.097,1.057,1.610,-2.520,-0.700
867.11276,-0.018,0.102,1.051,0.840,-2.520,-0.770
867.125135,-0.017,0.099,1.054,-0.280,-2.450,-0.630
867.129087,-0.017,0.095,1.056,0.420,-2.520,-0.700
867.136089,-0.015,0.099,1.051,-0.140,-2.520,-0.700
867.142288,-0.012,0.100,1.050,17.850,-2.450,-0.630
867.151176,-0.014,0.098,1.051,0.140,-2.590,-0.840
867.162442,-0.012,0.101,1.046,0.490,-2.240,-0.840
867.171397,-0.016,0.097,1.046,0.630,-2.380,-0.840
867.180148,-0.015,0.099,1.045,0.700,-2.520,-0.910
867.184124,-0.016,0.096,1.046,0.280,-2.450,-0.700
867.193003,-0.016,0.096,1.050,1.050,-2.520,-0.840
867.204285,-0.016,0.099,1.048,0.980,-2.590,-0.840
867.213116,-0.017,0.095,1.051,1.470,-2.590,-0.840
867.222091,-0.015,0.097,1.049,1.610,-2.660,-0.770
867.230321,-0.015,0.101,1.050,1.330,-2.380,-0.770
867.239147,-0.018,0.101,1.051,1.330,-2.520,-0.770
867.250438,-0.015,0.098,1.052,1.120,-2.450,-0.770
867.258486,-0.013,0.099,1.051,1.470,-2.590,-0.770
867.262462,-0.015,0.099,1.049,1.470,-2.520,-0.560
867.271391,-0.013,0.098,1.051,1.400,-2.520,-0.770
867.276587,-0.013,0.097,1.051,1.610,-2.380,-0.770
867.284091,-0.014,0.100,1.052,1.260,-2.520,-0.770
867.293085,-0.012,0.102,1.054,0.840,-2.380,-0.910
867.301814,-0.011,0.098,1.051,0.910,-2.380,-0.770
867.310766,-0.013,0.099,1.048,0.980,-2.310,-0.700
867.319762,-0.015,0.099,1.049,0.630,-2.310,-0.980
867.331057,-0.013,0.097,1.050,0.210,-2.380,-0.770
867.339864,-0.013,0.099,1.052,0.350,-2.310,-0.770
867.343779,-0.014,0.100,1.049,-0.280,-1.610,-0.840
867.352748,-0.018,0.095,1.051,0.210,-2.660,-0.770
867.359779,-0.014,0.096,1.049,0.980,-2.170,-0.770
867.367146,-0.018,0.101,1.052,-0.350,-2.590,-0.840
867.376085,-0.011,0.093,1.050,0.700,-2.310,-0.770
867.383118,-0.019,0.102,1.052,0.560,-2.520,-0.700
867.389969,-0.013,0.100,1.047,0.000,-2.240,-0.630
867.393914,-0.019,0.096,1.050,0.070,-2.310,-0.630
867.410374,-0.006,0.097,1.047,1.680,-2.520,-0.770
867.414393,-0.029,0.097,1.046,0.140,-3.920,-0.840
867.423413,-0.008,0.097,1.052,1.610,-1.190,-0.840
867.432399,-0.027,0.103,1.052,1.890,-2.240,-0.770
867.441402,-0.011,0.092,1.045,1.540,-3.220,-0.910
867.452753,-0.008,0.092,1.050,1.120,-1.400,-0.770
867.460788,-0.020,0.097,1.047,1.330,-3.570,-0.840
867.469736,-0.008,0.100,1.052,0.350,-2.730,-0.700
867.476805,-0.018,0.092,1.051,0.910,-2.450,-0.700
867.480756,-0.015,0.098,1.052,1.540,-2.590,-0.770
867.496873,-0.014,0.096,1.050,0.770,-2.730,-0.700
867.500813,-0.016,0.099,1.049,1.330,-2.730,-0.770
867.50976,-0.013,0.096,1.048,0.630,-2.590,-0.840
867.518678,-0.019,0.093,1.049,1.470,-3.150,-0.770
867.525591,-0.009,0.097,1.054,0.700,-1.400,-0.770
867.533183,-0.017,0.095,1.047,0.980,-2.660,-0.840
867.542058,-0.004,0.097,1.050,1.820,-3.430,-0.840
867.551076,-0.022,0.101,1.051,0.210,-3.640,-0.770
867.555,-0.020,0.100,1.050,1.190,-2.100,-0.770
867.563932,-0.027,0.096,1.050,1.050,-2.030,-0.840
867.575261,-0.019,0.099,1.051,1.330,-3.290,-0.770
867.58217,-0.011,0.099,1.045,1.750,-1.960,-0.840
867.591104,-0.018,0.100,1.050,1.190,-2.800,-0.910
867.598124,-0.009,0.093,1.052,1.680,-2.380,-0.770
867.606858,-0.015,0.098,1.049,2.030,-2.520,-0.630
867.616212,-0.014,0.097,1.050,2.240,-2.240,-0.700
867.624208,-0.019,0.099,1.055,1.470,-2.730,-0.770
867.62812,-0.004,0.097,1.051,1.750,-1.960,-0.770
867.636999,-0.007,0.103,1.054,0.630,-3.430,-0.770
867.645805,-0.016,0.100,1.051,1.190,-1.680,-0.770
867.653288,-0.022,0.102,1.055,-0.490,-2.870,-0.840
867.662082,-0.012,0.097,1.044,0.700,-1.890,-0.770
867.670167,-0.019,0.101,1.048,-0.210,-2.590,-0.840
867.679099,-0.009,0.097,1.052,-0.630,-1.680,-0.910
867.683036,-0.020,0.099,1.054,0.000,-2.590,-0.700
867.694696,-0.016,0.099,1.046,-0.140,-2.240,-0.840
867.702834,-0.017,0.096,1.049,0.000,-2.450,-0.840
867.706756,-0.016,0.096,1.049,0.560,-2.380,-0.840
867.711929,-0.017,0.098,1.046,0.630,-2.450,-0.770
867.720786,-0.015,0.097,1.049,0.700,-2.380,-0.630
867.732092,-0.016,0.096,1.051,1.120,-2.310,-0.770
867.741096,-0.015,0.097,1.047,1.120,-2.450,-0.770
867.750083,-0.015,0.096,1.049,1.330,-2.450,-0.770
867.759069,-0.017,0.098,1.051,1.260,-2.660,-0.840
867.763069,-0.012,0.096,1.052,1.330,-2.240,-0.840
867.779527,-0.015,0.098,1.049,1.750,-2.520,-0.770
867.783471,-0.015,0.099,1.050,1.330,-2.660,-0.770
867.792391,-0.015,0.096,1.049,1.330,-2.450,-0.910
867.801363,-0.016,0.101,1.050,0.980,-2.520,-0.910
867.810169,-0.012,0.098,1.052,0.770,-2.450,-0.840
867.821434,-0.015,0.098,1.052,0.770,-2.310,-0.840
867.828497,-0.015,0.099,1.050,0.560,-2.450,-0.840
867.837402,-0.013,0.100,1.049,0.560,-2.380,-0.840
867.841392,-0.015,0.098,1.052,0.630,-2.380,-0.770
867.847572,-0.014,0.100,1.051,0.630,-2.310,-0.840
867.859878,-0.015,0.099,1.050,0.140,-2.450,-0.700
867.863786,-0.016,0.098,1.049,0.210,-2.310,-0.840
867.871784,-0.018,0.098,1.049,0.280,-2.310,-0.840
867.88068,-0.014,0.098,1.048,0.420,-2.450,-0.840
867.889512,-0.016,0.096,1.049,0.490,-2.450,-0.840
867.900808,-0.016,0.095,1.047,1.190,-2.520,-0.840
867.909759,-0.015,0.095,1.047,1.050,-2.450,-0.770
867.918757,-0.016,0.098,1.048,1.470,-2.520,-0.700
867.922749,-0.015,0.098,1.049,1.190,-2.590,-0.770
867.931753,-0.015,0.097,1.052,1.400,-2.660,-0.840
867.94312,-0.015,0.099,1.051,1.260,-2.520,-0.840
867.951999,-0.016,0.101,1.052,1.050,-2.450,-0.910
867.958882,-0.015,0.099,1.053,0.840,-2.520,-0.770
867.967775,-0.017,0.100,1.051,0.420,-2.380,-0.770
867.976752,-0.015,0.099,1.050,0.350,-2.380,-0.700
867.988147,-0.014,0.097,1.048,0.630,-2.520,-0.770
867.994173,-0.016,0.099,1.052,0.770,-2.520,-0.840
867.998139,-0.016,0.097,1.050,0.700,-2.450,-0.910
868.006991,-0.016,0.099,1.050,0.910,-2.520,-0.700
868.01603,-0.015,0.100,1.050,0.560,-2.520,-0.770
868.027396,-0.015,0.097,1.050,0.840,-2.450,-0.770
868.036344,-0.013,0.097,1.049,0.700,-2.520,-0.770
868.045153,-0.016,0.096,1.050,0.700,-2.450,-0.700
868.054108,-0.014,0.096,1.050,0.770,-2.310,-0.770
868.058038,-0.017,0.098,1.048,0.980,-2.380,-0.700
868.072455,-0.016,0.097,1.050,0.700,-2.520,-0.630
868.076405,-0.012,0.096,1.050,0.910,-2.520,-0.700
868.0854,-0.015,0.098,1.050,1.050,-2.450,-0.840
868.093566,-0.014,0.098,1.052,0.840,-2.450,-0.840
868.100507,-0.016,0.099,1.051,1.120,-2.520,-0.700
868.107829,-0.019,0.095,1.047,1.050,-2.590,-0.770
868.11675,-0.017,0.100,1.048,0.630,-2.800,-0.770
868.123808,-0.014,0.098,1.050,0.700,-2.520,-0.700
868.129013,-0.013,0.097,1.052,0.560,-2.520,-0.560
868.13296,-0.016,0.097,1.052,0.840,-2.450,-0.700
868.14542,-0.015,0.099,1.049,0.770,-2.450,-0.630
868.149355,-0.014,0.096,1.046,1.820,-2.100,-0.630
868.158128,-0.014,0.098,1.052,0.840,-1.470,-0.840
868.167045,-0.011,0.094,1.048,1.050,-4.480,-0.770
868.176001,-0.016,0.091,1.050,2.590,-2.170,-0.700
868.187079,-0.020,0.105,1.055,0.980,-2.170,-0.700
868.195124,-0.013,0.091,1.052,2.030,-3.430,-0.840
868.204081,-0.019,0.104,1.051,0.210,-2.310,-0.700
868.20802,-0.018,0.092,1.049,0.000,-2.240,-0.770
868.215075,-0.020,0.096,1.050,1.120,-2.800,-0.770
868.226386,-0.016,0.099,1.049,0.070,-2.380,-0.770
868.235392,-0.016,0.093,1.051,1.400,-2.520,-0.840
868.243562,-0.015,0.097,1.047,0.980,-2.380,-0.910
868.252411,-0.010,0.097,1.048,0.910,-2.590,-0.840
868.259467,-0.019,0.093,1.052,1.120,-2.380,-0.770
868.266957,-0.014,0.098,1.048,0.630,-2.450,-0.770
868.275793,-0.018,0.097,1.047,0.700,-2.380,-0.840
868.283841,-0.016,0.097,1.052,0.840,-2.520,-0.980
868.287756,-0.012,0.098,1.053,1.120,-2.380,-0.770
868.296713,-0.014,0.098,1.051,0.980,-2.520,-0.840
868.308079,-0.020,0.099,1.049,1.610,-2.800,-0.840
868.31509,-0.019,0.097,1.047,1.050,-2.170,-0.840
868.324076,-0.015,0.099,1.047,1.400,-2.730,-0.840
868.333008,-0.014,0.098,1.051,1.330,-2.380,-0.770
868.338979,-0.015,0.097,1.047,1.120,-2.870,-0.770
868.34627,-0.013,0.095,1.051,1.750,-2.310,-0.770
868.355137,-0.015,0.096,1.048,1.960,-2.800,-0.840
868.359036,-0.012,0.099,1.051,1.470,-2.520,-0.490
868.366089,-0.012,0.096,1.053,1.470,-2.800,-0.770
868.371273,-0.014,0.098,1.051,1.540,-2.870,-0.840
868.378749,-0.013,0.100,1.052,1.120,-2.590,-0.840
868.387715,-0.019,0.099,1.053,1.050,-2.660,-0.840
868.396645,-0.015,0.100,1.054,0.420,-2.450,-0.840
868.404767,-0.016,0.101,1.053,0.000,-2.450,-0.700
868.413747,-0.014,0.099,1.050,0.210,-2.310,-0.770
868.424222,-0.014,0.101,1.049,-0.490,-2.170,-0.840
868.433133,-0.016,0.095,1.053,-0.070,-2.380,-0.630
868.437041,-0.013,0.099,1.047,0.350,-2.310,-0.910
868.445101,-0.015,0.100,1.048,0.210,-2.380,-0.770
868.454031,-0.016,0.095,1.048,0.630,-2.520,-0.770
868.461535,-0.012,0.094,1.051,0.910,-2.380,-0.770
868.470446,-0.016,0.098,1.049,1.330,-2.450,-0.770
868.475631,-0.013,0.096,1.048,1.190,-2.450,-0.770
868.48451,-0.014,0.096,1.047,1.260,-2.380,-0.840
868.488415,-0.012,0.098,1.048,1.050,-2.240,-0.700
868.504747,-0.016,0.100,1.050,0.840,-2.310,-0.770
868.513753,-0.015,0.097,1.050,0.980,-2.380,-0.840
868.517768,-0.016,0.100,1.050,1.120,-2.380,-0.770
868.526747,-0.014,0.099,1.049,1.120,-2.310,-0.910
868.533798,-0.015,0.098,1.050,1.330,-2.520,-0.770
868.541148,-0.015,0.098,1.051,1.050,-2.450,-0.840
868.550081,-0.016,0.098,1.052,0.910,-2.450,-0.770
868.559035,-0.016,0.100,1.052,0.630,-2.310,-0.770
868.567882,-0.017,0.099,1.050,0.140,-2.240,-0.630
868.571789,-0.016,0.097,1.052,0.140,-2.240,-0.700
868.588403,-0.016,0.098,1.053,0.280,-2.380,-0.910
868.592382,-0.013,0.098,1.054,0.280,-2.310,-0.770
868.597563,-0.016,0.094,1.052,0.630,-2.310,-0.700
868.606432,-0.015,0.098,1.051,0.630,-2.310,-0.840
868.61446,-0.014,0.098,1.047,0.280,-2.310,-0.840
868.621833,-0.016,0.097,1.046,0.000,-2.310,-0.840
868.630784,-0.016,0.096,1.046,0.210,-2.450,-0.840
868.639755,-0.017,0.093,1.048,0.560,-2.520,-0.770
868.648746,-0.017,0.095,1.050,1.120,-2.450,-0.770
868.652672,-0.017,0.098,1.048,1.120,-2.450,-0.840
868.668867,-0.013,0.096,1.046,1.470,-2.590,-0.700
868.672825,-0.016,0.097,1.049,1.190,-2.520,-0.840
868.681748,-0.018,0.098,1.050,1.120,-2.730,-0.770
868.69067,-0.016,0.099,1.053,0.980,-2.590,-0.770
868.697601,-0.017,0.096,1.051,0.910,-2.520,-0.770
868.704949,-0.013,0.097,1.052,0.980,-2.450,-0.840
868.713777,-0.013,0.097,1.052,0.700,-2.520,-0.840
868.722758,-0.011,0.095,1.050,0.980,-2.450,-0.770
868.726675,-0.016,0.097,1.049,0.770,-2.520,-0.770
868.735662,-0.017,0.098,1.049,0.560,-2.450,-0.770
868.747155,-0.013,0.098,1.053,0.910,-2.450,-0.840
868.754209,-0.015,0.097,1.050,1.050,-2.590,-0.770
868.763088,-0.011,0.097,1.052,1.050,-2.660,-0.840
868.772026,-0.014,0.098,1.050,1.190,-2.450,-0.700
868.778937,-0.014,0.099,1.052,0.770,-2.450,-0.840
868.786275,-0.014,0.098,1.048,0.560,-2.520,-0.770
868.795135,-0.016,0.096,1.050,0.910,-2.590,-0.630
868.799067,-0.013,0.095,1.048,0.980,-2.450,-0.770
868.808031,-0.013,0.096,1.046,1.260,-2.520,-0.840
868.817035,-0.015,0.096,1.051,1.470,-2.590,-0.770
868.828384,-0.014,0.099,1.050,1.190,-2.520,-0.770
868.835505,-0.014,0.096,1.051,1.260,-2.380,-0.770
868.844422,-0.014,0.097,1.049,0.980,-2.520,-0.770
868.853364,-0.015,0.098,1.050,0.770,-2.450,-0.770
868.857341,-0.015,0.094,1.052,0.910,-2.450,-0.770
868.873515,-0.016,0.096,1.049,1.050,-2.450,-0.770
868.877423,-0.015,0.098,1.049,0.630,-2.520,-0.770
868.882647,-0.014,0.097,1.050,0.630,-2.450,-0.770
868.891432,-0.014,0.096,1.050,0.560,-2.310,-0.910
868.900405,-0.013,0.096,1.048,0.630,-2.450,-0.700
868.911739,-0.016,0.098,1.052,0.700,-2.450,-0.840
868.920675,-0.014,0.098,1.050,0.700,-2.520,-0.910
868.929515,-0.017,0.098,1.046,0.700,-2.520,-0.770
868.933422,-0.017,0.100,1.050,0.490,-2.380,-0.770
868.941503,-0.014,0.097,1.052,0.630,-2.450,-0.840
868.957753,-0.016,0.096,1.049,0.770,-2.450,-0.770
868.961743,-0.018,0.095,1.049,0.630,-2.520,-0.770
868.970747,-0.015,0.094,1.048,0.840,-2.520,-0.840
868.977929,-0.016,0.093,1.049,0.840,-2.450,-0.630
868.984869,-0.015,0.097,1.050,0.980,-2.520,-0.840
868.99219,-0.013,0.095,1.051,1.470,-2.590,-0.700
869.000199,-0.015,0.095,1.051,1.540,-2.520,-0.840
869.009114,-0.016,0.096,1.049,1.540,-2.590,-0.840
869.013101,-0.012,0.097,1.050,1.540,-2.590,-0.910
869.021207,-0.014,0.097,1.052,1.190,-2.520,-0.770
869.033731,-0.016,0.098,1.052,1.120,-2.590,-0.770
869.037703,-0.016,0.099,1.050,1.120,-2.380,-0.770
869.046433,-0.016,0.099,1.051,1.190,-2.520,-0.840
869.054467,-0.016,0.098,1.049,1.050,-2.450,-0.770
869.059502,-0.016,0.097,1.052,0.980,-2.520,-0.770
869.066916,-0.015,0.096,1.051,1.050,-2.520,-0.840
869.075774,-0.015,0.098,1.051,0.980,-2.660,-0.770
869.079678,-0.013,0.098,1.048,0.840,-2.450,-0.910
869.086743,-0.012,0.097,1.051,1.190,-2.520,-0.770
869.091926,-0.014,0.097,1.049,1.400,-2.520,-0.700
869.09938,-0.015,0.096,1.050,1.400,-2.590,-0.910
869.108381,-0.014,0.096,1.053,1.400,-2.520,-0.700
869.11541,-0.018,0.096,1.051,1.120,-2.590,-0.770
869.120614,-0.015,0.099,1.051,0.700,-2.520,-0.770
869.129494,-0.015,0.100,1.050,0.420,-2.450,-0.840
869.140788,-0.013,0.100,1.053,0.140,-2.380,-0.700
869.149744,-0.015,0.099,1.051,0.140,-2.310,-0.840
869.153674,-0.016,0.097,1.049,0.490,-2.310,-0.700
869.15974,-0.016,0.096,1.050,0.490,-2.380,-0.770
869.168744,-0.014,0.095,1.048,0.630,-2.380,-0.840
869.180108,-0.015,0.100,1.047,0.910,-2.450,-0.770
869.186275,-0.014,0.099,1.048,0.840,-2.520,-0.770
869.195095,-0.015,0.095,1.052,1.330,-2.520,-0.770
869.204028,-0.015,0.094,1.049,1.400,-2.590,-0.840
869.212863,-0.015,0.096,1.051,1.470,-2.520,-0.770
869.223259,-0.015,0.097,1.048,1.750,-2.520,-0.840
869.232113,-0.016,0.098,1.049,1.750,-2.450,-0.770
869.236039,-0.018,0.096,1.049,1.820,-2.520,-0.700
869.242221,-0.017,0.096,1.048,1.680,-2.520,-0.840
869.251088,-0.015,0.097,1.052,1.540,-2.450,-0.910
869.262383,-0.016,0.099,1.050,1.400,-2.380,-0.700
869.27139,-0.018,0.099,1.051,1.330,-2.380,-0.770
869.28016,-0.014,0.099,1.051,1.120,-2.450,-0.840
869.288326,-0.017,0.097,1.051,1.050,-2.520,-0.770
869.2923,-0.015,0.097,1.054,0.910,-2.380,-0.770
869.304772,-0.014,0.098,1.051,0.910,-2.450,-0.840
869.308679,-0.016,0.097,1.053,0.770,-2.310,-0.770
869.317576,-0.014,0.097,1.052,0.560,-2.380,-0.910
869.324505,-0.014,0.097,1.050,0.420,-2.450,-0.700
869.330481,-0.015,0.099,1.053,0.420,-2.450,-0.840
869.337839,-0.016,0.095,1.052,0.420,-2.310,-0.700
869.346752,-0.016,0.096,1.051,0.490,-2.380,-0.770
869.353789,-0.016,0.098,1.048,0.350,-2.450,-0.840
869.358996,-0.016,0.097,1.046,0.630,-2.450,-0.770
869.362971,-0.017,0.096,1.048,0.630,-2.590,-0.630
869.375424,-0.016,0.097,1.047,0.980,-2.450,-0.770
869.379376,-0.014,0.097,1.048,1.050,-2.520,-0.840
869.385394,-0.015,0.099,1.050,1.400,-2.520,-0.770
869.392631,-0.016,0.099,1.050,1.610,-2.590,-0.770
869.401426,-0.015,0.097,1.050,1.890,-2.590,-0.840
869.412729,-0.016,0.100,1.052,1.680,-2.660,-0.840
869.421749,-0.016,0.099,1.052,1.260,-2.520,-0.770
869.430517,-0.015,0.099,1.053,1.330,-2.520,-0.770
869.43444,-0.015,0.098,1.055,1.120,-2.590,-0.770
869.44338,-0.015,0.097,1.050,0.980,-2.520,-0.770
869.45976,-0.015,0.099,1.050,1.120,-2.590,-0.910
869.463678,-0.017,0.099,1.050,1.120,-2.590,-0.770
869.472663,-0.017,0.101,1.047,1.050,-2.590,-0.840
869.481416,-0.014,0.100,1.050,0.910,-2.520,-0.840
869.488463,-0.014,0.099,1.050,1.050,-2.520,-0.910
869.497095,-0.014,0.098,1.055,1.120,-2.450,-0.770
869.504107,-0.014,0.098,1.050,0.980,-2.450,-0.840
869.512161,-0.015,0.097,1.050,0.980,-2.380,-0.770
869.516089,-0.014,0.099,1.049,0.770,-2.310,-0.770
869.524989,-0.015,0.098,1.049,0.840,-2.380,-0.840
869.532583,-0.014,0.101,1.049,0.770,-2.380,-0.770
869.541393,-0.014,0.099,1.049,0.910,-2.450,-0.770
869.548392,-0.013,0.096,1.051,1.190,-2.450,-0.840
869.557383,-0.016,0.100,1.047,1.260,-2.450,-0.700
869.566388,-0.017,0.097,1.050,1.190,-2.450,-0.770
869.574089,-0.016,0.099,1.052,0.770,-2.380,-0.770
869.58303,-0.015,0.100,1.050,0.700,-2.450,-0.770
869.592072,-0.014,0.099,1.051,0.490,-2.450,-0.840
869.596021,-0.013,0.098,1.051,0.560,-2.380,-0.840
869.60221,-0.016,0.100,1.049,0.700,-2.520,-0.770
869.609668,-0.015,0.098,1.049,0.980,-2.380,-0.910
869.618665,-0.013,0.098,1.047,0.910,-2.380,-0.700
869.625494,-0.015,0.100,1.044,0.700,-2.310,-0.770
869.63073,-0.015,0.099,1.044,0.840,-2.450,-0.700
869.639738,-0.015,0.098,1.049,0.700,-2.380,-0.840
869.651071,-0.016,0.099,1.049,1.050,-2.450,-0.770
869.658131,-0.014,0.097,1.049,0.910,-2.590,-0.770
869.665165,-0.014,0.097,1.050,0.910,-2.520,-0.840
869.669089,-0.017,0.099,1.051,0.910,-2.520,-0.910
869.677268,-0.015,0.098,1.050,0.910,-2.520,-0.770
869.689744,-0.014,0.098,1.050,0.770,-2.450,-0.910
869.693705,-0.017,0.099,1.049,0.910,-2.380,-0.700
869.702433,-0.016,0.098,1.052,1.050,-2.520,-0.840
869.711383,-0.016,0.099,1.049,0.910,-2.450,-0.700
869.72036,-0.015,0.099,1.048,0.840,-2.520,-0.700
869.731703,-0.013,0.100,1.052,0.840,-2.450,-0.840
869.738591,-0.014,0.098,1.052,0.910,-2.450,-0.840
869.742491,-0.014,0.099,1.048,0.910,-2.520,-0.840
869.751382,-0.016,0.098,1.049,1.120,-2.450,-0.840
869.76033,-0.011,0.099,1.047,1.120,-2.520,-0.700
869.767851,-0.013,0.100,1.050,0.980,-2.590,-0.630
869.776741,-0.013,0.097,1.049,1.050,-2.520,-0.770
869.785016,-0.015,0.099,1.054,1.190,-2.380,-0.840
869.794019,-0.016,0.099,1.048,1.120,-2.590,-0.770
869.802091,-0.015,0.099,1.047,1.050,-2.520,-0.840
869.809534,-0.014,0.095,1.049,1.330,-2.450,-0.770
869.818405,-0.015,0.098,1.046,1.400,-2.380,-0.840
869.822376,-0.012,0.099,1.046,1.330,-2.660,-0.840
869.830419,-0.013,0.097,1.050,1.470,-2.450,-0.770
869.839345,-0.014,0.096,1.048,1.540,-2.450,-0.840
869.846972,-0.015,0.097,1.050,1.610,-2.590,-0.770
869.85575,-0.014,0.097,1.054,1.750,-2.590,-0.700
869.864671,-0.014,0.098,1.054,1.260,-2.520,-0.700
869.87162,-0.015,0.102,1.053,0.980,-2.380,-0.770
869.875544,-0.017,0.101,1.054,0.630,-2.450,-0.840
869.885291,-0.018,0.098,1.054,0.280,-2.310,-0.770
869.894119,-0.014,0.101,1.053,0.280,-2.310,-0.910
869.898029,-0.013,0.098,1.050,0.490,-2.310,-0.700
869.906196,-0.013,0.097,1.050,0.350,-2.380,-0.700
869.915084,-0.016,0.096,1.049,0.210,-2.380,-0.700
869.926368,-0.016,0.100,1.049,0.280,-2.310,-0.770
869.934439,-0.015,0.097,1.048,0.210,-2.310,-0.770
869.943423,-0.013,0.100,1.048,0.770,-2.380,-0.770
869.951589,-0.012,0.097,1.048,0.910,-2.450,-0.840
869.955542,-0.015,0.098,1.049,1.050,-2.520,-0.840
869.968375,-0.014,0.096,1.051,1.260,-2.450,-0.840
869.974392,-0.017,0.100,1.049,1.120,-2.520,-0.770
869.978348,-0.016,0.099,1.048,1.120,-2.450,-0.770
869.985389,-0.015,0.097,1.051,1.260,-2.520,-0.630
869.994342,-0.013,0.097,1.049,1.470,-2.520,-0.770
870.003822,-0.017,0.099,1.050,1.680,-2.520,-0.700
870.010775,-0.017,0.100,1.051,1.820,-2.590,-0.770
870.01975,-0.014,0.099,1.051,1.470,-2.590,-0.770
870.02674,-0.015,0.100,1.048,1.330,-2.520,-0.700
870.035744,-0.016,0.100,1.051,1.190,-2.520,-0.700
870.047068,-0.014,0.100,1.051,1.050,-2.520,-0.770
870.056055,-0.014,0.098,1.051,0.980,-2.450,-0.840
870.059951,-0.016,0.099,1.052,0.840,-2.450,-0.770
870.068731,-0.017,0.101,1.050,0.700,-2.380,-0.770
870.077736,-0.015,0.100,1.049,0.630,-2.380,-0.770
870.089371,-0.015,0.099,1.050,0.350,-2.380,-0.700
870.098339,-0.016,0.100,1.050,0.770,-2.380,-0.840
870.105229,-0.017,0.099,1.049,0.770,-2.380,-0.770
870.114118,-0.014,0.097,1.049,0.840,-2.520,-0.700
870.118063,-0.015,0.098,1.048,0.840,-2.660,-0.770
870.133745,-0.015,0.099,1.047,1.190,-2.660,-0.840
870.142711,-0.013,0.100,1.050,1.330,-2.590,-0.840
870.146733,-0.014,0.097,1.047,1.470,-2.520,-0.700
870.152773,-0.014,0.101,1.046,1.820,-2.730,-0.700
870.161668,-0.014,0.099,1.049,1.610,-2.730,-0.700
870.173058,-0.015,0.098,1.051,1.540,-2.520,-0.770
870.181795,-0.013,0.099,1.052,1.120,-2.520,-0.840
870.190738,-0.016,0.100,1.053,1.190,-2.660,-0.770
870.199744,-0.016,0.099,1.049,0.980,-2.520,-0.840
870.20372,-0.012,0.100,1.052,0.980,-2.450,-0.700
870.22011,-0.013,0.101,1.051,0.770,-2.520,-0.770
870.224076,-0.018,0.100,1.049,0.770,-2.450,-0.770
870.23109,-0.018,0.098,1.048,0.770,-2.520,-0.840
870.240028,-0.013,0.098,1.051,0.840,-2.520,-0.770
870.248764,-0.013,0.099,1.050,0.910,-2.450,-0.840
870.255186,-0.014,0.099,1.048,0.980,-2.450,-0.770
870.263105,-0.015,0.098,1.046,0.910,-2.450,-0.910
870.272071,-0.016,0.099,1.050,0.840,-2.310,-0.770
870.276065,-0.013,0.097,1.050,0.560,-2.310,-0.840
870.284989,-0.012,0.099,1.049,0.630,-2.450,-0.840
870.296306,-0.015,0.097,1.050,1.050,-2.450,-0.700
870.304178,-0.013,0.099,1.050,1.050,-2.450,-0.700
870.313063,-0.013,0.101,1.050,0.770,-2.380,-0.840
870.322031,-0.016,0.099,1.049,0.840,-2.450,-0.770
870.330868,-0.015,0.099,1.051,0.490,-2.380,-0.770
870.342134,-0.014,0.095,1.051,0.770,-2.590,-0.770
870.351062,-0.016,0.101,1.048,0.490,-2.450,-0.770
870.355017,-0.015,0.098,1.051,0.420,-2.380,-0.840
870.36308,-0.012,0.097,1.051,0.840,-2.310,-0.700
870.368091,-0.015,0.099,1.050,0.630,-2.380,-0.910
870.375461,-0.015,0.100,1.050,0.770,-2.380,-0.770
870.384374,-0.015,0.099,1.047,0.630,-2.520,-0.700
870.391238,-0.014,0.097,1.047,0.770,-2.310,-0.770
870.40013,-0.016,0.099,1.051,1.050,-2.380,-0.840
870.404083,-0.017,0.100,1.047,0.980,-2.450,-0.630
870.420386,-0.014,0.099,1.046,1.050,-2.590,-0.770
870.42439,-0.014,0.099,1.048,1.190,-2.520,-0.840
870.433373,-0.015,0.098,1.048,1.050,-2.520,-0.840
870.442332,-0.013,0.098,1.050,1.190,-2.590,-0.700
870.45114,-0.013,0.099,1.048,1.260,-2.520,-0.770
870.458742,-0.017,0.097,1.049,1.050,-2.450,-0.700
870.467666,-0.014,0.098,1.051,0.910,-2.520,-0.910
870.476747,-0.015,0.099,1.052,0.630,-2.450,-0.770
870.480663,-0.017,0.098,1.049,0.980,-2.450,-0.770
870.487863,-0.016,0.099,1.049,0.910,-2.520,-0.770
870.500354,-0.015,0.099,1.047,0.980,-2.450,-0.770
870.50433,-0.015,0.101,1.050,0.980,-2.450,-0.770
870.512154,-0.012,0.098,1.049,0.980,-2.380,-0.840
870.521072,-0.014,0.101,1.050,1.050,-2.450,-0.910
870.530065,-0.014,0.100,1.049,0.910,-2.660,-0.770
870.541333,-0.015,0.095,1.049,1.330,-2.520,-0.770
870.548217,-0.016,0.099,1.049,1.190,-2.520,-0.840
870.557111,-0.016,0.102,1.051,0.980,-2.450,-0.840
870.561054,-0.016,0.098,1.049,0.770,-2.520,-0.910
870.569987,-0.012,0.099,1.047,0.910,-2.380,-0.770
870.5813,-0.015,0.098,1.046,1.330,-2.520,-0.700
870.590073,-0.014,0.099,1.048,1.400,-2.520,-0.840
870.59906,-0.014,0.100,1.049,1.890,-2.730,-0.840
870.60796,-0.015,0.100,1.048,1.820,-2.520,-0.910
870.616846,-0.017,0.098,1.049,1.610,-2.590,-0.840
870.62442,-0.016,0.099,1.049,1.610,-2.520,-0.770
870.633394,-0.013,0.100,1.051,1.610,-2.590,-0.840
870.637403,-0.017,0.101,1.054,1.190,-2.450,-0.840
870.646346,-0.016,0.100,1.055,0.630,-2.520,-0.840
870.655333,-0.017,0.100,1.055,0.210,-2.310,-0.770
870.666747,-0.014,0.098,1.050,0.210,-2.240,-0.840
870.67569,-0.017,0.099,1.050,-0.140,-2.380,-0.770
870.68462,-0.014,0.098,1.051,0.070,-2.240,-0.840
870.693511,-0.014,0.100,1.046,0.000,-2.310,-0.700
870.697415,-0.015,0.098,1.050,-0.070,-2.170,-0.910
870.712755,-0.016,0.098,1.048,0.630,-2.380,-0.700
870.721727,-0.014,0.097,1.048,0.560,-2.310,-0.840
870.725655,-0.013,0.095,1.050,0.770,-2.240,-0.770
870.733732,-0.015,0.098,1.049,0.910,-2.380,-0.770
870.742654,-0.016,0.098,1.048,0.840,-2.450,-0.840
870.753999,-0.014,0.097,1.046,0.770,-2.380,-0.840
870.761092,-0.013,0.097,1.049,0.980,-2.450,-0.770
870.770027,-0.014,0.098,1.050,0.980,-2.590,-0.700
870.778863,-0.019,0.097,1.048,0.840,-2.450,-0.840
870.782792,-0.014,0.099,1.050,0.700,-2.520,-0.560
870.79912,-0.013,0.099,1.050,0.770,-2.380,-0.770
870.803063,-0.013,0.101,1.051,0.630,-2.310,-0.770
870.810071,-0.016,0.099,1.049,0.700,-2.520,-0.770
870.816235,-0.015,0.100,1.052,0.630,-2.450,-0.770
870.825131,-0.015,0.097,1.052,0.700,-2.450,-0.770
870.835662,-0.013,0.100,1.049,0.630,-2.310,-0.840
870.844652,-0.019,0.102,1.049,0.140,-2.660,-0.770
870.853479,-0.008,0.094,1.052,0.350,-1.260,-0.700
870.857382,-0.023,0.095,1.050,0.280,-2.870,-0.770
870.866328,-0.012,0.099,1.047,0.350,-1.750,-0.840
870.877652,-0.009,0.093,1.050,0.630,-1.750,-0.840
870.88655,-0.019,0.097,1.047,0.910,-2.800,-0.840
870.895415,-0.012,0.098,1.053,0.560,-1.960,-0.840
870.902422,-0.016,0.093,1.046,1.890,-2.520,-0.910
870.910467,-0.013,0.097,1.045,2.170,-2.310,-0.980
870.917808,-0.014,0.097,1.048,1.260,-2.380,-0.770
870.926739,-0.015,0.095,1.045,2.730,-2.800,-0.910
870.935706,-0.014,0.096,1.052,1.750,-2.520,-0.840
870.939726,-0.017,0.096,1.049,1.610,-3.010,-0.840
870.948728,-0.013,0.100,1.053,0.980,-1.960,-0.770
870.960023,-0.016,0.096,1.054,0.910,-2.520,-0.700
870.968069,-0.019,0.099,1.056,0.910,-3.080,-0.630
870.977022,-0.014,0.099,1.053,1.890,-2.030,-0.700
870.985762,-0.018,0.101,1.050,1.750,-3.080,-0.910
870.994714,-0.009,0.101,1.052,1.190,-2.450,-0.770
871.005992,-0.011,0.097,1.052,1.680,-2.310,-0.770
871.01314,-0.016,0.100,1.050,1.750,-2.730,-0.770
871.017063,-0.018,0.100,1.050,1.330,-2.660,-0.630
871.026061,-0.013,0.100,1.053,0.910,-2.520,-0.700
871.035004,-0.017,0.099,1.052,0.840,-2.520,-0.700
871.042475,-0.016,0.100,1.053,0.420,-2.520,-0.840
871.051339,-0.013,0.100,1.048,0.420,-2.380,-0.770
871.058427,-0.016,0.099,1.051,0.420,-2.450,-0.700
871.067388,-0.012,0.100,1.048,0.490,-2.240,-0.840
871.071369,-0.012,0.100,1.048,0.280,-2.450,-0.770
871.082103,-0.015,0.099,1.049,0.140,-2.380,-0.770
871.091099,-0.018,0.096,1.051,0.000,-2.520,-0.770
871.095047,-0.017,0.097,1.050,0.420,-2.310,-0.840
871.10398,-0.016,0.100,1.051,0.210,-2.240,-0.770
871.110865,-0.012,0.102,1.051,0.140,-2.310,-0.770
871.11826,-0.016,0.099,1.051,0.280,-2.380,-0.840
871.127054,-0.013,0.101,1.052,0.490,-2.450,-0.770
871.134101,-0.014,0.098,1.050,0.630,-2.310,-0.840
871.143069,-0.015,0.096,1.047,1.120,-2.450,-0.770
871.147003,-0.015,0.099,1.049,1.190,-2.450,-0.700
871.159506,-0.015,0.099,1.051,0.910,-2.520,-0.700
871.163472,-0.015,0.098,1.051,1.120,-2.520,-0.840
871.172345,-0.014,0.098,1.050,0.910,-2.450,-0.840
871.181331,-0.015,0.096,1.050,1.050,-2.450,-0.770
871.190117,-0.012,0.099,1.050,0.980,-2.170,-0.700
871.20133,-0.018,0.096,1.048,1.330,-2.240,-0.630
871.208568,-0.014,0.102,1.048,0.070,-2.660,-0.840
871.217492,-0.011,0.097,1.049,0.560,-2.310,-0.840
871.2214,-0.017,0.099,1.048,0.910,-2.800,-0.630
871.229545,-0.012,0.097,1.047,0.490,-2.380,-0.770
871.242105,-0.016,0.097,1.048,0.980,-2.730,-0.910
871.246045,-0.013,0.097,1.047,1.120,-2.450,-0.770
871.254982,-0.017,0.099,1.051,0.980,-2.730,-0.770
871.26187,-0.015,0.097,1.051,1.120,-2.590,-0.770
871.270761,-0.017,0.098,1.049,1.190,-2.590,-0.840
871.282071,-0.015,0.098,1.050,1.120,-2.590,-0.770
871.291018,-0.014,0.097,1.054,1.190,-2.660,-0.840
871.299089,-0.016,0.100,1.050,1.260,-2.660,-0.630
871.303045,-0.015,0.100,1.051,1.260,-2.520,-0.770
871.31201,-0.018,0.099,1.051,1.470,-2.590,-0.700
871.322451,-0.013,0.099,1.051,1.260,-2.730,-0.770
871.330408,-0.014,0.096,1.051,1.400,-2.590,-0.700
871.339375,-0.016,0.096,1.049,1.190,-2.660,-0.770
871.34738,-0.015,0.100,1.049,1.260,-2.520,-0.770
871.355488,-0.014,0.099,1.049,1.120,-2.660,-0.700
871.362919,-0.014,0.101,1.050,0.770,-2.520,-0.700
871.36983,-0.018,0.099,1.050,0.700,-2.590,-0.840
871.378725,-0.014,0.100,1.049,0.630,-2.520,-0.910
871.382689,-0.016,0.100,1.051,0.560,-2.450,-0.770
871.391649,-0.014,0.096,1.048,0.630,-2.450,-0.630
871.403071,-0.012,0.099,1.052,0.280,-1.680,-0.630
871.411965,-0.021,0.091,1.047,1.680,-2.870,-0.700
871.420014,-0.010,0.095,1.046,1.400,-2.590,-0.840
871.429022,-0.018,0.100,1.048,0.630,-2.170,-0.770
871.435928,-0.014,0.094,1.052,1.960,-2.380,-0.700
871.443302,-0.013,0.101,1.052,0.980,-2.310,-0.840
871.45236,-0.011,0.100,1.051,0.910,-2.520,-0.700
871.4563,-0.016,0.097,1.053,0.910,-2.590,-0.630
871.465067,-0.015,0.106,1.056,0.000,-2.800,-0.840
871.474053,-0.008,0.097,1.050,0.560,-2.240,-0.770
871.48147,-0.014,0.101,1.052,0.210,-2.240,-0.910
871.490331,-0.010,0.100,1.049,-0.140,-2.590,-0.700
871.499137,-0.014,0.097,1.051,0.070,-1.610,-0.770
871.5072,-0.016,0.096,1.051,0.280,-2.310,-0.910
871.511106,-0.012,0.097,1.048,0.490,-2.170,-0.840
871.522761,-0.015,0.099,1.049,0.140,-2.170,-0.840
871.531735,-0.011,0.096,1.049,0.700,-2.170,-0.910
871.535721,-0.018,0.100,1.047,0.980,-2.730,-0.910
871.544651,-0.018,0.094,1.046,0.980,-1.820,-0.840
871.551732,-0.017,0.097,1.045,0.840,-2.870,-0.840
871.559112,-0.014,0.099,1.045,0.210,-2.100,-0.840
871.568066,-0.014,0.099,1.048,0.420,-2.240,-0.980
871.577051,-0.015,0.098,1.053,0.630,-2.800,-0.700
871.585832,-0.019,0.097,1.053,1.190,-2.800,-0.770
871.58975,-0.013,0.096,1.050,2.100,-2.660,-0.630
871.603931,-0.016,0.103,1.045,1.610,-2.520,-0.770
871.607834,-0.014,0.102,1.047,0.770,-2.730,-0.840
871.616723,-0.011,0.095,1.054,1.050,-2.450,-0.840
871.625725,-0.013,0.098,1.053,1.540,-2.450,-0.700
871.633787,-0.015,0.100,1.050,1.330,-2.730,-0.770
871.64119,-0.015,0.100,1.051,0.840,-2.450,-0.700
871.650028,-0.015,0.099,1.052,0.840,-2.590,-0.840
871.656937,-0.014,0.101,1.051,0.630,-2.380,-0.770
871.660841,-0.018,0.099,1.052,0.350,-2.590,-0.770
871.669742,-0.018,0.097,1.053,0.140,-2.380,-0.770
871.677362,-0.015,0.095,1.048,-0.140,-2.170,-0.770
871.686409,-0.016,0.097,1.047,-0.560,-2.240,-0.700
871.695366,-0.016,0.096,1.047,-0.560,-2.240,-0.770
871.704371,-0.012,0.097,1.049,-0.070,-2.380,-0.840
871.71338,-0.013,0.095,1.046,0.350,-2.380,-0.840
871.724723,-0.016,0.095,1.047,1.260,-2.520,-0.910
871.730787,-0.015,0.099,1.045,1.330,-2.520,-0.770
871.738824,-0.014,0.098,1.047,1.190,-2.590,-0.770
871.742745,-0.017,0.096,1.050,1.400,-2.590,-0.700
871.751732,-0.012,0.099,1.051,1.400,-2.520,-0.700
871.763112,-0.015,0.098,1.052,1.190,-2.520,-0.770
871.771978,-0.017,0.099,1.052,1.470,-2.660,-0.770
871.780784,-0.013,0.096,1.053,1.470,-2.590,-0.840
871.789726,-0.013,0.099,1.050,1.540,-2.590,-0.840
871.798731,-0.014,0.099,1.048,1.540,-2.520,-0.770
871.806336,-0.015,0.099,1.052,1.120,-2.590,-0.770
871.815337,-0.013,0.099,1.049,0.980,-2.520,-0.770
871.819347,-0.016,0.098,1.051,0.700,-2.450,-0.700
871.826392,-0.015,0.099,1.051,0.560,-2.520,-0.840
871.835361,-0.017,0.100,1.052,0.420,-2.450,-0.700
871.843003,-0.014,0.099,1.052,0.630,-2.310,-0.840
871.851115,-0.015,0.098,1.048,0.280,-2.380,-0.840
871.85811,-0.012,0.099,1.047,0.280,-2.310,-0.840
871.867003,-0.013,0.098,1.046,0.210,-2.380,-0.910
871.873914,-0.015,0.099,1.050,0.210,-2.310,-0.910
871.88512,-0.017,0.097,1.050,0.350,-2.380,-0.910
871.894115,-0.015,0.097,1.052,0.770,-2.310,-0.770
871.898071,-0.019,0.096,1.050,0.700,-2.520,-0.700
871.907008,-0.016,0.098,1.049,0.910,-2.520,-0.700
871.915205,-0.017,0.098,1.049,0.910,-2.450,-0.770
871.92642,-0.016,0.095,1.052,1.050,-2.380,-0.770
871.933383,-0.016,0.096,1.050,1.190,-2.520,-0.770
871.942365,-0.014,0.098,1.051,0.980,-2.380,-0.770
871.951367,-0.013,0.096,1.049,1.050,-2.450,-0.840
871.955321,-0.015,0.099,1.050,0.770,-2.520,-0.770
871.969574,-0.014,0.097,1.052,0.910,-2.380,-0.910
871.973552,-0.012,0.096,1.051,0.980,-2.240,-0.910
871.981403,-0.014,0.097,1.048,1.050,-2.520,-0.630
871.986522,-0.014,0.096,1.050,0.840,-2.380,-0.770
871.995402,-0.012,0.095,1.052,0.630,-2.520,-0.770
872.006719,-0.016,0.097,1.049,0.420,-2.310,-0.770
872.014797,-0.017,0.097,1.049,0.840,-2.450,-0.770
872.023744,-0.016,0.098,1.049,0.910,-2.520,-0.770
872.032722,-0.014,0.098,1.050,0.770,-2.520,-0.910
872.036715,-0.014,0.095,1.051,0.980,-2.380,-0.700
872.053104,-0.016,0.098,1.051,0.770,-2.520,-0.840
872.057044,-0.015,0.097,1.050,0.910,-2.520,-0.840
872.066002,-0.013,0.094,1.052,0.980,-2.520,-0.840
872.074757,-0.017,0.096,1.051,1.050,-2.590,-0.840
872.08372,-0.013,0.096,1.051,1.260,-2.590,-0.770
872.091169,-0.015,0.097,1.049,1.400,-2.590,-0.840
872.100007,-0.015,0.098,1.050,1.470,-2.520,-0.770
872.106949,-0.012,0.096,1.050,1.260,-2.520,-0.770
872.11085,-0.015,0.096,1.049,1.470,-2.590,-0.910
872.119709,-0.014,0.098,1.052,1.470,-2.450,-0.770
872.127359,-0.013,0.097,1.051,1.260,-2.590,-0.770
872.136381,-0.014,0.096,1.050,1.190,-2.520,-0.700
872.145324,-0.014,0.098,1.052,1.120,-2.520,-0.770
872.154367,-0.017,0.098,1.053,1.050,-2.380,-0.840
872.161412,-0.014,0.096,1.052,1.050,-2.380,-0.700
872.16897,-0.015,0.099,1.047,0.980,-2.450,-0.770
872.177732,-0.018,0.099,1.049,1.120,-2.450,-0.770
872.184807,-0.014,0.098,1.049,1.050,-2.380,-0.770
872.188726,-0.014,0.100,1.051,1.190,-2.520,-0.840
872.197683,-0.014,0.096,1.049,1.610,-2.520,-0.770
872.209065,-0.014,0.098,1.050,1.540,-2.590,-0.840
872.215059,-0.014,0.099,1.047,1.820,-2.660,-0.700
872.224052,-0.014,0.098,1.053,1.540,-2.660,-0.700
872.23298,-0.013,0.100,1.052,1.330,-2.590,-0.840
872.239909,-0.016,0.099,1.053,1.190,-2.520,-0.700
872.247248,-0.016,0.101,1.051,0.840,-2.450,-0.840
872.254176,-0.015,0.099,1.050,0.840,-2.380,-0.840
872.258095,-0.014,0.099,1.050,0.770,-2.450,-0.910
872.266969,-0.014,0.098,1.049,0.700,-2.380,-0.770
872.275773,-0.016,0.099,1.049,0.700,-2.380,-0.700
872.287051,-0.014,0.097,1.049,0.700,-2.380,-0.700
872.296009,-0.016,0.097,1.050,1.120,-2.450,-0.840
872.304254,-0.013,0.097,1.052,0.980,-2.660,-0.770
872.312191,-0.013,0.097,1.051,1.120,-2.450,-0.840
872.31612,-0.013,0.097,1.048,1.260,-2.520,-0.770
872.328507,-0.016,0.100,1.049,1.260,-2.520,-0.770
872.332445,-0.015,0.099,1.050,1.190,-2.660,-0.840
872.340409,-0.015,0.099,1.049,1.400,-2.450,-0.770
872.346537,-0.016,0.100,1.051,1.190,-2.590,-0.910
872.353465,-0.015,0.098,1.050,1.470,-2.450,-0.840
872.360821,-0.013,0.101,1.050,1.400,-2.660,-0.840
872.369687,-0.014,0.100,1.051,1.190,-2.450,-0.770
872.378493,-0.016,0.099,1.051,1.190,-2.520,-0.700
872.382402,-0.015,0.098,1.050,1.260,-2.520,-0.770
872.391361,-0.013,0.098,1.049,0.770,-2.240,-0.840
872.403744,-0.017,0.100,1.048,0.280,-2.800,-0.770
872.407732,-0.013,0.094,1.053,0.980,-2.310,-0.630
872.416713,-0.014,0.100,1.051,1.400,-2.240,-0.770
872.424892,-0.012,0.102,1.049,0.490,-2.590,-0.770
872.433754,-0.017,0.098,1.048,0.770,-2.380,-0.770
872.444224,-0.011,0.100,1.052,0.350,-2.310,-0.840
872.451222,-0.015,0.097,1.052,0.490,-2.170,-0.770
872.45818,-0.018,0.098,1.048,1.050,-2.520,-0.770
872.462085,-0.015,0.101,1.046,0.490,-2.310,-0.770
872.467172,-0.013,0.098,1.048,0.420,-2.310,-0.840
872.478811,-0.014,0.096,1.049,0.910,-2.380,-0.770
872.482722,-0.015,0.100,1.048,0.910,-2.380,-0.840
872.491716,-0.018,0.097,1.048,0.980,-2.660,-0.770
872.500718,-0.016,0.097,1.050,1.190,-2.380,-0.840
872.508806,-0.015,0.098,1.050,1.330,-2.450,-0.770
872.51618,-0.016,0.098,1.049,0.980,-2.520,-0.770
872.525081,-0.016,0.099,1.051,0.840,-2.520,-0.840
872.531928,-0.015,0.097,1.052,1.050,-2.450,-0.910
872.535834,-0.013,0.099,1.052,0.910,-2.380,-0.840
872.541909,-0.017,0.097,1.052,0.840,-2.450,-0.770
872.549365,-0.013,0.098,1.051,0.910,-2.310,-0.840
872.557417,-0.015,0.100,1.051,0.490,-2.380,-0.700
872.566312,-0.015,0.098,1.049,0.630,-2.310,-0.910
872.574359,-0.016,0.098,1.050,0.910,-2.450,-0.840
872.583364,-0.015,0.100,1.047,0.840,-2.450,-0.840
872.594713,-0.015,0.099,1.048,0.910,-2.520,-0.840
872.600793,-0.016,0.098,1.052,1.050,-2.380,-0.840
872.60973,-0.014,0.100,1.050,0.980,-2.520,-0.910
872.613724,-0.015,0.098,1.051,0.770,-2.380,-0.770
872.622641,-0.013,0.099,1.050,0.700,-2.450,-0.840
872.634061,-0.016,0.097,1.049,0.700,-2.310,-0.630
872.64305,-0.013,0.098,1.049,0.560,-2.310,-0.840
872.65105,-0.017,0.097,1.049,0.630,-2.310,-0.770
872.659996,-0.012,0.096,1.051,0.630,-2.240,-0.700
872.668833,-0.015,0.097,1.049,0.420,-2.240,-0.770
872.676177,-0.017,0.097,1.051,0.700,-2.310,-0.770
872.685063,-0.017,0.099,1.048,0.280,-2.310,-0.840
872.689041,-0.015,0.098,1.051,0.420,-2.170,-0.840
872.697966,-0.015,0.098,1.051,0.140,-2.380,-0.770
872.704931,-0.015,0.100,1.050,0.000,-2.450,-0.840
872.712439,-0.013,0.098,1.048,0.140,-2.310,-0.630
872.72139,-0.012,0.099,1.047,0.280,-2.380,-0.770
872.728424,-0.013,0.095,1.050,0.420,-2.310,-0.770
872.734587,-0.016,0.095,1.049,0.490,-2.380,-0.910
872.738533,-0.016,0.097,1.051,0.700,-2.380,-0.770
872.751,-0.016,0.094,1.049,0.980,-2.520,-0.770
872.758919,-0.016,0.096,1.052,0.980,-2.660,-0.840
872.762823,-0.020,0.100,1.050,0.910,-3.010,-0.770
872.771714,-0.012,0.094,1.049,1.750,-2.030,-0.770
872.780716,-0.020,0.098,1.046,1.120,-2.380,-0.840
872.791958,-0.017,0.095,1.045,1.190,-2.870,-0.840
872.799071,-0.014,0.094,1.053,1.890,-1.890,-0.770
872.808059,-0.014,0.099,1.050,1.610,-2.730,-0.770
872.81684,-0.012,0.097,1.050,1.610,-2.240,-0.770
872.820757,-0.017,0.099,1.049,1.190,-2.800,-0.910
872.836087,-0.015,0.096,1.048,1.400,-2.030,-0.910
872.840079,-0.017,0.097,1.050,0.980,-2.240,-0.980
872.848965,-0.012,0.099,1.046,1.330,-3.010,-1.120
872.856894,-0.009,0.099,1.048,0.770,-1.050,-0.630
872.865751,-0.022,0.103,1.048,0.420,-3.640,-0.700
872.873316,-0.012,0.098,1.049,1.260,-2.450,-0.560
872.881206,-0.017,0.098,1.050,0.980,-2.730,-0.840
872.88918,-0.005,0.096,1.055,2.030,-1.470,-0.770
872.893086,-0.024,0.108,1.044,1.470,-3.360,-0.980
872.901995,-0.012,0.100,1.054,0.700,-2.310,-0.770
872.913354,-0.012,0.092,1.051,3.080,-2.240,-0.840
872.92048,-0.018,0.103,1.045,1.960,-2.730,-0.700
872.929404,-0.018,0.101,1.051,1.260,-2.520,-0.770
872.938369,-0.016,0.098,1.050,1.540,-2.660,-0.770
872.946406,-0.013,0.098,1.047,1.540,-2.380,-0.630
872.953802,-0.017,0.101,1.050,0.980,-2.590,-0.630
872.96272,-0.013,0.096,1.051,1.120,-2.660,-0.980
872.971706,-0.014,0.098,1.048,1.400,-2.730,-0.770
872.975638,-0.015,0.102,1.046,1.330,-2.520,-0.910
872.984389,-0.015,0.100,1.051,1.330,-2.590,-0.770
872.995711,-0.015,0.099,1.050,0.910,-2.380,-0.910
873.003794,-0.015,0.100,1.051,0.910,-2.520,-0.770
873.012686,-0.016,0.102,1.051,0.070,-2.450,-0.770
873.021462,-0.016,0.102,1.052,-0.070,-2.170,-0.840
873.02538,-0.014,0.101,1.051,-0.140,-2.310,-0.910
873.040836,-0.015,0.098,1.051,-0.210,-2.310,-0.770
873.049732,-0.012,0.098,1.050,0.630,-2.100,-0.840
873.053703,-0.018,0.101,1.045,0.420,-2.660,-0.840
873.062667,-0.016,0.094,1.051,0.910,-2.380,-0.770
873.071646,-0.015,0.097,1.050,1.050,-2.240,-0.840
873.082974,-0.016,0.096,1.050,0.770,-2.660,-0.770
873.090862,-0.015,0.097,1.051,0.910,-2.310,-0.630
873.097798,-0.012,0.097,1.048,0.840,-2.520,-0.840
873.106705,-0.013,0.098,1.050,1.190,-2.240,-0.770
873.110653,-0.016,0.099,1.050,1.400,-2.310,-0.770
873.123102,-0.016,0.099,1.050,1.120,-2.380,-0.840
873.127094,-0.014,0.098,1.052,1.120,-2.520,-0.770
873.13595,-0.012,0.100,1.051,1.260,-2.170,-0.840
873.144755,-0.017,0.100,1.049,0.770,-2.380,-0.770
873.151785,-0.014,0.097,1.049,0.770,-2.380,-0.770
873.163048,-0.016,0.100,1.047,0.420,-2.310,-0.840
873.170153,-0.014,0.096,1.052,0.490,-2.380,-0.840
873.179076,-0.016,0.098,1.050,0.420,-2.380,-0.770
873.183064,-0.015,0.100,1.049,0.420,-2.380,-0.840
873.19195,-0.014,0.099,1.051,0.490,-2.380,-0.700
873.203367,-0.016,0.100,1.050,0.770,-2.520,-0.770
873.211386,-0.015,0.099,1.048,0.770,-2.450,-0.700
873.220349,-0.016,0.100,1.052,0.980,-2.520,-0.770
873.229125,-0.014,0.098,1.052,0.840,-2.520,-0.840
873.238056,-0.016,0.098,1.048,1.120,-2.310,-0.770
873.249372,-0.015,0.098,1.052,0.910,-2.590,-0.700
873.256399,-0.016,0.096,1.050,1.190,-2.520,-0.840
873.260358,-0.014,0.097,1.048,1.120,-2.520,-0.840
873.269342,-0.016,0.097,1.049,1.610,-2.520,-0.840
873.27831,-0.013,0.096,1.047,1.470,-2.660,-0.910
873.289622,-0.013,0.097,1.047,1.750,-2.590,-0.770
873.298413,-0.013,0.096,1.050,1.470,-2.800,-0.770
873.307406,-0.015,0.098,1.051,1.330,-2.730,-0.910
873.316362,-0.013,0.099,1.050,1.260,-2.660,-0.770
873.320355,-0.016,0.099,1.052,0.980,-2.660,-0.840
873.333053,-0.016,0.099,1.052,0.770,-2.520,-0.770
873.342065,-0.014,0.098,1.051,0.840,-2.590,-0.770
873.345992,-0.014,0.099,1.050,0.840,-2.450,-0.700
873.353051,-0.015,0.098,1.049,0.700,-2.450,-0.700
873.362037,-0.017,0.102,1.049,0.910,-2.590,-0.770
873.369672,-0.015,0.099,1.051,0.840,-2.520,-0.840
873.378703,-0.015,0.097,1.049,1.120,-2.450,-0.840
873.386741,-0.017,0.101,1.049,1.050,-2.450,-0.770
873.395482,-0.014,0.100,1.050,1.050,-2.520,-0.840
873.399399,-0.013,0.100,1.051,1.120,-2.450,-0.700
873.414828,-0.015,0.100,1.050,1.190,-2.450,-0.770
873.423722,-0.015,0.099,1.047,1.190,-2.310,-0.840
873.4277,-0.014,0.100,1.051,1.190,-2.520,-0.770
873.435715,-0.014,0.098,1.048,1.050,-2.450,-0.840
873.443743,-0.015,0.099,1.050,1.050,-2.590,-0.770
873.451096,-0.013,0.098,1.052,0.910,-2.450,-0.700
873.459112,-0.012,0.099,1.050,0.700,-2.590,-0.700
873.468068,-0.016,0.098,1.050,0.490,-2.380,-0.770
873.475066,-0.012,0.099,1.052,0.210,-2.310,-0.910
873.47903,-0.012,0.102,1.052,0.490,-2.030,-0.770
873.49146,-0.021,0.099,1.054,0.210,-2.730,-0.700
873.495375,-0.011,0.099,1.052,0.630,-2.170,-0.700
873.504345,-0.016,0.100,1.051,-0.490,-2.310,-0.840
873.511376,-0.015,0.097,1.049,0.490,-2.450,-0.700
873.520355,-0.015,0.100,1.048,0.420,-2.380,-0.770
873.530976,-0.014,0.097,1.051,0.350,-2.450,-0.770
873.538858,-0.014,0.095,1.048,0.490,-2.730,-0.700
873.544981,-0.014,0.100,1.052,0.140,-2.100,-0.840
873.553836,-0.013,0.094,1.047,1.120,-2.240,-0.910
873.557744,-0.011,0.099,1.053,1.050,-2.240,-0.770
873.574056,-0.014,0.093,1.048,0.980,-2.730,-0.840
873.577984,-0.013,0.099,1.048,1.330,-2.100,-0.840
873.586048,-0.018,0.099,1.047,1.260,-2.660,-0.770
873.591058,-0.013,0.099,1.052,1.470,-2.380,-0.770
873.598078,-0.016,0.100,1.054,1.330,-2.590,-0.840
873.609357,-0.013,0.098,1.048,1.260,-2.450,-0.840
873.618364,-0.015,0.100,1.049,1.050,-2.310,-0.840
873.626585,-0.017,0.099,1.051,1.190,-2.520,-0.840
873.630532,-0.016,0.099,1.048,1.330,-2.520,-0.910
873.638404,-0.016,0.098,1.049,1.400,-2.450,-0.770
873.65082,-0.016,0.102,1.049,1.120,-2.870,-0.840
873.654735,-0.015,0.099,1.052,1.120,-2.310,-0.980
873.661748,-0.017,0.098,1.049,1.050,-2.520,-0.840
873.670643,-0.014,0.100,1.049,0.770,-2.660,-0.840
873.677557,-0.018,0.099,1.051,0.630,-2.800,-0.840
873.684922,-0.012,0.099,1.048,1.050,-2.450,-0.700
873.693814,-0.023,0.099,1.049,1.050,-2.590,-0.770
873.700786,-0.014,0.097,1.052,1.610,-2.380,-0.700
873.70472,-0.017,0.097,1.051,1.820,-2.800,-0.840
873.713636,-0.009,0.102,1.046,1.260,-2.240,-0.840
873.724171,-0.010,0.097,1.049,1.190,-2.520,-0.630
873.732124,-0.010,0.099,1.048,1.400,-2.730,-0.770
873.741048,-0.014,0.095,1.048,2.170,-2.520,-0.770
873.750043,-0.016,0.101,1.047,2.170,-2.730,-0.840
873.758125,-0.013,0.101,1.052,1.610,-2.590,-0.840
873.769445,-0.013,0.099,1.050,1.400,-2.520,-0.770
873.778367,-0.016,0.101,1.050,1.190,-2.450,-0.770
873.782344,-0.015,0.101,1.055,0.840,-2.450,-0.700
873.791274,-0.016,0.101,1.056,0.490,-2.380,-0.770
873.800231,-0.014,0.102,1.054,-0.070,-2.170,-0.840
873.809505,-0.016,0.100,1.051,-0.700,-2.240,-0.910
873.818398,-0.016,0.099,1.052,-0.420,-2.240,-0.770
873.827342,-0.014,0.099,1.051,0.000,-2.170,-0.910
873.835342,-0.015,0.099,1.047,0.000,-2.100,-0.840
873.839277,-0.017,0.098,1.048,0.420,-2.310,-0.840
873.851734,-0.013,0.100,1.049,0.420,-2.380,-0.840
873.85564,-0.016,0.100,1.049,0.350,-2.380,-0.770
873.864624,-0.014,0.097,1.049,0.630,-2.240,-0.630
873.873703,-0.016,0.099,1.048,0.910,-2.380,-0.770
873.882672,-0.014,0.100,1.049,1.120,-2.520,-0.770
873.893992,-0.014,0.099,1.049,1.330,-2.380,-0.770
873.901052,-0.014,0.100,1.048,1.260,-2.450,-0.770
873.909988,-0.015,0.098,1.049,1.260,-2.450,-0.770
873.918824,-0.015,0.099,1.048,1.120,-2.450,-0.630
873.922742,-0.014,0.096,1.052,0.770,-2.450,-0.700
873.937139,-0.017,0.099,1.051,0.700,-2.380,-0.840
873.941061,-0.016,0.099,1.050,0.560,-2.310,-0.840
873.95003,-0.013,0.099,1.047,0.630,-2.380,-0.910
873.958994,-0.014,0.100,1.050,0.070,-2.380,-0.910
873.967083,-0.014,0.099,1.049,0.000,-2.310,-0.910
873.974424,-0.014,0.099,1.048,0.070,-2.310,-0.770
873.983345,-0.014,0.099,1.050,0.140,-2.380,-0.840
873.992325,-0.017,0.098,1.047,0.280,-2.310,-0.840
873.996345,-0.015,0.095,1.051,0.350,-2.450,-0.700
874.003502,-0.015,0.097,1.048,0.630,-2.450,-0.770
874.01417,-0.016,0.097,1.049,0.490,-2.310,-0.700
874.018076,-0.016,0.097,1.050,0.700,-2.520,-0.910
874.026967,-0.017,0.098,1.047,0.980,-2.450,-0.770
874.035741,-0.016,0.097,1.047,1.190,-2.590,-0.910
874.044702,-0.017,0.097,1.047,1.330,-2.730,-0.770
874.056035,-0.017,0.099,1.047,1.890,-2.730,-0.770
874.063095,-0.013,0.098,1.046,2.030,-2.800,-0.770
874.071837,-0.016,0.097,1.046,2.030,-2.730,-0.770
874.075744,-0.014,0.098,1.053,1.820,-2.800,-0.700
874.083747,-0.013,0.098,1.051,1.820,-2.800,-0.700
874.091346,-0.014,0.100,1.051,1.680,-2.730,-0.910
874.100371,-0.016,0.100,1.053,1.260,-2.660,-0.840
874.108383,-0.015,0.099,1.053,0.910,-2.660,-0.770
874.117331,-0.016,0.100,1.053,0.700,-2.520,-0.770
874.126351,-0.015,0.098,1.050,0.560,-2.450,-0.770
874.137679,-0.016,0.099,1.050,0.490,-2.590,-0.770
874.145588,-0.016,0.098,1.048,0.630,-2.450,-0.700
874.149512,-0.014,0.101,1.050,0.700,-2.520,-0.770
874.158371,-0.014,0.098,1.051,0.840,-2.590,-0.770
874.167312,-0.012,0.099,1.053,0.980,-2.590,-0.840
874.178637,-0.014,0.098,1.050,0.840,-2.450,-0.770
874.185495,-0.014,0.099,1.050,0.980,-2.450,-0.840
874.190457,-0.014,0.100,1.050,0.910,-2.520,-0.700
874.199354,-0.013,0.099,1.051,1.120,-2.450,-0.770
874.203358,-0.015,0.098,1.048,1.190,-2.520,-0.770
874.219709,-0.014,0.100,1.047,1.260,-2.590,-0.700
874.226759,-0.015,0.100,1.049,1.330,-2.520,-0.910
874.23071,-0.018,0.098,1.053,1.400,-2.450,-0.770
874.237714,-0.017,0.100,1.050,1.190,-2.520,-0.770
874.246626,-0.014,0.099,1.050,0.980,-2.450,-0.700
874.257952,-0.013,0.098,1.051,0.630,-2.310,-0.770
874.266808,-0.015,0.100,1.052,0.350,-2.380,-0.840
874.27572,-0.015,0.099,1.049,0.490,-2.450,-0.840
874.284704,-0.012,0.097,1.049,0.280,-2.450,-0.770
874.288698,-0.015,0.097,1.050,0.210,-2.310,-0.700
874.305074,-0.013,0.100,1.049,0.140,-2.450,-0.770
874.309044,-0.014,0.097,1.050,0.350,-2.450,-0.630
874.317947,-0.015,0.097,1.048,0.280,-2.380,-0.770
874.326754,-0.014,0.098,1.049,0.490,-2.380,-0.770
874.334768,-0.018,0.097,1.047,0.560,-2.450,-0.770
874.342193,-0.012,0.095,1.047,0.700,-2.450,-0.910
874.351106,-0.013,0.099,1.048,0.770,-2.450,-0.770
874.358161,-0.016,0.098,1.047,0.840,-2.520,-0.840
874.362067,-0.015,0.099,1.050,0.840,-2.450,-0.840
874.370981,-0.014,0.098,1.050,0.980,-2.310,-0.840
874.378624,-0.014,0.100,1.050,0.980,-2.380,-0.630
874.387676,-0.020,0.097,1.050,0.630,-2.520,-0.560
874.396688,-0.015,0.100,1.045,-0.070,-2.590,-0.770
874.403873,-0.016,0.099,1.051,0.000,-2.450,-0.840
874.412733,-0.014,0.094,1.055,0.910,-2.380,-0.840
874.423986,-0.011,0.103,1.048,-0.140,-2.380,-0.770
874.430077,-0.014,0.097,1.051,0.280,-2.520,-0.770
874.437135,-0.012,0.094,1.053,1.470,-2.380,-0.910
874.441057,-0.012,0.101,1.049,0.840,-2.380,-0.840
874.448167,-0.012,0.096,1.050,-0.210,-2.240,-0.770
874.455634,-0.018,0.096,1.050,1.260,-2.730,-0.700
874.462719,-0.014,0.102,1.051,0.280,-2.450,-0.840
874.471626,-0.011,0.096,1.051,0.420,-2.520,-0.770
874.480601,-0.014,0.099,1.050,0.910,-2.310,-0.840
874.48947,-0.015,0.100,1.052,0.210,-2.380,-0.770
874.499969,-0.014,0.093,1.047,0.910,-2.310,-0.840
874.505306,-0.015,0.097,1.046,0.770,-2.380,-0.700
874.514348,-0.017,0.099,1.048,0.840,-2.380,-0.770
874.518377,-0.012,0.094,1.050,0.910,-2.590,-0.770
874.526542,-0.013,0.095,1.047,1.120,-2.380,-0.770
874.534113,-0.013,0.097,1.049,1.260,-2.590,-0.770
874.538078,-0.011,0.098,1.047,1.050,-2.450,-0.840
874.54695,-0.014,0.100,1.052,1.260,-2.590,-0.770
874.555214,-0.015,0.099,1.054,0.840,-2.520,-0.840
874.56414,-0.014,0.099,1.051,0.770,-2.520,-0.700
874.575381,-0.017,0.100,1.052,0.210,-2.380,-0.840
874.579511,-0.015,0.096,1.050,-0.070,-2.310,-0.840
874.587441,-0.014,0.096,1.048,0.000,-2.380,-0.770
874.591355,-0.013,0.099,1.051,-0.070,-2.240,-0.770
874.598535,-0.015,0.097,1.050,-0.070,-2.380,-0.700
874.610836,-0.013,0.096,1.045,0.350,-2.450,-0.700
874.614743,-0.015,0.098,1.048,0.210,-2.380,-0.840
874.623723,-0.014,0.098,1.049,0.630,-2.450,-0.770
874.63267,-0.017,0.097,1.049,0.770,-2.590,-0.770
874.640558,-0.014,0.096,1.051,0.770,-2.310,-0.910
874.647896,-0.016,0.096,1.049,1.050,-2.520,-0.770
874.654839,-0.016,0.096,1.049,1.120,-2.520,-0.770
874.663703,-0.014,0.097,1.050,0.910,-2.380,-0.910
874.667735,-0.015,0.096,1.048,1.190,-2.520,-0.840
874.675883,-0.017,0.100,1.047,1.120,-2.520,-0.770
874.683372,-0.014,0.097,1.050,1.330,-2.590,-0.770
874.692339,-0.014,0.098,1.052,1.470,-2.590,-0.700
874.701303,-0.016,0.099,1.049,1.050,-2.520,-0.770
874.709195,-0.014,0.096,1.051,1.120,-2.450,-0.770
874.71516,-0.014,0.098,1.049,1.120,-2.590,-0.910
874.722498,-0.014,0.096,1.049,0.840,-2.520,-0.910
874.731365,-0.016,0.097,1.052,0.910,-2.520,-0.700
874.735333,-0.016,0.097,1.049,0.980,-2.450,-0.700
874.74235,-0.015,0.099,1.051,0.840,-2.660,-0.840
874.751343,-0.014,0.097,1.051,0.980,-2.450,-0.770
874.762737,-0.013,0.097,1.051,0.700,-2.520,-0.980
874.771697,-0.015,0.097,1.052,0.630,-2.450,-0.700
874.7807,-0.014,0.097,1.052,0.490,-2.450,-0.700
874.789703,-0.012,0.096,1.052,0.420,-2.450,-0.700
874.798709,-0.015,0.097,1.051,0.700,-2.380,-0.770
874.806316,-0.014,0.097,1.046,0.700,-2.520,-0.700
874.815314,-0.014,0.096,1.048,0.770,-2.520,-0.840
874.819362,-0.014,0.096,1.047,1.260,-2.590,-0.770
874.825377,-0.014,0.098,1.047,1.120,-2.660,-0.770
874.834351,-0.013,0.095,1.052,1.330,-2.590,-0.910
874.841983,-0.014,0.098,1.048,1.680,-2.660,-0.700
874.851048,-0.013,0.098,1.048,1.260,-2.590,-0.770
874.859076,-0.016,0.096,1.053,1.470,-2.660,-0.840
874.867989,-0.015,0.098,1.051,1.050,-2.520,-0.840
874.876823,-0.015,0.097,1.053,0.840,-2.450,-0.770
874.888119,-0.015,0.098,1.052,0.910,-2.380,-0.770
874.893127,-0.016,0.098,1.051,0.630,-2.380,-0.700
874.8971,-0.013,0.096,1.052,0.630,-2.520,-0.910
874.905956,-0.015,0.098,1.049,0.630,-2.450,-0.840
874.91104,-0.014,0.097,1.050,0.560,-2.450,-0.770
874.918421,-0.015,0.097,1.049,0.630,-2.450,-0.910
874.927338,-0.014,0.096,1.049,0.630,-2.450,-0.700
874.934198,-0.015,0.095,1.050,0.560,-2.310,-0.770
874.939346,-0.014,0.096,1.051,0.630,-2.310,-0.700
874.943338,-0.015,0.097,1.050,0.770,-2.240,-0.910
874.954826,-0.015,0.097,1.049,0.350,-2.310,-0.840
874.963718,-0.012,0.096,1.047,0.490,-2.380,-0.910
874.967737,-0.014,0.096,1.049,0.560,-2.380,-0.770
874.975876,-0.014,0.094,1.051,0.560,-2.380,-0.700
874.984791,-0.016,0.095,1.049,1.050,-2.310,-0.700
874.996045,-0.013,0.097,1.051,0.910,-2.450,-0.700
875.00018,-0.015,0.096,1.047,1.050,-2.520,-0.700
875.008982,-0.016,0.099,1.050,1.050,-2.660,-0.770
875.015099,-0.016,0.097,1.051,1.260,-2.380,-0.770
875.019044,-0.014,0.096,1.050,1.260,-2.380,-0.700
875.028549,-0.015,0.099,1.050,1.120,-2.380,-0.840
875.032478,-0.013,0.099,1.051,0.700,-2.450,-0.840
875.040393,-0.014,0.095,1.050,0.770,-2.240,-0.770
875.049294,-0.013,0.095,1.050,1.190,-2.170,-0.840
875.056176,-0.018,0.101,1.055,0.210,-2.380,-0.840
875.06375,-0.019,0.100,1.046,1.260,-2.940,-0.700
875.072707,-0.019,0.099,1.049,0.980,-2.030,-0.910
875.081475,-0.016,0.099,1.047,0.700,-2.380,-0.770
875.085382,-0.013,0.094,1.054,1.610,-2.170,-0.700
875.094329,-0.018,0.095,1.045,1.330,-2.870,-0.700
875.107941,-0.017,0.096,1.049,1.400,-2.520,-0.910
875.111915,-0.016,0.096,1.051,1.610,-2.450,-0.700
875.120703,-0.011,0.098,1.049,1.400,-2.310,-0.910
875.129697,-0.017,0.097,1.049,1.610,-2.450,-0.910
875.135775,-0.014,0.097,1.052,1.470,-2.310,-0.910
875.143151,-0.018,0.097,1.051,1.540,-2.660,-0.910
875.149103,-0.011,0.093,1.050,1.680,-2.380,-0.840
875.158088,-0.018,0.097,1.047,2.030,-2.800,-0.840
875.161996,-0.008,0.097,1.048,1.610,-1.470,-0.770
875.167186,-0.027,0.099,1.045,0.560,-3.220,-0.770
875.179699,-0.007,0.093,1.050,1.610,-2.030,-0.630
875.183634,-0.020,0.096,1.053,1.050,-3.010,-0.840
875.19262,-0.012,0.100,1.047,2.730,-2.030,-0.700
875.200871,-0.020,0.105,1.047,0.700,-3.150,-0.910
875.20882,-0.005,0.098,1.053,0.560,-2.310,-0.840
875.216172,-0.014,0.095,1.051,2.940,-2.660,-0.840
875.224195,-0.009,0.097,1.052,2.870,-2.450,-0.770
875.232149,-0.016,0.102,1.049,1.470,-2.870,-0.700
875.236065,-0.014,0.099,1.052,1.470,-2.310,-0.770
875.244942,-0.015,0.102,1.051,1.260,-2.450,-0.840
875.25543,-0.017,0.101,1.049,0.280,-2.520,-0.840
875.264341,-0.015,0.098,1.052,0.350,-2.240,-0.840
875.272383,-0.015,0.098,1.049,0.560,-2.380,-0.840
875.281091,-0.012,0.096,1.051,0.700,-2.380,-0.770
875.290071,-0.014,0.098,1.045,0.980,-2.660,-0.840
875.30144,-0.012,0.098,1.050,0.560,-2.310,-0.840
875.308442,-0.013,0.100,1.048,0.630,-2.240,-0.770
875.31236,-0.017,0.100,1.053,-0.140,-2.240,-0.840
875.321337,-0.014,0.098,1.053,-0.140,-2.170,-0.840
875.328385,-0.016,0.098,1.051,-0.140,-2.170,-0.770
875.336021,-0.017,0.100,1.046,-1.190,-2.100,-0.910
875.345013,-0.017,0.090,1.056,-0.070,-2.170,-0.630
875.353746,-0.016,0.090,1.056,1.750,-2.310,-0.700
875.361803,-0.013,0.102,1.042,1.540,-2.310,-0.910
875.370698,-0.014,0.102,1.049,-0.280,-2.310,-0.840
875.378155,-0.016,0.093,1.049,1.890,-2.450,-0.700
875.386151,-0.015,0.100,1.044,1.050,-2.520,-0.770
875.390054,-0.014,0.095,1.049,0.350,-2.170,-0.840
875.395035,-0.015,0.092,1.047,1.820,-2.660,-0.770
875.40413,-0.018,0.097,1.050,1.260,-2.170,-0.840
875.412049,-0.015,0.097,1.049,0.910,-2.520,-0.770
875.42106,-0.015,0.100,1.050,1.890,-2.450,-0.770
875.429991,-0.017,0.102,1.050,0.840,-2.520,-0.840
875.438956,-0.015,0.095,1.050,1.190,-2.380,-0.910
875.447858,-0.016,0.101,1.049,1.330,-2.380,-0.840
875.459099,-0.016,0.099,1.051,0.700,-2.450,-0.840
875.467154,-0.014,0.097,1.054,0.700,-2.310,-0.980
875.471068,-0.017,0.097,1.048,0.980,-2.380,-0.770
875.480034,-0.016,0.099,1.050,0.490,-2.380,-0.770
875.488981,-0.016,0.099,1.053,0.840,-2.520,-0.770
875.498463,-0.016,0.099,1.051,0.910,-2.380,-0.700
875.506464,-0.016,0.099,1.050,1.050,-2.450,-0.770
875.515356,-0.016,0.098,1.048,0.980,-2.660,-0.700
875.524352,-0.016,0.098,1.051,0.910,-2.520,-0.770
875.528329,-0.016,0.098,1.052,0.980,-2.520,-0.770
875.542803,-0.016,0.099,1.049,0.770,-2.590,-0.700
875.549771,-0.014,0.097,1.049,1.190,-2.590,-0.770
875.553737,-0.014,0.097,1.047,1.400,-2.520,-0.910
875.562686,-0.020,0.096,1.048,1.330,-2.660,-0.700
875.569712,-0.016,0.097,1.047,1.680,-2.730,-0.700
875.577075,-0.015,0.097,1.049,1.960,-2.660,-0.770
875.586057,-0.011,0.097,1.048,1.750,-2.660,-0.840
875.593078,-0.015,0.098,1.048,1.750,-2.660,-0.770
875.602028,-0.012,0.098,1.050,1.960,-2.660,-0.840
875.605984,-0.015,0.097,1.051,1.890,-2.730,-0.840
875.622455,-0.015,0.101,1.050,1.540,-2.590,-0.840
875.62635,-0.014,0.100,1.054,1.190,-2.450,-0.840
875.63533,-0.014,0.100,1.051,0.980,-2.520,-0.980
875.642369,-0.014,0.098,1.051,0.700,-2.450,-0.770
875.651351,-0.013,0.099,1.052,0.700,-2.520,-0.770
875.66272,-0.012,0.098,1.048,0.910,-2.450,-0.770
875.671664,-0.014,0.101,1.049,1.050,-2.520,-0.840
875.68047,-0.016,0.101,1.049,1.050,-2.520,-0.770
875.684377,-0.013,0.097,1.051,0.980,-2.520,-0.840
875.693337,-0.013,0.100,1.051,0.980,-2.450,-0.700
875.709715,-0.016,0.100,1.051,0.840,-2.380,-0.770
875.713686,-0.014,0.098,1.051,0.980,-2.310,-0.840
875.722623,-0.016,0.100,1.050,1.260,-2.450,-0.700
875.729708,-0.014,0.100,1.049,1.190,-2.450,-0.770
875.738694,-0.017,0.098,1.048,0.910,-2.450,-0.700
875.75007,-0.012,0.097,1.050,1.050,-2.380,-0.770
875.758975,-0.014,0.100,1.052,0.980,-2.450,-0.840
875.764083,-0.014,0.100,1.051,0.630,-2.380,-0.700
875.768039,-0.014,0.099,1.051,0.560,-2.380,-0.840
875.776953,-0.014,0.097,1.050,0.630,-2.240,-0.700
875.788301,-0.016,0.102,1.050,0.140,-2.240,-0.770
875.797343,-0.014,0.098,1.051,0.210,-2.380,-0.980
875.80536,-0.016,0.098,1.048,0.280,-2.240,-0.770
875.81361,-0.015,0.099,1.051,0.420,-2.380,-0.840
875.822468,-0.015,0.098,1.048,0.490,-2.380,-0.840
875.833731,-0.014,0.096,1.050,0.770,-2.380,-0.840
875.842696,-0.017,0.099,1.049,0.770,-2.520,-0.910
875.846615,-0.015,0.096,1.052,0.910,-2.310,-0.840
875.855697,-0.014,0.100,1.048,0.910,-2.380,-0.770
875.864622,-0.012,0.099,1.049,0.980,-2.450,-0.700
875.874163,-0.012,0.096,1.049,0.980,-2.590,-0.770
875.881095,-0.015,0.097,1.052,1.120,-2.660,-0.770
875.889336,-0.014,0.097,1.050,1.190,-2.660,-0.770
875.898375,-0.013,0.100,1.047,0.420,-1.260,-0.770
875.905419,-0.025,0.100,1.053,0.630,-3.150,-0.630
875.912764,-0.008,0.099,1.049,1.680,-2.310,-0.700
875.921723,-0.016,0.103,1.051,0.210,-2.590,-0.840
875.930688,-0.011,0.095,1.050,1.330,-2.100,-0.700
875.934654,-0.018,0.102,1.051,0.630,-3.010,-0.770
875.943383,-0.010,0.099,1.052,0.770,-2.170,-0.770
875.954702,-0.009,0.099,1.051,1.050,-2.170,-0.770
875.962756,-0.013,0.098,1.050,1.540,-2.030,-0.770
875.971622,-0.018,0.100,1.050,1.330,-2.030,-0.840
875.980455,-0.013,0.100,1.048,1.190,-2.310,-0.770
875.984362,-0.008,0.097,1.053,0.700,-2.030,-0.700
876.000691,-0.019,0.102,1.048,1.050,-1.960,-0.700
876.006989,-0.013,0.099,1.050,0.910,-2.030,-0.910
876.010962,-0.018,0.098,1.046,0.980,-2.730,-0.840
876.019897,-0.010,0.099,1.047,1.190,-2.380,-0.770
876.02798,-0.016,0.100,1.047,1.400,-2.450,-0.840
876.03553,-0.013,0.097,1.051,1.820,-2.660,-0.770
876.043483,-0.014,0.096,1.048,2.380,-2.520,-0.910
876.051686,-0.014,0.097,1.048,2.450,-2.730,-0.700
876.060442,-0.014,0.097,1.050,2.310,-2.590,-0.700
876.064399,-0.018,0.101,1.050,2.240,-2.660,-0.840
876.080791,-0.015,0.098,1.056,1.890,-2.730,-0.840
876.087793,-0.015,0.101,1.055,2.310,-2.310,-0.840
876.091701,-0.016,0.102,1.052,0.630,-2.520,-0.840
876.097971,-0.011,0.101,1.053,0.630,-2.310,-0.840
876.10674,-0.017,0.100,1.052,0.350,-2.310,-0.770
876.118045,-0.014,0.098,1.054,-0.280,-2.800,-0.910
876.127049,-0.012,0.096,1.048,0.770,-2.380,-0.840
876.134058,-0.018,0.102,1.048,0.210,-2.660,-0.700
876.141324,-0.019,0.098,1.047,0.770,-2.660,-0.700
876.145259,-0.012,0.095,1.052,1.470,-2.520,-0.840
876.157713,-0.013,0.103,1.046,1.260,-2.450,-0.840
876.16669,-0.015,0.101,1.048,0.560,-2.520,-0.770
876.170703,-0.012,0.099,1.051,0.910,-2.310,-0.700
876.179621,-0.011,0.100,1.047,1.260,-2.380,-0.770
876.188655,-0.014,0.098,1.048,1.330,-2.520,-0.770
876.20002,-0.012,0.099,1.049,1.260,-2.590,-0.700
876.208042,-0.015,0.099,1.051,1.190,-2.380,-0.840
876.216976,-0.017,0.100,1.051,0.980,-2.520,-0.770
876.225813,-0.015,0.099,1.049,0.140,-2.240,-0.770
876.22973,-0.013,0.097,1.052,0.140,-2.380,-0.840
876.242357,-0.012,0.098,1.051,0.770,-2.310,-0.910
876.2464,-0.016,0.101,1.049,0.420,-2.450,-0.770
876.255331,-0.013,0.100,1.051,0.700,-2.380,-0.840
876.261536,-0.014,0.099,1.049,0.840,-2.450,-0.840
876.270356,-0.017,0.100,1.049,0.490,-2.310,-0.840
876.27781,-0.014,0.100,1.050,0.560,-2.240,-0.840
876.286728,-0.017,0.101,1.051,0.490,-2.310,-0.840
876.295692,-0.017,0.099,1.048,0.560,-2.450,-0.770
876.299615,-0.014,0.096,1.051,0.700,-2.380,-0.840
876.306703,-0.015,0.099,1.051,0.980,-2.310,-0.840
876.319107,-0.015,0.098,1.050,0.840,-2.450,-0.770
876.323101,-0.013,0.100,1.048,0.840,-2.450,-0.700
876.330016,-0.015,0.098,1.047,0.770,-2.450,-0.770
876.338251,-0.016,0.098,1.050,1.120,-2.450,-0.770
876.347092,-0.014,0.098,1.048,1.120,-2.450,-0.770
876.358388,-0.013,0.099,1.050,1.330,-2.520,-0.840
876.365421,-0.015,0.099,1.048,1.540,-2.520,-0.840
876.374352,-0.016,0.100,1.051,1.260,-2.590,-0.840
876.378345,-0.017,0.101,1.051,0.980,-2.520,-0.770
876.387262,-0.014,0.101,1.054,1.050,-2.520,-0.770
876.402019,-0.017,0.100,1.052,0.910,-2.520,-0.840
876.405942,-0.014,0.100,1.050,0.280,-2.450,-0.910
876.412157,-0.014,0.099,1.050,0.280,-2.450,-0.840
876.421021,-0.015,0.098,1.048,0.560,-2.450,-0.770
876.428067,-0.015,0.099,1.050,0.350,-2.590,-0.910
876.435406,-0.015,0.098,1.050,0.700,-2.520,-0.840
876.443485,-0.014,0.100,1.050,0.980,-2.590,-0.770
876.452361,-0.015,0.101,1.050,0.910,-2.450,-0.770
876.456349,-0.016,0.098,1.050,1.050,-2.520,-0.630
876.465302,-0.013,0.099,1.051,1.190,-2.590,-0.770
876.478891,-0.013,0.100,1.048,1.470,-2.380,-0.770
876.482802,-0.015,0.101,1.049,1.050,-2.590,-0.770
876.491686,-0.014,0.100,1.052,1.260,-2.590,-0.700
876.500688,-0.014,0.098,1.052,1.470,-2.520,-0.770
876.507742,-0.012,0.100,1.051,1.260,-2.450,-0.770
876.519012,-0.014,0.098,1.053,1.330,-2.520,-0.700
876.526054,-0.014,0.100,1.052,1.050,-2.450,-0.770
876.535038,-0.016,0.099,1.051,0.980,-2.520,-0.770
876.539003,-0.016,0.100,1.049,0.560,-2.380,-0.840
876.545988,-0.014,0.100,1.053,0.210,-2.450,-0.840
876.553408,-0.015,0.100,1.053,0.210,-2.380,-0.840
876.561496,-0.012,0.099,1.048,0.350,-2.380,-0.840
876.569475,-0.015,0.100,1.049,0.280,-2.450,-0.840
876.57545,-0.015,0.098,1.051,0.350,-2.450,-0.770
876.584345,-0.014,0.098,1.047,0.420,-2.450,-0.770
876.591803,-0.016,0.099,1.049,0.350,-2.380,-0.840
876.600707,-0.016,0.098,1.050,0.280,-2.380,-0.840
876.6097,-0.015,0.097,1.049,0.560,-2.310,-0.840
876.613677,-0.017,0.100,1.048,0.630,-2.520,-0.770
876.622603,-0.017,0.098,1.047,0.910,-2.520,-0.770
876.634064,-0.013,0.101,1.049,1.400,-2.520,-0.770
876.640402,-0.014,0.101,1.048,1.190,-2.590,-0.770
876.649365,-0.015,0.100,1.049,1.120,-2.590,-0.770
876.658332,-0.015,0.099,1.049,1.050,-2.520,-0.770
876.663364,-0.014,0.097,1.050,1.330,-2.660,-0.770
876.670782,-0.016,0.098,1.049,1.260,-2.590,-0.700
876.679739,-0.015,0.101,1.053,1.120,-2.520,-0.840
876.687785,-0.014,0.099,1.051,0.700,-2.450,-0.770
876.691702,-0.013,0.100,1.051,0.840,-2.450,-0.700
876.699971,-0.015,0.099,1.048,0.490,-2.380,-0.770
876.707387,-0.013,0.098,1.051,0.700,-2.520,-0.770
876.715403,-0.018,0.098,1.051,0.840,-2.380,-0.840
876.724367,-0.016,0.099,1.050,0.700,-2.520,-0.840
876.732545,-0.017,0.099,1.051,0.630,-2.450,-0.840
876.740551,-0.014,0.100,1.049,0.490,-2.520,-0.840
876.747856,-0.013,0.099,1.049,0.700,-2.380,-0.840
876.756712,-0.014,0.099,1.048,0.770,-2.520,-0.770
876.760619,-0.015,0.099,1.050,0.700,-2.520,-0.910
876.767743,-0.015,0.098,1.052,0.980,-2.520,-0.770
876.776687,-0.017,0.099,1.048,0.980,-2.380,-0.840
876.78734,-0.016,0.101,1.047,0.910,-2.520,-0.770
876.796321,-0.015,0.098,1.048,1.260,-2.660,-0.770
876.801574,-0.015,0.099,1.048,1.400,-2.520,-0.910
876.810361,-0.012,0.097,1.048,1.820,-2.660,-0.770
876.819329,-0.013,0.099,1.049,1.750,-2.800,-0.770
876.830754,-0.013,0.098,1.050,1.960,-2.730,-0.700
876.837755,-0.014,0.100,1.052,1.750,-2.590,-0.770
876.844991,-0.014,0.099,1.052,1.680,-2.660,-0.840
876.848937,-0.014,0.103,1.052,1.190,-2.660,-0.910
876.85701,-0.016,0.102,1.055,0.910,-2.380,-0.840
876.864612,-0.014,0.100,1.053,0.560,-2.380,-0.840
876.872712,-0.015,0.101,1.053,0.210,-2.380,-0.840
876.877712,-0.013,0.101,1.054,-0.140,-2.380,-0.700
876.886621,-0.014,0.100,1.054,-0.070,-2.380,-0.840
876.895457,-0.016,0.100,1.047,-0.210,-2.310,-0.770
876.906062,-0.015,0.098,1.047,-0.140,-2.310,-0.840
876.914971,-0.015,0.100,1.047,17.850,-2.310,-0.770
876.923254,-0.017,0.096,1.049,0.140,-2.240,-0.840
876.927171,-0.018,0.099,1.047,0.350,-2.380,-0.840
876.93511,-0.017,0.100,1.048,0.560,-2.450,-0.840
876.942616,-0.015,0.097,1.048,0.770,-2.380,-0.770
876.951691,-0.013,0.099,1.050,0.910,-2.520,-0.770
876.958701,-0.013,0.098,1.050,1.050,-2.590,-0.840
876.967615,-0.015,0.098,1.051,1.120,-2.660,-0.770
876.97645,-0.013,0.097,1.048,1.330,-2.450,-0.770
876.987746,-0.011,0.098,1.050,1.190,-2.520,-0.840
876.995831,-0.017,0.100,1.050,1.260,-2.590,-0.770
877.003772,-0.014,0.100,1.053,1.400,-2.450,-0.840
877.007741,-0.016,0.097,1.052,1.120,-2.520,-0.770
877.016655,-0.016,0.100,1.051,0.840,-2.590,-0.840
877.0281,-0.015,0.100,1.050,0.910,-2.450,-0.840
877.035029,-0.014,0.100,1.052,0.700,-2.380,-0.840
877.043227,-0.014,0.099,1.050,0.630,-2.380,-0.770
877.052073,-0.015,0.100,1.052,0.560,-2.520,-0.840
877.061027,-0.013,0.101,1.051,0.350,-2.380,-0.700
877.071497,-0.014,0.100,1.051,0.210,-2.380,-0.770
877.078418,-0.016,0.098,1.051,0.140,-2.380,-0.840
877.082368,-0.015,0.097,1.050,0.350,-2.310,-0.770
877.089598,-0.016,0.098,1.049,0.280,-2.310,-0.630
877.098702,-0.014,0.098,1.048,0.280,-2.310,-0.770
877.10998,-0.014,0.095,1.046,0.700,-2.380,-0.770
877.116057,-0.011,0.099,1.047,0.910,-2.450,-0.840
877.125012,-0.014,0.099,1.049,0.910,-2.520,-0.770
877.130224,-0.014,0.097,1.048,0.910,-2.590,-0.910
877.139061,-0.014,0.097,1.049,1.330,-2.590,-0.840
877.150343,-0.016,0.099,1.050,1.190,-2.660,-0.770
877.158208,-0.016,0.099,1.052,1.260,-2.590,-0.840
877.162144,-0.018,0.099,1.051,1.050,-2.520,-0.840
877.171032,-0.017,0.100,1.052,0.910,-2.520,-0.770
877.176049,-0.016,0.100,1.052,0.980,-2.590,-0.770
877.187363,-0.016,0.096,1.049,0.700,-2.520,-0.840
877.19628,-0.013,0.097,1.049,0.840,-2.450,-0.770
877.20321,-0.015,0.098,1.049,0.560,-2.590,-0.840
877.212053,-0.017,0.100,1.049,0.560,-2.520,-0.770
877.21602,-0.015,0.099,1.049,0.700,-2.520,-0.700
877.232351,-0.014,0.099,1.051,0.840,-2.450,-0.840
877.23634,-0.015,0.100,1.048,0.770,-2.450,-0.840
877.245284,-0.015,0.098,1.050,0.560,-2.380,-0.770
877.252507,-0.014,0.097,1.051,0.630,-2.450,-0.770
877.261345,-0.015,0.100,1.052,0.700,-2.450,-0.700
877.272685,-0.014,0.097,1.047,0.840,-2.380,-0.770
877.280774,-0.017,0.098,1.051,0.980,-2.520,-0.840
877.289699,-0.014,0.098,1.049,0.980,-2.520,-0.770
877.296919,-0.014,0.098,1.049,1.050,-2.590,-0.770
877.300866,-0.014,0.096,1.050,1.050,-2.520,-0.700
877.312476,-0.015,0.097,1.050,1.120,-2.450,-0.910
877.316372,-0.014,0.098,1.048,0.910,-2.520,-0.700
877.325343,-0.016,0.098,1.049,0.770,-2.520,-0.770
877.33428,-0.014,0.097,1.054,0.770,-2.450,-0.840
877.341196,-0.013,0.098,1.052,0.770,-2.450,-0.770
877.348501,-0.015,0.098,1.048,0.490,-2.380,-0.770
877.357357,-0.013,0.099,1.050,0.630,-2.450,-0.770
877.364379,-0.015,0.098,1.049,0.630,-2.380,-0.840
877.36839,-0.014,0.098,1.051,0.560,-2.310,-0.700
877.377332,-0.016,0.099,1.052,0.490,-2.450,-0.770
877.393801,-0.015,0.098,1.049,0.560,-2.450,-0.840
877.397751,-0.014,0.095,1.050,0.560,-2.310,-0.840
877.404877,-0.016,0.099,1.049,0.770,-2.450,-0.700
877.413762,-0.016,0.097,1.049,0.630,-2.450,-0.770
877.421784,-0.014,0.096,1.049,0.700,-2.450,-0.840
877.429145,-0.015,0.099,1.048,0.840,-2.450,-0.840
877.438086,-0.015,0.098,1.050,0.910,-2.380,-0.770
877.445319,-0.016,0.098,1.050,0.770,-2.520,-0.770
877.44932,-0.015,0.096,1.052,0.910,-2.380,-0.700
877.45836,-0.014,0.098,1.049,0.630,-2.310,-0.770
877.473788,-0.013,0.097,1.049,0.840,-2.380,-0.840
877.477688,-0.014,0.098,1.049,0.980,-2.450,-0.910
877.485711,-0.014,0.097,1.048,1.120,-2.520,-0.840
877.49172,-0.015,0.098,1.050,1.190,-2.520,-0.630
877.500681,-0.013,0.100,1.049,1.260,-2.590,-0.770
877.512013,-0.014,0.096,1.051,1.260,-2.520,-0.700
877.521009,-0.013,0.099,1.052,1.050,-2.590,-0.770
877.529788,-0.013,0.100,1.049,1.050,-2.520,-0.840
877.533733,-0.015,0.099,1.051,1.120,-2.450,-0.840
877.542673,-0.015,0.097,1.048,0.910,-2.450,-0.770
877.554039,-0.014,0.095,1.047,1.190,-2.520,-0.770
877.562919,-0.013,0.098,1.049,1.120,-2.520,-0.770
877.570968,-0.013,0.097,1.050,1.330,-2.520,-0.770
877.579972,-0.016,0.098,1.050,1.190,-2.590,-0.700
877.586884,-0.013,0.098,1.051,1.190,-2.450,-0.700
877.598089,-0.014,0.096,1.051,1.400,-2.590,-0.770
877.607004,-0.013,0.099,1.049,1.330,-2.590,-0.840
877.611014,-0.014,0.099,1.052,1.050,-2.520,-0.980
877.619134,-0.016,0.100,1.053,0.770,-2.520,-0.770
877.627132,-0.014,0.098,1.052,0.560,-2.310,-0.700
877.634402,-0.015,0.101,1.051,0.210,-2.310,-0.840
877.643321,-0.016,0.099,1.049,0.140,-2.310,-0.840
877.650377,-0.016,0.097,1.050,0.140,-2.310,-0.700
877.659317,-0.015,0.096,1.051,0.210,-2.310,-0.840
877.663281,-0.014,0.099,1.047,0.280,-2.450,-0.770
877.677795,-0.012,0.097,1.050,0.700,-2.520,-0.770
877.684003,-0.016,0.096,1.049,0.840,-2.450,-0.770
877.687969,-0.014,0.096,1.048,0.840,-2.520,-0.980
877.696917,-0.013,0.097,1.049,1.190,-2.380,-0.700
877.704812,-0.013,0.097,1.049,1.260,-2.450,-0.910
877.712147,-0.012,0.097,1.047,1.540,-2.520,-0.770
877.719111,-0.014,0.098,1.049,1.610,-2.520,-0.840
877.728088,-0.016,0.098,1.048,1.470,-2.590,-0.840
877.737019,-0.015,0.101,1.048,1.680,-2.590,-0.840
877.741005,-0.015,0.099,1.049,1.400,-2.520,-0.770
877.75737,-0.016,0.098,1.050,1.540,-2.520,-0.840
877.761336,-0.014,0.101,1.050,1.330,-2.450,-0.910
877.77025,-0.013,0.099,1.051,1.190,-2.520,-0.840
877.776316,-0.015,0.101,1.049,1.190,-2.520,-0.770
877.78507,-0.016,0.098,1.051,1.260,-2.450,-0.700
877.792525,-0.016,0.101,1.052,1.050,-2.450,-0.770
877.801352,-0.013,0.099,1.052,0.840,-2.450,-0.700
877.807451,-0.015,0.099,1.050,0.910,-2.520,-0.770
877.811346,-0.015,0.097,1.051,0.700,-2.520,-0.840
877.82033,-0.016,0.099,1.051,0.770,-2.590,-0.770
877.832794,-0.013,0.098,1.052,0.630,-2.380,-0.840
877.836789,-0.015,0.097,1.049,0.700,-2.310,-0.770
877.844731,-0.016,0.099,1.050,0.770,-2.450,-0.770
877.853005,-0.015,0.099,1.045,0.770,-2.520,-0.910
877.861067,-0.016,0.096,1.046,0.770,-2.660,-0.840
877.868568,-0.016,0.097,1.046,1.400,-2.590,-0.700
877.877374,-0.014,0.096,1.049,1.330,-2.660,-0.770
877.886335,-0.013,0.097,1.049,1.190,-2.660,-0.910
877.890312,-0.013,0.096,1.048,1.680,-2.590,-0.700
877.898394,-0.016,0.098,1.050,1.890,-2.660,-0.770
877.910798,-0.014,0.102,1.051,1.750,-2.730,-0.840
877.914715,-0.017,0.099,1.052,1.680,-2.660,-0.840
877.923739,-0.014,0.098,1.055,1.540,-2.450,-0.770
877.932605,-0.013,0.100,1.053,1.330,-2.450,-0.840
877.940524,-0.015,0.102,1.050,0.910,-2.380,-0.770
877.947861,-0.017,0.099,1.051,0.630,-2.730,-0.700
877.954867,-0.009,0.100,1.051,0.490,-2.240,-0.770
877.963806,-0.014,0.101,1.052,0.490,-2.450,-0.770
877.967748,-0.014,0.098,1.051,0.840,-2.240,-0.770
877.976669,-0.016,0.099,1.052,0.700,-2.590,-0.840
877.988075,-0.015,0.100,1.052,0.490,-1.960,-0.910
877.996957,-0.019,0.096,1.047,0.840,-2.380,-0.770
878.0052,-0.015,0.098,1.049,0.350,-2.590,-0.770
878.014071,-0.016,0.098,1.051,0.350,-1.960,-0.770
878.023023,-0.017,0.099,1.049,0.840,-2.310,-0.770
878.03433,-0.014,0.100,1.048,0.490,-2.590,-0.910
878.04329,-0.018,0.099,1.050,0.560,-2.450,-0.840
878.047321,-0.012,0.100,1.049,1.120,-2.170,-0.700
878.054337,-0.015,0.098,1.048,1.120,-2.590,-0.840
878.062603,-0.012,0.098,1.050,1.260,-2.520,-0.770
878.070045,-0.013,0.100,1.052,0.980,-2.520,-0.840
878.077039,-0.013,0.100,1.049,0.910,-2.310,-0.840
878.086005,-0.017,0.095,1.050,0.770,-2.450,-0.770
878.094955,-0.015,0.098,1.050,0.910,-2.450,-0.840
878.101869,-0.015,0.098,1.051,0.910,-2.380,-0.840
878.109494,-0.015,0.101,1.047,0.700,-2.240,-0.770
878.118382,-0.015,0.101,1.050,0.560,-2.520,-0.770
878.12232,-0.013,0.099,1.050,0.980,-2.310,-0.840
878.130485,-0.017,0.098,1.050,0.980,-2.520,-0.700
878.13751,-0.015,0.096,1.051,1.260,-2.240,-0.910
878.14886,-0.013,0.101,1.050,0.910,-2.520,-0.770
878.155004,-0.012,0.099,1.051,0.770,-2.170,-0.910
878.164039,-0.015,0.098,1.053,1.120,-1.890,-0.840
878.172953,-0.018,0.098,1.051,0.770,-2.800,-0.770
878.179903,-0.016,0.097,1.048,0.980,-2.660,-0.770
878.187204,-0.017,0.101,1.053,0.280,-2.660,-0.910
878.195211,-0.013,0.096,1.052,0.490,-2.660,-0.700
878.199104,-0.016,0.098,1.047,0.420,-2.450,-0.910
878.208097,-0.017,0.095,1.052,0.420,-2.170,-0.840
878.216994,-0.007,0.094,1.049,0.980,-2.940,-0.840
878.228324,-0.012,0.102,1.045,1.330,-2.660,-0.910
878.235335,-0.018,0.102,1.051,1.050,-2.660,-0.840
878.241663,-0.011,0.097,1.050,1.820,-2.310,-0.910
878.250674,-0.016,0.099,1.050,1.400,-2.940,-0.840
878.25776,-0.015,0.098,1.051,1.470,-2.520,-0.770
878.265091,-0.013,0.099,1.048,1.750,-2.730,-0.770
878.27221,-0.014,0.098,1.050,1.960,-2.590,-0.630
878.276096,-0.017,0.099,1.052,1.750,-2.800,-0.630
878.283116,-0.015,0.099,1.051,1.610,-2.660,-0.700
878.292009,-0.014,0.100,1.054,1.260,-2.730,-0.910
878.303325,-0.019,0.099,1.047,1.400,-2.800,-0.770
878.310351,-0.014,0.100,1.046,1.330,-2.590,-0.770
878.31667,-0.014,0.098,1.050,1.260,-2.660,-0.770
878.325676,-0.012,0.095,1.050,1.680,-2.590,-0.700
878.332771,-0.015,0.098,1.049,2.100,-2.660,-0.910
878.34011,-0.014,0.100,1.051,1.820,-2.730,-0.910
878.349043,-0.011,0.099,1.051,1.890,-2.590,-0.910
878.353001,-0.015,0.099,1.052,2.100,-2.800,-0.770
878.360033,-0.015,0.103,1.051,1.750,-2.590,-0.770
878.368963,-0.016,0.101,1.053,1.330,-2.660,-0.770
878.380315,-0.015,0.101,1.053,0.980,-2.590,-0.700
878.388385,-0.015,0.100,1.050,0.560,-2.520,-0.770
878.393386,-0.014,0.100,1.052,0.490,-2.450,-0.840
878.402354,-0.014,0.100,1.051,0.490,-2.380,-0.630
878.406371,-0.015,0.099,1.051,0.490,-2.380,-0.770
878.42267,-0.014,0.101,1.051,0.350,-2.310,-0.770
878.430758,-0.012,0.101,1.044,0.420,-2.170,-0.770
878.434705,-0.014,0.097,1.049,17.710,-2.590,-0.840
878.443667,-0.011,0.097,1.050,1.820,-2.660,-0.700
878.451773,-0.014,0.100,1.047,1.260,-2.380,-0.840
878.45915,-0.014,0.101,1.048,1.120,-2.590,-0.840
878.468004,-0.013,0.100,1.047,1.680,-2.030,-0.700
878.476052,-0.021,0.107,1.044,0.280,-2.870,-0.700
878.485035,-0.011,0.097,1.055,0.700,-2.380,-0.770
878.488967,-0.017,0.096,1.051,2.310,-2.730,-0.700
878.504404,-0.013,0.103,1.048,0.980,-2.380,-0.840
878.508362,-0.014,0.096,1.049,1.750,-2.520,-0.700
878.517306,-0.016,0.100,1.052,1.470,-2.450,-0.910
878.526285,-0.014,0.100,1.048,1.680,-2.240,-0.840
878.53317,-0.018,0.100,1.049,1.470,-2.590,-0.840
878.544373,-0.014,0.101,1.052,1.400,-2.240,-0.770
878.552392,-0.019,0.104,1.054,0.420,-2.590,-0.840
878.561318,-0.014,0.099,1.050,0.770,-2.450,-0.770
878.56531,-0.015,0.102,1.052,0.700,-2.800,-0.770
878.573364,-0.013,0.097,1.050,0.630,-2.100,-0.910
878.5828,-0.018,0.102,1.047,0.910,-2.660,-0.770
878.586789,-0.013,0.103,1.051,0.560,-2.380,-0.770
878.595674,-0.014,0.098,1.049,0.630,-2.520,-0.840
878.604595,-0.013,0.096,1.051,0.770,-2.170,-0.840
878.613435,-0.015,0.101,1.045,0.490,-2.310,-0.840
878.624725,-0.016,0.098,1.047,1.120,-2.660,-0.770
878.633668,-0.013,0.100,1.048,1.120,-2.520,-0.980
878.642648,-0.013,0.100,1.047,1.120,-2.450,-0.840
878.646667,-0.017,0.099,1.048,1.540,-2.520,-0.910
878.654833,-0.014,0.100,1.048,1.890,-2.730,-0.770
878.666121,-0.012,0.101,1.049,2.030,-2.590,-0.700
878.675034,-0.014,0.105,1.054,1.610,-2.590,-0.770
878.683963,-0.015,0.104,1.056,0.700,-2.520,-0.770
878.690807,-0.017,0.100,1.051,0.840,-2.520,-0.700
878.699683,-0.015,0.102,1.054,0.560,-2.380,-0.770
878.707286,-0.015,0.100,1.051,0.560,-2.450,-0.840
878.716286,-0.014,0.100,1.051,0.350,-2.380,-0.840
878.720399,-0.014,0.101,1.052,0.350,-2.170,-0.840
878.729311,-0.015,0.099,1.049,0.700,-2.170,-0.770
878.736663,-0.015,0.102,1.049,0.420,-2.380,-0.910
878.744073,-0.013,0.101,1.049,0.210,-1.960,-0.770
878.753035,-0.017,0.101,1.049,0.490,-2.100,-0.840
878.761059,-0.016,0.100,1.051,0.210,-2.100,-0.840
878.769967,-0.014,0.102,1.047,0.140,-1.890,-0.910
878.777931,-0.014,0.100,1.051,0.350,-1.820,-1.050
878.78528,-0.014,0.102,1.051,0.070,-1.890,-0.840
878.79409,-0.014,0.100,1.048,0.280,-1.890,-0.910
878.79804,-0.015,0.101,1.052,0.140,-1.820,-0.910
878.806928,-0.014,0.101,1.050,0.070,-1.820,-0.910
878.815701,-0.015,0.100,1.050,-0.070,-1.820,-0.840
878.82701,-0.016,0.099,1.050,0.000,-1.680,-0.910
878.834028,-0.014,0.100,1.053,0.000,-1.610,-0.910
878.842962,-0.020,0.104,1.066,-2.100,-2.240,-0.910
878.851799,-0.015,0.087,1.041,-0.420,-1.610,-0.770
878.855709,-0.017,0.106,1.053,-0.420,-1.960,-0.840
878.872,-0.016,0.093,1.051,-1.820,-0.910,-0.840
878.875923,-0.019,0.098,1.033,-0.070,-2.100,-0.770
878.884866,-0.013,0.104,1.064,-2.590,-1.540,-0.980
878.893703,-0.014,0.093,1.059,-0.980,-0.980,-0.910
878.900747,-0.019,0.096,1.044,-0.350,-1.820,-0.840
878.908102,-0.016,0.102,1.055,-1.610,-1.680,-0.980
878.91697,-0.015,0.097,1.057,-2.170,-1.120,-1.120
878.925774,-0.016,0.094,1.050,-1.190,-1.400,-0.910
878.929705,-0.020,0.096,1.045,-0.140,-1.960,-0.910
878.938631,-0.019,0.096,1.055,-1.750,-1.330,-1.050
878.949946,-0.021,0.097,1.051,-0.630,-1.750,-0.910
878.958927,-0.018,0.096,1.042,-2.170,-1.540,-0.980
878.966945,-0.015,0.092,1.047,-1.750,-1.820,-0.980
878.975953,-0.021,0.093,1.059,-2.100,-1.610,-1.120
878.984794,-0.015,0.093,1.047,-1.400,-1.470,-1.120
878.99214,-0.017,0.095,1.051,-1.820,-1.680,-1.120
879.001044,-0.018,0.093,1.050,-1.680,-1.680,-1.120
879.005089,-0.019,0.092,1.051,-1.470,-1.820,-1.050
879.013092,-0.018,0.094,1.049,-1.680,-1.960,-1.120
879.021348,-0.018,0.093,1.049,-1.330,-2.170,-1.120
879.028841,-0.014,0.091,1.052,-1.050,-1.820,-1.050
879.037673,-0.018,0.092,1.051,-1.260,-2.170,-1.120
879.046634,-0.020,0.090,1.048,-0.980,-2.240,-0.980
879.055443,-0.018,0.090,1.052,-1.050,-2.380,-1.050
879.05936,-0.017,0.090,1.046,-0.980,-2.310,-1.050
879.075693,-0.016,0.090,1.048,-0.630,-2.100,-1.120
879.082765,-0.016,0.088,1.050,-0.630,-2.240,-0.980
879.086679,-0.022,0.084,1.047,-0.070,-3.010,-0.770
879.095664,-0.022,0.087,1.048,1.050,-2.940,-0.840
879.103857,-0.014,0.089,1.050,0.980,-2.870,-0.980
879.114229,-0.019,0.089,1.050,1.050,-2.940,-0.700
879.123044,-0.021,0.090,1.046,1.260,-3.430,-0.770
879.13105,-0.021,0.091,1.049,1.050,-3.150,-0.770
879.139791,-0.018,0.089,1.048,0.980,-3.290,-0.490
879.143708,-0.020,0.093,1.058,1.470,-3.430,-0.700
879.160018,-0.019,0.084,1.037,1.820,-3.500,-0.770
879.163941,-0.018,0.094,1.063,0.770,-3.850,-0.700
879.172031,-0.015,0.088,1.044,1.540,-3.010,-0.630
879.180997,-0.019,0.091,1.059,1.190,-4.060,-0.770
879.189945,-0.017,0.092,1.056,0.910,-3.430,-0.700
879.201376,-0.018,0.091,1.051,1.400,-3.850,-0.910
879.208387,-0.017,0.096,1.053,0.630,-3.430,-0.840
879.217308,-0.019,0.094,1.057,0.140,-3.500,-0.840
879.221296,-0.016,0.086,1.046,0.490,-3.710,-0.910
879.230297,-0.015,0.088,1.046,2.450,-3.640,-0.910
879.246671,-0.016,0.092,1.052,0.910,-3.360,-1.050
879.250667,-0.018,0.086,1.045,1.540,-3.360,-1.120
879.259661,-0.017,0.089,1.052,2.100,-3.570,-1.260
879.268587,-0.015,0.090,1.052,2.310,-3.010,-1.190
879.277425,-0.018,0.092,1.051,2.170,-3.080,-1.330
879.288729,-0.013,0.091,1.055,0.000,-2.590,-1.330
879.297659,-0.014,0.094,1.063,-0.210,-2.030,-1.540
879.306668,-0.016,0.090,1.057,-1.890,-2.170,-1.680
879.310663,-0.014,0.093,1.059,-2.450,-1.890,-1.960
879.319676,-0.017,0.094,1.064,-4.760,-1.260,-1.960
879.327297,-0.013,0.093,1.064,-6.440,-0.420,-2.240
879.334415,-0.013,0.093,1.065,-7.560,-0.140,-2.240
879.34335,-0.012,0.094,1.071,-10.570,0.420,-2.520
879.352306,-0.014,0.095,1.068,-13.580,0.840,-2.800
879.359386,-0.013,0.091,1.065,-14.980,1.540,-2.940
879.366776,-0.015,0.089,1.062,-17.430,2.380,-2.730
879.375682,-0.018,0.087,1.065,-18.900,2.660,-3.150
879.381781,-0.017,0.085,1.068,-21.490,3.080,-3.150
879.385689,-0.015,0.081,1.062,-24.080,3.360,-3.430
879.394661,-0.016,0.073,1.059,-26.320,3.710,-3.710
879.402309,-0.014,0.068,1.063,-28.210,3.640,-3.430
879.411329,-0.020,0.065,1.059,-29.050,4.130,-3.920
879.420263,-0.024,0.062,1.061,-30.660,3.430,-4.410
879.428336,-0.024,0.060,1.057,-32.550,2.940,-4.340
879.437317,-0.018,0.052,1.053,-35.140,3.010,-3.850
879.448726,-0.024,0.031,1.050,-31.710,3.220,-3.430
879.457666,-0.031,0.028,1.056,-31.290,3.780,-2.940
879.466673,-0.033,0.029,1.044,-30.100,3.360,-3.010
879.470673,-0.033,0.020,1.037,-29.330,2.590,-2.030
879.479657,-0.031,0.010,1.045,-26.110,1.680,0.280
879.487319,-0.028,0.008,1.047,-20.930,2.590,1.260
879.496303,-0.013,0.010,1.037,-15.330,2.450,4.410
879.505305,-0.010,0.014,1.049,-14.910,4.970,5.040
879.514308,-0.033,0.023,1.052,-17.220,2.800,4.900
879.523313,-0.041,0.011,1.043,-15.470,1.680,4.270
879.531805,-0.032,0.003,1.048,-13.370,2.030,4.340
879.540689,-0.035,-0.000,1.043,-12.740,2.590,3.290
879.546786,-0.047,0.004,1.042,-9.380,1.470,3.220
879.550692,-0.047,0.012,1.048,-8.540,-0.280,3.220
879.559673,-0.042,0.010,1.039,-9.100,-0.980,2.660
879.567267,-0.035,0.007,1.054,-8.540,-1.470,2.240
879.576011,-0.033,-0.001,1.045,-7.630,-0.420,2.170
879.584959,-0.040,-0.005,1.032,-4.690,-1.680,1.540
879.593793,-0.039,-0.005,1.035,-4.340,-1.820,1.540
879.602664,-0.041,-0.001,1.051,-1.540,-1.890,1.470
879.614326,-0.041,-0.003,1.036,2.170,-3.570,0.560
879.623306,-0.043,-0.007,1.039,3.920,-3.850,-0.070
879.627289,-0.042,-0.009,1.040,7.630,-5.110,0.000
879.63631,-0.042,-0.003,1.046,9.310,-6.020,-0.420
879.645264,-0.039,-0.003,1.039,10.990,-6.510,-0.980
879.653022,-0.039,-0.001,1.046,12.600,-7.280,-1.540
879.661902,-0.034,0.001,1.049,13.930,-7.140,-1.540
879.668943,-0.034,0.004,1.047,13.790,-7.560,-1.820
879.677943,-0.038,0.003,1.048,14.490,-7.840,-2.240
879.684859,-0.029,0.003,1.045,15.750,-6.300,-2.240
879.6922,-0.043,0.010,1.052,17.080,-8.470,-2.380
879.701055,-0.036,0.012,1.058,16.800,-8.750,-2.590
879.704989,-0.026,0.017,1.048,15.610,-6.160,-2.380
879.7139,-0.031,0.015,1.060,16.030,-7.350,-2.590
879.722772,-0.033,0.017,1.056,15.610,-6.860,-2.800
879.734016,-0.028,0.026,1.068,13.160,-5.950,-2.870
879.742945,-0.026,0.026,1.064,11.480,-5.320,-2.800
879.750008,-0.028,0.030,1.066,10.430,-4.830,-2.940
879.759008,-0.027,0.032,1.075,8.050,-4.410,-2.800
879.762994,-0.023,0.031,1.064,5.950,-3.570,-2.730
879.779436,-0.028,0.034,1.067,2.520,-3.080,-2.590
879.783425,-0.020,0.029,1.071,0.140,-2.100,-2.590
879.792304,-0.023,0.030,1.064,-1.260,-1.330,-2.520
879.800363,-0.022,0.032,1.065,-3.570,-1.400,-2.520
879.807369,-0.022,0.033,1.065,-4.690,-0.700,-2.170
879.814772,-0.023,0.029,1.060,-5.390,-0.350,-2.100
879.823661,-0.024,0.027,1.059,-6.300,0.140,-2.100
879.8309,-0.032,0.025,1.056,-7.070,-0.490,-2.100
879.839769,-0.031,0.022,1.057,-6.720,-0.280,-2.100
879.843698,-0.032,0.021,1.052,-6.510,0.000,-1.890
879.859793,-0.029,0.022,1.058,-6.580,-0.280,-1.820
879.863695,-0.033,0.017,1.051,-7.070,-0.070,-1.470
879.871693,-0.032,0.020,1.061,-6.790,-0.700,-1.470
879.87669,-0.030,0.024,1.068,-8.260,-0.560,-1.610
879.88566,-0.029,0.022,1.062,-8.470,-0.070,-1.330
879.893142,-0.032,0.021,1.062,-10.290,0.350,-1.400
879.902057,-0.024,0.018,1.057,-10.290,0.280,-0.560
879.911046,-0.020,0.013,1.057,-10.920,0.140,0.070
879.914993,-0.025,0.013,1.062,-9.870,1.400,-0.630
879.923943,-0.037,0.009,1.056,-11.550,17.570,0.070
879.935296,-0.031,0.006,1.051,-9.730,0.980,0.420
879.94427,-0.027,0.003,1.050,-8.470,1.260,0.630
879.952498,-0.026,0.002,1.047,-6.510,1.540,0.840
879.961336,-0.036,0.004,1.053,-6.300,0.070,0.910
879.970302,-0.031,0.002,1.046,-5.670,0.350,0.770
879.981693,-0.037,0.001,1.044,-2.170,-0.140,0.420
879.988509,-0.040,0.003,1.056,-2.940,-0.700,0.560
879.992416,-0.040,0.003,1.059,-3.150,-0.420,0.490
880.000481,-0.038,0.000,1.048,-3.710,-0.630,0.630
880.007436,-0.039,0.002,1.056,-3.850,-0.910,0.700
880.014956,-0.037,0.003,1.067,-4.550,-0.980,0.770
880.023907,-0.036,0.002,1.055,-5.390,-1.120,0.770
880.030784,-0.038,0.003,1.052,-6.020,-1.260,0.420
880.039685,-0.036,-0.001,1.054,-6.300,-1.610,0.700
880.048667,-0.034,-0.003,1.061,-7.280,-1.330,0.490
880.056267,-0.038,-0.005,1.055,-7.350,-1.750,0.420
880.065274,-0.038,-0.009,1.055,-8.190,-1.820,0.630
880.069296,-0.036,-0.008,1.056,-7.560,-1.260,0.490
880.076326,-0.037,-0.008,1.053,-7.420,-2.030,0.490
880.085307,-0.036,-0.004,1.047,-7.490,-2.030,0.280
880.092898,-0.038,-0.010,1.042,-6.720,-2.800,-0.140
880.101918,-0.038,-0.017,1.051,-5.180,-3.220,-0.210
880.108779,-0.037,-0.016,1.049,-4.690,-3.500,-0.490
880.116945,-0.038,-0.018,1.041,-3.850,-3.990,-0.700
880.125776,-0.037,-0.020,1.045,-3.290,-3.850,-0.700
880.137072,-0.036,-0.025,1.047,-1.680,-4.340,-1.120
880.145985,-0.041,-0.024,1.041,0.560,-4.270,-1.120
880.149907,-0.041,-0.021,1.040,1.960,-4.970,-1.120
880.156944,-0.044,-0.017,1.057,2.940,-5.600,-1.190
880.16594,-0.036,-0.017,1.044,3.990,-4.340,-1.260
880.177297,-0.041,-0.013,1.047,5.670,-5.740,-1.610
880.184326,-0.035,-0.013,1.046,6.300,-4.830,-1.610
880.193295,-0.037,-0.015,1.047,8.120,-5.600,-1.750
880.202032,-0.042,-0.011,1.044,8.260,-6.510,-2.170
880.206047,-0.037,-0.010,1.042,8.750,-6.930,-2.310
880.221587,-0.040,-0.009,1.051,10.220,-8.050,-3.360
880.228734,-0.036,-0.003,1.050,10.220,-9.030,-3.220
880.232659,-0.032,-0.004,1.053,10.920,-8.540,-3.640
880.241657,-0.029,0.000,1.059,11.270,-8.470,-3.360
880.250657,-0.031,0.001,1.060,10.500,-8.400,-3.150
880.261904,-0.021,0.003,1.066,9.030,-7.280,-2.520
880.268823,-0.020,0.004,1.063,7.840,-6.720,-2.380
880.275766,-0.018,0.006,1.070,7.350,-6.020,-2.170
880.284661,-0.020,0.008,1.068,5.670,-5.880,-2.170
880.288653,-0.020,0.008,1.068,2.730,-5.320,-1.960
880.304315,-0.025,0.002,1.058,2.240,-4.760,-1.680
880.308311,-0.025,0.001,1.057,2.660,-4.900,-1.610
880.317225,-0.022,0.004,1.057,2.450,-4.760,-1.330
880.325306,-0.022,0.004,1.057,1.750,-4.270,-1.400
880.334061,-0.020,0.000,1.057,1.610,-3.220,-1.330
880.342586,-0.021,-0.000,1.049,3.080,-3.290,-1.260
880.35157,-0.026,0.002,1.050,3.710,-3.430,-1.330
880.360426,-0.027,0.003,1.054,4.060,-3.150,-1.260
880.364344,-0.026,0.005,1.052,3.920,-3.360,-1.260
880.373295,-0.023,0.003,1.053,4.340,-3.430,-1.260
880.387742,-0.025,0.006,1.049,5.670,-3.780,-1.120
880.391666,-0.023,0.004,1.051,6.160,-3.990,-1.120
880.400668,-0.022,0.006,1.056,6.020,-3.850,-1.120
880.408687,-0.020,0.004,1.057,6.230,-3.290,-1.330
880.416906,-0.021,0.005,1.057,6.440,-3.360,-1.190
880.424383,-0.019,0.009,1.056,6.090,-3.430,-1.260
880.433307,-0.020,0.008,1.057,5.530,-3.430,-1.330
880.442294,-0.021,0.009,1.055,5.600,-3.360,-1.330
880.446338,-0.018,0.007,1.053,5.810,-3.150,-1.260
880.455224,-0.030,0.006,1.043,7.210,-3.290,-1.260
880.466576,-0.026,0.003,1.038,9.800,-4.830,-1.260
880.47553,-0.026,0.003,1.037,12.110,-5.950,-1.050
880.484334,-0.025,0.003,1.048,14.140,-6.510,-0.700
880.493297,-0.022,0.009,1.049,17.010,-7.000,-0.560
880.502256,-0.020,0.018,1.056,16.940,-7.280,-0.070
880.509922,-0.013,0.031,1.069,13.510,-5.810,-0.350
880.518929,-0.016,0.033,1.066,11.690,-5.880,-0.560
880.525856,-0.024,0.026,1.054,9.240,-6.020,-0.560
880.529762,-0.022,0.025,1.052,9.520,-6.090,-0.770
880.538652,-0.019,0.022,1.058,10.080,-6.440,-0.840
880.550055,-0.030,0.027,1.050,10.360,-6.230,-1.400
880.556983,-0.029,0.030,1.041,11.060,-7.700,-1.470
880.565689,-0.025,0.027,1.039,13.090,-8.470,-1.540
880.574663,-0.018,0.026,1.041,13.650,-8.890,-1.680
880.583648,-0.016,0.029,1.042,16.170,-9.240,-1.540
880.594934,-0.013,0.033,1.045,17.570,-10.080,-1.820
880.601841,-0.008,0.036,1.047,19.810,-10.430,-1.750
880.605737,-0.002,0.040,1.061,19.600,-10.780,-1.400
880.614593,0.001,0.045,1.064,18.060,-9.450,-1.610
880.623602,-0.002,0.045,1.063,16.870,-9.380,-1.330
880.631197,-0.010,0.046,1.049,18.550,-9.660,-1.190
880.64005,-0.005,0.050,1.050,18.900,-9.660,-1.260
880.648952,-0.008,0.056,1.054,18.970,-9.520,-1.190
880.65705,-0.006,0.061,1.055,18.340,-7.980,-1.190
880.660996,0.002,0.062,1.057,16.450,-10.360,-0.770
880.670488,0.015,0.065,1.068,15.260,-9.450,-0.280
880.674385,0.018,0.069,1.075,11.970,-7.490,-0.210
880.683311,0.011,0.070,1.082,9.380,-5.180,-0.210
880.692211,0.010,0.073,1.078,3.500,-3.500,-0.070
880.701064,0.014,0.071,1.078,2.800,-2.660,-0.280
880.712296,0.014,0.088,1.091,-8.610,1.190,-0.770
880.71936,0.008,0.083,1.087,-13.370,3.780,-0.840
880.728308,0.003,0.074,1.072,-14.980,4.900,-0.770
880.732258,-0.002,0.059,1.053,-16.520,4.970,-0.910
880.741235,-0.001,0.044,1.035,-15.750,4.900,-0.840
880.754768,-0.006,0.035,1.030,-11.900,2.940,-0.840
880.758699,0.006,0.037,1.031,-7.350,2.310,-0.630
880.767654,0.005,0.044,1.036,-3.290,0.910,-0.630
880.776656,0.000,0.047,1.037,-0.840,0.140,-0.490
880.784719,-0.005,0.050,1.044,-0.840,-0.350,-0.700
880.792122,-0.010,0.049,1.059,0.070,0.700,-0.980
880.800985,-0.017,0.049,1.055,0.560,-1.260,-0.630
880.806861,-0.007,0.054,1.052,0.840,-1.120,-0.700
880.810765,-0.002,0.054,1.058,-1.050,0.420,-0.840
880.819655,-0.006,0.050,1.068,-3.290,0.490,-1.050
880.827257,-0.017,0.043,1.051,-1.330,0.490,-0.840
880.836093,-0.015,0.057,1.050,-1.400,0.490,-0.980
880.844996,-0.015,0.057,1.063,-5.180,0.630,-0.840
880.85325,-0.009,0.051,1.070,-5.670,0.910,-0.770
880.862258,-0.000,0.046,1.054,-4.830,1.330,-0.770
880.869755,-0.006,0.047,1.060,-6.440,1.400,-0.630
880.878662,-0.007,0.049,1.059,-6.230,1.750,-0.700
880.887622,-0.010,0.048,1.054,-6.790,2.310,-0.910
880.891572,-0.032,0.041,1.052,-8.190,2.520,-1.400
880.897431,-0.034,0.036,1.042,-6.440,1.260,-1.470
880.904967,-0.029,0.033,1.044,-4.620,0.770,-1.260
880.913903,-0.019,0.038,1.047,-4.900,0.490,-1.050
880.922793,-0.013,0.037,1.047,-3.570,-0.210,-1.050
880.931668,-0.015,0.034,1.046,-2.240,-1.890,-0.840
880.93978,-0.018,0.040,1.042,0.280,-2.380,-0.770
880.947192,-0.014,0.043,1.043,0.140,-2.800,-0.840
880.954157,-0.020,0.033,1.047,0.140,-2.730,-0.840
880.958116,-0.023,0.030,1.042,2.730,-3.640,-1.050
880.965064,-0.027,0.035,1.044,3.710,-3.500,-1.190
880.973996,-0.021,0.035,1.037,4.130,-4.200,-1.190
880.984463,-0.020,0.021,1.021,7.210,-5.460,-1.190
880.991437,-0.019,0.020,1.015,10.640,-6.720,-0.980
881.000332,-0.020,0.014,1.017,15.610,-8.960,-0.770
881.009274,-0.024,0.020,1.031,18.900,-9.310,-0.350
881.013285,-0.020,0.038,1.049,22.470,-10.220,-0.210
881.028765,-0.017,0.058,1.067,21.700,-9.520,-0.630
881.036761,-0.015,0.070,1.076,19.460,-8.680,-0.910
881.04067,-0.013,0.073,1.078,16.660,-7.840,-0.700
881.049578,-0.009,0.076,1.072,11.340,-7.280,-0.420
881.057673,-0.003,0.070,1.070,8.190,-6.160,-0.350
881.065148,-0.004,0.057,1.062,6.510,-6.370,-0.350
881.074004,-0.003,0.051,1.054,9.170,-5.950,0.210
881.082023,-0.008,0.057,1.051,10.710,-7.210,0.560
881.090988,-0.004,0.066,1.056,8.890,-7.210,0.630
881.094935,0.005,0.065,1.048,9.520,-7.560,0.420
881.110398,0.006,0.071,1.065,9.800,-6.090,0.140
881.114315,0.005,0.078,1.076,7.420,-5.320,0.210
881.123219,0.006,0.082,1.070,4.760,-4.830,0.210
881.130283,0.008,0.082,1.070,1.890,-4.410,0.000
881.139294,0.004,0.081,1.071,-17.850,-3.990,-0.070
881.150663,0.005,0.069,1.050,-2.800,-3.010,-0.280
881.157674,0.004,0.060,1.050,-2.870,-3.010,-0.070
881.166419,0.006,0.054,1.047,-1.750,-3.150,-0.070
881.170329,0.007,0.053,1.049,0.490,-3.010,-0.070
881.179209,0.008,0.062,1.052,1.680,-3.430,0.000
881.191665,0.008,0.065,1.053,0.840,-3.220,-0.210
881.19566,0.003,0.066,1.059,-0.700,-2.380,-0.420
881.204576,-0.001,0.065,1.053,0.070,-2.450,-0.560
881.213535,-0.004,0.066,1.051,-0.210,-2.170,-0.700
881.222434,-0.004,0.061,1.046,-0.840,-1.260,-0.910
881.230007,-0.005,0.054,1.041,1.260,-1.540,-0.980
881.238977,-0.001,0.053,1.037,1.890,-2.310,-1.050
881.247777,-0.001,0.056,1.037,3.640,-2.660,-0.910
881.251685,0.004,0.056,1.038,6.160,-3.080,-0.840
881.259932,0.002,0.058,1.044,7.700,-3.080,-0.630
881.267343,0.001,0.061,1.054,8.820,-3.430,-0.700
881.275338,-0.001,0.070,1.057,8.470,-2.940,-0.560
881.283326,-0.003,0.072,1.053,7.770,-2.520,-0.420
881.292293,-0.006,0.072,1.051,8.050,-3.220,-0.560
881.300414,-0.006,0.073,1.056,8.260,-3.010,-0.560
881.307742,-0.004,0.081,1.053,8.050,-3.080,-0.420
881.315781,-0.006,0.081,1.054,7.560,-3.570,-0.490
881.324662,-0.002,0.081,1.056,7.420,-3.780,-0.490
881.328645,0.006,0.088,1.066,7.140,-3.850,-0.490
881.337576,0.007,0.094,1.070,5.110,-3.430,-0.490
881.34813,0.005,0.093,1.068,1.400,-2.800,-0.490
881.355052,0.005,0.087,1.061,-0.070,-2.590,-0.560
881.363042,0.004,0.084,1.059,-0.840,-1.960,-0.420
881.37194,0.001,0.079,1.054,-0.980,-2.310,-0.420
881.38077,-0.001,0.073,1.047,-0.700,-2.310,-0.350
881.391987,0.000,0.073,1.043,0.210,-3.430,-0.280
881.399039,0.002,0.073,1.045,1.190,-3.500,-0.210
881.402968,0.004,0.077,1.053,1.610,-3.570,-0.210
881.411884,0.004,0.077,1.047,1.610,-3.430,-0.070
881.419778,0.004,0.077,1.047,1.960,-3.920,-0.140
881.427145,0.000,0.077,1.043,2.380,-3.920,-17.920
881.434138,-0.005,0.075,1.037,3.290,-4.340,-0.070
881.443061,-0.007,0.073,1.035,4.200,-5.040,-0.210
881.451967,-0.010,0.075,1.036,5.250,-5.390,-0.210
881.45594,-0.005,0.068,1.036,6.510,-6.160,-0.280
881.472304,0.001,0.068,1.038,10.150,-7.210,-0.140
881.47627,0.008,0.075,1.045,11.690,-7.420,0.000
881.48411,0.008,0.077,1.047,12.880,-7.630,0.070
881.492053,0.010,0.081,1.050,13.020,-7.770,-0.140
881.497025,0.011,0.084,1.050,12.740,-7.630,-0.140
881.504366,0.014,0.088,1.052,12.390,-7.140,-0.070
881.511426,0.013,0.089,1.053,12.180,-6.440,-0.070
881.52042,0.011,0.090,1.047,12.040,-6.580,-0.070
881.524375,0.006,0.093,1.048,11.970,-6.580,-0.350
881.532558,0.006,0.090,1.045,12.670,-6.790,-0.490
881.545018,0.008,0.088,1.042,14.700,-7.210,0.000
881.548932,0.010,0.095,1.051,15.960,-7.490,-0.350
881.557,0.011,0.099,1.058,15.750,-7.210,-0.140
881.565015,0.013,0.101,1.062,16.240,-6.020,-0.350
881.573928,0.013,0.101,1.066,16.030,-5.390,-1.260
881.585315,0.012,0.103,1.068,16.450,-7.980,-1.960
881.59428,0.015,0.114,1.067,11.760,-7.070,-1.680
881.602284,0.017,0.119,1.055,8.820,-6.300,-1.610
881.606288,0.009,0.107,1.049,6.930,-5.040,-1.680
881.6153,0.005,0.100,1.040,8.820,-7.070,-1.330
881.629789,0.006,0.110,1.055,7.980,-6.020,-1.540
881.633707,0.014,0.111,1.052,7.770,-6.860,-0.910
881.64169,0.014,0.109,1.053,7.000,-5.670,-0.980
881.650622,0.016,0.109,1.054,7.420,-6.300,-0.980
881.659398,0.017,0.107,1.048,7.210,-5.810,-1.120
881.670691,0.016,0.113,1.044,6.860,-5.530,-0.980
881.677733,0.014,0.121,1.046,6.020,-5.250,-0.980
881.686658,0.013,0.114,1.047,4.340,-5.250,-0.980
881.690642,0.015,0.112,1.041,4.970,-5.110,-0.840
881.699572,0.016,0.114,1.047,6.440,-5.110,-0.770
881.709099,0.016,0.120,1.054,4.480,-4.760,-0.700
881.716073,0.021,0.120,1.060,3.920,-3.850,-0.630
881.724996,0.018,0.122,1.051,3.150,-3.780,-0.560
881.732007,0.015,0.122,1.043,2.940,-3.920,-0.560
881.739073,0.019,0.120,1.047,2.940,-4.060,-0.700
881.746457,0.015,0.113,1.034,4.200,-4.200,-0.420
881.752665,0.016,0.115,1.025,5.810,-4.760,-0.490
881.756584,0.015,0.120,1.035,7.210,-5.460,-0.420
881.764656,0.019,0.121,1.048,7.490,-5.320,-0.350
881.769669,0.022,0.123,1.047,8.120,-5.460,-0.350
881.777072,0.022,0.124,1.045,9.520,-5.950,-0.210
881.786001,0.027,0.134,1.054,7.420,-4.550,-0.210
881.794934,0.025,0.130,1.054,6.160,-5.040,-0.350
881.803918,0.029,0.125,1.054,6.440,-4.480,-0.210
881.812774,0.022,0.124,1.039,7.490,-4.760,-0.280
881.824142,0.025,0.136,1.055,6.440,-4.130,-0.210
881.833028,0.022,0.134,1.038,5.040,-4.620,-0.210
881.836994,0.021,0.131,1.049,6.020,-4.690,-0.280
881.844168,0.025,0.133,1.055,5.950,-4.760,-0.070
881.852986,0.026,0.134,1.053,5.670,-4.760,-0.350
881.864296,0.029,0.134,1.049,3.920,-3.850,-0.350
881.871358,0.026,0.134,1.049,4.060,-3.990,-0.350
881.880288,0.027,0.134,1.049,3.920,-3.710,-0.350
881.889293,0.027,0.130,1.045,3.710,-3.640,-0.280
881.893286,0.025,0.131,1.037,5.530,-4.270,-0.280
881.909652,0.027,0.128,1.048,4.830,-3.850,-0.210
881.917885,0.028,0.137,1.042,7.280,-3.710,-0.210
881.921831,0.027,0.141,1.052,4.480,-3.360,-0.420
881.930639,0.028,0.135,1.048,4.690,-2.660,-0.420
881.938673,0.029,0.136,1.048,4.200,-2.100,-0.630
881.948077,0.025,0.140,1.057,2.450,-2.100,-0.700
881.956991,0.032,0.139,1.048,2.100,-1.470,-0.700
881.965916,0.027,0.135,1.045,1.820,-1.750,-0.910
881.974763,0.031,0.137,1.047,1.610,-1.680,-0.980
881.978655,0.031,0.135,1.052,1.120,-1.120,-0.980
881.993098,0.021,0.138,1.044,1.260,-1.400,-0.770
881.996999,0.026,0.140,1.050,0.630,-0.910,-0.770
882.00593,0.024,0.140,1.046,-0.210,-1.050,-0.840
882.014916,0.021,0.136,1.046,-0.070,-1.050,-0.910
882.023027,0.018,0.139,1.048,-0.140,-1.330,-0.910
882.030363,0.021,0.137,1.042,-0.070,-1.470,-0.770
882.038414,0.020,0.132,1.037,0.630,-2.170,-1.050
882.047286,0.023,0.135,1.043,0.560,-1.890,-0.770
882.051248,0.020,0.136,1.040,0.420,-2.240,-0.840
882.060233,0.023,0.134,1.041,1.260,-2.520,-0.840
882.07365,0.025,0.135,1.038,1.330,-2.940,-0.910
882.077641,0.022,0.132,1.037,2.100,-3.220,-0.840
882.086644,0.022,0.134,1.043,2.870,-3.780,-0.840
882.094696,0.025,0.134,1.046,3.360,-3.780,-0.910
882.099493,0.023,0.139,1.042,3.290,-3.710,-0.840
882.106826,0.020,0.136,1.039,3.360,-4.130,-0.980
882.113039,0.024,0.138,1.040,3.360,-3.990,-0.910
882.122029,0.022,0.141,1.045,3.360,-4.200,-0.980
882.125967,0.026,0.139,1.045,3.010,-3.990,-0.910
882.134927,0.020,0.139,1.043,3.360,-4.270,-0.840
882.144571,0.024,0.139,1.041,3.640,-4.340,-0.980
882.153527,0.026,0.140,1.039,3.920,-4.410,-0.840
882.162328,0.025,0.138,1.043,3.850,-4.690,-0.910
882.1713,0.030,0.142,1.046,3.850,-4.340,-0.700
882.180043,0.027,0.141,1.043,4.130,-4.620,-0.770
882.191304,0.030,0.143,1.045,3.430,-4.270,-0.630
882.199436,0.025,0.142,1.045,3.360,-4.620,-0.770
882.203365,0.030,0.143,1.051,3.360,-3.710,-0.700
882.211337,0.030,0.148,1.048,1.540,-3.640,-0.630
882.220281,0.026,0.143,1.047,2.660,-4.200,-0.560
882.231641,0.028,0.145,1.040,2.030,-3.990,-0.630
882.239673,0.028,0.146,1.046,1.050,-4.270,-0.630
882.248582,0.027,0.141,1.043,1.820,-3.360,-0.700
882.257449,0.025,0.139,1.037,2.450,-3.780,-0.560
882.261373,0.031,0.144,1.043,3.640,-4.480,-0.770
882.277668,0.022,0.145,1.043,1.750,-6.020,-0.560
882.284719,0.027,0.127,1.019,6.160,-4.760,-0.420
882.288638,0.035,0.156,1.053,5.110,-3.850,-0.420
882.297633,0.022,0.139,1.046,5.250,-4.690,-0.420
882.306644,0.035,0.142,1.045,5.600,-3.850,-0.420
882.317879,0.031,0.145,1.052,3.920,-3.500,-0.560
882.325,0.036,0.145,1.046,3.990,-3.570,-0.350
882.333982,0.034,0.151,1.044,3.710,-3.150,-0.420
882.34277,0.032,0.149,1.050,2.030,-3.220,-0.630
882.346687,0.033,0.145,1.041,2.170,-2.870,-0.560
882.358488,0.033,0.149,1.047,1.750,-2.870,-0.770
882.362423,0.033,0.149,1.047,1.750,-2.660,-0.490
882.368319,0.033,0.150,1.044,1.680,-2.940,-0.630
882.375297,0.034,0.150,1.047,0.980,-2.590,-0.560
882.384034,0.033,0.149,1.045,0.910,-2.310,-0.630
882.39528,0.030,0.148,1.044,0.980,-2.870,-0.630
882.404053,0.032,0.148,1.042,1.330,-2.730,-0.700
882.41029,0.030,0.148,1.039,1.750,-3.360,-0.700
882.41428,0.033,0.148,1.037,2.100,-2.870,-0.700
882.423307,0.029,0.147,1.045,1.400,-3.290,-0.700
882.43598,0.037,0.143,1.036,2.100,-2.870,-0.700
882.439989,0.034,0.145,1.044,2.310,-3.290,-0.700
882.4489,0.035,0.149,1.040,3.290,-3.360,-0.630
882.456987,0.031,0.151,1.041,2.030,-2.940,-0.700
882.465921,0.034,0.147,1.036,2.100,-3.920,-0.770
882.477247,0.028,0.149,1.050,3.920,-3.990,-0.630
882.485135,0.034,0.155,1.048,3.500,-3.360,-0.700
882.494031,0.031,0.153,1.045,3.150,-3.430,-0.770
882.497936,0.038,0.149,1.051,3.780,-3.500,-0.770
882.506879,0.036,0.155,1.046,2.240,-3.150,-0.770
882.518294,0.034,0.152,1.039,1.540,-2.940,-0.840
882.527284,0.035,0.153,1.046,1.820,-3.010,-0.770
882.535472,0.037,0.156,1.049,0.280,-2.800,-0.770
882.544302,0.033,0.151,1.048,1.330,-2.800,-0.770
882.552372,0.032,0.158,1.041,0.280,-2.730,-0.840
882.561793,0.039,0.154,1.042,0.000,-2.520,-0.700
882.570659,0.029,0.146,1.035,0.910,-3.150,-0.700
882.57889,0.037,0.153,1.041,0.070,-2.730,-0.770
882.582836,0.036,0.154,1.043,-0.070,-2.100,-0.700
882.590726,0.035,0.148,1.037,0.560,-3.220,-0.770
882.598163,0.034,0.149,1.038,0.700,-2.870,-0.700
882.606116,0.032,0.149,1.037,0.980,-2.940,-0.630
882.61497,0.033,0.147,1.039,2.450,-3.150,-0.560
882.623921,0.035,0.153,1.050,1.750,-3.360,-0.770
882.630851,0.041,0.147,1.041,2.660,-2.730,-0.700
882.63825,0.031,0.151,1.031,2.730,-3.990,-0.700
882.647012,0.033,0.151,1.032,3.500,-3.850,-0.630
882.650979,0.029,0.152,1.037,3.780,-4.270,-0.700
882.657975,0.031,0.147,1.044,5.110,-4.410,-0.630
882.666936,0.038,0.149,1.043,5.880,-4.690,-0.700
882.678277,0.042,0.158,1.050,4.830,-3.780,-0.700
882.687233,0.041,0.160,1.045,3.430,-3.570,-0.700
882.696043,0.038,0.158,1.049,3.220,-3.430,-0.770
882.702841,0.037,0.154,1.042,3.710,-3.500,-0.700
882.706747,0.039,0.159,1.045,3.220,-3.360,-0.630
882.720652,0.039,0.159,1.049,2.030,-2.730,-0.770
882.729646,0.038,0.159,1.046,1.400,-2.730,-0.700
882.733628,0.037,0.158,1.041,0.910,-2.590,-0.770
882.742559,0.038,0.154,1.043,1.260,-2.940,-0.770
882.75064,0.038,0.158,1.038,1.470,-2.940,-0.770
882.758129,0.036,0.158,1.050,0.280,-2.170,-0.700
882.766983,0.039,0.156,1.036,1.470,-2.450,-0.770
882.774026,0.039,0.156,1.034,1.260,-2.310,-0.840
882.780845,0.038,0.155,1.044,-0.420,-1.890,-0.770
882.784767,0.036,0.147,1.041,1.260,-2.240,-0.770
882.79728,0.036,0.157,1.036,1.330,-2.380,-0.840
882.801298,0.040,0.159,1.049,-1.120,-0.910,-0.770
882.808303,0.035,0.152,1.044,0.070,-1.330,-0.700
882.817241,0.042,0.155,1.033,-0.910,-0.770,-0.700
882.826046,0.036,0.159,1.037,-1.890,-0.560,-0.630
882.837341,0.033,0.145,1.039,1.330,-2.240,-0.770
882.846296,0.033,0.159,1.045,1.610,-1.890,-0.840
882.853365,0.038,0.157,1.046,0.910,-1.820,-0.840
882.857287,0.036,0.157,1.041,1.120,-2.100,-0.630
882.866245,0.033,0.155,1.041,1.050,-2.450,-0.840
882.882742,0.031,0.156,1.039,1.610,-2.870,-0.770
882.886656,0.036,0.158,1.049,0.210,-2.100,-0.700
882.89468,0.033,0.152,1.038,1.540,-2.660,-0.770
882.901651,0.033,0.154,1.038,0.700,-2.240,-0.770
882.910644,0.039,0.160,1.042,-0.280,-2.100,-0.770
882.921297,0.031,0.152,1.040,0.630,-2.450,-0.770
882.930049,0.037,0.156,1.039,0.630,-2.310,-0.630
882.938981,0.036,0.152,1.042,0.420,-2.310,-0.630
882.942935,0.033,0.157,1.041,0.630,-2.590,-0.840
882.951882,0.034,0.153,1.042,0.210,-2.310,-0.630
882.96318,0.033,0.155,1.039,1.190,-2.660,-0.840
882.971983,0.034,0.159,1.041,0.490,-2.450,-0.770
882.98002,0.034,0.154,1.042,0.700,-2.520,-0.700
882.98502,0.034,0.154,1.041,1.050,-2.660,-0.770
882.993972,0.033,0.155,1.041,0.980,-2.660,-0.770
883.001424,0.036,0.157,1.041,0.770,-2.940,-0.700
883.010292,0.035,0.152,1.043,1.050,-3.080,-0.700
883.01428,0.038,0.156,1.044,0.980,-2.590,-0.700
883.023309,0.035,0.158,1.042,0.840,-2.730,-0.700
883.032235,0.034,0.154,1.042,0.770,-2.660,-0.840
883.043649,0.038,0.155,1.042,0.700,-2.520,-0.630
883.05263,0.036,0.155,1.043,0.980,-2.660,-0.840
883.060831,0.038,0.158,1.046,0.560,-2.310,-0.700
883.06965,0.040,0.153,1.039,0.210,-2.520,-0.840
883.076719,0.037,0.152,1.037,0.630,-2.590,-0.700
883.087928,0.035,0.155,1.041,0.840,-2.520,-0.700
883.096762,0.035,0.154,1.042,1.260,-2.800,-0.630
883.100685,0.040,0.155,1.039,1.330,-2.380,-0.770
883.108868,0.037,0.155,1.049,1.540,-2.520,-0.630
883.117672,0.033,0.151,1.047,3.430,-2.520,-0.770
883.128974,0.039,0.157,1.046,-0.490,-1.820,-0.840
883.136017,0.037,0.147,1.046,1.890,-2.520,-0.910
883.144937,0.030,0.156,1.040,2.170,-2.940,-0.770
883.153767,0.037,0.155,1.041,0.770,-2.800,-0.630
883.157686,0.035,0.151,1.038,1.330,-2.310,-0.770
883.173116,0.037,0.159,1.044,0.980,-2.730,-0.770
883.17708,0.037,0.157,1.046,0.840,-1.890,-0.770
883.185057,0.034,0.150,1.050,1.820,-2.870,-0.770
883.193979,0.041,0.152,1.035,0.630,-2.380,-0.700
883.20292,0.039,0.162,1.037,-0.420,-2.030,-0.700
883.214241,0.029,0.151,1.037,1.820,-3.290,-0.700
883.221148,0.036,0.159,1.043,0.910,-2.170,-0.770
883.230012,0.038,0.154,1.048,0.140,-2.100,-0.770
883.233961,0.037,0.152,1.046,1.540,-2.450,-0.700
883.242918,0.037,0.157,1.042,-0.210,-2.240,-0.700
883.25427,0.034,0.151,1.039,0.840,-2.380,-0.770
883.260287,0.035,0.158,1.038,0.630,-2.240,-0.700
883.269229,0.036,0.156,1.042,0.210,-2.310,-0.700
883.276115,0.038,0.153,1.042,0.700,-2.380,-0.840
883.28108,0.034,0.154,1.043,1.120,-2.590,-0.770
883.288435,0.036,0.156,1.038,0.630,-2.100,-0.770
883.297274,0.035,0.150,1.034,0.700,-2.240,-0.700
883.301239,0.033,0.151,1.037,1.610,-2.800,-0.840
883.309313,0.034,0.155,1.036,1.750,-2.940,-0.770
883.314488,0.035,0.156,1.041,2.030,-3.010,-0.840
883.321988,0.035,0.155,1.052,1.890,-2.240,-0.700
883.328102,0.033,0.150,1.052,3.150,-2.870,-0.840
883.335043,0.041,0.153,1.035,2.310,-3.010,-0.700
883.343969,0.037,0.159,1.040,1.190,-2.100,-0.840
883.352741,0.034,0.153,1.040,0.910,-2.240,-0.700
883.364036,0.036,0.158,1.046,1.540,-2.310,-0.840
883.372051,0.037,0.155,1.046,1.470,-2.590,-0.840
883.375985,0.035,0.159,1.046,1.400,-2.520,-0.700
883.384919,0.038,0.158,1.044,-0.070,-2.310,-0.700
883.39367,0.035,0.155,1.041,0.910,-2.590,-0.700
883.404979,0.037,0.154,1.040,0.490,-2.520,-0.840
883.413009,0.035,0.152,1.044,0.910,-2.310,-0.770
883.421965,0.038,0.155,1.046,0.770,-2.380,-0.770
883.430051,0.039,0.157,1.046,0.770,-2.310,-0.770
883.433983,0.037,0.155,1.043,0.420,-2.310,-0.630
883.446404,0.038,0.156,1.040,0.490,-2.310,-0.770
883.450309,0.037,0.155,1.038,0.420,-2.170,-0.840
883.45929,0.037,0.153,1.040,0.910,-2.170,-0.840
883.468236,0.036,0.156,1.041,1.050,-2.100,-0.770
883.477043,0.037,0.155,1.043,0.910,-2.100,-0.770
883.488345,0.034,0.155,1.036,1.330,-2.380,-0.840
883.497289,0.034,0.155,1.036,1.470,-2.660,-0.770
883.506286,0.035,0.153,1.040,1.540,-2.660,-0.840
883.510266,0.035,0.157,1.043,1.680,-2.380,-0.840
883.518286,0.035,0.156,1.046,1.050,-2.660,-0.770
883.528823,0.039,0.158,1.042,1.190,-2.310,-0.630
883.532724,0.037,0.157,1.040,0.700,-2.310,-0.770
883.539685,0.033,0.156,1.043,0.700,-2.380,-0.700
883.548563,0.037,0.157,1.043,0.560,-2.310,-0.770
883.557392,0.037,0.154,1.044,0.560,-2.240,-0.770
883.568688,0.035,0.155,1.042,0.560,-2.450,-0.770
883.577616,0.035,0.155,1.040,0.700,-2.380,-0.840
883.581564,0.035,0.154,1.038,0.560,-2.310,-0.770
883.590521,0.035,0.155,1.043,0.980,-2.520,-0.560
883.599328,0.033,0.155,1.041,0.770,-2.450,-0.700
883.608838,0.036,0.155,1.045,0.770,-2.590,-0.700
883.617639,0.035,0.152,1.042,1.050,-2.590,-0.630
883.626562,0.037,0.158,1.039,0.770,-2.520,-0.770
883.635395,0.039,0.155,1.040,0.840,-2.660,-0.770
883.639301,0.034,0.153,1.044,1.120,-2.590,-0.770
883.655652,0.036,0.152,1.042,1.120,-1.960,-0.770
883.664638,0.032,0.155,1.049,1.400,-3.080,-0.840
883.668633,0.037,0.155,1.028,1.820,-2.660,-0.700
883.675789,0.036,0.161,1.038,-0.280,-2.940,-0.700
883.682828,0.034,0.151,1.041,1.540,-2.800,-0.770
883.690129,0.035,0.156,1.048,1.680,-3.360,-0.770
883.699017,0.042,0.158,1.048,0.980,-2.380,-0.770
883.706003,0.034,0.152,1.048,1.330,-2.660,-0.700
883.714739,0.038,0.155,1.042,1.400,-2.660,-0.770
883.718656,0.038,0.159,1.038,0.560,-2.660,-0.840
883.733074,0.034,0.155,1.044,0.770,-2.590,-0.770
883.736976,0.035,0.154,1.043,1.400,-2.450,-0.770
883.745905,0.034,0.155,1.045,0.560,-2.520,-0.700
883.753962,0.039,0.154,1.043,0.980,-2.520,-0.840
883.762022,0.037,0.154,1.038,1.260,-2.800,-0.700
883.769365,0.038,0.155,1.041,0.980,-2.520,-0.770
883.778282,0.036,0.156,1.043,1.260,-2.730,-0.560
883.786352,0.039,0.155,1.047,1.120,-2.450,-0.770
883.790287,0.037,0.157,1.042,0.910,-2.380,-0.700
883.799268,0.035,0.156,1.039,1.190,-2.590,-0.840
883.815638,0.036,0.153,1.042,0.980,-2.730,-0.770
883.819678,0.037,0.154,1.042,1.260,-2.520,-0.770
883.828635,0.037,0.157,1.042,0.770,-2.310,-0.770
883.837556,0.037,0.159,1.040,0.840,-2.170,-0.840
883.846392,0.034,0.152,1.046,1.820,-2.940,-0.770
883.857687,0.036,0.166,1.037,-0.210,-2.100,-0.840
883.866613,0.038,0.151,1.041,0.350,-2.870,-0.770
883.873699,0.037,0.161,1.044,0.980,-2.730,-0.770
883.877646,0.038,0.154,1.045,0.350,-2.310,-0.630
883.882655,0.036,0.151,1.047,1.120,-2.660,-0.770
883.890055,0.038,0.157,1.037,1.610,-2.590,-0.910
883.898869,0.036,0.159,1.040,0.630,-2.520,-0.630
883.90575,0.037,0.156,1.043,1.050,-2.450,-0.770
883.909752,0.037,0.155,1.040,1.400,-2.450,-0.700
883.918745,0.037,0.156,1.039,1.330,-2.520,-0.700
883.926321,0.034,0.156,1.043,0.490,-2.310,-0.700
883.935268,0.034,0.152,1.042,1.120,-2.520,-0.840
883.939262,0.036,0.154,1.035,1.260,-2.590,-0.770
883.945332,0.036,0.158,1.038,0.910,-2.590,-0.910
883.954223,0.034,0.155,1.042,1.750,-2.800,-0.700
883.961876,0.037,0.159,1.044,1.260,-2.380,-0.770
883.970829,0.040,0.157,1.045,1.120,-2.520,-0.770
883.979665,0.039,0.152,1.040,1.470,-2.590,-0.770
883.988629,0.037,0.157,1.042,1.400,-2.520,-0.910
883.997629,0.039,0.155,1.046,1.260,-2.380,-0.770
