Timestamp,AccelX,AccelY,AccelZ,GyroX,GyroY,GyroZ
1743895162.4405782,-0.28889599442481995,0.30646398663520813,-0.8954799771308899,2.450000047683716,-2.5899999141693115,-0.20999999344348907
1743895162.4605782,-0.28645598888397217,0.30451199412345886,-0.896943986415863,3.2200000286102295,-2.5199999809265137,-0.41999998688697815
1743895162.4805782,-0.2845039963722229,0.3001199960708618,-0.8925520181655884,2.0999999046325684,-2.940000057220459,-0.5600000023841858
1743895162.5005782,-0.2849920094013214,0.29475200176239014,-0.8945040106773376,1.6799999475479126,-2.869999885559082,0.41999998688697815
1743895162.5205781,-0.2845039963722229,0.2971920073032379,-0.8910880088806152,0.5600000023841858,-2.869999885559082,1.399999976158142
1743895162.5405781,-0.28547999262809753,0.30109599232673645,-0.8862079977989197,0.2800000011920929,-2.869999885559082,1.399999976158142
1743895162.464791,-0.2884080111980438,0.30646398663520813,-0.8827919960021973,0.6299999952316284,-2.380000114440918,0.9100000262260437
1743895162.484791,-0.2908479869365692,0.30646398663520813,-0.8827919960021973,1.399999976158142,-2.0999999046325684,0.49000000953674316
1743895162.504791,-0.29231199622154236,0.30646398663520813,-0.8847439885139465,1.75,-1.4700000286102295,0.6299999952316284
1743895162.524791,-0.2845039963722229,0.3030480146408081,-0.8901119828224182,2.450000047683716,-0.8399999737739563,0.6299999952316284
1743895162.544791,-0.30109599232673645,0.3089039921760559,-0.8959680199623108,1.8899999856948853,-2.380000114440918,-0.6299999952316284
1743895162.564791,-0.27962398529052734,0.2962160110473633,-0.9120720028877258,2.309999942779541,-7.210000038146973,-1.1200000047683716
1743895162.509435,-0.27376800775527954,0.281576007604599,-0.9193919897079468,2.1700000762939453,-10.779999732971191,-0.41999998688697815
1743895162.529435,-0.2776719927787781,0.28060001134872437,-0.9154880046844482,1.399999976158142,-11.34000015258789,-0.9100000262260437
1743895162.549435,-0.2747440040111542,0.2762080132961273,-0.9169520139694214,1.1200000047683716,-9.3100004196167,0.3499999940395355
1743895162.569435,-0.2776719927787781,0.27962398529052734,-0.9145119786262512,-0.20999999344348907,-7.769999980926514,1.75
1743895162.5894349,-0.27962398529052734,0.281576007604599,-0.9159759879112244,2.380000114440918,-5.809999942779541,2.450000047683716
1743895162.6094348,-0.2879199981689453,0.2898719906806946,-0.9071919918060303,5.880000114440918,-4.96999979019165,2.450000047683716
1743895162.554954,-0.3030480146408081,0.2903600037097931,-0.8979200124740601,8.119999885559082,-5.389999866485596,2.309999942779541
1743895162.574954,-0.30353599786758423,0.2898719906806946,-0.8930400013923645,8.399999618530273,-3.2899999618530273,4.269999980926514
1743895162.594954,-0.30646398663520813,0.28645598888397217,-0.8686400055885315,7.420000076293945,-2.5199999809265137,4.340000152587891
1743895162.614954,-0.2962160110473633,0.2869440019130707,-0.8652240037918091,6.230000019073486,-0.07000000029802322,6.019999980926514
1743895162.634954,-0.2942639887332916,0.30451199412345886,-0.8661999702453613,6.230000019073486,0.699999988079071,7.699999809265137
1743895162.654954,-0.29865598678588867,0.31085601449012756,-0.8720560073852539,5.809999942779541,-17.709999084472656,5.949999809265137
1743895162.629868,-0.2820639908313751,0.3240320086479187,-0.880840003490448,5.670000076293945,-2.1700000762939453,4.130000114440918
1743895162.649868,-0.27669599652290344,0.3201279938220978,-0.8876720070838928,4.340000152587891,-4.340000152587891,1.4700000286102295
1743895162.669868,-0.27132800221443176,0.3152480125427246,-0.8925520181655884,0.6299999952316284,-6.230000019073486,1.0499999523162842
1743895162.689868,-0.27132800221443176,0.3084160089492798,-0.8896239995956421,-5.110000133514404,-5.599999904632568,0.8399999737739563
1743895162.709868,-0.2747440040111542,0.30451199412345886,-0.8886479735374451,-6.929999828338623,-3.1500000953674316,0.7699999809265137
1743895162.729868,-0.28547999262809753,0.3030480146408081,-0.8847439885139465,-7.559999942779541,-1.9600000381469727,2.240000009536743
1743895162.645952,-0.2913359999656677,0.3020719885826111,-0.889136016368866,-6.440000057220459,-1.6799999475479126,2.0999999046325684
1743895162.665952,-0.2884080111980438,0.3050000071525574,-0.8940160274505615,-3.9200000762939453,-1.2599999904632568,1.1200000047683716
1743895162.685952,-0.28889599442481995,0.3025600016117096,-0.9023119807243347,0.14000000059604645,0.07000000029802322,-0.14000000059604645
1743895162.705952,-0.27962398529052734,0.2991439998149872,-0.9003599882125854,-0.3499999940395355,1.6799999475479126,0.5600000023841858
1743895162.725952,-0.2762080132961273,0.2937760055065155,-0.9057279825210571,-0.9800000190734863,2.5199999809265137,2.0999999046325684
1743895162.745952,-0.27132800221443176,0.2971920073032379,-0.9110959768295288,-3.640000104904175,2.450000047683716,2.0299999713897705
1743895162.6896021,-0.2698639929294586,0.3050000071525574,-0.9174399971961975,-3.7799999713897705,0.699999988079071,0.3499999940395355
1743895162.709602,-0.2791360020637512,0.30744001269340515,-0.9159759879112244,-3.009999990463257,-1.9600000381469727,-1.190000057220459
1743895162.729602,-0.28938400745391846,0.30353599786758423,-0.9164639711380005,-3.2200000286102295,-4.059999942779541,-1.6100000143051147
1743895162.749602,-0.29865598678588867,0.2967039942741394,-0.9159759879112244,-2.799999952316284,-6.019999980926514,-1.2599999904632568
1743895162.769602,-0.305976003408432,0.29572799801826477,-0.9120720028877258,-0.49000000953674316,-6.71999979019165,-1.2599999904632568
1743895162.789602,-0.30451199412345886,0.2962160110473633,-0.9057279825210571,0.3499999940395355,-6.789999961853027,-0.9100000262260437
1743895162.7343702,-0.30353599786758423,0.2903600037097931,-0.9013360142707825,-1.1200000047683716,-5.880000114440918,0.3499999940395355
1743895162.7543702,-0.29767999053001404,0.2874319851398468,-0.8998720049858093,-3.990000009536743,-4.619999885559082,2.799999952316284
1743895162.7743702,-0.28645598888397217,0.28889599442481995,-0.8920639753341675,-5.389999866485596,-3.9200000762939453,6.440000057220459
1743895162.7943702,-0.28060001134872437,0.30451199412345886,-0.8901119828224182,-5.389999866485596,-4.130000114440918,6.789999961853027
1743895162.8143702,-0.2776719927787781,0.32207998633384705,-0.8866959810256958,-2.309999942779541,-4.550000190734863,4.619999885559082
1743895162.8343701,-0.2786479890346527,0.3294000029563904,-0.8823040127754211,0.49000000953674316,-4.269999980926514,2.799999952316284
1743895162.795337,-0.27327999472618103,0.33184000849723816,-0.8813279867172241,0.2800000011920929,-3.0799999237060547,1.399999976158142
1743895162.815337,-0.2752319872379303,0.33671998977661133,-0.8837680220603943,-0.2800000011920929,-2.309999942779541,-0.07000000029802322
1743895162.835337,-0.27376800775527954,0.3328160047531128,-0.8910880088806152,-1.0499999523162842,-2.450000047683716,-0.49000000953674316
1743895162.855337,-0.2781600058078766,0.33428001403808594,-0.8906000256538391,-1.3300000429153442,-3.1500000953674316,-1.8899999856948853
1743895162.875337,-0.2776719927787781,0.33476799726486206,-0.8852319717407227,-0.41999998688697815,-3.7100000381469727,-3.7100000381469727
1743895162.8953369,-0.27132800221443176,0.3308640122413635,-0.8842560052871704,-0.3499999940395355,-2.5899999141693115,-4.619999885559082
1743895162.824835,-0.27376800775527954,0.31915199756622314,-0.8754720091819763,-1.1200000047683716,-0.3499999940395355,-3.8499999046325684
1743895162.844835,-0.2727920114994049,0.3084160089492798,-0.8715680241584778,-3.7799999713897705,0.41999998688697815,-2.940000057220459
1743895162.864835,-0.2791360020637512,0.30451199412345886,-0.8764479756355286,-3.990000009536743,2.0299999713897705,-1.8899999856948853
1743895162.884835,-0.281576007604599,0.30695199966430664,-0.8823040127754211,-1.5399999618530273,1.190000057220459,-2.1700000762939453
1743895162.904835,-0.28889599442481995,0.3084160089492798,-0.8852319717407227,0.9800000190734863,-0.41999998688697815,-3.7799999713897705
1743895162.924835,-0.2810879945755005,0.3050000071525574,-0.8925520181655884,2.309999942779541,-0.699999988079071,-4.409999847412109
1743895162.871081,-0.28011199831962585,0.30646398663520813,-0.8906000256538391,2.5199999809265137,-0.41999998688697815,-4.550000190734863
1743895162.891081,-0.2869440019130707,0.30353599786758423,-0.8920639753341675,-0.7699999809265137,0.8399999737739563,-4.480000019073486
1743895162.911081,-0.28938400745391846,0.29816800355911255,-0.8959680199623108,-3.009999990463257,1.5399999618530273,-3.8499999046325684
1743895162.931081,-0.2967039942741394,0.2967039942741394,-0.8974320292472839,-3.640000104904175,1.2599999904632568,-3.5
1743895162.951081,-0.3006080090999603,0.3001199960708618,-0.9057279825210571,-3.009999990463257,-0.07000000029802322,-3.430000066757202
1743895162.971081,-0.30109599232673645,0.29816800355911255,-0.9076799750328064,-2.0299999713897705,-0.2800000011920929,-2.869999885559082
1743895162.9298992,-0.2971920073032379,0.29475200176239014,-0.9071919918060303,-3.7100000381469727,-0.20999999344348907,-1.2599999904632568
1743895162.9498992,-0.29475200176239014,0.29280000925064087,-0.9057279825210571,-4.760000228881836,0.07000000029802322,0.07000000029802322
1743895162.9698992,-0.2903600037097931,0.29231199622154236,-0.905239999294281,-4.619999885559082,-0.41999998688697815,1.1200000047683716
1743895162.9898992,-0.28255200386047363,0.29816800355911255,-0.9013360142707825,-3.430000066757202,-1.4700000286102295,0.6299999952316284
1743895163.0098991,-0.2791360020637512,0.3030480146408081,-0.9003599882125854,-0.20999999344348907,-1.9600000381469727,0.5600000023841858
1743895163.0298991,-0.28011199831962585,0.30109599232673645,-0.9076799750328064,-0.49000000953674316,-2.0299999713897705,0.9800000190734863
1743895162.9443672,-0.2810879945755005,0.3020719885826111,-0.9184160232543945,-1.6799999475479126,-2.0999999046325684,1.9600000381469727
1743895162.9643672,-0.2849920094013214,0.30695199966430664,-0.9203680157661438,-5.880000114440918,-1.399999976158142,3.430000066757202
1743895162.9843671,-0.27962398529052734,0.3181760013103485,-0.9272000193595886,-6.440000057220459,-2.1700000762939453,2.5199999809265137
1743895163.004367,-0.2908479869365692,0.32207998633384705,-0.9345200061798096,-6.860000133514404,-5.110000133514404,2.0999999046325684
1743895163.024367,-0.2913359999656677,0.32256799936294556,-0.9335439801216125,-6.860000133514404,-7.980000019073486,1.0499999523162842
1743895163.044367,-0.29231199622154236,0.3206160068511963,-0.9140239953994751,-6.650000095367432,-9.65999984741211,-0.2800000011920929
1743895162.993404,-0.28938400745391846,0.3181760013103485,-0.9096320271492004,-6.929999828338623,-10.289999961853027,-0.41999998688697815
1743895163.013404,-0.29231199622154236,0.3084160089492798,-0.9071919918060303,-8.260000228881836,-10.359999656677246,1.75
1743895163.0334039,-0.29572799801826477,0.3020719885826111,-0.9071919918060303,-8.050000190734863,-13.510000228881836,1.6100000143051147
1743895163.0534039,-0.2752319872379303,0.30987998843193054,-0.8701040148735046,-5.25,-12.529999732971191,-1.3300000429153442
1743895163.0734038,-0.27962398529052734,0.3020719885826111,-0.904263973236084,-8.329999923706055,-12.460000038146973,1.8200000524520874
1743895163.0934038,-0.29231199622154236,0.30353599786758423,-0.8935279846191406,-10.640000343322754,-13.09000015258789,3.1500000953674316
1743895163.035763,-0.28889599442481995,0.31085601449012756,-0.8759599924087524,-12.8100004196167,-12.8100004196167,3.2200000286102295
1743895163.055763,-0.28889599442481995,0.31671199202537537,-0.8754720091819763,-12.739999771118164,-12.600000381469727,3.009999990463257
1743895163.075763,-0.29280000925064087,0.318664014339447,-0.8779119849205017,-8.119999885559082,-12.460000038146973,1.3300000429153442
1743895163.095763,-0.293287992477417,0.3201279938220978,-0.87254399061203,-8.609999656677246,-12.390000343322754,1.399999976158142
1743895163.115763,-0.2991439998149872,0.31671199202537537,-0.8715680241584778,-9.029999732971191,-12.390000343322754,2.0999999046325684
1743895163.135763,-0.29182401299476624,0.31671199202537537,-0.8579040169715881,-9.170000076293945,-11.970000267028809,2.240000009536743
1743895163.0803452,-0.2898719906806946,0.32256799936294556,-0.8549759984016418,-8.050000190734863,-9.9399995803833,2.240000009536743
1743895163.1003451,-0.29280000925064087,0.3274480104446411,-0.8583920001983643,-7.909999847412109,-8.539999961853027,1.9600000381469727
1743895163.120345,-0.29524001479148865,0.3240320086479187,-0.8608319759368896,-7.909999847412109,-8.260000228881836,1.8200000524520874
1743895163.140345,-0.29524001479148865,0.3308640122413635,-0.8608319759368896,-7.489999771118164,-7.840000152587891,1.9600000381469727
1743895163.160345,-0.2962160110473633,0.330375999212265,-0.8588799834251404,-6.71999979019165,-7.349999904632568,1.75
1743895163.180345,-0.3006080090999603,0.3391599953174591,-0.8618080019950867,-5.949999809265137,-6.789999961853027,1.1200000047683716
1743895163.1251962,-0.2971920073032379,0.33428001403808594,-0.8613200187683105,-6.579999923706055,-4.760000228881836,1.0499999523162842
1743895163.1451962,-0.3006080090999603,0.33476799726486206,-0.8608319759368896,-6.579999923706055,-2.799999952316284,1.1200000047683716
1743895163.1651962,-0.2996320128440857,0.33720800280570984,-0.856440007686615,-6.300000190734863,-1.3300000429153442,0.6299999952316284
1743895163.1851962,-0.3006080090999603,0.34062400460243225,-0.8618080019950867,-3.8499999046325684,-1.2599999904632568,-0.2800000011920929
1743895163.2051961,-0.3025600016117096,0.338672012090683,-0.8671759963035583,-1.190000057220459,-1.190000057220459,-1.2599999904632568
1743895163.2251961,-0.3030480146408081,0.3337920010089874,-0.8774240016937256,0.41999998688697815,-0.49000000953674316,-0.9800000190734863
1743895163.173238,-0.3030480146408081,0.3362320065498352,-0.8793759942054749,-2.450000047683716,0.41999998688697815,0.6299999952316284
1743895163.193238,-0.29767999053001404,0.3396480083465576,-0.8857200145721436,-3.8499999046325684,-0.41999998688697815,0.7699999809265137
1743895163.213238,-0.2991439998149872,0.3425759971141815,-0.8915759921073914,-3.7799999713897705,-0.8399999737739563,0.3499999940395355
1743895163.233238,-0.2942639887332916,0.34599199891090393,-0.8857200145721436,-1.3300000429153442,-2.6600000858306885,-0.699999988079071
1743895163.253238,-0.2962160110473633,0.3455039858818054,-0.8837680220603943,0.6299999952316284,-3.2200000286102295,-1.8200000524520874
1743895163.273238,-0.2962160110473633,0.3396480083465576,-0.8832799792289734,0.07000000029802322,-2.6600000858306885,-1.3300000429153442
1743895163.2312152,-0.29572799801826477,0.33525601029396057,-0.8847439885139465,-0.2800000011920929,-1.8899999856948853,-0.5600000023841858
1743895163.2512152,-0.2971920073032379,0.338672012090683,-0.8862079977989197,-1.399999976158142,-1.5399999618530273,-0.20999999344348907
1743895163.2712152,-0.29816800355911255,0.3416000008583069,-0.8876720070838928,-2.1700000762939453,-1.8200000524520874,-1.0499999523162842
1743895163.2912152,-0.29865598678588867,0.3420880138874054,-0.888159990310669,-1.399999976158142,-3.359999895095825,-2.5199999809265137
1743895163.3112152,-0.3050000071525574,0.33476799726486206,-0.8886479735374451,-0.6299999952316284,-4.269999980926514,-2.450000047683716
1743895163.3312151,-0.3084160089492798,0.3298879861831665,-0.8847439885139465,-1.1200000047683716,-4.340000152587891,-1.4700000286102295
1743895163.260332,-0.305976003408432,0.32207998633384705,-0.8764479756355286,-1.8899999856948853,-4.130000114440918,-0.8399999737739563
1743895163.280332,-0.30353599786758423,0.31964001059532166,-0.8715680241584778,-1.5399999618530273,-4.619999885559082,0.14000000059604645
1743895163.300332,-0.30402401089668274,0.32207998633384705,-0.8632720112800598,-1.0499999523162842,-5.320000171661377,0.9100000262260437
1743895163.320332,-0.3050000071525574,0.3211039900779724,-0.8603439927101135,0.0,-5.320000171661377,1.8899999856948853
1743895163.340332,-0.3050000071525574,0.3245199918746948,-0.8583920001983643,-0.07000000029802322,-4.619999885559082,2.7300000190734863
1743895163.360332,-0.30744001269340515,0.3274480104446411,-0.855463981628418,-1.190000057220459,-2.799999952316284,3.2200000286102295
1743895163.305252,-0.305976003408432,0.3294000029563904,-0.856440007686615,-1.75,-1.4700000286102295,4.900000095367432
1743895163.325252,-0.3079279959201813,0.3323279917240143,-0.8642479777336121,-1.6100000143051147,-0.5600000023841858,5.739999771118164
1743895163.345252,-0.30744001269340515,0.3445279896259308,-0.8666880130767822,-0.2800000011920929,-1.3300000429153442,4.340000152587891
1743895163.365252,-0.30402401089668274,0.35624000430107117,-0.873520016670227,0.41999998688697815,-1.3300000429153442,2.380000114440918
1743895163.385252,-0.29280000925064087,0.3572160005569458,-0.8759599924087524,0.14000000059604645,-1.4700000286102295,1.399999976158142
1743895163.405252,-0.2913359999656677,0.3479439914226532,-0.8749840259552002,-1.4700000286102295,-2.240000009536743,0.41999998688697815
1743895163.3363762,-0.2913359999656677,0.3450160026550293,-0.8720560073852539,-3.009999990463257,-2.5899999141693115,0.699999988079071
1743895163.3563762,-0.29182401299476624,0.3445279896259308,-0.8657119870185852,-2.380000114440918,-2.450000047683716,0.20999999344348907
1743895163.3763762,-0.2942639887332916,0.34940800070762634,-0.8642479777336121,-1.1200000047683716,-2.240000009536743,-0.41999998688697815
1743895163.3963761,-0.2971920073032379,0.34989601373672485,-0.8696159720420837,1.190000057220459,-1.6799999475479126,-0.49000000953674316
1743895163.416376,-0.2967039942741394,0.3484320044517517,-0.8754720091819763,2.450000047683716,-0.07000000029802322,0.41999998688697815
1743895163.436376,-0.29475200176239014,0.3484320044517517,-0.8827919960021973,1.6100000143051147,0.9100000262260437,0.9100000262260437
1743895163.396145,-0.28938400745391846,0.3474560081958771,-0.8866959810256958,-1.1200000047683716,0.9100000262260437,1.190000057220459
1743895163.416145,-0.29182401299476624,0.34648001194000244,-0.8901119828224182,-1.4700000286102295,0.20999999344348907,0.699999988079071
1743895163.436145,-0.2874319851398468,0.34940800070762634,-0.8886479735374451,-0.699999988079071,-1.399999976158142,0.49000000953674316
1743895163.456145,-0.28547999262809753,0.3542880117893219,-0.8901119828224182,0.0,-2.1700000762939453,-1.0499999523162842
1743895163.476145,-0.2874319851398468,0.3513599932193756,-0.8813279867172241,-0.49000000953674316,-2.5899999141693115,-2.0999999046325684
1743895163.496145,-0.2942639887332916,0.3518480062484741,-0.8788880109786987,-1.5399999618530273,-2.240000009536743,-1.8200000524520874
1743895163.440563,-0.29865598678588867,0.3479439914226532,-0.8730319738388062,-1.75,-1.8200000524520874,-0.9800000190734863
1743895163.460563,-0.30158400535583496,0.3425759971141815,-0.87254399061203,-1.1200000047683716,-1.0499999523162842,-0.699999988079071
1743895163.480563,-0.30109599232673645,0.34599199891090393,-0.8730319738388062,-0.20999999344348907,-0.7699999809265137,-0.3499999940395355
1743895163.500563,-0.293287992477417,0.3455039858818054,-0.8754720091819763,0.5600000023841858,-0.9100000262260437,-0.699999988079071
1743895163.520563,-0.29475200176239014,0.34891998767852783,-0.8779119849205017,0.9800000190734863,-1.2599999904632568,-1.3300000429153442
1743895163.5405629,-0.2908479869365692,0.34989601373672485,-0.8769360184669495,1.2599999904632568,-0.9800000190734863,-2.240000009536743
1743895163.4700413,-0.2913359999656677,0.3484320044517517,-0.8823040127754211,1.399999976158142,-1.4700000286102295,-2.5899999141693115
1743895163.4900413,-0.2942639887332916,0.3450160026550293,-0.8842560052871704,1.75,-2.240000009536743,-3.1500000953674316
1743895163.5100412,-0.29524001479148865,0.3445279896259308,-0.881816029548645,0.8399999737739563,-2.0999999046325684,-2.799999952316284
1743895163.5300412,-0.29767999053001404,0.3391599953174591,-0.8769360184669495,0.49000000953674316,-1.8200000524520874,-1.6100000143051147
1743895163.5500412,-0.30109599232673645,0.3381839990615845,-0.880840003490448,0.7699999809265137,-2.0299999713897705,-1.1200000047683716
1743895163.5700412,-0.2996320128440857,0.338672012090683,-0.8784000277519226,2.0999999046325684,-2.450000047683716,-1.0499999523162842
1743895163.529873,-0.3030480146408081,0.338672012090683,-0.879863977432251,2.5899999141693115,-2.869999885559082,-1.1200000047683716
1743895163.5498729,-0.3001199960708618,0.33720800280570984,-0.8774240016937256,2.240000009536743,-3.569999933242798,-0.41999998688697815
1743895163.5698729,-0.3025600016117096,0.3337920010089874,-0.8784000277519226,1.0499999523162842,-3.2200000286102295,0.3499999940395355
1743895163.5898728,-0.2971920073032379,0.3396480083465576,-0.8759599924087524,-1.0499999523162842,-3.0799999237060547,0.07000000029802322
1743895163.6098728,-0.2991439998149872,0.3416000008583069,-0.873520016670227,-0.5600000023841858,-3.0799999237060547,-0.5600000023841858
1743895163.6298728,-0.2996320128440857,0.34062400460243225,-0.8710799813270569,0.20999999344348907,-3.430000066757202,-1.399999976158142
1743895163.575643,-0.30158400535583496,0.3396480083465576,-0.8705919981002808,0.49000000953674316,-2.869999885559082,-1.399999976158142
1743895163.595643,-0.30109599232673645,0.3337920010089874,-0.8686400055885315,0.49000000953674316,-2.0299999713897705,-0.6299999952316284
1743895163.615643,-0.3030480146408081,0.330375999212265,-0.8691279888153076,0.5600000023841858,-1.6799999475479126,-0.14000000059604645
1743895163.635643,-0.30109599232673645,0.3333039879798889,-0.8774240016937256,0.6299999952316284,-1.2599999904632568,0.8399999737739563
1743895163.655643,-0.2991439998149872,0.3357439935207367,-0.879863977432251,0.7699999809265137,-1.6799999475479126,1.1200000047683716
1743895163.675643,-0.29524001479148865,0.33769598603248596,-0.8784000277519226,1.1200000047683716,-2.450000047683716,0.9100000262260437
1743895163.61814,-0.29182401299476624,0.3411119878292084,-0.879863977432251,1.399999976158142,-2.869999885559082,0.7699999809265137
1743895163.63814,-0.28889599442481995,0.34404000639915466,-0.8837680220603943,1.4700000286102295,-2.799999952316284,0.699999988079071
1743895163.65814,-0.2898719906806946,0.34599199891090393,-0.8852319717407227,-0.07000000029802322,-2.0999999046325684,0.5600000023841858
1743895163.67814,-0.2913359999656677,0.34696799516677856,-0.8871840238571167,-1.9600000381469727,-1.5399999618530273,0.6299999952316284
1743895163.69814,-0.2942639887332916,0.3474560081958771,-0.8886479735374451,-2.380000114440918,-2.450000047683716,0.5600000023841858
1743895163.71814,-0.29572799801826477,0.350383996963501,-0.8847439885139465,-1.6100000143051147,-3.640000104904175,-0.5600000023841858
1743895163.6656992,-0.29572799801826477,0.34940800070762634,-0.8784000277519226,0.0,-4.96999979019165,-1.190000057220459
1743895163.6856992,-0.29182401299476624,0.3518480062484741,-0.879863977432251,0.41999998688697815,-4.900000095367432,-1.399999976158142
1743895163.7056992,-0.2903600037097931,0.34989601373672485,-0.873520016670227,-0.699999988079071,-4.269999980926514,-1.190000057220459
1743895163.7256992,-0.28938400745391846,0.34989601373672485,-0.8715680241584778,-1.2599999904632568,-3.569999933242798,-0.6299999952316284
1743895163.7456992,-0.2942639887332916,0.34989601373672485,-0.8691279888153076,-1.1200000047683716,-3.2200000286102295,-0.5600000023841858
1743895163.7656991,-0.29475200176239014,0.3518480062484741,-0.8691279888153076,-0.41999998688697815,-2.940000057220459,-0.9100000262260437
1743895163.6957252,-0.2967039942741394,0.3537999987602234,-0.8696159720420837,1.399999976158142,-2.380000114440918,-1.2599999904632568
1743895163.7157252,-0.2942639887332916,0.3533119857311249,-0.873520016670227,2.5899999141693115,-1.8899999856948853,-1.5399999618530273
1743895163.7357252,-0.2942639887332916,0.3513599932193756,-0.8749840259552002,1.8899999856948853,-0.9100000262260437,-1.399999976158142
1743895163.7557251,-0.2903600037097931,0.350383996963501,-0.8759599924087524,0.2800000011920929,0.5600000023841858,-0.8399999737739563
1743895163.7757251,-0.2898719906806946,0.3445279896259308,-0.8847439885139465,-1.8899999856948853,0.5600000023841858,-0.699999988079071
1743895163.795725,-0.29767999053001404,0.3450160026550293,-0.8886479735374451,-1.75,-0.9100000262260437,-1.3300000429153442
1743895163.74129,-0.2991439998149872,0.3445279896259308,-0.8876720070838928,-0.7699999809265137,-2.0999999046325684,-2.0299999713897705
1743895163.76129,-0.29816800355911255,0.34404000639915466,-0.8857200145721436,0.6299999952316284,-3.990000009536743,-3.009999990463257
1743895163.78129,-0.29475200176239014,0.33769598603248596,-0.8842560052871704,0.3499999940395355,-3.8499999046325684,-2.309999942779541
1743895163.80129,-0.29572799801826477,0.33428001403808594,-0.8827919960021973,-2.0999999046325684,-3.359999895095825,-0.8399999737739563
1743895163.82129,-0.305976003408432,0.33525601029396057,-0.8788880109786987,-3.990000009536743,-2.6600000858306885,-0.7699999809265137
1743895163.84129,-0.3079279959201813,0.3362320065498352,-0.8759599924087524,-3.640000104904175,-2.869999885559082,-0.49000000953674316
1743895163.786842,-0.3084160089492798,0.33671998977661133,-0.87254399061203,-2.869999885559082,-3.359999895095825,-0.41999998688697815
1743895163.806842,-0.30695199966430664,0.3391599953174591,-0.8720560073852539,-1.5399999618530273,-3.9200000762939453,-0.2800000011920929
1743895163.826842,-0.30109599232673645,0.3396480083465576,-0.8696159720420837,-0.07000000029802322,-3.990000009536743,0.20999999344348907
1743895163.846842,-0.2884080111980438,0.3484320044517517,-0.8676639795303345,-17.780000686645508,-3.009999990463257,0.2800000011920929
1743895163.866842,-0.28938400745391846,0.34989601373672485,-0.864736020565033,-1.6799999475479126,-1.5399999618530273,0.41999998688697815
1743895163.886842,-0.29231199622154236,0.34696799516677856,-0.873520016670227,-2.940000057220459,-0.6299999952316284,0.9100000262260437
1743895163.8323522,-0.3006080090999603,0.3479439914226532,-0.8749840259552002,-3.359999895095825,-1.1200000047683716,1.190000057220459
1743895163.8523521,-0.29816800355911255,0.3542880117893219,-0.8759599924087524,-1.9600000381469727,-1.3300000429153442,0.7699999809265137
1743895163.8723521,-0.29182401299476624,0.3577040135860443,-0.8764479756355286,0.0,-2.5899999141693115,0.07000000029802322
1743895163.892352,-0.2879199981689453,0.3572160005569458,-0.8769360184669495,1.3300000429153442,-3.009999990463257,-0.9100000262260437
1743895163.912352,-0.2845039963722229,0.3577040135860443,-0.8759599924087524,-0.5600000023841858,-1.8899999856948853,-1.2599999904632568
1743895163.932352,-0.2908479869365692,0.35819199681282043,-0.8793759942054749,-1.5399999618530273,-1.399999976158142,-1.3300000429153442
1743895163.86171,-0.29572799801826477,0.35575199127197266,-0.881816029548645,-3.2200000286102295,-1.4700000286102295,-1.4700000286102295
1743895163.88171,-0.29816800355911255,0.35575199127197266,-0.881816029548645,-2.5199999809265137,-2.1700000762939453,-2.0299999713897705
1743895163.90171,-0.29865598678588867,0.35575199127197266,-0.8754720091819763,-0.6299999952316284,-3.8499999046325684,-2.940000057220459
1743895163.92171,-0.29475200176239014,0.34989601373672485,-0.8720560073852539,1.2599999904632568,-4.619999885559082,-3.7100000381469727
1743895163.94171,-0.29231199622154236,0.3445279896259308,-0.8696159720420837,1.399999976158142,-4.199999809265137,-3.0799999237060547
1743895163.96171,-0.29572799801826477,0.3391599953174591,-0.8661999702453613,0.49000000953674316,-2.799999952316284,-2.309999942779541
1743895163.9054072,-0.29865598678588867,0.33769598603248596,-0.8642479777336121,-2.7300000190734863,-0.9100000262260437,-1.6100000143051147
1743895163.9254072,-0.3001199960708618,0.3391599953174591,-0.8691279888153076,-2.7300000190734863,-0.9800000190734863,-1.1200000047683716
1743895163.9454072,-0.3054879903793335,0.34013599157333374,-0.8696159720420837,-0.14000000059604645,-2.5199999809265137,-0.9800000190734863
1743895163.9654071,-0.3084160089492798,0.3445279896259308,-0.8691279888153076,0.3499999940395355,-3.009999990463257,-1.4700000286102295
1743895163.985407,-0.30402401089668274,0.34355199337005615,-0.8661999702453613,1.75,-2.6600000858306885,-1.4700000286102295
1743895164.005407,-0.30353599786758423,0.3357439935207367,-0.8627840280532837,0.8399999737739563,-0.7699999809265137,-0.3499999940395355
1743895163.9508991,-0.30451199412345886,0.33476799726486206,-0.8652240037918091,-0.7699999809265137,0.07000000029802322,0.41999998688697815
1743895163.970899,-0.29865598678588867,0.33428001403808594,-0.8681520223617554,-0.9800000190734863,0.20999999344348907,1.399999976158142
1743895163.990899,-0.2962160110473633,0.3450160026550293,-0.8730319738388062,-0.2800000011920929,0.0,0.6299999952316284
1743895164.010899,-0.2971920073032379,0.3484320044517517,-0.8730319738388062,2.0299999713897705,-1.5399999618530273,-0.07000000029802322
1743895164.030899,-0.2996320128440857,0.3455039858818054,-0.8759599924087524,2.799999952316284,-1.8200000524520874,-0.5600000023841858
1743895164.050899,-0.2991439998149872,0.34599199891090393,-0.8769360184669495,1.9600000381469727,-0.699999988079071,-0.14000000059604645
1743895163.99638,-0.2962160110473633,0.34891998767852783,-0.881816029548645,1.1200000047683716,-0.07000000029802322,0.0
1743895164.01638,-0.29231199622154236,0.3479439914226532,-0.8852319717407227,0.7699999809265137,0.2800000011920929,0.07000000029802322
1743895164.03638,-0.293287992477417,0.34891998767852783,-0.888159990310669,0.7699999809265137,-0.49000000953674316,0.07000000029802322
1743895164.05638,-0.293287992477417,0.3513599932193756,-0.8876720070838928,1.4700000286102295,-2.0299999713897705,-0.2800000011920929
1743895164.07638,-0.2937760055065155,0.3508720099925995,-0.8886479735374451,2.5199999809265137,-3.569999933242798,-0.9100000262260437
1743895164.09638,-0.29572799801826477,0.35282400250434875,-0.8910880088806152,2.240000009536743,-3.8499999046325684,-0.7699999809265137
1743895164.041363,-0.2942639887332916,0.35233598947525024,-0.8896239995956421,0.6299999952316284,-3.7100000381469727,-0.3499999940395355
1743895164.061363,-0.2967039942741394,0.3508720099925995,-0.8871840238571167,-2.309999942779541,-2.940000057220459,-0.14000000059604645
1743895164.081363,-0.2967039942741394,0.3533119857311249,-0.8788880109786987,-2.309999942779541,-3.2899999618530273,-0.20999999344348907
1743895164.101363,-0.29475200176239014,0.3533119857311249,-0.87254399061203,0.20999999344348907,-4.340000152587891,-1.1200000047683716
1743895164.121363,-0.29524001479148865,0.35575199127197266,-0.8710799813270569,1.399999976158142,-4.829999923706055,-1.5399999618530273
1743895164.141363,-0.29280000925064087,0.3533119857311249,-0.8705919981002808,1.5399999618530273,-4.269999980926514,-1.399999976158142
1743895164.0878952,-0.2884080111980438,0.3542880117893219,-0.8681520223617554,-0.3499999940395355,-2.940000057220459,-0.49000000953674316
1743895164.1078951,-0.2913359999656677,0.3542880117893219,-0.87254399061203,-3.1500000953674316,-1.399999976158142,-0.07000000029802322
1743895164.127895,-0.2967039942741394,0.35575199127197266,-0.8720560073852539,-3.0799999237060547,-1.3300000429153442,-0.07000000029802322
1743895164.147895,-0.2967039942741394,0.3577040135860443,-0.8671759963035583,-2.0299999713897705,-1.4700000286102295,-0.7699999809265137
1743895164.167895,-0.2942639887332916,0.354775995016098,-0.8710799813270569,-0.14000000059604645,-1.399999976158142,-1.190000057220459
1743895164.187895,-0.293287992477417,0.35526400804519653,-0.8764479756355286,0.9100000262260437,-1.1200000047683716,-2.0999999046325684
1743895164.131968,-0.2913359999656677,0.3533119857311249,-0.8813279867172241,0.0,-1.0499999523162842,-2.240000009536743
1743895164.151968,-0.29182401299476624,0.3445279896259308,-0.881816029548645,-0.9800000190734863,-1.4700000286102295,-1.6799999475479126
1743895164.171968,-0.2913359999656677,0.3416000008583069,-0.880840003490448,-1.0499999523162842,-1.8899999856948853,-1.5399999618530273
1743895164.191968,-0.29572799801826477,0.3411119878292084,-0.8784000277519226,0.07000000029802322,-3.1500000953674316,-1.6100000143051147
1743895164.211968,-0.29767999053001404,0.3416000008583069,-0.8720560073852539,1.5399999618530273,-3.7799999713897705,-0.9100000262260437
1743895164.231968,-0.29865598678588867,0.3450160026550293,-0.8764479756355286,1.4700000286102295,-3.2899999618530273,-0.5600000023841858
1743895164.175487,-0.2962160110473633,0.34648001194000244,-0.8744959831237793,0.9800000190734863,-2.7300000190734863,-0.49000000953674316
1743895164.195487,-0.2967039942741394,0.3474560081958771,-0.8701040148735046,0.6299999952316284,-2.6600000858306885,-0.699999988079071
1743895164.215487,-0.29475200176239014,0.3479439914226532,-0.8691279888153076,0.9100000262260437,-2.6600000858306885,-0.8399999737739563
1743895164.235487,-0.2971920073032379,0.3508720099925995,-0.8671759963035583,2.0299999713897705,-3.359999895095825,-1.75
1743895164.255487,-0.29524001479148865,0.3508720099925995,-0.8686400055885315,1.5399999618530273,-3.5,-2.309999942779541
1743895164.275487,-0.29865598678588867,0.3484320044517517,-0.8686400055885315,-0.6299999952316284,-3.1500000953674316,-1.9600000381469727
1743895164.2205172,-0.29767999053001404,0.3411119878292084,-0.8676639795303345,-0.9100000262260437,-3.009999990463257,-1.3300000429153442
1743895164.2405171,-0.3020719885826111,0.34062400460243225,-0.8622959852218628,0.14000000059604645,-3.2899999618530273,-0.9800000190734863
1743895164.2605171,-0.3001199960708618,0.3396480083465576,-0.8618080019950867,1.9600000381469727,-2.6600000858306885,-0.699999988079071
1743895164.280517,-0.29816800355911255,0.3416000008583069,-0.8681520223617554,2.240000009536743,-1.0499999523162842,-0.07000000029802322
1743895164.300517,-0.2971920073032379,0.34648001194000244,-0.8740079998970032,1.8200000524520874,-0.20999999344348907,0.41999998688697815
1743895164.320517,-0.2996320128440857,0.34696799516677856,-0.8788880109786987,0.07000000029802322,0.07000000029802322,0.8399999737739563
1743895164.25181,-0.29816800355911255,0.3479439914226532,-0.8837680220603943,-0.699999988079071,0.20999999344348907,0.8399999737739563
1743895164.27181,-0.29865598678588867,0.3533119857311249,-0.889136016368866,-0.07000000029802322,-1.2599999904632568,0.07000000029802322
1743895164.29181,-0.29816800355911255,0.35282400250434875,-0.8925520181655884,1.399999976158142,-2.5899999141693115,-1.190000057220459
1743895164.31181,-0.29280000925064087,0.34989601373672485,-0.888159990310669,1.6799999475479126,-3.430000066757202,-1.5399999618530273
1743895164.33181,-0.2898719906806946,0.34648001194000244,-0.8857200145721436,1.399999976158142,-3.430000066757202,-1.399999976158142
1743895164.35181,-0.2908479869365692,0.3411119878292084,-0.8813279867172241,0.7699999809265137,-3.0799999237060547,-1.0499999523162842
1743895164.296337,-0.29475200176239014,0.3396480083465576,-0.8852319717407227,0.6299999952316284,-3.2899999618530273,-0.8399999737739563
1743895164.3163369,-0.29475200176239014,0.3411119878292084,-0.8842560052871704,0.699999988079071,-3.640000104904175,-0.3499999940395355
1743895164.3363369,-0.29767999053001404,0.350383996963501,-0.889136016368866,0.07000000029802322,-4.199999809265137,-0.6299999952316284
1743895164.3563368,-0.3020719885826111,0.3533119857311249,-0.8852319717407227,-0.6299999952316284,-4.480000019073486,-1.190000057220459
1743895164.3763368,-0.29572799801826477,0.3508720099925995,-0.8774240016937256,-0.7699999809265137,-4.96999979019165,-1.190000057220459
1743895164.3963368,-0.2937760055065155,0.34891998767852783,-0.8691279888153076,0.07000000029802322,-5.25,-1.3300000429153442
1743895164.3405583,-0.29280000925064087,0.34696799516677856,-0.8652240037918091,0.6299999952316284,-5.320000171661377,-1.75
1743895164.3605583,-0.28889599442481995,0.3455039858818054,-0.8637599945068359,1.1200000047683716,-4.829999923706055,-1.9600000381469727
1743895164.3805583,-0.2903600037097931,0.3411119878292084,-0.8608319759368896,1.2599999904632568,-4.619999885559082,-1.6799999475479126
1743895164.4005582,-0.29475200176239014,0.33525601029396057,-0.8583920001983643,1.8200000524520874,-3.430000066757202,-0.7699999809265137
1743895164.4205582,-0.2996320128440857,0.3396480083465576,-0.8622959852218628,1.399999976158142,-2.309999942779541,1.0499999523162842
1743895164.4405582,-0.30451199412345886,0.3484320044517517,-0.8764479756355286,1.6100000143051147,-1.8899999856948853,0.9800000190734863
1743895164.385545,-0.30451199412345886,0.350383996963501,-0.8744959831237793,2.940000057220459,-2.940000057220459,-0.41999998688697815
1743895164.405545,-0.3025600016117096,0.34989601373672485,-0.8720560073852539,3.1500000953674316,-3.2899999618530273,-0.9800000190734863
1743895164.425545,-0.2996320128440857,0.34648001194000244,-0.8710799813270569,2.0999999046325684,-3.009999990463257,-0.8399999737739563
1743895164.445545,-0.2967039942741394,0.3411119878292084,-0.8740079998970032,0.07000000029802322,-2.450000047683716,-0.2800000011920929
1743895164.465545,-0.29475200176239014,0.3425759971141815,-0.8715680241584778,-1.4700000286102295,-1.4700000286102295,0.41999998688697815
1743895164.485545,-0.29280000925064087,0.3445279896259308,-0.8754720091819763,-2.7300000190734863,-0.9100000262260437,0.6299999952316284
1743895164.431287,-0.2996320128440857,0.3479439914226532,-0.8769360184669495,-2.450000047683716,-1.3300000429153442,0.20999999344348907
1743895164.451287,-0.3006080090999603,0.34989601373672485,-0.881816029548645,-1.5399999618530273,-2.1700000762939453,-0.07000000029802322
1743895164.471287,-0.3050000071525574,0.34940800070762634,-0.8779119849205017,0.14000000059604645,-3.569999933242798,-0.699999988079071
1743895164.491287,-0.30353599786758423,0.34355199337005615,-0.8676639795303345,1.2599999904632568,-3.5,-0.20999999344348907
1743895164.511287,-0.30109599232673645,0.3455039858818054,-0.8686400055885315,1.2599999904632568,-2.0299999713897705,0.8399999737739563
1743895164.531287,-0.2962160110473633,0.34648001194000244,-0.87254399061203,0.699999988079071,-1.2599999904632568,1.1200000047683716
1743895164.4618342,-0.29231199622154236,0.3513599932193756,-0.8754720091819763,0.14000000059604645,-0.9800000190734863,1.0499999523162842
1743895164.4818342,-0.2942639887332916,0.3537999987602234,-0.8803520202636719,0.49000000953674316,-1.5399999618530273,0.3499999940395355
1743895164.5018342,-0.2967039942741394,0.35526400804519653,-0.8852319717407227,1.190000057220459,-2.799999952316284,-0.5600000023841858
1743895164.5218341,-0.2962160110473633,0.3533119857311249,-0.8837680220603943,1.4700000286102295,-3.5,-1.399999976158142
1743895164.541834,-0.2967039942741394,0.34891998767852783,-0.8788880109786987,1.399999976158142,-3.7100000381469727,-1.4700000286102295
1743895164.561834,-0.29524001479148865,0.34648001194000244,-0.8779119849205017,1.4700000286102295,-4.130000114440918,-1.190000057220459
1743895164.5223231,-0.2991439998149872,0.34306401014328003,-0.873520016670227,1.6100000143051147,-4.130000114440918,-0.9100000262260437
1743895164.542323,-0.29865598678588867,0.34404000639915466,-0.8666880130767822,1.5399999618530273,-3.2899999618530273,-0.49000000953674316
1743895164.562323,-0.29816800355911255,0.3411119878292084,-0.8676639795303345,1.1200000047683716,-2.5899999141693115,0.2800000011920929
1743895164.582323,-0.30158400535583496,0.34404000639915466,-0.8705919981002808,1.3300000429153442,-2.309999942779541,0.20999999344348907
1743895164.602323,-0.29816800355911255,0.3479439914226532,-0.8769360184669495,1.6799999475479126,-2.5199999809265137,0.0
1743895164.622323,-0.29767999053001404,0.3484320044517517,-0.879863977432251,0.5600000023841858,-2.799999952316284,-0.2800000011920929
1743895164.566196,-0.29475200176239014,0.3474560081958771,-0.8827919960021973,-0.49000000953674316,-2.940000057220459,0.0
1743895164.586196,-0.2942639887332916,0.34648001194000244,-0.8784000277519226,-0.9800000190734863,-2.6600000858306885,0.20999999344348907
1743895164.606196,-0.2971920073032379,0.3484320044517517,-0.8779119849205017,-1.190000057220459,-2.309999942779541,0.14000000059604645
1743895164.626196,-0.29767999053001404,0.3484320044517517,-0.8774240016937256,-0.7699999809265137,-2.1700000762939453,-0.2800000011920929
1743895164.646196,-0.3006080090999603,0.34989601373672485,-0.8803520202636719,0.49000000953674316,-2.940000057220459,-0.5600000023841858
1743895164.6661959,-0.30109599232673645,0.3474560081958771,-0.8769360184669495,1.4700000286102295,-3.359999895095825,-0.3499999940395355
1743895164.611517,-0.2971920073032379,0.34404000639915466,-0.8754720091819763,1.4700000286102295,-3.430000066757202,-0.07000000029802322
1743895164.631517,-0.29524001479148865,0.3518480062484741,-0.8788880109786987,1.2599999904632568,-3.640000104904175,-0.3499999940395355
1743895164.651517,-0.2942639887332916,0.3518480062484741,-0.8744959831237793,1.3300000429153442,-4.199999809265137,-0.9100000262260437
1743895164.671517,-0.29280000925064087,0.35282400250434875,-0.8754720091819763,1.9600000381469727,-4.550000190734863,-1.3300000429153442
1743895164.6915169,-0.2942639887332916,0.35282400250434875,-0.8705919981002808,2.1700000762939453,-4.130000114440918,-1.1200000047683716
1743895164.7115169,-0.29865598678588867,0.34891998767852783,-0.87254399061203,1.1200000047683716,-3.640000104904175,-0.6299999952316284
1743895164.6423821,-0.29865598678588867,0.34696799516677856,-0.8691279888153076,-0.14000000059604645,-2.869999885559082,-0.2800000011920929
1743895164.6623821,-0.29524001479148865,0.3484320044517517,-0.8686400055885315,-0.49000000953674316,-2.240000009536743,-0.07000000029802322
1743895164.682382,-0.29816800355911255,0.3479439914226532,-0.8681520223617554,0.2800000011920929,-2.0999999046325684,-0.14000000059604645
1743895164.702382,-0.29524001479148865,0.3533119857311249,-0.8676639795303345,0.5600000023841858,-2.240000009536743,-1.1200000047683716
1743895164.722382,-0.2967039942741394,0.35233598947525024,-0.8740079998970032,1.0499999523162842,-2.240000009536743,-1.3300000429153442
1743895164.742382,-0.2991439998149872,0.3508720099925995,-0.8754720091819763,0.49000000953674316,-2.1700000762939453,-1.6100000143051147
1743895164.68819,-0.29865598678588867,0.34940800070762634,-0.8759599924087524,-0.3499999940395355,-2.0299999713897705,-1.3300000429153442
1743895164.70819,-0.29816800355911255,0.34599199891090393,-0.8744959831237793,-1.4700000286102295,-2.1700000762939453,-1.1200000047683716
1743895164.72819,-0.3020719885826111,0.3445279896259308,-0.8730319738388062,-1.1200000047683716,-2.799999952316284,-0.9800000190734863
1743895164.74819,-0.3001199960708618,0.3455039858818054,-0.8705919981002808,0.2800000011920929,-3.009999990463257,-1.190000057220459
1743895164.76819,-0.3020719885826111,0.3420880138874054,-0.8696159720420837,1.8200000524520874,-2.799999952316284,-1.190000057220459
1743895164.78819,-0.30353599786758423,0.3391599953174591,-0.8759599924087524,1.6100000143051147,-2.380000114440918,-0.8399999737739563
1743895164.732851,-0.3025600016117096,0.34013599157333374,-0.8769360184669495,0.9100000262260437,-2.240000009536743,-0.7699999809265137
1743895164.752851,-0.2991439998149872,0.3445279896259308,-0.8788880109786987,1.0499999523162842,-2.940000057220459,-1.1200000047683716
1743895164.772851,-0.2962160110473633,0.34355199337005615,-0.8754720091819763,1.5399999618530273,-3.1500000953674316,-1.3300000429153442
1743895164.792851,-0.2971920073032379,0.3411119878292084,-0.8764479756355286,0.20999999344348907,-2.869999885559082,-0.699999988079071
1743895164.812851,-0.3001199960708618,0.3411119878292084,-0.8754720091819763,-1.1200000047683716,-2.450000047683716,-0.20999999344348907
1743895164.832851,-0.30158400535583496,0.3416000008583069,-0.8764479756355286,-0.9100000262260437,-1.9600000381469727,-0.14000000059604645
1743895164.776725,-0.30695199966430664,0.3455039858818054,-0.8744959831237793,-0.20999999344348907,-2.0999999046325684,-0.49000000953674316
1743895164.796725,-0.30402401089668274,0.34696799516677856,-0.8769360184669495,0.699999988079071,-2.5899999141693115,-0.5600000023841858
1743895164.816725,-0.3006080090999603,0.34648001194000244,-0.8779119849205017,2.0299999713897705,-3.0799999237060547,-0.9100000262260437
1743895164.836725,-0.3006080090999603,0.3455039858818054,-0.8754720091819763,1.6100000143051147,-2.6600000858306885,-0.699999988079071
1743895164.856725,-0.3006080090999603,0.3450160026550293,-0.8769360184669495,0.07000000029802322,-1.6799999475479126,0.0
1743895164.876725,-0.2962160110473633,0.3445279896259308,-0.8774240016937256,-0.2800000011920929,-1.0499999523162842,0.41999998688697815
1743895164.821695,-0.2962160110473633,0.3455039858818054,-0.8749840259552002,-1.2599999904632568,-1.1200000047683716,0.41999998688697815
1743895164.841695,-0.2962160110473633,0.3455039858818054,-0.8784000277519226,-0.9800000190734863,-1.399999976158142,0.3499999940395355
1743895164.861695,-0.3001199960708618,0.3533119857311249,-0.8774240016937256,-0.41999998688697815,-2.380000114440918,0.0
1743895164.881695,-0.2996320128440857,0.3537999987602234,-0.8788880109786987,-0.8399999737739563,-2.5199999809265137,-0.3499999940395355
1743895164.901695,-0.29572799801826477,0.3508720099925995,-0.8774240016937256,-0.9100000262260437,-2.5199999809265137,-0.2800000011920929
1743895164.921695,-0.29475200176239014,0.350383996963501,-0.87254399061203,-0.41999998688697815,-2.5899999141693115,-0.3499999940395355
1743895164.866166,-0.2971920073032379,0.34989601373672485,-0.8715680241584778,0.7699999809265137,-3.1500000953674316,-0.9100000262260437
1743895164.886166,-0.30109599232673645,0.35233598947525024,-0.8730319738388062,1.399999976158142,-3.0799999237060547,-1.0499999523162842
1743895164.906166,-0.29767999053001404,0.3508720099925995,-0.87254399061203,0.9800000190734863,-2.869999885559082,-0.8399999737739563
1743895164.926166,-0.29767999053001404,0.350383996963501,-0.8740079998970032,0.3499999940395355,-2.7300000190734863,-0.9800000190734863
1743895164.946166,-0.2967039942741394,0.3508720099925995,-0.8730319738388062,0.07000000029802322,-3.0799999237060547,-1.1200000047683716
1743895164.966166,-0.2971920073032379,0.34696799516677856,-0.8710799813270569,0.8399999737739563,-3.430000066757202,-1.3300000429153442
1743895164.9116323,-0.2971920073032379,0.34599199891090393,-0.8710799813270569,1.6799999475479126,-3.2200000286102295,-1.6799999475479126
1743895164.9316323,-0.29816800355911255,0.34306401014328003,-0.873520016670227,1.6100000143051147,-2.869999885559082,-1.6100000143051147
1743895164.9516323,-0.2996320128440857,0.34355199337005615,-0.8754720091819763,0.9100000262260437,-2.799999952316284,-1.5399999618530273
1743895164.9716322,-0.3030480146408081,0.3425759971141815,-0.87254399061203,0.49000000953674316,-2.5899999141693115,-1.4700000286102295
1743895164.9916322,-0.30451199412345886,0.34062400460243225,-0.8715680241584778,1.399999976158142,-2.6600000858306885,-1.4700000286102295
1743895165.0116322,-0.3050000071525574,0.338672012090683,-0.8744959831237793,2.309999942779541,-3.1500000953674316,-1.4700000286102295
1743895164.9559612,-0.30695199966430664,0.33671998977661133,-0.8744959831237793,2.940000057220459,-3.1500000953674316,-0.7699999809265137
1743895164.9759612,-0.30353599786758423,0.33720800280570984,-0.8720560073852539,2.6600000858306885,-3.009999990463257,0.20999999344348907
1743895164.9959612,-0.2991439998149872,0.3362320065498352,-0.8715680241584778,0.9800000190734863,-1.75,1.1200000047683716
1743895165.0159612,-0.29865598678588867,0.3445279896259308,-0.8788880109786987,-1.5399999618530273,-1.3300000429153442,1.9600000381469727
1743895165.0359612,-0.2991439998149872,0.34940800070762634,-0.8779119849205017,-0.9100000262260437,-1.8200000524520874,1.2599999904632568
1743895165.0559611,-0.2991439998149872,0.3533119857311249,-0.8774240016937256,-0.20999999344348907,-2.309999942779541,-0.49000000953674316
1743895165.033426,-0.29865598678588867,0.35526400804519653,-0.8793759942054749,0.41999998688697815,-2.380000114440918,-1.190000057220459
1743895165.053426,-0.2971920073032379,0.34696799516677856,-0.8769360184669495,-0.6299999952316284,-2.309999942779541,-1.75
1743895165.073426,-0.29231199622154236,0.3411119878292084,-0.8764479756355286,-1.2599999904632568,-2.5899999141693115,-1.5399999618530273
1743895165.093426,-0.29280000925064087,0.338672012090683,-0.8749840259552002,-0.8399999737739563,-2.940000057220459,-0.7699999809265137
1743895165.113426,-0.2967039942741394,0.3381839990615845,-0.8676639795303345,-0.41999998688697815,-3.2200000286102295,-0.3499999940395355
1743895165.133426,-0.30158400535583496,0.3420880138874054,-0.8686400055885315,0.7699999809265137,-3.640000104904175,-0.2800000011920929
1743895165.03622,-0.3050000071525574,0.3474560081958771,-0.8710799813270569,1.8200000524520874,-3.640000104904175,-0.14000000059604645
1743895165.05622,-0.3025600016117096,0.3508720099925995,-0.8710799813270569,1.75,-3.359999895095825,0.20999999344348907
1743895165.07622,-0.3025600016117096,0.350383996963501,-0.8749840259552002,0.8399999737739563,-2.799999952316284,0.2800000011920929
1743895165.09622,-0.3020719885826111,0.35526400804519653,-0.8764479756355286,0.699999988079071,-3.1500000953674316,-0.41999998688697815
1743895165.11622,-0.30109599232673645,0.35916799306869507,-0.8769360184669495,0.9100000262260437,-3.359999895095825,-1.3300000429153442
1743895165.13622,-0.29816800355911255,0.3567279875278473,-0.8764479756355286,0.9800000190734863,-3.430000066757202,-2.0999999046325684
1743895165.076621,-0.2971920073032379,0.35233598947525024,-0.873520016670227,0.699999988079071,-3.5,-2.5899999141693115
1743895165.096621,-0.2962160110473633,0.3450160026550293,-0.8764479756355286,0.07000000029802322,-3.2899999618530273,-2.309999942779541
1743895165.116621,-0.3006080090999603,0.33720800280570984,-0.8759599924087524,0.07000000029802322,-3.640000104904175,-1.1200000047683716
1743895165.136621,-0.29816800355911255,0.33476799726486206,-0.8730319738388062,0.9100000262260437,-3.7100000381469727,-0.699999988079071
1743895165.156621,-0.29572799801826477,0.3416000008583069,-0.8691279888153076,1.8899999856948853,-3.7100000381469727,-0.6299999952316284
1743895165.176621,-0.29572799801826477,0.3391599953174591,-0.8691279888153076,1.190000057220459,-3.009999990463257,-0.07000000029802322
1743895165.1206522,-0.3020719885826111,0.33769598603248596,-0.8710799813270569,0.41999998688697815,-2.6600000858306885,0.41999998688697815
1743895165.1406522,-0.30402401089668274,0.34306401014328003,-0.8710799813270569,-0.14000000059604645,-1.8899999856948853,0.9800000190734863
1743895165.1606522,-0.30646398663520813,0.34599199891090393,-0.873520016670227,-0.49000000953674316,-1.6799999475479126,0.8399999737739563
1743895165.1806521,-0.30695199966430664,0.35233598947525024,-0.8769360184669495,-0.2800000011920929,-2.1700000762939453,0.0
1743895165.2006521,-0.3084160089492798,0.3474560081958771,-0.8720560073852539,-0.20999999344348907,-3.359999895095825,-0.3499999940395355
1743895165.220652,-0.30695199966430664,0.3455039858818054,-0.8681520223617554,0.2800000011920929,-3.0799999237060547,-0.49000000953674316
1743895165.1657941,-0.29865598678588867,0.3445279896259308,-0.8603439927101135,0.699999988079071,-1.6100000143051147,-0.14000000059604645
1743895165.185794,-0.2996320128440857,0.34355199337005615,-0.8627840280532837,1.2599999904632568,-1.3300000429153442,0.07000000029802322
1743895165.205794,-0.30353599786758423,0.34599199891090393,-0.8701040148735046,1.75,-1.2599999904632568,0.20999999344348907
1743895165.225794,-0.30695199966430664,0.34648001194000244,-0.8774240016937256,1.6100000143051147,-1.75,0.2800000011920929
1743895165.245794,-0.3054879903793335,0.3474560081958771,-0.8774240016937256,0.699999988079071,-2.0299999713897705,0.07000000029802322
1743895165.265794,-0.3020719885826111,0.3479439914226532,-0.8749840259552002,0.20999999344348907,-2.5199999809265137,-0.5600000023841858
1743895165.2105951,-0.29816800355911255,0.34940800070762634,-0.8686400055885315,0.6299999952316284,-2.450000047683716,-0.7699999809265137
1743895165.230595,-0.30353599786758423,0.35233598947525024,-0.8720560073852539,0.20999999344348907,-2.5199999809265137,-0.7699999809265137
1743895165.250595,-0.30744001269340515,0.3474560081958771,-0.8681520223617554,0.49000000953674316,-2.1700000762939453,-0.699999988079071
1743895165.270595,-0.3001199960708618,0.34404000639915466,-0.8676639795303345,1.3300000429153442,-0.699999988079071,0.0
1743895165.290595,-0.2903600037097931,0.33769598603248596,-0.8696159720420837,1.3300000429153442,0.14000000059604645,1.1200000047683716
1743895165.310595,-0.2913359999656677,0.34599199891090393,-0.8730319738388062,1.0499999523162842,0.20999999344348907,1.3300000429153442
1743895165.2562351,-0.293287992477417,0.35282400250434875,-0.8847439885139465,1.5399999618530273,-0.7699999809265137,0.49000000953674316
1743895165.276235,-0.29524001479148865,0.35233598947525024,-0.8906000256538391,1.399999976158142,-1.8200000524520874,-0.5600000023841858
1743895165.296235,-0.29475200176239014,0.35233598947525024,-0.8906000256538391,1.4700000286102295,-3.009999990463257,-1.6100000143051147
1743895165.316235,-0.29524001479148865,0.350383996963501,-0.8862079977989197,1.6799999475479126,-3.9200000762939453,-1.8899999856948853
1743895165.336235,-0.2996320128440857,0.34599199891090393,-0.8788880109786987,0.41999998688697815,-3.569999933242798,-1.75
1743895165.356235,-0.29816800355911255,0.34404000639915466,-0.8764479756355286,-0.20999999344348907,-3.009999990463257,-1.2599999904632568
1743895165.33259,-0.30353599786758423,0.3425759971141815,-0.8779119849205017,0.3499999940395355,-2.380000114440918,-0.699999988079071
1743895165.35259,-0.30451199412345886,0.3416000008583069,-0.8774240016937256,1.2599999904632568,-2.309999942779541,-0.20999999344348907
1743895165.37259,-0.3020719885826111,0.3420880138874054,-0.8788880109786987,1.190000057220459,-2.5199999809265137,0.0
1743895165.39259,-0.29572799801826477,0.34355199337005615,-0.8793759942054749,0.5600000023841858,-2.7300000190734863,0.14000000059604645
1743895165.41259,-0.29767999053001404,0.3508720099925995,-0.880840003490448,0.14000000059604645,-3.5,-0.07000000029802322
1743895165.43259,-0.2962160110473633,0.3474560081958771,-0.8740079998970032,0.699999988079071,-3.8499999046325684,-0.6299999952316284
1743895165.362126,-0.2991439998149872,0.350383996963501,-0.8749840259552002,0.5600000023841858,-2.7300000190734863,-0.699999988079071
1743895165.382126,-0.2996320128440857,0.350383996963501,-0.873520016670227,0.49000000953674316,-2.450000047683716,-0.699999988079071
1743895165.402126,-0.3050000071525574,0.3518480062484741,-0.8784000277519226,0.3499999940395355,-2.1700000762939453,-0.9100000262260437
1743895165.422126,-0.3054879903793335,0.34989601373672485,-0.8779119849205017,0.3499999940395355,-2.450000047683716,-1.2599999904632568
1743895165.442126,-0.3020719885826111,0.3484320044517517,-0.8793759942054749,0.49000000953674316,-2.869999885559082,-1.3300000429153442
1743895165.462126,-0.30109599232673645,0.34696799516677856,-0.8764479756355286,0.41999998688697815,-3.640000104904175,-1.4700000286102295
1743895165.391637,-0.293287992477417,0.3396480083465576,-0.8686400055885315,0.49000000953674316,-3.640000104904175,-1.190000057220459
1743895165.411637,-0.28889599442481995,0.34013599157333374,-0.8637599945068359,0.0,-2.380000114440918,-0.9100000262260437
1743895165.431637,-0.2879199981689453,0.3411119878292084,-0.8661999702453613,0.2800000011920929,-0.9100000262260437,-0.41999998688697815
1743895165.451637,-0.29524001479148865,0.3411119878292084,-0.8691279888153076,0.699999988079071,-0.41999998688697815,-0.14000000059604645
1743895165.471637,-0.305976003408432,0.3455039858818054,-0.881816029548645,0.699999988079071,-1.3300000429153442,-0.49000000953674316
1743895165.491637,-0.30987998843193054,0.3537999987602234,-0.8852319717407227,0.49000000953674316,-1.9600000381469727,-0.9100000262260437
1743895165.421163,-0.30744001269340515,0.3450160026550293,-0.880840003490448,0.3499999940395355,-2.940000057220459,-1.5399999618530273
1743895165.441163,-0.3054879903793335,0.3450160026550293,-0.8769360184669495,0.41999998688697815,-3.2899999618530273,-1.6799999475479126
1743895165.461163,-0.30158400535583496,0.34013599157333374,-0.8730319738388062,0.2800000011920929,-2.450000047683716,-1.6100000143051147
1743895165.481163,-0.2962160110473633,0.33720800280570984,-0.8681520223617554,0.0,-1.75,-1.190000057220459
1743895165.501163,-0.29524001479148865,0.3264720141887665,-0.873520016670227,0.14000000059604645,-1.3300000429153442,-1.0499999523162842
1743895165.521163,-0.2991439998149872,0.3269599974155426,-0.8740079998970032,0.2800000011920929,-1.2599999904632568,0.699999988079071
1743895165.468433,-0.30109599232673645,0.32842400670051575,-0.8813279867172241,0.9100000262260437,-1.8200000524520874,1.2599999904632568
1743895165.488433,-0.30744001269340515,0.33476799726486206,-0.8823040127754211,2.1700000762939453,-3.359999895095825,1.190000057220459
1743895165.5084329,-0.3089039921760559,0.3396480083465576,-0.8823040127754211,3.009999990463257,-4.619999885559082,0.7699999809265137
1743895165.5284328,-0.30451199412345886,0.34062400460243225,-0.8784000277519226,3.7100000381469727,-4.829999923706055,0.699999988079071
1743895165.5484328,-0.3006080090999603,0.3425759971141815,-0.8720560073852539,3.009999990463257,-4.409999847412109,0.9100000262260437
1743895165.5684328,-0.3001199960708618,0.3445279896259308,-0.8681520223617554,2.6600000858306885,-3.9200000762939453,1.0499999523162842
1743895165.5121331,-0.3006080090999603,0.34404000639915466,-0.8632720112800598,2.450000047683716,-3.640000104904175,1.0499999523162842
1743895165.532133,-0.30353599786758423,0.34599199891090393,-0.8637599945068359,2.450000047683716,-3.5,0.9100000262260437
1743895165.552133,-0.3084160089492798,0.34696799516677856,-0.8691279888153076,3.009999990463257,-3.5,0.9800000190734863
1743895165.572133,-0.31280800700187683,0.3425759971141815,-0.8715680241584778,4.340000152587891,-4.059999942779541,0.9100000262260437
1743895165.592133,-0.30987998843193054,0.3420880138874054,-0.8715680241584778,4.829999923706055,-3.7799999713897705,1.4700000286102295
1743895165.612133,-0.3030480146408081,0.34648001194000244,-0.873520016670227,4.619999885559082,-3.7100000381469727,1.4700000286102295
1743895165.5559912,-0.2971920073032379,0.34696799516677856,-0.8701040148735046,3.359999895095825,-3.8499999046325684,0.7699999809265137
1743895165.5759912,-0.28938400745391846,0.34355199337005615,-0.8657119870185852,3.8499999046325684,-3.7799999713897705,0.5600000023841858
1743895165.5959911,-0.28938400745391846,0.3411119878292084,-0.8603439927101135,4.199999809265137,-3.1500000953674316,0.3499999940395355
1743895165.615991,-0.2903600037097931,0.3411119878292084,-0.8588799834251404,3.8499999046325684,-1.3300000429153442,0.5600000023841858
1743895165.635991,-0.29182401299476624,0.34062400460243225,-0.8608319759368896,3.0799999237060547,0.8399999737739563,1.2599999904632568
1743895165.655991,-0.3054879903793335,0.3420880138874054,-0.873520016670227,2.1700000762939453,1.190000057220459,1.5399999618530273
1743895165.5870972,-0.3079279959201813,0.3425759971141815,-0.8827919960021973,3.0799999237060547,0.6299999952316284,1.8899999856948853
1743895165.6070971,-0.305976003408432,0.3445279896259308,-0.8852319717407227,4.130000114440918,0.20999999344348907,1.75
1743895165.6270971,-0.30744001269340515,0.34306401014328003,-0.888159990310669,4.619999885559082,-0.9100000262260437,0.9800000190734863
1743895165.647097,-0.29865598678588867,0.34062400460243225,-0.889136016368866,4.96999979019165,-2.0299999713897705,0.9100000262260437
1743895165.667097,-0.29572799801826477,0.338672012090683,-0.8871840238571167,4.340000152587891,-1.9600000381469727,1.0499999523162842
1743895165.687097,-0.29182401299476624,0.338672012090683,-0.8827919960021973,3.7100000381469727,-2.240000009536743,1.0499999523162842
1743895165.6315422,-0.2937760055065155,0.3411119878292084,-0.881816029548645,3.430000066757202,-2.0999999046325684,0.699999988079071
1743895165.6515422,-0.29816800355911255,0.34306401014328003,-0.8847439885139465,3.0799999237060547,-3.1500000953674316,0.2800000011920929
1743895165.6715422,-0.2996320128440857,0.33769598603248596,-0.8823040127754211,3.0799999237060547,-3.7100000381469727,0.6299999952316284
1743895165.6915421,-0.29767999053001404,0.34404000639915466,-0.8744959831237793,3.359999895095825,-3.7100000381469727,0.7699999809265137
1743895165.7115421,-0.2971920073032379,0.34696799516677856,-0.8701040148735046,3.359999895095825,-3.359999895095825,0.7699999809265137
1743895165.731542,-0.30109599232673645,0.34355199337005615,-0.8710799813270569,3.2899999618530273,-2.7300000190734863,0.699999988079071
1743895165.6767662,-0.29816800355911255,0.34404000639915466,-0.8710799813270569,3.1500000953674316,-1.8899999856948853,0.6299999952316284
1743895165.6967661,-0.2962160110473633,0.3420880138874054,-0.8705919981002808,2.799999952316284,-1.5399999618530273,0.6299999952316284
1743895165.716766,-0.29816800355911255,0.3416000008583069,-0.8754720091819763,2.799999952316284,-1.4700000286102295,0.5600000023841858
1743895165.736766,-0.2937760055065155,0.34062400460243225,-0.8779119849205017,2.799999952316284,-1.5399999618530273,-17.920000076293945
1743895165.756766,-0.2937760055065155,0.33476799726486206,-0.8813279867172241,1.6799999475479126,-1.6100000143051147,-0.41999998688697815
1743895165.776766,-0.2913359999656677,0.33428001403808594,-0.8827919960021973,1.6799999475479126,-2.0999999046325684,-0.5600000023841858
1743895165.721096,-0.29182401299476624,0.3328160047531128,-0.8803520202636719,1.9600000381469727,-2.0999999046325684,-0.699999988079071
1743895165.741096,-0.2942639887332916,0.330375999212265,-0.881816029548645,2.0299999713897705,-2.1700000762939453,-0.8399999737739563
1743895165.761096,-0.293287992477417,0.32842400670051575,-0.8842560052871704,1.6799999475479126,-1.6100000143051147,-0.3499999940395355
1743895165.781096,-0.29572799801826477,0.3298879861831665,-0.888159990310669,1.8200000524520874,-1.8899999856948853,0.07000000029802322
1743895165.801096,-0.2971920073032379,0.3333039879798889,-0.8906000256538391,1.6100000143051147,-2.450000047683716,0.07000000029802322
1743895165.821096,-0.2962160110473633,0.3357439935207367,-0.888159990310669,1.4700000286102295,-2.869999885559082,-0.14000000059604645
1743895165.7665443,-0.29231199622154236,0.33769598603248596,-0.8866959810256958,1.0499999523162842,-2.940000057220459,-0.14000000059604645
1743895165.7865443,-0.29524001479148865,0.33525601029396057,-0.8862079977989197,0.9100000262260437,-3.009999990463257,-0.07000000029802322
1743895165.8065443,-0.293287992477417,0.338672012090683,-0.8842560052871704,0.6299999952316284,-2.380000114440918,-0.14000000059604645
1743895165.8265443,-0.2942639887332916,0.34062400460243225,-0.8842560052871704,0.5600000023841858,-2.240000009536743,-0.07000000029802322
1743895165.8465443,-0.2971920073032379,0.3391599953174591,-0.8866959810256958,0.6299999952316284,-3.1500000953674316,-0.41999998688697815
1743895165.8665442,-0.2962160110473633,0.3362320065498352,-0.8862079977989197,1.1200000047683716,-3.430000066757202,-0.49000000953674316
1743895165.809921,-0.29280000925064087,0.338672012090683,-0.8852319717407227,1.2599999904632568,-4.269999980926514,-0.20999999344348907
1743895165.829921,-0.293287992477417,0.34404000639915466,-0.8842560052871704,-0.699999988079071,-3.7799999713897705,-0.07000000029802322
1743895165.849921,-0.29231199622154236,0.3420880138874054,-0.8852319717407227,-1.8200000524520874,-3.430000066757202,-0.20999999344348907
1743895165.869921,-0.29572799801826477,0.3479439914226532,-0.8842560052871704,-2.380000114440918,-3.7100000381469727,-0.9100000262260437
1743895165.889921,-0.29816800355911255,0.34891998767852783,-0.880840003490448,-2.1700000762939453,-3.8499999046325684,-1.5399999618530273
1743895165.909921,-0.30109599232673645,0.3450160026550293,-0.8759599924087524,-0.8399999737739563,-4.059999942779541,-2.799999952316284
1743895165.843192,-0.3025600016117096,0.33720800280570984,-0.8740079998970032,0.41999998688697815,-3.990000009536743,-3.0799999237060547
1743895165.863192,-0.30109599232673645,0.33135199546813965,-0.8715680241584778,0.7699999809265137,-3.5,-2.7300000190734863
1743895165.883192,-0.3006080090999603,0.3245199918746948,-0.8710799813270569,0.699999988079071,-3.009999990463257,-2.0299999713897705
1743895165.903192,-0.3006080090999603,0.32207998633384705,-0.8715680241584778,0.6299999952316284,-2.5899999141693115,-1.4700000286102295
1743895165.923192,-0.30451199412345886,0.3235439956188202,-0.8764479756355286,0.07000000029802322,-2.5199999809265137,-0.8399999737739563
1743895165.943192,-0.30451199412345886,0.3245199918746948,-0.8788880109786987,-0.41999998688697815,-2.0999999046325684,-0.41999998688697815
1743895165.8862233,-0.3050000071525574,0.3245199918746948,-0.880840003490448,-0.2800000011920929,-2.240000009536743,0.07000000029802322
1743895165.9062233,-0.30451199412345886,0.3274480104446411,-0.8827919960021973,-0.14000000059604645,-2.1700000762939453,0.14000000059604645
1743895165.9262233,-0.30451199412345886,0.3333039879798889,-0.880840003490448,0.49000000953674316,-2.1700000762939453,0.20999999344348907
1743895165.9462233,-0.30353599786758423,0.33428001403808594,-0.8842560052871704,0.41999998688697815,-2.7300000190734863,0.41999998688697815
1743895165.9662232,-0.30109599232673645,0.33525601029396057,-0.8852319717407227,0.9800000190734863,-3.0799999237060547,0.14000000059604645
1743895165.9862232,-0.29524001479148865,0.33769598603248596,-0.8793759942054749,0.699999988079071,-3.359999895095825,0.20999999344348907
1743895165.931454,-0.2942639887332916,0.3381839990615845,-0.880840003490448,0.14000000059604645,-3.009999990463257,0.49000000953674316
1743895165.951454,-0.29280000925064087,0.33720800280570984,-0.8823040127754211,-0.8399999737739563,-2.799999952316284,0.8399999737739563
1743895165.971454,-0.2913359999656677,0.34062400460243225,-0.8779119849205017,-1.6799999475479126,-2.380000114440918,0.9800000190734863
1743895165.991454,-0.2942639887332916,0.3450160026550293,-0.8774240016937256,-0.9800000190734863,-2.450000047683716,0.5600000023841858
1743895166.0114539,-0.293287992477417,0.3474560081958771,-0.8774240016937256,-0.14000000059604645,-2.869999885559082,-0.6299999952316284
1743895166.0314538,-0.2962160110473633,0.3445279896259308,-0.8754720091819763,0.3499999940395355,-2.940000057220459,-1.0499999523162842
1743895165.9761932,-0.2971920073032379,0.3396480083465576,-0.8744959831237793,0.6299999952316284,-2.450000047683716,-0.9100000262260437
1743895165.9961932,-0.29767999053001404,0.3411119878292084,-0.87254399061203,0.3499999940395355,-1.9600000381469727,-0.49000000953674316
1743895166.0161932,-0.2991439998149872,0.3445279896259308,-0.8788880109786987,0.0,-2.0999999046325684,-0.6299999952316284
1743895166.0361931,-0.3020719885826111,0.3425759971141815,-0.8837680220603943,0.07000000029802322,-3.8499999046325684,-1.5399999618530273
1743895166.056193,-0.2996320128440857,0.3420880138874054,-0.8774240016937256,0.6299999952316284,-4.199999809265137,-1.75
1743895166.076193,-0.3006080090999603,0.338672012090683,-0.8691279888153076,1.190000057220459,-4.760000228881836,-1.6799999475479126
1743895166.0068002,-0.29816800355911255,0.3357439935207367,-0.8642479777336121,1.4700000286102295,-4.619999885559082,-0.9100000262260437
1743895166.0268002,-0.29572799801826477,0.3381839990615845,-0.8579040169715881,1.1200000047683716,-3.0799999237060547,0.2800000011920929
1743895166.0468001,-0.28596800565719604,0.3396480083465576,-0.8588799834251404,1.0499999523162842,-1.5399999618530273,1.190000057220459
1743895166.0668,-0.28303998708724976,0.34696799516677856,-0.8618080019950867,1.3300000429153442,-0.49000000953674316,0.8399999737739563
1743895166.0868,-0.2908479869365692,0.3508720099925995,-0.8676639795303345,2.450000047683716,0.0,0.49000000953674316
1743895166.1068,-0.30109599232673645,0.3484320044517517,-0.879863977432251,3.0799999237060547,0.20999999344348907,-0.699999988079071
1743895166.051228,-0.3020719885826111,0.3479439914226532,-0.8901119828224182,1.8899999856948853,0.6299999952316284,-2.0999999046325684
1743895166.071228,-0.31085601449012756,0.3450160026550293,-0.8959680199623108,0.2800000011920929,0.14000000059604645,-4.760000228881836
1743895166.091228,-0.31036800146102905,0.33525601029396057,-0.8993840217590332,-0.9100000262260437,-1.190000057220459,-7.070000171661377
1743895166.111228,-0.3142719864845276,0.31622400879859924,-0.8906000256538391,-1.190000057220459,-4.269999980926514,-7.349999904632568
1743895166.131228,-0.31622400879859924,0.3001199960708618,-0.8759599924087524,-1.190000057220459,-5.179999828338623,-6.440000057220459
1743895166.151228,-0.318664014339447,0.2879199981689453,-0.8598560094833374,0.5600000023841858,-3.7799999713897705,-2.0999999046325684
1743895166.1129742,-0.3206160068511963,0.2791360020637512,-0.8583920001983643,1.4700000286102295,-1.399999976158142,3.430000066757202
1743895166.1329741,-0.3172000050544739,0.2903600037097931,-0.8657119870185852,2.450000047683716,-0.07000000029802322,6.230000019073486
1743895166.1529741,-0.305976003408432,0.3201279938220978,-0.879863977432251,3.0799999237060547,0.699999988079071,7.0
1743895166.172974,-0.3020719885826111,0.3484320044517517,-0.8964560031890869,3.2899999618530273,-17.920000076293945,5.809999942779541
1743895166.192974,-0.29231199622154236,0.3533119857311249,-0.9028000235557556,1.8899999856948853,-0.9800000190734863,3.7100000381469727
1743895166.212974,-0.28303998708724976,0.36209601163864136,-0.905239999294281,1.1200000047683716,-2.6600000858306885,1.8200000524520874
1743895166.143623,-0.2810879945755005,0.3659999966621399,-0.9003599882125854,-0.20999999344348907,-3.009999990463257,0.5600000023841858
1743895166.163623,-0.2810879945755005,0.36160799860954285,-0.8974320292472839,-1.3300000429153442,-3.1500000953674316,0.20999999344348907
1743895166.183623,-0.281576007604599,0.35575199127197266,-0.8920639753341675,-3.430000066757202,-3.5,-0.14000000059604645
1743895166.203623,-0.2849920094013214,0.354775995016098,-0.8857200145721436,-3.7799999713897705,-3.5,-0.14000000059604645
1743895166.223623,-0.28060001134872437,0.35282400250434875,-0.8837680220603943,-3.0799999237060547,-3.569999933242798,0.0
1743895166.243623,-0.2810879945755005,0.35526400804519653,-0.8769360184669495,-0.6299999952316284,-3.2899999618530273,0.14000000059604645
1743895166.1725311,-0.2840160131454468,0.3635599911212921,-0.8793759942054749,0.5600000023841858,-2.5199999809265137,0.20999999344348907
1743895166.192531,-0.2869440019130707,0.36502400040626526,-0.879863977432251,0.7699999809265137,-2.240000009536743,0.0
1743895166.212531,-0.28547999262809753,0.3659999966621399,-0.8803520202636719,0.9100000262260437,-2.0999999046325684,-0.49000000953674316
1743895166.232531,-0.2879199981689453,0.36453598737716675,-0.880840003490448,0.8399999737739563,-1.5399999618530273,-1.5399999618530273
1743895166.252531,-0.2884080111980438,0.3659999966621399,-0.8813279867172241,0.3499999940395355,-1.6100000143051147,-1.9600000381469727
1743895166.272531,-0.2908479869365692,0.3596560060977936,-0.881816029548645,0.8399999737739563,-2.5199999809265137,-3.9200000762939453
1743895166.233299,-0.29182401299476624,0.3567279875278473,-0.8769360184669495,0.9800000190734863,-3.569999933242798,-4.900000095367432
1743895166.253299,-0.29475200176239014,0.3508720099925995,-0.8784000277519226,1.1200000047683716,-3.8499999046325684,-5.670000076293945
1743895166.273299,-0.29572799801826477,0.3474560081958771,-0.873520016670227,0.8399999737739563,-4.130000114440918,-6.440000057220459
1743895166.293299,-0.29816800355911255,0.3294000029563904,-0.8676639795303345,0.6299999952316284,-3.7799999713897705,-6.300000190734863
1743895166.313299,-0.3084160089492798,0.32305601239204407,-0.8618080019950867,0.41999998688697815,-3.430000066757202,-6.230000019073486
1743895166.333299,-0.3113439977169037,0.3089039921760559,-0.8598560094833374,1.8899999856948853,-3.0799999237060547,-5.25
1743895166.246334,-0.3113439977169037,0.3050000071525574,-0.8627840280532837,2.940000057220459,-2.799999952316284,-3.569999933242798
1743895166.266334,-0.31378400325775146,0.30353599786758423,-0.8622959852218628,4.059999942779541,-1.6799999475479126,-1.75
1743895166.286334,-0.31280800700187683,0.305976003408432,-0.8627840280532837,3.7100000381469727,-0.7699999809265137,0.6299999952316284
1743895166.306334,-0.31085601449012756,0.31622400879859924,-0.8701040148735046,3.2200000286102295,0.5600000023841858,1.2599999904632568
1743895166.326334,-0.3113439977169037,0.3215920031070709,-0.8793759942054749,3.0799999237060547,0.699999988079071,1.3300000429153442
1743895166.346334,-0.30987998843193054,0.32598400115966797,-0.8847439885139465,2.7300000190734863,0.8399999737739563,0.49000000953674316
1743895166.29204,-0.3025600016117096,0.33428001403808594,-0.8930400013923645,1.3300000429153442,-17.780000686645508,-1.399999976158142
1743895166.31204,-0.29524001479148865,0.32891198992729187,-0.8974320292472839,0.3499999940395355,-1.6100000143051147,-2.309999942779541
1743895166.33204,-0.2942639887332916,0.32549598813056946,-0.8964560031890869,-0.2800000011920929,-1.9600000381469727,-2.240000009536743
1743895166.35204,-0.29865598678588867,0.318664014339447,-0.8847439885139465,-1.0499999523162842,-2.5899999141693115,-2.0999999046325684
1743895166.37204,-0.30158400535583496,0.3172000050544739,-0.8857200145721436,-2.309999942779541,-2.380000114440918,-1.0499999523162842
1743895166.39204,-0.30646398663520813,0.31915199756622314,-0.8847439885139465,-1.9600000381469727,-2.7300000190734863,-0.2800000011920929
1743895166.3520892,-0.30987998843193054,0.31915199756622314,-0.8827919960021973,-1.6100000143051147,-2.940000057220459,0.699999988079071
1743895166.3720891,-0.305976003408432,0.32793599367141724,-0.8769360184669495,0.14000000059604645,-3.430000066757202,0.9800000190734863
1743895166.3920891,-0.2967039942741394,0.3337920010089874,-0.873520016670227,1.75,-3.2200000286102295,1.0499999523162842
1743895166.412089,-0.29475200176239014,0.3357439935207367,-0.87254399061203,2.0999999046325684,-2.450000047683716,0.7699999809265137
1743895166.432089,-0.29280000925064087,0.3381839990615845,-0.8720560073852539,1.3300000429153442,-1.5399999618530273,0.8399999737739563
1743895166.452089,-0.2884080111980438,0.3416000008583069,-0.8754720091819763,0.5600000023841858,-1.399999976158142,1.190000057220459
1743895166.381671,-0.2908479869365692,0.34940800070762634,-0.8744959831237793,0.6299999952316284,-1.399999976158142,1.1200000047683716
1743895166.401671,-0.29182401299476624,0.3567279875278473,-0.880840003490448,0.49000000953674316,-2.0299999713897705,0.14000000059604645
1743895166.421671,-0.293287992477417,0.35624000430107117,-0.8813279867172241,0.3499999940395355,-2.1700000762939453,-0.699999988079071
1743895166.441671,-0.2908479869365692,0.34940800070762634,-0.880840003490448,0.41999998688697815,-1.75,-1.2599999904632568
1743895166.4616709,-0.2908479869365692,0.3513599932193756,-0.8788880109786987,0.9800000190734863,-1.4700000286102295,-1.399999976158142
1743895166.4816709,-0.29280000925064087,0.34696799516677856,-0.8837680220603943,1.3300000429153442,-0.9100000262260437,-2.1700000762939453
1743895166.4264212,-0.2942639887332916,0.3450160026550293,-0.8862079977989197,1.5399999618530273,-1.0499999523162842,-3.0799999237060547
1743895166.4464211,-0.29475200176239014,0.34013599157333374,-0.8871840238571167,1.5399999618530273,-1.399999976158142,-3.640000104904175
1743895166.4664211,-0.2942639887332916,0.33525601029396057,-0.8940160274505615,0.699999988079071,-2.1700000762939453,-3.9200000762939453
1743895166.486421,-0.29865598678588867,0.3245199918746948,-0.8954799771308899,-1.6799999475479126,-2.869999885559082,-3.7100000381469727
1743895166.506421,-0.30158400535583496,0.31280800700187683,-0.8862079977989197,-2.7300000190734863,-4.059999942779541,-3.0799999237060547
1743895166.526421,-0.30451199412345886,0.31280800700187683,-0.87254399061203,-1.4700000286102295,-4.829999923706055,-2.450000047683716
1743895166.474751,-0.30353599786758423,0.3113439977169037,-0.8730319738388062,-0.2800000011920929,-4.690000057220459,-1.8899999856948853
1743895166.494751,-0.30646398663520813,0.3093920052051544,-0.8681520223617554,0.7699999809265137,-4.480000019073486,-0.699999988079071
1743895166.514751,-0.3089039921760559,0.30987998843193054,-0.8740079998970032,1.399999976158142,-3.569999933242798,-0.41999998688697815
1743895166.534751,-0.30744001269340515,0.3123199939727783,-0.8710799813270569,0.9100000262260437,-2.869999885559082,1.190000057220459
1743895166.554751,-0.3025600016117096,0.3201279938220978,-0.8754720091819763,1.6799999475479126,-3.1500000953674316,1.6799999475479126
1743895166.574751,-0.3020719885826111,0.33476799726486206,-0.8769360184669495,1.9600000381469727,-3.430000066757202,0.5600000023841858
1743895166.5314572,-0.3030480146408081,0.33671998977661133,-0.8779119849205017,0.9800000190734863,-3.359999895095825,-0.07000000029802322
1743895166.5514572,-0.30158400535583496,0.3333039879798889,-0.8774240016937256,-1.4700000286102295,-3.0799999237060547,0.20999999344348907
1743895166.5714571,-0.3025600016117096,0.3323279917240143,-0.8749840259552002,-1.8899999856948853,-2.309999942779541,0.3499999940395355
1743895166.5914571,-0.3025600016117096,0.3328160047531128,-0.8759599924087524,-1.2599999904632568,-2.240000009536743,0.07000000029802322
1743895166.611457,-0.30451199412345886,0.330375999212265,-0.8769360184669495,-0.699999988079071,-2.869999885559082,-0.20999999344348907
1743895166.631457,-0.30402401089668274,0.3308640122413635,-0.8837680220603943,0.07000000029802322,-3.2899999618530273,0.0
1743895166.546118,-0.3030480146408081,0.3298879861831665,-0.8862079977989197,0.49000000953674316,-4.059999942779541,-0.07000000029802322
1743895166.566118,-0.30158400535583496,0.32793599367141724,-0.8852319717407227,0.41999998688697815,-4.340000152587891,0.20999999344348907
1743895166.586118,-0.3001199960708618,0.32891198992729187,-0.8827919960021973,0.49000000953674316,-4.829999923706055,0.49000000953674316
1743895166.606118,-0.2967039942741394,0.3274480104446411,-0.8857200145721436,0.6299999952316284,-5.179999828338623,0.5600000023841858
1743895166.626118,-0.29865598678588867,0.3298879861831665,-0.8837680220603943,0.8399999737739563,-5.53000020980835,0.5600000023841858
1743895166.646118,-0.29816800355911255,0.3274480104446411,-0.8813279867172241,-0.3499999940395355,-5.670000076293945,0.49000000953674316
1743895166.5920022,-0.2962160110473633,0.3381839990615845,-0.9028000235557556,-0.9800000190734863,-5.670000076293945,3.009999990463257
1743895166.6120021,-0.29572799801826477,0.3484320044517517,-0.8988959789276123,-2.940000057220459,-5.670000076293945,0.9800000190734863
1743895166.632002,-0.29231199622154236,0.3484320044517517,-0.880840003490448,-2.869999885559082,-6.369999885559082,-1.8899999856948853
1743895166.652002,-0.30109599232673645,0.3298879861831665,-0.8901119828224182,0.699999988079071,-6.650000095367432,-1.2599999904632568
1743895166.672002,-0.3079279959201813,0.3308640122413635,-0.8906000256538391,0.6299999952316284,-6.789999961853027,1.5399999618530273
1743895166.692002,-0.3050000071525574,0.3445279896259308,-0.8930400013923645,-1.0499999523162842,-6.510000228881836,1.5399999618530273
1743895166.65157,-0.30109599232673645,0.34648001194000244,-0.8925520181655884,-2.5199999809265137,-6.300000190734863,1.3300000429153442
1743895166.67157,-0.30353599786758423,0.34013599157333374,-0.8954799771308899,-2.6600000858306885,-7.349999904632568,1.1200000047683716
1743895166.69157,-0.30353599786758423,0.33671998977661133,-0.8871840238571167,-0.14000000059604645,-8.539999961853027,0.2800000011920929
1743895166.71157,-0.29865598678588867,0.33671998977661133,-0.8671759963035583,1.5399999618530273,-8.539999961853027,-0.49000000953674316
1743895166.73157,-0.29816800355911255,0.33476799726486206,-0.8666880130767822,1.399999976158142,-7.489999771118164,1.0499999523162842
1743895166.75157,-0.29816800355911255,0.3328160047531128,-0.8657119870185852,-0.3499999940395355,-6.369999885559082,2.7300000190734863
1743895166.681659,-0.2967039942741394,0.3425759971141815,-0.8652240037918091,-2.869999885559082,-4.829999923706055,3.569999933242798
1743895166.701659,-0.3079279959201813,0.34696799516677856,-0.8691279888153076,-5.880000114440918,-4.199999809265137,2.940000057220459
1743895166.721659,-0.2996320128440857,0.350383996963501,-0.8608319759368896,-4.340000152587891,-4.550000190734863,2.0299999713897705
1743895166.741659,-0.3030480146408081,0.3537999987602234,-0.8593680262565613,0.699999988079071,-4.619999885559082,-0.20999999344348907
1743895166.761659,-0.30353599786758423,0.3542880117893219,-0.8583920001983643,2.240000009536743,-4.059999942779541,-1.6100000143051147
1743895166.781659,-0.3020719885826111,0.34599199891090393,-0.8598560094833374,2.7300000190734863,-3.7799999713897705,-1.1200000047683716
1743895166.711486,-0.30451199412345886,0.3391599953174591,-0.8642479777336121,2.940000057220459,-3.0799999237060547,-0.41999998688697815
1743895166.731486,-0.3050000071525574,0.3396480083465576,-0.8666880130767822,2.5199999809265137,-2.869999885559082,0.20999999344348907
1743895166.751486,-0.30451199412345886,0.3445279896259308,-0.8715680241584778,1.75,-2.309999942779541,0.49000000953674316
1743895166.771486,-0.3089039921760559,0.3450160026550293,-0.8764479756355286,1.1200000047683716,-2.5199999809265137,0.07000000029802322
1743895166.791486,-0.3093920052051544,0.34404000639915466,-0.8744959831237793,1.0499999523162842,-2.5199999809265137,-0.2800000011920929
1743895166.811486,-0.3089039921760559,0.34306401014328003,-0.8730319738388062,2.240000009536743,-2.309999942779541,-0.41999998688697815
1743895166.7565382,-0.3050000071525574,0.34062400460243225,-0.8769360184669495,2.940000057220459,-2.1700000762939453,-0.7699999809265137
1743895166.7765381,-0.3054879903793335,0.3396480083465576,-0.8803520202636719,2.799999952316284,-2.380000114440918,-1.0499999523162842
1743895166.796538,-0.30109599232673645,0.338672012090683,-0.881816029548645,1.5399999618530273,-2.869999885559082,-0.9800000190734863
1743895166.816538,-0.30353599786758423,0.33671998977661133,-0.8857200145721436,1.3300000429153442,-3.1500000953674316,-1.3300000429153442
1743895166.836538,-0.3084160089492798,0.3362320065498352,-0.8832799792289734,1.75,-3.7100000381469727,-1.6100000143051147
1743895166.856538,-0.3084160089492798,0.3323279917240143,-0.8832799792289734,1.5399999618530273,-4.269999980926514,-2.0299999713897705
1743895166.832903,-0.3089039921760559,0.3298879861831665,-0.8827919960021973,1.399999976158142,-4.690000057220459,-1.6100000143051147
1743895166.852903,-0.30987998843193054,0.32598400115966797,-0.880840003490448,1.0499999523162842,-4.760000228881836,-1.0499999523162842
1743895166.8729029,-0.3113439977169037,0.3245199918746948,-0.8793759942054749,0.9100000262260437,-4.690000057220459,0.0
1743895166.8929029,-0.31280800700187683,0.32305601239204407,-0.8740079998970032,0.3499999940395355,-4.269999980926514,0.2800000011920929
1743895166.9129028,-0.31036800146102905,0.32549598813056946,-0.873520016670227,0.7699999809265137,-4.130000114440918,0.699999988079071
1743895166.9329028,-0.3123199939727783,0.3274480104446411,-0.8764479756355286,1.4700000286102295,-4.199999809265137,0.5600000023841858
1743895166.8477383,-0.3093920052051544,0.3308640122413635,-0.8784000277519226,1.3300000429153442,-4.340000152587891,0.41999998688697815
1743895166.8677382,-0.31036800146102905,0.33525601029396057,-0.8813279867172241,1.2599999904632568,-4.340000152587891,0.2800000011920929
1743895166.8877382,-0.3093920052051544,0.3381839990615845,-0.8803520202636719,0.9100000262260437,-4.480000019073486,0.20999999344348907
1743895166.9077382,-0.31036800146102905,0.33720800280570984,-0.8764479756355286,0.2800000011920929,-4.480000019073486,0.20999999344348907
1743895166.9277382,-0.3025600016117096,0.3396480083465576,-0.8720560073852539,0.2800000011920929,-4.340000152587891,0.2800000011920929
1743895166.9477382,-0.2991439998149872,0.3381839990615845,-0.8705919981002808,0.41999998688697815,-4.340000152587891,0.07000000029802322
1743895166.892977,-0.29865598678588867,0.33769598603248596,-0.8691279888153076,0.6299999952316284,-4.199999809265137,-0.07000000029802322
1743895166.912977,-0.3020719885826111,0.338672012090683,-0.8657119870185852,1.2599999904632568,-3.990000009536743,-0.14000000059604645
1743895166.932977,-0.305976003408432,0.3420880138874054,-0.8686400055885315,1.2599999904632568,-2.869999885559082,-0.2800000011920929
1743895166.952977,-0.31085601449012756,0.3425759971141815,-0.8740079998970032,-0.07000000029802322,-1.3300000429153442,-0.9100000262260437
1743895166.972977,-0.31378400325775146,0.3416000008583069,-0.8769360184669495,-0.9800000190734863,-1.1200000047683716,-0.7699999809265137
1743895166.992977,-0.318664014339447,0.33671998977661133,-0.8813279867172241,-1.190000057220459,-1.6799999475479126,-0.07000000029802322
1743895166.93756,-0.3118320107460022,0.3328160047531128,-0.8784000277519226,-0.5600000023841858,-3.640000104904175,0.14000000059604645
1743895166.95756,-0.3084160089492798,0.3357439935207367,-0.8710799813270569,0.9100000262260437,-4.409999847412109,0.699999988079071
1743895166.97756,-0.3079279959201813,0.33720800280570984,-0.8642479777336121,1.8200000524520874,-3.8499999046325684,0.9100000262260437
1743895166.99756,-0.305976003408432,0.33428001403808594,-0.8637599945068359,2.0999999046325684,-2.380000114440918,1.190000057220459
1743895167.01756,-0.3118320107460022,0.3411119878292084,-0.8686400055885315,2.5899999141693115,-1.75,0.9100000262260437
1743895167.03756,-0.3123199939727783,0.34696799516677856,-0.8744959831237793,2.869999885559082,-1.1200000047683716,0.5600000023841858
1743895166.982151,-0.30987998843193054,0.3445279896259308,-0.8803520202636719,1.8899999856948853,-1.2599999904632568,-0.9800000190734863
1743895167.002151,-0.30987998843193054,0.3420880138874054,-0.8803520202636719,1.1200000047683716,-1.6799999475479126,-1.399999976158142
1743895167.022151,-0.30695199966430664,0.3362320065498352,-0.8744959831237793,1.2599999904632568,-2.0299999713897705,-1.3300000429153442
1743895167.042151,-0.3089039921760559,0.33135199546813965,-0.8749840259552002,1.399999976158142,-1.8200000524520874,-0.6299999952316284
1743895167.062151,-0.31280800700187683,0.32500800490379333,-0.8759599924087524,1.0499999523162842,-1.5399999618530273,-0.20999999344348907
1743895167.082151,-0.3118320107460022,0.3264720141887665,-0.880840003490448,0.6299999952316284,-1.5399999618530273,0.41999998688697815
1743895167.0276423,-0.3123199939727783,0.32891198992729187,-0.8788880109786987,0.9800000190734863,-2.0999999046325684,1.399999976158142
1743895167.0476422,-0.31329599022865295,0.32842400670051575,-0.8827919960021973,1.2599999904632568,-2.6600000858306885,1.2599999904632568
1743895167.0676422,-0.305976003408432,0.3362320065498352,-0.881816029548645,2.0999999046325684,-2.5899999141693115,1.1200000047683716
1743895167.0876422,-0.3054879903793335,0.3381839990615845,-0.881816029548645,1.9600000381469727,-2.5899999141693115,0.699999988079071
1743895167.1076422,-0.3030480146408081,0.3357439935207367,-0.8788880109786987,1.2599999904632568,-2.380000114440918,-0.14000000059604645
1743895167.1276422,-0.29865598678588867,0.3328160047531128,-0.8784000277519226,1.6799999475479126,-2.6600000858306885,-0.41999998688697815
1743895167.0726302,-0.3030480146408081,0.3240320086479187,-0.8749840259552002,1.9600000381469727,-2.869999885559082,17.850000381469727
1743895167.0926301,-0.30646398663520813,0.32598400115966797,-0.8749840259552002,2.7300000190734863,-3.009999990463257,0.3499999940395355
1743895167.1126301,-0.3118320107460022,0.330375999212265,-0.8803520202636719,2.940000057220459,-3.009999990463257,0.0
1743895167.13263,-0.3118320107460022,0.3298879861831665,-0.8852319717407227,2.940000057220459,-3.0799999237060547,-0.07000000029802322
1743895167.15263,-0.3152480125427246,0.3308640122413635,-0.8842560052871704,2.5199999809265137,-3.9200000762939453,0.14000000059604645
1743895167.17263,-0.3181760013103485,0.3294000029563904,-0.8862079977989197,1.8899999856948853,-4.059999942779541,0.41999998688697815
1743895167.132739,-0.3201279938220978,0.32793599367141724,-0.8847439885139465,1.8200000524520874,-5.039999961853027,0.41999998688697815
1743895167.152739,-0.31671199202537537,0.32549598813056946,-0.8788880109786987,2.799999952316284,-6.369999885559082,0.0
1743895167.172739,-0.30987998843193054,0.3264720141887665,-0.8705919981002808,2.6600000858306885,-7.139999866485596,-0.2800000011920929
1743895167.192739,-0.3050000071525574,0.3235439956188202,-0.8642479777336121,2.450000047683716,-6.789999961853027,-0.14000000059604645
1743895167.212739,-0.30451199412345886,0.31768798828125,-0.8613200187683105,2.309999942779541,-6.159999847412109,0.699999988079071
1743895167.232739,-0.3089039921760559,0.3201279938220978,-0.8603439927101135,2.380000114440918,-5.039999961853027,0.9100000262260437
1743895167.135539,-0.31573599576950073,0.32305601239204407,-0.8603439927101135,2.1700000762939453,-4.269999980926514,2.240000009536743
1743895167.155539,-0.3245199918746948,0.3201279938220978,-0.8618080019950867,1.6100000143051147,-3.009999990463257,3.2200000286102295
1743895167.175539,-0.3264720141887665,0.3215920031070709,-0.8652240037918091,0.9100000262260437,-2.450000047683716,4.690000057220459
1743895167.195539,-0.3298879861831665,0.3240320086479187,-0.8681520223617554,0.8399999737739563,-2.6600000858306885,5.25
1743895167.215539,-0.3337920010089874,0.3235439956188202,-0.8691279888153076,1.75,-3.009999990463257,5.25
1743895167.235539,-0.3269599974155426,0.3269599974155426,-0.8676639795303345,4.340000152587891,-4.059999942779541,4.760000228881836
1743895167.2050292,-0.3240320086479187,0.32842400670051575,-0.8608319759368896,7.28000020980835,-4.760000228881836,3.7799999713897705
1743895167.2250292,-0.31036800146102905,0.32598400115966797,-0.8583920001983643,7.699999809265137,-3.2200000286102295,3.640000104904175
1743895167.2450292,-0.3084160089492798,0.31768798828125,-0.8588799834251404,7.699999809265137,-2.450000047683716,4.340000152587891
1743895167.2650292,-0.3054879903793335,0.31671199202537537,-0.8627840280532837,7.489999771118164,-2.0299999713897705,4.550000190734863
1743895167.2850292,-0.3079279959201813,0.32207998633384705,-0.8710799813270569,6.789999961853027,-1.75,5.670000076293945
1743895167.3050292,-0.3093920052051544,0.32305601239204407,-0.87254399061203,4.900000095367432,-2.0299999713897705,5.670000076293945
1743895167.237539,-0.3118320107460022,0.32500800490379333,-0.8715680241584778,4.900000095367432,-2.6600000858306885,5.739999771118164
1743895167.257539,-0.3084160089492798,0.32256799936294556,-0.8701040148735046,6.789999961853027,-3.009999990463257,5.039999961853027
1743895167.277539,-0.31280800700187683,0.32305601239204407,-0.8696159720420837,7.630000114440918,-3.009999990463257,4.619999885559082
1743895167.297539,-0.31378400325775146,0.32207998633384705,-0.8671759963035583,8.050000190734863,-2.0999999046325684,4.829999923706055
1743895167.317539,-0.31915199756622314,0.318664014339447,-0.8681520223617554,7.420000076293945,-1.4700000286102295,5.179999828338623
1743895167.337539,-0.31573599576950073,0.31573599576950073,-0.8686400055885315,7.28000020980835,-0.8399999737739563,6.369999885559082
1743895167.2670002,-0.3118320107460022,0.3172000050544739,-0.8749840259552002,7.840000152587891,-0.9100000262260437,6.440000057220459
1743895167.2870002,-0.32500800490379333,0.3206160068511963,-0.8769360184669495,8.75,-1.9600000381469727,5.599999904632568
1743895167.3070002,-0.32256799936294556,0.31671199202537537,-0.873520016670227,10.289999961853027,-2.1700000762939453,5.110000133514404
1743895167.3270001,-0.31671199202537537,0.3147599995136261,-0.87254399061203,10.430000305175781,1.3300000429153442,4.059999942779541
1743895167.3470001,-0.3172000050544739,0.3118320107460022,-0.8642479777336121,9.170000076293945,2.7300000190734863,8.890000343322754
1743895167.367,-0.3084160089492798,0.2996320128440857,-0.8852319717407227,9.9399995803833,-0.5600000023841858,8.75
1743895167.326814,-0.30402401089668274,0.31329599022865295,-0.880840003490448,11.829999923706055,-1.6799999475479126,7.630000114440918
1743895167.346814,-0.29865598678588867,0.31036800146102905,-0.8769360184669495,13.300000190734863,-1.8899999856948853,9.029999732971191
1743895167.366814,-0.3025600016117096,0.30646398663520813,-0.8793759942054749,13.15999984741211,-2.0299999713897705,10.779999732971191
1743895167.3868139,-0.3118320107460022,0.31622400879859924,-0.8842560052871704,13.369999885559082,-1.8899999856948853,11.130000114440918
1743895167.4068139,-0.31768798828125,0.32549598813056946,-0.8788880109786987,16.309999465942383,0.20999999344348907,9.029999732971191
1743895167.4268138,-0.32500800490379333,0.3274480104446411,-0.8691279888153076,16.520000457763672,11.40999984741211,8.960000038146973
1743895167.358246,-0.3089039921760559,0.31085601449012756,-0.8974320292472839,15.609999656677246,6.650000095367432,11.6899995803833
1743895167.378246,-0.30987998843193054,0.3084160089492798,-0.9110959768295288,20.3700008392334,-0.7699999809265137,11.829999923706055
1743895167.398246,-0.31085601449012756,0.3337920010089874,-0.8988959789276123,20.93000030517578,-1.9600000381469727,9.729999542236328
1743895167.418246,-0.30987998843193054,0.3294000029563904,-0.8886479735374451,24.43000030517578,-2.869999885559082,8.609999656677246
1743895167.438246,-0.30158400535583496,0.31280800700187683,-0.8945040106773376,24.780000686645508,-3.430000066757202,7.630000114440918
1743895167.458246,-0.29865598678588867,0.3093920052051544,-0.8871840238571167,21.350000381469727,1.75,6.090000152587891
1743895167.445926,-0.2971920073032379,0.3079279959201813,-0.8740079998970032,19.389999389648438,3.1500000953674316,7.489999771118164
1743895167.465926,-0.2786479890346527,0.2942639887332916,-0.8754720091819763,17.920000076293945,0.2800000011920929,7.139999866485596
1743895167.485926,-0.2845039963722229,0.29182401299476624,-0.881816029548645,19.600000381469727,-3.7799999713897705,6.300000190734863
1743895167.505926,-0.2913359999656677,0.28889599442481995,-0.8676639795303345,22.399999618530273,-5.110000133514404,5.110000133514404
1743895167.5259259,-0.29524001479148865,0.27962398529052734,-0.8622959852218628,22.399999618530273,-4.480000019073486,6.789999961853027
1743895167.5459259,-0.29816800355911255,0.26791200041770935,-0.8681520223617554,21.559999465942383,-3.569999933242798,8.960000038146973
1743895167.4620712,-0.28938400745391846,0.2630319893360138,-0.8759599924087524,20.09000015258789,-3.2899999618530273,9.800000190734863
1743895167.4820712,-0.28645598888397217,0.2723039984703064,-0.8793759942054749,19.110000610351562,-2.799999952316284,10.220000267028809
1743895167.5020711,-0.2879199981689453,0.281576007604599,-0.881816029548645,15.1899995803833,0.49000000953674316,8.1899995803833
1743895167.5220711,-0.2879199981689453,0.28547999262809753,-0.8847439885139465,11.40999984741211,5.039999961853027,7.909999847412109
1743895167.542071,-0.2601040005683899,0.2908479869365692,-0.9037759900093079,7.489999771118164,3.5,7.630000114440918
1743895167.562071,-0.27376800775527954,0.29865598678588867,-0.9174399971961975,3.7100000381469727,2.5899999141693115,5.809999942779541
1743895167.493611,-0.26742398738861084,0.29524001479148865,-0.9164639711380005,1.75,2.5899999141693115,3.9200000762939453
1743895167.513611,-0.2698639929294586,0.293287992477417,-0.9184160232543945,-0.2800000011920929,1.190000057220459,1.1200000047683716
1743895167.533611,-0.2786479890346527,0.28645598888397217,-0.9237840175628662,-0.7699999809265137,-1.8899999856948853,-1.190000057220459
1743895167.553611,-0.28060001134872437,0.27083998918533325,-0.9340320229530334,0.14000000059604645,-2.5899999141693115,-2.380000114440918
1743895167.573611,-0.2874319851398468,0.2596159875392914,-0.9291520118713379,1.190000057220459,-5.460000038146973,-2.450000047683716
1743895167.593611,-0.3006080090999603,0.2454639971256256,-0.9272000193595886,-0.9800000190734863,-6.510000228881836,0.6299999952316284
1743895167.554524,-0.30158400535583496,0.24009600281715393,-0.9286640286445618,-3.2899999618530273,-6.650000095367432,3.8499999046325684
1743895167.574524,-0.29572799801826477,0.2298479974269867,-0.929639995098114,-5.949999809265137,-6.230000019073486,9.3100004196167
1743895167.594524,-0.27083998918533325,0.2122800052165985,-0.9452559947967529,-7.489999771118164,-5.809999942779541,18.829999923706055
1743895167.614524,-0.2654719948768616,0.1844639927148819,-0.9764879941940308,-11.0600004196167,-6.579999923706055,24.360000610351562
1743895167.6345239,-0.28255200386047363,0.16787199676036835,-1.0155279636383057,-18.479999542236328,-6.019999980926514,29.540000915527344
1743895167.6545238,-0.3123199939727783,0.17763200402259827,-1.0409040451049805,-28.420000076293945,-9.100000381469727,41.22999954223633
1743895167.5821242,-0.2898719906806946,0.15323199331760406,-1.0955599546432495,-30.239999771118164,-32.7599983215332,52.63999938964844
1743895167.6021242,-0.32842400670051575,0.18690399825572968,-1.1267919540405273,-30.520000457763672,-42.97999954223633,52.290000915527344
1743895167.6221242,-0.3089039921760559,0.19764000177383423,-1.083847999572754,-25.479999542236328,-55.02000045776367,51.72999954223633
1743895167.6421242,-0.30987998843193054,0.20788800716400146,-1.0228480100631714,-18.479999542236328,-65.7300033569336,50.400001525878906
1743895167.6621242,-0.30158400535583496,0.20739999413490295,-0.9628239870071411,-17.010000228881836,-66.98999786376953,52.9900016784668
1743895167.6821241,-0.28303998708724976,0.23082399368286133,-0.9530640244483948,-18.1299991607666,-61.66999816894531,57.04999923706055
1743895167.6282613,-0.2781600058078766,0.2698639929294586,-0.9374480247497559,-29.959999084472656,-57.189998626708984,57.68000030517578
1743895167.6482613,-0.34306401014328003,0.3172000050544739,-0.904263973236084,-48.439998626708984,-43.33000183105469,46.83000183105469
1743895167.6682613,-0.25863999128341675,0.3333039879798889,-0.9013360142707825,-62.93000030517578,-50.33000183105469,71.95999908447266
1743895167.6882613,-0.2810879945755005,0.38649600744247437,-0.913536012172699,-89.25,-44.52000045776367,57.04999923706055
1743895167.7082613,-0.2884080111980438,0.4572559893131256,-0.8715680241584778,-98.13999938964844,-39.130001068115234,51.029998779296875
1743895167.7282612,-0.3089039921760559,0.4670160114765167,-0.8261839747428894,-131.80999755859375,-36.75,52.9900016784668
1743895167.6582072,-0.34989601373672485,0.43724799156188965,-0.7598159909248352,-181.5800018310547,-11.6899995803833,36.470001220703125
1743895167.6782072,-0.27425599098205566,0.40406399965286255,-0.7437120079994202,-190.1199951171875,-22.959999084472656,66.08000183105469
1743895167.6982071,-0.31036800146102905,0.41040799021720886,-0.7324879765510559,-200.27000427246094,-16.030000686645508,52.9900016784668
1743895167.7182071,-0.3181760013103485,0.47628799080848694,-0.6705120205879211,-214.97000122070312,-7.489999771118164,56.84000015258789
1743895167.738207,-0.2849920094013214,0.5036159753799438,-0.6578239798545837,-238.35000610351562,0.3499999940395355,48.22999954223633
1743895167.758207,-0.26449599862098694,0.5260639786720276,-0.6129279732704163,-265.8599853515625,14.069999694824219,58.79999923706055
1743895167.74706,-0.2747440040111542,0.5607119798660278,-0.6021919846534729,-251.08999633789062,18.059999465942383,50.81999969482422
1743895167.76706,-0.29767999053001404,0.5680320262908936,-0.6080480217933655,-248.22000122070312,9.869999885559082,39.7599983215332
1743895167.78706,-0.28011199831962585,0.5919439792633057,-0.5929200053215027,-233.4499969482422,-7.980000019073486,19.389999389648438
1743895167.80706,-0.2840160131454468,0.6451359987258911,-0.6290320158004761,-202.7899932861328,-11.0600004196167,8.329999923706055
1743895167.82706,-0.31622400879859924,0.6832000017166138,-0.6309840083122253,-169.39999389648438,-24.43000030517578,-6.019999980926514
1743895167.84706,-0.32598400115966797,0.6836879849433899,-0.5987759828567505,-165.47999572753906,-13.4399995803833,-40.66999816894531
1743895167.749838,-0.31964001059532166,0.6832000017166138,-0.5929200053215027,-187.4600067138672,-11.0600004196167,-40.529998779296875
1743895167.769838,-0.354775995016098,0.6495280265808105,-0.6178079843521118,-193.27000427246094,-10.359999656677246,-40.95000076293945
1743895167.789838,-0.3577040135860443,0.6412320137023926,-0.6495280265808105,-203.2100067138672,-15.1899995803833,-35.4900016784668
1743895167.809838,-0.36844000220298767,0.6885679960250854,-0.6968640089035034,-212.52000427246094,-41.58000183105469,-21.06999969482422
1743895167.829838,-0.3816159963607788,0.7554240226745605,-0.7183359861373901,-217.4199981689453,-70.69999694824219,-15.680000305175781
1743895167.849838,-0.399183988571167,0.7593280076980591,-0.718824028968811,-221.1300048828125,-107.0999984741211,-15.399999618530273
1743895167.792423,-0.41919198632240295,0.7759199738502502,-0.6919839978218079,-222.17999267578125,-131.6699981689453,-16.3799991607666
1743895167.812423,-0.38942399621009827,0.7671359777450562,-0.6490399837493896,-228.47999572753906,-147.13999938964844,-16.65999984741211
1743895167.832423,-0.3728320002555847,0.7373679876327515,-0.5753520131111145,-234.00999450683594,-161.27999877929688,-12.949999809265137
1743895167.852423,-0.4065040051937103,0.36209601163864136,-0.2913359999656677,101.5,-162.3300018310547,-24.989999771118164
1743895167.872423,-0.21130399405956268,0.652944028377533,-0.07807999849319458,56.90999984741211,-57.33000183105469,-7.489999771118164
1743895167.892423,-0.3030480146408081,0.889136016368866,-0.2176479995250702,18.059999465942383,6.860000133514404,-23.100000381469727
1743895167.8224971,-0.3142719864845276,0.8940160274505615,-0.5119119882583618,-22.329999923706055,9.65999984741211,-36.88999938964844
1743895167.842497,-0.32500800490379333,0.7925119996070862,-0.5997520089149475,-35.560001373291016,-7.630000114440918,-47.459999084472656
1743895167.862497,-0.3391599953174591,0.767624020576477,-0.5597360134124756,-22.81999969482422,-21.350000381469727,-40.95000076293945
1743895167.882497,-0.44652000069618225,0.7768959999084473,-0.5006880164146423,-6.650000095367432,-44.79999923706055,-27.860000610351562
1743895167.902497,-0.4455440044403076,0.8344799876213074,-0.4997119903564453,-3.430000066757202,-57.81999969482422,-20.15999984741211
1743895167.922497,-0.4440799951553345,0.8164240121841431,-0.5729119777679443,-1.6799999475479126,-75.87999725341797,-8.960000038146973
1743895167.867393,-0.40455201268196106,0.7061359882354736,-0.5436319708824158,2.5199999809265137,-100.23999786376953,8.539999961853027
1743895167.887393,-0.3479439914226532,0.6758800148963928,-0.47336000204086304,19.040000915527344,-113.81999969482422,5.389999866485596
1743895167.907393,-0.39772000908851624,0.8086159825325012,-0.39479199051856995,9.239999771118164,-75.38999938964844,1.3300000429153442
1743895167.927393,-0.45286399126052856,0.8749840259552002,-0.18544000387191772,-32.060001373291016,-49.90999984741211,9.800000190734863
1743895167.947393,-0.38015198707580566,0.8037359714508057,-0.4182159900665283,-47.810001373291016,-23.59000015258789,9.3100004196167
1743895167.967393,-0.3962559998035431,0.8510720133781433,-0.44700801372528076,-41.02000045776367,-22.68000030517578,9.100000381469727
1743895167.928061,-0.3967440128326416,0.8749840259552002,-0.436271995306015,-29.889999389648438,-22.959999084472656,9.800000190734863
1743895167.948061,-0.4113839864730835,0.8949919939041138,-0.43187999725341797,-24.920000076293945,-21.559999465942383,1.190000057220459
1743895167.968061,-0.4030880033969879,0.8945040106773376,-0.4577440023422241,-2.799999952316284,-22.260000228881836,-1.190000057220459
1743895167.988061,-0.3879599869251251,0.8910880088806152,-0.4352959990501404,10.5,-20.15999984741211,0.07000000029802322
1743895168.008061,-0.3850319981575012,0.8720560073852539,-0.42846399545669556,10.220000267028809,-8.050000190734863,4.690000057220459
1743895168.028061,-0.387472003698349,0.8959680199623108,-0.42846399545669556,0.41999998688697815,4.550000190734863,1.6100000143051147
1743895167.957521,-0.4030880033969879,0.9047520160675049,-0.4509119987487793,-2.450000047683716,10.079999923706055,-2.0999999046325684
1743895167.977521,-0.4265120029449463,0.8959680199623108,-0.4777520000934601,-6.929999828338623,11.550000190734863,-3.2899999618530273
1743895167.997521,-0.4416399896144867,0.8935279846191406,-0.5089840292930603,-6.579999923706055,9.449999809265137,-6.090000152587891
1743895168.017521,-0.44652000069618225,0.8866959810256958,-0.5197200179100037,-2.0999999046325684,4.059999942779541,-15.819999694824219
1743895168.037521,-0.43139201402664185,0.8442400097846985,-0.5045920014381409,-7.210000038146973,5.809999942779541,-18.549999237060547
1743895168.0575209,-0.4089440107345581,0.880840003490448,-0.48897600173950195,-8.609999656677246,4.900000095367432,-13.859999656677246
1743895168.0332632,-0.44066399335861206,0.8583920001983643,-0.4816559851169586,-13.300000190734863,2.1700000762939453,-16.309999465942383
1743895168.0532632,-0.3840560019016266,0.7847040295600891,-0.48848798871040344,-10.289999961853027,-3.2899999618530273,-11.479999542236328
1743895168.0732632,-0.39479199051856995,0.7861679792404175,-0.47336000204086304,-4.829999923706055,-4.829999923706055,-10.430000305175781
1743895168.0932631,-0.4147999882698059,0.791047990322113,-0.4655520021915436,-2.450000047683716,-4.550000190734863,-10.149999618530273
1743895168.1132631,-0.4294399917125702,0.7895839810371399,-0.47384798526763916,-1.0499999523162842,-4.760000228881836,-10.850000381469727
1743895168.133263,-0.4392000138759613,0.7934880256652832,-0.48019200563430786,1.4700000286102295,-7.630000114440918,-11.760000228881836
1743895168.0358832,-0.45530399680137634,0.7978799939155579,-0.47336000204086304,3.569999933242798,-10.220000267028809,-14.069999694824219
1743895168.0558832,-0.4626240134239197,0.7978799939155579,-0.47043201327323914,4.409999847412109,-11.970000267028809,-15.890000343322754
1743895168.0758832,-0.4665279984474182,0.7929999828338623,-0.46408799290657043,2.380000114440918,-10.430000305175781,-19.530000686645508
1743895168.0958831,-0.4504239857196808,0.7876319885253906,-0.4455440044403076,-0.699999988079071,-8.890000343322754,-21.209999084472656
1743895168.115883,-0.4636000096797943,0.7607920169830322,-0.44066399335861206,-2.869999885559082,-8.819999694824219,-20.3700008392334
1743895168.135883,-0.4699440002441406,0.7568879723548889,-0.436271995306015,-3.640000104904175,-9.100000381469727,-19.8799991607666
1743895168.0784051,-0.47336000204086304,0.7559120059013367,-0.4274879992008209,-4.550000190734863,-8.680000305175781,-19.18000030517578
1743895168.0984051,-0.4699440002441406,0.7559120059013367,-0.42163199186325073,-7.909999847412109,-2.869999885559082,-17.360000610351562
1743895168.118405,-0.45871999859809875,0.7520080208778381,-0.40943199396133423,-9.3100004196167,3.7799999713897705,-15.539999961853027
1743895168.138405,-0.456279993057251,0.7451760172843933,-0.40748000144958496,-12.600000381469727,4.409999847412109,-14.84000015258789
1743895168.158405,-0.46213600039482117,0.733951985836029,-0.4060159921646118,-13.300000190734863,6.019999980926514,-13.020000457763672
1743895168.178405,-0.4660399854183197,0.7451760172843933,-0.424560010433197,-4.480000019073486,5.389999866485596,-19.25
1743895168.153328,-0.4718959927558899,0.7622560262680054,-0.40992000699043274,-5.460000038146973,6.579999923706055,-17.780000686645508
1743895168.173328,-0.46116000413894653,0.7359039783477783,-0.41626399755477905,-7.349999904632568,4.900000095367432,-13.300000190734863
1743895168.193328,-0.4567680060863495,0.7363920211791992,-0.4240719974040985,-10.289999961853027,4.409999847412109,-11.760000228881836
1743895168.213328,-0.45237600803375244,0.7280960083007812,-0.41967999935150146,-10.079999923706055,3.359999895095825,-11.199999809265137
1743895168.2333279,-0.4509119987487793,0.7466400265693665,-0.4021120071411133,-7.489999771118164,5.53000020980835,-17.149999618530273
1743895168.2533278,-0.4567680060863495,0.873520016670227,-0.41626399755477905,-5.039999961853027,1.0499999523162842,-21.84000015258789
1743895168.1671271,-0.47970399260520935,0.7388319969177246,-0.4230960011482239,-4.409999847412109,-3.0799999237060547,-21.770000457763672
1743895168.187127,-0.4958080053329468,0.7559120059013367,-0.41284799575805664,-1.8200000524520874,-1.8200000524520874,-20.09000015258789
1743895168.207127,-0.49824801087379456,0.7485920190811157,-0.4113839864730835,-7.769999980926514,-2.240000009536743,-14.630000114440918
1743895168.227127,-0.48897600173950195,0.7441999912261963,-0.4123600125312805,-6.650000095367432,-3.5,-12.25
1743895168.247127,-0.4777520000934601,0.742247998714447,-0.400160014629364,0.0,-4.340000152587891,-14.489999771118164
1743895168.267127,-0.47043201327323914,0.7437120079994202,-0.3962559998035431,2.380000114440918,-4.130000114440918,-12.8100004196167
1743895168.197462,-0.46750399470329285,0.7520080208778381,-0.399183988571167,0.699999988079071,-2.450000047683716,-10.079999923706055
1743895168.217462,-0.4601840078830719,0.7681120038032532,-0.4206559956073761,-3.359999895095825,-0.20999999344348907,-14.489999771118164
1743895168.237462,-0.45237600803375244,0.7700639963150024,-0.42504799365997314,-8.539999961853027,0.0,-17.43000030517578
1743895168.257462,-0.44359201192855835,0.7803120017051697,-0.4260239899158478,-18.899999618530273,-1.8200000524520874,-22.260000228881836
1743895168.277462,-0.45237600803375244,0.7876319885253906,-0.42504799365997314,-19.389999389648438,-2.940000057220459,-21.0
1743895168.297462,-0.47433599829673767,0.7573760151863098,-0.4050399959087372,-21.84000015258789,-7.909999847412109,-17.010000228881836
1743895168.258094,-0.4875119924545288,0.7778720259666443,-0.39820799231529236,-24.290000915527344,-7.909999847412109,-13.15999984741211
1743895168.278094,-0.4538399875164032,0.7900720238685608,-0.38308000564575195,-26.31999969482422,-8.260000228881836,-16.8700008392334
1743895168.298094,-0.4670160114765167,0.7759199738502502,-0.3777120113372803,-28.979999542236328,-8.399999618530273,-16.799999237060547
1743895168.318094,-0.4880000054836273,0.7637199759483337,-0.2513200044631958,-29.329999923706055,-8.119999885559082,-23.59000015258789
1743895168.338094,-0.45237600803375244,0.7476159930229187,-0.3723439872264862,-37.029998779296875,-13.579999923706055,-22.469999313354492
1743895168.358094,-0.5177680253982544,0.8232560157775879,-0.41870400309562683,-20.15999984741211,13.510000228881836,-7.630000114440918
1743895168.288624,-0.5470479726791382,0.8203279972076416,-0.33671998977661133,-31.850000381469727,13.300000190734863,-9.520000457763672
1743895168.308624,-0.5099599957466125,0.7637199759483337,-0.3425759971141815,-37.65999984741211,28.770000457763672,3.359999895095825
1743895168.328624,-0.480679988861084,0.725167989730835,-0.3972319960594177,-36.400001525878906,32.970001220703125,7.210000038146973
1743895168.348624,-0.4997119903564453,0.7563999891281128,-0.399183988571167,-32.47999954223633,32.7599983215332,7.980000019073486
1743895168.368624,-0.48848798871040344,0.7632319927215576,-0.41870400309562683,-36.04999923706055,32.7599983215332,10.850000381469727
1743895168.388624,-0.4845840036869049,0.743224024772644,-0.4240719974040985,-40.18000030517578,33.7400016784668,19.739999771118164
1743895168.3334072,-0.4875119924545288,0.7378559708595276,-0.42260798811912537,-41.15999984741211,30.450000762939453,22.329999923706055
1743895168.3534071,-0.4909279942512512,0.7529839873313904,-0.4274879992008209,-41.439998626708984,26.950000762939453,20.3700008392334
1743895168.3734071,-0.48019200563430786,0.7978799939155579,-0.41967999935150146,-43.470001220703125,26.739999771118164,17.920000076293945
1743895168.393407,-0.48604801297187805,0.7778720259666443,-0.4240719974040985,-37.45000076293945,22.260000228881836,13.369999885559082
1743895168.413407,-0.4748240113258362,0.7783600091934204,-0.42797601222991943,-31.850000381469727,15.260000228881836,-5.53000020980835
1743895168.433407,-0.4538399875164032,0.7812880277633667,-0.4504239857196808,-6.510000228881836,10.710000038146973,-33.459999084472656
1743895168.379318,-0.41870400309562683,0.8369200229644775,-0.4631119966506958,-3.990000009536743,5.320000171661377,-46.130001068115234
1743895168.399318,-0.4655520021915436,0.782263994216919,-0.4514000117778778,-2.0999999046325684,-7.070000171661377,-51.099998474121094
1743895168.419318,-0.4108960032463074,0.7583519816398621,-0.47384798526763916,-4.340000152587891,-18.200000762939453,-51.59000015258789
1743895168.439318,-0.4147999882698059,0.7544479966163635,-0.49239200353622437,3.2899999618530273,-26.040000915527344,-53.40999984741211
1743895168.459318,-0.47433599829673767,0.7788479924201965,-0.4684799909591675,-2.309999942779541,-19.110000610351562,-55.5099983215332
1743895168.479318,-0.5187439918518066,0.7944639921188354,-0.45823198556900024,-7.0,-22.049999237060547,-56.349998474121094
1743895168.40892,-0.5382639765739441,0.7900720238685608,-0.46164798736572266,-16.100000381469727,-28.0,-56.13999938964844
1743895168.42892,-0.5563200116157532,0.800320029258728,-0.44944798946380615,-17.5,-28.700000762939453,-54.95000076293945
1743895168.44892,-0.5636399984359741,0.8159360289573669,-0.43724799156188965,-15.260000228881836,-25.270000457763672,-54.7400016784668
1743895168.46892,-0.579255998134613,0.8213040232658386,-0.41919198632240295,-10.989999771118164,-20.93000030517578,-57.04999923706055
1743895168.48892,-0.5660799741744995,0.7964159846305847,-0.41577601432800293,-10.779999732971191,-20.579999923706055,-58.029998779296875
1743895168.50892,-0.5616880059242249,0.7715280055999756,-0.41577601432800293,0.6299999952316284,-16.100000381469727,-53.40999984741211
1743895168.452915,-0.5758399963378906,0.7603039741516113,-0.40162399411201477,2.1700000762939453,-13.369999885559082,-47.25
1743895168.472915,-0.571448028087616,0.7544479966163635,-0.399183988571167,1.3300000429153442,-8.960000038146973,-40.040000915527344
1743895168.492915,-0.5856000185012817,0.7554240226745605,-0.40113601088523865,16.239999771118164,-7.699999809265137,-38.08000183105469
1743895168.512915,-0.5943840146064758,0.7627440094947815,-0.4172399938106537,3.430000066757202,-6.929999828338623,-37.16999816894531
1743895168.5329149,-0.5929200053215027,0.7632319927215576,-0.4089440107345581,5.039999961853027,-11.130000114440918,-36.959999084472656
1743895168.5529149,-0.6090239882469177,0.7534719705581665,-0.40748000144958496,10.569999694824219,-16.520000457763672,-37.79999923706055
1743895168.4819782,-0.5992640256881714,0.7461519837379456,-0.4113839864730835,14.84000015258789,-23.239999771118164,-38.849998474121094
1743895168.5019782,-0.6134160161018372,0.7471280097961426,-0.4089440107345581,20.719999313354492,-29.81999969482422,-38.150001525878906
1743895168.5219781,-0.6012160181999207,0.7207760214805603,-0.39186400175094604,25.1299991607666,-30.65999984741211,-32.40999984741211
1743895168.5419781,-0.5816959738731384,0.6958879828453064,-0.3806400001049042,31.780000686645508,-27.579999923706055,-31.56999969482422
1743895168.561978,-0.5929200053215027,0.6993039846420288,-0.3879599869251251,35.349998474121094,-26.040000915527344,-26.040000915527344
1743895168.581978,-0.5860880017280579,0.7100399732589722,-0.39528000354766846,38.220001220703125,-25.270000457763672,-22.190000534057617
1743895168.526952,-0.5797439813613892,0.7227280139923096,-0.40162399411201477,33.38999938964844,-23.520000457763672,-23.59000015258789
1743895168.546952,-0.5826719999313354,0.7241920232772827,-0.3943040072917938,31.360000610351562,-20.790000915527344,-23.59000015258789
1743895168.566952,-0.6104879975318909,0.7222399711608887,-0.4050399959087372,25.969999313354492,-20.790000915527344,-26.18000030517578
1743895168.586952,-0.6173200011253357,0.6997920274734497,-0.3781999945640564,27.579999923706055,-19.31999969482422,-21.6299991607666
1743895168.606952,-0.6295199990272522,0.7032080292701721,-0.4021120071411133,26.8799991607666,-22.469999313354492,-26.739999771118164
1743895168.626952,-0.619271993637085,0.7061359882354736,-0.3957679867744446,30.8700008392334,-23.520000457763672,-21.700000762939453
1743895168.5734773,-0.6182960271835327,0.6914960145950317,-0.3957679867744446,29.610000610351562,-24.010000228881836,-22.68000030517578
1743895168.5934772,-0.6212239861488342,0.7197999954223633,-0.40992000699043274,28.0,-23.940000534057617,-29.469999313354492
1743895168.6134772,-0.5777919888496399,0.7085760235786438,-0.40699198842048645,23.450000762939453,-20.93000030517578,-34.15999984741211
1743895168.6334772,-0.5753520131111145,0.7075999975204468,-0.41040799021720886,21.489999771118164,-19.18000030517578,-45.0099983215332
1743895168.6534772,-0.6124399900436401,0.6861280202865601,-0.40748000144958496,30.65999984741211,-9.100000381469727,-41.720001220703125
1743895168.6734772,-0.6573359966278076,0.6958879828453064,-0.35868000984191895,42.84000015258789,-11.829999923706055,-39.619998931884766
1743895168.6169522,-0.6129279732704163,0.6461120247840881,-0.38649600744247437,25.760000228881836,-17.360000610351562,-42.70000076293945
1743895168.6369522,-0.6031680107116699,0.6426960229873657,-0.41577601432800293,22.399999618530273,-16.799999237060547,-47.459999084472656
1743895168.6569521,-0.6495280265808105,0.6514800190925598,-0.400160014629364,27.719999313354492,-12.739999771118164,-51.939998626708984
1743895168.6769521,-0.6758800148963928,0.6583120226860046,-0.3962559998035431,32.689998626708984,-10.430000305175781,-53.34000015258789
1743895168.696952,-0.6651440262794495,0.6524559855461121,-0.39479199051856995,36.540000915527344,-11.130000114440918,-61.31999969482422
1743895168.716952,-0.6017040014266968,0.5953599810600281,-0.4304159879684448,20.860000610351562,-14.210000038146973,-63.06999969482422
1743895168.6622553,-0.7139440178871155,0.6095119714736938,-0.33671998977661133,38.0099983215332,-8.1899995803833,-60.83000183105469
1743895168.6822553,-0.6768559813499451,0.5660799741744995,-0.34891998767852783,24.56999969482422,-9.869999885559082,-51.65999984741211
1743895168.7022552,-0.6724640130996704,0.5094720125198364,-0.4055280089378357,25.34000015258789,-22.540000915527344,-49.560001373291016
1743895168.7222552,-0.6226879954338074,0.5158159732818604,-0.36502400040626526,34.93000030517578,-23.8700008392334,-47.38999938964844
1743895168.7422552,-0.620248019695282,0.5236240029335022,-0.3572160005569458,30.799999237060547,-27.510000228881836,-42.77000045776367
1743895168.7622552,-0.6295199990272522,0.5572959780693054,-0.3757599890232086,51.79999923706055,-33.38999938964844,-42.630001068115234
1743895168.707889,-0.6378160119056702,0.5753520131111145,-0.3420880138874054,40.25,-20.510000228881836,-43.2599983215332
1743895168.727889,-0.6329360008239746,0.587552011013031,-0.3245199918746948,37.939998626708984,-13.4399995803833,-39.54999923706055
1743895168.747889,-0.6426960229873657,0.5851119756698608,-0.35916799306869507,40.599998474121094,-13.020000457763672,-38.91999816894531
1743895168.767889,-0.6470879912376404,0.6007279753684998,-0.37673598527908325,43.75,-14.279999732971191,-37.65999984741211
