Timestamp,AccelX,AccelY,AccelZ,GyroX,GyroY,GyroZ
1743895162.44513,-0.961359977722168,0.08344800025224686,-0.31915199756622314,1.3300000429153442,-0.9800000190734863,-0.5600000023841858
1743895162.46513,-0.9574559926986694,0.08686400204896927,-0.32256799936294556,1.190000057220459,-0.5600000023841858,-0.9100000262260437
1743895162.48513,-0.9559919834136963,0.0878399983048439,-0.32305601239204407,1.75,-0.41999998688697815,-0.8399999737739563
1743895162.50513,-0.9530640244483948,0.08979199826717377,-0.31964001059532166,1.4700000286102295,-0.41999998688697815,-1.0499999523162842
1743895162.52513,-0.9589200019836426,0.09174399822950363,-0.32207998633384705,2.240000009536743,-0.699999988079071,-1.1200000047683716
1743895162.54513,-0.961359977722168,0.09613599628210068,-0.31768798828125,2.5899999141693115,-1.0499999523162842,-1.6799999475479126
1743895162.488002,-0.9638000130653381,0.1088239997625351,-0.30987998843193054,2.869999885559082,-0.9100000262260437,-7.349999904632568
1743895162.508002,-0.9803919792175293,0.13127200305461884,-0.29767999053001404,-1.4700000286102295,4.059999942779541,-12.039999961853027
1743895162.528002,-0.9647759795188904,0.10687199980020523,-0.3211039900779724,0.9800000190734863,5.110000133514404,-16.239999771118164
1743895162.548002,-0.9584320187568665,0.07954400032758713,-0.35233598947525024,5.809999942779541,5.110000133514404,-18.059999465942383
1743895162.568002,-0.9511119723320007,0.06002400070428848,-0.3508720099925995,6.860000133514404,2.940000057220459,-13.649999618530273
1743895162.588002,-0.9520879983901978,0.01903199963271618,-0.35916799306869507,7.0,0.9100000262260437,-9.520000457763672
1743895162.517041,-0.9638000130653381,0.018543999642133713,-0.35916799306869507,5.53000020980835,-3.2200000286102295,-7.980000019073486
1743895162.537041,-0.9720960259437561,0.01903199963271618,-0.3781999945640564,4.130000114440918,-6.579999923706055,-3.990000009536743
1743895162.557041,-0.9789280295372009,0.02391199953854084,-0.387472003698349,7.420000076293945,-9.029999732971191,-3.5
1743895162.577041,-0.9813680052757263,0.044895999133586884,-0.36551201343536377,6.510000228881836,-13.4399995803833,1.8200000524520874
1743895162.597041,-0.9735599756240845,0.04196799919009209,-0.35868000984191895,4.130000114440918,-16.170000076293945,5.039999961853027
1743895162.6170409,-0.9681919813156128,0.03855200111865997,-0.3450160026550293,3.359999895095825,-20.579999923706055,8.260000228881836
1743895162.562155,-0.9579439759254456,0.05514400079846382,-0.3264720141887665,4.340000152587891,-24.149999618530273,13.720000267028809
1743895162.582155,-0.9579439759254456,0.05416800081729889,-0.31768798828125,4.199999809265137,-24.56999969482422,16.030000686645508
1743895162.602155,-0.9564800262451172,0.05270399898290634,-0.31036800146102905,10.079999923706055,-22.540000915527344,16.729999542236328
1743895162.622155,-0.9564800262451172,0.0849120020866394,-0.27669599652290344,12.670000076293945,-21.06999969482422,14.979999542236328
1743895162.642155,-0.9574559926986694,0.12541599571704865,-0.25571200251579285,11.0600004196167,-14.770000457763672,12.25
1743895162.662155,-0.954039990901947,0.1454239934682846,-0.2386319935321808,7.840000152587891,-4.409999847412109,4.829999923706055
1743895162.636987,-0.9516000151634216,0.14347200095653534,-0.25571200251579285,1.9600000381469727,5.670000076293945,-3.5
1743895162.656987,-0.9476959705352783,0.13468800485134125,-0.26791200041770935,-0.9800000190734863,10.850000381469727,-10.220000267028809
1743895162.676987,-0.9501360058784485,0.11272799968719482,-0.30646398663520813,-5.670000076293945,12.390000343322754,-12.8100004196167
1743895162.696987,-0.9545279741287231,0.0849120020866394,-0.32891198992729187,-7.909999847412109,11.40999984741211,-12.670000076293945
1743895162.716987,-0.9564800262451172,0.0785679966211319,-0.34989601373672485,-8.75,9.029999732971191,-11.899999618530273
1743895162.7369869,-0.9564800262451172,0.0727119967341423,-0.3699040114879608,-5.53000020980835,2.6600000858306885,-8.609999656677246
1743895162.6527162,-0.9618480205535889,0.0605119988322258,-0.3757599890232086,-4.059999942779541,-5.599999904632568,-3.7100000381469727
1743895162.6727161,-0.970632016658783,0.05514400079846382,-0.3752720057964325,2.309999942779541,-9.3100004196167,0.7699999809265137
1743895162.6927161,-0.9701439738273621,0.06002400070428848,-0.3542880117893219,5.949999809265137,-13.369999885559082,2.0299999713897705
1743895162.712716,-0.9681919813156128,0.06197600066661835,-0.33184000849723816,6.650000095367432,-14.140000343322754,3.1500000953674316
1743895162.732716,-0.9628239870071411,0.06441599875688553,-0.32549598813056946,5.599999904632568,-11.0600004196167,2.799999952316284
1743895162.752716,-0.9647759795188904,0.07466399669647217,-0.3079279959201813,4.269999980926514,-7.070000171661377,0.9800000190734863
1743895162.697948,-0.970632016658783,0.08296000212430954,-0.2991439998149872,2.380000114440918,-4.199999809265137,0.20999999344348907
1743895162.717948,-0.9755120277404785,0.08832799643278122,-0.29231199622154236,0.3499999940395355,17.709999084472656,-2.5899999141693115
1743895162.737948,-0.9813680052757263,0.08735200017690659,-0.29767999053001404,-1.4700000286102295,3.569999933242798,-4.900000095367432
1743895162.757948,-0.9838079810142517,0.08637599647045135,-0.3006080090999603,-1.75,4.480000019073486,-5.880000114440918
1743895162.777948,-0.985759973526001,0.0785679966211319,-0.3152480125427246,-1.6100000143051147,3.9200000762939453,-6.300000190734863
1743895162.797948,-0.986735999584198,0.07173600047826767,-0.32305601239204407,-1.3300000429153442,2.799999952316284,-6.300000190734863
1743895162.727447,-0.9813680052757263,0.0634400025010109,-0.32842400670051575,-0.2800000011920929,0.699999988079071,-5.880000114440918
1743895162.747447,-0.9774640202522278,0.06539200246334076,-0.33769598603248596,0.6299999952316284,-1.9600000381469727,-4.409999847412109
1743895162.767447,-0.962336003780365,0.06685599684715271,-0.33671998977661133,1.399999976158142,-3.5,-3.0799999237060547
1743895162.787447,-0.9559919834136963,0.06831999868154526,-0.3357439935207367,2.240000009536743,-4.409999847412109,-2.0299999713897705
1743895162.807447,-0.9569680094718933,0.07661599665880203,-0.33135199546813965,3.8499999046325684,-5.320000171661377,-1.5399999618530273
1743895162.827447,-0.955016016960144,0.08100800216197968,-0.3298879861831665,4.130000114440918,-5.320000171661377,-1.0499999523162842
1743895162.802283,-0.9569680094718933,0.08637599647045135,-0.32207998633384705,3.7799999713897705,-4.269999980926514,-0.5600000023841858
1743895162.822283,-0.955016016960144,0.09320800006389618,-0.32305601239204407,3.009999990463257,-3.5,-0.41999998688697815
1743895162.842283,-0.9564800262451172,0.0936959981918335,-0.31915199756622314,2.309999942779541,-3.1500000953674316,-0.699999988079071
1743895162.862283,-0.9569680094718933,0.09223199635744095,-0.3245199918746948,0.8399999737739563,-1.1200000047683716,-0.6299999952316284
1743895162.882283,-0.9535520076751709,0.0936959981918335,-0.3235439956188202,-0.07000000029802322,-0.14000000059604645,-0.41999998688697815
1743895162.902283,-0.954039990901947,0.09320800006389618,-0.32891198992729187,-0.9800000190734863,0.41999998688697815,0.2800000011920929
1743895162.817333,-0.9511119723320007,0.09418399631977081,-0.3298879861831665,-1.399999976158142,0.9100000262260437,0.6299999952316284
1743895162.837333,-0.9525759816169739,0.08930400013923645,-0.33184000849723816,-1.6100000143051147,0.9100000262260437,1.2599999904632568
1743895162.857333,-0.9501360058784485,0.0785679966211319,-0.3357439935207367,-1.2599999904632568,0.699999988079071,1.190000057220459
1743895162.877333,-0.945743978023529,0.07368800044059753,-0.3328160047531128,0.41999998688697815,-0.2800000011920929,1.9600000381469727
1743895162.897333,-0.94623202085495,0.07515200227499008,-0.3274480104446411,0.9100000262260437,-0.9100000262260437,2.869999885559082
1743895162.917333,-0.9486719965934753,0.07661599665880203,-0.32549598813056946,1.2599999904632568,-1.4700000286102295,3.359999895095825
1743895162.8776243,-0.9501360058784485,0.07710400223731995,-0.32207998633384705,1.399999976158142,-1.5399999618530273,3.7100000381469727
1743895162.8976243,-0.9559919834136963,0.07515200227499008,-0.3201279938220978,0.9800000190734863,-1.0499999523162842,3.7100000381469727
1743895162.9176242,-0.9579439759254456,0.0727119967341423,-0.31915199756622314,0.41999998688697815,-0.2800000011920929,3.009999990463257
1743895162.9376242,-0.9642879962921143,0.07222399860620499,-0.31329599022865295,0.20999999344348907,-0.07000000029802322,2.5899999141693115
1743895162.9576242,-0.9672160148620605,0.07222399860620499,-0.3142719864845276,-0.14000000059604645,0.14000000059604645,2.450000047683716
1743895162.9776242,-0.9716079831123352,0.07124800235033035,-0.3123199939727783,-0.2800000011920929,0.07000000029802322,2.5199999809265137
1743895162.9394672,-0.9755120277404785,0.07466399669647217,-0.30987998843193054,-1.1200000047683716,0.2800000011920929,2.5899999141693115
1743895162.9594672,-0.979416012763977,0.07466399669647217,-0.3142719864845276,-1.1200000047683716,0.2800000011920929,2.6600000858306885
1743895162.9794672,-0.9789280295372009,0.07320000231266022,-0.31915199756622314,-0.5600000023841858,0.3499999940395355,2.240000009536743
1743895162.9994671,-0.9769759774208069,0.07027199864387512,-0.3206160068511963,-0.41999998688697815,0.699999988079071,1.8200000524520874
1743895163.019467,-0.9696559906005859,0.07124800235033035,-0.3269599974155426,-0.20999999344348907,0.8399999737739563,1.8899999856948853
1743895163.039467,-0.9657520055770874,0.07173600047826767,-0.3274480104446411,-0.07000000029802322,1.1200000047683716,1.8899999856948853
1743895162.942709,-0.9642879962921143,0.07320000231266022,-0.3328160047531128,0.0,1.4700000286102295,1.9600000381469727
1743895162.962709,-0.9642879962921143,0.07417599856853485,-0.33476799726486206,0.41999998688697815,1.5399999618530273,1.6799999475479126
1743895162.982709,-0.9701439738273621,0.0727119967341423,-0.33720800280570984,0.9100000262260437,1.75,1.1200000047683716
1743895163.002709,-0.9838079810142517,0.07466399669647217,-0.3381839990615845,1.190000057220459,1.8899999856948853,0.699999988079071
1743895163.022709,-0.9818559885025024,0.0756400004029274,-0.3411119878292084,1.4700000286102295,2.0299999713897705,0.14000000059604645
1743895163.0427089,-0.9818559885025024,0.07807999849319458,-0.3425759971141815,1.5399999618530273,2.240000009536743,-0.41999998688697815
1743895162.997447,-0.9838079810142517,0.08100800216197968,-0.33769598603248596,1.2599999904632568,2.5899999141693115,-1.3300000429153442
1743895163.017447,-0.9847840070724487,0.08051999658346176,-0.3381839990615845,0.9800000190734863,2.5199999809265137,-2.450000047683716
1743895163.037447,-0.9789280295372009,0.08296000212430954,-0.33720800280570984,0.8399999737739563,2.450000047683716,-2.6600000858306885
1743895163.057447,-0.9769759774208069,0.07612799853086472,-0.338672012090683,1.2599999904632568,2.309999942779541,-3.359999895095825
1743895163.077447,-0.9750239849090576,0.07661599665880203,-0.3381839990615845,0.6299999952316284,2.6600000858306885,-3.8499999046325684
1743895163.097447,-0.9638000130653381,0.07905600219964981,-0.32500800490379333,2.0999999046325684,2.309999942779541,-4.829999923706055
1743895163.0434391,-0.9545279741287231,0.06783200055360794,-0.32549598813056946,1.190000057220459,1.9600000381469727,-4.96999979019165
1743895163.0634391,-0.961359977722168,0.06929600238800049,-0.3333039879798889,1.5399999618530273,2.309999942779541,-4.96999979019165
1743895163.083439,-0.9555040001869202,0.07417599856853485,-0.32598400115966797,1.8200000524520874,2.5899999141693115,-5.039999961853027
1743895163.103439,-0.9501360058784485,0.07417599856853485,-0.330375999212265,1.0499999523162842,2.0299999713897705,-4.690000057220459
1743895163.123439,-0.9525759816169739,0.07515200227499008,-0.32793599367141724,1.399999976158142,2.309999942779541,-4.760000228881836
1743895163.143439,-0.954039990901947,0.07466399669647217,-0.32305601239204407,1.1200000047683716,2.240000009536743,-4.690000057220459
1743895163.0577781,-0.9472079873085022,0.07954400032758713,-0.3269599974155426,0.20999999344348907,2.0299999713897705,-4.409999847412109
1743895163.077778,-0.9447680115699768,0.07515200227499008,-0.3240320086479187,1.1200000047683716,1.8200000524520874,-4.269999980926514
1743895163.097778,-0.9394000172615051,0.0756400004029274,-0.32598400115966797,0.5600000023841858,1.6799999475479126,-3.8499999046325684
1743895163.117778,-0.937936007976532,0.0756400004029274,-0.3264720141887665,0.3499999940395355,1.8200000524520874,-3.1500000953674316
1743895163.137778,-0.9394000172615051,0.07661599665880203,-0.32891198992729187,0.14000000059604645,1.399999976158142,-2.5199999809265137
1743895163.157778,-0.9408640265464783,0.07661599665880203,-0.330375999212265,-0.14000000059604645,1.3300000429153442,-2.1700000762939453
1743895163.102667,-0.9403759837150574,0.0785679966211319,-0.33184000849723816,-0.14000000059604645,1.1200000047683716,-2.0299999713897705
1743895163.122667,-0.9418399930000305,0.08100800216197968,-0.32842400670051575,-0.7699999809265137,0.9100000262260437,-1.6799999475479126
1743895163.142667,-0.9418399930000305,0.08247199654579163,-0.3328160047531128,-0.7699999809265137,0.699999988079071,-1.399999976158142
1743895163.162667,-0.9501360058784485,0.07905600219964981,-0.33476799726486206,-0.5600000023841858,0.2800000011920929,-0.9100000262260437
1743895163.182667,-0.9516000151634216,0.07954400032758713,-0.33769598603248596,-0.2800000011920929,-0.41999998688697815,-0.6299999952316284
1743895163.202667,-0.9452559947967529,0.08149600028991699,-0.33525601029396057,-0.2800000011920929,-0.7699999809265137,-0.5600000023841858
1743895163.177107,-0.9467200040817261,0.08247199654579163,-0.33525601029396057,-0.49000000953674316,-1.3300000429153442,-0.14000000059604645
1743895163.197107,-0.9506239891052246,0.08296000212430954,-0.33525601029396057,-0.49000000953674316,-1.75,-0.07000000029802322
1743895163.217107,-0.955016016960144,0.07954400032758713,-0.3381839990615845,0.14000000059604645,-2.1700000762939453,-0.07000000029802322
1743895163.237107,-0.9584320187568665,0.07807999849319458,-0.3416000008583069,0.41999998688697815,-2.0299999713897705,-0.2800000011920929
1743895163.257107,-0.9647759795188904,0.0756400004029274,-0.34404000639915466,0.699999988079071,-2.0999999046325684,-0.5600000023841858
1743895163.277107,-0.9598960280418396,0.0756400004029274,-0.3445279896259308,0.6299999952316284,-1.9600000381469727,-0.49000000953674316
1743895163.2376761,-0.9603840112686157,0.0785679966211319,-0.34891998767852783,0.2800000011920929,-1.75,-0.3499999940395355
1743895163.2576761,-0.9579439759254456,0.0785679966211319,-0.3479439914226532,0.0,-1.6100000143051147,-0.14000000059604645
1743895163.277676,-0.9618480205535889,0.07612799853086472,-0.34940800070762634,0.07000000029802322,-1.6799999475479126,-0.20999999344348907
1743895163.297676,-0.9628239870071411,0.07173600047826767,-0.3513599932193756,0.9100000262260437,-1.8200000524520874,-0.2800000011920929
1743895163.317676,-0.9647759795188904,0.07417599856853485,-0.3508720099925995,1.3300000429153442,-2.240000009536743,-0.49000000953674316
1743895163.337676,-0.9642879962921143,0.07466399669647217,-0.3450160026550293,1.190000057220459,-2.309999942779541,-0.5600000023841858
1743895163.2420352,-0.9608719944953918,0.07515200227499008,-0.3411119878292084,0.5600000023841858,-2.380000114440918,-0.7699999809265137
1743895163.2620351,-0.9633119702339172,0.0756400004029274,-0.3381839990615845,0.49000000953674316,-2.450000047683716,-1.6100000143051147
1743895163.282035,-0.9662399888038635,0.07466399669647217,-0.3362320065498352,0.8399999737739563,-2.240000009536743,-1.8899999856948853
1743895163.302035,-0.9618480205535889,0.07124800235033035,-0.3323279917240143,1.399999976158142,-2.240000009536743,-2.5199999809265137
1743895163.322035,-0.9555040001869202,0.07124800235033035,-0.32842400670051575,1.75,-2.450000047683716,-3.5
1743895163.342035,-0.9481840133666992,0.0727119967341423,-0.32842400670051575,1.1200000047683716,-2.7300000190734863,-3.990000009536743
1743895163.283499,-0.9437919855117798,0.07075999677181244,-0.3274480104446411,1.1200000047683716,-2.799999952316284,-3.990000009536743
1743895163.303499,-0.9472079873085022,0.0697840005159378,-0.3323279917240143,1.6100000143051147,-3.2899999618530273,-4.059999942779541
1743895163.323499,-0.9481840133666992,0.07075999677181244,-0.3328160047531128,3.009999990463257,-4.059999942779541,-3.5
1743895163.343499,-0.9476959705352783,0.07222399860620499,-0.3298879861831665,3.2899999618530273,-4.829999923706055,-3.2200000286102295
1743895163.363499,-0.9481840133666992,0.07612799853086472,-0.330375999212265,2.799999952316284,-5.179999828338623,-2.5199999809265137
1743895163.383499,-0.9506239891052246,0.08100800216197968,-0.3308640122413635,2.869999885559082,-5.320000171661377,-1.9600000381469727
1743895163.31253,-0.9525759816169739,0.08149600028991699,-0.3298879861831665,2.380000114440918,-5.53000020980835,-1.8200000524520874
1743895163.33253,-0.954039990901947,0.08100800216197968,-0.3337920010089874,1.4700000286102295,-4.829999923706055,-1.3300000429153442
1743895163.35253,-0.9535520076751709,0.07905600219964981,-0.33476799726486206,0.3499999940395355,-4.199999809265137,-1.4700000286102295
1743895163.37253,-0.9452559947967529,0.07759200036525726,-0.33671998977661133,-0.9100000262260437,-3.430000066757202,-1.3300000429153442
1743895163.39253,-0.9447680115699768,0.07807999849319458,-0.3381839990615845,-1.4700000286102295,-3.009999990463257,-1.190000057220459
1743895163.41253,-0.9442800283432007,0.07710400223731995,-0.34013599157333374,-1.75,-2.940000057220459,-0.7699999809265137
1743895163.3581362,-0.9486719965934753,0.07807999849319458,-0.34062400460243225,-1.5399999618530273,-3.009999990463257,-0.41999998688697815
1743895163.3781362,-0.9516000151634216,0.08198399841785431,-0.3455039858818054,-0.699999988079071,-3.430000066757202,0.14000000059604645
1743895163.3981361,-0.9584320187568665,0.07905600219964981,-0.34696799516677856,0.0,-3.7100000381469727,0.41999998688697815
1743895163.4181361,-0.9628239870071411,0.07905600219964981,-0.3513599932193756,0.41999998688697815,-3.9200000762939453,0.3499999940395355
1743895163.438136,-0.9608719944953918,0.07466399669647217,-0.3513599932193756,0.5600000023841858,-4.130000114440918,0.20999999344348907
1743895163.458136,-0.9589200019836426,0.07222399860620499,-0.3518480062484741,0.8399999737739563,-4.130000114440918,-0.07000000029802322
1743895163.388163,-0.9555040001869202,0.07466399669647217,-0.350383996963501,0.8399999737739563,-3.990000009536743,0.07000000029802322
1743895163.408163,-0.9555040001869202,0.07466399669647217,-0.34989601373672485,0.7699999809265137,-3.7799999713897705,0.07000000029802322
1743895163.428163,-0.9559919834136963,0.07661599665880203,-0.3484320044517517,0.3499999940395355,-3.1500000953674316,-0.3499999940395355
1743895163.448163,-0.961359977722168,0.07466399669647217,-0.3425759971141815,0.3499999940395355,-3.009999990463257,-0.49000000953674316
1743895163.468163,-0.9598960280418396,0.07661599665880203,-0.34355199337005615,0.49000000953674316,-3.009999990463257,-0.9100000262260437
1743895163.488163,-0.9608719944953918,0.0785679966211319,-0.34013599157333374,0.5600000023841858,-3.0799999237060547,-0.9800000190734863
1743895163.433328,-0.962336003780365,0.07905600219964981,-0.3396480083465576,0.8399999737739563,-3.0799999237060547,-0.9800000190734863
1743895163.453328,-0.961359977722168,0.07807999849319458,-0.3357439935207367,1.0499999523162842,-3.359999895095825,-0.8399999737739563
1743895163.4733279,-0.9584320187568665,0.07759200036525726,-0.33769598603248596,1.2599999904632568,-3.640000104904175,-0.6299999952316284
1743895163.4933279,-0.9555040001869202,0.07807999849319458,-0.338672012090683,1.3300000429153442,-3.5,-0.3499999940395355
1743895163.5133278,-0.955016016960144,0.0756400004029274,-0.3391599953174591,1.3300000429153442,-3.569999933242798,-0.20999999344348907
1743895163.5333278,-0.9574559926986694,0.07612799853086472,-0.34013599157333374,0.49000000953674316,-3.2200000286102295,-0.07000000029802322
1743895163.4770432,-0.9559919834136963,0.07759200036525726,-0.3381839990615845,0.07000000029802322,-2.940000057220459,0.07000000029802322
1743895163.4970431,-0.9579439759254456,0.07417599856853485,-0.3396480083465576,-0.41999998688697815,-2.6600000858306885,0.0
1743895163.517043,-0.9618480205535889,0.07417599856853485,-0.34306401014328003,-0.20999999344348907,-2.5199999809265137,-0.14000000059604645
1743895163.537043,-0.962336003780365,0.07515200227499008,-0.3411119878292084,0.20999999344348907,-2.380000114440918,-0.41999998688697815
1743895163.557043,-0.9594079852104187,0.07417599856853485,-0.33720800280570984,0.3499999940395355,-2.309999942779541,-0.5600000023841858
1743895163.577043,-0.9642879962921143,0.07515200227499008,-0.3416000008583069,0.9100000262260437,-2.5899999141693115,-0.8399999737739563
1743895163.537214,-0.9598960280418396,0.07368800044059753,-0.338672012090683,1.190000057220459,-2.6600000858306885,-0.9100000262260437
1743895163.557214,-0.9579439759254456,0.07661599665880203,-0.33769598603248596,1.75,-2.7300000190734863,-1.0499999523162842
1743895163.577214,-0.9618480205535889,0.07417599856853485,-0.3362320065498352,2.240000009536743,-3.2899999618530273,-1.3300000429153442
1743895163.597214,-0.9598960280418396,0.07320000231266022,-0.33476799726486206,2.450000047683716,-3.990000009536743,-1.6799999475479126
1743895163.617214,-0.9603840112686157,0.07075999677181244,-0.33476799726486206,2.5199999809265137,-4.059999942779541,-1.8200000524520874
1743895163.637214,-0.9579439759254456,0.0727119967341423,-0.33184000849723816,2.0299999713897705,-4.409999847412109,-1.75
1743895163.551995,-0.955016016960144,0.07368800044059753,-0.32891198992729187,1.75,-4.829999923706055,-1.6799999475479126
1743895163.571995,-0.9569680094718933,0.0727119967341423,-0.3264720141887665,1.3300000429153442,-4.96999979019165,-1.6100000143051147
1743895163.591995,-0.9589200019836426,0.07222399860620499,-0.32793599367141724,1.190000057220459,-5.039999961853027,-1.5399999618530273
1743895163.611995,-0.9589200019836426,0.07075999677181244,-0.3269599974155426,1.1200000047683716,-5.039999961853027,-1.4700000286102295
1743895163.631995,-0.9555040001869202,0.07075999677181244,-0.32793599367141724,1.399999976158142,-4.900000095367432,-1.2599999904632568
1743895163.651995,-0.9598960280418396,0.06831999868154526,-0.3294000029563904,1.6100000143051147,-4.550000190734863,-1.2599999904632568
1743895163.597308,-0.9589200019836426,0.07027199864387512,-0.32842400670051575,1.4700000286102295,-3.990000009536743,-1.1200000047683716
1743895163.617308,-0.9574559926986694,0.06929600238800049,-0.32891198992729187,0.8399999737739563,-3.2200000286102295,-1.399999976158142
1743895163.637308,-0.9564800262451172,0.07173600047826767,-0.3323279917240143,0.6299999952316284,-2.5899999141693115,-1.6100000143051147
1743895163.6573079,-0.9598960280418396,0.07222399860620499,-0.3381839990615845,0.3499999940395355,-2.1700000762939453,-1.6799999475479126
1743895163.6773078,-0.9628239870071411,0.07320000231266022,-0.34013599157333374,0.3499999940395355,-1.8899999856948853,-1.75
1743895163.6973078,-0.9642879962921143,0.0697840005159378,-0.34013599157333374,0.2800000011920929,-1.75,-2.0999999046325684
1743895163.6269221,-0.9662399888038635,0.07173600047826767,-0.34355199337005615,0.0,-1.8200000524520874,-2.0999999046325684
1743895163.646922,-0.9633119702339172,0.07612799853086472,-0.34355199337005615,0.07000000029802322,-2.1700000762939453,-2.0299999713897705
1743895163.666922,-0.9564800262451172,0.07612799853086472,-0.3425759971141815,0.2800000011920929,-2.450000047683716,-1.9600000381469727
1743895163.686922,-0.9618480205535889,0.07661599665880203,-0.3425759971141815,0.49000000953674316,-2.7300000190734863,-1.8899999856948853
1743895163.706922,-0.962336003780365,0.07417599856853485,-0.3425759971141815,0.8399999737739563,-3.009999990463257,-2.0299999713897705
1743895163.726922,-0.9574559926986694,0.07710400223731995,-0.3411119878292084,0.7699999809265137,-3.1500000953674316,-1.8899999856948853
1743895163.6720572,-0.9545279741287231,0.07612799853086472,-0.34062400460243225,0.9100000262260437,-3.0799999237060547,-1.5399999618530273
1743895163.6920571,-0.955016016960144,0.08003199845552444,-0.3391599953174591,0.9100000262260437,-3.009999990463257,-1.399999976158142
1743895163.712057,-0.9545279741287231,0.07905600219964981,-0.33769598603248596,0.8399999737739563,-3.2899999618530273,-0.8399999737739563
1743895163.732057,-0.9530640244483948,0.08003199845552444,-0.33428001403808594,1.1200000047683716,-3.2200000286102295,-0.41999998688697815
1743895163.752057,-0.9569680094718933,0.08442399650812149,-0.3357439935207367,1.0499999523162842,-2.799999952316284,-0.20999999344348907
1743895163.772057,-0.961359977722168,0.08198399841785431,-0.338672012090683,1.0499999523162842,-2.240000009536743,-0.3499999940395355
1743895163.718857,-0.961359977722168,0.07368800044059753,-0.3396480083465576,1.0499999523162842,-2.0999999046325684,-0.41999998688697815
1743895163.738857,-0.9608719944953918,0.06831999868154526,-0.3411119878292084,0.9800000190734863,-1.6100000143051147,-0.49000000953674316
1743895163.758857,-0.9633119702339172,0.06831999868154526,-0.3357439935207367,0.7699999809265137,-1.6799999475479126,-0.3499999940395355
1743895163.778857,-0.961359977722168,0.06831999868154526,-0.33671998977661133,0.2800000011920929,-1.8200000524520874,-0.2800000011920929
1743895163.798857,-0.9603840112686157,0.06831999868154526,-0.3396480083465576,0.3499999940395355,-2.0999999046325684,-0.14000000059604645
1743895163.818857,-0.9642879962921143,0.06588000059127808,-0.338672012090683,0.41999998688697815,-2.0999999046325684,-0.49000000953674316
1743895163.7632852,-0.9642879962921143,0.06490399688482285,-0.3362320065498352,0.49000000953674316,-2.309999942779541,-0.9100000262260437
1743895163.7832851,-0.9642879962921143,0.06490399688482285,-0.3298879861831665,1.0499999523162842,-2.799999952316284,-0.8399999737739563
1743895163.8032851,-0.9633119702339172,0.06783200055360794,-0.3269599974155426,1.399999976158142,-3.1500000953674316,-0.6299999952316284
1743895163.823285,-0.9584320187568665,0.0697840005159378,-0.32549598813056946,1.2599999904632568,-3.2200000286102295,-0.49000000953674316
1743895163.843285,-0.9569680094718933,0.07417599856853485,-0.32793599367141724,1.4700000286102295,-3.0799999237060547,-0.3499999940395355
1743895163.863285,-0.9555040001869202,0.07661599665880203,-0.330375999212265,1.3300000429153442,-2.799999952316284,-0.49000000953674316
1743895163.837947,-0.9535520076751709,0.0756400004029274,-0.33135199546813965,0.9800000190734863,-1.8899999856948853,-0.6299999952316284
1743895163.8579469,-0.9516000151634216,0.07417599856853485,-0.3337920010089874,0.6299999952316284,-1.399999976158142,-0.699999988079071
1743895163.8779469,-0.9530640244483948,0.07222399860620499,-0.3328160047531128,0.41999998688697815,-0.9800000190734863,-0.3499999940395355
1743895163.8979468,-0.9594079852104187,0.07466399669647217,-0.33525601029396057,0.3499999940395355,-0.9100000262260437,17.709999084472656
1743895163.9179468,-0.9564800262451172,0.07807999849319458,-0.33720800280570984,0.20999999344348907,-0.7699999809265137,0.41999998688697815
1743895163.9379468,-0.9511119723320007,0.08100800216197968,-0.34013599157333374,0.0,-0.8399999737739563,0.5600000023841858
1743895163.841932,-0.9530640244483948,0.08296000212430954,-0.34355199337005615,0.07000000029802322,-0.699999988079071,0.6299999952316284
1743895163.861932,-0.9525759816169739,0.07807999849319458,-0.3450160026550293,-0.14000000059604645,-0.6299999952316284,0.6299999952316284
1743895163.881932,-0.954039990901947,0.0785679966211319,-0.3450160026550293,-0.20999999344348907,-0.41999998688697815,0.5600000023841858
1743895163.901932,-0.961359977722168,0.07807999849319458,-0.3455039858818054,-0.3499999940395355,-0.699999988079071,0.3499999940395355
1743895163.921932,-0.9584320187568665,0.07466399669647217,-0.34599199891090393,-0.41999998688697815,-0.7699999809265137,0.14000000059604645
1743895163.941932,-0.961359977722168,0.07612799853086472,-0.3455039858818054,0.0,-1.4700000286102295,0.699999988079071
1743895163.882903,-0.9574559926986694,0.07710400223731995,-0.3411119878292084,0.0,-1.8200000524520874,0.7699999809265137
1743895163.902903,-0.955016016960144,0.08003199845552444,-0.3416000008583069,0.2800000011920929,-2.309999942779541,0.49000000953674316
1743895163.922903,-0.9559919834136963,0.07612799853086472,-0.33671998977661133,0.41999998688697815,-2.5899999141693115,0.0
1743895163.942903,-0.9564800262451172,0.07807999849319458,-0.34013599157333374,0.699999988079071,-2.7300000190734863,-0.41999998688697815
1743895163.962903,-0.9564800262451172,0.07368800044059753,-0.3362320065498352,1.4700000286102295,-2.799999952316284,-0.8399999737739563
1743895163.982903,-0.955016016960144,0.0697840005159378,-0.3308640122413635,1.75,-2.940000057220459,-0.699999988079071
1743895163.9131773,-0.9530640244483948,0.0727119967341423,-0.32598400115966797,1.8899999856948853,-3.1500000953674316,-0.41999998688697815
1743895163.9331772,-0.9525759816169739,0.07515200227499008,-0.32549598813056946,1.5399999618530273,-3.1500000953674316,17.709999084472656
1743895163.9531772,-0.9520879983901978,0.07661599665880203,-0.3240320086479187,1.3300000429153442,-3.0799999237060547,0.07000000029802322
1743895163.9731772,-0.9579439759254456,0.07417599856853485,-0.3264720141887665,1.3300000429153442,-2.940000057220459,-0.07000000029802322
1743895163.9931772,-0.9598960280418396,0.07222399860620499,-0.3245199918746948,1.4700000286102295,-2.869999885559082,-0.3499999940395355
1743895164.0131772,-0.9598960280418396,0.06929600238800049,-0.32500800490379333,1.8899999856948853,-2.869999885559082,-0.49000000953674316
1743895163.9585652,-0.9530640244483948,0.06929600238800049,-0.32842400670051575,1.6100000143051147,-2.799999952316284,-0.5600000023841858
1743895163.9785652,-0.9506239891052246,0.0697840005159378,-0.32842400670051575,0.9800000190734863,-2.450000047683716,0.0
1743895163.9985652,-0.9481840133666992,0.07222399860620499,-0.3298879861831665,0.49000000953674316,-2.7300000190734863,0.3499999940395355
1743895164.0185652,-0.9564800262451172,0.0756400004029274,-0.3323279917240143,0.41999998688697815,-2.6600000858306885,0.2800000011920929
1743895164.0385652,-0.9638000130653381,0.07368800044059753,-0.3362320065498352,0.5600000023841858,-2.799999952316284,0.20999999344348907
1743895164.0585651,-0.9672160148620605,0.07466399669647217,-0.3411119878292084,0.6299999952316284,-2.799999952316284,-0.3499999940395355
1743895164.0027542,-0.9652640223503113,0.07417599856853485,-0.34306401014328003,0.7699999809265137,-2.6600000858306885,-0.699999988079071
1743895164.0227542,-0.9662399888038635,0.07466399669647217,-0.34599199891090393,0.8399999737739563,-2.5899999141693115,-0.7699999809265137
1743895164.0427542,-0.9584320187568665,0.0727119967341423,-0.3450160026550293,0.9800000190734863,-2.6600000858306885,-0.8399999737739563
1743895164.0627542,-0.9608719944953918,0.07466399669647217,-0.3455039858818054,0.6299999952316284,-2.5899999141693115,-0.8399999737739563
1743895164.0827541,-0.970632016658783,0.0756400004029274,-0.34648001194000244,0.9800000190734863,-2.7300000190734863,-0.9100000262260437
1743895164.102754,-0.9735599756240845,0.07807999849319458,-0.3450160026550293,1.399999976158142,-2.869999885559082,-1.5399999618530273
1743895164.048116,-0.9686800241470337,0.07515200227499008,-0.34696799516677856,1.8200000524520874,-3.0799999237060547,-1.6799999475479126
1743895164.068116,-0.9618480205535889,0.07417599856853485,-0.3425759971141815,1.8200000524520874,-2.940000057220459,-1.75
1743895164.088116,-0.9555040001869202,0.08051999658346176,-0.3420880138874054,1.75,-3.009999990463257,-1.5399999618530273
1743895164.108116,-0.9535520076751709,0.07905600219964981,-0.338672012090683,1.5399999618530273,-2.799999952316284,-1.2599999904632568
1743895164.128116,-0.9535520076751709,0.08051999658346176,-0.33720800280570984,1.6799999475479126,-2.6600000858306885,-1.2599999904632568
1743895164.1481159,-0.9535520076751709,0.07905600219964981,-0.3381839990615845,1.6799999475479126,-2.240000009536743,-1.399999976158142
1743895164.1385522,-0.9598960280418396,0.07905600219964981,-0.33769598603248596,1.75,-2.1700000762939453,-1.2599999904632568
1743895164.1585522,-0.9559919834136963,0.07807999849319458,-0.3337920010089874,1.6799999475479126,-1.8200000524520874,-1.1200000047683716
1743895164.1785522,-0.9559919834136963,0.08247199654579163,-0.3328160047531128,1.4700000286102295,-1.6100000143051147,-0.5600000023841858
1743895164.1985521,-0.954039990901947,0.08588799834251404,-0.33720800280570984,0.9100000262260437,-1.399999976158142,-0.14000000059604645
1743895164.218552,-0.9603840112686157,0.08149600028991699,-0.3357439935207367,0.5600000023841858,-1.1200000047683716,-0.14000000059604645
1743895164.238552,-0.961359977722168,0.0756400004029274,-0.33769598603248596,0.49000000953674316,-1.1200000047683716,-0.5600000023841858
1743895164.143431,-0.9589200019836426,0.0697840005159378,-0.34062400460243225,0.41999998688697815,-0.8399999737739563,-0.6299999952316284
1743895164.163431,-0.9574559926986694,0.06685599684715271,-0.3416000008583069,0.3499999940395355,-0.8399999737739563,-0.7699999809265137
1743895164.183431,-0.954039990901947,0.06880799680948257,-0.34013599157333374,0.5600000023841858,-0.9100000262260437,-0.49000000953674316
1743895164.203431,-0.9555040001869202,0.07173600047826767,-0.34013599157333374,0.699999988079071,-1.2599999904632568,-0.3499999940395355
1743895164.2234309,-0.9589200019836426,0.07320000231266022,-0.3362320065498352,1.1200000047683716,-1.5399999618530273,-0.20999999344348907
1743895164.2434309,-0.962336003780365,0.07173600047826767,-0.3411119878292084,1.75,-1.8899999856948853,-0.2800000011920929
1743895164.169332,-0.9608719944953918,0.07515200227499008,-0.3357439935207367,2.380000114440918,-2.0299999713897705,-0.41999998688697815
1743895164.189332,-0.9535520076751709,0.07612799853086472,-0.33428001403808594,2.0999999046325684,-2.309999942779541,-0.699999988079071
1743895164.209332,-0.9491599798202515,0.0785679966211319,-0.33135199546813965,1.8899999856948853,-2.0999999046325684,-0.5600000023841858
1743895164.229332,-0.9545279741287231,0.07807999849319458,-0.3323279917240143,1.0499999523162842,-1.8899999856948853,-0.6299999952316284
1743895164.249332,-0.9545279741287231,0.07515200227499008,-0.3323279917240143,0.699999988079071,-1.9600000381469727,-0.6299999952316284
1743895164.269332,-0.954039990901947,0.07515200227499008,-0.3323279917240143,0.699999988079071,-2.0299999713897705,-1.1200000047683716
1743895164.2138362,-0.9501360058784485,0.07320000231266022,-0.3323279917240143,1.1200000047683716,-2.240000009536743,-1.0499999523162842
1743895164.2338362,-0.9511119723320007,0.0756400004029274,-0.3294000029563904,1.190000057220459,-2.5199999809265137,-0.7699999809265137
1743895164.2538362,-0.9516000151634216,0.07710400223731995,-0.3323279917240143,1.399999976158142,-2.7300000190734863,-0.5600000023841858
1743895164.2738361,-0.9525759816169739,0.07417599856853485,-0.3328160047531128,1.399999976158142,-3.009999990463257,-0.2800000011920929
1743895164.293836,-0.9535520076751709,0.0727119967341423,-0.33525601029396057,1.399999976158142,-2.940000057220459,0.0
1743895164.313836,-0.9618480205535889,0.07466399669647217,-0.33671998977661133,1.75,-2.869999885559082,0.07000000029802322
1743895164.257991,-0.9657520055770874,0.07124800235033035,-0.33671998977661133,1.75,-2.799999952316284,0.07000000029802322
1743895164.277991,-0.9677039980888367,0.07320000231266022,-0.338672012090683,1.3300000429153442,-2.5199999809265137,0.14000000059604645
1743895164.297991,-0.9652640223503113,0.0756400004029274,-0.338672012090683,0.699999988079071,-1.8899999856948853,0.20999999344348907
1743895164.317991,-0.9642879962921143,0.0756400004029274,-0.3396480083465576,0.0,-1.3300000429153442,-0.14000000059604645
1743895164.337991,-0.9647759795188904,0.07124800235033035,-0.3445279896259308,0.14000000059604645,-1.2599999904632568,-0.7699999809265137
1743895164.357991,-0.9638000130653381,0.06929600238800049,-0.3479439914226532,0.20999999344348907,-1.2599999904632568,-1.3300000429153442
1743895164.3023403,-0.962336003780365,0.06880799680948257,-0.3479439914226532,0.699999988079071,-1.399999976158142,-1.4700000286102295
1743895164.3223403,-0.962336003780365,0.06831999868154526,-0.3479439914226532,0.9800000190734863,-1.9600000381469727,-1.4700000286102295
1743895164.3423402,-0.962336003780365,0.06929600238800049,-0.3479439914226532,1.5399999618530273,-2.5199999809265137,-1.3300000429153442
1743895164.3623402,-0.9672160148620605,0.07368800044059753,-0.34696799516677856,2.240000009536743,-3.0799999237060547,-1.399999976158142
1743895164.3823402,-0.9642879962921143,0.07515200227499008,-0.3396480083465576,2.450000047683716,-3.2899999618530273,-1.75
1743895164.4023402,-0.9579439759254456,0.08100800216197968,-0.338672012090683,2.0999999046325684,-2.799999952316284,-1.8200000524520874
1743895164.335303,-0.9511119723320007,0.0785679966211319,-0.3337920010089874,1.6100000143051147,-2.0999999046325684,-2.1700000762939453
1743895164.355303,-0.9481840133666992,0.07515200227499008,-0.33428001403808594,1.0499999523162842,-1.2599999904632568,-2.380000114440918
1743895164.375303,-0.9452559947967529,0.07466399669647217,-0.3333039879798889,1.190000057220459,-0.8399999737739563,-2.450000047683716
1743895164.395303,-0.9452559947967529,0.07124800235033035,-0.33525601029396057,1.2599999904632568,-0.699999988079071,-2.0999999046325684
1743895164.415303,-0.9496480226516724,0.07075999677181244,-0.33525601029396057,2.1700000762939453,-1.0499999523162842,-1.75
1743895164.435303,-0.9559919834136963,0.07222399860620499,-0.33671998977661133,2.309999942779541,-1.6100000143051147,-1.6100000143051147
1743895164.3786502,-0.9589200019836426,0.07515200227499008,-0.33671998977661133,2.1700000762939453,-2.0999999046325684,-1.190000057220459
1743895164.3986502,-0.9594079852104187,0.07612799853086472,-0.338672012090683,1.8899999856948853,-2.940000057220459,-0.9800000190734863
1743895164.4186502,-0.9545279741287231,0.07466399669647217,-0.338672012090683,1.6799999475479126,-3.2899999618530273,-1.0499999523162842
1743895164.4386501,-0.9535520076751709,0.06929600238800049,-0.33720800280570984,1.190000057220459,-3.2899999618530273,-1.0499999523162842
1743895164.45865,-0.9525759816169739,0.07075999677181244,-0.33769598603248596,0.8399999737739563,-2.940000057220459,-1.0499999523162842
1743895164.47865,-0.9545279741287231,0.06734400242567062,-0.33769598603248596,0.7699999809265137,-2.380000114440918,-0.7699999809265137
1743895164.439537,-0.9574559926986694,0.06929600238800049,-0.3357439935207367,0.699999988079071,-2.0999999046325684,-0.5600000023841858
1743895164.459537,-0.9569680094718933,0.07222399860620499,-0.3362320065498352,0.3499999940395355,-1.5399999618530273,-0.2800000011920929
1743895164.479537,-0.9594079852104187,0.07612799853086472,-0.3337920010089874,-0.07000000029802322,-1.2599999904632568,-0.20999999344348907
1743895164.499537,-0.9598960280418396,0.07759200036525726,-0.33476799726486206,-0.2800000011920929,-1.0499999523162842,-0.20999999344348907
1743895164.519537,-0.9603840112686157,0.07710400223731995,-0.338672012090683,0.0,-1.3300000429153442,-0.5600000023841858
1743895164.539537,-0.9598960280418396,0.07368800044059753,-0.34013599157333374,0.3499999940395355,-1.4700000286102295,-0.6299999952316284
1743895164.468131,-0.9589200019836426,0.07368800044059753,-0.34355199337005615,0.8399999737739563,-1.4700000286102295,-0.7699999809265137
1743895164.488131,-0.9555040001869202,0.07320000231266022,-0.34599199891090393,0.9100000262260437,-1.6799999475479126,-0.49000000953674316
1743895164.508131,-0.9589200019836426,0.07515200227499008,-0.34940800070762634,0.9100000262260437,-2.240000009536743,-0.20999999344348907
1743895164.528131,-0.9564800262451172,0.07661599665880203,-0.3484320044517517,0.7699999809265137,-2.6600000858306885,-0.2800000011920929
1743895164.548131,-0.9598960280418396,0.07612799853086472,-0.34648001194000244,0.9100000262260437,-3.1500000953674316,-0.41999998688697815
1743895164.568131,-0.9618480205535889,0.07661599665880203,-0.3479439914226532,0.9100000262260437,-3.2899999618530273,-1.0499999523162842
1743895164.513406,-0.9574559926986694,0.0727119967341423,-0.3450160026550293,1.4700000286102295,-3.7100000381469727,-1.0499999523162842
1743895164.533406,-0.955016016960144,0.07466399669647217,-0.34013599157333374,1.6799999475479126,-3.8499999046325684,-1.190000057220459
1743895164.553406,-0.955016016960144,0.0756400004029274,-0.33671998977661133,2.0299999713897705,-3.9200000762939453,-1.1200000047683716
1743895164.573406,-0.9555040001869202,0.07320000231266022,-0.33525601029396057,2.450000047683716,-4.059999942779541,-1.190000057220459
1743895164.593406,-0.9530640244483948,0.07222399860620499,-0.33720800280570984,2.7300000190734863,-3.8499999046325684,-1.2599999904632568
1743895164.613406,-0.9569680094718933,0.07368800044059753,-0.33428001403808594,2.5899999141693115,-3.359999895095825,-1.4700000286102295
1743895164.545203,-0.9569680094718933,0.0727119967341423,-0.33428001403808594,2.240000009536743,-2.7300000190734863,-1.6799999475479126
1743895164.565203,-0.9555040001869202,0.07466399669647217,-0.338672012090683,1.8200000524520874,-2.309999942779541,-1.6799999475479126
1743895164.585203,-0.955016016960144,0.07222399860620499,-0.3381839990615845,1.5399999618530273,-1.8899999856948853,-1.75
1743895164.605203,-0.9574559926986694,0.07075999677181244,-0.3391599953174591,1.1200000047683716,-1.1200000047683716,-1.4700000286102295
1743895164.625203,-0.955016016960144,0.07173600047826767,-0.3396480083465576,0.9800000190734863,-1.0499999523162842,-1.399999976158142
1743895164.6452029,-0.9594079852104187,0.07173600047826767,-0.34013599157333374,0.6299999952316284,-0.9800000190734863,-1.1200000047683716
1743895164.588626,-0.9603840112686157,0.07368800044059753,-0.3425759971141815,0.5600000023841858,-0.9800000190734863,-0.9800000190734863
1743895164.608626,-0.961359977722168,0.07417599856853485,-0.34355199337005615,1.1200000047683716,-1.0499999523162842,-1.1200000047683716
1743895164.6286259,-0.9589200019836426,0.0756400004029274,-0.34306401014328003,1.3300000429153442,-1.0499999523162842,-1.4700000286102295
1743895164.6486259,-0.9589200019836426,0.07417599856853485,-0.3416000008583069,1.4700000286102295,-1.190000057220459,-1.6799999475479126
1743895164.6686258,-0.9579439759254456,0.07515200227499008,-0.34599199891090393,1.399999976158142,-1.190000057220459,-1.8200000524520874
1743895164.6886258,-0.9569680094718933,0.07710400223731995,-0.34355199337005615,1.190000057220459,-1.3300000429153442,-1.75
1743895164.635185,-0.9525759816169739,0.07417599856853485,-0.34648001194000244,1.0499999523162842,-1.4700000286102295,-1.8200000524520874
1743895164.655185,-0.955016016960144,0.07417599856853485,-0.3484320044517517,1.0499999523162842,-1.8200000524520874,-1.6100000143051147
1743895164.675185,-0.9569680094718933,0.07417599856853485,-0.34355199337005615,1.4700000286102295,-1.8899999856948853,-1.4700000286102295
1743895164.695185,-0.9559919834136963,0.07173600047826767,-0.34306401014328003,1.9600000381469727,-2.450000047683716,-1.399999976158142
1743895164.715185,-0.9525759816169739,0.07075999677181244,-0.3420880138874054,2.0999999046325684,-2.799999952316284,-1.0499999523162842
1743895164.735185,-0.9501360058784485,0.07515200227499008,-0.3411119878292084,1.399999976158142,-2.380000114440918,-0.2800000011920929
1743895164.663398,-0.9501360058784485,0.07466399669647217,-0.33769598603248596,1.190000057220459,-2.1700000762939453,0.14000000059604645
1743895164.683398,-0.9535520076751709,0.07466399669647217,-0.3357439935207367,0.8399999737739563,-1.9600000381469727,0.20999999344348907
1743895164.703398,-0.9579439759254456,0.0727119967341423,-0.338672012090683,0.6299999952316284,-1.399999976158142,0.20999999344348907
1743895164.723398,-0.9574559926986694,0.07222399860620499,-0.3391599953174591,0.3499999940395355,-0.8399999737739563,-0.14000000059604645
1743895164.743398,-0.9584320187568665,0.07222399860620499,-0.3381839990615845,0.3499999940395355,-0.6299999952316284,-0.3499999940395355
1743895164.763398,-0.9559919834136963,0.07417599856853485,-0.3362320065498352,0.20999999344348907,-0.41999998688697815,-0.20999999344348907
1743895164.7398422,-0.954039990901947,0.07368800044059753,-0.33769598603248596,0.20999999344348907,-0.49000000953674316,-0.3499999940395355
1743895164.7598422,-0.9506239891052246,0.07417599856853485,-0.3411119878292084,0.3499999940395355,-0.5600000023841858,-0.49000000953674316
1743895164.7798421,-0.9545279741287231,0.07075999677181244,-0.34355199337005615,0.6299999952316284,-1.190000057220459,-0.6299999952316284
1743895164.7998421,-0.9574559926986694,0.06929600238800049,-0.3416000008583069,1.190000057220459,-1.8200000524520874,-1.0499999523162842
1743895164.819842,-0.9638000130653381,0.06929600238800049,-0.3450160026550293,1.3300000429153442,-1.9600000381469727,-1.1200000047683716
1743895164.839842,-0.9574559926986694,0.06831999868154526,-0.34599199891090393,1.6100000143051147,-2.240000009536743,-1.3300000429153442
1743895164.743753,-0.9535520076751709,0.07075999677181244,-0.3445279896259308,1.6100000143051147,-2.5899999141693115,-1.5399999618530273
1743895164.763753,-0.9520879983901978,0.06588000059127808,-0.34306401014328003,1.5399999618530273,-2.5899999141693115,-1.6799999475479126
1743895164.783753,-0.955016016960144,0.06539200246334076,-0.3416000008583069,1.8200000524520874,-2.869999885559082,-1.5399999618530273
1743895164.803753,-0.9598960280418396,0.06831999868154526,-0.34062400460243225,1.75,-2.7300000190734863,-1.399999976158142
1743895164.8237529,-0.9598960280418396,0.06734400242567062,-0.3416000008583069,1.75,-2.7300000190734863,-1.2599999904632568
1743895164.8437529,-0.9574559926986694,0.0727119967341423,-0.338672012090683,1.6100000143051147,-2.6600000858306885,-0.9800000190734863
1743895164.7835243,-0.9603840112686157,0.07222399860620499,-0.3396480083465576,1.2599999904632568,-2.240000009536743,-0.9100000262260437
1743895164.8035243,-0.9579439759254456,0.07417599856853485,-0.34013599157333374,0.7699999809265137,-1.8899999856948853,-1.0499999523162842
1743895164.8235242,-0.9594079852104187,0.07124800235033035,-0.34062400460243225,0.41999998688697815,-1.5399999618530273,-1.2599999904632568
1743895164.8435242,-0.9574559926986694,0.06539200246334076,-0.3479439914226532,0.9100000262260437,-1.3300000429153442,-1.2599999904632568
1743895164.8635242,-0.9555040001869202,0.06588000059127808,-0.34599199891090393,0.8399999737739563,-1.3300000429153442,-0.9800000190734863
1743895164.8835242,-0.9525759816169739,0.06685599684715271,-0.3450160026550293,0.699999988079071,-1.3300000429153442,-0.5600000023841858
1743895164.8281791,-0.9506239891052246,0.07173600047826767,-0.34599199891090393,0.49000000953674316,-1.4700000286102295,-0.20999999344348907
1743895164.848179,-0.9589200019836426,0.0727119967341423,-0.3474560081958771,0.6299999952316284,-1.399999976158142,-0.3499999940395355
1743895164.868179,-0.9589200019836426,0.07320000231266022,-0.3484320044517517,0.699999988079071,-1.399999976158142,-0.41999998688697815
1743895164.888179,-0.9574559926986694,0.07759200036525726,-0.3484320044517517,1.0499999523162842,-1.6100000143051147,-0.5600000023841858
1743895164.908179,-0.9511119723320007,0.07612799853086472,-0.3450160026550293,0.8399999737739563,-1.5399999618530273,-0.49000000953674316
1743895164.928179,-0.9520879983901978,0.07807999849319458,-0.34404000639915466,0.9800000190734863,-1.6100000143051147,-0.5600000023841858
1743895164.8795571,-0.955016016960144,0.07466399669647217,-0.34648001194000244,1.1200000047683716,-1.6799999475479126,-0.8399999737739563
1743895164.899557,-0.954039990901947,0.0727119967341423,-0.34648001194000244,1.5399999618530273,-2.0299999713897705,-0.9800000190734863
1743895164.919557,-0.954039990901947,0.0727119967341423,-0.3479439914226532,1.75,-2.380000114440918,-1.0499999523162842
1743895164.939557,-0.9525759816169739,0.07515200227499008,-0.3445279896259308,1.75,-2.5199999809265137,-1.1200000047683716
1743895164.959557,-0.9525759816169739,0.07612799853086472,-0.3445279896259308,1.6100000143051147,-2.5899999141693115,-0.9800000190734863
1743895164.979557,-0.9520879983901978,0.07320000231266022,-0.3450160026550293,1.6799999475479126,-2.6600000858306885,-0.9800000190734863
1743895164.917457,-0.9530640244483948,0.07075999677181244,-0.3416000008583069,1.75,-2.7300000190734863,-0.9100000262260437
1743895164.937457,-0.9555040001869202,0.07027199864387512,-0.3396480083465576,1.6100000143051147,-2.7300000190734863,-1.1200000047683716
1743895164.957457,-0.9555040001869202,0.06880799680948257,-0.3381839990615845,1.6799999475479126,-2.940000057220459,-1.0499999523162842
1743895164.977457,-0.9555040001869202,0.0697840005159378,-0.3381839990615845,1.4700000286102295,-2.799999952316284,-1.0499999523162842
1743895164.997457,-0.9535520076751709,0.06929600238800049,-0.33769598603248596,1.4700000286102295,-2.799999952316284,-1.0499999523162842
1743895165.017457,-0.9564800262451172,0.06685599684715271,-0.33671998977661133,1.399999976158142,-2.7300000190734863,-1.0499999523162842
1743895164.950144,-0.9574559926986694,0.06441599875688553,-0.3396480083465576,1.2599999904632568,-2.799999952316284,-1.190000057220459
1743895164.970144,-0.9569680094718933,0.0634400025010109,-0.3411119878292084,1.8899999856948853,-2.5899999141693115,-1.1200000047683716
1743895164.990144,-0.9584320187568665,0.06148799881339073,-0.3425759971141815,1.75,-2.5199999809265137,-0.9100000262260437
1743895165.010144,-0.955016016960144,0.06783200055360794,-0.34355199337005615,1.8200000524520874,-2.380000114440918,-0.41999998688697815
1743895165.030144,-0.954039990901947,0.07320000231266022,-0.34404000639915466,1.2599999904632568,-2.240000009536743,0.07000000029802322
1743895165.050144,-0.9584320187568665,0.07320000231266022,-0.34404000639915466,0.8399999737739563,-2.1700000762939453,0.20999999344348907
1743895165.0395422,-0.9589200019836426,0.07417599856853485,-0.3450160026550293,-0.14000000059604645,-2.0299999713897705,0.14000000059604645
1743895165.0595422,-0.9618480205535889,0.07417599856853485,-0.34404000639915466,-0.49000000953674316,-1.6100000143051147,-0.8399999737739563
1743895165.0795422,-0.9559919834136963,0.07075999677181244,-0.3425759971141815,-0.49000000953674316,-1.399999976158142,-1.2599999904632568
1743895165.0995421,-0.9496480226516724,0.06685599684715271,-0.3450160026550293,-0.2800000011920929,-0.9100000262260437,-1.5399999618530273
1743895165.1195421,-0.9501360058784485,0.06880799680948257,-0.34355199337005615,-0.14000000059604645,-0.9100000262260437,-1.6799999475479126
1743895165.139542,-0.9491599798202515,0.06880799680948257,-0.3455039858818054,0.699999988079071,-1.3300000429153442,-1.6100000143051147
1743895165.0429752,-0.9545279741287231,0.07222399860620499,-0.34599199891090393,1.1200000047683716,-1.5399999618530273,-1.6100000143051147
1743895165.0629752,-0.9594079852104187,0.07368800044059753,-0.3479439914226532,1.6100000143051147,-1.8899999856948853,-1.9600000381469727
1743895165.0829751,-0.9594079852104187,0.07515200227499008,-0.34940800070762634,2.0999999046325684,-2.7300000190734863,-1.9600000381469727
1743895165.1029751,-0.9589200019836426,0.07661599665880203,-0.34891998767852783,1.9600000381469727,-3.2200000286102295,-1.8899999856948853
1743895165.122975,-0.9584320187568665,0.07759200036525726,-0.3479439914226532,1.6100000143051147,-3.359999895095825,-1.6799999475479126
1743895165.142975,-0.9569680094718933,0.07710400223731995,-0.3484320044517517,1.3300000429153442,-3.569999933242798,-1.5399999618530273
1743895165.083105,-0.954039990901947,0.0727119967341423,-0.3445279896259308,0.5600000023841858,-3.430000066757202,-1.399999976158142
1743895165.103105,-0.9555040001869202,0.06441599875688553,-0.34648001194000244,0.6299999952316284,-3.359999895095825,-1.6100000143051147
1743895165.123105,-0.9535520076751709,0.06539200246334076,-0.3445279896259308,0.9800000190734863,-3.009999990463257,-1.4700000286102295
1743895165.143105,-0.9496480226516724,0.06392800062894821,-0.34599199891090393,1.5399999618530273,-2.940000057220459,-1.399999976158142
1743895165.163105,-0.9481840133666992,0.06588000059127808,-0.3445279896259308,1.399999976158142,-2.450000047683716,-1.1200000047683716
1743895165.183105,-0.9486719965934753,0.06588000059127808,-0.3445279896259308,1.399999976158142,-2.450000047683716,-1.2599999904632568
1743895165.1135943,-0.9535520076751709,0.06685599684715271,-0.34355199337005615,1.75,-2.6600000858306885,-0.9800000190734863
1743895165.1335943,-0.9579439759254456,0.06539200246334076,-0.3455039858818054,1.75,-2.869999885559082,-0.9100000262260437
1743895165.1535943,-0.9574559926986694,0.06734400242567062,-0.34062400460243225,1.5399999618530273,-3.2200000286102295,-0.5600000023841858
1743895165.1735942,-0.9574559926986694,0.0727119967341423,-0.3391599953174591,1.0499999523162842,-3.2899999618530273,-0.20999999344348907
1743895165.1935942,-0.9584320187568665,0.0756400004029274,-0.34013599157333374,0.9100000262260437,-3.2899999618530273,-0.14000000059604645
1743895165.2135942,-0.9516000151634216,0.07515200227499008,-0.338672012090683,0.7699999809265137,-3.359999895095825,-0.20999999344348907
1743895165.1589682,-0.9516000151634216,0.07075999677181244,-0.3411119878292084,0.7699999809265137,-3.569999933242798,-0.5600000023841858
1743895165.1789682,-0.9491599798202515,0.06929600238800049,-0.3396480083465576,0.9100000262260437,-3.569999933242798,-0.49000000953674316
1743895165.1989682,-0.9472079873085022,0.07222399860620499,-0.3425759971141815,0.9100000262260437,-3.990000009536743,-0.41999998688697815
1743895165.2189682,-0.9525759816169739,0.07466399669647217,-0.3425759971141815,1.1200000047683716,-4.199999809265137,-0.3499999940395355
1743895165.2389681,-0.9584320187568665,0.07320000231266022,-0.34306401014328003,1.5399999618530273,-4.550000190734863,-0.2800000011920929
1743895165.258968,-0.9603840112686157,0.0727119967341423,-0.3425759971141815,1.5399999618530273,-5.110000133514404,-0.5600000023841858
1743895165.204039,-0.9584320187568665,0.07173600047826767,-0.3420880138874054,1.2599999904632568,-5.25,-0.7699999809265137
1743895165.224039,-0.9535520076751709,0.0727119967341423,-0.34355199337005615,1.2599999904632568,-5.25,-0.699999988079071
1743895165.244039,-0.9535520076751709,0.07075999677181244,-0.34355199337005615,0.9100000262260437,-5.320000171661377,-0.41999998688697815
1743895165.264039,-0.9545279741287231,0.07612799853086472,-0.3381839990615845,0.9800000190734863,-5.389999866485596,-0.14000000059604645
1743895165.284039,-0.9555040001869202,0.07027199864387512,-0.3411119878292084,1.1200000047683716,-5.179999828338623,-0.3499999940395355
1743895165.304039,-0.954039990901947,0.06880799680948257,-0.3420880138874054,1.6799999475479126,-4.480000019073486,-0.41999998688697815
1743895165.249254,-0.9496480226516724,0.06831999868154526,-0.3445279896259308,1.75,-3.990000009536743,-0.3499999940395355
1743895165.269254,-0.9476959705352783,0.06880799680948257,-0.3479439914226532,1.6799999475479126,-3.9200000762939453,-0.2800000011920929
1743895165.289254,-0.9545279741287231,0.06831999868154526,-0.3445279896259308,1.3300000429153442,-3.430000066757202,-0.20999999344348907
1743895165.309254,-0.9603840112686157,0.07075999677181244,-0.34891998767852783,0.6299999952316284,-2.940000057220459,-0.20999999344348907
1743895165.329254,-0.9628239870071411,0.07075999677181244,-0.3484320044517517,0.14000000059604645,-2.6600000858306885,-0.41999998688697815
1743895165.349254,-0.9589200019836426,0.06929600238800049,-0.3484320044517517,-0.07000000029802322,-2.380000114440918,-0.7699999809265137
1743895165.2794971,-0.9579439759254456,0.0727119967341423,-0.3474560081958771,0.20999999344348907,-2.309999942779541,-0.8399999737739563
1743895165.2994971,-0.9603840112686157,0.06831999868154526,-0.34306401014328003,0.41999998688697815,-2.309999942779541,-1.190000057220459
1743895165.319497,-0.9633119702339172,0.07075999677181244,-0.34404000639915466,0.9100000262260437,-2.5199999809265137,-1.4700000286102295
1743895165.339497,-0.962336003780365,0.07173600047826767,-0.34306401014328003,1.5399999618530273,-2.869999885559082,-1.399999976158142
1743895165.359497,-0.9589200019836426,0.0697840005159378,-0.3455039858818054,1.8899999856948853,-3.1500000953674316,-1.4700000286102295
1743895165.379497,-0.9589200019836426,0.06831999868154526,-0.3450160026550293,2.0299999713897705,-3.2200000286102295,-1.6100000143051147
1743895165.3684633,-0.9574559926986694,0.06783200055360794,-0.3450160026550293,1.9600000381469727,-3.2200000286102295,-1.5399999618530273
1743895165.3884633,-0.9555040001869202,0.07027199864387512,-0.3445279896259308,1.4700000286102295,-3.5,-1.190000057220459
1743895165.4084632,-0.9555040001869202,0.0697840005159378,-0.34306401014328003,1.399999976158142,-3.640000104904175,-0.5600000023841858
1743895165.4284632,-0.9574559926986694,0.07320000231266022,-0.3416000008583069,1.399999976158142,-3.569999933242798,-0.2800000011920929
1743895165.4484632,-0.961359977722168,0.07417599856853485,-0.3420880138874054,1.0499999523162842,-3.5,-0.20999999344348907
1743895165.4684632,-0.962336003780365,0.0756400004029274,-0.3381839990615845,1.1200000047683716,-3.2899999618530273,-0.14000000059604645
1743895165.3733273,-0.9603840112686157,0.07515200227499008,-0.33769598603248596,1.0499999523162842,-3.2200000286102295,-0.20999999344348907
1743895165.3933272,-0.961359977722168,0.07320000231266022,-0.33720800280570984,0.9800000190734863,-2.869999885559082,-0.41999998688697815
1743895165.4133272,-0.9569680094718933,0.07173600047826767,-0.33769598603248596,0.9100000262260437,-2.799999952316284,-0.5600000023841858
1743895165.4333272,-0.954039990901947,0.07124800235033035,-0.3391599953174591,0.8399999737739563,-2.799999952316284,-0.6299999952316284
1743895165.4533272,-0.9496480226516724,0.06685599684715271,-0.3420880138874054,1.1200000047683716,-2.6600000858306885,-0.699999988079071
1743895165.4733272,-0.9437919855117798,0.06588000059127808,-0.34306401014328003,1.2599999904632568,-2.6600000858306885,-0.6299999952316284
1743895165.3999193,-0.9501360058784485,0.0663679987192154,-0.3411119878292084,1.4700000286102295,-2.7300000190734863,-0.2800000011920929
1743895165.4199193,-0.9559919834136963,0.06734400242567062,-0.34013599157333374,1.5399999618530273,-3.1500000953674316,-0.20999999344348907
1743895165.4399192,-0.9618480205535889,0.07124800235033035,-0.33769598603248596,1.6799999475479126,-3.2899999618530273,0.0
1743895165.4599192,-0.9652640223503113,0.07368800044059753,-0.3357439935207367,1.75,-3.569999933242798,-0.07000000029802322
1743895165.4799192,-0.9667279720306396,0.07368800044059753,-0.3357439935207367,1.6100000143051147,-3.7799999713897705,-0.2800000011920929
1743895165.4999192,-0.9647759795188904,0.07515200227499008,-0.3333039879798889,0.9800000190734863,-3.640000104904175,-0.7699999809265137
1743895165.445975,-0.9574559926986694,0.07075999677181244,-0.3337920010089874,0.8399999737739563,-3.2200000286102295,-1.1200000047683716
1743895165.465975,-0.955016016960144,0.06392800062894821,-0.33428001403808594,0.49000000953674316,-2.799999952316284,-1.2599999904632568
1743895165.485975,-0.9516000151634216,0.05953599885106087,-0.33525601029396057,0.5600000023841858,-2.5899999141693115,-1.399999976158142
1743895165.505975,-0.9516000151634216,0.05660799890756607,-0.3362320065498352,1.190000057220459,-2.380000114440918,-1.4700000286102295
1743895165.525975,-0.9574559926986694,0.056120000779628754,-0.33720800280570984,1.5399999618530273,-2.7300000190734863,-1.399999976158142
1743895165.545975,-0.9579439759254456,0.057583998888731,-0.3381839990615845,1.8899999856948853,-3.1500000953674316,-1.0499999523162842
1743895165.473411,-0.9633119702339172,0.06734400242567062,-0.3381839990615845,2.1700000762939453,-3.430000066757202,-0.9100000262260437
1743895165.493411,-0.962336003780365,0.06685599684715271,-0.3362320065498352,2.380000114440918,-3.8499999046325684,-0.9800000190734863
1743895165.513411,-0.962336003780365,0.06783200055360794,-0.3391599953174591,2.380000114440918,-4.199999809265137,-1.2599999904632568
1743895165.533411,-0.9564800262451172,0.07173600047826767,-0.33476799726486206,2.5199999809265137,-4.409999847412109,-1.5399999618530273
1743895165.553411,-0.9535520076751709,0.07075999677181244,-0.3328160047531128,2.5199999809265137,-4.480000019073486,-1.399999976158142
1743895165.573411,-0.954039990901947,0.0727119967341423,-0.33135199546813965,2.450000047683716,-4.480000019073486,-1.3300000429153442
1743895165.534517,-0.9525759816169739,0.0727119967341423,-0.3298879861831665,2.1700000762939453,-4.619999885559082,-1.190000057220459
1743895165.554517,-0.9555040001869202,0.0756400004029274,-0.3308640122413635,2.1700000762939453,-4.96999979019165,-1.190000057220459
1743895165.574517,-0.9603840112686157,0.0756400004029274,-0.3337920010089874,3.0799999237060547,-5.460000038146973,-1.2599999904632568
1743895165.594517,-0.9598960280418396,0.07515200227499008,-0.33428001403808594,3.009999990463257,-5.809999942779541,-1.5399999618530273
1743895165.614517,-0.9574559926986694,0.07222399860620499,-0.3362320065498352,2.940000057220459,-5.949999809265137,-1.6100000143051147
1743895165.634517,-0.9506239891052246,0.06880799680948257,-0.3328160047531128,2.5199999809265137,-6.369999885559082,-1.4700000286102295
1743895165.549534,-0.9481840133666992,0.06783200055360794,-0.33525601029396057,2.240000009536743,-6.300000190734863,-1.190000057220459
1743895165.569534,-0.9428160190582275,0.07027199864387512,-0.33720800280570984,1.6799999475479126,-6.440000057220459,-0.49000000953674316
1743895165.589534,-0.94623202085495,0.06539200246334076,-0.3362320065498352,2.1700000762939453,-6.579999923706055,-0.2800000011920929
1743895165.609534,-0.9496480226516724,0.06588000059127808,-0.3357439935207367,1.8200000524520874,-6.440000057220459,0.0
1743895165.629534,-0.9608719944953918,0.06734400242567062,-0.3333039879798889,2.0299999713897705,-6.650000095367432,0.20999999344348907
1743895165.649534,-0.9652640223503113,0.07173600047826767,-0.3294000029563904,2.0999999046325684,-6.579999923706055,0.5600000023841858
1743895165.6390312,-0.9691680073738098,0.0727119967341423,-0.330375999212265,1.6799999475479126,-6.369999885559082,0.41999998688697815
1743895165.6590312,-0.9696559906005859,0.07124800235033035,-0.3337920010089874,2.0999999046325684,-5.949999809265137,-0.07000000029802322
1743895165.6790311,-0.9657520055770874,0.06734400242567062,-0.33769598603248596,2.0299999713897705,-5.670000076293945,-0.3499999940395355
1743895165.699031,-0.9608719944953918,0.0663679987192154,-0.33720800280570984,1.8200000524520874,-5.53000020980835,-0.5600000023841858
1743895165.719031,-0.961359977722168,0.06734400242567062,-0.3381839990615845,1.75,-5.25,-0.7699999809265137
1743895165.739031,-0.9618480205535889,0.06685599684715271,-0.3362320065498352,1.6100000143051147,-5.179999828338623,-0.6299999952316284
1743895165.642889,-0.9628239870071411,0.06685599684715271,-0.3362320065498352,2.0999999046325684,-5.739999771118164,-0.5600000023841858
1743895165.662889,-0.9628239870071411,0.07027199864387512,-0.33769598603248596,2.309999942779541,-5.809999942779541,-0.49000000953674316
1743895165.682889,-0.9633119702339172,0.07612799853086472,-0.3328160047531128,2.240000009536743,-6.230000019073486,-0.5600000023841858
1743895165.702889,-0.9638000130653381,0.07417599856853485,-0.33184000849723816,2.6600000858306885,-6.159999847412109,-0.49000000953674316
1743895165.722889,-0.9598960280418396,0.0756400004029274,-0.3298879861831665,2.7300000190734863,-6.440000057220459,-0.49000000953674316
1743895165.742889,-0.9633119702339172,0.07661599665880203,-0.330375999212265,2.6600000858306885,-6.440000057220459,-0.3499999940395355
1743895165.683667,-0.961359977722168,0.07466399669647217,-0.3274480104446411,2.7300000190734863,-6.440000057220459,-0.2800000011920929
1743895165.703667,-0.9594079852104187,0.0727119967341423,-0.32842400670051575,2.5199999809265137,-6.300000190734863,-0.3499999940395355
1743895165.723667,-0.9589200019836426,0.07320000231266022,-0.3269599974155426,2.0299999713897705,-5.670000076293945,-0.3499999940395355
1743895165.743667,-0.9564800262451172,0.07173600047826767,-0.3274480104446411,1.75,-5.389999866485596,-0.49000000953674316
1743895165.7636669,-0.9569680094718933,0.07027199864387512,-0.32842400670051575,1.190000057220459,-5.039999961853027,-0.699999988079071
1743895165.7836668,-0.9579439759254456,0.06197600066661835,-0.330375999212265,0.9800000190734863,-4.619999885559082,-0.699999988079071
1743895165.7144241,-0.9589200019836426,0.062463998794555664,-0.330375999212265,0.6299999952316284,-4.409999847412109,-0.7699999809265137
1743895165.734424,-0.961359977722168,0.06002400070428848,-0.3308640122413635,0.9800000190734863,-4.340000152587891,-0.8399999737739563
1743895165.754424,-0.962336003780365,0.06148799881339073,-0.330375999212265,1.190000057220459,-4.409999847412109,-0.699999988079071
1743895165.774424,-0.9633119702339172,0.061000000685453415,-0.33135199546813965,1.3300000429153442,-4.480000019073486,-0.699999988079071
1743895165.794424,-0.9672160148620605,0.06392800062894821,-0.3264720141887665,1.2599999904632568,-4.199999809265137,-0.7699999809265137
1743895165.814424,-0.9677039980888367,0.0663679987192154,-0.3298879861831665,1.0499999523162842,-3.9200000762939453,-0.8399999737739563
1743895165.759579,-0.9652640223503113,0.06880799680948257,-0.3294000029563904,0.9100000262260437,-3.640000104904175,-0.9100000262260437
1743895165.779579,-0.9657520055770874,0.06831999868154526,-0.330375999212265,0.6299999952316284,-3.2200000286102295,-0.9800000190734863
1743895165.799579,-0.9681919813156128,0.07075999677181244,-0.3298879861831665,0.49000000953674316,-3.2200000286102295,-0.9100000262260437
1743895165.819579,-0.9672160148620605,0.06880799680948257,-0.330375999212265,0.41999998688697815,-3.0799999237060547,-1.0499999523162842
1743895165.8395789,-0.9686800241470337,0.06783200055360794,-0.33135199546813965,0.5600000023841858,-3.1500000953674316,-0.9100000262260437
1743895165.8595788,-0.9633119702339172,0.06831999868154526,-0.3337920010089874,0.7699999809265137,-3.0799999237060547,-0.9800000190734863
1743895165.789269,-0.9647759795188904,0.06929600238800049,-0.3337920010089874,0.9800000190734863,-3.009999990463257,-1.0499999523162842
1743895165.809269,-0.9647759795188904,0.07027199864387512,-0.3333039879798889,0.9100000262260437,-2.940000057220459,-1.1200000047683716
1743895165.829269,-0.961359977722168,0.0697840005159378,-0.33184000849723816,1.0499999523162842,-2.7300000190734863,-1.0499999523162842
1743895165.849269,-0.962336003780365,0.07173600047826767,-0.32842400670051575,0.8399999737739563,-2.6600000858306885,-1.0499999523162842
1743895165.869269,-0.9647759795188904,0.07320000231266022,-0.32793599367141724,0.5600000023841858,-2.380000114440918,-0.8399999737739563
1743895165.8892689,-0.9638000130653381,0.07710400223731995,-0.3269599974155426,0.2800000011920929,-2.450000047683716,-0.9800000190734863
1743895165.847124,-0.9642879962921143,0.07612799853086472,-0.32500800490379333,-0.14000000059604645,-2.5899999141693115,-1.0499999523162842
1743895165.867124,-0.9642879962921143,0.07612799853086472,-0.3215920031070709,-0.07000000029802322,-2.5199999809265137,-1.399999976158142
1743895165.887124,-0.961359977722168,0.07124800235033035,-0.31964001059532166,0.14000000059604645,-2.7300000190734863,-1.5399999618530273
1743895165.907124,-0.9598960280418396,0.06539200246334076,-0.32256799936294556,0.41999998688697815,-3.009999990463257,-1.8200000524520874
1743895165.927124,-0.9603840112686157,0.06148799881339073,-0.32256799936294556,0.7699999809265137,-3.2899999618530273,-2.0299999713897705
1743895165.947124,-0.9579439759254456,0.05904800072312355,-0.32256799936294556,1.4700000286102295,-3.9200000762939453,-1.8200000524520874
1743895165.879518,-0.9608719944953918,0.058559998869895935,-0.3215920031070709,1.4700000286102295,-4.340000152587891,-1.4700000286102295
1743895165.899518,-0.9667279720306396,0.05660799890756607,-0.32207998633384705,1.75,-4.690000057220459,-1.399999976158142
1743895165.919518,-0.9681919813156128,0.05904800072312355,-0.3215920031070709,1.8200000524520874,-5.039999961853027,-1.399999976158142
1743895165.939518,-0.9677039980888367,0.06295199692249298,-0.31915199756622314,1.9600000381469727,-4.690000057220459,-1.190000057220459
1743895165.959518,-0.9667279720306396,0.0663679987192154,-0.3211039900779724,1.8200000524520874,-4.550000190734863,-1.1200000047683716
1743895165.979518,-0.9701439738273621,0.06441599875688553,-0.31915199756622314,1.6799999475479126,-4.199999809265137,-0.9800000190734863
1743895165.9384742,-0.9662399888038635,0.06392800062894821,-0.32256799936294556,0.9100000262260437,-3.8499999046325684,-1.0499999523162842
1743895165.9584742,-0.9618480205535889,0.0634400025010109,-0.3240320086479187,0.699999988079071,-3.5,-0.8399999737739563
1743895165.9784741,-0.9608719944953918,0.06685599684715271,-0.3274480104446411,0.2800000011920929,-2.940000057220459,-0.9800000190734863
1743895165.9984741,-0.9638000130653381,0.06490399688482285,-0.32793599367141724,0.07000000029802322,-2.5899999141693115,-0.8399999737739563
1743895166.018474,-0.9594079852104187,0.0697840005159378,-0.3323279917240143,0.07000000029802322,-2.5199999809265137,-0.7699999809265137
1743895166.038474,-0.9589200019836426,0.07368800044059753,-0.3298879861831665,0.2800000011920929,-2.799999952316284,-0.20999999344348907
1743895165.969675,-0.9569680094718933,0.0727119967341423,-0.3298879861831665,0.5600000023841858,-2.940000057220459,-0.3499999940395355
1743895165.989675,-0.9608719944953918,0.07124800235033035,-0.32793599367141724,1.190000057220459,-3.0799999237060547,-0.5600000023841858
1743895166.009675,-0.9633119702339172,0.07368800044059753,-0.32500800490379333,1.3300000429153442,-3.2200000286102295,-0.7699999809265137
1743895166.029675,-0.9657520055770874,0.07466399669647217,-0.3245199918746948,1.2599999904632568,-3.0799999237060547,-1.0499999523162842
1743895166.049675,-0.9618480205535889,0.0756400004029274,-0.32207998633384705,1.3300000429153442,-3.0799999237060547,-1.190000057220459
1743895166.069675,-0.9633119702339172,0.07417599856853485,-0.32207998633384705,1.2599999904632568,-3.0799999237060547,-1.399999976158142
1743895166.0143561,-0.9594079852104187,0.07368800044059753,-0.32305601239204407,1.3300000429153442,-3.0799999237060547,-1.4700000286102295
1743895166.034356,-0.9564800262451172,0.07368800044059753,-0.32500800490379333,1.75,-3.009999990463257,-0.9800000190734863
1743895166.054356,-0.9501360058784485,0.07320000231266022,-0.3274480104446411,2.0299999713897705,-3.0799999237060547,-0.41999998688697815
1743895166.074356,-0.9486719965934753,0.07222399860620499,-0.3274480104446411,2.5199999809265137,-2.940000057220459,-0.14000000059604645
1743895166.094356,-0.9516000151634216,0.07173600047826767,-0.32842400670051575,1.8899999856948853,-2.309999942779541,1.190000057220459
1743895166.114356,-0.9530640244483948,0.07320000231266022,-0.32598400115966797,1.6799999475479126,-2.450000047683716,1.9600000381469727
1743895166.045042,-0.9657520055770874,0.07710400223731995,-0.3240320086479187,1.3300000429153442,-2.6600000858306885,2.0299999713897705
1743895166.065042,-0.9760000109672546,0.07612799853086472,-0.32305601239204407,1.190000057220459,-2.7300000190734863,1.8899999856948853
1743895166.085042,-0.9838079810142517,0.06490399688482285,-0.31329599022865295,0.3499999940395355,-3.430000066757202,0.9800000190734863
1743895166.105042,-0.9813680052757263,0.06441599875688553,-0.3152480125427246,-0.9800000190734863,-3.9200000762939453,-0.49000000953674316
1743895166.125042,-0.9764879941940308,0.06295199692249298,-0.3123199939727783,-1.6100000143051147,-4.269999980926514,-1.2599999904632568
1743895166.145042,-0.9711199998855591,0.05563199892640114,-0.30987998843193054,-1.6100000143051147,-5.039999961853027,-2.309999942779541
1743895166.089585,-0.9686800241470337,0.049775999039411545,-0.305976003408432,-0.2800000011920929,-5.53000020980835,-2.5899999141693115
1743895166.109585,-0.9686800241470337,0.045871999114751816,-0.30353599786758423,1.1200000047683716,-5.949999809265137,-2.940000057220459
1743895166.129585,-0.9662399888038635,0.045871999114751816,-0.305976003408432,3.640000104904175,-7.210000038146973,-3.1500000953674316
1743895166.149585,-0.9672160148620605,0.04782399907708168,-0.30987998843193054,5.809999942779541,-7.489999771118164,-3.0799999237060547
1743895166.169585,-0.9652640223503113,0.05270399898290634,-0.31085601449012756,6.440000057220459,-7.349999904632568,-2.7300000190734863
1743895166.189585,-0.9662399888038635,0.056120000779628754,-0.31329599022865295,6.369999885559082,-6.929999828338623,-2.309999942779541
1743895166.1359932,-0.9701439738273621,0.06392800062894821,-0.31768798828125,5.179999828338623,-5.389999866485596,-2.0299999713897705
1743895166.1559932,-0.9691680073738098,0.06685599684715271,-0.32256799936294556,3.009999990463257,-4.199999809265137,-1.75
1743895166.1759932,-0.9691680073738098,0.06880799680948257,-0.3269599974155426,0.6299999952316284,-2.5899999141693115,-1.4700000286102295
1743895166.1959932,-0.9686800241470337,0.07124800235033035,-0.3274480104446411,-1.1200000047683716,-1.0499999523162842,-1.0499999523162842
1743895166.2159932,-0.9672160148620605,0.07466399669647217,-0.3323279917240143,-2.869999885559082,0.07000000029802322,-0.5600000023841858
1743895166.2359931,-0.9647759795188904,0.07320000231266022,-0.338672012090683,-2.5899999141693115,1.1200000047683716,-0.2800000011920929
1743895166.165815,-0.9633119702339172,0.07710400223731995,-0.3450160026550293,-2.309999942779541,1.4700000286102295,0.2800000011920929
1743895166.185815,-0.9608719944953918,0.08051999658346176,-0.34404000639915466,-1.8200000524520874,1.399999976158142,0.699999988079071
1743895166.205815,-0.9584320187568665,0.08344800025224686,-0.34696799516677856,-0.9100000262260437,1.3300000429153442,1.2599999904632568
1743895166.225815,-0.9618480205535889,0.08540000021457672,-0.34891998767852783,-0.699999988079071,1.0499999523162842,1.75
1743895166.245815,-0.9642879962921143,0.08735200017690659,-0.34696799516677856,0.5600000023841858,0.7699999809265137,1.8899999856948853
1743895166.265815,-0.9667279720306396,0.08735200017690659,-0.3425759971141815,1.190000057220459,0.07000000029802322,1.8899999856948853
1743895166.2405841,-0.9657520055770874,0.08735200017690659,-0.3396480083465576,1.190000057220459,-0.49000000953674316,1.399999976158142
1743895166.260584,-0.961359977722168,0.08686400204896927,-0.3337920010089874,0.9100000262260437,-0.9800000190734863,0.9100000262260437
1743895166.280584,-0.9579439759254456,0.0785679966211319,-0.3298879861831665,0.7699999809265137,-1.5399999618530273,0.7699999809265137
1743895166.300584,-0.9608719944953918,0.07515200227499008,-0.32207998633384705,0.9100000262260437,-1.8899999856948853,0.41999998688697815
1743895166.320584,-0.9603840112686157,0.0697840005159378,-0.3215920031070709,1.190000057220459,-2.1700000762939453,0.07000000029802322
1743895166.340584,-0.9603840112686157,0.06490399688482285,-0.3147599995136261,1.6100000143051147,-3.359999895095825,-0.2800000011920929
1743895166.244283,-0.9569680094718933,0.06392800062894821,-0.30695199966430664,2.380000114440918,-4.269999980926514,-0.20999999344348907
1743895166.264283,-0.9574559926986694,0.0605119988322258,-0.3050000071525574,2.5899999141693115,-4.96999979019165,-0.14000000059604645
1743895166.284283,-0.9569680094718933,0.06002400070428848,-0.3054879903793335,3.2200000286102295,-5.110000133514404,0.07000000029802322
1743895166.304283,-0.9594079852104187,0.05416800081729889,-0.3030480146408081,3.8499999046325684,-5.25,0.3499999940395355
1743895166.324283,-0.9579439759254456,0.056120000779628754,-0.3030480146408081,4.690000057220459,-5.53000020980835,0.9100000262260437
1743895166.3442829,-0.9633119702339172,0.056120000779628754,-0.3054879903793335,4.269999980926514,-5.179999828338623,1.6799999475479126
1743895166.2846773,-0.9716079831123352,0.06002400070428848,-0.30402401089668274,3.7100000381469727,-4.340000152587891,1.8899999856948853
1743895166.3046772,-0.9681919813156128,0.062463998794555664,-0.3030480146408081,1.8899999856948853,-3.430000066757202,1.8200000524520874
1743895166.3246772,-0.9667279720306396,0.05953599885106087,-0.31036800146102905,0.07000000029802322,-1.9600000381469727,1.5399999618530273
1743895166.3446772,-0.9652640223503113,0.057096000760793686,-0.31378400325775146,-1.4700000286102295,-0.7699999809265137,1.190000057220459
1743895166.3646772,-0.9638000130653381,0.05563199892640114,-0.31964001059532166,-2.450000047683716,0.2800000011920929,0.5600000023841858
1743895166.3846772,-0.9691680073738098,0.056120000779628754,-0.318664014339447,-2.380000114440918,0.2800000011920929,0.3499999940395355
1743895166.3293812,-0.9696559906005859,0.056120000779628754,-0.3206160068511963,-2.0999999046325684,0.0,0.2800000011920929
1743895166.3493812,-0.9711199998855591,0.06148799881339073,-0.3264720141887665,-0.9800000190734863,-1.0499999523162842,0.14000000059604645
1743895166.3693812,-0.9681919813156128,0.06880799680948257,-0.3245199918746948,0.5600000023841858,-2.5899999141693115,0.14000000059604645
1743895166.3893812,-0.9647759795188904,0.0727119967341423,-0.3264720141887665,1.1200000047683716,-3.640000104904175,0.0
1743895166.4093812,-0.961359977722168,0.07612799853086472,-0.32842400670051575,1.5399999618530273,-4.269999980926514,-0.2800000011920929
1743895166.4293811,-0.9608719944953918,0.07759200036525726,-0.3245199918746948,1.5399999618530273,-4.340000152587891,-0.5600000023841858
1743895166.359096,-0.9574559926986694,0.07661599665880203,-0.3264720141887665,1.8200000524520874,-4.199999809265137,-0.7699999809265137
1743895166.379096,-0.9579439759254456,0.07661599665880203,-0.3264720141887665,1.9600000381469727,-3.990000009536743,-0.6299999952316284
1743895166.399096,-0.9545279741287231,0.0785679966211319,-0.3269599974155426,1.8200000524520874,-3.009999990463257,-0.6299999952316284
1743895166.419096,-0.9564800262451172,0.0849120020866394,-0.32500800490379333,1.2599999904632568,-2.380000114440918,-0.41999998688697815
1743895166.439096,-0.9642879962921143,0.08540000021457672,-0.32500800490379333,1.190000057220459,-1.8200000524520874,-0.49000000953674316
1743895166.459096,-0.9647759795188904,0.08442399650812149,-0.32500800490379333,1.0499999523162842,-1.5399999618530273,-0.5600000023841858
1743895166.419174,-0.961359977722168,0.08149600028991699,-0.3298879861831665,0.5600000023841858,-1.1200000047683716,-0.699999988079071
1743895166.439174,-0.962336003780365,0.08198399841785431,-0.3323279917240143,0.2800000011920929,-0.9800000190734863,-0.49000000953674316
1743895166.459174,-0.9633119702339172,0.07807999849319458,-0.3294000029563904,-0.07000000029802322,-1.190000057220459,-0.20999999344348907
1743895166.479174,-0.9672160148620605,0.06929600238800049,-0.32842400670051575,-0.2800000011920929,-1.5399999618530273,-0.49000000953674316
1743895166.4991739,-0.9681919813156128,0.06148799881339073,-0.3274480104446411,-0.2800000011920929,-2.0999999046325684,-0.699999988079071
1743895166.5191739,-0.9667279720306396,0.05953599885106087,-0.3240320086479187,0.2800000011920929,-2.799999952316284,-1.2599999904632568
1743895166.449453,-0.9642879962921143,0.05807200074195862,-0.32207998633384705,0.9100000262260437,-3.2200000286102295,-1.3300000429153442
1743895166.469453,-0.9608719944953918,0.0605119988322258,-0.318664014339447,1.5399999618530273,-3.9200000762939453,-1.4700000286102295
1743895166.489453,-0.961359977722168,0.061000000685453415,-0.3118320107460022,1.75,-3.990000009536743,-1.6100000143051147
1743895166.509453,-0.9638000130653381,0.058559998869895935,-0.3093920052051544,2.309999942779541,-4.130000114440918,-1.8200000524520874
1743895166.529453,-0.961359977722168,0.0605119988322258,-0.3079279959201813,3.0799999237060547,-4.340000152587891,-2.0299999713897705
1743895166.549453,-0.9603840112686157,0.061000000685453415,-0.3084160089492798,3.1500000953674316,-4.199999809265137,-2.0299999713897705
1743895166.539891,-0.9579439759254456,0.06783200055360794,-0.30744001269340515,2.5899999141693115,-3.7799999713897705,-1.75
1743895166.559891,-0.9603840112686157,0.06831999868154526,-0.31085601449012756,1.9600000381469727,-3.7100000381469727,-1.5399999618530273
1743895166.579891,-0.9633119702339172,0.06783200055360794,-0.3089039921760559,0.9100000262260437,-3.2200000286102295,-1.5399999618530273
1743895166.599891,-0.9628239870071411,0.07320000231266022,-0.31036800146102905,0.20999999344348907,-2.7300000190734863,-1.9600000381469727
1743895166.619891,-0.9633119702339172,0.06880799680948257,-0.3147599995136261,-0.49000000953674316,-2.450000047683716,-2.0299999713897705
1743895166.639891,-0.962336003780365,0.06783200055360794,-0.31573599576950073,-0.41999998688697815,-2.240000009536743,-1.75
1743895166.5417123,-0.9633119702339172,0.06783200055360794,-0.3142719864845276,-0.41999998688697815,-2.240000009536743,-1.5399999618530273
1743895166.5617123,-0.9657520055770874,0.0697840005159378,-0.31573599576950073,-0.6299999952316284,-2.5199999809265137,-1.8200000524520874
1743895166.5817122,-0.9667279720306396,0.07027199864387512,-0.32207998633384705,-0.5600000023841858,-2.869999885559082,-1.75
1743895166.6017122,-0.9696559906005859,0.06588000059127808,-0.32500800490379333,0.20999999344348907,-3.5,-1.9600000381469727
1743895166.6217122,-0.9672160148620605,0.06539200246334076,-0.32598400115966797,0.14000000059604645,-4.269999980926514,-2.309999942779541
1743895166.6417122,-0.9681919813156128,0.06588000059127808,-0.32598400115966797,0.699999988079071,-4.550000190734863,-2.6600000858306885
1743895166.570506,-0.9662399888038635,0.06588000059127808,-0.32598400115966797,0.7699999809265137,-4.96999979019165,-2.799999952316284
1743895166.590506,-0.9652640223503113,0.06148799881339073,-0.32305601239204407,1.9600000381469727,-5.460000038146973,-3.2899999618530273
1743895166.610506,-0.9594079852104187,0.05904800072312355,-0.3264720141887665,0.2800000011920929,-4.619999885559082,-2.6600000858306885
1743895166.630506,-0.9799039959907532,0.06929600238800049,-0.3328160047531128,0.14000000059604645,-3.5,-2.450000047683716
1743895166.650506,-0.9681919813156128,0.06685599684715271,-0.3235439956188202,0.5600000023841858,-3.640000104904175,-2.940000057220459
1743895166.670506,-0.9628239870071411,0.06880799680948257,-0.32549598813056946,0.07000000029802322,-3.7799999713897705,-3.1500000953674316
1743895166.616265,-0.9657520055770874,0.06734400242567062,-0.32305601239204407,0.8399999737739563,-3.1500000953674316,-3.0799999237060547
1743895166.636265,-0.9764879941940308,0.07124800235033035,-0.3235439956188202,0.49000000953674316,-3.1500000953674316,-3.430000066757202
1743895166.656265,-0.9803919792175293,0.0663679987192154,-0.3245199918746948,0.20999999344348907,-3.009999990463257,-3.569999933242798
1743895166.676265,-0.9750239849090576,0.062463998794555664,-0.3298879861831665,-0.14000000059604645,-2.7300000190734863,-3.5
1743895166.696265,-0.9686800241470337,0.06783200055360794,-0.3240320086479187,0.6299999952316284,-2.799999952316284,-3.8499999046325684
1743895166.716265,-0.9638000130653381,0.06880799680948257,-0.3206160068511963,0.07000000029802322,-3.1500000953674316,-4.130000114440918
1743895166.6602812,-0.9598960280418396,0.0697840005159378,-0.3201279938220978,0.6299999952316284,-3.009999990463257,-4.130000114440918
1743895166.6802812,-0.9545279741287231,0.06734400242567062,-0.32207998633384705,0.49000000953674316,-2.869999885559082,-3.8499999046325684
1743895166.7002811,-0.9506239891052246,0.06929600238800049,-0.3181760013103485,0.14000000059604645,-2.940000057220459,-3.7100000381469727
1743895166.7202811,-0.9589200019836426,0.06734400242567062,-0.318664014339447,0.49000000953674316,-2.799999952316284,-3.359999895095825
1743895166.740281,-0.9496480226516724,0.07661599665880203,-0.318664014339447,0.0,-3.009999990463257,-2.309999942779541
1743895166.760281,-0.9569680094718933,0.07807999849319458,-0.31671199202537537,0.699999988079071,-2.940000057220459,-2.0299999713897705
1743895166.7191281,-0.9579439759254456,0.07515200227499008,-0.31622400879859924,0.9100000262260437,-3.2899999618530273,-2.0299999713897705
1743895166.739128,-0.9569680094718933,0.07466399669647217,-0.3172000050544739,0.699999988079071,-3.2899999618530273,-2.0299999713897705
1743895166.759128,-0.9603840112686157,0.07027199864387512,-0.31573599576950073,0.9800000190734863,-3.1500000953674316,-1.8899999856948853
1743895166.779128,-0.9574559926986694,0.0697840005159378,-0.31915199756622314,1.0499999523162842,-3.2200000286102295,-1.6100000143051147
1743895166.799128,-0.9618480205535889,0.06734400242567062,-0.31964001059532166,1.0499999523162842,-3.1500000953674316,-0.9800000190734863
1743895166.819128,-0.9662399888038635,0.06783200055360794,-0.318664014339447,1.1200000047683716,-3.430000066757202,-0.5600000023841858
1743895166.73392,-0.9667279720306396,0.06880799680948257,-0.3201279938220978,1.3300000429153442,-4.059999942779541,-0.14000000059604645
1743895166.75392,-0.9677039980888367,0.06880799680948257,-0.3211039900779724,1.3300000429153442,-4.199999809265137,0.0
1743895166.77392,-0.9677039980888367,0.06880799680948257,-0.3206160068511963,1.1200000047683716,-4.340000152587891,0.14000000059604645
1743895166.79392,-0.9677039980888367,0.0663679987192154,-0.31768798828125,0.9800000190734863,-4.409999847412109,0.07000000029802322
1743895166.81392,-0.9633119702339172,0.06148799881339073,-0.3201279938220978,1.0499999523162842,-4.340000152587891,0.14000000059604645
1743895166.83392,-0.9677039980888367,0.061000000685453415,-0.31671199202537537,0.9100000262260437,-4.130000114440918,0.07000000029802322
1743895166.780895,-0.9681919813156128,0.06002400070428848,-0.31622400879859924,0.699999988079071,-3.8499999046325684,0.20999999344348907
1743895166.800895,-0.9672160148620605,0.06148799881339073,-0.31622400879859924,0.3499999940395355,-3.569999933242798,-0.07000000029802322
1743895166.820895,-0.9691680073738098,0.06002400070428848,-0.3152480125427246,0.49000000953674316,-3.5,-0.2800000011920929
1743895166.840895,-0.9701439738273621,0.06002400070428848,-0.3142719864845276,0.49000000953674316,-3.2899999618530273,-0.5600000023841858
1743895166.860895,-0.9701439738273621,0.06148799881339073,-0.31622400879859924,1.0499999523162842,-3.009999990463257,-1.0499999523162842
1743895166.880895,-0.9691680073738098,0.05807200074195862,-0.31085601449012756,1.3300000429153442,-2.940000057220459,-1.4700000286102295
1743895166.8387542,-0.9701439738273621,0.05904800072312355,-0.3113439977169037,1.8200000524520874,-2.799999952316284,-1.6799999475479126
1743895166.8587542,-0.9677039980888367,0.061000000685453415,-0.31378400325775146,2.0999999046325684,-2.869999885559082,-2.0999999046325684
1743895166.8787541,-0.9662399888038635,0.061000000685453415,-0.31036800146102905,2.1700000762939453,-2.6600000858306885,-2.240000009536743
1743895166.8987541,-0.9657520055770874,0.062463998794555664,-0.31329599022865295,1.5399999618530273,-2.6600000858306885,-2.380000114440918
1743895166.918754,-0.9677039980888367,0.06148799881339073,-0.318664014339447,0.9100000262260437,-2.7300000190734863,-2.309999942779541
1743895166.938754,-0.9681919813156128,0.05953599885106087,-0.318664014339447,0.7699999809265137,-3.1500000953674316,-1.8899999856948853
1743895166.870001,-0.9677039980888367,0.05953599885106087,-0.31964001059532166,0.7699999809265137,-3.7100000381469727,-1.190000057220459
1743895166.890001,-0.961359977722168,0.06148799881339073,-0.3215920031070709,0.6299999952316284,-3.569999933242798,-0.41999998688697815
1743895166.910001,-0.9530640244483948,0.06392800062894821,-0.3235439956188202,0.5600000023841858,-3.7100000381469727,-0.20999999344348907
1743895166.930001,-0.955016016960144,0.06490399688482285,-0.318664014339447,0.20999999344348907,-3.640000104904175,0.49000000953674316
1743895166.950001,-0.9584320187568665,0.06685599684715271,-0.31768798828125,0.14000000059604645,-3.2899999618530273,0.6299999952316284
1743895166.970001,-0.9711199998855591,0.0697840005159378,-0.31573599576950073,0.0,-3.1500000953674316,0.41999998688697815
1743895166.914353,-0.9735599756240845,0.07027199864387512,-0.31280800700187683,0.14000000059604645,-3.009999990463257,-0.41999998688697815
1743895166.9343529,-0.9740480184555054,0.0697840005159378,-0.31085601449012756,0.14000000059604645,-2.7300000190734863,-0.9100000262260437
1743895166.9543529,-0.9716079831123352,0.07075999677181244,-0.31378400325775146,0.41999998688697815,-2.5899999141693115,-1.2599999904632568
1743895166.9743528,-0.9642879962921143,0.06783200055360794,-0.3172000050544739,0.5600000023841858,-2.309999942779541,-1.399999976158142
1743895166.9943528,-0.961359977722168,0.0663679987192154,-0.3172000050544739,0.6299999952316284,-2.5199999809265137,-1.1200000047683716
1743895167.0143528,-0.9633119702339172,0.06392800062894821,-0.31915199756622314,0.699999988079071,-2.6600000858306885,-0.8399999737739563
1743895166.974977,-0.961359977722168,0.0663679987192154,-0.31915199756622314,1.3300000429153442,-3.430000066757202,-0.5600000023841858
1743895166.994977,-0.9667279720306396,0.06831999868154526,-0.3172000050544739,2.0999999046325684,-4.409999847412109,0.2800000011920929
1743895167.014977,-0.9696559906005859,0.07173600047826767,-0.31622400879859924,1.8899999856948853,-5.25,0.6299999952316284
1743895167.034977,-0.9720960259437561,0.07075999677181244,-0.31622400879859924,1.8200000524520874,-5.179999828338623,0.41999998688697815
1743895167.054977,-0.970632016658783,0.06783200055360794,-0.31280800700187683,1.4700000286102295,-5.179999828338623,0.14000000059604645
1743895167.074977,-0.9652640223503113,0.06734400242567062,-0.31280800700187683,0.699999988079071,-4.690000057220459,0.0
1743895166.9902532,-0.9647759795188904,0.06588000059127808,-0.3089039921760559,0.5600000023841858,-4.199999809265137,0.0
1743895167.0102532,-0.9647759795188904,0.0634400025010109,-0.3084160089492798,0.6299999952316284,-3.7100000381469727,-0.07000000029802322
1743895167.0302532,-0.9681919813156128,0.06295199692249298,-0.31036800146102905,1.2599999904632568,-3.2899999618530273,-0.20999999344348907
1743895167.0502532,-0.9691680073738098,0.06148799881339073,-0.3142719864845276,1.6100000143051147,-3.1500000953674316,0.0
1743895167.0702531,-0.970632016658783,0.061000000685453415,-0.3142719864845276,1.8899999856948853,-3.1500000953674316,0.07000000029802322
1743895167.090253,-0.9701439738273621,0.06441599875688553,-0.3152480125427246,1.8899999856948853,-3.2899999618530273,0.14000000059604645
1743895167.035392,-0.970632016658783,0.06490399688482285,-0.31622400879859924,1.3300000429153442,-3.0799999237060547,0.3499999940395355
1743895167.055392,-0.9681919813156128,0.0634400025010109,-0.3147599995136261,1.2599999904632568,-2.7300000190734863,0.0
1743895167.075392,-0.9647759795188904,0.0605119988322258,-0.3172000050544739,0.8399999737739563,-2.7300000190734863,-0.2800000011920929
1743895167.095392,-0.961359977722168,0.058559998869895935,-0.3147599995136261,0.8399999737739563,-2.6600000858306885,-0.3499999940395355
1743895167.115392,-0.9647759795188904,0.062463998794555664,-0.31573599576950073,1.0499999523162842,-2.380000114440918,-0.49000000953674316
1743895167.135392,-0.9647759795188904,0.061000000685453415,-0.3123199939727783,1.3300000429153442,-2.5899999141693115,-0.7699999809265137
1743895167.0792902,-0.9730719923973083,0.06148799881339073,-0.3113439977169037,1.399999976158142,-2.940000057220459,-1.1200000047683716
1743895167.0992901,-0.9764879941940308,0.06295199692249298,-0.3152480125427246,1.8200000524520874,-3.0799999237060547,-1.4700000286102295
1743895167.11929,-0.9774640202522278,0.06490399688482285,-0.31378400325775146,2.0299999713897705,-3.640000104904175,-1.9600000381469727
1743895167.13929,-0.9779520034790039,0.06295199692249298,-0.30987998843193054,2.309999942779541,-4.340000152587891,-2.0299999713897705
1743895167.15929,-0.97843998670578,0.06392800062894821,-0.3079279959201813,2.799999952316284,-4.619999885559082,-2.5199999809265137
1743895167.17929,-0.9696559906005859,0.06295199692249298,-0.30646398663520813,2.5899999141693115,-5.039999961853027,-2.799999952316284
1743895167.153691,-0.9608719944953918,0.061000000685453415,-0.3079279959201813,2.5899999141693115,-5.110000133514404,-3.0799999237060547
1743895167.173691,-0.9579439759254456,0.057096000760793686,-0.305976003408432,2.5899999141693115,-5.25,-3.1500000953674316
1743895167.193691,-0.9525759816169739,0.05953599885106087,-0.305976003408432,2.5199999809265137,-5.25,-3.2899999618530273
1743895167.213691,-0.9525759816169739,0.05904800072312355,-0.3020719885826111,2.240000009536743,-5.53000020980835,-2.869999885559082
1743895167.233691,-0.9642879962921143,0.05953599885106087,-0.2996320128440857,2.1700000762939453,-6.090000152587891,-2.309999942779541
1743895167.253691,-0.9696559906005859,0.06539200246334076,-0.29767999053001404,2.1700000762939453,-6.650000095367432,-1.9600000381469727
1743895167.169749,-0.9711199998855591,0.06588000059127808,-0.29524001479148865,2.450000047683716,-7.420000076293945,-1.8200000524520874
1743895167.189749,-0.9711199998855591,0.06588000059127808,-0.2971920073032379,3.2200000286102295,-8.119999885559082,-1.6100000143051147
1743895167.209749,-0.9720960259437561,0.0663679987192154,-0.2962160110473633,3.1500000953674316,-8.680000305175781,-1.4700000286102295
1743895167.229749,-0.9720960259437561,0.06490399688482285,-0.2962160110473633,3.2200000286102295,-9.3100004196167,-1.399999976158142
1743895167.249749,-0.9657520055770874,0.06685599684715271,-0.2962160110473633,3.8499999046325684,-9.449999809265137,-1.3300000429153442
1743895167.269749,-0.9594079852104187,0.062463998794555664,-0.29767999053001404,4.269999980926514,-10.010000228881836,-1.3300000429153442
1743895167.2012932,-0.9584320187568665,0.0605119988322258,-0.2971920073032379,4.199999809265137,-10.079999923706055,-1.4700000286102295
1743895167.2212932,-0.9579439759254456,0.05660799890756607,-0.2996320128440857,4.059999942779541,-10.149999618530273,-1.6799999475479126
1743895167.2412932,-0.955016016960144,0.058559998869895935,-0.29865598678588867,4.059999942779541,-9.869999885559082,-1.6799999475479126
1743895167.2612932,-0.9608719944953918,0.05904800072312355,-0.3006080090999603,3.8499999046325684,-10.010000228881836,-1.6799999475479126
1743895167.2812932,-0.9642879962921143,0.056120000779628754,-0.2996320128440857,3.7799999713897705,-10.430000305175781,-1.75
1743895167.3012931,-0.9657520055770874,0.06148799881339073,-0.2996320128440857,3.990000009536743,-10.779999732971191,-1.75
1743895167.2440362,-0.9662399888038635,0.06392800062894821,-0.2971920073032379,3.9200000762939453,-11.760000228881836,-1.6799999475479126
1743895167.2640362,-0.9677039980888367,0.05904800072312355,-0.2962160110473633,3.9200000762939453,-12.8100004196167,-1.6799999475479126
1743895167.2840362,-0.9725840091705322,0.062463998794555664,-0.2903600037097931,3.5,-13.369999885559082,-1.6100000143051147
1743895167.3040361,-0.9716079831123352,0.05807200074195862,-0.29231199622154236,4.550000190734863,-14.140000343322754,-1.75
1743895167.3240361,-0.9730719923973083,0.05563199892640114,-0.28938400745391846,5.389999866485596,-14.699999809265137,-1.75
1743895167.344036,-0.9701439738273621,0.057096000760793686,-0.2879199981689453,5.25,-15.399999618530273,-1.5399999618530273
1743895167.274312,-0.9716079831123352,0.06002400070428848,-0.2840160131454468,5.53000020980835,-15.890000343322754,-1.6799999475479126
1743895167.294312,-0.9735599756240845,0.05953599885106087,-0.28060001134872437,5.599999904632568,-16.239999771118164,-1.75
1743895167.314312,-0.9760000109672546,0.058559998869895935,-0.28303998708724976,4.480000019073486,-16.450000762939453,-1.9600000381469727
1743895167.334312,-0.9672160148620605,0.05807200074195862,-0.28352800011634827,-0.20999999344348907,-15.890000343322754,-2.450000047683716
1743895167.354312,-0.9686800241470337,0.05416800081729889,-0.2874319851398468,5.460000038146973,-16.8700008392334,-2.5199999809265137
1743895167.374312,-0.9828320145606995,0.04928800091147423,-0.2776719927787781,7.28000020980835,-17.639999389648438,-2.5899999141693115
1743895167.320934,-0.9774640202522278,0.044895999133586884,-0.2820639908313751,7.980000019073486,-17.709999084472656,-2.940000057220459
1743895167.340934,-0.9657520055770874,0.05416800081729889,-0.2849920094013214,8.260000228881836,-17.43000030517578,-2.5199999809265137
1743895167.360934,-0.9657520055770874,0.054655998945236206,-0.28255200386047363,7.559999942779541,-17.149999618530273,-1.9600000381469727
1743895167.380934,-0.9730719923973083,0.053679998964071274,-0.2791360020637512,7.840000152587891,-17.360000610351562,-1.8200000524520874
1743895167.400934,-0.9828320145606995,0.057096000760793686,-0.2776719927787781,7.210000038146973,-17.850000381469727,-1.2599999904632568
1743895167.420934,-0.9882000088691711,0.06002400070428848,-0.28547999262809753,7.699999809265137,-17.5,0.5600000023841858
1743895167.3641932,-0.97843998670578,0.06588000059127808,-0.2752319872379303,-0.5600000023841858,-16.450000762939453,0.3499999940395355
1743895167.3841932,-0.9935680031776428,0.06392800062894821,-0.2776719927787781,4.409999847412109,-17.43000030517578,0.14000000059604645
1743895167.4041932,-1.0150400400161743,0.0756400004029274,-0.2664479911327362,10.710000038146973,-21.209999084472656,-0.07000000029802322
1743895167.4241931,-1.0077199935913086,0.07173600047826767,-0.27425599098205566,12.039999961853027,-21.280000686645508,-0.8399999737739563
1743895167.4441931,-0.9906399846076965,0.07515200227499008,-0.27035200595855713,12.180000305175781,-21.84000015258789,-1.190000057220459
1743895167.464193,-0.9852719902992249,0.06539200246334076,-0.2659600079059601,12.390000343322754,-21.84000015258789,-1.6100000143051147
1743895167.442461,-0.9769759774208069,0.06002400070428848,-0.26449599862098694,7.28000020980835,-20.649999618530273,-2.869999885559082
1743895167.462461,-0.9647759795188904,0.05514400079846382,-0.26840001344680786,0.7699999809265137,-19.530000686645508,-3.2899999618530273
1743895167.482461,-0.9657520055770874,0.05270399898290634,-0.26742398738861084,4.829999923706055,-21.0,-2.5199999809265137
1743895167.502461,-0.9823439717292786,0.04733600094914436,-0.25278401374816895,11.199999809265137,-23.729999542236328,-2.0999999046325684
1743895167.522461,-0.9638000130653381,0.052216000854969025,-0.2537600100040436,10.710000038146973,-24.43000030517578,-1.8899999856948853
1743895167.542461,-0.9579439759254456,0.05416800081729889,-0.2508319914340973,11.760000228881836,-25.200000762939453,-1.5399999618530273
1743895167.443643,-0.9574559926986694,0.04684799909591675,-0.2396080046892166,12.600000381469727,-26.31999969482422,-1.3300000429153442
1743895167.463643,-0.9657520055770874,0.04294399917125702,-0.23765599727630615,12.670000076293945,-26.950000762939453,-1.399999976158142
1743895167.483643,-0.9672160148620605,0.039528001099824905,-0.24009600281715393,13.15999984741211,-26.739999771118164,-1.8200000524520874
1743895167.503643,-0.9662399888038635,0.04148000106215477,-0.23228800296783447,12.25,-26.670000076293945,-1.6799999475479126
1743895167.523643,-0.9701439738273621,0.040991999208927155,-0.23180000483989716,10.569999694824219,-25.760000228881836,-1.75
1743895167.543643,-0.9686800241470337,0.04148000106215477,-0.23521600663661957,-0.3499999940395355,-22.75,-1.8200000524520874
1743895167.4693701,-0.9818559885025024,0.03757600113749504,-0.22935999929904938,8.050000190734863,-24.149999618530273,-1.0499999523162842
1743895167.48937,-0.9930800199508667,0.03513599932193756,-0.2269199937582016,5.599999904632568,-23.3799991607666,-1.0499999523162842
1743895167.50937,-0.9872239828109741,0.037087999284267426,-0.2327760010957718,3.430000066757202,-21.979999542236328,-1.190000057220459
1743895167.52937,-0.9872239828109741,0.035624001175165176,-0.22887200117111206,1.0499999523162842,-20.3700008392334,-0.8399999737739563
1743895167.54937,-0.9906399846076965,0.032207999378442764,-0.22838400304317474,-0.20999999344348907,-18.479999542236328,-1.1200000047683716
1743895167.56937,-0.9989359974861145,0.03172000125050545,-0.22496800124645233,-1.6100000143051147,-17.639999389648438,-1.3300000429153442
1743895167.516087,-1.00381600856781,0.029279999434947968,-0.22350400686264038,-2.5199999809265137,-16.799999237060547,-2.0299999713897705
1743895167.536087,-1.010159969329834,0.022447999566793442,-0.22252799570560455,-2.6600000858306885,-16.65999984741211,-2.5199999809265137
1743895167.556087,-1.0116239786148071,0.020495999604463577,-0.22448000311851501,-1.6799999475479126,-16.59000015258789,-2.940000057220459
1743895167.576087,-1.012112021446228,0.013663999736309052,-0.2298479974269867,0.07000000029802322,-15.399999618530273,-4.900000095367432
1743895167.596087,-1.0125999450683594,0.0058559998869895935,-0.24741600453853607,1.75,-12.390000343322754,-6.929999828338623
1743895167.616087,-1.0243120193481445,-0.01659199967980385,-0.2513200044631958,2.0999999046325684,-10.220000267028809,-10.010000228881836
1743895167.559725,-1.0413919687271118,-0.03172000125050545,-0.23423999547958374,-4.900000095367432,-8.470000267028809,-17.079999923706055
1743895167.579725,-1.0389519929885864,-0.0605119988322258,-0.2698639929294586,-19.31999969482422,-1.399999976158142,-20.93000030517578
1743895167.599725,-1.0789680480957031,-0.061000000685453415,-0.22838400304317474,-0.6299999952316284,-4.199999809265137,-23.65999984741211
1743895167.619725,-1.1282559633255005,-0.07661599665880203,-0.24400000274181366,-3.5,-4.409999847412109,-29.540000915527344
1743895167.639725,-1.1228879690170288,-0.08247199654579163,-0.24253599345684052,-1.5399999618530273,-2.7300000190734863,-36.81999969482422
1743895167.659725,-1.1131279468536377,-0.06734400242567062,-0.2210640013217926,-9.9399995803833,-2.0999999046325684,-42.41999816894531
1743895167.6047282,-1.0814080238342285,-0.07417599856853485,-0.2391200065612793,-9.100000381469727,0.41999998688697815,-45.709999084472656
1743895167.6247282,-1.0765279531478882,-0.06734400242567062,-0.23521600663661957,-10.289999961853027,3.1500000953674316,-51.16999816894531
1743895167.6447282,-1.042855978012085,-0.06588000059127808,-0.2420479953289032,-10.359999656677246,7.070000171661377,-55.720001220703125
1743895167.6647282,-1.0218720436096191,-0.05953599885106087,-0.24107199907302856,-14.489999771118164,12.25,-56.41999816894531
1743895167.6847281,-0.9886879920959473,0.02781599946320057,-0.2601040005683899,-39.619998931884766,18.34000015258789,-56.0
1743895167.7047281,-1.00381600856781,-0.05026400089263916,-0.22887200117111206,-14.630000114440918,21.90999984741211,-58.029998779296875
1743895167.65048,-1.0277279615402222,-0.05953599885106087,-0.1937360018491745,-6.019999980926514,16.3799991607666,-58.869998931884766
1743895167.67048,-1.0247999429702759,-0.05660799890756607,-0.21032799780368805,-16.8700008392334,14.90999984741211,-60.900001525878906
1743895167.69048,-0.9842960238456726,-0.01268799975514412,-0.22594399750232697,-14.350000381469727,15.539999961853027,-59.91999816894531
1743895167.71048,-0.9486719965934753,0.08003199845552444,-0.19568799436092377,-30.030000686645508,20.649999618530273,-54.95000076293945
1743895167.73048,-0.8979200124740601,-0.004391999915242195,-0.23814399540424347,-26.110000610351562,20.790000915527344,-55.650001525878906
1743895167.75048,-0.9223200082778931,0.05124000087380409,-0.18055999279022217,-21.559999465942383,13.930000305175781,-49.349998474121094
1743895167.6798542,-0.8993840217590332,0.05270399898290634,-0.22008800506591797,-23.799999237060547,11.619999885559082,-52.220001220703125
1743895167.6998541,-0.8896239995956421,-0.035624001175165176,-0.21423199772834778,-33.599998474121094,11.34000015258789,-51.59000015258789
1743895167.719854,-0.9935680031776428,0.0019519999623298645,-0.1995919942855835,-34.22999954223633,7.699999809265137,-50.68000030517578
1743895167.739854,-0.8842560052871704,-0.007319999858736992,-0.18397599458694458,-16.030000686645508,4.340000152587891,-47.459999084472656
1743895167.759854,-0.8696159720420837,0.05660799890756607,-0.19178399443626404,-35.41999816894531,3.7799999713897705,-36.68000030517578
1743895167.779854,-0.8686400055885315,0.0302559994161129,-0.181536003947258,-28.209999084472656,0.8399999737739563,-34.22999954223633
1743895167.7413273,-0.8803520202636719,-0.0024399999529123306,-0.14981600642204285,-28.559999465942383,-5.460000038146973,-29.610000610351562
1743895167.7613273,-0.9228079915046692,-0.040991999208927155,-0.1844639927148819,-37.099998474121094,-5.599999904632568,-28.420000076293945
1743895167.7813272,-0.9511119723320007,-0.04196799919009209,-0.18836799263954163,-31.149999618530273,-6.300000190734863,-25.479999542236328
1743895167.8013272,-0.9672160148620605,-0.043432001024484634,-0.18592800199985504,-31.989999771118164,-9.800000190734863,-22.81999969482422
1743895167.8213272,-0.9618480205535889,-0.07661599665880203,-0.17714400589466095,-25.829999923706055,-15.470000267028809,-24.149999618530273
1743895167.8413272,-0.954039990901947,-0.06734400242567062,-0.1878799945116043,-27.93000030517578,-17.360000610351562,-23.239999771118164
1743895167.770816,-0.9525759816169739,-0.0785679966211319,-0.20349599421024323,-29.399999618530273,-17.360000610351562,-21.489999771118164
1743895167.790816,-0.954039990901947,-0.07027199864387512,-0.22545599937438965,-27.93000030517578,-14.90999984741211,-19.389999389648438
1743895167.810816,-0.9589200019836426,-0.07954400032758713,-0.2147199958562851,-24.780000686645508,-16.520000457763672,-18.270000457763672
1743895167.830816,-0.9598960280418396,-0.09516000002622604,-0.22203999757766724,-15.399999618530273,-18.40999984741211,-16.450000762939453
1743895167.850816,-0.9725840091705322,-0.053679998964071274,-0.21862399578094482,-14.630000114440918,-18.690000534057617,-13.720000267028809
1743895167.870816,-0.9833199977874756,-0.10833600163459778,-0.23228800296783447,-19.31999969482422,-16.59000015258789,-10.779999732971191
1743895167.7994063,-1.1541199684143066,-0.09272000193595886,-0.32207998633384705,-28.209999084472656,-23.100000381469727,-0.41999998688697815
1743895167.8194063,-1.0648159980773926,-0.1302960067987442,-0.34062400460243225,7.559999942779541,-29.260000228881836,-10.569999694824219
1743895167.8394063,-0.9813680052757263,-0.12200000137090683,-0.20935200154781342,27.020000457763672,-33.7400016784668,-12.25
1743895167.8594062,-0.9642879962921143,-0.10687199980020523,-0.20691199600696564,15.260000228881836,-36.119998931884766,-10.989999771118164
1743895167.8794062,-0.9408640265464783,-0.10101599991321564,-0.2396080046892166,8.75,-34.650001525878906,-11.0600004196167
1743895167.8994062,-0.9569680094718933,-0.07027199864387512,-0.25522398948669434,7.630000114440918,-29.329999923706055,-7.349999904632568
1743895167.845832,-0.9935680031776428,0.023423999547958374,-0.22155199944972992,5.670000076293945,-28.06999969482422,0.7699999809265137
1743895167.865832,-1.0247999429702759,-0.006831999868154526,-0.1966640055179596,10.430000305175781,-28.0,3.990000009536743
1743895167.885832,-1.0643279552459717,0.018543999642133713,-0.1605519950389862,-13.789999961853027,-31.219999313354492,4.059999942779541
1743895167.905832,-1.0291919708251953,-0.020495999604463577,-0.18836799263954163,-25.690000534057617,-27.790000915527344,2.450000047683716
1743895167.925832,-0.8710799813270569,-0.07515200227499008,-0.2025199979543686,-63.0,-39.619998931884766,9.100000381469727
1743895167.945832,-0.9574559926986694,-0.1605519950389862,-0.3757599890232086,-35.0,-51.2400016784668,26.459999084472656
1743895167.891381,-1.158511996269226,-0.016103999689221382,-0.2879199981689453,15.960000038146973,-54.11000061035156,32.060001373291016
1743895167.911381,-1.1887680292129517,0.09955199807882309,-0.14786399900913239,-5.599999904632568,-66.77999877929688,26.040000915527344
1743895167.931381,-1.028216004371643,-0.053679998964071274,-0.1727519929409027,-20.440000534057617,-66.1500015258789,20.299999237060547
1743895167.951381,-1.0033279657363892,-0.006831999868154526,-0.20398400723934174,5.739999771118164,-51.029998779296875,20.09000015258789
1743895167.971381,-1.0306559801101685,-0.0004879999905824661,-0.11907199770212173,3.7100000381469727,-36.2599983215332,14.279999732971191
1743895167.991381,-1.0389519929885864,0.0029279999434947968,-0.1454239934682846,-3.359999895095825,-23.450000762939453,8.050000190734863
1743895167.9358883,-1.0574959516525269,0.011711999773979187,-0.15274399518966675,-5.670000076293945,-7.28000020980835,6.230000019073486
1743895167.9558883,-1.0721360445022583,0.0058559998869895935,-0.17421600222587585,-9.869999885559082,-4.269999980926514,3.5
1743895167.9758883,-1.0804320573806763,-0.018055999651551247,-0.2025199979543686,-11.0600004196167,1.9600000381469727,1.9600000381469727
1743895167.9958882,-1.0814080238342285,-0.030743999406695366,-0.23668000102043152,-7.840000152587891,0.2800000011920929,0.7699999809265137
1743895168.0158882,-1.0897040367126465,-0.029279999434947968,-0.2386319935321808,-2.309999942779541,-4.760000228881836,-0.2800000011920929
1743895168.0358882,-1.0994640588760376,-0.03611199930310249,-0.23765599727630615,-1.1200000047683716,-8.680000305175781,-1.190000057220459
1743895167.979551,-1.1238640546798706,-0.014151999726891518,-0.21423199772834778,-1.5399999618530273,-13.4399995803833,4.900000095367432
1743895167.999551,-1.0882400274276733,-0.09467200189828873,-0.24936799705028534,-5.110000133514404,-14.5600004196167,-0.3499999940395355
1743895168.019551,-0.995032012462616,-0.0424560010433197,-0.20642399787902832,7.139999866485596,-15.819999694824219,0.07000000029802322
1743895168.039551,-0.9930800199508667,-0.03660000115633011,-0.230335995554924,9.729999542236328,-15.050000190734863,1.75
1743895168.059551,-1.0125999450683594,-0.03806399926543236,-0.21325600147247314,9.520000457763672,-13.579999923706055,-1.399999976158142
1743895168.079551,-1.0228480100631714,-0.03611199930310249,-0.19519999623298645,12.180000305175781,-13.229999542236328,-2.240000009536743
1743895168.0560532,-1.0272400379180908,-0.053679998964071274,-0.18397599458694458,15.680000305175781,-14.84000015258789,-4.550000190734863
1743895168.0760531,-1.0257760286331177,-0.05172799900174141,-0.1820240020751953,20.3700008392334,-16.309999465942383,-7.489999771118164
1743895168.0960531,-1.0355360507965088,-0.054655998945236206,-0.17324000597000122,21.90999984741211,-20.229999542236328,-9.449999809265137
1743895168.116053,-1.0360239744186401,-0.06783200055360794,-0.1571359932422638,23.170000076293945,-21.139999389648438,-10.010000228881836
1743895168.136053,-1.0213840007781982,-0.07612799853086472,-0.1454239934682846,25.690000534057617,-24.010000228881836,-10.289999961853027
1743895168.156053,-1.0057679414749146,-0.07710400223731995,-0.1302960067987442,26.040000915527344,-25.200000762939453,-9.520000457763672
1743895168.057776,-1.0003999471664429,-0.07368800044059753,-0.12004800140857697,27.860000610351562,-25.6200008392334,-8.819999694824219
1743895168.077776,-1.002351999282837,-0.07124800235033035,-0.09955199807882309,27.719999313354492,-24.920000076293945,-7.489999771118164
1743895168.097776,-1.0033279657363892,-0.0727119967341423,-0.07710400223731995,27.299999237060547,-23.309999465942383,-6.929999828338623
1743895168.117776,-0.995032012462616,-0.0756400004029274,-0.0785679966211319,26.459999084472656,-19.459999084472656,-6.71999979019165
1743895168.137776,-0.9882000088691711,-0.07612799853086472,-0.0697840005159378,24.290000915527344,-16.8700008392334,-5.599999904632568
1743895168.1577759,-0.9803919792175293,-0.0697840005159378,-0.06148799881339073,16.450000762939453,-12.8100004196167,-3.7100000381469727
1743895168.1005251,-0.9740480184555054,-0.06831999868154526,-0.05807200074195862,14.279999732971191,-10.289999961853027,-2.309999942779541
1743895168.1205251,-0.9818559885025024,-0.06734400242567062,-0.07368800044059753,14.770000457763672,-8.680000305175781,-1.2599999904632568
1743895168.140525,-0.9823439717292786,-0.08442399650812149,-0.08003199845552444,20.3700008392334,-6.159999847412109,-0.49000000953674316
1743895168.160525,-0.9789280295372009,-0.05953599885106087,-0.07661599665880203,15.819999694824219,-5.599999904632568,1.3300000429153442
1743895168.180525,-0.97843998670578,-0.053679998964071274,-0.07807999849319458,1.5399999618530273,-5.599999904632568,2.1700000762939453
1743895168.200525,-0.9769759774208069,-0.05807200074195862,-0.08881600201129913,6.650000095367432,-4.340000152587891,1.9600000381469727
1743895168.160619,-0.9677039980888367,-0.09027999639511108,-0.16152800619602203,17.920000076293945,-4.900000095367432,2.1700000762939453
1743895168.180619,-0.9662399888038635,-0.0727119967341423,-0.115167997777462,17.219999313354492,-8.539999961853027,2.5199999809265137
1743895168.200619,-0.9823439717292786,-0.056120000779628754,-0.10052800178527832,16.309999465942383,-12.25,3.0799999237060547
1743895168.220619,-1.1170320510864258,-0.04636000096797943,-0.08247199654579163,19.040000915527344,-15.260000228881836,3.7799999713897705
1743895168.240619,-1.0169919729232788,-0.06148799881339073,-0.09564799815416336,20.719999313354492,-16.729999542236328,0.7699999809265137
1743895168.260619,-0.9994239807128906,-0.045871999114751816,-0.06148799881339073,18.270000457763672,-17.290000915527344,-0.3499999940395355
1743895168.191049,-1.0028400421142578,-0.05075199902057648,-0.08003199845552444,17.850000381469727,-16.309999465942383,-0.9100000262260437
1743895168.211049,-0.9964960217475891,-0.044895999133586884,-0.06539200246334076,20.229999542236328,-14.140000343322754,-0.5600000023841858
1743895168.231049,-0.9935680031776428,-0.04294399917125702,-0.05075199902057648,18.059999465942383,-12.600000381469727,0.6299999952316284
1743895168.251049,-0.9911280274391174,-0.0453840009868145,-0.07515200227499008,13.15999984741211,-9.170000076293945,0.699999988079071
1743895168.271049,-1.0047919750213623,-0.06148799881339073,-0.06197600066661835,6.929999828338623,-8.819999694824219,2.940000057220459
1743895168.291049,-1.0169919729232788,-0.07027199864387512,-0.09418399631977081,2.450000047683716,-11.270000457763672,5.039999961853027
1743895168.235015,-1.0130879878997803,-0.06490399688482285,-0.13224799931049347,0.0,-16.520000457763672,8.960000038146973
1743895168.255015,-0.9720960259437561,-0.05563199892640114,-0.15274399518966675,9.380000114440918,-19.670000076293945,11.970000267028809
1743895168.2750149,-0.9764879941940308,-0.03611199930310249,-0.15225599706172943,12.390000343322754,-28.0,14.770000457763672
1743895168.2950149,-0.9686800241470337,-0.04001599922776222,-0.14103199541568756,18.200000762939453,-30.3799991607666,14.210000038146973
1743895168.3150148,-0.9852719902992249,-0.012199999764561653,-0.11321599781513214,20.719999313354492,-31.850000381469727,13.649999618530273
1743895168.3350148,-0.9852719902992249,-0.010735999792814255,-0.08198399841785431,27.020000457763672,-26.459999084472656,10.569999694824219
1743895168.2644272,-1.0150400400161743,-0.007319999858736992,-0.03660000115633011,28.06999969482422,-23.030000686645508,9.029999732971191
1743895168.2844272,-1.0467599630355835,-0.02147199958562851,0.0014639999717473984,31.079999923706055,-8.1899995803833,4.690000057220459
1743895168.3044271,-1.0779919624328613,-0.03269600123167038,0.04684799909591675,23.309999465942383,-3.7799999713897705,2.7300000190734863
1743895168.3244271,-0.930616021156311,-0.0287919994443655,0.010735999792814255,-12.880000114440918,10.430000305175781,3.9200000762939453
1743895168.344427,-0.995032012462616,-0.057583998888731,-0.010735999792814255,-13.789999961853027,24.920000076293945,7.349999904632568
1743895168.364427,-1.0360239744186401,-0.08832799643278122,-0.07075999677181244,-7.980000019073486,29.75,6.300000190734863
1743895168.3102772,-1.028216004371643,-0.05514400079846382,0.0009759999811649323,-18.829999923706055,29.469999313354492,10.010000228881836
1743895168.3302772,-0.9989359974861145,-0.08051999658346176,-0.07807999849319458,-28.350000381469727,31.219999313354492,12.739999771118164
1743895168.3502772,-0.994055986404419,-0.09418399631977081,-0.12297599762678146,-29.75,34.86000061035156,18.479999542236328
1743895168.3702772,-0.9818559885025024,-0.08881600201129913,-0.09320800006389618,-27.09000015258789,34.369998931884766,27.09000015258789
1743895168.3902771,-0.987712025642395,-0.08247199654579163,-0.08344800025224686,-34.58000183105469,30.309999465942383,32.47999954223633
1743895168.4102771,-1.0116239786148071,-0.07222399860620499,-0.1029679998755455,-35.70000076293945,30.3799991607666,33.810001373291016
1743895168.355113,-1.00381600856781,-0.052216000854969025,-0.11614400148391724,-36.75,29.959999084472656,33.25
1743895168.375113,-1.0438319444656372,-0.07368800044059753,-0.12834399938583374,-32.47999954223633,25.40999984741211,32.900001525878906
1743895168.395113,-1.044808030128479,-0.04684799909591675,-0.13517600297927856,-37.029998779296875,26.18000030517578,30.520000457763672
1743895168.415113,-1.0223599672317505,-0.052216000854969025,-0.15274399518966675,-28.559999465942383,25.479999542236328,30.940000534057617
1743895168.435113,-1.0501760244369507,-0.07807999849319458,-0.19471199810504913,-19.600000381469727,35.349998474121094,32.619998931884766
1743895168.455113,-1.042855978012085,-0.03806399926543236,-0.12200000137090683,-24.5,38.0099983215332,32.40999984741211
1743895168.401926,-0.9960079789161682,-0.06685599684715271,-0.1937360018491745,-32.40999984741211,41.790000915527344,27.93000030517578
1743895168.421926,-1.0272400379180908,-0.053679998964071274,-0.19519999623298645,-23.309999465942383,37.2400016784668,27.790000915527344
1743895168.441926,-1.111664056777954,-0.052216000854969025,-0.1966640055179596,-10.289999961853027,31.290000915527344,27.719999313354492
1743895168.461926,-1.1072720289230347,-0.013663999736309052,-0.19568799436092377,-8.75,30.239999771118164,26.530000686645508
1743895168.481926,-1.0418800115585327,0.0014639999717473984,-0.2147199958562851,-7.699999809265137,31.219999313354492,25.200000762939453
1743895168.501926,-1.0335839986801147,0.0058559998869895935,-0.2152079939842224,-4.550000190734863,34.439998626708984,23.65999984741211
1743895168.474834,-1.0555440187454224,0.019519999623298645,-0.18055999279022217,-6.159999847412109,34.58000183105469,23.309999465942383
1743895168.494834,-1.0687199831008911,0.012199999764561653,-0.19324800372123718,-8.399999618530273,39.900001525878906,17.989999771118164
1743895168.514834,-1.0179680585861206,0.0004879999905824661,-0.1849520057439804,-8.1899995803833,39.619998931884766,14.84000015258789
1743895168.534834,-1.0277279615402222,-0.0024399999529123306,-0.20203199982643127,-6.650000095367432,37.65999984741211,14.350000381469727
1743895168.554834,-1.0374879837036133,0.0004879999905824661,-0.22008800506591797,3.5,35.349998474121094,10.359999656677246
1743895168.5748339,-1.0306559801101685,0.01756799966096878,-0.21862399578094482,-1.3300000429153442,30.309999465942383,8.260000228881836
1743895168.489929,-1.0404160022735596,0.019519999623298645,-0.2327760010957718,7.349999904632568,23.799999237060547,5.949999809265137
