Timestamp,AccelX,AccelY,AccelZ,GyroX,GyroY,GyroZ
1743436964.912628,-0.460,0.701,0.564,0.140,-5.040,0.700
1743436964.932628,-0.461,0.705,0.570,0.280,-4.970,0.560
1743436964.952628,-0.462,0.709,0.573,0.140,-4.200,0.210
1743436964.9726279,-0.461,0.708,0.575,-0.350,-3.010,-0.070
1743436964.9926279,-0.463,0.694,0.566,5.040,-1.890,-1.260
1743436965.0126278,-0.459,0.687,0.564,-13.650,-5.880,-0.700
1743436965.0326278,-0.463,0.713,0.571,-2.520,-6.860,1.050
1743436965.0526278,-0.458,0.693,0.562,1.120,-3.500,-0.140
1743436965.0726278,-0.447,0.691,0.563,1.470,-2.170,-0.980
1743436965.0926278,-0.450,0.697,0.568,0.980,-1.820,-1.260
1743436965.1126277,-0.456,0.709,0.573,-0.700,-1.400,-1.050
1743436965.1326277,-0.459,0.717,0.585,0.700,-0.560,-0.840
1743436965.1526277,-0.459,0.711,0.584,0.210,-0.350,-0.700
1743436965.1726277,-0.452,0.699,0.567,-0.140,17.850,-0.910
1743436965.1926277,-0.454,0.691,0.554,0.000,0.560,-0.910
1743436965.2126276,-0.458,0.692,0.557,1.190,-0.140,-0.770
1743436965.2326276,-0.460,0.698,0.571,2.310,-0.910,-0.560
1743436965.2526276,-0.459,0.705,0.577,1.960,-1.540,-0.700
1743436965.2726276,-0.456,0.705,0.577,1.330,-1.540,-0.630
1743436965.2926276,-0.458,0.706,0.571,0.700,-1.820,-0.420
1743436965.3126276,-0.461,0.703,0.566,0.560,-2.870,-0.280
1743436965.3326275,-0.462,0.702,0.561,0.560,-3.570,-0.140
1743436965.3526275,-0.463,0.702,0.565,0.000,-3.850,-0.070
1743436965.3726275,-0.459,0.698,0.566,-0.280,-3.920,-0.140
1743436965.3926275,-0.460,0.699,0.567,-0.210,-3.920,-0.280
1743436965.4126275,-0.455,0.701,0.566,0.140,-3.850,-0.210
1743436965.4326274,-0.456,0.703,0.566,0.210,-3.500,-0.210
1743436965.4526274,-0.454,0.703,0.567,0.420,-2.800,-0.210
1743436965.4726274,-0.456,0.706,0.570,0.490,-2.520,-0.210
1743436965.4926274,-0.459,0.706,0.573,0.350,-2.380,-0.280
1743436965.5126274,-0.459,0.704,0.570,0.560,-2.100,-0.350
1743436965.5326273,-0.457,0.703,0.570,0.280,-1.820,-0.420
1743436965.5526273,-0.457,0.703,0.573,0.000,-1.190,-0.490
1743436965.5726273,-0.461,0.702,0.572,0.070,-1.190,-0.560
1743436965.5926273,-0.458,0.702,0.570,0.140,-1.330,-0.420
1743436965.6126273,-0.459,0.700,0.569,0.350,-1.470,-0.630
1743436965.6326272,-0.458,0.702,0.565,0.350,-1.610,-0.630
1743436965.6526272,-0.458,0.703,0.564,0.350,-1.680,-0.700
1743436965.6726272,-0.458,0.703,0.567,0.420,-1.820,-0.560
1743436965.6926272,-0.458,0.702,0.564,0.560,-2.100,-0.560
1743436965.7126272,-0.458,0.702,0.567,0.700,-2.730,-0.490
1743436965.7326272,-0.457,0.703,0.572,0.630,-2.870,-0.490
1743436965.7526271,-0.458,0.702,0.570,0.420,-3.080,-0.420
1743436965.772627,-0.460,0.703,0.571,0.280,-2.940,-0.280
1743436965.792627,-0.461,0.704,0.567,0.210,-2.870,-0.210
1743436965.812627,-0.458,0.701,0.566,0.350,-2.870,-0.280
1743436965.832627,-0.460,0.701,0.567,0.280,-2.310,-0.210
1743436965.852627,-0.460,0.702,0.567,0.210,-2.240,-0.280
1743436965.872627,-0.459,0.702,0.568,0.350,-2.310,-0.140
1743436965.892627,-0.459,0.705,0.571,0.350,-2.310,-0.210
1743436965.912627,-0.458,0.702,0.571,0.350,-2.310,-0.420
1743436965.932627,-0.457,0.700,0.570,0.420,-2.380,-0.350
1743436965.952627,-0.456,0.700,0.567,0.420,-2.450,-0.490
1743436965.972627,-0.457,0.698,0.566,0.420,-2.100,-0.560
1743436965.992627,-0.462,0.701,0.569,0.630,-2.310,-0.420
1743436966.012627,-0.461,0.703,0.571,0.910,-2.660,-0.280
1743436966.0326269,-0.459,0.703,0.573,0.770,-2.730,-0.350
1743436966.0526268,-0.454,0.703,0.568,0.770,-2.590,-0.350
1743436966.0726268,-0.453,0.701,0.566,0.490,-2.380,-0.490
1743436966.0926268,-0.457,0.698,0.564,0.630,-2.240,-0.560
1743436966.1126268,-0.459,0.701,0.567,0.910,-2.380,-0.420
1743436966.1326268,-0.462,0.705,0.569,0.630,-2.520,-0.070
1743436966.1526268,-0.462,0.707,0.569,0.350,-2.800,0.000
1743436966.1726267,-0.462,0.708,0.571,0.070,-2.800,0.000
1743436966.1926267,-0.460,0.706,0.569,-0.070,-2.940,0.000
1743436966.2126267,-0.461,0.702,0.568,-0.140,-3.080,0.070
1743436966.2326267,-0.458,0.700,0.568,0.000,-3.290,-0.070
1743436966.2526267,-0.457,0.702,0.565,-0.070,-3.220,-0.070
1743436966.2726266,-0.459,0.701,0.568,-0.070,-3.150,-0.070
1743436966.2926266,-0.458,0.703,0.571,0.000,-3.220,-0.070
1743436966.3126266,-0.458,0.702,0.570,0.070,-3.150,-0.140
1743436966.3326266,-0.459,0.702,0.570,0.210,-2.940,-0.210
1743436966.3526266,-0.456,0.701,0.570,0.280,-2.660,-0.350
1743436966.3726265,-0.454,0.700,0.569,0.210,-2.520,-0.420
1743436966.3926265,-0.456,0.701,0.571,0.140,-2.590,-0.350
1743436966.4126265,-0.456,0.699,0.571,0.280,-2.730,-0.420
1743436966.4326265,-0.454,0.708,0.572,-0.140,-2.520,-0.350
1743436966.4526265,-0.457,0.707,0.569,0.140,-2.940,-0.210
1743436966.4726264,-0.456,0.706,0.570,-0.210,-3.010,0.000
1743436966.4926264,-0.459,0.703,0.568,-0.280,-3.010,0.070
1743436966.5126264,-0.459,0.701,0.569,-0.420,-3.150,0.000
1743436966.5326264,-0.454,0.702,0.569,-0.420,-3.360,0.000
1743436966.5526264,-0.457,0.701,0.567,-0.350,-3.360,-0.070
1743436966.5726264,-0.455,0.702,0.568,-0.140,-3.290,-0.140
1743436966.5926263,-0.457,0.701,0.570,0.000,-3.220,-0.140
1743436966.6126263,-0.455,0.704,0.574,0.000,-3.010,-0.140
1743436966.6326263,-0.456,0.704,0.571,-0.070,-3.010,-0.210
1743436966.6526263,-0.457,0.701,0.570,0.000,-2.870,-0.210
1743436966.6726263,-0.456,0.701,0.572,0.000,-2.590,-0.210
1743436966.6926262,-0.453,0.699,0.573,0.070,-2.450,-0.280
1743436966.7126262,-0.457,0.702,0.570,0.070,-2.310,-0.280
1743436966.7326262,-0.456,0.701,0.573,0.140,-2.310,-0.420
1743436966.7526262,-0.454,0.698,0.572,0.210,-2.170,-0.420
1743436966.7726262,-0.455,0.700,0.569,0.420,-2.100,-0.490
1743436966.7926261,-0.453,0.708,0.575,-1.820,-2.240,0.140
1743436966.8126261,-0.462,0.696,0.569,0.840,-4.200,0.420
1743436966.832626,-0.454,0.694,0.569,-1.120,-4.760,0.350
1743436966.852626,-0.455,0.698,0.579,-0.420,-3.850,0.980
1743436966.872626,-0.455,0.694,0.562,0.210,-5.040,0.560
1743436966.892626,-0.452,0.699,0.567,-0.770,-4.410,0.350
1743436966.912626,-0.454,0.703,0.571,0.210,-3.710,0.210
1743436966.932626,-0.452,0.703,0.576,0.000,-3.430,0.210
1743436966.952626,-0.453,0.705,0.580,-0.210,-2.940,0.000
1743436966.972626,-0.454,0.703,0.578,-0.350,-2.520,-0.280
1743436966.992626,-0.450,0.701,0.575,-0.140,-1.820,-0.420
1743436967.012626,-0.453,0.700,0.571,0.210,-1.540,-0.560
1743436967.032626,-0.454,0.701,0.572,0.280,-1.050,-0.770
1743436967.052626,-0.453,0.702,0.576,0.420,-0.700,-0.770
1743436967.0726259,-0.455,0.702,0.573,0.280,-0.630,-0.840
1743436967.0926259,-0.456,0.709,0.574,-0.350,-1.050,-0.210
1743436967.1126258,-0.459,0.696,0.565,2.030,-1.890,-0.700
1743436967.1326258,-0.453,0.704,0.574,0.350,-1.260,-0.700
1743436967.1526258,-0.454,0.697,0.571,1.260,-1.610,-0.840
1743436967.1726258,-0.452,0.703,0.573,0.560,-1.470,-0.840
1743436967.1926258,-0.457,0.700,0.573,0.560,-1.470,-0.700
1743436967.2126257,-0.456,0.702,0.573,0.560,-2.310,-0.420
1743436967.2326257,-0.458,0.702,0.573,0.420,-2.590,-0.280
1743436967.2526257,-0.454,0.702,0.573,0.490,-3.010,-0.210
1743436967.2726257,-0.453,0.701,0.569,0.490,-2.940,-0.280
1743436967.2926257,-0.452,0.702,0.567,0.350,-2.800,-0.210
1743436967.3126256,-0.455,0.700,0.569,0.140,-2.660,-0.420
1743436967.3326256,-0.454,0.699,0.570,0.070,-2.800,-0.420
1743436967.3526256,-0.453,0.700,0.571,0.210,-3.010,-0.280
1743436967.3726256,-0.455,0.703,0.569,0.000,-2.870,-0.210
1743436967.3926256,-0.458,0.706,0.571,-0.140,-2.660,-0.280
1743436967.4126256,-0.458,0.704,0.575,-0.280,-2.520,-0.350
1743436967.4326255,-0.459,0.702,0.572,-0.070,-2.520,-0.350
1743436967.4526255,-0.455,0.699,0.574,-0.070,-2.590,-0.490
1743436967.4726255,-0.451,0.695,0.573,0.000,-2.520,-0.350
1743436967.4926255,-0.453,0.697,0.573,0.000,-2.170,-0.630
1743436967.5126255,-0.453,0.697,0.571,0.070,-2.100,-0.560
1743436967.5326254,-0.453,0.696,0.574,0.140,-2.380,-0.490
1743436967.5526254,-0.454,0.699,0.574,0.560,-2.240,-0.490
1743436967.5726254,-0.451,0.699,0.574,0.700,-2.240,-0.350
1743436967.5926254,-0.451,0.698,0.572,0.560,-2.100,-0.350
1743436967.6126254,-0.455,0.697,0.570,0.630,-2.100,-0.350
1743436967.6326253,-0.450,0.698,0.571,0.980,-2.520,-0.350
1743436967.6526253,-0.451,0.700,0.573,1.190,-2.590,-0.350
1743436967.6726253,-0.452,0.701,0.573,0.980,-2.380,-0.420
1743436967.6926253,-0.457,0.702,0.573,0.980,-2.310,-0.350
1743436967.7126253,-0.457,0.704,0.572,0.910,-2.380,-0.280
1743436967.7326252,-0.457,0.707,0.571,0.910,-2.380,-0.350
1743436967.7526252,-0.458,0.705,0.571,0.630,-2.240,-0.350
1743436967.7726252,-0.457,0.704,0.572,0.350,-2.240,-0.350
1743436967.7926252,-0.458,0.702,0.568,0.210,-2.380,-0.350
1743436967.8126252,-0.454,0.698,0.569,0.280,-2.660,-0.350
1743436967.8326252,-0.457,0.700,0.568,0.560,-2.800,-0.420
1743436967.8526251,-0.454,0.701,0.570,0.630,-2.660,-0.420
1743436967.872625,-0.457,0.701,0.574,0.560,-2.450,-0.350
1743436967.892625,-0.456,0.705,0.574,0.420,-2.100,-0.420
1743436967.912625,-0.458,0.702,0.576,0.280,-2.310,-0.280
1743436967.932625,-0.457,0.700,0.576,0.350,-2.660,-0.280
1743436967.952625,-0.452,0.700,0.574,0.210,-2.520,-0.350
1743436967.972625,-0.453,0.699,0.573,0.070,-2.240,-0.420
1743436967.992625,-0.452,0.699,0.572,0.140,-2.380,-0.420
1743436968.012625,-0.455,0.701,0.574,0.210,-2.450,-0.420
1743436968.032625,-0.452,0.702,0.573,0.350,-2.450,-0.420
1743436968.052625,-0.452,0.705,0.572,0.280,-2.310,-0.490
1743436968.072625,-0.452,0.703,0.572,0.210,-2.100,-0.560
1743436968.092625,-0.452,0.699,0.571,0.280,-1.960,-0.560
1743436968.112625,-0.457,0.699,0.571,0.280,-2.030,-0.560
1743436968.1326249,-0.453,0.700,0.573,0.490,-2.240,-0.560
1743436968.1526248,-0.453,0.701,0.573,0.560,-2.520,-0.560
1743436968.1726248,-0.454,0.701,0.575,0.490,-2.240,-0.490
1743436968.1926248,-0.455,0.702,0.577,0.630,-2.100,-0.700
1743436968.2126248,-0.453,0.700,0.572,0.630,-1.890,-0.700
1743436968.2326248,-0.452,0.700,0.571,0.910,-1.470,-0.910
1743436968.2526248,-0.454,0.699,0.570,1.470,-1.330,-0.910
1743436968.2726247,-0.452,0.701,0.571,1.610,-1.190,-0.980
1743436968.2926247,-0.455,0.698,0.570,1.750,-0.560,-1.050
1743436968.3126247,-0.456,0.700,0.567,1.890,-0.280,-1.120
1743436968.3326247,-0.458,0.702,0.569,2.240,0.350,-1.330
1743436968.3526247,-0.458,0.703,0.575,2.590,0.840,-1.540
1743436968.3726246,-0.460,0.704,0.571,1.890,0.490,-1.400
1743436968.3926246,-0.459,0.708,0.579,1.400,0.420,-1.540
1743436968.4126246,-0.459,0.704,0.567,1.470,0.280,-1.610
1743436968.4326246,-0.459,0.702,0.566,1.260,0.280,-1.470
1743436968.4526246,-0.458,0.702,0.567,0.770,-0.210,-1.050
1743436968.4726245,-0.460,0.702,0.568,0.630,-0.560,-0.910
1743436968.4926245,-0.462,0.698,0.569,0.420,-2.030,-0.280
1743436968.5126245,-0.458,0.700,0.571,0.980,-3.220,0.000
1743436968.5326245,-0.456,0.697,0.566,1.050,-3.500,-0.070
1743436968.5526245,-0.455,0.701,0.563,0.770,-3.080,-0.280
1743436968.5726244,-0.457,0.699,0.562,0.210,-3.150,0.000
1743436968.5926244,-0.459,0.701,0.565,0.420,-3.780,0.280
1743436968.6126244,-0.461,0.705,0.567,0.700,-4.270,0.420
1743436968.6326244,-0.458,0.707,0.569,0.840,-4.270,0.350
1743436968.6526244,-0.459,0.709,0.570,0.350,-3.220,-0.070
1743436968.6726243,-0.459,0.707,0.569,-0.280,-2.870,-0.140
1743436968.6926243,-0.460,0.703,0.567,-0.210,-2.800,-0.280
1743436968.7126243,-0.458,0.699,0.567,0.000,-2.870,-0.350
1743436968.7326243,-0.454,0.699,0.565,0.140,-2.730,-0.350
1743436968.7526243,-0.455,0.702,0.571,0.210,-2.450,-0.490
1743436968.7726243,-0.457,0.701,0.572,0.210,-2.170,-0.490
1743436968.7926242,-0.459,0.702,0.574,0.210,-1.890,-0.700
1743436968.8126242,-0.459,0.702,0.570,0.420,-1.750,-0.700
1743436968.8326242,-0.456,0.702,0.565,0.490,-1.470,-0.700
1743436968.8526242,-0.453,0.699,0.567,0.490,-1.470,-0.770
1743436968.8726242,-0.455,0.699,0.572,0.490,-1.540,-0.560
1743436968.8926241,-0.459,0.700,0.570,0.630,-2.240,-0.630
1743436968.9126241,-0.458,0.703,0.570,0.560,-2.310,-0.420
1743436968.932624,-0.457,0.701,0.568,0.490,-2.380,-0.490
1743436968.952624,-0.458,0.703,0.566,0.560,-2.380,-0.420
1743436968.972624,-0.459,0.703,0.568,0.420,-2.380,-0.280
1743436968.992624,-0.460,0.707,0.570,0.420,-2.590,-0.420
1743436969.012624,-0.459,0.704,0.572,0.350,-2.660,-0.350
1743436969.032624,-0.460,0.703,0.571,0.000,-3.010,-0.210
1743436969.052624,-0.458,0.701,0.568,0.140,-3.360,-0.280
1743436969.072624,-0.454,0.699,0.566,0.420,-3.010,-0.280
1743436969.092624,-0.458,0.700,0.566,0.490,-2.800,-0.210
1743436969.112624,-0.457,0.704,0.567,0.490,-2.660,-0.210
1743436969.132624,-0.459,0.705,0.570,0.350,-2.310,-0.280
1743436969.152624,-0.462,0.706,0.571,0.070,-2.380,-0.210
1743436969.1726239,-0.459,0.703,0.571,0.140,-2.590,-0.210
1743436969.1926239,-0.455,0.700,0.570,0.560,-2.940,-0.210
1743436969.2126238,-0.458,0.702,0.569,0.560,-2.660,-0.140
1743436969.2326238,-0.455,0.701,0.567,0.350,-2.520,-0.350
1743436969.2526238,-0.458,0.701,0.566,0.420,-2.520,-0.420
1743436969.2726238,-0.460,0.700,0.569,0.490,-2.660,-0.280
1743436969.2926238,-0.456,0.702,0.569,0.350,-2.590,-0.350
1743436969.3126237,-0.456,0.703,0.568,0.420,-2.310,-0.350
1743436969.3326237,-0.455,0.702,0.567,0.420,-1.960,-0.420
1743436969.3526237,-0.455,0.701,0.569,0.350,-2.100,-0.560
1743436969.3726237,-0.456,0.701,0.567,0.420,-2.170,-0.560
1743436969.3926237,-0.456,0.704,0.569,0.280,-2.170,-0.560
1743436969.4126236,-0.458,0.703,0.569,0.350,-2.380,-0.490
1743436969.4326236,-0.457,0.703,0.567,0.420,-2.520,-0.490
1743436969.4526236,-0.457,0.703,0.569,0.420,-2.240,-0.350
1743436969.4726236,-0.457,0.703,0.569,0.420,-2.240,-0.420
1743436969.4926236,-0.457,0.704,0.570,0.210,-2.170,-0.490
1743436969.5126235,-0.458,0.702,0.569,0.350,-2.590,-0.420
1743436969.5326235,-0.457,0.702,0.571,0.420,-2.660,-0.420
1743436969.5526235,-0.456,0.700,0.570,0.490,-2.590,-0.350
1743436969.5726235,-0.457,0.704,0.568,0.420,-2.450,-0.490
1743436969.5926235,-0.459,0.703,0.571,0.420,-2.520,-0.350
1743436969.6126235,-0.461,0.703,0.567,0.490,-2.450,-0.280
1743436969.6326234,-0.459,0.704,0.567,0.490,-2.380,-0.280
1743436969.6526234,-0.460,0.704,0.569,0.420,-2.520,-0.350
1743436969.6726234,-0.457,0.702,0.573,0.350,-2.450,-0.420
1743436969.6926234,-0.455,0.702,0.570,0.280,-2.380,-0.560
1743436969.7126234,-0.455,0.699,0.563,0.000,-2.100,-0.490
1743436969.7326233,-0.459,0.703,0.568,0.280,-2.240,-0.420
1743436969.7526233,-0.461,0.703,0.569,0.770,-2.660,-0.350
1743436969.7726233,-0.459,0.704,0.573,0.840,-2.800,-0.280
1743436969.7926233,-0.454,0.702,0.570,0.560,-2.730,-0.350
1743436969.8126233,-0.453,0.698,0.566,0.420,-2.380,-0.490
1743436969.8326232,-0.457,0.698,0.560,0.490,-2.240,-0.560
1743436969.8526232,-0.457,0.696,0.564,0.560,-2.170,-0.630
1743436969.8726232,-0.456,0.702,0.569,0.770,-2.100,-0.490
1743436969.8926232,-0.459,0.705,0.573,0.630,-1.960,-0.420
1743436969.9126232,-0.458,0.709,0.572,0.210,-2.240,-0.350
1743436969.9326231,-0.462,0.704,0.571,0.210,-2.730,-0.210
1743436969.9526231,-0.460,0.702,0.570,0.490,-3.150,-0.140
1743436969.972623,-0.458,0.701,0.569,0.560,-3.290,-0.070
1743436969.992623,-0.457,0.701,0.568,0.350,-2.940,-0.210
1743436970.012623,-0.456,0.702,0.567,0.210,-2.870,-0.140
1743436970.032623,-0.456,0.702,0.572,0.280,-2.940,-0.210
1743436970.052623,-0.457,0.704,0.569,0.350,-2.800,-0.210
1743436970.072623,-0.457,0.703,0.568,0.350,-2.520,-0.420
1743436970.092623,-0.455,0.701,0.566,0.420,-2.310,-0.490
1743436970.112623,-0.454,0.700,0.569,0.490,-2.030,-0.490
1743436970.132623,-0.455,0.701,0.571,0.770,-2.310,-0.560
1743436970.152623,-0.456,0.702,0.573,0.840,-2.380,-0.420
1743436970.172623,-0.453,0.702,0.569,0.910,-2.520,-0.490
1743436970.192623,-0.456,0.703,0.568,0.700,-2.100,-0.490
1743436970.212623,-0.454,0.704,0.567,0.420,-1.820,-0.490
1743436970.2326229,-0.460,0.704,0.568,0.280,-1.750,-0.490
1743436970.2526228,-0.459,0.705,0.571,0.210,-1.960,-0.420
1743436970.2726228,-0.458,0.703,0.571,0.140,-2.520,-0.420
1743436970.2926228,-0.459,0.703,0.571,-0.210,-2.940,-0.210
1743436970.3126228,-0.457,0.700,0.566,-0.280,-2.870,0.000
1743436970.3326228,-0.455,0.698,0.567,-0.560,-2.590,0.000
1743436970.3526227,-0.457,0.701,0.566,-0.420,-2.800,-17.850
1743436970.3726227,-0.459,0.705,0.569,-0.350,-2.450,-0.210
1743436970.3926227,-0.458,0.704,0.570,-0.770,-2.100,-0.280
1743436970.4126227,-0.457,0.703,0.572,-0.840,-1.820,-0.420
1743436970.4326227,-0.456,0.703,0.570,-0.630,-2.030,-0.420
1743436970.4526227,-0.457,0.701,0.569,-0.280,-1.820,-0.560
1743436970.4726226,-0.454,0.698,0.566,0.630,-1.330,-0.770
1743436970.4926226,-0.453,0.697,0.566,1.330,-0.840,-0.980
1743436970.5126226,-0.453,0.703,0.572,0.910,0.000,-1.120
1743436970.5326226,-0.457,0.708,0.574,0.490,0.630,-1.190
1743436970.5526226,-0.455,0.708,0.571,0.210,1.050,-1.260
1743436970.5726225,-0.459,0.705,0.570,-0.070,0.770,-1.050
1743436970.5926225,-0.464,0.706,0.566,0.140,0.210,-0.910
1743436970.6126225,-0.462,0.700,0.565,0.140,-0.070,-0.840
1743436970.6326225,-0.461,0.699,0.565,0.000,-0.350,-0.770
1743436970.6526225,-0.464,0.697,0.565,0.000,-0.630,-0.700
1743436970.6726224,-0.464,0.695,0.566,-0.210,-1.680,-0.700
1743436970.6926224,-0.466,0.692,0.566,-0.070,-2.450,-0.560
1743436970.7126224,-0.463,0.699,0.568,0.070,-2.870,-0.490
1743436970.7326224,-0.463,0.701,0.569,-0.280,-3.290,-0.350
1743436970.7526224,-0.460,0.703,0.570,-0.560,-3.780,-0.140
1743436970.7726223,-0.460,0.702,0.569,-0.070,-4.130,0.140
1743436970.7926223,-0.458,0.704,0.570,0.210,-4.340,0.140
1743436970.8126223,-0.453,0.703,0.574,0.420,-3.990,0.070
1743436970.8326223,-0.453,0.704,0.572,0.350,-3.010,-0.070
1743436970.8526223,-0.453,0.702,0.569,0.490,-2.730,-0.070
1743436970.8726223,-0.457,0.700,0.569,0.630,-2.310,-0.350
1743436970.8926222,-0.458,0.700,0.569,0.840,-1.820,-0.420
1743436970.9126222,-0.460,0.699,0.568,0.840,-1.540,-0.630
1743436970.9326222,-0.462,0.701,0.568,0.280,-1.470,-0.700
1743436970.9526222,-0.463,0.701,0.569,0.770,-1.470,-0.770
1743436970.9726222,-0.464,0.703,0.572,0.490,-1.400,-0.980
1743436970.9926221,-0.463,0.700,0.573,0.490,-1.820,-0.980
1743436971.012622,-0.463,0.701,0.568,0.420,-1.820,-1.050
1743436971.032622,-0.460,0.701,0.568,-0.280,-1.890,-1.050
1743436971.052622,-0.462,0.700,0.567,0.840,-1.610,-0.840
1743436971.072622,-0.464,0.702,0.572,0.770,-1.890,-0.700
1743436971.092622,-0.462,0.702,0.574,1.050,-1.960,-0.630
1743436971.112622,-0.458,0.704,0.573,0.840,-1.890,-0.700
1743436971.132622,-0.455,0.699,0.566,0.770,-1.540,-0.840
1743436971.152622,-0.457,0.696,0.559,1.260,-1.470,-0.980
1743436971.172622,-0.457,0.702,0.565,0.630,-1.820,-0.420
1743436971.192622,-0.463,0.701,0.567,1.050,-2.170,0.000
1743436971.212622,-0.464,0.708,0.569,0.770,-2.590,0.140
1743436971.232622,-0.461,0.705,0.567,0.070,-2.380,0.000
1743436971.252622,-0.461,0.703,0.562,-1.050,-2.240,-0.140
1743436971.2726219,-0.464,0.704,0.567,-1.120,-2.730,-0.070
1743436971.2926219,-0.463,0.700,0.570,-0.560,-3.500,0.210
1743436971.3126218,-0.460,0.700,0.569,-0.630,-5.320,0.350
1743436971.3326218,-0.457,0.696,0.568,-0.910,-5.320,-0.420
1743436971.3526218,-0.450,0.705,0.571,-3.080,-4.200,0.210
1743436971.3726218,-0.459,0.695,0.569,-0.490,-3.850,0.000
1743436971.3926218,-0.455,0.695,0.570,0.070,-3.920,-0.140
1743436971.4126217,-0.457,0.693,0.574,1.540,-3.920,-0.350
1743436971.4326217,-0.452,0.692,0.571,1.960,-3.780,-0.350
1743436971.4526217,-0.453,0.695,0.571,2.030,-2.800,-0.420
1743436971.4726217,-0.453,0.709,0.579,1.400,-1.610,-0.350
1743436971.4926217,-0.457,0.704,0.576,0.980,-0.420,-0.770
1743436971.5126216,-0.457,0.708,0.577,-0.350,0.490,-0.770
1743436971.5326216,-0.460,0.703,0.574,-0.560,1.050,-0.840
1743436971.5526216,-0.460,0.704,0.568,-0.140,0.700,-0.770
1743436971.5726216,-0.459,0.701,0.567,0.350,0.350,-0.700
1743436971.5926216,-0.459,0.700,0.564,0.770,0.070,-0.770
1743436971.6126215,-0.461,0.700,0.562,0.840,-0.770,-0.840
1743436971.6326215,-0.465,0.698,0.557,1.400,-1.610,-0.700
1743436971.6526215,-0.465,0.700,0.560,1.540,-2.030,-0.490
1743436971.6726215,-0.463,0.700,0.564,0.490,-2.520,0.560
1743436971.6926215,-0.474,0.689,0.558,2.450,-6.300,0.560
1743436971.7126215,-0.463,0.699,0.572,0.630,-7.140,0.770
1743436971.7326214,-0.460,0.702,0.572,0.350,-6.370,0.560
1743436971.7526214,-0.456,0.701,0.573,-1.610,-4.760,0.350
1743436971.7726214,-0.456,0.699,0.571,-1.610,-3.430,1.330
1743436971.7926214,-0.457,0.709,0.570,-0.280,-3.010,-0.350
1743436971.8126214,-0.462,0.724,0.567,-1.330,-2.310,-0.280
1743436971.8326213,-0.461,0.705,0.577,-0.350,-0.560,-0.490
1743436971.8526213,-0.449,0.694,0.570,0.560,-0.980,-0.770
1743436971.8726213,-0.459,0.705,0.565,2.030,-1.120,-0.560
1743436971.8926213,-0.457,0.703,0.568,1.960,-0.280,-0.700
1743436971.9126213,-0.455,0.702,0.572,1.750,0.420,-1.330
1743436971.9326212,-0.456,0.700,0.570,1.750,0.560,-1.540
1743436971.9526212,-0.461,0.697,0.569,1.470,0.560,-1.750
1743436971.9726212,-0.464,0.698,0.570,1.330,0.420,-1.750
1743436971.9926212,-0.463,0.699,0.569,0.840,0.350,-1.820
1743436972.0126212,-0.465,0.705,0.573,2.170,1.190,0.000
1743436972.0326211,-0.465,0.706,0.565,-1.680,-3.430,-0.140
1743436972.0526211,-0.464,0.702,0.560,-3.220,-3.360,-0.210
1743436972.072621,-0.468,0.691,0.562,-0.980,-3.640,0.070
1743436972.092621,-0.460,0.693,0.556,-1.330,-4.340,0.560
1743436972.112621,-0.461,0.695,0.558,0.700,-5.600,0.210
1743436972.132621,-0.463,0.700,0.565,2.380,-5.320,0.420
1743436972.152621,-0.458,0.710,0.574,1.750,-4.900,0.280
1743436972.172621,-0.464,0.711,0.580,2.870,-4.900,0.140
1743436972.192621,-0.457,0.706,0.573,0.770,-2.800,-0.280
1743436972.212621,-0.457,0.702,0.569,-0.210,-0.700,-0.700
1743436972.232621,-0.457,0.705,0.571,-0.420,0.070,-0.980
1743436972.252621,-0.462,0.703,0.579,-0.840,0.630,-1.120
1743436972.272621,-0.460,0.703,0.581,-0.840,0.560,-1.190
1743436972.292621,-0.462,0.698,0.578,-0.140,0.350,-0.770
1743436972.3126209,-0.458,0.696,0.564,-0.770,-0.210,-0.350
1743436972.3326209,-0.461,0.690,0.558,-0.420,-2.590,-0.210
1743436972.3526208,-0.457,0.699,0.558,-0.280,-2.940,-0.140
1743436972.3726208,-0.459,0.691,0.556,0.280,-3.290,-0.070
1743436972.3926208,-0.460,0.691,0.561,0.770,-3.640,-0.140
1743436972.4126208,-0.460,0.689,0.564,1.120,-3.850,-0.210
1743436972.4326208,-0.461,0.695,0.573,2.450,-3.780,-0.350
1743436972.4526207,-0.463,0.698,0.579,2.310,-3.710,-0.490
1743436972.4726207,-0.460,0.701,0.575,2.170,-3.430,-0.560
1743436972.4926207,-0.456,0.700,0.568,0.420,-3.500,0.000
1743436972.5126207,-0.466,0.697,0.561,2.660,-3.710,-0.070
1743436972.5326207,-0.466,0.701,0.569,2.520,-3.500,0.070
1743436972.5526206,-0.463,0.705,0.569,2.030,-2.450,-0.350
1743436972.5726206,-0.458,0.707,0.573,0.140,-0.210,-0.910
1743436972.5926206,-0.456,0.704,0.573,-0.980,0.560,-1.260
1743436972.6126206,-0.459,0.707,0.573,-1.540,0.700,-1.050
1743436972.6326206,-0.462,0.707,0.572,-1.610,0.070,-0.910
1743436972.6526206,-0.463,0.703,0.568,-1.190,-0.630,-0.770
1743436972.6726205,-0.465,0.702,0.561,-0.490,-2.030,-0.560
1743436972.6926205,-0.463,0.702,0.558,-0.630,-2.030,-0.210
1743436972.7126205,-0.462,0.700,0.561,0.140,-2.170,-0.140
1743436972.7326205,-0.457,0.697,0.561,0.280,-2.870,-0.210
1743436972.7526205,-0.457,0.697,0.567,1.400,-2.450,-0.280
1743436972.7726204,-0.460,0.699,0.571,1.190,-1.750,-0.840
1743436972.7926204,-0.457,0.695,0.572,1.400,-1.120,-1.470
1743436972.8126204,-0.460,0.697,0.574,0.770,-0.980,-1.680
1743436972.8326204,-0.463,0.696,0.574,0.490,-1.120,-1.680
1743436972.8526204,-0.462,0.701,0.576,0.280,-1.610,-1.610
1743436972.8726203,-0.463,0.700,0.574,-0.560,-2.030,-1.260
1743436972.8926203,-0.465,0.697,0.569,-0.840,-2.590,-0.280
1743436972.9126203,-0.465,0.694,0.567,-1.750,-4.830,0.980
1743436972.9326203,-0.466,0.692,0.558,-0.700,-7.280,1.610
1743436972.9526203,-0.464,0.691,0.560,0.280,-9.170,2.170
1743436972.9726202,-0.457,0.699,0.564,0.630,-8.680,1.610
1743436972.9926202,-0.452,0.698,0.566,-0.490,-5.600,1.050
1743436973.0126202,-0.458,0.699,0.565,-0.630,-4.270,0.490
1743436973.0326202,-0.463,0.702,0.571,0.280,-3.990,0.350
1743436973.0526202,-0.464,0.706,0.579,1.330,-3.710,0.070
1743436973.0726202,-0.460,0.710,0.584,0.700,-2.170,-0.490
1743436973.0926201,-0.451,0.715,0.581,-2.310,-1.120,-0.140
1743436973.11262,-0.460,0.698,0.581,-0.490,-0.420,-0.280
1743436973.13262,-0.460,0.691,0.570,2.240,0.070,-0.980
1743436973.15262,-0.454,0.690,0.562,3.570,1.120,-1.750
1743436973.17262,-0.450,0.695,0.565,3.220,2.240,-2.170
1743436973.19262,-0.453,0.696,0.575,2.520,3.360,-2.800
1743436973.21262,-0.463,0.705,0.575,2.310,3.710,-3.150
1743436973.23262,-0.468,0.711,0.574,1.750,3.220,-3.780
1743436973.25262,-0.470,0.715,0.570,0.700,2.590,-5.110
1743436973.27262,-0.465,0.711,0.564,-0.700,1.400,-5.950
1743436973.29262,-0.465,0.698,0.559,-1.890,-0.980,-5.950
1743436973.31262,-0.465,0.685,0.552,-0.630,-3.220,-3.640
1743436973.33262,-0.464,0.679,0.552,0.700,-5.040,1.960
1743436973.35262,-0.465,0.683,0.554,1.470,-6.720,3.780
1743436973.3726199,-0.466,0.697,0.565,1.400,-7.840,4.620
1743436973.3926198,-0.470,0.681,0.550,1.610,-14.140,3.990
1743436973.4126198,-0.472,0.731,0.580,-1.470,-11.620,3.570
1743436973.4326198,-0.462,0.703,0.587,0.700,-8.120,1.330
1743436973.4526198,-0.448,0.698,0.579,-3.080,-3.780,1.050
1743436973.4726198,-0.459,0.686,0.566,-3.010,-3.780,0.630
1743436973.4926198,-0.469,0.690,0.563,-0.210,-5.040,0.210
1743436973.5126197,-0.467,0.710,0.571,1.540,-5.040,-0.070
1743436973.5326197,-0.455,0.707,0.583,0.910,-2.590,-0.840
1743436973.5526197,-0.447,0.703,0.577,-2.450,-0.280,-0.980
1743436973.5726197,-0.454,0.700,0.568,-1.050,1.400,-1.190
1743436973.5926197,-0.459,0.692,0.566,0.280,1.400,-1.120
1743436973.6126196,-0.459,0.692,0.567,3.010,0.770,-1.120
1743436973.6326196,-0.457,0.701,0.572,2.730,0.770,-1.260
1743436973.6526196,-0.457,0.705,0.574,2.590,1.610,-1.470
1743436973.6726196,-0.461,0.703,0.575,2.520,2.100,-1.470
1743436973.6926196,-0.463,0.704,0.571,2.800,1.750,-1.820
1743436973.7126195,-0.464,0.703,0.567,2.170,1.470,-2.170
1743436973.7326195,-0.463,0.700,0.566,1.400,1.260,-2.520
1743436973.7526195,-0.467,0.700,0.562,0.070,1.120,-3.010
1743436973.7726195,-0.467,0.695,0.563,-0.910,0.210,-2.730
1743436973.7926195,-0.459,0.696,0.571,-5.040,-1.400,0.000
1743436973.8126194,-0.478,0.667,0.543,3.010,-7.560,0.770
1743436973.8326194,-0.470,0.710,0.557,0.210,-7.980,1.610
1743436973.8526194,-0.468,0.707,0.566,2.380,-7.770,1.190
1743436973.8726194,-0.456,0.703,0.576,-1.120,-3.990,0.420
1743436973.8926194,-0.461,0.700,0.577,-0.770,-3.080,0.420
1743436973.9126194,-0.468,0.695,0.568,0.490,-4.690,0.420
1743436973.9326193,-0.467,0.708,0.570,-0.140,-4.900,0.560
1743436973.9526193,-0.455,0.700,0.576,0.210,-3.430,0.280
1743436973.9726193,-0.453,0.703,0.573,-1.330,-2.450,0.280
1743436973.9926193,-0.464,0.691,0.567,-0.980,-1.890,-0.560
1743436974.0126193,-0.460,0.695,0.567,-3.850,-3.500,0.420
1743436974.0326192,-0.463,0.691,0.565,0.350,-4.200,0.350
1743436974.0526192,-0.456,0.691,0.563,0.840,-3.850,0.000
1743436974.0726192,-0.453,0.694,0.566,1.400,-3.360,-0.350
1743436974.0926192,-0.456,0.697,0.569,1.470,-2.450,-0.700
1743436974.1126192,-0.458,0.700,0.574,1.400,-1.960,-0.910
1743436974.1326191,-0.460,0.703,0.577,1.400,-1.120,-1.050
1743436974.1526191,-0.460,0.709,0.579,0.840,0.000,-0.910
1743436974.172619,-0.465,0.701,0.571,1.540,0.420,-1.120
1743436974.192619,-0.462,0.700,0.568,0.350,0.770,-1.190
1743436974.212619,-0.460,0.696,0.568,0.910,0.910,-1.190
1743436974.232619,-0.464,0.697,0.564,2.030,0.560,-1.260
1743436974.252619,-0.460,0.701,0.566,2.450,1.050,-1.400
1743436974.272619,-0.460,0.697,0.568,3.080,1.400,-1.750
1743436974.292619,-0.464,0.699,0.567,2.310,1.750,-2.100
1743436974.312619,-0.465,0.702,0.563,1.960,1.190,-2.100
1743436974.332619,-0.467,0.701,0.563,1.330,0.000,-2.170
1743436974.352619,-0.469,0.699,0.566,0.140,-1.050,-1.540
1743436974.372619,-0.472,0.683,0.558,-1.190,-5.810,1.470
1743436974.392619,-0.474,0.707,0.561,-3.010,-9.940,3.220
1743436974.4126189,-0.477,0.698,0.559,0.000,-12.110,2.730
1743436974.4326189,-0.460,0.710,0.569,-0.280,-9.030,2.240
1743436974.4526188,-0.451,0.705,0.573,-1.890,-4.690,0.840
1743436974.4726188,-0.454,0.699,0.569,-3.010,-3.080,0.420
1743436974.4926188,-0.461,0.700,0.569,-1.960,-3.430,0.210
1743436974.5126188,-0.458,0.706,0.572,-0.140,-4.690,0.140
1743436974.5326188,-0.455,0.703,0.580,0.840,-2.590,-0.280
1743436974.5526187,-0.452,0.698,0.576,-0.210,-0.910,-0.770
1743436974.5726187,-0.456,0.695,0.574,-0.210,-0.140,-0.980
1743436974.5926187,-0.463,0.693,0.573,1.050,-0.420,-0.980
1743436974.6126187,-0.460,0.695,0.571,1.820,-0.140,-1.120
1743436974.6326187,-0.456,0.698,0.572,0.980,0.350,-1.330
1743436974.6526186,-0.460,0.695,0.568,1.400,0.350,-1.330
1743436974.6726186,-0.462,0.693,0.564,2.800,-0.210,-1.190
1743436974.6926186,-0.465,0.696,0.562,3.220,-0.630,-1.190
1743436974.7126186,-0.464,0.696,0.564,3.010,-0.560,-1.260
1743436974.7326186,-0.464,0.698,0.567,1.330,0.070,-1.330
1743436974.7526186,-0.467,0.705,0.569,-0.140,0.140,-1.120
1743436974.7726185,-0.470,0.704,0.569,-0.700,-0.840,-0.840
1743436974.7926185,-0.471,0.706,0.568,-0.630,-2.660,0.070
1743436974.8126185,-0.468,0.708,0.566,-0.350,-3.640,0.420
1743436974.8326185,-0.464,0.703,0.563,-0.560,-4.200,0.560
1743436974.8526185,-0.462,0.702,0.567,-0.210,-4.550,0.630
1743436974.8726184,-0.460,0.697,0.568,0.070,-5.180,0.630
1743436974.8926184,-0.459,0.697,0.568,0.560,-5.460,0.350
1743436974.9126184,-0.459,0.700,0.571,1.120,-4.760,0.210
1743436974.9326184,-0.459,0.701,0.573,0.420,-3.710,-0.140
1743436974.9526184,-0.460,0.705,0.577,-0.140,-2.870,-0.210
1743436974.9726183,-0.466,0.702,0.577,-0.350,-2.520,-0.490
1743436974.9926183,-0.460,0.697,0.576,-0.280,-2.170,-0.630
1743436975.0126183,-0.458,0.692,0.564,-0.350,-2.030,-0.980
1743436975.0326183,-0.454,0.691,0.560,-0.280,-1.680,-1.120
1743436975.0526183,-0.457,0.691,0.557,0.210,-1.470,-0.910
1743436975.0726182,-0.464,0.697,0.560,1.050,-1.400,-0.910
1743436975.0926182,-0.462,0.703,0.569,1.120,-1.330,-0.630
1743436975.1126182,-0.464,0.703,0.571,0.840,-1.330,-0.700
1743436975.1326182,-0.465,0.705,0.570,0.560,-1.190,-0.490
1743436975.1526182,-0.465,0.700,0.571,0.490,-1.540,-0.350
1743436975.1726182,-0.468,0.699,0.567,0.560,-2.240,-0.140
1743436975.1926181,-0.464,0.701,0.569,0.560,-2.590,-0.140
1743436975.212618,-0.464,0.699,0.568,0.420,-2.730,-0.140
1743436975.232618,-0.464,0.701,0.573,0.350,-2.940,-0.070
1743436975.252618,-0.465,0.703,0.571,0.350,-3.010,-0.140
1743436975.272618,-0.463,0.703,0.570,0.350,-3.080,-0.140
1743436975.292618,-0.464,0.700,0.566,0.350,-2.940,-0.210
1743436975.312618,-0.460,0.700,0.568,0.140,-2.940,-0.280
1743436975.332618,-0.460,0.698,0.566,0.350,-3.010,-0.350
1743436975.352618,-0.460,0.700,0.566,0.350,-3.010,-0.420
1743436975.372618,-0.458,0.700,0.569,0.280,-2.800,-0.420
1743436975.392618,-0.457,0.697,0.568,0.420,-2.660,-0.560
1743436975.412618,-0.460,0.695,0.564,0.490,-2.310,-0.420
1743436975.432618,-0.460,0.698,0.566,0.630,-2.310,-0.280
1743436975.452618,-0.461,0.699,0.569,0.700,-2.240,-0.420
1743436975.4726179,-0.463,0.700,0.572,0.490,-2.100,-0.350
1743436975.4926178,-0.462,0.700,0.570,0.350,-2.100,-0.350
1743436975.5126178,-0.464,0.700,0.571,0.210,-2.100,-0.350
1743436975.5326178,-0.464,0.699,0.567,0.280,-2.030,-0.350
1743436975.5526178,-0.463,0.699,0.565,0.560,-2.100,-0.350
1743436975.5726178,-0.464,0.700,0.567,1.330,-1.680,-0.560
1743436975.5926178,-0.464,0.700,0.567,1.820,-1.680,-0.840
1743436975.6126177,-0.465,0.706,0.569,2.240,-0.980,-0.910
1743436975.6326177,-0.467,0.703,0.569,2.800,-0.140,-1.400
1743436975.6526177,-0.463,0.706,0.568,2.030,0.000,-1.470
1743436975.6726177,-0.463,0.704,0.566,1.750,0.000,-1.400
1743436975.6926177,-0.466,0.703,0.567,1.120,-0.070,-1.330
1743436975.7126176,-0.466,0.701,0.569,0.210,-0.630,-1.470
1743436975.7326176,-0.463,0.701,0.568,-0.910,-0.910,-0.910
1743436975.7526176,-0.463,0.699,0.565,-1.050,-1.680,-0.420
1743436975.7726176,-0.461,0.696,0.560,0.000,-2.520,-0.350
1743436975.7926176,-0.461,0.701,0.565,0.700,-2.800,-0.280
1743436975.8126175,-0.466,0.704,0.566,0.840,-2.450,-0.350
1743436975.8326175,-0.462,0.700,0.564,0.700,-2.520,-0.560
1743436975.8526175,-0.462,0.700,0.564,0.840,-2.310,-0.770
1743436975.8726175,-0.465,0.699,0.564,0.700,-1.750,-1.120
1743436975.8926175,-0.462,0.702,0.567,0.560,-1.190,-1.750
1743436975.9126174,-0.467,0.702,0.569,0.280,-0.350,-2.100
1743436975.9326174,-0.468,0.701,0.571,0.140,0.420,-2.730
1743436975.9526174,-0.468,0.703,0.568,0.070,1.190,-3.500
1743436975.9726174,-0.470,0.704,0.568,0.630,2.450,-4.410
1743436975.9926174,-0.468,0.701,0.569,1.470,3.500,-6.300
1743436976.0126173,-0.464,0.702,0.565,2.660,5.180,-8.260
1743436976.0326173,-0.468,0.702,0.562,3.640,7.070,-9.170
1743436976.0526173,-0.471,0.703,0.559,3.990,7.280,-8.540
1743436976.0726173,-0.476,0.699,0.555,3.850,5.180,-7.840
1743436976.0926173,-0.483,0.693,0.549,3.290,2.590,-6.720
1743436976.1126173,-0.483,0.690,0.553,2.870,-1.190,-4.550
1743436976.1326172,-0.481,0.684,0.551,2.100,-4.060,-2.660
1743436976.1526172,-0.477,0.684,0.554,0.770,-5.600,0.000
1743436976.1726172,-0.477,0.688,0.557,0.420,-6.370,2.660
1743436976.1926172,-0.479,0.695,0.564,0.070,-6.930,3.780
1743436976.2126172,-0.476,0.695,0.562,-0.070,-7.840,4.200
1743436976.2326171,-0.478,0.695,0.563,-0.070,-9.310,3.850
1743436976.2526171,-0.471,0.694,0.555,0.070,-10.150,3.360
1743436976.272617,-0.472,0.691,0.550,0.490,-10.640,3.220
1743436976.292617,-0.472,0.692,0.550,0.770,-10.640,3.710
1743436976.312617,-0.468,0.696,0.558,0.980,-9.940,4.480
1743436976.332617,-0.471,0.700,0.567,0.910,-8.400,4.900
1743436976.352617,-0.468,0.705,0.568,0.980,-5.880,4.690
1743436976.372617,-0.468,0.711,0.570,1.050,-3.290,1.890
1743436976.392617,-0.471,0.717,0.570,1.050,-0.980,-0.280
1743436976.412617,-0.472,0.715,0.566,0.070,-0.280,-2.240
1743436976.432617,-0.468,0.701,0.559,-0.140,-0.070,-2.730
1743436976.452617,-0.467,0.696,0.561,0.840,0.280,-3.080
1743436976.472617,-0.467,0.698,0.561,1.330,1.610,-2.520
1743436976.492617,-0.468,0.701,0.567,0.910,2.730,-2.240
1743436976.5126169,-0.473,0.702,0.567,0.350,2.520,-2.100
1743436976.5326169,-0.474,0.699,0.558,0.420,1.540,-1.960
1743436976.5526168,-0.474,0.701,0.555,1.050,0.070,-1.750
1743436976.5726168,-0.472,0.697,0.550,1.470,-0.910,-1.540
1743436976.5926168,-0.473,0.699,0.558,1.260,-1.540,-1.190
1743436976.6126168,-0.471,0.701,0.561,0.910,-1.820,-0.700
1743436976.6326168,-0.474,0.700,0.561,0.280,-2.380,-0.210
1743436976.6526167,-0.473,0.704,0.559,-0.350,-3.150,0.210
1743436976.6726167,-0.474,0.705,0.553,-0.490,-3.640,0.000
1743436976.6926167,-0.472,0.701,0.556,-0.280,-3.640,-0.280
1743436976.7126167,-0.473,0.700,0.560,-0.140,-3.500,-0.700
1743436976.7326167,-0.470,0.703,0.560,-0.280,-3.010,-0.910
1743436976.7526166,-0.474,0.701,0.560,-0.070,-2.450,-0.700
1743436976.7726166,-0.471,0.693,0.556,0.280,-2.170,-0.420
1743436976.7926166,-0.471,0.695,0.558,0.350,-2.310,-0.210
1743436976.8126166,-0.472,0.696,0.560,0.000,-2.940,0.000
1743436976.8326166,-0.473,0.696,0.560,-0.700,-4.060,0.420
1743436976.8526165,-0.478,0.697,0.558,-1.470,-6.580,1.120
1743436976.8726165,-0.476,0.696,0.559,-2.030,-9.380,3.150
1743436976.8926165,-0.474,0.693,0.559,-2.450,-12.110,4.270
1743436976.9126165,-0.467,0.694,0.560,-1.540,-12.670,5.600
1743436976.9326165,-0.460,0.699,0.566,-0.350,-10.220,5.110
1743436976.9526165,-0.458,0.713,0.574,-1.330,-5.670,1.190
1743436976.9726164,-0.465,0.721,0.575,-2.030,-3.080,0.420
1743436976.9926164,-0.467,0.692,0.567,-4.270,-3.220,0.910
1743436977.0126164,-0.462,0.683,0.557,-1.610,-5.460,1.050
1743436977.0326164,-0.462,0.689,0.560,0.070,-5.460,0.980
1743436977.0526164,-0.461,0.699,0.569,1.750,-4.340,0.350
1743436977.0726163,-0.464,0.705,0.576,0.210,-2.870,-0.210
1743436977.0926163,-0.464,0.700,0.576,-0.140,-1.890,-0.280
1743436977.1126163,-0.464,0.695,0.570,0.140,-1.890,-0.560
1743436977.1326163,-0.464,0.694,0.566,1.120,-2.170,-0.560
1743436977.1526163,-0.465,0.699,0.566,1.330,-1.750,-0.490
1743436977.1726162,-0.463,0.704,0.569,0.980,-0.560,-0.630
1743436977.1926162,-0.465,0.705,0.570,0.560,-0.210,-0.770
1743436977.2126162,-0.463,0.704,0.572,0.280,-0.070,-0.700
1743436977.2326162,-0.466,0.701,0.565,-0.070,-0.420,-0.630
1743436977.2526162,-0.464,0.700,0.563,-0.070,-1.330,-0.490
1743436977.2726161,-0.463,0.698,0.563,0.280,-1.820,-0.350
1743436977.2926161,-0.463,0.702,0.562,0.350,-2.240,-0.350
1743436977.312616,-0.465,0.701,0.566,0.420,-2.310,-0.350
1743436977.332616,-0.467,0.704,0.565,0.420,-2.730,-0.210
1743436977.352616,-0.467,0.702,0.566,0.490,-3.290,-0.140
1743436977.372616,-0.466,0.702,0.567,0.280,-3.360,-0.210
1743436977.392616,-0.465,0.703,0.567,0.070,-3.360,-0.210
1743436977.412616,-0.463,0.699,0.569,-0.140,-3.220,-0.350
1743436977.432616,-0.462,0.698,0.570,-0.210,-3.290,-0.420
1743436977.452616,-0.460,0.699,0.569,-0.140,-3.150,-0.420
1743436977.472616,-0.463,0.699,0.569,-0.210,-2.590,-0.420
1743436977.492616,-0.465,0.700,0.571,0.000,-2.450,-0.420
1743436977.512616,-0.468,0.701,0.574,0.140,-2.590,-0.350
1743436977.532616,-0.463,0.700,0.572,0.210,-2.520,-0.420
1743436977.552616,-0.460,0.695,0.569,0.070,-1.960,-0.490
1743436977.5726159,-0.458,0.694,0.560,0.210,-1.610,-0.770
1743436977.5926158,-0.464,0.694,0.562,0.490,-1.540,-0.770
1743436977.6126158,-0.463,0.697,0.561,0.770,-1.610,-0.630
1743436977.6326158,-0.467,0.702,0.569,0.490,-1.610,-0.630
1743436977.6526158,-0.467,0.704,0.572,0.210,-1.470,-0.490
1743436977.6726158,-0.468,0.704,0.570,0.000,-1.540,-0.490
1743436977.6926157,-0.469,0.702,0.570,-0.140,-1.680,-0.490
1743436977.7126157,-0.464,0.697,0.566,-0.280,-2.170,-0.490
1743436977.7326157,-0.466,0.696,0.566,-0.210,-2.520,-0.350
1743436977.7526157,-0.464,0.696,0.565,-0.070,-2.660,-0.280
1743436977.7726157,-0.463,0.696,0.566,0.140,-2.940,-0.350
1743436977.7926157,-0.462,0.696,0.569,0.630,-3.150,-0.140
1743436977.8126156,-0.464,0.700,0.569,0.770,-3.080,-0.280
1743436977.8326156,-0.462,0.697,0.569,0.560,-2.590,-0.280
1743436977.8526156,-0.463,0.699,0.567,0.560,-2.380,-0.210
1743436977.8726156,-0.462,0.697,0.567,0.630,-2.310,-0.280
1743436977.8926156,-0.461,0.698,0.569,0.770,-2.310,-0.140
1743436977.9126155,-0.462,0.699,0.571,0.700,-2.590,-0.210
1743436977.9326155,-0.464,0.701,0.567,0.770,-2.170,-0.420
1743436977.9526155,-0.464,0.697,0.568,0.490,-2.030,-0.420
1743436977.9726155,-0.468,0.701,0.564,0.560,-1.960,-0.420
1743436977.9926155,-0.468,0.701,0.569,0.630,-2.170,-0.490
1743436978.0126154,-0.467,0.704,0.569,0.490,-1.960,-0.560
1743436978.0326154,-0.463,0.702,0.569,0.280,-2.100,-0.490
1743436978.0526154,-0.465,0.701,0.569,0.070,-2.170,-0.420
1743436978.0726154,-0.468,0.698,0.565,0.280,-2.240,-0.490
1743436978.0926154,-0.467,0.697,0.564,0.630,-2.450,-0.420
1743436978.1126153,-0.463,0.699,0.565,0.770,-2.450,-0.420
1743436978.1326153,-0.465,0.700,0.569,0.490,-2.100,-0.560
1743436978.1526153,-0.465,0.701,0.569,0.350,-2.100,-0.490
1743436978.1726153,-0.465,0.699,0.569,0.140,-2.030,-0.420
1743436978.1926153,-0.467,0.701,0.567,0.000,-2.310,-0.280
1743436978.2126153,-0.466,0.698,0.570,-0.210,-2.310,-0.420
1743436978.2326152,-0.462,0.700,0.567,-0.210,-2.170,-0.350
1743436978.2526152,-0.464,0.703,0.569,-0.210,-2.240,-0.420
1743436978.2726152,-0.466,0.698,0.567,-0.070,-2.450,-0.420
1743436978.2926152,-0.464,0.698,0.567,0.070,-2.590,-0.420
1743436978.3126152,-0.463,0.696,0.566,0.140,-2.450,-0.560
1743436978.3326151,-0.465,0.698,0.565,0.210,-2.310,-0.490
1743436978.352615,-0.462,0.698,0.567,0.140,-2.170,-0.420
1743436978.372615,-0.462,0.697,0.569,0.210,-2.170,-0.490
1743436978.392615,-0.464,0.698,0.569,0.210,-2.380,-0.560
1743436978.412615,-0.465,0.700,0.571,0.140,-2.240,-0.560
1743436978.432615,-0.463,0.697,0.569,-0.140,-2.030,-0.560
1743436978.452615,-0.465,0.697,0.567,0.000,-2.100,-0.560
1743436978.472615,-0.464,0.696,0.567,0.210,-2.170,-0.420
1743436978.492615,-0.464,0.697,0.568,0.140,-2.170,-0.420
1743436978.512615,-0.463,0.697,0.567,0.280,-2.310,-0.420
1743436978.532615,-0.464,0.696,0.568,0.210,-2.380,-0.350
1743436978.552615,-0.464,0.698,0.565,0.420,-2.450,-0.350
1743436978.572615,-0.465,0.697,0.566,0.630,-2.520,-0.280
1743436978.592615,-0.464,0.696,0.567,0.630,-2.240,-0.350
1743436978.6126149,-0.466,0.699,0.570,0.560,-2.240,-0.280
1743436978.6326149,-0.469,0.698,0.569,0.490,-2.380,-0.210
1743436978.6526148,-0.465,0.699,0.568,0.490,-2.520,-0.280
1743436978.6726148,-0.466,0.699,0.566,0.350,-2.590,-0.210
1743436978.6926148,-0.465,0.699,0.568,0.350,-2.590,-0.350
1743436978.7126148,-0.463,0.698,0.570,0.280,-2.520,-0.350
1743436978.7326148,-0.463,0.697,0.568,0.420,-2.520,-0.350
1743436978.7526147,-0.465,0.695,0.569,0.490,-2.450,-0.350
1743436978.7726147,-0.465,0.699,0.568,0.700,-2.520,-0.280
1743436978.7926147,-0.464,0.699,0.571,0.630,-2.590,-0.280
1743436978.8126147,-0.464,0.700,0.568,0.560,-2.450,-0.350
1743436978.8326147,-0.465,0.698,0.565,0.560,-2.310,-0.490
1743436978.8526146,-0.464,0.696,0.565,0.560,-2.030,-0.490
1743436978.8726146,-0.464,0.696,0.562,0.770,-2.240,-0.420
1743436978.8926146,-0.465,0.698,0.563,0.840,-2.450,-0.420
1743436978.9126146,-0.466,0.699,0.569,0.770,-2.380,-0.350
1743436978.9326146,-0.470,0.701,0.569,0.420,-2.380,-0.350
1743436978.9526145,-0.468,0.701,0.569,0.350,-2.380,-0.350
1743436978.9726145,-0.469,0.702,0.569,0.350,-2.240,-0.560
1743436978.9926145,-0.466,0.700,0.568,-0.560,-2.100,-0.490
1743436979.0126145,-0.468,0.695,0.561,0.770,-2.520,-0.420
1743436979.0326145,-0.467,0.700,0.568,0.700,-2.520,-0.350
1743436979.0526145,-0.463,0.698,0.568,0.350,-2.870,-0.420
1743436979.0726144,-0.463,0.696,0.567,0.490,-2.870,-0.350
1743436979.0926144,-0.461,0.695,0.567,0.490,-2.730,-0.490
1743436979.1126144,-0.460,0.698,0.568,0.140,-2.520,-0.420
1743436979.1326144,-0.461,0.700,0.570,-0.490,-2.380,-0.350
1743436979.1526144,-0.461,0.698,0.570,-0.700,-2.520,-0.280
1743436979.1726143,-0.464,0.702,0.568,-0.560,-3.150,-0.070
1743436979.1926143,-0.463,0.700,0.566,-0.420,-3.500,0.070
1743436979.2126143,-0.463,0.699,0.566,-0.140,-3.780,0.280
1743436979.2326143,-0.466,0.698,0.563,0.140,-4.200,0.280
1743436979.2526143,-0.465,0.696,0.565,0.840,-4.340,0.140
1743436979.2726142,-0.463,0.700,0.568,0.490,-4.060,0.280
1743436979.2926142,-0.463,0.697,0.570,0.490,-4.130,0.140
1743436979.3126142,-0.463,0.696,0.571,0.210,-3.990,0.140
1743436979.3326142,-0.462,0.702,0.575,-0.210,-3.290,0.070
1743436979.3526142,-0.466,0.697,0.574,0.490,-3.150,0.000
1743436979.3726141,-0.465,0.699,0.572,-0.210,-3.570,0.210
1743436979.3926141,-0.466,0.696,0.568,-0.770,-3.570,0.350
1743436979.412614,-0.462,0.695,0.566,-0.630,-3.360,0.210
1743436979.432614,-0.464,0.694,0.567,-0.560,-3.080,0.210
1743436979.452614,-0.462,0.697,0.567,-0.560,-2.940,0.140
1743436979.472614,-0.462,0.700,0.572,-0.350,-3.220,0.280
1743436979.492614,-0.463,0.700,0.569,-0.210,-3.430,0.350
1743436979.512614,-0.460,0.701,0.570,0.000,-3.430,0.140
1743436979.532614,-0.461,0.700,0.569,0.070,-3.220,0.070
1743436979.552614,-0.461,0.701,0.572,0.140,-2.800,0.000
1743436979.572614,-0.461,0.701,0.574,0.350,-2.730,-0.070
1743436979.592614,-0.463,0.700,0.575,0.280,-2.800,-0.140
1743436979.612614,-0.461,0.697,0.575,0.350,-2.520,-0.280
1743436979.632614,-0.458,0.698,0.572,0.140,-2.660,-0.210
1743436979.6526139,-0.458,0.698,0.571,0.000,-2.800,-0.210
1743436979.6726139,-0.460,0.697,0.572,-0.210,-2.660,-0.350
1743436979.6926138,-0.457,0.700,0.573,-0.980,-2.660,-0.280
1743436979.7126138,-0.454,0.698,0.572,-0.490,-2.100,-0.350
1743436979.7326138,-0.460,0.691,0.567,0.770,-2.940,-0.210
1743436979.7526138,-0.458,0.696,0.569,0.910,-2.800,0.560
1743436979.7726138,-0.457,0.696,0.570,1.680,-3.080,-0.630
1743436979.7926137,-0.462,0.703,0.571,1.610,-2.730,-0.420
1743436979.8126137,-0.459,0.696,0.573,0.630,-1.750,-0.770
1743436979.8326137,-0.455,0.695,0.570,1.190,-1.260,-1.050
1743436979.8526137,-0.462,0.702,0.569,1.470,-0.630,-1.120
1743436979.8726137,-0.463,0.704,0.573,1.680,0.210,-1.260
1743436979.8926136,-0.463,0.706,0.574,1.050,0.280,-1.400
1743436979.9126136,-0.463,0.708,0.577,0.350,1.330,-1.330
1743436979.9326136,-0.461,0.704,0.572,0.420,1.820,-1.400
1743436979.9526136,-0.466,0.698,0.568,1.330,1.470,-1.610
1743436979.9726136,-0.465,0.695,0.567,1.260,1.260,-1.820
1743436979.9926136,-0.463,0.692,0.570,2.520,0.770,-1.820
1743436980.0126135,-0.462,0.694,0.567,2.800,0.140,-2.030
1743436980.0326135,-0.465,0.704,0.567,1.400,0.280,-2.030
1743436980.0526135,-0.468,0.703,0.565,0.560,0.140,-1.960
1743436980.0726135,-0.469,0.706,0.565,0.210,-0.280,-1.680
1743436980.0926135,-0.466,0.706,0.564,-0.070,-0.770,-0.980
1743436980.1126134,-0.464,0.694,0.566,-0.140,-2.030,-0.210
1743436980.1326134,-0.464,0.696,0.564,0.210,-3.220,-0.070
1743436980.1526134,-0.465,0.698,0.563,-0.210,-3.780,0.210
1743436980.1726134,-0.465,0.694,0.565,-0.210,-4.620,0.630
1743436980.1926134,-0.468,0.694,0.563,0.140,-6.090,1.120
1743436980.2126133,-0.470,0.694,0.568,1.400,-7.000,1.470
1743436980.2326133,-0.466,0.698,0.571,1.680,-7.140,1.190
1743436980.2526133,-0.463,0.701,0.575,1.190,-5.880,0.630
1743436980.2726133,-0.460,0.698,0.577,0.070,-4.620,0.210
1743436980.2926133,-0.463,0.696,0.571,-0.350,-4.200,-0.140
1743436980.3126132,-0.459,0.698,0.571,-0.560,-3.500,-0.280
1743436980.3326132,-0.459,0.699,0.569,-0.560,-2.870,-0.280
1743436980.3526132,-0.458,0.702,0.568,-0.490,-2.170,-0.350
1743436980.3726132,-0.460,0.700,0.566,-0.140,-1.540,-0.420
1743436980.3926132,-0.460,0.700,0.566,0.210,-1.260,-0.350
1743436980.4126132,-0.460,0.698,0.563,0.770,-1.190,-0.420
1743436980.4326131,-0.457,0.694,0.564,1.190,-0.840,-0.630
1743436980.452613,-0.460,0.696,0.568,1.190,-0.770,-0.630
1743436980.472613,-0.462,0.697,0.569,1.330,-1.050,-0.560
1743436980.492613,-0.465,0.698,0.572,1.470,-1.750,-0.700
1743436980.512613,-0.464,0.701,0.569,1.190,-2.030,-0.560
1743436980.532613,-0.468,0.704,0.570,0.560,-2.030,-0.630
1743436980.552613,-0.467,0.701,0.567,0.280,-2.170,-0.560
1743436980.572613,-0.467,0.701,0.571,0.210,-2.590,-0.420
1743436980.592613,-0.465,0.699,0.570,0.070,-3.220,-0.280
1743436980.612613,-0.460,0.700,0.569,-0.140,-3.430,-0.280
1743436980.632613,-0.460,0.698,0.569,0.000,-3.430,-0.210
1743436980.652613,-0.462,0.698,0.565,0.070,-3.430,-0.140
1743436980.672613,-0.462,0.698,0.566,0.630,-3.360,-0.070
1743436980.692613,-0.464,0.698,0.567,0.770,-3.150,-0.210
1743436980.7126129,-0.463,0.701,0.565,0.630,-2.730,-0.070
1743436980.7326128,-0.463,0.699,0.569,0.560,-2.450,-0.210
1743436980.7526128,-0.463,0.697,0.572,0.420,-2.240,-0.280
1743436980.7726128,-0.461,0.699,0.569,0.490,-1.960,-0.350
1743436980.7926128,-0.460,0.701,0.568,0.280,-1.820,-0.490
1743436980.8126128,-0.462,0.701,0.571,0.140,-1.750,-0.560
1743436980.8326128,-0.462,0.700,0.569,0.000,-1.820,-0.630
1743436980.8526127,-0.461,0.701,0.569,0.000,-2.100,-0.560
1743436980.8726127,-0.463,0.700,0.568,0.210,-2.380,-0.490
1743436980.8926127,-0.465,0.699,0.568,0.280,-2.520,-0.560
1743436980.9126127,-0.461,0.698,0.567,0.210,-2.660,-0.630
1743436980.9326127,-0.461,0.698,0.566,0.210,-2.590,-0.560
1743436980.9526126,-0.463,0.699,0.568,0.140,-2.800,-0.560
1743436980.9726126,-0.463,0.697,0.570,0.210,-2.800,-0.490
1743436980.9926126,-0.464,0.697,0.573,0.070,-2.590,-0.420
1743436981.0126126,-0.461,0.698,0.567,0.000,-2.450,-0.350
1743436981.0326126,-0.464,0.698,0.564,0.350,-2.450,-0.350
1743436981.0526125,-0.459,0.697,0.568,0.700,-2.450,-0.490
1743436981.0726125,-0.462,0.697,0.569,0.770,-2.030,-0.350
1743436981.0926125,-0.460,0.699,0.572,0.910,-2.100,-0.560
1743436981.1126125,-0.461,0.700,0.573,0.910,-1.960,-0.420
1743436981.1326125,-0.463,0.699,0.570,0.770,-1.960,-0.350
1743436981.1526124,-0.463,0.700,0.565,0.840,-1.890,-0.420
1743436981.1726124,-0.463,0.700,0.567,0.770,-1.750,-0.560
1743436981.1926124,-0.466,0.701,0.569,0.560,-1.890,-0.490
1743436981.2126124,-0.465,0.700,0.565,0.490,-2.030,-0.420
1743436981.2326124,-0.464,0.701,0.565,0.280,-2.310,-0.420
1743436981.2526124,-0.462,0.699,0.566,0.350,-2.590,-0.490
1743436981.2726123,-0.462,0.699,0.568,0.210,-2.730,-0.280
1743436981.2926123,-0.462,0.698,0.568,0.210,-2.870,-0.280
1743436981.3126123,-0.460,0.697,0.565,0.280,-2.730,-0.350
1743436981.3326123,-0.464,0.698,0.566,0.420,-2.730,-0.280
1743436981.3526123,-0.465,0.700,0.570,0.770,-2.800,-0.140
1743436981.3726122,-0.463,0.700,0.574,0.980,-2.870,-0.210
1743436981.3926122,-0.459,0.701,0.571,0.420,-2.450,-0.350
1743436981.4126122,-0.460,0.697,0.566,0.140,-1.890,-0.560
1743436981.4326122,-0.461,0.692,0.562,0.280,-1.820,-0.700
1743436981.4526122,-0.463,0.695,0.564,0.490,-1.960,-0.490
1743436981.4726121,-0.464,0.701,0.569,0.700,-2.380,-0.560
1743436981.4926121,-0.463,0.702,0.570,0.560,-2.450,-0.350
1743436981.512612,-0.463,0.703,0.572,0.210,-2.240,-0.490
1743436981.532612,-0.464,0.702,0.568,-0.070,-2.310,-0.350
1743436981.552612,-0.464,0.702,0.565,-0.140,-2.310,-0.350
1743436981.572612,-0.464,0.702,0.568,-0.140,-2.520,-0.420
1743436981.592612,-0.463,0.699,0.566,-0.420,-2.590,-0.350
1743436981.612612,-0.460,0.698,0.567,-0.350,-2.870,-0.210
1743436981.632612,-0.459,0.696,0.567,-0.070,-3.150,-0.210
1743436981.652612,-0.460,0.695,0.568,0.210,-3.220,-0.280
1743436981.672612,-0.462,0.698,0.573,0.490,-3.010,-0.210
1743436981.692612,-0.459,0.699,0.572,0.560,-2.660,-0.280
1743436981.712612,-0.459,0.699,0.569,0.490,-2.380,-0.420
1743436981.732612,-0.460,0.697,0.566,0.420,-2.100,-0.420
1743436981.7526119,-0.460,0.696,0.567,0.490,-2.170,-0.420
1743436981.7726119,-0.460,0.698,0.570,0.560,-2.170,-0.490
1743436981.7926118,-0.461,0.701,0.570,0.490,-2.170,-0.490
1743436981.8126118,-0.462,0.701,0.568,0.350,-2.100,-0.560
1743436981.8326118,-0.461,0.699,0.570,0.420,-2.240,-0.560
1743436981.8526118,-0.463,0.697,0.565,0.630,-2.240,-0.420
1743436981.8726118,-0.464,0.699,0.569,0.630,-2.380,-0.280
1743436981.8926117,-0.464,0.698,0.570,0.560,-2.520,-0.350
1743436981.9126117,-0.465,0.701,0.569,0.350,-2.520,-0.420
1743436981.9326117,-0.462,0.699,0.568,0.280,-2.520,-0.420
1743436981.9526117,-0.461,0.698,0.567,0.490,-2.590,-0.350
1743436981.9726117,-0.464,0.697,0.567,0.560,-2.590,-0.280
1743436981.9926116,-0.461,0.700,0.568,0.630,-2.590,-0.280
1743436982.0126116,-0.462,0.701,0.570,0.350,-2.310,-0.350
1743436982.0326116,-0.464,0.700,0.572,0.350,-2.240,-0.210
1743436982.0526116,-0.465,0.701,0.570,0.350,-2.310,-0.350
1743436982.0726116,-0.462,0.701,0.569,0.350,-2.520,-0.280
1743436982.0926116,-0.462,0.701,0.569,0.350,-2.240,-0.280
1743436982.1126115,-0.463,0.699,0.568,0.070,-2.240,-0.350
1743436982.1326115,-0.460,0.700,0.570,0.280,-2.520,-0.350
1743436982.1526115,-0.464,0.701,0.570,0.490,-2.730,-0.350
1743436982.1726115,-0.461,0.697,0.571,0.420,-2.590,-0.350
1743436982.1926115,-0.461,0.699,0.566,0.490,-2.590,-0.420
1743436982.2126114,-0.461,0.699,0.569,0.420,-2.380,-0.350
1743436982.2326114,-0.459,0.697,0.567,0.420,-2.450,-0.350
1743436982.2526114,-0.461,0.696,0.568,0.490,-2.310,-0.420
1743436982.2726114,-0.465,0.700,0.568,0.420,-2.310,-0.420
1743436982.2926114,-0.461,0.700,0.568,0.140,-2.380,-0.490
1743436982.3126113,-0.462,0.700,0.569,0.210,-2.380,-0.420
1743436982.3326113,-0.462,0.700,0.570,0.280,-2.310,-0.350
1743436982.3526113,-0.460,0.699,0.566,0.350,-2.310,-0.420
1743436982.3726113,-0.464,0.699,0.567,0.490,-2.310,-0.490
1743436982.3926113,-0.464,0.701,0.569,0.490,-2.450,-0.350
1743436982.4126112,-0.465,0.699,0.569,0.420,-2.590,-0.350
1743436982.4326112,-0.462,0.698,0.571,0.350,-2.450,-0.350
1743436982.4526112,-0.462,0.698,0.571,0.210,-2.450,-0.490
1743436982.4726112,-0.461,0.700,0.569,0.140,-2.310,-0.350
1743436982.4926112,-0.462,0.698,0.567,0.280,-2.380,-0.420
1743436982.5126112,-0.461,0.698,0.567,0.560,-2.450,-0.420
1743436982.5326111,-0.461,0.698,0.569,0.560,-2.450,-0.350
1743436982.552611,-0.462,0.700,0.569,0.350,-2.310,-0.350
1743436982.572611,-0.464,0.701,0.566,0.350,-2.240,-0.350
1743436982.592611,-0.462,0.698,0.567,0.630,-2.520,-0.280
1743436982.612611,-0.461,0.698,0.569,0.700,-2.660,-0.350
1743436982.632611,-0.463,0.698,0.572,0.560,-2.590,-0.350
1743436982.652611,-0.461,0.698,0.574,0.420,-2.380,-0.420
1743436982.672611,-0.463,0.700,0.567,0.280,-2.170,-0.420
1743436982.692611,-0.462,0.700,0.569,0.420,-2.380,-0.490
1743436982.712611,-0.465,0.701,0.569,0.630,-2.380,-0.210
1743436982.732611,-0.464,0.701,0.570,0.770,-2.660,-0.210
1743436982.752611,-0.461,0.700,0.571,0.420,-2.450,-0.420
1743436982.772611,-0.457,0.696,0.567,0.420,-2.240,-0.560
1743436982.792611,-0.461,0.693,0.564,0.420,-2.030,-0.630
1743436982.8126109,-0.463,0.694,0.564,0.700,-2.170,-0.560
1743436982.8326108,-0.463,0.698,0.569,0.840,-2.310,-0.490
1743436982.8526108,-0.466,0.703,0.569,0.700,-2.240,-0.350
1743436982.8726108,-0.466,0.705,0.570,0.420,-2.310,-0.280
1743436982.8926108,-0.466,0.702,0.568,0.140,-2.170,-0.350
1743436982.9126108,-0.466,0.702,0.568,0.140,-2.310,-0.350
1743436982.9326108,-0.464,0.700,0.571,0.070,-2.380,-0.280
1743436982.9526107,-0.461,0.698,0.568,0.000,-2.590,-0.280
1743436982.9726107,-0.461,0.696,0.568,0.070,-2.590,-0.210
1743436982.9926107,-0.461,0.696,0.566,0.000,-2.730,-0.280
1743436983.0126107,-0.462,0.699,0.569,0.280,-2.800,-0.210
1743436983.0326107,-0.463,0.697,0.569,0.630,-2.660,-0.420
1743436983.0526106,-0.462,0.700,0.569,0.630,-2.450,-0.420
1743436983.0726106,-0.461,0.699,0.572,0.490,-2.170,-0.420
1743436983.0926106,-0.458,0.701,0.570,0.420,-2.170,-0.490
1743436983.1126106,-0.461,0.695,0.569,0.560,-2.310,-0.350
1743436983.1326106,-0.462,0.698,0.569,0.700,-2.380,-0.420
1743436983.1526105,-0.460,0.698,0.569,0.700,-2.310,-0.350
1743436983.1726105,-0.462,0.700,0.571,0.560,-2.170,-0.490
1743436983.1926105,-0.461,0.700,0.565,0.490,-2.170,-0.490
1743436983.2126105,-0.463,0.700,0.568,0.490,-2.100,-0.350
1743436983.2326105,-0.464,0.700,0.569,0.490,-2.240,-0.420
1743436983.2526104,-0.463,0.702,0.571,0.490,-2.520,-0.280
1743436983.2726104,-0.461,0.702,0.569,0.420,-2.590,-0.420
1743436983.2926104,-0.462,0.701,0.566,0.140,-2.380,-0.490
1743436983.3126104,-0.463,0.699,0.566,0.280,-2.380,-0.560
1743436983.3326104,-0.462,0.697,0.569,0.350,-2.450,-0.350
1743436983.3526103,-0.464,0.698,0.568,0.490,-2.380,-0.350
1743436983.3726103,-0.463,0.700,0.570,0.350,-2.380,-0.420
1743436983.3926103,-0.463,0.702,0.569,0.280,-2.310,-0.350
1743436983.4126103,-0.462,0.701,0.570,0.280,-2.310,-0.280
1743436983.4326103,-0.462,0.702,0.569,0.490,-2.310,-0.350
1743436983.4526103,-0.463,0.701,0.568,0.420,-2.310,-0.420
1743436983.4726102,-0.463,0.697,0.566,0.280,-2.240,-0.350
1743436983.4926102,-0.461,0.701,0.570,0.210,-2.310,-0.420
1743436983.5126102,-0.462,0.699,0.570,0.280,-2.380,-0.280
1743436983.5326102,-0.460,0.701,0.569,0.280,-2.520,-0.350
1743436983.5526102,-0.460,0.701,0.569,0.140,-2.380,-0.420
1743436983.5726101,-0.462,0.699,0.567,0.280,-2.310,-0.420
1743436983.5926101,-0.459,0.699,0.567,0.280,-2.240,-0.490
1743436983.61261,-0.460,0.697,0.567,0.350,-2.310,-0.490
1743436983.63261,-0.463,0.699,0.568,0.280,-2.310,-0.560
1743436983.65261,-0.464,0.700,0.568,0.350,-2.380,-0.490
1743436983.67261,-0.462,0.700,0.568,0.350,-2.240,-0.560
1743436983.69261,-0.463,0.700,0.569,0.280,-2.240,-0.420
1743436983.71261,-0.464,0.700,0.570,0.350,-2.170,-0.420
1743436983.73261,-0.464,0.699,0.569,0.280,-2.170,-0.490
1743436983.75261,-0.463,0.699,0.566,0.210,-2.170,-0.420
1743436983.77261,-0.462,0.698,0.569,0.280,-2.240,-0.490
1743436983.79261,-0.461,0.699,0.567,0.560,-2.380,-0.350
1743436983.81261,-0.464,0.700,0.569,0.420,-2.590,-0.280
1743436983.83261,-0.462,0.700,0.571,0.420,-2.450,-0.350
1743436983.8526099,-0.463,0.699,0.571,0.280,-2.240,-0.490
1743436983.8726099,-0.462,0.701,0.569,0.280,-2.380,-0.350
1743436983.8926098,-0.463,0.698,0.568,0.560,-2.380,-0.350
1743436983.9126098,-0.462,0.699,0.568,0.350,-2.380,-0.420
1743436983.9326098,-0.463,0.700,0.568,0.210,-2.450,-0.350
1743436983.9526098,-0.462,0.699,0.566,0.210,-2.520,-0.420
1743436983.9726098,-0.464,0.700,0.569,0.350,-2.590,-0.280
1743436983.9926097,-0.463,0.701,0.568,0.350,-2.590,-0.420
1743436984.0126097,-0.461,0.699,0.569,0.420,-2.660,-0.350
1743436984.0326097,-0.461,0.700,0.568,0.280,-2.590,-0.350
1743436984.0526097,-0.463,0.700,0.568,0.210,-2.520,-0.350
1743436984.0726097,-0.464,0.697,0.568,0.350,-2.380,-0.350
1743436984.0926096,-0.464,0.698,0.570,0.560,-2.660,-0.280
1743436984.1126096,-0.463,0.701,0.573,0.630,-2.660,-0.280
1743436984.1326096,-0.463,0.702,0.573,0.560,-2.450,-0.280
1743436984.1526096,-0.461,0.700,0.568,0.420,-2.240,-0.490
1743436984.1726096,-0.459,0.696,0.563,0.420,-1.960,-0.700
1743436984.1926095,-0.463,0.695,0.566,0.560,-1.960,-0.560
1743436984.2126095,-0.463,0.696,0.565,0.560,-2.100,-0.490
1743436984.2326095,-0.465,0.701,0.571,0.560,-2.240,-0.420
1743436984.2526095,-0.467,0.706,0.571,0.420,-2.310,-0.350
1743436984.2726095,-0.465,0.702,0.572,0.280,-2.450,-0.350
1743436984.2926095,-0.462,0.701,0.569,0.070,-2.450,-0.350
1743436984.3126094,-0.464,0.700,0.569,0.000,-2.590,-0.280
1743436984.3326094,-0.461,0.699,0.567,-0.070,-2.660,-0.350
1743436984.3526094,-0.461,0.697,0.565,-0.070,-2.590,-0.350
1743436984.3726094,-0.459,0.697,0.567,0.000,-2.520,-0.350
1743436984.3926094,-0.461,0.696,0.570,0.210,-2.660,-0.350
1743436984.4126093,-0.460,0.699,0.569,0.490,-2.590,-0.350
1743436984.4326093,-0.463,0.699,0.570,0.420,-2.310,-0.420
1743436984.4526093,-0.456,0.697,0.569,0.420,-2.030,-0.490
1743436984.4726093,-0.460,0.698,0.568,0.420,-2.100,-0.420
1743436984.4926093,-0.461,0.698,0.568,0.630,-2.170,-0.420
1743436984.5126092,-0.459,0.699,0.569,0.700,-2.450,-0.490
1743436984.5326092,-0.462,0.699,0.569,0.560,-2.310,-0.560
1743436984.5526092,-0.463,0.701,0.567,0.490,-2.240,-0.560
1743436984.5726092,-0.464,0.701,0.569,0.420,-2.240,-0.560
1743436984.5926092,-0.464,0.700,0.571,0.490,-2.310,-0.420
1743436984.6126091,-0.463,0.700,0.571,0.350,-2.520,-0.420
1743436984.6326091,-0.460,0.698,0.569,0.350,-2.520,-0.420
1743436984.652609,-0.462,0.699,0.566,0.280,-2.660,-0.490
1743436984.672609,-0.466,0.699,0.565,0.350,-2.590,-0.420
1743436984.692609,-0.463,0.700,0.564,0.420,-2.450,-0.420
1743436984.712609,-0.463,0.697,0.568,0.560,-2.590,-0.210
1743436984.732609,-0.461,0.699,0.570,0.490,-2.380,-0.350
1743436984.752609,-0.463,0.700,0.572,0.210,-2.240,-0.280
1743436984.772609,-0.465,0.698,0.571,0.350,-2.380,-0.280
1743436984.792609,-0.464,0.700,0.573,0.210,-2.380,-0.210
1743436984.812609,-0.462,0.697,0.570,0.280,-2.310,-0.350
1743436984.832609,-0.462,0.697,0.567,0.070,-2.170,-0.350
1743436984.852609,-0.461,0.700,0.566,0.070,-2.240,-0.350
1743436984.872609,-0.462,0.697,0.567,0.070,-2.100,-0.490
1743436984.892609,-0.462,0.700,0.570,0.140,-2.380,-0.420
1743436984.9126089,-0.460,0.699,0.570,0.140,-2.240,-0.490
1743436984.9326088,-0.461,0.701,0.568,0.000,-2.030,-0.490
1743436984.9526088,-0.460,0.697,0.566,-0.070,-2.170,-0.490
1743436984.9726088,-0.459,0.696,0.566,0.490,-2.450,-0.490
1743436984.9926088,-0.461,0.696,0.566,0.840,-2.660,-0.420
1743436985.0126088,-0.463,0.698,0.567,0.840,-2.660,-0.420
1743436985.0326087,-0.460,0.702,0.574,0.630,-2.590,-0.490
1743436985.0526087,-0.463,0.699,0.571,0.490,-2.380,-0.420
1743436985.0726087,-0.464,0.699,0.564,0.280,-2.310,-0.350
1743436985.0926087,-0.461,0.699,0.567,0.280,-2.170,-0.280
1743436985.1126087,-0.463,0.699,0.565,0.350,-2.240,-0.280
1743436985.1326087,-0.464,0.698,0.570,0.490,-2.240,-0.210
1743436985.1526086,-0.461,0.699,0.571,0.490,-2.590,-0.280
1743436985.1726086,-0.462,0.698,0.570,0.490,-2.660,-0.280
1743436985.1926086,-0.461,0.698,0.569,0.420,-2.590,-0.280
1743436985.2126086,-0.463,0.699,0.567,0.560,-2.590,-0.350
1743436985.2326086,-0.462,0.698,0.569,0.630,-2.310,-0.420
1743436985.2526085,-0.462,0.699,0.570,0.490,-2.310,-0.420
1743436985.2726085,-0.463,0.698,0.568,0.350,-2.380,-0.350
1743436985.2926085,-0.463,0.699,0.566,0.420,-2.310,-0.350
1743436985.3126085,-0.460,0.696,0.566,0.560,-2.450,-0.350
1743436985.3326085,-0.462,0.698,0.569,0.560,-2.590,-0.350
1743436985.3526084,-0.461,0.700,0.567,0.560,-2.520,-0.420
1743436985.3726084,-0.462,0.699,0.569,0.700,-2.590,-0.420
1743436985.3926084,-0.459,0.697,0.570,0.770,-2.590,-0.420
1743436985.4126084,-0.463,0.699,0.570,0.700,-2.380,-0.280
1743436985.4326084,-0.463,0.701,0.572,0.770,-2.520,-0.210
1743436985.4526083,-0.462,0.704,0.570,0.560,-2.450,-0.350
1743436985.4726083,-0.462,0.698,0.568,0.490,-2.310,-0.420
1743436985.4926083,-0.460,0.697,0.566,0.700,-2.520,-0.420
1743436985.5126083,-0.461,0.697,0.565,0.630,-2.380,-0.560
1743436985.5326083,-0.463,0.700,0.565,0.630,-2.520,-0.420
1743436985.5526083,-0.464,0.701,0.565,0.630,-2.240,-0.420
1743436985.5726082,-0.464,0.702,0.567,0.420,-2.310,-0.350
1743436985.5926082,-0.466,0.702,0.568,0.350,-2.520,-0.280
1743436985.6126082,-0.465,0.701,0.569,0.420,-2.730,-0.350
1743436985.6326082,-0.464,0.700,0.569,0.070,-2.660,-0.280
1743436985.6526082,-0.464,0.698,0.568,-0.070,-2.590,-0.280
1743436985.6726081,-0.459,0.696,0.568,0.000,-2.590,-0.350
1743436985.692608,-0.463,0.697,0.569,0.070,-2.730,-0.280
1743436985.712608,-0.462,0.698,0.570,0.280,-2.730,-0.350
1743436985.732608,-0.461,0.698,0.570,0.350,-2.660,-0.350
1743436985.752608,-0.461,0.699,0.569,0.420,-2.520,-0.420
1743436985.772608,-0.458,0.700,0.570,0.560,-2.520,-0.280
1743436985.792608,-0.459,0.698,0.569,0.700,-2.310,-0.420
1743436985.812608,-0.458,0.699,0.569,0.630,-2.240,-0.420
1743436985.832608,-0.460,0.698,0.569,0.770,-2.100,-0.490
1743436985.852608,-0.460,0.699,0.569,0.630,-2.380,-0.490
1743436985.872608,-0.461,0.700,0.567,0.630,-2.380,-0.560
1743436985.892608,-0.462,0.700,0.566,0.560,-2.240,-0.490
1743436985.912608,-0.461,0.700,0.567,0.630,-2.240,-0.420
1743436985.932608,-0.464,0.700,0.568,0.630,-2.170,-0.420
1743436985.9526079,-0.463,0.701,0.567,0.560,-2.450,-0.350
1743436985.9726079,-0.464,0.702,0.571,0.490,-2.520,-0.350
1743436985.9926078,-0.464,0.700,0.568,0.420,-2.660,-0.350
1743436986.0126078,-0.461,0.700,0.567,0.420,-2.730,-0.350
1743436986.0326078,-0.462,0.697,0.567,0.420,-2.380,-0.350
1743436986.0526078,-0.464,0.700,0.566,0.560,-2.380,-0.350
1743436986.0726078,-0.463,0.698,0.567,0.630,-2.520,-0.280
1743436986.0926077,-0.464,0.702,0.569,0.630,-2.450,-0.280
1743436986.1126077,-0.464,0.701,0.571,0.420,-2.450,-0.280
1743436986.1326077,-0.463,0.701,0.569,0.280,-2.380,-0.280
1743436986.1526077,-0.462,0.702,0.567,0.350,-2.520,-0.280
1743436986.1726077,-0.462,0.699,0.567,0.350,-2.590,-0.210
1743436986.1926076,-0.461,0.698,0.567,0.420,-2.660,-0.280
1743436986.2126076,-0.462,0.698,0.568,0.350,-2.590,-0.280
1743436986.2326076,-0.463,0.701,0.570,0.490,-2.590,-0.350
1743436986.2526076,-0.461,0.700,0.571,0.420,-2.590,-0.280
1743436986.2726076,-0.461,0.703,0.571,0.350,-2.450,-0.420
1743436986.2926075,-0.460,0.698,0.566,0.280,-2.380,-0.420
1743436986.3126075,-0.462,0.700,0.566,0.420,-2.310,-0.420
1743436986.3326075,-0.461,0.698,0.567,0.490,-2.310,-0.490
1743436986.3526075,-0.462,0.700,0.571,0.420,-2.100,-0.490
1743436986.3726075,-0.462,0.698,0.573,0.350,-2.170,-0.700
1743436986.3926075,-0.462,0.701,0.569,0.140,-2.310,-0.560
1743436986.4126074,-0.463,0.700,0.565,0.210,-2.240,-0.560
1743436986.4326074,-0.461,0.699,0.567,0.490,-2.100,-0.420
1743436986.4526074,-0.462,0.701,0.570,0.490,-2.170,-0.420
1743436986.4726074,-0.463,0.700,0.571,0.420,-2.380,-0.490
1743436986.4926074,-0.461,0.701,0.570,0.350,-2.380,-0.560
1743436986.5126073,-0.461,0.700,0.566,0.210,-2.520,-0.420
1743436986.5326073,-0.461,0.699,0.566,0.350,-2.380,-0.350
1743436986.5526073,-0.463,0.698,0.566,0.560,-2.380,-0.350
1743436986.5726073,-0.462,0.699,0.570,0.560,-2.380,-0.490
1743436986.5926073,-0.464,0.702,0.569,0.490,-2.380,-0.280
1743436986.6126072,-0.460,0.698,0.567,0.420,-2.310,-0.280
1743436986.6326072,-0.462,0.700,0.569,0.420,-2.590,-0.280
1743436986.6526072,-0.463,0.697,0.570,0.420,-2.590,-0.420
1743436986.6726072,-0.462,0.700,0.570,0.420,-2.590,-0.420
1743436986.6926072,-0.460,0.701,0.569,0.280,-2.450,-0.420
1743436986.7126071,-0.460,0.701,0.568,0.210,-2.380,-0.420
1743436986.7326071,-0.462,0.701,0.568,0.350,-2.450,-0.280
1743436986.752607,-0.465,0.703,0.569,0.560,-2.590,-0.140
1743436986.772607,-0.462,0.702,0.570,0.630,-2.590,-0.210
1743436986.792607,-0.460,0.701,0.569,0.630,-2.450,-0.420
1743436986.812607,-0.457,0.697,0.568,0.420,-2.170,-0.490
1743436986.832607,-0.458,0.695,0.565,0.490,-2.100,-0.630
1743436986.852607,-0.460,0.695,0.566,0.700,-2.240,-0.560
1743436986.872607,-0.464,0.700,0.565,0.980,-2.310,-0.420
1743436986.892607,-0.462,0.702,0.570,0.700,-2.450,-0.280
1743436986.912607,-0.466,0.705,0.571,0.420,-2.450,-0.280
1743436986.932607,-0.462,0.705,0.570,0.070,-2.450,-0.420
1743436986.952607,-0.465,0.703,0.569,0.000,-2.450,-0.280
1743436986.972607,-0.461,0.702,0.569,0.000,-2.450,-0.280
1743436986.9926069,-0.459,0.699,0.569,-0.140,-2.450,-0.420
1743436987.0126069,-0.460,0.698,0.568,-0.070,-2.520,-0.350
1743436987.0326068,-0.461,0.695,0.566,0.140,-2.730,-0.210
1743436987.0526068,-0.461,0.699,0.570,0.350,-2.730,-0.280
1743436987.0726068,-0.458,0.700,0.571,0.490,-2.730,-0.280
1743436987.0926068,-0.461,0.700,0.569,0.420,-2.590,-0.420
1743436987.1126068,-0.459,0.701,0.570,0.420,-2.380,-0.420
1743436987.1326067,-0.460,0.699,0.567,0.350,-2.170,-0.350
1743436987.1526067,-0.459,0.701,0.569,0.350,-2.170,-0.350
1743436987.1726067,-0.460,0.699,0.570,0.420,-2.380,-0.420
1743436987.1926067,-0.460,0.701,0.568,0.420,-2.310,-0.420
1743436987.2126067,-0.460,0.700,0.566,0.490,-2.380,-0.490
1743436987.2326066,-0.462,0.701,0.565,0.420,-2.100,-0.490
1743436987.2526066,-0.463,0.702,0.566,0.280,-2.170,-0.420
1743436987.2726066,-0.465,0.702,0.570,0.420,-2.660,-0.280
1743436987.2926066,-0.461,0.701,0.571,0.350,-2.940,-0.140
1743436987.3126066,-0.460,0.700,0.572,0.140,-3.150,-0.210
1743436987.3326066,-0.461,0.699,0.567,-0.140,-3.150,-0.140
1743436987.3526065,-0.463,0.698,0.566,0.000,-3.010,0.070
1743436987.3726065,-0.461,0.698,0.567,0.000,-3.290,0.070
1743436987.3926065,-0.461,0.698,0.568,-0.140,-3.150,0.140
1743436987.4126065,-0.460,0.700,0.569,0.000,-3.010,-0.070
1743436987.4326065,-0.463,0.701,0.570,-0.070,-2.730,-0.140
1743436987.4526064,-0.460,0.702,0.573,-0.140,-2.730,-0.140
1743436987.4726064,-0.462,0.698,0.572,0.140,-3.010,-0.070
1743436987.4926064,-0.461,0.699,0.568,0.560,-3.150,-0.070
1743436987.5126064,-0.459,0.697,0.566,1.120,-3.570,0.000
1743436987.5326064,-0.463,0.697,0.568,1.750,-4.060,0.070
1743436987.5526063,-0.460,0.700,0.571,1.820,-4.200,0.070
1743436987.5726063,-0.459,0.701,0.572,1.470,-3.640,-0.070
1743436987.5926063,-0.457,0.704,0.573,0.770,-3.010,-0.210
1743436987.6126063,-0.458,0.702,0.569,0.140,-2.450,-0.280
1743436987.6326063,-0.460,0.700,0.567,0.000,-2.100,-0.280
1743436987.6526062,-0.457,0.697,0.570,0.000,-1.960,-0.420
1743436987.6726062,-0.458,0.701,0.570,-0.140,-1.820,-0.490
1743436987.6926062,-0.458,0.700,0.571,-0.280,-2.030,-0.420
1743436987.7126062,-0.459,0.701,0.572,-0.140,-2.590,-0.350
1743436987.7326062,-0.457,0.698,0.569,0.210,-2.940,-0.350
1743436987.7526062,-0.458,0.698,0.564,0.350,-2.870,-0.210
1743436987.7726061,-0.459,0.699,0.564,0.350,-2.450,-0.210
1743436987.792606,-0.458,0.697,0.573,0.630,-1.960,0.000
1743436987.812606,-0.460,0.702,0.573,0.910,-1.960,0.070
1743436987.832606,-0.463,0.705,0.574,0.770,-2.030,-0.490
1743436987.852606,-0.461,0.712,0.574,-0.140,-1.750,-0.560
1743436987.872606,-0.458,0.701,0.575,-0.700,-1.260,-0.560
1743436987.892606,-0.458,0.697,0.571,-0.140,-1.610,-0.630
1743436987.912606,-0.462,0.698,0.568,0.280,-2.030,-0.420
1743436987.932606,-0.460,0.697,0.569,0.490,-2.170,-0.350
1743436987.952606,-0.459,0.698,0.567,0.350,-2.240,-0.420
1743436987.972606,-0.462,0.698,0.566,0.280,-2.310,-0.420
1743436987.992606,-0.464,0.699,0.566,0.280,-2.450,-0.280
1743436988.012606,-0.462,0.700,0.572,0.350,-2.730,-0.420
1743436988.032606,-0.459,0.703,0.572,0.070,-2.870,-0.350
1743436988.0526059,-0.458,0.704,0.570,-0.350,-2.590,-0.420
1743436988.0726058,-0.461,0.702,0.567,-0.420,-2.590,-0.280
1743436988.0926058,-0.460,0.702,0.570,-0.070,-2.800,-0.280
1743436988.1126058,-0.460,0.703,0.573,0.280,-3.010,-0.140
1743436988.1326058,-0.456,0.702,0.574,0.140,-2.730,-0.280
1743436988.1526058,-0.453,0.698,0.571,-0.210,-2.240,-0.490
1743436988.1726058,-0.458,0.695,0.568,0.000,-2.170,-0.490
1743436988.1926057,-0.459,0.694,0.566,0.630,-2.450,-0.490
1743436988.2126057,-0.459,0.695,0.569,1.050,-2.520,-0.560
1743436988.2326057,-0.459,0.699,0.572,0.840,-2.520,-0.490
1743436988.2526057,-0.458,0.703,0.573,0.560,-2.380,-0.490
1743436988.2726057,-0.464,0.702,0.575,0.140,-1.960,-0.560
1743436988.2926056,-0.464,0.704,0.571,0.000,-1.890,-0.560
1743436988.3126056,-0.463,0.701,0.571,0.000,-2.100,-0.420
1743436988.3326056,-0.460,0.698,0.570,0.070,-2.240,-0.490
1743436988.3526056,-0.458,0.696,0.570,-0.070,-2.030,-0.420
1743436988.3726056,-0.457,0.696,0.569,0.070,-2.240,-0.420
1743436988.3926055,-0.458,0.697,0.569,0.280,-2.380,-0.280
1743436988.4126055,-0.459,0.698,0.571,0.630,-2.450,-0.350
1743436988.4326055,-0.458,0.697,0.570,0.770,-2.240,-0.350
1743436988.4526055,-0.459,0.700,0.569,0.840,-2.170,-0.420
1743436988.4726055,-0.456,0.699,0.570,0.770,-1.820,-0.420
1743436988.4926054,-0.458,0.697,0.570,0.700,-2.100,-0.350
1743436988.5126054,-0.459,0.701,0.574,0.770,-2.030,-0.420
1743436988.5326054,-0.459,0.702,0.572,0.700,-2.240,-0.490
1743436988.5526054,-0.462,0.701,0.569,0.420,-2.170,-0.490
1743436988.5726054,-0.463,0.703,0.565,0.420,-2.310,-0.420
1743436988.5926054,-0.463,0.701,0.568,1.050,-2.520,-0.420
1743436988.6126053,-0.462,0.704,0.573,0.210,-2.030,-0.490
1743436988.6326053,-0.461,0.703,0.573,-0.140,-2.030,-0.420
1743436988.6526053,-0.461,0.700,0.569,-0.210,-2.240,-0.350
1743436988.6726053,-0.460,0.695,0.569,0.350,-2.800,-0.280
1743436988.6926053,-0.459,0.695,0.569,0.630,-3.150,-0.280
1743436988.7126052,-0.461,0.696,0.567,0.490,-2.870,-0.420
1743436988.7326052,-0.459,0.699,0.569,0.490,-2.870,-0.350
1743436988.7526052,-0.465,0.701,0.571,0.420,-2.730,-0.210
1743436988.7726052,-0.460,0.702,0.569,0.490,-2.590,-0.350
1743436988.7926052,-0.461,0.701,0.570,0.140,-1.890,-0.490
1743436988.8126051,-0.457,0.703,0.571,-0.140,-1.120,-0.700
1743436988.8326051,-0.457,0.699,0.569,0.140,-0.700,-0.840
1743436988.852605,-0.458,0.699,0.569,0.280,-0.140,-1.050
1743436988.872605,-0.455,0.703,0.571,0.140,0.630,-1.540
1743436988.892605,-0.454,0.703,0.569,-0.280,1.960,-1.960
1743436988.912605,-0.461,0.700,0.570,-0.630,2.310,-1.960
1743436988.932605,-0.467,0.698,0.569,0.700,1.400,-1.680
1743436988.952605,-0.467,0.697,0.567,0.840,0.420,-1.470
1743436988.972605,-0.467,0.697,0.567,1.050,-0.560,-1.190
1743436988.992605,-0.466,0.698,0.566,0.560,-1.050,-1.050
1743436989.012605,-0.466,0.699,0.567,0.140,-1.680,-0.700
1743436989.032605,-0.467,0.700,0.569,0.000,-2.590,-0.350
1743436989.052605,-0.468,0.700,0.570,0.070,-3.850,-0.070
1743436989.072605,-0.463,0.699,0.569,-0.210,-3.780,-0.210
1743436989.0926049,-0.462,0.697,0.566,-0.490,-3.710,-0.140
1743436989.1126049,-0.461,0.696,0.562,-0.490,-3.780,0.210
1743436989.1326048,-0.464,0.695,0.567,-0.070,-4.130,0.210
1743436989.1526048,-0.460,0.699,0.569,0.630,-4.130,0.280
1743436989.1726048,-0.458,0.698,0.569,0.490,-3.570,0.070
1743436989.1926048,-0.458,0.700,0.569,0.280,-2.940,-0.140
1743436989.2126048,-0.459,0.700,0.569,0.280,-2.450,-0.280
1743436989.2326047,-0.463,0.700,0.571,0.700,-2.170,-0.350
1743436989.2526047,-0.463,0.700,0.572,0.700,-1.820,-0.350
1743436989.2726047,-0.464,0.701,0.573,0.420,-1.540,-0.560
1743436989.2926047,-0.465,0.698,0.568,0.280,-1.330,-0.560
1743436989.3126047,-0.462,0.696,0.567,0.560,-1.470,-0.490
1743436989.3326046,-0.465,0.696,0.567,0.840,-1.750,-0.630
1743436989.3526046,-0.462,0.697,0.569,0.840,-1.960,-0.630
1743436989.3726046,-0.464,0.697,0.568,0.560,-1.960,-0.630
1743436989.3926046,-0.463,0.696,0.567,0.630,-2.100,-0.490
1743436989.4126046,-0.465,0.698,0.567,1.050,-2.380,-0.280
1743436989.4326046,-0.467,0.699,0.575,1.050,-2.730,-0.140
1743436989.4526045,-0.462,0.700,0.574,0.910,-2.800,-0.140
1743436989.4726045,-0.460,0.698,0.569,0.700,-2.520,-0.280
1743436989.4926045,-0.460,0.699,0.564,0.560,-2.310,-0.350
1743436989.5126045,-0.461,0.697,0.560,0.910,-2.380,-0.350
1743436989.5326045,-0.461,0.700,0.565,1.260,-2.380,-0.280
1743436989.5526044,-0.465,0.705,0.572,0.840,-2.170,-0.210
1743436989.5726044,-0.466,0.708,0.575,0.560,-2.100,-0.350
1743436989.5926044,-0.465,0.707,0.573,0.140,-2.100,-0.350
1743436989.6126044,-0.466,0.706,0.569,-0.070,-2.240,-0.490
1743436989.6326044,-0.466,0.701,0.565,0.560,-2.030,-0.770
1743436989.6526043,-0.465,0.703,0.566,0.420,-1.050,-1.190
1743436989.6726043,-0.461,0.704,0.565,0.490,0.490,-1.820
1743436989.6926043,-0.468,0.701,0.567,0.420,1.330,-2.310
1743436989.7126043,-0.468,0.701,0.570,0.840,1.750,-2.730
1743436989.7326043,-0.467,0.699,0.570,0.700,1.750,-3.500
1743436989.7526042,-0.465,0.699,0.566,0.420,0.910,-4.060
1743436989.7726042,-0.464,0.698,0.565,-0.350,-0.280,-3.920
1743436989.7926042,-0.466,0.693,0.565,-0.910,-1.400,-3.500
1743436989.8126042,-0.467,0.688,0.566,-1.330,-3.500,-1.470
1743436989.8326042,-0.467,0.686,0.564,-1.260,-4.480,1.680
1743436989.8526042,-0.464,0.688,0.560,-0.280,-5.740,2.590
1743436989.8726041,-0.467,0.700,0.566,-0.140,-7.140,2.100
1743436989.892604,-0.468,0.704,0.568,-0.210,-6.580,1.330
1743436989.912604,-0.464,0.700,0.575,-0.490,-5.180,1.120
1743436989.932604,-0.464,0.694,0.572,-0.490,-4.480,0.770
1743436989.952604,-0.466,0.696,0.565,-0.210,-5.180,0.770
1743436989.972604,-0.467,0.699,0.570,0.490,-5.250,0.490
1743436989.992604,-0.466,0.700,0.571,1.120,-4.270,0.070
1743436990.012604,-0.461,0.699,0.575,0.770,-2.800,-0.280
1743436990.032604,-0.460,0.697,0.572,0.070,-2.170,-0.490
1743436990.052604,-0.462,0.691,0.564,1.470,-0.980,-0.840
1743436990.072604,-0.462,0.699,0.565,1.190,-0.420,-1.820
1743436990.092604,-0.457,0.705,0.574,2.870,4.620,-2.520
1743436990.112604,-0.466,0.708,0.572,4.410,6.860,-4.200
1743436990.132604,-0.472,0.720,0.568,4.270,11.900,-7.350
1743436990.1526039,-0.475,0.709,0.571,6.720,16.170,-13.230
1743436990.1726038,-0.467,0.706,0.584,9.170,20.650,-16.100
1743436990.1926038,-0.467,0.704,0.581,9.800,20.720,-18.760
1743436990.2126038,-0.480,0.716,0.572,7.000,15.260,-18.830
1743436990.2326038,-0.495,0.709,0.549,1.260,6.440,-14.350
1743436990.2526038,-0.507,0.692,0.515,-1.960,-14.630,-4.620
1743436990.2726038,-0.508,0.652,0.490,-2.170,-24.080,3.920
1743436990.2926037,-0.490,0.619,0.515,-2.590,-34.650,12.460
1743436990.3126037,-0.461,0.661,0.555,0.000,-36.330,20.160
1743436990.3326037,-0.439,0.686,0.579,-6.230,-26.320,22.820
1743436990.3526037,-0.449,0.685,0.593,-6.790,-20.230,20.300
1743436990.3726037,-0.467,0.713,0.607,1.470,-4.550,5.320
1743436990.3926036,-0.458,0.759,0.614,-1.260,5.320,2.310
1743436990.4126036,-0.468,0.733,0.578,-6.790,4.200,2.940
1743436990.4326036,-0.483,0.700,0.541,-7.560,-1.890,1.750
1743436990.4526036,-0.477,0.692,0.530,-3.430,-9.380,1.120
1743436990.4726036,-0.460,0.682,0.565,3.500,-6.090,0.280
1743436990.4926035,-0.443,0.700,0.589,3.570,-0.280,-1.120
1743436990.5126035,-0.466,0.712,0.587,-2.940,0.840,-1.050
1743436990.5326035,-0.470,0.692,0.569,-1.750,0.140,-0.840
1743436990.5526035,-0.461,0.686,0.561,1.960,-1.120,-0.700
1743436990.5726035,-0.457,0.696,0.556,3.290,-0.770,-0.840
1743436990.5926034,-0.462,0.706,0.569,0.840,2.380,-1.330
1743436990.6126034,-0.466,0.703,0.572,0.070,2.940,-1.470
1743436990.6326034,-0.469,0.701,0.574,0.840,1.890,-1.540
1743436990.6526034,-0.470,0.699,0.572,1.540,0.560,-1.680
1743436990.6726034,-0.463,0.700,0.565,1.190,-0.490,-1.960
1743436990.6926033,-0.461,0.698,0.561,0.000,-0.560,-2.240
1743436990.7126033,-0.463,0.695,0.566,-0.140,-1.050,-1.820
1743436990.7326033,-0.468,0.695,0.569,0.070,-1.680,-0.910
1743436990.7526033,-0.467,0.694,0.568,0.840,-3.360,0.000
1743436990.7726033,-0.466,0.698,0.564,0.770,-4.410,0.210
1743436990.7926033,-0.465,0.698,0.563,0.630,-4.620,0.350
1743436990.8126032,-0.462,0.696,0.560,0.280,-4.340,0.420
1743436990.8326032,-0.465,0.695,0.560,0.910,-4.690,0.560
1743436990.8526032,-0.466,0.698,0.565,0.840,-4.480,0.630
1743436990.8726032,-0.467,0.699,0.571,0.630,-4.060,0.420
1743436990.8926032,-0.466,0.704,0.571,0.070,-3.290,0.210
1743436990.9126031,-0.469,0.701,0.571,-0.490,-2.870,-0.070
1743436990.9326031,-0.468,0.701,0.571,-0.560,-2.800,-0.070
1743436990.952603,-0.466,0.697,0.567,-0.490,-2.660,-0.280
1743436990.972603,-0.463,0.695,0.567,-0.280,-2.450,-0.350
1743436990.992603,-0.463,0.695,0.568,-0.140,-2.100,-0.350
1743436991.012603,-0.461,0.697,0.569,0.070,-2.030,-0.420
1743436991.032603,-0.464,0.698,0.569,0.350,-1.820,-0.630
1743436991.052603,-0.463,0.698,0.568,0.630,-1.680,-0.630
1743436991.072603,-0.461,0.696,0.567,0.840,-1.260,-0.630
1743436991.092603,-0.461,0.695,0.569,0.770,-1.260,-0.630
1743436991.112603,-0.460,0.699,0.567,0.840,-1.400,-0.700
1743436991.132603,-0.463,0.697,0.572,0.980,-1.680,-0.630
1743436991.152603,-0.465,0.699,0.567,0.910,-2.310,-0.490
1743436991.172603,-0.466,0.700,0.569,0.770,-2.520,-0.350
1743436991.1926029,-0.466,0.701,0.565,0.840,-2.660,-0.350
1743436991.2126029,-0.468,0.698,0.567,0.560,-2.800,-0.140
1743436991.2326028,-0.467,0.699,0.570,0.420,-2.940,-0.140
1743436991.2526028,-0.467,0.700,0.569,0.350,-3.150,-0.070
1743436991.2726028,-0.467,0.699,0.568,0.140,-3.360,-0.210
1743436991.2926028,-0.465,0.699,0.566,0.210,-3.220,-0.070
1743436991.3126028,-0.467,0.697,0.565,0.350,-3.080,-0.070
1743436991.3326027,-0.464,0.695,0.567,0.420,-2.870,-0.070
1743436991.3526027,-0.467,0.699,0.570,0.840,-2.730,-0.280
1743436991.3726027,-0.463,0.700,0.570,1.400,-1.330,-0.420
1743436991.3926027,-0.468,0.695,0.567,3.220,-0.980,-1.120
1743436991.4126027,-0.462,0.700,0.569,2.450,0.560,-1.820
1743436991.4326026,-0.463,0.700,0.565,1.890,2.660,-2.520
1743436991.4526026,-0.462,0.702,0.569,0.490,4.060,-3.080
1743436991.4726026,-0.466,0.699,0.570,-0.280,3.570,-3.360
1743436991.4926026,-0.471,0.699,0.569,-0.420,1.330,-3.150
1743436991.5126026,-0.470,0.699,0.571,-0.560,-0.980,-1.680
1743436991.5326025,-0.471,0.699,0.564,-0.630,-5.670,0.280
1743436991.5526025,-0.469,0.691,0.558,-0.910,-6.650,1.680
1743436991.5726025,-0.465,0.689,0.553,-0.350,-8.050,3.430
1743436991.5926025,-0.465,0.692,0.557,0.700,-9.030,2.450
1743436991.6126025,-0.463,0.705,0.567,1.470,-7.770,1.470
1743436991.6326025,-0.460,0.706,0.577,0.980,-4.830,0.980
1743436991.6526024,-0.458,0.702,0.577,0.070,-3.290,0.210
1743436991.6726024,-0.464,0.696,0.569,0.000,-2.800,-0.770
1743436991.6926024,-0.468,0.697,0.561,-0.210,-2.590,-0.630
1743436991.7126024,-0.465,0.694,0.567,1.820,-1.890,-0.910
1743436991.7326024,-0.465,0.698,0.573,1.400,-0.700,-1.260
1743436991.7526023,-0.461,0.699,0.576,0.560,0.280,-1.540
1743436991.7726023,-0.466,0.699,0.571,-0.560,0.560,-1.470
1743436991.7926023,-0.467,0.697,0.563,-0.210,-0.560,-0.980
1743436991.8126023,-0.465,0.699,0.559,-0.070,-2.170,-0.420
1743436991.8326023,-0.465,0.698,0.558,0.140,-2.450,0.000
1743436991.8526022,-0.467,0.703,0.560,-0.350,-3.150,0.140
1743436991.8726022,-0.466,0.703,0.564,0.070,-3.430,0.560
1743436991.8926022,-0.466,0.700,0.565,0.280,-4.130,0.770
1743436991.9126022,-0.465,0.699,0.567,0.840,-4.620,0.770
1743436991.9326022,-0.465,0.696,0.568,1.540,-4.550,0.210
1743436991.9526021,-0.461,0.701,0.569,1.470,-3.010,-0.140
1743436991.9726021,-0.462,0.697,0.567,2.170,-2.380,-0.840
1743436991.992602,-0.468,0.695,0.568,1.260,-1.890,-0.910
1743436992.012602,-0.469,0.699,0.572,1.750,-1.330,-0.840
1743436992.032602,-0.464,0.701,0.572,1.120,-0.910,-1.260
1743436992.052602,-0.461,0.702,0.571,-0.140,-0.280,-1.400
1743436992.072602,-0.462,0.697,0.564,-0.630,-0.210,-1.330
1743436992.092602,-0.461,0.694,0.559,-0.560,-1.120,-0.980
1743436992.112602,-0.464,0.697,0.559,-0.280,-3.220,-0.350
1743436992.132602,-0.464,0.703,0.558,0.070,-3.570,0.000
1743436992.152602,-0.468,0.700,0.565,0.490,-4.060,0.770
1743436992.172602,-0.469,0.705,0.568,0.000,-4.550,0.980
1743436992.192602,-0.465,0.699,0.567,0.280,-4.830,1.190
1743436992.212602,-0.465,0.698,0.566,0.280,-4.690,1.120
1743436992.232602,-0.466,0.700,0.569,0.140,-4.620,0.630
1743436992.2526019,-0.465,0.701,0.569,-0.350,-3.640,0.280
1743436992.2726018,-0.465,0.697,0.572,-0.560,-2.940,-0.140
1743436992.2926018,-0.465,0.698,0.574,-0.210,-2.800,-0.350
1743436992.3126018,-0.467,0.699,0.572,0.070,-2.660,-0.490
1743436992.3326018,-0.462,0.698,0.571,0.140,-2.310,-0.770
1743436992.3526018,-0.458,0.698,0.569,0.210,-1.820,-0.910
1743436992.3726017,-0.458,0.697,0.564,0.420,-1.610,-0.840
1743436992.3926017,-0.460,0.694,0.565,0.700,-1.680,-0.700
1743436992.4126017,-0.460,0.697,0.566,0.910,-1.470,-0.700
1743436992.4326017,-0.461,0.699,0.569,1.050,-1.330,-0.770
1743436992.4526017,-0.459,0.700,0.565,1.050,-1.330,-0.560
1743436992.4726017,-0.462,0.701,0.565,0.840,-1.330,-0.490
1743436992.4926016,-0.466,0.701,0.568,0.770,-1.260,-0.350
1743436992.5126016,-0.465,0.700,0.570,0.630,-1.890,-0.280
1743436992.5326016,-0.466,0.702,0.572,0.560,-2.240,-0.210
1743436992.5526016,-0.468,0.703,0.572,0.140,-1.820,-0.420
1743436992.5726016,-0.466,0.701,0.570,0.070,-1.820,-0.630
1743436992.5926015,-0.465,0.697,0.564,0.420,-1.680,-0.700
1743436992.6126015,-0.464,0.698,0.565,0.840,-1.540,-0.840
1743436992.6326015,-0.467,0.696,0.566,1.260,-1.540,-1.050
1743436992.6526015,-0.467,0.698,0.567,1.470,-1.260,-1.050
1743436992.6726015,-0.467,0.699,0.568,1.400,-1.120,-0.980
1743436992.6926014,-0.465,0.700,0.568,1.120,-1.260,-1.050
1743436992.7126014,-0.466,0.700,0.569,0.840,-1.190,-0.770
1743436992.7326014,-0.463,0.699,0.564,0.350,-1.890,-0.560
1743436992.7526014,-0.464,0.699,0.563,-0.070,-2.310,-0.210
1743436992.7726014,-0.466,0.700,0.565,-0.280,-2.870,-0.070
1743436992.7926013,-0.465,0.701,0.568,-0.280,-3.150,-0.070
1743436992.8126013,-0.466,0.701,0.568,-0.350,-3.150,-0.070
1743436992.8326013,-0.465,0.699,0.563,-0.350,-3.010,0.000
1743436992.8526013,-0.463,0.697,0.563,-0.140,-2.730,-0.070
1743436992.8726013,-0.464,0.697,0.565,0.630,-2.590,-0.350
1743436992.8926013,-0.462,0.700,0.568,1.120,-1.540,-0.840
1743436992.9126012,-0.468,0.689,0.561,1.610,-0.840,-1.470
1743436992.9326012,-0.464,0.711,0.576,1.330,0.280,-1.050
1743436992.9526012,-0.469,0.696,0.565,3.290,0.630,-2.380
1743436992.9726012,-0.467,0.706,0.566,3.220,3.500,-3.430
1743436992.9926012,-0.468,0.705,0.569,3.360,7.700,-4.830
1743436993.0126011,-0.467,0.698,0.573,3.220,10.570,-6.860
1743436993.032601,-0.468,0.697,0.571,2.240,10.150,-8.680
1743436993.052601,-0.472,0.696,0.563,0.560,5.110,-7.000
1743436993.072601,-0.488,0.690,0.535,-2.730,-6.440,-3.360
1743436993.092601,-0.494,0.669,0.525,-4.690,-15.470,3.360
1743436993.112601,-0.480,0.677,0.541,-4.410,-25.200,12.460
1743436993.132601,-0.465,0.672,0.548,-1.750,-27.790,13.510
1743436993.152601,-0.439,0.713,0.583,6.930,-13.720,8.120
1743436993.172601,-0.434,0.758,0.612,1.400,-2.730,-0.490
1743436993.192601,-0.465,0.755,0.603,-5.460,3.570,0.070
1743436993.212601,-0.483,0.699,0.569,-11.410,-3.640,0.700
1743436993.232601,-0.468,0.659,0.537,-0.210,-9.590,1.610
1743436993.252601,-0.453,0.682,0.548,7.070,-7.980,1.610
1743436993.272601,-0.449,0.704,0.588,4.270,-2.800,0.560
1743436993.2926009,-0.454,0.715,0.599,0.350,1.260,-0.350
1743436993.3126009,-0.475,0.719,0.591,-3.010,0.420,-1.680
1743436993.3326008,-0.475,0.695,0.573,0.210,-0.280,-0.840
1743436993.3526008,-0.457,0.683,0.558,1.190,-2.240,-0.980
1743436993.3726008,-0.448,0.692,0.549,3.220,-1.820,-1.330
1743436993.3926008,-0.456,0.703,0.565,0.560,2.240,-1.540
1743436993.4126008,-0.468,0.703,0.572,0.000,2.940,-1.540
1743436993.4326007,-0.472,0.700,0.575,0.560,1.190,-1.050
1743436993.4526007,-0.470,0.701,0.571,1.050,-0.490,-0.700
1743436993.4726007,-0.466,0.705,0.564,0.210,-0.840,-0.840
1743436993.4926007,-0.464,0.704,0.567,-0.840,-0.350,-0.910
1743436993.5126007,-0.468,0.700,0.572,-1.890,-0.840,-0.910
1743436993.5326006,-0.472,0.698,0.574,-2.030,-1.960,-0.770
1743436993.5526006,-0.472,0.699,0.571,-1.820,-3.150,-0.700
1743436993.5726006,-0.469,0.697,0.571,-2.030,-4.060,-0.420
1743436993.5926006,-0.466,0.698,0.567,-2.170,-4.620,-0.420
1743436993.6126006,-0.465,0.697,0.566,-1.820,-4.760,-0.420
1743436993.6326005,-0.463,0.699,0.565,-1.050,-4.830,-0.350
1743436993.6526005,-0.459,0.701,0.566,-0.700,-4.480,-0.350
1743436993.6726005,-0.459,0.702,0.569,-0.770,-4.130,-0.420
1743436993.6926005,-0.459,0.700,0.568,-0.770,-3.710,-0.420
1743436993.7126005,-0.458,0.702,0.567,-0.560,-3.290,-0.420
1743436993.7326005,-0.457,0.703,0.566,-0.210,-2.870,-0.490
1743436993.7526004,-0.459,0.697,0.565,-0.140,-2.240,-0.490
1743436993.7726004,-0.458,0.698,0.564,-0.140,-1.540,-0.770
1743436993.7926004,-0.464,0.694,0.570,-0.280,-0.490,-0.840
1743436993.8126004,-0.467,0.696,0.576,-0.560,-0.280,-0.910
1743436993.8326004,-0.470,0.696,0.581,-0.770,-0.280,-1.050
1743436993.8526003,-0.470,0.696,0.578,-1.260,-0.210,-0.980
1743436993.8726003,-0.470,0.690,0.574,-1.120,-0.770,-0.980
1743436993.8926003,-0.468,0.687,0.571,-0.700,-1.190,-0.980
1743436993.9126003,-0.468,0.686,0.569,-0.490,-1.750,-0.980
1743436993.9326003,-0.468,0.686,0.573,0.000,-2.590,-0.700
1743436993.9526002,-0.469,0.687,0.572,0.350,-2.870,-0.560
1743436993.9726002,-0.469,0.688,0.567,0.630,-3.150,-0.420
1743436993.9926002,-0.467,0.688,0.568,0.980,-3.360,-0.210
1743436994.0126002,-0.464,0.690,0.566,1.400,-3.780,0.000
1743436994.0326002,-0.464,0.696,0.572,1.750,-4.060,0.210
1743436994.0526001,-0.466,0.696,0.570,1.680,-3.990,0.140
1743436994.0726001,-0.462,0.698,0.573,1.540,-3.920,0.280
1743436994.0926,-0.462,0.699,0.570,1.260,-3.990,0.630
1743436994.1126,-0.460,0.702,0.572,2.100,-3.780,0.280
1743436994.1326,-0.459,0.698,0.572,1.470,-3.010,0.140
1743436994.1526,-0.459,0.701,0.573,0.980,-2.450,0.070
1743436994.1726,-0.458,0.696,0.569,0.840,-2.240,0.000
1743436994.1926,-0.459,0.698,0.569,0.840,-2.380,-0.140
1743436994.2126,-0.462,0.700,0.572,0.840,-2.240,-0.350
1743436994.2326,-0.464,0.699,0.574,0.840,-2.030,-0.630
1743436994.2526,-0.464,0.699,0.571,0.910,-1.960,-0.770
1743436994.2726,-0.468,0.699,0.574,0.490,-1.960,-0.700
1743436994.2926,-0.468,0.699,0.573,0.700,-2.660,-0.630
1743436994.3126,-0.466,0.698,0.568,0.630,-2.660,-0.630
1743436994.3325999,-0.466,0.699,0.566,0.630,-2.520,-0.630
1743436994.3525999,-0.461,0.693,0.564,0.490,-2.240,-0.630
1743436994.3725998,-0.465,0.697,0.567,0.490,-2.170,-0.490
1743436994.3925998,-0.465,0.698,0.573,0.490,-2.100,-0.490
1743436994.4125998,-0.463,0.700,0.573,0.070,-1.960,-0.420
1743436994.4325998,-0.468,0.701,0.568,-0.350,-1.820,-0.420
1743436994.4525998,-0.464,0.698,0.565,-0.210,-1.750,-0.350
1743436994.4725997,-0.467,0.696,0.561,0.070,-1.680,-0.350
1743436994.4925997,-0.467,0.696,0.569,0.070,-1.610,-0.420
1743436994.5125997,-0.468,0.696,0.579,-0.140,-1.750,-0.350
1743436994.5325997,-0.465,0.699,0.578,-0.280,-2.380,-0.350
1743436994.5525997,-0.467,0.697,0.571,-0.280,-2.870,-0.420
1743436994.5725996,-0.467,0.696,0.570,0.140,-2.870,-0.490
1743436994.5925996,-0.465,0.698,0.574,0.490,-3.080,-0.280
1743436994.6125996,-0.464,0.697,0.576,0.350,-3.010,-0.350
1743436994.6325996,-0.461,0.695,0.579,0.210,-3.220,-0.420
1743436994.6525996,-0.463,0.692,0.578,0.140,-3.500,-0.560
1743436994.6725996,-0.457,0.691,0.567,0.420,-3.710,-0.420
1743436994.6925995,-0.460,0.689,0.560,0.840,-3.640,-0.490
1743436994.7125995,-0.458,0.691,0.559,0.980,-2.590,-0.350
1743436994.7325995,-0.462,0.695,0.569,1.050,-2.520,-0.280
1743436994.7525995,-0.466,0.697,0.574,1.050,-2.450,-0.210
1743436994.7725995,-0.467,0.701,0.580,0.980,-2.730,-0.070
1743436994.7925994,-0.466,0.701,0.569,0.770,-2.590,-0.140
1743436994.8125994,-0.463,0.700,0.570,0.490,-2.520,-0.070
1743436994.8325994,-0.462,0.696,0.565,0.560,-2.100,-0.140
1743436994.8525994,-0.463,0.697,0.567,0.490,-2.030,-0.140
1743436994.8725994,-0.464,0.698,0.568,0.420,-1.960,-0.210
1743436994.8925993,-0.466,0.699,0.571,0.350,-1.960,-0.210
1743436994.9125993,-0.464,0.699,0.573,0.210,-2.100,-0.210
1743436994.9325993,-0.466,0.701,0.571,0.000,-2.590,-0.280
1743436994.9525993,-0.465,0.697,0.574,-0.070,-2.730,-0.280
1743436994.9725993,-0.464,0.694,0.569,-0.070,-2.450,-0.420
1743436994.9925992,-0.461,0.694,0.565,0.070,-2.380,-0.420
1743436995.0125992,-0.462,0.692,0.570,0.280,-2.590,-0.490
1743436995.0325992,-0.464,0.696,0.575,0.700,-2.940,-0.140
1743436995.0525992,-0.463,0.700,0.578,0.700,-3.220,-0.140
1743436995.0725992,-0.461,0.700,0.576,0.630,-2.940,-0.280
1743436995.0925992,-0.459,0.697,0.570,0.490,-2.730,-0.280
1743436995.1125991,-0.459,0.696,0.568,0.630,-2.380,-0.280
1743436995.132599,-0.461,0.692,0.570,0.910,-2.170,-0.350
1743436995.152599,-0.461,0.694,0.574,1.120,-2.100,-0.350
1743436995.172599,-0.463,0.694,0.571,1.050,-2.100,-0.420
1743436995.192599,-0.464,0.697,0.569,1.120,-1.890,-0.630
1743436995.212599,-0.463,0.701,0.570,0.840,-1.680,-0.630
1743436995.232599,-0.464,0.700,0.568,0.490,-1.330,-0.630
1743436995.252599,-0.466,0.699,0.566,0.350,-1.120,-0.840
1743436995.272599,-0.466,0.698,0.569,0.140,-1.330,-0.770
1743436995.292599,-0.463,0.698,0.570,-0.140,-1.610,-0.700
1743436995.312599,-0.468,0.700,0.572,-0.420,-1.890,-0.700
1743436995.332599,-0.467,0.698,0.570,-0.490,-2.100,-0.490
1743436995.352599,-0.465,0.699,0.569,-0.700,-2.310,-0.350
1743436995.372599,-0.464,0.699,0.565,-0.770,-2.520,-0.420
1743436995.3925989,-0.463,0.696,0.568,-0.350,-2.590,-0.280
1743436995.4125988,-0.459,0.695,0.573,-0.280,-2.590,-0.420
1743436995.4325988,-0.464,0.696,0.573,-0.560,-2.450,-0.420
1743436995.4525988,-0.466,0.697,0.574,-0.630,-2.450,-0.210
1743436995.4725988,-0.465,0.696,0.569,-0.560,-2.590,-0.210
1743436995.4925988,-0.467,0.697,0.570,-0.280,-2.520,-0.280
1743436995.5125988,-0.464,0.699,0.570,-0.070,-2.380,-0.420
1743436995.5325987,-0.465,0.697,0.573,-0.210,-2.450,-0.420
1743436995.5525987,-0.462,0.697,0.574,-0.350,-2.310,-0.560
1743436995.5725987,-0.463,0.697,0.574,-0.770,-2.310,-0.840
1743436995.5925987,-0.462,0.693,0.571,-0.910,-2.030,-0.770
1743436995.6125987,-0.464,0.693,0.569,-0.630,-2.310,-1.190
1743436995.6325986,-0.466,0.696,0.571,-0.770,-2.240,-1.050
1743436995.6525986,-0.463,0.696,0.569,-0.840,-1.820,-0.840
1743436995.6725986,-0.461,0.697,0.568,-0.910,-1.820,-1.330
1743436995.6925986,-0.464,0.696,0.571,-0.980,-1.750,-1.120
1743436995.7125986,-0.463,0.694,0.577,-0.560,-1.890,-1.260
1743436995.7325985,-0.468,0.697,0.575,-0.840,-2.240,-1.260
1743436995.7525985,-0.466,0.697,0.571,-0.910,-2.450,-0.980
1743436995.7725985,-0.463,0.696,0.573,-0.910,-2.660,-0.910
1743436995.7925985,-0.465,0.691,0.570,-0.840,-2.380,-0.770
1743436995.8125985,-0.462,0.691,0.571,-0.490,-2.380,-0.840
1743436995.8325984,-0.463,0.694,0.573,-0.350,-2.380,-0.910
1743436995.8525984,-0.464,0.692,0.572,-0.420,-2.100,-0.560
1743436995.8725984,-0.464,0.686,0.575,-0.420,-2.590,-0.420
1743436995.8925984,-0.465,0.690,0.573,-0.350,-3.780,0.000
1743436995.9125984,-0.467,0.695,0.575,-0.420,-4.130,0.420
1743436995.9325984,-0.464,0.693,0.576,-0.700,-4.340,0.420
1743436995.9525983,-0.463,0.691,0.577,-0.630,-4.270,0.280
1743436995.9725983,-0.464,0.690,0.571,-0.630,-3.710,0.140
1743436995.9925983,-0.463,0.690,0.570,-0.350,-3.780,0.000
1743436996.0125983,-0.464,0.688,0.567,-0.560,-3.500,0.140
1743436996.0325983,-0.465,0.691,0.574,-0.350,-3.570,0.210
1743436996.0525982,-0.464,0.696,0.577,1.190,-3.150,0.560
1743436996.0725982,-0.467,0.692,0.576,0.140,-3.220,0.420
1743436996.0925982,-0.467,0.697,0.577,-0.420,-3.850,0.420
1743436996.1125982,-0.462,0.693,0.577,-0.350,-3.360,0.210
1743436996.1325982,-0.461,0.692,0.576,0.000,-2.800,-0.140
1743436996.1525981,-0.459,0.691,0.574,-0.140,-2.380,-0.140
1743436996.1725981,-0.459,0.691,0.573,-0.490,-3.220,0.280
1743436996.192598,-0.463,0.690,0.578,-0.280,-4.130,0.630
1743436996.212598,-0.467,0.687,0.581,-0.280,-4.970,0.980
1743436996.232598,-0.462,0.691,0.583,-0.140,-5.670,0.910
1743436996.252598,-0.458,0.690,0.576,-0.490,-5.040,1.050
1743436996.272598,-0.453,0.687,0.574,-0.770,-4.620,0.910
1743436996.292598,-0.458,0.688,0.567,0.350,-4.970,0.420
1743436996.312598,-0.455,0.694,0.575,-2.940,-4.340,1.610
1743436996.332598,-0.457,0.693,0.585,-1.610,-4.970,1.610
1743436996.352598,-0.462,0.699,0.581,-1.680,-6.020,1.540
1743436996.372598,-0.459,0.696,0.577,-2.380,-5.320,1.610
1743436996.392598,-0.454,0.691,0.577,-1.680,-4.060,0.350
1743436996.412598,-0.452,0.690,0.576,-0.840,-2.730,-0.490
1743436996.4325979,-0.454,0.689,0.578,1.260,-1.330,-0.840
1743436996.4525979,-0.459,0.692,0.580,2.450,-0.420,-1.470
1743436996.4725978,-0.459,0.692,0.579,3.640,-0.140,-1.750
1743436996.4925978,-0.457,0.698,0.583,2.030,1.190,-2.100
1743436996.5125978,-0.460,0.702,0.581,3.640,3.500,-2.380
1743436996.5325978,-0.460,0.700,0.581,4.900,4.060,-2.800
1743436996.5525978,-0.464,0.702,0.581,5.530,4.760,-3.360
1743436996.5725977,-0.466,0.702,0.579,5.390,5.390,-4.690
1743436996.5925977,-0.468,0.706,0.577,4.900,6.580,-6.090
1743436996.6125977,-0.476,0.716,0.573,2.170,7.770,-8.540
1743436996.6325977,-0.477,0.709,0.576,0.630,8.820,-10.710
1743436996.6525977,-0.476,0.691,0.574,1.260,8.750,-12.250
1743436996.6725976,-0.467,0.680,0.566,4.200,5.390,-11.830
1743436996.6925976,-0.468,0.672,0.558,3.360,0.910,-7.420
1743436996.7125976,-0.474,0.672,0.547,0.280,-4.200,-3.010
1743436996.7325976,-0.482,0.668,0.540,-3.360,-13.720,4.200
1743436996.7525976,-0.481,0.673,0.550,-3.500,-17.150,8.890
1743436996.7725976,-0.471,0.679,0.567,-3.990,-20.020,14.630
1743436996.7925975,-0.457,0.674,0.572,-0.980,-18.690,13.440
1743436996.8125975,-0.455,0.691,0.589,3.500,-6.440,3.010
1743436996.8325975,-0.451,0.747,0.604,0.140,0.700,-0.070
1743436996.8525975,-0.475,0.707,0.586,-7.280,1.610,1.120
1743436996.8725975,-0.483,0.681,0.564,-6.090,-7.280,0.910
1743436996.8925974,-0.469,0.671,0.551,-0.910,-7.910,0.980
1743436996.9125974,-0.449,0.695,0.579,4.270,-3.710,-0.210
1743436996.9325974,-0.451,0.707,0.591,0.700,-0.070,-1.330
1743436996.9525974,-0.464,0.702,0.589,-2.940,1.120,-1.260
1743436996.9725974,-0.472,0.686,0.578,-1.400,0.140,-0.770
1743436996.9925973,-0.466,0.682,0.566,2.030,-2.170,-0.560
1743436997.0125973,-0.459,0.690,0.564,2.240,-1.260,-0.630
1743436997.0325973,-0.459,0.695,0.572,0.350,0.840,-1.120
1743436997.0525973,-0.463,0.692,0.577,-0.350,2.240,-1.260
1743436997.0725973,-0.469,0.689,0.578,1.050,-0.560,-0.980
1743436997.0925972,-0.469,0.690,0.575,1.540,-2.170,-0.560
1743436997.1125972,-0.466,0.691,0.572,1.260,-2.590,-0.280
1743436997.1325972,-0.463,0.693,0.569,0.910,-2.450,-0.210
1743436997.1525972,-0.469,0.694,0.578,0.490,-2.590,-0.140
1743436997.1725972,-0.468,0.694,0.578,0.560,-3.500,0.000
1743436997.1925972,-0.465,0.693,0.575,0.630,-4.270,0.000
1743436997.2125971,-0.463,0.691,0.571,0.420,-4.270,-0.070
1743436997.232597,-0.461,0.693,0.567,0.280,-3.780,-0.070
1743436997.252597,-0.466,0.695,0.570,0.420,-3.290,-0.070
1743436997.272597,-0.466,0.692,0.572,0.490,-3.220,0.140
1743436997.292597,-0.467,0.698,0.574,0.490,-3.150,-0.070
1743436997.312597,-0.466,0.697,0.577,0.350,-2.870,-0.210
1743436997.332597,-0.466,0.697,0.579,0.140,-2.660,-0.280
1743436997.352597,-0.464,0.694,0.577,-0.140,-2.240,-0.280
1743436997.372597,-0.463,0.691,0.573,-0.140,-2.100,-0.350
1743436997.392597,-0.464,0.693,0.569,0.070,-2.030,-0.420
1743436997.412597,-0.463,0.692,0.572,0.210,-2.170,-0.350
1743436997.432597,-0.466,0.693,0.577,0.350,-2.310,-0.350
1743436997.452597,-0.464,0.696,0.580,0.210,-2.520,-0.420
1743436997.472597,-0.462,0.695,0.576,0.140,-2.380,-0.420
1743436997.4925969,-0.463,0.694,0.571,0.070,-2.170,-0.490
1743436997.5125968,-0.462,0.687,0.574,0.210,-2.170,-0.560
1743436997.5325968,-0.464,0.690,0.575,0.420,-2.660,-0.490
1743436997.5525968,-0.466,0.696,0.573,0.420,-2.450,-0.490
1743436997.5725968,-0.462,0.694,0.574,0.140,-2.380,-0.490
1743436997.5925968,-0.461,0.694,0.573,0.350,-2.380,-0.420
1743436997.6125968,-0.464,0.693,0.572,0.560,-2.310,-0.350
1743436997.6325967,-0.466,0.695,0.578,0.420,-2.240,-0.350
1743436997.6525967,-0.463,0.694,0.578,0.280,-2.380,-0.350
1743436997.6725967,-0.468,0.695,0.577,0.070,-2.660,-0.350
1743436997.6925967,-0.466,0.688,0.575,0.210,-2.590,-0.280
1743436997.7125967,-0.465,0.694,0.571,0.210,-2.310,-0.350
1743436997.7325966,-0.465,0.692,0.572,0.350,-2.310,-0.420
1743436997.7525966,-0.465,0.691,0.573,0.280,-2.450,-0.490
1743436997.7725966,-0.466,0.694,0.577,0.420,-2.310,-0.350
1743436997.7925966,-0.466,0.694,0.577,0.070,-2.380,-0.350
1743436997.8125966,-0.465,0.693,0.577,0.140,-2.310,-0.420
1743436997.8325965,-0.468,0.690,0.574,0.140,-2.450,-0.420
1743436997.8525965,-0.463,0.691,0.576,0.070,-2.380,-0.490
1743436997.8725965,-0.463,0.693,0.573,0.140,-2.240,-0.490
1743436997.8925965,-0.464,0.691,0.577,0.140,-2.450,-0.350
1743436997.9125965,-0.463,0.692,0.577,0.140,-2.660,-0.350
1743436997.9325964,-0.465,0.694,0.576,0.210,-2.450,-0.420
1743436997.9525964,-0.464,0.692,0.576,0.280,-2.240,-0.490
1743436997.9725964,-0.463,0.690,0.572,0.210,-2.170,-0.420
1743436997.9925964,-0.462,0.689,0.574,0.420,-2.170,-0.420
1743436998.0125964,-0.461,0.692,0.577,0.490,-2.170,-0.420
1743436998.0325963,-0.467,0.695,0.577,0.350,-2.170,-0.420
1743436998.0525963,-0.465,0.695,0.576,0.420,-2.240,-0.420
1743436998.0725963,-0.467,0.692,0.575,0.560,-2.380,-0.490
1743436998.0925963,-0.463,0.694,0.576,0.490,-2.240,-0.280
1743436998.1125963,-0.465,0.693,0.577,0.210,-2.240,-0.420
1743436998.1325963,-0.464,0.693,0.578,0.210,-2.240,-0.420
1743436998.1525962,-0.463,0.690,0.575,0.280,-2.310,-0.420
1743436998.1725962,-0.466,0.692,0.574,0.350,-2.520,-0.490
1743436998.1925962,-0.465,0.692,0.574,0.350,-2.380,-0.490
1743436998.2125962,-0.466,0.692,0.574,0.280,-2.310,-0.560
1743436998.2325962,-0.464,0.692,0.571,0.350,-2.170,-0.420
1743436998.2525961,-0.465,0.694,0.573,0.350,-2.310,-0.420
1743436998.2725961,-0.465,0.693,0.574,0.560,-2.520,-0.280
1743436998.292596,-0.465,0.692,0.578,0.420,-2.660,-0.350
1743436998.312596,-0.465,0.692,0.577,0.280,-2.730,-0.350
1743436998.332596,-0.462,0.692,0.576,0.280,-2.590,-0.350
1743436998.352596,-0.463,0.692,0.572,0.420,-2.520,-0.280
1743436998.372596,-0.465,0.695,0.577,0.630,-2.520,-0.210
1743436998.392596,-0.467,0.694,0.580,0.700,-2.730,-0.210
1743436998.412596,-0.464,0.693,0.580,0.560,-2.730,-0.280
1743436998.432596,-0.459,0.689,0.574,0.210,-2.310,-0.490
1743436998.452596,-0.462,0.691,0.571,0.140,-2.240,-0.560
1743436998.472596,-0.463,0.689,0.570,0.420,-2.240,-0.420
1743436998.492596,-0.466,0.690,0.574,0.560,-2.380,-0.280
1743436998.512596,-0.468,0.695,0.579,0.490,-2.590,-0.140
1743436998.5325959,-0.466,0.697,0.579,0.210,-2.590,-0.140
1743436998.5525959,-0.468,0.695,0.577,0.070,-2.380,0.490
1743436998.5725958,-0.465,0.690,0.574,0.560,-2.590,1.120
1743436998.5925958,-0.462,0.687,0.575,0.910,-2.240,1.400
1743436998.6125958,-0.465,0.696,0.572,0.770,-3.360,-0.210
1743436998.6325958,-0.469,0.704,0.572,-0.420,-3.290,0.140
1743436998.6525958,-0.464,0.690,0.583,-1.120,-2.590,0.070
1743436998.6725957,-0.458,0.686,0.576,-0.280,-3.290,-0.210
1743436998.6925957,-0.458,0.690,0.577,-0.280,-3.290,-0.210
1743436998.7125957,-0.463,0.694,0.573,-0.350,-3.010,-0.140
1743436998.7325957,-0.464,0.693,0.576,-0.350,-2.660,-0.140
1743436998.7525957,-0.460,0.691,0.578,-0.210,-2.590,-0.210
1743436998.7725956,-0.460,0.692,0.577,-0.140,-2.660,-0.140
1743436998.7925956,-0.461,0.691,0.577,-0.420,-2.660,-0.210
1743436998.8125956,-0.464,0.687,0.577,-0.210,-2.240,-0.210
1743436998.8325956,-0.461,0.694,0.578,0.070,-3.080,-0.070
1743436998.8525956,-0.462,0.695,0.581,-0.420,-3.500,0.280
1743436998.8725955,-0.463,0.694,0.581,-0.840,-3.360,0.630
1743436998.8925955,-0.460,0.692,0.574,-1.190,-3.640,0.980
1743436998.9125955,-0.456,0.683,0.574,-0.560,-2.450,2.800
1743436998.9325955,-0.462,0.670,0.580,-3.150,-1.890,2.520
1743436998.9525955,-0.461,0.697,0.579,-0.980,-4.410,0.980
1743436998.9725955,-0.471,0.718,0.574,1.820,-5.460,0.630
1743436998.9925954,-0.468,0.691,0.584,-0.700,-3.360,0.000
1743436999.0125954,-0.447,0.686,0.583,-4.200,-3.080,0.280
1743436999.0325954,-0.460,0.686,0.574,-2.730,-3.430,-0.070
1743436999.0525954,-0.465,0.694,0.575,-2.380,-3.920,1.120
1743436999.0725954,-0.459,0.687,0.581,-1.400,-3.920,2.660
1743436999.0925953,-0.445,0.664,0.586,0.350,-3.220,4.410
1743436999.1125953,-0.458,0.665,0.581,-4.900,-5.320,2.730
1743436999.1325953,-0.468,0.702,0.591,4.130,-5.810,1.680
1743436999.1525953,-0.468,0.716,0.580,-0.420,-6.930,-1.610
1743436999.1725953,-0.461,0.726,0.588,1.330,-2.380,0.560
1743436999.1925952,-0.445,0.679,0.590,-0.140,-0.210,-0.980
1743436999.2125952,-0.449,0.682,0.580,0.840,-0.980,-1.260
1743436999.2325952,-0.465,0.700,0.575,1.960,-0.490,-0.980
1743436999.2525952,-0.459,0.698,0.585,2.590,0.280,-1.190
1743436999.2725952,-0.454,0.693,0.585,2.310,0.910,-1.820
1743436999.2925951,-0.453,0.698,0.581,1.890,2.590,-2.590
1743436999.3125951,-0.464,0.686,0.573,1.470,3.220,-2.590
1743436999.332595,-0.460,0.694,0.577,3.990,3.850,-3.080
1743436999.352595,-0.459,0.697,0.575,5.460,3.990,-3.500
1743436999.372595,-0.464,0.699,0.582,5.600,4.270,-3.990
1743436999.392595,-0.464,0.703,0.579,4.130,5.040,-4.830
1743436999.412595,-0.472,0.709,0.572,2.240,5.110,-5.740
1743436999.432595,-0.468,0.704,0.573,0.840,4.900,-7.070
1743436999.452595,-0.472,0.699,0.569,-1.120,3.500,-7.350
1743436999.472595,-0.469,0.683,0.564,-0.980,0.210,-7.350
1743436999.492595,-0.468,0.676,0.565,-0.420,-2.450,-4.690
1743436999.512595,-0.468,0.672,0.567,-0.420,-5.670,-0.560
1743436999.532595,-0.467,0.677,0.570,-0.210,-6.580,3.710
1743436999.552595,-0.468,0.690,0.569,-0.980,-7.980,5.390
1743436999.572595,-0.471,0.701,0.569,-0.070,-10.430,2.170
1743436999.5925949,-0.468,0.709,0.578,0.070,-9.380,1.750
1743436999.6125948,-0.465,0.701,0.578,-0.910,-4.480,1.750
1743436999.6325948,-0.454,0.684,0.574,-2.380,-4.270,1.260
1743436999.6525948,-0.465,0.687,0.564,-1.470,-5.040,1.050
1743436999.6725948,-0.465,0.691,0.569,0.140,-4.830,1.190
1743436999.6925948,-0.467,0.698,0.580,1.120,-4.620,0.140
1743436999.7125947,-0.456,0.693,0.590,-0.140,-2.520,-0.420
1743436999.7325947,-0.457,0.690,0.587,-0.700,-1.680,-0.770
1743436999.7525947,-0.461,0.687,0.577,-0.420,-1.190,-0.840
1743436999.7725947,-0.463,0.686,0.574,0.630,-1.610,-0.560
1743436999.7925947,-0.465,0.687,0.578,1.890,-1.330,-0.700
1743436999.8125947,-0.460,0.692,0.584,1.400,-0.350,-0.840
1743436999.8325946,-0.462,0.693,0.584,0.560,0.140,-0.980
1743436999.8525946,-0.463,0.691,0.576,0.280,-0.210,-0.910
1743436999.8725946,-0.463,0.687,0.569,0.910,-0.770,-0.770
1743436999.8925946,-0.462,0.687,0.566,1.260,-1.120,-0.700
1743436999.9125946,-0.463,0.688,0.567,1.470,-1.680,-0.420
1743436999.9325945,-0.466,0.693,0.569,1.120,-2.030,-0.350
1743436999.9525945,-0.468,0.696,0.575,0.910,-2.380,-0.140
1743436999.9725945,-0.470,0.699,0.579,0.560,-2.940,0.000
1743436999.9925945,-0.469,0.695,0.577,0.350,-3.430,0.140
1743437000.0125945,-0.468,0.695,0.575,0.000,-3.920,0.140
1743437000.0325944,-0.468,0.693,0.572,-0.070,-3.850,0.070
1743437000.0525944,-0.461,0.692,0.574,-0.210,-3.640,0.070
1743437000.0725944,-0.464,0.692,0.577,-0.210,-3.290,-0.140
1743437000.0925944,-0.464,0.692,0.578,-0.210,-3.360,-0.280
1743437000.1125944,-0.460,0.691,0.580,0.070,-2.940,-0.420
1743437000.1325943,-0.460,0.692,0.579,0.280,-2.380,-0.490
1743437000.1525943,-0.461,0.692,0.575,0.350,-1.750,-0.630
1743437000.1725943,-0.462,0.693,0.574,0.420,-1.540,-0.630
1743437000.1925943,-0.464,0.691,0.575,0.560,-1.260,-0.630
1743437000.2125943,-0.463,0.691,0.579,0.490,-1.400,-0.700
1743437000.2325943,-0.460,0.690,0.577,0.630,-1.330,-0.770
1743437000.2525942,-0.461,0.694,0.575,0.350,-1.190,-0.840
1743437000.2725942,-0.465,0.691,0.574,0.350,-1.330,-0.770
1743437000.2925942,-0.466,0.693,0.577,0.280,-1.610,-0.560
1743437000.3125942,-0.466,0.694,0.576,0.490,-2.240,-0.490
1743437000.3325942,-0.468,0.695,0.579,0.490,-2.800,-0.420
1743437000.3525941,-0.467,0.694,0.576,0.210,-2.870,-0.420
1743437000.372594,-0.468,0.692,0.572,0.140,-2.800,-0.350
1743437000.392594,-0.467,0.691,0.573,0.280,-2.870,-0.420
1743437000.412594,-0.467,0.689,0.573,0.350,-3.010,-0.350
1743437000.432594,-0.465,0.691,0.575,0.560,-2.730,-0.210
1743437000.452594,-0.464,0.694,0.578,0.490,-2.590,-0.350
1743437000.472594,-0.465,0.692,0.578,0.280,-2.310,-0.140
1743437000.492594,-0.463,0.691,0.578,0.280,-2.310,-0.280
1743437000.512594,-0.464,0.691,0.576,0.280,-2.310,-0.350
1743437000.532594,-0.463,0.689,0.572,0.140,-2.310,-0.280
1743437000.552594,-0.463,0.690,0.571,0.140,-2.310,-0.490
1743437000.572594,-0.461,0.688,0.574,0.210,-2.170,-0.350
1743437000.592594,-0.462,0.691,0.580,0.350,-2.310,-0.280
1743437000.612594,-0.464,0.692,0.580,0.280,-2.380,-0.490
1743437000.6325939,-0.464,0.692,0.579,0.350,-2.590,-0.420
1743437000.6525939,-0.464,0.692,0.579,0.210,-2.520,-0.350
1743437000.6725938,-0.460,0.691,0.577,0.350,-2.380,-0.420
1743437000.6925938,-0.464,0.690,0.574,0.490,-2.380,-0.490
1743437000.7125938,-0.464,0.689,0.577,0.700,-2.380,-0.420
1743437000.7325938,-0.467,0.692,0.578,0.700,-2.380,-0.420
1743437000.7525938,-0.466,0.693,0.579,0.490,-2.450,-0.420
1743437000.7725937,-0.464,0.693,0.577,0.350,-2.380,-0.490
1743437000.7925937,-0.463,0.691,0.574,0.350,-2.100,-0.490
1743437000.8125937,-0.464,0.692,0.574,0.630,-2.100,-0.420
1743437000.8325937,-0.466,0.693,0.575,0.560,-2.170,-0.420
1743437000.8525937,-0.465,0.692,0.576,0.560,-2.450,-0.280
1743437000.8725936,-0.467,0.691,0.575,0.560,-2.310,-0.280
1743437000.8925936,-0.465,0.692,0.577,0.560,-2.520,-0.350
1743437000.9125936,-0.463,0.693,0.576,0.420,-2.310,-0.280
1743437000.9325936,-0.465,0.692,0.574,0.350,-2.310,-0.350
1743437000.9525936,-0.463,0.691,0.575,0.490,-2.380,-0.350
1743437000.9725935,-0.466,0.692,0.575,0.350,-2.310,-0.560
1743437000.9925935,-0.465,0.693,0.575,0.280,-2.450,-0.420
1743437001.0125935,-0.465,0.690,0.574,0.280,-2.450,-0.420
1743437001.0325935,-0.463,0.694,0.573,0.140,-2.310,-0.350
1743437001.0525935,-0.463,0.691,0.573,0.280,-2.310,-0.350
1743437001.0725935,-0.465,0.693,0.581,0.350,-2.380,-0.420
1743437001.0925934,-0.465,0.692,0.579,0.350,-2.380,-0.630
1743437001.1125934,-0.463,0.691,0.576,0.350,-2.310,-0.490
1743437001.1325934,-0.466,0.690,0.577,0.420,-2.310,-0.560
1743437001.1525934,-0.465,0.692,0.578,0.630,-2.310,-0.420
1743437001.1725934,-0.464,0.692,0.579,0.630,-2.520,-0.420
1743437001.1925933,-0.463,0.693,0.578,0.560,-2.310,-0.350
1743437001.2125933,-0.461,0.690,0.576,0.490,-2.170,-0.700
1743437001.2325933,-0.464,0.689,0.570,0.560,-2.170,-0.630
1743437001.2525933,-0.463,0.690,0.570,0.630,-2.030,-0.490
1743437001.2725933,-0.466,0.690,0.573,0.770,-2.170,-0.420
1743437001.2925932,-0.466,0.693,0.575,0.630,-2.170,-0.350
1743437001.3125932,-0.467,0.697,0.580,0.420,-2.240,-0.210
1743437001.3325932,-0.468,0.696,0.578,0.350,-2.240,-0.280
1743437001.3525932,-0.468,0.695,0.579,0.140,-2.310,-0.280
1743437001.3725932,-0.468,0.692,0.577,0.070,-2.730,-0.280
1743437001.3925931,-0.467,0.692,0.574,-0.070,-2.590,-0.280
1743437001.4125931,-0.463,0.690,0.572,0.000,-2.590,-0.280
1743437001.432593,-0.465,0.690,0.571,0.210,-2.660,-0.140
1743437001.452593,-0.463,0.691,0.575,0.280,-2.660,-0.280
1743437001.472593,-0.461,0.691,0.579,0.420,-2.590,-0.280
1743437001.492593,-0.460,0.691,0.577,0.420,-2.380,-0.350
1743437001.512593,-0.462,0.691,0.573,0.350,-2.380,-0.350
1743437001.532593,-0.460,0.692,0.571,0.420,-2.170,-0.420
1743437001.552593,-0.464,0.691,0.574,0.560,-2.240,-0.420
1743437001.572593,-0.465,0.692,0.577,0.770,-2.450,-0.350
1743437001.592593,-0.463,0.693,0.575,0.630,-2.520,-0.350
1743437001.612593,-0.463,0.695,0.577,0.490,-2.380,-0.490
1743437001.632593,-0.465,0.692,0.574,0.490,-2.170,-0.350
1743437001.652593,-0.465,0.693,0.577,0.350,-2.310,-0.350
1743437001.6725929,-0.464,0.692,0.578,0.490,-2.310,-0.350
1743437001.6925929,-0.465,0.691,0.574,0.420,-2.520,-0.420
1743437001.7125928,-0.465,0.691,0.575,0.210,-2.380,-0.490
1743437001.7325928,-0.465,0.692,0.570,0.210,-2.380,-0.490
1743437001.7525928,-0.464,0.694,0.571,0.280,-2.380,-0.490
1743437001.7725928,-0.466,0.692,0.574,0.490,-2.380,-0.490
1743437001.7925928,-0.464,0.693,0.577,0.420,-2.380,-0.350
1743437001.8125927,-0.465,0.692,0.579,0.070,-2.380,-0.350
1743437001.8325927,-0.468,0.694,0.578,0.000,-2.310,-0.420
1743437001.8525927,-0.466,0.691,0.574,0.000,-2.380,-0.280
1743437001.8725927,-0.465,0.690,0.576,0.000,-2.310,-0.280
1743437001.8925927,-0.463,0.690,0.575,0.000,-2.310,-0.280
1743437001.9125926,-0.463,0.694,0.577,0.000,-2.380,-0.350
1743437001.9325926,-0.463,0.694,0.577,0.140,-2.520,-0.350
1743437001.9525926,-0.464,0.693,0.580,0.140,-2.590,-0.350
1743437001.9725926,-0.463,0.693,0.576,0.140,-2.520,-0.350
1743437001.9925926,-0.464,0.693,0.575,0.000,-2.310,-0.420
1743437002.0125926,-0.463,0.690,0.575,0.070,-2.170,-0.630
1743437002.0325925,-0.465,0.689,0.574,0.210,-2.030,-0.560
1743437002.0525925,-0.463,0.689,0.575,0.350,-2.100,-0.560
1743437002.0725925,-0.464,0.692,0.576,0.420,-2.380,-0.490
1743437002.0925925,-0.466,0.692,0.577,0.350,-2.450,-0.490
1743437002.1125925,-0.465,0.692,0.579,0.280,-2.310,-0.490
1743437002.1325924,-0.462,0.692,0.576,0.280,-2.240,-0.420
1743437002.1525924,-0.464,0.691,0.573,0.280,-2.100,-0.350
1743437002.1725924,-0.464,0.690,0.574,0.280,-2.170,-0.350
1743437002.1925924,-0.466,0.690,0.576,0.420,-2.450,-0.420
1743437002.2125924,-0.467,0.690,0.578,0.350,-2.380,-0.350
1743437002.2325923,-0.465,0.691,0.577,0.280,-2.380,-0.210
1743437002.2525923,-0.465,0.693,0.575,0.420,-2.520,-0.350
1743437002.2725923,-0.465,0.691,0.577,0.420,-2.380,-0.280
1743437002.2925923,-0.466,0.691,0.576,0.490,-2.380,-0.280
1743437002.3125923,-0.464,0.690,0.575,0.490,-2.240,-0.280
1743437002.3325922,-0.465,0.690,0.573,0.350,-2.520,-0.210
1743437002.3525922,-0.464,0.691,0.573,0.490,-2.450,-0.280
1743437002.3725922,-0.462,0.693,0.576,0.490,-2.590,-0.350
1743437002.3925922,-0.463,0.692,0.578,0.560,-2.450,-0.350
1743437002.4125922,-0.464,0.689,0.577,0.630,-2.590,-0.350
1743437002.4325922,-0.462,0.689,0.575,0.490,-2.450,-0.420
1743437002.4525921,-0.464,0.690,0.576,0.490,-2.380,-0.420
1743437002.472592,-0.466,0.692,0.581,0.770,-2.660,-0.280
1743437002.492592,-0.463,0.693,0.582,0.700,-2.660,-0.350
1743437002.512592,-0.464,0.692,0.577,0.630,-2.590,-0.420
1743437002.532592,-0.463,0.692,0.574,0.490,-2.310,-0.490
1743437002.552592,-0.463,0.691,0.570,0.560,-2.170,-0.490
1743437002.572592,-0.466,0.689,0.571,0.700,-2.240,-0.490
1743437002.592592,-0.467,0.692,0.572,0.770,-2.170,-0.420
1743437002.612592,-0.467,0.695,0.578,0.630,-2.100,-0.350
1743437002.632592,-0.468,0.696,0.579,0.420,-2.170,-0.350
1743437002.652592,-0.468,0.695,0.580,0.210,-2.660,-0.280
1743437002.672592,-0.467,0.693,0.576,0.140,-2.660,-0.280
1743437002.692592,-0.466,0.689,0.572,0.070,-2.380,-0.350
1743437002.712592,-0.466,0.691,0.573,0.000,-2.590,-0.280
1743437002.7325919,-0.463,0.690,0.573,0.070,-2.660,-0.210
1743437002.7525918,-0.464,0.689,0.576,0.070,-2.660,-0.280
1743437002.7725918,-0.461,0.691,0.576,0.280,-2.870,-0.420
1743437002.7925918,-0.461,0.691,0.579,0.350,-2.660,-0.420
1743437002.8125918,-0.462,0.690,0.577,0.420,-2.380,-0.350
1743437002.8325918,-0.461,0.691,0.572,0.490,-2.310,-0.420
1743437002.8525918,-0.461,0.690,0.575,0.630,-2.100,-0.420
1743437002.8725917,-0.460,0.692,0.577,0.700,-2.240,-0.420
1743437002.8925917,-0.463,0.691,0.577,0.700,-2.380,-0.420
1743437002.9125917,-0.464,0.691,0.576,0.490,-2.380,-0.420
1743437002.9325917,-0.466,0.694,0.575,0.490,-2.310,-0.490
1743437002.9525917,-0.466,0.692,0.573,0.490,-2.240,-0.350
1743437002.9725916,-0.466,0.693,0.578,0.560,-2.240,-0.420
1743437002.9925916,-0.465,0.693,0.579,0.350,-2.380,-0.350
1743437003.0125916,-0.465,0.693,0.577,0.280,-2.380,-0.420
1743437003.0325916,-0.466,0.692,0.577,0.280,-2.450,-0.420
1743437003.0525916,-0.465,0.691,0.576,0.280,-2.450,-0.490
1743437003.0725915,-0.465,0.689,0.573,0.490,-2.520,-0.420
1743437003.0925915,-0.467,0.692,0.578,0.630,-2.520,-0.350
1743437003.1125915,-0.464,0.693,0.575,0.490,-2.450,-0.350
1743437003.1325915,-0.464,0.693,0.578,0.350,-2.450,-0.280
1743437003.1525915,-0.466,0.691,0.579,0.210,-2.660,-0.280
1743437003.1725914,-0.465,0.692,0.575,0.280,-2.660,-0.280
1743437003.1925914,-0.463,0.689,0.575,0.280,-2.590,-0.280
1743437003.2125914,-0.465,0.691,0.575,0.210,-2.450,-0.280
1743437003.2325914,-0.463,0.691,0.579,0.280,-2.590,-0.350
1743437003.2525914,-0.464,0.693,0.580,0.350,-2.590,-0.350
1743437003.2725914,-0.463,0.691,0.578,0.210,-2.590,-0.350
1743437003.2925913,-0.462,0.693,0.576,0.280,-2.520,-0.490
1743437003.3125913,-0.464,0.693,0.572,0.280,-2.240,-0.420
1743437003.3325913,-0.462,0.691,0.575,0.350,-2.240,-0.490
1743437003.3525913,-0.464,0.690,0.574,0.420,-2.380,-0.490
1743437003.3725913,-0.462,0.691,0.579,0.490,-2.170,-0.490
1743437003.3925912,-0.464,0.692,0.576,0.280,-2.170,-0.630
1743437003.4125912,-0.464,0.691,0.574,0.280,-2.170,-0.560
1743437003.4325912,-0.465,0.692,0.576,0.350,-2.170,-0.560
1743437003.4525912,-0.466,0.691,0.576,0.420,-2.240,-0.420
1743437003.4725912,-0.465,0.691,0.577,0.350,-2.240,-0.420
1743437003.4925911,-0.464,0.691,0.578,0.280,-2.240,-0.420
1743437003.5125911,-0.462,0.692,0.577,0.140,-2.240,-0.350
1743437003.532591,-0.465,0.690,0.573,0.210,-2.240,-0.420
1743437003.552591,-0.464,0.689,0.573,0.280,-2.520,-0.420
1743437003.572591,-0.463,0.690,0.574,0.490,-2.380,-0.350
1743437003.592591,-0.463,0.691,0.576,0.350,-2.380,-0.420
1743437003.612591,-0.463,0.691,0.579,0.280,-2.240,-0.350
1743437003.632591,-0.464,0.691,0.573,0.350,-2.380,-0.280
1743437003.652591,-0.465,0.693,0.574,0.420,-2.450,-0.280
1743437003.672591,-0.464,0.692,0.574,0.420,-2.310,-0.350
1743437003.692591,-0.467,0.694,0.577,0.490,-2.450,-0.490
1743437003.712591,-0.462,0.690,0.577,0.350,-2.310,-0.560
1743437003.732591,-0.465,0.691,0.575,0.280,-2.380,-0.420
1743437003.752591,-0.464,0.691,0.574,0.420,-2.310,-0.350
1743437003.7725909,-0.467,0.695,0.581,0.700,-2.450,-0.280
1743437003.7925909,-0.465,0.694,0.581,0.770,-2.590,-0.210
1743437003.8125908,-0.463,0.691,0.578,0.350,-2.310,-0.350
1743437003.8325908,-0.462,0.691,0.573,0.280,-2.100,-0.420
1743437003.8525908,-0.461,0.688,0.571,0.280,-1.820,-0.560
1743437003.8725908,-0.462,0.687,0.569,0.700,-2.030,-0.630
1743437003.8925908,-0.466,0.691,0.574,0.770,-2.170,-0.490
1743437003.9125907,-0.468,0.697,0.579,0.700,-2.170,-0.210
1743437003.9325907,-0.467,0.695,0.579,0.490,-2.170,-0.280
1743437003.9525907,-0.468,0.696,0.579,0.350,-2.310,-0.210
1743437003.9725907,-0.466,0.696,0.575,0.280,-2.450,-0.280
1743437003.9925907,-0.465,0.694,0.576,0.210,-2.450,-0.140
1743437004.0125906,-0.466,0.692,0.577,0.210,-2.450,-0.280
1743437004.0325906,-0.464,0.692,0.575,0.000,-2.590,-0.350
1743437004.0525906,-0.465,0.692,0.574,0.140,-2.590,-0.210
1743437004.0725906,-0.465,0.690,0.574,0.280,-2.800,-0.280
1743437004.0925906,-0.464,0.692,0.578,0.420,-2.590,-0.350
1743437004.1125906,-0.464,0.690,0.578,0.350,-2.310,-0.280
1743437004.1325905,-0.462,0.692,0.577,0.350,-2.170,-0.490
1743437004.1525905,-0.465,0.691,0.576,0.350,-2.170,-0.420
1743437004.1725905,-0.463,0.690,0.576,0.420,-2.170,-0.420
1743437004.1925905,-0.465,0.691,0.574,0.490,-2.310,-0.560
1743437004.2125905,-0.461,0.691,0.580,0.560,-2.310,-0.490
1743437004.2325904,-0.463,0.693,0.576,0.630,-2.310,-0.490
1743437004.2525904,-0.462,0.691,0.576,0.420,-2.170,-0.490
1743437004.2725904,-0.463,0.691,0.575,0.490,-2.100,-0.560
1743437004.2925904,-0.467,0.694,0.577,0.490,-2.240,-0.420
1743437004.3125904,-0.465,0.692,0.578,0.350,-2.240,-0.490
1743437004.3325903,-0.464,0.694,0.579,0.420,-2.450,-0.420
1743437004.3525903,-0.467,0.692,0.576,0.140,-2.450,-0.350
1743437004.3725903,-0.465,0.691,0.572,0.070,-2.380,-0.420
1743437004.3925903,-0.465,0.689,0.572,0.210,-2.450,-0.490
1743437004.4125903,-0.465,0.689,0.574,0.420,-2.450,-0.420
1743437004.4325902,-0.466,0.693,0.577,0.420,-2.380,-0.490
1743437004.4525902,-0.465,0.692,0.577,0.420,-2.380,-0.490
1743437004.4725902,-0.465,0.693,0.578,0.210,-2.520,-0.280
1743437004.4925902,-0.466,0.693,0.579,0.280,-2.520,-0.350
1743437004.5125902,-0.462,0.691,0.578,0.140,-2.520,-0.280
1743437004.5325902,-0.464,0.693,0.576,0.070,-2.380,-0.350
1743437004.5525901,-0.465,0.692,0.576,0.140,-2.590,-0.280
1743437004.57259,-0.465,0.692,0.575,0.070,-2.520,-0.350
1743437004.59259,-0.464,0.692,0.576,0.000,-2.520,-0.350
1743437004.61259,-0.462,0.691,0.577,0.140,-2.520,-0.350
1743437004.63259,-0.464,0.692,0.578,0.000,-2.450,-0.420
1743437004.65259,-0.460,0.692,0.575,0.070,-2.450,-0.420
1743437004.67259,-0.462,0.689,0.574,0.420,-2.380,-0.350
1743437004.69259,-0.463,0.689,0.571,0.560,-2.380,-0.490
1743437004.71259,-0.465,0.690,0.572,0.560,-2.520,-0.490
1743437004.73259,-0.464,0.693,0.579,0.560,-2.380,-0.490
1743437004.75259,-0.464,0.691,0.578,0.280,-2.240,-0.490
1743437004.77259,-0.464,0.691,0.576,0.350,-2.310,-0.490
1743437004.79259,-0.463,0.689,0.574,0.420,-2.380,-0.490
1743437004.81259,-0.465,0.689,0.575,0.560,-2.380,-0.350
1743437004.8325899,-0.465,0.691,0.580,0.560,-2.310,-0.420
1743437004.8525898,-0.464,0.691,0.578,0.420,-2.380,-0.350
1743437004.8725898,-0.465,0.692,0.578,0.280,-2.450,-0.280
1743437004.8925898,-0.465,0.691,0.573,0.280,-2.590,-0.280
1743437004.9125898,-0.464,0.690,0.573,0.210,-2.520,-0.420
1743437004.9325898,-0.464,0.690,0.573,0.490,-2.450,-0.420
1743437004.9525898,-0.464,0.691,0.576,0.560,-2.310,-0.350
1743437004.9725897,-0.466,0.692,0.579,0.560,-2.310,-0.280
1743437004.9925897,-0.465,0.691,0.574,0.420,-2.310,-0.280
1743437005.0125897,-0.464,0.691,0.574,0.280,-2.380,-0.210
1743437005.0325897,-0.463,0.689,0.575,0.490,-2.450,-0.350
1743437005.0525897,-0.463,0.691,0.576,0.560,-2.520,-0.420
1743437005.0725896,-0.466,0.690,0.579,0.350,-2.450,-0.420
1743437005.0925896,-0.463,0.693,0.576,0.210,-2.520,-0.490
1743437005.1125896,-0.464,0.691,0.573,0.420,-2.310,-0.280
1743437005.1325896,-0.465,0.692,0.577,0.630,-2.450,-0.280
1743437005.1525896,-0.466,0.692,0.579,0.560,-2.450,-0.210
1743437005.1725895,-0.461,0.693,0.580,0.420,-2.590,-0.490
1743437005.1925895,-0.461,0.691,0.574,0.140,-2.380,-0.560
1743437005.2125895,-0.460,0.685,0.571,0.210,-2.100,-0.560
1743437005.2325895,-0.463,0.685,0.568,0.700,-2.170,-0.630
1743437005.2525895,-0.464,0.690,0.578,0.840,-2.240,-0.490
1743437005.2725894,-0.466,0.694,0.579,0.700,-2.240,-0.420
1743437005.2925894,-0.468,0.694,0.579,0.420,-2.310,-0.350
1743437005.3125894,-0.467,0.697,0.577,0.210,-2.310,-0.350
1743437005.3325894,-0.468,0.693,0.576,0.140,-2.520,-0.350
1743437005.3525894,-0.465,0.694,0.576,0.070,-2.730,-0.350
1743437005.3725893,-0.465,0.691,0.576,-0.070,-2.450,-0.350
1743437005.3925893,-0.463,0.691,0.574,0.000,-2.380,-0.280
1743437005.4125893,-0.464,0.688,0.574,0.070,-2.520,-0.350
1743437005.4325893,-0.464,0.690,0.577,0.490,-2.520,-0.280
1743437005.4525893,-0.467,0.693,0.576,0.630,-2.520,-0.350
1743437005.4725893,-0.465,0.694,0.576,0.490,-2.310,-0.420
1743437005.4925892,-0.463,0.692,0.577,0.420,-1.960,-0.420
1743437005.5125892,-0.463,0.691,0.573,0.490,-2.030,-0.420
1743437005.5325892,-0.464,0.690,0.575,0.490,-2.030,-0.420
1743437005.5525892,-0.463,0.690,0.578,0.560,-2.240,-0.490
1743437005.5725892,-0.465,0.694,0.580,0.490,-2.450,-0.490
1743437005.5925891,-0.465,0.693,0.578,0.420,-2.240,-0.490
1743437005.6125891,-0.465,0.690,0.573,0.280,-2.170,-0.490
1743437005.632589,-0.466,0.690,0.573,0.560,-2.240,-0.420
1743437005.652589,-0.467,0.692,0.579,0.490,-2.310,-0.350
1743437005.672589,-0.465,0.692,0.580,0.420,-2.380,-0.420
1743437005.692589,-0.467,0.691,0.577,0.280,-2.660,-0.420
1743437005.712589,-0.464,0.691,0.576,0.210,-2.730,-0.350
1743437005.732589,-0.462,0.691,0.570,0.280,-2.450,-0.420
