Timestamp,AccelX,AccelY,AccelZ,GyroX,GyroY,GyroZ
1743439594.1338592,-0.118,-0.027,-0.977,0.21,-2.03,-0.49
1743439594.1538591,-0.118,-0.026,-0.976,0.28,-1.89,-0.35
1743439594.1738591,-0.118,-0.027,-0.976,0.14,-3.08,-0.28
1743439594.193859,-0.124,-0.028,-0.977,0.35,-1.68,-0.35
1743439594.213859,-0.111,-0.026,-0.977,0.42,-3.29,-0.28
1743439594.233859,-0.115,-0.031,-0.976,1.05,-2.87,-0.42
1743439594.253859,-0.116,-0.025,-0.975,17.85,-2.38,-0.63
1743439594.273859,-0.12,-0.033,-0.977,0.07,-2.59,-0.28
1743439594.293859,-0.114,-0.03,-0.979,-0.14,-2.66,-0.28
1743439594.313859,-0.121,-0.03,-0.976,0.84,-2.17,-0.49
1743439594.333859,-0.115,-0.029,-0.976,0.42,-2.45,-0.35
1743439594.353859,-0.115,-0.032,-0.977,0.14,-2.59,-0.28
1743439594.373859,-0.117,-0.026,-0.978,0.56,-2.45,-0.35
1743439594.393859,-0.117,-0.03,-0.976,0.63,-2.52,-0.35
1743439594.413859,-0.115,-0.028,-0.976,0.28,-2.59,-0.35
1743439594.4338589,-0.119,-0.03,-0.975,0.35,-2.45,-0.35
1743439594.4538589,-0.117,-0.027,-0.976,0.56,-2.45,-0.35
1743439594.4738588,-0.115,-0.027,-0.975,0.35,-2.59,-0.49
1743439594.4938588,-0.119,-0.027,-0.975,0.28,-2.52,-0.42
1743439594.5138588,-0.116,-0.026,-0.977,0.56,-2.38,-0.35
1743439594.5338588,-0.118,-0.029,-0.976,0.49,-2.52,-0.42
1743439594.5538588,-0.117,-0.029,-0.977,0.56,-2.45,-0.42
1743439594.5738587,-0.116,-0.029,-0.979,0.56,-2.31,-0.42
1743439594.5938587,-0.117,-0.028,-0.976,0.77,-2.45,-0.42
1743439594.6138587,-0.117,-0.03,-0.976,0.56,-2.31,-0.28
1743439594.633859,-0.117,-0.031,-0.975,0.49,-2.45,-0.28
1743439594.653859,-0.116,-0.031,-0.976,0.49,-2.38,-0.35
1743439594.6738586,-0.117,-0.028,-0.975,0.42,-2.45,-0.28
1743439594.6938586,-0.117,-0.028,-0.978,0.49,-2.45,-0.42
1743439594.7138586,-0.115,-0.031,-0.976,0.42,-2.52,-0.42
1743439594.7338586,-0.115,-0.03,-0.977,0.56,-2.52,-0.35
1743439594.7538586,-0.117,-0.028,-0.977,0.49,-2.45,-0.35
1743439594.7738583,-0.115,-0.027,-0.976,0.28,-2.52,-0.35
1743439594.7938583,-0.116,-0.028,-0.975,0.28,-2.45,-0.28
1743439594.8138585,-0.115,-0.03,-0.977,0.49,-2.45,-0.49
1743439594.8338585,-0.117,-0.03,-0.975,0.28,-2.59,-0.42
1743439594.8538585,-0.116,-0.03,-0.978,0.49,-2.45,-0.35
1743439594.8738585,-0.118,-0.03,-0.976,0.49,-2.31,-0.49
1743439594.8938584,-0.118,-0.029,-0.976,0.21,-2.38,-0.42
1743439594.9138584,-0.117,-0.029,-0.979,0.42,-2.52,-0.49
1743439594.9338584,-0.116,-0.03,-0.975,0.42,-2.45,-0.49
1743439594.9538584,-0.117,-0.029,-0.976,0.63,-2.31,-0.49
1743439594.9738584,-0.117,-0.029,-0.976,0.21,-2.59,-0.49
1743439594.9938583,-0.119,-0.03,-0.979,0.28,-2.45,-0.49
1743439595.0138583,-0.116,-0.03,-0.975,0.7,-2.24,-0.56
1743439595.0338583,-0.116,-0.029,-0.976,0.49,-2.24,-0.49
1743439595.0538585,-0.117,-0.028,-0.976,0.49,-2.38,-0.42
1743439595.0738585,-0.116,-0.027,-0.978,0.84,-2.31,-0.35
1743439595.0938582,-0.116,-0.029,-0.977,0.84,-2.38,-0.35
1743439595.1138582,-0.116,-0.03,-0.976,0.56,-2.52,-0.28
1743439595.1338582,-0.119,-0.031,-0.975,0.7,-2.52,-0.28
1743439595.1538582,-0.115,-0.03,-0.976,0.35,-2.52,-0.35
1743439595.1738582,-0.116,-0.03,-0.976,0.63,-2.38,-0.35
1743439595.193858,-0.117,-0.031,-0.975,0.56,-2.52,-0.42
1743439595.213858,-0.118,-0.031,-0.976,0.56,-2.45,-0.35
1743439595.233858,-0.117,-0.033,-0.976,0.49,-2.59,-0.42
1743439595.253858,-0.116,-0.029,-0.977,0.42,-2.45,-0.42
1743439595.273858,-0.118,-0.031,-0.976,0.7,-2.38,-0.35
1743439595.293858,-0.115,-0.03,-0.975,0.63,-2.31,-0.42
1743439595.313858,-0.114,-0.03,-0.976,0.42,-2.45,-0.35
1743439595.333858,-0.113,-0.03,-0.976,0.21,-2.45,-0.35
1743439595.353858,-0.117,-0.026,-0.978,0.56,-2.31,-0.35
1743439595.373858,-0.115,-0.027,-0.976,0.56,-2.31,-0.42
1743439595.393858,-0.116,-0.028,-0.976,0.42,-2.31,-0.42
1743439595.413858,-0.116,-0.029,-0.973,0.56,-2.45,-0.42
1743439595.433858,-0.116,-0.029,-0.976,0.63,-2.45,-0.49
1743439595.453858,-0.114,-0.031,-0.98,0.49,-2.45,-0.42
1743439595.473858,-0.115,-0.031,-0.977,0.56,-2.52,-0.42
1743439595.493858,-0.115,-0.031,-0.977,0.49,-2.45,-0.49
1743439595.5138578,-0.116,-0.032,-0.976,0.42,-2.38,-0.35
1743439595.5338578,-0.114,-0.031,-0.979,0.42,-2.52,-0.28
1743439595.5538578,-0.115,-0.03,-0.975,0.49,-2.52,-0.42
1743439595.5738578,-0.116,-0.03,-0.975,0.49,-2.38,-0.35
1743439595.5938578,-0.117,-0.031,-0.979,0.42,-2.52,-0.42
1743439595.6138575,-0.114,-0.032,-0.979,0.49,-2.59,-0.35
1743439595.650023,-0.113,-0.03,-0.978,0.63,-2.52,-0.35
1743439595.670023,-0.115,-0.029,-0.975,0.42,-2.52,-0.35
1743439595.690023,-0.114,-0.032,-0.975,0.42,-2.31,-0.35
1743439595.710023,-0.113,-0.029,-0.976,0.7,-2.38,-0.42
1743439595.730023,-0.115,-0.031,-0.977,0.56,-2.38,-0.35
1743439595.750023,-0.116,-0.031,-0.976,0.35,-2.45,-0.35
1743439595.7700229,-0.118,-0.032,-0.977,0.49,-2.52,-0.35
1743439595.7900229,-0.116,-0.031,-0.976,0.49,-2.52,-0.35
1743439595.8100228,-0.117,-0.032,-0.976,0.42,-2.52,-0.35
1743439595.8300228,-0.114,-0.03,-0.978,0.35,-2.45,-0.35
1743439595.8500228,-0.114,-0.031,-0.976,0.56,-2.31,-0.42
1743439595.8700228,-0.116,-0.032,-0.975,0.35,-2.31,-0.42
1743439595.8900228,-0.114,-0.029,-0.977,0.21,-2.45,-0.42
1743439595.9100227,-0.116,-0.031,-0.977,0.42,-2.38,-0.35
1743439595.9300227,-0.117,-0.03,-0.976,0.56,-2.31,-0.42
1743439595.9500227,-0.116,-0.031,-0.977,0.42,-2.24,-0.42
1743439595.970023,-0.117,-0.031,-0.977,0.49,-2.38,-0.42
1743439595.990023,-0.117,-0.033,-0.976,0.56,-2.31,-0.49
1743439596.0100226,-0.114,-0.031,-0.978,0.63,-2.31,-0.42
1743439596.0300226,-0.115,-0.03,-0.976,0.49,-2.52,-0.35
1743439596.0500226,-0.115,-0.031,-0.976,0.56,-2.52,-0.35
1743439596.0700226,-0.115,-0.031,-0.976,0.56,-2.38,-0.35
1743439596.0900226,-0.119,-0.03,-0.978,0.49,-2.59,-0.42
1743439596.1100223,-0.116,-0.03,-0.977,0.49,-2.52,-0.42
1743439596.1300223,-0.115,-0.03,-0.977,0.63,-2.45,-0.35
1743439596.1500225,-0.114,-0.032,-0.975,0.56,-2.52,-0.42
1743439596.1700225,-0.118,-0.032,-0.976,0.42,-2.59,-0.35
1743439596.1900225,-0.117,-0.032,-0.976,0.42,-2.52,-0.35
1743439596.2100224,-0.116,-0.031,-0.975,0.49,-2.38,-0.35
1743439596.2300224,-0.118,-0.03,-0.977,0.42,-2.38,-0.35
1743439596.2500224,-0.117,-0.03,-0.978,0.63,-2.52,-0.42
1743439596.2700224,-0.118,-0.031,-0.978,0.63,-2.45,-0.42
1743439596.2900224,-0.116,-0.032,-0.975,0.63,-2.52,-0.35
1743439596.3100224,-0.115,-0.031,-0.978,0.49,-2.45,-0.35
1743439596.3300223,-0.115,-0.03,-0.976,0.7,-2.38,-0.42
1743439596.3500223,-0.113,-0.031,-0.977,0.63,-2.45,-0.49
1743439596.3700223,-0.116,-0.033,-0.978,0.35,-2.31,-0.42
1743439596.3900225,-0.116,-0.032,-0.976,0.49,-2.38,-0.35
1743439596.4100225,-0.115,-0.032,-0.976,0.7,-2.52,-0.42
1743439596.4300222,-0.116,-0.031,-0.977,0.49,-2.59,-0.35
1743439596.4500222,-0.115,-0.032,-0.978,0.35,-2.52,-0.42
1743439596.4700222,-0.115,-0.031,-0.978,0.56,-2.52,-0.42
1743439596.4900222,-0.116,-0.031,-0.978,0.56,-2.66,-0.35
1743439596.5100222,-0.113,-0.031,-0.976,0.56,-2.38,-0.42
1743439596.530022,-0.115,-0.033,-0.979,0.49,-2.59,-0.35
1743439596.550022,-0.115,-0.031,-0.974,0.63,-2.52,-0.42
1743439596.570022,-0.117,-0.031,-0.976,0.42,-2.59,-0.35
1743439596.590022,-0.115,-0.032,-0.979,0.49,-2.45,-0.28
1743439596.610022,-0.115,-0.03,-0.977,0.56,-2.45,-0.42
1743439596.630022,-0.115,-0.032,-0.977,0.42,-2.45,-0.35
1743439596.650022,-0.116,-0.033,-0.977,0.42,-2.52,-0.35
1743439596.670022,-0.115,-0.032,-0.975,0.42,-2.52,-0.35
1743439596.690022,-0.113,-0.032,-0.977,0.63,-2.45,-0.42
1743439596.710022,-0.117,-0.032,-0.977,0.42,-2.38,-0.49
1743439596.730022,-0.113,-0.031,-0.979,0.35,-2.52,-0.42
1743439596.750022,-0.115,-0.033,-0.978,0.56,-2.45,-0.35
1743439596.770022,-0.114,-0.033,-0.976,0.63,-2.52,-0.49
1743439596.790022,-0.115,-0.032,-0.976,0.35,-2.31,-0.42
1743439596.810022,-0.114,-0.032,-0.977,0.42,-2.52,-0.49
1743439596.830022,-0.114,-0.031,-0.976,0.63,-2.31,-0.35
1743439596.8500218,-0.116,-0.034,-0.977,0.21,-2.38,-0.42
1743439596.8700218,-0.114,-0.033,-0.974,0.35,-2.45,-0.42
1743439596.8900218,-0.115,-0.032,-0.976,0.49,-2.45,-0.42
1743439596.9100218,-0.115,-0.034,-0.975,0.56,-2.38,-0.49
1743439596.9300218,-0.115,-0.032,-0.978,0.42,-2.45,-0.42
1743439596.9500215,-0.117,-0.033,-0.976,0.28,-2.59,-0.35
1743439596.9700215,-0.117,-0.031,-0.975,0.35,-2.45,-0.42
1743439596.9900217,-0.117,-0.033,-0.975,0.42,-2.52,-0.42
1743439597.0100217,-0.114,-0.031,-0.976,0.35,-2.45,-0.42
1743439597.0300217,-0.113,-0.031,-0.975,0.42,-2.38,-0.35
1743439597.0500216,-0.117,-0.032,-0.976,0.49,-2.52,-0.42
1743439597.0700216,-0.114,-0.032,-0.976,0.42,-2.45,-0.42
1743439597.0900216,-0.114,-0.034,-0.976,0.49,-2.52,-0.28
1743439597.1100216,-0.114,-0.032,-0.976,0.28,-2.52,-0.42
1743439597.1300216,-0.115,-0.033,-0.977,0.28,-2.38,-0.35
1743439597.1500216,-0.116,-0.033,-0.976,0.42,-2.45,-0.49
1743439597.1700215,-0.117,-0.031,-0.977,0.56,-2.45,-0.35
1743439597.1900215,-0.113,-0.033,-0.977,0.28,-2.52,-0.35
1743439597.2100215,-0.115,-0.03,-0.976,0.42,-2.52,-0.42
1743439597.2300217,-0.115,-0.032,-0.977,0.42,-2.45,-0.42
1743439597.2500217,-0.115,-0.032,-0.977,0.63,-2.31,-0.49
1743439597.2700214,-0.115,-0.032,-0.977,0.35,-2.38,-0.42
1743439597.2900214,-0.116,-0.03,-0.976,0.28,-2.45,-0.35
1743439597.3100214,-0.113,-0.033,-0.976,0.42,-2.31,-0.49
1743439597.3300214,-0.114,-0.031,-0.978,0.49,-2.38,-0.42
1743439597.3500214,-0.117,-0.032,-0.977,0.42,-2.52,-0.49
1743439597.370021,-0.116,-0.033,-0.976,0.42,-2.45,-0.42
1743439597.390021,-0.114,-0.032,-0.976,0.42,-2.38,-0.42
1743439597.4100213,-0.114,-0.032,-0.977,0.35,-2.45,-0.28
1743439597.4300213,-0.115,-0.034,-0.977,0.49,-2.59,-0.42
1743439597.4500213,-0.116,-0.033,-0.976,0.35,-2.45,-0.42
1743439597.4700212,-0.116,-0.03,-0.978,0.42,-2.45,-0.49
1743439597.4900212,-0.114,-0.034,-0.979,0.35,-2.52,-0.35
1743439597.5100212,-0.115,-0.032,-0.976,0.56,-2.52,-0.42
1743439597.5300212,-0.117,-0.033,-0.975,0.49,-2.59,-0.35
1743439597.5500212,-0.113,-0.034,-0.978,0.42,-2.45,-0.28
1743439597.5700212,-0.114,-0.032,-0.977,0.49,-2.59,-0.28
1743439597.5900211,-0.116,-0.032,-0.977,0.42,-2.52,-0.35
1743439597.610021,-0.116,-0.034,-0.978,0.35,-2.45,-0.42
1743439597.630021,-0.114,-0.032,-0.976,0.28,-2.52,-0.28
1743439597.650021,-0.118,-0.033,-0.978,0.49,-2.38,-0.35
1743439597.670021,-0.114,-0.032,-0.979,0.42,-2.59,-0.42
1743439597.690021,-0.117,-0.03,-0.977,0.28,-2.59,-0.35
1743439597.710021,-0.115,-0.031,-0.976,0.63,-2.52,-0.49
1743439597.730021,-0.115,-0.035,-0.976,0.56,-2.52,-0.35
1743439597.750021,-0.115,-0.032,-0.977,0.28,-2.59,-0.35
1743439597.770021,-0.114,-0.034,-0.978,0.56,-2.45,-0.42
1743439597.790021,-0.114,-0.032,-0.977,0.35,-2.38,-0.42
1743439597.810021,-0.116,-0.032,-0.977,0.28,-2.59,-0.49
1743439597.830021,-0.115,-0.035,-0.979,0.49,-2.52,-0.49
1743439597.850021,-0.114,-0.032,-0.976,0.49,-2.52,-0.42
1743439597.8700209,-0.116,-0.032,-0.977,0.42,-2.45,-0.35
1743439597.8900208,-0.115,-0.033,-0.977,0.35,-2.45,-0.35
1743439597.9100208,-0.116,-0.034,-0.975,0.63,-2.38,-0.35
1743439597.9300208,-0.116,-0.032,-0.977,0.49,-2.52,-0.35
1743439597.9500208,-0.114,-0.032,-0.977,0.42,-2.52,-0.49
1743439597.9700208,-0.114,-0.033,-0.978,0.49,-2.59,-0.42
1743439597.9900208,-0.114,-0.031,-0.979,0.63,-2.38,-0.49
1743439598.0100207,-0.114,-0.032,-0.977,0.42,-2.59,-0.35
1743439598.0300207,-0.115,-0.031,-0.978,0.42,-2.59,-0.42
1743439598.0500207,-0.114,-0.033,-0.976,0.56,-2.59,-0.35
1743439598.070021,-0.117,-0.033,-0.976,0.63,-2.52,-0.35
1743439598.090021,-0.115,-0.033,-0.978,0.28,-2.52,-0.35
1743439598.1100206,-0.114,-0.031,-0.978,0.42,-2.38,-0.35
1743439598.1300206,-0.116,-0.031,-0.976,0.49,-2.24,-0.42
1743439598.1500206,-0.116,-0.034,-0.976,0.56,-2.45,-0.42
1743439598.1700206,-0.116,-0.035,-0.976,0.35,-2.45,-0.42
1743439598.1900206,-0.116,-0.033,-0.978,0.63,-2.38,-0.35
1743439598.2100203,-0.116,-0.031,-0.976,0.56,-2.45,-0.35
1743439598.2300203,-0.114,-0.034,-0.976,0.35,-2.52,-0.35
1743439598.2500205,-0.115,-0.035,-0.974,0.42,-2.59,-0.35
1743439598.2700205,-0.116,-0.033,-0.976,0.35,-2.38,-0.49
1743439598.2900205,-0.115,-0.033,-0.976,-0.07,-2.66,-0.63
1743439598.3100204,-0.116,-0.032,-0.978,0.42,-2.24,-0.49
1743439598.3300204,-0.111,-0.031,-0.977,0.28,-2.45,-0.42
1743439598.3500204,-0.116,-0.034,-0.976,0.21,-2.52,-0.42
1743439598.3700204,-0.114,-0.034,-0.977,0.28,-2.59,-0.49
1743439598.3900204,-0.114,-0.029,-0.979,0.35,-2.52,-0.42
1743439598.4100204,-0.114,-0.031,-0.977,0.49,-2.66,-0.35
1743439598.4300203,-0.113,-0.031,-0.978,0.21,-2.59,-0.35
1743439598.4500203,-0.117,-0.032,-0.976,0.28,-2.73,-0.28
1743439598.4700203,-0.115,-0.029,-0.976,0.49,-2.52,-0.35
1743439598.4900205,-0.115,-0.03,-0.974,0.42,-2.52,-0.35
1743439598.5100205,-0.114,-0.034,-0.977,0.28,-2.59,-0.35
1743439598.5300202,-0.117,-0.035,-0.976,0.49,-2.45,-0.42
1743439598.5500202,-0.116,-0.032,-0.974,0.35,-2.45,-0.42
1743439598.5700202,-0.115,-0.031,-0.976,0.42,-2.38,-0.35
1743439598.5900202,-0.114,-0.034,-0.976,0.63,-2.38,-0.35
1743439598.6100202,-0.114,-0.034,-0.976,0.49,-2.59,-0.42
1743439598.63002,-0.113,-0.033,-0.976,0.28,-2.59,-0.35
1743439598.65002,-0.117,-0.033,-0.976,0.21,-2.52,-0.49
1743439598.67002,-0.116,-0.032,-0.977,0.56,-2.31,-0.42
1743439598.69002,-0.113,-0.033,-0.975,0.35,-2.31,-0.42
1743439598.71002,-0.114,-0.033,-0.978,0.28,-2.52,-0.35
1743439598.73002,-0.115,-0.033,-0.977,0.35,-2.66,-0.28
1743439598.75002,-0.116,-0.032,-0.975,0.42,-2.52,-0.35
1743439598.77002,-0.115,-0.031,-0.978,0.28,-2.52,-0.42
1743439598.79002,-0.115,-0.034,-0.979,0.35,-2.45,-0.42
1743439598.81002,-0.113,-0.033,-0.978,0.49,-2.52,-0.42
1743439598.83002,-0.115,-0.031,-0.977,0.35,-2.45,-0.49
1743439598.85002,-0.116,-0.033,-0.978,0.42,-2.52,-0.42
1743439598.87002,-0.114,-0.033,-0.974,0.49,-2.45,-0.42
1743439598.89002,-0.114,-0.034,-0.978,0.42,-2.52,-0.35
1743439598.91002,-0.115,-0.031,-0.976,0.28,-2.45,-0.35
1743439598.93002,-0.114,-0.033,-0.977,0.49,-2.45,-0.35
1743439598.9500198,-0.115,-0.034,-0.974,0.49,-2.45,-0.42
1743439598.9700198,-0.114,-0.032,-0.977,0.49,-2.31,-0.42
1743439598.9900198,-0.115,-0.033,-0.977,0.35,-2.45,-0.42
1743439599.0100198,-0.116,-0.034,-0.979,0.42,-2.38,-0.42
1743439599.0300198,-0.115,-0.032,-0.978,0.56,-2.52,-0.42
1743439599.0500195,-0.115,-0.031,-0.978,0.49,-2.38,-0.42
1743439599.0700195,-0.114,-0.032,-0.977,0.49,-2.45,-0.42
1743439599.0900197,-0.116,-0.033,-0.976,0.49,-2.52,-0.35
1743439599.1100197,-0.115,-0.032,-0.976,0.63,-2.52,-0.42
1743439599.1300197,-0.114,-0.033,-0.978,0.35,-2.52,-0.35
1743439599.1500196,-0.114,-0.034,-0.977,0.56,-2.45,-0.42
1743439599.1700196,-0.115,-0.034,-0.975,0.56,-2.52,-0.42
1743439599.1900196,-0.114,-0.035,-0.977,0.35,-2.45,-0.42
1743439599.2100196,-0.115,-0.033,-0.977,0.21,-2.73,-0.35
1743439599.2300196,-0.114,-0.031,-0.976,0.49,-2.59,-0.42
1743439599.2500196,-0.116,-0.031,-0.977,0.49,-2.52,-0.49
1743439599.2700195,-0.114,-0.03,-0.976,0.42,-2.38,-0.35
1743439599.2900195,-0.112,-0.032,-0.976,0.28,-2.45,-0.42
1743439599.3100195,-0.115,-0.031,-0.976,0.56,-2.45,-0.42
1743439599.3300197,-0.115,-0.032,-0.974,0.42,-2.59,-0.28
1743439599.3500197,-0.114,-0.032,-0.975,0.35,-2.59,-0.35
1743439599.3700194,-0.117,-0.032,-0.976,0.49,-2.52,-0.35
1743439599.3900194,-0.114,-0.032,-0.975,0.56,-2.52,-0.35
1743439599.4100194,-0.115,-0.032,-0.978,0.35,-2.52,-0.35
1743439599.4300194,-0.118,-0.032,-0.976,0.49,-2.52,-0.49
1743439599.4500194,-0.116,-0.031,-0.978,0.42,-2.45,-0.35
1743439599.470019,-0.116,-0.033,-0.979,0.35,-2.38,-0.35
1743439599.490019,-0.114,-0.034,-0.977,0.28,-2.45,-0.49
1743439599.5100193,-0.117,-0.033,-0.978,0.49,-2.59,-0.42
1743439599.5300193,-0.115,-0.033,-0.978,0.49,-2.31,-0.42
1743439599.5500193,-0.115,-0.033,-0.978,0.28,-2.59,-0.42
1743439599.5700192,-0.114,-0.033,-0.975,0.42,-2.52,-0.42
1743439599.5900192,-0.117,-0.032,-0.977,0.49,-2.45,-0.35
1743439599.6100192,-0.116,-0.033,-0.978,0.42,-2.38,-0.42
1743439599.6300192,-0.114,-0.034,-0.976,0.28,-2.45,-0.28
1743439599.6500192,-0.115,-0.031,-0.977,0.42,-2.59,-0.42
1743439599.6700191,-0.114,-0.032,-0.974,0.56,-2.45,-0.42
1743439599.6900191,-0.114,-0.031,-0.977,0.35,-2.38,-0.35
1743439599.710019,-0.113,-0.033,-0.976,0.21,-2.59,-0.49
1743439599.730019,-0.116,-0.031,-0.976,0.49,-2.45,-0.49
1743439599.750019,-0.114,-0.032,-0.978,0.7,-2.45,-0.35
1743439599.770019,-0.114,-0.032,-0.976,0.35,-2.59,-0.42
1743439599.790019,-0.115,-0.032,-0.976,0.42,-2.31,-0.42
1743439599.810019,-0.113,-0.034,-0.976,0.42,-2.38,-0.42
1743439599.830019,-0.115,-0.033,-0.976,0.42,-2.45,-0.49
1743439599.850019,-0.116,-0.031,-0.975,0.07,-2.59,-0.35
1743439599.870019,-0.116,-0.031,-0.977,0.42,-2.45,-0.49
1743439599.890019,-0.115,-0.03,-0.975,0.42,-2.38,-0.42
1743439599.910019,-0.113,-0.032,-0.975,0.42,-2.31,-0.42
1743439599.930019,-0.113,-0.034,-0.977,0.28,-2.66,-0.35
1743439599.950019,-0.113,-0.034,-0.976,0.28,-2.45,-0.28
1743439599.9700189,-0.115,-0.031,-0.977,0.35,-2.45,-0.42
1743439599.9900188,-0.112,-0.034,-0.977,0.21,-2.52,-0.35
1743439600.0100188,-0.114,-0.032,-0.976,0.35,-2.52,-0.35
1743439600.0300188,-0.114,-0.031,-0.975,0.63,-2.38,-0.35
1743439600.0500188,-0.114,-0.033,-0.975,0.35,-2.45,-0.42
1743439600.0700188,-0.115,-0.035,-0.977,0.21,-2.45,-0.49
1743439600.0900187,-0.114,-0.031,-0.976,0.56,-2.38,-0.42
1743439600.1100187,-0.116,-0.034,-0.975,0.21,-2.31,-0.42
1743439600.1300187,-0.114,-0.032,-0.977,0.28,-2.45,-0.42
1743439600.1500187,-0.112,-0.031,-0.978,0.42,-2.45,-0.35
1743439600.170019,-0.115,-0.032,-0.977,0.28,-2.59,-0.42
1743439600.190019,-0.115,-0.032,-0.978,0.21,-2.52,-0.35
1743439600.2100186,-0.118,-0.03,-0.979,0.28,-2.52,-0.35
1743439600.2300186,-0.116,-0.034,-0.976,0.42,-2.38,-0.42
1743439600.2500186,-0.116,-0.033,-0.978,0.42,-2.52,-0.49
1743439600.2700186,-0.116,-0.031,-0.979,0.42,-2.45,-0.49
1743439600.2900186,-0.116,-0.034,-0.977,0.28,-2.52,-0.42
1743439600.3100183,-0.114,-0.034,-0.976,0.49,-2.38,-0.49
1743439600.3300183,-0.113,-0.032,-0.975,0.35,-2.45,-0.56
1743439600.3500185,-0.114,-0.03,-0.977,0.28,-2.45,-0.49
1743439600.3700185,-0.115,-0.032,-0.977,0.35,-2.52,-0.42
1743439600.3900185,-0.114,-0.031,-0.978,0.42,-2.38,-0.35
1743439600.4100184,-0.115,-0.031,-0.976,0.21,-2.59,-0.35
1743439600.4300184,-0.115,-0.03,-0.978,0.14,-2.66,-0.35
1743439600.4500184,-0.115,-0.033,-0.976,0.35,-2.45,-0.42
1743439600.4700184,-0.115,-0.031,-0.977,0.28,-2.38,-0.35
1743439600.4900184,-0.114,-0.033,-0.98,0.14,-2.52,-0.42
1743439600.5100183,-0.113,-0.032,-0.977,0.42,-2.59,-0.35
1743439600.5300183,-0.114,-0.032,-0.978,0.35,-2.66,-0.35
1743439600.5500183,-0.116,-0.031,-0.976,0.14,-2.52,-0.35
1743439600.5700183,-0.114,-0.031,-0.977,0.14,-2.45,-0.42
1743439600.5900185,-0.113,-0.032,-0.976,0.49,-2.59,-0.42
1743439600.6100185,-0.115,-0.033,-0.976,0.56,-2.38,-0.42
1743439600.6300182,-0.113,-0.033,-0.977,0.28,-2.52,-0.42
1743439600.6500182,-0.113,-0.032,-0.979,0.28,-2.59,-0.35
1743439600.6700182,-0.112,-0.03,-0.976,0.42,-2.52,-0.49
1743439600.6900182,-0.115,-0.03,-0.976,0.28,-2.52,-0.35
1743439600.7100182,-0.114,-0.03,-0.976,0.35,-2.52,-0.49
1743439600.730018,-0.113,-0.032,-0.978,0.42,-2.45,-0.42
1743439600.750018,-0.115,-0.029,-0.976,0.42,-2.45,-0.42
1743439600.770018,-0.117,-0.032,-0.977,0.28,-2.45,-0.42
1743439600.790018,-0.117,-0.033,-0.976,0.35,-2.52,-0.42
1743439600.810018,-0.114,-0.032,-0.975,0.35,-2.59,-0.35
1743439600.830018,-0.115,-0.031,-0.977,0.42,-2.38,-0.42
1743439600.850018,-0.114,-0.033,-0.979,0.35,-2.59,-0.28
1743439600.870018,-0.115,-0.031,-0.977,0.35,-2.59,-0.42
1743439600.890018,-0.114,-0.033,-0.976,0.35,-2.45,-0.42
1743439600.910018,-0.117,-0.03,-0.978,0.49,-2.52,-0.42
1743439600.930018,-0.117,-0.031,-0.977,0.42,-2.66,-0.42
1743439600.950018,-0.115,-0.036,-0.979,0.56,-2.52,-0.42
1743439600.970018,-0.112,-0.032,-0.975,0.49,-2.66,-0.49
1743439600.990018,-0.115,-0.032,-0.976,0.56,-2.59,-0.42
1743439601.010018,-0.115,-0.031,-0.976,0.28,-2.45,-0.42
1743439601.030018,-0.114,-0.03,-0.976,0.56,-2.45,-0.35
1743439601.0500178,-0.117,-0.033,-0.976,0.56,-2.38,-0.28
1743439601.0700178,-0.116,-0.03,-0.976,0.42,-2.45,-0.35
1743439601.0900178,-0.117,-0.032,-0.977,0.21,-2.59,-0.35
1743439601.1100178,-0.115,-0.034,-0.978,0.49,-2.38,-0.49
1743439601.1300178,-0.116,-0.031,-0.976,0.42,-2.38,-0.42
1743439601.1500175,-0.112,-0.033,-0.973,0.28,-2.52,-0.35
1743439601.1700175,-0.116,-0.03,-0.975,0.21,-2.52,-0.42
1743439601.1900177,-0.113,-0.029,-0.976,0.49,-2.45,-0.42
1743439601.2100177,-0.117,-0.031,-0.977,0.28,-2.52,-0.35
1743439601.2300177,-0.116,-0.03,-0.977,0.35,-2.59,-0.21
1743439601.2500176,-0.117,-0.03,-0.977,0.42,-2.52,-0.42
1743439601.2700176,-0.117,-0.032,-0.975,0.49,-2.45,-0.35
1743439601.2900176,-0.115,-0.031,-0.976,0.49,-2.45,-0.35
1743439601.3100176,-0.114,-0.033,-0.978,0.35,-2.59,-0.42
1743439601.3300176,-0.116,-0.031,-0.978,0.56,-2.45,-0.42
1743439601.3500175,-0.116,-0.033,-0.976,0.42,-2.45,-0.49
1743439601.3700175,-0.117,-0.032,-0.98,0.42,-2.59,-0.42
1743439601.3900175,-0.115,-0.032,-0.976,0.49,-2.66,-0.42
1743439601.4100175,-0.114,-0.031,-0.973,0.7,-2.31,-0.56
1743439601.4300177,-0.116,-0.031,-0.976,0.49,-2.52,-0.42
1743439601.4500177,-0.114,-0.033,-0.976,0.42,-2.45,-0.42
1743439601.4700174,-0.116,-0.033,-0.975,0.49,-2.45,-0.35
1743439601.4900174,-0.115,-0.03,-0.977,0.35,-2.38,-0.49
1743439601.5100174,-0.116,-0.032,-0.977,0.28,-2.38,-0.28
1743439601.5300174,-0.116,-0.031,-0.977,0.21,-2.45,-0.42
1743439601.5500174,-0.115,-0.031,-0.979,0.49,-2.38,-0.49
1743439601.570017,-0.114,-0.031,-0.977,0.56,-2.38,-0.49
1743439601.5900173,-0.114,-0.032,-0.98,0.35,-2.52,-0.35
1743439601.6100173,-0.114,-0.03,-0.974,0.35,-2.31,-0.42
1743439601.6300173,-0.114,-0.03,-0.976,0.35,-2.52,-0.42
1743439601.6500173,-0.115,-0.033,-0.978,0.21,-2.59,-0.28
1743439601.6700172,-0.115,-0.031,-0.976,0.28,-2.45,-0.42
1743439601.6900172,-0.117,-0.031,-0.976,0.56,-2.52,-0.42
1743439601.7100172,-0.117,-0.03,-0.976,0.28,-2.52,-0.42
1743439601.7300172,-0.112,-0.035,-0.978,0.21,-2.45,-0.28
1743439601.7500172,-0.117,-0.032,-0.978,0.42,-2.45,-0.35
1743439601.7700171,-0.115,-0.031,-0.978,0.56,-2.52,-0.28
1743439601.7900171,-0.115,-0.031,-0.976,0.42,-2.52,-0.35
1743439601.810017,-0.116,-0.031,-0.976,0.28,-2.52,-0.49
1743439601.830017,-0.114,-0.032,-0.976,0.28,-2.45,-0.42
1743439601.850017,-0.114,-0.031,-0.976,0.56,-2.38,-0.42
1743439601.870017,-0.115,-0.032,-0.975,0.49,-2.45,-0.35
1743439601.890017,-0.114,-0.03,-0.978,0.21,-2.59,-0.42
1743439601.910017,-0.115,-0.032,-0.975,0.42,-2.45,-0.42
1743439601.930017,-0.116,-0.031,-0.979,0.42,-2.31,-0.42
1743439601.950017,-0.116,-0.031,-0.976,0.28,-2.52,-0.42
1743439601.970017,-0.114,-0.032,-0.977,0.49,-2.52,-0.35
1743439601.990017,-0.116,-0.031,-0.978,0.56,-2.52,-0.35
1743439602.010017,-0.116,-0.031,-0.976,0.14,-2.52,-0.42
1743439602.030017,-0.115,-0.031,-0.977,0.35,-2.59,-0.42
1743439602.0500169,-0.116,-0.03,-0.976,0.63,-2.38,-0.42
1743439602.0700169,-0.116,-0.032,-0.976,0.35,-2.59,-0.42
1743439602.0900168,-0.115,-0.033,-0.976,0.28,-2.52,-0.35
1743439602.1100168,-0.115,-0.032,-0.974,0.14,-2.59,-0.28
1743439602.1300168,-0.115,-0.032,-0.974,0.56,-2.45,-0.42
1743439602.1500168,-0.115,-0.031,-0.976,0.42,-2.45,-0.35
1743439602.1700168,-0.117,-0.032,-0.977,0.21,-2.59,-0.35
1743439602.1900167,-0.116,-0.03,-0.978,0.49,-2.45,-0.49
1743439602.2100167,-0.115,-0.03,-0.976,0.56,-2.52,-0.42
1743439602.2300167,-0.114,-0.032,-0.977,0.35,-2.52,-0.35
1743439602.2500167,-0.115,-0.032,-0.977,0.21,-2.59,-0.42
1743439602.270017,-0.116,-0.032,-0.976,0.63,-2.45,-0.42
1743439602.290017,-0.114,-0.03,-0.975,0.56,-2.45,-0.35
1743439602.3100166,-0.114,-0.028,-0.976,0.28,-2.52,-0.42
1743439602.3300166,-0.113,-0.03,-0.975,0.42,-2.59,-0.28
1743439602.3500166,-0.114,-0.032,-0.977,0.7,-2.38,-0.35
1743439602.3700166,-0.114,-0.032,-0.98,0.35,-2.52,-0.49
1743439602.3900166,-0.113,-0.032,-0.981,0.14,-2.73,-0.35
1743439602.4100163,-0.116,-0.032,-0.977,0.56,-2.52,-0.42
1743439602.4300165,-0.115,-0.029,-0.976,0.7,-2.45,-0.49
1743439602.4500165,-0.115,-0.031,-0.978,0.35,-2.52,-0.35
1743439602.4700165,-0.116,-0.029,-0.977,0.42,-2.59,-0.42
1743439602.4900165,-0.116,-0.03,-0.976,0.77,-2.59,-0.42
1743439602.5100164,-0.115,-0.032,-0.978,0.35,-2.66,-0.28
1743439602.5300164,-0.114,-0.031,-0.978,0.28,-2.66,-0.35
1743439602.5500164,-0.114,-0.031,-0.978,0.63,-2.38,-0.42
1743439602.5700164,-0.114,-0.031,-0.972,0.56,-2.38,-0.35
1743439602.5900164,-0.115,-0.03,-0.976,0.21,-2.45,-0.42
1743439602.6100163,-0.115,-0.031,-0.976,0.21,-2.59,-0.42
1743439602.6300163,-0.116,-0.033,-0.976,0.63,-2.45,-0.42
1743439602.6500163,-0.116,-0.031,-0.977,0.56,-2.45,-0.42
1743439602.6700163,-0.115,-0.032,-0.979,0.35,-2.52,-0.42
1743439602.6900165,-0.116,-0.033,-0.975,0.28,-2.59,-0.42
1743439602.7100165,-0.115,-0.032,-0.975,0.56,-2.45,-0.42
1743439602.7300162,-0.115,-0.03,-0.976,0.35,-2.45,-0.42
1743439602.7500162,-0.115,-0.032,-0.978,0.35,-2.52,-0.42
1743439602.7700162,-0.116,-0.032,-0.976,0.49,-2.52,-0.49
1743439602.7900162,-0.116,-0.032,-0.975,0.56,-2.45,-0.35
1743439602.8100162,-0.114,-0.032,-0.978,0.42,-2.38,-0.35
1743439602.830016,-0.116,-0.032,-0.977,0.49,-2.45,-0.35
1743439602.850016,-0.116,-0.032,-0.976,0.49,-2.38,-0.42
1743439602.870016,-0.115,-0.031,-0.976,0.49,-2.38,-0.49
1743439602.890016,-0.115,-0.031,-0.977,0.42,-2.52,-0.42
1743439602.910016,-0.116,-0.031,-0.978,0.42,-2.59,-0.42
1743439602.930016,-0.115,-0.032,-0.976,0.35,-2.38,-0.35
1743439602.950016,-0.115,-0.03,-0.976,0.56,-2.52,-0.49
1743439602.970016,-0.116,-0.029,-0.977,0.35,-2.45,-0.35
1743439602.990016,-0.114,-0.029,-0.975,0.35,-2.52,-0.28
1743439603.010016,-0.116,-0.03,-0.976,0.42,-2.38,-0.42
1743439603.030016,-0.117,-0.031,-0.977,0.42,-2.38,-0.42
1743439603.050016,-0.114,-0.032,-0.979,0.28,-2.45,-0.42
1743439603.070016,-0.116,-0.031,-0.977,0.28,-2.52,-0.42
1743439603.090016,-0.117,-0.031,-0.978,0.42,-2.38,-0.42
1743439603.110016,-0.116,-0.031,-0.975,0.42,-2.45,-0.35
1743439603.130016,-0.116,-0.032,-0.976,0.28,-2.45,-0.35
1743439603.1500158,-0.115,-0.032,-0.975,0.35,-2.38,-0.49
1743439603.1700158,-0.117,-0.03,-0.977,0.49,-2.31,-0.42
1743439603.1900158,-0.115,-0.033,-0.977,0.28,-2.38,-0.42
1743439603.2100158,-0.115,-0.031,-0.979,0.28,-2.52,-0.35
1743439603.2300158,-0.117,-0.03,-0.976,0.49,-2.52,-0.42
1743439603.2500155,-0.118,-0.031,-0.977,0.35,-2.52,-0.35
1743439603.2700157,-0.114,-0.033,-0.979,0.35,-2.59,-0.35
1743439603.2900157,-0.112,-0.031,-0.976,0.28,-2.45,-0.35
1743439603.3100157,-0.114,-0.032,-0.976,0.56,-2.31,-0.42
1743439603.3300157,-0.115,-0.032,-0.979,0.35,-2.66,-0.35
1743439603.3500156,-0.115,-0.029,-0.978,0.28,-2.38,-0.49
1743439603.3700156,-0.115,-0.032,-0.975,0.42,-2.31,-0.42
1743439603.3900156,-0.114,-0.03,-0.977,0.42,-2.52,-0.35
1743439603.4100156,-0.116,-0.03,-0.977,0.35,-2.59,-0.35
1743439603.4300156,-0.113,-0.03,-0.977,0.35,-2.52,-0.42
1743439603.4500155,-0.115,-0.031,-0.976,0.7,-2.45,-0.49
1743439603.4700155,-0.115,-0.031,-0.978,0.28,-2.59,-0.42
1743439603.4900155,-0.113,-0.031,-0.977,0.35,-2.52,-0.35
1743439603.5100155,-0.114,-0.031,-0.976,0.63,-2.38,-0.35
1743439603.5300157,-0.114,-0.03,-0.977,0.56,-2.38,-0.35
1743439603.5500154,-0.113,-0.034,-0.976,0.21,-2.66,-0.42
1743439603.5700154,-0.116,-0.032,-0.977,0.42,-2.66,-0.35
1743439603.5900154,-0.115,-0.031,-0.978,0.42,-2.45,-0.35
1743439603.6100154,-0.115,-0.031,-0.976,0.63,-2.52,-0.35
1743439603.6300154,-0.114,-0.032,-0.979,0.28,-2.66,-0.42
1743439603.6500154,-0.116,-0.03,-0.977,0.49,-2.59,-0.35
1743439603.670015,-0.113,-0.031,-0.978,0.63,-2.45,-0.49
1743439603.6900153,-0.113,-0.031,-0.977,0.35,-2.59,-0.35
1743439603.7100153,-0.115,-0.031,-0.979,0.21,-2.59,-0.35
1743439603.7300153,-0.117,-0.03,-0.976,0.35,-2.59,-0.35
1743439603.7500153,-0.115,-0.03,-0.976,0.56,-2.45,-0.42
1743439603.7700152,-0.117,-0.03,-0.979,0.35,-2.59,-0.49
1743439603.7900152,-0.115,-0.031,-0.977,0.35,-2.73,-0.35
1743439603.8100152,-0.114,-0.032,-0.977,0.63,-2.59,-0.42
1743439603.8300152,-0.116,-0.029,-0.979,0.42,-2.52,-0.49
1743439603.8500152,-0.115,-0.032,-0.978,0.42,-2.45,-0.35
1743439603.8700151,-0.114,-0.033,-0.979,0.42,-2.52,-0.35
1743439603.8900151,-0.114,-0.033,-0.976,0.56,-2.45,-0.42
1743439603.910015,-0.117,-0.031,-0.977,0.28,-2.59,-0.42
1743439603.930015,-0.115,-0.031,-0.977,0.42,-2.45,-0.35
1743439603.950015,-0.115,-0.031,-0.977,0.42,-2.59,-0.42
1743439603.970015,-0.115,-0.03,-0.976,0.63,-2.38,-0.49
1743439603.990015,-0.113,-0.031,-0.976,0.28,-2.52,-0.42
1743439604.010015,-0.114,-0.031,-0.977,0.35,-2.73,-0.42
1743439604.030015,-0.114,-0.031,-0.975,0.56,-2.66,-0.35
1743439604.050015,-0.115,-0.031,-0.977,0.63,-2.52,-0.49
1743439604.070015,-0.115,-0.029,-0.979,0.28,-2.52,-0.49
1743439604.090015,-0.112,-0.032,-0.977,0.42,-2.38,-0.49
1743439604.110015,-0.114,-0.031,-0.976,0.63,-2.52,-0.56
1743439604.130015,-0.115,-0.032,-0.979,0.42,-2.52,-0.42
1743439604.1500149,-0.119,-0.03,-0.977,0.28,-2.52,-0.35
1743439604.1700149,-0.118,-0.03,-0.976,0.7,-2.24,-0.42
1743439604.1900148,-0.118,-0.03,-0.976,0.42,-2.31,-0.28
1743439604.2100148,-0.115,-0.032,-0.979,0.14,-2.52,-0.42
1743439604.2300148,-0.113,-0.032,-0.975,0.35,-2.52,-0.35
1743439604.2500148,-0.113,-0.032,-0.977,0.63,-2.24,-0.49
1743439604.2700148,-0.117,-0.03,-0.977,0.21,-2.45,-0.42
1743439604.2900147,-0.114,-0.03,-0.98,0.14,-2.59,-0.28
1743439604.3100147,-0.114,-0.03,-0.978,0.56,-2.52,-0.35
1743439604.3300147,-0.113,-0.032,-0.977,0.63,-2.45,-0.35
1743439604.3500147,-0.117,-0.034,-0.978,0.42,-2.45,-0.28
1743439604.370015,-0.116,-0.034,-0.976,0.28,-2.59,-0.35
1743439604.3900146,-0.114,-0.031,-0.978,0.35,-2.45,-0.42
1743439604.4100146,-0.116,-0.029,-0.977,0.42,-2.38,-0.42
1743439604.4300146,-0.117,-0.031,-0.98,0.28,-2.45,-0.42
1743439604.4500146,-0.116,-0.032,-0.977,0.49,-2.45,-0.42
1743439604.4700146,-0.115,-0.034,-0.975,0.42,-2.31,-0.49
1743439604.4900146,-0.113,-0.033,-0.976,0.21,-2.52,-0.35
1743439604.5100143,-0.116,-0.031,-0.977,0.28,-2.52,-0.42
1743439604.5300145,-0.117,-0.033,-0.975,0.49,-2.38,-0.42
1743439604.5500145,-0.116,-0.031,-0.976,0.28,-2.52,-0.35
1743439604.5700145,-0.115,-0.031,-0.977,0.35,-2.59,-0.42
1743439604.5900145,-0.115,-0.031,-0.977,0.56,-2.31,-0.49
1743439604.6100144,-0.116,-0.03,-0.977,0.63,-2.38,-0.35
1743439604.6300144,-0.116,-0.033,-0.977,0.28,-2.38,-0.42
1743439604.6500144,-0.116,-0.033,-0.976,0.28,-2.38,-0.49
1743439604.6700144,-0.115,-0.032,-0.976,0.49,-2.45,-0.42
1743439604.6900144,-0.113,-0.031,-0.976,0.56,-2.38,-0.42
1743439604.7100143,-0.115,-0.034,-0.976,0.35,-2.52,-0.42
1743439604.7300143,-0.116,-0.031,-0.977,0.28,-2.45,-0.35
1743439604.7500143,-0.113,-0.032,-0.975,0.49,-2.52,-0.35
1743439604.7700143,-0.115,-0.033,-0.977,0.35,-2.45,-0.35
1743439604.7900145,-0.114,-0.03,-0.979,0.35,-2.59,-0.42
1743439604.8100142,-0.115,-0.032,-0.975,0.49,-2.52,-0.35
1743439604.8300142,-0.115,-0.03,-0.976,0.42,-2.45,-0.42
1743439604.8500142,-0.115,-0.031,-0.976,0.35,-2.45,-0.42
1743439604.8700142,-0.117,-0.031,-0.976,0.35,-2.66,-0.42
1743439604.8900142,-0.115,-0.032,-0.976,0.49,-2.59,-0.35
1743439604.9100142,-0.114,-0.031,-0.976,0.56,-2.31,-0.35
1743439604.930014,-0.115,-0.029,-0.976,0.28,-2.52,-0.42
1743439604.950014,-0.114,-0.03,-0.976,0.28,-2.66,-0.28
1743439604.970014,-0.117,-0.032,-0.976,0.7,-2.45,-0.35
1743439604.990014,-0.114,-0.032,-0.977,0.56,-2.38,-0.42
1743439605.010014,-0.114,-0.032,-0.98,0.28,-2.66,-0.35
1743439605.030014,-0.116,-0.032,-0.976,0.49,-2.66,-0.42
1743439605.050014,-0.115,-0.03,-0.977,0.56,-2.45,-0.49
1743439605.070014,-0.116,-0.032,-0.977,0.28,-2.59,-0.42
1743439605.090014,-0.115,-0.032,-0.977,0.21,-2.66,-0.49
1743439605.110014,-0.113,-0.03,-0.977,0.56,-2.38,-0.49
1743439605.130014,-0.115,-0.03,-0.976,0.28,-2.59,-0.49
1743439605.150014,-0.115,-0.031,-0.978,0.35,-2.52,-0.42
1743439605.170014,-0.115,-0.032,-0.977,0.49,-2.45,-0.42
1743439605.190014,-0.116,-0.03,-0.974,0.49,-2.52,-0.42
1743439605.210014,-0.114,-0.033,-0.978,0.35,-2.52,-0.28
1743439605.2300138,-0.116,-0.031,-0.976,0.35,-2.52,-0.35
1743439605.2500138,-0.114,-0.031,-0.977,0.49,-2.45,-0.35
1743439605.2700138,-0.116,-0.033,-0.977,0.35,-2.45,-0.42
1743439605.2900138,-0.114,-0.03,-0.975,0.21,-2.59,-0.35
1743439605.3100138,-0.116,-0.032,-0.978,0.49,-2.59,-0.42
1743439605.3300138,-0.115,-0.031,-0.972,0.49,-2.59,-0.49
1743439605.3500135,-0.115,-0.031,-0.976,0.21,-2.59,-0.42
1743439605.3700137,-0.114,-0.033,-0.977,0.28,-2.52,-0.35
1743439605.3900137,-0.116,-0.03,-0.976,0.42,-2.45,-0.35
1743439605.4100137,-0.114,-0.03,-0.976,0.28,-2.45,-0.42
1743439605.4300137,-0.115,-0.033,-0.977,0.42,-2.52,-0.42
1743439605.4500136,-0.113,-0.031,-0.977,0.21,-2.52,-0.35
1743439605.4700136,-0.111,-0.032,-0.975,0.49,-2.52,-0.35
1743439605.4900136,-0.115,-0.031,-0.976,0.35,-2.52,-0.42
1743439605.5100136,-0.115,-0.031,-0.976,0.35,-2.45,-0.42
1743439605.5300136,-0.115,-0.032,-0.975,0.42,-2.52,-0.42
1743439605.5500135,-0.114,-0.031,-0.975,0.63,-2.38,-0.49
1743439605.5700135,-0.114,-0.033,-0.977,0.21,-2.59,-0.49
1743439605.5900135,-0.113,-0.033,-0.979,0.21,-2.52,-0.42
1743439605.6100135,-0.115,-0.031,-0.978,0.42,-2.45,-0.42
1743439605.6300137,-0.114,-0.029,-0.975,0.28,-2.38,-0.28
1743439605.6500134,-0.116,-0.03,-0.977,0.42,-2.45,-0.42
1743439605.6700134,-0.113,-0.031,-0.976,0.28,-2.52,-0.35
1743439605.6900134,-0.115,-0.03,-0.975,0.49,-2.38,-0.49
1743439605.7100134,-0.116,-0.032,-0.976,0.35,-2.45,-0.42
1743439605.7300134,-0.115,-0.033,-0.976,0.28,-2.52,-0.28
1743439605.7500134,-0.113,-0.029,-0.976,0.28,-2.59,-0.42
1743439605.770013,-0.111,-0.031,-0.977,0.56,-2.38,-0.49
1743439605.7900133,-0.115,-0.031,-0.977,0.21,-2.52,-0.35
1743439605.8100133,-0.116,-0.029,-0.978,0.21,-2.52,-0.35
1743439605.8300133,-0.116,-0.03,-0.976,0.35,-2.52,-0.49
1743439605.8500133,-0.118,-0.029,-0.978,0.35,-2.45,-0.35
1743439605.8700132,-0.115,-0.031,-0.976,0.28,-2.59,-0.42
1743439605.8900132,-0.115,-0.032,-0.976,0.35,-2.52,-0.28
1743439605.9100132,-0.116,-0.031,-0.978,0.42,-2.45,-0.42
1743439605.9300132,-0.115,-0.03,-0.974,0.35,-2.45,-0.28
1743439605.9500132,-0.115,-0.031,-0.978,0.21,-2.59,-0.35
1743439605.9700131,-0.116,-0.032,-0.974,0.56,-2.52,-0.49
1743439605.9900131,-0.116,-0.031,-0.976,0.63,-2.45,-0.42
1743439606.010013,-0.114,-0.03,-0.978,0.21,-2.52,-0.35
1743439606.030013,-0.115,-0.032,-0.977,0.07,-2.52,-0.35
1743439606.050013,-0.116,-0.031,-0.978,0.42,-2.38,-0.42
1743439606.070013,-0.113,-0.03,-0.978,0.49,-2.45,-0.49
1743439606.090013,-0.116,-0.033,-0.977,0.42,-2.59,-0.42
1743439606.110013,-0.116,-0.031,-0.977,0.21,-2.52,-0.42
1743439606.130013,-0.112,-0.031,-0.974,0.56,-2.45,-0.42
1743439606.150013,-0.116,-0.029,-0.976,0.42,-2.52,-0.42
1743439606.170013,-0.116,-0.03,-0.976,0.28,-2.38,-0.49
1743439606.190013,-0.114,-0.03,-0.978,0.35,-2.45,-0.42
1743439606.210013,-0.116,-0.032,-0.977,0.49,-2.45,-0.35
1743439606.230013,-0.116,-0.032,-0.978,0.35,-2.45,-0.35
1743439606.2500129,-0.115,-0.03,-0.976,0.49,-2.59,-0.42
1743439606.2700129,-0.116,-0.031,-0.976,0.42,-2.59,-0.49
1743439606.2900128,-0.115,-0.03,-0.977,0.56,-2.59,-0.42
1743439606.3100128,-0.114,-0.03,-0.978,0.35,-2.59,-0.49
1743439606.3300128,-0.116,-0.032,-0.976,0.56,-2.59,-0.28
1743439606.3500128,-0.114,-0.03,-0.975,0.49,-2.52,-0.42
1743439606.3700128,-0.116,-0.031,-0.975,0.35,-2.52,-0.35
1743439606.3900127,-0.115,-0.031,-0.976,0.42,-2.59,-0.42
1743439606.4100127,-0.115,-0.028,-0.978,0.56,-2.45,-0.35
1743439606.4300127,-0.117,-0.032,-0.976,0.35,-2.38,-0.42
1743439606.4500127,-0.116,-0.031,-0.979,0.42,-2.38,-0.42
1743439606.470013,-0.115,-0.032,-0.975,0.42,-2.59,-0.42
1743439606.4900126,-0.115,-0.029,-0.977,0.49,-2.52,-0.42
1743439606.5100126,-0.115,-0.032,-0.977,0.35,-2.45,-0.35
1743439606.5300126,-0.117,-0.031,-0.976,0.35,-2.52,-0.35
1743439606.5500126,-0.116,-0.03,-0.98,0.49,-2.59,-0.42
1743439606.5700126,-0.115,-0.031,-0.976,0.56,-2.45,-0.42
1743439606.5900126,-0.114,-0.031,-0.977,0.35,-2.66,-0.42
1743439606.6100123,-0.114,-0.031,-0.98,0.42,-2.59,-0.35
1743439606.6300125,-0.117,-0.031,-0.976,0.42,-2.45,-0.56
1743439606.6500125,-0.117,-0.032,-0.976,0.42,-2.45,-0.49
1743439606.6700125,-0.113,-0.03,-0.977,0.35,-2.45,-0.42
1743439606.6900125,-0.114,-0.031,-0.974,0.49,-2.45,-0.49
1743439606.7100124,-0.115,-0.03,-0.976,0.49,-2.52,-0.35
1743439606.7300124,-0.114,-0.03,-0.977,0.42,-2.52,-0.42
1743439606.7500124,-0.115,-0.031,-0.977,0.35,-2.59,-0.42
1743439606.7700124,-0.116,-0.032,-0.978,0.35,-2.66,-0.42
1743439606.7900124,-0.115,-0.03,-0.978,0.28,-2.45,-0.35
1743439606.8100123,-0.118,-0.032,-0.977,0.35,-2.52,-0.28
1743439606.8300123,-0.114,-0.03,-0.978,0.21,-2.52,-0.42
1743439606.8500123,-0.116,-0.032,-0.976,0.49,-2.52,-0.35
1743439606.8700123,-0.116,-0.029,-0.977,0.28,-2.45,-0.35
1743439606.8900125,-0.116,-0.029,-0.975,0.42,-2.52,-0.35
1743439606.9100122,-0.117,-0.03,-0.977,0.56,-2.45,-0.42
1743439606.9300122,-0.115,-0.033,-0.977,0.49,-2.38,-0.35
1743439606.9500122,-0.119,-0.031,-0.976,0.42,-2.45,-0.35
1743439606.9700122,-0.115,-0.033,-0.977,0.28,-2.59,-0.42
1743439606.9900122,-0.114,-0.029,-0.977,0.49,-2.45,-0.35
1743439607.010012,-0.115,-0.032,-0.977,0.42,-2.45,-0.42
1743439607.030012,-0.114,-0.035,-0.978,0.35,-2.45,-0.35
1743439607.050012,-0.114,-0.032,-0.975,0.42,-2.45,-0.49
1743439607.070012,-0.116,-0.033,-0.976,0.42,-2.45,-0.35
1743439607.090012,-0.115,-0.029,-0.977,0.21,-2.52,-0.42
1743439607.110012,-0.115,-0.03,-0.977,0.28,-2.59,-0.35
1743439607.130012,-0.116,-0.03,-0.976,0.42,-2.45,-0.42
1743439607.150012,-0.116,-0.031,-0.976,0.42,-2.38,-0.42
1743439607.170012,-0.117,-0.033,-0.976,0.35,-2.45,-0.42
1743439607.190012,-0.116,-0.032,-0.98,0.28,-2.45,-0.35
1743439607.210012,-0.112,-0.031,-0.977,0.56,-2.38,-0.42
1743439607.230012,-0.114,-0.031,-0.978,0.35,-2.38,-0.42
1743439607.250012,-0.116,-0.032,-0.976,0.28,-2.38,-0.35
1743439607.270012,-0.115,-0.031,-0.978,0.42,-2.45,-0.42
1743439607.290012,-0.116,-0.028,-0.976,0.35,-2.52,-0.42
1743439607.310012,-0.116,-0.028,-0.976,0.21,-2.52,-0.42
1743439607.3300118,-0.116,-0.028,-0.979,0.35,-2.45,-0.35
1743439607.3500118,-0.116,-0.031,-0.979,0.42,-2.45,-0.35
1743439607.3700118,-0.115,-0.031,-0.976,0.42,-2.45,-0.35
1743439607.3900118,-0.116,-0.031,-0.978,0.35,-2.59,-0.35
1743439607.4100118,-0.116,-0.031,-0.976,0.21,-2.66,-0.35
1743439607.4300115,-0.117,-0.028,-0.974,0.42,-2.52,-0.42
1743439607.4500115,-0.116,-0.029,-0.976,0.35,-2.38,-0.35
1743439607.4700117,-0.116,-0.032,-0.979,0.35,-2.59,-0.42
1743439607.4900117,-0.114,-0.031,-0.975,0.63,-2.59,-0.35
1743439607.5100117,-0.115,-0.031,-0.978,0.49,-2.38,-0.42
1743439607.5300117,-0.115,-0.032,-0.978,0.42,-2.45,-0.35
1743439607.5500116,-0.116,-0.03,-0.978,0.28,-2.52,-0.35
1743439607.5700116,-0.118,-0.031,-0.975,0.42,-2.45,-0.56
1743439607.5900116,-0.115,-0.032,-0.976,0.42,-2.52,-0.49
1743439607.6100116,-0.115,-0.032,-0.977,0.28,-2.66,-0.42
1743439607.6300116,-0.118,-0.031,-0.98,0.28,-2.52,-0.35
1743439607.6500115,-0.116,-0.029,-0.976,0.49,-2.38,-0.35
1743439607.6700115,-0.115,-0.03,-0.976,0.35,-2.45,-0.42
1743439607.6900115,-0.115,-0.029,-0.978,0.28,-2.45,-0.42
1743439607.7100115,-0.117,-0.032,-0.976,0.63,-2.66,-0.28
1743439607.7300117,-0.115,-0.031,-0.977,0.49,-2.45,-0.42
1743439607.7500114,-0.116,-0.03,-0.975,0.21,-2.52,-0.35
1743439607.7700114,-0.115,-0.029,-0.976,0.35,-2.52,-0.42
1743439607.7900114,-0.117,-0.029,-0.978,0.49,-2.52,-0.42
1743439607.8100114,-0.117,-0.032,-0.977,0.42,-2.66,-0.35
1743439607.8300114,-0.117,-0.033,-0.977,0.28,-2.66,-0.42
1743439607.850011,-0.114,-0.031,-0.977,0.28,-2.52,-0.49
1743439607.870011,-0.115,-0.029,-0.976,0.35,-2.45,-0.49
1743439607.8900113,-0.116,-0.03,-0.979,0.35,-2.52,-0.35
1743439607.9100113,-0.116,-0.028,-0.978,0.49,-2.38,-0.35
1743439607.9300113,-0.115,-0.031,-0.977,0.56,-2.45,-0.42
1743439607.9500113,-0.117,-0.032,-0.978,0.49,-2.45,-0.35
1743439607.9700112,-0.118,-0.032,-0.976,0.35,-2.52,-0.42
1743439607.9900112,-0.113,-0.029,-0.976,0.42,-2.45,-0.42
1743439608.0100112,-0.115,-0.031,-0.979,0.42,-2.52,-0.49
1743439608.0300112,-0.116,-0.031,-0.98,0.14,-2.45,-0.42
1743439608.0500112,-0.117,-0.031,-0.976,0.28,-2.45,-0.42
1743439608.0700111,-0.118,-0.032,-0.975,0.35,-2.59,-0.28
1743439608.0900111,-0.118,-0.032,-0.975,0.28,-2.59,-0.35
1743439608.110011,-0.116,-0.029,-0.976,0.28,-2.52,-0.35
1743439608.130011,-0.118,-0.028,-0.976,0.42,-2.45,-0.35
1743439608.150011,-0.116,-0.03,-0.977,0.42,-2.38,-0.42
1743439608.170011,-0.115,-0.031,-0.978,0.28,-2.59,-0.42
1743439608.190011,-0.117,-0.031,-0.977,0.42,-2.52,-0.35
1743439608.210011,-0.117,-0.03,-0.976,0.42,-2.52,-0.42
1743439608.230011,-0.113,-0.028,-0.976,0.63,-2.59,-0.42
1743439608.250011,-0.114,-0.031,-0.976,0.49,-2.52,-0.49
1743439608.270011,-0.115,-0.03,-0.975,0.49,-2.45,-0.49
1743439608.290011,-0.116,-0.033,-0.976,0.42,-2.38,-0.42
1743439608.310011,-0.115,-0.032,-0.977,0.28,-2.52,-0.42
1743439608.330011,-0.116,-0.029,-0.976,0.42,-2.52,-0.42
1743439608.3500109,-0.116,-0.033,-0.976,0.42,-2.52,-0.35
1743439608.3700109,-0.117,-0.031,-0.976,0.21,-2.45,-0.42
1743439608.3900108,-0.116,-0.028,-0.977,0.35,-2.31,-0.42
1743439608.4100108,-0.115,-0.029,-0.976,0.56,-2.45,-0.35
1743439608.4300108,-0.117,-0.031,-0.975,0.56,-2.45,-0.35
1743439608.4500108,-0.117,-0.029,-0.975,0.42,-2.45,-0.35
1743439608.4700108,-0.114,-0.033,-0.976,0.35,-2.52,-0.35
1743439608.4900107,-0.116,-0.032,-0.976,0.49,-2.45,-0.35
1743439608.5100107,-0.117,-0.033,-0.977,0.42,-2.31,-0.42
1743439608.5300107,-0.116,-0.031,-0.977,0.21,-2.45,-0.42
1743439608.5500107,-0.116,-0.028,-0.975,0.28,-2.59,-0.49
1743439608.570011,-0.116,-0.031,-0.978,0.49,-2.38,-0.49
1743439608.5900106,-0.114,-0.033,-0.978,0.42,-2.59,-0.42
1743439608.6100106,-0.116,-0.031,-0.978,0.21,-2.59,-0.28
1743439608.6300106,-0.115,-0.031,-0.978,0.28,-2.52,-0.28
1743439608.6500106,-0.115,-0.03,-0.975,0.56,-2.45,-0.42
1743439608.6700106,-0.116,-0.028,-0.977,0.21,-2.66,-0.35
1743439608.6900103,-0.114,-0.032,-0.978,0.35,-2.38,-0.35
1743439608.7100103,-0.115,-0.03,-0.979,0.42,-2.66,-0.42
1743439608.7300105,-0.115,-0.03,-0.975,0.77,-2.45,-0.35
1743439608.7500105,-0.114,-0.029,-0.976,0.42,-2.52,-0.35
1743439608.7700105,-0.114,-0.03,-0.978,0.21,-2.45,-0.42
1743439608.7900105,-0.112,-0.033,-0.979,0.63,-2.59,-0.49
1743439608.8100104,-0.113,-0.033,-0.975,0.35,-2.66,-0.42
1743439608.8300104,-0.116,-0.031,-0.977,0.35,-2.59,-0.42
1743439608.8500104,-0.116,-0.029,-0.976,0.42,-2.52,-0.42
1743439608.8700104,-0.114,-0.03,-0.976,0.35,-2.45,-0.42
1743439608.8900104,-0.114,-0.03,-0.98,0.42,-2.66,-0.42
1743439608.9100103,-0.117,-0.031,-0.977,0.42,-2.66,-0.42
1743439608.9300103,-0.118,-0.032,-0.975,0.49,-2.59,-0.42
1743439608.9500103,-0.116,-0.031,-0.973,0.42,-2.38,-0.49
1743439608.9700105,-0.116,-0.031,-0.978,0.28,-2.38,-0.35
1743439608.9900105,-0.113,-0.029,-0.979,0.35,-2.59,-0.42
1743439609.0100102,-0.114,-0.03,-0.975,0.49,-2.45,-0.42
1743439609.0300102,-0.116,-0.032,-0.977,0.42,-2.38,-0.42
1743439609.0500102,-0.117,-0.028,-0.977,0.28,-2.38,-0.35
1743439609.0700102,-0.116,-0.031,-0.976,0.42,-2.45,-0.35
1743439609.0900102,-0.113,-0.029,-0.976,0.42,-2.59,-0.42
1743439609.11001,-0.116,-0.028,-0.975,0.49,-2.45,-0.35
1743439609.13001,-0.117,-0.03,-0.979,0.21,-2.38,-0.42
1743439609.15001,-0.113,-0.032,-0.977,0.42,-2.45,-0.35
1743439609.17001,-0.116,-0.03,-0.978,0.35,-2.31,-0.35
1743439609.19001,-0.114,-0.032,-0.977,0.14,-2.59,-0.42
1743439609.21001,-0.116,-0.03,-0.977,0.35,-2.59,-0.42
1743439609.23001,-0.114,-0.032,-0.976,0.42,-2.52,-0.42
1743439609.25001,-0.116,-0.031,-0.976,0.21,-2.45,-0.49
1743439609.27001,-0.116,-0.029,-0.978,0.14,-2.52,-0.35
1743439609.29001,-0.118,-0.029,-0.978,0.56,-2.38,-0.49
1743439609.31001,-0.118,-0.03,-0.977,0.56,-2.45,-0.42
1743439609.33001,-0.115,-0.031,-0.977,0.42,-2.45,-0.35
1743439609.35001,-0.114,-0.029,-0.976,0.49,-2.45,-0.49
1743439609.37001,-0.115,-0.028,-0.976,0.56,-2.31,-0.49
1743439609.39001,-0.116,-0.033,-0.976,0.28,-2.45,-0.42
1743439609.41001,-0.115,-0.031,-0.977,0.28,-2.52,-0.42
1743439609.4300098,-0.114,-0.031,-0.976,0.49,-2.45,-0.42
1743439609.4500098,-0.114,-0.03,-0.978,0.49,-2.52,-0.42
1743439609.4700098,-0.116,-0.03,-0.976,0.35,-2.59,-0.49
1743439609.4900098,-0.115,-0.03,-0.978,0.56,-2.52,-0.42
1743439609.5100098,-0.117,-0.031,-0.978,0.42,-2.45,-0.35
1743439609.5300095,-0.112,-0.03,-0.977,0.35,-2.66,-0.42
1743439609.5500095,-0.115,-0.03,-0.977,0.35,-2.52,-0.49
1743439609.5700097,-0.115,-0.03,-0.978,0.56,-2.45,-0.42
1743439609.5900097,-0.115,-0.031,-0.976,0.42,-2.52,-0.35
1743439609.6100097,-0.116,-0.032,-0.977,0.35,-2.52,-0.35
1743439609.6300097,-0.114,-0.031,-0.975,0.49,-2.52,-0.35
1743439609.6500096,-0.114,-0.031,-0.977,0.35,-2.45,-0.49
1743439609.6700096,-0.116,-0.028,-0.976,0.42,-2.38,-0.42
1743439609.6900096,-0.115,-0.03,-0.977,0.35,-2.45,-0.42
1743439609.7100096,-0.117,-0.027,-0.977,0.42,-2.52,-0.49
1743439609.7300096,-0.116,-0.031,-0.977,0.56,-2.52,-0.56
1743439609.7500095,-0.115,-0.031,-0.976,0.42,-2.52,-0.42
1743439609.7700095,-0.115,-0.032,-0.976,0.42,-2.38,-0.35
1743439609.7900095,-0.116,-0.032,-0.976,0.56,-2.45,-0.42
1743439609.8100097,-0.117,-0.029,-0.975,0.42,-2.52,-0.49
1743439609.8300097,-0.116,-0.031,-0.978,0.28,-2.66,-0.49
1743439609.8500094,-0.115,-0.029,-0.977,0.28,-2.59,-0.42
1743439609.8700094,-0.118,-0.03,-0.975,0.56,-2.38,-0.28
1743439609.8900094,-0.118,-0.029,-0.976,0.14,-2.38,-0.28
1743439609.9100094,-0.115,-0.031,-0.978,0.28,-2.52,-0.35
1743439609.9300094,-0.116,-0.029,-0.978,0.49,-2.52,-0.42
1743439609.950009,-0.115,-0.031,-0.978,0.42,-2.38,-0.42
1743439609.970009,-0.115,-0.029,-0.975,0.35,-2.38,-0.49
1743439609.9900093,-0.116,-0.031,-0.976,0.42,-2.45,-0.35
1743439610.0100093,-0.114,-0.033,-0.978,0.42,-2.38,-0.42
1743439610.0300093,-0.116,-0.031,-0.976,0.42,-2.45,-0.42
1743439610.0500093,-0.114,-0.032,-0.979,0.35,-2.45,-0.35
1743439610.0700092,-0.115,-0.031,-0.977,0.49,-2.52,-0.42
1743439610.0900092,-0.115,-0.032,-0.975,0.49,-2.45,-0.35
1743439610.1100092,-0.114,-0.028,-0.977,0.28,-2.45,-0.42
1743439610.1300092,-0.115,-0.029,-0.978,0.28,-2.59,-0.35
1743439610.1500092,-0.117,-0.029,-0.976,0.49,-2.52,-0.35
1743439610.1700091,-0.115,-0.031,-0.979,0.49,-2.38,-0.42
1743439610.190009,-0.117,-0.029,-0.977,0.49,-2.59,-0.35
1743439610.210009,-0.115,-0.03,-0.978,0.28,-2.59,-0.35
1743439610.230009,-0.118,-0.028,-0.979,0.49,-2.38,-0.49
1743439610.250009,-0.116,-0.03,-0.976,0.49,-2.38,-0.42
1743439610.270009,-0.117,-0.031,-0.976,0.21,-2.52,-0.35
1743439610.290009,-0.117,-0.032,-0.977,0.49,-2.52,-0.28
1743439610.310009,-0.116,-0.032,-0.976,0.49,-2.38,-0.49
1743439610.330009,-0.115,-0.029,-0.977,0.42,-2.31,-0.42
1743439610.350009,-0.115,-0.03,-0.976,0.56,-2.38,-0.35
1743439610.370009,-0.116,-0.029,-0.975,0.56,-2.52,-0.28
1743439610.390009,-0.116,-0.033,-0.978,0.42,-2.52,-0.42
1743439610.410009,-0.115,-0.031,-0.976,0.42,-2.45,-0.42
1743439610.430009,-0.113,-0.029,-0.977,0.42,-2.52,-0.49
1743439610.4500089,-0.114,-0.029,-0.977,0.49,-2.38,-0.56
1743439610.4700089,-0.116,-0.031,-0.976,0.49,-2.31,-0.35
1743439610.4900088,-0.114,-0.032,-0.976,0.14,-2.45,-0.42
1743439610.5100088,-0.117,-0.032,-0.975,0.42,-2.52,-0.42
1743439610.5300088,-0.117,-0.029,-0.976,0.42,-2.52,-0.49
1743439610.5500088,-0.116,-0.03,-0.978,0.49,-2.45,-0.35
1743439610.5700088,-0.115,-0.033,-0.976,0.35,-2.52,-0.42
1743439610.5900087,-0.114,-0.031,-0.977,0.56,-2.45,-0.35
1743439610.6100087,-0.114,-0.027,-0.976,0.56,-2.38,-0.42
1743439610.6300087,-0.116,-0.031,-0.976,0.28,-2.52,-0.42
1743439610.650009,-0.116,-0.031,-0.977,0.49,-2.45,-0.42
1743439610.670009,-0.114,-0.03,-0.976,0.49,-2.59,-0.35
1743439610.6900086,-0.115,-0.028,-0.976,0.56,-2.45,-0.42
1743439610.7100086,-0.113,-0.03,-0.978,0.35,-2.52,-0.35
1743439610.7300086,-0.114,-0.03,-0.976,0.56,-2.59,-0.42
1743439610.7500086,-0.12,-0.029,-0.979,0.49,-2.52,-0.49
1743439610.7700086,-0.115,-0.03,-0.976,0.42,-2.45,-0.35
1743439610.7900083,-0.115,-0.031,-0.979,0.56,-2.59,-0.28
1743439610.8100083,-0.114,-0.029,-0.976,0.49,-2.52,-0.42
1743439610.8300085,-0.117,-0.029,-0.977,0.14,-2.38,-0.35
1743439610.8500085,-0.114,-0.03,-0.977,0.14,-2.31,-0.28
1743439610.8700085,-0.114,-0.033,-0.978,0.42,-2.45,-0.42
1743439610.8900084,-0.116,-0.03,-0.976,0.77,-2.17,-0.42
1743439610.9100084,-0.115,-0.03,-0.978,0.35,-2.38,-0.42
1743439610.9300084,-0.115,-0.032,-0.978,0.28,-2.66,-0.42
1743439610.9500084,-0.114,-0.029,-0.977,0.63,-2.45,-0.49
1743439610.9700084,-0.114,-0.03,-0.976,0.56,-2.52,-0.49
1743439610.9900084,-0.118,-0.029,-0.976,0.28,-2.59,-0.35
1743439611.0100083,-0.115,-0.031,-0.978,0.42,-2.52,-0.35
1743439611.0300083,-0.115,-0.029,-0.98,0.49,-2.52,-0.42
1743439611.0500083,-0.114,-0.028,-0.975,0.28,-2.45,-0.49
1743439611.0700085,-0.116,-0.03,-0.978,0.35,-2.59,-0.42
1743439611.0900085,-0.116,-0.03,-0.977,0.42,-2.52,-0.42
1743439611.1100082,-0.116,-0.03,-0.975,0.35,-2.52,-0.42
1743439611.1300082,-0.116,-0.029,-0.979,0.35,-2.59,-0.42
1743439611.1500082,-0.113,-0.031,-0.978,0.56,-2.38,-0.42
1743439611.1700082,-0.117,-0.033,-0.976,0.35,-2.59,-0.42
1743439611.1900082,-0.115,-0.032,-0.976,0.28,-2.59,-0.42
1743439611.210008,-0.114,-0.028,-0.977,0.28,-2.45,-0.42
1743439611.230008,-0.113,-0.027,-0.976,0.56,-2.52,-0.42
1743439611.250008,-0.117,-0.032,-0.976,0.63,-2.38,-0.35
1743439611.270008,-0.116,-0.028,-0.976,0.28,-2.45,-0.42
1743439611.290008,-0.116,-0.029,-0.976,0.35,-2.52,-0.35
1743439611.310008,-0.116,-0.028,-0.977,0.42,-2.66,-0.42
1743439611.330008,-0.114,-0.03,-0.976,0.63,-2.45,-0.49
1743439611.350008,-0.116,-0.033,-0.976,0.28,-2.59,-0.28
1743439611.370008,-0.116,-0.029,-0.975,0.14,-2.59,-0.28
1743439611.390008,-0.115,-0.028,-0.978,0.42,-2.59,-0.42
1743439611.410008,-0.118,-0.028,-0.976,0.56,-2.52,-0.28
1743439611.430008,-0.115,-0.03,-0.977,0.42,-2.59,-0.35
1743439611.450008,-0.115,-0.031,-0.976,0.63,-2.59,-0.42
1743439611.470008,-0.116,-0.029,-0.976,0.49,-2.45,-0.35
1743439611.490008,-0.117,-0.03,-0.975,0.21,-2.38,-0.42
1743439611.510008,-0.115,-0.03,-0.975,0.21,-2.52,-0.28
1743439611.5300078,-0.116,-0.028,-0.976,0.35,-2.66,-0.35
1743439611.5500078,-0.118,-0.028,-0.977,0.42,-2.59,-0.42
1743439611.5700078,-0.117,-0.029,-0.975,0.35,-2.38,-0.42
1743439611.5900078,-0.114,-0.029,-0.978,0.56,-2.52,-0.35
1743439611.6100078,-0.114,-0.031,-0.978,0.42,-2.31,-0.35
1743439611.6300075,-0.117,-0.033,-0.977,0.35,-2.52,-0.42
1743439611.6500075,-0.114,-0.032,-0.979,0.35,-2.52,-0.42
1743439611.6700077,-0.117,-0.031,-0.976,0.35,-2.52,-0.42
1743439611.6900077,-0.116,-0.029,-0.976,0.42,-2.52,-0.42
1743439611.7100077,-0.116,-0.029,-0.977,0.28,-2.45,-0.49
1743439611.7300076,-0.116,-0.029,-0.978,0.21,-2.52,-0.42
1743439611.7500076,-0.116,-0.027,-0.976,0.7,-2.45,-0.49
1743439611.7700076,-0.115,-0.03,-0.975,0.21,-2.45,-0.35
1743439611.7917671,-0.115,-0.03,-0.978,0.35,-2.45,-0.35
1743439611.811767,-0.115,-0.03,-0.977,0.35,-2.52,-0.35
1743439611.831767,-0.113,-0.029,-0.976,0.49,-2.52,-0.42
1743439611.851767,-0.117,-0.029,-0.978,0.35,-2.45,-0.49
1743439611.871767,-0.115,-0.029,-0.977,0.21,-2.45,-0.35
1743439611.891767,-0.116,-0.031,-0.976,0.42,-2.45,-0.35
1743439611.911767,-0.113,-0.03,-0.976,0.35,-2.45,-0.42
1743439611.931767,-0.114,-0.03,-0.978,0.35,-2.38,-0.35
1743439611.951767,-0.115,-0.029,-0.976,0.28,-2.66,-0.35
1743439611.971767,-0.119,-0.029,-0.977,0.35,-2.52,-0.42
1743439611.991767,-0.114,-0.031,-0.976,0.42,-2.31,-0.42
1743439612.011767,-0.116,-0.029,-0.978,0.28,-2.59,-0.42
1743439612.031767,-0.115,-0.03,-0.975,0.49,-2.38,-0.35
1743439612.0517669,-0.113,-0.031,-0.977,0.56,-2.45,-0.35
1743439612.0717669,-0.116,-0.03,-0.976,0.28,-2.52,-0.35
1743439612.0917668,-0.114,-0.03,-0.977,0.28,-2.45,-0.35
1743439612.1117668,-0.115,-0.028,-0.977,0.56,-2.59,-0.49
1743439612.1317668,-0.114,-0.028,-0.976,0.49,-2.52,-0.42
1743439612.1517668,-0.114,-0.03,-0.976,0.28,-2.52,-0.35
1743439612.1717668,-0.117,-0.03,-0.978,0.35,-2.45,-0.42
1743439612.1917667,-0.117,-0.028,-0.978,0.56,-2.59,-0.42
1743439612.2117667,-0.113,-0.029,-0.977,0.42,-2.38,-0.42
1743439612.2317667,-0.117,-0.029,-0.978,0.21,-2.52,-0.35
1743439612.2517667,-0.114,-0.03,-0.977,0.49,-2.52,-0.35
1743439612.271767,-0.116,-0.028,-0.975,0.49,-2.45,-0.42
1743439612.2917666,-0.116,-0.032,-0.976,0.21,-2.45,-0.35
1743439612.3117666,-0.117,-0.03,-0.976,0.21,-2.66,-0.35
1743439612.3317666,-0.114,-0.029,-0.976,0.35,-2.45,-0.35
1743439612.3517666,-0.116,-0.031,-0.977,0.49,-2.38,-0.42
1743439612.3717666,-0.115,-0.03,-0.977,0.35,-2.52,-0.42
1743439612.3917663,-0.118,-0.03,-0.978,0.56,-2.52,-0.35
1743439612.4117663,-0.116,-0.029,-0.978,0.42,-2.52,-0.35
1743439612.4317665,-0.116,-0.031,-0.979,0.42,-2.59,-0.35
1743439612.4517665,-0.117,-0.03,-0.978,0.28,-2.52,-0.42
1743439612.4717665,-0.115,-0.029,-0.976,0.56,-2.38,-0.35
1743439612.4917665,-0.114,-0.03,-0.977,0.42,-2.45,-0.42
1743439612.5117664,-0.116,-0.03,-0.976,0.35,-2.45,-0.42
1743439612.5317664,-0.115,-0.031,-0.978,0.42,-2.59,-0.35
1743439612.5517664,-0.115,-0.029,-0.979,0.49,-2.52,-0.42
1743439612.5717664,-0.115,-0.027,-0.98,0.42,-2.52,-0.42
1743439612.5917664,-0.114,-0.03,-0.977,0.35,-2.45,-0.28
1743439612.6117663,-0.113,-0.031,-0.977,0.42,-2.52,-0.42
1743439612.6317663,-0.115,-0.032,-0.977,0.56,-2.45,-0.35
1743439612.6517663,-0.116,-0.03,-0.978,0.28,-2.45,-0.35
1743439612.6717663,-0.117,-0.029,-0.979,0.21,-2.52,-0.35
1743439612.6917665,-0.116,-0.029,-0.976,0.56,-2.45,-0.42
1743439612.7117662,-0.116,-0.028,-0.979,0.63,-2.45,-0.28
1743439612.7317662,-0.116,-0.032,-0.978,0.49,-2.45,-0.42
1743439612.7517662,-0.117,-0.029,-0.977,0.28,-2.45,-0.35
1743439612.7717662,-0.115,-0.029,-0.977,0.42,-2.38,-0.42
1743439612.7917662,-0.114,-0.029,-0.977,0.49,-2.45,-0.42
1743439612.811766,-0.113,-0.029,-0.978,0.28,-2.59,-0.42
1743439612.831766,-0.114,-0.031,-0.976,0.35,-2.45,-0.35
1743439612.851766,-0.115,-0.029,-0.976,0.63,-2.38,-0.42
1743439612.871766,-0.114,-0.031,-0.974,0.49,-2.52,-0.42
1743439612.891766,-0.115,-0.028,-0.975,0.28,-2.45,-0.35
1743439612.911766,-0.117,-0.031,-0.975,0.49,-2.45,-0.35
1743439612.931766,-0.114,-0.031,-0.976,0.49,-2.45,-0.28
1743439612.951766,-0.117,-0.031,-0.977,0.28,-2.45,-0.35
1743439612.971766,-0.116,-0.03,-0.978,0.28,-2.59,-0.35
1743439612.991766,-0.117,-0.03,-0.974,0.49,-2.45,-0.42
1743439613.011766,-0.114,-0.028,-0.977,0.49,-2.59,-0.42
1743439613.031766,-0.114,-0.029,-0.978,0.35,-2.38,-0.42
1743439613.051766,-0.114,-0.03,-0.975,0.35,-2.38,-0.49
1743439613.071766,-0.116,-0.028,-0.979,0.49,-2.31,-0.35
1743439613.091766,-0.114,-0.03,-0.977,0.49,-2.45,-0.49
1743439613.111766,-0.114,-0.03,-0.975,0.28,-2.52,-0.42
1743439613.1317658,-0.115,-0.028,-0.976,0.28,-2.31,-0.42
1743439613.1517658,-0.117,-0.027,-0.975,0.42,-2.38,-0.42
1743439613.1717658,-0.116,-0.027,-0.975,0.42,-2.45,-0.42
1743439613.1917658,-0.115,-0.032,-0.977,0.35,-2.52,-0.42
1743439613.2117658,-0.116,-0.028,-0.978,0.49,-2.38,-0.35
1743439613.2317655,-0.116,-0.027,-0.975,0.49,-2.38,-0.35
1743439613.2517655,-0.116,-0.03,-0.979,0.21,-2.59,-0.42
1743439613.2717657,-0.115,-0.029,-0.978,0.28,-2.59,-0.35
1743439613.2917657,-0.115,-0.028,-0.976,0.49,-2.38,-0.42
1743439613.3117657,-0.113,-0.031,-0.979,0.42,-2.45,-0.42
1743439613.3317657,-0.116,-0.031,-0.974,0.28,-2.52,-0.35
1743439613.3517656,-0.115,-0.03,-0.975,0.49,-2.45,-0.42
1743439613.3717656,-0.116,-0.03,-0.975,0.56,-2.38,-0.49
1743439613.3917656,-0.116,-0.029,-0.976,0.49,-2.45,-0.35
1743439613.4117656,-0.117,-0.029,-0.977,0.28,-2.31,-0.35
1743439613.4317656,-0.115,-0.03,-0.976,0.35,-2.45,-0.35
1743439613.4517655,-0.116,-0.03,-0.977,0.63,-2.45,-0.42
1743439613.4717655,-0.115,-0.029,-0.978,0.28,-2.73,-0.35
1743439613.4917655,-0.114,-0.03,-0.976,0.35,-2.59,-0.35
1743439613.5117657,-0.115,-0.03,-0.977,0.42,-2.38,-0.42
1743439613.5317657,-0.115,-0.029,-0.979,0.42,-2.52,-0.42
1743439613.5517654,-0.116,-0.028,-0.978,0.28,-2.45,-0.35
1743439613.5717654,-0.115,-0.029,-0.977,0.49,-2.59,-0.35
1743439613.5917654,-0.117,-0.031,-0.978,0.56,-2.38,-0.49
1743439613.6117654,-0.113,-0.032,-0.979,0.42,-2.38,-0.49
1743439613.6317654,-0.115,-0.029,-0.975,0.49,-2.52,-0.42
1743439613.651765,-0.115,-0.03,-0.974,0.56,-2.38,-0.35
1743439613.671765,-0.115,-0.03,-0.977,0.42,-2.45,-0.42
1743439613.6917653,-0.115,-0.03,-0.976,0.35,-2.73,-0.35
1743439613.7117653,-0.114,-0.031,-0.977,0.42,-2.52,-0.35
1743439613.7317653,-0.115,-0.031,-0.975,0.63,-2.38,-0.42
1743439613.7517653,-0.116,-0.029,-0.976,0.42,-2.38,-0.35
1743439613.7717652,-0.116,-0.029,-0.976,0.28,-2.59,-0.42
1743439613.7917652,-0.117,-0.03,-0.976,0.63,-2.59,-0.28
1743439613.8117652,-0.118,-0.03,-0.98,0.7,-2.45,-0.49
1743439613.8317652,-0.115,-0.03,-0.979,0.28,-2.52,-0.35
1743439613.8517652,-0.116,-0.03,-0.979,0.42,-2.66,-0.42
1743439613.8717651,-0.114,-0.03,-0.976,0.35,-2.59,-0.49
1743439613.891765,-0.116,-0.029,-0.977,0.7,-2.52,-0.35
1743439613.911765,-0.117,-0.03,-0.976,0.42,-2.45,-0.42
1743439613.931765,-0.114,-0.03,-0.977,0.42,-2.59,-0.42
1743439613.951765,-0.114,-0.029,-0.977,0.7,-2.52,-0.42
1743439613.971765,-0.115,-0.029,-0.98,0.35,-2.38,-0.42
1743439613.991765,-0.115,-0.03,-0.978,0.28,-2.52,-0.35
1743439614.011765,-0.116,-0.032,-0.978,0.28,-2.59,-0.28
1743439614.031765,-0.113,-0.031,-0.973,0.56,-2.24,-0.49
1743439614.051765,-0.115,-0.029,-0.977,0.35,-2.52,-0.42
1743439614.071765,-0.114,-0.027,-0.976,0.28,-2.52,-0.28
1743439614.091765,-0.113,-0.031,-0.978,0.49,-2.31,-0.42
1743439614.111765,-0.114,-0.03,-0.979,0.56,-2.52,-0.42
1743439614.131765,-0.114,-0.031,-0.976,0.21,-2.38,-0.35
1743439614.1517649,-0.115,-0.031,-0.977,0.28,-2.66,-0.42
1743439614.1717649,-0.118,-0.031,-0.977,0.42,-2.45,-0.42
1743439614.1917648,-0.115,-0.029,-0.977,0.42,-2.38,-0.42
1743439614.2117648,-0.115,-0.029,-0.98,0.28,-2.59,-0.35
1743439614.2317648,-0.117,-0.031,-0.979,0.35,-2.52,-0.35
1743439614.2517648,-0.116,-0.029,-0.975,0.49,-2.45,-0.42
1743439614.2717648,-0.117,-0.029,-0.977,0.56,-2.45,-0.35
1743439614.2917647,-0.116,-0.028,-0.978,0.28,-2.66,-0.35
1743439614.3117647,-0.117,-0.029,-0.977,0.35,-2.38,-0.35
1743439614.3317647,-0.115,-0.027,-0.977,0.49,-2.38,-0.35
1743439614.351765,-0.116,-0.027,-0.975,0.21,-2.59,-0.35
1743439614.371765,-0.114,-0.03,-0.974,0.35,-2.52,-0.35
1743439614.3917646,-0.117,-0.028,-0.975,0.56,-2.45,-0.49
1743439614.4117646,-0.115,-0.03,-0.976,0.21,-2.45,-0.35
1743439614.4317646,-0.117,-0.029,-0.976,0.35,-2.59,-0.35
1743439614.4517646,-0.114,-0.031,-0.976,0.56,-2.38,-0.42
1743439614.4717646,-0.113,-0.029,-0.974,0.63,-2.38,-0.49
1743439614.4917643,-0.113,-0.031,-0.978,0.14,-2.38,-0.35
1743439614.5117643,-0.115,-0.031,-0.978,0.07,-2.59,-0.42
1743439614.5317645,-0.118,-0.029,-0.976,0.42,-2.45,-0.42
1743439614.5517645,-0.115,-0.03,-0.977,0.49,-2.31,-0.49
1743439614.5717645,-0.116,-0.03,-0.979,0.28,-2.45,-0.35
1743439614.5917645,-0.117,-0.03,-0.976,0.28,-2.52,-0.42
1743439614.6117644,-0.118,-0.03,-0.976,0.49,-2.38,-0.42
1743439614.6317644,-0.116,-0.032,-0.974,0.35,-2.52,-0.42
1743439614.6517644,-0.116,-0.03,-0.974,0.14,-2.38,-0.42
1743439614.6717644,-0.114,-0.029,-0.977,0.28,-2.38,-0.35
1743439614.6917644,-0.115,-0.031,-0.976,0.35,-2.17,-0.42
1743439614.7117643,-0.116,-0.031,-0.977,0.49,-2.38,-0.35
1743439614.7317643,-0.114,-0.03,-0.977,0.42,-2.31,-0.35
1743439614.7517643,-0.114,-0.03,-0.976,0.42,-2.66,-0.35
1743439614.7717645,-0.114,-0.029,-0.975,0.49,-2.52,-0.42
1743439614.7917645,-0.116,-0.028,-0.978,0.35,-2.52,-0.35
1743439614.8117642,-0.117,-0.03,-0.977,0.35,-2.59,-0.35
1743439614.8317642,-0.116,-0.029,-0.977,0.49,-2.52,-0.35
1743439614.8517642,-0.118,-0.029,-0.976,0.49,-2.59,-0.35
1743439614.8717642,-0.117,-0.029,-0.977,0.35,-2.52,-0.42
1743439614.8917642,-0.115,-0.03,-0.977,0.35,-2.52,-0.42
1743439614.911764,-0.115,-0.029,-0.976,0.49,-2.52,-0.35
1743439614.931764,-0.115,-0.031,-0.979,0.56,-2.31,-0.42
1743439614.951764,-0.115,-0.03,-0.977,0.28,-2.52,-0.42
1743439614.971764,-0.117,-0.031,-0.976,0.42,-2.52,-0.49
1743439614.991764,-0.116,-0.031,-0.977,0.56,-2.38,-0.42
1743439615.011764,-0.117,-0.032,-0.978,0.49,-2.45,-0.35
1743439615.031764,-0.116,-0.032,-0.979,0.28,-2.66,-0.35
1743439615.051764,-0.116,-0.029,-0.977,0.42,-2.38,-0.42
1743439615.071764,-0.116,-0.028,-0.976,0.49,-2.45,-0.42
1743439615.091764,-0.115,-0.029,-0.978,0.21,-2.45,-0.35
1743439615.111764,-0.115,-0.031,-0.977,0.42,-2.45,-0.35
1743439615.131764,-0.115,-0.03,-0.973,0.63,-2.52,-0.42
1743439615.151764,-0.114,-0.028,-0.977,0.56,-2.52,-0.28
1743439615.171764,-0.116,-0.029,-0.976,0.35,-2.52,-0.35
1743439615.191764,-0.118,-0.031,-0.976,0.21,-2.45,-0.42
1743439615.211764,-0.116,-0.031,-0.977,0.49,-2.31,-0.42
1743439615.2317638,-0.114,-0.03,-0.977,0.35,-2.45,-0.49
1743439615.2517638,-0.116,-0.027,-0.978,0.35,-2.59,-0.35
1743439615.2717638,-0.117,-0.03,-0.975,0.63,-2.45,-0.35
1743439615.2917638,-0.116,-0.03,-0.977,0.56,-2.52,-0.42
1743439615.3117638,-0.114,-0.032,-0.978,0.28,-2.52,-0.35
1743439615.3317635,-0.115,-0.029,-0.978,0.49,-2.45,-0.49
1743439615.3517635,-0.115,-0.03,-0.976,0.56,-2.52,-0.42
1743439615.3717637,-0.116,-0.031,-0.977,0.42,-2.59,-0.42
1743439615.3917637,-0.115,-0.028,-0.979,0.42,-2.52,-0.35
1743439615.4117637,-0.117,-0.03,-0.978,0.42,-2.59,-0.42
1743439615.4317636,-0.115,-0.031,-0.975,0.77,-2.45,-0.42
1743439615.4517636,-0.115,-0.03,-0.977,0.35,-2.45,-0.42
1743439615.4717636,-0.113,-0.03,-0.977,0.28,-2.66,-0.42
1743439615.4917636,-0.115,-0.028,-0.979,0.63,-2.59,-0.35
1743439615.5117636,-0.116,-0.029,-0.975,0.42,-2.45,-0.42
1743439615.5317636,-0.116,-0.031,-0.977,0.35,-2.52,-0.42
1743439615.5517635,-0.116,-0.03,-0.976,0.21,-2.52,-0.42
1743439615.5717635,-0.116,-0.028,-0.974,0.42,-2.31,-0.42
1743439615.5917635,-0.118,-0.03,-0.976,0.35,-2.52,-0.35
1743439615.6117637,-0.114,-0.031,-0.979,0.28,-2.45,-0.35
1743439615.6317637,-0.115,-0.03,-0.976,0.49,-2.59,-0.42
1743439615.6517634,-0.114,-0.03,-0.978,0.63,-2.38,-0.42
1743439615.6717634,-0.114,-0.03,-0.977,0.35,-2.52,-0.42
1743439615.6917634,-0.114,-0.028,-0.977,0.35,-2.52,-0.35
1743439615.7117634,-0.115,-0.028,-0.975,0.35,-2.45,-0.35
1743439615.7317634,-0.116,-0.029,-0.978,0.49,-2.52,-0.35
1743439615.751763,-0.117,-0.029,-0.977,0.35,-2.52,-0.42
1743439615.771763,-0.117,-0.031,-0.973,0.49,-2.45,-0.42
1743439615.7917633,-0.115,-0.031,-0.977,0.49,-2.45,-0.35
1743439615.8117633,-0.114,-0.031,-0.977,0.28,-2.52,-0.42
1743439615.8317633,-0.116,-0.029,-0.977,0.35,-2.59,-0.35
1743439615.8517632,-0.116,-0.029,-0.976,0.56,-2.45,-0.35
1743439615.8717632,-0.117,-0.028,-0.979,0.49,-2.45,-0.42
1743439615.8917632,-0.117,-0.029,-0.978,0.21,-2.45,-0.28
1743439615.9117632,-0.117,-0.03,-0.975,0.49,-2.52,-0.35
1743439615.9317632,-0.116,-0.03,-0.976,0.56,-2.24,-0.42
1743439615.9517632,-0.116,-0.031,-0.979,0.14,-2.45,-0.49
1743439615.9717631,-0.116,-0.028,-0.979,0.21,-2.52,-0.42
1743439615.991763,-0.117,-0.028,-0.977,0.42,-2.31,-0.35
1743439616.011763,-0.115,-0.03,-0.975,0.49,-2.45,-0.42
1743439616.031763,-0.116,-0.03,-0.976,0.21,-2.45,-0.35
1743439616.051763,-0.116,-0.029,-0.979,0.28,-2.45,-0.42
1743439616.071763,-0.114,-0.029,-0.976,0.49,-2.24,-0.42
1743439616.091763,-0.113,-0.03,-0.977,0.35,-2.31,-0.42
1743439616.111763,-0.117,-0.031,-0.976,0.21,-2.45,-0.35
1743439616.131763,-0.116,-0.03,-0.976,0.35,-2.45,-0.35
1743439616.151763,-0.116,-0.028,-0.977,0.56,-2.52,-0.35
1743439616.171763,-0.116,-0.03,-0.977,0.35,-2.52,-0.35
1743439616.191763,-0.114,-0.03,-0.977,0.28,-2.52,-0.35
1743439616.211763,-0.115,-0.03,-0.975,0.42,-2.52,-0.35
1743439616.231763,-0.115,-0.031,-0.976,0.49,-2.45,-0.42
1743439616.2517629,-0.117,-0.03,-0.977,0.35,-2.38,-0.42
1743439616.2717628,-0.115,-0.03,-0.976,0.49,-2.45,-0.49
1743439616.2917628,-0.114,-0.029,-0.978,0.56,-2.52,-0.35
1743439616.3117628,-0.114,-0.029,-0.977,0.42,-2.45,-0.42
1743439616.3317628,-0.113,-0.029,-0.974,0.21,-2.59,-0.35
1743439616.3517628,-0.116,-0.028,-0.976,0.56,-2.59,-0.35
1743439616.3717628,-0.115,-0.029,-0.977,0.56,-2.38,-0.35
1743439616.3917627,-0.115,-0.03,-0.976,0.35,-2.38,-0.35
1743439616.4117627,-0.115,-0.03,-0.978,0.42,-2.52,-0.35
1743439616.4317627,-0.115,-0.03,-0.976,0.42,-2.52,-0.35
1743439616.451763,-0.115,-0.03,-0.979,0.42,-2.45,-0.28
1743439616.471763,-0.113,-0.032,-0.976,0.35,-2.59,-0.42
1743439616.4917626,-0.116,-0.03,-0.976,0.49,-2.52,-0.42
1743439616.5117626,-0.116,-0.029,-0.973,0.49,-2.52,-0.49
1743439616.5317626,-0.114,-0.03,-0.976,0.28,-2.59,-0.42
1743439616.5517626,-0.116,-0.03,-0.976,0.35,-2.45,-0.49
1743439616.5717626,-0.118,-0.033,-0.977,0.42,-2.45,-0.42
1743439616.5917623,-0.116,-0.031,-0.977,0.42,-2.52,-0.42
1743439616.6117623,-0.117,-0.03,-0.979,0.21,-2.45,-0.28
1743439616.6317625,-0.115,-0.03,-0.976,0.49,-2.45,-0.49
1743439616.6517625,-0.115,-0.027,-0.975,0.49,-2.45,-0.35
1743439616.6717625,-0.115,-0.029,-0.979,0.42,-2.59,-0.35
1743439616.6917624,-0.115,-0.03,-0.976,0.35,-2.52,-0.35
1743439616.7117624,-0.116,-0.029,-0.974,0.56,-2.45,-0.35
1743439616.7317624,-0.116,-0.027,-0.977,0.49,-2.45,-0.42
1743439616.7517624,-0.116,-0.029,-0.979,0.21,-2.45,-0.42
1743439616.7717624,-0.116,-0.027,-0.977,0.35,-2.52,-0.35
1743439616.7917624,-0.115,-0.03,-0.977,0.42,-2.45,-0.35
1743439616.8117623,-0.114,-0.03,-0.976,0.49,-2.45,-0.35
1743439616.8317623,-0.113,-0.031,-0.976,0.28,-2.59,-0.42
1743439616.8517623,-0.115,-0.031,-0.978,0.42,-2.59,-0.42
1743439616.8717625,-0.114,-0.028,-0.978,0.49,-2.66,-0.35
1743439616.8917625,-0.116,-0.029,-0.978,0.35,-2.45,-0.35
1743439616.9117622,-0.116,-0.03,-0.977,0.42,-2.59,-0.42
1743439616.9317622,-0.115,-0.031,-0.974,0.49,-2.45,-0.35
1743439616.9517622,-0.118,-0.031,-0.979,0.49,-2.52,-0.49
1743439616.9717622,-0.114,-0.031,-0.98,0.42,-2.38,-0.35
1743439616.9917622,-0.116,-0.032,-0.98,0.35,-2.45,-0.35
1743439617.011762,-0.117,-0.03,-0.976,0.35,-2.45,-0.42
1743439617.031762,-0.116,-0.029,-0.976,0.28,-2.45,-0.49
1743439617.051762,-0.116,-0.032,-0.976,0.35,-2.52,-0.49
1743439617.071762,-0.116,-0.03,-0.978,0.7,-2.45,-0.28
1743439617.091762,-0.115,-0.031,-0.977,0.42,-2.17,-0.42
1743439617.111762,-0.115,-0.029,-0.977,0.28,-2.38,-0.35
1743439617.131762,-0.117,-0.031,-0.977,0.49,-2.38,-0.42
1743439617.151762,-0.117,-0.029,-0.978,0.56,-2.45,-0.49
1743439617.171762,-0.115,-0.029,-0.978,0.28,-2.31,-0.42
1743439617.191762,-0.115,-0.031,-0.979,0.35,-2.45,-0.42
1743439617.211762,-0.116,-0.03,-0.977,0.42,-2.52,-0.35
1743439617.231762,-0.115,-0.028,-0.978,0.42,-2.45,-0.35
1743439617.251762,-0.116,-0.027,-0.976,0.35,-2.45,-0.35
1743439617.271762,-0.116,-0.031,-0.977,0.42,-2.59,-0.35
1743439617.291762,-0.117,-0.028,-0.975,0.35,-2.52,-0.35
1743439617.311762,-0.116,-0.03,-0.977,0.49,-2.52,-0.42
1743439617.3317618,-0.119,-0.029,-0.976,0.35,-2.59,-0.35
1743439617.3517618,-0.118,-0.032,-0.976,0.35,-2.45,-0.42
1743439617.3717618,-0.116,-0.031,-0.977,0.49,-2.45,-0.42
1743439617.3917618,-0.115,-0.03,-0.977,0.42,-2.59,-0.42
1743439617.4117618,-0.116,-0.03,-0.976,0.28,-2.45,-0.42
1743439617.4317615,-0.117,-0.03,-0.977,0.56,-2.45,-0.49
1743439617.4517615,-0.115,-0.028,-0.977,0.35,-2.45,-0.42
1743439617.4717617,-0.116,-0.03,-0.979,0.35,-2.45,-0.35
1743439617.4917617,-0.115,-0.028,-0.979,0.42,-2.59,-0.42
1743439617.5117617,-0.115,-0.031,-0.976,0.35,-2.38,-0.42
1743439617.5317616,-0.113,-0.03,-0.976,0.49,-2.38,-0.28
1743439617.5517616,-0.116,-0.031,-0.976,0.35,-2.31,-0.35
1743439617.5717616,-0.116,-0.029,-0.976,0.35,-2.59,-0.42
1743439617.5917616,-0.114,-0.031,-0.976,0.49,-2.52,-0.49
1743439617.6117616,-0.116,-0.028,-0.975,0.35,-2.52,-0.35
1743439617.6317616,-0.116,-0.027,-0.976,0.28,-2.45,-0.35
1743439617.6517615,-0.116,-0.03,-0.974,0.49,-2.52,-0.42
1743439617.6717615,-0.115,-0.034,-0.975,0.49,-2.52,-0.42
1743439617.6917615,-0.117,-0.03,-0.974,0.42,-2.38,-0.42
1743439617.7117617,-0.117,-0.03,-0.977,0.56,-2.31,-0.42
1743439617.7317617,-0.116,-0.031,-0.978,0.35,-2.45,-0.28
1743439617.7517614,-0.116,-0.03,-0.977,0.49,-2.38,-0.49
1743439617.7717614,-0.117,-0.029,-0.976,0.77,-2.45,-0.42
1743439617.7917614,-0.116,-0.03,-0.976,0.63,-2.45,-0.35
1743439617.8117614,-0.117,-0.03,-0.976,0.21,-2.59,-0.28
1743439617.8317614,-0.113,-0.03,-0.979,0.21,-2.52,-0.42
1743439617.851761,-0.115,-0.029,-0.978,0.21,-2.73,-0.42
1743439617.871761,-0.114,-0.029,-0.975,0.28,-2.59,-0.35
1743439617.8917613,-0.116,-0.029,-0.978,0.21,-2.31,-0.42
1743439617.9117613,-0.113,-0.03,-0.976,0.35,-2.38,-0.35
1743439617.9317613,-0.114,-0.031,-0.977,0.28,-2.45,-0.35
1743439617.9517612,-0.114,-0.03,-0.975,0.35,-2.38,-0.42
1743439617.9717612,-0.115,-0.031,-0.977,0.42,-2.38,-0.28
1743439617.9917612,-0.117,-0.031,-0.978,0.42,-2.59,-0.35
1743439618.0117612,-0.113,-0.029,-0.976,0.63,-2.45,-0.49
1743439618.0317612,-0.115,-0.029,-0.978,0.42,-2.52,-0.35
1743439618.0517612,-0.115,-0.029,-0.977,0.28,-2.59,-0.42
1743439618.0717611,-0.114,-0.03,-0.976,0.42,-2.52,-0.42
1743439618.091761,-0.117,-0.028,-0.979,0.42,-2.38,-0.35
1743439618.111761,-0.114,-0.03,-0.976,0.28,-2.66,-0.42
1743439618.131761,-0.115,-0.03,-0.977,0.42,-2.45,-0.35
1743439618.151761,-0.113,-0.03,-0.976,0.49,-2.45,-0.35
1743439618.171761,-0.113,-0.029,-0.978,0.49,-2.52,-0.35
1743439618.191761,-0.115,-0.03,-0.977,0.28,-2.45,-0.28
1743439618.211761,-0.116,-0.03,-0.978,0.42,-2.45,-0.42
1743439618.231761,-0.115,-0.03,-0.979,0.35,-2.59,-0.28
1743439618.251761,-0.117,-0.031,-0.976,0.42,-2.52,-0.42
1743439618.271761,-0.117,-0.029,-0.975,0.49,-2.38,-0.42
1743439618.291761,-0.116,-0.029,-0.975,0.49,-2.45,-0.49
1743439618.311761,-0.115,-0.028,-0.978,0.35,-2.45,-0.42
1743439618.331761,-0.115,-0.03,-0.979,0.42,-2.45,-0.42
1743439618.3517609,-0.114,-0.031,-0.977,0.56,-2.52,-0.35
1743439618.3717608,-0.115,-0.03,-0.977,0.42,-2.52,-0.42
1743439618.3917608,-0.117,-0.029,-0.977,0.28,-2.59,-0.35
1743439618.4117608,-0.117,-0.029,-0.977,0.35,-2.52,-0.35
1743439618.4317608,-0.115,-0.029,-0.979,0.49,-2.52,-0.42
1743439618.4517608,-0.115,-0.03,-0.976,0.28,-2.45,-0.49
1743439618.4717607,-0.117,-0.031,-0.977,0.21,-2.52,-0.42
1743439618.4917607,-0.115,-0.03,-0.976,0.63,-2.52,-0.42
1743439618.5117607,-0.117,-0.031,-0.976,0.49,-2.66,-0.42
1743439618.5317607,-0.115,-0.03,-0.978,0.28,-2.73,-0.35
1743439618.551761,-0.116,-0.029,-0.976,0.35,-2.73,-0.42
1743439618.571761,-0.115,-0.028,-0.976,0.49,-2.52,-0.42
1743439618.5917606,-0.115,-0.03,-0.978,0.42,-2.52,-0.35
1743439618.6117606,-0.116,-0.03,-0.979,0.28,-2.52,-0.35
1743439618.6317606,-0.115,-0.029,-0.976,0.63,-2.59,-0.42
1743439618.6517606,-0.116,-0.029,-0.976,0.28,-2.52,-0.35
1743439618.6717606,-0.116,-0.029,-0.976,0.49,-2.31,-0.35
1743439618.6917603,-0.116,-0.032,-0.979,0.56,-2.38,-0.49
1743439618.7117603,-0.115,-0.033,-0.979,0.21,-2.73,-0.35
1743439618.7317605,-0.113,-0.03,-0.977,0.21,-2.59,-0.42
1743439618.7517605,-0.116,-0.031,-0.979,0.63,-2.59,-0.42
1743439618.7717605,-0.114,-0.029,-0.976,0.56,-2.52,-0.42
1743439618.7917604,-0.115,-0.029,-0.975,0.21,-2.38,-0.42
1743439618.8117604,-0.114,-0.03,-0.978,0.35,-2.59,-0.35
1743439618.8317604,-0.114,-0.03,-0.979,0.42,-2.45,-0.35
1743439618.8517604,-0.116,-0.032,-0.976,0.42,-2.45,-0.42
1743439618.8717604,-0.116,-0.03,-0.976,0.35,-2.45,-0.35
1743439618.8917603,-0.117,-0.03,-0.976,0.28,-2.45,-0.35
1743439618.9117603,-0.115,-0.03,-0.976,0.63,-2.38,-0.49
1743439618.9317603,-0.118,-0.029,-0.977,0.42,-2.38,-0.35
1743439618.9517603,-0.114,-0.031,-0.977,0.21,-2.52,-0.35
1743439618.9717605,-0.115,-0.029,-0.976,0.35,-2.45,-0.28
1743439618.9917605,-0.116,-0.028,-0.976,0.56,-2.45,-0.49
1743439619.0117602,-0.115,-0.029,-0.979,0.35,-2.45,-0.42
1743439619.0317602,-0.115,-0.03,-0.978,0.28,-2.52,-0.35
1743439619.0517602,-0.116,-0.031,-0.975,0.56,-2.59,-0.42
1743439619.0717602,-0.117,-0.032,-0.975,0.56,-2.38,-0.42
1743439619.0917602,-0.115,-0.031,-0.976,0.28,-2.52,-0.42
1743439619.11176,-0.116,-0.03,-0.977,0.14,-2.52,-0.42
1743439619.13176,-0.115,-0.03,-0.976,0.56,-2.52,-0.42
1743439619.15176,-0.115,-0.029,-0.975,0.49,-2.45,-0.35
1743439619.17176,-0.114,-0.029,-0.978,0.14,-2.52,-0.42
1743439619.19176,-0.113,-0.029,-0.976,0.35,-2.52,-0.35
1743439619.21176,-0.115,-0.031,-0.976,0.49,-2.38,-0.35
1743439619.23176,-0.115,-0.03,-0.978,0.35,-2.38,-0.35
1743439619.25176,-0.115,-0.029,-0.976,0.35,-2.45,-0.35
1743439619.27176,-0.117,-0.03,-0.976,0.42,-2.45,-0.49
1743439619.29176,-0.115,-0.028,-0.976,0.49,-2.38,-0.42
1743439619.31176,-0.116,-0.029,-0.977,0.35,-2.38,-0.35
1743439619.33176,-0.117,-0.031,-0.977,0.42,-2.45,-0.42
1743439619.35176,-0.115,-0.031,-0.975,0.42,-2.52,-0.42
1743439619.37176,-0.118,-0.03,-0.979,0.42,-2.52,-0.49
1743439619.39176,-0.114,-0.028,-0.977,0.21,-2.52,-0.35
1743439619.41176,-0.118,-0.032,-0.975,0.56,-2.59,-0.35
1743439619.4317598,-0.116,-0.029,-0.975,0.49,-2.38,-0.35
1743439619.4517598,-0.115,-0.03,-0.978,0.28,-2.52,-0.42
1743439619.4717598,-0.115,-0.029,-0.976,0.21,-2.45,-0.42
1743439619.4917598,-0.115,-0.029,-0.976,0.56,-2.59,-0.42
1743439619.5117598,-0.115,-0.031,-0.978,0.42,-2.45,-0.42
1743439619.5317595,-0.116,-0.032,-0.978,0.21,-2.59,-0.35
1743439619.5517595,-0.115,-0.031,-0.976,0.49,-2.45,-0.35
1743439619.5717597,-0.117,-0.027,-0.974,0.49,-2.38,-0.42
1743439619.5917597,-0.116,-0.027,-0.977,0.35,-2.38,-0.35
1743439619.6117597,-0.114,-0.029,-0.978,0.42,-2.59,-0.35
1743439619.6317596,-0.114,-0.03,-0.976,0.63,-2.45,-0.35
1743439619.6517596,-0.116,-0.031,-0.977,0.49,-2.38,-0.35
1743439619.6717596,-0.114,-0.03,-0.979,0.28,-2.52,-0.35
1743439619.6917596,-0.115,-0.031,-0.977,0.49,-2.52,-0.35
1743439619.7117596,-0.117,-0.031,-0.978,0.42,-2.52,-0.42
1743439619.7317595,-0.117,-0.027,-0.977,0.35,-2.59,-0.35
1743439619.7517595,-0.116,-0.028,-0.977,0.42,-2.59,-0.42
1743439619.7717595,-0.117,-0.028,-0.979,0.49,-2.59,-0.42
1743439619.7917595,-0.115,-0.029,-0.978,0.28,-2.59,-0.35
1743439619.8117597,-0.116,-0.029,-0.977,0.28,-2.66,-0.42
1743439619.8317597,-0.114,-0.029,-0.977,0.42,-2.52,-0.49
1743439619.8517594,-0.116,-0.028,-0.976,0.56,-2.52,-0.35
1743439619.8717594,-0.117,-0.031,-0.977,0.35,-2.45,-0.42
1743439619.8917594,-0.114,-0.029,-0.975,0.21,-2.59,-0.42
1743439619.9117594,-0.114,-0.03,-0.976,0.49,-2.52,-0.35
1743439619.9317594,-0.116,-0.029,-0.977,0.35,-2.52,-0.35
1743439619.951759,-0.115,-0.028,-0.977,0.42,-2.45,-0.42
1743439619.971759,-0.115,-0.028,-0.975,0.35,-2.66,-0.42
1743439619.9917593,-0.115,-0.03,-0.978,0.56,-2.38,-0.35
1743439620.0117593,-0.115,-0.03,-0.978,0.35,-2.52,-0.42
1743439620.0317593,-0.114,-0.031,-0.977,0.35,-2.52,-0.35
1743439620.0517592,-0.116,-0.03,-0.978,0.42,-2.66,-0.42
1743439620.0717592,-0.115,-0.03,-0.977,0.35,-2.45,-0.42
1743439620.0917592,-0.116,-0.029,-0.977,0.42,-2.52,-0.42
1743439620.1117592,-0.116,-0.029,-0.976,0.56,-2.52,-0.28
1743439620.1317592,-0.116,-0.031,-0.976,0.63,-2.38,-0.35
1743439620.1517591,-0.117,-0.029,-0.977,0.42,-2.45,-0.42
1743439620.1717591,-0.114,-0.029,-0.977,0.28,-2.52,-0.35
1743439620.191759,-0.116,-0.03,-0.981,0.35,-2.52,-0.28
1743439620.211759,-0.117,-0.029,-0.977,0.56,-2.38,-0.42
1743439620.231759,-0.117,-0.028,-0.976,0.21,-2.52,-0.35
1743439620.251759,-0.116,-0.028,-0.978,0.28,-2.59,-0.28
1743439620.271759,-0.115,-0.028,-0.977,0.56,-2.45,-0.42
1743439620.291759,-0.115,-0.03,-0.976,0.49,-2.45,-0.35
1743439620.311759,-0.115,-0.028,-0.976,0.28,-2.59,-0.42
1743439620.331759,-0.118,-0.032,-0.975,0.63,-2.45,-0.35
1743439620.351759,-0.116,-0.03,-0.975,0.49,-2.38,-0.42
1743439620.371759,-0.115,-0.028,-0.976,0.21,-2.38,-0.42
1743439620.391759,-0.115,-0.029,-0.976,0.28,-2.52,-0.35
1743439620.411759,-0.115,-0.028,-0.977,0.63,-2.45,-0.42
1743439620.4317589,-0.115,-0.029,-0.973,0.56,-2.38,-0.49
1743439620.4517589,-0.116,-0.033,-0.979,0.35,-2.52,-0.35
1743439620.4717588,-0.116,-0.031,-0.978,0.35,-2.45,-0.42
1743439620.4917588,-0.116,-0.029,-0.977,0.42,-2.38,-0.42
1743439620.5117588,-0.116,-0.028,-0.978,0.35,-2.45,-0.42
1743439620.5317588,-0.117,-0.029,-0.976,0.21,-2.52,-0.42
1743439620.56586,-0.116,-0.031,-0.977,0.49,-2.31,-0.49
1743439620.58586,-0.117,-0.03,-0.976,0.42,-2.38,-0.42
1743439620.60586,-0.115,-0.032,-0.976,0.14,-2.45,-0.42
1743439620.62586,-0.113,-0.031,-0.975,0.14,-2.38,-0.28
1743439620.64586,-0.116,-0.03,-0.974,0.49,-2.17,-0.42
1743439620.66586,-0.116,-0.028,-0.977,0.35,-2.45,-0.35
1743439620.68586,-0.116,-0.027,-0.974,0.21,-2.45,-0.28
1743439620.70586,-0.114,-0.03,-0.976,0.63,-2.52,-0.28
1743439620.72586,-0.116,-0.032,-0.977,0.56,-2.31,-0.42
1743439620.74586,-0.115,-0.03,-0.977,0.21,-2.52,-0.42
1743439620.7658598,-0.113,-0.031,-0.975,0.28,-2.59,-0.35
1743439620.7858598,-0.113,-0.03,-0.977,0.42,-2.38,-0.42
1743439620.8058598,-0.116,-0.031,-0.978,0.42,-2.45,-0.49
1743439620.8258598,-0.116,-0.03,-0.974,0.35,-2.38,-0.35
1743439620.8458598,-0.117,-0.028,-0.977,0.42,-2.66,-0.42
1743439620.8658595,-0.117,-0.031,-0.978,0.49,-2.52,-0.42
1743439620.8858595,-0.117,-0.03,-0.979,0.35,-2.59,-0.42
1743439620.9058597,-0.115,-0.03,-0.978,0.35,-2.52,-0.35
1743439620.9258597,-0.117,-0.03,-0.976,0.42,-2.45,-0.49
1743439620.9458597,-0.118,-0.031,-0.977,0.42,-2.45,-0.35
1743439620.9658597,-0.115,-0.03,-0.976,0.28,-2.45,-0.42
1743439620.9858596,-0.114,-0.029,-0.976,0.28,-2.52,-0.35
1743439621.0058596,-0.113,-0.031,-0.977,0.42,-2.59,-0.35
1743439621.0258596,-0.114,-0.03,-0.976,0.28,-2.52,-0.28
1743439621.0458596,-0.118,-0.03,-0.979,0.35,-2.59,-0.35
1743439621.0658596,-0.115,-0.029,-0.975,0.42,-2.52,-0.35
1743439621.0858595,-0.116,-0.026,-0.976,0.28,-2.24,-0.42
1743439621.1058595,-0.108,-0.027,-0.977,0.7,-2.59,-0.42
1743439621.1258595,-0.114,-0.037,-0.976,0.7,-2.87,-0.28
1743439621.1458597,-0.12,-0.03,-0.976,0.42,-2.59,-0.42
1743439621.1658597,-0.12,-0.031,-0.977,0.42,-2.59,-0.35
1743439621.1858594,-0.115,-0.032,-0.978,0.42,-2.31,-0.42
1743439621.2058594,-0.113,-0.029,-0.978,0.35,-2.45,-0.35
1743439621.2258594,-0.112,-0.028,-0.977,0.49,-2.59,-0.42
1743439621.2458594,-0.117,-0.029,-0.978,0.21,-2.66,-0.35
1743439621.2658594,-0.117,-0.029,-0.977,0.35,-2.52,-0.28
1743439621.285859,-0.114,-0.03,-0.978,0.56,-2.45,-0.35
1743439621.305859,-0.115,-0.03,-0.977,0.42,-2.45,-0.42
1743439621.3258593,-0.114,-0.029,-0.977,0.28,-2.45,-0.35
1743439621.3458593,-0.116,-0.026,-0.976,0.63,-2.52,-0.35
1743439621.3658593,-0.116,-0.03,-0.978,0.7,-2.45,-0.35
1743439621.3858593,-0.115,-0.029,-0.978,0.56,-2.45,-0.42
1743439621.4058592,-0.114,-0.032,-0.978,0.42,-2.59,-0.42
1743439621.4258592,-0.114,-0.031,-0.975,0.56,-2.45,-0.56
1743439621.4458592,-0.116,-0.029,-0.976,0.42,-2.45,-0.49
1743439621.4658592,-0.115,-0.03,-0.979,0.07,-2.59,-0.35
1743439621.4858592,-0.116,-0.03,-0.978,0.35,-2.52,-0.49
1743439621.5058591,-0.116,-0.029,-0.975,0.56,-2.45,-0.35
1743439621.525859,-0.116,-0.028,-0.976,0.42,-2.45,-0.35
1743439621.545859,-0.115,-0.03,-0.979,0.28,-2.38,-0.42
1743439621.565859,-0.114,-0.028,-0.977,0.63,-2.45,-0.28
1743439621.585859,-0.116,-0.03,-0.976,0.56,-2.45,-0.42
1743439621.605859,-0.113,-0.028,-0.976,0.28,-2.38,-0.35
1743439621.625859,-0.114,-0.03,-0.978,0.49,-2.52,-0.35
1743439621.645859,-0.116,-0.028,-0.978,0.56,-2.45,-0.42
1743439621.665859,-0.115,-0.029,-0.978,0.63,-2.45,-0.49
1743439621.685859,-0.114,-0.028,-0.977,0.14,-2.8,-0.28
1743439621.705859,-0.118,-0.025,-0.976,0.28,-2.66,-0.28
1743439621.725859,-0.115,-0.026,-0.976,0.91,-2.24,-0.35
1743439621.745859,-0.113,-0.034,-0.977,0.49,-2.31,-0.35
1743439621.765859,-0.115,-0.034,-0.974,0.14,-2.66,-0.35
1743439621.7858589,-0.115,-0.033,-0.977,0.49,-2.66,-0.28
1743439621.8058589,-0.118,-0.03,-0.979,0.35,-2.38,-0.42
1743439621.8258588,-0.117,-0.028,-0.978,0.07,-2.45,-0.42
1743439621.8458588,-0.116,-0.029,-0.976,0.63,-2.38,-0.56
1743439621.8658588,-0.113,-0.029,-0.976,0.42,-2.38,-0.35
1743439621.8858588,-0.115,-0.03,-0.978,0.28,-2.45,-0.35
1743439621.9058588,-0.113,-0.03,-0.975,0.49,-2.66,-0.35
1743439621.9258587,-0.116,-0.031,-0.976,0.49,-2.52,-0.35
1743439621.9458587,-0.114,-0.029,-0.976,0.56,-2.45,-0.42
1743439621.9658587,-0.114,-0.03,-0.976,0.42,-2.45,-0.35
1743439621.985859,-0.114,-0.032,-0.979,0.35,-2.59,-0.35
1743439622.005859,-0.116,-0.031,-0.976,0.35,-2.52,-0.35
1743439622.0258586,-0.119,-0.03,-0.977,0.35,-2.52,-0.42
1743439622.0458586,-0.114,-0.033,-0.976,0.28,-2.45,-0.42
1743439622.0658586,-0.116,-0.029,-0.974,0.56,-2.38,-0.49
1743439622.0858586,-0.116,-0.032,-0.978,0.63,-2.45,-0.35
1743439622.1058586,-0.113,-0.032,-0.976,0.21,-2.45,-0.28
1743439622.1258583,-0.114,-0.027,-0.973,0.49,-2.45,-0.42
1743439622.1458583,-0.115,-0.028,-0.976,0.49,-2.24,-0.42
1743439622.1658585,-0.115,-0.03,-0.974,0.28,-2.38,-0.42
1743439622.1858585,-0.116,-0.029,-0.978,0.56,-2.45,-0.35
1743439622.2058585,-0.114,-0.029,-0.976,0.63,-2.38,-0.35
1743439622.2258584,-0.116,-0.031,-0.973,0.49,-2.45,-0.42
1743439622.2458584,-0.117,-0.029,-0.976,0.28,-2.66,-0.35
1743439622.2658584,-0.114,-0.029,-0.976,0.56,-2.45,-0.42
1743439622.2858584,-0.113,-0.032,-0.976,0.91,-2.38,-0.35
1743439622.3058584,-0.117,-0.031,-0.976,0.56,-2.59,-0.35
1743439622.3258584,-0.115,-0.032,-0.976,0.35,-2.52,-0.42
1743439622.3458583,-0.116,-0.031,-0.977,0.21,-2.73,-0.35
1743439622.3658583,-0.115,-0.03,-0.978,0.7,-2.45,-0.35
1743439622.3858583,-0.118,-0.03,-0.978,0.49,-2.59,-0.35
1743439622.4058585,-0.114,-0.033,-0.976,0.28,-2.45,-0.42
1743439622.4258585,-0.115,-0.032,-0.977,0.56,-2.45,-0.42
1743439622.4458582,-0.116,-0.029,-0.977,0.49,-2.38,-0.42
1743439622.4658582,-0.117,-0.028,-0.978,0.28,-2.52,-0.42
1743439622.4858582,-0.115,-0.029,-0.977,0.42,-2.52,-0.42
1743439622.5058582,-0.117,-0.028,-0.976,0.56,-2.31,-0.35
1743439622.5258582,-0.116,-0.032,-0.976,0.56,-2.45,-0.49
1743439622.545858,-0.117,-0.031,-0.978,0.42,-2.45,-0.35
1743439622.565858,-0.114,-0.032,-0.976,0.42,-2.38,-0.35
1743439622.585858,-0.115,-0.028,-0.976,0.42,-2.45,-0.42
1743439622.605858,-0.114,-0.03,-0.977,0.56,-2.45,-0.42
1743439622.625858,-0.116,-0.031,-0.977,0.42,-2.52,-0.35
1743439622.645858,-0.113,-0.032,-0.977,0.63,-2.52,-0.35
1743439622.665858,-0.116,-0.03,-0.976,0.49,-2.59,-0.42
1743439622.685858,-0.115,-0.031,-0.976,0.35,-2.52,-0.42
1743439622.705858,-0.117,-0.03,-0.976,0.56,-2.45,-0.42
1743439622.725858,-0.115,-0.03,-0.977,0.56,-2.45,-0.42
1743439622.745858,-0.114,-0.029,-0.976,0.35,-2.45,-0.49
1743439622.765858,-0.115,-0.029,-0.979,0.28,-2.52,-0.42
1743439622.785858,-0.115,-0.029,-0.976,0.49,-2.66,-0.42
1743439622.805858,-0.114,-0.029,-0.976,0.63,-2.52,-0.42
1743439622.825858,-0.114,-0.031,-0.977,0.42,-2.59,-0.35
1743439622.845858,-0.114,-0.028,-0.977,0.42,-2.45,-0.35
1743439622.8658578,-0.115,-0.028,-0.979,0.49,-2.45,-0.42
1743439622.8858578,-0.116,-0.03,-0.977,0.56,-2.52,-0.35
1743439622.9058578,-0.114,-0.031,-0.977,0.42,-2.59,-0.42
1743439622.9258578,-0.115,-0.03,-0.977,0.42,-2.52,-0.35
1743439622.9458578,-0.112,-0.03,-0.977,0.28,-2.52,-0.35
1743439622.9658575,-0.115,-0.031,-0.977,0.21,-2.59,-0.28
1743439622.9858575,-0.114,-0.031,-0.978,0.35,-2.52,-0.42
1743439623.0058577,-0.115,-0.028,-0.978,0.49,-2.45,-0.42
1743439623.0258577,-0.116,-0.029,-0.976,0.49,-2.38,-0.42
1743439623.0458577,-0.117,-0.031,-0.979,0.35,-2.59,-0.42
1743439623.0658576,-0.114,-0.03,-0.977,0.49,-2.52,-0.49
1743439623.0858576,-0.115,-0.029,-0.976,0.49,-2.52,-0.42
1743439623.1058576,-0.113,-0.032,-0.978,0.35,-2.45,-0.28
1743439623.1258576,-0.114,-0.031,-0.977,0.42,-2.52,-0.42
1743439623.1458576,-0.114,-0.031,-0.977,0.35,-2.45,-0.42
1743439623.1658576,-0.114,-0.029,-0.976,0.28,-2.45,-0.49
1743439623.1858575,-0.118,-0.03,-0.976,0.35,-2.45,-0.35
1743439623.2058575,-0.115,-0.03,-0.973,0.42,-2.52,-0.35
1743439623.2258575,-0.114,-0.031,-0.975,0.56,-2.45,-0.49
1743439623.2458577,-0.117,-0.032,-0.979,0.28,-2.45,-0.35
1743439623.2679272,-0.114,-0.03,-0.978,0.28,-2.45,-0.35
1743439623.2879272,-0.114,-0.029,-0.977,0.49,-2.52,-0.35
1743439623.3079271,-0.119,-0.03,-0.977,0.49,-2.31,-0.49
1743439623.327927,-0.115,-0.03,-0.979,0.35,-2.38,-0.35
1743439623.347927,-0.118,-0.028,-0.979,0.28,-2.66,-0.42
1743439623.367927,-0.114,-0.032,-0.976,0.63,-2.59,-0.49
1743439623.387927,-0.118,-0.031,-0.977,0.42,-2.52,-0.42
1743439623.407927,-0.115,-0.029,-0.975,0.21,-2.59,-0.35
1743439623.427927,-0.115,-0.03,-0.977,0.28,-2.38,-0.42
1743439623.447927,-0.114,-0.032,-0.977,0.42,-2.38,-0.42
1743439623.467927,-0.115,-0.029,-0.979,0.28,-2.38,-0.42
1743439623.487927,-0.113,-0.031,-0.975,0.42,-2.38,-0.42
1743439623.507927,-0.116,-0.03,-0.977,0.49,-2.45,-0.49
1743439623.527927,-0.115,-0.03,-0.977,0.35,-2.45,-0.35
1743439623.547927,-0.115,-0.03,-0.977,0.28,-2.45,-0.42
1743439623.567927,-0.116,-0.029,-0.977,0.42,-2.52,-0.35
1743439623.5879269,-0.116,-0.028,-0.975,0.49,-2.38,-0.35
1743439623.6079268,-0.114,-0.031,-0.975,0.21,-2.45,-0.42
1743439623.6279268,-0.114,-0.032,-0.977,0.49,-2.59,-0.42
1743439623.6479268,-0.114,-0.032,-0.977,0.49,-2.52,-0.49
1743439623.6679268,-0.116,-0.031,-0.976,0.35,-2.45,-0.42
1743439623.6879268,-0.115,-0.03,-0.978,0.35,-2.52,-0.35
1743439623.7079268,-0.115,-0.029,-0.98,0.42,-2.45,-0.35
1743439623.7279267,-0.115,-0.03,-0.977,0.49,-2.45,-0.49
1743439623.7479267,-0.116,-0.03,-0.977,0.42,-2.52,-0.35
1743439623.7679267,-0.117,-0.03,-0.977,0.42,-2.52,-0.49
1743439623.787927,-0.116,-0.029,-0.977,0.42,-2.52,-0.49
1743439623.807927,-0.115,-0.03,-0.975,0.42,-2.45,-0.35
1743439623.8279266,-0.116,-0.03,-0.974,0.56,-2.52,-0.35
1743439623.8479266,-0.115,-0.032,-0.977,0.42,-2.45,-0.42
1743439623.8679266,-0.117,-0.029,-0.979,0.35,-2.59,-0.42
1743439623.8879266,-0.114,-0.029,-0.978,0.21,-2.52,-0.28
1743439623.9079266,-0.115,-0.028,-0.977,0.63,-2.52,-0.42
1743439623.9279263,-0.117,-0.029,-0.976,0.14,-2.38,-0.42
1743439623.9479263,-0.116,-0.029,-0.978,0.07,-2.52,-0.28
1743439623.9679265,-0.117,-0.03,-0.977,0.56,-2.38,-0.42
1743439623.9879265,-0.116,-0.03,-0.976,0.42,-2.38,-0.49
1743439624.0079265,-0.116,-0.03,-0.975,0.21,-2.66,-0.42
1743439624.0279264,-0.116,-0.029,-0.977,0.21,-2.38,-0.42
1743439624.0479264,-0.113,-0.032,-0.979,0.35,-2.73,-0.35
1743439624.0679264,-0.116,-0.03,-0.976,0.7,-2.45,-0.35
1743439624.0879264,-0.117,-0.032,-0.976,0.42,-2.31,-0.42
1743439624.1079264,-0.114,-0.033,-0.978,0.35,-2.66,-0.35
1743439624.1279263,-0.115,-0.03,-0.976,0.35,-2.66,-0.42
1743439624.1479263,-0.116,-0.029,-0.977,0.42,-2.45,-0.42
1743439624.1679263,-0.114,-0.03,-0.976,0.42,-2.66,-0.42
1743439624.1879263,-0.113,-0.031,-0.977,0.28,-2.59,-0.42
1743439624.2079265,-0.115,-0.031,-0.977,0.49,-2.52,-0.35
1743439624.2279265,-0.113,-0.033,-0.976,0.42,-2.52,-0.49
1743439624.2479262,-0.117,-0.029,-0.977,0.21,-2.52,-0.35
1743439624.2679262,-0.116,-0.028,-0.976,0.49,-2.38,-0.42
1743439624.2879262,-0.114,-0.029,-0.974,0.49,-2.45,-0.42
1743439624.3079262,-0.113,-0.03,-0.979,0.21,-2.52,-0.42
1743439624.3279262,-0.117,-0.031,-0.975,0.49,-2.38,-0.42
1743439624.347926,-0.116,-0.029,-0.976,0.49,-2.45,-0.42
1743439624.367926,-0.117,-0.029,-0.977,0.42,-2.45,-0.35
1743439624.387926,-0.115,-0.031,-0.976,0.35,-2.59,-0.42
1743439624.407926,-0.115,-0.031,-0.978,0.56,-2.59,-0.42
1743439624.427926,-0.118,-0.032,-0.975,0.7,-2.45,-0.49
1743439624.447926,-0.115,-0.031,-0.976,0.21,-2.45,-0.35
1743439624.467926,-0.117,-0.031,-0.977,0.35,-2.52,-0.35
1743439624.487926,-0.116,-0.03,-0.977,0.56,-2.45,-0.42
1743439624.507926,-0.115,-0.028,-0.979,0.56,-2.45,-0.42
1743439624.527926,-0.116,-0.031,-0.976,0.35,-2.59,-0.35
1743439624.547926,-0.114,-0.029,-0.976,0.28,-2.45,-0.42
1743439624.567926,-0.114,-0.028,-0.976,0.14,-2.31,-0.42
1743439624.587926,-0.113,-0.031,-0.976,0.42,-2.59,-0.42
1743439624.607926,-0.115,-0.029,-0.977,0.49,-2.45,-0.35
1743439624.627926,-0.115,-0.03,-0.972,0.49,-2.45,-0.42
1743439624.647926,-0.119,-0.03,-0.976,0.49,-2.45,-0.42
1743439624.6679258,-0.115,-0.031,-0.975,0.49,-2.52,-0.35
1743439624.6879258,-0.117,-0.029,-0.976,0.42,-2.59,-0.35
1743439624.7079258,-0.115,-0.031,-0.98,0.42,-2.66,-0.42
1743439624.7279258,-0.114,-0.029,-0.978,0.42,-2.66,-0.42
1743439624.7479258,-0.115,-0.029,-0.977,0.49,-2.52,-0.28
1743439624.7679255,-0.115,-0.031,-0.977,0.56,-2.17,-0.42
1743439624.7879255,-0.116,-0.033,-0.976,0.28,-2.52,-0.35
1743439624.8079257,-0.116,-0.031,-0.976,0.28,-2.45,-0.35
1743439624.8279257,-0.117,-0.029,-0.975,0.42,-2.45,-0.35
1743439624.8479257,-0.115,-0.03,-0.977,0.42,-2.45,-0.35
1743439624.8679256,-0.116,-0.029,-0.976,0.28,-2.45,-0.35
1743439624.8879256,-0.116,-0.032,-0.976,0.49,-2.45,-0.42
1743439624.9079256,-0.114,-0.03,-0.976,0.56,-2.38,-0.35
1743439624.9279256,-0.117,-0.031,-0.975,0.28,-2.52,-0.28
1743439624.9479256,-0.117,-0.031,-0.976,0.49,-2.59,-0.42
1743439624.9679255,-0.116,-0.029,-0.976,0.49,-2.38,-0.42
1743439624.9879255,-0.112,-0.029,-0.976,0.28,-2.45,-0.42
1743439625.0079255,-0.114,-0.03,-0.976,0.28,-2.52,-0.35
1743439625.0279255,-0.116,-0.029,-0.976,0.35,-2.45,-0.28
1743439625.0479257,-0.115,-0.028,-0.975,0.49,-2.38,-0.49
1743439625.0679257,-0.115,-0.031,-0.976,0.35,-2.45,-0.35
1743439625.0879254,-0.116,-0.029,-0.976,0.42,-2.52,-0.35
1743439625.1079254,-0.114,-0.031,-0.975,0.42,-2.45,-0.42
1743439625.1279254,-0.116,-0.03,-0.977,0.28,-2.45,-0.42
1743439625.1479254,-0.115,-0.028,-0.975,0.42,-2.52,-0.28
1743439625.1679254,-0.115,-0.029,-0.975,0.49,-2.45,-0.35
1743439625.187925,-0.117,-0.03,-0.976,0.49,-2.45,-0.35
1743439625.207925,-0.116,-0.028,-0.977,0.42,-2.52,-0.42
1743439625.2279253,-0.115,-0.031,-0.976,0.35,-2.52,-0.35
1743439625.2479253,-0.115,-0.028,-0.978,0.56,-2.52,-0.42
1743439625.2679253,-0.115,-0.03,-0.978,0.49,-2.52,-0.42
1743439625.2879252,-0.117,-0.03,-0.976,0.28,-2.45,-0.35
1743439625.3079252,-0.113,-0.028,-0.976,0.49,-2.52,-0.42
1743439625.3279252,-0.117,-0.031,-0.977,0.35,-2.38,-0.42
1743439625.3479252,-0.117,-0.029,-0.979,0.35,-2.52,-0.35
1743439625.3679252,-0.117,-0.031,-0.977,0.56,-2.52,-0.42
1743439625.3879251,-0.112,-0.03,-0.978,0.42,-2.38,-0.42
1743439625.4079251,-0.115,-0.031,-0.979,0.35,-2.45,-0.42
1743439625.427925,-0.117,-0.03,-0.976,0.35,-2.45,-0.35
1743439625.447925,-0.117,-0.031,-0.976,0.56,-2.38,-0.49
1743439625.467925,-0.115,-0.029,-0.978,0.28,-2.45,-0.42
1743439625.487925,-0.117,-0.03,-0.976,0.42,-2.45,-0.35
1743439625.507925,-0.114,-0.029,-0.977,0.35,-2.59,-0.42
1743439625.527925,-0.114,-0.029,-0.978,0.56,-2.31,-0.35
1743439625.547925,-0.115,-0.029,-0.978,0.35,-2.52,-0.35
1743439625.567925,-0.116,-0.03,-0.977,0.42,-2.52,-0.35
1743439625.587925,-0.115,-0.029,-0.976,0.42,-2.45,-0.35
1743439625.607925,-0.115,-0.029,-0.978,0.28,-2.45,-0.35
1743439625.627925,-0.112,-0.03,-0.98,0.14,-2.45,-0.35
1743439625.647925,-0.115,-0.028,-0.977,0.56,-2.45,-0.42
1743439625.668021,-0.116,-0.029,-0.977,0.63,-2.38,-0.42
1743439625.688021,-0.115,-0.029,-0.977,0.28,-2.59,-0.42
1743439625.708021,-0.116,-0.03,-0.976,0.35,-2.52,-0.28
1743439625.728021,-0.117,-0.03,-0.976,0.49,-2.52,-0.42
1743439625.748021,-0.117,-0.029,-0.975,0.28,-2.38,-0.42
1743439625.7680209,-0.117,-0.03,-0.976,0.35,-2.66,-0.35
1743439625.7880208,-0.115,-0.03,-0.978,0.42,-2.45,-0.35
1743439625.8080208,-0.115,-0.028,-0.976,0.35,-2.45,-0.35
1743439625.8280208,-0.115,-0.03,-0.978,0.28,-2.52,-0.35
1743439625.8480208,-0.118,-0.029,-0.978,0.35,-2.38,-0.35
1743439625.8680208,-0.115,-0.026,-0.979,0.49,-2.38,-0.42
1743439625.8880208,-0.116,-0.029,-0.977,0.28,-2.45,-0.35
1743439625.9080207,-0.116,-0.029,-0.976,0.35,-2.59,-0.42
1743439625.9280207,-0.114,-0.03,-0.976,0.56,-2.52,-0.42
1743439625.9480207,-0.115,-0.03,-0.977,0.28,-2.45,-0.35
1743439625.968021,-0.115,-0.03,-0.976,0.28,-2.52,-0.35
1743439625.988021,-0.117,-0.03,-0.976,0.35,-2.45,-0.28
1743439626.0080206,-0.115,-0.031,-0.977,0.49,-2.38,-0.42
1743439626.0280206,-0.115,-0.03,-0.976,0.49,-2.38,-0.35
1743439626.0480206,-0.113,-0.03,-0.977,0.49,-2.59,-0.42
1743439626.0680206,-0.113,-0.03,-0.976,0.42,-2.66,-0.49
1743439626.0880206,-0.114,-0.027,-0.976,0.21,-2.66,-0.35
1743439626.1080203,-0.115,-0.03,-0.978,0.35,-2.66,-0.28
1743439626.1280203,-0.115,-0.03,-0.977,0.63,-2.31,-0.42
1743439626.1480205,-0.117,-0.03,-0.978,0.14,-2.52,-0.35
1743439626.1680205,-0.116,-0.03,-0.976,0.07,-2.45,-0.35
1743439626.1880205,-0.115,-0.031,-0.978,0.49,-2.45,-0.35
1743439626.2080204,-0.115,-0.031,-0.976,0.63,-2.45,-0.42
1743439626.2280204,-0.117,-0.031,-0.976,0.35,-2.52,-0.35
1743439626.2480204,-0.114,-0.031,-0.978,0.42,-2.59,-0.42
1743439626.2680204,-0.115,-0.03,-0.976,0.56,-2.45,-0.42
1743439626.2880204,-0.113,-0.032,-0.977,0.14,-2.59,-0.42
1743439626.3080204,-0.119,-0.029,-0.977,0.21,-2.66,-0.42
1743439626.3280203,-0.115,-0.029,-0.977,0.56,-2.38,-0.42
1743439626.3480203,-0.118,-0.029,-0.977,0.42,-2.38,-0.49
1743439626.3680203,-0.115,-0.03,-0.978,0.28,-2.59,-0.35
1743439626.3880205,-0.115,-0.031,-0.975,0.28,-2.45,-0.35
1743439626.4080205,-0.115,-0.03,-0.975,0.49,-2.24,-0.42
1743439626.4280202,-0.115,-0.03,-0.978,0.28,-2.31,-0.42
1743439626.4480202,-0.117,-0.029,-0.974,0.42,-2.52,-0.35
1743439626.4680202,-0.116,-0.03,-0.976,0.42,-2.31,-0.42
1743439626.4880202,-0.115,-0.028,-0.978,0.42,-2.59,-0.35
1743439626.5080202,-0.114,-0.03,-0.975,0.42,-2.52,-0.42
1743439626.52802,-0.116,-0.029,-0.978,0.49,-2.45,-0.35
1743439626.54802,-0.115,-0.031,-0.977,0.56,-2.59,-0.49
1743439626.56802,-0.113,-0.029,-0.976,0.28,-2.52,-0.35
1743439626.58802,-0.114,-0.032,-0.976,0.35,-2.59,-0.49
1743439626.60802,-0.117,-0.029,-0.977,0.56,-2.59,-0.56
1743439626.62802,-0.115,-0.029,-0.978,0.42,-2.52,-0.42
1743439626.64802,-0.116,-0.031,-0.976,0.21,-2.52,-0.42
1743439626.66802,-0.115,-0.031,-0.976,0.49,-2.45,-0.42
1743439626.68802,-0.116,-0.029,-0.978,0.49,-2.38,-0.42
1743439626.70802,-0.115,-0.032,-0.976,0.28,-2.38,-0.42
1743439626.72802,-0.114,-0.03,-0.976,0.42,-2.45,-0.35
1743439626.74802,-0.113,-0.029,-0.977,0.63,-2.31,-0.42
1743439626.76802,-0.113,-0.031,-0.98,0.28,-2.52,-0.35
1743439626.78802,-0.116,-0.03,-0.98,0.14,-2.59,-0.35
1743439626.80802,-0.115,-0.03,-0.974,0.7,-2.52,-0.49
1743439626.82802,-0.116,-0.029,-0.975,0.56,-2.45,-0.35
1743439626.8480198,-0.119,-0.031,-0.977,0.21,-2.52,-0.28
1743439626.8680198,-0.115,-0.03,-0.976,0.49,-2.45,-0.35
1743439626.8880198,-0.115,-0.029,-0.978,0.56,-2.45,-0.42
1743439626.9080198,-0.118,-0.031,-0.978,0.35,-2.38,-0.35
1743439626.9280198,-0.117,-0.029,-0.978,0.35,-2.52,-0.42
1743439626.9480195,-0.113,-0.029,-0.976,0.63,-2.52,-0.28
1743439626.9680195,-0.115,-0.03,-0.975,0.35,-2.52,-0.35
1743439626.9880197,-0.114,-0.03,-0.976,0.28,-2.52,-0.42
1743439627.0080197,-0.114,-0.032,-0.976,0.49,-2.52,-0.35
1743439627.0280197,-0.113,-0.03,-0.978,0.42,-2.45,-0.49
1743439627.0480196,-0.117,-0.033,-0.976,0.35,-2.52,-0.42
1743439627.0680196,-0.116,-0.029,-0.973,0.42,-2.59,-0.42
1743439627.0880196,-0.115,-0.031,-0.976,0.49,-2.45,-0.35
1743439627.1080196,-0.117,-0.03,-0.977,0.28,-2.52,-0.42
1743439627.1280196,-0.117,-0.029,-0.977,0.35,-2.52,-0.49
1743439627.1480196,-0.114,-0.03,-0.975,0.49,-2.52,-0.49
1743439627.1680195,-0.114,-0.03,-0.976,0.42,-2.52,-0.35
1743439627.1880195,-0.114,-0.03,-0.976,0.21,-2.66,-0.42
1743439627.2080195,-0.117,-0.031,-0.978,0.28,-2.52,-0.28
1743439627.2280197,-0.117,-0.029,-0.976,0.42,-2.45,-0.42
1743439627.2480197,-0.116,-0.03,-0.976,0.28,-2.59,-0.35
1743439627.2680194,-0.115,-0.03,-0.976,0.49,-2.52,-0.42
1743439627.2880194,-0.117,-0.029,-0.977,0.63,-2.45,-0.35
1743439627.3080194,-0.115,-0.03,-0.975,0.14,-2.66,-0.28
1743439627.3280194,-0.114,-0.03,-0.977,0.56,-2.52,-0.28
1743439627.3480194,-0.115,-0.027,-0.976,0.56,-2.45,-0.49
1743439627.368019,-0.116,-0.029,-0.977,0.35,-2.45,-0.42
1743439627.388019,-0.117,-0.031,-0.977,0.28,-2.59,-0.42
1743439627.4080193,-0.117,-0.03,-0.975,0.7,-2.52,-0.42
1743439627.4280193,-0.117,-0.03,-0.976,0.7,-2.38,-0.42
1743439627.4480193,-0.116,-0.029,-0.976,0.42,-2.59,-0.49
1743439627.4680192,-0.117,-0.033,-0.976,0.28,-2.52,-0.42
1743439627.4880192,-0.115,-0.032,-0.975,0.42,-2.45,-0.49
1743439627.5080192,-0.116,-0.03,-0.976,0.35,-2.52,-0.42
1743439627.5280192,-0.116,-0.03,-0.975,0.28,-2.59,-0.42
1743439627.5480192,-0.117,-0.031,-0.976,0.49,-2.45,-0.42
1743439627.5680192,-0.116,-0.031,-0.976,0.56,-2.52,-0.35
1743439627.5880191,-0.114,-0.031,-0.977,0.49,-2.52,-0.42
1743439627.608019,-0.116,-0.03,-0.976,0.42,-2.59,-0.42
1743439627.628019,-0.114,-0.031,-0.976,0.35,-2.45,-0.42
1743439627.648019,-0.115,-0.03,-0.978,0.35,-2.52,-0.49
1743439627.668019,-0.115,-0.03,-0.976,0.49,-2.52,-0.35
1743439627.688019,-0.116,-0.029,-0.976,0.35,-2.45,-0.42
1743439627.708019,-0.117,-0.029,-0.979,0.35,-2.52,-0.28
1743439627.728019,-0.116,-0.031,-0.977,0.35,-2.52,-0.35
1743439627.748019,-0.116,-0.032,-0.976,0.56,-2.52,-0.35
1743439627.768019,-0.115,-0.028,-0.976,0.42,-2.52,-0.35
1743439627.788019,-0.115,-0.03,-0.977,0.35,-2.52,-0.42
1743439627.808019,-0.117,-0.028,-0.976,0.56,-2.38,-0.42
1743439627.828019,-0.117,-0.03,-0.979,0.42,-2.52,-0.35
1743439627.848019,-0.114,-0.029,-0.978,0.42,-2.59,-0.42
1743439627.8680189,-0.114,-0.029,-0.976,0.49,-2.45,-0.35
1743439627.8880188,-0.116,-0.03,-0.977,0.63,-2.45,-0.49
1743439627.9080188,-0.114,-0.031,-0.977,0.28,-2.45,-0.35
1743439627.9280188,-0.116,-0.029,-0.978,0.21,-2.59,-0.42
1743439627.9480188,-0.116,-0.027,-0.976,0.63,-2.38,-0.35
1743439627.9680188,-0.118,-0.028,-0.977,0.35,-2.31,-0.42
1743439627.9880188,-0.116,-0.029,-0.977,0.14,-2.52,-0.35
1743439628.0080187,-0.114,-0.031,-0.976,0.35,-2.52,-0.42
1743439628.0280187,-0.116,-0.029,-0.976,0.63,-2.45,-0.49
1743439628.0480187,-0.115,-0.031,-0.978,0.49,-2.38,-0.49
1743439628.068019,-0.117,-0.028,-0.977,0.21,-2.45,-0.35
1743439628.088019,-0.115,-0.029,-0.978,0.49,-2.38,-0.49
1743439628.1080186,-0.115,-0.029,-0.977,0.42,-2.38,-0.35
1743439628.1280186,-0.116,-0.032,-0.976,0.35,-2.52,-0.35
1743439628.1480186,-0.115,-0.027,-0.977,0.56,-2.38,-0.42
1743439628.1680186,-0.114,-0.029,-0.975,0.35,-2.52,-0.42
1743439628.1880186,-0.115,-0.029,-0.976,0.35,-2.45,-0.35
1743439628.2080183,-0.114,-0.031,-0.976,0.35,-2.52,-0.42
1743439628.2280183,-0.116,-0.031,-0.977,0.42,-2.24,-0.49
1743439628.2480185,-0.115,-0.033,-0.976,0.42,-2.45,-0.49
1743439628.2680185,-0.115,-0.03,-0.975,0.35,-2.38,-0.35
1743439628.2880185,-0.117,-0.03,-0.976,0.35,-2.38,-0.35
1743439628.3080184,-0.116,-0.029,-0.978,0.49,-2.38,-0.42
1743439628.3280184,-0.118,-0.03,-0.975,0.49,-2.38,-0.35
1743439628.3480184,-0.116,-0.03,-0.975,0.49,-2.45,-0.42
1743439628.3680184,-0.116,-0.029,-0.978,0.35,-2.38,-0.35
1743439628.3880184,-0.115,-0.031,-0.976,0.49,-2.59,-0.35
1743439628.4080184,-0.116,-0.028,-0.974,0.7,-2.45,-0.42
1743439628.4280183,-0.116,-0.029,-0.981,0.21,-2.45,-0.35
1743439628.4480183,-0.115,-0.03,-0.976,0.07,-2.52,-0.35
1743439628.4680183,-0.115,-0.028,-0.978,0.35,-2.52,-0.42
1743439628.4880185,-0.116,-0.029,-0.976,0.56,-2.45,-0.28
1743439628.5080185,-0.116,-0.029,-0.976,0.35,-2.45,-0.42
1743439628.5280182,-0.118,-0.03,-0.977,0.28,-2.52,-0.35
1743439628.5480182,-0.114,-0.028,-0.978,0.49,-2.52,-0.42
1743439628.5680182,-0.116,-0.03,-0.977,0.42,-2.52,-0.35
1743439628.5880182,-0.115,-0.032,-0.975,0.42,-2.52,-0.42
1743439628.6080182,-0.115,-0.03,-0.976,0.49,-2.52,-0.35
1743439628.628018,-0.118,-0.029,-0.976,0.35,-2.45,-0.35
1743439628.648018,-0.118,-0.03,-0.977,0.28,-2.52,-0.35
1743439628.668018,-0.117,-0.031,-0.977,0.49,-2.38,-0.35
1743439628.688018,-0.116,-0.031,-0.976,0.49,-2.52,-0.35
1743439628.708018,-0.116,-0.03,-0.978,0.28,-2.59,-0.35
1743439628.728018,-0.118,-0.031,-0.976,0.35,-2.38,-0.42
1743439628.748018,-0.116,-0.032,-0.979,0.35,-2.45,-0.35
1743439628.768018,-0.114,-0.03,-0.977,0.21,-2.66,-0.35
1743439628.788018,-0.116,-0.031,-0.975,0.42,-2.52,-0.35
1743439628.808018,-0.115,-0.028,-0.977,0.49,-2.45,-0.35
1743439628.828018,-0.113,-0.031,-0.976,0.49,-2.59,-0.42
1743439628.848018,-0.115,-0.031,-0.976,0.35,-2.73,-0.42
1743439628.868018,-0.115,-0.029,-0.976,0.49,-2.52,-0.49
1743439628.888018,-0.115,-0.027,-0.978,0.42,-2.45,-0.35
1743439628.908018,-0.114,-0.032,-0.976,0.42,-2.59,-0.35
1743439628.928018,-0.117,-0.031,-0.976,0.42,-2.38,-0.35
1743439628.9480178,-0.115,-0.032,-0.977,0.49,-2.59,-0.35
1743439628.9680178,-0.116,-0.028,-0.976,0.21,-2.59,-0.42
1743439628.9880178,-0.116,-0.027,-0.976,0.49,-2.45,-0.35
1743439629.0080178,-0.114,-0.028,-0.979,0.63,-2.52,-0.42
1743439629.0280178,-0.114,-0.029,-0.976,0.49,-2.52,-0.42
1743439629.0480175,-0.116,-0.032,-0.976,0.49,-2.45,-0.35
1743439629.0680175,-0.115,-0.031,-0.978,0.35,-2.52,-0.35
1743439629.0880177,-0.117,-0.031,-0.976,0.35,-2.45,-0.42
1743439629.1080177,-0.114,-0.029,-0.975,0.35,-2.45,-0.42
1743439629.1280177,-0.116,-0.03,-0.976,0.42,-2.59,-0.42
1743439629.1480176,-0.115,-0.028,-0.977,0.35,-2.45,-0.49
1743439629.1680176,-0.117,-0.029,-0.976,0.28,-2.59,-0.42
1743439629.1880176,-0.116,-0.03,-0.975,0.56,-2.52,-0.42
1743439629.2080176,-0.116,-0.03,-0.976,0.49,-2.45,-0.42
1743439629.2280176,-0.115,-0.03,-0.976,0.28,-2.59,-0.42
1743439629.2480175,-0.115,-0.028,-0.977,0.49,-2.45,-0.35
1743439629.2680175,-0.114,-0.03,-0.976,0.42,-2.38,-0.42
1743439629.2880175,-0.115,-0.03,-0.976,0.42,-2.52,-0.42
1743439629.3080175,-0.114,-0.03,-0.98,0.49,-2.59,-0.42
1743439629.3280177,-0.116,-0.031,-0.977,0.49,-2.59,-0.35
1743439629.3480177,-0.114,-0.029,-0.978,0.35,-2.45,-0.35
1743439629.3680174,-0.114,-0.029,-0.978,0.35,-2.52,-0.35
1743439629.3880174,-0.117,-0.03,-0.977,0.42,-2.38,-0.42
1743439629.4080174,-0.115,-0.03,-0.978,0.35,-2.38,-0.42
1743439629.4280174,-0.117,-0.03,-0.977,0.42,-2.59,-0.35
1743439629.4480174,-0.116,-0.03,-0.978,0.42,-2.45,-0.42
1743439629.468017,-0.118,-0.03,-0.977,0.35,-2.45,-0.56
1743439629.488017,-0.117,-0.03,-0.978,0.42,-2.45,-0.42
1743439629.5080173,-0.116,-0.031,-0.976,0.28,-2.38,-0.42
1743439629.5280173,-0.115,-0.031,-0.975,0.21,-2.52,-0.42
1743439629.5480173,-0.117,-0.032,-0.977,0.28,-2.52,-0.28
1743439629.5680172,-0.115,-0.031,-0.975,0.56,-2.45,-0.42
1743439629.5880172,-0.114,-0.032,-0.976,0.14,-2.38,-0.42
1743439629.6080172,-0.115,-0.029,-0.976,0.21,-2.45,-0.42
1743439629.6280172,-0.116,-0.029,-0.975,0.42,-2.52,-0.35
1743439629.6480172,-0.114,-0.029,-0.976,0.56,-2.52,-0.49
1743439629.6680171,-0.115,-0.028,-0.978,0.49,-2.45,-0.49
1743439629.6880171,-0.114,-0.029,-0.978,0.28,-2.59,-0.42
1743439629.708017,-0.115,-0.029,-0.975,0.35,-2.38,-0.42
1743439629.728017,-0.116,-0.03,-0.976,0.28,-2.45,-0.49
1743439629.748017,-0.118,-0.031,-0.977,0.35,-2.52,-0.49
1743439629.768017,-0.116,-0.029,-0.977,0.35,-2.52,-0.35
1743439629.788017,-0.115,-0.029,-0.976,0.35,-2.45,-0.35
1743439629.808017,-0.113,-0.03,-0.977,0.49,-2.52,-0.42
1743439629.828017,-0.116,-0.031,-0.976,0.42,-2.45,-0.42
1743439629.848017,-0.116,-0.031,-0.975,0.56,-2.45,-0.35
1743439629.868017,-0.113,-0.03,-0.975,0.28,-2.45,-0.42
1743439629.888017,-0.116,-0.029,-0.978,0.28,-2.45,-0.35
1743439629.908017,-0.118,-0.029,-0.981,0.42,-2.52,-0.35
1743439629.928017,-0.117,-0.028,-0.979,0.35,-2.59,-0.42
1743439629.948017,-0.116,-0.03,-0.977,0.35,-2.59,-0.42
1743439629.9680169,-0.115,-0.029,-0.977,0.42,-2.31,-0.49
1743439629.9880168,-0.115,-0.028,-0.977,0.42,-2.59,-0.35
1743439630.0080168,-0.117,-0.029,-0.977,0.42,-2.52,-0.35
1743439630.0280168,-0.117,-0.03,-0.974,0.7,-2.59,-0.35
1743439630.0480168,-0.116,-0.029,-0.979,0.63,-2.45,-0.28
1743439630.0680168,-0.113,-0.033,-0.978,0.42,-2.59,-0.28
1743439630.0880167,-0.116,-0.032,-0.975,0.63,-2.38,-0.35
1743439630.1080167,-0.117,-0.033,-0.979,0.49,-2.52,-0.42
1743439630.1280167,-0.116,-0.03,-0.978,0.49,-2.45,-0.35
1743439630.1480167,-0.116,-0.03,-0.977,0.49,-2.45,-0.42
1743439630.168017,-0.114,-0.029,-0.977,0.56,-2.38,-0.49
1743439630.188017,-0.113,-0.028,-0.978,0.35,-2.45,-0.49
1743439630.2080166,-0.115,-0.031,-0.977,0.35,-2.52,-0.49
1743439630.2280166,-0.114,-0.028,-0.977,0.35,-2.52,-0.42
1743439630.2480166,-0.115,-0.031,-0.977,0.28,-2.52,-0.49
1743439630.2680166,-0.115,-0.032,-0.977,0.14,-2.66,-0.35
1743439630.2880166,-0.116,-0.029,-0.976,0.35,-2.59,-0.35
1743439630.3080163,-0.115,-0.03,-0.978,0.35,-2.59,-0.35
1743439630.3280163,-0.113,-0.031,-0.977,0.28,-2.66,-0.14
1743439630.3480165,-0.115,-0.03,-0.976,0.49,-2.52,-0.28
1743439630.3680165,-0.116,-0.031,-0.977,0.49,-2.45,-0.28
1743439630.3880165,-0.114,-0.032,-0.977,0.49,-2.59,-0.21
1743439630.4080164,-0.117,-0.029,-0.973,0.49,-2.73,-0.28
1743439630.4280164,-0.117,-0.032,-0.977,0.49,-2.52,-0.28
1743439630.4480164,-0.115,-0.029,-0.976,0.35,-2.52,-0.28
1743439630.4680164,-0.117,-0.029,-0.976,0.49,-2.52,-0.35
1743439630.4880164,-0.115,-0.03,-0.978,0.49,-2.38,-0.42
1743439630.5080163,-0.116,-0.031,-0.977,0.42,-2.38,-0.42
1743439630.5280163,-0.117,-0.031,-0.975,0.49,-2.45,-0.35
1743439630.5480163,-0.117,-0.029,-0.976,0.42,-2.24,-0.42
1743439630.5680163,-0.114,-0.029,-0.977,0.49,-2.31,-0.42
1743439630.5880165,-0.115,-0.029,-0.977,0.42,-2.45,-0.42
1743439630.6080165,-0.117,-0.031,-0.975,0.49,-2.38,-0.49
1743439630.6280162,-0.113,-0.029,-0.977,0.35,-2.45,-0.42
1743439630.6480162,-0.113,-0.031,-0.976,0.35,-2.52,-0.35
1743439630.6680162,-0.115,-0.029,-0.976,0.42,-2.52,-0.42
1743439630.6880162,-0.116,-0.03,-0.977,0.35,-2.52,-0.35
1743439630.7080162,-0.116,-0.031,-0.976,0.35,-2.52,-0.42
1743439630.728016,-0.116,-0.031,-0.977,0.42,-2.52,-0.42
1743439630.748016,-0.113,-0.029,-0.978,0.63,-2.38,-0.49
1743439630.768016,-0.114,-0.029,-0.976,0.42,-2.52,-0.35
1743439630.788016,-0.115,-0.03,-0.976,0.21,-2.52,-0.42
1743439630.808016,-0.115,-0.031,-0.976,0.35,-2.45,-0.35
1743439630.828016,-0.116,-0.027,-0.976,0.63,-2.38,-0.42
1743439630.848016,-0.117,-0.029,-0.979,0.35,-2.31,-0.35
1743439630.868016,-0.112,-0.031,-0.978,0.49,-2.45,-0.35
1743439630.888016,-0.115,-0.029,-0.976,0.42,-2.45,-0.42
1743439630.908016,-0.117,-0.03,-0.979,0.21,-2.59,-0.42
1743439630.928016,-0.115,-0.03,-0.977,0.42,-2.38,-0.35
1743439630.948016,-0.115,-0.027,-0.976,0.56,-2.52,-0.42
1743439630.968016,-0.114,-0.027,-0.976,0.42,-2.52,-0.42
1743439630.988016,-0.115,-0.029,-0.976,0.42,-2.45,-0.42
1743439631.008016,-0.114,-0.031,-0.974,0.63,-2.52,-0.49
1743439631.028016,-0.114,-0.03,-0.976,0.42,-2.31,-0.35
1743439631.0480158,-0.114,-0.029,-0.978,0.35,-2.45,-0.35
1743439631.0680158,-0.115,-0.03,-0.976,0.49,-2.59,-0.35
1743439631.0880158,-0.117,-0.03,-0.978,0.49,-2.38,-0.42
1743439631.1080158,-0.115,-0.029,-0.976,0.49,-2.45,-0.28
1743439631.1280158,-0.117,-0.031,-0.977,0.56,-2.45,-0.35
1743439631.1480155,-0.115,-0.03,-0.976,0.56,-2.52,-0.21
1743439631.1680157,-0.117,-0.03,-0.98,0.63,-2.38,-0.35
1743439631.1880157,-0.114,-0.031,-0.977,0.56,-2.45,-0.35
1743439631.2080157,-0.116,-0.03,-0.976,0.56,-2.45,-0.42
1743439631.2280157,-0.116,-0.031,-0.973,0.42,-2.38,-0.28
1743439631.2480156,-0.116,-0.031,-0.979,0.42,-2.45,-0.42
1743439631.2680156,-0.116,-0.032,-0.975,0.42,-2.52,-0.49
1743439631.2880156,-0.115,-0.032,-0.977,0.56,-2.45,-0.28
1743439631.3080156,-0.115,-0.032,-0.978,0.35,-2.59,-0.35
1743439631.3280156,-0.116,-0.03,-0.981,1.12,-2.52,-0.7
1743439631.3480155,-0.111,-0.029,-0.982,0.0,-3.36,-0.56
1743439631.3680155,-0.114,-0.039,-0.975,-1.4,-2.87,-0.07
1743439631.3880155,-0.115,-0.03,-0.972,2.38,-1.05,-0.63
1743439631.4080155,-0.118,-0.029,-0.975,0.49,-1.89,-0.35
1743439631.4280157,-0.114,-0.031,-0.98,-0.49,-3.29,-0.28
1743439631.4480157,-0.114,-0.031,-0.979,0.14,-2.8,-0.35
1743439631.4680154,-0.114,-0.032,-0.976,1.19,-2.45,-0.56
1743439631.4880154,-0.114,-0.029,-0.977,-0.21,-2.87,-0.42
1743439631.5080154,-0.114,-0.033,-0.975,0.0,-2.73,-0.42
1743439631.5280154,-0.115,-0.031,-0.976,0.28,-2.52,-0.49
1743439631.5480154,-0.115,-0.031,-0.977,0.07,-2.45,-0.42
1743439631.568015,-0.117,-0.029,-0.978,0.07,-2.66,-0.35
1743439631.5880153,-0.114,-0.031,-0.978,0.35,-2.52,-0.42
1743439631.6080153,-0.115,-0.03,-0.979,0.42,-2.52,-0.42
1743439631.6280153,-0.116,-0.033,-0.979,0.35,-2.59,-0.42
1743439631.6480153,-0.115,-0.031,-0.977,0.35,-2.59,-0.35
1743439631.6680152,-0.114,-0.029,-0.976,0.42,-2.45,-0.42
1743439631.6880152,-0.116,-0.029,-0.977,0.49,-2.45,-0.35
1743439631.7080152,-0.115,-0.03,-0.976,0.56,-2.52,-0.35
1743439631.7280152,-0.117,-0.028,-0.976,0.56,-2.38,-0.42
1743439631.7480152,-0.117,-0.029,-0.975,0.49,-2.45,-0.28
1743439631.7680151,-0.115,-0.03,-0.976,0.56,-2.45,-0.35
1743439631.7880151,-0.115,-0.03,-0.976,0.56,-2.45,-0.42
1743439631.808015,-0.112,-0.032,-0.977,0.56,-2.52,-0.49
1743439631.828015,-0.115,-0.033,-0.978,0.14,-2.59,-0.35
1743439631.848015,-0.114,-0.03,-0.977,0.28,-2.45,-0.49
1743439631.868015,-0.117,-0.029,-0.978,0.42,-2.66,-0.42
1743439631.888015,-0.117,-0.029,-0.977,0.28,-2.59,-0.35
1743439631.908015,-0.116,-0.029,-0.977,0.42,-2.52,-0.35
1743439631.928015,-0.118,-0.03,-0.978,0.49,-2.52,-0.42
1743439631.948015,-0.116,-0.031,-0.977,0.49,-2.52,-0.28
1743439631.968015,-0.114,-0.029,-0.976,0.42,-2.59,-0.42
1743439631.988015,-0.116,-0.031,-0.976,0.49,-2.52,-0.49
1743439632.008015,-0.115,-0.028,-0.977,0.42,-2.38,-0.35
1743439632.028015,-0.116,-0.03,-0.977,0.28,-2.38,-0.42
1743439632.0480149,-0.115,-0.031,-0.977,0.42,-2.59,-0.35
1743439632.0680149,-0.115,-0.03,-0.979,0.49,-2.45,-0.35
1743439632.0880148,-0.116,-0.027,-0.974,0.42,-2.38,-0.42
1743439632.1080148,-0.116,-0.032,-0.976,0.42,-2.38,-0.35
1743439632.1280148,-0.116,-0.032,-0.977,0.63,-2.38,-0.35
1743439632.1480148,-0.116,-0.031,-0.977,0.28,-2.59,-0.35
1743439632.1680148,-0.116,-0.032,-0.976,0.42,-2.59,-0.42
1743439632.1880147,-0.114,-0.03,-0.977,0.42,-2.45,-0.42
1743439632.2080147,-0.115,-0.03,-0.978,0.21,-2.66,-0.35
1743439632.2280147,-0.114,-0.03,-0.976,0.42,-2.66,-0.28
1743439632.2480147,-0.115,-0.03,-0.975,0.84,-2.52,-0.35
1743439632.268015,-0.117,-0.031,-0.978,0.56,-2.38,-0.42
1743439632.288015,-0.113,-0.03,-0.978,0.14,-2.45,-0.35
1743439632.3080146,-0.114,-0.03,-0.974,0.63,-2.52,-0.35
1743439632.3280146,-0.114,-0.03,-0.974,0.56,-2.38,-0.35
1743439632.3480146,-0.114,-0.033,-0.979,0.42,-2.45,-0.49
1743439632.3680146,-0.115,-0.031,-0.977,0.49,-2.38,-0.35
1743439632.3880146,-0.115,-0.031,-0.974,0.21,-2.38,-0.35
1743439632.4080143,-0.115,-0.032,-0.978,0.21,-2.45,-0.35
1743439632.4280145,-0.115,-0.029,-0.976,0.35,-2.52,-0.42
1743439632.4480145,-0.116,-0.029,-0.977,0.63,-2.52,-0.35
1743439632.4680145,-0.115,-0.03,-0.976,0.28,-2.59,-0.35
1743439632.4880145,-0.116,-0.028,-0.978,0.35,-2.52,-0.28
1743439632.5080144,-0.118,-0.028,-0.978,0.56,-2.38,-0.35
1743439632.5280144,-0.114,-0.03,-0.977,0.28,-2.45,-0.42
1743439632.5480144,-0.115,-0.03,-0.974,0.21,-2.38,-0.35
1743439632.5680144,-0.115,-0.03,-0.979,0.35,-2.45,-0.35
1743439632.5880144,-0.115,-0.031,-0.978,0.63,-2.52,-0.49
1743439632.6080143,-0.115,-0.03,-0.974,0.21,-2.52,-0.42
1743439632.6280143,-0.116,-0.03,-0.976,0.28,-2.45,-0.35
1743439632.6480143,-0.117,-0.03,-0.978,0.42,-2.38,-0.42
1743439632.6680143,-0.117,-0.031,-0.977,0.28,-2.52,-0.35
1743439632.6880145,-0.115,-0.031,-0.976,0.14,-2.52,-0.35
1743439632.7080142,-0.116,-0.029,-0.976,0.49,-2.38,-0.42
1743439632.7280142,-0.116,-0.031,-0.976,0.35,-2.45,-0.42
1743439632.7480142,-0.116,-0.03,-0.977,0.28,-2.59,-0.28
1743439632.7680142,-0.115,-0.029,-0.975,0.7,-2.38,-0.49
1743439632.7880142,-0.115,-0.029,-0.978,0.7,-2.31,-0.35
1743439632.8080142,-0.113,-0.031,-0.976,0.49,-2.45,-0.42
1743439632.828014,-0.115,-0.03,-0.978,0.28,-2.52,-0.42
1743439632.848014,-0.116,-0.031,-0.976,0.49,-2.59,-0.35
1743439632.868014,-0.116,-0.031,-0.976,0.42,-2.52,-0.42
1743439632.888014,-0.115,-0.03,-0.976,0.35,-2.52,-0.35
1743439632.908014,-0.116,-0.03,-0.976,0.35,-2.38,-0.42
1743439632.928014,-0.115,-0.029,-0.978,0.35,-2.38,-0.35
1743439632.948014,-0.114,-0.031,-0.974,0.35,-2.52,-0.35
1743439632.968014,-0.115,-0.03,-0.979,0.42,-2.52,-0.35
1743439632.988014,-0.117,-0.032,-0.976,0.49,-2.45,-0.35
1743439633.008014,-0.115,-0.031,-0.976,0.21,-2.59,-0.42
1743439633.028014,-0.113,-0.031,-0.976,0.35,-2.45,-0.42
1743439633.048014,-0.117,-0.032,-0.977,0.56,-2.45,-0.42
1743439633.068014,-0.114,-0.031,-0.977,0.42,-2.52,-0.35
1743439633.088014,-0.118,-0.029,-0.979,0.42,-2.38,-0.49
1743439633.108014,-0.117,-0.031,-0.977,0.42,-2.45,-0.42
1743439633.1280138,-0.116,-0.03,-0.976,0.28,-2.38,-0.49
1743439633.1480138,-0.114,-0.03,-0.978,0.28,-2.66,-0.42
1743439633.1680138,-0.116,-0.031,-0.976,0.56,-2.59,-0.42
1743439633.1880138,-0.115,-0.03,-0.977,0.35,-2.38,-0.35
1743439633.2080138,-0.113,-0.029,-0.979,0.21,-2.59,-0.42
1743439633.2280138,-0.115,-0.03,-0.976,0.49,-2.52,-0.49
1743439633.2480135,-0.116,-0.029,-0.976,0.42,-2.52,-0.35
1743439633.2680137,-0.114,-0.03,-0.978,0.35,-2.59,-0.35
1743439633.2880137,-0.114,-0.029,-0.976,0.42,-2.66,-0.35
1743439633.3080137,-0.114,-0.029,-0.977,0.49,-2.59,-0.35
1743439633.3280137,-0.117,-0.031,-0.976,0.35,-2.66,-0.42
1743439633.3480136,-0.117,-0.029,-0.976,0.35,-2.59,-0.35
1743439633.3680136,-0.117,-0.03,-0.978,0.56,-2.45,-0.42
1743439633.3880136,-0.115,-0.03,-0.979,0.42,-2.59,-0.42
1743439633.4080136,-0.115,-0.031,-0.975,0.56,-2.38,-0.35
1743439633.4280136,-0.118,-0.03,-0.976,0.7,-2.38,-0.42
1743439633.4480135,-0.116,-0.03,-0.979,0.42,-2.59,-0.49
1743439633.4680135,-0.116,-0.03,-0.975,0.28,-2.52,-0.28
1743439633.4880135,-0.114,-0.029,-0.976,0.56,-2.45,-0.35
1743439633.5080135,-0.113,-0.029,-0.975,0.42,-2.38,-0.42
1743439633.5280137,-0.117,-0.031,-0.977,0.07,-2.52,-0.28
1743439633.5480134,-0.115,-0.029,-0.979,0.49,-2.59,-0.42
1743439633.5680134,-0.117,-0.027,-0.976,0.49,-2.52,-0.35
1743439633.5880134,-0.116,-0.03,-0.976,0.21,-2.66,-0.35
1743439633.6080134,-0.116,-0.029,-0.977,0.35,-2.52,-0.35
1743439633.6280134,-0.114,-0.029,-0.977,0.56,-2.45,-0.35
1743439633.6480134,-0.116,-0.031,-0.976,0.28,-2.59,-0.28
1743439633.668013,-0.117,-0.029,-0.976,0.35,-2.66,-0.35
1743439633.6880133,-0.115,-0.031,-0.978,0.56,-2.52,-0.35
1743439633.7080133,-0.116,-0.031,-0.98,0.49,-2.45,-0.42
1743439633.7280133,-0.114,-0.029,-0.977,0.35,-2.59,-0.35
1743439633.7480133,-0.114,-0.031,-0.976,0.63,-2.45,-0.35
1743439633.7680132,-0.113,-0.031,-0.977,0.49,-2.38,-0.35
1743439633.7880132,-0.116,-0.031,-0.977,0.42,-2.45,-0.49
1743439633.8080132,-0.114,-0.032,-0.977,0.49,-2.52,-0.42
1743439633.8280132,-0.116,-0.029,-0.978,0.49,-2.52,-0.42
1743439633.8480132,-0.112,-0.029,-0.976,0.42,-2.45,-0.42
1743439633.8680131,-0.115,-0.031,-0.976,0.42,-2.52,-0.42
1743439633.8880131,-0.117,-0.03,-0.976,0.42,-2.38,-0.42
1743439633.908013,-0.115,-0.029,-0.976,0.42,-2.31,-0.35
1743439633.928013,-0.117,-0.03,-0.978,0.35,-2.45,-0.42
1743439633.948013,-0.115,-0.031,-0.976,0.35,-2.52,-0.35
1743439633.968013,-0.117,-0.033,-0.974,0.42,-2.38,-0.42
1743439633.988013,-0.115,-0.029,-0.976,0.35,-2.45,-0.42
1743439634.008013,-0.114,-0.03,-0.977,0.35,-2.59,-0.49
1743439634.028013,-0.114,-0.029,-0.977,0.42,-2.59,-0.35
1743439634.048013,-0.115,-0.03,-0.976,0.42,-2.52,-0.35
1743439634.068013,-0.114,-0.031,-0.978,0.42,-2.45,-0.35
1743439634.088013,-0.116,-0.029,-0.976,0.42,-2.38,-0.42
1743439634.108013,-0.116,-0.031,-0.978,0.35,-2.45,-0.28
1743439634.128013,-0.116,-0.028,-0.976,0.56,-2.45,-0.35
1743439634.1480129,-0.118,-0.03,-0.976,0.42,-2.52,-0.49
1743439634.1680129,-0.117,-0.029,-0.978,0.35,-2.38,-0.42
1743439634.1880128,-0.117,-0.029,-0.976,0.21,-2.66,-0.42
1743439634.2080128,-0.114,-0.03,-0.975,0.56,-2.45,-0.35
1743439634.2280128,-0.115,-0.03,-0.976,0.42,-2.38,-0.35
1743439634.2480128,-0.112,-0.03,-0.976,0.14,-2.38,-0.42
1743439634.2680128,-0.116,-0.03,-0.976,0.35,-2.38,-0.35
1743439634.2880127,-0.117,-0.029,-0.978,0.63,-2.52,-0.49
1743439634.3080127,-0.116,-0.03,-0.976,0.35,-2.45,-0.28
1743439634.3280127,-0.116,-0.03,-0.977,0.28,-2.59,-0.28
1743439634.3480127,-0.116,-0.029,-0.977,0.56,-2.52,-0.35
1743439634.368013,-0.117,-0.029,-0.976,0.35,-2.52,-0.42
1743439634.3880126,-0.115,-0.031,-0.978,0.35,-2.66,-0.28
1743439634.4080126,-0.117,-0.032,-0.975,0.42,-2.59,-0.35
1743439634.4280126,-0.118,-0.03,-0.978,0.56,-2.38,-0.35
1743439634.4480126,-0.115,-0.032,-0.977,0.35,-2.45,-0.42
1743439634.4680126,-0.115,-0.033,-0.978,0.42,-2.31,-0.42
1743439634.4880126,-0.116,-0.03,-0.976,0.35,-2.52,-0.49
1743439634.5080123,-0.116,-0.033,-0.978,0.21,-2.38,-0.49
1743439634.5280125,-0.117,-0.032,-0.977,0.35,-2.45,-0.49
1743439634.5480125,-0.114,-0.031,-0.976,0.49,-2.45,-0.49
1743439634.5680125,-0.114,-0.03,-0.977,0.35,-2.59,-0.42
1743439634.5880125,-0.115,-0.028,-0.979,0.28,-2.52,-0.35
1743439634.6080124,-0.115,-0.027,-0.976,0.35,-2.59,-0.42
1743439634.6280124,-0.115,-0.027,-0.977,0.28,-2.38,-0.42
1743439634.6480124,-0.115,-0.03,-0.977,0.35,-2.45,-0.35
1743439634.6680124,-0.117,-0.031,-0.978,0.49,-2.59,-0.42
1743439634.6880124,-0.114,-0.029,-0.977,0.28,-2.59,-0.42
1743439634.7080123,-0.114,-0.029,-0.979,0.21,-2.52,-0.42
1743439634.7280123,-0.115,-0.029,-0.976,0.42,-2.59,-0.42
1743439634.7480123,-0.116,-0.03,-0.976,0.63,-2.59,-0.42
1743439634.7680123,-0.117,-0.03,-0.977,0.42,-2.45,-0.35
1743439634.7880125,-0.114,-0.034,-0.976,0.42,-2.59,-0.28
1743439634.8080122,-0.115,-0.029,-0.976,0.49,-2.66,-0.35
1743439634.8280122,-0.116,-0.029,-0.976,0.42,-2.45,-0.42
1743439634.8480122,-0.113,-0.032,-0.977,0.35,-2.45,-0.42
1743439634.8680122,-0.116,-0.03,-0.976,0.49,-2.59,-0.35
1743439634.8880122,-0.116,-0.03,-0.977,0.42,-2.66,-0.42
1743439634.9080122,-0.116,-0.031,-0.976,0.35,-2.38,-0.42
1743439634.928012,-0.115,-0.03,-0.976,0.49,-2.45,-0.28
1743439634.948012,-0.118,-0.032,-0.978,0.56,-2.45,-0.42
1743439634.968012,-0.117,-0.031,-0.976,0.21,-2.45,-0.42
1743439634.988012,-0.114,-0.032,-0.976,0.21,-2.66,-0.35
1743439635.008012,-0.115,-0.03,-0.978,0.28,-2.45,-0.35
1743439635.028012,-0.115,-0.03,-0.974,0.42,-2.38,-0.35
1743439635.048012,-0.116,-0.031,-0.978,0.28,-2.59,-0.49
1743439635.068012,-0.114,-0.03,-0.977,0.49,-2.45,-0.42
1743439635.088012,-0.112,-0.03,-0.977,0.42,-2.38,-0.42
1743439635.108012,-0.115,-0.031,-0.976,0.35,-2.59,-0.49
1743439635.128012,-0.116,-0.032,-0.975,0.35,-2.52,-0.28
1743439635.148012,-0.117,-0.029,-0.977,0.21,-2.52,-0.42
1743439635.168012,-0.114,-0.029,-0.978,0.28,-2.38,-0.28
1743439635.188012,-0.115,-0.029,-0.976,0.56,-2.59,-0.35
1743439635.208012,-0.118,-0.03,-0.976,0.35,-2.66,-0.28
1743439635.2280118,-0.117,-0.03,-0.978,0.35,-2.66,-0.35
1743439635.2480118,-0.116,-0.03,-0.978,0.49,-2.45,-0.35
1743439635.2680118,-0.117,-0.029,-0.978,0.63,-2.31,-0.28
1743439635.2880118,-0.114,-0.029,-0.976,0.35,-2.52,-0.28
1743439635.3080118,-0.114,-0.029,-0.976,0.63,-2.59,-0.35
1743439635.3280118,-0.112,-0.03,-0.977,0.77,-2.52,-0.28
1743439635.3480115,-0.111,-0.034,-0.976,0.49,-2.59,-0.35
1743439635.3680117,-0.113,-0.034,-0.976,0.14,-2.59,-0.28
1743439635.3880117,-0.116,-0.031,-0.976,0.28,-2.66,-0.28
1743439635.4080117,-0.118,-0.028,-0.976,0.14,-2.66,-0.35
1743439635.4280117,-0.116,-0.029,-0.977,0.56,-2.66,-0.35
1743439635.4480116,-0.12,-0.032,-0.978,0.7,-2.38,-0.42
1743439635.4680116,-0.119,-0.031,-0.977,0.77,-2.31,-0.35
1743439635.4880116,-0.117,-0.032,-0.977,0.56,-2.31,-0.35
1743439635.5080116,-0.114,-0.034,-0.978,0.77,-2.17,-0.42
1743439635.5280116,-0.113,-0.03,-0.976,0.56,-2.24,-0.35
1743439635.5480115,-0.115,-0.032,-0.977,0.49,-2.17,-0.42
1743439635.5680115,-0.114,-0.032,-0.977,0.56,-2.17,-0.42
1743439635.5880115,-0.114,-0.032,-0.976,0.56,-2.1,-0.49
1743439635.6080115,-0.115,-0.03,-0.976,0.49,-2.17,-0.35
1743439635.6280117,-0.115,-0.031,-0.976,0.77,-2.24,-0.49
1743439635.6480114,-0.115,-0.032,-0.977,0.63,-2.24,-0.42
1743439635.6680114,-0.115,-0.031,-0.977,0.63,-2.31,-0.42
1743439635.6880114,-0.113,-0.032,-0.977,0.63,-2.24,-0.49
1743439635.7080114,-0.116,-0.033,-0.975,0.7,-2.24,-0.42
1743439635.7280114,-0.114,-0.032,-0.976,0.56,-2.24,-0.42
1743439635.7480114,-0.116,-0.034,-0.978,0.42,-2.45,-0.42
1743439635.768011,-0.114,-0.031,-0.977,0.63,-2.38,-0.42
1743439635.7880113,-0.114,-0.03,-0.976,0.63,-2.45,-0.42
1743439635.8080113,-0.114,-0.029,-0.976,0.42,-2.38,-0.35
1743439635.8280113,-0.115,-0.032,-0.975,0.7,-2.38,-0.35
1743439635.8480113,-0.114,-0.032,-0.976,0.56,-2.31,-0.42
1743439635.8680112,-0.115,-0.032,-0.978,0.63,-2.38,-0.35
1743439635.8880112,-0.115,-0.032,-0.976,0.49,-2.38,-0.28
1743439635.9080112,-0.112,-0.033,-0.976,0.42,-2.45,-0.42
1743439635.9280112,-0.115,-0.032,-0.979,0.35,-2.38,-0.42
1743439635.9480112,-0.112,-0.033,-0.98,0.42,-2.45,-0.42
1743439635.9680111,-0.116,-0.033,-0.976,0.42,-2.45,-0.49
1743439635.9880111,-0.116,-0.034,-0.977,0.35,-2.38,-0.49
1743439636.008011,-0.115,-0.033,-0.977,0.28,-2.52,-0.42
1743439636.028011,-0.113,-0.031,-0.978,0.35,-2.45,-0.49
1743439636.048011,-0.112,-0.033,-0.978,0.49,-2.38,-0.56
1743439636.068011,-0.115,-0.031,-0.977,0.35,-2.45,-0.56
1743439636.088011,-0.113,-0.031,-0.976,0.35,-2.45,-0.35
1743439636.108011,-0.112,-0.03,-0.975,0.42,-2.52,-0.35
1743439636.128011,-0.116,-0.032,-0.979,0.28,-2.59,-0.28
1743439636.148011,-0.114,-0.032,-0.978,0.35,-2.52,-0.42
1743439636.168011,-0.116,-0.031,-0.977,0.35,-2.59,-0.35
1743439636.188011,-0.115,-0.029,-0.976,0.35,-2.38,-0.42
1743439636.208011,-0.114,-0.031,-0.977,0.28,-2.52,-0.42
1743439636.228011,-0.113,-0.03,-0.977,0.42,-2.59,-0.49
1743439636.2480109,-0.116,-0.031,-0.978,0.42,-2.52,-0.35
1743439636.2680109,-0.114,-0.033,-0.98,0.35,-2.59,-0.49
1743439636.2880108,-0.115,-0.035,-0.973,0.56,-2.52,-0.35
1743439636.3080108,-0.115,-0.032,-0.976,0.42,-2.59,-0.35
1743439636.3280108,-0.113,-0.029,-0.978,0.35,-2.59,-0.21
1743439636.3480108,-0.113,-0.03,-0.976,0.42,-2.59,-0.21
1743439636.3680108,-0.114,-0.029,-0.975,0.63,-2.52,-0.42
1743439636.3880107,-0.115,-0.031,-0.977,0.42,-2.52,-0.28
1743439636.4080107,-0.116,-0.033,-0.977,0.28,-2.52,-0.42
1743439636.4280107,-0.117,-0.031,-0.975,0.35,-2.45,-0.35
1743439636.4480107,-0.116,-0.032,-0.976,0.28,-2.52,-0.42
1743439636.468011,-0.115,-0.031,-0.978,0.21,-2.59,-0.42
1743439636.4880106,-0.114,-0.033,-0.976,0.28,-2.66,-0.42
1743439636.5080106,-0.116,-0.03,-0.975,0.35,-2.45,-0.35
1743439636.5280106,-0.115,-0.03,-0.981,0.28,-2.45,-0.42
1743439636.5480106,-0.114,-0.03,-0.978,0.49,-2.38,-0.42
1743439636.5680106,-0.115,-0.031,-0.977,0.63,-2.45,-0.49
1743439636.5880103,-0.115,-0.032,-0.976,0.63,-2.52,-0.42
1743439636.6080103,-0.114,-0.032,-0.977,0.28,-2.52,-0.49
1743439636.6280105,-0.114,-0.033,-0.978,0.35,-2.38,-0.49
1743439636.6480105,-0.116,-0.031,-0.977,0.42,-2.38,-0.42
1743439636.6680105,-0.116,-0.03,-0.979,0.28,-2.59,-0.42
1743439636.6880105,-0.112,-0.03,-0.977,0.56,-2.38,-0.35
1743439636.7080104,-0.117,-0.031,-0.976,0.49,-2.38,-0.42
