Timestamp,AccelX,AccelY,AccelZ,GyroX,GyroY,GyroZ
1743904139.204302,0.072,-0.315,0.982,0.210,-2.450,-0.770
1743904139.224302,0.073,-0.317,0.985,0.630,-2.170,-0.910
1743904139.244302,0.060,-0.309,0.985,-0.770,-4.270,-1.610
1743904139.264302,0.065,-0.320,0.984,0.350,-4.270,-1.750
1743904139.284302,0.077,-0.316,0.991,0.630,-4.060,-1.610
1743904139.304302,0.077,-0.312,0.987,0.490,-3.220,-1.260
1743904139.250405,0.071,-0.310,0.980,0.140,-3.570,-1.540
1743904139.270405,0.069,-0.313,0.979,0.700,-3.500,-1.400
1743904139.290405,0.076,-0.314,0.986,1.190,-3.290,-1.260
1743904139.310405,0.074,-0.312,0.988,0.840,-3.430,-1.120
1743904139.330405,0.075,-0.311,0.990,0.000,-2.940,-0.840
1743904139.350405,0.074,-0.315,0.983,0.350,-2.590,-0.770
1743904139.2955222,0.070,-0.311,0.983,-0.070,-2.660,-0.630
1743904139.3155222,0.075,-0.314,0.983,-0.210,-2.520,-0.490
1743904139.3355222,0.072,-0.317,0.983,-0.140,-2.100,-0.350
1743904139.3555222,0.071,-0.316,0.982,0.630,-1.820,-0.280
1743904139.3755221,0.073,-0.314,0.985,0.280,-1.470,-0.210
1743904139.395522,0.070,-0.314,0.983,0.210,-1.680,-0.350
1743904139.3523011,0.072,-0.317,0.984,0.630,-1.610,-0.350
1743904139.372301,0.073,-0.315,0.988,1.120,-1.260,-0.280
1743904139.392301,0.072,-0.313,0.986,0.700,-1.330,-0.140
1743904139.412301,0.077,-0.313,0.983,0.770,-0.910,-0.070
1743904139.432301,0.073,-0.314,0.984,0.630,-0.840,0.070
1743904139.452301,0.068,-0.312,0.986,0.700,-0.700,0.070
1743904139.3836513,0.068,-0.313,0.988,0.420,-0.980,0.070
1743904139.4036512,0.067,-0.316,0.987,0.280,-1.470,-0.070
1743904139.4236512,0.070,-0.314,0.986,0.210,-1.470,-0.210
1743904139.4436512,0.068,-0.312,0.986,0.210,-1.820,-0.280
1743904139.4636512,0.069,-0.315,0.985,0.210,-1.890,-0.350
1743904139.4836512,0.067,-0.312,0.988,0.070,-2.240,-0.420
1743904139.41438,0.069,-0.313,0.987,-0.070,-2.590,-0.560
1743904139.43438,0.071,-0.316,0.987,0.210,-2.520,-0.630
1743904139.45438,0.066,-0.313,0.986,0.140,-3.220,-0.980
1743904139.47438,0.068,-0.317,0.986,-0.140,-3.430,-1.050
1743904139.49438,0.068,-0.314,0.985,0.350,-3.500,-1.260
1743904139.51438,0.070,-0.315,0.984,0.070,-3.360,-1.190
1743904139.4597971,0.071,-0.315,0.985,0.000,-3.430,-1.190
1743904139.4797971,0.071,-0.314,0.983,0.000,-3.360,-1.260
1743904139.499797,0.067,-0.313,0.983,0.210,-3.360,-1.190
1743904139.519797,0.073,-0.314,0.985,0.490,-3.430,-1.190
1743904139.539797,0.073,-0.311,0.987,0.350,-3.220,-1.260
1743904139.559797,0.073,-0.310,0.990,0.210,-3.220,-1.190
1743904139.504559,0.074,-0.313,0.984,0.280,-3.220,-1.050
1743904139.524559,0.073,-0.313,0.986,0.350,-3.080,-0.980
1743904139.544559,0.073,-0.314,0.984,0.420,-2.730,-0.910
1743904139.564559,0.074,-0.314,0.984,0.210,-2.590,-0.770
1743904139.584559,0.073,-0.315,0.984,0.490,-2.450,-0.700
1743904139.604559,0.070,-0.313,0.984,0.490,-2.310,-0.630
1743904139.550581,0.074,-0.315,0.984,0.420,-2.030,-0.420
1743904139.570581,0.075,-0.313,0.983,0.630,-1.540,-0.280
1743904139.590581,0.073,-0.312,0.986,0.210,-1.610,-0.350
1743904139.610581,0.070,-0.317,0.987,0.280,-1.820,-0.280
1743904139.630581,0.070,-0.314,0.986,0.630,-1.680,-0.420
1743904139.650581,0.070,-0.312,0.985,0.490,-1.890,-0.420
1743904139.6086192,0.067,-0.315,0.981,0.280,-1.890,-0.420
1743904139.6286192,0.070,-0.316,0.986,0.490,-1.820,-0.420
1743904139.6486192,0.067,-0.313,0.984,0.350,-1.960,-0.490
1743904139.6686192,0.069,-0.315,0.985,0.560,-2.030,-0.560
1743904139.6886191,0.068,-0.312,0.987,0.490,-2.170,-0.700
1743904139.708619,0.069,-0.315,0.986,0.210,-2.310,-0.700
1743904139.639543,0.070,-0.316,0.985,0.630,-2.380,-0.700
1743904139.659543,0.070,-0.312,0.985,0.630,-2.590,-0.840
1743904139.679543,0.068,-0.312,0.984,0.210,-2.520,-0.770
1743904139.699543,0.067,-0.314,0.986,0.280,-2.730,-0.840
1743904139.719543,0.068,-0.312,0.986,0.350,-2.870,-0.980
1743904139.739543,0.071,-0.312,0.986,0.210,-2.800,-0.840
1743904139.6849122,0.073,-0.313,0.986,0.070,-2.730,-0.840
1743904139.7049122,0.071,-0.313,0.984,0.140,-2.730,-0.770
1743904139.7249122,0.070,-0.313,0.986,0.140,-2.940,-0.770
1743904139.7449121,0.072,-0.312,0.986,0.210,-2.800,-0.840
1743904139.7649121,0.072,-0.313,0.985,0.140,-2.730,-0.770
1743904139.784912,0.072,-0.313,0.984,0.210,-2.660,-0.770
1743904139.774538,0.071,-0.316,0.986,0.070,-2.520,-0.700
1743904139.794538,0.072,-0.312,0.986,0.210,-2.590,-0.700
1743904139.814538,0.072,-0.314,0.986,0.210,-2.590,-0.630
1743904139.834538,0.070,-0.315,0.986,0.210,-2.310,-0.700
1743904139.854538,0.070,-0.317,0.983,0.350,-2.450,-0.770
1743904139.874538,0.072,-0.313,0.984,0.560,-2.310,-0.770
1743904139.7869701,0.072,-0.313,0.985,0.560,-2.100,-0.630
1743904139.8069701,0.072,-0.314,0.984,0.350,-2.380,-0.770
1743904139.82697,0.070,-0.315,0.984,0.910,-2.240,-0.770
1743904139.84697,0.070,-0.314,0.985,0.770,-2.100,-0.770
1743904139.86697,0.071,-0.314,0.984,0.560,-2.310,-0.770
1743904139.88697,0.071,-0.315,0.986,0.560,-2.170,-0.700
1743904139.8197901,0.071,-0.314,0.988,0.630,-2.170,-0.840
1743904139.83979,0.071,-0.315,0.986,0.770,-2.240,-0.840
1743904139.85979,0.072,-0.314,0.985,0.490,-2.310,-0.700
1743904139.87979,0.072,-0.313,0.986,0.280,-2.240,-0.700
1743904139.89979,0.071,-0.315,0.984,0.420,-2.520,-0.700
1743904139.91979,0.071,-0.314,0.986,0.560,-2.450,-0.700
1743904139.850542,0.070,-0.312,0.986,0.070,-2.450,-0.630
1743904139.870542,0.069,-0.313,0.986,0.140,-2.520,-0.630
1743904139.890542,0.070,-0.314,0.985,0.000,-2.450,-0.630
1743904139.910542,0.068,-0.311,0.984,0.000,-2.730,-0.630
1743904139.930542,0.070,-0.309,0.986,-0.140,-2.730,-0.560
1743904139.950542,0.073,-0.314,0.984,-0.280,-2.660,-0.490
1743904139.9086611,0.073,-0.314,0.985,-0.210,-2.590,-0.490
1743904139.928661,0.071,-0.312,0.987,-0.210,-2.660,-0.420
1743904139.948661,0.072,-0.311,0.983,-0.280,-2.590,-0.350
1743904139.968661,0.073,-0.315,0.984,-0.280,-2.660,-0.350
1743904139.988661,0.071,-0.314,0.984,-0.350,-2.800,-0.560
1743904140.008661,0.070,-0.315,0.983,-0.350,-2.730,-0.560
1743904139.939477,0.070,-0.315,0.984,0.000,-2.730,-0.700
1743904139.959477,0.070,-0.314,0.985,0.140,-2.660,-0.700
1743904139.979477,0.070,-0.314,0.984,0.140,-2.660,-0.840
1743904139.999477,0.072,-0.316,0.982,0.350,-2.660,-0.910
1743904140.019477,0.072,-0.317,0.985,0.490,-2.590,-0.980
1743904140.0394769,0.072,-0.317,0.986,0.350,-2.520,-0.840
1743904139.9705362,0.072,-0.316,0.984,0.350,-2.590,-1.050
1743904139.9905362,0.071,-0.317,0.985,0.560,-2.660,-0.980
1743904140.0105362,0.072,-0.316,0.982,0.700,-2.660,-1.120
1743904140.0305362,0.072,-0.317,0.983,0.910,-2.660,-1.050
1743904140.0505362,0.072,-0.312,0.986,0.630,-2.450,-0.980
1743904140.0705361,0.073,-0.317,0.980,0.700,-2.380,-1.050
1743904140.0144892,0.075,-0.316,0.978,1.540,-2.030,-1.260
1743904140.0344892,0.072,-0.313,0.982,1.610,-1.820,-1.190
1743904140.0544891,0.066,-0.311,0.988,0.980,-2.520,-1.470
1743904140.074489,0.068,-0.317,0.985,0.910,-2.450,-1.400
1743904140.094489,0.072,-0.314,0.986,1.680,-2.030,-1.330
1743904140.114489,0.074,-0.310,0.990,1.540,-2.170,-1.120
1743904140.059868,0.070,-0.310,0.990,1.050,-2.030,-0.840
1743904140.079868,0.072,-0.308,0.987,0.560,-1.820,-0.700
1743904140.099868,0.072,-0.311,0.986,0.630,-1.820,-0.490
1743904140.119868,0.070,-0.311,0.988,0.490,-2.100,-0.420
1743904140.139868,0.071,-0.310,0.988,-0.280,-2.590,-0.280
1743904140.159868,0.070,-0.314,0.986,-0.350,-2.660,-0.350
1743904140.104135,0.070,-0.315,0.984,-0.210,-2.730,-0.280
1743904140.124135,0.072,-0.314,0.982,-0.280,-2.730,-0.280
1743904140.144135,0.069,-0.312,0.986,-0.700,-2.940,-0.420
1743904140.164135,0.069,-0.316,0.987,-0.700,-3.360,-0.700
1743904140.184135,0.071,-0.317,0.985,0.000,-3.290,-0.910
1743904140.204135,0.073,-0.316,0.984,0.210,-3.080,-0.910
1743904140.1505342,0.072,-0.311,0.987,0.000,-3.010,-0.770
1743904140.1705341,0.072,-0.315,0.979,-0.070,-3.010,-0.910
1743904140.190534,0.072,-0.315,0.980,0.350,-2.940,-0.980
1743904140.210534,0.071,-0.316,0.984,0.560,-2.870,-0.910
1743904140.230534,0.070,-0.314,0.985,0.140,-2.800,-0.840
1743904140.250534,0.075,-0.315,0.982,0.350,-2.730,-0.770
1743904140.1954222,0.077,-0.320,0.984,0.560,-2.380,-0.770
1743904140.2154222,0.075,-0.314,0.984,0.560,-2.170,-0.630
1743904140.2354221,0.071,-0.314,0.985,0.490,-2.310,-0.700
1743904140.255422,0.075,-0.314,0.985,0.630,-2.100,-0.560
1743904140.275422,0.072,-0.316,0.986,0.700,-1.890,-0.560
1743904140.295422,0.072,-0.314,0.984,0.770,-1.750,-0.630
1743904140.240336,0.071,-0.314,0.985,0.770,-1.820,-0.700
1743904140.260336,0.070,-0.312,0.985,0.770,-1.820,-0.770
1743904140.280336,0.071,-0.316,0.987,0.700,-1.960,-0.770
1743904140.300336,0.072,-0.314,0.987,0.560,-2.030,-0.840
1743904140.3203359,0.069,-0.316,0.986,0.840,-2.240,-0.910
1743904140.3403358,0.071,-0.315,0.987,0.840,-2.450,-0.980
1743904140.284336,0.068,-0.314,0.987,0.560,-2.520,-1.120
1743904140.304336,0.067,-0.316,0.986,0.420,-2.730,-1.260
1743904140.324336,0.068,-0.313,0.986,0.630,-2.870,-1.330
1743904140.344336,0.068,-0.313,0.985,0.700,-3.150,-1.330
1743904140.364336,0.068,-0.312,0.986,0.560,-3.290,-1.330
1743904140.384336,0.072,-0.315,0.987,0.350,-3.080,-1.260
1743904140.315236,0.071,-0.313,0.982,0.700,-3.220,-1.400
1743904140.335236,0.070,-0.312,0.984,0.560,-3.150,-1.330
1743904140.355236,0.070,-0.311,0.984,0.700,-3.220,-1.330
1743904140.375236,0.072,-0.311,0.985,0.630,-3.080,-1.190
1743904140.395236,0.074,-0.312,0.984,0.560,-2.940,-1.120
1743904140.415236,0.072,-0.312,0.984,0.560,-2.800,-0.980
1743904140.373673,0.073,-0.311,0.984,0.630,-2.660,-0.980
1743904140.393673,0.073,-0.310,0.986,0.210,-2.590,-0.840
1743904140.413673,0.071,-0.310,0.987,0.070,-2.450,-0.630
1743904140.433673,0.072,-0.310,0.985,0.140,-2.310,-0.490
1743904140.453673,0.074,-0.313,0.985,0.000,-2.310,-0.420
1743904140.4736729,0.073,-0.315,0.985,-0.070,-2.100,-0.280
1743904140.4054022,0.072,-0.316,0.985,-0.210,-2.170,-0.210
1743904140.4254022,0.071,-0.314,0.984,0.000,-2.240,-0.350
1743904140.4454021,0.073,-0.314,0.984,0.140,-2.170,-0.350
1743904140.4654021,0.075,-0.313,0.984,0.140,-2.100,-0.280
1743904140.485402,0.075,-0.314,0.984,0.210,-2.100,-0.280
1743904140.505402,0.072,-0.316,0.985,0.280,-2.030,-0.560
1743904140.449532,0.073,-0.315,0.983,0.280,-2.100,-0.560
1743904140.469532,0.073,-0.315,0.982,0.560,-2.100,-0.490
1743904140.489532,0.072,-0.314,0.986,0.630,-1.890,-0.630
1743904140.509532,0.071,-0.315,0.987,0.560,-2.170,-0.770
1743904140.529532,0.072,-0.313,0.986,0.630,-2.170,-0.770
1743904140.549532,0.075,-0.314,0.984,0.700,-2.100,-0.840
1743904140.480446,0.072,-0.313,0.988,0.490,-2.240,-0.770
1743904140.500446,0.071,-0.311,0.986,0.560,-2.310,-0.840
1743904140.520446,0.071,-0.313,0.989,0.420,-2.450,-0.770
1743904140.540446,0.071,-0.314,0.986,0.280,-2.520,-0.840
1743904140.560446,0.069,-0.312,0.986,0.140,-2.660,-0.840
1743904140.580446,0.070,-0.314,0.985,0.000,-2.870,-0.840
1743904140.525186,0.071,-0.312,0.984,0.140,-2.940,-0.840
1743904140.545186,0.071,-0.314,0.986,0.070,-2.870,-0.840
1743904140.565186,0.074,-0.311,0.986,-0.280,-2.660,-0.630
1743904140.585186,0.073,-0.315,0.986,-0.280,-2.870,-0.630
1743904140.605186,0.070,-0.313,0.983,-0.140,-2.940,-0.770
1743904140.625186,0.072,-0.315,0.986,0.210,-2.800,-0.700
1743904140.569902,0.072,-0.312,0.987,0.000,-2.590,-0.630
1743904140.589902,0.070,-0.314,0.983,0.000,-2.730,-0.630
1743904140.609902,0.071,-0.315,0.983,0.140,-2.730,-0.700
1743904140.629902,0.071,-0.314,0.984,0.420,-2.380,-0.700
1743904140.6499019,0.073,-0.315,0.985,0.280,-2.660,-0.630
1743904140.6699018,0.072,-0.314,0.984,0.560,-2.100,-0.560
1743904140.614224,0.073,-0.313,0.984,0.700,-2.310,-0.560
1743904140.634224,0.071,-0.314,0.985,0.420,-2.380,-0.700
1743904140.654224,0.073,-0.316,0.984,0.700,-2.100,-0.630
1743904140.674224,0.074,-0.313,0.986,0.700,-2.100,-0.700
1743904140.6942239,0.075,-0.311,0.984,0.630,-2.100,-0.560
1743904140.7142239,0.073,-0.315,0.983,0.630,-2.170,-0.630
1743904140.673742,0.075,-0.313,0.983,0.700,-1.960,-0.630
1743904140.693742,0.075,-0.314,0.985,0.560,-1.890,-0.560
1743904140.713742,0.073,-0.314,0.983,0.490,-2.030,-0.420
1743904140.733742,0.074,-0.315,0.985,0.630,-1.960,-0.560
1743904140.753742,0.072,-0.314,0.986,0.420,-2.030,0.280
1743904140.773742,0.073,-0.301,1.003,0.210,-3.220,0.280
1743904140.704471,0.058,-0.289,1.030,-9.520,-4.270,1.190
1743904140.724471,0.051,-0.297,0.979,-13.090,-6.720,0.140
1743904140.744471,0.060,-0.334,0.961,0.280,-6.440,-1.330
1743904140.764471,0.088,-0.372,0.937,5.740,-4.340,-1.960
1743904140.784471,0.077,-0.289,0.998,7.490,-5.110,-1.960
1743904140.804471,0.087,-0.306,1.002,-2.240,-2.030,-0.280
1743904140.762777,0.081,-0.317,0.956,0.420,-0.490,-0.840
1743904140.782777,0.059,-0.337,0.954,5.040,-2.380,-2.380
1743904140.802777,0.059,-0.320,0.973,5.880,-2.660,-2.800
1743904140.822777,0.080,-0.309,0.993,3.360,-2.100,-2.520
1743904140.842777,0.089,-0.310,0.999,1.680,-1.120,-1.890
1743904140.862777,0.087,-0.319,0.989,1.820,0.140,-1.470
1743904140.779481,0.073,-0.318,0.988,2.380,-0.840,-1.470
1743904140.799481,0.060,-0.308,0.988,2.240,-1.960,-1.470
1743904140.819481,0.066,-0.304,0.991,0.700,-2.590,-1.190
1743904140.8394809,0.071,-0.310,0.988,0.210,-2.450,-0.840
1743904140.8594809,0.071,-0.313,0.988,0.910,-2.590,-0.700
1743904140.8794808,0.069,-0.312,0.991,1.050,-2.940,-0.630
1743904140.8247771,0.071,-0.305,0.986,0.280,-2.730,-0.350
1743904140.844777,0.079,-0.306,0.982,0.140,-1.820,-0.210
1743904140.864777,0.078,-0.308,0.982,0.070,-1.330,0.140
1743904140.884777,0.080,-0.312,0.981,0.560,-0.770,0.490
1743904140.904777,0.080,-0.313,0.983,0.630,-0.070,0.560
1743904140.924777,0.074,-0.312,0.986,0.140,-0.280,0.560
1743904140.8698812,0.074,-0.313,0.986,0.210,-0.280,0.420
1743904140.8898811,0.075,-0.312,0.987,0.140,-0.420,0.630
1743904140.909881,0.071,-0.311,0.988,-1.050,-1.120,0.560
1743904140.929881,0.071,-0.311,0.989,-1.260,-1.680,0.420
1743904140.949881,0.066,-0.313,0.988,-1.330,-2.030,0.490
1743904140.969881,0.066,-0.316,0.987,-1.680,-3.150,0.070
1743904140.915899,0.071,-0.319,0.986,-1.190,-3.150,0.070
1743904140.935899,0.069,-0.320,0.989,-0.840,-3.290,-0.070
1743904140.955899,0.066,-0.318,0.983,-0.700,-3.570,-0.420
1743904140.975899,0.068,-0.319,0.978,-0.560,-3.570,-0.490
1743904140.995899,0.073,-0.322,0.980,0.280,-2.520,-0.420
1743904141.015899,0.071,-0.318,0.981,0.000,-2.380,-0.700
1743904140.9593241,0.070,-0.318,0.984,0.000,-2.520,-1.050
1743904140.979324,0.069,-0.319,0.981,0.280,-2.380,-1.120
1743904140.999324,0.072,-0.321,0.983,0.840,-2.310,-1.120
1743904141.019324,0.070,-0.317,0.986,1.190,-2.380,-1.260
1743904141.039324,0.072,-0.315,0.985,1.330,-2.030,-1.190
1743904141.059324,0.072,-0.313,0.983,1.470,-2.170,-1.120
1743904141.005366,0.070,-0.312,0.986,1.190,-2.100,-1.190
1743904141.025366,0.068,-0.312,0.986,1.260,-2.310,-1.330
1743904141.045366,0.071,-0.313,0.989,1.260,-2.520,-1.190
1743904141.065366,0.073,-0.309,0.988,1.050,-2.800,-1.260
1743904141.085366,0.076,-0.308,0.987,0.840,-2.590,-1.050
1743904141.105366,0.078,-0.308,0.986,0.910,-2.520,-0.980
1743904141.0494452,0.074,-0.310,0.987,0.490,-2.520,-0.980
1743904141.0694451,0.071,-0.314,0.989,0.280,-2.870,-1.120
1743904141.089445,0.071,-0.314,0.987,0.420,-3.010,-0.980
1743904141.109445,0.074,-0.314,0.986,0.420,-2.940,-0.910
1743904141.129445,0.074,-0.313,0.986,0.350,-2.870,-0.770
1743904141.149445,0.072,-0.312,0.986,0.000,-2.800,-0.840
1743904141.080362,0.074,-0.313,0.983,0.070,-2.870,-0.770
1743904141.100362,0.074,-0.313,0.984,0.070,-2.450,-0.490
1743904141.120362,0.073,-0.310,0.982,0.070,-2.310,-0.420
1743904141.140362,0.069,-0.312,0.984,-0.350,-2.310,-0.210
1743904141.160362,0.070,-0.314,0.982,-0.490,-2.450,-0.350
1743904141.180362,0.071,-0.316,0.983,-0.070,-2.240,-0.210
1743904141.124448,0.073,-0.317,0.982,0.000,-2.170,-0.280
1743904141.144448,0.074,-0.316,0.986,-0.140,-1.820,-0.140
1743904141.164448,0.072,-0.316,0.982,-0.280,-1.890,-0.210
1743904141.184448,0.071,-0.317,0.980,0.210,-1.750,-0.350
1743904141.204448,0.070,-0.315,0.985,0.000,-1.890,-0.210
1743904141.224448,0.071,-0.316,0.986,-0.070,-1.820,-0.350
1743904141.170452,0.075,-0.317,0.982,0.140,-1.540,-0.280
1743904141.190452,0.070,-0.316,0.985,0.280,-1.400,-0.210
1743904141.210452,0.065,-0.315,0.983,-0.140,-2.170,-0.490
1743904141.230452,0.068,-0.318,0.984,0.560,-1.820,-0.560
1743904141.250452,0.073,-0.316,0.984,0.840,-2.520,-0.840
1743904141.270452,0.072,-0.309,0.990,0.210,-2.660,-0.630
1743904141.2156131,0.076,-0.315,0.990,-0.140,-1.890,-0.490
1743904141.235613,0.066,-0.314,0.987,0.280,-2.170,-0.560
1743904141.255613,0.064,-0.311,0.983,0.210,-3.220,-1.050
1743904141.275613,0.066,-0.314,0.985,0.210,-3.010,-0.840
1743904141.295613,0.073,-0.311,0.986,0.210,-2.800,-0.490
1743904141.315613,0.069,-0.311,0.985,-0.490,-2.800,-0.490
1743904141.259553,0.069,-0.316,0.986,-0.280,-2.730,-0.280
1743904141.279553,0.068,-0.314,0.992,-0.700,-3.360,-0.420
1743904141.299553,0.067,-0.316,0.988,-0.560,-3.150,-0.350
1743904141.319553,0.073,-0.315,0.985,-0.070,-2.940,-0.210
1743904141.3395529,0.071,-0.314,0.982,-0.350,-2.800,-0.280
1743904141.3595529,0.073,-0.315,0.980,-0.070,-2.450,-0.140
1743904141.305355,0.075,-0.315,0.981,-0.070,-2.030,-0.070
1743904141.325355,0.074,-0.315,0.985,-0.210,-1.890,-0.070
1743904141.345355,0.072,-0.316,0.983,-0.210,-1.820,0.000
1743904141.365355,0.070,-0.317,0.983,-0.210,-1.890,-0.210
1743904141.385355,0.070,-0.318,0.982,0.210,-1.960,-0.210
1743904141.405355,0.071,-0.318,0.983,0.070,-1.680,-0.070
1743904141.350368,0.070,-0.316,0.986,0.000,-1.820,-0.210
1743904141.370368,0.069,-0.316,0.986,0.000,-1.750,-0.210
1743904141.390368,0.073,-0.318,0.983,0.070,-1.890,-0.350
1743904141.410368,0.071,-0.319,0.984,0.420,-2.030,-0.560
1743904141.430368,0.069,-0.317,0.983,0.490,-2.170,-0.630
1743904141.450368,0.070,-0.316,0.985,0.490,-2.170,-0.770
1743904141.3957841,0.068,-0.317,0.986,0.490,-2.100,-0.700
1743904141.4157841,0.071,-0.318,0.986,0.560,-2.030,-0.700
1743904141.435784,0.071,-0.315,0.986,0.560,-2.380,-0.770
1743904141.455784,0.071,-0.316,0.985,0.560,-2.450,-0.770
1743904141.475784,0.068,-0.313,0.984,0.560,-2.380,-0.840
1743904141.495784,0.070,-0.312,0.984,0.560,-2.310,-0.770
1743904141.424335,0.071,-0.313,0.987,0.560,-2.520,-0.770
1743904141.444335,0.071,-0.315,0.986,0.350,-2.380,-0.700
1743904141.464335,0.070,-0.314,0.986,0.140,-2.730,-0.770
1743904141.484335,0.070,-0.314,0.985,0.280,-2.590,-0.630
1743904141.504335,0.070,-0.314,0.985,0.420,-2.520,-0.630
1743904141.524335,0.071,-0.314,0.987,0.210,-2.660,-0.700
1743904141.46984,0.074,-0.315,0.985,-0.140,-2.730,-0.840
1743904141.48984,0.069,-0.318,0.985,0.280,-2.730,-0.910
1743904141.50984,0.073,-0.318,0.985,0.490,-2.520,-0.770
1743904141.52984,0.070,-0.314,0.986,0.350,-2.590,-0.770
1743904141.54984,0.069,-0.314,0.985,0.070,-2.730,-0.770
1743904141.56984,0.070,-0.319,0.983,0.070,-2.730,-0.770
1743904141.514661,0.071,-0.319,0.983,0.420,-2.800,-0.700
1743904141.534661,0.069,-0.316,0.985,0.280,-2.870,-0.770
1743904141.554661,0.072,-0.314,0.985,0.070,-2.870,-0.700
1743904141.574661,0.072,-0.315,0.985,0.070,-2.660,-0.700
1743904141.594661,0.072,-0.315,0.983,0.210,-2.660,-0.630
1743904141.614661,0.071,-0.315,0.982,0.350,-2.660,-0.630
1743904141.559828,0.072,-0.315,0.987,0.140,-2.730,-0.700
1743904141.579828,0.074,-0.315,0.984,0.000,-2.450,-0.630
1743904141.599828,0.073,-0.318,0.984,0.420,-2.170,-0.630
1743904141.619828,0.072,-0.314,0.983,0.350,-2.240,-0.630
1743904141.639828,0.069,-0.314,0.985,0.280,-2.450,-0.700
1743904141.659828,0.073,-0.317,0.985,0.350,-2.380,-0.630
1743904141.5892172,0.073,-0.318,0.984,0.630,-2.240,-0.630
1743904141.6092172,0.072,-0.317,0.985,0.420,-2.170,-0.630
1743904141.6292171,0.069,-0.317,0.984,0.350,-2.450,-0.770
1743904141.6492171,0.069,-0.314,0.985,0.350,-2.170,-0.490
1743904141.669217,0.073,-0.315,0.985,0.490,-2.170,-0.560
1743904141.689217,0.074,-0.315,0.983,0.210,-2.170,-0.560
1743904141.634354,0.073,-0.316,0.984,0.140,-2.310,-0.630
1743904141.654354,0.072,-0.315,0.985,0.140,-2.100,-0.490
1743904141.674354,0.070,-0.316,0.985,-0.140,-2.170,-0.490
1743904141.694354,0.068,-0.319,0.985,-0.210,-2.240,-0.490
1743904141.714354,0.069,-0.315,0.983,0.000,-2.310,-0.350
1743904141.734354,0.069,-0.315,0.984,0.070,-2.310,-0.490
1743904141.680418,0.070,-0.316,0.985,-0.070,-2.380,-0.490
1743904141.700418,0.072,-0.315,0.983,0.140,-2.380,-0.350
1743904141.720418,0.071,-0.316,0.986,0.070,-2.170,-0.420
1743904141.740418,0.072,-0.318,0.985,0.000,-2.310,-0.350
1743904141.760418,0.070,-0.319,0.984,-0.280,-2.170,-0.490
1743904141.780418,0.072,-0.321,0.983,0.420,-2.170,-0.490
1743904141.725442,0.069,-0.317,0.982,0.490,-2.310,-0.630
1743904141.745442,0.069,-0.316,0.985,0.140,-2.240,-0.560
1743904141.765442,0.072,-0.316,0.986,0.070,-2.100,-0.560
1743904141.7854419,0.070,-0.319,0.981,0.420,-2.240,-0.630
1743904141.8054419,0.069,-0.317,0.985,0.560,-2.380,-0.700
1743904141.8254418,0.071,-0.316,0.983,0.210,-2.450,-0.770
1743904141.7704582,0.072,-0.319,0.988,0.210,-2.380,-0.770
1743904141.7904582,0.069,-0.317,0.984,0.490,-2.520,-0.840
1743904141.8104582,0.070,-0.316,0.985,0.770,-2.660,-0.980
1743904141.8304582,0.072,-0.316,0.985,0.700,-2.520,-0.910
1743904141.8504581,0.071,-0.317,0.983,0.560,-2.450,-0.910
1743904141.8704581,0.070,-0.318,0.983,0.630,-2.590,-0.910
1743904141.799603,0.069,-0.315,0.981,0.770,-2.660,-0.980
1743904141.819603,0.071,-0.316,0.986,0.700,-2.800,-0.980
1743904141.839603,0.072,-0.316,0.987,0.630,-2.520,-0.980
1743904141.859603,0.071,-0.316,0.985,0.700,-2.660,-1.050
1743904141.879603,0.070,-0.313,0.983,0.770,-2.660,-0.910
1743904141.899603,0.070,-0.312,0.987,0.630,-2.590,-0.980
1743904141.859924,0.072,-0.314,0.985,0.420,-2.520,-0.910
1743904141.879924,0.070,-0.315,0.984,0.490,-2.380,-0.840
1743904141.899924,0.069,-0.316,0.985,0.700,-2.450,-0.910
1743904141.919924,0.071,-0.314,0.985,0.490,-2.590,-0.770
1743904141.939924,0.071,-0.313,0.986,0.280,-2.450,-0.630
1743904141.959924,0.071,-0.316,0.984,0.000,-2.590,-0.560
1743904141.890521,0.072,-0.315,0.986,0.280,-2.450,-0.420
1743904141.910521,0.070,-0.317,0.985,0.210,-2.170,-0.350
1743904141.930521,0.068,-0.316,0.986,-0.280,-2.520,-0.420
1743904141.950521,0.072,-0.317,0.983,0.070,-2.450,-0.350
1743904141.970521,0.072,-0.316,0.985,0.490,-2.520,-0.420
1743904141.990521,0.069,-0.315,0.984,0.210,-2.590,-0.490
1743904141.9799771,0.072,-0.315,0.983,-0.140,-2.520,-0.350
1743904141.999977,0.069,-0.319,0.983,0.420,-2.100,-0.280
1743904142.019977,0.068,-0.316,0.985,0.420,-2.170,-0.350
1743904142.039977,0.070,-0.316,0.986,0.070,-1.960,-0.280
1743904142.059977,0.069,-0.318,0.982,0.070,-2.310,-0.560
1743904142.079977,0.069,-0.318,0.983,0.350,-2.170,-0.700
1743904141.981239,0.071,-0.316,0.986,0.210,-2.310,-0.630
1743904142.001239,0.071,-0.315,0.986,0.140,-2.170,-0.630
1743904142.021239,0.073,-0.316,0.985,0.140,-2.100,-0.560
1743904142.041239,0.070,-0.320,0.985,0.350,-2.170,-0.630
1743904142.061239,0.070,-0.316,0.984,0.490,-2.100,-0.840
1743904142.081239,0.073,-0.317,0.985,0.560,-2.100,-0.630
1743904142.039823,0.071,-0.317,0.984,0.490,-1.960,-0.560
1743904142.059823,0.071,-0.315,0.984,0.630,-2.100,-0.630
1743904142.079823,0.072,-0.316,0.985,0.630,-1.960,-0.700
1743904142.099823,0.073,-0.315,0.985,0.630,-1.890,-0.630
1743904142.119823,0.070,-0.317,0.985,0.280,-2.450,-0.770
1743904142.139823,0.073,-0.318,0.986,0.840,-2.310,-0.560
1743904142.0697002,0.072,-0.314,0.989,0.490,-1.960,-0.490
1743904142.0897002,0.072,-0.314,0.984,0.140,-1.890,-0.490
1743904142.1097002,0.068,-0.318,0.982,0.560,-1.820,-0.490
1743904142.1297002,0.071,-0.312,0.985,0.630,-2.170,-0.560
1743904142.1497002,0.070,-0.313,0.987,0.350,-2.100,-0.420
1743904142.1697001,0.068,-0.316,0.986,0.280,-2.100,-0.630
1743904142.114698,0.067,-0.316,0.983,0.490,-2.240,-0.490
1743904142.134698,0.068,-0.316,0.983,0.490,-2.240,-0.770
1743904142.154698,0.069,-0.316,0.983,0.630,-1.890,-0.560
1743904142.1746979,0.068,-0.315,0.985,0.070,-2.100,-0.490
1743904142.1946979,0.066,-0.316,0.983,0.140,-2.100,-0.560
1743904142.2146978,0.069,-0.319,0.984,0.490,-2.170,-0.560
1743904142.1600032,0.066,-0.315,0.985,0.560,-2.310,-0.630
1743904142.1800032,0.070,-0.314,0.983,0.560,-2.170,-0.560
1743904142.2000031,0.069,-0.314,0.984,0.140,-2.310,-0.490
1743904142.2200031,0.070,-0.316,0.985,0.070,-2.520,-0.490
1743904142.240003,0.068,-0.316,0.983,0.630,-2.380,-0.490
1743904142.260003,0.068,-0.316,0.985,0.350,-2.450,-0.700
1743904142.1892521,0.071,-0.314,0.984,0.140,-2.590,-0.700
1743904142.209252,0.069,-0.314,0.985,0.280,-2.590,-0.630
1743904142.229252,0.066,-0.318,0.983,0.210,-2.660,-0.770
1743904142.249252,0.074,-0.321,0.979,1.680,-2.520,-0.630
1743904142.269252,0.072,-0.315,0.991,1.820,-0.770,-0.140
1743904142.289252,0.071,-0.298,0.988,-1.680,-1.260,0.000
1743904142.265305,0.068,-0.310,0.979,-1.050,-0.770,0.210
1743904142.285305,0.066,-0.325,0.976,1.330,-1.540,0.000
1743904142.305305,0.066,-0.313,0.992,0.630,-1.610,-0.140
1743904142.325305,0.068,-0.316,0.988,-0.280,-1.400,-0.140
1743904142.345305,0.067,-0.316,0.983,-0.280,-1.890,-0.420
1743904142.365305,0.066,-0.317,0.984,0.280,-2.100,-0.280
1743904142.2797031,0.065,-0.316,0.984,0.140,-2.100,-0.700
1743904142.2997031,0.064,-0.319,0.984,-0.280,-2.520,-0.770
1743904142.319703,0.066,-0.318,0.987,0.350,-3.010,-0.910
1743904142.339703,0.065,-0.316,0.989,0.280,-3.640,-1.190
1743904142.359703,0.061,-0.316,0.989,-0.420,-4.130,-1.330
1743904142.379703,0.067,-0.318,0.983,-0.420,-4.130,-1.400
1743904142.3266172,0.069,-0.318,0.983,0.630,-4.060,-1.400
1743904142.3466172,0.068,-0.315,0.988,0.140,-4.270,-1.470
1743904142.3666172,0.069,-0.314,0.988,-0.140,-3.920,-1.470
1743904142.3866172,0.070,-0.317,0.983,0.280,-3.920,-1.610
1743904142.4066172,0.073,-0.318,0.982,0.630,-3.570,-1.540
1743904142.4266171,0.071,-0.314,0.985,0.210,-3.850,-1.610
1743904142.384658,0.073,-0.318,0.985,0.280,-3.500,-1.540
1743904142.404658,0.071,-0.316,0.983,0.350,-4.200,-1.750
1743904142.424658,0.069,-0.314,0.986,0.210,-4.130,-1.820
1743904142.444658,0.071,-0.315,0.985,-0.210,-4.060,-1.610
1743904142.464658,0.075,-0.319,0.983,0.560,-3.990,-1.610
1743904142.484658,0.074,-0.316,0.986,0.840,-3.570,-1.260
1743904142.415456,0.075,-0.312,0.986,0.490,-3.150,-1.120
1743904142.435456,0.073,-0.314,0.985,-0.210,-3.150,-0.910
1743904142.455456,0.072,-0.317,0.985,0.000,-3.150,-0.910
1743904142.475456,0.069,-0.317,0.983,0.350,-3.150,-0.910
1743904142.495456,0.070,-0.317,0.984,0.490,-3.150,-0.910
1743904142.515456,0.072,-0.317,0.984,0.420,-3.220,-0.910
1743904142.459311,0.072,-0.318,0.984,0.490,-2.730,-0.630
1743904142.479311,0.072,-0.315,0.983,0.560,-2.380,-0.560
1743904142.499311,0.073,-0.315,0.982,0.350,-2.030,-0.490
1743904142.519311,0.075,-0.317,0.979,0.490,-1.260,-0.140
1743904142.539311,0.074,-0.316,0.982,0.910,-0.840,0.000
1743904142.559311,0.069,-0.311,0.985,-0.420,-1.330,-0.210
1743904142.5047472,0.069,-0.316,0.988,-0.210,-1.400,-0.280
1743904142.5247471,0.072,-0.320,0.982,0.840,-1.610,-0.350
1743904142.544747,0.070,-0.313,0.984,0.280,-1.890,-0.420
1743904142.564747,0.069,-0.315,0.983,0.070,-1.610,-0.280
1743904142.584747,0.072,-0.317,0.983,0.280,-1.470,-0.210
1743904142.604747,0.070,-0.316,0.986,0.280,-1.610,-0.280
1743904142.5652642,0.070,-0.318,0.985,0.140,-1.750,-0.420
1743904142.5852642,0.069,-0.317,0.986,0.490,-2.100,-0.560
1743904142.6052642,0.067,-0.316,0.988,0.070,-2.240,-0.490
1743904142.6252642,0.069,-0.316,0.983,0.140,-2.170,-0.560
1743904142.6452641,0.071,-0.317,0.985,0.280,-2.100,-0.630
1743904142.6652641,0.066,-0.316,0.984,0.350,-2.380,-0.630
1743904142.583203,0.069,-0.315,0.985,0.280,-2.520,-0.840
1743904142.603203,0.068,-0.318,0.988,0.210,-2.800,-0.770
1743904142.623203,0.069,-0.317,0.986,0.070,-2.800,-0.700
1743904142.643203,0.072,-0.315,0.986,0.000,-3.080,-0.700
1743904142.663203,0.072,-0.317,0.984,0.350,-2.940,-0.630
1743904142.683203,0.072,-0.316,0.985,0.210,-2.940,-0.560
1743904142.639846,0.074,-0.315,0.984,-0.140,-2.800,-0.630
1743904142.659846,0.072,-0.317,0.983,0.070,-2.730,-0.630
1743904142.679846,0.070,-0.317,0.983,0.210,-2.730,-0.700
1743904142.699846,0.072,-0.316,0.984,0.070,-2.730,-0.700
1743904142.719846,0.072,-0.321,0.984,0.210,-2.450,-0.770
1743904142.739846,0.068,-0.317,0.984,0.280,-2.660,-0.770
1743904142.669394,0.072,-0.318,0.984,0.490,-2.380,-0.770
1743904142.689394,0.071,-0.319,0.984,0.420,-2.380,-0.770
1743904142.709394,0.072,-0.317,0.984,0.490,-2.380,-0.840
1743904142.729394,0.071,-0.319,0.981,0.700,-2.310,-0.840
1743904142.749394,0.074,-0.317,0.983,0.700,-2.100,-0.840
1743904142.769394,0.073,-0.317,0.984,0.700,-1.890,-0.840
1743904142.7213311,0.073,-0.316,0.985,0.490,-2.170,-0.770
1743904142.741331,0.070,-0.315,0.985,0.910,-2.170,-0.910
1743904142.761331,0.070,-0.315,0.986,0.910,-2.240,-0.910
1743904142.781331,0.071,-0.313,0.986,0.700,-2.170,-0.840
1743904142.801331,0.074,-0.315,0.988,0.840,-2.170,-0.910
1743904142.821331,0.069,-0.316,0.983,0.840,-2.380,-0.700
1743904142.760438,0.071,-0.315,0.987,0.630,-2.380,-0.700
1743904142.780438,0.071,-0.314,0.987,0.490,-2.240,-0.770
1743904142.800438,0.070,-0.317,0.983,0.420,-2.380,-0.630
1743904142.820438,0.071,-0.315,0.987,0.280,-2.450,-0.700
1743904142.840438,0.073,-0.315,0.984,0.210,-2.380,-0.490
1743904142.8604379,0.073,-0.315,0.986,0.140,-2.450,-0.560
1743904142.804358,0.068,-0.315,0.985,0.140,-2.730,-0.630
1743904142.824358,0.070,-0.314,0.985,0.210,-2.660,-0.630
1743904142.844358,0.071,-0.315,0.985,0.140,-2.660,-0.560
1743904142.864358,0.070,-0.315,0.984,0.070,-2.520,-0.630
1743904142.884358,0.069,-0.315,0.984,0.210,-2.870,-0.700
1743904142.904358,0.071,-0.318,0.984,0.000,-2.800,-0.700
1743904142.865461,0.071,-0.319,0.984,0.280,-2.730,-0.700
1743904142.885461,0.070,-0.319,0.985,0.350,-2.590,-0.560
1743904142.905461,0.070,-0.315,0.984,0.140,-2.590,-0.630
1743904142.925461,0.071,-0.319,0.984,0.070,-2.800,-0.700
1743904142.945461,0.071,-0.318,0.986,0.210,-2.730,-0.700
1743904142.965461,0.073,-0.319,0.984,0.350,-2.450,-0.630
1743904142.8804212,0.071,-0.315,0.986,0.280,-2.450,-0.700
1743904142.9004211,0.069,-0.316,0.984,0.140,-2.310,-0.630
1743904142.9204211,0.072,-0.315,0.983,0.350,-2.170,-0.700
1743904142.940421,0.071,-0.317,0.983,0.490,-2.030,-0.700
1743904142.960421,0.070,-0.318,0.983,0.420,-2.100,-0.630
1743904142.980421,0.071,-0.317,0.982,0.420,-2.100,-0.700
1743904142.925461,0.072,-0.315,0.985,0.420,-1.960,-0.700
1743904142.945461,0.072,-0.315,0.986,0.700,-1.890,-0.560
1743904142.965461,0.071,-0.316,0.985,0.700,-1.820,-0.560
1743904142.985461,0.068,-0.317,0.987,0.420,-1.750,-0.630
1743904143.005461,0.070,-0.317,0.984,0.700,-1.960,-0.560
1743904143.025461,0.070,-0.317,0.984,0.560,-2.030,-0.630
1743904142.970592,0.069,-0.318,0.985,0.490,-2.170,-0.560
1743904142.990592,0.070,-0.317,0.984,0.420,-2.030,-0.420
1743904143.010592,0.072,-0.314,0.984,0.560,-1.960,-0.420
1743904143.030592,0.071,-0.316,0.984,0.420,-1.890,-0.420
1743904143.050592,0.069,-0.316,0.982,0.280,-1.960,-0.560
1743904143.070592,0.064,-0.317,0.980,0.350,-2.240,-0.770
1743904143.014532,0.068,-0.320,0.983,0.910,-2.310,-0.560
1743904143.034532,0.071,-0.316,0.986,0.420,-2.170,-0.560
1743904143.054532,0.072,-0.316,0.985,0.280,-1.750,-0.490
1743904143.074532,0.069,-0.318,0.983,0.840,-2.240,-0.560
1743904143.094532,0.067,-0.316,0.981,0.700,-2.240,-0.560
1743904143.114532,0.071,-0.313,0.986,0.420,-2.170,-0.560
1743904143.060022,0.070,-0.316,0.985,0.350,-2.030,-0.560
1743904143.080022,0.069,-0.316,0.986,0.490,-2.030,-0.560
1743904143.100022,0.067,-0.318,0.986,0.490,-2.730,-0.770
1743904143.120022,0.076,-0.323,0.982,1.750,-2.100,-0.280
1743904143.140022,0.074,-0.308,0.983,1.890,-1.330,-0.210
1743904143.160022,0.071,-0.309,0.986,-0.560,-0.980,-0.070
1743904143.0895243,0.070,-0.313,0.982,-0.350,-0.770,0.000
1743904143.1095243,0.064,-0.320,0.979,1.050,-1.260,-0.210
1743904143.1295242,0.065,-0.319,0.986,1.190,-1.540,-0.490
1743904143.1495242,0.071,-0.314,0.987,0.280,-1.470,-0.560
1743904143.1695242,0.068,-0.314,0.983,0.000,-1.610,-0.700
1743904143.1895242,0.070,-0.319,0.982,0.980,-1.470,-0.770
1743904143.1666331,0.066,-0.318,0.983,0.840,-1.610,-0.840
1743904143.186633,0.066,-0.314,0.986,0.700,-1.890,-0.910
1743904143.206633,0.070,-0.317,0.986,0.630,-2.170,-1.050
1743904143.226633,0.067,-0.317,0.987,0.420,-2.660,-1.190
1743904143.246633,0.066,-0.316,0.988,0.420,-3.080,-1.330
1743904143.266633,0.064,-0.318,0.985,0.140,-3.850,-1.330
1743904143.195141,0.066,-0.316,0.985,0.070,-3.920,-1.610
1743904143.215141,0.066,-0.317,0.991,-0.840,-4.830,-1.820
1743904143.235141,0.066,-0.321,0.981,0.350,-5.040,-2.170
1743904143.255141,0.068,-0.320,0.984,1.260,-4.900,-2.240
1743904143.275141,0.072,-0.308,0.986,0.630,-4.760,-2.170
1743904143.295141,0.071,-0.310,0.987,-0.630,-4.760,-2.030
1743904143.224474,0.070,-0.318,0.981,-0.700,-4.480,-2.030
1743904143.244474,0.072,-0.319,0.981,0.980,-4.690,-2.100
1743904143.264474,0.072,-0.314,0.985,0.560,-4.690,-2.100
1743904143.284474,0.072,-0.312,0.984,0.420,-4.270,-2.030
1743904143.3044739,0.073,-0.313,0.983,0.070,-4.410,-1.960
1743904143.3244739,0.079,-0.319,0.982,0.910,-3.920,-1.750
1743904143.286346,0.078,-0.319,0.986,1.120,-3.430,-1.610
1743904143.306346,0.075,-0.316,0.985,0.840,-3.430,-1.540
1743904143.326346,0.075,-0.318,0.984,0.770,-3.290,-1.400
1743904143.346346,0.076,-0.314,0.986,0.490,-3.430,-1.260
1743904143.366346,0.074,-0.316,0.984,0.280,-3.290,-1.190
1743904143.3863459,0.076,-0.315,0.984,0.210,-3.080,-1.050
1743904143.3296032,0.073,-0.315,0.985,-0.070,-3.570,-0.980
1743904143.3496032,0.073,-0.317,0.986,-0.070,-3.360,-0.910
1743904143.3696032,0.073,-0.315,0.983,0.210,-3.360,-0.770
1743904143.3896031,0.071,-0.316,0.986,0.210,-2.870,-0.770
1743904143.409603,0.072,-0.317,0.976,0.630,-2.450,-0.490
1743904143.429603,0.078,-0.314,0.975,1.050,-1.190,-0.070
1743904143.360722,0.076,-0.313,0.981,0.630,-0.770,0.210
1743904143.380722,0.073,-0.314,0.986,0.070,-0.490,0.280
1743904143.400722,0.068,-0.320,0.986,0.420,-0.840,0.000
1743904143.420722,0.067,-0.320,0.985,1.190,-1.120,-0.350
1743904143.440722,0.069,-0.317,0.985,1.120,-1.400,-0.560
1743904143.460722,0.073,-0.313,0.983,0.630,-1.330,-0.350
1743904143.3904061,0.077,-0.314,0.982,0.770,-0.840,-0.140
1743904143.410406,0.074,-0.315,0.984,0.980,-0.630,-0.140
1743904143.430406,0.072,-0.315,0.986,0.980,-0.770,-0.210
1743904143.450406,0.068,-0.313,0.987,0.420,-1.330,-0.350
1743904143.470406,0.072,-0.316,0.988,0.350,-1.470,-0.280
1743904143.490406,0.071,-0.315,0.987,0.280,-1.750,-0.350
1743904143.465879,0.071,-0.314,0.986,0.140,-2.100,-0.280
1743904143.485879,0.070,-0.316,0.985,0.070,-2.030,-0.280
1743904143.505879,0.072,-0.314,0.985,-0.140,-2.100,-0.280
1743904143.525879,0.070,-0.315,0.985,-0.210,-2.100,-0.350
1743904143.545879,0.068,-0.317,0.986,-0.210,-2.450,-0.420
1743904143.5658789,0.070,-0.318,0.987,-0.210,-2.870,-0.700
1743904143.4798212,0.070,-0.317,0.986,-0.420,-3.570,-1.050
1743904143.4998212,0.069,-0.319,0.982,0.000,-3.640,-1.120
1743904143.5198212,0.074,-0.314,0.983,0.630,-3.360,-1.120
1743904143.5398211,0.071,-0.314,0.984,-0.070,-3.080,-1.050
1743904143.5598211,0.070,-0.317,0.981,0.070,-3.080,-1.050
1743904143.579821,0.072,-0.316,0.983,0.560,-3.010,-1.120
1743904143.5248601,0.072,-0.318,0.985,0.490,-3.220,-1.120
1743904143.5448601,0.074,-0.314,0.987,0.420,-3.010,-1.050
1743904143.56486,0.070,-0.315,0.983,-0.210,-2.940,-1.050
1743904143.58486,0.075,-0.317,0.981,0.490,-2.800,-0.980
1743904143.60486,0.072,-0.315,0.980,0.560,-2.520,-0.910
1743904143.62486,0.071,-0.315,0.986,0.420,-2.660,-0.980
1743904143.5554242,0.075,-0.319,0.985,0.350,-2.590,-1.050
1743904143.5754242,0.072,-0.320,0.986,0.700,-2.520,-0.840
1743904143.5954242,0.073,-0.320,0.985,0.910,-2.450,-0.910
1743904143.6154242,0.072,-0.316,0.984,0.770,-2.450,-0.910
1743904143.6354241,0.072,-0.316,0.982,0.770,-2.240,-0.770
1743904143.655424,0.073,-0.314,0.982,1.050,-1.820,-0.700
1743904143.599494,0.072,-0.313,0.984,1.050,-1.610,-0.560
1743904143.619494,0.069,-0.313,0.987,0.630,-1.820,-0.770
1743904143.639494,0.070,-0.316,0.987,0.700,-2.100,-0.700
1743904143.659494,0.069,-0.313,0.986,0.770,-2.100,-0.700
1743904143.679494,0.071,-0.315,0.986,0.630,-2.450,-0.770
1743904143.699494,0.075,-0.313,0.985,0.420,-2.240,-0.700
1743904143.644567,0.075,-0.312,0.984,0.350,-2.170,-0.630
1743904143.664567,0.073,-0.315,0.987,0.140,-2.450,-0.630
1743904143.684567,0.070,-0.316,0.984,0.070,-2.450,-0.700
1743904143.704567,0.075,-0.316,0.986,0.350,-2.520,-0.560
1743904143.724567,0.073,-0.315,0.986,-0.070,-2.380,-0.420
1743904143.744567,0.070,-0.316,0.984,-0.210,-2.590,-0.490
1743904143.703837,0.070,-0.318,0.983,-0.070,-2.730,-0.700
1743904143.723837,0.074,-0.317,0.983,0.280,-2.450,-0.560
1743904143.7438369,0.073,-0.313,0.984,0.140,-2.310,-0.560
1743904143.7638369,0.072,-0.315,0.984,-0.210,-2.310,-0.490
1743904143.7838368,0.073,-0.320,0.983,0.350,-2.100,-0.420
1743904143.8038368,0.072,-0.318,0.982,0.490,-2.030,-0.560
1743904143.720338,0.071,-0.316,0.984,0.630,-2.170,-0.560
1743904143.740338,0.073,-0.318,0.985,0.420,-1.890,-0.630
1743904143.760338,0.073,-0.316,0.982,0.700,-1.820,-0.560
1743904143.780338,0.072,-0.316,0.982,0.560,-2.170,-0.700
1743904143.800338,0.069,-0.315,0.986,0.490,-2.170,-0.770
1743904143.820338,0.071,-0.317,0.984,0.490,-2.310,-0.630
1743904143.7652981,0.072,-0.319,0.986,0.560,-2.170,-0.700
1743904143.785298,0.072,-0.316,0.985,0.630,-2.380,-0.770
1743904143.805298,0.072,-0.315,0.983,0.350,-2.310,-0.630
1743904143.825298,0.072,-0.314,0.984,0.210,-2.240,-0.630
1743904143.845298,0.071,-0.317,0.982,0.490,-2.310,-0.560
1743904143.865298,0.071,-0.318,0.985,0.700,-2.100,-0.560
1743904143.8096023,0.070,-0.316,0.987,0.630,-2.170,-0.630
1743904143.8296022,0.072,-0.316,0.986,0.560,-2.240,-0.560
1743904143.8496022,0.072,-0.314,0.985,0.490,-2.240,-0.770
1743904143.8696022,0.071,-0.317,0.981,0.700,-2.100,-0.770
1743904143.8896022,0.074,-0.314,0.987,0.560,-2.310,-0.700
1743904143.9096022,0.073,-0.315,0.985,0.350,-2.310,-0.630
1743904143.855526,0.070,-0.317,0.985,0.350,-2.310,-0.630
1743904143.875526,0.074,-0.313,0.984,0.490,-2.450,-0.700
1743904143.895526,0.070,-0.315,0.986,0.140,-2.520,-0.560
1743904143.915526,0.070,-0.313,0.985,0.000,-2.310,-0.630
1743904143.935526,0.073,-0.316,0.983,0.420,-2.520,-0.630
1743904143.9555259,0.074,-0.314,0.985,0.210,-2.590,-0.770
1743904143.900449,0.069,-0.315,0.987,-0.350,-2.660,-0.700
1743904143.920449,0.068,-0.318,0.983,-0.210,-2.940,-0.770
1743904143.940449,0.072,-0.318,0.985,0.000,-3.150,-0.840
1743904143.960449,0.068,-0.316,0.985,-0.070,-3.080,-0.910
1743904143.980449,0.073,-0.316,0.985,-0.140,-2.870,-0.840
1743904144.000449,0.072,-0.318,0.984,-0.140,-2.870,-0.840
1743904143.944439,0.071,-0.318,0.983,0.210,-3.080,-0.980
1743904143.964439,0.073,-0.317,0.983,0.420,-2.940,-0.910
1743904143.984439,0.071,-0.316,0.985,0.280,-2.800,-0.840
1743904144.0044389,0.074,-0.316,0.983,0.280,-2.660,-0.840
1743904144.0244389,0.073,-0.316,0.983,0.350,-2.590,-0.910
1743904144.0444388,0.072,-0.316,0.984,0.140,-2.660,-0.770
1743904143.990442,0.071,-0.317,0.982,0.420,-2.520,-0.770
1743904144.010442,0.072,-0.318,0.985,0.420,-2.520,-0.770
1743904144.030442,0.072,-0.316,0.982,0.490,-2.520,-0.770
1743904144.050442,0.072,-0.314,0.987,0.280,-2.450,-0.700
1743904144.070442,0.071,-0.319,0.986,0.210,-2.450,-0.630
1743904144.090442,0.072,-0.317,0.982,0.700,-2.450,-0.700
1743904144.077994,0.073,-0.316,0.983,0.490,-2.170,-0.560
1743904144.097994,0.071,-0.313,0.983,0.280,-2.100,-0.630
1743904144.117994,0.075,-0.316,0.985,0.210,-2.100,-0.420
1743904144.137994,0.073,-0.317,0.984,0.560,-2.100,-0.630
1743904144.157994,0.072,-0.316,0.985,0.560,-2.170,-0.700
1743904144.177994,0.074,-0.314,0.987,0.420,-2.240,-0.630
1743904144.081314,0.074,-0.318,0.986,0.350,-2.170,-0.630
1743904144.101314,0.070,-0.318,0.985,0.490,-2.240,-0.560
1743904144.121314,0.072,-0.316,0.986,0.140,-2.310,-0.700
1743904144.141314,0.073,-0.316,0.984,0.070,-2.520,-0.630
1743904144.161314,0.072,-0.316,0.987,0.350,-2.590,-0.700
1743904144.181314,0.071,-0.317,0.985,0.210,-2.660,-0.770
1743904144.1103961,0.071,-0.314,0.982,0.210,-2.590,-0.910
1743904144.1303961,0.073,-0.316,0.985,0.070,-3.080,-0.770
1743904144.150396,0.076,-0.320,0.982,1.330,-1.400,-0.490
1743904144.170396,0.076,-0.313,0.984,1.330,-1.470,-0.350
1743904144.190396,0.073,-0.311,0.983,0.840,-1.400,-0.210
1743904144.210396,0.070,-0.313,0.983,0.210,-1.610,-0.210
1743904144.169737,0.072,-0.320,0.985,0.770,-1.330,-0.070
1743904144.189737,0.070,-0.316,0.985,0.770,-1.540,-0.280
1743904144.209737,0.067,-0.314,0.986,0.560,-1.820,-0.420
1743904144.229737,0.068,-0.317,0.981,0.000,-1.750,-0.420
1743904144.249737,0.072,-0.318,0.985,0.980,-1.330,-0.280
1743904144.269737,0.071,-0.315,0.987,0.560,-1.540,-0.420
1743904144.2153401,0.071,-0.315,0.988,0.350,-1.540,-0.350
1743904144.23534,0.072,-0.319,0.986,0.420,-1.400,-0.420
1743904144.25534,0.071,-0.318,0.983,0.630,-1.750,-0.420
1743904144.27534,0.070,-0.314,0.984,0.560,-1.680,-0.350
1743904144.29534,0.071,-0.311,0.986,0.210,-1.750,-0.210
1743904144.31534,0.067,-0.317,0.983,0.350,-1.750,-0.210
1743904144.273626,0.069,-0.316,0.981,0.560,-1.890,-0.420
1743904144.293626,0.069,-0.315,0.986,0.560,-1.820,-0.560
1743904144.313626,0.072,-0.313,0.986,0.140,-1.820,-0.560
1743904144.333626,0.069,-0.317,0.985,0.140,-1.960,-0.630
1743904144.353626,0.069,-0.317,0.983,0.420,-2.310,-0.700
1743904144.373626,0.071,-0.317,0.985,0.490,-2.310,-0.770
1743904144.2895632,0.072,-0.314,0.987,0.210,-2.450,-0.630
1743904144.3095632,0.066,-0.316,0.985,0.140,-2.520,-0.630
1743904144.3295631,0.065,-0.316,0.986,0.000,-3.010,-0.840
1743904144.3495631,0.068,-0.313,0.985,-0.140,-3.290,-0.910
1743904144.369563,0.069,-0.312,0.987,-0.560,-3.360,-1.050
1743904144.389563,0.064,-0.318,0.987,-0.980,-4.060,-1.190
1743904144.3646102,0.066,-0.319,0.984,-0.560,-4.270,-1.260
1743904144.3846102,0.069,-0.319,0.983,0.350,-4.270,-1.400
1743904144.4046102,0.073,-0.319,0.983,0.140,-3.920,-1.260
1743904144.4246101,0.073,-0.313,0.982,-0.140,-3.570,-1.190
1743904144.44461,0.071,-0.317,0.985,-0.070,-3.500,-1.190
1743904144.46461,0.071,-0.318,0.985,0.210,-3.710,-1.330
1743904144.3804102,0.073,-0.316,0.987,0.070,-3.710,-1.470
1743904144.4004102,0.068,-0.315,0.983,-0.630,-3.920,-1.400
1743904144.4204102,0.073,-0.320,0.975,1.190,-3.360,-1.260
1743904144.4404101,0.074,-0.314,0.985,1.050,-2.660,-1.050
1743904144.46041,0.073,-0.315,0.987,0.070,-2.800,-1.050
1743904144.48041,0.070,-0.319,0.982,0.420,-2.940,-1.120
1743904144.424806,0.075,-0.317,0.986,0.770,-2.800,-0.840
1743904144.444806,0.074,-0.316,0.985,0.560,-2.450,-0.770
1743904144.464806,0.073,-0.314,0.982,-0.070,-2.240,-0.700
1743904144.484806,0.071,-0.318,0.984,0.350,-1.960,-0.560
1743904144.504806,0.071,-0.321,0.983,1.330,-1.680,-0.350
1743904144.524806,0.075,-0.313,0.983,1.260,-1.120,0.000
1743904144.4698882,0.073,-0.313,0.985,0.210,-0.770,0.000
1743904144.4898882,0.071,-0.315,0.984,0.070,-0.980,0.000
1743904144.5098882,0.069,-0.317,0.982,0.910,-1.470,-0.140
1743904144.5298882,0.070,-0.318,0.985,0.630,-1.610,-0.280
1743904144.5498881,0.071,-0.314,0.985,0.630,-1.680,-0.210
1743904144.569888,0.071,-0.315,0.984,0.490,-1.260,-0.210
1743904144.5153391,0.071,-0.314,0.983,0.560,-1.470,-0.350
1743904144.535339,0.070,-0.318,0.986,0.630,-1.680,-0.420
1743904144.555339,0.069,-0.314,0.988,0.560,-2.100,-0.490
1743904144.575339,0.069,-0.317,0.988,-0.070,-2.310,-0.490
1743904144.595339,0.073,-0.319,0.984,0.630,-1.890,-0.490
1743904144.615339,0.067,-0.314,0.985,0.490,-2.170,-0.560
1743904144.559556,0.068,-0.315,0.985,-0.140,-2.730,-0.770
1743904144.579556,0.068,-0.317,0.985,0.210,-2.660,-0.770
1743904144.599556,0.074,-0.319,0.984,0.700,-2.380,-0.770
1743904144.619556,0.070,-0.316,0.985,0.280,-2.520,-0.700
1743904144.639556,0.068,-0.318,0.984,0.000,-2.800,-0.980
1743904144.659556,0.069,-0.319,0.983,0.490,-2.800,-1.050
1743904144.6045642,0.069,-0.317,0.982,0.910,-2.800,-1.050
1743904144.6245642,0.072,-0.313,0.984,0.910,-2.940,-1.120
1743904144.6445642,0.070,-0.316,0.987,0.350,-2.940,-1.120
1743904144.6645641,0.072,-0.319,0.986,0.350,-2.940,-1.050
1743904144.684564,0.071,-0.316,0.984,0.630,-2.940,-1.120
1743904144.704564,0.071,-0.315,0.986,0.420,-3.080,-0.980
1743904144.6654592,0.070,-0.315,0.988,0.210,-2.940,-0.980
1743904144.6854591,0.071,-0.315,0.984,-0.140,-3.150,-0.910
1743904144.705459,0.070,-0.317,0.984,0.210,-3.080,-0.840
1743904144.725459,0.074,-0.316,0.985,0.420,-2.590,-0.770
1743904144.745459,0.068,-0.315,0.985,-0.070,-2.590,-0.770
1743904144.765459,0.069,-0.315,0.983,0.000,-2.520,-0.770
1743904144.680422,0.072,-0.316,0.983,0.490,-2.730,-0.700
1743904144.700422,0.072,-0.314,0.986,0.210,-2.450,-0.840
1743904144.720422,0.071,-0.316,0.984,0.140,-2.450,-0.630
1743904144.740422,0.073,-0.317,0.982,0.490,-2.310,-0.630
1743904144.760422,0.070,-0.315,0.983,0.420,-2.380,-0.630
1743904144.780422,0.072,-0.315,0.982,0.350,-2.100,-0.490
1743904144.7388191,0.074,-0.319,0.983,0.630,-1.960,-0.420
1743904144.758819,0.074,-0.318,0.984,0.420,-1.750,-0.490
1743904144.778819,0.069,-0.315,0.985,0.420,-2.170,-0.560
1743904144.798819,0.068,-0.318,0.982,0.490,-2.170,-0.560
1743904144.818819,0.071,-0.315,0.984,0.630,-2.100,-0.630
1743904144.838819,0.072,-0.316,0.985,0.420,-2.100,-0.490
1743904144.7704442,0.071,-0.315,0.985,0.420,-2.030,-0.700
1743904144.7904441,0.069,-0.316,0.984,0.490,-2.170,-0.560
1743904144.810444,0.069,-0.318,0.983,0.420,-2.100,-0.630
1743904144.830444,0.069,-0.319,0.984,0.280,-2.170,-0.630
1743904144.850444,0.067,-0.315,0.985,0.560,-2.310,-0.700
1743904144.870444,0.068,-0.316,0.985,0.700,-2.240,-0.770
1743904144.814845,0.069,-0.315,0.985,0.420,-2.450,-0.770
1743904144.834845,0.072,-0.316,0.986,0.490,-2.380,-0.840
1743904144.854845,0.070,-0.317,0.985,0.630,-2.520,-0.840
1743904144.874845,0.069,-0.315,0.985,0.350,-2.800,-0.910
1743904144.894845,0.070,-0.316,0.987,0.140,-2.660,-0.910
1743904144.914845,0.072,-0.318,0.981,0.910,-2.450,-0.910
1743904144.8572361,0.070,-0.312,0.987,0.630,-2.520,-0.840
1743904144.8772361,0.070,-0.315,0.987,0.070,-2.730,-0.770
1743904144.897236,0.072,-0.314,0.986,-0.070,-2.590,-0.700
1743904144.917236,0.073,-0.318,0.986,0.140,-2.660,-0.770
1743904144.937236,0.069,-0.314,0.984,0.420,-2.660,-0.700
1743904144.957236,0.069,-0.315,0.983,-0.210,-2.870,-0.840
1743904144.890029,0.075,-0.317,0.983,0.070,-2.310,-0.490
1743904144.910029,0.074,-0.316,0.984,0.280,-2.380,-0.700
1743904144.930029,0.067,-0.315,0.988,0.000,-2.590,-0.770
1743904144.950029,0.072,-0.316,0.983,-0.070,-2.520,-0.700
1743904144.9700289,0.072,-0.318,0.983,0.350,-2.380,-0.700
1743904144.9900289,0.071,-0.316,0.985,0.280,-2.590,-0.770
1743904144.9643831,0.071,-0.316,0.984,0.210,-2.590,-0.840
1743904144.984383,0.072,-0.315,0.984,0.420,-2.520,-0.770
1743904145.004383,0.071,-0.315,0.986,0.490,-2.450,-0.840
1743904145.024383,0.071,-0.319,0.985,0.420,-2.660,-0.840
1743904145.044383,0.069,-0.317,0.982,0.560,-2.660,-0.980
1743904145.064383,0.071,-0.315,0.985,0.560,-2.660,-0.910
1743904144.9804711,0.071,-0.317,0.984,0.490,-2.520,-0.840
1743904145.000471,0.071,-0.318,0.983,0.700,-2.380,-0.840
1743904145.020471,0.071,-0.315,0.984,0.700,-2.450,-0.700
1743904145.040471,0.071,-0.318,0.984,0.560,-2.380,-0.910
1743904145.060471,0.072,-0.315,0.983,0.490,-2.310,-0.700
1743904145.080471,0.070,-0.319,0.982,0.630,-2.100,-0.700
1743904145.0254722,0.071,-0.317,0.984,0.700,-2.100,-0.630
1743904145.0454721,0.070,-0.316,0.982,0.700,-2.240,-0.700
1743904145.0654721,0.072,-0.315,0.984,0.560,-1.890,-0.700
1743904145.085472,0.070,-0.316,0.985,0.560,-1.890,-0.560
1743904145.105472,0.070,-0.317,0.985,0.490,-2.240,-0.630
1743904145.125472,0.070,-0.316,0.987,0.490,-2.100,-0.700
1743904145.0555162,0.072,-0.315,0.987,0.280,-2.310,-0.630
1743904145.0755162,0.072,-0.316,0.986,0.280,-2.170,-0.560
1743904145.0955162,0.072,-0.314,0.984,0.280,-2.240,-0.630
1743904145.1155162,0.070,-0.316,0.986,0.140,-2.450,-0.630
1743904145.1355162,0.071,-0.318,0.984,0.210,-2.380,-0.630
1743904145.1555161,0.072,-0.316,0.986,0.140,-2.380,-0.770
1743904145.100429,0.071,-0.315,0.986,0.140,-2.380,-0.700
1743904145.120429,0.069,-0.315,0.984,0.000,-2.590,-0.700
1743904145.140429,0.072,-0.316,0.985,0.210,-2.590,-0.700
1743904145.160429,0.072,-0.316,0.985,0.280,-2.450,-0.700
1743904145.180429,0.071,-0.316,0.987,0.280,-2.590,-0.700
1743904145.200429,0.071,-0.315,0.985,0.210,-2.870,-0.910
1743904145.144545,0.072,-0.317,0.985,0.350,-2.660,-0.770
1743904145.164545,0.070,-0.314,0.985,0.350,-2.590,-0.770
1743904145.184545,0.071,-0.316,0.981,0.350,-2.660,-0.840
1743904145.204545,0.068,-0.317,0.986,0.350,-2.590,-0.840
1743904145.224545,0.071,-0.317,0.986,0.420,-2.380,-0.700
1743904145.244545,0.069,-0.315,0.984,0.350,-2.380,-0.770
1743904145.2037501,0.072,-0.318,0.984,0.560,-2.590,-0.770
1743904145.22375,0.071,-0.316,0.983,0.490,-2.450,-0.770
1743904145.24375,0.074,-0.316,0.984,0.420,-2.240,-0.560
1743904145.26375,0.071,-0.314,0.986,0.280,-2.240,-0.630
1743904145.28375,0.071,-0.313,0.987,-0.070,-2.310,-0.700
1743904145.30375,0.073,-0.318,0.983,0.280,-2.240,-0.630
1743904145.265479,0.068,-0.315,0.983,0.420,-2.380,-0.630
1743904145.285479,0.072,-0.317,0.985,0.210,-2.520,-0.770
1743904145.305479,0.072,-0.316,0.983,0.420,-2.310,-0.770
1743904145.325479,0.070,-0.319,0.984,0.420,-2.240,-0.700
1743904145.345479,0.070,-0.317,0.985,0.490,-2.240,-0.770
1743904145.365479,0.067,-0.316,0.985,0.560,-2.380,-0.840
1743904145.280315,0.073,-0.313,0.986,0.560,-2.310,-0.770
1743904145.300315,0.073,-0.315,0.985,0.490,-2.310,-0.700
1743904145.320315,0.073,-0.315,0.986,0.420,-2.380,-0.700
1743904145.3403149,0.072,-0.315,0.986,0.280,-2.450,-0.770
1743904145.3603148,0.069,-0.316,0.984,0.210,-2.450,-0.700
1743904145.3803148,0.069,-0.317,0.984,0.350,-2.240,-0.630
1743904145.3245091,0.072,-0.316,0.986,0.210,-2.240,-0.560
1743904145.3445091,0.072,-0.315,0.985,0.070,-2.450,-0.560
1743904145.364509,0.071,-0.317,0.984,0.140,-2.380,-0.700
1743904145.384509,0.072,-0.316,0.986,0.420,-2.310,-0.700
1743904145.404509,0.072,-0.312,0.985,0.280,-2.310,-0.700
1743904145.424509,0.070,-0.316,0.984,0.490,-2.310,-0.770
1743904145.3705583,0.072,-0.318,0.982,0.560,-2.380,-0.770
1743904145.3905582,0.070,-0.315,0.985,0.420,-2.310,-0.840
1743904145.4105582,0.073,-0.318,0.987,0.280,-2.380,-0.700
1743904145.4305582,0.069,-0.317,0.984,0.490,-2.450,-0.700
1743904145.4505582,0.069,-0.317,0.983,0.420,-2.660,-0.770
1743904145.4705582,0.072,-0.315,0.986,0.210,-2.660,-0.770
1743904145.415558,0.070,-0.317,0.985,0.210,-2.380,-0.770
1743904145.435558,0.071,-0.316,0.983,0.420,-2.520,-0.840
1743904145.455558,0.069,-0.314,0.983,0.350,-2.590,-0.840
1743904145.475558,0.074,-0.317,0.986,0.350,-2.380,-0.840
1743904145.495558,0.069,-0.317,0.983,0.350,-2.380,-0.630
1743904145.515558,0.070,-0.317,0.986,0.350,-2.380,-0.700
1743904145.4595342,0.069,-0.317,0.985,0.350,-2.450,-0.700
1743904145.4795341,0.070,-0.319,0.987,0.420,-2.240,-0.700
1743904145.4995341,0.068,-0.316,0.985,0.490,-2.310,-0.630
1743904145.519534,0.071,-0.315,0.986,0.420,-2.310,-0.560
1743904145.539534,0.070,-0.314,0.985,0.350,-2.170,-0.560
1743904145.559534,0.070,-0.316,0.986,0.280,-2.240,-0.630
1743904145.4921312,0.069,-0.315,0.983,0.280,-2.240,-0.700
1743904145.5121312,0.070,-0.317,0.982,0.420,-2.520,-0.770
1743904145.5321312,0.073,-0.315,0.985,0.350,-2.660,-0.630
1743904145.5521312,0.072,-0.317,0.987,0.000,-2.380,-0.700
1743904145.5721312,0.071,-0.316,0.983,0.210,-2.380,-0.630
1743904145.5921311,0.071,-0.315,0.985,0.210,-2.730,-0.700
1743904145.564521,0.067,-0.315,0.986,0.140,-2.660,-0.700
1743904145.584521,0.073,-0.316,0.987,0.280,-2.590,-0.630
1743904145.604521,0.067,-0.317,0.983,0.350,-2.520,-0.770
1743904145.624521,0.069,-0.315,0.985,0.350,-2.590,-0.840
1743904145.644521,0.071,-0.316,0.982,0.420,-2.380,-0.770
1743904145.664521,0.073,-0.317,0.984,0.350,-2.450,-0.770
1743904145.60706,0.071,-0.314,0.985,0.420,-2.380,-0.840
1743904145.62706,0.071,-0.316,0.985,0.560,-2.380,-0.700
1743904145.64706,0.073,-0.315,0.985,0.560,-2.520,-0.770
1743904145.66706,0.068,-0.316,0.986,0.490,-2.380,-0.700
1743904145.6870599,0.069,-0.314,0.985,0.420,-2.520,-0.770
1743904145.7070599,0.068,-0.314,0.982,0.490,-2.450,-0.700
1743904145.6245222,0.068,-0.316,0.985,0.490,-2.520,-0.770
1743904145.6445222,0.070,-0.317,0.987,0.280,-2.520,-0.770
1743904145.6645222,0.071,-0.317,0.983,0.420,-2.380,-0.910
1743904145.6845222,0.070,-0.316,0.984,0.490,-2.450,-0.770
1743904145.7045221,0.071,-0.318,0.983,0.420,-2.380,-0.560
1743904145.724522,0.071,-0.314,0.985,0.350,-2.170,-0.560
1743904145.669384,0.069,-0.314,0.986,0.280,-2.170,-0.560
1743904145.689384,0.072,-0.316,0.984,0.280,-2.170,-0.630
1743904145.709384,0.072,-0.314,0.982,0.420,-2.380,-0.630
1743904145.729384,0.070,-0.318,0.985,0.140,-2.310,-0.560
1743904145.749384,0.073,-0.313,0.984,0.210,-2.310,-0.490
1743904145.769384,0.072,-0.316,0.984,0.070,-2.310,-0.490
1743904145.715602,0.071,-0.315,0.984,-0.070,-2.380,-0.490
1743904145.735602,0.070,-0.314,0.985,-0.070,-2.240,-0.560
1743904145.755602,0.069,-0.317,0.985,-0.070,-2.450,-0.560
1743904145.7756019,0.070,-0.316,0.985,0.140,-2.380,-0.630
1743904145.7956018,0.071,-0.316,0.987,0.140,-2.590,-0.630
1743904145.8156018,0.071,-0.315,0.984,-0.070,-2.660,-0.630
1743904145.7595751,0.069,-0.317,0.982,0.070,-2.590,-0.630
1743904145.779575,0.071,-0.317,0.983,0.490,-2.590,-0.700
1743904145.799575,0.072,-0.317,0.984,0.420,-2.660,-0.840
1743904145.819575,0.069,-0.318,0.984,0.490,-2.520,-0.840
1743904145.839575,0.072,-0.316,0.984,0.490,-2.590,-0.840
1743904145.859575,0.072,-0.318,0.982,0.770,-2.450,-0.770
1743904145.789437,0.074,-0.316,0.985,0.490,-2.520,-0.770
1743904145.809437,0.072,-0.318,0.986,0.490,-2.240,-0.630
1743904145.829437,0.072,-0.315,0.983,0.630,-2.310,-0.700
1743904145.849437,0.072,-0.313,0.985,0.560,-2.380,-0.770
1743904145.869437,0.069,-0.314,0.986,0.140,-2.240,-0.700
1743904145.889437,0.069,-0.317,0.983,0.280,-2.100,-0.560
1743904145.8974762,0.071,-0.316,0.983,0.490,-2.240,-0.630
1743904145.9174762,0.070,-0.315,0.984,0.210,-2.380,-0.630
1743904145.9374762,0.070,-0.317,0.989,0.280,-2.240,-0.630
1743904145.9574761,0.072,-0.316,0.984,0.210,-2.240,-0.560
1743904145.9774761,0.070,-0.316,0.983,0.000,-2.380,-0.630
1743904145.997476,0.069,-0.315,0.982,0.350,-2.520,-0.700
1743904145.8990192,0.070,-0.317,0.984,0.350,-2.520,-0.630
1743904145.9190192,0.067,-0.316,0.985,0.280,-2.660,-0.770
1743904145.9390192,0.068,-0.315,0.984,0.210,-2.660,-0.770
1743904145.9590192,0.070,-0.317,0.983,0.350,-2.520,-0.700
1743904145.9790192,0.070,-0.315,0.983,0.210,-2.450,-0.770
1743904145.9990191,0.069,-0.315,0.984,0.000,-2.870,-0.840
1743904145.9246712,0.069,-0.318,0.984,0.210,-2.730,-0.840
1743904145.9446712,0.072,-0.315,0.985,0.140,-2.730,-0.700
1743904145.9646711,0.069,-0.313,0.986,0.140,-2.800,-0.770
1743904145.984671,0.070,-0.315,0.985,0.140,-2.730,-0.840
1743904146.004671,0.070,-0.318,0.984,0.140,-2.870,-0.840
1743904146.024671,0.070,-0.318,0.982,0.210,-2.660,-0.770
1743904145.96936,0.069,-0.317,0.983,0.350,-2.660,-0.770
1743904145.98936,0.071,-0.317,0.986,0.420,-2.730,-0.770
1743904146.00936,0.070,-0.318,0.984,0.420,-2.520,-0.840
1743904146.02936,0.070,-0.315,0.984,0.490,-2.520,-0.910
1743904146.04936,0.070,-0.319,0.984,0.490,-2.450,-0.910
1743904146.06936,0.068,-0.320,0.984,0.560,-2.520,-0.910
1743904146.0144262,0.072,-0.316,0.983,0.840,-2.520,-0.840
1743904146.0344262,0.073,-0.317,0.986,0.420,-2.450,-0.840
1743904146.0544262,0.072,-0.315,0.986,0.280,-2.450,-0.840
1743904146.0744262,0.074,-0.316,0.986,0.350,-2.240,-0.840
1743904146.0944262,0.070,-0.317,0.984,0.210,-2.450,-0.840
1743904146.1144261,0.069,-0.316,0.984,0.490,-2.590,-0.840
1743904146.05972,0.072,-0.315,0.988,0.420,-2.660,-0.840
1743904146.07972,0.073,-0.317,0.988,0.210,-2.450,-0.700
1743904146.09972,0.069,-0.315,0.985,0.000,-2.520,-0.770
1743904146.11972,0.072,-0.316,0.982,0.490,-2.590,-0.910
1743904146.13972,0.070,-0.316,0.985,0.420,-2.660,-0.910
1743904146.15972,0.070,-0.316,0.985,0.350,-2.450,-0.840
1743904146.104444,0.070,-0.319,0.984,0.350,-2.660,-0.840
1743904146.124444,0.072,-0.317,0.986,0.420,-2.730,-0.910
1743904146.144444,0.072,-0.317,0.987,0.420,-2.520,-0.840
1743904146.164444,0.072,-0.317,0.984,0.490,-2.660,-0.840
1743904146.184444,0.071,-0.319,0.985,0.490,-2.590,-0.980
1743904146.204444,0.072,-0.315,0.984,0.420,-2.590,-0.910
1743904146.1648512,0.069,-0.318,0.983,0.420,-2.590,-0.840
1743904146.1848512,0.071,-0.317,0.983,0.630,-2.520,-0.700
1743904146.2048512,0.070,-0.315,0.984,0.630,-2.380,-0.700
1743904146.2248511,0.074,-0.316,0.984,0.490,-2.310,-0.770
1743904146.244851,0.072,-0.316,0.984,0.420,-2.030,-0.700
1743904146.264851,0.071,-0.316,0.983,0.490,-1.960,-0.560
1743904146.1794,0.073,-0.314,0.986,0.490,-2.100,-0.630
1743904146.1994,0.071,-0.318,0.987,0.280,-2.030,-0.700
1743904146.2194,0.072,-0.316,0.987,0.420,-2.100,-0.700
1743904146.2394,0.069,-0.318,0.986,0.420,-2.170,-0.770
1743904146.2594,0.069,-0.314,0.986,0.350,-2.310,-0.770
1743904146.2793999,0.070,-0.317,0.984,0.490,-2.310,-0.630
1743904146.2245193,0.072,-0.316,0.985,0.350,-2.310,-0.630
1743904146.2445192,0.072,-0.316,0.985,0.210,-2.310,-0.560
1743904146.2645192,0.072,-0.316,0.984,0.210,-2.590,-0.630
1743904146.2845192,0.070,-0.319,0.982,0.280,-2.520,-0.630
1743904146.3045192,0.073,-0.317,0.984,0.420,-2.450,-0.630
1743904146.3245192,0.072,-0.316,0.985,0.000,-2.380,-0.700
1743904146.269732,0.069,-0.317,0.984,0.280,-2.380,-0.700
1743904146.289732,0.072,-0.318,0.983,0.420,-2.520,-0.840
1743904146.309732,0.071,-0.316,0.985,0.420,-2.380,-0.630
1743904146.329732,0.070,-0.317,0.986,0.280,-2.380,-0.700
1743904146.349732,0.072,-0.317,0.985,0.350,-2.520,-0.770
1743904146.369732,0.073,-0.319,0.985,0.490,-2.450,-0.770
1743904146.314558,0.069,-0.317,0.987,0.210,-2.450,-0.770
1743904146.334558,0.070,-0.315,0.984,0.210,-2.310,-0.840
1743904146.354558,0.070,-0.317,0.983,0.420,-2.520,-0.770
1743904146.374558,0.071,-0.319,0.984,0.490,-2.520,-0.840
1743904146.394558,0.071,-0.318,0.985,0.420,-2.310,-0.770
1743904146.414558,0.072,-0.316,0.984,0.350,-2.310,-0.700
1743904146.3443651,0.071,-0.316,0.985,0.350,-2.380,-0.770
1743904146.364365,0.070,-0.317,0.984,0.210,-2.520,-0.840
1743904146.384365,0.071,-0.314,0.984,0.280,-2.450,-0.770
1743904146.404365,0.073,-0.318,0.985,0.350,-2.380,-0.700
1743904146.424365,0.072,-0.317,0.984,0.630,-2.380,-0.770
1743904146.444365,0.070,-0.315,0.985,0.490,-2.380,-0.700
1743904146.3896022,0.071,-0.316,0.985,0.350,-2.520,-0.770
1743904146.4096022,0.072,-0.315,0.983,0.490,-2.170,-0.630
1743904146.4296021,0.073,-0.314,0.986,0.280,-2.240,-0.700
1743904146.4496021,0.070,-0.313,0.987,0.280,-2.450,-0.700
1743904146.469602,0.071,-0.317,0.984,0.280,-2.380,-0.700
1743904146.489602,0.071,-0.316,0.988,0.420,-2.380,-0.560
1743904146.465293,0.072,-0.315,0.985,0.420,-2.590,-0.700
1743904146.485293,0.070,-0.315,0.984,0.420,-2.380,-0.770
1743904146.505293,0.071,-0.315,0.984,0.280,-2.450,-0.770
1743904146.5252929,0.069,-0.316,0.987,0.210,-2.450,-0.700
1743904146.5452929,0.071,-0.317,0.984,0.350,-2.520,-0.770
1743904146.5652928,0.070,-0.319,0.985,0.210,-2.730,-0.840
1743904146.48023,0.073,-0.318,0.985,0.280,-2.730,-0.910
1743904146.50023,0.073,-0.317,0.985,0.280,-2.590,-0.700
1743904146.52023,0.071,-0.319,0.983,0.350,-2.590,-0.770
1743904146.54023,0.071,-0.316,0.984,0.420,-2.590,-0.840
1743904146.56023,0.068,-0.316,0.984,0.560,-2.520,-0.770
1743904146.58023,0.072,-0.316,0.984,0.350,-2.660,-0.770
1743904146.5243893,0.069,-0.317,0.987,0.280,-2.520,-0.700
1743904146.5443892,0.071,-0.315,0.985,0.350,-2.660,-0.840
1743904146.5643892,0.070,-0.315,0.986,0.560,-2.660,-0.770
1743904146.5843892,0.072,-0.315,0.985,0.350,-2.450,-0.770
1743904146.6043892,0.072,-0.316,0.987,0.420,-2.310,-0.630
1743904146.6243892,0.071,-0.315,0.984,0.350,-2.380,-0.700
1743904146.5821161,0.072,-0.315,0.986,0.350,-2.310,-0.840
1743904146.602116,0.071,-0.317,0.987,0.280,-2.520,-0.840
1743904146.622116,0.071,-0.317,0.985,0.210,-2.450,-0.770
1743904146.642116,0.071,-0.315,0.987,0.350,-2.520,-0.770
1743904146.662116,0.070,-0.315,0.984,0.420,-2.520,-0.840
1743904146.682116,0.071,-0.315,0.985,0.350,-2.450,-0.770
1743904146.5994682,0.070,-0.317,0.984,0.350,-2.520,-0.700
1743904146.6194682,0.072,-0.320,0.984,0.280,-2.590,-0.840
1743904146.6394682,0.069,-0.317,0.984,0.350,-2.590,-0.770
1743904146.6594682,0.072,-0.315,0.984,0.420,-2.450,-0.700
1743904146.6794682,0.070,-0.318,0.985,0.420,-2.450,-0.630
1743904146.6994681,0.070,-0.318,0.984,0.350,-2.520,-0.770
1743904146.661313,0.072,-0.316,0.986,0.420,-2.380,-0.700
1743904146.681313,0.070,-0.317,0.985,0.210,-2.310,-0.700
1743904146.701313,0.073,-0.317,0.985,0.210,-2.520,-0.840
1743904146.721313,0.071,-0.315,0.985,0.490,-2.520,-0.700
1743904146.741313,0.070,-0.317,0.986,0.420,-2.450,-0.700
1743904146.761313,0.071,-0.316,0.984,0.350,-2.310,-0.700
1743904146.703722,0.071,-0.317,0.983,0.350,-2.310,-0.770
1743904146.723722,0.069,-0.316,0.983,0.490,-2.380,-0.770
1743904146.743722,0.071,-0.316,0.987,0.420,-2.380,-0.700
1743904146.763722,0.072,-0.317,0.985,0.280,-2.240,-0.700
1743904146.783722,0.071,-0.315,0.985,0.420,-2.450,-0.700
1743904146.803722,0.072,-0.317,0.985,0.490,-2.520,-0.700
1743904146.764425,0.072,-0.315,0.984,0.350,-2.520,-0.770
1743904146.784425,0.072,-0.317,0.985,0.210,-2.380,-0.700
1743904146.804425,0.069,-0.317,0.986,0.420,-2.310,-0.630
1743904146.824425,0.071,-0.317,0.985,0.280,-2.590,-0.770
1743904146.844425,0.071,-0.317,0.985,0.140,-2.450,-0.840
1743904146.864425,0.071,-0.319,0.985,0.280,-2.450,-0.700
1743904146.779738,0.070,-0.317,0.985,0.280,-2.450,-0.700
1743904146.799738,0.073,-0.315,0.985,0.350,-2.520,-0.700
1743904146.819738,0.071,-0.316,0.984,0.280,-2.450,-0.770
1743904146.839738,0.071,-0.315,0.985,0.350,-2.380,-0.770
1743904146.8597379,0.071,-0.317,0.983,0.420,-2.520,-0.770
1743904146.8797379,0.071,-0.316,0.985,0.490,-2.450,-0.770
1743904146.8245502,0.074,-0.316,0.987,0.490,-2.450,-0.770
1743904146.8445501,0.073,-0.316,0.986,0.560,-2.310,-0.700
1743904146.86455,0.069,-0.316,0.984,0.560,-2.520,-0.770
1743904146.88455,0.070,-0.317,0.984,0.560,-2.520,-0.840
1743904146.90455,0.072,-0.317,0.984,0.630,-2.450,-0.770
1743904146.92455,0.071,-0.316,0.985,0.420,-2.310,-0.700
1743904146.8694232,0.073,-0.317,0.985,0.420,-2.380,-0.700
1743904146.8894231,0.070,-0.317,0.984,0.490,-2.380,-0.840
1743904146.909423,0.070,-0.316,0.985,0.490,-2.380,-0.700
1743904146.929423,0.072,-0.316,0.984,0.490,-2.100,-0.700
1743904146.949423,0.071,-0.315,0.983,0.420,-2.380,-0.700
1743904146.969423,0.071,-0.313,0.984,0.350,-2.240,-0.630
1743904146.91454,0.070,-0.314,0.984,0.350,-2.240,-0.560
1743904146.93454,0.073,-0.316,0.984,0.210,-2.380,-0.700
1743904146.95454,0.072,-0.316,0.983,0.210,-2.310,-0.630
1743904146.97454,0.072,-0.316,0.982,0.140,-2.310,-0.560
1743904146.99454,0.069,-0.315,0.985,0.140,-2.380,-0.630
1743904147.01454,0.071,-0.316,0.982,0.210,-2.450,-0.700
1743904146.9595551,0.070,-0.317,0.985,0.350,-2.520,-0.700
1743904146.9795551,0.071,-0.318,0.987,0.140,-2.520,-0.770
1743904146.999555,0.072,-0.317,0.983,0.280,-2.450,-0.700
1743904147.019555,0.071,-0.317,0.983,0.420,-2.380,-0.700
1743904147.039555,0.070,-0.316,0.983,0.350,-2.590,-0.840
1743904147.059555,0.072,-0.317,0.987,0.280,-2.450,-0.770
1743904146.9895892,0.073,-0.318,0.987,0.420,-2.450,-0.770
1743904147.0095892,0.071,-0.317,0.983,0.490,-2.520,-0.770
1743904147.0295892,0.071,-0.315,0.982,0.350,-2.450,-0.770
1743904147.0495892,0.073,-0.316,0.983,0.420,-2.310,-0.630
1743904147.0695891,0.071,-0.317,0.985,0.420,-2.170,-0.700
1743904147.089589,0.070,-0.316,0.983,0.420,-2.310,-0.700
1743904147.0643992,0.070,-0.319,0.985,0.490,-2.380,-0.840
1743904147.0843992,0.072,-0.317,0.985,0.630,-2.310,-0.630
1743904147.1043992,0.072,-0.314,0.984,0.420,-2.380,-0.700
1743904147.1243992,0.070,-0.315,0.984,0.350,-2.310,-0.840
1743904147.1443992,0.070,-0.318,0.984,0.420,-2.310,-0.700
1743904147.1643991,0.072,-0.317,0.984,0.420,-2.310,-0.630
1743904147.0790973,0.072,-0.316,0.985,0.280,-2.380,-0.700
1743904147.0990973,0.071,-0.316,0.984,0.350,-2.380,-0.700
1743904147.1190972,0.070,-0.316,0.984,0.280,-2.450,-0.700
1743904147.1390972,0.073,-0.318,0.984,0.420,-2.450,-0.700
1743904147.1590972,0.074,-0.315,0.986,0.140,-2.450,-0.700
1743904147.1790972,0.074,-0.316,0.986,0.210,-2.380,-0.630
1743904147.1675901,0.071,-0.318,0.984,0.280,-2.310,-0.630
1743904147.1875901,0.070,-0.315,0.984,0.350,-2.590,-0.770
1743904147.20759,0.069,-0.317,0.985,0.350,-2.450,-0.840
1743904147.22759,0.071,-0.317,0.985,0.280,-2.450,-0.770
1743904147.24759,0.073,-0.317,0.985,0.280,-2.520,-0.700
1743904147.26759,0.070,-0.318,0.985,0.350,-2.590,-0.770
1743904147.170981,0.072,-0.315,0.984,0.350,-2.520,-0.770
1743904147.190981,0.071,-0.316,0.985,0.280,-2.310,-0.700
1743904147.210981,0.073,-0.317,0.983,0.490,-2.380,-0.700
1743904147.2309809,0.070,-0.315,0.983,0.490,-2.520,-0.700
1743904147.2509809,0.073,-0.316,0.986,0.420,-2.590,-0.560
1743904147.2709808,0.073,-0.318,0.983,0.420,-2.310,-0.700
1743904147.1997411,0.071,-0.315,0.983,0.420,-2.380,-0.700
1743904147.219741,0.070,-0.317,0.983,0.420,-2.520,-0.700
1743904147.239741,0.072,-0.317,0.984,0.420,-2.170,-0.560
1743904147.259741,0.070,-0.318,0.984,0.350,-2.100,-0.630
1743904147.279741,0.068,-0.316,0.984,0.350,-2.380,-0.560
1743904147.299741,0.071,-0.316,0.983,0.280,-2.380,-0.630
1743904147.244492,0.070,-0.316,0.984,0.280,-2.240,-0.630
1743904147.264492,0.072,-0.316,0.986,0.140,-2.030,-0.490
1743904147.284492,0.073,-0.315,0.983,0.210,-2.380,-0.700
1743904147.304492,0.071,-0.316,0.984,0.280,-2.240,-0.630
1743904147.324492,0.072,-0.317,0.986,0.280,-2.380,-0.630
1743904147.344492,0.070,-0.316,0.986,0.280,-2.450,-0.700
1743904147.28968,0.071,-0.315,0.984,0.210,-2.310,-0.770
1743904147.30968,0.070,-0.315,0.983,0.210,-2.450,-0.700
1743904147.32968,0.069,-0.318,0.985,0.350,-2.450,-0.770
1743904147.34968,0.070,-0.317,0.986,0.350,-2.520,-0.770
1743904147.36968,0.071,-0.317,0.985,0.420,-2.520,-0.770
1743904147.38968,0.070,-0.319,0.985,0.420,-2.520,-0.770
1743904147.364614,0.073,-0.315,0.984,0.490,-2.380,-0.770
1743904147.384614,0.071,-0.315,0.983,0.420,-2.380,-0.700
1743904147.404614,0.068,-0.317,0.984,0.350,-2.520,-0.700
1743904147.424614,0.071,-0.317,0.985,0.630,-2.520,-0.770
1743904147.444614,0.072,-0.315,0.984,0.420,-2.520,-0.700
1743904147.464614,0.070,-0.315,0.983,0.420,-2.380,-0.700
1743904147.379507,0.071,-0.315,0.983,0.420,-2.380,-0.630
1743904147.399507,0.070,-0.317,0.981,0.630,-2.380,-0.560
1743904147.419507,0.069,-0.316,0.985,0.420,-2.380,-0.700
1743904147.439507,0.071,-0.317,0.985,0.490,-2.240,-0.630
1743904147.459507,0.072,-0.315,0.984,0.420,-2.240,-0.630
1743904147.479507,0.069,-0.315,0.986,0.350,-2.240,-0.770
1743904147.4094,0.072,-0.316,0.985,0.420,-2.240,-0.630
1743904147.4294,0.070,-0.314,0.985,0.210,-2.100,-0.630
1743904147.4494,0.070,-0.317,0.986,0.350,-2.380,-0.630
1743904147.4694,0.072,-0.315,0.984,0.490,-2.240,-0.700
1743904147.4894,0.067,-0.317,0.987,0.280,-2.240,-0.700
1743904147.5094,0.071,-0.315,0.985,0.210,-2.240,-0.700
1743904147.4549432,0.070,-0.316,0.986,0.280,-2.310,-0.630
1743904147.4749432,0.069,-0.317,0.985,0.280,-2.310,-0.700
1743904147.4949431,0.071,-0.318,0.984,0.280,-2.310,-0.560
1743904147.5149431,0.069,-0.314,0.984,0.070,-2.240,-0.630
1743904147.534943,0.073,-0.315,0.984,0.280,-2.240,-0.700
1743904147.554943,0.072,-0.317,0.984,0.350,-2.380,-0.770
1743904147.499736,0.070,-0.316,0.984,0.350,-2.520,-0.700
1743904147.519736,0.070,-0.316,0.985,0.350,-2.380,-0.770
1743904147.539736,0.070,-0.317,0.986,0.280,-2.380,-0.770
1743904147.559736,0.071,-0.315,0.985,0.420,-2.450,-0.770
1743904147.579736,0.071,-0.316,0.986,0.350,-2.310,-0.700
1743904147.599736,0.070,-0.316,0.985,0.420,-2.450,-0.770
1743904147.558808,0.073,-0.316,0.985,0.350,-2.450,-0.630
1743904147.578808,0.070,-0.316,0.982,0.420,-2.450,-0.770
1743904147.598808,0.070,-0.316,0.982,0.350,-2.380,-0.770
1743904147.618808,0.072,-0.315,0.981,0.420,-2.380,-0.700
1743904147.638808,0.071,-0.316,0.985,0.490,-2.170,-0.560
1743904147.658808,0.070,-0.318,0.982,0.490,-2.170,-0.630
1743904147.589487,0.069,-0.316,0.984,0.560,-2.170,-0.630
1743904147.609487,0.072,-0.315,0.984,0.490,-2.030,-0.490
1743904147.629487,0.073,-0.316,0.986,0.350,-1.960,-0.490
1743904147.649487,0.069,-0.317,0.985,0.560,-2.170,-0.630
1743904147.669487,0.070,-0.315,0.983,0.490,-2.170,-0.700
1743904147.689487,0.073,-0.314,0.984,0.560,-1.960,-0.490
1743904147.619461,0.070,-0.315,0.983,-0.070,-2.240,-0.630
1743904147.639461,0.070,-0.317,0.984,0.420,-2.380,-0.490
1743904147.659461,0.073,-0.318,0.984,0.490,-2.380,-0.560
1743904147.679461,0.072,-0.316,0.988,0.280,-1.890,-0.490
1743904147.699461,0.073,-0.316,0.983,0.210,-1.820,-0.490
1743904147.719461,0.066,-0.316,0.985,0.350,-2.380,-0.490
1743904147.664638,0.067,-0.317,0.986,0.140,-2.450,-0.560
1743904147.684638,0.072,-0.317,0.986,0.280,-2.450,-0.630
1743904147.704638,0.072,-0.316,0.985,0.210,-2.170,-0.560
1743904147.724638,0.068,-0.316,0.983,0.280,-2.170,-0.560
1743904147.744638,0.067,-0.316,0.981,0.420,-2.450,-0.700
1743904147.764638,0.068,-0.317,0.984,0.350,-2.380,-0.700
1743904147.7226663,0.072,-0.316,0.986,0.420,-2.240,-0.700
1743904147.7426662,0.071,-0.317,0.986,0.210,-2.240,-0.770
1743904147.7626662,0.068,-0.317,0.984,0.420,-2.520,-0.840
1743904147.7826662,0.070,-0.316,0.985,0.560,-2.450,-0.770
1743904147.8026662,0.070,-0.317,0.985,0.350,-2.520,-0.770
1743904147.8226662,0.068,-0.318,0.985,0.350,-2.520,-0.700
1743904147.7549891,0.069,-0.316,0.983,0.560,-2.310,-0.770
1743904147.7749891,0.068,-0.317,0.984,0.490,-2.380,-0.700
1743904147.794989,0.077,-0.321,0.983,1.470,-2.800,-0.910
1743904147.814989,0.080,-0.316,0.988,2.800,-0.070,0.280
1743904147.834989,0.075,-0.301,0.991,-1.190,-0.770,-0.070
1743904147.854989,0.065,-0.314,0.976,-1.190,-0.840,0.070
1743904147.7846491,0.065,-0.320,0.976,1.190,-1.400,-0.140
1743904147.804649,0.069,-0.318,0.991,1.050,-1.890,-0.280
1743904147.824649,0.073,-0.316,0.992,0.210,-0.910,-0.140
1743904147.844649,0.070,-0.314,0.985,-0.210,-1.190,-0.140
1743904147.864649,0.068,-0.312,0.982,-0.350,-1.330,-0.140
1743904147.884649,0.067,-0.317,0.983,-0.140,-1.470,-0.280
1743904147.8294451,0.067,-0.318,0.988,0.070,-1.960,-0.560
1743904147.849445,0.068,-0.319,0.988,-0.070,-2.240,-0.420
1743904147.869445,0.069,-0.319,0.989,-0.210,-2.590,-0.630
1743904147.889445,0.065,-0.319,0.986,-0.280,-2.660,-0.770
1743904147.909445,0.065,-0.319,0.983,-0.210,-3.080,-0.700
1743904147.929445,0.066,-0.317,0.985,0.280,-3.570,-0.910
1743904147.859767,0.064,-0.317,0.986,0.140,-3.640,-1.050
1743904147.879767,0.063,-0.316,0.988,-0.420,-4.410,-1.470
1743904147.899767,0.067,-0.323,0.984,-0.280,-4.550,-1.540
1743904147.919767,0.071,-0.324,0.983,0.770,-4.340,-1.610
1743904147.939767,0.072,-0.315,0.985,1.680,-3.990,-1.540
1743904147.9597669,0.065,-0.309,0.983,-1.400,-4.760,-1.890
1743904147.905942,0.071,-0.316,0.981,0.490,-4.480,-1.750
1743904147.925942,0.068,-0.321,0.985,1.330,-4.620,-1.890
1743904147.945942,0.074,-0.313,0.990,0.770,-4.130,-1.750
1743904147.965942,0.070,-0.311,0.986,-0.560,-3.640,-1.330
1743904147.985942,0.069,-0.316,0.980,-0.560,-3.850,-1.330
1743904148.0059419,0.074,-0.316,0.978,0.490,-3.360,-1.120
1743904147.981197,0.072,-0.317,0.982,0.700,-3.360,-1.050
1743904148.001197,0.074,-0.316,0.992,0.140,-3.290,-0.910
1743904148.021197,0.075,-0.317,0.987,-0.630,-3.010,-0.910
1743904148.041197,0.071,-0.321,0.978,0.070,-3.290,-0.980
1743904148.061197,0.075,-0.321,0.977,1.470,-2.240,-0.980
1743904148.081197,0.073,-0.311,0.984,0.980,-2.450,-0.910
1743904147.994905,0.072,-0.314,0.984,0.140,-2.310,-0.770
1743904148.014905,0.071,-0.322,0.986,0.280,-2.520,-0.910
1743904148.034905,0.074,-0.321,0.986,0.840,-2.310,-0.840
1743904148.054905,0.074,-0.317,0.987,0.840,-1.960,-0.770
1743904148.074905,0.071,-0.314,0.983,0.700,-1.820,-0.420
1743904148.094905,0.074,-0.314,0.980,0.840,-1.470,-0.140
1743904148.035479,0.074,-0.315,0.982,0.490,-1.190,-0.210
1743904148.055479,0.073,-0.315,0.987,0.280,-1.400,-0.140
1743904148.075479,0.068,-0.319,0.988,0.420,-1.610,-0.280
1743904148.095479,0.068,-0.320,0.987,0.490,-1.820,-0.560
1743904148.115479,0.069,-0.320,0.983,0.560,-2.170,-0.630
1743904148.135479,0.073,-0.314,0.982,0.630,-1.610,-0.420
1743904148.069439,0.070,-0.314,0.983,0.280,-1.680,-0.420
1743904148.089439,0.069,-0.318,0.985,0.560,-1.890,-0.350
1743904148.109439,0.068,-0.315,0.987,0.630,-1.890,-0.560
1743904148.1294389,0.070,-0.318,0.985,0.560,-2.100,-0.630
1743904148.1494389,0.070,-0.316,0.984,0.420,-2.170,-0.630
1743904148.1694388,0.069,-0.315,0.982,0.420,-2.380,-0.700
1743904148.115057,0.071,-0.316,0.983,0.350,-2.450,-0.700
1743904148.135057,0.071,-0.315,0.985,0.350,-2.520,-0.840
1743904148.155057,0.070,-0.315,0.986,0.070,-2.520,-0.770
1743904148.175057,0.069,-0.316,0.985,0.000,-3.080,-1.050
1743904148.195057,0.070,-0.317,0.983,0.420,-3.010,-0.980
1743904148.215057,0.073,-0.315,0.983,0.350,-2.800,-0.910
1743904148.1741061,0.072,-0.313,0.985,0.000,-2.660,-0.910
1743904148.194106,0.069,-0.317,0.984,0.000,-2.730,-0.840
1743904148.214106,0.070,-0.317,0.984,0.280,-3.010,-0.910
1743904148.234106,0.073,-0.316,0.986,0.420,-2.870,-0.910
1743904148.254106,0.073,-0.314,0.989,0.210,-2.800,-0.840
1743904148.274106,0.070,-0.316,0.984,0.000,-2.730,-0.840
1743904148.2187471,0.073,-0.318,0.982,0.420,-2.590,-0.770
1743904148.2387471,0.074,-0.314,0.985,1.050,-2.240,-0.700
1743904148.258747,0.072,-0.314,0.985,0.210,-2.170,-0.560
1743904148.278747,0.074,-0.314,0.985,0.210,-2.030,-0.420
1743904148.298747,0.075,-0.314,0.981,0.630,-1.750,-0.420
1743904148.318747,0.066,-0.315,0.984,0.350,-1.890,-0.560
1743904148.2655861,0.068,-0.318,0.985,0.350,-2.030,-0.490
1743904148.285586,0.072,-0.318,0.986,0.630,-1.610,-0.420
1743904148.305586,0.070,-0.319,0.985,0.490,-1.820,-0.560
1743904148.325586,0.072,-0.317,0.983,0.630,-1.750,-0.490
1743904148.345586,0.069,-0.313,0.983,0.560,-1.750,-0.420
1743904148.365586,0.066,-0.313,0.987,0.280,-2.380,-0.630
1743904148.3089042,0.076,-0.319,0.987,0.420,-1.820,-0.560
1743904148.3289042,0.075,-0.318,0.989,0.560,-1.610,-0.350
1743904148.3489041,0.066,-0.316,0.985,0.210,-1.960,-0.560
1743904148.368904,0.064,-0.316,0.981,0.280,-2.380,-0.770
1743904148.388904,0.066,-0.317,0.981,0.840,-2.520,-0.770
1743904148.408904,0.071,-0.315,0.982,0.350,-2.240,-0.490
1743904148.338673,0.071,-0.313,0.984,0.280,-2.030,-0.490
1743904148.358673,0.068,-0.316,0.984,0.280,-1.960,-0.490
1743904148.378673,0.066,-0.321,0.986,0.490,-1.960,-0.700
1743904148.398673,0.064,-0.316,0.987,0.210,-2.520,-0.980
1743904148.418673,0.065,-0.315,0.985,1.120,-3.010,-0.910
1743904148.438673,0.072,-0.316,0.987,1.260,-2.660,-0.770
1743904148.369434,0.076,-0.312,0.986,0.350,-1.960,-0.490
1743904148.389434,0.073,-0.312,0.981,0.350,-1.680,-0.420
1743904148.409434,0.070,-0.314,0.980,0.420,-2.170,-0.560
1743904148.429434,0.072,-0.315,0.985,0.490,-2.100,-0.630
1743904148.449434,0.069,-0.317,0.987,0.280,-2.310,-0.560
1743904148.469434,0.074,-0.319,0.986,0.350,-2.240,-0.210
1743904148.413813,0.080,-0.316,0.985,2.100,-0.210,0.140
1743904148.433813,0.074,-0.305,0.985,0.210,-0.280,0.210
1743904148.453813,0.068,-0.305,0.977,-0.840,-0.490,0.210
1743904148.473813,0.063,-0.315,0.979,-0.490,-0.630,0.420
1743904148.493813,0.066,-0.316,0.982,0.140,-0.910,-0.070
1743904148.513813,0.071,-0.321,0.990,0.070,-1.190,-0.070
1743904148.458878,0.072,-0.317,0.988,0.140,-0.980,-0.070
1743904148.478878,0.069,-0.315,0.987,-0.490,-1.890,-0.350
1743904148.498878,0.064,-0.316,0.986,-0.490,-2.170,-0.630
1743904148.518878,0.066,-0.316,0.982,0.210,-2.380,-0.700
1743904148.538878,0.070,-0.318,0.988,0.420,-2.590,-0.770
1743904148.558878,0.065,-0.318,0.986,0.140,-3.010,-0.910
1743904148.489429,0.063,-0.319,0.987,0.210,-3.430,-1.050
1743904148.509429,0.064,-0.319,0.988,0.210,-4.270,-1.540
1743904148.529429,0.070,-0.318,0.986,0.630,-3.990,-1.540
1743904148.549429,0.063,-0.314,0.987,0.070,-4.550,-1.680
1743904148.569429,0.064,-0.311,0.983,-0.490,-4.830,-1.960
1743904148.589429,0.072,-0.318,0.979,1.470,-4.410,-1.750
1743904148.565207,0.075,-0.316,0.983,1.680,-3.780,-1.540
1743904148.585207,0.074,-0.312,0.992,0.070,-3.430,-1.260
1743904148.605207,0.070,-0.316,0.983,-0.140,-3.500,-1.260
1743904148.625207,0.069,-0.315,0.983,0.840,-3.570,-1.330
1743904148.645207,0.072,-0.315,0.988,0.560,-3.500,-1.190
1743904148.665207,0.076,-0.317,0.984,0.560,-1.540,-0.350
1743904148.5675051,0.090,-0.316,0.981,2.310,-0.700,0.210
1743904148.587505,0.074,-0.303,0.980,0.280,0.980,0.700
1743904148.607505,0.065,-0.311,0.981,-0.630,-0.070,0.630
1743904148.627505,0.065,-0.318,0.986,17.500,-0.210,0.560
1743904148.647505,0.072,-0.325,0.990,0.350,-0.140,0.210
1743904148.667505,0.070,-0.317,0.987,0.070,-0.630,0.140
1743904148.62461,0.068,-0.315,0.979,-0.280,-0.910,0.070
1743904148.64461,0.069,-0.319,0.981,0.140,-1.120,0.000
1743904148.66461,0.067,-0.321,0.985,0.700,-1.610,-0.280
1743904148.68461,0.061,-0.323,0.990,0.280,-2.310,-0.840
1743904148.7046099,0.058,-0.318,0.986,0.280,-2.940,-1.120
1743904148.7246099,0.062,-0.318,0.984,0.210,-4.760,-1.890
1743904148.6712532,0.067,-0.314,0.986,0.770,-4.480,-1.960
1743904148.6912532,0.063,-0.313,0.986,-1.050,-5.110,-2.310
1743904148.7112532,0.071,-0.319,0.980,-0.420,-4.410,-2.170
1743904148.7312531,0.068,-0.322,0.983,1.540,-4.480,-2.310
1743904148.7512531,0.068,-0.309,0.993,-17.570,-4.900,-2.450
1743904148.771253,0.068,-0.324,0.977,0.700,-4.480,-2.450
1743904148.729036,0.072,-0.318,0.982,1.470,-4.690,-2.520
1743904148.749036,0.073,-0.309,0.986,1.050,-4.690,-2.100
1743904148.769036,0.076,-0.314,0.989,0.700,-4.410,-2.030
1743904148.789036,0.082,-0.319,0.988,0.770,-3.850,-1.540
1743904148.809036,0.080,-0.316,0.985,1.050,-3.150,-1.190
1743904148.829036,0.074,-0.311,0.984,1.050,-3.360,-1.050
1743904148.760431,0.072,-0.310,0.986,0.280,-3.500,-0.910
1743904148.780431,0.078,-0.312,0.983,-0.280,-3.150,-0.700
1743904148.800431,0.077,-0.318,0.986,0.070,-2.730,-0.490
1743904148.820431,0.074,-0.317,0.986,-0.280,-3.010,-0.630
1743904148.840431,0.071,-0.316,0.985,-0.350,-3.150,-0.700
1743904148.860431,0.073,-0.317,0.982,-0.420,-2.800,-0.700
1743904148.7905061,0.075,-0.320,0.981,0.350,-2.170,-0.490
1743904148.810506,0.077,-0.316,0.978,0.980,-1.470,-0.210
1743904148.830506,0.078,-0.313,0.981,0.210,-0.420,0.070
1743904148.850506,0.069,-0.313,0.983,-0.280,-0.630,0.000
1743904148.870506,0.062,-0.317,0.984,0.000,-1.260,-0.350
1743904148.890506,0.070,-0.321,0.987,1.470,-1.610,-0.420
1743904148.864593,0.073,-0.315,0.986,0.910,-1.610,-0.560
1743904148.884593,0.074,-0.314,0.983,0.210,-1.470,-0.560
1743904148.904593,0.070,-0.316,0.981,0.630,-1.260,-0.420
1743904148.924593,0.071,-0.315,0.982,1.120,-1.610,-0.560
1743904148.944593,0.070,-0.315,0.986,0.630,-1.680,-0.490
1743904148.964593,0.071,-0.314,0.986,0.490,-1.890,-0.630
1743904148.8946981,0.071,-0.317,0.987,0.560,-1.960,-0.630
1743904148.9146981,0.073,-0.315,0.986,0.560,-2.030,-0.630
1743904148.934698,0.072,-0.314,0.985,0.420,-2.030,-0.560
1743904148.954698,0.070,-0.314,0.984,0.350,-2.170,-0.560
1743904148.974698,0.070,-0.314,0.985,0.350,-2.310,-0.770
1743904148.994698,0.071,-0.314,0.985,0.350,-2.450,-0.700
1743904148.93963,0.070,-0.314,0.987,0.210,-3.010,-0.910
1743904148.95963,0.069,-0.316,0.986,0.140,-3.080,-0.910
1743904148.97963,0.075,-0.315,0.986,0.420,-3.080,-1.050
1743904148.99963,0.073,-0.315,0.982,0.350,-3.010,-0.910
1743904149.01963,0.073,-0.315,0.985,0.210,-2.940,-0.910
1743904149.03963,0.071,-0.317,0.987,0.070,-3.290,-1.120
1743904148.969876,0.072,-0.316,0.985,0.420,-3.150,-1.050
1743904148.989876,0.073,-0.316,0.986,0.490,-3.220,-1.050
1743904149.009876,0.074,-0.314,0.983,0.420,-3.010,-0.980
1743904149.029876,0.074,-0.314,0.983,0.140,-2.590,-0.840
1743904149.049876,0.073,-0.315,0.985,-17.850,-2.800,-0.910
1743904149.069876,0.070,-0.317,0.982,0.280,-2.730,-0.980
1743904149.0145702,0.074,-0.316,0.986,0.630,-2.590,-0.910
1743904149.0345702,0.072,-0.315,0.988,0.070,-2.660,-0.840
1743904149.0545702,0.070,-0.316,0.984,0.140,-2.730,-0.980
1743904149.0745702,0.072,-0.317,0.981,0.420,-2.660,-0.910
1743904149.0945702,0.070,-0.316,0.984,0.700,-2.520,-0.840
1743904149.1145701,0.070,-0.314,0.987,0.420,-2.450,-0.910
1743904149.059734,0.071,-0.315,0.985,0.420,-2.310,-0.700
1743904149.079734,0.070,-0.316,0.984,0.490,-2.310,-0.700
1743904149.099734,0.068,-0.316,0.983,0.490,-2.380,-0.700
1743904149.119734,0.072,-0.317,0.983,0.560,-2.380,-0.700
1743904149.139734,0.070,-0.313,0.984,0.490,-2.170,-0.700
1743904149.159734,0.071,-0.314,0.983,0.490,-2.170,-0.700
1743904149.104505,0.070,-0.316,0.983,0.420,-2.380,-0.630
1743904149.124505,0.073,-0.315,0.984,0.420,-2.310,-0.700
1743904149.144505,0.071,-0.316,0.984,0.280,-2.380,-0.630
1743904149.164505,0.073,-0.317,0.984,0.350,-2.240,-0.560
1743904149.184505,0.072,-0.317,0.985,0.350,-2.310,-0.560
1743904149.204505,0.072,-0.317,0.984,0.140,-2.170,-0.700
1743904149.164859,0.072,-0.314,0.986,0.140,-2.240,-0.630
1743904149.184859,0.071,-0.314,0.983,0.070,-2.310,-0.560
1743904149.204859,0.075,-0.316,0.984,0.210,-2.450,-0.560
1743904149.224859,0.074,-0.315,0.985,0.140,-2.450,-0.560
1743904149.244859,0.070,-0.315,0.985,0.140,-2.450,-0.560
1743904149.264859,0.074,-0.315,0.984,0.140,-2.380,-0.700
1743904149.179504,0.074,-0.318,0.984,0.140,-2.450,-0.630
1743904149.199504,0.072,-0.315,0.984,0.210,-2.590,-0.770
1743904149.2195039,0.072,-0.315,0.985,0.350,-2.520,-0.700
1743904149.2395039,0.075,-0.317,0.984,0.350,-2.520,-0.630
1743904149.2595038,0.074,-0.316,0.984,0.490,-2.520,-0.770
1743904149.2795038,0.074,-0.316,0.985,0.490,-2.520,-0.840
1743904149.2399201,0.074,-0.316,0.985,0.490,-2.520,-0.910
1743904149.2599201,0.073,-0.316,0.984,0.560,-2.380,-0.770
1743904149.27992,0.070,-0.316,0.986,0.560,-2.380,-0.840
1743904149.29992,0.072,-0.314,0.983,0.630,-2.380,-0.770
1743904149.31992,0.074,-0.315,0.985,0.700,-2.240,-0.770
1743904149.33992,0.074,-0.316,0.986,0.630,-2.240,-0.630
1743904149.269658,0.074,-0.313,0.985,0.490,-2.240,-0.560
1743904149.289658,0.072,-0.315,0.985,0.420,-2.240,-0.630
1743904149.309658,0.069,-0.316,0.984,0.280,-2.100,-0.560
1743904149.329658,0.073,-0.314,0.985,0.490,-2.170,-0.560
1743904149.349658,0.072,-0.315,0.987,0.420,-2.100,-0.630
1743904149.369658,0.072,-0.316,0.983,0.210,-2.240,-0.630
1743904149.314827,0.070,-0.316,0.985,0.280,-2.380,-0.630
1743904149.334827,0.072,-0.316,0.985,0.560,-2.310,-0.560
1743904149.354827,0.072,-0.315,0.985,0.140,-2.100,-0.630
1743904149.374827,0.071,-0.318,0.983,0.210,-2.310,-0.700
1743904149.394827,0.069,-0.317,0.983,0.490,-2.520,-0.700
1743904149.4148269,0.069,-0.317,0.985,0.490,-2.660,-0.770
1743904149.359899,0.073,-0.315,0.983,0.210,-2.380,-0.700
1743904149.379899,0.072,-0.315,0.983,0.210,-2.310,-0.700
1743904149.399899,0.072,-0.317,0.985,0.280,-2.520,-0.840
1743904149.419899,0.071,-0.317,0.984,0.420,-2.450,-0.840
1743904149.439899,0.069,-0.316,0.984,0.350,-2.380,-0.770
1743904149.459899,0.073,-0.315,0.986,0.280,-2.380,-0.770
1743904149.418862,0.071,-0.315,0.984,0.280,-2.310,-0.770
1743904149.438862,0.072,-0.315,0.985,0.350,-2.380,-0.700
1743904149.458862,0.073,-0.317,0.985,0.350,-2.170,-0.630
1743904149.478862,0.073,-0.315,0.986,0.560,-2.240,-0.700
1743904149.498862,0.073,-0.313,0.985,0.630,-2.100,-0.630
1743904149.518862,0.072,-0.315,0.986,0.280,-2.030,-0.490
1743904149.46529,0.071,-0.316,0.984,0.350,-2.170,-0.490
1743904149.48529,0.071,-0.316,0.985,0.420,-2.380,-0.560
1743904149.50529,0.071,-0.317,0.984,0.350,-2.380,-0.490
1743904149.52529,0.074,-0.314,0.986,0.210,-2.170,-0.490
1743904149.54529,0.071,-0.317,0.984,0.000,-2.240,-0.490
1743904149.56529,0.070,-0.316,0.986,0.630,-2.310,-0.560
1743904149.4946022,0.072,-0.317,0.986,0.490,-2.380,-0.630
1743904149.5146022,0.073,-0.313,0.986,0.210,-2.310,-0.630
1743904149.5346022,0.071,-0.318,0.986,0.210,-2.450,-0.700
1743904149.5546021,0.070,-0.316,0.982,0.350,-2.240,-0.630
1743904149.5746021,0.070,-0.316,0.985,0.350,-2.590,-0.770
1743904149.594602,0.069,-0.314,0.983,0.420,-2.450,-0.700
1743904149.5390482,0.070,-0.316,0.984,0.280,-2.380,-0.770
1743904149.5590482,0.069,-0.316,0.985,0.420,-2.310,-0.770
1743904149.5790482,0.072,-0.317,0.987,0.350,-2.520,-0.840
1743904149.5990481,0.072,-0.318,0.985,0.420,-2.660,-0.840
1743904149.619048,0.070,-0.317,0.984,0.490,-2.590,-0.910
1743904149.639048,0.070,-0.315,0.984,0.560,-2.450,-0.840
1743904149.569657,0.072,-0.315,0.985,0.700,-2.450,-0.840
1743904149.589657,0.073,-0.314,0.983,0.490,-2.450,-0.840
1743904149.609657,0.073,-0.317,0.985,0.490,-2.380,-0.770
1743904149.629657,0.072,-0.317,0.986,0.490,-2.520,-0.840
1743904149.649657,0.071,-0.314,0.984,0.350,-2.660,-0.910
1743904149.669657,0.073,-0.314,0.984,0.280,-2.660,-0.770
1743904149.614789,0.073,-0.313,0.984,0.420,-2.450,-0.700
1743904149.634789,0.072,-0.314,0.985,0.000,-2.450,-0.700
1743904149.654789,0.069,-0.316,0.984,0.280,-2.590,-0.770
1743904149.674789,0.074,-0.316,0.985,0.490,-2.310,-0.700
1743904149.694789,0.073,-0.314,0.985,0.280,-2.450,-0.700
1743904149.714789,0.071,-0.313,0.984,0.140,-2.660,-0.630
1743904149.64473,0.070,-0.315,0.984,0.280,-2.380,-0.630
1743904149.66473,0.073,-0.314,0.984,0.210,-2.520,-0.630
1743904149.68473,0.074,-0.314,0.987,0.070,-2.310,-0.490
1743904149.70473,0.071,-0.315,0.987,0.070,-2.170,-0.490
1743904149.72473,0.067,-0.317,0.986,-0.070,-2.380,-0.490
1743904149.74473,0.069,-0.315,0.983,0.420,-2.310,-0.490
1743904149.696064,0.072,-0.317,0.983,0.490,-1.960,-0.490
1743904149.716064,0.073,-0.315,0.984,0.420,-2.030,-0.420
1743904149.736064,0.068,-0.315,0.985,0.070,-1.960,-0.420
1743904149.756064,0.069,-0.318,0.984,0.490,-2.240,-0.560
1743904149.776064,0.070,-0.317,0.985,0.420,-2.380,-0.560
1743904149.796064,0.073,-0.317,0.985,0.280,-2.380,-0.560
1743904149.764614,0.070,-0.315,0.982,0.280,-2.240,-0.630
1743904149.784614,0.073,-0.316,0.984,0.420,-2.240,-0.700
1743904149.804614,0.070,-0.314,0.985,0.280,-2.380,-0.630
1743904149.824614,0.071,-0.315,0.986,0.280,-2.520,-0.770
1743904149.844614,0.074,-0.318,0.986,0.280,-2.590,-0.770
1743904149.864614,0.071,-0.316,0.984,0.280,-2.660,-0.840
1743904149.790847,0.073,-0.316,0.986,0.140,-2.590,-0.840
1743904149.810847,0.073,-0.315,0.985,0.350,-2.450,-0.700
1743904149.830847,0.071,-0.315,0.984,0.210,-2.520,-0.700
1743904149.850847,0.072,-0.316,0.986,0.140,-2.520,-0.770
1743904149.870847,0.072,-0.316,0.983,0.280,-2.590,-0.630
1743904149.890847,0.069,-0.320,0.986,0.420,-2.450,-0.700
1743904149.837583,0.069,-0.315,0.985,0.350,-2.520,-0.840
1743904149.857583,0.071,-0.316,0.982,0.420,-2.380,-0.630
1743904149.877583,0.070,-0.319,0.982,0.490,-2.310,-0.770
1743904149.897583,0.069,-0.316,0.986,0.490,-2.240,-0.840
1743904149.917583,0.071,-0.316,0.985,0.700,-2.310,-0.700
1743904149.937583,0.069,-0.316,0.985,0.560,-2.240,-0.700
1743904149.8698602,0.068,-0.313,0.984,0.490,-2.170,-0.630
1743904149.8898602,0.069,-0.315,0.984,0.490,-2.100,-0.630
1743904149.9098601,0.070,-0.314,0.983,0.420,-2.100,-0.700
1743904149.92986,0.069,-0.314,0.985,0.350,-2.170,-0.630
1743904149.94986,0.068,-0.316,0.985,0.210,-2.170,-0.700
1743904149.96986,0.070,-0.314,0.983,0.420,-2.380,-0.700
1743904149.9148612,0.072,-0.317,0.984,0.420,-2.450,-0.700
1743904149.9348612,0.069,-0.316,0.984,0.210,-2.310,-0.700
1743904149.9548612,0.070,-0.315,0.987,0.350,-2.450,-0.770
1743904149.9748611,0.070,-0.317,0.984,0.350,-2.380,-0.630
1743904149.9948611,0.070,-0.317,0.983,0.420,-2.520,-0.770
1743904150.014861,0.071,-0.316,0.985,0.280,-2.520,-0.700
1743904149.9595542,0.070,-0.316,0.985,0.140,-2.520,-0.630
1743904149.9795542,0.073,-0.316,0.984,0.420,-2.590,-0.770
1743904149.9995542,0.071,-0.317,0.986,0.210,-2.450,-0.700
1743904150.0195541,0.068,-0.314,0.986,-0.140,-2.660,-0.770
1743904150.039554,0.070,-0.317,0.983,0.280,-2.590,-0.700
1743904150.059554,0.073,-0.317,0.982,0.980,-2.520,-0.700
1743904150.0190372,0.072,-0.310,0.986,0.280,-2.310,-0.490
1743904150.0390372,0.071,-0.314,0.984,-0.210,-1.890,-0.490
1743904150.0590372,0.070,-0.319,0.980,0.770,-1.960,-0.560
1743904150.0790372,0.067,-0.316,0.984,0.770,-1.890,-0.630
1743904150.0990372,0.070,-0.315,0.985,0.560,-2.100,-0.630
1743904150.1190372,0.072,-0.316,0.986,0.420,-2.030,-0.630
1743904150.065053,0.072,-0.317,0.985,0.490,-1.890,-0.630
1743904150.085053,0.072,-0.318,0.984,0.840,-1.890,-0.630
1743904150.105053,0.070,-0.314,0.984,0.840,-2.170,-0.630
1743904150.125053,0.072,-0.315,0.987,0.770,-2.310,-0.630
1743904150.145053,0.073,-0.313,0.987,0.420,-1.680,-0.560
1743904150.165053,0.069,-0.315,0.984,0.420,-2.030,-0.490
1743904150.1543112,0.070,-0.316,0.983,0.420,-2.170,-0.630
1743904150.1743112,0.069,-0.314,0.985,0.350,-2.310,-0.560
1743904150.1943111,0.071,-0.315,0.985,0.210,-2.100,-0.350
1743904150.2143111,0.068,-0.317,0.985,0.070,-2.170,-0.560
1743904150.234311,0.068,-0.318,0.985,0.490,-2.520,-0.840
1743904150.254311,0.070,-0.316,0.986,0.280,-2.660,-0.770
1743904150.160176,0.069,-0.318,0.984,0.280,-2.590,-0.840
1743904150.180176,0.073,-0.318,0.986,0.490,-2.450,-0.770
1743904150.200176,0.068,-0.315,0.982,0.420,-2.590,-0.840
1743904150.220176,0.070,-0.315,0.987,0.280,-2.730,-1.050
1743904150.240176,0.069,-0.316,0.985,0.280,-3.010,-0.980
1743904150.260176,0.071,-0.314,0.983,0.420,-2.800,-0.980
1743904150.1678782,0.068,-0.314,0.984,0.350,-2.660,-0.910
1743904150.1878781,0.069,-0.314,0.986,0.070,-2.730,-0.840
1743904150.207878,0.071,-0.313,0.984,0.000,-2.730,-0.840
1743904150.227878,0.068,-0.317,0.984,0.140,-3.080,-0.910
1743904150.247878,0.072,-0.315,0.986,0.140,-2.940,-0.980
1743904150.267878,0.073,-0.316,0.986,-0.070,-3.010,-0.910
1743904150.214966,0.071,-0.316,0.984,-0.280,-3.150,-0.910
1743904150.234966,0.072,-0.316,0.984,0.210,-3.010,-0.840
1743904150.254966,0.071,-0.316,0.986,0.070,-3.010,-0.700
1743904150.274966,0.071,-0.316,0.986,-0.140,-3.010,-0.770
1743904150.294966,0.071,-0.317,0.982,0.000,-2.940,-0.630
1743904150.314966,0.071,-0.319,0.984,-0.070,-2.730,-0.770
1743904150.260662,0.070,-0.320,0.982,0.350,-2.590,-0.630
1743904150.280662,0.072,-0.314,0.983,0.350,-2.450,-0.560
1743904150.300662,0.073,-0.316,0.982,0.070,-2.240,-0.560
1743904150.320662,0.071,-0.318,0.983,0.350,-2.100,-0.560
1743904150.340662,0.070,-0.318,0.983,0.490,-2.310,-0.560
1743904150.360662,0.070,-0.315,0.984,0.630,-2.240,-0.630
1743904150.305206,0.074,-0.317,0.983,0.560,-1.610,-0.560
1743904150.325206,0.072,-0.315,0.982,0.630,-1.610,-0.420
1743904150.345206,0.069,-0.315,0.984,0.420,-1.610,-0.490
1743904150.365206,0.069,-0.317,0.986,0.420,-1.960,-0.560
1743904150.385206,0.067,-0.320,0.987,0.350,-2.170,-0.700
1743904150.405206,0.072,-0.315,0.989,0.420,-2.170,-0.630
1743904150.3489242,0.069,-0.316,0.984,0.350,-2.310,-0.630
1743904150.3689241,0.072,-0.316,0.984,0.560,-2.240,-0.630
1743904150.3889241,0.072,-0.313,0.986,0.420,-2.100,-0.630
1743904150.408924,0.071,-0.315,0.986,0.280,-2.380,-0.770
1743904150.428924,0.069,-0.317,0.986,0.280,-2.310,-0.770
1743904150.448924,0.071,-0.315,0.985,0.350,-2.590,-0.700
1743904150.3801823,0.071,-0.316,0.987,0.070,-2.660,-0.700
1743904150.4001822,0.071,-0.314,0.985,0.140,-2.660,-0.700
1743904150.4201822,0.071,-0.318,0.981,0.700,-2.380,-0.560
1743904150.4401822,0.072,-0.315,0.984,0.490,-2.310,-0.420
1743904150.4601822,0.070,-0.315,0.984,-0.210,-2.310,-0.630
1743904150.4801822,0.072,-0.319,0.981,0.420,-2.170,-0.560
1743904150.4562101,0.072,-0.317,0.982,0.910,-2.100,-0.700
1743904150.47621,0.068,-0.316,0.985,0.560,-2.170,-0.700
1743904150.49621,0.069,-0.314,0.983,0.350,-1.960,-0.630
1743904150.51621,0.070,-0.316,0.986,0.770,-1.680,-0.700
1743904150.53621,0.069,-0.315,0.986,0.770,-2.030,-0.770
1743904150.55621,0.070,-0.314,0.984,0.560,-2.240,-0.700
1743904150.470203,0.071,-0.316,0.985,0.630,-1.960,-0.630
1743904150.490203,0.070,-0.313,0.988,0.560,-1.890,-0.560
1743904150.510203,0.070,-0.314,0.983,0.280,-2.170,-0.560
1743904150.5302029,0.072,-0.314,0.986,0.210,-2.170,-0.560
1743904150.5502028,0.070,-0.315,0.982,-0.140,-2.590,-0.700
1743904150.5702028,0.068,-0.316,0.982,0.350,-2.660,-0.700
1743904150.516046,0.070,-0.315,0.984,0.280,-2.590,-0.770
1743904150.536046,0.070,-0.315,0.983,-0.070,-2.870,-0.910
1743904150.556046,0.070,-0.318,0.986,0.140,-3.010,-0.910
1743904150.576046,0.071,-0.315,0.986,0.420,-2.800,-0.910
1743904150.596046,0.068,-0.316,0.985,0.280,-2.940,-1.050
1743904150.616046,0.070,-0.316,0.983,0.490,-2.870,-0.980
1743904150.560832,0.071,-0.317,0.984,0.420,-2.730,-0.840
1743904150.580832,0.069,-0.316,0.983,0.420,-2.590,-0.770
1743904150.600832,0.068,-0.316,0.985,0.350,-2.590,-0.910
1743904150.620832,0.071,-0.313,0.985,0.210,-2.660,-0.770
1743904150.640832,0.073,-0.318,0.985,0.210,-2.450,-0.700
1743904150.660832,0.071,-0.315,0.985,0.350,-2.380,-0.630
1743904150.590694,0.071,-0.316,0.985,0.070,-2.380,-0.700
1743904150.610694,0.071,-0.317,0.983,0.210,-2.450,-0.700
1743904150.630694,0.073,-0.317,0.984,0.210,-2.310,-0.700
1743904150.650694,0.070,-0.316,0.985,0.420,-2.240,-0.560
1743904150.6706939,0.072,-0.318,0.984,0.560,-2.170,-0.560
1743904150.6906939,0.071,-0.315,0.984,0.420,-2.170,-0.630
1743904150.635898,0.069,-0.318,0.985,0.490,-1.960,-0.630
1743904150.655898,0.071,-0.317,0.985,0.770,-2.030,-0.700
1743904150.675898,0.070,-0.315,0.984,0.630,-2.100,-0.560
1743904150.695898,0.073,-0.315,0.985,0.630,-1.960,-0.560
1743904150.715898,0.071,-0.315,0.985,0.560,-1.960,-0.630
1743904150.735898,0.070,-0.316,0.983,0.840,-1.960,-0.560
1743904150.6819773,0.072,-0.316,0.984,0.840,-1.680,-0.560
1743904150.7019773,0.069,-0.315,0.986,0.630,-1.750,-0.560
1743904150.7219772,0.072,-0.317,0.985,0.560,-1.750,-0.420
1743904150.7419772,0.069,-0.318,0.986,0.700,-1.750,-0.490
1743904150.7619772,0.069,-0.316,0.984,0.910,-1.890,-0.490
1743904150.7819772,0.067,-0.313,0.986,0.560,-2.100,-0.490
1743904150.755723,0.071,-0.313,0.987,0.280,-2.170,-0.490
1743904150.775723,0.071,-0.317,0.983,0.070,-2.030,-0.490
1743904150.795723,0.072,-0.314,0.989,0.280,-2.170,-0.420
1743904150.815723,0.069,-0.314,0.985,-0.420,-2.590,-0.490
1743904150.835723,0.069,-0.315,0.984,-0.630,-2.450,-0.210
1743904150.855723,0.067,-0.314,0.983,-0.700,-2.660,-0.700
1743904150.758151,0.060,-0.320,0.989,-1.540,-3.570,-0.910
1743904150.778151,0.061,-0.321,0.985,-1.120,-4.130,-1.260
1743904150.798151,0.066,-0.322,0.978,0.280,-4.130,-1.540
1743904150.818151,0.072,-0.325,0.980,0.980,-3.640,-1.400
1743904150.838151,0.072,-0.315,0.982,1.050,-3.500,-1.260
1743904150.858151,0.071,-0.312,0.986,-0.630,-3.290,-1.400
1743904150.8145342,0.073,-0.323,0.979,0.210,-3.290,-1.330
1743904150.8345342,0.068,-0.321,0.981,1.400,-3.640,-1.680
1743904150.8545341,0.073,-0.316,0.987,1.470,-3.780,-1.470
1743904150.8745341,0.076,-0.310,0.987,0.490,-3.500,-1.470
1743904150.894534,0.077,-0.315,0.984,0.070,-2.940,-0.980
1743904150.914534,0.077,-0.315,0.984,0.560,-2.730,-0.840
1743904150.8595672,0.071,-0.314,0.985,0.210,-3.010,-0.840
1743904150.8795671,0.075,-0.316,0.989,-0.070,-2.870,-0.770
1743904150.8995671,0.075,-0.314,0.987,0.000,-2.590,-0.700
1743904150.919567,0.070,-0.315,0.984,0.070,-2.380,-0.490
1743904150.939567,0.069,-0.316,0.978,0.840,-2.100,-0.420
1743904150.959567,0.077,-0.317,0.976,0.980,-1.050,0.000
1743904150.9045992,0.073,-0.312,0.986,0.560,-0.980,0.070
1743904150.9245992,0.067,-0.315,0.988,-0.350,-1.190,-0.140
1743904150.9445992,0.067,-0.322,0.987,0.000,-1.680,-0.280
1743904150.9645991,0.065,-0.322,0.981,0.840,-2.240,-0.350
1743904150.984599,0.071,-0.319,0.981,0.910,-1.960,-0.420
1743904151.004599,0.073,-0.312,0.981,0.210,-1.680,-0.280
1743904150.9347162,0.071,-0.319,0.983,0.070,-1.400,-0.350
1743904150.9547162,0.069,-0.317,0.983,0.560,-1.680,-0.350
1743904150.9747162,0.069,-0.317,0.986,0.350,-2.310,-0.840
1743904150.9947162,0.068,-0.320,0.988,0.350,-2.730,-0.910
1743904151.0147161,0.070,-0.317,0.987,0.560,-2.450,-0.910
1743904151.0347161,0.072,-0.313,0.986,0.560,-2.660,-0.910
1743904151.010106,0.067,-0.316,0.985,0.210,-2.940,-0.910
1743904151.030106,0.071,-0.316,0.983,0.420,-3.220,-1.120
1743904151.050106,0.071,-0.318,0.984,0.490,-2.940,-0.980
1743904151.070106,0.070,-0.315,0.984,0.630,-2.870,-1.050
1743904151.090106,0.071,-0.315,0.987,0.280,-2.940,-0.980
1743904151.110106,0.073,-0.316,0.982,0.210,-2.870,-0.840
1743904151.012928,0.072,-0.314,0.985,0.490,-2.520,-0.770
1743904151.032928,0.074,-0.317,0.985,0.490,-2.380,-0.700
1743904151.052928,0.070,-0.315,0.985,0.070,-2.310,-0.630
1743904151.072928,0.072,-0.319,0.984,0.210,-2.310,-0.560
1743904151.092928,0.072,-0.317,0.982,0.420,-2.030,-0.560
1743904151.112928,0.070,-0.317,0.984,0.350,-2.240,-0.630
1743904151.0696492,0.072,-0.314,0.984,0.280,-1.890,-0.560
1743904151.0896492,0.072,-0.318,0.985,0.420,-1.890,-0.560
1743904151.1096492,0.069,-0.318,0.985,0.490,-2.030,-0.630
1743904151.1296492,0.070,-0.316,0.987,0.490,-2.170,-0.700
1743904151.1496491,0.071,-0.316,0.985,0.350,-2.100,-0.700
1743904151.1696491,0.070,-0.317,0.986,0.420,-2.310,-0.700
1743904151.0995991,0.069,-0.315,0.984,0.420,-2.380,-0.770
1743904151.119599,0.068,-0.315,0.986,0.490,-2.520,-0.770
1743904151.139599,0.066,-0.315,0.984,0.350,-2.520,-0.840
1743904151.159599,0.071,-0.318,0.986,0.210,-2.660,-0.770
1743904151.179599,0.071,-0.317,0.986,0.350,-2.660,-0.840
1743904151.199599,0.069,-0.317,0.985,0.280,-2.730,-0.840
1743904151.1449032,0.069,-0.316,0.986,0.350,-2.730,-0.910
1743904151.1649032,0.071,-0.315,0.984,0.350,-2.660,-0.770
1743904151.1849031,0.071,-0.317,0.983,0.420,-2.590,-0.840
1743904151.2049031,0.069,-0.314,0.983,0.490,-2.590,-0.770
1743904151.224903,0.069,-0.318,0.985,0.420,-2.590,-0.910
1743904151.244903,0.072,-0.317,0.984,0.350,-2.380,-0.700
1743904151.1901102,0.074,-0.316,0.984,0.560,-2.170,-0.630
1743904151.2101102,0.070,-0.314,0.984,0.210,-2.380,-0.700
1743904151.2301102,0.073,-0.316,0.985,0.210,-2.240,-0.700
1743904151.2501101,0.071,-0.317,0.985,0.420,-2.170,-0.770
1743904151.2701101,0.073,-0.314,0.985,0.210,-2.170,-0.490
1743904151.29011,0.070,-0.315,0.985,0.140,-2.240,-0.630
1743904151.23462,0.069,-0.318,0.984,0.420,-2.240,-0.840
1743904151.25462,0.070,-0.316,0.985,0.560,-2.240,-0.700
1743904151.27462,0.071,-0.316,0.986,0.420,-2.380,-0.560
1743904151.29462,0.072,-0.315,0.985,0.350,-2.310,-0.770
1743904151.31462,0.071,-0.314,0.985,0.420,-2.380,-0.770
1743904151.33462,0.071,-0.315,0.984,0.350,-2.450,-0.700
1743904151.2814612,0.070,-0.316,0.984,0.350,-2.450,-0.770
1743904151.3014612,0.070,-0.319,0.984,0.210,-2.380,-0.770
1743904151.3214612,0.072,-0.316,0.984,0.350,-2.590,-0.770
1743904151.3414612,0.072,-0.316,0.983,0.210,-2.590,-0.840
1743904151.3614612,0.071,-0.318,0.984,0.280,-2.450,-0.770
1743904151.3814611,0.072,-0.319,0.984,0.490,-2.380,-0.840
1743904151.31028,0.071,-0.316,0.983,0.700,-2.450,-0.770
1743904151.33028,0.071,-0.316,0.985,0.490,-2.240,-0.770
1743904151.35028,0.071,-0.315,0.984,0.560,-2.240,-0.770
1743904151.37028,0.073,-0.316,0.985,0.700,-2.170,-0.630
1743904151.39028,0.069,-0.317,0.984,0.560,-2.240,-0.770
1743904151.41028,0.071,-0.316,0.982,1.050,-2.100,-0.700
1743904151.355559,0.071,-0.312,0.985,1.050,-1.680,-0.420
1743904151.375559,0.072,-0.311,0.984,0.490,-1.400,-0.350
1743904151.395559,0.071,-0.315,0.984,0.560,-1.470,-0.420
1743904151.415559,0.069,-0.318,0.984,0.840,-1.610,-0.560
1743904151.435559,0.073,-0.315,0.985,1.330,-1.680,-0.490
1743904151.455559,0.074,-0.313,0.993,0.630,-1.470,-0.420
1743904151.399342,0.071,-0.312,0.990,0.140,-1.750,-0.420
1743904151.419342,0.069,-0.317,0.983,0.350,-1.890,-0.490
1743904151.439342,0.068,-0.318,0.982,0.910,-1.610,-0.490
1743904151.459342,0.068,-0.314,0.988,0.420,-1.820,-0.350
1743904151.479342,0.068,-0.315,0.984,-0.140,-2.240,-0.490
1743904151.499342,0.069,-0.315,0.984,0.210,-2.240,-0.630
1743904151.445476,0.065,-0.315,0.988,-0.140,-2.660,-0.840
1743904151.465476,0.067,-0.312,0.983,-0.560,-2.870,-0.700
1743904151.485476,0.067,-0.314,0.988,-0.840,-3.010,-0.770
1743904151.505476,0.061,-0.319,0.986,-0.770,-4.340,-1.330
1743904151.525476,0.070,-0.323,0.985,0.910,-4.060,-1.400
1743904151.545476,0.073,-0.315,0.984,0.840,-3.780,-1.470
1743904151.474636,0.070,-0.313,0.982,-0.350,-3.710,-1.400
1743904151.494636,0.070,-0.316,0.982,0.070,-3.780,-1.470
1743904151.514636,0.070,-0.318,0.988,0.350,-3.850,-1.540
1743904151.534636,0.070,-0.319,0.986,0.280,-3.920,-1.610
1743904151.554636,0.069,-0.317,0.986,0.420,-3.710,-1.470
1743904151.574636,0.074,-0.316,0.982,0.630,-3.710,-1.400
1743904151.5206661,0.075,-0.314,0.984,0.420,-3.500,-1.330
1743904151.540666,0.075,-0.313,0.985,0.070,-3.290,-1.050
1743904151.560666,0.074,-0.317,0.984,0.700,-2.940,-0.840
1743904151.580666,0.074,-0.315,0.986,0.490,-2.660,-0.910
1743904151.600666,0.073,-0.314,0.985,0.000,-3.010,-0.980
1743904151.620666,0.077,-0.318,0.984,0.350,-2.450,-0.700
1743904151.564999,0.075,-0.317,0.982,0.490,-2.170,-0.560
1743904151.584999,0.076,-0.316,0.979,1.050,-0.980,-0.210
1743904151.604999,0.077,-0.315,0.984,1.190,-0.840,0.070
1743904151.624999,0.071,-0.312,0.988,0.070,-0.980,0.000
1743904151.644999,0.067,-0.320,0.985,0.490,-1.610,-0.280
1743904151.664999,0.068,-0.320,0.985,0.980,-1.680,-0.490
1743904151.610649,0.067,-0.316,0.987,0.490,-1.820,-0.350
1743904151.630649,0.070,-0.315,0.982,0.490,-1.610,-0.350
1743904151.650649,0.073,-0.315,0.983,0.420,-1.260,-0.350
1743904151.670649,0.070,-0.317,0.984,0.770,-1.610,-0.350
1743904151.690649,0.068,-0.316,0.985,0.560,-2.170,-0.700
1743904151.710649,0.068,-0.316,0.991,0.210,-2.450,-0.840
1743904151.6548662,0.070,-0.316,0.988,0.210,-2.520,-0.910
1743904151.6748662,0.070,-0.313,0.984,0.560,-2.800,-0.840
1743904151.6948662,0.071,-0.313,0.987,0.350,-2.870,-0.910
1743904151.7148662,0.068,-0.313,0.985,0.000,-3.220,-0.980
1743904151.7348661,0.070,-0.318,0.985,0.280,-3.290,-1.050
1743904151.7548661,0.073,-0.317,0.985,0.280,-3.150,-1.120
1743904151.700715,0.071,-0.313,0.986,0.420,-3.080,-0.980
1743904151.720715,0.074,-0.315,0.984,-0.070,-3.010,-0.910
1743904151.740715,0.073,-0.313,0.984,-0.140,-3.080,-0.910
1743904151.760715,0.074,-0.318,0.983,0.210,-3.010,-0.910
1743904151.780715,0.075,-0.316,0.984,0.280,-3.010,-0.980
1743904151.800715,0.074,-0.316,0.986,0.350,-2.940,-0.840
1743904151.730132,0.074,-0.315,0.984,0.000,-2.730,-0.840
1743904151.750132,0.075,-0.317,0.979,0.140,-2.660,-0.910
1743904151.770132,0.071,-0.318,0.984,0.560,-2.870,-0.910
1743904151.790132,0.073,-0.315,0.982,0.630,-2.450,-0.840
1743904151.810132,0.075,-0.316,0.986,0.560,-2.240,-0.770
1743904151.830132,0.073,-0.316,0.984,0.210,-2.240,-0.630
1743904151.7746792,0.070,-0.318,0.984,0.630,-2.380,-0.770
1743904151.7946792,0.070,-0.318,0.985,0.770,-2.170,-0.840
1743904151.8146791,0.073,-0.316,0.984,0.630,-2.100,-0.770
1743904151.8346791,0.072,-0.317,0.982,0.560,-2.030,-0.700
1743904151.854679,0.073,-0.315,0.983,0.770,-1.820,-0.770
1743904151.874679,0.072,-0.314,0.986,0.560,-1.960,-0.560
1743904151.8197203,0.070,-0.314,0.987,0.420,-2.030,-0.630
1743904151.8397202,0.069,-0.315,0.987,0.280,-2.240,-0.700
1743904151.8597202,0.070,-0.315,0.985,0.350,-2.310,-0.700
1743904151.8797202,0.068,-0.316,0.983,0.560,-2.450,-0.700
1743904151.8997202,0.069,-0.314,0.986,0.280,-2.450,-0.630
1743904151.9197202,0.071,-0.314,0.985,0.070,-2.520,-0.700
1743904151.8651521,0.070,-0.317,0.985,0.210,-2.590,-0.630
1743904151.885152,0.071,-0.316,0.985,0.140,-2.660,-0.770
1743904151.905152,0.070,-0.315,0.986,0.070,-2.660,-0.700
1743904151.925152,0.072,-0.315,0.984,0.070,-2.660,-0.770
1743904151.945152,0.070,-0.316,0.983,0.350,-2.730,-0.840
1743904151.965152,0.072,-0.318,0.984,0.420,-2.660,-0.770
1743904151.9106603,0.072,-0.316,0.985,0.140,-2.730,-0.770
1743904151.9306602,0.072,-0.319,0.985,0.350,-2.590,-0.910
1743904151.9506602,0.071,-0.316,0.983,0.420,-2.590,-0.910
1743904151.9706602,0.072,-0.314,0.984,0.420,-2.590,-0.910
1743904151.9906602,0.073,-0.314,0.985,0.350,-2.450,-0.770
1743904152.0106602,0.071,-0.319,0.983,0.420,-2.240,-0.700
1743904151.9699602,0.070,-0.315,0.984,0.490,-2.380,-0.840
1743904151.9899602,0.071,-0.316,0.984,0.420,-2.450,-0.770
1743904152.0099602,0.073,-0.315,0.985,0.490,-2.170,-0.700
1743904152.0299602,0.073,-0.316,0.985,0.630,-2.380,-0.770
1743904152.0499601,0.073,-0.315,0.986,0.700,-2.240,-0.770
1743904152.06996,0.072,-0.315,0.985,0.350,-2.100,-0.770
1743904152.000597,0.072,-0.314,0.985,0.490,-2.240,-0.700
1743904152.020597,0.069,-0.315,0.986,0.490,-2.450,-0.630
1743904152.040597,0.071,-0.316,0.984,0.420,-2.590,-0.700
1743904152.060597,0.073,-0.315,0.983,0.210,-2.520,-0.560
1743904152.080597,0.072,-0.317,0.985,0.280,-2.380,-0.630
1743904152.100597,0.071,-0.316,0.984,0.280,-2.380,-0.770
1743904152.0298162,0.070,-0.315,0.986,0.210,-2.590,-0.700
1743904152.0498161,0.071,-0.317,0.985,0.350,-2.520,-0.700
1743904152.069816,0.071,-0.318,0.984,0.350,-2.590,-0.700
1743904152.089816,0.072,-0.317,0.985,0.350,-2.590,-0.770
1743904152.109816,0.071,-0.315,0.984,0.350,-2.450,-0.840
1743904152.129816,0.071,-0.317,0.982,0.420,-2.660,-0.770
1743904152.074606,0.072,-0.316,0.985,0.350,-2.520,-0.770
1743904152.094606,0.072,-0.319,0.984,0.490,-2.380,-0.770
1743904152.114606,0.071,-0.317,0.985,0.490,-2.380,-0.840
1743904152.134606,0.072,-0.316,0.984,0.490,-2.380,-0.770
1743904152.1546059,0.070,-0.313,0.983,0.490,-2.380,-0.700
1743904152.1746058,0.072,-0.314,0.986,0.350,-2.380,-0.630
1743904152.1198583,0.073,-0.316,0.986,0.280,-2.240,-0.700
1743904152.1398582,0.073,-0.314,0.985,0.210,-2.450,-0.630
1743904152.1598582,0.072,-0.317,0.982,0.350,-2.380,-0.630
1743904152.1798582,0.073,-0.318,0.982,0.420,-2.240,-0.630
1743904152.1998582,0.069,-0.313,0.984,0.280,-2.310,-0.630
1743904152.2198582,0.073,-0.316,0.987,0.140,-2.380,-0.700
1743904152.1648612,0.071,-0.319,0.984,0.490,-2.310,-0.700
1743904152.1848612,0.071,-0.314,0.983,0.490,-2.170,-0.630
1743904152.2048612,0.072,-0.315,0.981,0.350,-2.240,-0.700
1743904152.2248611,0.073,-0.316,0.983,0.560,-2.310,-0.630
1743904152.2448611,0.069,-0.317,0.986,0.490,-2.030,-0.560
1743904152.264861,0.069,-0.317,0.986,0.420,-2.380,-0.770
1743904152.300478,0.070,-0.315,0.985,0.490,-2.450,-0.700
1743904152.320478,0.071,-0.315,0.984,0.490,-2.310,-0.700
1743904152.340478,0.070,-0.315,0.983,0.560,-2.310,-0.700
1743904152.360478,0.069,-0.315,0.986,0.350,-2.380,-0.770
1743904152.380478,0.068,-0.317,0.984,0.420,-2.310,-0.700
1743904152.400478,0.075,-0.317,0.986,0.350,-2.240,-0.630
1743904152.3025901,0.072,-0.315,0.986,0.350,-2.450,-0.630
1743904152.32259,0.070,-0.314,0.985,0.210,-2.450,-0.700
1743904152.34259,0.072,-0.315,0.983,0.210,-2.590,-0.700
1743904152.36259,0.070,-0.316,0.986,0.000,-2.520,-0.560
1743904152.38259,0.070,-0.316,0.985,-0.140,-2.730,-0.630
1743904152.40259,0.071,-0.316,0.985,-0.140,-2.870,-0.560
1743904152.3122172,0.070,-0.317,0.984,0.070,-2.800,-0.700
1743904152.3322172,0.070,-0.315,0.984,-0.070,-2.800,-0.560
1743904152.3522172,0.071,-0.315,0.983,-0.210,-2.730,-0.700
1743904152.3722172,0.070,-0.316,0.982,-0.140,-2.730,-0.630
1743904152.3922172,0.072,-0.319,0.986,0.070,-2.660,-0.560
1743904152.4122171,0.070,-0.316,0.986,0.210,-2.800,-0.700
1743904152.329658,0.074,-0.316,0.986,0.000,-2.800,-0.700
1743904152.349658,0.074,-0.316,0.984,0.000,-2.730,-0.700
1743904152.369658,0.073,-0.316,0.983,0.140,-2.520,-0.560
1743904152.389658,0.071,-0.318,0.982,0.140,-2.520,-0.770
1743904152.409658,0.073,-0.315,0.982,0.140,-2.520,-0.700
1743904152.429658,0.072,-0.317,0.984,0.140,-2.380,-0.630
1743904152.3758621,0.071,-0.319,0.986,0.210,-2.520,-0.560
1743904152.395862,0.072,-0.319,0.985,0.420,-2.590,-0.840
1743904152.415862,0.073,-0.319,0.982,0.420,-2.660,-0.840
1743904152.435862,0.071,-0.319,0.982,0.280,-2.590,-0.770
1743904152.455862,0.075,-0.318,0.985,0.420,-2.520,-0.770
1743904152.475862,0.074,-0.315,0.982,0.560,-2.310,-0.840
1743904152.420023,0.070,-0.317,0.984,0.700,-2.380,-0.770
1743904152.440023,0.073,-0.317,0.983,0.560,-2.240,-0.840
1743904152.460023,0.072,-0.319,0.982,0.700,-2.170,-0.840
1743904152.480023,0.073,-0.318,0.983,0.840,-2.170,-0.840
1743904152.500023,0.070,-0.314,0.986,0.840,-2.100,-0.770
1743904152.5200229,0.074,-0.315,0.984,0.840,-1.820,-0.700
1743904152.46553,0.071,-0.313,0.985,0.700,-1.960,-0.700
1743904152.48553,0.067,-0.314,0.984,0.630,-1.960,-0.630
1743904152.5055299,0.071,-0.317,0.987,0.490,-2.030,-0.700
1743904152.5255299,0.072,-0.313,0.988,0.210,-2.240,-0.560
1743904152.5455298,0.070,-0.313,0.987,0.000,-2.240,-0.490
1743904152.5655298,0.073,-0.319,0.982,0.000,-2.310,-0.560
1743904152.49478,0.070,-0.317,0.984,0.280,-2.310,-0.560
1743904152.51478,0.070,-0.316,0.983,0.070,-2.450,-0.630
1743904152.53478,0.072,-0.317,0.984,0.350,-2.590,-0.630
1743904152.55478,0.072,-0.319,0.984,0.280,-2.590,-0.700
1743904152.57478,0.071,-0.316,0.986,0.280,-2.450,-0.770
1743904152.59478,0.070,-0.317,0.984,0.210,-2.590,-0.840
1743904152.570458,0.073,-0.318,0.985,0.420,-2.590,-0.840
1743904152.590458,0.072,-0.317,0.986,0.280,-2.730,-0.840
1743904152.610458,0.071,-0.314,0.983,0.280,-2.590,-0.700
1743904152.6304579,0.071,-0.317,0.983,0.420,-2.450,-0.700
1743904152.6504579,0.070,-0.316,0.985,0.350,-2.590,-0.910
1743904152.6704578,0.072,-0.317,0.982,0.350,-2.590,-0.840
1743904152.5849411,0.073,-0.317,0.985,0.420,-2.450,-0.700
1743904152.6049411,0.070,-0.315,0.985,0.350,-2.310,-0.630
1743904152.624941,0.070,-0.315,0.983,0.350,-2.380,-0.840
1743904152.644941,0.072,-0.315,0.984,0.420,-2.310,-0.700
1743904152.664941,0.070,-0.317,0.988,0.420,-2.100,-0.630
1743904152.684941,0.073,-0.313,0.985,0.350,-2.170,-0.630
1743904152.6452112,0.073,-0.315,0.985,0.490,-2.380,-0.560
1743904152.6652112,0.072,-0.316,0.984,0.420,-2.310,-0.630
1743904152.6852112,0.073,-0.316,0.986,0.350,-2.240,-0.560
1743904152.7052112,0.072,-0.314,0.987,0.210,-2.310,-0.700
1743904152.7252111,0.073,-0.316,0.984,0.350,-2.380,-0.700
1743904152.7452111,0.071,-0.316,0.985,0.280,-2.590,-0.630
1743904152.690041,0.072,-0.316,0.984,0.280,-2.450,-0.630
1743904152.710041,0.072,-0.317,0.983,0.210,-2.240,-0.700
1743904152.730041,0.071,-0.316,0.982,0.350,-2.450,-0.630
1743904152.750041,0.071,-0.318,0.985,0.420,-2.380,-0.700
1743904152.770041,0.072,-0.319,0.984,0.350,-2.380,-0.560
1743904152.790041,0.071,-0.317,0.982,0.350,-2.240,-0.700
1743904152.719824,0.070,-0.318,0.983,0.420,-2.240,-0.770
1743904152.739824,0.072,-0.318,0.984,0.420,-2.240,-0.700
1743904152.759824,0.071,-0.318,0.985,0.280,-2.170,-0.630
1743904152.779824,0.071,-0.318,0.985,0.490,-2.310,-0.840
1743904152.799824,0.069,-0.318,0.985,0.490,-2.590,-0.770
1743904152.819824,0.072,-0.315,0.986,0.420,-2.520,-0.840
1743904152.7648273,0.071,-0.317,0.984,0.280,-2.310,-0.700
1743904152.7848272,0.069,-0.317,0.984,0.420,-2.310,-0.770
1743904152.8048272,0.071,-0.317,0.986,0.420,-2.450,-0.840
1743904152.8248272,0.072,-0.317,0.983,0.350,-2.380,-0.700
1743904152.8448272,0.071,-0.316,0.985,0.350,-2.310,-0.630
1743904152.8648272,0.071,-0.318,0.983,0.350,-2.310,-0.770
1743904152.810615,0.070,-0.317,0.984,0.420,-2.240,-0.630
1743904152.830615,0.072,-0.316,0.985,0.350,-2.380,-0.700
1743904152.850615,0.071,-0.315,0.987,0.350,-2.310,-0.700
1743904152.870615,0.070,-0.316,0.985,0.350,-2.310,-0.700
1743904152.890615,0.071,-0.316,0.982,0.350,-2.310,-0.700
1743904152.910615,0.072,-0.318,0.986,0.420,-2.380,-0.630
1743904152.8697453,0.072,-0.317,0.983,0.350,-2.240,-0.770
1743904152.8897452,0.072,-0.316,0.984,0.490,-2.380,-0.700
1743904152.9097452,0.070,-0.316,0.984,0.420,-2.240,-0.700
1743904152.9297452,0.071,-0.317,0.985,0.420,-2.240,-0.630
1743904152.9497452,0.072,-0.317,0.986,0.420,-2.380,-0.630
1743904152.9697452,0.072,-0.316,0.984,0.560,-2.170,-0.770
1743904152.899954,0.070,-0.315,0.983,0.490,-2.310,-0.700
1743904152.919954,0.071,-0.316,0.986,0.420,-2.380,-0.700
1743904152.939954,0.071,-0.318,0.985,0.420,-2.240,-0.700
1743904152.959954,0.070,-0.315,0.984,0.350,-2.380,-0.700
1743904152.979954,0.070,-0.317,0.983,0.280,-2.450,-0.700
1743904152.999954,0.072,-0.315,0.986,0.420,-2.450,-0.630
1743904152.929948,0.068,-0.316,0.984,0.280,-2.450,-0.700
1743904152.949948,0.072,-0.317,0.985,0.280,-2.310,-0.630
1743904152.969948,0.070,-0.315,0.983,0.210,-2.520,-0.700
1743904152.989948,0.068,-0.315,0.984,0.280,-2.520,-0.700
1743904153.009948,0.071,-0.316,0.986,0.210,-2.520,-0.630
1743904153.029948,0.072,-0.316,0.983,0.140,-2.310,-0.770
1743904152.989698,0.071,-0.316,0.987,0.280,-2.380,-0.630
1743904153.009698,0.070,-0.317,0.985,0.280,-2.450,-0.700
1743904153.029698,0.072,-0.316,0.984,0.210,-2.450,-0.770
1743904153.0496979,0.071,-0.317,0.982,0.350,-2.450,-0.700
1743904153.0696979,0.072,-0.318,0.983,0.420,-2.380,-0.840
1743904153.0896978,0.071,-0.317,0.985,0.490,-2.380,-0.770
1743904153.034728,0.069,-0.317,0.985,0.490,-2.380,-0.700
1743904153.054728,0.069,-0.318,0.985,0.630,-2.380,-0.700
1743904153.074728,0.070,-0.315,0.984,0.630,-2.310,-0.840
1743904153.094728,0.070,-0.314,0.985,0.560,-2.380,-0.630
1743904153.114728,0.067,-0.316,0.985,0.420,-2.170,-0.770
1743904153.134728,0.071,-0.318,0.983,0.420,-2.450,-0.770
1743904153.065715,0.070,-0.316,0.985,0.490,-2.450,-0.770
1743904153.085715,0.070,-0.315,0.984,0.560,-2.380,-0.700
1743904153.105715,0.073,-0.316,0.987,0.350,-2.450,-0.630
1743904153.125715,0.071,-0.318,0.985,0.420,-2.170,-0.630
1743904153.145715,0.071,-0.314,0.985,0.560,-2.520,-0.700
1743904153.165715,0.069,-0.317,0.985,0.350,-2.450,-0.630
1743904153.170263,0.071,-0.316,0.985,0.210,-2.380,-0.560
1743904153.190263,0.072,-0.317,0.985,0.350,-2.240,-0.560
1743904153.210263,0.070,-0.317,0.984,0.350,-2.310,-0.630
1743904153.230263,0.071,-0.317,0.984,0.210,-2.450,-0.630
1743904153.250263,0.071,-0.316,0.985,0.280,-2.310,-0.630
1743904153.270263,0.071,-0.317,0.986,0.210,-2.450,-0.630
1743904153.17276,0.070,-0.315,0.983,0.280,-2.380,-0.700
1743904153.19276,0.071,-0.317,0.985,0.280,-2.450,-0.630
1743904153.21276,0.070,-0.316,0.984,0.210,-2.450,-0.630
1743904153.23276,0.069,-0.316,0.984,0.350,-2.450,-0.770
1743904153.25276,0.071,-0.315,0.986,0.280,-2.450,-0.770
1743904153.27276,0.072,-0.315,0.987,0.280,-2.590,-0.840
1743904153.199943,0.070,-0.318,0.985,0.350,-2.590,-0.700
1743904153.219943,0.070,-0.315,0.984,0.280,-2.450,-0.770
1743904153.239943,0.074,-0.316,0.984,0.350,-2.590,-0.770
1743904153.259943,0.071,-0.316,0.984,0.420,-2.520,-0.770
1743904153.279943,0.072,-0.318,0.984,0.420,-2.450,-0.770
1743904153.299943,0.071,-0.316,0.985,0.210,-2.240,-0.700
1743904153.244971,0.070,-0.317,0.984,0.420,-2.380,-0.700
1743904153.264971,0.073,-0.318,0.984,0.490,-2.310,-0.700
1743904153.284971,0.071,-0.316,0.984,0.490,-2.310,-0.700
1743904153.304971,0.069,-0.317,0.984,0.420,-2.380,-0.700
1743904153.324971,0.070,-0.317,0.985,0.560,-2.450,-0.770
1743904153.344971,0.072,-0.315,0.985,0.490,-2.380,-0.700
1743904153.289897,0.069,-0.314,0.986,0.420,-2.310,-0.770
1743904153.309897,0.071,-0.315,0.985,0.350,-2.310,-0.840
1743904153.329897,0.068,-0.317,0.985,0.280,-2.310,-0.630
1743904153.349897,0.067,-0.318,0.984,0.420,-2.450,-0.700
1743904153.369897,0.073,-0.315,0.984,0.280,-2.310,-0.700
1743904153.3898969,0.071,-0.317,0.986,0.280,-2.170,-0.630
1743904153.319819,0.071,-0.315,0.985,0.210,-2.380,-0.700
1743904153.339819,0.072,-0.316,0.983,0.350,-2.660,-0.700
1743904153.359819,0.070,-0.317,0.985,0.420,-2.380,-0.770
1743904153.379819,0.070,-0.315,0.984,0.210,-2.590,-0.700
1743904153.399819,0.068,-0.317,0.986,0.210,-2.520,-0.840
1743904153.4198189,0.073,-0.316,0.985,0.210,-2.730,-0.770
1743904153.3648043,0.071,-0.319,0.985,0.420,-2.590,-0.770
1743904153.3848042,0.073,-0.316,0.985,0.350,-2.450,-0.770
1743904153.4048042,0.071,-0.317,0.984,0.350,-2.520,-0.770
1743904153.4248042,0.072,-0.317,0.984,0.350,-2.520,-0.770
1743904153.4448042,0.072,-0.316,0.985,0.490,-2.450,-0.630
1743904153.4648042,0.071,-0.316,0.985,0.350,-2.240,-0.770
1743904153.410191,0.069,-0.316,0.986,0.280,-2.450,-0.770
1743904153.430191,0.071,-0.317,0.983,0.420,-2.520,-0.770
1743904153.450191,0.071,-0.316,0.982,0.420,-2.590,-0.700
1743904153.470191,0.072,-0.318,0.984,0.350,-2.380,-0.700
1743904153.490191,0.070,-0.316,0.983,0.490,-2.380,-0.700
1743904153.510191,0.069,-0.317,0.984,0.630,-2.520,-0.770
1743904153.469769,0.070,-0.316,0.983,0.420,-2.170,-0.560
1743904153.489769,0.071,-0.317,0.983,0.280,-2.030,-0.490
1743904153.509769,0.069,-0.315,0.985,0.490,-2.240,-0.630
1743904153.529769,0.069,-0.316,0.984,0.350,-2.450,-0.630
1743904153.549769,0.070,-0.317,0.984,0.350,-2.170,-0.630
1743904153.569769,0.071,-0.317,0.985,0.280,-2.310,-0.700
1743904153.499845,0.070,-0.318,0.985,0.350,-2.240,-0.630
1743904153.519845,0.071,-0.315,0.984,0.420,-2.450,-0.700
1743904153.539845,0.071,-0.315,0.986,0.210,-2.380,-0.700
1743904153.559845,0.068,-0.314,0.985,0.210,-2.450,-0.700
1743904153.579845,0.071,-0.316,0.985,0.210,-2.310,-0.700
1743904153.599845,0.070,-0.316,0.985,0.280,-2.450,-0.770
1743904153.587195,0.071,-0.316,0.986,0.210,-2.590,-0.770
1743904153.607195,0.070,-0.315,0.985,0.210,-2.450,-0.700
1743904153.627195,0.072,-0.317,0.985,0.350,-2.520,-0.630
1743904153.6471949,0.072,-0.317,0.986,0.280,-2.730,-0.840
1743904153.6671948,0.069,-0.317,0.986,0.280,-2.520,-0.840
1743904153.6871948,0.070,-0.316,0.984,0.280,-2.590,-0.700
1743904153.590099,0.071,-0.317,0.984,0.420,-2.520,-0.770
1743904153.610099,0.069,-0.316,0.985,0.490,-2.520,-0.770
1743904153.630099,0.073,-0.317,0.984,0.630,-2.450,-0.700
1743904153.650099,0.071,-0.316,0.986,0.560,-2.380,-0.700
1743904153.670099,0.070,-0.317,0.986,0.490,-2.380,-0.700
1743904153.690099,0.070,-0.315,0.987,0.420,-2.380,-0.700
1743904153.6346931,0.070,-0.316,0.986,0.420,-2.240,-0.700
1743904153.6546931,0.069,-0.316,0.986,0.420,-2.240,-0.700
1743904153.674693,0.073,-0.316,0.982,0.420,-2.240,-0.840
1743904153.694693,0.071,-0.317,0.984,0.420,-2.310,-0.700
1743904153.714693,0.072,-0.319,0.985,0.490,-2.240,-0.700
1743904153.734693,0.070,-0.318,0.985,0.420,-2.170,-0.700
1743904153.680375,0.068,-0.315,0.987,0.420,-2.310,-0.700
1743904153.700375,0.070,-0.315,0.984,0.420,-2.520,-0.770
1743904153.720375,0.068,-0.317,0.984,0.490,-2.520,-0.770
1743904153.740375,0.071,-0.316,0.985,0.350,-2.380,-0.630
1743904153.760375,0.068,-0.317,0.986,0.210,-2.380,-0.630
1743904153.780375,0.070,-0.314,0.985,0.350,-2.450,-0.770
1743904153.7672472,0.070,-0.315,0.985,0.350,-2.590,-0.770
1743904153.7872472,0.070,-0.315,0.986,0.140,-2.590,-0.700
1743904153.8072472,0.071,-0.316,0.987,0.210,-2.520,-0.630
1743904153.8272471,0.072,-0.318,0.984,0.210,-2.660,-0.770
1743904153.8472471,0.073,-0.315,0.983,0.350,-2.380,-0.700
1743904153.867247,0.071,-0.316,0.983,0.210,-2.310,-0.700
1743904153.7701902,0.069,-0.318,0.984,0.280,-2.520,-0.700
1743904153.7901902,0.069,-0.317,0.984,0.280,-2.520,-0.770
1743904153.8101902,0.071,-0.317,0.986,0.350,-2.450,-0.700
1743904153.8301902,0.071,-0.318,0.985,0.210,-2.240,-0.630
1743904153.8501902,0.072,-0.315,0.985,0.350,-2.450,-0.700
1743904153.8701901,0.071,-0.316,0.984,0.420,-2.450,-0.770
1743904153.8008323,0.071,-0.317,0.984,0.420,-2.520,-0.840
1743904153.8208323,0.072,-0.316,0.985,0.420,-2.380,-0.770
1743904153.8408322,0.070,-0.316,0.984,0.420,-2.310,-0.700
1743904153.8608322,0.069,-0.316,0.985,0.420,-2.380,-0.700
1743904153.8808322,0.072,-0.314,0.983,0.490,-2.380,-0.840
1743904153.9008322,0.072,-0.316,0.985,0.420,-2.450,-0.770
1743904153.844952,0.072,-0.315,0.985,0.420,-2.310,-0.630
1743904153.864952,0.072,-0.315,0.986,0.420,-2.310,-0.700
1743904153.884952,0.068,-0.318,0.985,0.420,-2.450,-0.770
1743904153.904952,0.068,-0.317,0.986,0.560,-2.590,-0.770
1743904153.924952,0.072,-0.315,0.984,0.420,-2.310,-0.700
1743904153.944952,0.071,-0.313,0.983,0.420,-2.450,-0.770
1743904153.874891,0.070,-0.318,0.983,0.490,-2.450,-0.770
1743904153.894891,0.073,-0.317,0.985,0.420,-2.310,-0.840
1743904153.914891,0.072,-0.315,0.985,0.140,-2.380,-0.700
1743904153.934891,0.072,-0.316,0.984,0.210,-2.310,-0.700
1743904153.954891,0.069,-0.316,0.983,0.420,-2.240,-0.770
1743904153.974891,0.069,-0.315,0.985,0.280,-2.520,-0.700
1743904153.920219,0.069,-0.317,0.987,0.210,-2.520,-0.630
1743904153.940219,0.072,-0.316,0.984,0.280,-2.310,-0.770
1743904153.960219,0.070,-0.318,0.983,0.280,-2.380,-0.770
1743904153.980219,0.071,-0.316,0.983,0.210,-2.380,-0.630
1743904154.0002189,0.069,-0.317,0.983,0.210,-2.310,-0.700
1743904154.0202188,0.071,-0.317,0.984,0.280,-2.310,-0.700
1743904153.965332,0.073,-0.317,0.982,0.350,-2.520,-0.700
1743904153.985332,0.071,-0.317,0.986,0.420,-2.450,-0.700
1743904154.005332,0.068,-0.317,0.985,0.210,-2.450,-0.770
1743904154.025332,0.071,-0.319,0.985,0.350,-2.450,-0.700
1743904154.045332,0.069,-0.315,0.982,0.560,-2.380,-0.770
1743904154.065332,0.070,-0.316,0.984,0.350,-2.660,-0.770
1743904154.0099483,0.071,-0.317,0.985,0.350,-2.660,-0.770
1743904154.0299482,0.070,-0.317,0.985,0.420,-2.450,-0.840
1743904154.0499482,0.069,-0.319,0.986,0.490,-2.450,-0.700
1743904154.0699482,0.071,-0.315,0.984,0.490,-2.590,-0.840
1743904154.0899482,0.072,-0.315,0.983,0.350,-2.590,-0.910
1743904154.1099482,0.070,-0.318,0.982,0.420,-2.450,-0.770
1743904154.069987,0.072,-0.316,0.985,0.490,-2.450,-0.770
1743904154.089987,0.070,-0.315,0.986,0.420,-2.450,-0.840
1743904154.109987,0.072,-0.317,0.986,0.350,-2.520,-0.700
1743904154.129987,0.070,-0.317,0.981,0.560,-2.240,-0.700
1743904154.149987,0.070,-0.317,0.984,0.490,-2.380,-0.840
1743904154.169987,0.069,-0.315,0.985,0.490,-2.520,-0.770
