Timestamp,AccelX,AccelY,AccelZ,GyroX,GyroY,GyroZ
1318.535241,-0.003,-0.016,1.057,1.890,-2.870,-0.910
1318.552769,-0.007,-0.012,1.058,1.750,-2.800,-0.770
1318.577712,0.002,-0.027,1.063,-0.490,-2.380,-0.490
1318.596815,0.007,-0.011,1.051,-0.490,-2.100,-0.700
1318.617668,-0.009,-0.019,1.048,-0.350,-2.030,-0.490
1318.637753,-0.008,-0.024,1.053,0.350,-2.240,-0.630
1318.657697,-0.008,-0.021,1.053,0.140,-2.590,-0.840
1318.675769,-0.003,-0.025,1.053,1.330,-2.660,-0.840
1318.692779,-0.004,-0.021,1.056,2.100,-3.290,-1.050
1318.71278,-0.010,-0.021,1.057,2.660,-3.290,-1.050
1318.736821,0.003,-0.021,1.062,1.400,-2.940,-1.050
1318.754156,-0.003,-0.015,1.061,0.490,-2.730,-0.910
1318.774244,-0.006,-0.016,1.060,0.420,-2.520,-0.910
1318.794163,-0.003,-0.014,1.053,0.070,-2.310,-0.840
1318.817704,-0.001,-0.020,1.056,0.560,-2.100,-0.770
1318.835833,-0.001,-0.019,1.052,0.630,-2.380,-0.840
1318.857624,-0.002,-0.020,1.054,0.560,-2.520,-0.770
1318.877199,-0.002,-0.022,1.055,1.120,-2.590,-0.840
1318.897162,0.000,-0.020,1.057,0.700,-2.730,-0.770
1318.915319,-0.003,-0.019,1.057,0.840,-2.590,-0.910
1318.937673,-0.001,-0.017,1.056,0.770,-2.380,-0.910
1318.955745,0.000,-0.015,1.052,0.630,-2.310,-0.980
1318.977229,-0.001,-0.019,1.054,0.770,-2.240,-0.840
1318.997197,-0.001,-0.021,1.057,0.980,-2.240,-0.700
1319.017684,-0.001,-0.016,1.056,1.330,-2.100,-0.700
1319.034347,-0.005,-0.014,1.056,1.120,-2.100,-0.700
1319.0542,-0.006,-0.016,1.057,0.770,-2.170,-0.700
1319.077196,-0.003,-0.013,1.058,-0.420,-1.610,-0.630
1319.094257,-0.001,-0.019,1.052,-0.700,-1.540,-0.420
1319.112768,0.000,-0.020,1.055,-1.260,-1.890,-0.560
1319.137618,-0.003,-0.023,1.055,-1.120,-1.680,-0.560
1319.157609,-0.002,-0.021,1.055,-2.520,-1.330,-0.630
1319.172754,-0.003,-0.025,1.053,-2.590,-1.120,-0.630
1319.197725,-0.003,-0.025,1.054,-2.450,-1.190,-0.630
1319.216715,-0.008,-0.027,1.051,-1.750,-1.470,-0.420
1319.234176,-0.002,-0.023,1.053,-1.890,-1.820,-0.420
1319.254201,0.009,-0.021,1.051,0.980,-0.630,-0.070
1319.272784,-0.001,-0.033,1.044,17.360,-1.890,-0.280
1319.297687,-0.011,-0.032,1.051,-1.680,-1.960,-0.350
1319.316801,0.002,-0.023,1.063,-1.470,-1.540,-0.140
1319.335241,0.002,-0.028,1.052,0.140,-1.190,0.140
1319.354307,-0.011,-0.025,1.056,-2.310,-1.820,0.070
1319.377188,-0.017,-0.027,1.062,-3.500,-0.420,-0.070
1319.396193,0.004,-0.031,1.060,0.700,-3.920,0.350
1319.412787,-0.002,-0.036,1.055,-1.680,-2.520,0.980
1319.436954,-0.006,-0.031,1.056,0.000,-2.030,1.890
1319.452774,-0.010,-0.030,1.058,-0.560,-0.910,2.170
1319.475779,-0.001,-0.023,1.059,-0.770,0.140,1.890
1319.497666,-0.041,-0.044,1.064,0.910,-2.870,2.520
1319.513727,-0.021,-0.037,1.065,-5.530,-0.420,0.770
1319.537763,0.001,-0.039,1.052,-2.170,0.840,0.840
1319.554996,-0.016,-0.041,1.064,-3.710,0.700,0.350
1319.577708,-0.018,-0.035,1.055,-4.410,1.190,0.140
1319.596819,-0.008,-0.035,1.046,-4.620,-0.420,-0.210
1319.616724,-0.013,-0.062,1.046,1.050,-2.030,-0.700
1319.632775,-0.021,-0.061,1.037,3.990,-3.290,-0.910
1319.656817,-0.010,-0.046,1.060,7.000,-3.990,-0.490
1319.674801,-0.043,-0.026,1.074,2.100,-0.700,-0.840
1319.692794,-0.002,-0.020,1.095,-5.460,3.290,-0.210
1319.71769,-0.020,-0.046,1.086,-2.940,-0.490,-0.770
1319.735853,-0.010,-0.043,1.056,-3.710,-0.280,-0.910
1319.757645,-0.025,-0.050,1.057,0.210,-2.590,-0.490
1319.777159,-0.018,-0.044,1.037,0.770,-3.150,-0.350
1319.796229,-0.018,-0.042,1.058,1.260,-1.750,-0.280
1319.817194,-0.017,-0.041,1.050,1.260,-1.890,-0.420
1319.837175,-0.015,-0.044,1.065,-1.120,-0.980,-0.630
1319.855326,-0.019,-0.044,1.055,-1.190,-2.660,-0.490
1319.87332,-0.016,-0.046,1.057,-0.700,-2.450,-1.540
1319.897656,-0.031,-0.051,1.052,-1.540,-1.260,-0.840
1319.917697,-0.021,-0.046,1.052,2.170,-3.990,-0.840
1319.937693,-0.020,-0.051,1.059,0.420,-2.590,-0.910
1319.95773,-0.014,-0.048,1.059,0.770,-1.960,-0.700
1319.974787,-0.040,-0.053,1.036,0.490,-3.010,-0.980
1319.992769,-0.016,-0.041,1.068,0.700,-3.500,-1.540
1320.017733,-0.016,-0.061,1.070,3.150,-1.330,-0.980
1320.034798,-0.018,-0.047,1.061,1.190,-3.640,-1.400
1320.057154,-0.017,-0.047,1.067,-0.140,-2.590,-0.840
1320.077145,-0.015,-0.045,1.056,3.290,-4.270,-0.840
1320.0962,-0.016,-0.046,1.049,1.190,-3.640,-1.120
1320.115318,-0.022,-0.041,1.041,4.130,-6.300,-1.190
1320.137612,-0.019,-0.057,1.046,3.990,-7.000,-1.540
1320.155743,-0.017,-0.036,1.049,2.730,-5.530,-1.750
1320.172753,-0.012,-0.048,1.042,6.860,-6.720,-2.100
1320.197702,-0.013,-0.054,1.042,8.540,-5.390,-2.660
1320.215718,-0.009,-0.021,1.067,8.610,-7.980,-2.310
1320.23765,-0.002,-0.023,1.042,9.100,-3.360,-2.240
1320.252767,-0.007,-0.029,1.083,6.020,-3.710,-1.890
1320.277689,0.003,-0.020,1.068,3.010,-3.990,-1.190
1320.29772,-0.003,-0.034,1.060,1.330,-2.730,-1.330
1320.312764,0.003,-0.026,1.060,0.070,-2.100,-0.910
1320.336146,0.005,-0.023,1.064,-0.910,-1.260,-0.630
1320.35279,-0.007,-0.027,1.053,-2.030,-1.120,-0.210
1320.372761,-0.008,-0.029,1.057,-2.100,-0.560,-0.210
1320.393753,-0.021,-0.035,1.055,-3.360,-0.840,-0.280
1320.415308,-0.011,-0.037,1.051,-2.590,-1.820,-0.350
1320.436801,-0.017,-0.041,1.048,-1.050,-2.100,-0.630
1320.456991,-0.013,-0.043,1.035,4.270,-4.200,-0.840
1320.475689,-0.002,-0.037,1.037,7.000,-5.320,-0.770
1320.492759,-0.005,-0.033,1.052,8.400,-5.040,-0.560
1320.51672,-0.013,-0.027,1.065,7.210,-5.390,-0.700
1320.535729,-0.007,-0.025,1.058,7.280,-4.830,-0.630
1320.557732,-0.006,-0.023,1.057,6.090,-4.340,-0.490
1320.575701,-0.013,-0.026,1.056,5.320,-4.620,-0.560
1320.597187,-0.001,-0.016,1.059,4.620,-4.340,-0.490
1320.613303,-0.003,-0.016,1.059,4.480,-4.200,-0.560
1320.63593,-0.009,-0.019,1.053,4.340,-4.410,-0.420
1320.657626,-0.001,-0.016,1.057,2.590,-3.430,-0.770
1320.672752,-0.001,-0.015,1.057,2.730,-3.430,-0.770
1320.693765,-0.000,-0.015,1.058,3.150,-3.360,-0.490
1320.717182,-0.002,-0.016,1.058,2.030,-3.150,-0.700
1320.737153,0.000,-0.019,1.056,1.190,-4.410,-0.770
1320.755301,-0.005,-0.021,1.062,0.350,-2.800,-0.910
1320.773307,-0.005,-0.012,1.060,-0.070,-2.380,-0.910
1320.797747,-0.006,-0.013,1.051,0.770,-2.730,-0.700
1320.817699,0.002,-0.007,1.057,1.750,-2.520,-0.840
1320.83681,0.004,-0.012,1.053,2.730,-2.870,-0.700
1320.855698,0.003,-0.015,1.054,2.800,-2.870,-0.490
1320.877182,-0.004,-0.016,1.052,3.500,-3.500,-0.700
1320.895218,-0.003,-0.018,1.056,3.640,-3.780,-0.630
1320.9133,-0.002,-0.011,1.056,2.520,-3.640,-0.630
1320.937658,-0.009,-0.010,1.053,3.290,-3.780,-0.840
1320.955703,0.000,-0.010,1.056,4.130,-3.640,-0.840
1320.974293,0.003,-0.010,1.053,4.690,-3.710,-0.910
1320.994211,0.000,-0.009,1.051,5.040,-3.430,-0.840
1321.012738,0.001,-0.008,1.055,6.230,-3.990,-0.700
1321.035297,0.001,-0.000,1.058,5.320,-3.710,-0.840
1321.05523,0.005,-0.002,1.060,4.830,-3.220,-1.190
1321.077635,0.004,0.000,1.060,3.710,-3.360,-1.120
1321.092757,0.007,0.002,1.060,2.450,-2.870,-1.120
1321.112768,0.008,0.001,1.059,1.400,-2.310,-0.980
1321.137711,0.009,0.003,1.057,0.630,-1.890,-0.980
1321.157735,0.005,0.002,1.052,0.420,-1.820,-0.980
1321.177641,0.001,-0.000,1.049,1.190,-3.500,-0.700
1321.197224,0.007,0.001,1.060,0.910,-1.470,-0.770
1321.217188,0.008,0.000,1.054,2.170,-1.610,-0.490
1321.237226,0.004,0.000,1.053,1.960,-2.170,-0.560
1321.257212,0.000,0.001,1.057,1.050,-1.890,-0.560
1321.275296,0.004,-0.001,1.059,0.210,-1.890,-0.630
1321.293767,0.006,0.002,1.053,-0.560,-1.330,-0.560
1321.31719,0.001,0.000,1.056,-1.190,-1.120,-0.490
1321.336135,-0.001,-0.003,1.054,-1.120,-1.470,-0.630
1321.355303,0.000,-0.008,1.053,-0.980,-1.820,-0.630
1321.373295,0.002,-0.006,1.055,-0.700,-1.960,-0.770
1321.393151,0.002,-0.005,1.060,-0.490,-2.100,-0.980
1321.412766,0.003,-0.004,1.058,-0.630,-1.750,-0.840
1321.432788,0.005,-0.004,1.053,-1.050,-1.610,-0.840
1321.452738,0.002,-0.004,1.057,-1.050,-2.100,-0.630
1321.472774,-0.004,-0.003,1.058,-1.750,-1.960,-0.700
1321.492747,-0.005,-0.005,1.064,-1.890,-3.220,-0.350
1321.516808,0.006,-0.014,1.066,-1.260,-2.520,-0.490
1321.536294,0.008,-0.020,1.034,-0.420,-1.120,-0.420
1321.556147,-0.006,-0.020,1.058,-2.240,-1.540,-0.630
1321.576226,-0.003,-0.017,1.064,-2.100,-1.400,-0.700
1321.595292,0.008,-0.009,1.061,0.350,-2.450,-0.630
1321.613186,-0.019,-0.018,1.065,-2.380,-1.890,-0.840
1321.637678,-0.012,-0.020,1.063,-0.210,-2.240,-0.910
1321.656937,-0.005,-0.003,1.059,-0.490,-2.800,-0.980
1321.672757,-0.007,-0.006,1.052,2.520,-3.430,-1.050
1321.69774,0.000,-0.013,1.055,4.130,-3.710,-0.910
1321.717649,-0.002,-0.010,1.060,3.500,-3.500,-0.980
1321.737639,-0.006,-0.007,1.056,3.290,-3.500,-0.910
1321.755722,-0.001,-0.007,1.054,2.520,-3.150,-0.910
1321.777648,-0.003,-0.010,1.056,2.660,-3.290,-0.980
1321.797636,-0.000,-0.007,1.054,3.290,-3.080,-0.910
1321.817202,-0.002,-0.003,1.053,3.920,-3.430,-0.840
1321.837279,0.001,-0.004,1.057,4.270,-3.430,-0.980
1321.856452,0.000,-0.001,1.056,3.920,-3.290,-0.980
1321.875269,0.004,-0.003,1.058,3.010,-3.290,-0.910
1321.895221,0.002,-0.000,1.056,2.380,-3.220,-0.840
1321.912767,0.004,-0.005,1.058,1.890,-2.940,-0.770
1321.937647,0.004,-0.001,1.057,1.680,-2.800,-0.770
1321.955696,0.004,0.000,1.058,1.260,-2.450,-0.700
1321.977197,0.004,0.000,1.060,0.910,-2.380,-0.700
1321.997145,0.006,-0.000,1.054,0.490,-2.310,-0.700
1322.014207,0.004,-0.003,1.055,0.280,-2.240,-0.630
1322.033307,0.002,-0.004,1.057,0.210,-2.030,-0.700
1322.053142,0.001,-0.001,1.054,-0.420,-1.890,-0.700
1322.076922,0.002,-0.004,1.052,-0.070,-1.960,-0.630
1322.095139,0.000,-0.002,1.056,0.210,-2.170,-0.700
1322.113292,0.000,-0.002,1.053,0.630,-2.450,-0.700
1322.136928,0.000,-0.000,1.055,0.770,-2.940,-0.840
1322.152744,0.122,-0.001,1.055,1.330,-2.800,-0.700
1322.17679,0.004,-0.002,1.058,1.190,-2.450,-0.700
1322.197703,-0.003,-0.002,1.054,0.840,-2.730,-0.840
1322.21762,0.001,-0.001,1.055,1.120,-2.520,-0.840
1322.237135,0.000,-0.006,1.054,1.330,-2.730,-0.770
1322.257216,0.000,-0.007,1.054,1.470,-2.940,-0.770
1322.275223,0.000,-0.004,1.054,1.610,-2.870,-0.770
1322.294138,0.001,-0.001,1.058,2.170,-3.080,-0.910
1322.312798,0.001,0.001,1.053,2.870,-3.080,-0.840
1322.33579,0.004,0.000,1.055,2.870,-3.360,-0.910
1322.357653,0.001,-0.000,1.055,2.450,-3.150,-0.840
1322.375706,0.005,0.001,1.057,1.960,-2.940,-0.770
1322.397126,0.003,0.002,1.054,1.750,-3.010,-0.770
1322.414113,0.000,0.000,1.053,1.750,-3.150,-0.630
1322.437675,0.002,0.002,1.054,1.750,-2.800,-0.840
1322.45577,0.003,0.004,1.055,1.820,-2.800,-0.770
1322.472742,0.001,0.000,1.056,1.890,-2.590,-0.770
1322.492762,0.003,0.004,1.055,1.960,-2.940,-0.630
1322.515185,0.002,0.003,1.056,2.030,-2.800,-0.630
1322.53426,0.003,0.003,1.057,1.610,-2.660,-0.700
1322.557663,0.005,0.002,1.057,1.400,-2.730,-0.700
1322.577684,0.002,0.001,1.055,0.910,-2.450,-0.770
1322.597676,0.008,0.003,1.057,1.190,-2.660,-0.770
1322.617632,0.006,0.001,1.052,1.540,-2.800,-0.840
1322.637862,0.004,0.002,1.056,1.890,-2.870,-0.840
1322.656287,-0.002,0.005,1.055,1.750,-3.290,-0.700
1322.676133,0.005,0.005,1.060,1.330,-2.520,-0.630
1322.695177,0.009,0.004,1.059,0.560,-2.380,-0.770
1322.713178,0.006,0.005,1.055,0.560,-2.380,-0.910
1322.732769,0.004,0.004,1.053,0.770,-2.450,-0.560
1322.757693,0.005,0.003,1.053,0.910,-2.450,-0.700
1322.775285,0.005,0.003,1.056,1.120,-2.380,-0.700
1322.795213,0.003,0.003,1.054,1.260,-2.520,-0.770
1322.815174,0.003,0.003,1.057,1.330,-2.520,-0.700
1322.834168,0.004,0.004,1.055,1.260,-2.590,-0.700
1322.855292,0.001,0.004,1.056,1.120,-2.590,-0.840
1322.872748,0.007,0.005,1.057,1.190,-2.730,-0.560
1322.897742,0.005,0.004,1.055,0.980,-2.380,-0.770
1322.917624,0.006,0.004,1.054,1.050,-2.590,-0.770
1322.936697,0.004,0.003,1.054,1.190,-2.520,-0.770
1322.952732,0.004,0.001,1.057,1.120,-2.660,-0.770
1322.972764,0.007,0.004,1.054,1.050,-2.520,-0.840
1322.992737,0.005,0.003,1.054,0.980,-2.310,-0.840
1323.017655,0.004,0.003,1.054,1.190,-2.590,-0.840
1323.036282,0.006,0.003,1.054,1.260,-2.520,-0.840
1323.056136,0.005,0.003,1.053,1.120,-2.450,-0.840
1323.076215,0.005,0.005,1.053,0.980,-2.380,-0.700
1323.094199,0.005,0.003,1.058,0.980,-2.380,-0.630
1323.116133,0.005,0.003,1.058,0.770,-2.450,-0.770
1323.135287,0.004,0.002,1.055,0.560,-2.380,-0.770
1323.155205,0.004,0.003,1.056,0.560,-2.310,-0.770
1323.177625,0.004,0.002,1.055,0.700,-2.380,-0.840
1323.192748,0.004,0.005,1.056,0.980,-2.450,-0.700
1323.212768,0.003,0.005,1.055,0.980,-2.590,-0.770
1323.237628,0.008,0.006,1.056,0.560,-2.590,-0.770
1323.255283,0.001,0.005,1.054,0.350,-2.590,-0.910
1323.274199,0.006,0.005,1.055,1.050,-2.590,-0.910
1323.293276,0.006,0.005,1.060,1.400,-2.660,-0.840
1323.317675,0.003,0.005,1.057,1.120,-2.660,-0.840
1323.333734,0.007,0.007,1.056,0.770,-2.450,-0.840
1323.356288,0.005,0.005,1.057,0.350,-2.310,-0.700
1323.375737,0.002,0.005,1.055,0.140,-2.310,-0.840
1323.395686,0.005,0.001,1.054,1.120,-2.170,-0.630
1323.416292,0.004,0.002,1.054,0.840,-2.520,-0.770
1323.437665,0.005,0.005,1.054,0.630,-2.450,-0.770
1323.455756,0.003,0.001,1.050,1.050,-2.660,-0.630
1323.476681,0.007,0.006,1.055,0.980,-2.940,-0.840
1323.493162,0.004,0.005,1.054,0.630,-2.940,-0.770
1323.517652,0.006,0.005,1.055,1.190,-2.590,-0.770
1323.53574,0.002,0.004,1.055,0.980,-2.590,-0.840
1323.554178,0.003,0.003,1.056,0.910,-2.590,-0.770
1323.573168,0.005,0.004,1.056,0.980,-2.520,-0.840
1323.59767,0.004,0.003,1.056,1.190,-2.590,-0.770
1323.617707,0.004,0.006,1.054,1.050,-2.590,-0.840
1323.635285,0.003,0.002,1.055,0.910,-2.520,-0.840
1323.65421,0.005,0.003,1.055,1.050,-2.450,-0.700
1323.674156,0.003,0.005,1.053,1.120,-2.450,-0.700
1323.693292,0.006,0.004,1.055,1.120,-2.590,-0.840
1323.716686,0.011,0.000,1.049,1.120,-3.220,-0.910
1323.732734,0.002,0.005,1.054,1.470,-2.800,-0.770
1323.752761,0.005,0.006,1.057,1.120,-2.730,-0.840
1323.772733,0.007,0.004,1.057,0.840,-2.170,-0.770
1323.795161,0.001,0.005,1.054,0.490,-2.590,-0.630
1323.815126,0.007,0.004,1.055,0.700,-2.380,-0.770
1323.834287,0.003,0.006,1.056,0.910,-2.240,-0.630
1323.855675,0.004,0.005,1.052,1.190,-2.590,-0.840
1323.877168,0.004,0.006,1.055,1.120,-2.520,-0.770
1323.896114,0.004,0.002,1.056,1.190,-2.520,-0.770
1323.914131,0.006,0.004,1.055,1.260,-2.730,-0.840
1323.937678,0.008,0.007,1.054,1.400,-2.660,-0.910
1323.957696,0.003,0.006,1.057,0.910,-2.520,-0.770
1323.977205,0.003,0.005,1.057,0.420,-2.240,-0.700
1323.997661,0.006,0.004,1.054,0.210,-2.170,-0.840
1324.017619,0.004,0.004,1.055,0.420,-2.310,-0.700
1324.036165,0.002,0.005,1.054,0.560,-2.380,-0.770
1324.054276,0.005,0.004,1.052,0.770,-2.380,-0.700
1324.072794,0.004,0.005,1.055,1.120,-2.380,-0.770
1324.097662,0.005,0.004,1.053,1.050,-2.450,-0.770
1324.116785,0.004,0.003,1.057,1.190,-2.450,-0.770
1324.134272,0.005,0.004,1.057,1.120,-2.380,-0.770
1324.154206,0.007,0.003,1.056,0.770,-2.380,-0.700
1324.172756,0.006,0.006,1.056,0.700,-2.310,-0.770
1324.197685,0.005,0.004,1.054,0.560,-2.310,-0.770
1324.212725,0.005,0.005,1.054,0.840,-2.450,-0.770
1324.23762,0.004,0.003,1.055,0.840,-2.590,-0.700
1324.257623,0.007,0.006,1.057,0.980,-2.590,-0.840
1324.277126,0.004,0.004,1.055,0.700,-2.520,-0.700
1324.295201,0.006,0.005,1.057,0.770,-2.240,-0.770
1324.317635,0.003,0.007,1.056,0.700,-2.380,-0.630
1324.335689,0.005,0.005,1.056,0.630,-2.380,-0.770
1324.35761,0.004,0.006,1.054,0.840,-2.450,-0.770
1324.377601,0.006,0.006,1.054,0.980,-2.450,-0.840
1324.392719,0.003,0.005,1.057,1.190,-2.520,-0.770
1324.41767,0.005,0.005,1.059,1.120,-2.590,-0.840
1324.437655,0.003,0.005,1.053,1.120,-2.450,-0.770
1324.455747,0.007,0.007,1.054,1.330,-2.520,-0.770
1324.476709,0.004,0.007,1.053,1.120,-2.800,-0.700
1324.497132,0.006,0.005,1.053,1.680,-2.800,-0.700
1324.515282,0.004,0.004,1.056,1.820,-2.590,-0.770
1324.53275,0.006,0.005,1.054,1.750,-2.450,-0.840
1324.557668,0.003,0.005,1.055,2.170,-3.010,-0.630
1324.577643,0.002,0.005,1.057,2.660,-2.240,-0.770
1324.596165,0.008,0.006,1.057,2.590,-2.800,-0.910
1324.612731,0.006,0.009,1.058,2.100,-3.010,-0.840
1324.633115,0.003,0.010,1.063,1.120,-2.940,-0.700
1324.653171,0.006,0.008,1.063,-0.980,-1.960,-0.630
1324.676108,0.006,0.007,1.056,-2.170,-1.400,-0.350
1324.693213,0.005,0.010,1.052,-2.800,-0.980,-0.350
1324.712757,0.005,0.004,1.049,-0.980,-1.680,-0.490
1324.737689,0.001,-0.006,1.052,17.780,-2.730,-0.630
1324.7568,0.003,-0.002,1.053,0.910,-2.520,-0.700
1324.776689,0.002,0.002,1.052,2.450,-3.220,-0.770
1324.794673,0.003,0.005,1.051,2.730,-3.570,-0.840
1324.81771,0.004,0.004,1.056,2.800,-3.710,-0.910
1324.834321,0.008,0.006,1.059,2.100,-3.290,-0.840
1324.85274,0.008,0.009,1.056,1.820,-3.150,-0.840
1324.872747,0.006,0.008,1.058,0.980,-2.660,-0.700
1324.895676,0.007,0.007,1.053,0.630,-2.590,-0.910
1324.917177,0.008,0.002,1.049,1.750,-2.870,-0.840
1324.936268,0.006,0.004,1.051,2.450,-3.290,-0.770
1324.955282,0.006,0.006,1.054,3.500,-3.360,-0.770
1324.975267,0.006,0.011,1.056,3.430,-3.080,-0.700
1324.993158,0.007,0.010,1.057,2.870,-3.010,-0.700
1325.017111,0.008,0.010,1.057,2.450,-2.870,-0.700
1325.035267,0.007,0.008,1.055,2.310,-2.730,-0.840
1325.055199,0.008,0.010,1.054,2.380,-2.590,-0.770
1325.075165,0.007,0.010,1.055,2.170,-2.660,-0.700
1325.097628,0.009,0.009,1.057,2.240,-2.660,-0.770
1325.117159,0.006,0.012,1.055,1.960,-2.800,-0.700
1325.133187,0.006,0.008,1.055,2.030,-2.800,-0.910
1325.15511,0.008,0.013,1.057,1.890,-2.800,-0.700
1325.175196,0.008,0.012,1.054,1.330,-2.730,-0.840
1325.194188,0.010,0.010,1.056,1.050,-2.660,-0.700
1325.212739,0.010,0.012,1.055,0.910,-2.660,-0.840
1325.237634,0.009,0.010,1.053,1.330,-2.730,-0.840
1325.255658,0.006,0.013,1.055,1.610,-2.730,-0.840
1325.276263,0.008,0.011,1.053,1.540,-2.590,-0.770
1325.295274,0.007,0.016,1.055,1.540,-2.590,-0.770
1325.315156,0.010,0.014,1.056,1.470,-2.660,-0.700
1325.336115,0.010,0.014,1.057,0.910,-2.380,-0.840
1325.354265,0.008,0.013,1.057,0.420,-2.240,-0.630
1325.374199,0.010,0.012,1.056,0.140,-2.100,-0.700
1325.392713,0.008,0.014,1.055,0.490,-2.240,-0.700
1325.417661,0.008,0.011,1.053,0.630,-2.380,-0.770
1325.432788,0.009,0.011,1.055,0.910,-2.590,-0.770
1325.452711,0.005,0.011,1.052,1.680,-2.870,-0.770
1325.476779,0.008,0.013,1.057,2.170,-2.940,-0.770
1325.497614,0.008,0.012,1.058,1.540,-2.730,-0.770
1325.513681,0.008,0.014,1.053,1.470,-2.660,-0.770
1325.537722,0.008,0.013,1.057,1.400,-2.660,-0.840
1325.555769,0.008,0.013,1.055,1.330,-2.520,-0.770
1325.57274,0.009,0.014,1.056,0.980,-2.380,-0.700
1325.592738,0.011,0.014,1.058,0.490,-2.030,-0.700
1325.612745,0.009,0.014,1.054,0.770,-2.310,-0.840
1325.633146,0.009,0.010,1.056,0.910,-2.590,-0.840
1325.657705,0.007,0.011,1.056,0.770,-2.380,-0.700
1325.677607,0.009,0.012,1.057,0.420,-2.310,-0.700
1325.697615,0.008,0.015,1.055,-17.780,-2.100,-0.840
1325.712717,0.010,0.011,1.058,-0.140,-1.960,-0.840
1325.736682,0.009,0.011,1.051,0.210,-2.100,-0.770
1325.756399,0.009,0.011,1.055,0.910,-2.450,-0.770
1325.773268,0.006,0.012,1.054,1.610,-2.730,-0.840
1325.792752,0.008,0.010,1.053,1.680,-2.800,-0.770
1325.816116,0.006,0.011,1.058,0.840,-2.660,-0.840
1325.834273,0.010,0.013,1.057,0.350,-2.380,-0.770
1325.853146,0.009,0.012,1.058,0.000,-2.170,-0.770
1325.872723,0.008,0.013,1.056,-0.490,-2.100,-0.770
1325.89711,0.007,0.012,1.052,-0.210,-2.030,-0.770
1325.913723,0.008,0.012,1.057,-0.280,-2.170,-0.700
1325.932738,0.008,0.010,1.056,-0.210,-2.030,-0.630
1325.955746,0.010,0.009,1.050,0.140,-2.100,-0.770
1325.975117,0.007,0.009,1.054,0.840,-2.310,-0.770
1325.993267,0.004,0.010,1.061,0.490,-2.240,-0.840
1326.012715,0.005,0.010,1.058,-0.490,-1.890,-0.700
1326.037663,0.005,0.009,1.053,-0.560,-1.960,-0.700
1326.057606,0.007,0.007,1.055,0.210,-2.170,-0.630
1326.076708,0.004,0.008,1.053,0.350,-2.240,-0.700
1326.09716,0.005,0.008,1.054,0.910,-2.520,-0.630
1326.11427,0.006,0.008,1.055,1.190,-2.520,-0.700
1326.137644,0.007,0.009,1.056,1.190,-2.590,-0.770
1326.156904,0.006,0.008,1.057,0.350,-2.380,-0.770
1326.172723,0.007,0.008,1.054,0.140,-2.170,-0.700
1326.192732,0.004,0.008,1.055,0.000,-2.240,-0.700
1326.212743,0.007,0.008,1.054,0.560,-2.380,-0.770
1326.237605,0.007,0.009,1.056,1.330,-2.660,-0.840
1326.257624,0.007,0.008,1.055,1.540,-2.660,-0.770
1326.27519,0.004,0.010,1.057,1.190,-2.800,-0.770
1326.297786,0.004,0.008,1.055,0.980,-2.660,-0.770
1326.312719,0.007,0.008,1.056,0.910,-2.380,-0.770
1326.332763,0.006,0.006,1.058,0.630,-2.310,-0.770
1326.352727,0.006,0.006,1.055,1.050,-2.590,-0.770
1326.372727,0.007,0.008,1.053,1.400,-2.660,-0.840
1326.396721,0.006,0.011,1.056,1.330,-2.660,-0.700
1326.415109,0.007,0.011,1.054,0.910,-2.240,-0.840
1326.433268,0.008,0.008,1.055,0.700,-2.310,-0.770
1326.457627,0.008,0.009,1.056,0.630,-2.310,-0.770
1326.476735,0.007,0.008,1.058,0.000,-1.960,-0.630
1326.497613,0.007,0.009,1.057,-0.700,-1.750,-0.700
1326.516674,0.007,0.007,1.057,-0.980,-1.680,-0.770
1326.532729,0.007,0.006,1.057,-0.980,-1.610,-0.630
1326.55673,0.005,0.005,1.054,-0.700,-1.890,-0.770
1326.576755,0.004,0.007,1.054,-0.420,-1.960,-0.770
1326.594137,0.004,0.006,1.057,0.280,-2.100,-0.770
1326.612718,0.003,0.007,1.053,0.770,-2.450,-0.840
1326.637671,0.003,0.006,1.051,1.330,-2.870,-0.770
1326.655734,0.004,0.006,1.057,1.610,-2.660,-0.770
1326.673114,0.004,0.006,1.055,1.330,-2.800,-0.770
1326.692729,0.005,0.004,1.052,1.750,-2.800,-0.840
1326.712728,0.011,0.005,1.053,2.170,-2.380,-0.840
1326.736795,0.007,0.006,1.055,2.520,-2.730,-0.770
1326.757643,0.004,0.008,1.056,2.100,-2.590,-0.770
1326.776713,0.006,0.007,1.060,1.050,-2.170,-0.770
1326.79769,0.007,0.008,1.057,0.280,-2.240,-0.700
1326.817659,0.004,0.005,1.055,0.140,-2.100,-0.770
1326.836761,0.004,0.008,1.052,0.280,-2.240,-0.770
1326.853247,0.005,0.004,1.054,0.420,-2.310,-0.630
1326.875231,0.005,0.006,1.053,0.490,-2.380,-0.770
1326.895182,0.005,0.007,1.052,1.120,-2.520,-0.770
1326.915113,0.003,0.005,1.055,1.680,-2.870,-0.770
1326.93764,0.005,0.007,1.054,1.890,-2.940,-0.770
1326.957627,0.003,0.006,1.054,2.030,-2.940,-0.980
1326.975717,0.006,0.008,1.054,1.890,-2.800,-0.770
1326.995666,0.008,0.007,1.056,1.890,-2.800,-0.840
1327.016266,0.007,0.008,1.055,1.680,-2.730,-0.840
1327.037649,0.008,0.007,1.057,1.470,-2.590,-0.980
1327.055898,0.007,0.009,1.057,1.120,-2.450,-0.770
1327.07598,0.007,0.008,1.056,1.050,-2.450,-0.630
1327.09273,0.004,0.009,1.055,1.050,-2.520,-0.840
1327.112734,0.005,0.007,1.056,0.770,-2.450,-0.770
1327.137606,0.006,0.007,1.058,0.560,-2.310,-0.770
1327.155674,0.002,0.008,1.055,0.630,-2.380,-0.700
1327.176133,0.005,0.008,1.052,0.840,-2.450,-0.770
1327.194229,0.007,0.007,1.053,1.050,-2.590,-0.770
1327.21315,0.006,0.008,1.052,1.260,-2.520,-0.770
1327.232737,0.005,0.008,1.055,1.400,-2.590,-0.980
1327.252725,0.007,0.007,1.053,1.750,-2.730,-0.910
1327.277683,0.008,0.008,1.056,1.960,-2.870,-0.840
1327.297582,0.005,0.008,1.058,1.750,-2.730,-0.770
1327.317613,0.007,0.010,1.059,0.840,-2.380,-0.770
1327.335246,0.008,0.012,1.057,0.140,-2.170,-0.770
1327.353251,0.008,0.011,1.058,-0.420,-2.100,-0.630
1327.372698,0.009,0.010,1.057,-1.190,-1.750,-0.770
1327.396707,0.002,0.007,1.055,-1.330,-1.680,-0.700
1327.413711,0.005,0.008,1.055,-0.560,-1.890,-0.630
1327.433135,0.002,0.006,1.055,-0.140,-2.100,-0.770
1327.452712,0.006,0.006,1.055,-0.140,-2.170,-0.770
1327.472763,0.004,0.005,1.052,0.350,-2.590,-0.840
1327.496101,0.007,0.004,1.055,0.910,-2.450,-0.840
1327.514251,0.004,0.004,1.056,1.120,-2.660,-0.770
1327.537636,0.003,0.005,1.051,0.980,-2.870,-0.980
1327.557624,0.006,0.007,1.055,0.980,-2.660,-0.700
1327.575723,0.004,0.003,1.056,0.980,-2.660,-0.770
1327.597609,0.005,0.004,1.058,0.980,-2.520,-0.700
1327.617107,0.009,0.007,1.053,0.840,-2.310,-0.700
1327.636134,0.007,0.006,1.057,0.770,-2.100,-0.630
1327.655223,0.007,0.010,1.053,0.840,-2.170,-0.490
1327.675175,0.008,0.009,1.055,0.560,-1.400,-0.560
1327.695106,0.011,0.007,1.055,0.700,-1.330,-0.560
1327.712726,0.002,0.001,1.054,0.630,-1.680,-0.560
1327.737593,0.003,0.005,1.057,0.840,-2.240,-0.490
1327.757612,0.001,0.006,1.057,0.770,-2.590,-0.560
1327.776674,0.002,0.003,1.057,0.420,-2.660,-0.700
1327.795255,0.003,0.005,1.060,-0.280,-2.590,-0.770
1327.815083,0.000,0.005,1.058,-0.910,-2.730,-0.770
1327.832733,0.001,0.002,1.055,-1.260,-2.940,-0.770
1327.852733,0.004,0.002,1.051,-0.490,-2.800,-0.910
1327.872709,0.003,0.005,1.049,1.610,-3.360,-0.910
1327.895653,-0.121,0.008,1.052,3.290,-4.340,-0.980
1327.916257,0.007,0.006,1.056,3.570,-3.430,-0.980
1327.937631,0.010,0.013,1.057,4.200,-3.220,-0.910
1327.95572,0.006,0.012,1.058,3.710,-3.150,-0.840
1327.975639,0.008,0.007,1.057,1.960,-2.520,-0.770
1327.99271,0.007,0.008,1.058,0.140,-1.400,-0.840
1328.017664,0.008,0.013,1.054,-0.770,-1.890,-0.770
1328.033634,0.007,0.015,1.049,-0.350,-2.240,-0.700
1328.055753,0.006,0.005,1.050,0.700,-2.310,-0.630
1328.076898,-0.000,0.005,1.054,0.840,-2.170,-0.630
1328.092752,0.004,0.005,1.054,0.490,-2.030,-0.770
1328.117673,0.004,0.004,1.053,0.770,-2.590,-0.770
1328.137659,0.002,0.005,1.054,1.330,-2.730,-0.840
1328.157646,0.006,0.008,1.055,1.050,-2.800,-0.770
1328.177608,0.006,0.009,1.057,0.630,-2.310,-0.840
1328.196684,0.003,0.006,1.053,0.350,-2.590,-0.980
1328.2161,0.007,0.004,1.051,1.330,-2.520,-0.700
1328.233219,0.006,0.001,1.063,-1.120,-1.820,-0.770
1328.256684,0.008,0.004,1.057,-0.140,-2.310,-0.700
1328.275247,0.001,0.009,1.049,-0.490,-2.240,-0.770
1328.295142,0.006,0.007,1.049,0.770,-2.030,-0.770
1328.315099,0.004,0.005,1.051,1.120,-2.380,-0.770
1328.336752,0.004,0.005,1.055,1.610,-2.450,-0.700
1328.357615,0.006,0.008,1.053,1.400,-2.520,-0.700
1328.377127,0.003,0.005,1.055,1.610,-2.660,-0.840
1328.395158,0.005,0.005,1.058,1.400,-2.310,-0.910
1328.41424,0.004,0.007,1.054,0.910,-2.870,-0.700
1328.432725,0.009,0.007,1.054,0.490,-1.960,-0.700
1328.452706,0.008,0.003,1.042,0.980,-1.820,-0.630
1328.475728,0.004,-0.000,1.052,1.610,-2.730,-0.840
1328.496673,0.003,0.006,1.051,2.380,-2.310,-0.490
1328.515251,0.008,0.008,1.053,3.150,-2.940,-0.840
1328.537602,-0.000,0.000,1.058,2.380,-3.220,-0.770
1328.555651,0.007,0.004,1.058,2.240,-2.800,-0.910
1328.577077,0.008,0.004,1.058,1.890,-2.730,-0.910
1328.597127,0.001,0.006,1.058,1.820,-3.640,-0.840
1328.617096,0.010,0.010,1.057,1.540,-2.100,-0.840
1328.635247,0.006,0.009,1.057,1.190,-2.520,-0.630
1328.655077,0.001,0.004,1.059,0.350,-2.450,-0.630
1328.675168,0.009,0.006,1.059,0.070,-1.820,-0.700
1328.697592,0.008,0.006,1.053,-0.210,-1.890,-0.490
1328.717123,0.016,0.005,1.051,0.840,-1.540,-0.770
1328.737172,0.009,0.007,1.051,2.170,-2.030,-0.770
1328.757147,0.003,0.000,1.051,2.100,-2.730,-0.700
1328.77524,0.006,0.001,1.056,0.910,-2.170,-0.770
1328.795165,0.002,0.005,1.053,0.490,-2.450,-0.840
1328.815096,0.001,0.008,1.052,1.190,-2.730,-0.770
1328.833242,0.006,0.004,1.053,1.540,-2.520,-0.770
1328.852721,0.006,0.004,1.053,1.400,-2.450,-0.770
1328.872697,0.004,0.004,1.056,1.190,-2.590,-0.770
1328.897588,0.004,0.005,1.056,0.910,-2.660,-0.770
1328.91776,0.001,0.007,1.055,0.700,-2.310,-0.770
1328.937562,0.007,0.007,1.057,0.490,-2.240,-0.840
1328.956691,0.004,0.004,1.055,0.770,-2.380,-0.840
1328.973249,0.004,0.004,1.053,0.910,-2.380,-0.770
1328.996088,0.005,0.005,1.052,1.120,-2.660,-0.840
1329.014241,0.005,0.005,1.053,1.540,-2.660,-0.700
1329.037631,0.004,0.007,1.053,1.610,-2.660,-0.770
1329.055741,0.004,0.008,1.057,1.540,-2.730,-0.770
1329.07312,0.004,0.008,1.058,1.050,-2.450,-0.700
1329.092717,0.004,0.006,1.055,0.770,-2.450,-0.770
1329.115165,0.004,0.006,1.055,0.280,-2.240,-0.770
1329.134236,0.007,0.006,1.055,0.210,-2.310,-0.770
1329.15688,0.003,0.006,1.055,0.630,-2.380,-0.840
1329.172701,0.005,0.003,1.051,0.840,-2.310,-0.700
1329.197664,0.006,0.004,1.057,0.840,-2.520,-0.700
1329.217637,0.003,0.008,1.058,0.910,-2.380,-0.770
1329.235736,0.005,0.007,1.056,1.050,-2.310,-0.630
1329.256243,0.007,0.007,1.054,1.120,-2.520,-0.770
1329.274243,0.004,0.005,1.057,1.260,-2.590,-0.770
1329.293211,0.004,0.006,1.055,1.050,-2.520,-0.700
1329.312694,0.005,0.005,1.057,0.560,-2.310,-0.700
1329.335653,0.005,0.007,1.056,0.350,-2.240,-0.700
1329.35537,0.003,0.004,1.055,0.420,-2.310,-0.770
1329.374233,0.006,0.004,1.052,0.840,-2.450,-0.770
1329.392695,0.004,0.004,1.054,1.190,-2.520,-0.770
1329.417646,0.009,0.005,1.057,1.190,-3.360,-0.840
1329.436234,-0.001,0.002,1.058,0.630,-3.290,-0.840
1329.454729,0.005,0.010,1.053,0.210,-2.380,-0.770
1329.477157,0.005,0.005,1.056,0.490,-2.590,-0.840
1329.497134,0.007,0.007,1.050,0.910,-2.380,-0.700
1329.515243,0.006,0.005,1.056,1.190,-2.170,-0.700
1329.537641,0.003,0.005,1.057,0.980,-2.730,-0.770
1329.557606,0.003,0.004,1.057,1.400,-2.800,-0.840
1329.577576,0.006,0.007,1.054,1.400,-2.730,-0.840
1329.597595,0.005,0.005,1.055,1.190,-2.660,-0.700
1329.61708,0.005,0.008,1.056,0.980,-2.450,-0.770
1329.636272,0.006,0.008,1.055,0.770,-2.450,-0.630
1329.655169,0.007,0.007,1.055,0.840,-2.450,-0.770
1329.67516,0.004,0.006,1.053,0.700,-2.380,-0.770
1329.693246,0.007,0.004,1.053,0.980,-2.520,-0.770
1329.713632,0.006,0.005,1.054,1.050,-2.450,-0.770
1329.732679,0.006,0.005,1.056,1.190,-2.520,-0.700
1329.757567,0.005,0.005,1.055,0.980,-2.520,-0.770
1329.777582,0.006,0.006,1.055,0.840,-2.520,-0.700
1329.797117,0.006,0.006,1.054,0.840,-2.380,-0.700
1329.814717,0.006,0.005,1.055,0.560,-2.590,-0.770
1329.83271,0.005,0.005,1.056,0.700,-2.450,-0.840
1329.852716,0.004,0.006,1.057,0.700,-2.310,-0.700
1329.872691,0.006,0.006,1.054,0.700,-2.310,-0.770
1329.897576,0.005,0.005,1.056,0.840,-2.240,-0.840
1329.912698,0.005,0.007,1.053,1.120,-2.520,-0.770
1329.936231,0.009,0.005,1.056,1.330,-1.890,-0.700
1329.955377,0.002,0.006,1.053,1.400,-2.450,-0.910
1329.975115,0.005,0.006,1.056,1.750,-2.800,-0.840
1329.997083,0.008,0.008,1.056,1.820,-2.590,-0.840
1330.013226,0.003,0.004,1.058,1.820,-2.940,-0.700
1330.03523,0.007,0.009,1.058,0.840,-2.380,-0.840
1330.055163,0.006,0.007,1.056,0.490,-2.520,-0.630
1330.0727,0.007,0.006,1.057,0.280,-2.170,-0.630
1330.092699,0.004,0.005,1.052,0.420,-2.380,-0.700
1330.112678,0.005,0.005,1.053,0.980,-2.520,-0.630
1330.133069,0.012,0.006,1.057,1.680,-1.890,-0.630
1330.152684,0.002,0.006,1.058,1.470,-2.660,-0.770
1330.17269,0.004,0.009,1.061,1.120,-3.430,-0.770
1330.197639,0.007,0.009,1.057,0.980,-2.940,-0.840
1330.212689,0.002,0.010,1.057,0.700,-2.730,-0.840
1330.237573,0.007,0.007,1.053,0.560,-2.240,-0.840
1330.256664,0.005,0.005,1.055,0.560,-2.590,-0.560
1330.272699,0.003,0.006,1.054,0.490,-2.590,-0.840
1330.294715,0.007,0.007,1.055,0.840,-2.380,-0.770
1330.312707,0.004,0.007,1.054,0.910,-2.520,-0.770
1330.337611,0.006,0.007,1.055,0.770,-2.380,-0.840
1330.355704,0.005,0.006,1.054,0.910,-2.380,-0.770
1330.372687,0.008,0.007,1.054,1.050,-2.590,-0.770
1330.397659,0.005,0.006,1.056,1.190,-2.450,-0.840
1330.413691,0.007,0.005,1.056,1.050,-2.380,-0.770
1330.432723,0.006,0.007,1.055,0.910,-2.450,-0.700
1330.45268,0.005,0.006,1.055,0.910,-2.520,-0.770
1330.47271,0.001,0.009,1.054,0.420,-2.170,-0.770
1330.492694,0.004,0.007,1.057,0.560,-2.730,-0.700
1330.517672,0.004,0.004,1.053,1.050,-1.890,-0.770
1330.536753,0.003,0.005,1.055,0.700,-2.380,-0.770
1330.55411,0.002,0.003,1.056,1.120,-2.590,-0.770
1330.572745,0.005,0.005,1.052,1.050,-2.520,-0.910
1330.592696,0.003,0.005,1.053,1.470,-2.590,-0.700
1330.612673,0.007,0.008,1.054,1.260,-2.590,-0.770
1330.637679,0.003,0.010,1.053,1.540,-2.380,-0.770
1330.655706,0.006,0.007,1.055,1.260,-2.380,-0.840
1330.672682,0.005,0.005,1.055,1.190,-2.310,-0.910
1330.697616,0.007,0.006,1.057,1.050,-2.450,-0.770
1330.717122,0.005,0.007,1.056,0.910,-2.590,-0.770
1330.737109,0.005,0.007,1.057,0.350,-2.240,-0.700
1330.754217,0.001,0.007,1.056,0.070,-2.240,-0.700
1330.776685,0.003,0.006,1.056,-0.070,-2.100,-0.840
1330.797641,0.004,0.007,1.057,0.350,-2.310,-0.770
1330.81269,0.006,0.006,1.053,0.700,-2.310,-0.700
1330.836862,0.003,0.006,1.055,1.190,-2.310,-0.770
1330.857051,0.000,0.005,1.053,1.400,-2.800,-0.840
1330.876227,0.005,0.004,1.055,1.610,-2.590,-0.770
1330.896107,0.003,0.003,1.057,1.400,-3.430,-0.840
1330.917561,0.007,0.005,1.056,2.380,-2.870,-0.840
1330.934218,0.007,0.006,1.056,1.190,-2.450,-0.840
1330.953222,0.012,0.008,1.054,0.980,-2.030,-0.910
1330.975685,0.002,0.011,1.050,1.400,-2.870,-0.910
1330.994143,0.009,0.008,1.052,2.100,-2.870,-0.770
1331.014118,0.007,0.006,1.055,2.170,-2.660,-0.770
1331.037621,0.007,0.007,1.054,1.750,-2.380,-0.700
1331.056671,0.010,0.010,1.053,1.400,-1.400,-0.700
1331.077061,0.004,0.008,1.055,1.330,-2.800,-0.700
1331.096114,0.009,0.001,1.057,0.140,-0.840,-0.700
1331.114105,0.003,0.004,1.053,-1.470,-1.120,-0.840
1331.137567,0.000,0.012,1.059,-1.890,-2.310,-0.980
1331.157581,0.011,0.016,1.053,-0.070,-1.820,-0.840
1331.177068,0.004,0.010,1.054,0.350,-2.100,-0.700
1331.194128,0.003,0.005,1.053,1.050,-2.310,-0.560
1331.217102,0.004,0.004,1.055,1.330,-2.450,-0.700
1331.237066,0.000,0.004,1.052,1.890,-2.800,-0.770
1331.25523,-0.004,0.006,1.056,1.260,-3.360,-0.700
1331.272675,-0.002,0.006,1.058,0.630,-2.730,-0.840
1331.29765,0.013,0.007,1.057,0.070,-2.100,-0.700
1331.316071,-0.016,0.008,1.055,-1.050,-3.360,-0.910
1331.337601,-0.010,0.006,1.056,-0.910,-3.080,-0.770
1331.357619,0.011,0.011,1.058,-0.630,-1.960,-0.980
1331.376691,0.004,0.015,1.053,1.120,-2.100,-0.910
1331.397634,-0.000,0.010,1.049,1.750,-2.450,-0.770
1331.417577,0.007,0.008,1.054,2.030,-2.590,-0.910
1331.43569,0.004,0.007,1.059,1.750,-3.010,-0.910
1331.457155,0.008,0.006,1.057,1.190,-2.730,-0.770
1331.477162,0.007,0.009,1.055,0.630,-2.450,-0.770
1331.497114,0.007,0.005,1.056,0.630,-2.660,-0.770
1331.515228,0.009,0.006,1.053,0.770,-2.380,-0.840
1331.537704,0.001,0.005,1.054,1.120,-2.940,-0.840
1331.557566,0.003,0.005,1.055,1.610,-2.590,-0.700
1331.573632,0.006,0.009,1.054,2.030,-2.660,-0.770
1331.594062,0.004,0.007,1.056,2.170,-3.010,-0.840
1331.612684,0.006,0.011,1.057,2.520,-2.660,-0.770
1331.635692,0.007,0.006,1.057,2.380,-2.800,-0.910
1331.652688,0.009,0.008,1.057,1.470,-2.380,-0.700
1331.675664,0.008,0.009,1.058,0.210,-2.100,-0.840
1331.697553,0.007,0.005,1.057,-1.050,-1.820,-0.630
1331.717126,0.007,0.007,1.056,-0.910,-1.890,-0.700
1331.737068,0.007,0.005,1.053,-0.910,-1.330,-0.630
1331.755223,0.005,0.003,1.053,-0.350,-1.820,-0.630
1331.775146,0.002,0.004,1.056,-0.070,-2.170,-0.700
1331.79514,0.002,0.005,1.051,0.770,-2.520,-0.700
1331.815074,0.002,0.004,1.052,1.260,-2.450,-0.840
1331.83322,0.004,0.008,1.050,2.800,-3.010,-0.840
1331.855222,0.003,0.004,1.053,3.500,-3.360,-0.980
1331.875102,0.006,0.006,1.058,3.710,-3.570,-0.770
1331.895144,0.008,0.007,1.059,2.800,-2.870,-0.770
1331.913104,0.011,0.009,1.059,1.540,-2.310,-0.700
1331.937605,0.006,0.013,1.057,0.350,-2.590,-0.700
1331.955691,0.007,0.007,1.060,-0.420,-1.260,-0.840
1331.976653,-0.004,0.000,1.061,0.070,-3.150,-0.630
1331.996213,0.008,0.004,1.063,-1.960,-1.610,-0.910
1332.0151,0.006,0.009,1.052,-1.190,-1.890,-0.910
1332.03412,0.001,0.013,1.051,0.770,-2.590,-0.770
1332.054118,0.004,0.013,1.056,1.050,-2.240,-0.910
1332.072697,0.004,0.009,1.057,1.330,-2.660,-0.700
1332.092694,0.007,0.010,1.058,0.490,-1.890,-0.840
1332.114224,0.002,0.011,1.056,0.210,-2.520,-0.770
1332.134211,0.007,0.005,1.054,0.140,-2.100,-0.700
1332.152691,0.007,0.005,1.054,0.560,-2.170,-0.700
1332.17267,0.003,0.007,1.054,0.560,-2.450,-0.770
1332.19765,-0.005,0.003,1.054,0.700,-2.170,-0.770
1332.215627,0.009,0.001,1.047,2.380,-2.730,-0.700
1332.232676,0.008,-0.008,1.058,0.840,-3.080,-0.840
1332.256725,0.007,0.005,1.057,0.770,-1.750,-0.700
1332.277611,-0.002,0.006,1.050,1.050,-2.660,-0.770
1332.29763,0.005,0.005,1.053,1.610,-2.660,-0.910
1332.312678,0.007,0.006,1.053,1.820,-2.730,-0.840
1332.337593,0.004,0.008,1.054,1.330,-2.800,-0.840
1332.357626,0.010,0.006,1.057,0.770,-2.520,-0.770
1332.377136,0.005,0.006,1.055,0.210,-2.590,-0.700
1332.396717,0.005,0.008,1.054,0.140,-2.030,-0.770
1332.412671,0.008,0.007,1.054,0.000,-2.030,-0.700
1332.437603,0.003,0.005,1.054,0.560,-2.240,-0.770
1332.457588,0.003,0.005,1.056,0.700,-2.450,-0.770
1332.477604,0.003,0.005,1.056,1.330,-2.450,-0.700
1332.495667,0.004,0.005,1.056,1.190,-2.520,-0.700
1332.515642,0.002,0.006,1.056,1.260,-2.520,-0.770
1332.537618,0.005,0.006,1.051,1.260,-1.820,-0.770
1332.557636,0.017,0.004,1.054,1.960,-1.960,-0.910
1332.574697,0.008,0.012,1.048,3.150,-2.660,-0.770
1332.592689,-0.001,-0.001,1.053,2.800,-3.360,-0.770
1332.612662,0.011,0.004,1.058,1.820,-2.450,-0.840
1332.636846,0.006,0.006,1.057,1.680,-3.010,-0.770
1332.652682,0.002,0.008,1.051,1.400,-3.080,-0.770
1332.672658,0.008,0.006,1.056,1.330,-2.380,-0.840
1332.695633,0.005,0.009,1.055,1.120,-2.520,-0.700
1332.71709,0.005,0.008,1.057,0.770,-2.450,-0.700
1332.736132,0.004,0.009,1.057,0.490,-2.380,-0.770
1332.754204,0.007,0.008,1.054,0.490,-2.310,-0.840
1332.774104,0.003,0.008,1.057,0.560,-2.240,-0.910
1332.794067,0.005,0.006,1.056,0.770,-2.590,-0.700
1332.812674,0.005,0.008,1.056,0.770,-2.520,-0.770
1332.837582,0.005,0.008,1.055,0.770,-2.170,-0.770
1332.857549,0.003,0.006,1.055,1.190,-2.590,-0.700
1332.876642,0.006,0.005,1.055,1.190,-2.310,-0.910
1332.897063,0.002,0.005,1.056,1.260,-2.870,-0.700
1332.915074,0.005,0.008,1.057,0.490,-2.520,-0.770
1332.937537,0.009,0.009,1.053,-0.280,-2.310,-0.700
1332.955611,0.004,0.011,1.055,-0.280,-2.380,-0.840
1332.972683,0.009,0.007,1.050,0.630,-2.450,-0.770
1332.99562,0.007,0.006,1.053,0.980,-2.590,-0.840
1333.016217,0.008,0.007,1.054,1.540,-2.590,-0.840
1333.037643,0.008,0.008,1.056,1.470,-2.520,-0.840
1333.057605,0.005,0.008,1.055,1.400,-2.800,-0.840
1333.077623,0.004,0.007,1.059,1.190,-2.450,-0.770
1333.097623,0.005,0.008,1.056,0.980,-2.450,-0.840
1333.116714,0.006,0.009,1.057,0.700,-2.520,-0.840
1333.134207,0.007,0.007,1.056,0.350,-2.240,-0.700
1333.153344,0.004,0.007,1.056,0.560,-2.380,-0.840
1333.172652,0.003,0.007,1.053,0.840,-2.520,-0.700
1333.192681,0.005,0.007,1.054,1.190,-2.730,-0.770
1333.217591,0.006,0.007,1.055,1.190,-2.380,-0.770
1333.23758,0.002,0.007,1.055,0.910,-3.010,-0.840
1333.257553,0.005,0.006,1.055,1.260,-2.310,-0.560
1333.272657,0.005,0.004,1.056,1.050,-2.170,-0.700
1333.29758,0.006,0.006,1.055,0.700,-2.730,-0.770
1333.317596,0.007,0.005,1.055,0.980,-2.380,-0.770
1333.337607,0.004,0.008,1.052,1.120,-2.660,-0.700
1333.357599,0.004,0.010,1.055,0.840,-2.520,-0.770
1333.373679,0.007,0.008,1.057,0.630,-2.240,-0.700
1333.394087,0.003,0.007,1.055,0.350,-1.680,-0.420
1333.414104,0.006,0.006,1.055,0.490,-2.240,-0.770
1333.43759,0.009,0.007,1.054,0.840,-2.030,-0.770
1333.456711,0.003,0.008,1.052,0.980,-2.520,-0.770
1333.475622,0.005,0.007,1.054,0.910,-2.380,-0.840
1333.497051,0.007,0.008,1.057,0.770,-2.590,-0.840
1333.514207,0.003,0.008,1.054,0.980,-2.520,-0.910
1333.536882,0.009,0.008,1.055,1.050,-2.520,-0.910
1333.554105,0.000,0.007,1.056,0.560,-2.730,-0.840
1333.575674,0.004,0.005,1.056,0.280,-2.520,-0.770
1333.597501,0.011,0.006,1.054,0.840,-2.450,-0.840
1333.617093,0.005,0.004,1.049,1.540,-3.080,-0.700
1333.634177,0.010,0.008,1.055,1.750,-2.590,-0.770
1333.656693,0.004,0.007,1.054,1.190,-2.870,-0.840
1333.677549,0.006,0.008,1.057,0.910,-2.030,-0.630
1333.692672,0.009,0.007,1.055,0.770,-1.820,-0.840
1333.717584,0.003,0.010,1.054,0.700,-2.520,-0.770
1333.736688,0.009,0.008,1.054,0.910,-1.960,-0.840
1333.755687,-0.004,0.007,1.054,0.770,-3.010,-0.700
1333.776631,0.011,0.007,1.057,1.050,-1.960,-0.770
1333.796131,0.006,0.008,1.057,0.420,-2.310,-0.700
1333.813213,0.002,0.008,1.056,0.490,-2.730,-0.770
1333.832648,0.009,0.007,1.054,0.490,-2.240,-0.700
1333.853039,0.005,0.009,1.054,0.280,-2.170,-0.840
1333.873102,0.001,0.010,1.053,0.140,-2.660,-0.840
1333.892647,0.010,0.008,1.056,0.910,-2.170,-0.700
1333.912677,0.003,0.006,1.054,1.050,-2.520,-0.770
1333.937538,0.006,0.005,1.055,1.260,-2.520,-0.770
1333.955634,0.003,0.004,1.057,1.120,-2.730,-0.910
1333.97713,0.002,0.006,1.055,1.330,-3.010,-0.700
1333.995052,0.001,0.003,1.057,0.910,-2.660,-0.840
1334.012643,0.005,0.007,1.057,0.140,-2.170,-0.840
1334.035633,0.003,0.004,1.054,0.350,-2.450,-0.840
1334.056058,0.007,0.007,1.052,0.910,-2.310,-0.910
1334.076127,0.002,0.007,1.053,1.400,-2.660,-0.700
1334.096094,0.005,0.008,1.053,1.260,-2.520,-0.770
1334.113046,0.004,0.008,1.057,0.910,-2.380,-0.770
1334.134865,0.010,0.007,1.057,1.120,-1.890,-0.770
1334.157087,0.004,0.007,1.054,0.700,-2.590,-0.770
1334.175136,0.008,0.009,1.055,1.120,-2.520,-0.770
1334.195186,0.007,0.008,1.056,1.610,-2.380,-0.840
1334.212672,0.004,0.008,1.054,1.540,-2.660,-0.840
1334.237543,0.006,0.007,1.056,1.260,-2.520,-0.770
1334.252675,0.009,0.008,1.057,1.470,-2.450,-0.770
1334.274197,0.008,0.010,1.055,0.840,-2.450,-0.840
1334.294056,0.002,0.009,1.057,0.980,-2.520,-0.840
1334.317081,0.004,0.008,1.057,0.560,-2.240,-0.770
1334.337046,0.005,0.007,1.054,0.700,-2.450,-0.840
1334.356209,0.007,0.007,1.058,0.910,-2.310,-0.770
1334.376688,0.005,0.007,1.055,1.120,-2.660,-0.770
1334.397541,0.005,0.007,1.057,0.840,-2.450,-0.770
1334.412659,0.006,0.007,1.055,0.560,-2.240,-0.700
1334.436839,0.005,0.007,1.057,0.420,-2.380,-0.770
1334.45264,0.005,0.006,1.057,0.420,-2.310,-0.770
1334.472707,0.005,0.005,1.054,0.630,-2.240,-0.840
1334.497551,0.006,0.008,1.055,0.910,-2.520,-0.840
1334.517536,0.004,0.007,1.054,1.050,-2.590,-0.840
1334.534188,0.007,0.007,1.055,0.910,-2.520,-0.910
1334.557591,0.004,0.007,1.055,0.910,-2.450,-0.700
1334.577612,0.006,0.007,1.056,0.980,-2.380,-0.840
1334.597119,0.004,0.008,1.057,0.840,-2.450,-0.770
1334.617567,0.004,0.007,1.057,0.840,-2.450,-0.770
1334.6352,0.006,0.008,1.055,0.840,-2.520,-0.770
1334.655032,0.005,0.008,1.055,1.120,-2.520,-0.770
1334.673113,0.006,0.007,1.057,0.980,-2.520,-0.770
1334.696076,0.006,0.006,1.056,1.050,-2.590,-0.770
1334.713203,0.000,0.005,1.057,0.980,-2.520,-0.840
1334.737541,0.005,0.005,1.056,0.840,-2.450,-0.770
1334.757544,0.008,0.007,1.056,0.700,-2.380,-0.770
1334.7776,0.005,0.008,1.055,0.910,-2.590,-0.770
1334.797077,0.009,0.008,1.055,1.120,-2.450,-0.840
1334.812651,0.004,0.006,1.055,1.120,-2.450,-0.770
1334.836666,0.004,0.007,1.055,1.400,-2.660,-0.700
1334.857549,0.006,0.008,1.059,0.840,-2.380,-0.770
1334.877552,0.005,0.006,1.059,0.420,-2.450,-0.770
1334.897106,0.005,0.006,1.054,0.420,-2.310,-0.700
1334.916687,0.005,0.008,1.053,0.560,-2.240,-0.840
1334.93411,0.005,0.006,1.054,0.840,-2.380,-0.910
1334.954045,0.003,0.007,1.056,1.120,-2.520,-0.910
1334.972666,0.006,0.009,1.056,1.330,-2.520,-0.770
1334.997548,0.005,0.008,1.051,0.980,-2.520,-0.770
1335.012642,0.005,0.009,1.055,1.050,-2.520,-0.840
1335.036842,0.006,0.007,1.054,0.980,-2.520,-0.840
1335.057039,0.005,0.008,1.056,1.120,-2.590,-0.770
1335.077036,0.006,0.007,1.055,1.050,-2.520,-0.700
1335.097093,0.005,0.008,1.055,0.980,-2.590,-0.770
1335.113193,0.003,0.003,1.054,1.190,-2.520,-0.770
1335.134044,0.006,0.008,1.056,1.400,-2.730,-0.910
1335.154122,0.005,0.008,1.057,0.840,-2.590,-0.770
1335.177539,0.006,0.008,1.056,0.280,-2.450,-0.770
1335.197123,0.006,0.007,1.057,0.140,-2.240,-0.700
1335.217572,0.004,0.008,1.054,0.210,-2.240,-0.770
1335.234208,0.004,0.007,1.052,0.490,-2.380,-0.840
1335.254028,0.003,0.007,1.056,0.700,-2.520,-0.700
1335.272643,0.006,0.008,1.055,1.050,-2.380,-0.700
1335.29756,0.006,0.009,1.053,1.120,-2.520,-0.770
1335.317531,0.004,0.007,1.056,1.330,-2.590,-0.700
1335.337082,0.004,0.006,1.056,1.260,-2.520,-0.770
1335.357035,0.006,0.007,1.055,0.910,-2.240,-0.770
1335.376195,0.006,0.012,1.054,1.400,-2.590,-0.840
1335.396125,0.006,0.006,1.053,1.540,-2.450,-0.630
1335.417525,0.006,0.006,1.056,1.680,-2.660,-0.770
1335.432658,0.007,0.005,1.055,1.260,-2.590,-0.770
1335.452657,0.003,0.006,1.053,1.260,-2.730,-0.770
1335.472668,0.009,0.009,1.055,1.260,-2.590,-0.700
1335.497582,0.006,0.009,1.057,0.840,-2.310,-0.840
1335.516604,0.006,0.008,1.055,0.700,-2.450,-0.770
1335.532645,0.008,0.009,1.055,0.560,-2.380,-0.770
1335.55569,0.009,0.010,1.060,0.140,-1.960,-0.700
1335.572663,0.003,0.007,1.056,-0.490,-2.030,-0.630
1335.597575,0.006,0.007,1.056,-0.350,-1.750,-0.630
1335.617588,0.004,0.004,1.053,-0.490,-2.310,-0.840
1335.6376,0.002,0.004,1.049,0.280,-2.450,-0.770
1335.65759,0.007,0.006,1.050,1.400,-2.940,-0.910
1335.677614,0.004,0.006,1.051,2.100,-3.220,-0.840
1335.696658,0.004,0.007,1.056,2.520,-3.150,-0.910
1335.712644,0.010,0.010,1.060,2.660,-2.240,-0.700
1335.732648,0.011,0.009,1.057,2.450,-2.800,-0.770
1335.757522,-0.001,0.010,1.057,1.610,-2.730,-0.910
1335.77754,0.008,0.007,1.054,1.820,-3.080,-0.840
1335.792661,0.006,0.011,1.057,1.890,-3.220,-0.840
1335.81267,0.006,0.010,1.058,2.170,-3.360,-0.910
1335.832651,0.008,0.013,1.061,1.960,-2.800,-0.840
1335.852664,0.009,0.013,1.058,1.540,-2.450,-0.770
1335.877575,0.010,0.011,1.058,0.770,-2.240,-0.700
1335.895638,0.008,0.009,1.058,-0.140,-2.030,-0.630
1335.914072,0.009,0.009,1.057,-0.840,-1.400,-0.630
1335.937578,0.003,0.008,1.056,-1.540,-1.750,-0.630
1335.957606,0.003,0.006,1.055,-1.540,-1.890,-0.770
1335.976685,0.007,0.005,1.053,-0.910,-2.100,-0.700
1335.99754,0.004,0.006,1.053,0.280,-2.310,-0.770
1336.017528,0.002,0.004,1.052,1.400,-2.660,-0.840
1336.035616,0.003,0.009,1.054,1.820,-2.870,-0.910
1336.056071,0.005,0.007,1.057,2.170,-2.870,-0.910
1336.076591,0.005,0.008,1.055,2.030,-2.870,-0.840
1336.093108,0.006,0.009,1.056,1.610,-2.870,-0.770
1336.112651,0.008,0.008,1.057,1.470,-2.660,-0.770
1336.137538,0.005,0.007,1.057,0.700,-2.520,-0.770
1336.155605,0.006,0.008,1.056,0.420,-2.450,-0.840
1336.176023,0.007,0.008,1.052,0.840,-2.520,-0.770
1336.192648,0.004,0.008,1.054,0.840,-2.450,-0.840
1336.217566,0.006,0.009,1.057,1.190,-2.730,-0.840
1336.237556,0.008,0.009,1.053,1.190,-2.660,-0.770
1336.253576,0.007,0.008,1.056,1.190,-2.450,-0.770
1336.277595,0.009,0.008,1.054,1.050,-2.520,-0.770
1336.294671,0.004,0.008,1.054,0.980,-2.380,-0.700
1336.31269,0.007,0.009,1.055,0.840,-2.310,-0.700
1336.33559,0.007,0.008,1.055,0.490,-2.240,-0.770
1336.354194,0.006,0.008,1.057,0.700,-2.310,-0.770
1336.377543,0.007,0.008,1.056,0.350,-2.310,-0.840
1336.397038,0.004,0.007,1.057,0.280,-2.240,-0.770
1336.416677,0.007,0.009,1.057,0.210,-2.170,-0.770
1336.435066,0.006,0.007,1.054,0.490,-2.240,-0.700
1336.454277,0.005,0.008,1.054,0.770,-2.450,-0.840
1336.47711,0.006,0.007,1.056,1.120,-2.520,-0.840
1336.497075,0.005,0.008,1.056,1.120,-2.590,-0.770
1336.514039,0.007,0.007,1.056,1.120,-2.450,-0.770
1336.534064,0.007,0.008,1.057,1.190,-2.590,-0.840
1336.557559,0.007,0.007,1.055,0.980,-2.590,-0.840
1336.577586,0.005,0.007,1.055,0.840,-2.590,-0.840
1336.59757,0.005,0.009,1.055,0.770,-2.380,-0.770
1336.617531,0.003,0.007,1.055,0.980,-2.450,-0.840
1336.637582,0.005,0.009,1.052,1.680,-2.380,-0.840
1336.657079,0.005,0.007,1.054,1.680,-2.730,-0.700
1336.674186,0.004,0.010,1.058,1.260,-2.520,-0.840
1336.693113,0.005,0.010,1.057,0.770,-2.310,-0.770
1336.71266,0.004,0.007,1.055,0.630,-2.310,-0.700
1336.732622,0.006,0.008,1.054,0.630,-2.100,-0.630
1336.752657,0.004,0.007,1.054,0.910,-2.520,-0.770
1336.774678,0.001,0.008,1.052,1.330,-2.520,-0.700
1336.79267,0.005,0.007,1.052,1.890,-2.800,-0.910
1336.817588,0.005,0.008,1.056,2.030,-2.730,-0.840
1336.834747,0.003,0.011,1.057,1.960,-2.660,-0.910
1336.857027,0.005,0.010,1.056,1.400,-2.590,-0.770
1336.877096,0.005,0.010,1.057,0.630,-2.380,-0.770
1336.895192,0.004,0.008,1.058,0.070,-2.170,-0.700
1336.912642,0.006,0.009,1.054,-0.210,-2.100,-0.770
1336.932628,0.007,0.006,1.054,0.070,-2.100,-0.840
1336.953651,0.009,0.013,1.050,0.700,-2.240,-0.910
1336.972644,0.004,0.008,1.053,1.540,-2.800,-0.770
1336.997564,0.009,0.009,1.054,0.630,-2.520,-0.910
1337.01419,0.006,0.009,1.058,1.190,-2.590,-0.700
1337.03667,0.007,0.008,1.054,0.770,-2.450,-0.770
1337.054059,0.008,0.009,1.057,0.560,-2.450,-0.700
1337.077576,0.008,0.009,1.055,0.630,-2.170,-0.700
1337.097567,0.006,0.008,1.051,0.420,-2.450,-0.700
1337.117557,0.008,0.007,1.056,0.490,-2.030,-0.770
1337.137532,0.005,0.010,1.054,0.210,-2.170,-0.630
1337.157534,0.008,0.005,1.053,0.210,-2.170,-0.700
1337.175586,0.006,0.006,1.052,0.140,-2.100,-0.700
1337.195183,0.005,0.008,1.053,0.560,-2.380,-0.700
1337.212648,0.004,0.004,1.052,1.190,-2.520,-0.630
1337.237053,0.009,0.008,1.057,1.680,-2.030,-0.910
1337.255182,0.005,0.010,1.052,2.310,-2.730,-0.700
1337.272639,0.005,0.004,1.057,2.310,-2.940,-0.840
1337.297591,0.005,0.004,1.055,1.400,-2.590,-0.840
1337.314686,0.006,0.005,1.056,1.190,-2.660,-0.840
1337.335589,0.004,0.006,1.053,1.260,-2.660,-0.840
1337.35757,0.006,0.007,1.054,0.980,-2.660,-0.910
1337.376666,0.007,0.008,1.054,1.050,-2.730,-0.840
1337.397512,0.010,0.007,1.055,1.750,-2.450,-0.840
1337.416061,0.008,0.008,1.055,1.680,-2.450,-0.630
1337.435209,0.006,0.008,1.059,1.330,-2.380,-0.700
1337.452615,0.005,0.007,1.060,0.560,-1.960,-0.630
1337.477562,0.002,0.005,1.056,0.140,-2.380,-0.840
1337.495629,0.008,0.007,1.053,0.350,-2.100,-0.700
1337.517516,0.005,0.005,1.049,1.330,-2.380,-0.770
1337.537554,0.005,0.003,1.052,2.170,-2.450,-0.700
1337.556665,0.006,0.006,1.056,2.030,-2.520,-0.630
1337.577011,0.005,0.003,1.057,1.540,-2.800,-0.770
1337.595059,0.002,0.007,1.058,0.910,-2.520,-0.840
1337.613049,0.000,0.003,1.055,0.980,-4.410,-0.770
1337.636653,0.008,0.002,1.059,0.000,-2.030,-0.770
1337.657071,-0.003,0.006,1.055,1.260,-3.290,-0.770
1337.675577,0.003,0.009,1.055,0.910,-2.730,-0.770
1337.69709,0.002,0.005,1.053,1.190,-2.730,-0.770
1337.717073,0.000,0.004,1.054,1.470,-2.940,-0.770
1337.737138,0.005,0.004,1.056,1.120,-2.730,-0.910
1337.757095,0.005,0.008,1.057,1.330,-2.660,-0.910
1337.777546,0.003,0.008,1.054,1.120,-2.590,-0.840
1337.797542,0.006,0.007,1.054,1.190,-2.730,-0.770
1337.817576,0.012,0.009,1.055,1.120,-2.520,-0.980
1337.835673,0.004,0.010,1.053,0.770,-2.870,-0.840
1337.857525,0.009,0.013,1.057,0.490,-0.560,-0.910
1337.877531,0.010,0.017,1.057,0.700,-3.150,-0.770
1337.892615,-0.004,0.008,1.050,1.820,-3.220,-0.770
1337.917564,-0.002,0.006,1.059,0.630,-2.520,-0.770
1337.937556,0.014,0.009,1.055,0.560,-1.400,-0.700
1337.955665,-0.002,0.008,1.052,-0.070,-2.590,-0.770
1337.976643,0.004,0.006,1.056,0.490,-1.890,-0.840
1337.997064,0.003,0.007,1.055,0.840,-2.730,-0.700
1338.014171,0.000,0.007,1.057,0.980,-2.590,-0.700
1338.034051,0.010,0.007,1.057,0.350,-2.030,-0.770
1338.052624,0.005,0.006,1.057,0.000,-1.960,-0.770
1338.076683,0.004,0.007,1.054,-0.140,-2.100,-0.770
1338.094642,0.003,0.009,1.053,0.210,-2.240,-0.700
1338.117013,0.003,0.008,1.053,0.490,-2.170,-0.840
1338.135173,0.001,0.007,1.053,1.330,-2.310,-0.910
1338.155013,0.002,0.005,1.056,1.260,-2.590,-0.770
1338.174175,0.002,0.006,1.058,1.260,-3.010,-0.840
1338.192652,0.004,0.009,1.057,1.540,-2.730,-0.840
1338.216606,0.006,0.007,1.056,0.560,-2.520,-0.770
1338.234018,0.006,0.007,1.057,0.350,-2.310,-0.840
1338.2541,0.007,0.007,1.054,0.560,-2.310,-0.770
1338.27755,0.002,0.005,1.051,0.910,-2.450,-0.770
1338.297538,0.006,0.005,1.053,1.330,-2.660,-0.840
1338.317578,0.005,0.006,1.053,1.540,-2.730,-0.770
1338.337562,0.004,0.008,1.057,1.470,-2.730,-0.840
1338.357582,0.005,0.009,1.058,1.260,-2.730,-0.840
1338.375645,0.005,0.006,1.055,1.120,-2.520,-0.700
1338.396624,0.007,0.008,1.056,0.630,-2.520,-0.700
1338.412637,0.007,0.009,1.056,0.980,-2.310,-0.700
1338.437501,0.010,0.007,1.051,0.700,-2.310,-0.700
1338.455569,0.007,0.007,1.054,1.120,-2.380,-0.700
1338.477095,0.004,0.008,1.052,1.260,-2.590,-0.910
1338.497053,0.006,0.006,1.055,1.190,-2.660,-0.840
1338.516084,0.006,0.009,1.057,0.840,-2.520,-0.770
1338.534199,0.007,0.007,1.057,0.490,-2.380,-0.700
1338.55317,0.003,0.008,1.054,0.630,-2.450,-0.700
1338.573013,0.006,0.007,1.053,0.700,-2.310,-0.700
1338.592627,0.005,0.007,1.054,0.840,-2.450,-0.700
1338.617564,0.004,0.007,1.056,1.190,-2.660,-0.840
1338.637579,0.004,0.007,1.056,1.260,-2.660,-0.840
1338.657566,0.005,0.007,1.056,1.190,-2.590,-0.770
1338.677591,0.005,0.007,1.055,1.050,-2.590,-0.840
1338.697575,0.004,0.005,1.054,1.050,-2.520,-0.910
1338.713565,0.005,0.005,1.055,1.260,-2.730,-0.840
1338.73753,0.009,0.007,1.057,1.680,-2.730,-0.840
1338.757493,0.006,0.008,1.056,1.750,-2.940,-0.770
1338.777518,0.006,0.009,1.055,1.820,-2.940,-0.770
1338.792638,0.005,0.009,1.055,1.610,-2.730,-0.770
1338.817549,0.009,0.007,1.057,1.260,-2.730,-0.770
1338.837543,0.004,0.008,1.059,0.910,-2.800,-0.630
1338.857557,0.004,0.007,1.056,0.840,-2.730,-0.770
1338.875626,0.007,0.009,1.057,0.560,-2.590,-0.910
1338.897512,0.009,0.010,1.057,0.770,-2.590,-0.700
1338.917099,0.006,0.007,1.055,0.840,-2.590,-0.840
1338.937049,0.013,0.007,1.056,0.630,-2.030,-0.840
1338.957005,0.004,0.011,1.054,0.630,-3.010,-0.840
1338.9771,0.005,0.015,1.055,0.420,-1.960,-0.700
1338.997014,0.014,0.009,1.055,0.490,-1.960,-0.490
1339.012615,0.003,0.001,1.060,0.210,-2.170,-0.700
1339.037582,0.002,0.003,1.057,-0.700,-2.450,-0.630
1339.054659,0.005,0.007,1.051,-0.350,-2.380,-0.630
1339.072679,0.006,0.006,1.051,0.770,-2.660,-0.700
1339.092623,0.005,0.008,1.053,1.400,-2.590,-0.770
1339.112622,0.006,0.006,1.056,1.470,-2.730,-0.770
1339.132644,0.007,0.009,1.057,1.400,-2.660,-0.700
1339.157548,0.009,0.006,1.057,1.190,-2.450,-0.840
1339.176626,0.006,0.009,1.056,0.770,-2.520,-0.770
1339.197572,0.005,0.007,1.053,0.490,-2.450,-0.700
1339.217079,0.005,0.007,1.051,0.840,-2.450,-0.770
1339.236193,0.004,0.006,1.054,1.120,-2.590,-0.770
1339.255161,0.008,0.008,1.053,1.540,-2.170,-0.840
1339.276653,0.009,0.009,1.055,2.170,-2.380,-0.700
1339.297527,0.004,0.008,1.057,1.820,-2.730,-0.770
1339.317549,0.006,0.006,1.055,1.400,-2.520,-0.840
1339.337554,0.006,0.007,1.054,1.260,-2.450,-0.840
1339.357558,0.003,0.009,1.052,0.980,-2.520,-0.770
1339.376646,0.006,0.008,1.058,0.910,-2.450,-0.700
1339.394057,0.005,0.006,1.055,0.770,-2.520,-0.910
1339.41708,0.006,0.008,1.056,0.560,-2.380,-0.700
1339.435152,0.004,0.007,1.056,-0.140,-2.450,-0.770
1339.455083,0.003,0.013,1.054,-0.140,-2.240,-0.630
1339.477078,0.004,0.009,1.054,0.000,-2.170,-0.770
1339.497052,0.002,0.009,1.053,0.490,-2.520,-0.770
1339.514008,0.006,0.008,1.054,1.050,-2.450,-0.770
1339.535828,0.006,0.008,1.055,1.050,-2.310,-0.840
1339.553052,0.008,0.008,1.055,1.470,-2.240,-0.840
1339.577531,0.004,0.007,1.055,1.330,-2.870,-0.910
1339.59263,0.008,0.009,1.056,1.190,-2.310,-0.840
1339.612608,0.007,0.010,1.054,0.840,-2.380,-0.770
1339.637593,0.006,0.008,1.055,0.840,-2.310,-0.840
1339.654629,0.009,0.008,1.054,1.120,-2.380,-0.840
1339.676,0.004,0.008,1.057,0.910,-2.730,-0.770
1339.696058,0.005,0.009,1.057,0.840,-2.800,-0.630
1339.716046,0.007,0.011,1.058,0.490,-2.100,-0.630
1339.732631,0.005,0.011,1.057,0.280,-2.030,-0.770
1339.752634,0.008,0.012,1.055,0.070,-2.170,-0.700
1339.77261,0.008,0.004,1.053,0.070,-2.100,-0.770
1339.797495,0.007,0.007,1.053,0.630,-2.240,-0.840
1339.817082,0.005,0.008,1.055,0.910,-2.310,-0.840
1339.836166,0.003,0.007,1.053,0.980,-2.450,-0.770
1339.855162,0.004,0.008,1.058,1.190,-2.520,-0.700
1339.877505,0.005,0.009,1.057,0.980,-2.520,-0.770
1339.895761,0.004,0.008,1.056,1.050,-2.590,-0.840
1339.917567,0.004,0.008,1.057,0.840,-2.520,-0.770
1339.937089,0.003,0.009,1.056,0.910,-2.520,-0.700
1339.957005,0.005,0.007,1.053,0.770,-2.450,-0.770
1339.976162,0.008,0.008,1.055,0.840,-2.520,-0.840
1339.994069,0.005,0.008,1.055,1.050,-2.520,-0.770
1340.016656,0.006,0.008,1.058,0.910,-2.520,-0.840
1340.037561,0.006,0.009,1.057,0.700,-2.450,-0.770
1340.05557,0.005,0.007,1.055,0.560,-2.380,-0.840
1340.076082,0.006,0.008,1.055,0.910,-2.450,-0.700
1340.096019,0.005,0.007,1.055,1.050,-2.590,-0.840
1340.113155,0.008,0.008,1.055,1.260,-2.590,-0.700
1340.135748,0.007,0.006,1.056,1.470,-2.660,-0.770
1340.153626,0.006,0.006,1.057,1.400,-2.660,-0.840
1340.175993,0.006,0.009,1.056,0.910,-2.380,-0.700
1340.197566,0.006,0.007,1.057,0.700,-2.450,-0.770
1340.217475,0.006,0.006,1.055,0.490,-2.380,-0.840
1340.237087,0.006,0.007,1.055,0.560,-2.240,-0.630
1340.254162,0.005,0.007,1.053,0.770,-2.520,-0.840
1340.272608,0.004,0.006,1.055,0.700,-2.380,-0.770
1340.292626,0.005,0.009,1.055,0.630,-2.520,-0.770
1340.317539,0.007,0.008,1.053,1.050,-2.380,-0.840
1340.332634,0.006,0.007,1.054,0.980,-2.380,-0.770
1340.352618,0.005,0.007,1.056,0.700,-2.380,-0.770
1340.374625,0.004,0.007,1.054,0.490,-2.310,-0.840
1340.395999,0.005,0.007,1.056,0.630,-2.380,-0.840
1340.415044,0.008,0.006,1.055,0.840,-2.380,-0.840
1340.434075,0.006,0.007,1.052,1.330,-2.800,-0.770
1340.454048,0.003,0.008,1.057,1.610,-2.800,-0.700
1340.477505,0.006,0.007,1.055,1.540,-2.730,-0.840
1340.496614,0.006,0.007,1.056,1.540,-2.590,-0.700
1340.5126,0.006,0.007,1.053,1.610,-2.660,-0.700
1340.537598,0.004,0.007,1.055,1.820,-2.870,-0.770
1340.554647,0.008,0.008,1.058,1.960,-2.730,-0.770
1340.57264,0.007,0.009,1.053,1.820,-2.660,-0.770
1340.597047,0.007,0.007,1.057,1.470,-2.590,-0.840
1340.617522,0.009,0.010,1.054,1.120,-2.450,-0.770
1340.634147,0.004,0.010,1.055,0.840,-2.450,-0.840
1340.654075,0.005,0.009,1.054,0.560,-2.450,-0.700
1340.672614,0.006,0.009,1.055,0.420,-2.380,-0.840
1340.697501,0.006,0.010,1.054,0.350,-2.310,-0.770
1340.717087,0.008,0.008,1.056,0.840,-2.450,-0.840
1340.736166,0.005,0.008,1.054,1.120,-2.520,-0.770
1340.756028,0.006,0.009,1.057,1.190,-2.590,-0.840
1340.776663,0.006,0.008,1.056,0.980,-2.450,-0.910
1340.794635,0.005,0.009,1.055,0.630,-2.310,-0.700
1340.812628,0.008,0.009,1.056,0.700,-2.310,-0.840
1340.837533,0.006,0.007,1.054,0.560,-2.380,-0.840
1340.855617,0.005,0.009,1.054,0.700,-2.450,-0.840
1340.877473,0.008,0.007,1.051,0.980,-2.310,-0.770
1340.8926,0.005,0.007,1.055,0.980,-2.450,-0.770
1340.917561,0.004,0.008,1.055,0.910,-2.380,-0.770
1340.934174,0.005,0.008,1.055,0.840,-2.310,-0.770
1340.954001,0.005,0.007,1.055,0.770,-2.380,-0.770
1340.972618,0.005,0.009,1.055,0.910,-2.450,-0.700
1340.992618,0.006,0.006,1.052,1.260,-2.590,-0.840
1341.017594,0.007,0.007,1.055,1.400,-2.660,-0.770
1341.037552,0.007,0.008,1.057,1.190,-2.590,-0.770
1341.057543,0.005,0.007,1.054,1.050,-2.590,-0.770
1341.07564,0.005,0.007,1.054,0.910,-2.380,-0.840
1341.097661,0.005,0.007,1.056,0.770,-2.450,-0.770
1341.116993,0.006,0.008,1.057,1.050,-2.450,-0.700
1341.136065,0.007,0.010,1.055,0.770,-2.380,-0.700
1341.155158,0.007,0.009,1.054,0.910,-2.520,-0.910
1341.174152,0.007,0.007,1.056,1.190,-2.450,-0.840
1341.193078,0.006,0.007,1.052,1.470,-2.660,-0.770
1341.212618,0.002,0.010,1.057,1.190,-2.520,-0.910
1341.233635,0.004,0.007,1.056,0.560,-2.310,-0.840
1341.252605,0.006,0.010,1.056,0.420,-2.380,-0.770
1341.277541,0.007,0.010,1.053,0.630,-2.380,-0.700
1341.297562,0.008,0.007,1.055,0.910,-2.450,-0.840
1341.312606,0.005,0.007,1.055,1.260,-2.520,-0.840
1341.336994,0.005,0.011,1.053,1.400,-2.660,-0.770
1341.357024,0.003,0.010,1.056,1.190,-2.520,-0.770
1341.375139,0.006,0.007,1.057,1.050,-2.450,-0.700
1341.395072,0.006,0.009,1.054,0.910,-2.380,-0.630
1341.412618,0.007,0.009,1.053,0.630,-2.310,-0.770
1341.432604,0.007,0.006,1.056,0.560,-2.380,-0.770
1341.456783,0.007,0.008,1.054,0.560,-2.450,-0.770
1341.474993,0.007,0.009,1.053,1.050,-2.450,-0.770
1341.49407,0.007,0.009,1.055,1.400,-2.590,-0.910
1341.516985,0.007,0.008,1.055,1.400,-2.660,-0.840
1341.534134,0.005,0.009,1.055,0.980,-2.660,-0.770
1341.554044,0.004,0.009,1.055,0.910,-2.520,-0.840
1341.57698,0.007,0.007,1.057,0.770,-2.450,-0.770
1341.596277,0.005,0.008,1.056,0.910,-2.450,-0.770
1341.614031,0.005,0.008,1.056,1.050,-2.520,-0.840
1341.637556,0.006,0.008,1.055,1.120,-2.520,-0.840
1341.65562,0.007,0.009,1.055,1.120,-2.590,-0.770
1341.672589,0.007,0.009,1.057,0.980,-2.520,-0.770
1341.697532,0.005,0.009,1.056,0.770,-2.450,-0.770
1341.717539,0.004,0.007,1.055,0.560,-2.310,-0.700
1341.73669,0.005,0.007,1.055,0.700,-2.520,-0.700
1341.75654,0.008,0.007,1.057,0.910,-2.520,-0.700
1341.777495,0.004,0.008,1.056,0.910,-2.520,-0.840
1341.792627,0.005,0.010,1.055,0.840,-2.380,-0.770
1341.817547,0.004,0.007,1.055,0.770,-2.590,-0.840
1341.835642,0.006,0.009,1.052,0.980,-2.520,-0.840
1341.855538,0.003,0.007,1.053,0.980,-2.590,-0.840
1341.873044,0.007,0.010,1.055,1.190,-2.450,-0.910
1341.892984,0.007,0.012,1.054,0.910,-2.520,-0.770
1341.91262,0.009,0.008,1.054,1.050,-2.520,-0.840
1341.937521,0.008,0.006,1.056,1.190,-2.590,-0.770
1341.955613,0.006,0.008,1.053,1.330,-2.590,-0.770
1341.977505,0.005,0.008,1.057,0.910,-2.450,-0.840
1341.997034,0.008,0.010,1.054,0.630,-2.380,-0.770
1342.016056,0.007,0.008,1.056,0.490,-2.240,-0.770
1342.035138,0.004,0.008,1.053,0.700,-2.380,-0.700
1342.055071,0.006,0.007,1.055,0.980,-2.450,-0.770
1342.072623,0.006,0.008,1.053,1.190,-2.590,-0.770
1342.092614,0.008,0.008,1.055,1.120,-2.520,-0.700
1342.11262,0.005,0.009,1.055,1.050,-2.520,-0.770
1342.137532,0.008,0.009,1.056,0.980,-2.520,-0.770
1342.157559,0.007,0.007,1.057,0.700,-2.380,-0.700
1342.177559,0.005,0.010,1.055,0.630,-2.450,-0.770
1342.196792,0.004,0.009,1.056,0.490,-2.380,-0.770
1342.213145,0.005,0.009,1.056,0.630,-2.450,-0.770
1342.237483,0.007,0.008,1.055,1.330,-2.590,-0.770
1342.257488,0.004,0.008,1.054,1.190,-2.590,-0.770
1342.272585,0.006,0.008,1.056,0.980,-2.520,-0.910
1342.297556,0.005,0.008,1.055,0.840,-2.450,-0.840
1342.3175,0.009,0.009,1.055,0.770,-2.380,-0.770
1342.335552,0.006,0.009,1.055,0.910,-2.380,-0.910
1342.354135,0.007,0.006,1.055,0.910,-2.450,-0.770
1342.373036,0.008,0.008,1.054,1.120,-2.520,-0.700
1342.393026,0.006,0.008,1.056,1.330,-2.520,-0.840
1342.412635,0.008,0.008,1.055,1.050,-2.520,-0.770
1342.437537,0.006,0.008,1.055,0.770,-2.380,-0.700
1342.457574,0.006,0.006,1.054,0.700,-2.380,-0.700
1342.473596,0.005,0.005,1.053,0.560,-2.310,-0.770
1342.492599,0.006,0.009,1.053,0.770,-2.380,-0.840
1342.517505,0.005,0.008,1.055,0.770,-2.450,-0.770
1342.537539,0.006,0.006,1.055,0.770,-2.450,-0.840
1342.556552,0.007,0.007,1.055,0.700,-2.380,-0.770
1342.573019,0.007,0.008,1.053,0.910,-2.520,-0.700
1342.592622,0.007,0.009,1.056,0.980,-2.450,-0.770
1342.612598,0.003,0.009,1.056,1.120,-2.450,-0.770
1342.637532,0.005,0.007,1.057,0.840,-2.380,-0.770
1342.655597,0.007,0.007,1.052,1.190,-2.520,-0.770
1342.67554,0.008,0.005,1.055,1.050,-2.450,-0.910
1342.692603,0.005,0.010,1.057,1.190,-2.520,-0.770
1342.712624,0.003,0.011,1.057,0.560,-2.450,-0.770
1342.737505,0.007,0.009,1.054,0.140,-2.240,-0.700
1342.75561,0.006,0.009,1.055,0.140,-2.170,-0.770
1342.77753,0.007,0.007,1.055,0.420,-2.240,-0.770
1342.797551,0.003,0.007,1.051,0.910,-2.520,-0.840
1342.817576,0.005,0.007,1.054,1.190,-2.590,-0.770
1342.835149,0.007,0.006,1.054,1.400,-2.660,-0.840
1342.853125,0.005,0.009,1.054,1.260,-2.520,-0.700
1342.87261,0.004,0.007,1.056,1.120,-2.450,-0.840
1342.897556,0.004,0.009,1.055,0.910,-2.450,-0.700
1342.917544,0.006,0.005,1.056,0.630,-2.380,-0.770
1342.937584,0.005,0.007,1.057,0.630,-2.380,-0.700
1342.956543,0.006,0.005,1.053,0.980,-2.380,-0.770
1342.977483,0.005,0.007,1.055,1.330,-2.590,-0.840
1342.996996,0.002,0.006,1.053,1.330,-2.730,-0.910
1343.017551,0.006,0.008,1.053,1.260,-2.590,-0.700
1343.036623,0.008,0.008,1.057,0.980,-2.450,-0.770
1343.054016,0.005,0.011,1.054,0.770,-2.520,-0.840
1343.073598,0.008,0.007,1.054,1.190,-2.590,-0.770
1343.092609,0.005,0.007,1.055,0.980,-2.520,-0.770
1343.117503,0.008,0.007,1.057,0.910,-2.450,-0.770
1343.135603,0.005,0.008,1.053,1.050,-2.520,-0.630
1343.157455,0.006,0.008,1.057,0.980,-2.520,-0.700
1343.177504,0.006,0.010,1.057,0.700,-2.380,-0.840
1343.197061,0.009,0.009,1.055,0.840,-2.030,-0.700
1343.215011,0.008,0.008,1.054,1.400,-2.170,-0.700
1343.234135,0.004,0.007,1.056,1.540,-2.800,-0.770
1343.256566,0.002,0.007,1.056,1.330,-2.660,-0.840
1343.277023,0.008,0.008,1.059,1.120,-2.380,-0.700
1343.295011,0.005,0.007,1.054,0.980,-2.590,-0.840
1343.31502,0.009,0.008,1.056,1.050,-2.380,-0.840
1343.334145,0.005,0.008,1.053,0.840,-2.380,-0.770
1343.353974,0.004,0.009,1.055,0.700,-2.520,-0.770
1343.37405,0.007,0.007,1.056,0.700,-2.380,-0.770
1343.393317,0.005,0.007,1.056,0.910,-2.450,-0.840
1343.412606,0.003,0.007,1.054,1.120,-2.730,-0.770
1343.437009,0.004,0.010,1.054,1.260,-2.660,-0.840
1343.45613,0.007,0.009,1.058,0.700,-2.590,-0.770
1343.476604,0.006,0.010,1.056,0.630,-2.380,-0.700
1343.497481,0.007,0.012,1.054,0.490,-2.310,-0.770
1343.517473,0.005,0.009,1.052,0.770,-2.520,-0.770
1343.537468,0.003,0.009,1.052,1.050,-2.520,-0.770
1343.55748,0.005,0.009,1.055,1.120,-2.450,-0.700
1343.575533,0.006,0.007,1.054,1.120,-2.520,-0.700
1343.593964,0.006,0.008,1.056,0.980,-2.520,-0.700
1343.61264,0.006,0.007,1.056,0.770,-2.380,-0.770
1343.63754,0.004,0.008,1.055,0.700,-2.520,-0.770
1343.656632,0.006,0.008,1.057,0.560,-2.380,-0.700
1343.677547,0.005,0.008,1.054,0.560,-2.450,-0.840
1343.697537,0.006,0.008,1.057,0.840,-2.590,-0.770
1343.717451,0.008,0.008,1.055,1.400,-2.590,-0.840
1343.737471,0.007,0.007,1.054,1.120,-2.590,-0.840
1343.757457,0.006,0.009,1.057,0.910,-2.450,-0.840
1343.777475,0.007,0.006,1.054,0.700,-2.380,-0.770
1343.797539,0.007,0.007,1.055,0.630,-2.310,-0.910
1343.813547,0.006,0.006,1.055,0.840,-2.310,-0.770
1343.836675,0.003,0.008,1.053,1.120,-2.520,-0.910
1343.857461,0.005,0.006,1.053,1.050,-2.590,-0.770
1343.877421,0.007,0.009,1.055,0.980,-2.450,-0.770
1343.897474,0.007,0.009,1.055,0.770,-2.520,-0.770
1343.912643,0.006,0.009,1.055,0.840,-2.450,-0.700
1343.933011,0.006,0.008,1.056,0.910,-2.380,-0.840
1343.95747,0.007,0.010,1.057,0.980,-2.450,-0.840
1343.977472,0.004,0.008,1.054,1.120,-2.590,-0.840
1343.997479,0.007,0.010,1.055,1.050,-2.590,-0.770
1344.017469,0.009,0.007,1.056,0.910,-2.520,-0.840
1344.037473,0.006,0.007,1.056,0.910,-2.450,-0.700
1344.057122,0.005,0.009,1.055,0.840,-2.380,-0.910
1344.077018,0.007,0.009,1.054,0.910,-2.520,-0.770
1344.095974,0.003,0.008,1.055,0.980,-2.310,-0.770
1344.113016,0.005,0.007,1.053,0.840,-2.380,-0.770
1344.137054,0.004,0.008,1.054,1.120,-2.450,-0.840
1344.157021,0.008,0.008,1.055,1.260,-2.520,-0.770
1344.175969,0.005,0.011,1.059,0.980,-2.590,-0.770
1344.196026,0.006,0.009,1.056,0.490,-2.450,-0.770
1344.213129,0.007,0.009,1.055,0.350,-2.240,-0.770
1344.237497,0.010,0.006,1.054,0.280,-2.240,-0.840
1344.255588,0.005,0.008,1.050,0.700,-2.380,-0.910
1344.277517,0.005,0.007,1.050,1.120,-2.590,-0.840
1344.295774,0.006,0.009,1.054,1.540,-2.660,-0.840
1344.312586,0.007,0.008,1.057,1.260,-2.660,-0.840
1344.334131,0.006,0.008,1.057,1.050,-2.520,-0.770
1344.352607,0.004,0.007,1.060,0.840,-2.450,-0.840
1344.375585,0.006,0.006,1.056,0.560,-2.450,-0.700
1344.396535,0.005,0.007,1.054,0.910,-2.520,-0.840
1344.417473,0.004,0.007,1.053,0.980,-2.450,-0.700
1344.437024,0.007,0.006,1.053,1.330,-2.450,-0.630
1344.457468,0.005,0.008,1.053,1.610,-2.660,-0.770
1344.477472,0.006,0.008,1.056,1.470,-2.730,-0.770
1344.497475,0.004,0.008,1.055,1.120,-2.590,-0.840
1344.517465,0.006,0.008,1.056,0.700,-2.450,-0.770
1344.537469,0.005,0.010,1.054,0.770,-2.520,-0.700
1344.555537,0.006,0.009,1.055,0.770,-2.380,-0.910
1344.572668,0.006,0.009,1.055,0.840,-2.380,-0.770
1344.592582,0.006,0.007,1.055,0.980,-2.520,-0.770
1344.612579,0.006,0.009,1.055,1.120,-2.590,-0.770
1344.632667,0.004,0.007,1.057,1.050,-2.590,-0.840
1344.657521,0.005,0.009,1.057,0.840,-2.520,-0.840
1344.672563,0.004,0.011,1.051,0.770,-2.450,-0.700
1344.692658,0.007,0.008,1.055,0.910,-2.520,-0.770
1344.717442,0.006,0.007,1.055,1.190,-2.450,-0.770
1344.737462,0.006,0.009,1.056,1.120,-2.380,-0.770
1344.756767,0.007,0.010,1.055,1.190,-2.660,-0.700
1344.777471,0.007,0.010,1.059,1.050,-2.380,-0.840
1344.797023,0.006,0.009,1.057,0.770,-2.450,-0.770
1344.813574,0.006,0.010,1.057,0.630,-2.450,-0.700
1344.836964,0.002,0.013,1.061,-1.260,-1.120,-0.980
1344.85703,0.001,0.018,1.057,-1.890,-2.310,-0.840
1344.872667,0.003,0.011,1.050,0.630,-2.240,-0.840
1344.895966,0.006,0.008,1.050,0.770,-1.680,-0.770
1344.913967,0.005,0.006,1.052,0.560,-1.960,-0.700
1344.933126,0.003,0.007,1.054,-0.070,-1.750,-0.840
1344.952973,0.005,0.007,1.056,-0.910,-1.540,-0.840
1344.972629,0.003,0.007,1.061,-2.100,-1.260,-0.840
1344.992617,0.002,0.006,1.057,-1.820,-1.260,-0.700
1345.013092,0.001,0.002,1.052,-2.240,-0.840,-0.910
1345.033965,0.002,0.001,1.052,-2.030,-0.490,-0.910
1345.054019,0.003,0.003,1.055,-2.380,-0.420,-0.770
1345.076038,0.000,-0.001,1.054,-2.310,-0.630,-0.980
1345.097502,0.001,0.003,1.058,-3.220,-0.210,-0.910
1345.117509,-0.000,-0.001,1.059,-3.640,-0.770,-0.910
1345.13501,-0.004,-0.002,1.057,-4.480,0.280,-1.050
1345.154956,-0.000,-0.002,1.057,-4.900,0.490,-0.840
1345.17749,-0.006,-0.007,1.048,-4.550,-0.140,-0.840
1345.19751,0.000,-0.006,1.054,-4.060,0.000,-0.910
1345.21754,-0.006,-0.012,1.052,-3.570,-0.280,-0.840
1345.235616,-0.009,-0.012,1.053,-2.450,-0.700,-0.840
1345.255995,-0.011,-0.016,1.050,-1.540,-1.400,-0.910
1345.275058,-0.006,-0.011,1.054,-0.700,-1.540,-0.980
1345.295016,-0.007,-0.011,1.052,-0.140,-2.380,-0.840
1345.314996,-0.004,-0.014,1.053,0.490,-1.750,-0.770
1345.334124,-0.005,-0.014,1.060,0.140,-2.100,-0.770
1345.357469,-0.009,-0.014,1.054,0.490,-2.450,-0.910
1345.377473,-0.006,-0.017,1.051,0.490,-2.030,-0.910
1345.39703,-0.009,-0.013,1.050,1.400,-2.660,-0.700
1345.417447,-0.008,-0.016,1.057,2.170,-2.730,-0.910
1345.43744,-0.006,-0.014,1.055,2.100,-2.800,-0.840
1345.455508,-0.007,-0.011,1.056,1.750,-2.940,-0.840
1345.477453,-0.009,-0.015,1.053,1.400,-2.940,-0.630
1345.497464,-0.021,-0.011,1.061,0.560,-3.150,-0.840
1345.517457,-0.008,-0.016,1.067,-1.120,-1.680,-0.700
1345.536635,-0.001,-0.008,1.052,-0.210,-2.520,-0.840
1345.55696,-0.007,-0.018,1.045,0.700,-1.610,-0.770
1345.577023,0.004,-0.026,1.035,2.800,-2.520,-0.280
1345.596007,-0.015,-0.030,1.090,-2.870,-1.680,-0.840
1345.613114,-0.019,0.001,1.066,-2.590,-2.870,-0.770
1345.634,-0.034,0.005,1.061,-2.940,-5.390,-1.050
1345.652582,-0.016,-0.004,1.052,1.050,-3.640,-0.700
1345.675946,-0.009,-0.002,1.059,0.000,-2.380,-0.700
1345.696032,-0.000,-0.011,1.062,-16.380,-0.980,-0.770
1345.713566,0.016,-0.014,1.043,3.710,-1.750,-0.420
1345.733,0.004,-0.026,1.051,3.430,-1.400,-0.630
1345.753039,-0.013,-0.025,1.054,2.800,-3.010,-0.420
1345.773101,-0.007,-0.027,1.058,1.960,-2.590,-0.700
1345.796949,-0.007,-0.022,1.051,2.590,-2.450,-0.700
1345.81704,-0.009,-0.022,1.048,2.100,-3.010,-0.700
1345.83711,-0.009,-0.020,1.054,1.680,-2.870,-0.840
1345.856023,-0.005,-0.015,1.056,1.750,-2.870,-0.700
1345.875967,-0.010,-0.014,1.053,1.820,-2.800,-0.840
1345.897533,-0.006,-0.014,1.056,1.470,-2.870,-0.840
1345.917522,-0.009,-0.013,1.058,1.400,-3.080,-0.770
1345.937534,-0.008,-0.014,1.056,1.540,-2.730,-0.770
1345.955611,-0.005,-0.014,1.058,1.540,-2.520,-0.700
1345.977461,-0.007,-0.012,1.056,1.050,-2.730,-0.770
1345.997464,-0.006,-0.013,1.057,0.560,-2.380,-0.770
1346.016992,-0.006,-0.012,1.054,0.700,-2.240,-0.700
1346.035107,-0.006,-0.012,1.054,0.700,-2.310,-0.770
1346.055026,-0.005,-0.014,1.054,0.700,-1.960,-0.840
1346.075009,-0.007,-0.013,1.055,0.910,-2.240,-0.700
1346.094052,-0.004,-0.014,1.055,0.840,-2.100,-0.770
1346.112577,-0.009,-0.014,1.056,0.910,-2.380,-0.700
1346.137521,-0.011,-0.018,1.055,0.770,-2.590,-0.700
1346.157509,-0.008,-0.016,1.055,1.120,-2.310,-0.770
1346.172554,-0.007,-0.015,1.057,0.840,-2.380,-0.770
1346.192598,-0.010,-0.014,1.053,0.560,-2.660,-0.840
1346.212575,-0.009,-0.014,1.053,0.490,-2.520,-0.840
1346.232568,-0.009,-0.013,1.054,0.420,-2.170,-0.700
1346.255569,-0.004,-0.012,1.056,0.560,-2.310,-0.910
1346.277456,-0.010,-0.008,1.058,0.420,-3.080,-0.980
1346.296957,-0.008,-0.012,1.053,0.630,-2.240,-0.840
1346.317512,-0.011,-0.013,1.056,1.680,-2.590,-0.770
1346.334116,-0.004,-0.014,1.060,1.120,-2.450,-0.840
1346.353098,-0.005,-0.013,1.057,0.560,-2.380,-0.700
1346.373019,-0.008,-0.011,1.055,0.070,-1.960,-0.630
1346.392964,-0.009,-0.014,1.053,0.070,-2.240,-0.630
1346.417506,-0.008,-0.016,1.053,0.280,-2.310,-0.770
1346.435567,-0.008,-0.014,1.053,0.770,-2.310,-0.840
1346.452546,-0.008,-0.013,1.054,1.540,-2.870,-0.840
1346.472583,-0.008,-0.014,1.051,1.820,-2.590,-0.700
1346.49258,-0.011,-0.012,1.055,1.960,-2.940,-0.910
1346.517477,-0.006,-0.014,1.059,2.450,-2.940,-0.910
1346.537523,-0.009,-0.010,1.056,2.310,-3.640,-0.840
1346.557455,-0.003,-0.010,1.057,1.540,-2.590,-0.770
1346.575504,-0.004,-0.010,1.056,0.910,-2.450,-0.840
1346.592574,-0.006,-0.012,1.057,0.980,-2.520,-0.770
1346.61255,-0.003,-0.015,1.054,0.420,-1.750,-0.700
1346.633515,-0.008,-0.012,1.054,0.140,-2.310,-0.840
1346.652563,-0.009,-0.014,1.053,0.700,-2.450,-0.700
1346.672578,-0.006,-0.012,1.057,0.910,-2.520,-0.630
1346.696728,-0.004,-0.009,1.055,0.980,-2.380,-0.770
1346.717436,-0.009,-0.012,1.054,0.980,-2.380,-0.700
1346.737445,-0.005,-0.011,1.055,0.980,-2.520,-0.840
1346.757437,-0.007,-0.014,1.055,1.190,-2.380,-0.700
1346.777456,-0.007,-0.012,1.055,0.910,-2.450,-0.770
1346.795503,-0.005,-0.012,1.057,0.980,-2.520,-0.700
1346.816989,-0.009,-0.009,1.053,0.910,-2.590,-0.770
1346.836095,-0.009,-0.012,1.056,0.840,-2.730,-0.700
1346.854102,-0.010,-0.011,1.056,0.770,-2.870,-0.770
1346.874036,-0.009,-0.012,1.056,0.630,-2.310,-0.770
1346.892949,-0.007,-0.009,1.054,0.700,-2.730,-0.840
1346.912571,-0.008,-0.011,1.056,0.910,-2.800,-0.770
1346.933517,-0.002,-0.012,1.058,1.120,-2.240,-0.770
1346.955506,-0.008,-0.010,1.056,1.050,-2.380,-0.630
1346.974036,-0.002,-0.010,1.054,0.980,-1.820,-0.770
1346.992556,-0.008,-0.011,1.054,0.980,-2.520,-0.770
1347.017471,-0.004,-0.014,1.056,1.330,-2.240,-0.770
1347.035568,-0.010,-0.012,1.059,0.910,-2.310,-0.770
1347.057453,-0.011,-0.011,1.053,0.350,-5.110,-0.770
1347.072572,-0.022,-0.012,1.061,-2.940,-3.920,-0.840
1347.092584,-0.001,-0.010,1.063,-2.730,-1.750,-0.770
1347.112564,-0.007,0.002,1.051,-1.470,-0.560,-0.630
1347.137462,-0.013,-0.011,1.053,-0.840,-1.890,-0.490
1347.156566,-0.005,-0.015,1.054,-0.280,-2.100,-0.490
1347.176943,-0.008,-0.015,1.054,-0.350,-2.170,-0.490
1347.19496,-0.011,-0.018,1.053,-0.490,-2.100,-0.560
1347.212557,-0.008,-0.016,1.052,0.070,-2.240,-0.630
1347.233517,-0.010,-0.018,1.048,1.540,-2.590,-0.910
1347.25394,-0.008,-0.020,1.046,3.640,-3.290,-1.120
1347.274025,-0.012,-0.018,1.048,5.600,-4.200,-1.260
1347.292939,-0.010,-0.014,1.051,7.280,-4.690,-1.400
1347.312576,-0.008,-0.009,1.057,7.700,-5.040,-1.610
1347.337493,-0.005,-0.009,1.059,6.720,-5.180,-1.610
1347.356598,-0.006,-0.003,1.059,6.020,-4.410,-1.400
1347.374024,-0.004,0.000,1.068,4.060,-3.430,-1.400
1347.397447,-0.005,-0.004,1.071,3.780,-3.430,-0.770
1347.415998,-0.006,-0.003,1.057,2.870,-3.150,-0.420
1347.435063,-0.000,0.000,1.050,2.590,-2.730,-0.910
1347.4531,-0.004,0.001,1.050,3.220,-3.010,-1.050
1347.47702,-0.002,0.003,1.055,4.830,-3.290,-0.910
1347.496961,0.009,-0.008,1.055,4.620,-3.290,-1.120
1347.516927,-0.002,0.000,1.053,2.660,-3.010,-1.190
1347.537012,-0.002,0.007,1.059,4.060,-3.290,-1.190
1347.556092,-0.006,-0.000,1.050,3.710,-3.500,-0.980
1347.574097,0.001,0.005,1.058,3.780,-3.150,-1.120
1347.593102,0.000,0.005,1.057,3.220,-3.080,-1.120
1347.612546,0.001,0.003,1.056,2.660,-3.010,-0.980
1347.637431,-0.000,0.005,1.056,1.680,-2.800,-1.050
1347.657426,0.000,0.005,1.056,0.630,-2.380,-0.980
1347.677443,0.000,0.007,1.058,-0.140,-2.170,-0.770
1347.692594,-0.002,0.006,1.052,-0.770,-1.890,-0.700
1347.712569,0.004,0.006,1.056,-0.630,-1.890,-0.490
1347.737463,0.000,0.006,1.055,-1.050,-1.820,-0.630
1347.756494,0.000,0.004,1.053,-0.630,-1.820,-0.770
1347.777447,-0.001,0.004,1.055,-0.210,-2.100,-0.560
1347.796953,-0.001,0.002,1.053,0.140,-2.100,-0.560
1347.817422,-0.002,0.003,1.055,0.350,-2.380,-0.700
1347.835504,-0.004,0.002,1.054,0.560,-2.310,-0.700
1347.856508,-0.001,0.001,1.052,0.980,-2.170,-0.630
1347.876989,-0.004,0.003,1.056,1.540,-2.520,-0.630
1347.896939,-0.004,-0.002,1.055,2.170,-2.660,-0.700
1347.913981,-0.006,0.001,1.048,1.260,-2.660,-0.700
1347.933102,-0.004,0.003,1.054,1.190,-3.150,-0.700
1347.952538,-0.003,0.002,1.051,1.330,-2.870,-0.840
1347.972565,-0.000,0.003,1.052,1.750,-2.800,-0.770
1347.992594,-0.001,0.005,1.054,1.680,-2.800,-0.770
1348.017433,-0.005,0.003,1.056,1.890,-3.150,-0.700
1348.036098,-0.001,0.004,1.057,1.470,-2.870,-0.910
1348.055946,-0.003,0.004,1.051,1.540,-3.080,-0.770
1348.076021,-0.003,0.005,1.050,1.960,-3.080,-0.840
1348.093106,0.000,0.004,1.053,1.960,-3.010,-0.770
1348.113094,0.001,0.004,1.052,1.960,-3.010,-0.770
1348.133549,-0.000,0.004,1.053,2.100,-2.730,-0.770
1348.157496,0.003,0.006,1.053,1.960,-2.660,-0.770
1348.176599,0.000,0.005,1.056,1.680,-2.870,-0.770
1348.193936,-0.003,0.005,1.055,1.330,-2.590,-0.700
1348.217472,-0.002,0.006,1.052,1.050,-2.520,-0.700
1348.235572,0.004,0.008,1.057,1.050,-2.520,-0.630
1348.257422,0.002,0.008,1.054,1.260,-2.450,-0.840
1348.277445,0.001,0.004,1.055,1.120,-2.380,-0.770
1348.297433,-0.002,0.005,1.056,1.190,-2.380,-0.840
1348.316976,-0.001,0.009,1.057,1.330,-2.240,-0.770
1348.337073,0.002,0.004,1.054,1.260,-2.450,-0.840
1348.355098,0.001,0.004,1.055,1.400,-2.660,-0.840
1348.377493,-0.003,0.005,1.057,1.330,-2.520,-0.840
1348.39744,0.002,0.007,1.055,0.490,-2.240,-0.700
1348.412584,-0.002,0.007,1.056,0.210,-2.380,-0.770
1348.433536,-0.124,0.005,1.053,0.210,-2.240,-0.770
1348.454092,0.001,0.005,1.056,0.700,-2.380,-0.770
1348.472617,-0.000,0.004,1.053,0.910,-2.450,-0.700
1348.492562,-0.001,0.004,1.055,1.330,-2.520,-0.770
1348.517515,-0.000,0.006,1.055,1.330,-2.590,-0.840
1348.535098,-0.001,0.004,1.058,1.330,-2.730,-0.700
1348.552539,-0.000,0.005,1.054,1.330,-2.730,-0.770
1348.575558,-0.000,0.007,1.058,1.120,-2.870,-0.770
1348.595467,0.000,0.005,1.058,1.050,-2.450,-0.770
1348.61254,0.002,0.007,1.056,0.560,-2.450,-0.700
1348.637458,-0.001,0.006,1.055,0.980,-2.520,-0.770
1348.655504,-0.000,0.003,1.056,1.540,-2.730,-0.700
1348.676088,-0.001,0.006,1.057,1.680,-2.800,-0.770
1348.695983,-0.000,0.008,1.054,1.540,-2.730,-0.840
1348.713096,0.000,0.006,1.056,1.610,-2.800,-0.770
1348.735564,-0.001,0.007,1.057,1.540,-2.730,-0.840
1348.757453,-0.001,0.008,1.055,1.470,-2.730,-0.840
1348.777466,0.001,0.007,1.053,1.470,-2.730,-0.840
1348.797457,0.001,0.007,1.056,1.540,-2.800,-0.700
1348.817495,0.000,0.010,1.055,1.260,-2.730,-0.700
1348.837481,0.002,0.008,1.057,1.260,-2.660,-0.700
1348.857394,-0.001,0.008,1.056,1.470,-2.660,-0.770
1348.877443,0.002,0.007,1.055,1.540,-2.660,-0.770
1348.892533,-0.000,0.007,1.054,1.750,-2.800,-0.700
1348.917499,0.003,0.005,1.054,1.820,-2.800,-0.770
1348.932557,0.002,0.008,1.057,1.610,-2.730,-0.840
1348.952541,0.000,0.008,1.055,1.400,-2.800,-0.770
1348.972567,0.000,0.009,1.055,1.120,-2.730,-0.840
1348.994001,0.004,0.010,1.054,0.980,-2.660,-0.700
1349.017431,0.005,0.009,1.055,0.910,-2.450,-0.700
1349.037426,0.000,0.009,1.058,0.630,-2.380,-0.770
1349.056088,-0.003,0.012,1.058,0.280,-2.310,-0.700
1349.076007,0.002,0.009,1.056,0.280,-2.100,-0.770
1349.095936,0.003,0.007,1.055,0.490,-2.030,-0.770
1349.115001,0.000,0.007,1.053,0.980,-2.240,-0.770
1349.137482,-0.000,0.007,1.054,1.470,-2.380,-0.840
1349.157487,0.000,0.010,1.055,1.400,-2.310,-0.840
1349.172519,0.000,0.008,1.057,1.050,-2.380,-0.770
1349.192576,0.003,0.008,1.056,0.700,-2.380,-0.840
1349.212551,0.003,0.011,1.057,0.560,-2.380,-0.840
1349.237451,0.000,0.007,1.054,0.630,-2.380,-0.770
1349.255476,0.001,0.009,1.057,0.770,-2.590,-0.700
1349.276942,0.124,0.008,1.055,0.910,-2.520,-0.910
1349.294966,0.001,0.007,1.056,0.840,-2.520,-0.770
1349.312584,0.000,0.008,1.054,0.840,-2.520,-0.770
1349.337466,0.003,0.007,1.056,0.910,-2.520,-0.840
1349.357478,0.002,0.006,1.058,0.630,-2.450,-0.840
1349.375554,0.002,0.008,1.055,0.560,-2.380,-0.770
1349.397428,0.001,0.010,1.055,0.840,-2.520,-0.840
1349.412553,-0.001,0.007,1.055,0.910,-2.450,-0.700
1349.435553,0.001,0.010,1.057,0.840,-2.520,-0.630
1349.455207,0.001,0.009,1.056,0.840,-2.380,-0.700
1349.472557,0.002,0.008,1.054,0.980,-2.240,-0.700
1349.49258,0.002,0.008,1.055,1.050,-2.380,-0.770
1349.517426,0.000,0.008,1.053,1.050,-2.520,-0.700
1349.537445,-0.001,0.007,1.054,1.190,-2.380,-0.770
1349.557434,0.000,0.005,1.056,1.190,-2.450,-0.840
1349.575481,0.001,0.007,1.054,1.260,-2.660,-0.770
1349.592543,0.002,0.008,1.056,1.400,-2.590,-0.840
1349.612571,0.000,0.009,1.055,1.400,-2.730,-0.840
1349.637495,0.002,0.012,1.056,1.190,-2.520,-0.770
1349.657486,-0.003,0.007,1.054,0.840,-2.520,-0.840
1349.676587,0.001,0.008,1.053,1.050,-2.520,-0.840
1349.692553,0.002,0.007,1.054,1.190,-2.660,-0.840
1349.71746,0.000,0.010,1.057,1.050,-2.590,-0.840
1349.737453,0.003,0.013,1.059,0.630,-2.380,-0.700
1349.757411,0.001,0.010,1.056,0.140,-2.240,-0.700
1349.777454,0.001,0.006,1.056,0.280,-2.240,-0.770
1349.797423,0.001,0.007,1.055,0.490,-2.590,-0.770
1349.816982,0.002,0.009,1.053,1.260,-2.450,-0.770
1349.835076,0.001,0.007,1.057,1.470,-2.590,-0.700
1349.856917,0.001,0.011,1.056,1.820,-2.660,-0.910
1349.876962,-0.003,0.008,1.054,1.610,-2.660,-0.840
1349.896941,0.000,0.009,1.058,1.330,-2.450,-0.770
1349.917418,0.001,0.009,1.054,1.120,-2.660,-0.770
1349.935493,-0.000,0.007,1.056,1.330,-2.590,-0.770
1349.952538,-0.124,0.009,1.053,1.120,-2.660,-0.910
1349.972571,0.003,0.007,1.055,1.540,-2.660,-0.770
1349.997434,0.001,0.007,1.054,1.820,-2.730,-0.770
1350.017445,0.001,0.009,1.056,1.610,-2.730,-0.770
1350.036515,0.000,0.013,1.057,1.190,-2.590,-0.840
1350.056935,0.005,0.010,1.057,1.120,-2.660,-0.700
1350.076961,0.002,0.009,1.055,1.050,-2.520,-0.770
1350.097481,0.001,0.012,1.057,1.120,-2.450,-0.770
1350.117472,0.002,0.010,1.055,1.190,-2.590,-0.700
1350.136089,0.002,0.009,1.056,1.260,-2.520,-0.770
1350.154077,0.003,0.011,1.055,0.770,-2.450,-0.840
1350.172514,0.000,0.013,1.055,0.910,-2.450,-0.630
1350.192545,0.005,0.011,1.057,0.700,-2.380,-0.840
1350.212548,0.002,0.009,1.053,0.630,-2.380,-0.840
1350.233471,0.000,0.009,1.055,0.630,-2.520,-0.630
1350.255541,-0.001,0.008,1.054,0.980,-2.660,-0.770
1350.277425,0.001,0.011,1.057,1.260,-2.730,-0.770
1350.297418,0.003,0.012,1.056,1.400,-2.660,-0.770
1350.31254,0.001,0.013,1.057,1.190,-2.730,-0.840
1350.336713,0.001,0.010,1.055,0.980,-2.520,-0.770
1350.356956,0.005,0.009,1.053,1.190,-2.520,-0.840
1350.376968,0.002,0.009,1.053,1.260,-2.520,-0.770
1350.397452,0.002,0.010,1.056,1.260,-2.660,-0.770
1350.417487,0.002,0.011,1.056,0.840,-2.450,-0.770
1350.437482,0.003,0.009,1.057,0.700,-2.380,-0.700
1350.456485,0.003,0.006,1.056,0.630,-2.170,-0.630
1350.473006,0.003,0.010,1.056,-0.350,-2.100,-0.770
1350.49553,0.004,0.011,1.053,0.210,-2.030,-0.770
1350.517415,0.001,0.011,1.055,0.910,-2.660,-0.840
1350.533495,0.002,0.011,1.054,1.120,-2.660,-0.770
1350.553961,0.001,0.009,1.053,1.330,-2.660,-0.840
1350.573084,0.002,0.012,1.057,1.120,-2.520,-0.910
1350.593001,0.004,0.009,1.056,0.770,-2.520,-0.840
1350.612526,0.001,0.010,1.058,0.770,-2.380,-0.770
1350.637428,0.001,0.009,1.055,0.630,-2.450,-0.700
1350.655495,-0.000,0.011,1.054,0.910,-2.590,-0.840
1350.677449,0.004,0.011,1.051,0.980,-2.590,-0.630
1350.697483,0.002,0.009,1.053,1.470,-2.730,-0.770
1350.713479,0.000,0.012,1.057,1.470,-2.730,-0.840
1350.737442,0.005,0.010,1.056,0.910,-2.380,-0.910
1350.755714,0.004,0.012,1.057,1.050,-2.590,-0.840
1350.776966,0.003,0.013,1.055,0.980,-2.450,-0.770
1350.794955,0.002,0.007,1.055,1.120,-2.380,-0.910
1350.812572,0.002,0.012,1.056,0.840,-2.450,-0.700
1350.834516,0.003,0.013,1.056,0.980,-2.520,-0.700
1350.856486,0.005,0.012,1.055,1.050,-2.520,-0.840
1350.876967,0.002,0.011,1.053,0.840,-2.520,-0.840
1350.895922,0.001,0.011,1.056,0.560,-2.380,-0.770
1350.91492,0.002,0.008,1.055,0.490,-2.240,-0.700
1350.932992,0.000,0.010,1.053,0.350,-2.310,-0.840
1350.952512,0.001,0.011,1.056,0.350,-2.310,-0.700
1350.977483,0.000,0.009,1.054,0.560,-2.310,-0.700
1350.997421,0.000,0.010,1.052,0.840,-2.450,-0.630
1351.017415,0.003,0.012,1.055,0.980,-2.660,-0.700
1351.035488,0.000,0.012,1.053,1.400,-2.660,-0.770
1351.055072,0.003,0.010,1.058,1.260,-2.310,-0.910
1351.072547,0.004,0.008,1.053,1.190,-2.240,-0.980
1351.092547,0.002,0.009,1.056,1.330,-2.380,-0.910
1351.112518,0.000,0.012,1.054,1.120,-2.730,-0.840
1351.137375,0.003,0.009,1.053,1.120,-2.520,-0.770
1351.155486,0.002,0.008,1.050,1.680,-2.870,-0.700
1351.177415,0.002,0.008,1.057,1.820,-2.450,-0.770
1351.197421,0.005,0.010,1.059,1.050,-2.520,-0.840
1351.216972,0.004,0.010,1.055,1.050,-2.590,-0.700
1351.237035,0.002,0.009,1.056,1.330,-2.730,-0.840
1351.256993,0.001,0.008,1.058,1.470,-2.590,-0.630
1351.274068,0.002,0.013,1.056,1.050,-2.380,-0.770
1351.292972,0.002,0.011,1.057,0.910,-2.380,-0.770
1351.31254,0.001,0.010,1.056,0.700,-2.240,-0.840
1351.332963,0.003,0.012,1.054,0.630,-2.380,-0.840
1351.35306,0.002,0.012,1.057,0.630,-2.380,-0.840
1351.375533,0.000,0.011,1.055,0.840,-2.450,-0.840
1351.393966,0.003,0.012,1.056,0.840,-2.380,-0.770
1351.414035,0.001,0.011,1.055,1.050,-2.520,-0.840
1351.43745,0.001,0.013,1.057,0.910,-2.520,-0.840
1351.455471,0.002,0.010,1.054,0.840,-2.380,-0.770
1351.473078,0.004,0.009,1.056,0.630,-2.380,-0.840
1351.492948,0.002,0.010,1.055,0.980,-2.590,-0.700
1351.512917,0.002,0.010,1.056,1.120,-2.520,-0.630
1351.532548,0.002,0.010,1.056,1.260,-2.450,-0.770
1351.552519,0.000,0.012,1.056,1.260,-2.520,-0.840
1351.577466,0.001,0.010,1.056,1.190,-2.520,-0.840
1351.59745,0.004,0.009,1.057,0.770,-2.450,-0.770
1351.617416,0.000,0.011,1.054,0.910,-2.380,-0.770
1351.637436,0.004,0.011,1.056,0.770,-2.450,-0.770
1351.655482,0.002,0.010,1.057,0.770,-2.380,-0.910
1351.676922,0.003,0.011,1.055,0.770,-2.380,-0.770
1351.69707,-0.000,0.010,1.056,0.700,-2.450,-0.840
1351.716941,0.004,0.012,1.057,1.120,-2.450,-0.770
1351.736952,0.003,0.011,1.056,1.260,-2.590,-0.840
1351.755066,-0.001,0.012,1.055,1.470,-2.590,-0.770
1351.776491,0.004,0.012,1.057,1.400,-2.590,-0.770
1351.796903,0.003,0.012,1.055,1.540,-2.520,-0.700
1351.814919,0.006,0.013,1.058,1.190,-2.520,-0.840
1351.837443,0.002,0.014,1.058,0.840,-2.590,-0.700
1351.857466,0.005,0.015,1.057,0.420,-2.310,-0.770
1351.875521,0.003,0.012,1.051,0.490,-2.380,-0.700
1351.896477,0.003,0.009,1.056,0.420,-2.380,-0.770
1351.917417,0.003,0.009,1.054,0.700,-2.310,-0.840
1351.936495,0.004,0.010,1.056,1.120,-2.520,-0.700
1351.956919,0.003,0.010,1.054,1.120,-2.520,-0.840
1351.973062,0.001,0.011,1.055,1.120,-2.520,-0.770
1351.992945,0.002,0.011,1.056,1.190,-2.450,-0.910
1352.01743,0.001,0.015,1.053,1.190,-2.590,-0.840
1352.035942,0.002,0.011,1.055,0.980,-2.590,-0.700
1352.056061,0.001,0.013,1.057,1.050,-2.380,-0.770
1352.075991,0.002,0.009,1.056,0.980,-2.450,-0.700
1352.092569,0.003,0.012,1.054,0.980,-2.590,-0.770
1352.112531,0.002,0.010,1.053,0.980,-2.520,-0.770
1352.132566,0.002,0.013,1.056,1.120,-2.520,-0.770
1352.152536,0.002,0.013,1.055,0.840,-2.450,-0.770
1352.173943,0.002,0.011,1.053,0.910,-2.450,-0.630
1352.196992,0.003,0.011,1.057,1.190,-2.520,-0.840
1352.215918,0.002,0.012,1.054,1.120,-2.590,-0.770
1352.233057,0.004,0.011,1.058,1.050,-2.590,-0.840
1352.25555,0.004,0.010,1.055,1.050,-2.450,-0.770
1352.275479,0.005,0.013,1.057,0.700,-2.520,-0.700
1352.297429,0.002,0.013,1.054,0.630,-2.450,-0.770
1352.314539,0.004,0.013,1.053,0.770,-2.310,-0.910
1352.333529,0.001,0.011,1.053,0.910,-2.450,-0.770
1352.354055,0.002,0.012,1.057,1.050,-2.660,-0.770
1352.377419,0.004,0.013,1.055,1.050,-2.520,-0.840
1352.39741,0.005,0.011,1.053,0.980,-2.450,-0.770
1352.417428,0.003,0.014,1.056,1.050,-2.590,-0.770
1352.436518,0.001,0.011,1.052,1.190,-2.450,-0.770
1352.456996,0.002,0.011,1.056,1.330,-2.590,-0.700
1352.477075,0.002,0.013,1.056,1.050,-2.380,-0.770
1352.496954,0.003,0.012,1.055,1.260,-2.380,-0.770
1352.51496,-0.001,0.010,1.056,1.330,-2.590,-0.700
1352.533898,0.001,0.011,1.053,1.470,-2.730,-0.840
1352.554049,-0.001,0.010,1.056,1.330,-2.660,-0.770
1352.572546,0.002,0.012,1.056,0.840,-2.380,-0.770
1352.597443,0.002,0.010,1.057,0.490,-2.310,-0.700
1352.61657,0.001,0.012,1.056,0.560,-2.170,-0.840
1352.632541,0.003,0.012,1.052,0.840,-2.450,-0.770
1352.65747,0.003,0.013,1.057,1.260,-2.590,-0.910
1352.676562,0.000,0.014,1.055,1.470,-2.590,-0.770
1352.697391,0.002,0.012,1.055,1.400,-2.590,-0.770
1352.716989,0.004,0.014,1.056,1.190,-2.520,-0.770
1352.737028,0.002,0.014,1.056,1.050,-2.450,-0.770
1352.753063,0.001,0.014,1.055,1.050,-2.520,-0.770
1352.777408,0.002,0.013,1.053,0.840,-2.450,-0.770
1352.797398,-0.000,0.011,1.054,0.840,-2.590,-0.700
1352.815909,0.003,0.013,1.053,1.330,-2.520,-0.770
1352.834066,0.002,0.010,1.054,1.470,-2.730,-0.840
1352.853065,0.006,0.011,1.057,1.540,-2.730,-0.700
1352.872525,0.005,0.013,1.056,1.330,-2.590,-0.700
1352.897405,0.002,0.012,1.057,1.120,-2.520,-0.700
1352.917448,0.001,0.013,1.055,1.050,-2.450,-0.700
1352.935049,0.003,0.015,1.054,1.190,-2.590,-0.700
1352.954062,0.002,0.012,1.054,1.050,-2.450,-0.840
1352.972558,0.002,0.014,1.053,1.190,-2.590,-0.700
1352.99251,0.002,0.014,1.057,1.190,-2.450,-0.770
1353.017476,0.002,0.011,1.057,1.050,-2.450,-0.700
1353.035054,0.004,0.013,1.054,0.910,-2.380,-0.770
1353.052506,0.001,0.013,1.055,0.700,-2.450,-0.770
1353.077451,0.004,0.013,1.056,0.840,-2.450,-0.770
1353.097443,0.004,0.012,1.053,1.050,-2.520,-0.770
1353.117432,0.003,0.015,1.055,0.980,-2.590,-0.770
1353.137455,0.003,0.015,1.057,0.770,-2.380,-0.840
1353.154715,0.006,0.013,1.056,0.700,-2.240,-0.770
1353.176055,0.003,0.012,1.056,0.700,-2.310,-0.770
1353.195948,0.005,0.012,1.053,0.700,-2.450,-0.840
1353.213061,-0.000,0.015,1.052,0.840,-2.520,-0.770
1353.235457,0.002,0.014,1.054,0.840,-2.310,-0.700
1353.257418,0.003,0.013,1.054,0.980,-2.660,-0.840
1353.277407,0.000,0.014,1.055,1.400,-2.520,-0.770
1353.295982,0.004,0.011,1.054,1.400,-2.520,-0.770
1353.313896,0.002,0.014,1.058,0.840,-2.520,-0.770
1353.337434,-0.000,0.013,1.056,0.280,-2.380,-0.770
1353.35553,0.002,0.015,1.056,0.280,-2.240,-0.770
1353.373984,0.003,0.011,1.055,0.280,-2.310,-0.770
1353.392506,0.003,0.011,1.054,0.630,-2.380,-0.700
1353.417463,0.000,0.014,1.054,1.050,-2.590,-0.770
1353.43741,0.001,0.011,1.057,1.190,-2.660,-0.700
1353.455455,0.001,0.011,1.057,1.120,-2.520,-0.770
1353.472563,0.002,0.016,1.056,0.840,-2.520,-0.770
1353.493977,0.002,0.015,1.056,0.700,-2.520,-0.770
1353.517396,0.004,0.012,1.057,0.490,-2.450,-0.700
1353.537402,0.003,0.013,1.055,0.630,-2.450,-0.770
1353.556479,0.002,0.011,1.054,0.840,-2.590,-0.700
1353.576932,0.004,0.013,1.052,1.190,-2.660,-0.700
1353.595901,0.002,0.013,1.056,1.260,-2.800,-0.700
1353.61406,0.003,0.013,1.054,1.190,-2.590,-0.770
1353.636454,0.004,0.014,1.056,0.910,-2.590,-0.840
1353.655473,0.002,0.014,1.056,0.840,-2.450,-0.770
1353.677422,0.003,0.010,1.056,0.840,-2.520,-0.770
1353.696491,0.003,0.011,1.054,0.770,-2.520,-0.770
1353.715941,0.003,0.012,1.057,0.910,-2.520,-0.700
1353.734053,0.002,0.011,1.055,0.980,-2.450,-0.840
1353.753952,0.003,0.015,1.055,0.770,-2.520,-0.770
1353.773054,0.004,0.011,1.057,0.700,-2.380,-0.770
1353.792902,0.002,0.012,1.053,0.560,-2.380,-0.700
1353.812557,0.001,0.012,1.054,0.630,-2.380,-0.840
1353.832511,0.001,0.011,1.053,0.560,-2.380,-0.700
1353.852527,0.001,0.012,1.056,0.840,-2.450,-0.700
1353.872517,0.002,0.011,1.054,1.120,-2.520,-0.770
1353.895932,0.003,0.012,1.057,0.910,-2.450,-0.840
1353.913899,0.002,0.014,1.057,0.700,-2.380,-0.840
1353.93255,0.002,0.011,1.054,0.700,-2.450,-0.630
1353.954054,0.003,0.014,1.055,0.700,-2.520,-0.700
1353.972963,0.004,0.014,1.054,0.910,-2.450,-0.700
1353.992515,0.001,0.011,1.055,0.980,-2.520,-0.770
1354.01405,0.003,0.012,1.055,0.910,-2.450,-0.700
1354.037572,0.001,0.010,1.053,1.260,-2.590,-0.700
1354.0574,0.006,0.012,1.055,1.610,-3.010,-0.770
1354.075456,-0.001,0.012,1.056,1.470,-2.800,-0.840
1354.097435,0.003,0.012,1.057,0.980,-2.450,-0.910
1354.117396,0.003,0.012,1.054,0.490,-2.380,-0.700
1354.137382,0.002,0.012,1.055,0.490,-2.380,-0.770
1354.157406,0.004,0.013,1.055,0.980,-2.380,-0.770
1354.176459,0.003,0.011,1.053,1.260,-2.730,-0.840
1354.1974,0.003,0.010,1.055,1.540,-2.450,-0.910
1354.212505,0.004,0.015,1.056,1.540,-2.590,-0.980
1354.237385,0.000,0.017,1.054,0.700,-2.800,-0.770
1354.255437,0.001,0.013,1.056,1.190,-2.450,-0.700
1354.277424,0.005,0.014,1.057,1.190,-2.590,-0.770
1354.295538,0.002,0.012,1.055,0.910,-2.520,-0.630
1354.312974,0.003,0.014,1.053,0.700,-2.450,-0.770
1354.33294,0.005,0.010,1.055,0.770,-2.380,-0.700
1354.352546,0.002,0.010,1.054,0.840,-2.450,-0.770
1354.372521,0.002,0.013,1.055,0.980,-2.590,-0.770
1354.393934,0.004,0.013,1.055,0.840,-2.520,-0.840
1354.41395,0.002,0.014,1.054,0.980,-2.450,-0.770
1354.433974,0.002,0.014,1.054,1.120,-2.520,-0.840
1354.45391,0.003,0.014,1.056,1.260,-2.520,-0.770
1354.472538,0.004,0.011,1.056,1.120,-2.520,-0.840
1354.4925,0.006,0.015,1.054,0.770,-2.450,-0.700
1354.51741,0.006,0.014,1.054,0.630,-2.310,-0.770
1354.533506,0.004,0.013,1.056,0.490,-2.240,-0.840
1354.552499,0.002,0.012,1.056,0.700,-2.380,-0.770
1354.577443,0.003,0.013,1.055,0.770,-2.310,-0.700
1354.592518,0.002,0.011,1.054,1.050,-2.520,-0.770
1354.612493,0.005,0.013,1.056,1.190,-2.590,-0.770
1354.632528,0.002,0.014,1.056,1.260,-2.520,-0.770
1354.654061,0.003,0.012,1.057,0.980,-2.450,-0.630
1354.672492,0.005,0.012,1.056,0.910,-2.450,-0.770
1354.697438,0.004,0.012,1.053,0.980,-2.520,-0.770
1354.7174,0.003,0.013,1.054,1.330,-2.590,-0.700
1354.737387,0.003,0.013,1.057,1.260,-2.590,-0.770
1354.757429,0.002,0.012,1.053,0.980,-2.450,-0.770
1354.777395,0.005,0.012,1.055,1.260,-2.590,-0.910
1354.796924,0.005,0.010,1.054,1.470,-2.590,-0.770
1354.813048,0.003,0.012,1.055,1.260,-2.590,-0.770
1354.837393,0.001,0.015,1.057,0.700,-2.520,-0.840
1354.855449,0.001,0.015,1.055,-0.420,-2.100,-0.700
1354.87743,0.003,0.014,1.051,0.490,-1.890,-0.700
1354.897463,0.001,0.013,1.055,0.630,-2.520,-0.770
1354.913432,0.002,0.009,1.054,1.120,-2.520,-0.770
1354.93305,0.004,0.012,1.053,1.470,-2.380,-0.630
1354.956928,0.003,0.015,1.055,1.400,-2.730,-0.770
1354.976956,0.007,0.016,1.058,1.190,-2.590,-0.770
1354.996948,0.003,0.014,1.055,0.910,-2.520,-0.840
1355.016925,0.002,0.014,1.056,0.910,-2.310,-0.840
1355.036966,0.005,0.016,1.056,0.490,-2.380,-0.700
1355.055039,0.005,0.011,1.055,0.560,-2.380,-0.770
1355.07342,0.001,0.011,1.056,0.630,-2.380,-0.840
1355.097373,0.003,0.014,1.054,0.840,-2.520,-0.840
1355.114048,0.003,0.013,1.053,0.910,-2.450,-0.770
1355.134457,0.002,0.013,1.052,0.840,-2.520,-0.630
1355.154878,0.004,0.014,1.057,0.700,-2.380,-0.700
1355.174966,0.004,0.013,1.055,0.910,-2.520,-0.700
1355.19252,0.004,0.016,1.055,2.100,-2.030,-0.700
1355.212495,0.000,0.014,1.058,0.980,-2.520,-0.770
1355.232491,0.006,0.014,1.057,0.910,-1.960,-0.700
1355.252569,0.003,0.014,1.056,0.630,-2.240,-0.770
1355.275888,0.002,0.012,1.055,0.840,-2.310,-0.910
1355.295967,0.004,0.012,1.053,0.700,-2.380,-0.980
1355.313052,0.002,0.011,1.054,1.260,-2.520,-0.840
1355.333447,-0.004,0.015,1.053,1.330,-2.940,-0.770
1355.353927,0.005,0.012,1.059,1.610,-2.450,-0.700
1355.374038,0.005,0.015,1.056,1.680,-2.730,-0.770
1355.392489,0.006,0.015,1.055,1.680,-2.870,-0.770
1355.417469,0.123,0.016,1.057,1.470,-2.520,-0.770
1355.435065,0.003,0.013,1.056,0.770,-2.450,-0.840
1355.457457,0.004,0.014,1.055,0.420,-2.380,-0.770
1355.477402,0.000,0.013,1.052,0.210,-2.170,-0.910
1355.497391,0.005,0.016,1.050,0.840,-2.730,-0.840
1355.517381,0.002,0.015,1.050,1.330,-2.520,-0.770
1355.535036,0.003,0.010,1.053,1.470,-2.520,-0.840
1355.554569,0.002,0.012,1.055,1.540,-2.590,-0.770
1355.576874,0.004,0.012,1.057,1.540,-2.520,-0.770
1355.596945,0.002,0.016,1.056,0.980,-2.520,-0.770
1355.616884,0.000,0.016,1.059,0.280,-2.100,-0.700
1355.636967,0.006,0.013,1.055,0.070,-2.170,-0.840
1355.657469,0.002,0.013,1.054,0.350,-2.240,-0.770
1355.672536,0.002,0.012,1.052,0.630,-2.310,-0.700
1355.692512,0.003,0.013,1.055,0.980,-2.450,-0.700
1355.712508,0.003,0.013,1.057,1.260,-2.520,-0.560
1355.737402,0.004,0.015,1.056,1.190,-2.520,-0.770
1355.755504,0.004,0.013,1.055,1.120,-2.450,-0.700
1355.773938,0.003,0.011,1.056,0.980,-2.450,-0.700
1355.797405,0.002,0.012,1.056,0.350,-2.520,-0.630
1355.817439,0.003,0.016,1.056,1.260,-2.380,-0.770
1355.835535,0.000,0.011,1.057,0.840,-2.310,-0.770
1355.853417,0.006,0.010,1.057,0.980,-2.170,-0.700
1355.873045,0.004,0.012,1.054,0.980,-2.660,-0.840
1355.892889,0.003,0.014,1.056,1.610,-2.800,-0.980
1355.912498,0.006,0.014,1.056,1.330,-2.520,-0.770
1355.934488,0.004,0.014,1.054,1.400,-2.450,-0.770
1355.95551,0.001,0.015,1.056,1.050,-2.800,-0.770
1355.977383,0.004,0.014,1.057,1.400,-2.520,-0.700
1355.997388,0.002,0.013,1.056,1.190,-2.520,-0.700
1356.017394,0.003,0.014,1.055,0.980,-2.520,-0.770
1356.035463,0.002,0.015,1.057,0.700,-2.450,-0.840
1356.053036,0.001,0.013,1.056,0.560,-2.380,-0.770
1356.072501,0.004,0.014,1.054,0.280,-2.310,-0.840
1356.094537,0.003,0.016,1.054,0.420,-2.240,-0.700
1356.117426,0.006,0.013,1.057,0.630,-2.310,-0.770
1356.135935,0.003,0.014,1.055,1.120,-2.520,-0.840
1356.15405,0.004,0.011,1.054,1.330,-2.520,-0.840
1356.177453,0.001,0.015,1.054,1.260,-2.660,-0.840
1356.192496,0.003,0.015,1.056,1.120,-2.730,-0.770
1356.217411,0.003,0.013,1.056,0.910,-2.520,-0.840
1356.237403,0.006,0.013,1.056,0.630,-2.380,-0.770
1356.255497,0.006,0.014,1.056,0.490,-2.380,-0.910
1356.275467,0.002,0.015,1.055,0.770,-2.520,-0.840
1356.29687,0.004,0.014,1.054,0.980,-2.590,-0.700
1356.313045,0.004,0.013,1.055,0.910,-2.520,-0.770
1356.336669,0.000,0.015,1.055,0.840,-2.450,-0.840
1356.35403,0.005,0.014,1.053,0.980,-2.520,-0.770
1356.373041,0.005,0.014,1.054,1.400,-2.590,-0.770
1356.392521,0.005,0.014,1.057,1.330,-2.590,-0.700
1356.412499,0.001,0.014,1.055,0.910,-2.590,-0.840
1356.433037,0.002,0.014,1.056,0.350,-2.310,-0.630
1356.457403,0.002,0.014,1.055,0.210,-2.240,-0.910
1356.475492,0.003,0.013,1.054,0.280,-2.310,-0.700
1356.494867,0.005,0.013,1.052,0.770,-2.380,-0.840
1356.515038,0.003,0.012,1.054,1.190,-2.450,-0.700
1356.535926,0.003,0.012,1.059,1.190,-2.730,-0.700
1356.55587,0.003,0.016,1.056,1.120,-2.450,-0.840
1356.575955,0.003,0.016,1.057,0.980,-2.450,-0.700
1356.592964,0.000,0.014,1.055,0.700,-2.380,-0.770
1356.612474,0.004,0.015,1.055,0.560,-2.380,-0.770
1356.634445,0.002,0.012,1.052,0.560,-2.310,-0.770
1356.65743,0.002,0.011,1.053,0.420,-2.380,-0.840
1356.677408,0.005,0.012,1.052,0.910,-2.520,-0.700
1356.692501,0.001,0.016,1.053,1.050,-2.590,-0.840
1356.717426,0.003,0.012,1.055,1.190,-2.660,-0.910
1356.735942,0.003,0.016,1.058,0.980,-2.450,-0.840
1356.753918,0.001,0.013,1.056,0.700,-2.450,-0.770
1356.777425,0.002,0.013,1.056,0.700,-2.450,-0.770
1356.797392,0.003,0.014,1.054,0.770,-2.380,-0.840
1356.81693,0.004,0.015,1.054,0.770,-2.380,-0.700
1356.836873,0.003,0.011,1.055,0.630,-2.380,-0.840
1356.856067,0.006,0.015,1.055,0.840,-2.450,-0.560
1356.872512,0.005,0.013,1.055,0.840,-2.310,-0.840
1356.892488,0.004,0.013,1.054,0.840,-2.520,-0.770
1356.917473,0.002,0.013,1.056,0.700,-2.520,-0.770
1356.935038,0.003,0.013,1.056,0.770,-2.520,-0.840
1356.954914,0.003,0.013,1.056,0.840,-2.520,-0.700
1356.972487,0.002,0.015,1.054,1.190,-2.450,-0.630
1356.992495,0.003,0.014,1.053,1.260,-2.590,-0.700
1357.012472,0.000,0.011,1.055,1.050,-2.590,-0.700
1357.032507,0.002,0.016,1.055,1.050,-2.520,-0.840
1357.055025,0.004,0.014,1.055,0.980,-2.450,-0.700
1357.072496,0.005,0.013,1.056,0.980,-2.450,-0.700
1357.094911,0.003,0.015,1.055,0.910,-2.450,-0.770
1357.112498,0.004,0.013,1.056,0.980,-2.380,-0.840
1357.1355,0.001,0.012,1.055,0.980,-2.380,-0.770
1357.154874,0.006,0.011,1.054,1.120,-2.520,-0.770
1357.175018,0.003,0.013,1.055,1.190,-2.660,-0.770
1357.192536,0.002,0.015,1.055,1.120,-2.520,-0.700
1357.212496,0.003,0.014,1.056,0.490,-2.310,-0.840
1357.237397,0.005,0.014,1.057,0.140,-2.240,-0.770
1357.257353,0.005,0.012,1.054,0.140,-2.170,-0.770
1357.277401,0.002,0.010,1.054,0.560,-2.380,-0.770
1357.296448,0.005,0.013,1.054,0.980,-2.520,-0.770
1357.312498,0.000,0.010,1.053,1.400,-2.590,-0.770
1357.332484,0.004,0.014,1.056,1.330,-2.520,-0.770
1357.352566,0.003,0.014,1.055,1.260,-2.660,-0.840
1357.372495,0.003,0.016,1.055,1.120,-2.520,-0.700
1357.397474,0.005,0.013,1.053,0.980,-2.590,-0.700
1357.417373,0.002,0.012,1.055,0.630,-2.380,-0.840
1357.434441,0.003,0.011,1.052,0.770,-2.380,-0.770
1357.454156,0.001,0.013,1.053,1.190,-2.660,-0.840
1357.473046,0.004,0.011,1.056,1.680,-2.660,-0.770
1357.492901,0.002,0.012,1.055,1.470,-2.660,-0.840
1357.512874,0.001,0.016,1.054,1.120,-2.590,-0.770
1357.537407,0.003,0.014,1.057,0.910,-2.450,-0.770
1357.555479,0.003,0.013,1.057,0.700,-2.380,-0.840
1357.573913,0.003,0.013,1.056,0.700,-2.450,-0.840
1357.59386,-0.000,0.014,1.053,0.630,-2.380,-0.770
1357.612869,0.003,0.014,1.054,0.700,-2.240,-0.840
1357.637468,0.002,0.012,1.056,0.700,-2.380,-0.840
1357.656437,0.001,0.015,1.055,1.050,-2.380,-0.700
1357.677368,0.000,0.011,1.054,0.770,-2.380,-0.840
1357.692497,0.004,0.012,1.055,0.910,-2.590,-0.770
1357.717397,0.001,0.017,1.054,0.770,-2.450,-0.840
1357.735505,0.001,0.013,1.054,1.120,-2.590,-0.770
1357.757404,0.004,0.013,1.055,1.470,-2.590,-0.840
1357.777373,0.004,0.011,1.054,1.470,-2.590,-0.770
1357.796902,0.003,0.016,1.056,1.260,-2.660,-0.840
1357.816928,0.001,0.013,1.057,1.190,-2.520,-0.770
1357.837001,0.006,0.015,1.057,1.190,-2.590,-0.700
1357.856192,0.004,0.017,1.055,1.050,-2.520,-0.840
1357.874017,0.002,0.014,1.056,0.980,-2.520,-0.630
1357.893908,0.002,0.015,1.054,0.840,-2.450,-0.700
1357.913862,0.002,0.013,1.053,0.980,-2.520,-0.770
1357.933028,0.004,0.014,1.055,1.120,-2.520,-0.840
1357.952464,0.004,0.013,1.055,1.120,-2.520,-0.770
1357.972492,0.003,0.014,1.057,0.700,-2.450,-0.910
1357.996487,0.004,0.015,1.056,0.280,-2.240,-0.770
1358.016448,0.004,0.012,1.053,0.350,-2.170,-0.770
1358.033661,0.002,0.014,1.054,0.490,-2.380,-0.770
1358.057449,0.001,0.014,1.051,0.910,-2.450,-0.840
1358.077372,0.003,0.015,1.057,1.400,-2.520,-0.840
1358.096903,0.005,0.015,1.055,1.260,-2.520,-0.770
1358.114947,0.003,0.015,1.053,1.050,-2.450,-0.770
1358.134032,0.003,0.013,1.055,0.770,-2.520,-0.700
1358.153947,0.005,0.016,1.056,0.700,-2.310,-0.700
1358.173016,0.003,0.013,1.056,0.700,-2.380,-0.700
1358.193035,0.003,0.015,1.055,0.700,-2.310,-0.770
1358.217415,0.003,0.014,1.054,0.980,-2.310,-0.770
1358.235511,0.005,0.014,1.055,1.260,-2.520,-0.770
1358.257363,0.000,0.012,1.055,1.610,-2.800,-0.770
1358.277369,0.002,0.014,1.055,1.540,-2.800,-0.770
1358.29686,0.004,0.010,1.054,1.260,-2.590,-0.770
1358.317401,0.005,0.011,1.057,1.120,-2.380,-0.840
1358.335855,0.003,0.013,1.051,0.910,-2.520,-0.910
1358.355942,0.003,0.014,1.055,1.260,-2.450,-0.700
1358.374032,0.004,0.014,1.054,1.120,-2.380,-0.840
1358.393913,0.005,0.014,1.055,1.120,-2.590,-0.840
1358.413013,0.002,0.014,1.056,0.980,-2.520,-0.770
1358.436657,0.003,0.014,1.055,0.770,-2.380,-0.700
1358.455425,0.005,0.014,1.056,0.630,-2.380,-0.630
1358.475476,0.005,0.013,1.055,0.700,-2.380,-0.700
1358.496443,0.004,0.014,1.056,0.980,-2.450,-0.700
1358.516031,0.003,0.016,1.053,0.980,-2.520,-0.840
1358.537455,0.002,0.014,1.056,1.400,-2.590,-0.840
1358.557361,0.004,0.014,1.057,1.050,-2.450,-0.770
1358.57642,0.004,0.013,1.055,0.910,-2.450,-0.770
1358.592939,0.006,0.017,1.057,1.120,-2.520,-0.560
1358.612872,0.004,0.014,1.057,1.050,-2.520,-0.770
1358.63258,0.004,0.012,1.058,0.840,-2.380,-0.700
1358.656505,0.000,0.015,1.055,0.910,-2.520,-0.770
1358.677356,0.004,0.014,1.054,0.980,-2.450,-0.840
1358.696936,0.006,0.012,1.054,1.400,-2.450,-0.840
1358.716917,0.004,0.014,1.056,1.610,-2.520,-0.840
1358.736942,0.002,0.014,1.055,1.680,-2.730,-0.910
1358.756106,0.001,0.016,1.058,1.260,-2.660,-0.840
1358.775867,0.003,0.015,1.056,0.700,-2.380,-0.700
1358.797351,0.002,0.016,1.055,0.350,-2.100,-0.700
1358.816907,0.004,0.014,1.054,0.350,-2.170,-0.700
1358.836019,0.004,0.013,1.053,0.840,-2.380,-0.700
1358.854024,0.003,0.012,1.054,1.120,-2.520,-0.700
1358.872482,0.004,0.014,1.054,1.470,-2.660,-0.630
1358.897387,0.005,0.013,1.056,1.470,-2.590,-0.770
1358.917363,0.002,0.014,1.055,1.050,-2.450,-0.840
1358.937367,0.005,0.015,1.057,0.700,-2.310,-0.770
1358.957407,0.003,0.016,1.055,0.770,-2.450,-0.770
1358.975011,0.003,0.014,1.055,0.840,-2.450,-0.770
1358.99247,0.002,0.014,1.051,0.700,-2.450,-0.840
1359.017376,0.002,0.016,1.054,1.050,-2.520,-0.840
1359.036523,0.004,0.014,1.055,1.330,-2.730,-0.840
1359.054939,0.002,0.015,1.054,1.260,-2.660,-0.770
1359.074907,-0.124,0.014,1.056,1.050,-2.590,-0.700
1359.092477,0.004,0.014,1.057,0.980,-2.520,-0.840
1359.112457,0.004,0.016,1.055,0.770,-2.380,-0.770
1359.137455,0.000,0.014,1.055,0.700,-2.380,-0.770
1359.157411,0.006,0.015,1.054,0.770,-2.380,-0.700
1359.177431,0.006,0.013,1.052,1.260,-2.660,-0.700
1359.197454,0.001,0.022,1.055,1.190,-2.030,-0.770
1359.216473,0.004,0.018,1.058,0.560,-2.170,-0.770
1359.237353,0.001,0.015,1.056,0.560,-2.520,-0.910
1359.255006,0.003,0.012,1.055,0.700,-2.520,-0.980
1359.272482,0.004,0.011,1.054,0.700,-2.240,-0.980
1359.297378,-0.001,0.017,1.053,1.260,-2.590,-0.840
1359.317449,-0.001,0.016,1.052,1.610,-2.800,-0.700
1359.33306,0.005,0.017,1.057,1.890,-2.940,-0.700
1359.352476,0.004,0.017,1.057,1.470,-2.380,-0.770
1359.372474,0.003,0.016,1.058,0.560,-2.240,-0.840
1359.396547,0.002,0.016,1.056,0.140,-2.310,-0.770
1359.416017,0.002,0.013,1.052,0.420,-2.380,-0.700
1359.437395,0.002,0.013,1.052,0.840,-2.590,-0.840
1359.457347,0.002,0.014,1.055,1.190,-2.660,-0.840
1359.473397,0.004,0.014,1.053,1.400,-2.590,-0.770
1359.493916,0.004,0.015,1.055,1.540,-2.660,-0.980
1359.515523,0.004,0.017,1.056,1.750,-2.800,-0.840
1359.536446,0.002,0.015,1.059,1.470,-2.730,-0.770
1359.554004,0.002,0.017,1.059,0.700,-2.450,-0.700
1359.57453,0.004,0.017,1.057,-0.280,-2.030,-0.700
1359.596906,0.005,0.015,1.052,-0.630,-1.890,-0.630
1359.613899,0.004,0.013,1.053,-0.350,-1.960,-0.840
1359.633862,0.000,0.013,1.051,0.420,-2.240,-0.700
1359.653923,0.003,0.015,1.053,1.120,-2.450,-0.630
1359.673894,0.003,0.016,1.057,1.400,-2.590,-0.700
1359.693895,0.002,0.015,1.055,1.400,-2.590,-0.910
1359.712903,0.001,0.012,1.055,1.820,-2.450,-0.770
1359.732445,0.002,0.010,1.059,1.680,-2.520,-0.700
1359.752479,0.006,0.014,1.058,0.840,-2.240,-0.770
1359.77301,0.001,0.011,1.056,0.420,-2.240,-0.700
1359.792888,0.001,0.011,1.054,0.700,-2.450,-0.840
1359.812481,0.003,0.013,1.053,0.630,-2.450,-0.840
1359.834999,0.002,0.015,1.052,1.190,-2.520,-0.630
1359.854924,0.002,0.014,1.056,1.400,-2.730,-0.840
1359.872468,0.004,0.014,1.059,1.190,-2.520,-0.630
1359.897425,0.003,0.013,1.057,0.840,-2.520,-0.840
1359.917392,0.003,0.013,1.055,1.050,-2.590,-0.840
1359.934539,0.004,0.012,1.056,1.120,-2.520,-0.700
1359.954186,0.005,0.011,1.055,1.260,-2.520,-0.910
1359.972926,0.002,0.015,1.053,1.260,-2.520,-0.700
1359.992478,0.004,0.016,1.056,1.050,-2.590,-0.700
1360.01742,0.005,0.015,1.055,0.840,-2.590,-0.840
1360.035001,0.006,0.014,1.057,0.560,-2.310,-0.700
1360.052476,0.003,0.014,1.053,0.490,-2.310,-0.770
1360.077401,0.004,0.014,1.054,0.700,-2.310,-0.840
1360.097387,0.004,0.012,1.053,0.840,-2.380,-0.840
1360.115003,0.002,0.012,1.052,0.840,-2.380,-0.770
1360.134896,0.003,0.015,1.055,0.910,-2.380,-0.560
1360.15485,0.006,0.014,1.055,0.910,-2.380,-0.770
1360.177349,0.004,0.014,1.055,0.770,-2.450,-0.840
1360.196931,0.005,0.013,1.054,0.840,-2.450,-0.910
1360.216903,0.004,0.013,1.054,1.050,-2.450,-0.840
1360.232529,0.005,0.012,1.057,0.910,-2.520,-0.700
1360.255921,0.000,0.014,1.059,0.840,-2.450,-0.630
1360.27492,0.004,0.013,1.056,1.120,-2.380,-0.700
1360.292865,0.004,0.013,1.054,1.260,-2.590,-0.770
1360.317404,0.001,0.015,1.056,1.120,-2.590,-0.840
1360.335506,0.001,0.014,1.056,0.980,-2.520,-0.700
1360.353008,0.002,0.013,1.057,0.630,-2.380,-0.770
1360.376487,0.003,0.013,1.052,0.350,-2.380,-0.770
1360.393897,0.003,0.012,1.052,0.420,-2.310,-0.770
1360.413889,0.001,0.013,1.056,0.980,-2.590,-0.770
1360.433923,0.004,0.012,1.056,1.260,-2.590,-0.840
1360.453858,0.000,0.016,1.055,1.330,-2.520,-0.700
1360.473016,0.003,0.014,1.057,1.050,-2.590,-0.770
1360.492879,0.005,0.013,1.057,1.050,-2.520,-0.630
1360.517451,0.003,0.015,1.057,0.840,-2.450,-0.770
1360.534538,0.003,0.015,1.055,0.840,-2.380,-0.770
1360.556845,0.003,0.016,1.053,0.630,-2.310,-0.700
1360.574894,0.003,0.015,1.056,0.700,-2.380,-0.770
1360.592463,0.003,0.015,1.052,1.120,-2.450,-0.770
1360.612466,0.002,0.014,1.053,1.400,-2.520,-0.840
1360.637444,0.001,0.015,1.057,1.260,-2.660,-0.840
1360.6534,0.004,0.014,1.053,1.050,-2.590,-0.840
1360.672995,0.003,0.015,1.055,0.980,-2.520,-0.770
1360.697394,0.006,0.015,1.055,0.910,-2.520,-0.840
1360.71732,0.002,0.015,1.054,1.120,-2.590,-0.910
1360.735399,0.004,0.014,1.057,0.980,-2.590,-0.770
1360.757361,0.003,0.013,1.055,1.120,-2.520,-0.700
1360.77735,0.001,0.014,1.056,0.980,-2.520,-0.840
1360.795927,0.002,0.016,1.055,0.840,-2.520,-0.700
1360.815849,0.004,0.013,1.057,0.770,-2.450,-0.770
1360.835022,0.002,0.014,1.054,0.770,-2.450,-0.700
1360.854245,0.004,0.013,1.053,0.910,-2.380,-0.770
1360.873928,0.003,0.015,1.055,1.050,-2.450,-0.770
1360.892454,0.000,0.012,1.056,1.120,-2.590,-0.840
1360.913992,0.002,0.015,1.055,0.980,-2.520,-0.700
1360.937422,0.003,0.015,1.054,0.840,-2.380,-0.700
1360.954516,0.004,0.013,1.057,0.840,-2.450,-0.910
1360.976921,0.002,0.012,1.055,0.910,-2.520,-0.700
1360.996852,0.002,0.014,1.054,0.910,-2.590,-0.770
1361.017411,0.002,0.014,1.054,0.980,-2.380,-0.770
1361.037399,0.003,0.014,1.057,1.120,-2.520,-0.700
1361.057421,0.004,0.014,1.051,1.470,-2.660,-0.770
1361.075517,0.005,0.014,1.054,1.470,-2.590,-0.770
1361.097356,0.003,0.015,1.056,1.120,-2.590,-0.840
1361.112439,0.003,0.016,1.054,0.700,-2.310,-0.770
1361.136457,0.004,0.014,1.052,0.350,-2.380,-0.840
1361.156918,0.003,0.014,1.054,0.490,-2.240,-0.700
1361.174906,0.002,0.013,1.052,0.700,-2.380,-0.700
1361.192474,0.003,0.014,1.052,1.190,-2.450,-0.700
1361.212452,0.004,0.014,1.054,1.330,-2.590,-0.630
1361.237442,0.005,0.016,1.056,1.120,-2.520,-0.840
1361.255479,0.002,0.014,1.055,0.980,-2.450,-0.770
1361.277345,0.002,0.015,1.054,0.980,-2.590,-0.700
1361.297357,0.002,0.017,1.056,0.770,-2.380,-0.770
1361.316481,0.005,0.013,1.055,0.840,-2.380,-0.770
1361.335401,0.004,0.015,1.054,0.770,-2.450,-0.840
1361.35246,0.003,0.012,1.055,1.050,-2.450,-0.770
1361.372467,0.003,0.013,1.054,1.330,-2.450,-0.840
1361.397341,0.004,0.013,1.056,1.470,-2.730,-0.770
1361.417359,0.002,0.014,1.055,1.400,-2.730,-0.840
1361.437321,0.005,0.016,1.055,0.980,-2.380,-0.840
1361.457334,0.006,0.013,1.056,0.910,-2.450,-0.770
1361.472458,0.004,0.014,1.054,0.980,-2.450,-0.770
1361.497346,0.003,0.017,1.054,0.910,-2.450,-0.770
1361.517335,0.004,0.014,1.053,0.980,-2.380,-0.770
1361.535417,0.002,0.016,1.056,1.050,-2.520,-0.770
1361.555876,0.000,0.014,1.054,0.910,-2.450,-0.770
1361.574886,0.004,0.015,1.055,0.910,-2.450,-0.770
1361.593838,0.004,0.013,1.054,0.700,-2.450,-0.840
1361.612451,0.003,0.013,1.054,0.840,-2.520,-0.770
1361.637343,0.003,0.016,1.056,0.840,-2.450,-0.840
1361.657374,0.006,0.014,1.053,1.260,-2.520,-0.770
1361.676879,0.004,0.015,1.056,1.050,-2.450,-0.910
1361.694881,0.003,0.016,1.056,1.120,-2.380,-0.840
1361.712877,0.003,0.014,1.053,0.770,-2.380,-0.770
1361.732451,0.004,0.017,1.056,0.910,-2.450,-0.700
1361.752452,0.001,0.014,1.056,0.910,-2.450,-0.840
1361.775441,0.005,0.017,1.054,0.840,-2.450,-0.770
1361.795509,0.001,0.015,1.057,1.120,-2.590,-0.770
1361.814985,0.001,0.016,1.055,1.190,-2.520,-0.840
1361.832991,0.003,0.013,1.053,1.330,-2.520,-0.770
1361.852533,0.004,0.013,1.055,1.470,-2.730,-0.840
1361.872459,0.005,0.014,1.055,1.470,-2.660,-0.700
1361.89743,0.005,0.016,1.057,0.770,-2.450,-0.770
1361.91639,0.004,0.014,1.057,0.420,-2.240,-0.700
1361.933917,0.001,0.014,1.053,0.350,-2.310,-0.770
1361.952441,0.005,0.014,1.055,0.630,-2.310,-0.840
1361.972475,0.004,0.014,1.053,0.910,-2.450,-0.700
1361.99246,0.003,0.014,1.057,1.190,-2.660,-0.630
1362.017356,0.002,0.015,1.056,1.190,-2.520,-0.840
1362.035912,0.004,0.017,1.054,0.980,-2.520,-0.910
1362.053984,0.003,0.016,1.054,0.980,-2.520,-0.840
1362.072473,0.002,0.017,1.054,0.910,-2.450,-0.770
1362.094461,0.002,0.015,1.056,0.840,-2.380,-0.700
1362.116828,0.006,0.015,1.056,0.700,-2.380,-0.770
1362.133983,0.005,0.015,1.057,0.910,-2.520,-0.700
1362.157345,0.005,0.014,1.053,1.120,-2.660,-0.840
1362.177332,0.003,0.015,1.053,1.400,-2.660,-0.910
1362.192465,0.004,0.014,1.057,1.260,-2.590,-0.840
1362.217279,0.004,0.015,1.057,0.910,-2.520,-0.700
1362.237329,0.005,0.014,1.054,0.980,-2.380,-0.840
1362.252444,0.004,0.015,1.055,0.700,-2.450,-0.770
1362.274512,0.003,0.016,1.055,0.770,-2.520,-0.840
1362.294993,0.004,0.014,1.055,0.980,-2.380,-0.770
1362.314838,0.004,0.015,1.055,1.050,-2.520,-0.910
1362.334007,0.003,0.019,1.054,1.050,-2.590,-0.770
1362.35245,0.002,0.014,1.053,0.700,-2.380,-0.840
1362.375463,0.007,0.015,1.053,0.630,-2.310,-0.770
1362.396436,0.005,0.015,1.057,0.490,-2.240,-0.840
1362.412447,0.004,0.015,1.054,0.770,-2.450,-0.910
1362.434977,0.005,0.015,1.055,1.050,-2.450,-0.770
1362.452448,0.001,0.015,1.053,0.980,-2.520,-0.700
1362.472464,0.002,0.016,1.055,1.050,-2.590,-0.840
1362.497369,0.003,0.017,1.053,1.050,-2.520,-0.910
1362.517327,0.004,0.016,1.053,0.840,-2.310,-0.770
1362.534403,0.004,0.019,1.054,0.420,-2.380,-0.770
1362.555486,0.001,0.016,1.054,0.700,-2.380,-0.770
1362.574415,0.004,0.017,1.054,0.700,-2.380,-0.700
1362.592995,0.003,0.013,1.053,0.910,-2.380,-0.700
1362.612836,0.004,0.013,1.052,0.910,-2.310,-0.770
1362.632854,0.004,0.015,1.054,1.120,-2.450,-0.840
1362.657383,0.003,0.013,1.053,1.400,-2.660,-0.770
1362.677354,0.003,0.015,1.058,1.190,-2.730,-0.840
1362.697376,0.005,0.018,1.055,0.770,-2.380,-0.840
1362.717338,0.004,0.016,1.055,0.210,-2.240,-0.700
1362.737345,0.004,0.016,1.054,0.070,-2.170,-0.770
1362.752461,0.003,0.014,1.056,0.350,-2.170,-0.770
1362.777335,0.003,0.013,1.055,0.770,-2.380,-0.770
1362.79687,0.003,0.015,1.057,1.190,-2.520,-0.840
1362.815878,0.003,0.015,1.055,1.190,-2.450,-0.700
1362.835008,0.001,0.016,1.056,1.120,-2.450,-0.700
1362.854869,0.004,0.014,1.056,0.980,-2.380,-0.700
1362.873914,0.004,0.014,1.056,0.840,-2.380,-0.700
1362.892429,0.001,0.016,1.052,0.700,-2.380,-0.700
1362.91246,0.004,0.013,1.055,0.840,-2.380,-0.630
1362.937381,0.005,0.013,1.053,0.700,-2.520,-0.840
1362.955476,0.004,0.015,1.055,0.980,-2.660,-0.910
1362.972912,0.000,0.017,1.054,1.190,-2.590,-0.770
1362.997377,0.005,0.012,1.057,1.400,-2.520,-0.770
1363.013366,0.004,0.016,1.058,0.770,-2.310,-0.840
1363.037401,0.003,0.015,1.056,0.630,-2.450,-0.770
1363.057376,0.002,0.013,1.056,0.630,-2.450,-0.700
1363.077394,0.003,0.014,1.052,0.700,-2.450,-0.700
1363.09734,0.003,0.014,1.055,0.840,-2.380,-0.770
1363.117328,0.002,0.015,1.054,0.840,-2.450,-0.770
1363.136389,0.002,0.013,1.053,0.980,-2.450,-0.770
1363.155401,0.002,0.015,1.054,0.840,-2.450,-0.770
1363.174905,0.004,0.014,1.055,0.700,-2.310,-0.700
1363.192996,0.003,0.013,1.055,0.630,-2.310,-0.700
1363.217363,0.004,0.017,1.053,0.560,-2.310,-0.770
1363.237354,0.004,0.016,1.054,0.840,-2.380,-0.910
1363.257307,0.004,0.012,1.053,0.980,-2.450,-0.840
1363.272426,0.003,0.011,1.056,1.120,-2.520,-0.770
1363.295506,0.004,0.015,1.057,1.050,-2.520,-0.700
1363.312438,0.007,0.015,1.057,0.910,-2.590,-0.770
1363.335825,0.005,0.012,1.052,1.050,-2.450,-0.630
1363.353982,0.003,0.013,1.055,0.910,-2.590,-0.770
1363.377379,0.002,0.014,1.053,0.770,-2.520,-0.770
1363.397415,0.006,0.012,1.056,0.840,-2.310,-0.840
1363.417312,0.003,0.014,1.055,0.980,-2.520,-0.770
1363.43539,0.004,0.014,1.055,1.260,-2.590,-0.770
1363.452424,0.000,0.015,1.057,1.120,-2.730,-0.770
1363.47246,0.003,0.015,1.058,0.770,-2.450,-0.700
1363.495863,0.005,0.015,1.058,0.350,-2.310,-0.700
1363.512829,0.003,0.016,1.054,0.350,-2.310,-0.700
1363.53299,0.004,0.014,1.053,0.700,-2.380,-0.630
1363.552445,0.004,0.013,1.052,1.400,-2.520,-0.770
1363.577371,0.004,0.015,1.053,1.540,-2.590,-0.840
1363.597382,0.003,0.015,1.057,1.610,-2.590,-0.840
1363.615475,0.004,0.015,1.056,1.330,-2.520,-0.770
1363.633865,0.002,0.016,1.056,0.980,-2.450,-0.840
1363.653897,0.003,0.014,1.056,0.840,-2.450,-0.700
1363.672423,0.002,0.015,1.055,0.700,-2.450,-0.770
1363.697367,0.001,0.014,1.056,0.560,-2.380,-0.770
1363.717355,0.002,0.014,1.054,0.770,-2.380,-0.840
1363.735449,0.002,0.012,1.056,0.910,-2.520,-0.630
1363.756662,0.001,0.013,1.057,1.400,-2.660,-0.770
1363.776435,0.004,0.014,1.053,1.330,-2.660,-0.700
1363.796813,0.003,0.013,1.054,1.190,-2.590,-0.840
1363.812987,0.003,0.014,1.057,1.120,-2.590,-0.700
1363.837324,0.004,0.014,1.055,1.260,-2.590,-0.770
1363.856387,0.004,0.015,1.056,0.980,-2.450,-0.770
1363.875975,0.004,0.014,1.053,0.910,-2.450,-0.840
1363.897317,0.006,0.014,1.056,0.980,-2.450,-0.630
1363.917313,0.004,0.015,1.055,0.770,-2.450,-0.770
1363.932981,0.003,0.016,1.056,0.700,-2.310,-0.770
1363.952417,0.004,0.016,1.057,0.560,-2.310,-0.700
1363.977322,0.001,0.015,1.053,0.630,-2.240,-0.770
1363.99735,0.004,0.014,1.052,0.910,-2.450,-0.700
1364.014966,0.003,0.015,1.054,1.120,-2.520,-0.840
1364.034862,0.003,0.015,1.055,1.190,-2.590,-0.840
1364.054903,0.001,0.014,1.057,0.630,-2.450,-0.840
1364.072818,0.003,0.017,1.056,0.700,-2.380,-0.770
1364.09582,0.004,0.012,1.054,0.980,-2.450,-0.770
1364.113979,0.002,0.018,1.057,0.910,-2.730,-0.770
1364.137307,0.003,0.016,1.055,1.050,-2.450,-0.770
1364.157296,0.005,0.015,1.055,1.050,-2.520,-0.770
1364.17734,0.002,0.014,1.053,1.330,-2.590,-0.840
1364.197366,0.007,0.016,1.052,1.120,-2.590,-0.770
1364.21737,0.003,0.015,1.056,1.050,-2.660,-0.770
1364.235465,0.002,0.018,1.057,0.840,-2.520,-0.630
1364.257304,0.003,0.014,1.054,0.560,-2.170,-0.840
1364.277317,0.005,0.015,1.053,0.420,-2.240,-0.840
1364.297337,0.002,0.015,1.055,0.910,-2.380,-0.700
1364.315591,0.003,0.014,1.053,1.330,-2.520,-0.770
1364.33732,0.005,0.014,1.054,1.540,-2.450,-0.770
1364.357356,0.006,0.015,1.055,1.470,-2.520,-0.770
1364.372442,0.002,0.015,1.054,1.190,-2.590,-0.770
1364.394978,0.003,0.015,1.057,1.050,-2.450,-0.770
1364.413966,0.003,0.016,1.054,0.770,-2.380,-0.840
1364.432456,0.003,0.018,1.052,0.630,-2.380,-0.560
1364.452432,0.004,0.017,1.055,0.840,-2.450,-0.770
1364.474817,0.003,0.015,1.055,0.910,-2.310,-0.700
1364.492886,0.004,0.016,1.052,1.260,-2.520,-0.700
1364.512819,0.003,0.016,1.054,1.470,-2.590,-0.770
1364.537353,0.004,0.015,1.055,1.330,-2.520,-0.840
1364.55686,0.004,0.017,1.057,0.840,-2.520,-0.840
1364.575153,0.005,0.015,1.056,0.700,-2.380,-0.770
1364.593805,0.004,0.017,1.056,0.700,-2.310,-0.840
1364.612447,0.007,0.016,1.052,0.000,-2.380,-0.840
1364.63738,-0.000,0.019,1.050,0.840,-2.520,-0.770
1364.657303,0.004,0.016,1.050,0.700,-2.380,-0.770
1364.677314,0.004,0.015,1.054,0.980,-2.310,-0.770
1364.696897,0.005,0.017,1.057,0.700,-2.450,-0.700
1364.712974,0.000,0.014,1.057,0.840,-2.450,-0.700
1364.737312,0.005,0.014,1.056,0.770,-2.380,-0.630
1364.755395,0.004,0.016,1.055,0.840,-2.380,-0.840
1364.777394,0.003,0.014,1.054,1.120,-2.590,-0.770
1364.797384,0.004,0.015,1.056,1.260,-2.660,-0.700
1364.817372,0.003,0.015,1.055,1.260,-2.520,-0.770
1364.836476,0.002,0.015,1.057,1.050,-2.590,-0.770
1364.857307,0.005,0.016,1.053,0.840,-2.520,-0.840
1364.877296,0.001,0.015,1.056,1.050,-2.520,-0.770
1364.897313,0.006,0.017,1.054,0.980,-2.520,-0.700
1364.912457,0.002,0.015,1.054,0.980,-2.590,-0.770
1364.932439,0.003,0.015,1.055,1.050,-2.450,-0.770
1364.957338,0.006,0.013,1.054,1.120,-2.520,-0.840
1364.97736,0.004,0.014,1.056,1.260,-2.660,-0.770
1364.997315,0.003,0.017,1.056,1.260,-2.660,-0.770
1365.017309,0.002,0.018,1.056,0.840,-2.520,-0.770
1365.037327,0.003,0.016,1.057,0.350,-2.240,-0.840
1365.057316,0.003,0.015,1.056,0.350,-2.240,-0.630
1365.075375,0.003,0.013,1.054,0.490,-2.380,-0.770
1365.097369,0.004,0.014,1.052,0.910,-2.450,-0.770
1365.117314,0.003,0.017,1.055,1.330,-2.590,-0.770
1365.137362,0.001,0.016,1.056,1.120,-2.590,-0.770
1365.156845,0.002,0.016,1.055,0.980,-2.520,-0.770
1365.172426,0.003,0.017,1.055,0.980,-2.380,-0.840
1365.192441,0.003,0.015,1.056,0.840,-2.380,-0.770
1365.212454,-0.000,0.015,1.054,0.770,-2.520,-0.840
1365.232434,0.002,0.014,1.057,0.910,-2.450,-0.910
1365.255432,0.003,0.012,1.055,0.840,-2.590,-0.910
1365.277311,0.004,0.016,1.054,1.190,-2.660,-0.840
1365.297301,0.000,0.015,1.055,1.470,-2.800,-0.700
1365.31687,0.003,0.016,1.055,1.190,-2.660,-0.840
1365.332471,0.003,0.015,1.056,0.910,-2.450,-0.840
1365.355097,0.005,0.017,1.055,0.700,-2.310,-0.770
1365.37396,0.004,0.016,1.055,0.560,-2.380,-0.770
1365.392863,0.005,0.016,1.053,0.630,-2.310,-0.840
1365.412475,0.002,0.017,1.055,0.700,-2.380,-0.840
1365.437317,0.004,0.016,1.055,0.910,-2.520,-0.700
1365.456408,0.004,0.016,1.055,0.770,-2.450,-0.840
1365.472428,0.003,0.016,1.055,0.630,-2.450,-0.840
1365.492411,0.002,0.018,1.053,0.420,-2.450,-0.840
1365.517304,0.003,0.016,1.053,0.630,-2.450,-0.840
1365.532432,0.001,0.014,1.053,0.770,-2.380,-0.700
1365.552811,0.004,0.014,1.054,1.050,-2.450,-0.840
1365.576797,0.002,0.016,1.056,1.050,-2.590,-0.770
1365.595962,0.003,0.013,1.058,1.260,-2.660,-0.770
1365.614974,0.004,0.017,1.056,1.120,-2.660,-0.840
1365.634954,0.005,0.015,1.057,0.700,-2.380,-0.700
1365.654842,0.002,0.014,1.054,0.560,-2.380,-0.700
1365.674886,0.005,0.015,1.056,0.630,-2.310,-0.910
1365.694945,0.005,0.013,1.056,0.630,-2.380,-0.700
1365.712858,0.001,0.013,1.054,0.910,-2.450,-0.700
1365.732421,0.001,0.013,1.055,1.050,-2.450,-0.700
1365.752443,0.005,0.012,1.054,1.330,-2.520,-0.700
1365.77397,0.004,0.015,1.056,1.400,-2.590,-0.700
1365.793805,0.003,0.017,1.055,1.400,-2.520,-0.840
1365.817341,0.003,0.015,1.057,0.770,-2.450,-0.840
1365.837332,0.002,0.016,1.057,0.210,-2.310,-0.700
1365.856487,0.004,0.015,1.055,0.140,-2.380,-0.840
1365.877285,0.003,0.012,1.053,0.630,-2.310,-0.840
1365.897301,0.004,0.014,1.056,0.980,-2.520,-0.770
1365.917503,0.004,0.016,1.056,1.190,-2.590,-0.840
1365.937281,0.003,0.015,1.054,1.120,-2.450,-0.770
1365.955889,0.005,0.015,1.056,0.980,-2.520,-0.700
1365.975839,0.005,0.014,1.054,0.840,-2.450,-0.840
1365.994891,0.002,0.015,1.053,0.770,-2.450,-0.770
1366.015973,0.001,0.016,1.056,0.700,-2.520,-0.630
1366.035382,0.004,0.016,1.054,0.700,-2.310,-0.840
1366.052412,0.003,0.012,1.055,0.700,-2.450,-0.770
1366.072423,0.002,0.014,1.054,0.910,-2.590,-0.700
1366.095575,0.003,0.012,1.052,1.400,-2.660,-0.840
1366.116812,0.004,0.014,1.050,1.680,-2.590,-0.700
1366.13496,0.008,0.012,1.057,0.980,-2.520,-0.840
1366.154792,0.005,0.014,1.056,0.840,-2.590,-0.770
1366.176411,0.001,0.012,1.056,0.980,-2.520,-0.840
1366.196872,0.004,0.015,1.059,0.490,-2.310,-0.910
1366.216873,0.004,0.017,1.056,0.560,-2.380,-0.770
1366.23695,0.001,0.013,1.056,1.190,-2.450,-0.840
1366.25495,0.005,0.014,1.054,1.540,-2.590,-0.770
1366.273849,0.003,0.015,1.054,1.470,-2.940,-0.770
