Timestamp,AccelX,AccelY,AccelZ,GyroX,GyroY,GyroZ
1743435096.419978,-0.325,0.745,0.611,0.98,-2.38,-0.21
1743435096.439978,-0.329,0.739,0.616,1.61,-2.94,-0.21
1743435096.459978,-0.33,0.713,0.598,3.57,-2.31,-0.56
1743435096.479978,-0.323,0.742,0.608,1.26,-1.75,-0.56
1743435096.5209332,-0.323,0.755,0.611,2.1,-2.66,-0.35
1743435096.5409331,-0.33,0.751,0.616,-0.35,-1.61,-0.56
1743435096.560933,-0.332,0.738,0.605,0.91,-2.31,-0.21
1743435096.580933,-0.323,0.743,0.604,1.82,-3.08,0.14
1743435096.584371,-0.332,0.75,0.611,0.7,-3.15,0.0
1743435096.604371,-0.33,0.75,0.613,1.54,-3.57,0.07
1743435096.624371,-0.319,0.745,0.609,0.98,-2.24,-0.49
1743435096.644371,-0.324,0.735,0.606,0.49,-1.68,-0.77
1743435096.657256,-0.325,0.738,0.608,1.54,-2.94,-0.7
1743435096.677256,-0.323,0.747,0.609,1.96,-3.15,-0.28
1743435096.6972558,-0.325,0.752,0.613,1.19,-2.31,-0.42
1743435096.7172558,-0.325,0.753,0.61,0.28,-1.75,-0.7
1743435096.74853,-0.326,0.745,0.607,-0.21,-1.89,-0.77
1743435096.76853,-0.328,0.745,0.604,-0.14,-2.59,-0.56
1743435096.78853,-0.329,0.746,0.61,0.0,-2.52,-0.63
1743435096.80853,-0.328,0.751,0.613,-0.35,-2.1,-1.05
1743435096.824306,-0.327,0.748,0.608,-1.12,-1.96,-1.26
1743435096.844306,-0.333,0.745,0.606,-0.91,-2.66,-1.05
1743435096.864306,-0.328,0.751,0.618,-0.7,-3.5,-1.19
1743435096.884306,-0.322,0.748,0.613,-1.82,-2.24,-1.75
1743435096.898673,-0.324,0.737,0.605,-1.75,-1.75,-2.17
1743435096.918673,-0.326,0.728,0.602,-0.21,-2.73,-1.47
1743435096.938673,-0.333,0.731,0.615,0.7,-3.36,-0.84
1743435096.958673,-0.326,0.735,0.612,0.07,-2.59,-0.7
1743435096.9736452,-0.327,0.735,0.609,-0.7,-0.91,-0.56
1743435096.9936452,-0.336,0.736,0.611,0.14,-2.1,-0.28
1743435097.0136452,-0.327,0.741,0.61,1.12,-3.15,0.14
1743435097.0336452,-0.321,0.74,0.61,2.1,-3.08,0.35
1743435097.064386,-0.318,0.744,0.608,2.1,-2.59,0.07
1743435097.084386,-0.325,0.741,0.608,1.68,-2.24,-0.42
1743435097.104386,-0.326,0.736,0.61,1.54,-2.8,-0.28
1743435097.124386,-0.323,0.743,0.613,1.75,-2.8,-0.49
1743435097.167871,-0.322,0.744,0.612,0.14,-1.61,-0.7
1743435097.187871,-0.33,0.744,0.61,-0.35,-1.61,-0.77
1743435097.207871,-0.329,0.745,0.609,-0.07,-1.96,-0.56
1743435097.227871,-0.332,0.742,0.607,0.49,-1.4,-0.63
1743435097.231192,-0.333,0.739,0.602,0.42,-1.96,-0.63
1743435097.251192,-0.333,0.745,0.609,1.19,-3.15,-0.21
1743435097.271192,-0.331,0.746,0.611,0.84,-3.29,-0.21
1743435097.291192,-0.328,0.745,0.608,-0.35,-2.1,-0.35
1743435097.333256,-0.331,0.742,0.607,-0.14,-2.1,-0.35
1743435097.353256,-0.328,0.74,0.61,0.14,-2.59,-0.42
1743435097.373256,-0.33,0.724,0.612,-0.56,-2.17,-0.98
1743435097.393256,-0.338,0.732,0.616,1.61,-2.87,-2.45
1743435097.380331,-0.312,0.762,0.613,0.42,-3.78,-0.49
1743435097.400331,-0.324,0.756,0.621,-1.4,-1.68,-0.49
1743435097.420331,-0.323,0.739,0.604,-0.91,-1.68,-0.35
1743435097.440331,-0.325,0.73,0.602,1.82,-2.31,-0.07
1743435097.454627,-0.329,0.736,0.607,2.45,-2.45,0.21
1743435097.474627,-0.336,0.744,0.615,2.66,-2.73,0.28
1743435097.494627,-0.331,0.751,0.616,0.49,-2.59,0.14
1743435097.514627,-0.332,0.749,0.608,-1.47,-1.26,-0.21
1743435097.5448442,-0.334,0.741,0.605,-2.59,-1.82,-0.42
1743435097.564844,-0.331,0.732,0.606,-1.05,-3.57,-0.07
1743435097.584844,-0.326,0.738,0.608,-0.49,-3.22,-0.21
1743435097.604844,-0.327,0.74,0.612,-0.14,-2.87,-0.28
1743435097.636003,-0.328,0.739,0.615,0.21,-3.29,-0.21
1743435097.656003,-0.323,0.74,0.617,-0.49,-2.66,-0.28
1743435097.676003,-0.327,0.737,0.615,-0.7,-2.03,-0.42
1743435097.696003,-0.327,0.738,0.609,-0.84,-1.82,-0.28
1743435097.692328,-0.328,0.74,0.609,0.0,-2.03,0.0
1743435097.712328,-0.329,0.74,0.61,0.63,-2.59,0.14
1743435097.732328,-0.325,0.744,0.614,0.14,-2.31,0.07
1743435097.752328,-0.325,0.74,0.614,-0.07,-2.24,0.07
1743435097.7842162,-0.326,0.743,0.612,-0.14,-2.1,0.14
1743435097.804216,-0.327,0.741,0.608,0.14,-2.03,0.21
1743435097.824216,-0.326,0.741,0.609,0.91,-1.96,0.14
1743435097.844216,-0.326,0.745,0.615,0.28,-1.82,0.07
1743435097.85821,-0.33,0.744,0.616,-1.05,-1.54,-0.07
1743435097.87821,-0.329,0.734,0.61,-0.77,-1.96,-0.14
1743435097.89821,-0.328,0.736,0.613,0.0,-2.52,-0.07
1743435097.91821,-0.326,0.734,0.616,0.35,-3.08,0.07
1743435097.948383,-0.323,0.738,0.612,0.42,-2.73,-0.14
1743435097.968383,-0.324,0.736,0.61,0.56,-2.24,-0.35
1743435097.988383,-0.325,0.737,0.61,0.98,-2.52,-0.21
1743435098.008383,-0.327,0.744,0.616,0.63,-2.73,0.07
1743435098.023731,-0.324,0.746,0.615,-0.21,-2.31,-0.07
1743435098.043731,-0.324,0.741,0.612,-0.77,-1.89,-0.14
1743435098.063731,-0.33,0.735,0.61,-0.84,-1.89,-0.14
1743435098.083731,-0.331,0.737,0.612,-0.07,-2.73,-0.07
1743435098.098894,-0.331,0.743,0.614,0.84,-2.66,0.0
1743435098.118894,-0.328,0.742,0.614,-0.14,-2.1,-0.35
1743435098.138894,-0.326,0.739,0.612,-0.07,-2.52,-0.28
1743435098.158894,-0.326,0.736,0.615,0.07,-2.66,-0.28
1743435098.1732192,-0.325,0.737,0.611,0.07,-2.59,-0.21
1743435098.1932192,-0.325,0.736,0.612,0.42,-2.59,-0.28
1743435098.2132192,-0.324,0.738,0.613,0.21,-2.38,-0.35
1743435098.2332191,-0.325,0.739,0.614,0.35,-2.45,-0.35
1743435098.2636108,-0.325,0.743,0.616,0.49,-2.73,-0.07
1743435098.2836108,-0.326,0.744,0.619,0.14,-2.38,-0.21
1743435098.3036108,-0.325,0.739,0.617,-0.14,-2.17,-0.21
1743435098.3236108,-0.326,0.739,0.611,0.42,-2.38,-0.21
1743435098.338173,-0.328,0.737,0.612,0.7,-2.24,-0.28
1743435098.358173,-0.325,0.738,0.615,1.12,-2.45,-0.35
1743435098.3781729,-0.325,0.741,0.616,0.7,-2.38,-0.42
1743435098.3981729,-0.329,0.738,0.613,0.07,-2.31,-0.49
1743435098.44098,-0.327,0.736,0.612,0.49,-2.45,-0.35
1743435098.46098,-0.326,0.739,0.612,0.77,-2.52,-0.42
1743435098.48098,-0.325,0.737,0.609,0.84,-2.1,-0.35
1743435098.50098,-0.325,0.744,0.615,1.05,-2.38,-0.14
1743435098.5313013,-0.329,0.734,0.614,0.98,-1.82,-0.98
1743435098.5513012,-0.335,0.737,0.604,4.2,-4.41,-0.98
1743435098.5713012,-0.32,0.743,0.6,4.06,-4.55,-0.49
1743435098.5913012,-0.332,0.747,0.622,3.29,-5.18,-0.28
1743435098.5792365,-0.328,0.754,0.625,2.1,-5.25,-0.42
1743435098.5992362,-0.318,0.748,0.611,-0.56,-1.4,-1.4
1743435098.6192362,-0.322,0.739,0.605,-1.4,-0.56,-1.12
1743435098.6392362,-0.321,0.745,0.605,-0.35,-1.96,-0.28
1743435098.654635,-0.32,0.745,0.604,-0.49,-0.84,-0.28
1743435098.674635,-0.326,0.747,0.61,0.42,-0.63,-0.28
1743435098.694635,-0.33,0.75,0.615,-0.28,-1.61,-0.21
1743435098.714635,-0.336,0.749,0.615,-0.77,-1.68,-0.07
1743435098.743818,-0.341,0.755,0.608,-0.56,-2.66,-0.21
1743435098.763818,-0.325,0.737,0.604,-1.4,-1.47,-0.63
1743435098.783818,-0.32,0.731,0.612,-2.59,-0.7,-0.63
1743435098.803818,-0.336,0.738,0.615,-2.94,-2.1,-0.35
1743435098.832488,-0.336,0.744,0.621,-2.38,-1.96,-0.91
1743435098.852488,-0.328,0.741,0.618,-3.15,-0.91,-1.89
1743435098.872488,-0.325,0.726,0.619,-4.13,-0.98,-2.45
1743435098.892488,-0.322,0.721,0.621,-3.85,-0.98,-2.66
1743435098.894086,-0.315,0.717,0.622,-4.06,-1.47,-1.54
1743435098.914086,-0.327,0.725,0.627,-4.55,-0.7,-1.33
1743435098.9340858,-0.33,0.727,0.622,-4.41,-0.98,-1.19
1743435098.9540858,-0.326,0.721,0.622,-3.64,-1.19,-0.84
1743435098.983642,-0.329,0.719,0.621,-3.08,-1.05,-0.21
1743435099.003642,-0.331,0.718,0.624,-2.73,-1.4,0.21
1743435099.023642,-0.335,0.72,0.624,-2.1,-1.89,0.49
1743435099.043642,-0.337,0.724,0.625,-1.26,-2.31,0.28
1743435099.058263,-0.336,0.727,0.621,-0.28,-2.73,0.07
1743435099.078263,-0.332,0.729,0.619,0.7,-3.22,-0.21
1743435099.098263,-0.328,0.728,0.618,1.26,-3.36,0.0
1743435099.118263,-0.327,0.732,0.617,2.31,-3.57,0.49
1743435099.133574,-0.324,0.729,0.619,2.8,-3.15,0.49
1743435099.153574,-0.329,0.727,0.618,4.2,-3.71,0.49
1743435099.173574,-0.327,0.732,0.624,4.76,-4.34,0.56
1743435099.193574,-0.33,0.736,0.63,3.57,-3.64,0.35
1743435099.223165,-0.328,0.735,0.625,2.17,-2.8,-0.14
1743435099.243165,-0.324,0.729,0.614,1.75,-1.96,-0.42
1743435099.263165,-0.33,0.732,0.618,2.17,-2.73,-0.14
1743435099.283165,-0.334,0.739,0.619,2.66,-3.43,0.0
1743435099.314711,-0.331,0.74,0.623,2.45,-3.57,-0.07
1743435099.334711,-0.328,0.741,0.622,1.12,-2.73,-0.35
1743435099.354711,-0.329,0.74,0.614,0.28,-2.52,-0.28
1743435099.374711,-0.329,0.738,0.616,0.56,-2.73,0.0
1743435099.375048,-0.331,0.745,0.616,0.21,-2.52,0.0
1743435099.395048,-0.328,0.742,0.617,-0.49,-2.1,-0.63
1743435099.415048,-0.327,0.738,0.618,-1.05,-1.82,-0.77
1743435099.435048,-0.327,0.733,0.617,-1.54,-1.68,-0.7
1743435099.463462,-0.327,0.733,0.619,-1.47,-1.61,-0.7
1743435099.483462,-0.327,0.734,0.619,-1.47,-1.75,-0.63
1743435099.5034618,-0.326,0.732,0.623,-1.4,-1.68,-0.91
1743435099.5234618,-0.328,0.729,0.622,-1.26,-2.03,-0.77
1743435099.539263,-0.327,0.728,0.622,-1.26,-1.89,-0.63
1743435099.559263,-0.325,0.728,0.624,-1.05,-1.82,-0.28
1743435099.579263,-0.327,0.729,0.62,-0.98,-1.19,-0.28
1743435099.599263,-0.329,0.726,0.621,-0.7,-1.26,-0.28
1743435099.6136131,-0.331,0.73,0.622,0.14,-2.17,-0.14
1743435099.633613,-0.328,0.733,0.624,0.28,-2.31,-0.21
1743435099.653613,-0.332,0.733,0.622,-0.21,-2.52,-0.14
1743435099.673613,-0.33,0.73,0.62,0.49,-2.8,-0.14
1743435099.732616,-0.328,0.728,0.619,0.77,-2.66,-0.21
1743435099.752616,-0.33,0.731,0.618,0.49,-2.24,-0.42
1743435099.772616,-0.328,0.732,0.621,0.21,-2.17,-0.28
1743435099.792616,-0.33,0.733,0.623,-0.07,-1.89,-0.14
1743435099.7782722,-0.328,0.731,0.622,-0.14,-1.75,-0.28
1743435099.798272,-0.331,0.728,0.621,-0.63,-1.75,-0.21
1743435099.818272,-0.331,0.73,0.621,0.35,-2.8,-0.14
1743435099.838272,-0.329,0.733,0.622,0.56,-2.8,-0.21
1743435099.8541389,-0.328,0.731,0.623,0.21,-2.17,-0.35
1743435099.8741388,-0.328,0.733,0.624,0.42,-2.38,-0.21
1743435099.8941388,-0.325,0.732,0.621,0.28,-2.31,-0.35
1743435099.9141388,-0.326,0.733,0.624,-0.14,-2.17,-0.35
1743435099.94383,-0.329,0.734,0.626,-0.56,-2.03,-0.42
1743435099.96383,-0.33,0.73,0.622,-0.91,-1.68,-0.56
1743435099.98383,-0.329,0.727,0.619,-0.7,-1.75,-0.49
1743435100.00383,-0.332,0.73,0.625,0.28,-2.59,-0.42
1743435100.032939,-0.331,0.732,0.626,-0.28,-2.24,-0.49
1743435100.052939,-0.33,0.727,0.62,-0.35,-2.1,-0.56
1743435100.072939,-0.33,0.726,0.62,0.0,-2.38,-0.35
1743435100.092939,-0.331,0.727,0.624,0.35,-2.73,-0.28
1743435100.092173,-0.328,0.732,0.628,0.35,-2.52,-0.28
1743435100.112173,-0.327,0.728,0.623,0.07,-2.24,-0.42
1743435100.132173,-0.33,0.727,0.625,0.42,-2.38,-0.28
1743435100.152173,-0.329,0.727,0.627,0.63,-2.45,-0.28
1743435100.186588,-0.326,0.728,0.623,0.56,-2.1,-0.28
1743435100.206588,-0.33,0.729,0.621,0.7,-1.96,-0.35
1743435100.226588,-0.332,0.728,0.616,0.7,-1.82,-0.49
1743435100.246588,-0.331,0.731,0.624,0.98,-2.45,-0.56
1743435100.257374,-0.327,0.733,0.622,0.7,-2.66,-0.56
1743435100.277374,-0.331,0.732,0.626,0.7,-2.87,-0.42
1743435100.297374,-0.329,0.729,0.628,0.42,-2.94,-0.56
1743435100.317374,-0.331,0.724,0.62,0.28,-2.03,-0.7
1743435100.333588,-0.33,0.725,0.618,0.84,-2.03,-0.49
1743435100.353588,-0.328,0.733,0.625,1.33,-2.38,-0.21
1743435100.373588,-0.33,0.74,0.626,0.07,-1.96,-0.28
1743435100.393588,-0.33,0.735,0.619,-0.49,-1.54,-0.77
1743435100.437383,-0.33,0.732,0.618,-0.35,-1.89,-0.77
1743435100.457383,-0.329,0.73,0.629,-0.14,-2.59,-0.63
1743435100.477383,-0.332,0.731,0.63,-1.05,-2.17,-0.91
1743435100.4973829,-0.332,0.726,0.624,-1.19,-1.26,-0.98
1743435100.541299,-0.335,0.72,0.621,0.07,-1.75,-0.84
1743435100.561299,-0.333,0.722,0.62,0.84,-2.17,-0.7
1743435100.581299,-0.334,0.726,0.628,1.26,-2.59,-0.42
1743435100.601299,-0.332,0.73,0.626,1.05,-2.59,-0.42
1743435100.573834,-0.332,0.73,0.626,0.56,-2.59,-0.42
1743435100.593834,-0.327,0.724,0.618,0.7,-2.38,-0.42
1743435100.613834,-0.332,0.724,0.618,2.17,-3.01,-0.14
1743435100.633834,-0.33,0.729,0.622,2.45,-3.36,-0.07
1743435100.6760771,-0.329,0.733,0.626,1.75,-2.45,-0.28
1743435100.696077,-0.332,0.731,0.619,1.82,-2.45,-0.28
1743435100.716077,-0.33,0.731,0.62,1.68,-2.52,-0.42
1743435100.736077,-0.329,0.733,0.617,1.4,-2.52,-0.42
1743435100.739546,-0.329,0.734,0.618,1.4,-2.31,-0.7
1743435100.759546,-0.33,0.734,0.622,1.05,-2.17,-0.98
1743435100.779546,-0.33,0.732,0.615,0.77,-1.96,-1.33
1743435100.799546,-0.343,0.709,0.618,-3.5,7.49,-1.4
1743435100.8442402,-0.333,0.762,0.611,-2.17,6.23,0.49
1743435100.8642402,-0.299,0.69,0.625,9.59,-8.4,0.91
1743435100.8842402,-0.349,0.72,0.604,3.15,-9.94,0.28
1743435100.90424,-0.356,0.749,0.672,2.38,-9.87,0.42
1743435100.916563,-0.318,0.77,0.659,-1.26,3.64,-0.35
1743435100.936563,-0.34,0.736,0.617,-4.9,4.34,-1.89
1743435100.956563,-0.332,0.713,0.604,-1.05,-1.54,-0.35
1743435100.976563,-0.335,0.735,0.612,-0.7,-3.71,-1.4
1743435100.9781132,-0.329,0.725,0.614,-1.54,-0.21,-1.89
1743435100.9981132,-0.331,0.696,0.607,1.68,-1.68,0.21
1743435101.0181131,-0.319,0.703,0.611,-1.19,1.19,1.82
1743435101.038113,-0.357,0.721,0.605,-3.29,-0.91,1.75
1743435101.054205,-0.338,0.718,0.623,3.99,-4.06,1.12
1743435101.074205,-0.343,0.747,0.646,-0.98,0.35,-1.12
1743435101.094205,-0.342,0.745,0.62,-2.45,-1.19,-1.19
1743435101.114205,-0.354,0.746,0.612,3.71,-7.91,-0.49
1743435101.142836,-0.31,0.74,0.628,4.97,-6.72,-0.42
1743435101.162836,-0.317,0.747,0.612,-0.42,0.63,-2.38
1743435101.182836,-0.339,0.726,0.61,2.38,-4.06,-1.96
1743435101.202836,-0.329,0.724,0.633,3.5,-6.72,-1.26
1743435101.2184362,-0.328,0.731,0.637,0.28,-3.22,-1.75
1743435101.2384362,-0.331,0.717,0.615,-2.59,1.82,-1.75
1743435101.2584362,-0.341,0.721,0.61,0.14,-2.17,-0.42
1743435101.2784362,-0.335,0.737,0.618,2.03,-4.9,-0.14
1743435101.2936692,-0.343,0.744,0.623,0.77,-2.17,-1.54
1743435101.3136692,-0.342,0.739,0.612,-0.49,-2.17,-1.05
1743435101.3336692,-0.337,0.733,0.62,1.47,-3.43,-0.56
1743435101.3536692,-0.332,0.736,0.622,-17.57,-2.24,-0.91
1743435101.38369,-0.337,0.73,0.619,-1.26,-1.4,-1.26
1743435101.40369,-0.338,0.726,0.621,0.84,-2.87,-1.05
1743435101.42369,-0.336,0.723,0.626,0.7,-1.82,-1.47
1743435101.44369,-0.332,0.725,0.621,-0.91,-1.33,-1.05
1743435101.4588962,-0.336,0.721,0.621,0.91,-2.52,-0.42
1743435101.478896,-0.335,0.725,0.622,0.84,-2.38,-0.35
1743435101.498896,-0.341,0.725,0.618,0.35,-2.38,-0.21
1743435101.518896,-0.339,0.727,0.617,1.33,-3.29,0.14
1743435101.5493252,-0.338,0.732,0.617,1.4,-2.73,-0.07
1743435101.5693252,-0.346,0.73,0.619,1.68,-2.03,-0.77
1743435101.5893252,-0.336,0.732,0.617,1.26,-2.59,-0.07
1743435101.6093252,-0.336,0.734,0.616,0.63,-2.52,-0.35
1743435101.62469,-0.341,0.732,0.618,1.05,-2.8,-0.49
1743435101.64469,-0.337,0.729,0.623,0.98,-2.73,-0.77
1743435101.66469,-0.334,0.726,0.616,0.98,-1.75,-1.68
1743435101.68469,-0.331,0.732,0.614,1.05,-2.59,-0.42
1743435101.743262,-0.338,0.735,0.621,1.05,-2.59,-0.49
1743435101.763262,-0.336,0.736,0.62,0.07,-1.82,-0.49
1743435101.783262,-0.339,0.731,0.619,0.07,-1.82,-0.49
1743435101.803262,-0.338,0.732,0.616,0.14,-2.17,-0.49
1743435101.775758,-0.339,0.731,0.617,0.07,-2.59,-0.49
1743435101.795758,-0.333,0.729,0.612,-0.07,-2.38,-0.63
1743435101.815758,-0.337,0.731,0.616,0.28,-1.96,-0.77
1743435101.835758,-0.342,0.731,0.623,0.63,-2.73,-0.84
1743435101.8637493,-0.328,0.732,0.609,-0.49,-2.1,-0.63
1743435101.8837492,-0.33,0.731,0.612,-0.14,-2.59,0.28
1743435101.9037492,-0.335,0.737,0.627,0.42,-3.71,0.84
1743435101.9237492,-0.331,0.734,0.623,-1.89,-3.01,0.98
1743435101.9398222,-0.319,0.718,0.608,-2.45,-1.19,1.4
1743435101.9598222,-0.339,0.722,0.615,0.21,-2.03,1.26
1743435101.9798222,-0.346,0.725,0.618,0.0,-1.96,0.63
1743435101.999822,-0.364,0.729,0.622,0.84,-0.35,-0.35
1743435102.041323,-0.364,0.732,0.641,1.61,-2.31,0.63
1743435102.061323,-0.349,0.719,0.623,0.91,-3.92,-0.14
1743435102.081323,-0.352,0.714,0.621,1.54,-5.18,0.14
1743435102.101323,-0.336,0.711,0.603,7.42,-9.17,0.49
1743435102.120566,-0.324,0.732,0.605,12.18,-12.32,1.33
1743435102.140566,-0.306,0.765,0.6,13.72,-12.81,2.66
1743435102.160566,-0.306,0.763,0.605,13.3,-13.16,4.76
1743435102.180566,-0.318,0.755,0.62,14.49,-13.37,5.74
1743435102.1940072,-0.319,0.736,0.643,9.66,-12.32,5.88
1743435102.2140071,-0.341,0.753,0.624,9.59,-8.61,1.61
1743435102.2340071,-0.316,0.732,0.639,11.34,-12.88,1.12
1743435102.254007,-0.303,0.726,0.598,10.5,-8.4,-2.17
1743435102.254584,-0.3,0.728,0.587,14.63,-9.87,-0.21
1743435102.274584,-0.325,0.769,0.573,20.37,-2.31,7.7
1743435102.294584,-0.336,0.789,0.583,20.3,12.04,13.72
1743435102.314584,-0.316,0.774,0.583,1.47,25.62,10.71
1743435102.344547,-0.287,0.738,0.558,-7.84,8.05,-0.28
1743435102.364547,-0.239,0.766,0.548,4.76,-11.69,3.15
1743435102.384547,-0.28,0.819,0.609,-4.69,-3.08,5.18
1743435102.404547,-0.361,0.773,0.581,-11.27,17.85,-7.91
1743435102.418755,-0.325,0.797,0.616,-11.9,11.06,-4.55
1743435102.438755,-0.395,0.661,0.533,-7.77,13.58,-20.58
1743435102.458755,-0.276,0.718,0.576,11.2,0.0,-20.02
1743435102.478755,-0.27,0.81,0.632,23.87,-35.21,10.78
1743435102.493626,-0.227,0.887,0.774,26.81,-40.53,0.84
1743435102.513626,-0.427,0.856,0.938,-180.6,135.38,-55.3
1743435102.533626,-0.421,0.57,0.624,-147.56,84.49,-52.5
1743435102.553626,-0.686,0.434,0.575,-101.15,87.29,-62.37
1743435102.583821,-0.087,0.722,1.25,-119.21,147.77,-159.67
1743435102.603821,-0.951,0.727,3.576,-517.02,351.68,154.21
1743435102.623821,-1.836,0.148,2.727,-475.09,-378.77,138.25
1743435102.643821,-1.09,-0.098,0.621,-313.6,-666.19,-14.98
1743435102.671099,-1.009,0.096,-0.702,121.73,80.78,-463.68
1743435102.691099,-2.471,0.92,0.696,-4.41,134.19,-324.31
1743435102.711099,-1.963,0.938,0.496,-264.46,285.46,-265.79
1743435102.731099,-0.818,0.434,0.536,-122.5,247.31,-274.68
1743435102.7478569,-0.145,0.281,1.023,-259.84,258.44,-117.32
1743435102.7678568,0.16,-0.373,0.776,-323.75,94.71,-112.98
1743435102.7878568,-0.056,-0.179,0.367,-229.88,-256.27,-173.11
1743435102.8078568,-0.727,0.054,0.042,-92.61,-572.6,-262.64
1743435102.8247092,-0.393,0.112,-0.251,122.99,-787.15,-157.99
1743435102.8447092,-0.35,-0.215,-0.34,307.58,-567.98,190.82
1743435102.8647091,0.13,-0.757,-0.143,115.22,-94.78,210.35
1743435102.8847091,0.246,-1.015,-0.09,-18.83,187.95,89.81
1743435102.945568,0.645,-0.935,-0.135,57.75,599.69,-166.25
1743435102.965568,0.027,-0.277,0.104,26.81,839.02,-519.61
1743435102.985568,-1.544,0.996,1.066,-230.79,1133.58,-650.86
1743435103.005568,-3.02,1.482,1.873,-405.37,1376.13,-251.86
1743435103.006527,-2.331,0.501,2.353,-512.26,1113.7,282.94
1743435103.026527,-5.481,-0.888,2.005,-520.52,575.47,446.81
1743435103.046527,-2.285,-1.96,1.473,-233.87,-219.73,318.5
1743435103.066527,-2.182,-1.99,0.38,-156.73,-727.09,-54.95
1743435103.0668051,-2.032,-1.619,-0.356,-150.36,-827.75,-228.76
1743435103.086805,-1.349,-0.983,-1.067,-135.1,-723.8,-336.77
1743435103.106805,-1.134,0.129,-1.218,-320.53,-303.24,-404.6
1743435103.126805,-1.167,-0.133,-0.958,-585.2,-64.26,-563.99
1743435103.1399722,-0.968,0.591,0.081,-221.62,-185.43,-457.73
1743435103.1599722,-0.732,0.794,0.549,-154.14,-455.84,-436.31
1743435103.1799722,-0.219,1.156,0.022,-117.46,-556.01,-126.14
1743435103.1999722,-0.561,0.985,-0.645,-117.6,-461.23,115.5
1743435103.243008,0.236,0.449,-0.821,-141.05,-285.53,230.86
1743435103.263008,-0.276,-0.117,-0.811,-209.72,-100.73,366.1
1743435103.283008,-0.3,-0.513,-0.633,-312.9,-8.19,494.2
1743435103.303008,-0.906,-0.925,-0.511,-175.0,-27.58,654.71
1743435103.3067532,-2.214,-1.245,-0.383,-75.11,-47.46,572.53
1743435103.3267531,-1.935,-1.522,-0.467,-62.93,-42.63,364.49
1743435103.3467531,-1.406,-3.041,-1.943,-222.25,113.61,49.35
1743435103.366753,-1.014,-0.919,-0.23,182.28,172.69,-61.39
1743435103.379848,-0.997,-0.815,-0.224,37.66,248.92,-30.52
1743435103.399848,-1.011,-1.14,-0.145,172.83,188.37,-69.72
1743435103.419848,-0.79,-1.2,-0.066,132.72,60.9,-192.5
1743435103.439848,-0.901,-1.153,0.43,76.37,8.47,-269.15
1743435103.453495,-0.579,-0.89,0.321,42.7,-18.34,-296.66
1743435103.473495,-0.571,-0.882,0.229,11.97,-48.3,-278.6
1743435103.493495,-0.775,-0.879,0.121,42.21,-134.61,-257.39
1743435103.513495,-0.705,-0.948,-0.338,75.81,-182.98,-247.8
1743435103.545362,-0.568,-0.762,-0.449,-38.15,-121.87,-276.5
1743435103.565362,-0.33,-0.84,-0.198,-53.48,-86.59,-244.23
1743435103.585362,-0.759,-1.445,-0.171,189.0,-137.9,-243.39
1743435103.605362,-1.218,-1.427,0.001,120.4,-215.6,-388.15
1743435103.618732,-1.203,-1.052,-0.06,-17.01,-327.6,-565.53
1743435103.638732,-0.457,-0.574,-0.211,70.49,-384.93,-608.09
1743435103.658732,-0.53,-0.022,-0.411,131.32,-386.75,-546.98
1743435103.678732,-0.743,0.227,-0.562,81.41,-324.8,-495.95
1743435103.6938162,0.766,0.013,-0.878,42.84,-184.03,-433.37
1743435103.7138162,0.934,-0.219,-0.63,-16.73,-30.38,-397.74
1743435103.733816,1.227,0.214,-0.312,-94.99,52.08,-409.5
1743435103.753816,1.596,0.661,-0.153,-86.38,75.88,-326.9
1743435103.81298,1.754,1.195,-0.185,-70.63,105.98,-98.7
1743435103.83298,1.916,1.428,-0.214,-39.48,123.27,74.13
1743435103.85298,2.018,1.568,-0.379,-47.6,175.07,332.64
1743435103.87298,1.328,1.748,-0.401,-132.72,268.45,497.91
1743435103.872406,-0.151,1.517,0.123,-239.26,330.05,713.09
1743435103.892406,-0.418,1.032,0.391,-299.67,293.3,796.88
1743435103.912406,-0.76,0.446,0.361,-297.15,104.72,825.58
1743435103.932406,-1.373,-0.032,0.187,-258.23,-75.95,786.31
1743435103.95071,-1.545,-0.36,-0.45,-142.52,-167.65,696.43
1743435103.97071,-1.911,-0.896,-0.984,-31.85,-101.5,621.18
1743435103.99071,-1.904,-1.604,-0.928,19.53,12.25,466.62
1743435104.01071,-2.395,-2.126,-0.529,-3.01,36.82,245.14
1743435104.0238342,-3.257,-2.602,0.009,68.81,-66.29,-131.88
1743435104.0438342,-3.544,-2.48,-0.158,114.1,-189.0,-434.63
1743435104.0638342,-3.644,-1.439,-0.368,73.99,-252.42,-794.43
1743435104.0838342,-3.419,-0.694,-0.394,65.66,-272.37,-926.87
1743435104.1433082,-3.062,-0.213,-0.466,45.15,-272.86,-1038.03
1743435104.163308,-2.318,0.554,-0.717,7.49,-271.6,-1157.38
1743435104.183308,-1.241,1.402,-1.002,-75.32,-198.1,-1141.42
1743435104.203308,-0.051,2.216,-1.247,-100.24,-15.05,-923.86
1743435104.173926,0.874,2.601,-1.189,-42.7,153.09,-510.93
1743435104.193926,1.318,3.221,-0.467,-154.77,299.6,-105.7
1743435104.2139258,1.487,3.548,0.249,-418.95,420.91,206.99
1743435104.2339258,0.595,3.028,1.079,-575.96,458.01,666.33
1743435104.2642922,-0.132,1.376,2.187,-645.75,256.34,819.77
1743435104.2842922,-0.531,0.398,2.975,-658.49,-83.37,637.49
1743435104.3042922,-0.773,0.867,2.033,-711.41,-530.81,439.6
1743435104.3242922,-1.661,1.784,-0.588,-498.4,-738.64,568.33
1743435104.3388522,-2.908,1.438,-1.586,-99.47,-800.52,845.6
1743435104.358852,-4.088,-0.511,-1.98,409.71,-592.76,1149.33
1743435104.378852,-5.33,-3.528,-1.33,455.21,-95.76,763.63
1743435104.398852,-4.07,-5.341,-0.131,20.93,26.25,-430.43
1743435104.4430668,-4.168,-2.448,-0.086,-144.06,-64.4,-965.58
1743435104.4630668,-4.01,-0.048,-0.279,-76.23,-140.35,-1135.96
1743435104.4830668,-3.047,0.575,-0.429,99.05,-194.11,-939.61
1743435104.5030668,-1.96,0.257,-0.631,182.42,-229.53,-724.15
1743435104.518819,-1.608,-0.201,-0.661,133.77,-210.77,-845.81
1743435104.538819,-0.986,0.45,-0.855,3.5,-155.47,-1025.99
1743435104.558819,0.007,1.359,-1.097,-8.96,-77.77,-1013.81
1743435104.578819,0.434,2.827,-1.044,-46.83,44.87,-809.13
1743435104.579997,0.59,4.657,-0.581,-345.45,260.96,-525.0
1743435104.599997,-0.006,5.863,1.121,-921.13,583.24,275.8
1743435104.619997,-0.703,2.713,3.224,-244.93,76.3,994.77
1743435104.639997,-1.078,0.153,2.44,-26.88,-457.87,1045.8
1743435104.655371,-1.049,-0.518,1.002,-147.84,-578.13,822.36
1743435104.675371,-0.711,-0.348,-0.639,-154.91,-505.19,574.42
1743435104.695371,-0.744,-0.002,-1.164,-46.41,-383.04,585.13
1743435104.715371,-1.3,0.199,-1.298,106.12,-240.66,809.06
1743435104.743516,-2.558,-1.265,-0.793,189.98,1.54,994.35
1743435104.763516,-3.539,-3.504,0.366,283.64,139.09,799.96
1743435104.783516,-3.905,-4.919,1.67,262.15,40.67,243.46
1743435104.803516,-3.523,-3.975,1.171,-187.53,-277.62,-778.82
1743435104.8206952,-3.444,-1.141,-0.104,-187.11,-214.83,-1012.69
1743435104.8406951,-2.583,-0.119,-0.105,-167.65,-94.29,-961.66
1743435104.8606951,-1.797,0.265,-0.033,-96.88,-63.7,-876.54
1743435104.880695,-1.234,0.485,-0.073,-94.5,-78.12,-904.96
1743435104.9214082,-0.737,1.025,-0.133,-75.74,-103.67,-1004.43
1743435104.9414082,0.238,2.057,-0.452,102.2,-265.79,-949.9
1743435104.961408,0.631,3.199,-1.155,415.03,-442.12,-533.82
1743435104.981408,0.892,4.778,-1.688,665.91,-361.62,-34.93
1743435104.9851782,0.323,3.781,-1.808,544.74,2.73,527.59
1743435105.0051782,-0.273,2.006,-1.507,269.71,279.51,827.89
1743435105.0251782,-0.73,1.225,-1.008,159.11,353.85,972.37
1743435105.0451782,-1.158,0.246,-0.711,402.01,539.56,773.29
1743435105.072451,-1.377,-0.254,-0.025,268.94,610.82,634.62
1743435105.092451,-1.562,-0.075,0.553,207.62,564.2,610.54
1743435105.112451,-2.504,-0.578,1.193,116.76,549.01,702.66
1743435105.132451,-2.711,-1.604,2.101,161.7,339.78,703.78
1743435105.134907,-3.252,-3.525,2.39,156.66,77.77,422.94
1743435105.154907,-2.858,-3.873,2.138,-138.25,-308.07,-496.44
1743435105.174907,-2.6,-1.066,0.717,-220.85,-362.32,-794.01
1743435105.194907,-2.053,-0.079,0.426,-232.12,-291.06,-740.11
1743435105.238769,-1.215,-0.117,0.508,-152.53,-307.09,-524.02
1743435105.258769,-1.091,-0.5,0.283,-186.13,-403.27,-534.52
1743435105.278769,-1.243,-0.084,0.001,-366.59,-341.95,-676.76
1743435105.298769,-0.825,0.598,-0.462,-456.61,-285.74,-837.9
1743435105.342512,-0.415,1.336,-0.752,-350.07,-304.78,-870.66
1743435105.362512,0.12,1.967,-1.28,-57.89,-398.86,-724.99
1743435105.382512,0.515,2.644,-1.637,254.73,-520.94,-476.49
1743435105.4025118,0.562,2.994,-2.354,436.8,-549.01,-126.49
1743435105.374472,0.057,2.251,-3.247,521.08,-200.55,269.71
1743435105.394472,-0.271,1.019,-3.008,397.6,257.18,464.24
1743435105.414472,-0.559,0.339,-1.855,287.84,632.17,465.57
1743435105.4344718,-0.666,0.022,-1.052,346.29,712.11,329.56
1743435105.464764,-0.614,0.048,-0.468,334.95,637.28,246.4
1743435105.484764,-0.594,0.436,-0.008,309.54,610.26,321.37
1743435105.5047638,-1.1,0.112,0.448,276.71,636.51,443.1
1743435105.5247638,-1.341,-0.139,0.911,204.61,623.07,432.32
1743435105.5530612,-1.784,-0.275,1.341,95.13,599.48,463.89
1743435105.5730612,-2.511,-1.108,1.85,27.16,531.51,513.38
1743435105.5930612,-2.81,-2.623,2.802,-3.5,181.79,203.0
1743435105.6130612,-2.08,-2.474,2.301,-121.38,-292.18,-288.96
1743435105.6464152,-1.826,-1.117,0.996,-150.92,-433.3,-483.84
1743435105.6664152,-1.229,-0.354,0.256,-182.56,-361.83,-413.91
1743435105.6864152,-1.026,-0.471,0.319,-222.95,-281.75,-371.7
1743435105.7064152,-1.048,-0.748,0.746,-333.9,-253.75,-471.31
1743435105.703816,-0.911,-0.552,0.374,-404.11,-463.82,-656.95
1743435105.723816,-0.965,0.0,-0.316,-454.65,-564.2,-787.43
1743435105.743816,-0.978,1.383,-1.168,-417.41,-551.95,-823.76
1743435105.763816,-0.414,2.272,-1.702,-242.83,-508.9,-711.55
1743435105.781198,0.138,2.852,-2.195,4.34,-551.53,-530.39
1743435105.801198,0.256,3.366,-3.297,238.91,-530.88,-134.47
1743435105.821198,-0.306,2.547,-3.912,435.54,50.89,213.57
1743435105.841198,-0.386,1.205,-3.147,367.15,491.33,363.02
1743435105.8543649,-0.805,0.769,-1.389,324.1,669.83,523.39
1743435105.8743649,-0.85,0.55,-0.996,430.36,655.13,567.49
1743435105.8943648,-0.944,-0.152,-0.227,503.65,568.4,457.94
1743435105.9143648,-0.723,-0.05,0.096,594.72,430.36,294.35
1743435105.9461591,-0.971,0.617,0.068,477.4,514.15,231.7
1743435105.966159,-1.339,0.628,0.266,312.13,652.96,296.59
1743435105.986159,-1.83,0.516,0.579,219.66,727.58,367.08
1743435106.006159,-2.453,0.221,1.054,27.16,799.26,454.86
1743435106.0333111,-3.017,-0.734,2.053,-28.84,674.73,522.2
1743435106.053311,-3.032,-1.663,2.906,-0.77,334.6,380.59
1743435106.073311,-2.627,-1.958,2.691,-76.65,-233.1,4.76
1743435106.093311,-2.62,-0.922,1.19,-170.03,-443.24,-287.63
1743435106.107592,-2.262,-0.735,0.706,-304.29,-442.12,-432.81
1743435106.127592,-1.869,-0.448,0.303,-361.34,-371.28,-504.21
1743435106.147592,-1.471,-0.405,0.019,-379.96,-318.36,-530.11
1743435106.167592,-1.2,-0.564,-0.161,-273.77,-368.2,-503.23
1743435106.185695,-0.986,-0.749,-0.319,-248.22,-406.63,-546.14
1743435106.205695,-1.063,-0.407,-0.286,-344.12,-344.75,-652.47
1743435106.225695,-0.831,0.381,-0.177,-456.68,-341.46,-792.33
1743435106.2456949,-0.694,1.151,-0.63,-428.61,-448.63,-779.8
1743435106.27344,-0.356,1.983,-1.079,-256.69,-354.27,-600.25
1743435106.29344,0.071,2.102,-1.039,-159.32,-272.02,-420.07
1743435106.31344,0.037,1.637,-0.967,62.86,-345.8,-203.21
1743435106.33344,0.236,1.392,-1.551,108.15,-417.41,-55.51
1743435106.3495092,0.169,1.35,-2.334,85.54,-334.53,34.23
1743435106.3695092,0.138,1.261,-2.646,112.63,-196.0,107.59
1743435106.3895092,0.079,0.995,-2.609,116.62,6.44,161.91
1743435106.4095092,0.038,0.697,-2.229,120.96,226.73,179.27
1743435106.4244292,0.019,0.581,-1.915,183.19,270.41,208.53
1743435106.4444292,-0.018,0.522,-1.607,287.35,297.36,225.33
1743435106.4644291,-0.071,0.388,-1.278,387.17,292.46,231.63
1743435106.4844291,-0.069,0.261,-1.098,480.2,278.25,235.76
1743435106.543558,-0.357,0.265,-0.954,588.0,264.67,237.86
1743435106.563558,-0.526,0.265,-0.868,625.73,301.56,190.54
1743435106.5835578,-0.752,0.493,-0.706,554.12,408.94,115.22
1743435106.6035578,-0.963,0.927,-0.568,497.77,516.74,51.03
1743435106.575115,-1.355,1.255,-0.248,336.14,752.43,65.45
1743435106.595115,-2.006,1.379,0.398,67.06,916.58,217.7
1743435106.615115,-2.573,0.959,1.05,-76.23,939.68,539.21
1743435106.635115,-2.995,0.063,1.626,-61.04,757.19,786.1
1743435106.6640232,-3.193,-1.163,2.192,15.12,486.36,739.9
1743435106.6840231,-3.225,-2.085,2.314,99.75,23.59,446.46
1743435106.7040231,-2.757,-1.817,1.651,-25.06,-310.24,-47.88
1743435106.724023,-2.784,-0.606,0.732,-101.99,-311.5,-296.66
1743435106.739335,-2.367,-0.187,0.588,-185.43,-174.51,-332.57
1743435106.759335,-2.112,-0.236,0.895,-235.69,-71.75,-317.59
1743435106.779335,-2.129,-0.692,1.209,-281.05,-93.45,-395.01
1743435106.799335,-2.244,-0.853,1.113,-307.16,-266.98,-585.62
1743435106.8422952,-2.227,-0.436,0.731,-337.96,-385.14,-697.83
1743435106.8622952,-2.13,0.008,0.222,-379.89,-457.03,-805.42
1743435106.8822951,-1.925,0.742,-0.074,-458.01,-388.15,-874.72
1743435106.902295,-1.707,1.179,-0.128,-471.52,-304.15,-822.85
1743435106.9181771,-1.481,1.462,-0.029,-379.12,-349.65,-760.13
1743435106.938177,-0.926,1.915,-0.432,-307.23,-480.55,-731.92
1743435106.958177,-0.528,2.19,-1.013,-159.67,-514.08,-515.76
1743435106.978177,-0.371,2.13,-1.272,-25.2,-419.86,-266.98
1743435106.99284,-0.145,1.769,-1.391,3.92,-377.58,-116.62
1743435107.01284,0.052,1.116,-1.768,120.82,-446.67,34.93
1743435107.03284,-0.152,0.715,-2.128,203.07,-394.8,132.16
1743435107.05284,-0.179,0.412,-2.266,176.54,-207.2,103.25
1743435107.0539043,-0.171,0.191,-2.119,59.15,-24.08,-7.14
1743435107.0739045,-0.091,0.356,-2.139,27.23,7.07,-68.25
1743435107.0939045,-0.124,0.81,-2.194,5.39,22.19,-70.42
1743435107.1139042,-0.085,1.088,-2.188,29.26,50.26,-18.2
1743435107.145343,-0.178,1.203,-2.036,79.52,112.56,92.33
1743435107.165343,-0.288,1.041,-1.813,158.41,184.66,184.8
1743435107.185343,-0.462,0.832,-1.582,243.74,223.16,236.67
1743435107.205343,-0.297,0.722,-1.403,289.52,257.18,248.29
1743435107.220917,-0.28,0.532,-1.153,433.16,271.46,254.1
1743435107.240917,-0.505,0.182,-0.757,479.85,261.87,256.97
1743435107.260917,-0.61,-0.019,-0.509,587.51,239.96,231.56
1743435107.280917,-0.397,-0.08,-0.377,628.04,242.48,166.25
1743435107.3097548,-0.327,0.069,-0.285,587.65,253.4,75.81
1743435107.3297548,-0.379,0.444,-0.19,554.89,253.96,20.16
1743435107.3497548,-0.45,0.608,0.004,502.53,281.96,-5.67
1743435107.3697548,-0.566,0.887,0.224,412.44,345.52,5.46
1743435107.3842309,-0.846,1.057,0.423,309.96,427.63,107.66
1743435107.4042308,-1.247,1.044,0.585,226.87,590.8,285.74
1743435107.4242308,-1.941,0.651,0.998,145.25,726.04,459.9
1743435107.4442308,-2.778,-0.325,1.812,120.12,713.16,563.5
1743435107.4594812,-3.145,-1.015,2.373,56.77,533.89,459.13
1743435107.4794812,-3.451,-1.573,2.756,24.85,207.69,109.62
1743435107.4994812,-3.0,-1.198,2.575,-136.92,-68.6,-340.97
1743435107.5194812,-2.621,-0.248,1.67,-262.22,-246.68,-539.35
1743435107.534553,-2.242,0.065,1.047,-332.92,-266.42,-518.7
1743435107.554553,-1.911,-0.122,0.496,-363.3,-229.04,-482.02
1743435107.574553,-1.79,-0.365,0.353,-418.67,-171.01,-520.52
1743435107.594553,-1.885,-0.488,0.28,-461.58,-147.21,-637.0
1743435107.6369972,-1.9,-0.236,0.2,-411.46,-244.79,-810.95
1743435107.6569972,-1.984,0.308,0.052,-402.78,-366.03,-956.62
1743435107.6769972,-1.98,1.32,-0.346,-353.01,-519.47,-1042.72
1743435107.6969972,-1.856,2.208,-1.068,-145.25,-584.43,-965.58
1743435107.7423031,-1.322,2.858,-1.246,-0.14,-524.65,-653.1
1743435107.762303,-0.583,2.929,-1.288,49.77,-469.7,-361.48
1743435107.782303,-0.213,2.473,-1.417,92.96,-438.76,-65.17
1743435107.802303,-0.154,1.613,-1.934,237.93,-455.77,275.03
1743435107.788278,-0.544,0.583,-2.019,334.53,-409.22,433.09
1743435107.808278,-0.713,-0.08,-2.102,332.22,-242.55,377.65
1743435107.828278,-0.585,-0.476,-2.222,203.84,-141.05,189.07
1743435107.848278,-0.424,-0.248,-2.216,-0.84,-29.47,4.41
1743435107.865043,-0.427,0.12,-2.067,-56.0,47.74,-47.46
1743435107.885043,-0.541,0.661,-1.85,-22.89,101.36,-14.07
1743435107.905043,-0.48,0.778,-1.743,45.01,129.64,63.42
1743435107.9250429,-0.614,0.644,-1.666,243.53,120.12,160.86
1743435107.938973,-0.745,0.419,-1.59,390.67,144.06,197.89
1743435107.958973,-0.773,0.108,-1.395,480.55,240.73,157.99
1743435107.978973,-0.834,-0.081,-0.969,524.16,332.43,161.21
1743435107.998973,-0.899,-0.132,-0.513,550.41,360.64,125.23
1743435108.04273,-0.623,-0.076,-0.324,585.83,283.85,31.64
1743435108.06273,-0.405,0.147,-0.224,532.21,243.67,-51.03
1743435108.08273,-0.366,0.319,-0.082,450.94,205.17,-141.33
1743435108.10273,-0.398,0.486,-0.071,399.42,353.71,-135.17
1743435108.105457,-0.539,0.906,-0.237,438.76,516.18,-65.38
1743435108.125457,-1.169,1.135,0.042,232.33,725.13,86.52
1743435108.145457,-2.072,0.874,0.457,86.17,895.23,327.74
1743435108.165457,-2.445,0.254,0.768,31.99,913.64,555.73
1743435108.17925,-2.83,-0.605,1.292,13.44,727.72,669.06
1743435108.19925,-3.348,-1.172,1.436,186.83,334.95,524.09
1743435108.21925,-3.436,-1.319,1.538,130.69,83.16,265.16
1743435108.23925,-3.209,-1.487,1.593,39.97,-105.84,-100.59
1743435108.254664,-1.712,-1.248,1.079,-117.88,-296.59,-429.59
1743435108.274664,-2.44,-0.412,0.402,-179.48,-362.25,-562.8
1743435108.294664,-2.35,-0.039,0.075,-220.29,-292.18,-544.46
1743435108.314664,-1.706,-0.065,-0.08,-251.3,-194.53,-525.98
1743435108.34381,-1.295,-0.058,-0.13,-259.7,-181.65,-572.39
1743435108.36381,-1.426,0.048,0.072,-270.34,-178.71,-618.66
1743435108.38381,-1.184,0.009,0.243,-327.6,-246.82,-716.17
1743435108.40381,-0.949,0.488,-0.067,-333.55,-379.47,-877.66
1743435108.4205172,-0.562,1.246,-0.517,-270.55,-436.45,-920.78
1743435108.4405172,-0.594,1.854,-0.678,-284.27,-383.81,-939.33
1743435108.4605172,-0.229,2.411,-0.805,-223.02,-386.96,-928.48
1743435108.4805171,-0.089,2.862,-0.992,-24.36,-558.11,-699.51
1743435108.493522,-0.144,2.712,-1.274,442.4,-827.26,2.59
1743435108.513522,0.044,1.851,-1.549,611.38,-947.31,428.75
1743435108.533522,-1.387,0.956,-1.7,760.76,-811.93,683.2
1743435108.553522,-2.11,-0.101,-1.903,743.68,-503.44,739.06
1743435108.583945,-1.776,-0.722,-1.574,622.86,-157.71,544.88
1743435108.603945,-1.612,-0.865,-1.096,490.42,-57.33,274.26
1743435108.623945,-1.825,-0.813,-0.726,275.45,-48.93,-25.2
1743435108.643945,-1.395,-0.953,-0.634,235.41,-42.42,-224.0
1743435108.6744585,-1.342,-0.805,-0.506,299.04,-106.75,-384.02
1743435108.6944582,-1.099,-0.4,-0.523,330.54,-216.51,-416.99
1743435108.7144582,-1.004,-0.23,-0.558,321.09,-300.72,-390.95
1743435108.7344582,-1.036,-0.32,-0.569,329.14,-380.17,-359.94
1743435108.749246,-0.971,-0.449,-0.567,386.26,-362.18,-421.75
1743435108.769246,-0.594,-0.515,-0.496,390.04,-240.17,-510.3
1743435108.789246,-0.569,-0.125,-0.592,350.63,-137.13,-675.64
1743435108.809246,-0.62,0.469,-0.709,277.2,77.42,-759.57
1743435108.8379111,-0.699,0.897,-0.763,255.64,320.46,-753.62
1743435108.857911,-0.72,1.472,-0.375,-3.57,824.11,-664.58
1743435108.877911,-2.921,1.668,0.38,-466.06,1465.1,-322.42
1743435108.897911,-4.139,1.234,0.526,-486.57,1669.01,174.93
1743435108.94224,-5.859,0.131,0.448,227.22,1422.26,513.03
1743435108.96224,-5.23,-0.444,1.623,410.76,1046.08,464.1
1743435108.98224,-3.042,-1.054,2.312,470.26,628.74,149.73
1743435109.00224,-2.438,-1.14,2.605,445.13,125.58,-237.09
1743435108.98621,-1.836,-0.707,2.083,104.86,-291.55,-455.7
1743435109.00621,-1.83,-0.05,1.321,-42.28,-642.53,-436.24
1743435109.02621,-2.477,0.33,0.728,-126.35,-862.54,-306.18
1743435109.04621,-2.71,0.407,0.362,-318.78,-910.91,-316.61
1743435109.0648022,-2.328,0.553,0.111,-509.53,-804.58,-505.26
1743435109.0848022,-1.979,0.832,-0.145,-618.1,-689.43,-717.5
1743435109.104802,-1.643,1.139,-0.515,-542.64,-616.56,-915.67
1743435109.124802,-1.485,1.838,-0.651,-607.81,-480.06,-966.49
1743435109.139405,-1.19,2.12,-0.738,-556.15,-523.6,-994.07
1743435109.159405,-0.597,2.665,-1.058,-299.6,-765.45,-876.96
1743435109.179405,-1.304,2.829,-1.502,249.06,-1043.63,-472.92
1743435109.199405,-1.604,2.488,-1.532,618.52,-1204.63,91.91
1743435109.2427971,-3.342,1.751,-1.122,715.82,-1292.76,654.43
1743435109.262797,-5.369,1.137,-0.634,521.08,-1056.79,933.24
1743435109.282797,-4.375,0.231,-1.029,569.73,-844.13,964.67
1743435109.302797,-3.71,-0.672,-0.969,461.09,-540.89,883.47
1743435109.3044312,-2.595,-1.767,-0.885,268.17,-183.61,401.87
1743435109.3244312,-1.567,-2.263,-0.757,89.25,-31.78,-164.92
1743435109.3444312,-1.941,-1.17,-0.599,-25.41,189.42,-658.56
1743435109.3644311,-2.46,-0.013,-0.427,-60.2,335.93,-845.18
1743435109.3926532,-2.695,0.541,-0.338,0.77,378.91,-842.52
1743435109.4126532,-2.569,0.826,-0.192,118.65,292.74,-758.94
1743435109.4326532,-1.974,0.804,-0.091,254.38,127.96,-670.39
1743435109.4526532,-1.306,0.542,-0.107,396.27,-46.34,-594.58
1743435109.469534,-0.953,0.444,-0.142,380.1,-175.21,-518.91
1743435109.489534,-0.522,0.289,-0.257,385.0,-226.94,-510.93
1743435109.509534,0.375,0.113,-0.412,308.35,-163.24,-508.48
1743435109.529534,0.818,0.198,-0.449,132.09,138.11,-450.94
1743435109.54387,0.318,0.298,-0.285,115.5,255.71,-344.19
1743435109.56387,0.063,0.176,-0.109,163.8,342.86,-230.93
1743435109.58387,-0.019,-0.03,0.095,238.49,419.02,-142.87
1743435109.60387,0.019,-0.26,0.291,235.97,550.2,-112.21
1743435109.619881,-0.157,-0.305,0.442,201.32,650.37,-108.71
1743435109.639881,-0.992,-0.231,0.732,134.61,902.58,-53.9
1743435109.6598809,-2.27,-0.315,1.081,202.23,970.62,-15.47
1743435109.6798809,-2.603,-0.345,1.264,279.65,835.87,-67.9
1743435109.693609,-2.229,-0.451,1.314,275.8,708.75,-102.48
1743435109.713609,-2.786,-0.262,1.874,204.47,624.82,-148.96
1743435109.733609,-1.997,-0.604,2.141,260.89,350.49,-358.68
1743435109.753609,-1.363,-0.314,1.991,48.37,-42.35,-474.81
1743435109.783968,-1.038,-0.045,1.444,-68.39,-261.17,-456.89
1743435109.803968,-0.78,0.05,1.073,-148.26,-443.52,-425.46
1743435109.823968,-1.063,0.249,0.773,-255.22,-519.47,-407.68
1743435109.843968,-0.981,0.301,0.336,-289.59,-534.94,-432.81
1743435109.858985,-0.611,0.448,0.053,-341.74,-522.13,-446.81
1743435109.878985,-0.328,0.543,-0.201,-350.07,-552.3,-428.68
1743435109.898985,-0.076,0.637,-0.448,-329.35,-630.77,-338.59
1743435109.918985,0.044,0.751,-0.593,-418.11,-662.41,-315.35
1743435109.9491909,0.041,1.007,-0.909,-481.18,-721.84,-311.92
1743435109.9691908,-0.632,1.268,-1.26,-353.22,-977.48,-233.03
1743435109.9891908,-2.35,1.682,-1.398,-115.71,-1286.74,35.7
1743435110.0091908,-4.074,1.798,-1.369,164.64,-1338.47,437.36
1743435110.023951,-5.478,1.358,-1.16,113.33,-1186.92,622.44
1743435110.043951,-4.36,0.467,-1.261,116.48,-943.88,699.23
1743435110.063951,-3.73,-0.189,-1.269,-58.8,-713.58,463.12
1743435110.083951,-3.013,-0.752,-1.597,-42.49,-507.5,109.97
1743435110.141971,-1.644,-1.434,-1.844,60.69,-219.31,-215.46
1743435110.161971,-1.146,-0.838,-1.375,-270.27,368.83,-531.44
1743435110.181971,-1.712,-0.11,-0.641,-218.05,648.34,-585.62
1743435110.201971,-2.513,0.051,-0.185,11.27,684.32,-618.87
1743435110.174112,-2.574,0.077,0.228,185.08,545.16,-700.28
1743435110.194112,-2.11,0.232,0.4,342.02,270.34,-855.4
1743435110.214112,-1.838,0.63,0.304,340.69,108.71,-930.3
1743435110.234112,-0.995,0.708,0.099,294.49,143.36,-856.59
1743435110.2634172,-0.368,0.962,0.077,300.51,198.38,-757.47
1743435110.2834172,-0.075,0.898,-0.0,253.4,275.59,-617.47
1743435110.3034172,1.131,0.87,0.064,152.88,440.09,-480.55
1743435110.3234172,1.1,0.847,0.249,-93.87,805.7,-260.68
1743435110.341144,-0.41,0.834,0.608,-132.37,978.74,108.36
1743435110.361144,-1.455,0.445,0.821,10.78,918.68,330.47
1743435110.381144,-1.809,-0.005,1.038,98.28,820.54,423.36
1743435110.401144,-2.093,-0.32,1.03,119.0,794.71,390.46
1743435110.414755,-3.481,-0.609,1.177,118.58,793.59,348.95
1743435110.434755,-2.491,-1.401,2.075,283.78,596.33,56.35
1743435110.454755,-2.532,-1.722,2.182,191.31,302.68,-335.16
1743435110.474755,-2.206,-0.973,2.046,-71.61,12.32,-853.16
1743435110.5472045,-2.392,0.049,1.319,-173.81,-185.29,-1173.27
1743435110.5672042,-2.017,1.041,0.601,-339.36,-210.28,-1344.0
1743435110.5872042,-0.903,1.272,0.004,-253.33,-272.93,-1282.12
1743435110.6072042,-0.12,1.644,-0.323,-46.06,-557.83,-969.15
1743435110.579062,1.224,1.751,-0.813,273.28,-961.73,-617.19
1743435110.599062,-0.004,2.331,-1.118,372.68,-1127.91,-298.34
1743435110.619062,-0.98,2.321,-1.453,343.28,-983.01,171.99
1743435110.639062,-1.463,1.622,-1.608,590.1,-934.85,644.28
1743435110.66925,-2.792,0.879,-1.04,614.46,-824.74,947.73
1743435110.68925,-3.923,0.004,-0.606,409.5,-652.82,1111.11
1743435110.70925,-3.966,-0.968,-0.338,289.66,-531.23,979.86
1743435110.72925,-2.891,-2.372,-0.332,-96.67,-494.83,475.23
1743435110.744157,-2.309,-2.63,-0.677,-333.76,-378.35,-162.82
1743435110.764157,-1.568,-1.715,-1.032,-435.05,-103.6,-575.47
1743435110.784157,-0.679,-0.7,-0.881,-390.67,238.28,-618.94
1743435110.804157,-0.511,-0.371,-0.629,-154.56,385.21,-526.82
1743435110.8325152,-0.454,-0.008,-0.443,177.66,392.98,-432.88
1743435110.8525152,-0.618,0.521,-0.386,185.92,460.18,-226.8
1743435110.8725152,-0.834,0.51,-0.194,168.7,514.01,58.59
1743435110.8925152,-1.546,0.064,0.323,114.1,520.38,275.1
1743435110.893901,-1.305,-0.541,0.854,121.73,444.99,301.56
1743435110.913901,-0.919,-1.084,1.065,100.31,153.58,192.08
1743435110.933901,-0.417,-1.241,0.933,-32.34,-142.94,42.0
1743435110.953901,-0.496,-0.738,0.069,19.32,-461.3,-104.93
1743435110.986556,-1.66,0.32,-0.482,-168.0,-614.04,-153.79
1743435111.006556,-2.098,0.77,-0.856,270.76,-625.38,45.43
1743435111.026556,-1.815,0.143,-1.124,-78.89,-259.63,124.74
1743435111.046556,0.142,-1.061,-0.837,-131.18,-475.09,293.37
1743435111.060529,-1.145,-1.069,-0.653,0.35,-293.3,50.75
1743435111.080529,-0.896,-1.496,-0.587,24.85,-129.78,-158.06
1743435111.100529,-1.057,-1.024,-0.693,-35.49,130.06,-273.49
1743435111.120529,-0.726,-0.903,-0.297,129.22,343.63,-257.32
1743435111.1354902,-1.062,-0.503,0.146,44.03,527.17,-201.88
1743435111.1554902,-1.223,-1.069,0.626,72.38,632.73,-148.26
1743435111.17549,-1.434,-1.07,1.024,126.63,656.25,-248.92
1743435111.19549,-2.285,-0.957,0.996,211.33,496.3,-439.81
1743435111.224365,-1.165,-0.319,0.738,216.02,-126.42,-491.96
1743435111.244365,-0.492,0.229,0.138,190.68,-705.95,-271.74
1743435111.264365,-0.99,0.185,-0.561,234.92,-995.75,73.36
1743435111.284365,-0.976,-0.371,-0.833,127.19,-904.19,309.47
1743435111.301961,0.713,-1.252,-0.915,-237.02,-340.48,181.44
1743435111.321961,0.189,-1.059,-0.821,-157.99,-110.11,34.23
1743435111.341961,-2.792,-0.678,0.045,-104.79,-2.38,74.9
1743435111.361961,-2.182,-1.691,0.694,-27.79,-348.04,29.61
1743435111.373655,-0.566,-2.089,0.244,-162.4,-591.22,-211.4
1743435111.393655,2.182,-1.218,-0.909,-261.52,-550.13,-384.44
1743435111.413655,2.855,0.378,-1.664,-279.86,-449.82,-313.18
1743435111.433655,1.257,1.345,-2.216,-59.36,-287.28,-41.58
1743435111.466696,0.269,1.688,-1.708,12.53,210.91,577.99
1743435111.486696,-3.56,1.51,-0.224,116.76,541.94,999.04
1743435111.506696,-5.272,0.064,0.384,209.79,507.92,1178.59
1743435111.526696,-3.363,-1.808,0.939,330.47,235.27,926.94
1743435111.54013,-1.757,-3.029,0.906,164.01,121.73,324.52
1743435111.56013,-1.935,-2.285,0.563,104.16,60.69,-192.85
1743435111.58013,-2.132,-0.58,0.265,120.05,45.5,-454.09
1743435111.60013,-2.381,0.086,0.129,28.63,91.91,-430.29
1743435111.61542,-1.707,0.105,-0.079,78.47,-25.13,-315.07
1743435111.6354198,-0.8,-0.264,-0.186,138.67,-200.83,-192.29
1743435111.6554198,0.887,-0.517,-0.263,-32.62,-171.64,-163.59
1743435111.6754198,1.132,-0.309,-0.382,-137.06,-162.89,-68.11
1743435111.732918,1.582,-0.137,-0.744,-14.84,-157.92,168.56
1743435111.752918,0.224,0.251,-0.894,-32.76,-105.35,279.86
1743435111.772918,-0.502,0.469,-1.015,151.2,-21.42,419.44
1743435111.792918,-1.949,0.857,-0.844,221.69,168.21,494.76
1743435111.778642,-4.207,0.489,0.135,90.09,410.2,468.3
1743435111.798642,-4.499,-0.656,0.737,42.28,281.4,249.48
1743435111.818642,-2.603,-1.709,1.121,66.43,-122.57,-281.75
1743435111.838642,-2.836,-1.165,0.848,-68.88,-565.67,-763.77
1743435111.855283,-2.607,-0.153,-0.077,-79.24,-767.76,-910.91
1743435111.875283,-1.264,0.269,-0.772,-85.89,-803.95,-816.34
1743435111.895283,1.485,0.475,-1.501,-40.81,-704.41,-567.49
1743435111.915283,2.177,1.167,-2.136,-93.03,-399.84,-237.37
1743435111.944024,1.026,1.62,-2.093,-109.55,112.35,128.66
1743435111.964024,-0.494,1.491,-0.819,-189.98,744.94,505.26
1743435111.984024,-3.541,0.885,0.492,-325.99,991.76,850.92
1743435112.004024,-3.527,-1.371,1.462,9.73,499.24,865.13
1743435112.034588,-1.526,-2.985,1.702,-39.62,18.48,544.6
1743435112.0545878,-0.466,-3.297,1.138,-376.04,-412.3,-53.2
1743435112.0745878,-2.179,-1.186,0.145,-419.58,-433.23,-383.11
1743435112.0945878,-4.16,0.151,0.111,-482.16,-158.83,-610.75
1743435112.0958931,-2.59,0.195,0.136,-344.82,-313.74,-636.65
1743435112.1158931,-1.188,0.494,-0.201,-311.5,-572.18,-557.41
1743435112.135893,-0.448,0.793,-0.825,-205.94,-827.47,-344.19
1743435112.155893,-0.116,1.108,-1.577,84.56,-1043.63,-29.89
1743435112.185949,-1.896,1.413,-1.882,332.08,-1106.42,358.12
1743435112.205949,-3.337,0.956,-1.5,642.81,-978.88,865.69
1743435112.225949,-3.362,-0.742,-0.807,528.5,-565.25,1009.68
1743435112.245949,-2.277,-1.96,-0.54,484.54,-281.4,756.49
1743435112.260659,-4.499,-7.773,2.666,276.57,-456.54,-1166.13
1743435112.280659,-1.984,0.098,-1.176,157.29,61.95,-1392.51
1743435112.300659,-1.675,0.794,-0.877,-57.54,882.84,-1296.05
1743435112.320659,-3.543,1.525,-0.09,-217.77,1507.66,-808.15
1743435112.33508,-5.451,1.382,0.097,92.47,1465.45,-376.6
1743435112.35508,-3.655,0.953,0.668,287.0,1339.87,-122.01
1743435112.37508,-4.153,0.699,1.051,147.0,1292.55,52.5
1743435112.39508,-3.599,-0.269,1.319,423.5,889.49,39.76
1743435112.4245892,-1.017,-0.899,1.877,422.59,335.79,-182.84
1743435112.4445891,0.539,-1.08,1.814,121.52,3.57,-272.16
1743435112.464589,0.81,-0.632,1.2,-14.49,-288.96,-222.53
1743435112.484589,0.557,-0.14,0.586,-39.27,-437.22,-75.74
1743435112.499537,-0.028,0.125,0.049,-62.58,-477.68,121.24
1743435112.519537,-0.543,-0.071,-0.456,131.04,-541.94,346.85
1743435112.539537,-0.827,-0.48,-0.627,207.27,-474.53,483.49
1743435112.559537,-0.624,-0.609,-0.611,-68.6,-174.23,428.75
1743435112.588272,-0.601,-0.485,-0.791,-137.69,-17.64,324.66
1743435112.6082718,-1.195,-0.116,-0.848,-24.92,246.61,349.93
1743435112.6282718,-1.633,-0.289,-0.421,107.87,442.68,409.15
1743435112.6482718,-1.949,-0.727,0.145,79.8,657.58,374.22
1743435112.664514,-2.153,-0.861,0.522,66.36,622.37,244.02
1743435112.684514,-1.952,-0.979,0.715,53.34,527.45,83.09
1743435112.704514,-1.837,-0.835,0.862,-114.87,347.27,-93.59
1743435112.724514,-1.641,-0.867,0.757,-143.08,9.03,-328.44
1743435112.740016,-1.934,-0.218,0.361,-252.49,-240.31,-551.81
1743435112.760016,-2.867,0.386,0.062,-283.78,-472.85,-679.42
1743435112.780016,-3.445,0.846,-0.262,-254.17,-757.19,-721.07
1743435112.800016,-4.439,1.162,-0.567,-187.32,-1058.96,-664.02
1743435112.814666,-4.697,1.37,-0.808,-216.09,-1219.75,-506.87
1743435112.834666,-4.511,1.432,-1.24,-225.05,-1304.87,-382.55
1743435112.854666,-4.636,1.507,-1.478,-171.71,-1357.3,-234.92
1743435112.874666,-4.409,1.33,-1.608,-18.69,-1415.12,77.56
1743435112.934037,-4.744,0.891,-1.562,158.34,-1548.61,380.38
1743435112.954037,-4.941,0.448,-1.132,361.97,-1410.36,785.82
1743435112.974037,-3.185,-0.498,-0.729,-166.53,-908.88,781.34
1743435112.994037,-2.462,-0.788,-0.926,-522.13,-767.41,482.3
1743435112.9817622,-2.232,-0.702,-0.956,-381.92,-787.85,507.43
1743435113.0017622,-2.78,-0.463,-0.932,-259.56,-708.33,596.82
1743435113.021762,-3.266,-0.361,-0.648,-292.04,-497.42,604.1
1743435113.041762,-2.465,-1.002,-0.423,-311.99,-248.29,468.44
1743435113.0724182,-2.086,-1.435,-0.307,-329.35,-161.42,254.03
1743435113.0924182,-1.901,-1.671,-0.152,-305.83,-182.21,0.21
1743435113.1124182,-1.4,-1.632,-0.36,-270.55,-240.66,-256.2
1743435113.1324182,-1.507,-1.097,-0.682,-125.37,-377.3,-357.35
1743435113.1597042,-1.356,-0.927,-1.074,57.19,-510.65,-323.68
1743435113.1797042,-0.569,-0.962,-1.441,99.68,-517.09,-298.06
1743435113.1997042,0.228,-1.034,-1.826,100.66,-370.16,-287.28
1743435113.2197042,0.447,-1.072,-2.082,234.29,-200.76,-213.5
1743435113.233182,0.638,-1.129,-2.054,367.29,-17.22,-174.16
1743435113.253182,0.606,-1.062,-1.813,474.74,277.9,-253.68
1743435113.273182,0.081,-0.542,-1.441,455.21,624.61,-378.07
1743435113.293182,-1.133,0.315,-1.077,392.35,888.79,-484.47
1743435113.3097332,-3.207,1.139,-0.659,263.83,1111.6,-442.96
1743435113.3297331,-4.51,1.409,-0.52,341.53,1140.23,-205.31
1743435113.349733,-4.385,1.08,0.154,356.37,1033.34,-21.98
1743435113.369733,-3.659,0.35,0.395,568.33,839.65,-61.67
1743435113.386288,-2.868,0.692,0.581,473.97,644.14,-195.51
1743435113.406288,-2.59,0.602,0.468,477.19,473.97,-177.59
1743435113.426288,-1.879,0.497,0.561,393.68,229.6,-152.32
1743435113.446288,-1.221,0.405,0.425,422.52,-151.06,-124.18
1743435113.460188,-1.226,0.352,0.106,494.2,-371.91,-92.61
1743435113.480188,-1.205,0.097,-0.155,550.97,-485.03,-118.51
1743435113.500188,-0.845,-0.217,-0.225,492.52,-356.86,-223.51
1743435113.520188,-0.568,-0.397,-0.243,459.27,-159.39,-416.64
1743435113.5362182,-0.82,-0.19,-0.198,483.07,77.56,-663.04
1743435113.556218,-1.433,0.476,0.135,363.09,501.76,-834.96
1743435113.576218,-2.821,1.093,0.46,244.02,816.97,-816.27
1743435113.596218,-4.023,1.326,0.89,278.6,973.35,-667.59
1743435113.624999,-3.763,1.035,1.156,431.34,762.3,-574.14
1743435113.644999,-2.257,0.78,1.185,486.15,518.21,-527.59
1743435113.664999,-1.789,0.784,1.191,305.55,482.79,-450.45
1743435113.684999,-1.176,0.467,1.162,219.03,562.52,-345.1
1743435113.7004611,0.474,-0.006,1.017,200.97,556.64,-296.1
1743435113.7204611,-0.112,0.301,1.116,60.55,555.73,-161.91
1743435113.740461,-0.3,0.145,1.159,-81.34,542.78,-6.02
1743435113.760461,0.136,-0.24,1.136,-145.95,513.94,38.5
1743435113.774257,-0.439,-0.274,1.158,-167.09,401.73,101.64
1743435113.794257,-0.562,-0.48,1.147,-228.06,256.48,145.11
1743435113.814257,-0.391,-0.645,0.9,-325.15,110.88,107.66
1743435113.834257,-0.707,-0.447,0.552,-429.52,-17.71,30.87
1743435113.864838,-1.254,-0.067,0.189,-482.3,-232.33,-41.02
1743435113.884838,-1.775,0.282,-0.116,-511.91,-403.06,-94.15
1743435113.9048378,-2.791,0.675,-0.351,-470.12,-589.68,-110.39
1743435113.9248378,-3.716,0.868,-0.458,-431.62,-741.58,-117.67
1743435113.9421382,-3.99,0.826,-0.521,-473.97,-922.6,-204.12
1743435113.9621382,-4.427,1.066,-0.77,-512.75,-1009.54,-295.4
1743435113.9821382,-4.335,1.472,-1.0,-477.89,-992.67,-322.98
1743435114.002138,-3.889,1.74,-1.152,-352.73,-881.37,-174.02
1743435114.0146089,-2.883,1.485,-1.171,-269.36,-769.23,-35.0
1743435114.0346088,-2.084,1.004,-1.037,-245.84,-671.02,141.68
1743435114.0546088,-1.634,0.384,-0.925,-178.43,-740.74,270.06
1743435114.0746088,-1.528,-0.083,-0.961,5.11,-888.44,394.24
1743435114.146854,-1.519,-0.588,-0.868,72.45,-783.37,575.82
1743435114.166854,-1.75,-1.029,-0.568,-60.34,-570.92,629.44
1743435114.186854,-1.69,-1.486,-0.419,-190.47,-397.6,488.04
1743435114.206854,-1.351,-1.736,-0.41,-242.27,-258.16,273.56
1743435114.179271,-0.939,-1.872,-0.432,-142.24,-139.72,43.26
1743435114.199271,-0.639,-1.948,-0.474,-24.99,-96.04,-35.98
1743435114.219271,-0.049,-1.853,-0.493,108.5,-34.23,-76.3
1743435114.239271,0.339,-1.414,-0.584,190.4,112.49,-48.09
1743435114.254987,-0.058,-1.093,-0.432,360.57,243.18,-12.67
1743435114.274987,-0.682,-0.792,-0.222,485.66,375.97,-111.44
1743435114.294987,-1.09,-0.466,-0.146,556.99,480.2,-356.58
1743435114.314987,-1.678,0.261,-0.148,493.01,585.48,-544.32
1743435114.344547,-3.022,1.184,-0.087,251.51,764.61,-634.55
1743435114.364547,-3.444,1.525,-0.011,204.26,812.56,-502.67
1743435114.384547,-3.092,1.454,0.016,249.48,740.46,-338.45
1743435114.404547,-2.431,1.092,0.044,389.97,512.89,-224.91
1743435114.446788,-1.71,0.599,0.067,477.4,364.28,-203.98
1743435114.466788,-1.647,0.575,-0.008,566.09,241.78,-254.94
1743435114.486788,-1.943,0.755,-0.086,555.8,263.62,-282.38
1743435114.506788,-2.195,0.636,-0.031,545.23,319.06,-304.43
1743435114.494414,-1.997,0.455,0.233,523.67,372.05,-371.98
1743435114.514414,-1.817,0.327,0.364,543.69,347.48,-431.34
1743435114.534414,-1.437,0.369,0.416,542.01,301.14,-460.6
1743435114.554414,-0.958,0.501,0.322,523.46,267.47,-438.06
1743435114.585814,-0.727,0.624,0.225,493.64,264.88,-342.65
1743435114.605814,-0.749,0.922,0.338,326.55,390.18,-209.58
1743435114.625814,-1.28,0.655,0.338,447.44,439.6,-39.2
1743435114.645814,-2.215,0.694,0.882,132.79,704.34,84.0
1743435114.6595762,-1.774,-0.093,1.005,156.45,716.17,106.68
1743435114.6795762,-1.553,-0.493,1.354,239.96,590.8,-30.73
1743435114.699576,-2.156,-0.32,1.581,193.9,457.31,-144.06
1743435114.719576,-1.74,-0.448,1.465,128.1,250.67,-272.65
1743435114.7471,-1.298,-0.265,1.3,44.31,93.59,-287.0
1743435114.7671,-0.95,-0.213,1.111,-13.16,-102.76,-281.68
1743435114.7870998,-0.674,-0.179,0.693,-155.47,-206.22,-263.27
1743435114.8070998,-0.646,-0.166,0.424,-271.25,-302.61,-231.63
1743435114.826928,-0.575,-0.152,0.209,-380.94,-321.72,-190.61
1743435114.846928,-0.525,-0.199,0.091,-429.8,-350.98,-157.22
1743435114.866928,-0.693,-0.064,-0.033,-473.06,-427.28,-120.4
1743435114.8869278,-0.999,0.104,-0.2,-519.82,-451.43,-97.44
1743435114.913022,-1.484,0.269,-0.4,-465.71,-566.93,-45.71
1743435114.933022,-1.8,0.418,-0.488,-469.07,-609.84,3.64
1743435114.953022,-2.354,0.497,-0.609,-457.66,-689.29,44.73
1743435114.973022,-3.189,0.459,-0.608,-382.69,-777.42,68.88
1743435114.974346,-3.175,0.431,-0.659,-431.06,-819.28,-3.01
1743435114.994346,-3.488,0.555,-0.749,-434.49,-808.01,-56.07
1743435115.014346,-2.989,0.558,-0.84,-444.08,-729.89,-122.01
1743435115.034346,-2.636,0.612,-0.877,-421.05,-653.24,-139.23
1743435115.091624,-2.225,0.61,-0.829,-369.95,-545.02,-111.79
1743435115.111624,-1.593,0.469,-0.853,-319.27,-501.83,-91.28
1743435115.131624,-1.161,0.328,-0.955,-174.51,-574.42,-50.75
1743435115.151624,-0.661,0.21,-1.179,-51.1,-672.21,66.08
1743435115.139859,-0.411,-0.049,-1.264,85.54,-574.35,290.08
1743435115.159859,-0.163,-0.609,-0.942,50.54,-354.34,470.4
1743435115.179859,-0.621,-1.249,-0.574,18.69,-194.6,525.7
1743435115.199859,-1.447,-1.625,-0.207,-9.17,-116.34,339.64
1743435115.2145002,-1.496,-2.018,-0.06,22.61,-76.16,-226.24
1743435115.2345002,-0.047,-0.796,-0.448,-111.72,130.76,-172.76
1743435115.2545002,0.09,-0.838,-0.255,19.74,203.84,36.4
1743435115.2745,0.096,-0.931,2.069,581.42,94.15,150.29
1743435115.3317902,0.048,-0.465,1.81,-118.65,-136.15,283.5
1743435115.3517902,-0.246,-0.553,-0.038,23.8,35.14,312.97
1743435115.3717902,-0.311,-0.55,0.318,66.71,160.86,317.03
1743435115.3917902,-0.583,-0.316,0.584,49.63,166.04,254.17
1743435115.381868,-0.819,-0.34,0.095,5.53,228.41,161.49
1743435115.401868,-1.193,-0.204,-0.04,129.64,190.96,83.72
1743435115.421868,-1.44,0.053,-0.043,163.03,151.27,2.17
1743435115.441868,-1.571,0.11,-0.088,216.44,146.09,-46.69
1743435115.4567611,-1.155,0.004,-0.173,377.37,93.31,-30.94
1743435115.476761,-1.124,0.038,-0.228,454.58,15.4,-28.07
1743435115.496761,-0.792,-0.012,-0.346,479.92,-21.28,-52.99
1743435115.516761,-0.805,0.078,-0.528,460.53,1.75,-96.18
1743435115.546699,-1.231,0.358,-0.561,447.51,100.38,-191.38
1743435115.566699,-2.083,0.803,-0.323,334.39,300.79,-278.81
1743435115.586699,-3.36,0.832,0.163,157.08,555.03,-364.28
1743435115.606699,-4.883,0.351,1.084,316.75,454.23,-543.2
1743435115.646625,-3.313,-0.051,1.15,526.68,8.4,-898.1
1743435115.666625,-1.641,0.788,0.49,488.88,-406.7,-1048.11
1743435115.686625,-0.634,1.363,-0.085,413.7,-569.45,-864.92
1743435115.706625,0.132,1.53,-0.402,400.05,-541.38,-522.41
1743435115.709137,1.03,1.542,-0.534,240.1,-147.84,-111.72
1743435115.729137,1.607,1.2,-0.408,22.61,299.74,167.51
1743435115.749137,0.138,0.65,-0.04,20.23,504.91,448.07
1743435115.769137,-0.768,0.243,0.301,38.22,551.04,634.9
1743435115.7862551,-1.257,-0.158,0.562,-3.85,579.46,710.36
1743435115.806255,-2.143,-0.915,0.721,12.39,542.99,691.11
1743435115.826255,-2.071,-1.518,0.741,23.38,430.71,492.31
1743435115.846255,-1.51,-1.787,0.706,18.48,244.44,189.98
1743435115.8598862,-1.186,-1.383,0.251,-1.96,126.7,-86.52
1743435115.8798862,-0.891,-0.358,0.068,-74.34,187.46,-203.56
1743435115.899886,-1.112,0.063,-0.117,-94.92,287.07,-209.37
1743435115.919886,-1.187,0.161,-0.112,-13.44,261.31,-139.58
1743435115.948401,-0.823,0.184,0.07,-67.13,306.81,-47.95
1743435115.968401,-0.539,-0.049,0.295,-91.14,247.59,53.83
1743435115.988401,-0.856,-0.021,0.402,-154.0,115.15,85.33
1743435116.008401,-0.633,-0.102,0.212,-175.77,-65.45,76.65
1743435116.027622,-0.858,0.199,-0.144,-165.83,-225.26,53.2
1743435116.047622,-0.923,0.417,-0.493,-147.0,-293.09,75.11
1743435116.067622,-1.159,0.584,-0.784,-111.44,-265.02,171.78
1743435116.087622,-1.248,0.483,-0.791,-54.88,-187.39,327.53
1743435116.101881,-1.027,-0.098,-0.513,-35.84,-88.13,326.2
1743435116.121881,-1.059,-0.402,-0.497,-24.64,-21.0,217.35
1743435116.141881,-1.328,-0.288,-0.499,1.47,0.42,60.83
1743435116.161881,-1.276,0.064,-0.608,-1.33,50.4,-55.3
1743435116.1769722,-1.011,0.384,-0.62,-2.66,119.35,-75.95
1743435116.196972,-0.842,0.48,-0.377,-4.9,200.2,-30.87
1743435116.216972,-0.888,0.408,-0.128,-20.02,236.25,23.03
1743435116.236972,-0.916,0.287,0.098,-26.81,149.87,43.61
1743435116.266114,-0.74,0.224,0.138,-13.58,62.58,49.91
1743435116.286114,-0.635,0.347,0.002,0.07,-25.97,60.97
1743435116.306114,-0.72,0.477,-0.216,19.53,-62.44,113.54
1743435116.326114,-0.929,0.437,-0.417,81.48,-89.67,136.43
1743435116.33987,-1.006,0.336,-0.589,165.97,-87.36,107.59
1743435116.35987,-0.973,0.496,-0.675,103.53,-23.94,81.34
1743435116.37987,-0.975,0.557,-0.75,50.05,37.59,61.46
1743435116.39987,-0.815,0.643,-0.765,35.56,128.17,51.94
1743435116.416612,-0.891,0.587,-0.736,100.73,180.6,93.1
1743435116.436612,-1.034,0.359,-0.492,128.31,197.19,109.9
1743435116.456612,-1.137,0.279,0.154,112.56,67.2,82.53
1743435116.476612,-1.485,0.958,-0.571,169.54,6.79,74.62
1743435116.533399,-0.965,0.758,-0.458,8.26,28.42,59.85
1743435116.553399,-0.508,0.336,-0.509,47.74,94.43,41.72
1743435116.573399,-0.727,0.363,-0.694,143.71,93.1,15.68
1743435116.593399,-0.712,0.36,-0.879,195.65,10.08,17.57
1743435116.5820591,-0.605,0.408,-0.831,52.78,-21.84,24.64
1743435116.6020591,-0.673,0.311,-0.799,-15.47,-60.27,38.08
1743435116.622059,-0.647,0.365,-0.689,14.91,-88.9,16.59
1743435116.642059,-0.543,0.377,-0.733,41.93,-98.98,-14.63
1743435116.656697,-0.804,0.502,-0.664,-55.51,-115.57,-36.26
1743435116.676697,-0.656,0.431,-0.545,-139.16,-98.0,-56.14
1743435116.696697,-0.724,0.365,-0.554,-163.24,-72.73,-67.34
1743435116.716697,-0.772,0.441,-0.499,-147.07,-56.14,-91.56
1743435116.756208,-0.77,0.3,-0.443,-71.26,-50.61,-108.08
1743435116.776208,-0.774,0.212,-0.335,-41.72,-1.33,-59.15
1743435116.796208,-0.84,0.296,-0.424,-33.46,37.66,-46.55
1743435116.816208,-0.703,0.282,-0.474,18.69,46.69,-64.4
1743435116.832549,-0.844,0.248,-0.467,58.1,59.15,-46.55
1743435116.852549,-0.904,0.271,-0.466,54.25,67.48,-25.41
1743435116.872549,-0.893,0.417,-0.65,15.19,30.59,-42.07
1743435116.892549,-0.789,0.293,-0.681,-27.16,2.87,-53.83
1743435116.908142,-0.796,0.282,-0.547,-68.53,2.45,-54.18
1743435116.928142,-0.948,0.326,-0.604,-53.27,-25.69,-47.74
1743435116.948142,-0.899,0.151,-0.871,48.3,-39.62,-9.31
1743435116.968142,-1.203,-0.207,-0.883,119.63,25.2,-43.19
1743435116.9849072,-1.224,-0.414,-1.025,61.11,102.9,-149.31
1743435117.0049071,-1.049,-0.215,-0.873,-4.55,145.18,-293.37
1743435117.024907,-1.315,0.062,-0.964,-76.65,162.19,-323.54
1743435117.044907,-1.347,0.382,-0.935,-85.05,170.38,-305.76
1743435117.061325,-0.919,0.429,-0.73,-71.12,159.04,-227.57
1743435117.081325,-0.71,0.328,-0.579,-6.79,117.04,-155.75
1743435117.101325,-0.618,-0.004,-0.349,48.86,34.79,-127.82
1743435117.121325,-0.754,-0.11,-0.38,47.04,-55.65,-146.37
1743435117.134728,-0.514,-0.027,-0.529,29.05,-112.28,-153.37
1743435117.154728,-0.762,0.083,-0.7,3.36,-116.97,-135.31
1743435117.174728,-0.681,0.033,-0.804,25.83,-83.51,-115.15
1743435117.194728,-0.728,-0.039,-0.793,70.84,-50.61,-89.39
1743435117.224091,-0.468,-0.374,-0.714,63.63,-11.2,-78.4
1743435117.244091,-0.4,-0.405,-0.657,64.82,19.81,-88.97
1743435117.264091,-0.405,-0.457,-0.709,48.65,47.74,-103.6
1743435117.284091,-0.553,-0.558,-0.707,17.99,75.67,-130.41
1743435117.301534,-0.679,-0.688,-0.719,14.35,90.09,-198.31
1743435117.321534,-0.718,-0.606,-0.845,1.4,117.81,-256.97
1743435117.341534,-0.781,-0.446,-1.006,-13.44,186.69,-280.7
1743435117.361534,-0.988,-0.48,-1.086,11.83,256.34,-338.45
1743435117.3755352,-1.06,-0.495,-1.165,-10.71,374.15,-388.22
1743435117.3955352,-0.741,-0.334,-0.901,-106.75,496.37,-326.62
1743435117.4155352,-0.317,-0.135,-0.556,-112.7,562.31,-243.11
1743435117.4355352,0.212,-0.232,-0.369,-17.5,580.51,-136.64
1743435117.465425,0.538,-0.321,-0.08,-10.43,568.33,-66.85
1743435117.485425,0.441,-0.278,0.01,-100.73,545.02,-39.83
1743435117.505425,0.706,-0.468,-0.086,-76.23,552.93,88.2
1743435117.525425,0.716,-0.418,0.209,-79.45,481.04,190.61
1743435117.539391,0.553,-0.234,0.473,-144.2,343.63,202.09
1743435117.559391,0.687,-0.231,0.527,-126.91,294.84,272.44
1743435117.579391,0.749,-0.844,0.582,-128.66,211.61,331.24
1743435117.599391,0.283,-0.983,0.481,-102.41,115.36,296.45
1743435117.61458,0.555,-1.04,0.495,-71.19,-0.91,229.95
1743435117.63458,0.341,-1.067,0.355,13.72,-152.53,164.43
1743435117.65458,0.231,-1.315,0.001,40.53,-162.19,35.84
1743435117.67458,0.273,-0.996,-0.213,-43.12,-112.28,-24.29
1743435117.733237,0.508,-0.758,-0.045,-46.69,-39.41,7.07
1743435117.753237,0.462,-0.924,0.117,-9.03,-60.2,33.81
1743435117.773237,0.459,-1.144,0.101,20.58,-100.94,34.37
1743435117.793237,0.595,-0.963,0.246,-22.12,-132.3,69.37
1743435117.7802682,0.307,-0.936,0.382,-65.87,-172.69,123.34
1743435117.8002682,0.023,-1.122,0.197,-36.89,-237.37,91.14
1743435117.8202682,-0.054,-1.296,-0.162,16.03,-273.07,-4.9
1743435117.840268,-0.167,-1.208,-1.151,118.16,-322.91,-109.9
1743435117.854658,-0.318,-0.733,-3.314,292.32,-249.9,-164.57
1743435117.874658,-0.659,-0.492,-3.817,294.63,442.82,-133.14
1743435117.894658,-1.048,-1.281,-1.699,305.69,809.69,-185.22
1743435117.914658,-1.159,-0.929,0.407,51.17,1000.72,-243.67
1743435117.957437,-2.019,-0.068,1.139,-90.58,1116.57,-108.43
1743435117.977437,-2.006,0.325,1.725,-288.19,1090.25,137.06
1743435117.997437,-1.855,-0.297,2.794,-387.38,690.48,383.53
1743435118.017437,-1.801,-1.199,3.424,-328.09,139.86,349.23
1743435118.034016,-1.635,-1.738,3.265,-267.89,-519.54,74.13
1743435118.054016,-1.928,-1.149,1.731,-401.87,-869.75,-231.63
1743435118.074016,-2.202,-0.303,0.183,-508.55,-1037.19,-357.49
1743435118.094016,-2.021,0.435,-0.851,-369.95,-1105.16,-330.47
1743435118.137226,-1.42,0.722,-2.835,140.91,-1094.24,78.4
1743435118.157226,-1.13,-1.671,-5.174,878.64,-716.38,519.4
1743435118.177226,-2.041,-4.114,-4.154,594.09,407.68,52.57
1743435118.197226,-2.925,-3.055,-1.862,181.93,949.62,-591.08
1743435118.1850502,-3.5,-0.335,0.436,66.5,1140.65,-788.41
1743435118.2050502,-3.003,0.73,1.154,154.98,967.82,-486.99
1743435118.2250502,-1.968,1.2,2.005,108.92,756.56,-164.57
1743435118.2450502,-1.86,0.872,2.799,-86.66,502.53,118.86
1743435118.259548,-1.901,0.079,3.423,-300.65,97.37,242.83
1743435118.279548,-1.473,-0.8,3.039,-312.48,-479.64,134.19
1743435118.299548,-1.843,-0.554,1.651,-348.18,-924.28,-0.42
1743435118.319548,-2.105,-0.132,0.09,-443.38,-1112.23,-72.03
1743435118.33703,-1.594,-0.254,-2.336,-74.2,-1229.76,25.62
1743435118.35703,-1.588,-2.365,-5.076,733.46,-947.87,466.06
1743435118.37703,-2.217,-4.256,-4.398,613.27,69.51,189.14
1743435118.39703,-2.82,-3.337,-1.459,171.43,789.67,-664.93
1743435118.440184,-3.296,-0.268,0.393,122.78,968.1,-919.17
1743435118.460184,-2.489,0.973,1.213,197.82,845.67,-659.19
1743435118.480184,-1.939,1.533,1.716,100.17,729.26,-367.08
1743435118.500184,-1.737,1.625,2.366,-172.34,594.79,-18.2
1743435118.50011,-1.82,0.67,3.226,-346.15,241.85,263.34
1743435118.52011,-1.603,-0.346,3.077,-301.91,-304.08,267.68
1743435118.54011,-1.831,-0.568,1.7,-315.84,-786.66,173.88
1743435118.56011,-2.048,-0.492,0.041,-398.72,-1026.34,86.94
1743435118.5759192,-1.468,-0.885,-1.856,-89.74,-1122.87,147.7
1743435118.5959191,-1.601,-1.812,-3.708,369.11,-941.57,365.26
1743435118.615919,-1.958,-3.993,-3.971,547.05,-9.87,28.98
1743435118.635919,-2.51,-3.764,-1.411,202.3,591.36,-759.92
1743435118.6660092,-3.258,-0.923,-0.049,65.38,811.65,-1042.72
1743435118.6860092,-3.215,0.863,0.955,14.21,889.35,-964.11
1743435118.7060091,-2.749,1.966,1.686,-114.24,906.71,-526.4
1743435118.7260091,-2.45,1.826,2.802,-467.74,820.4,115.99
1743435118.740127,-2.163,0.172,3.717,-464.24,329.49,371.28
1743435118.760127,-1.726,-0.882,3.468,-247.87,-465.43,275.1
1743435118.780127,-1.833,-1.047,0.909,-209.65,-927.36,71.12
1743435118.800127,-1.362,-1.386,-0.827,-218.26,-1069.46,-11.48
1743435118.8320572,-0.343,-2.096,-2.751,355.95,-1186.22,198.24
1743435118.8520572,-1.715,-3.003,-3.243,563.99,-407.12,84.84
1743435118.8720572,-1.476,-3.116,-1.675,40.6,408.66,-535.85
1743435118.8920572,-2.226,-0.492,-0.034,-203.56,860.37,-723.8
1743435118.9041011,-2.709,0.492,0.869,-340.27,1126.65,-506.87
1743435118.924101,-2.843,1.209,2.719,-476.91,1074.36,-117.11
1743435118.944101,-2.601,0.388,3.856,-522.97,632.24,172.2
1743435118.964101,-1.658,-0.839,4.037,-461.51,-237.93,51.1
1743435118.9804533,-1.364,-0.623,1.235,-245.28,-1235.36,-100.94
1743435119.0004532,-1.045,-1.271,-1.546,215.81,-1561.28,189.77
1743435119.0204532,-2.546,-2.399,-3.345,803.46,-1157.31,358.89
1743435119.0404532,-2.12,-3.658,-3.24,333.27,-183.4,-200.83
1743435119.071649,-1.801,-2.478,-1.481,-98.35,621.74,-650.72
1743435119.091649,-2.477,-0.362,0.409,-251.58,1060.36,-658.91
1743435119.111649,-2.936,0.863,1.83,-399.91,1197.35,-370.09
1743435119.131649,-2.795,0.943,2.98,-408.17,958.44,86.24
1743435119.1445992,-2.35,0.041,3.863,-431.27,302.68,184.31
1743435119.1645992,-1.533,-0.979,3.138,-348.04,-645.19,-44.1
1743435119.1845992,-2.32,-0.444,1.351,-366.87,-1169.21,-204.05
1743435119.2045991,-2.382,-0.45,-0.997,-284.13,-1437.8,-188.02
1743435119.223403,-1.982,-0.79,-3.503,536.41,-1505.0,146.44
1743435119.243403,-2.974,-3.051,-4.688,739.34,-702.38,365.26
1743435119.263403,-2.097,-4.249,-3.377,275.31,456.68,-325.64
1743435119.283403,-3.081,-1.316,-0.488,6.72,1062.46,-840.0
1743435119.3236291,-3.234,0.252,1.088,22.26,1140.02,-653.17
1743435119.3436291,-2.484,1.356,2.104,-48.02,857.29,-271.81
1743435119.363629,-2.461,1.403,2.797,-218.68,658.84,2.8
1743435119.383629,-2.064,0.484,3.129,-349.86,208.32,184.73
1743435119.3723412,-1.593,-0.318,2.832,-284.97,-403.9,122.08
1743435119.3923411,-1.922,-0.416,1.536,-320.95,-1027.67,-19.04
1743435119.412341,-2.39,-0.432,-0.092,-450.73,-1152.13,-84.42
1743435119.432341,-1.793,-0.735,-2.09,139.09,-1222.27,48.72
1743435119.459371,-1.876,-1.834,-4.144,512.82,-925.82,267.26
1743435119.479371,-1.723,-3.349,-3.89,322.21,146.16,-104.51
1743435119.499371,-2.356,-2.213,-1.192,173.39,745.36,-573.23
1743435119.519371,-2.514,-0.991,0.047,188.44,839.16,-694.68
1743435119.536659,-2.615,0.452,1.052,242.9,753.9,-654.5
1743435119.556659,-2.579,1.399,1.792,40.74,707.07,-456.82
1743435119.576659,-2.431,1.636,2.177,-300.86,674.31,-130.76
1743435119.596659,-2.148,0.802,2.67,-386.05,342.51,216.51
1743435119.6420822,-1.479,-0.523,2.693,-311.36,-308.14,174.23
1743435119.6620822,-1.314,-0.789,1.769,-299.32,-759.08,90.09
1743435119.6820822,-1.098,-1.253,-0.478,-216.44,-1076.6,75.81
1743435119.7020822,-1.265,-2.28,-1.897,-10.85,-994.98,71.05
1743435119.701725,-1.221,-2.707,-2.636,284.55,-521.64,-37.66
1743435119.721725,-1.523,-2.947,-1.955,284.69,-17.22,-402.5
1743435119.741725,-1.546,-1.435,-0.807,142.03,342.44,-689.01
1743435119.761725,-2.089,-0.094,0.102,-70.56,660.1,-814.52
1743435119.776764,-2.325,1.056,0.87,-327.88,934.15,-612.15
1743435119.796764,-2.389,1.439,2.018,-542.92,945.42,-90.51
1743435119.816764,-2.362,0.116,2.894,-392.91,545.51,188.51
1743435119.836764,-1.245,-1.063,3.378,-224.91,-192.85,12.67
1743435119.865986,-1.086,-0.537,1.889,-202.02,-1013.74,-236.18
1743435119.885986,-1.244,0.124,-0.226,-242.48,-1228.64,-187.81
1743435119.905986,-0.364,-0.224,-1.908,17.36,-1179.57,54.46
1743435119.925986,-0.369,-1.476,-3.481,352.03,-922.74,277.9
1743435119.938935,-1.047,-2.753,-3.531,475.79,-110.53,165.9
1743435119.958935,-1.374,-2.809,-2.071,180.67,521.36,-199.01
1743435119.978935,-2.024,-1.327,-0.73,43.12,914.9,-391.3
1743435119.998935,-2.48,-0.127,0.383,42.56,1038.87,-287.49
1743435120.0149271,-2.712,0.382,1.482,-24.08,990.71,-98.42
1743435120.0349271,-2.697,0.03,2.867,-192.99,555.66,28.0
1743435120.054927,-1.478,-0.886,3.072,-205.17,-29.33,-135.8
1743435120.074927,-1.035,-0.629,2.358,-195.79,-614.46,-263.83
1743435120.091506,-0.831,-0.026,0.34,-182.56,-987.0,-250.11
1743435120.111506,-0.02,-0.124,-1.34,-165.9,-1090.88,-59.15
1743435120.131506,0.338,-0.778,-3.251,129.64,-921.83,104.86
1743435120.151506,-0.162,-1.388,-3.771,416.08,-301.77,211.61
1743435120.180016,-1.012,-2.224,-2.61,322.35,306.88,33.74
1743435120.200016,-1.691,-1.661,-1.057,188.44,741.93,-126.56
1743435120.220016,-2.333,-0.828,0.437,156.31,920.29,-142.1
1743435120.240016,-2.596,-0.197,1.285,131.32,868.49,-96.88
1743435120.253809,-1.996,-0.103,2.213,-35.63,574.35,13.09
1743435120.273809,-1.525,-0.381,2.711,-130.13,146.37,-31.92
1743435120.293809,-1.161,-0.435,2.354,-159.74,-369.88,-129.08
1743435120.313809,-1.336,-0.15,1.195,-213.43,-703.57,-187.18
1743435120.3442771,-1.349,0.04,0.001,-385.91,-772.59,-208.74
1743435120.3642771,-0.752,0.015,-1.11,-377.23,-749.0,-164.5
1743435120.384277,0.291,-0.352,-3.016,117.32,-666.26,126.35
1743435120.404277,0.03,-1.708,-3.676,506.1,-364.77,315.0
1743435120.4324205,-1.391,-2.604,-2.651,450.73,217.49,118.72
1743435120.4524202,-1.592,-2.21,-1.437,318.5,514.85,-275.8
1743435120.4724202,-1.686,-0.911,-0.024,204.05,742.91,-411.95
1743435120.4924202,-1.949,0.157,0.652,195.23,742.63,-361.55
1743435120.5382,-1.989,0.702,1.352,34.02,678.37,-85.12
1743435120.5582,-1.945,0.51,2.163,-196.35,468.72,135.31
1743435120.5782,-1.763,-0.162,2.493,-294.98,156.38,160.79
1743435120.5982,-1.421,-0.811,2.176,-325.57,-309.4,-7.91
1743435120.5854049,-1.047,-0.749,1.031,-333.62,-826.56,-204.12
1743435120.6054049,-0.454,-0.49,-0.687,-267.61,-997.22,-104.79
1743435120.6254048,-0.778,-0.563,-2.438,196.14,-907.41,130.69
1743435120.6454048,-0.792,-1.421,-3.616,483.07,-391.16,245.07
1743435120.65962,-1.186,-2.741,-2.97,440.16,123.13,27.72
1743435120.67962,-1.818,-2.118,-1.345,333.48,552.51,-338.31
1743435120.69962,-2.245,-0.715,-0.139,277.48,721.98,-561.68
1743435120.71962,-2.56,0.341,0.818,220.22,770.98,-497.56
1743435120.734466,-2.584,1.13,1.648,-42.28,743.68,-221.97
1743435120.754466,-2.35,0.886,2.643,-277.83,484.12,83.02
1743435120.774466,-1.586,-0.377,2.835,-314.44,-15.89,136.99
1743435120.794466,-1.322,-1.079,2.333,-259.42,-566.86,-44.17
1743435120.841299,-1.758,-0.763,0.706,-317.8,-964.6,-250.25
1743435120.861299,-2.364,-0.105,-0.459,-479.78,-948.85,-331.52
1743435120.881299,-1.763,0.063,-1.432,-445.41,-856.31,-263.2
1743435120.901299,-1.41,-0.044,-2.252,-205.45,-725.55,-162.96
1743435120.902185,-0.086,-0.479,-2.731,-233.87,-401.59,15.12
1743435120.922185,0.2,-0.762,-2.595,-82.11,-44.38,105.07
1743435120.942185,0.342,-0.747,-1.544,-65.73,276.92,164.85
1743435120.962185,-0.171,-0.627,-0.388,-27.65,353.08,220.64
1743435120.988189,-0.411,-1.006,0.811,-91.98,113.19,300.86
1743435121.008189,-0.769,-1.65,0.789,-25.48,-206.85,181.37
1743435121.028189,-1.115,-1.353,-0.001,80.64,-416.01,5.18
1743435121.048189,-0.792,-0.957,-1.004,102.9,-361.41,-9.03
1743435121.065109,-0.915,-0.891,-1.142,133.98,-251.72,18.83
1743435121.085109,-0.476,-1.081,-0.797,80.57,-61.11,-45.08
1743435121.105109,-0.724,-0.935,0.035,97.72,-0.84,-69.02
1743435121.125109,-0.775,-1.013,0.29,183.47,-164.22,-27.23
1743435121.153021,-0.996,-1.235,0.032,220.78,-262.43,-76.72
1743435121.173021,-0.841,-1.226,-0.154,207.34,-252.0,-165.83
1743435121.193021,-0.816,-1.075,-0.163,249.27,-269.43,-210.0
1743435121.213021,-0.497,-0.937,-0.064,199.22,-221.62,-270.76
1743435121.213566,-0.424,-0.788,0.047,69.37,-80.43,-383.32
1743435121.233566,-0.612,-0.596,0.561,-60.55,88.13,-474.39
1743435121.253566,-0.745,-0.661,0.938,-128.87,140.21,-574.7
1743435121.273566,0.142,-0.731,0.565,-133.98,86.8,-639.73
1743435121.3040552,-0.319,-0.201,0.317,-34.86,3.57,-596.82
1743435121.3240552,0.695,0.257,-0.269,206.43,-85.12,-439.39
1743435121.3440552,1.204,0.967,-0.33,0.21,156.66,-228.97
1743435121.3640552,0.369,0.246,0.688,16.17,373.03,-19.95
1743435121.3795102,0.623,-0.995,1.536,-31.71,235.13,-121.31
1743435121.39951,1.497,-0.838,0.631,101.01,-113.96,-217.42
1743435121.41951,1.704,0.269,-0.62,254.59,-131.88,-63.56
1743435121.43951,1.042,0.719,-0.572,185.22,196.91,124.95
1743435121.469307,0.131,-0.234,0.732,43.68,501.41,176.47
1743435121.489307,-0.595,-0.916,2.059,18.62,412.37,136.99
1743435121.509307,-1.013,-1.614,2.823,96.88,53.13,-3.57
1743435121.529307,-1.677,-1.92,2.952,-9.38,-321.02,-360.99
1743435121.5461771,-1.516,-0.929,1.46,-98.63,-453.88,-563.36
1743435121.5661771,-1.349,0.037,1.175,-167.09,-476.91,-598.01
1743435121.586177,-1.057,0.623,0.759,-251.09,-555.52,-704.27
1743435121.606177,-0.676,1.788,-0.372,-287.84,-584.71,-704.76
1743435121.6206012,2.095,3.981,-2.045,-154.77,-603.89,-435.82
1743435121.6406012,2.107,4.595,-4.496,812.14,-293.86,452.83
1743435121.6606011,0.261,2.423,-2.572,767.13,416.85,762.44
1743435121.6806011,-0.594,-0.471,-0.494,278.46,926.38,559.65
1743435121.737681,-1.523,-1.341,1.693,58.87,1009.05,374.85
1743435121.757681,-2.806,-3.19,4.206,10.22,596.82,-65.52
1743435121.7776809,-2.016,-2.549,4.292,-133.63,43.89,-723.87
1743435121.7976809,-1.348,0.488,2.054,-145.46,-366.45,-891.1
1743435121.79718,0.353,2.168,-0.836,108.57,-608.51,-467.95
1743435121.81718,1.693,3.2,-2.331,292.67,-436.1,-19.95
1743435121.83718,1.672,2.258,-2.973,463.4,-28.28,393.89
1743435121.85718,0.834,0.572,-1.469,140.0,540.96,415.31
1743435121.858714,-0.303,-0.16,0.206,-13.37,806.75,444.01
1743435121.878714,-2.766,-2.0,3.225,75.81,754.46,327.32
1743435121.898714,-2.9,-3.614,5.226,-104.65,4.2,-487.34
1743435121.918714,-2.292,-0.855,2.867,-136.22,-537.04,-836.15
1743435121.9335942,-1.535,0.989,0.807,8.26,-746.27,-693.56
1743435121.9535942,0.071,2.379,-0.928,16.38,-863.66,-615.51
1743435121.9735942,1.273,3.768,-4.068,577.78,-1080.03,-300.79
1743435121.9935942,0.47,3.564,-5.052,1150.17,-464.38,466.83
1743435122.041612,0.37,0.517,-2.25,236.6,885.08,539.98
1743435122.061612,-1.285,-1.495,1.632,-304.29,1311.17,472.92
1743435122.081612,-3.245,-2.98,4.13,-253.05,841.47,97.23
1743435122.101612,-2.86,-2.909,4.513,-196.56,95.34,-523.32
1743435122.1117802,0.092,-0.234,1.556,-86.52,-758.38,-912.73
1743435122.13178,0.986,2.945,-1.797,463.75,-1416.45,-630.14
1743435122.15178,-0.314,3.832,-4.602,1289.12,-1253.07,212.59
1743435122.17178,0.074,1.342,-3.881,1010.52,154.07,727.86
1743435122.174185,-1.363,-1.01,0.429,-352.45,1488.97,438.41
1743435122.194185,-2.912,-2.717,2.424,-381.99,1403.78,207.69
1743435122.214185,-2.335,-2.858,3.972,-179.06,642.32,-180.32
1743435122.234185,0.646,-1.739,2.624,51.73,-672.49,-561.54
1743435122.2636745,1.058,0.96,-0.668,659.19,-1304.94,-260.61
1743435122.2836742,-0.238,1.636,-1.989,584.92,-986.65,151.55
1743435122.3036742,0.248,0.286,-1.464,197.33,50.61,577.92
1743435122.3236742,0.316,-1.081,-0.005,-243.04,523.67,352.03
1743435122.339421,0.405,-1.796,0.783,-365.33,519.19,-13.79
1743435122.359421,0.474,-1.422,0.87,-118.58,-17.78,-114.94
1743435122.379421,0.576,-0.783,-0.394,336.7,-616.63,3.15
1743435122.399421,0.407,-0.728,-1.405,343.42,-438.97,124.46
1743435122.414468,0.72,-1.184,-1.549,-11.06,66.36,19.6
1743435122.434468,0.891,-1.297,-0.73,-233.8,397.39,-160.58
1743435122.454468,-0.121,-0.473,0.476,-321.23,497.63,-269.92
1743435122.474468,0.682,-0.02,1.034,-438.83,500.99,-195.02
1743435122.504946,0.828,-1.112,0.44,-133.0,339.92,-207.2
1743435122.524946,0.936,-1.628,0.582,16.17,80.64,-481.32
1743435122.544946,0.706,-0.352,0.622,-135.1,-108.92,-588.42
1743435122.564946,0.874,1.22,-0.02,-160.58,-201.74,-416.22
1743435122.5800252,1.205,1.053,-0.485,193.27,-269.22,66.99
1743435122.6000252,1.057,0.13,-0.447,234.5,-207.9,214.97
1743435122.6200252,0.826,-0.504,-0.254,42.0,-72.59,137.9
1743435122.6400251,0.569,-0.553,0.305,-105.42,-17.01,46.48
1743435122.6703513,0.524,-0.691,0.621,17.5,-130.13,50.89
1743435122.6903512,0.512,-1.127,1.123,68.18,-323.19,-4.83
1743435122.7103512,-0.205,-0.883,0.211,194.95,-608.02,-126.42
1743435122.7303512,0.072,-0.523,-0.762,278.32,-819.0,-143.43
1743435122.748123,-0.586,-0.388,-1.362,393.75,-854.0,-44.03
1743435122.768123,-0.93,-0.721,-1.498,564.34,-968.24,25.55
1743435122.788123,-1.801,-0.967,-1.565,677.32,-1045.94,139.3
1743435122.8081229,-2.168,-1.94,-1.315,650.58,-948.08,191.94
1743435122.820947,-2.45,-1.627,-0.571,338.87,-748.09,-44.24
1743435122.840947,-2.195,-0.866,-1.134,358.12,-688.24,39.83
1743435122.860947,-1.671,-1.67,-0.569,224.91,-695.38,-43.96
1743435122.8809469,-1.271,-0.636,-1.854,154.35,-750.61,-262.71
1743435122.9376268,0.278,-0.173,-3.659,19.88,-248.71,-182.91
1743435122.9576268,0.437,-0.186,-2.605,-142.1,248.64,-109.2
1743435122.9776268,0.041,-0.35,-1.236,-95.2,532.42,10.99
1743435122.9976268,-0.704,-0.441,-0.282,25.34,650.93,124.25
1743435122.9849322,-1.394,-1.264,0.835,104.93,659.33,72.45
1743435123.0049322,-1.228,-1.344,1.116,90.65,486.71,-105.84
1743435123.024932,-0.054,-0.718,1.056,-36.33,391.79,-122.08
1743435123.044932,0.95,-0.415,1.391,-102.34,310.17,125.44
1743435123.059322,-0.254,-0.584,2.095,-9.73,-181.79,287.63
1743435123.079322,-0.625,-0.402,0.774,-42.14,-455.28,323.47
1743435123.099322,-1.253,-0.366,-0.109,-24.15,-376.32,370.72
1743435123.119322,-2.74,-1.192,0.382,-58.87,-285.46,315.98
1743435123.135918,-3.145,-1.777,0.579,-182.42,-365.54,-1.61
1743435123.155918,-2.654,-1.132,-0.19,-224.07,-402.36,-336.77
1743435123.175918,-2.271,-0.642,-0.663,-171.43,-284.9,-404.39
1743435123.195918,-1.506,-0.949,-0.061,-199.5,-105.14,-409.78
1743435123.240712,-1.51,-1.053,1.014,-204.33,-185.71,-536.97
1743435123.260712,-1.576,-0.204,0.775,-189.49,-426.72,-644.35
1743435123.280712,-1.461,0.45,-0.281,-80.43,-607.46,-550.69
1743435123.300712,-1.024,0.448,-1.162,34.79,-544.11,-382.2
1743435123.311899,0.04,0.852,-1.188,47.81,-484.89,-232.12
1743435123.331899,0.959,1.096,-1.32,227.57,-482.65,48.65
1743435123.351899,1.326,1.136,-1.477,391.23,-341.04,475.3
1743435123.371899,0.163,-0.011,-2.184,906.64,-174.23,870.24
1743435123.388504,-2.085,-1.654,0.347,-245.84,793.52,150.22
1743435123.408504,-0.9,-0.537,-0.239,60.41,552.16,-100.59
1743435123.428504,-0.979,0.583,-1.055,253.89,698.11,32.69
1743435123.448504,-1.616,0.691,-0.53,266.91,957.11,264.11
1743435123.467319,-2.508,0.145,0.773,118.86,987.49,324.66
1743435123.487319,-2.762,-0.283,1.602,-43.82,924.98,371.07
1743435123.507319,-4.215,-1.956,2.716,-13.02,552.16,316.82
1743435123.527319,-4.032,-3.556,3.3,-111.37,-442.19,-414.4
1743435123.551573,-4.429,-1.57,1.591,-338.03,-950.74,-1067.22
1743435123.571573,-4.837,0.982,-0.026,-257.46,-992.74,-1070.09
1743435123.591573,-3.107,1.595,-0.459,110.95,-919.38,-689.78
1743435123.611573,-2.33,1.557,-0.52,268.73,-918.89,-221.76
1743435123.6275785,-1.849,1.099,-0.706,347.06,-925.61,105.91
1743435123.6475782,-1.769,0.466,-0.903,391.37,-898.03,443.8
1743435123.6675782,-2.037,0.389,-1.247,498.75,-839.02,794.5
1743435123.6875782,-1.823,-4.524,-1.152,157.99,-91.35,-15.61
1743435123.705489,-0.92,-1.569,-2.133,-20.23,322.91,-60.13
1743435123.725489,-0.277,-1.441,-1.063,299.53,597.94,-386.82
1743435123.745489,-2.192,-1.139,-1.021,145.18,860.44,-567.56
1743435123.7654889,-2.658,-0.33,-0.502,103.81,1066.87,-598.15
1743435123.7818823,-2.675,0.793,-0.756,59.85,1246.84,-299.74
1743435123.8018825,-2.988,1.339,-0.041,-442.26,1636.18,0.56
1743435123.8218822,-6.29,0.183,0.849,670.04,1302.7,611.24
1743435123.8418822,-4.417,-2.227,2.261,557.76,856.87,212.94
1743435123.857165,-2.207,-2.448,2.993,448.98,2.87,-436.1
1743435123.877165,-3.047,-1.146,2.417,149.1,-609.49,-707.0
1743435123.897165,-3.653,-0.109,1.494,36.68,-1292.83,-826.0
1743435123.917165,-4.844,1.118,0.408,-150.85,-1649.62,-740.39
1743435123.946162,-5.596,1.983,-0.403,-200.76,-1706.11,-457.31
1743435123.966162,-5.019,2.113,-0.969,71.89,-1688.4,122.64
1743435123.986162,-4.692,1.83,-0.981,356.44,-1485.33,736.12
1743435124.006162,-6.22,-2.367,0.448,929.95,-731.99,1373.61
1743435124.020251,-5.61,-1.91,-0.841,-92.19,-754.04,767.06
1743435124.040251,-3.293,-1.423,-0.67,-93.1,-601.51,389.34
1743435124.060251,-2.276,-1.206,-0.882,-118.09,-405.72,120.33
1743435124.080251,-1.467,-1.127,-0.879,-161.21,-193.48,-83.93
1743435124.138404,-1.086,-1.332,-0.665,-167.3,75.25,-241.57
1743435124.158404,-1.322,-1.561,-0.401,64.82,117.39,-303.52
1743435124.178404,-2.052,-1.926,-0.129,329.14,65.94,-526.89
1743435124.198404,-2.185,-1.959,0.055,340.55,17.22,-873.6
1743435124.187688,-2.216,-0.947,-0.128,289.31,21.14,-1073.73
1743435124.207688,-1.401,0.29,-0.521,183.54,214.27,-1160.04
1743435124.227688,-1.476,1.294,-0.614,-155.89,672.7,-992.04
1743435124.247688,-2.529,1.745,-0.563,-247.87,1181.67,-633.71
1743435124.2610462,-4.225,1.615,-0.151,-5.39,1452.85,-248.71
1743435124.2810462,-5.022,1.398,0.258,99.89,1472.1,9.03
1743435124.301046,-5.353,1.194,0.677,-8.75,1481.97,194.39
1743435124.321046,-5.632,-0.158,1.224,328.79,1124.27,391.93
1743435124.3375351,-2.348,-1.576,2.073,687.05,517.72,64.82
1743435124.3575351,-0.932,-1.632,2.485,504.98,-189.77,-458.92
1743435124.377535,-1.483,-0.4,1.72,-50.75,-669.62,-606.34
1743435124.397535,-1.923,0.489,1.265,-185.64,-1019.48,-503.44
1743435124.439887,-2.248,0.987,0.8,-314.65,-1145.76,-385.63
1743435124.459887,-2.299,1.178,0.17,-348.67,-1212.19,-182.14
1743435124.479887,-2.273,1.251,-0.333,-191.73,-1241.66,143.78
1743435124.499887,-2.53,1.13,-0.374,-225.75,-1159.76,478.59
1743435124.5149372,-3.275,0.566,-0.521,-220.08,-1199.24,677.18
1743435124.5349371,-3.505,-2.501,-1.615,424.27,-780.5,973.0
1743435124.5549371,-2.037,-4.408,-1.891,56.7,-200.76,278.95
1743435124.574937,-1.45,-3.636,-1.421,-66.99,196.63,-500.01
1743435124.58726,-1.307,-1.008,-0.491,-69.23,570.64,-616.49
1743435124.60726,-0.883,0.073,0.104,124.74,579.67,-364.42
1743435124.62726,-0.449,0.266,0.239,507.71,436.52,-119.28
1743435124.64726,-0.559,0.212,0.132,566.23,380.24,-20.79
1743435124.6652722,-0.678,0.233,-0.047,691.32,350.35,41.51
1743435124.6852722,-1.257,0.345,-0.184,703.36,403.34,2.45
1743435124.7052722,-1.488,0.458,-0.133,622.23,538.65,-65.66
1743435124.7252722,-2.376,0.554,0.155,404.74,643.86,-132.72
1743435124.740282,-2.716,0.442,0.69,158.48,696.99,-203.49
1743435124.760282,-2.528,-0.08,1.051,199.22,363.02,-302.26
1743435124.780282,-1.755,0.02,1.339,110.67,44.24,-409.08
1743435124.800282,-2.077,0.309,1.367,21.14,-342.44,-390.53
1743435124.814612,-1.502,0.261,1.448,-120.75,-619.85,-343.49
1743435124.834612,-1.38,0.544,1.3,-342.16,-846.93,-280.0
1743435124.854612,-2.076,0.878,0.91,-480.76,-938.98,-162.33
1743435124.874612,-2.38,0.972,0.613,-591.5,-978.74,-32.69
1743435124.918418,-2.242,0.887,0.119,-529.62,-1052.94,46.2
1743435124.938418,-2.354,0.957,-0.613,-276.99,-1079.12,261.8
1743435124.958418,-3.689,-1.417,-2.935,948.29,-1090.11,540.61
1743435124.978418,-1.498,-1.373,-1.021,-412.09,-406.98,485.03
1743435124.980232,-1.131,-0.733,-1.16,-343.56,-419.72,285.81
1743435125.000232,-1.199,-0.833,-0.901,95.69,-323.75,409.92
1743435125.020232,-1.335,-1.584,-0.684,169.12,-183.89,355.53
1743435125.040232,-1.414,-1.92,-0.4,144.2,-61.74,100.8
1743435125.068447,-1.477,-2.056,-0.279,234.64,-43.47,-162.12
1743435125.088447,-1.644,-1.79,-0.278,346.85,-59.64,-456.12
1743435125.108447,-1.598,-1.335,-0.433,562.66,-138.67,-665.07
1743435125.128447,-1.32,-0.502,-0.581,477.05,-61.53,-724.99
1743435125.1587632,-0.978,0.064,-0.717,377.72,126.77,-710.08
1743435125.1787632,-0.994,0.524,-0.672,322.7,328.3,-686.84
1743435125.1987631,-1.432,0.906,-0.485,311.64,659.4,-684.25
1743435125.218763,-2.311,1.3,-0.227,242.27,891.38,-607.81
1743435125.2224169,-3.186,1.607,0.095,158.2,1061.69,-460.53
1743435125.2424169,-4.163,1.879,0.515,-228.34,1277.36,-231.7
1743435125.2624168,-5.534,1.016,0.951,-71.54,1180.06,68.04
1743435125.2824168,-2.27,-0.291,1.868,395.15,456.33,-39.41
1743435125.297847,-1.341,-0.546,2.141,304.29,-127.12,-230.93
1743435125.317847,-0.986,-0.422,2.158,-18.2,-629.02,-363.3
1743435125.337847,-1.725,0.351,1.528,-294.42,-837.2,-355.11
1743435125.357847,-2.15,0.898,0.631,-442.4,-921.48,-286.51
1743435125.38533,-1.923,0.978,-0.001,-451.22,-851.83,-133.63
1743435125.40533,-1.39,0.837,-0.358,-284.62,-803.04,103.25
1743435125.42533,-1.304,0.724,-0.418,-259.07,-712.04,277.55
1743435125.44533,-1.243,0.348,-0.443,-280.91,-573.09,464.17
1743435125.460088,-1.836,-0.405,-0.527,-231.0,-422.66,518.63
1743435125.480088,-1.454,-0.433,-0.51,-328.86,-385.0,509.18
1743435125.500088,-2.235,-1.418,-1.671,417.97,-515.34,504.35
1743435125.520088,-1.851,-2.423,-1.364,94.57,-62.23,2.17
1743435125.5353632,-1.248,-1.762,-1.26,31.5,157.92,-242.13
1743435125.5553632,-0.967,-0.676,-0.981,288.12,303.73,-262.71
1743435125.5753632,-1.107,-0.131,-0.65,379.12,360.57,-212.66
1743435125.5953631,-1.037,-0.085,-0.604,696.22,345.94,-204.89
1743435125.624566,-1.322,0.464,-0.593,859.25,378.7,-255.99
1743435125.644566,-1.671,0.87,-0.713,825.72,491.4,-331.52
1743435125.664566,-2.36,1.326,-0.649,577.36,686.42,-320.53
1743435125.684566,-2.668,1.439,-0.367,373.94,878.36,-223.86
1743435125.701235,-2.815,1.088,0.132,227.57,902.86,-66.29
1743435125.721235,-2.175,0.535,0.555,280.63,657.86,18.41
1743435125.741235,-1.323,0.267,0.834,199.08,380.31,21.98
1743435125.761235,-1.084,0.209,0.797,70.49,161.21,61.53
1743435125.77458,-1.001,0.073,0.675,-28.77,-5.88,108.15
1743435125.79458,-1.024,-0.036,0.428,-143.99,-209.65,133.77
1743435125.81458,-1.017,0.011,-0.025,-182.56,-344.68,133.14
1743435125.83458,-1.422,0.264,-0.422,-202.65,-381.5,130.9
1743435125.8655093,-2.083,0.398,-0.475,-310.94,-293.02,93.1
1743435125.8855093,-2.813,0.109,-0.144,-391.65,-340.06,-76.86
1743435125.9055092,-2.895,-0.164,0.163,-491.61,-445.41,-344.4
1743435125.9255092,-2.991,0.182,0.119,-540.47,-616.28,-727.02
1743435125.939323,-3.226,0.903,-0.157,-432.81,-781.13,-900.97
1743435125.959323,-2.969,1.438,-0.617,-200.06,-999.95,-836.01
1743435125.979323,-1.959,1.669,-1.164,-30.38,-1042.58,-572.74
1743435125.999323,-0.817,1.482,-1.358,31.92,-897.33,-185.36
1743435126.0168262,0.071,0.98,-1.314,-9.38,-758.03,117.53
1743435126.036826,0.454,0.311,-1.097,-26.67,-627.27,399.84
1743435126.056826,-0.035,-1.691,-0.668,69.79,-442.89,675.29
1743435126.076826,-0.701,-2.704,-0.348,-237.02,-299.32,340.69
1743435126.105665,-0.774,-1.355,-0.61,-62.93,-327.81,144.34
1743435126.125665,-0.566,-1.203,-0.949,-71.33,-175.35,71.12
1743435126.145665,-0.281,-1.362,-0.827,-46.97,-0.28,0.21
1743435126.165665,0.161,-1.406,-0.504,-70.98,144.97,-14.14
1743435126.194317,0.244,-1.264,-0.238,10.99,161.28,110.53
1743435126.214317,0.091,-1.019,-0.177,97.79,119.07,213.22
1743435126.234317,-0.124,-0.783,-0.244,183.89,88.06,305.06
1743435126.254317,-0.57,-0.806,-0.411,380.87,48.93,384.23
1743435126.257212,-1.027,-1.043,-0.394,499.24,34.86,331.31
1743435126.277212,-1.335,-1.22,-0.344,553.0,36.61,95.9
1743435126.297212,-1.331,-1.196,-0.53,622.65,-4.97,-130.41
1743435126.317212,-1.585,-0.484,-0.703,581.21,-21.7,-328.44
1743435126.344753,-1.245,-0.104,-1.002,646.8,-2.8,-424.55
1743435126.364753,-1.108,0.185,-1.239,557.27,179.76,-454.37
1743435126.384753,-0.966,0.452,-1.196,476.07,364.42,-478.87
1743435126.404753,-1.603,0.928,-1.044,314.58,608.86,-466.2
1743435126.421164,-1.749,1.15,-0.905,253.75,774.27,-376.39
1743435126.441164,-1.937,1.449,-0.645,42.42,1008.14,-148.33
1743435126.461164,-2.372,1.531,-0.386,-71.54,1097.46,68.74
1743435126.481164,-2.823,1.318,-0.099,-65.8,1018.85,263.06
1743435126.497339,-2.469,0.773,0.204,50.05,758.17,406.77
1743435126.517339,-2.187,2.132,1.966,-464.38,834.96,365.19
1743435126.537339,-1.887,0.477,1.328,-596.19,338.73,337.26
1743435126.557339,-1.538,0.232,1.281,-495.18,-182.0,28.56
1743435126.598016,-1.991,0.822,0.523,-379.82,-614.39,-136.71
1743435126.618016,-2.491,1.482,-0.405,-160.37,-865.76,-168.84
1743435126.638016,-2.478,1.887,-1.034,-108.5,-728.07,-48.65
1743435126.658016,-1.649,1.735,-1.343,24.36,-542.29,121.73
1743435126.660119,-1.278,1.234,-1.261,8.26,-271.88,231.35
1743435126.680119,-1.362,0.638,-0.856,-25.34,-30.31,185.22
1743435126.700119,-1.584,0.339,0.121,-190.19,249.76,-120.96
1743435126.720119,-2.703,-0.519,0.431,-74.41,415.45,-387.17
1743435126.736116,-2.731,-0.592,0.454,69.58,246.47,-848.54
1743435126.756116,-3.248,0.807,0.254,98.14,74.06,-1146.32
1743435126.776116,-3.393,1.655,-0.129,-39.76,37.38,-1094.31
1743435126.796116,-2.964,1.805,-0.238,55.37,-25.83,-902.51
1743435126.8396852,-2.005,1.584,-0.249,262.01,-159.67,-696.57
1743435126.8596852,-1.301,1.135,-0.178,284.13,-267.54,-550.76
1743435126.8796852,-0.629,0.948,-0.09,149.03,-287.84,-429.45
1743435126.8996851,-0.332,0.75,0.017,83.58,-264.88,-247.59
1743435126.901309,0.0,0.453,0.251,85.75,-282.1,-181.58
1743435126.921309,0.305,0.18,0.384,43.4,-335.65,-121.03
1743435126.941309,0.646,-0.036,0.426,-72.94,-367.29,-65.73
1743435126.961309,0.871,-0.162,0.272,-97.37,-391.02,-6.3
1743435126.975213,0.938,-0.296,0.076,-76.58,-400.96,75.81
1743435126.995213,0.919,-0.398,-0.062,-113.26,-398.23,236.46
1743435127.015213,0.649,-1.554,-0.909,-31.01,-691.46,572.46
1743435127.035213,0.225,-3.545,-1.812,63.07,-123.41,276.57
1743435127.0673082,0.381,-2.347,-1.05,-257.25,217.0,-63.77
1743435127.0873082,0.956,-0.863,-0.39,-301.14,356.65,45.57
1743435127.107308,1.144,-0.361,-0.21,-45.85,210.84,355.53
1743435127.127308,0.762,-0.169,-0.102,26.53,158.9,534.66
1743435127.156235,0.179,-0.116,-0.106,68.95,112.98,638.61
1743435127.176235,-0.467,-0.141,-0.178,184.17,62.23,592.9
1743435127.196235,-1.164,-0.026,0.06,197.82,125.79,550.83
1743435127.216235,-0.846,-0.78,0.347,217.49,39.41,371.7
1743435127.215019,-0.934,-0.749,0.355,140.49,-74.34,112.7
1743435127.235019,-0.936,-0.19,-0.054,40.53,-186.9,-14.14
1743435127.255019,-1.145,0.417,-0.516,95.62,-223.09,4.13
1743435127.275019,-1.477,0.705,-0.755,148.19,-145.32,133.21
1743435127.30645,-1.395,0.509,-0.661,222.11,-27.37,260.75
1743435127.32645,-1.086,0.093,-0.374,251.58,69.72,252.35
1743435127.34645,-0.712,-0.021,-0.263,215.39,136.92,150.64
1743435127.3664498,-0.847,0.138,-0.231,205.38,219.03,85.19
1743435127.3817,-0.946,0.346,-0.122,181.23,332.64,78.12
1743435127.4017,-0.975,0.524,0.335,97.09,407.47,93.24
1743435127.4217,-1.011,0.734,1.131,-55.44,340.34,136.29
1743435127.4417,-1.111,0.941,1.545,-36.96,76.86,176.89
1743435127.455907,-1.38,1.059,1.165,61.95,-152.67,238.21
1743435127.475907,-1.745,0.696,0.378,182.98,-267.05,328.23
1743435127.495907,-1.546,0.258,-0.067,211.82,-262.36,298.27
1743435127.515907,-1.194,0.119,-0.367,185.43,-155.26,194.67
1743435127.5463202,-1.101,0.248,-0.342,95.69,60.69,43.54
1743435127.5663202,-1.23,0.429,0.052,34.72,140.42,-37.73
1743435127.5863202,-1.408,0.554,0.291,68.53,98.63,-114.52
1743435127.60632,-1.622,0.597,0.053,79.73,93.1,-181.09
1743435127.619805,-1.909,0.566,-0.017,34.86,115.64,-272.16
1743435127.639805,-2.138,0.649,-0.149,19.46,108.29,-333.06
1743435127.659805,-2.029,0.688,-0.144,8.89,91.63,-367.92
1743435127.679805,-1.858,0.717,-0.152,-8.75,66.29,-362.04
1743435127.6958652,-1.822,0.465,-0.124,-50.26,23.73,-388.29
1743435127.7158651,-1.574,0.461,-0.247,-82.95,-2.24,-416.08
1743435127.735865,-1.667,0.61,-0.305,-90.16,25.41,-372.12
1743435127.755865,-1.927,0.429,-0.101,-23.87,11.41,-332.85
1743435127.784557,-1.694,0.213,0.033,-8.05,-44.31,-376.88
1743435127.804557,-1.494,0.121,-0.007,3.99,-131.81,-441.91
1743435127.824557,-1.287,0.09,-0.06,-8.4,-205.87,-518.49
1743435127.844557,-1.034,0.306,-0.086,-51.52,-282.1,-572.53
1743435127.861582,-0.834,0.603,-0.162,-90.02,-320.04,-562.38
1743435127.881582,-0.453,0.959,-0.421,-112.35,-343.98,-426.44
1743435127.901582,-0.009,0.88,-0.569,-73.71,-318.22,-278.46
1743435127.921582,0.263,0.549,-0.647,-28.14,-300.3,-140.0
1743435127.936463,0.418,0.16,-0.78,24.78,-283.5,-48.02
1743435127.956463,0.423,-0.447,-0.884,60.83,-241.99,7.98
1743435127.976463,0.491,-1.239,-1.137,88.41,-150.78,-50.89
1743435127.996463,0.596,-1.503,-1.21,47.46,-47.6,-118.37
1743435128.025121,0.595,-1.574,-1.007,-50.89,136.36,-204.47
1743435128.045121,0.705,-1.328,-0.642,-96.25,264.74,-194.04
1743435128.065121,0.657,-1.062,-0.322,-44.38,287.49,-125.93
1743435128.085121,0.77,-0.925,0.088,-30.94,244.65,-38.36
1743435128.099725,0.833,-0.95,0.566,-281.47,176.75,75.6
1743435128.119725,0.972,-0.7,0.524,-99.4,32.69,75.6
1743435128.139725,0.805,-1.05,0.21,-28.07,-45.71,117.11
1743435128.159725,0.735,-0.991,0.209,-36.75,-127.19,179.06
1743435128.174834,0.549,-0.773,0.122,-73.08,-186.48,253.89
1743435128.194834,0.199,-0.671,0.075,-49.49,-245.49,349.79
1743435128.214834,-0.177,-0.569,0.001,64.61,-290.15,431.62
1743435128.234834,-0.357,-0.631,-0.11,157.57,-292.81,467.39
1743435128.2650292,-0.432,-0.547,-0.251,211.26,-257.95,471.03
1743435128.2850292,-0.685,-0.389,-0.332,210.77,-171.85,441.63
1743435128.3050292,-1.125,-0.35,-0.282,208.81,-114.59,341.81
1743435128.3250291,-0.855,-0.376,-0.325,172.83,-52.5,243.67
1743435128.340094,-0.708,-0.363,-0.306,162.33,21.21,212.87
1743435128.360094,-1.036,0.136,-0.538,153.16,44.87,40.74
1743435128.380094,-0.524,0.349,-0.529,155.26,169.19,111.02
1743435128.400094,-0.687,0.376,-0.431,243.53,267.26,192.22
1743435128.4143682,-1.127,0.464,-0.324,298.06,338.03,235.2
1743435128.434368,-1.292,0.519,-0.224,276.71,392.14,221.69
1743435128.454368,-2.021,0.895,0.493,-88.34,303.59,251.23
1743435128.474368,-1.292,0.111,1.224,57.19,121.38,66.01
1743435128.517245,-1.835,0.801,0.06,-18.9,156.45,32.62
1743435128.537245,-1.37,0.974,0.788,122.22,48.37,102.62
1743435128.557245,-1.247,0.331,-0.026,120.96,-42.98,151.69
1743435128.577245,-1.229,0.411,-0.014,5.39,-36.26,156.03
1743435128.579638,-1.128,0.323,-0.594,-44.59,-51.66,152.32
1743435128.599638,-0.995,0.462,-0.783,-0.28,0.21,169.05
1743435128.619638,-0.938,0.245,-0.839,5.6,58.38,157.99
1743435128.639638,-0.881,0.03,-0.895,246.89,121.73,100.87
1743435128.65564,-0.843,0.924,-0.153,209.86,231.77,87.36
1743435128.67564,-1.145,1.0,-0.222,95.76,193.97,95.69
1743435128.69564,-0.96,0.956,-0.277,82.6,158.83,242.69
1743435128.71564,-0.894,0.685,0.002,106.26,142.8,301.7
1743435128.757869,-1.076,0.315,0.287,50.96,104.23,300.37
1743435128.777869,-2.013,-0.912,-0.656,167.16,66.08,144.76
1743435128.797869,-0.395,0.755,-0.768,168.98,55.44,159.81
1743435128.817869,-0.334,0.563,-0.79,134.19,77.77,111.09
1743435128.832745,-0.529,0.688,-0.845,118.37,61.95,21.49
1743435128.852745,-0.601,0.468,-0.851,142.66,22.05,-6.65
1743435128.872745,-0.594,0.562,-0.842,139.09,-5.04,-62.65
1743435128.892745,-0.672,0.222,-0.508,8.05,-2.31,-105.7
1743435128.894624,-0.495,0.175,-0.427,-75.39,-15.47,-129.43
1743435128.914624,-0.504,0.299,-0.555,-82.11,-31.22,-109.48
1743435128.934624,-0.529,0.451,-0.702,-81.41,-21.42,-89.53
1743435128.954624,-0.437,0.473,-0.718,-78.33,-7.63,-65.17
1743435128.984892,-0.409,0.368,-0.761,-30.94,-23.8,-6.23
1743435129.004892,-0.388,0.114,-0.762,3.08,-54.25,22.75
1743435129.024892,-0.386,0.014,-0.721,-5.18,-44.87,37.31
1743435129.0448918,-0.557,-0.058,-0.678,-1.33,-29.82,-23.24
1743435129.060086,-0.766,0.085,-1.101,141.26,-6.02,-93.8
1743435129.080086,-0.462,1.157,-1.49,166.39,102.41,25.2
1743435129.100086,-0.854,0.059,-0.442,85.54,104.93,-18.27
1743435129.120086,-0.546,0.359,-0.813,50.54,109.2,-45.5
1743435129.1348832,-0.714,0.365,-0.801,-32.13,136.36,-80.78
1743435129.1548831,-0.484,0.187,-0.855,-30.1,143.22,-97.23
1743435129.1748831,-0.513,0.162,-0.91,21.14,124.74,-95.06
1743435129.194883,-0.568,0.205,-0.967,10.01,110.46,-101.15
1743435129.225223,-0.527,0.305,-1.047,-35.07,81.34,-99.89
1743435129.245223,-0.514,0.278,-1.074,-68.46,53.34,-46.13
1743435129.265223,-0.429,0.151,-0.846,-155.33,26.81,-27.51
1743435129.285223,-0.238,-0.456,-1.123,118.86,-134.54,12.67
1743435129.300043,-0.406,0.134,-1.406,116.76,-61.39,-31.99
1743435129.320043,-0.33,0.281,-1.502,82.88,82.39,5.25
1743435129.340043,-0.31,0.138,-1.052,20.79,128.24,8.61
1743435129.360043,-0.331,-0.028,-1.003,133.07,65.73,2.03
1743435129.374607,-0.431,-0.187,-1.268,165.69,73.78,-18.06
1743435129.394607,-0.406,-0.346,-1.262,145.95,153.09,-89.32
1743435129.414607,-0.405,-0.239,-1.194,146.51,178.01,-141.47
1743435129.434607,-0.287,-0.073,-1.335,183.82,212.38,-143.22
1743435129.46511,-0.278,0.003,-1.211,165.83,272.79,-151.48
1743435129.48511,-0.12,0.052,-0.963,146.3,335.93,-172.06
1743435129.50511,0.218,-0.249,-0.949,232.05,272.79,-135.24
1743435129.52511,0.135,-0.217,-0.699,147.98,205.87,-61.18
1743435129.539963,0.326,-0.519,-0.622,4.83,155.26,-103.39
1743435129.559963,0.22,-0.347,-0.628,-97.16,190.47,-210.35
1743435129.579963,0.388,0.249,-0.454,-111.65,206.22,-204.05
1743435129.599963,0.62,0.533,-0.388,-82.81,156.8,-52.64
1743435129.629964,0.632,0.216,-0.442,6.37,81.69,121.94
1743435129.649964,0.445,-0.211,-0.594,8.19,77.77,146.37
1743435129.669964,0.486,-0.362,-0.607,-44.73,97.09,90.65
1743435129.689964,0.435,-0.42,-0.458,-73.36,69.02,65.24
1743435129.707006,0.429,-0.606,-0.387,-37.8,11.27,41.44
1743435129.727006,0.382,-0.793,-0.529,-91.42,-23.52,-38.29
1743435129.747006,0.427,-0.49,-0.678,-102.55,-69.93,-79.24
1743435129.767006,0.491,-0.684,-1.06,-42.7,-99.26,-109.48
1743435129.780443,0.407,-0.815,-1.505,-46.27,-40.88,-228.62
1743435129.800443,0.435,-0.246,-1.563,-23.17,48.65,-281.33
1743435129.820443,0.448,0.227,-1.424,20.65,91.98,-271.74
1743435129.840443,0.514,0.593,-1.176,73.85,95.62,-194.74
1743435129.869187,0.957,1.11,-1.21,101.92,86.52,-98.07
1743435129.889187,1.173,1.095,-0.795,146.58,74.69,26.18
1743435129.909187,1.037,1.022,-0.875,157.78,103.32,174.37
1743435129.929187,0.693,0.747,-0.691,128.31,152.74,257.46
1743435129.945958,0.396,0.406,-0.448,119.49,194.53,345.8
1743435129.965958,0.163,-0.138,-0.193,189.0,214.06,398.44
1743435129.985958,-0.162,-0.738,0.39,152.32,235.48,371.42
1743435130.0059578,-0.229,-0.874,0.794,-22.4,236.74,310.66
1743435130.023821,-0.483,-1.523,1.682,35.0,-46.55,152.46
1743435130.043821,-0.253,-1.857,0.695,-17.78,-290.36,78.82
1743435130.063821,-0.859,-1.931,0.063,-167.23,-270.62,-113.89
1743435130.083821,-0.568,-1.358,-0.25,-199.29,-211.12,-272.09
1743435130.09687,-0.441,-0.618,-0.334,-176.96,-163.03,-358.61
1743435130.11687,-0.057,-0.329,-0.395,-108.64,-124.39,-369.81
1743435130.13687,0.113,-0.141,-0.306,-73.22,-102.69,-366.17
1743435130.15687,0.2,0.373,-0.453,-191.1,-102.27,-426.16
1743435130.200288,0.202,1.416,-0.57,-269.78,-239.26,-473.55
1743435130.220288,1.659,3.511,-3.379,-220.22,-473.83,-346.85
1743435130.240288,0.799,3.657,-3.979,19.74,-284.9,75.18
1743435130.260288,0.565,2.325,-2.694,84.0,40.46,408.73
1743435130.260061,0.138,0.909,-1.717,84.0,263.55,615.02
1743435130.280061,0.118,0.04,-0.935,147.91,301.98,613.06
1743435130.300061,-0.0,-0.42,-0.277,78.26,231.91,584.36
1743435130.320061,-0.201,-0.665,-0.178,114.24,109.69,535.85
1743435130.33703,-0.224,-0.85,-0.303,237.37,2.73,485.8
1743435130.35703,-0.656,-0.925,-0.205,166.04,15.82,428.54
1743435130.37703,-1.081,-0.37,0.303,-291.41,152.67,435.26
1743435130.39703,-2.783,-1.268,0.606,144.69,-8.68,361.76
1743435130.4539022,-2.503,-2.147,0.669,174.86,-122.64,90.65
1743435130.4739022,-1.154,-2.397,0.534,-15.96,-386.26,-508.27
1743435130.4939022,-0.329,-0.538,-1.023,27.86,-656.04,-869.33
1743435130.5139022,1.733,1.971,-2.346,-308.07,-502.46,-967.61
1743435130.500559,1.987,4.674,-3.52,-694.26,-103.18,-363.09
1743435130.520559,0.005,3.315,-2.351,-203.84,45.85,358.4
1743435130.540559,-0.614,0.892,-1.254,235.2,92.89,989.24
1743435130.560559,-1.447,-0.796,-0.78,398.44,83.58,1083.18
1743435130.5754282,-5.752,-1.257,-0.166,634.9,189.28,1299.97
1743435130.5954282,-7.137,-1.744,1.423,524.65,-50.12,1042.23
1743435130.6154282,-2.755,-4.581,1.092,211.26,-592.76,53.06
1743435130.6354282,-2.101,-2.107,-0.29,-442.12,-803.18,-1099.35
1743435130.691869,-2.0,-0.125,-0.769,-344.19,-756.98,-1328.81
1743435130.711869,-2.168,0.949,-1.217,-89.88,-824.6,-1233.96
1743435130.731869,-1.733,2.101,-1.81,-195.51,-768.11,-969.01
1743435130.751869,-0.359,2.978,-2.421,-288.05,-467.25,-649.88
1743435130.739526,-0.371,3.441,-1.643,-384.16,-120.68,-76.58
1743435130.759526,-0.269,1.674,-1.051,223.44,-259.21,445.2
1743435130.779526,2.366,0.022,-2.599,464.66,-284.55,777.63
1743435130.799526,-1.631,-0.902,-1.149,425.32,229.25,733.32
1743435130.8155322,-1.661,-1.776,-0.067,353.64,570.43,649.67
1743435130.8355322,-1.597,-1.747,0.41,280.98,476.07,389.62
1743435130.8555322,-3.438,-1.057,0.887,432.53,260.12,34.23
1743435130.8755322,-2.427,-1.501,1.027,97.09,56.14,-267.26
1743435130.905575,0.163,-1.698,0.568,32.97,-256.55,-571.41
1743435130.925575,-0.222,-0.31,0.028,-166.81,-406.49,-627.9
1743435130.945575,0.303,0.73,-0.846,-274.47,-474.95,-573.44
1743435130.965575,0.024,1.56,-1.266,-330.47,-503.23,-329.56
1743435130.9799511,-0.809,1.85,-0.707,-355.18,-347.06,-125.37
1743435130.9999511,1.341,2.307,-1.783,-253.26,-617.75,384.86
1743435131.019951,-1.159,1.229,-1.47,363.86,-715.54,664.37
1743435131.039951,-2.261,1.394,-0.2,111.23,-28.77,1182.58
1743435131.0557609,-5.116,0.616,0.21,536.27,245.49,1410.22
1743435131.0757608,-6.955,-0.253,1.139,461.02,734.51,1381.8
1743435131.0957608,-6.186,-1.539,2.256,503.86,601.02,570.85
1743435131.1157608,-3.927,-3.314,2.715,-24.22,-8.4,-496.09
1743435131.145779,-2.155,-1.7,1.905,-322.42,-447.23,-1274.49
1743435131.1657789,-3.722,0.519,0.49,-205.94,-965.93,-1532.44
1743435131.1857789,-4.617,2.188,-0.286,-506.1,-1125.46,-1440.25
1743435131.2057788,-5.966,3.446,-1.339,-210.0,-1096.2,-795.13
1743435131.222086,-4.642,3.377,-3.219,722.12,-1346.87,-50.33
1743435131.242086,-4.236,2.156,-2.656,1109.5,-858.06,830.27
1743435131.262086,-4.637,0.888,-1.366,904.89,-134.75,1099.49
1743435131.282086,-3.268,-0.39,-1.004,628.95,496.79,1011.85
1743435131.295867,-2.893,-0.888,-0.072,544.88,1205.47,723.38
1743435131.315867,-8.547,-15.843,8.698,1717.03,1323.98,-535.01
1743435131.335867,-2.958,-1.892,0.179,355.53,373.03,-887.18
1743435131.355867,-2.965,0.257,1.138,386.12,196.7,-1019.55
1743435131.385795,-1.932,0.518,0.791,100.45,109.06,-1041.74
1743435131.405795,-1.379,1.278,0.237,205.59,-239.12,-973.56
1743435131.425795,-0.871,2.001,-0.801,-48.79,-308.35,-538.79
1743435131.445795,0.0,1.945,-1.536,62.65,-416.92,-252.77
1743435131.46035,-0.886,1.984,-1.718,247.59,-428.96,265.51
1743435131.48035,-1.233,1.254,-1.448,397.32,-378.21,709.17
1743435131.50035,-2.404,0.835,-1.061,424.48,-240.38,889.0
1743435131.52035,-2.956,0.205,-0.735,440.58,33.67,930.3
1743435131.534774,-3.05,-0.422,-0.381,456.05,350.7,852.81
1743435131.554774,-2.916,-1.297,0.159,510.86,672.14,648.62
1743435131.574774,-2.884,-1.592,0.845,634.62,663.32,16.87
1743435131.594774,-2.676,-0.932,0.721,778.33,482.23,-469.49
1743435131.6258562,-2.13,0.483,0.356,633.99,315.0,-701.47
1743435131.645856,-1.96,1.152,0.197,115.57,408.66,-638.47
1743435131.665856,-1.525,1.209,-0.104,-120.12,457.8,-411.81
1743435131.685856,-0.094,0.926,-0.157,-182.14,381.22,-221.97
1743435131.7006452,0.292,0.705,-0.142,-171.01,250.46,-61.32
1743435131.7206452,0.289,0.468,-0.194,-66.99,51.66,109.13
1743435131.7406452,0.388,0.35,-0.12,-118.16,-29.96,173.88
1743435131.7606452,0.32,0.014,-0.311,-164.99,-122.64,168.77
1743435131.775073,0.436,-0.096,-0.447,-157.64,-185.64,180.04
1743435131.795073,-0.098,-0.223,-0.732,-75.25,-316.26,167.79
1743435131.815073,-0.249,-0.083,-1.03,-138.88,-339.08,93.24
1743435131.835073,-0.824,0.008,-1.396,-90.51,-325.57,86.45
1743435131.8660412,-1.233,-2.144,-7.593,598.78,188.3,-150.99
1743435131.8860412,0.159,-0.404,-2.51,-138.04,599.69,-47.11
1743435131.9060411,0.253,0.207,-0.835,-498.68,797.02,-296.24
1743435131.9260411,-0.501,0.822,-0.612,-123.76,457.1,-1.4
1743435131.940852,-0.549,0.682,-0.634,-152.95,565.95,147.42
1743435131.960852,0.049,-0.008,-1.272,211.4,217.21,258.51
1743435131.980852,0.741,-0.039,-1.598,309.12,128.17,199.64
1743435132.000852,0.209,0.005,-1.027,119.77,186.06,41.79
1743435132.015868,0.33,0.021,-0.666,29.4,237.16,-77.49
1743435132.035868,-0.003,0.102,-0.44,-89.32,216.02,-169.68
1743435132.055868,-0.001,0.068,-0.346,-78.05,131.6,-252.28
1743435132.075868,0.066,0.196,-0.314,-15.47,49.56,-342.51
1743435132.104979,0.035,0.244,-0.422,68.18,16.87,-321.51
1743435132.124979,0.407,0.195,-0.197,-100.45,182.56,-440.02
1743435132.144979,1.606,0.964,-0.43,-244.72,334.18,-515.83
1743435132.164979,4.299,3.428,-1.034,150.85,219.59,-115.64
1743435132.179261,2.143,1.039,-0.0,28.84,181.72,299.04
1743435132.199261,1.22,1.03,-0.61,208.11,204.54,308.14
1743435132.219261,0.91,1.092,-0.811,67.2,356.09,275.45
1743435132.239261,-1.085,-0.804,0.337,-50.61,108.5,-217.42
1743435132.255116,0.591,0.372,-0.135,-141.89,32.41,-164.29
1743435132.275116,0.908,0.396,-0.153,-282.17,15.05,-35.0
1743435132.295116,0.993,0.504,-0.416,-63.14,5.46,65.52
1743435132.315116,0.992,0.548,-0.237,15.68,0.14,41.16
1743435132.344296,0.761,0.565,-0.15,97.37,-49.7,7.07
1743435132.364296,0.916,0.642,0.226,23.8,-61.74,61.04
1743435132.384296,1.092,0.566,-0.087,44.8,-86.03,172.9
1743435132.404296,0.787,0.168,-0.363,29.4,-64.26,174.72
1743435132.420146,0.706,0.13,-0.534,11.55,18.97,186.55
1743435132.440146,1.145,-0.161,0.004,39.48,-4.2,105.35
1743435132.460146,0.834,0.73,-0.744,-88.06,126.77,109.48
1743435132.480146,1.029,0.104,0.229,-160.51,94.99,144.69
1743435132.495059,0.868,-0.348,0.002,-99.96,-34.86,9.1
1743435132.515059,0.985,-0.032,0.277,285.18,-245.49,-112.35
1743435132.535059,0.775,0.285,-0.76,29.68,-210.84,-82.32
1743435132.555059,0.929,0.265,-0.627,-42.49,-32.27,-51.17
1743435132.5861409,1.262,-0.016,-0.366,-58.8,46.41,-47.25
1743435132.6061409,1.159,-0.121,-0.292,-59.15,78.82,-121.52
1743435132.6261408,0.818,-0.255,-0.489,-42.98,48.51,-156.66
1743435132.6461408,1.248,0.141,-0.424,123.55,-9.45,-87.22
1743435132.6765792,1.195,0.636,-0.354,136.78,-29.05,-8.68
1743435132.6965792,0.899,1.01,0.025,-37.87,90.65,-88.76
1743435132.7165792,1.036,0.738,0.006,-119.07,132.02,-127.61
1743435132.7365792,1.068,0.509,-0.073,-242.13,135.1,-127.05
1743435132.75106,0.969,0.482,-0.165,-270.2,94.43,-79.17
1743435132.77106,0.633,1.236,-0.925,-119.56,182.7,141.19
1743435132.79106,1.683,0.803,-0.082,-156.52,227.85,151.06
1743435132.81106,0.911,0.666,-0.124,-144.97,229.95,12.32
1743435132.8245902,0.957,0.693,0.003,-95.62,145.11,18.13
1743435132.8445902,1.177,0.759,-0.106,20.93,11.97,67.06
1743435132.8645902,0.938,1.383,0.069,10.85,-104.65,117.39
1743435132.88459,1.056,1.405,0.876,47.11,-212.94,174.16
1743435132.900625,1.83,1.624,0.915,122.43,-215.67,267.33
1743435132.920625,1.6,1.124,0.215,60.62,12.46,225.89
1743435132.940625,1.151,0.92,-0.142,148.47,3.85,211.89
1743435132.960625,0.178,0.848,0.336,132.37,-63.42,314.79
1743435132.976168,0.004,0.624,1.147,64.89,-48.79,436.24
1743435132.996168,-0.223,-0.045,1.222,139.44,-73.29,458.99
1743435133.016168,-0.229,-0.513,1.119,187.6,-147.07,368.62
1743435133.036168,-0.62,-1.533,1.361,78.4,55.65,220.71
1743435133.065097,-0.945,-1.756,1.732,87.64,-163.94,41.93
1743435133.085097,-0.879,-1.297,1.188,-73.5,-261.94,-111.23
1743435133.105097,-1.059,-1.019,0.666,-249.69,-314.02,-231.21
1743435133.125097,-0.929,-0.606,-0.064,-374.78,-349.79,-332.57
1743435133.140923,-1.078,1.137,-0.949,-323.47,-523.46,-415.59
1743435133.160923,0.459,2.304,-2.675,-142.03,-690.06,-238.56
1743435133.180923,1.615,2.431,-3.715,-111.65,-440.51,83.23
1743435133.200923,2.584,1.073,-4.21,137.83,55.3,23.59
1743435133.227327,0.763,0.465,-2.862,147.63,243.18,12.39
1743435133.247327,0.754,0.574,-2.034,311.92,245.14,165.2
1743435133.267327,0.953,0.241,-1.751,430.08,348.74,245.7
1743435133.287327,0.776,-0.081,-1.377,436.24,524.44,215.04
1743435133.306408,0.148,0.041,-0.574,508.62,603.4,185.85
1743435133.326408,-0.466,0.684,0.226,546.84,540.54,184.03
1743435133.346408,-1.319,1.111,1.016,429.52,476.77,81.97
1743435133.366408,-2.273,1.029,2.518,110.81,338.45,12.67
1743435133.381395,-1.548,-1.866,5.409,-175.84,38.57,151.06
1743435133.401395,-1.594,-1.042,2.578,-178.29,-459.55,-148.96
1743435133.421395,-0.976,-0.166,1.2,-326.34,-531.23,-180.67
1743435133.441395,-0.54,0.398,0.095,-369.81,-581.21,-213.92
1743435133.4682362,-0.606,2.215,-1.494,-409.64,-756.49,-105.77
1743435133.4882362,0.267,1.988,-3.573,-334.25,-751.8,92.33
1743435133.5082362,0.083,-0.356,-4.578,-25.41,-441.35,214.13
1743435133.5282362,1.044,-1.629,-4.826,387.45,19.74,-81.76
1743435133.545582,-0.407,-2.218,-2.386,381.99,193.83,-201.88
1743435133.565582,-0.178,-1.36,-1.521,338.38,374.08,-309.75
1743435133.585582,0.09,-0.547,-0.746,464.73,444.36,-327.95
1743435133.605582,0.149,0.625,0.08,337.54,427.42,-308.42
1743435133.620017,-0.031,1.128,0.51,226.66,533.12,-317.8
1743435133.640017,-0.48,2.139,1.308,-83.93,620.76,-166.25
1743435133.660017,-0.053,1.318,5.297,-122.01,475.23,143.78
1743435133.680017,-0.325,0.688,4.231,-92.61,-230.51,128.17
1743435133.697152,-0.241,0.359,2.316,-371.28,-391.79,63.35
1743435133.717152,-0.049,0.284,0.995,-462.42,-420.77,13.65
1743435133.737152,-0.336,-0.232,-0.301,-485.45,-472.78,32.83
1743435133.757152,-0.948,0.648,-2.765,-529.62,-709.45,61.11
1743435133.784682,0.272,0.126,-5.973,-86.38,-498.82,456.54
1743435133.804682,0.011,-2.631,-4.191,-5.11,-9.38,42.56
1743435133.824682,0.334,-1.526,-3.386,221.2,220.99,-130.06
1743435133.844682,0.001,-0.663,-1.674,373.03,330.75,-232.54
1743435133.860726,0.495,-0.156,-0.934,589.05,350.84,-328.65
1743435133.880726,0.493,0.631,0.209,599.13,276.29,-403.48
1743435133.900726,0.427,1.34,0.628,460.32,200.27,-426.86
1743435133.920726,0.203,2.213,1.367,102.13,420.98,-361.83
1743435133.9346828,-0.205,2.884,2.767,-357.35,803.11,57.4
1743435133.9546828,-0.476,1.15,6.059,-296.94,82.32,330.12
1743435133.9746828,-1.37,-0.031,2.741,-284.76,-412.37,105.63
1743435133.9946828,-0.503,0.187,1.466,-402.15,-478.03,66.71
1743435134.024723,-0.573,0.075,0.3,-571.41,-425.81,160.44
1743435134.044723,-1.462,0.602,-1.083,-671.51,-542.99,202.86
1743435134.064723,-1.867,2.085,-4.659,-621.95,-710.01,193.41
1743435134.084723,0.73,-0.041,-5.633,-372.47,-300.93,65.1
1743435134.09987,1.536,-1.16,-5.41,-20.23,111.16,-100.03
1743435134.11987,-0.15,0.02,-2.164,175.91,307.51,-69.44
1743435134.13987,0.268,-0.388,-1.645,395.29,303.87,-120.33
1743435134.15987,0.487,-0.069,-0.743,579.88,285.81,-125.72
1743435134.174228,0.682,0.39,0.189,537.95,294.49,-124.74
1743435134.194228,0.682,0.475,0.719,449.12,321.16,-193.76
1743435134.214228,0.115,0.749,1.487,310.17,389.55,-172.76
1743435134.234228,-0.912,0.854,4.368,115.29,664.3,-14.7
1743435134.265237,-1.006,-0.349,4.888,-321.93,-208.32,87.22
1743435134.285237,-0.989,0.201,2.278,-401.03,-473.83,-60.62
1743435134.305237,-0.385,0.153,0.992,-508.69,-374.64,-22.47
1743435134.325237,-0.727,0.582,-0.35,-576.17,-520.38,75.95
1743435134.3421493,-1.304,3.137,-2.704,-643.3,-694.12,295.75
1743435134.3621492,0.924,1.171,-5.431,-267.68,-670.46,333.06
1743435134.3821492,1.3,-0.732,-5.014,38.5,60.34,76.86
1743435134.4021492,1.435,-1.104,-3.788,79.45,280.7,-85.68
1743435134.41581,0.341,-0.247,-1.92,235.69,162.26,85.4
1743435134.43581,0.211,-0.588,-1.146,340.76,273.28,31.5
1743435134.45581,0.166,-0.473,-0.49,446.67,293.16,-61.67
1743435134.47581,0.333,-0.03,0.222,508.55,242.83,-99.75
1743435134.505912,0.116,0.312,1.023,473.62,239.05,-110.88
1743435134.525912,-0.539,0.707,1.85,306.25,408.38,-43.12
1743435134.545912,-1.02,0.278,4.355,83.65,411.74,178.78
1743435134.565912,-0.846,-1.001,4.084,-317.8,-207.97,149.17
1743435134.580967,-1.173,-0.52,1.592,-330.12,-625.66,-112.49
1743435134.600967,-0.628,0.357,-0.144,-450.52,-518.56,-62.09
1743435134.620967,0.497,1.827,-2.401,-578.2,-388.29,175.63
1743435134.640967,0.978,1.581,-3.26,-333.06,-577.5,598.99
1743435134.655062,-0.308,-1.653,-4.079,-26.32,-450.73,361.83
1743435134.675062,0.654,-1.337,-2.744,94.71,210.7,22.82
1743435134.695062,-0.642,-1.778,-2.205,-94.22,495.46,-15.33
1743435134.715062,-0.939,-2.253,-2.079,57.54,555.66,-165.2
1743435134.745017,-0.882,-1.683,-0.812,290.57,518.56,-322.84
1743435134.765017,-0.647,-0.697,-0.182,262.92,524.93,-355.39
1743435134.785017,-0.611,-0.177,0.206,202.51,529.41,-431.41
1743435134.805017,-1.366,0.287,1.052,130.34,549.78,-476.91
1743435134.819659,-1.743,0.927,3.044,163.94,344.19,-334.95
1743435134.839659,0.77,2.059,4.164,-41.79,-653.1,-74.34
1743435134.859659,0.582,2.266,1.347,-106.82,-671.93,166.39
1743435134.879659,1.199,2.262,-0.505,-155.19,-540.96,410.27
1743435134.907809,1.031,1.411,-1.086,-70.77,-608.93,664.44
1743435134.927809,0.351,0.794,-2.33,-71.75,-577.78,967.26
1743435134.947809,-2.166,-2.845,-4.627,269.71,-743.68,685.37
1743435134.967809,-0.229,-2.904,-1.681,430.5,227.78,70.84
1743435134.9968052,-2.472,-2.644,-1.568,1.75,627.2,-266.63
1743435135.0168052,-1.795,-2.309,-1.114,307.02,402.01,-321.09
1743435135.0368052,-1.758,-0.913,-0.422,359.59,362.32,-461.09
1743435135.0568051,-1.444,0.047,0.249,279.93,365.61,-629.16
1743435135.059064,-1.349,0.815,1.392,102.62,450.87,-640.57
1743435135.079064,-0.902,1.828,4.285,-40.46,112.42,-317.38
1743435135.099064,0.431,2.117,3.377,-213.01,-504.0,69.16
1743435135.119064,-0.455,1.314,0.923,-189.84,-794.29,297.85
1743435135.134784,-0.515,1.123,-0.854,-255.01,-889.07,419.16
1743435135.154784,-1.764,0.7,-5.255,-153.51,-457.1,622.79
1743435135.174784,-0.1,-4.773,-4.525,502.6,-430.85,27.44
1743435135.194784,0.029,-5.2,-1.58,191.73,276.71,-473.48
1743435135.2255702,-0.942,-2.765,-1.802,193.41,506.31,-613.62
1743435135.2455702,-0.435,-0.3,-0.679,154.35,551.32,-672.49
1743435135.2655702,-1.594,1.162,1.078,-75.74,810.74,-733.11
1743435135.28557,-1.035,3.957,5.87,59.29,164.64,-254.24
1743435135.300252,1.559,3.644,2.812,-24.22,-466.27,455.84
1743435135.320252,1.463,3.043,0.179,87.43,-741.72,683.97
1743435135.340252,1.472,1.306,-0.749,-105.49,-426.16,873.81
1743435135.360252,-0.476,-0.945,-1.766,167.86,-346.57,806.61
1743435135.3751502,-0.849,-4.522,-0.547,485.24,75.39,448.21
1743435135.3951502,-3.13,-3.578,0.243,-143.99,518.0,-322.42
1743435135.4151502,-2.606,-2.978,0.226,-48.23,278.95,-420.91
1743435135.43515,-0.568,-0.613,-0.346,115.92,70.14,-307.51
1743435135.464711,3.111,2.279,-2.248,133.21,7.7,130.06
1743435135.484711,3.167,1.211,-0.644,-2.45,195.51,339.57
1743435135.504711,0.094,-0.962,0.188,107.59,138.11,311.43
1743435135.524711,-2.974,-2.83,1.627,90.09,130.48,-13.51
1743435135.540569,-4.161,-3.092,1.904,-29.82,17.29,-287.14
1743435135.560569,-3.313,-2.395,1.413,-54.39,-265.79,-490.49
1743435135.580569,-2.332,-0.975,0.508,-154.21,-317.94,-672.07
1743435135.600569,-1.244,0.424,-0.799,-259.7,-268.66,-742.84
1743435135.6153002,1.578,3.819,-2.636,-146.02,-145.6,-454.93
1743435135.6353002,3.611,5.062,-2.918,123.41,-165.97,129.99
1743435135.6553,3.518,3.242,-0.979,96.74,-184.59,284.06
1743435135.6753,2.772,1.102,-0.712,7.42,-20.16,255.22
1743435135.704593,2.725,0.709,-1.395,101.36,21.49,360.57
1743435135.724593,2.249,0.338,-1.452,277.55,82.11,607.88
1743435135.744593,1.045,0.038,-0.573,345.59,201.53,601.16
1743435135.764593,-0.329,0.09,-0.007,319.76,251.58,512.89
1743435135.783506,-1.806,-0.027,0.328,238.07,312.97,396.27
1743435135.803506,-4.166,-0.69,1.298,288.89,355.04,201.95
1743435135.823506,-4.38,-0.657,3.25,5.95,273.0,23.31
1743435135.843506,-4.058,-1.201,3.114,-253.26,-188.37,-262.64
1743435135.856517,-2.866,-0.582,1.068,-323.05,-466.27,-438.76
1743435135.876517,-1.945,-0.148,-0.147,-391.09,-480.83,-488.18
1743435135.896517,-0.515,0.93,-2.57,-493.5,-360.71,-551.46
1743435135.916517,5.506,3.623,-7.666,-417.2,177.59,-176.89
1743435135.94624,5.665,1.674,-4.104,256.13,-62.93,296.31
1743435135.96624,3.753,-0.143,-1.442,242.76,150.29,236.53
1743435135.98624,1.388,-0.392,-0.744,318.85,290.64,267.05
1743435136.00624,0.041,-0.142,0.062,397.04,316.68,261.73
1743435136.02226,-1.401,0.311,0.749,328.09,460.53,221.69
1743435136.04226,-4.122,0.247,1.905,146.44,542.5,259.84
1743435136.06226,-5.113,-1.226,4.671,-7.42,-87.92,60.97
1743435136.08226,-4.029,-0.541,2.954,-335.44,-533.75,-239.61
1743435136.095196,-2.371,-0.041,0.363,-439.25,-538.65,-361.83
1743435136.115196,3.284,2.143,-6.134,-204.33,-235.55,-314.93
1743435136.135196,9.595,0.868,-7.279,-110.88,145.39,384.44
1743435136.155196,3.807,-1.016,-1.304,186.48,94.08,439.39
1743435136.2010932,-0.257,-0.208,-0.716,175.14,447.09,204.05
1743435136.2210932,-2.627,-0.633,0.152,315.56,412.09,160.79
1743435136.2410932,-5.181,-1.197,0.532,418.46,330.61,89.04
1743435136.2610931,-5.948,-0.89,2.495,72.59,75.25,110.39
1743435136.26063,-4.426,-0.728,3.446,-188.37,-371.77,-211.68
1743435136.28063,-2.603,0.055,0.716,-385.84,-572.39,-469.56
1743435136.30063,-1.536,0.621,-0.914,-360.64,-426.93,-513.73
1743435136.32063,-0.215,0.742,-2.516,-317.45,-30.38,-429.73
1743435136.334944,3.72,1.671,-3.66,-52.5,-107.73,-294.63
1743435136.354944,7.266,2.263,-3.688,-91.7,-206.08,109.62
1743435136.374944,4.935,-0.281,-2.66,68.81,176.26,207.83
1743435136.394944,2.773,-0.452,-1.211,284.2,195.44,199.85
1743435136.42682,1.057,-0.027,-0.384,330.61,199.57,281.19
1743435136.44682,-0.879,0.178,0.061,358.26,253.12,234.5
1743435136.46682,-2.543,0.196,0.495,311.36,335.02,295.05
1743435136.48682,-4.887,-0.185,1.648,272.09,308.56,299.39
1743435136.5017831,-5.373,-0.607,4.172,-61.25,-1.82,18.97
1743435136.521783,-3.818,-0.379,2.48,-353.5,-421.33,-353.36
1743435136.541783,-2.125,0.09,0.67,-460.74,-503.79,-477.96
1743435136.561783,-1.373,0.672,-1.197,-377.58,-224.63,-524.86
1743435136.575982,0.03,0.626,-2.667,-363.16,6.51,-527.8
1743435136.595982,3.762,1.737,-3.64,-150.01,-82.6,-501.55
1743435136.615982,7.169,2.736,-4.144,-20.44,-20.72,0.7
1743435136.635982,4.884,0.585,-1.578,65.94,188.16,235.41
1743435136.66562,2.238,-0.444,-0.174,110.81,163.73,296.8
1743435136.68562,0.877,-0.291,-0.253,170.52,19.67,369.39
1743435136.70562,0.301,-0.047,-0.305,266.98,-41.72,386.26
1743435136.72562,-0.085,0.154,-0.246,315.84,84.35,404.25
1743435136.7403982,-0.524,0.185,0.093,215.88,213.78,350.84
1743435136.760398,-0.926,0.042,0.193,136.36,228.2,197.05
1743435136.780398,-1.305,-0.449,0.353,228.41,166.46,-12.67
1743435136.800398,-1.114,-0.659,0.669,239.75,75.67,-56.7
1743435136.816307,-1.775,-1.555,0.677,261.38,88.06,27.72
1743435136.836307,-2.69,-1.86,1.605,152.67,163.03,63.14
1743435136.856307,-3.568,-1.484,2.602,-58.52,52.36,-85.68
1743435136.876307,-3.252,-0.9,2.068,-148.82,-333.41,-316.54
1743435136.906027,-2.276,-0.339,1.036,-187.67,-497.35,-452.41
1743435136.926027,-1.505,0.274,0.119,-264.67,-532.7,-538.37
1743435136.946027,-1.047,0.635,-1.009,-327.67,-243.18,-533.33
1743435136.966027,-0.165,0.536,-1.641,-68.95,-120.4,-397.53
1743435136.98085,1.917,2.119,-2.302,135.87,-247.66,-195.02
1743435137.00085,5.642,3.153,-2.955,-133.07,-43.47,162.68
1743435137.02085,4.853,1.004,-1.46,-45.43,128.38,202.37
1743435137.04085,3.168,0.098,-0.102,54.39,176.89,226.52
1743435137.057106,2.321,-0.049,0.077,23.94,153.09,373.73
1743435137.077106,0.855,-0.322,-0.108,69.16,65.73,424.97
1743435137.097106,-0.128,-0.336,-0.19,163.73,88.97,479.43
1743435137.117106,-1.44,-0.654,-0.265,275.87,83.23,477.26
1743435137.158503,-2.663,-0.978,0.256,362.04,81.27,386.96
1743435137.178503,-3.309,-0.639,1.451,152.53,234.01,2.66
1743435137.198503,-3.391,-1.068,2.209,-83.58,168.63,-197.89
1743435137.218503,-2.771,-1.19,2.143,-136.43,-167.72,-329.42
1743435137.221192,-1.999,-0.683,1.116,-223.37,-413.14,-395.57
1743435137.241192,-1.21,-0.021,-0.172,-231.21,-409.43,-437.15
1743435137.2611918,-0.547,0.423,-1.266,-309.26,-126.07,-508.06
1743435137.2811918,0.378,0.66,-1.518,-349.93,24.08,-564.48
1743435137.310182,2.037,1.456,-1.776,-12.74,-118.86,-453.11
1743435137.3301818,2.431,1.975,-1.179,57.12,-261.52,-264.88
1743435137.3501818,2.545,1.328,-0.526,-39.97,-186.55,-192.5
1743435137.3701818,2.238,0.63,-0.139,-91.63,-88.97,-153.72
1743435137.385056,1.829,-0.026,0.378,-113.33,-7.91,-102.13
1743435137.405056,1.41,-0.155,0.497,-161.91,63.42,-48.3
1743435137.425056,0.827,-0.146,0.229,-181.02,-4.27,-49.28
1743435137.445056,0.555,-0.111,0.021,-208.81,-68.04,-62.51
1743435137.462512,0.133,-0.215,-0.422,-294.56,-80.15,-140.49
1743435137.482512,0.657,0.392,-0.552,-320.32,-12.53,-136.71
1743435137.502512,0.719,0.596,-0.859,-325.99,34.23,-87.85
