Millis,AccelX,AccelY,AccelZ,GyroX,GyroY,GyroZ
159734872,-0.989,0.017,0.219,10.220,-3.710,14.420
159734891,-0.993,0.020,0.224,12.390,-4.270,14.560
159734910,-0.982,0.024,0.219,15.050,-3.710,13.860
159734935,-0.961,0.013,0.209,17.430,-2.100,13.090
159734955,-0.963,0.022,0.215,22.680,-0.630,10.990
159734972,-0.977,0.054,0.214,19.880,-0.280,8.470
159734995,-0.978,0.038,0.207,16.310,-0.140,6.510
159735016,-0.972,0.029,0.194,16.520,0.350,3.990
159735040,-0.980,0.031,0.199,19.530,0.070,0.560
159735057,-0.971,0.071,0.209,16.450,-0.490,-1.400
159735076,-0.983,0.095,0.208,9.730,-2.800,-4.690
159735101,-0.977,0.129,0.211,-12.040,-6.230,-8.190
159735117,-1.006,0.163,0.212,-29.610,-13.020,-10.990
159735141,-0.978,0.180,0.218,-69.370,-15.260,-14.210
159735161,-0.972,0.054,0.231,-73.220,-13.860,-14.070
159735180,-0.976,0.045,0.280,-62.230,-13.650,-14.070
159735205,-0.961,0.068,0.313,-55.650,-11.900,-10.710
159735223,-0.992,0.119,0.305,-52.010,-14.350,-7.210
159735240,-1.001,0.181,0.308,-57.890,-16.310,-4.410
159735265,-1.005,0.180,0.358,-75.460,-23.730,-1.050
159735284,-0.995,0.204,0.382,-85.050,-28.490,1.750
159735305,-1.025,0.199,0.355,-99.470,-35.490,6.580
159735324,-1.008,0.115,0.351,-93.450,-37.660,12.390
159735344,-1.043,0.192,0.331,-92.470,-47.040,16.590
159735367,-1.010,0.105,0.329,-113.540,-53.410,17.920
159735387,-0.984,-0.042,0.318,-106.750,-54.530,18.270
159735411,-0.979,-0.017,0.372,-89.670,-58.310,20.300
159735431,-0.927,-0.023,0.345,-78.400,-55.160,23.310
159735450,-0.949,-0.016,0.294,-75.250,-54.250,21.280
159735474,-0.980,-0.035,0.322,-91.630,-56.840,18.410
159735496,-0.939,-0.208,0.331,-90.720,-55.300,12.040
159735516,-0.854,-0.273,0.242,-33.740,-48.090,5.110
159735537,-0.831,-0.026,0.266,-13.160,-42.840,3.850
159735558,-0.862,-0.003,0.433,-63.630,-37.940,2.660
159735577,-0.870,-0.207,0.430,-65.870,-28.350,6.230
159735598,-0.890,-0.131,0.423,-40.740,-23.730,5.600
159735621,-0.899,-0.070,0.436,-36.960,-24.220,2.450
159735641,-0.858,-0.111,0.487,-44.870,-21.490,1.400
159735662,-0.866,-0.141,0.480,-41.160,-18.480,5.460
159735685,-0.860,-0.078,0.480,-38.360,-16.800,6.650
159735703,-0.867,-0.092,0.457,-38.080,-20.020,4.200
159735723,-0.845,-0.145,0.513,-38.990,-16.730,0.560
159735747,-0.858,-0.149,0.561,-29.190,-7.210,-0.280
159735766,-0.755,-0.099,0.540,-26.600,-10.570,3.080
159735786,-0.832,-0.083,0.526,-23.590,-2.870,3.010
159735806,-0.849,-0.091,0.530,-24.080,-0.560,3.290
159735828,-0.852,-0.126,0.521,-18.900,1.610,4.480
159735848,-0.844,-0.133,0.504,-12.390,2.380,5.390
159735872,-0.838,-0.128,0.488,-1.050,6.580,6.370
159735890,-0.850,-0.097,0.484,0.980,8.680,6.650
159735911,-0.854,-0.101,0.456,7.070,12.670,7.140
159735931,-0.864,-0.069,0.458,5.460,13.370,5.950
159735955,-0.869,-0.104,0.475,7.420,17.290,8.120
159735975,-0.862,-0.113,0.502,10.640,23.170,11.620
159735993,-0.885,-0.115,0.463,18.900,28.350,13.440
159736017,-0.864,-0.096,0.416,33.600,34.300,12.810
159736035,-0.868,-0.111,0.391,47.040,38.430,8.540
159736057,-0.897,-0.114,0.363,66.920,53.900,10.570
159736080,-0.935,-0.241,0.294,134.680,52.780,0.630
159736103,-0.912,-0.204,0.224,191.100,69.370,6.860
159736119,-0.930,-0.133,0.149,243.950,80.920,0.140
159736143,-0.967,-0.017,0.079,278.810,83.440,0.280
159736167,-1.037,0.198,0.070,274.050,77.840,3.010
159736184,-1.060,0.277,0.322,252.350,68.600,3.990
159736202,-1.026,0.066,0.385,251.370,76.020,1.050
159736222,-0.966,0.290,0.160,231.840,91.490,0.420
159736246,-0.921,0.485,0.127,115.080,82.740,-23.030
159736266,-0.962,-0.236,0.935,194.110,54.810,-18.830
159736286,-1.444,1.211,0.392,185.990,96.250,35.630
159736306,-1.008,0.938,0.443,-113.050,-67.620,0.210
159736330,-0.732,-0.099,-0.007,-48.930,32.200,-8.400
159736347,-1.135,0.462,0.020,-59.850,-16.590,-4.130
159736369,-0.976,0.207,-0.010,-94.990,-8.260,-8.820
159736390,-0.993,0.047,-0.004,-65.310,-18.900,-3.990
159736410,-0.903,0.071,0.015,-37.240,-10.850,-0.210
159736431,-0.935,0.054,-0.020,-14.070,-5.250,-0.210
159736455,-0.938,0.112,-0.026,-2.310,-3.640,-0.140
159736475,-0.978,0.225,0.026,-17.780,-0.560,0.490
159736490,-1.008,0.173,0.106,-34.860,-4.830,0.000
159736511,-0.982,0.058,0.140,-28.420,-1.960,2.940
159736530,-1.008,0.035,0.176,-10.150,-0.770,5.950
159736550,-1.022,0.092,0.215,-3.570,-3.990,4.270
159736574,-0.973,0.090,0.228,-10.990,-6.440,3.360
159736595,-0.971,0.077,0.223,-12.320,-5.810,-1.400
159736611,-0.949,0.079,0.204,-7.210,-2.730,-2.030
159736631,-0.987,0.128,0.177,-3.500,-1.050,-0.700
159736652,-0.978,0.137,0.142,-4.270,-1.050,-1.400
159736676,-0.980,0.151,0.135,-3.920,-1.680,-0.420
159736696,-0.981,0.157,0.114,-8.750,-0.350,-1.050
159736716,-1.121,0.134,0.102,-4.130,-0.840,-1.400
159736737,-1.003,0.126,0.115,-2.380,-1.610,-0.210
159736755,-0.997,0.124,0.119,-0.420,-2.520,0.210
159736774,-0.995,0.120,0.130,1.820,-5.180,1.050
159736795,-0.981,0.136,0.145,0.770,-4.130,2.450
159736814,-0.983,0.097,0.164,5.390,-4.410,1.260
159736839,-0.981,0.111,0.163,9.450,-3.290,-0.560
159736854,-1.001,0.151,0.170,3.080,-5.250,-1.400
159736875,-0.994,0.141,0.164,-4.060,-5.110,-1.680
159736899,-0.976,0.121,0.156,-5.250,-3.220,-0.140
159736923,-0.988,0.115,0.156,-0.210,1.610,-1.050
159736943,-1.011,0.162,0.188,-9.940,-2.240,-5.110
159736960,-0.996,0.121,0.184,-21.910,-3.570,-7.420
159736979,-0.997,0.071,0.173,-16.730,-4.130,-8.890
159737004,-0.979,0.092,0.192,-9.100,-1.960,-7.560
159737028,-0.971,0.102,0.195,-10.920,-1.890,-7.630
159737046,-0.992,0.096,0.215,-10.640,-3.360,-7.770
159737067,-0.986,0.080,0.230,-7.630,-3.990,-8.190
159737086,-0.990,0.063,0.246,-1.400,-4.970,-7.210
159737110,-0.956,0.087,0.236,15.400,-1.050,-3.640
159737129,-0.955,0.186,0.201,19.670,-0.700,0.490
159737154,-0.954,0.209,0.173,14.560,0.560,4.130
159737174,-0.950,0.225,0.184,9.800,0.210,5.600
159737193,-0.954,0.212,0.175,6.930,0.490,5.600
159737213,-0.957,0.209,0.170,5.320,0.140,4.900
159737230,-0.964,0.211,0.149,4.130,2.100,4.620
159737250,-0.981,0.230,0.140,-1.470,1.610,4.970
159737274,-0.978,0.223,0.142,-15.190,0.210,5.460
159737294,-0.971,0.172,0.150,-21.210,-0.070,5.320
159737310,-0.971,0.138,0.142,-21.980,1.260,5.530
159737334,-0.985,0.132,0.148,-19.530,1.120,5.530
159737352,-0.991,0.145,0.160,-22.400,-0.910,4.410
159737370,-0.983,0.116,0.150,-19.950,0.070,4.480
159737393,-1.005,0.137,0.133,-14.980,-0.910,5.460
159737416,-1.007,0.157,0.120,-14.910,-1.190,6.930
159737438,-0.996,0.154,0.122,-13.370,-3.570,8.820
159737457,-1.001,0.148,0.117,-8.820,-4.620,9.940
159737478,-0.979,0.142,0.120,-1.610,-3.850,11.900
159737502,-0.996,0.160,0.104,2.940,-3.990,13.300
159737522,-0.992,0.175,0.105,3.780,-4.970,13.720
159737541,-0.976,0.165,0.108,3.360,-4.760,14.140
159737562,-0.976,0.149,0.119,5.530,-3.920,13.650
159737582,-0.973,0.140,0.138,6.930,-3.430,12.320
159737605,-0.991,0.138,0.173,11.340,-4.480,11.410
159737625,-1.006,0.155,0.181,17.500,-6.020,11.690
159737649,-0.954,0.129,0.137,19.810,-3.430,11.130
159737667,-0.965,0.152,0.115,25.060,1.050,10.850
159737687,-1.046,0.244,0.149,25.480,-0.560,10.850
159737711,-0.964,0.269,0.136,9.450,6.370,9.310
159737728,-0.958,0.217,0.108,6.860,8.680,8.680
159737751,-0.956,0.244,0.117,3.640,12.600,6.650
159737769,-0.961,0.288,0.108,-8.960,12.810,4.830
159737792,-0.924,0.258,0.081,-17.150,15.820,2.100
159737811,-0.902,0.273,0.069,-19.040,19.460,0.420
159737835,-0.884,0.287,0.062,-28.840,22.330,-0.700
159737855,-0.918,0.243,0.049,-32.480,27.300,-1.120
159737874,-0.993,0.259,0.047,-28.770,30.170,-2.870
159737898,-0.990,0.280,0.037,-36.540,27.930,-5.950
159737918,-0.973,0.247,-0.001,-41.020,28.910,-8.890
159737937,-0.956,0.242,-0.010,-46.340,30.730,-10.500
159737961,-0.966,0.242,-0.006,-47.880,24.780,-8.960
159737981,-0.916,0.178,0.020,-50.890,21.420,-11.620
159738001,-0.887,0.109,-0.015,-33.180,15.960,-11.690
159738019,-0.825,0.111,-0.024,-13.930,11.830,-12.880
159738041,-0.735,0.014,-0.003,-0.840,-3.360,-21.420
159738061,-0.585,-0.083,0.209,11.060,-12.180,-35.070
159738077,-0.558,-0.086,0.494,14.840,-45.920,-42.000
159738100,-0.225,-0.467,0.500,61.390,-68.320,-54.180
159738120,-0.051,-0.601,0.625,143.220,-49.700,-54.740
159738141,-0.940,0.000,1.054,165.970,-32.760,-67.480
159738160,-1.909,0.276,1.370,32.900,-122.220,-71.400
159738184,-2.219,-0.158,1.914,-179.410,-172.270,-119.070
159738204,-2.292,-1.448,2.368,-233.520,-231.210,-171.920
159738221,-2.481,-2.064,2.371,-5.670,-188.300,-169.960
159738243,-3.514,-1.664,1.765,139.370,-105.490,-186.620
159738264,-4.974,-1.565,1.030,234.290,-258.930,-158.620
159738288,-3.949,-1.070,1.039,336.560,-271.320,-98.000
159738304,-3.507,-0.680,0.605,388.500,-273.280,-68.460
159738328,-2.574,-0.092,0.142,370.020,-307.650,-8.680
159738343,-1.698,0.208,-0.247,332.850,-319.830,7.420
159738368,-0.861,0.456,0.012,252.140,-277.270,43.120
159738388,-0.945,0.406,0.079,176.470,-264.390,50.960
159738405,-0.970,0.353,0.095,117.810,-267.820,56.490
159738429,-1.038,0.222,-0.065,87.850,-274.610,66.990
159738447,-0.988,0.188,-0.130,81.060,-280.560,73.850
159738469,-0.928,0.114,-0.278,74.690,-282.940,82.460
159738489,-0.916,0.017,-0.273,80.780,-268.240,82.810
159738512,-0.966,-0.033,-0.170,100.940,-255.710,85.890
159738533,-0.831,-0.146,-0.049,175.910,-223.930,96.460
159738552,-1.068,0.133,-0.196,186.480,-247.170,125.090
159738576,-0.951,-0.162,-0.018,211.470,-229.460,157.010
159738594,-1.091,-0.308,-0.105,267.470,-229.180,195.790
159738614,-1.143,-0.089,-0.147,293.090,-240.800,235.410
159738634,-1.049,0.009,-0.049,248.080,-249.270,262.220
159738653,-0.673,-0.296,-0.324,195.650,-249.130,288.470
159738678,-0.165,-0.868,-0.794,152.180,-305.060,259.910
159738697,0.903,-0.816,-1.213,100.450,-380.590,175.560
159738714,2.663,-0.622,-1.368,87.850,-413.560,99.750
159738734,3.640,-0.999,-1.862,-7.070,40.670,-21.910
159738754,2.426,-0.715,-1.728,90.370,66.220,-104.090
159738778,2.778,-0.359,-1.574,-95.200,155.330,-122.570
159738798,2.141,-0.634,-1.147,-211.680,213.360,-143.290
159738817,1.445,-0.582,-0.404,-353.500,308.700,-137.340
159738836,0.204,-1.032,-0.293,-328.860,356.860,-188.370
159738856,-0.465,-1.213,-0.343,-203.910,451.360,-232.400
159738878,-2.065,-0.393,-0.591,-143.710,372.820,-273.350
159738895,-2.011,-0.279,-0.273,-232.400,213.290,-249.270
159738920,-1.340,-0.669,-0.472,-126.420,279.580,-202.090
159738938,-1.426,-0.282,-0.490,-72.030,300.860,-178.780
159738962,-1.861,-0.137,-0.323,-73.500,325.990,-171.990
159738986,-2.229,-0.205,-0.191,-70.070,323.260,-165.410
159739010,-1.915,0.039,-0.082,-58.100,330.820,-161.000
159739030,-1.816,0.132,-0.139,-123.830,343.000,-158.130
159739050,-1.829,-0.012,0.009,-155.960,341.390,-146.230
159739070,-1.772,-0.047,0.116,-141.330,327.530,-124.110
159739094,-1.606,0.087,0.107,-126.000,319.480,-94.640
159739114,-1.320,-0.210,0.458,-141.400,287.910,-81.830
159739134,-0.989,-0.396,0.608,-64.680,298.340,-71.190
159739154,-1.425,0.307,1.034,9.730,328.090,-96.600
159739176,-2.754,0.466,1.952,-134.190,393.400,-143.640
159739200,-3.928,-0.796,1.378,-29.260,245.700,-109.550
159739220,-3.080,0.100,2.869,99.260,82.670,-108.920
159739238,-3.287,0.941,3.866,-23.100,104.930,-79.450
159739256,-3.792,-0.148,3.648,-66.640,86.590,-62.930
159739278,-4.478,-0.171,3.246,23.310,-96.320,5.880
159739298,-3.839,-0.584,2.514,-0.350,-156.590,18.900
159739317,-3.584,-0.666,1.751,155.400,-186.270,44.450
159739339,-3.165,-0.095,1.172,219.730,-223.230,82.950
159739359,-2.470,0.051,0.970,229.460,-237.160,97.300
159739379,-1.978,0.128,0.693,243.740,-272.650,126.280
159739398,-1.322,0.281,0.578,240.870,-307.720,153.020
159739423,-0.793,0.582,0.504,178.010,-276.080,164.990
159739442,-1.053,0.476,0.195,66.290,-284.900,165.200
159739462,-1.367,0.180,-0.005,6.650,-286.020,160.790
159739486,-1.647,0.087,-0.041,-37.100,-292.810,155.890
159739506,-1.612,-0.252,-0.119,-47.950,-301.630,149.100
159739524,-1.479,-0.322,-0.197,4.900,-308.420,154.000
159739547,-1.288,-0.051,-0.234,48.790,-296.800,150.500
159739566,-1.472,0.105,-0.004,33.460,-290.080,142.870
159739583,-1.562,-0.346,-0.048,60.550,-290.640,151.270
159739603,-1.571,-0.329,-0.224,189.420,-272.020,190.260
159739628,-1.538,-0.146,-0.105,220.220,-294.000,226.940
159739647,-1.570,-0.404,-0.137,271.600,-283.220,271.180
159739666,-1.436,-0.193,-0.317,284.130,-280.980,320.530
159739686,-0.796,-0.250,-0.305,211.190,-307.790,329.770
159739710,-0.045,-0.416,-0.614,87.920,-376.180,232.750
159739729,1.466,-0.966,-1.408,9.660,-481.530,115.430
159739749,3.945,-0.859,-2.136,62.020,-57.820,6.230
159739773,1.657,-0.050,-1.919,-74.480,74.410,-75.530
159739791,2.353,-0.666,-1.493,-196.490,109.900,-81.340
159739811,1.935,-1.287,-1.146,-176.190,242.130,-77.490
159739833,1.159,-1.239,-0.287,-145.740,355.250,-107.660
159739853,0.078,-1.276,-0.345,-82.740,398.090,-176.820
159739877,-0.763,-0.784,-0.461,-59.290,418.740,-243.460
159739896,-2.326,-0.305,-0.714,-152.320,278.040,-279.720
159739916,-1.921,-0.670,-0.631,-224.070,250.670,-203.630
159739935,-1.325,-0.423,-0.733,-160.510,262.850,-141.820
159739959,-1.352,-0.346,-0.548,-160.370,347.060,-115.850
159739978,-2.024,-0.460,-0.362,-139.650,359.590,-130.970
159739998,-2.437,-0.232,-0.111,-115.290,395.570,-149.100
159740022,-2.535,-0.189,-0.177,-37.730,360.570,-168.910
159740042,-2.055,0.023,-0.178,-20.930,378.350,-181.160
159740058,-2.151,0.061,-0.150,-83.790,355.320,-194.040
159740082,-2.129,-0.001,0.494,-181.510,295.190,-163.030
159740102,-1.468,-0.464,0.709,-99.540,311.500,-140.070
159740122,-1.320,-0.572,0.590,29.260,331.590,-146.580
159740140,-1.589,0.105,0.854,20.580,273.140,-136.150
159740164,-1.844,0.069,1.759,-69.510,337.680,-141.260
159740184,-3.727,-0.216,2.176,-12.110,338.380,-114.660
159740204,-4.252,0.144,2.696,-35.630,69.720,-84.420
159740222,-3.394,0.508,3.813,-119.980,122.290,-79.800
159740244,-4.196,-1.690,3.730,259.210,162.050,-10.360
159740264,-5.147,1.057,2.297,-4.550,-156.590,-7.770
159740284,-3.927,-0.689,1.641,82.180,-151.900,52.780
159740301,-3.168,-0.286,1.319,175.000,-241.150,98.910
159740325,-2.338,0.275,1.080,183.960,-226.940,117.250
159740344,-1.711,0.277,0.817,210.210,-262.080,146.370
159740363,-0.964,0.511,0.676,235.690,-330.330,180.530
159740385,-0.498,0.876,0.840,179.410,-191.870,205.590
159740405,-1.639,0.651,0.204,71.750,-217.980,225.890
159740429,-1.664,0.303,0.109,-14.840,-254.240,245.840
159740448,-1.878,0.094,-0.078,-45.710,-281.750,252.070
159740467,-1.639,-0.140,0.010,-16.520,-299.740,253.890
159740490,-1.573,-0.053,0.111,14.560,-275.030,257.810
159740511,-1.932,-0.017,0.109,-19.250,-297.570,251.370
159740531,-2.183,-0.231,0.110,-9.660,-311.780,253.960
159740551,-2.243,-0.435,0.047,44.450,-317.870,265.510
159740574,-2.348,-0.649,0.041,128.240,-345.450,285.810
159740594,-2.196,-0.656,0.261,193.830,-370.020,314.370
159740614,-2.091,-0.499,0.402,209.790,-380.240,337.260
159740638,-1.599,-0.486,0.180,141.540,-393.470,335.580
159740658,-0.700,-1.201,-0.588,151.200,-423.780,294.980
159740677,0.964,-1.579,-1.242,165.060,-608.300,202.090
159740698,4.521,-1.063,-1.894,146.160,-311.290,14.140
159740722,2.152,-1.139,-2.133,133.000,126.840,-36.330
159740742,2.492,-0.863,-1.760,60.410,56.910,-80.150
159740762,1.886,-0.900,-1.562,-161.490,192.780,-91.910
159740782,1.112,-1.183,-0.948,-201.530,260.680,-110.810
159740799,0.488,-1.145,-0.959,-188.510,385.770,-166.180
159740821,-0.789,-1.271,-0.871,-169.330,533.960,-234.080
159740840,-2.521,-0.829,-0.833,-123.270,387.590,-236.180
159740859,-2.273,-0.248,-0.573,-201.670,253.330,-180.110
159740884,-1.701,-0.309,-0.605,-133.980,290.920,-149.660
159740903,-1.382,-0.545,-0.490,-103.950,344.190,-148.050
159740927,-2.117,-0.477,-0.274,-27.300,419.020,-210.910
159740943,-2.772,-0.142,-0.154,45.220,382.200,-244.650
159740963,-2.295,0.078,-0.098,87.290,351.750,-274.470
159740983,-2.043,0.299,-0.204,50.120,399.210,-297.430
159741007,-2.206,0.021,-0.249,4.690,388.430,-308.210
159741027,-2.333,0.309,-0.028,-57.820,356.720,-290.150
159741047,-2.110,0.042,0.637,-127.120,308.700,-252.770
159741070,-1.342,-0.296,0.551,71.330,337.680,-218.820
159741088,-1.506,0.586,0.806,104.860,360.150,-228.830
159741107,-2.881,0.936,1.270,-3.640,321.510,-222.670
159741132,-3.215,0.376,1.167,89.180,261.940,-150.220
159741152,-4.102,1.243,1.984,25.970,164.010,-143.010
159741171,-4.321,1.672,4.017,-9.800,-57.330,-91.560
159741188,-3.333,-0.068,5.803,96.600,-10.010,-65.030
159741207,-5.571,2.463,1.982,114.730,231.630,8.750
159741227,-4.538,-0.560,1.039,-53.270,-209.440,83.440
159741247,-3.694,0.060,1.528,160.020,-212.590,120.330
159741272,-3.091,1.148,1.393,134.540,-253.260,155.330
159741292,-2.163,0.398,1.248,215.460,-261.030,180.880
159741312,-1.376,0.925,0.828,257.110,-289.940,214.340
159741329,-1.059,1.301,0.816,192.150,-240.380,244.300
159741352,-1.935,1.167,0.523,32.410,-223.860,286.160
159741373,-2.546,0.356,0.104,-24.500,-252.000,324.030
159741393,-2.721,-0.204,-0.533,1.680,-295.120,374.710
159741413,-2.445,0.016,-0.660,-77.490,-307.090,350.000
159741433,-2.562,0.290,-0.492,-187.670,-309.890,302.050
159741456,-2.417,-0.274,-0.577,-132.440,-330.050,266.910
159741477,-2.353,-0.530,-0.780,66.710,-279.510,283.920
159741496,-2.592,-0.295,-0.183,123.620,-254.380,300.720
159741515,-2.636,-0.813,-0.023,140.070,-266.280,334.460
159741537,-2.327,-0.904,0.096,204.890,-265.860,394.940
159741561,-1.979,-0.857,0.264,126.840,-305.900,420.420
159741578,-1.776,-1.435,0.354,103.600,-345.940,408.030
159741602,-1.521,-1.552,0.088,133.840,-340.830,374.430
159741622,-0.617,-1.931,-1.195,233.170,-439.460,308.910
159741642,1.429,-2.096,-2.083,237.230,-560.770,111.440
159741662,4.254,-1.975,-2.464,49.490,-58.730,44.800
159741679,2.040,-2.179,-2.590,-3.430,80.010,-41.300
159741698,2.723,-2.350,-2.728,84.980,49.910,-85.960
159741723,2.312,-1.628,-1.965,13.090,255.780,-122.570
159741743,1.249,-1.533,-0.840,-222.530,294.630,-185.080
159741763,0.344,-1.569,-0.860,-256.270,344.890,-217.420
159741783,-0.370,-1.261,-0.682,-218.890,471.940,-267.540
159741803,-1.765,-1.233,-0.804,-120.610,529.060,-257.810
159741823,-3.019,-0.732,-1.047,-134.470,348.600,-273.910
159741842,-2.597,-0.597,-0.706,-131.460,359.380,-233.170
159741863,-2.360,-0.500,-1.004,-24.990,374.780,-219.800
159741880,-2.667,-0.315,-0.918,31.290,411.250,-239.960
159741904,-3.029,-0.014,-0.510,22.540,434.490,-278.600
159741924,-3.210,-0.020,-0.315,-33.880,460.670,-265.580
159741941,-3.334,-0.059,-0.343,12.740,452.130,-286.580
159741960,-3.138,0.059,-0.225,-8.750,408.100,-280.840
159741980,-2.830,0.340,0.272,-103.040,322.910,-276.780
159742000,-2.075,0.202,0.554,-167.650,352.100,-259.070
159742025,-2.523,-0.519,0.582,-107.590,360.570,-222.250
159742040,-1.892,-0.951,0.468,122.220,370.090,-200.830
159742065,-2.374,0.731,1.405,208.740,273.140,-234.360
159742085,-3.171,1.334,2.411,66.640,274.190,-227.710
159742109,-3.186,1.031,3.230,-9.100,95.900,-156.940
159742129,-2.570,-1.205,6.275,803.320,-541.170,16.730
159742153,-4.365,5.161,1.749,-32.130,455.350,22.120
159742173,-4.317,-0.394,1.091,-264.390,-31.010,29.750
159742191,-5.279,-0.746,1.163,-75.880,-217.770,8.610
159742213,-3.969,-0.415,1.009,147.840,-312.760,101.640
159742231,-2.804,-0.252,1.261,288.120,-188.300,148.120
159742255,-2.684,0.247,0.732,329.350,-232.890,194.390
159742275,-1.831,0.935,0.427,272.720,-285.950,204.750
159742295,-0.984,0.897,0.644,223.580,-315.140,209.020
159742319,-0.715,0.739,0.592,118.440,-192.150,248.780
159742339,-1.897,0.530,0.151,40.250,-220.360,272.160
159742359,-2.155,0.143,-0.077,25.620,-254.030,302.190
159742379,-2.113,-0.107,-0.050,25.760,-265.650,333.690
159742399,-1.789,-0.123,-0.074,11.410,-278.880,336.980
159742416,-1.771,0.001,-0.121,-17.780,-269.220,331.520
159742436,-1.868,-0.122,-0.105,-22.890,-276.150,312.970
159742459,-2.064,-0.281,0.013,9.870,-273.420,302.050
159742480,-1.997,-0.366,-0.318,84.770,-280.770,306.670
159742500,-1.878,-0.223,-0.160,116.760,-274.680,306.810
159742520,-2.144,-0.437,0.035,140.420,-266.770,319.620
159742539,-2.293,-0.573,-0.439,217.770,-253.680,354.550
159742559,-2.003,-0.325,-0.539,234.850,-266.280,407.610
159742584,-1.843,-0.427,-0.488,172.060,-257.390,453.880
159742604,-0.966,-1.385,-1.277,80.360,-296.520,433.860
159742624,0.260,-2.407,-2.193,42.210,-496.300,291.130
159742644,3.346,-2.260,-2.652,41.930,-376.950,117.880
159742668,2.814,-2.882,-2.844,31.220,145.600,8.120
159742688,2.356,-2.086,-1.659,53.480,217.280,-73.220
159742708,1.938,-1.931,-1.038,-36.470,271.950,-106.050
159742732,1.891,-1.616,-0.228,-258.020,308.700,-144.200
159742752,1.183,-1.704,-0.126,-383.040,337.260,-185.360
159742771,0.585,-1.366,0.291,-321.790,464.240,-185.430
159742790,-0.493,-1.063,0.410,-273.210,609.000,-234.220
159742812,-2.082,-0.965,0.536,-55.300,457.310,-230.090
159742836,-2.109,-0.314,0.127,-14.910,419.790,-250.460
159742855,-2.257,0.070,-0.227,42.350,354.270,-282.730
159742875,-1.840,0.283,-0.242,89.110,338.730,-242.830
159742895,-1.775,0.325,-0.272,107.240,344.750,-225.190
159742916,-1.958,0.246,-0.216,68.810,312.410,-221.900
159742940,-1.790,0.092,-0.026,19.670,310.660,-203.770
159742960,-1.960,0.014,-0.142,50.680,310.380,-200.130
159742980,-1.885,0.179,0.039,39.550,270.830,-193.900
159742999,-1.645,0.069,-0.093,30.590,273.630,-183.610
159743023,-1.521,0.041,-0.243,49.000,259.910,-186.690
159743042,-1.322,0.141,-0.067,22.120,258.160,-177.730
159743062,-1.250,-0.044,0.021,22.120,266.140,-155.890
159743084,-1.260,-0.102,0.244,89.460,242.340,-154.350
159743106,-1.220,0.442,0.787,127.190,222.950,-172.270
159743130,-1.652,1.085,1.517,145.670,214.900,-210.980
159743150,-2.310,1.793,2.024,52.640,227.010,-244.930
159743169,-3.368,2.170,2.232,-93.520,219.800,-256.900
159743190,-4.517,1.776,2.404,-219.730,-11.130,-156.170
159743210,-4.520,0.805,2.130,77.630,6.300,62.580
159743234,-4.758,1.340,1.859,6.720,-81.830,68.740
159743251,-3.985,-0.296,1.200,41.160,-133.420,111.160
159743269,-3.420,0.142,0.897,189.700,-154.490,157.570
159743294,-2.917,0.789,0.829,204.960,-190.050,189.910
159743314,-2.260,0.907,0.933,151.900,-227.290,179.200
159743334,-1.444,0.955,0.898,99.190,-267.470,204.400
159743354,-0.886,0.929,0.935,97.790,-199.850,194.880
159743374,-1.132,0.857,0.646,78.610,-215.950,232.400
159743398,-1.544,0.713,0.408,20.230,-213.850,257.250
159743413,-1.933,0.318,0.063,16.450,-218.680,291.480
159743438,-2.246,-0.025,0.036,50.680,-281.050,341.880
159743458,-2.024,-0.061,0.106,66.430,-262.500,369.810
159743482,-2.004,0.032,-0.166,21.280,-247.940,364.140
159743502,-2.009,0.103,-0.161,-53.620,-273.490,346.430
159743522,-2.003,-0.131,-0.022,-63.350,-272.930,323.260
159743542,-2.068,-0.236,-0.101,-46.340,-287.210,309.960
159743562,-2.036,-0.284,-0.043,-31.920,-289.310,286.720
159743578,-2.179,-0.429,-0.003,-7.840,-297.220,274.470
159743601,-2.034,-0.511,-0.035,58.730,-323.470,285.950
159743621,-1.737,-0.202,0.029,56.070,-343.070,306.040
159743641,-1.425,-0.475,0.009,37.030,-325.990,319.900
159743660,-0.979,-1.165,-0.666,27.090,-368.760,296.870
159743685,0.675,-1.734,-1.946,-45.850,-582.820,159.040
159743702,3.139,-1.712,-3.024,51.730,-587.790,64.890
159743722,3.167,-2.138,-3.718,34.650,171.080,-59.010
159743746,2.159,-1.744,-3.407,27.650,107.100,-160.020
159743766,2.144,-1.237,-2.700,-107.730,320.040,-172.480
159743782,0.964,-1.029,-1.392,-213.220,408.870,-187.180
159743801,0.222,-0.849,-0.735,-232.540,472.500,-176.330
159743826,-0.866,-0.840,-0.250,-123.480,477.890,-260.820
159743845,-2.090,-0.138,-0.085,-126.630,478.660,-245.560
159743864,-2.870,-0.567,0.012,-166.950,386.330,-289.520
159743888,-2.521,-0.793,0.005,-38.710,333.900,-238.840
159743903,-1.998,-0.123,-0.033,66.430,327.530,-222.250
159743928,-2.051,0.192,-0.195,4.270,336.420,-231.210
159743946,-2.077,-0.092,-0.072,-45.080,328.370,-220.570
159743968,-2.072,-0.149,-0.065,-69.790,334.040,-207.340
159743984,-1.986,-0.085,-0.190,-66.570,324.450,-207.550
159744004,-1.781,0.137,-0.113,-86.940,316.820,-202.440
159744026,-1.767,0.256,-0.015,-152.740,325.150,-190.680
159744048,-1.651,-0.101,0.229,-190.890,302.960,-172.690
159744067,-1.433,-0.441,0.526,-171.920,276.220,-150.500
159744087,-1.135,-0.212,0.482,-52.150,283.850,-138.460
159744110,-1.706,0.567,0.858,-91.070,315.630,-171.010
159744130,-2.149,-0.283,1.085,-154.420,295.680,-176.400
159744153,-2.317,-0.688,1.462,78.680,332.570,-163.870
159744173,-4.492,0.259,2.355,35.000,265.790,-164.640
159744190,-4.120,0.619,3.506,-50.120,6.650,-124.040
159744213,-3.738,-0.815,5.000,101.080,82.530,-43.190
159744233,-4.687,1.907,3.125,-31.710,-61.110,2.520
159744250,-4.570,-1.114,1.795,-3.220,-45.430,6.440
159744273,-3.728,-0.685,1.295,268.870,-260.120,84.770
159744290,-2.678,0.202,1.159,327.460,-197.820,112.210
159744311,-2.507,0.170,0.848,348.250,-219.310,143.150
159744333,-1.677,0.613,0.690,390.670,-267.050,184.240
159744353,-1.305,1.165,0.837,296.030,-280.000,224.140
159744373,-1.495,1.143,0.872,154.000,-219.380,225.120
159744395,-2.078,0.517,0.376,94.150,-267.330,241.780
159744416,-1.934,0.195,0.139,69.160,-284.340,253.750
159744440,-2.104,0.065,0.157,52.640,-287.560,260.120
159744460,-2.328,-0.165,0.064,44.100,-293.300,281.470
159744480,-2.468,-0.796,-0.433,172.060,-271.880,335.160
159744500,-2.332,-0.210,-0.419,195.090,-312.060,386.540
159744524,-2.450,-0.355,-0.007,208.460,-260.260,434.770
159744544,-3.030,-0.475,-0.288,244.510,-230.370,486.570
159744564,-3.193,-0.407,-0.476,175.980,-286.230,529.130
159744583,-2.820,-0.564,-0.386,128.380,-286.930,556.150
159744604,-2.421,-1.058,-0.625,49.840,-328.230,529.550
159744624,-1.316,-1.500,-0.773,83.580,-364.210,441.000
159744647,-0.413,-1.693,-1.491,48.090,-399.140,294.140
159744666,1.745,-2.653,-2.182,36.330,-412.790,136.850
159744686,3.552,-2.244,-1.814,76.090,96.600,62.790
159744705,0.966,-2.282,-2.257,41.020,159.880,-15.190
159744729,2.554,-2.221,-2.018,101.430,94.080,-68.040
159744750,2.087,-1.824,-1.662,-5.250,212.870,-125.370
159744766,1.809,-1.825,-1.092,-172.550,237.860,-168.000
159744790,0.809,-1.441,-0.523,-211.750,397.110,-214.970
159744808,-0.286,-1.201,-0.330,-138.110,529.410,-256.620
159744832,-1.624,-0.844,-0.438,-49.280,584.430,-253.820
159744852,-3.548,-0.110,-0.589,-111.860,448.770,-330.260
159744871,-2.763,-0.232,-0.195,-250.600,354.900,-270.690
159744891,-2.330,-0.158,-0.373,-191.310,381.010,-208.530
159744912,-2.081,-0.013,-0.551,-133.560,395.500,-186.550
159744936,-2.394,-0.124,-0.286,-79.730,409.360,-191.730
159744956,-2.595,-0.224,0.006,-36.260,425.810,-199.150
159744976,-2.708,-0.119,0.077,-3.290,426.020,-201.460
159744996,-2.589,0.189,-0.055,-1.050,400.120,-204.820
159745014,-2.314,0.201,-0.119,-32.900,391.160,-212.590
159745038,-2.079,-0.064,-0.065,-75.250,383.180,-199.990
159745058,-1.925,-0.172,0.119,-102.060,369.320,-177.240
159745078,-1.724,-0.139,0.488,-140.210,325.220,-147.490
159745100,-1.399,-0.804,1.048,-20.720,381.500,-127.890
159745124,-2.292,-0.182,1.914,78.120,397.530,-173.390
159745144,-3.574,0.254,2.087,-51.870,327.600,-169.820
159745164,-4.645,-3.039,10.236,510.230,-566.300,142.590
159745179,-0.507,3.774,4.060,1076.740,505.960,-17.080
159745202,-3.485,1.608,1.824,-631.890,245.070,-145.250
159745226,-6.441,-3.635,-1.252,-28.000,-80.780,21.210
159745245,-4.130,0.286,0.528,162.750,-277.830,2.730
159745266,-3.707,-0.192,-0.204,214.060,-263.270,78.890
159745285,-2.559,-0.156,0.882,178.920,-267.470,96.880
159745306,-1.975,-0.332,0.859,275.590,-259.140,132.790
159745330,-1.245,0.567,0.625,258.370,-315.840,164.500
159745350,-0.364,0.789,0.656,101.780,-215.600,182.420
159745368,-0.616,0.179,0.276,59.640,-205.170,168.910
159745390,-0.943,0.140,0.266,76.790,-251.370,176.890
159745409,-1.148,0.271,0.098,48.230,-263.270,180.040
159745433,-1.178,0.085,-0.038,11.620,-279.090,181.160
159745451,-1.219,-0.113,0.212,18.060,-275.310,185.990
159745471,-1.157,-0.143,0.198,39.690,-254.800,203.350
159745490,-1.238,-0.046,-0.067,58.240,-276.290,205.730
159745512,-1.240,0.045,-0.017,60.340,-269.990,204.470
159745536,-1.382,-0.235,0.072,91.840,-277.550,220.850
159745556,-1.415,-0.184,-0.024,146.370,-277.480,239.680
159745576,-1.363,-0.061,-0.157,154.630,-275.940,258.020
159745594,-1.423,0.006,0.027,118.930,-281.050,263.480
159745614,-1.466,-0.215,0.094,91.000,-286.580,264.460
159745638,-1.261,-0.270,-0.183,97.370,-310.520,261.800
159745658,-0.583,-0.463,-0.307,117.810,-318.360,250.390
159745677,0.011,-0.477,-0.433,142.100,-314.720,220.360
159745698,1.182,-0.490,-0.876,128.170,-380.380,140.910
159745718,3.201,-0.400,-1.112,144.200,-233.730,71.050
159745742,2.782,-0.255,-1.188,66.360,2.800,9.450
159745759,2.548,-0.342,-1.110,20.860,9.870,-25.480
159745779,2.216,-0.302,-1.065,-66.640,110.460,-54.740
159745803,2.008,-0.385,-0.794,-123.200,172.410,-93.100
159745821,1.578,-0.219,-0.711,-162.120,249.620,-124.950
159745843,0.729,-0.535,-0.716,-217.070,352.030,-171.500
159745863,-0.149,-0.929,-0.725,-188.510,469.210,-211.470
159745887,-1.722,-0.813,-0.645,-101.150,479.920,-217.630
159745904,-2.143,-0.182,-0.481,-159.880,374.290,-226.940
159745928,-1.896,-0.167,-0.007,-262.360,362.250,-224.210
159745948,-1.913,-0.547,-0.140,-203.280,340.760,-188.720
159745968,-1.611,-0.246,-0.181,-93.380,360.080,-167.790
159745988,-1.770,-0.063,-0.171,-40.250,362.180,-168.420
159746011,-1.873,-0.150,-0.042,-7.700,354.130,-157.150
159746031,-1.819,-0.178,0.049,27.720,341.670,-147.770
159746051,-1.742,0.141,0.043,13.510,323.330,-153.790
159746075,-1.636,0.342,0.079,-68.460,308.840,-143.570
159746093,-1.555,0.245,0.145,-125.860,305.060,-123.970
159746115,-1.423,-0.090,0.216,-107.450,303.030,-93.450
159746130,-1.286,-0.397,0.520,-18.200,265.300,-80.780
159746155,-0.503,-0.007,0.685,139.440,262.010,-74.130
159746175,-0.828,0.646,1.095,163.590,328.300,-136.850
159746194,-1.854,0.526,1.427,96.460,389.130,-161.350
159746214,-3.279,0.235,1.414,194.950,334.880,-149.800
159746234,-4.300,1.594,3.849,179.760,-263.340,-85.050
159746258,-1.354,3.259,4.253,-28.560,245.560,-72.660
159746278,-3.361,0.505,0.796,172.620,101.150,26.670
159746296,-4.169,-0.268,0.674,92.330,-125.650,99.050
159746318,-4.005,0.262,0.620,253.680,-102.200,145.950
159746338,-3.897,1.244,0.338,137.410,-174.440,190.470
159746362,-3.340,0.597,0.498,64.540,-186.130,190.820
159746382,-2.865,0.240,0.746,112.700,-217.420,201.390
159746402,-1.896,0.558,0.636,136.850,-253.260,208.880
159746421,-1.102,0.721,0.510,119.280,-198.100,216.650
159746442,-0.790,0.678,0.434,52.220,-212.100,227.850
159746462,-0.905,0.417,0.063,55.440,-185.430,249.480
159746479,-1.300,0.403,-0.133,43.050,-189.070,271.600
159746501,-1.623,0.264,-0.082,-2.870,-190.750,289.800
159746521,-1.991,0.171,0.076,-15.540,-190.190,308.000
159746541,-1.833,0.016,-0.055,-45.990,-227.500,322.280
159746561,-1.451,-0.026,-0.152,-45.500,-229.810,329.210
159746585,-1.438,0.024,-0.092,-66.710,-240.730,313.460
159746605,-1.475,-0.140,0.030,-55.790,-243.670,303.590
159746622,-1.485,-0.167,-0.096,-11.690,-253.680,296.520
159746641,-1.498,-0.155,-0.089,16.660,-245.630,278.530
159746665,-1.461,-0.228,-0.042,49.770,-253.750,269.010
159746685,-1.270,-0.229,0.027,67.830,-253.470,263.760
159746709,-1.362,-0.225,0.183,82.530,-251.650,258.510
159746729,-1.162,-0.551,-0.341,118.230,-282.660,246.820
159746749,-0.097,-0.917,-0.890,176.120,-322.980,214.130
159746768,1.127,-0.946,-1.142,147.490,-410.550,158.410
159746788,3.739,-1.311,-2.135,55.300,-301.280,80.290
159746812,3.128,-1.193,-1.928,-13.860,169.960,-21.210
159746832,2.834,-1.141,-1.437,-104.930,85.610,-66.290
159746850,2.134,-1.246,-1.346,-137.620,197.190,-102.760
159746867,1.732,-1.110,-0.841,-197.260,208.530,-133.000
159746892,1.202,-0.905,-0.308,-226.100,314.790,-199.010
159746911,0.423,-0.851,0.018,-141.960,353.920,-252.910
159746928,-0.396,-0.619,0.171,-42.980,463.540,-283.780
159746952,-1.984,-0.236,-0.222,-50.750,313.950,-326.550
159746972,-2.184,-0.420,-0.139,-49.560,279.440,-280.350
159746992,-2.148,-0.185,-0.246,-23.520,228.270,-242.340
159747012,-1.244,0.086,-0.286,-67.340,233.170,-216.440
159747031,-1.357,-0.081,-0.376,-109.830,276.430,-202.650
159747055,-1.729,-0.134,-0.093,-145.810,267.820,-195.160
159747074,-1.692,-0.287,-0.100,-112.280,277.830,-184.520
159747095,-1.679,-0.107,-0.150,-60.620,278.250,-176.610
159747115,-1.539,0.072,-0.143,-86.030,275.310,-174.580
159747135,-1.368,0.043,-0.131,-126.630,280.420,-169.400
159747154,-1.399,0.018,-0.051,-162.050,288.540,-161.980
159747179,-1.482,0.099,0.298,-274.890,222.460,-149.660
159747197,-1.047,-0.163,0.847,-325.290,222.740,-141.330
159747218,-0.504,-1.178,0.285,-57.050,316.890,-128.520
159747235,-1.404,-0.153,0.541,87.220,330.330,-153.160
159747255,-2.578,0.566,1.678,-28.700,358.120,-203.700
159747275,-3.615,-0.373,1.821,-122.780,255.080,-187.740
159747299,-3.364,-0.229,2.362,2.380,202.860,-176.050
159747317,-3.683,-0.362,3.242,-60.830,173.110,-108.990
159747338,-4.482,-1.952,2.609,133.490,163.660,-88.200
159747362,-5.174,0.547,3.425,197.750,-94.220,32.410
159747381,-4.385,0.041,2.038,146.510,-129.850,16.870
159747400,-3.843,-0.255,1.426,241.780,-196.700,85.890
159747424,-3.103,0.075,1.111,290.080,-237.300,118.020
159747442,-2.250,0.352,0.755,278.600,-280.070,175.350
159747464,-1.310,0.497,0.711,269.080,-282.520,195.440
159747479,-0.991,0.434,0.610,225.610,-289.380,217.070
159747499,-1.123,0.411,0.472,182.770,-248.150,236.600
159747519,-1.571,0.278,0.333,114.660,-267.120,255.780
159747544,-1.878,0.083,-0.063,20.860,-295.050,266.140
159747563,-1.985,-0.488,-0.102,19.810,-295.260,260.400
159747585,-1.930,-0.581,-0.251,70.840,-316.890,255.780
159747609,-1.614,-0.464,-0.188,69.580,-339.150,252.630
159747625,-1.353,-0.166,0.020,74.200,-280.490,211.820
159747649,-1.600,-0.445,-0.136,76.440,-270.900,177.940
159747669,-1.485,-0.393,-0.141,105.980,-274.540,176.820
159747686,-1.373,-0.285,-0.018,79.380,-269.850,174.020
159747708,-1.383,-0.607,0.083,72.590,-253.680,184.940
159747733,-1.470,-0.712,-0.223,147.490,-255.010,224.910
159747751,-1.230,-0.499,-0.329,166.460,-256.760,242.970
159747771,-1.156,-0.678,-0.354,185.710,-238.280,247.100
159747791,-0.739,-0.945,-1.095,250.810,-283.150,276.640
159747810,0.089,-0.450,-1.188,281.120,-339.430,200.130
159747834,1.119,-0.573,-2.199,121.380,-327.460,124.950
159747858,3.349,-0.822,-2.450,115.220,-74.690,29.540
159747882,2.268,-0.762,-2.104,46.480,149.660,-41.020
159747902,2.341,-0.617,-1.778,-40.110,148.750,-79.660
159747918,2.298,-0.647,-1.454,-145.810,222.110,-100.170
159747942,1.851,-0.776,-0.696,-227.220,249.620,-167.090
159747962,0.876,-0.708,-0.084,-165.760,406.560,-200.480
159747982,-0.069,-0.548,0.086,-107.100,526.750,-230.440
159747998,-1.367,-0.454,-0.060,-97.370,532.490,-254.310
159748022,-2.439,-0.339,-0.262,-167.230,325.570,-291.270
159748041,-2.290,-0.580,0.117,-166.950,377.720,-265.370
159748062,-2.544,-0.395,0.060,-71.820,276.990,-229.320
159748082,-1.681,0.021,0.100,-69.860,312.620,-213.570
159748100,-1.658,-0.027,0.028,-101.570,289.380,-199.360
159748124,-1.564,-0.182,0.067,-115.360,291.480,-172.270
159748143,-1.775,-0.238,0.030,-103.110,295.540,-165.130
159748164,-1.972,0.017,0.193,-105.210,249.410,-156.520
159748184,-1.543,0.159,0.252,-126.700,239.960,-137.620
159748204,-1.282,0.055,0.020,-172.270,286.510,-120.680
159748220,-1.416,-0.455,0.294,-153.790,256.690,-111.930
159748244,-1.085,-0.453,0.544,-45.500,241.290,-97.720
159748263,-0.992,0.048,0.591,47.600,275.590,-109.200
159748284,-1.487,0.186,0.602,31.710,259.840,-110.740
159748302,-1.320,-0.174,0.943,55.440,225.400,-112.700
159748320,-1.456,0.241,1.095,61.320,272.090,-123.480
159748343,-2.848,0.415,0.932,-9.450,291.830,-154.630
159748363,-2.691,0.441,0.832,0.980,147.630,-125.440
159748387,-2.674,0.836,0.838,-96.180,151.900,-83.230
159748407,-2.715,0.751,1.047,-160.090,93.450,-33.110
159748427,-4.056,1.813,3.827,-485.100,-261.100,55.090
159748445,-0.474,-0.525,2.017,-26.460,171.080,134.890
159748465,-3.781,0.311,-0.143,-12.670,121.030,86.940
159748484,-2.406,0.165,0.218,-50.470,-136.920,90.300
159748509,-1.968,0.145,-0.239,-132.090,-50.960,88.130
159748529,-1.832,0.268,-0.362,-142.100,-101.710,81.760
159748549,-1.371,0.094,-0.327,-214.760,-108.150,69.720
159748567,-1.175,-0.135,-0.194,-173.110,-92.610,70.070
159748585,-1.167,-0.004,-0.055,-151.270,-137.340,60.760
159748604,-0.803,-0.102,0.107,-110.810,-158.760,67.900
159748628,-0.484,-0.100,0.122,-11.200,-94.850,66.710
159748648,-0.398,0.034,0.062,36.190,-94.500,76.790
159748666,-0.303,0.164,0.109,38.780,-88.480,94.500
159748690,-0.268,0.114,0.154,37.730,-69.790,105.700
159748710,-0.128,0.082,0.168,49.420,-69.790,121.310
159748733,-0.204,0.096,0.152,57.190,-58.800,131.250
159748757,-0.254,0.023,0.116,51.380,-46.830,116.480
159748777,-0.359,-0.162,0.134,48.370,-18.760,83.370
159748797,-0.861,-0.082,0.215,57.050,36.330,41.300
159748817,-2.064,-0.020,-0.149,82.670,61.250,-16.310
159748837,-2.483,-0.005,-0.301,75.670,-58.940,-49.000
159748861,-0.948,0.081,0.170,82.180,-135.240,-74.200
159748886,-0.164,0.062,0.547,51.310,-70.560,-70.280
159748903,-0.199,-0.167,0.495,24.220,26.250,-72.800
159748925,-0.632,-0.202,0.270,24.150,5.320,-83.580
159748944,-0.620,-0.093,0.130,26.460,14.210,-90.930
159748960,-0.754,-0.080,-0.009,24.150,35.070,-97.440
159748981,-1.117,-0.114,-0.039,18.480,44.730,-112.490
159749005,-1.345,-0.173,-0.044,22.890,45.220,-141.750
159749025,-1.586,-0.220,-0.195,59.920,15.750,-159.320
159749044,-1.347,-0.039,-0.182,108.850,9.730,-169.750
159749068,-1.163,0.195,-0.072,100.590,31.290,-177.590
159749092,-1.420,-0.050,-0.075,56.490,37.310,-190.610
159749110,-1.299,-0.014,-0.042,63.420,31.150,-186.830
159749134,-1.212,0.134,0.047,50.120,50.190,-182.910
159749154,-1.308,0.264,0.148,-4.830,49.700,-184.310
159749174,-1.289,0.086,0.159,-63.070,41.930,-178.150
159749192,-1.242,0.036,0.223,-77.490,42.350,-169.750
159749214,-1.305,0.162,0.346,-88.480,28.770,-166.390
159749230,-1.190,0.188,0.453,-101.780,15.610,-155.050
159749249,-1.087,0.230,0.512,-107.730,17.850,-135.940
159749273,-1.053,0.214,0.557,-105.700,8.750,-112.490
159749292,-1.033,0.186,0.567,-98.070,2.520,-87.150
159749316,-1.013,0.223,0.536,-89.110,-13.440,-53.760
159749336,-0.964,0.249,0.516,-86.590,-21.490,-29.190
159749356,-0.947,0.198,0.422,-77.560,-31.080,-0.910
159749380,-0.972,0.107,0.334,-59.360,-46.130,25.690
159749396,-0.981,-0.020,0.336,-35.350,-55.860,45.010
159749415,-1.056,-0.038,0.348,2.800,-62.930,68.670
159749440,-1.015,0.105,0.388,20.790,-79.660,92.890
159749463,-1.125,-0.050,0.556,10.920,-89.950,114.940
159749483,-1.264,-0.374,0.542,32.690,-102.270,133.770
159749507,-1.491,-0.100,0.719,36.470,-121.240,152.320
159749527,-1.576,-0.077,0.989,6.160,-156.240,176.820
159749545,-1.646,-0.203,1.231,-19.530,-178.920,185.920
159749567,-1.838,-0.615,1.210,-18.480,-218.260,186.130
159749592,-1.846,-0.634,1.322,59.990,-254.520,208.740
159749610,-1.944,-0.417,1.237,91.560,-266.840,215.810
159749630,-2.013,-0.429,1.185,117.670,-289.940,225.050
159749654,-2.115,-0.295,1.121,157.080,-310.170,248.710
159749670,-2.013,0.147,1.102,145.530,-336.490,249.130
159749691,-1.980,0.264,0.966,108.080,-343.280,254.590
159749712,-1.768,0.189,0.922,115.780,-356.090,265.790
159749731,-1.606,0.494,0.877,109.480,-341.950,269.780
159749755,-1.548,0.553,0.581,42.630,-360.220,254.240
159749775,-1.156,0.278,0.459,45.640,-353.500,241.640
159749795,-0.867,0.222,0.404,67.130,-339.220,233.240
159749817,-0.585,0.284,0.264,65.520,-303.660,217.630
159749839,-0.489,0.283,0.143,30.520,-279.580,189.210
159749859,-0.388,0.214,0.121,4.620,-308.560,167.020
159749879,0.046,0.146,0.326,-10.780,-249.620,150.710
159749897,-0.059,0.108,0.215,-9.520,-214.760,135.450
159749918,0.037,0.041,0.198,-3.360,-205.240,123.130
159749942,0.047,0.028,0.201,22.890,-197.330,111.580
159749958,0.055,0.015,0.200,47.250,-201.110,106.680
159749978,0.132,-0.050,0.215,69.650,-206.780,99.470
159750002,0.130,-0.052,0.157,94.640,-213.640,92.190
159750022,0.250,-0.071,-0.117,118.300,-223.230,85.680
159750041,0.467,-0.087,-0.242,121.730,-197.470,82.740
159750060,0.468,-0.112,-0.390,93.520,-210.490,74.620
159750080,0.842,-0.175,-0.817,11.060,-209.300,47.670
159750104,1.270,-0.302,-1.167,-13.020,-172.970,30.380
159750124,1.337,-0.203,-1.230,22.680,-23.800,2.590
159750143,1.047,-0.099,-1.188,59.080,17.710,-26.880
159750167,1.098,-0.033,-1.117,77.420,116.060,-47.460
159750187,0.825,0.029,-0.879,69.720,168.770,-59.570
159750211,0.634,0.172,-0.696,21.840,243.740,-69.650
159750230,0.304,0.120,-0.575,-11.620,280.840,-77.560
159750250,0.162,0.099,-0.421,-32.130,333.550,-73.710
159750269,-0.038,0.126,-0.390,-55.440,392.840,-71.400
159750294,-0.343,0.123,-0.342,-78.540,415.870,-78.330
159750312,-0.515,0.126,-0.334,-100.520,419.720,-81.410
159750335,-0.596,0.069,-0.155,-112.000,437.080,-92.120
159750356,-0.721,0.041,-0.045,-102.760,481.670,-86.800
159750376,-0.921,0.147,-0.027,-102.060,490.700,-89.180
159750396,-1.092,0.182,0.078,-136.640,485.730,-101.640
159750415,-1.189,0.081,0.162,-164.850,506.660,-106.750
159750439,-1.512,0.051,0.235,-174.160,534.170,-112.140
159750454,-1.828,0.048,0.196,-218.960,523.670,-113.470
159750478,-1.976,-0.123,0.193,-249.130,532.700,-115.990
159750495,-2.580,-0.245,0.539,-294.840,543.060,-119.910
159750519,-3.293,-0.778,0.623,-348.460,468.510,-68.040
159750537,-3.080,-1.329,0.771,-246.190,384.300,-35.770
159750561,-2.795,-1.459,0.598,-81.130,342.370,-32.760
159750577,-2.621,-1.384,0.659,38.500,226.100,-0.280
159750599,-1.859,-0.836,1.104,80.290,177.590,39.130
159750621,-1.474,-1.234,1.855,-53.130,182.420,49.840
159750640,-1.452,-2.056,1.999,46.410,118.020,49.490
159750664,-1.401,-0.987,2.142,137.480,65.520,24.780
159750684,-1.430,-0.421,2.060,25.480,0.350,-23.170
159750700,-1.337,-0.792,1.845,-25.410,-77.490,-45.780
159750722,-1.197,-1.189,1.540,2.940,-132.650,-48.860
159750743,-1.429,-1.035,1.310,81.620,-172.900,-42.700
159750767,-1.592,-0.957,1.227,143.150,-216.300,-17.570
159750783,-1.796,-0.939,1.159,206.500,-243.110,-2.800
159750807,-2.105,-0.745,1.068,253.610,-277.200,27.510
159750825,-2.344,-0.610,1.078,272.440,-346.500,41.860
159750847,-2.390,-0.478,0.970,276.290,-395.220,63.070
159750865,-2.363,-0.509,0.826,294.770,-438.060,77.280
159750885,-2.293,-0.190,0.838,297.290,-469.560,108.430
159750909,-2.253,0.070,0.637,280.910,-489.930,141.120
159750929,-2.016,0.211,0.547,196.630,-528.920,146.790
159750944,-1.600,-0.155,0.465,209.230,-502.460,142.870
159750968,-1.356,-0.115,0.047,258.160,-496.440,162.260
159750989,-0.816,0.163,-0.106,226.380,-486.430,178.290
159751005,-0.445,0.171,0.094,217.420,-444.850,177.800
159751024,-0.324,0.131,0.222,167.300,-398.580,175.700
159751049,-0.183,0.066,0.171,127.890,-355.810,173.250
159751065,-0.152,0.117,-0.019,111.580,-329.770,154.980
159751089,-0.122,0.153,0.003,80.290,-310.730,157.500
159751109,0.078,0.042,0.020,46.690,-320.180,144.130
159751126,0.382,-0.108,-0.122,49.280,-330.190,137.690
159751150,0.701,-0.077,-0.244,47.950,-267.820,120.750
159751170,0.598,-0.132,-0.367,68.180,-202.510,99.960
159751185,0.483,0.001,-0.532,63.070,-187.110,86.450
159751210,0.658,-0.160,-0.694,22.050,-158.830,71.960
159751230,0.802,-0.359,-0.780,42.700,-105.140,67.760
159751250,0.727,-0.083,-0.746,51.450,-56.560,54.110
159751270,0.619,-0.024,-0.754,14.070,-21.420,40.670
159751290,0.617,-0.096,-0.777,0.700,21.700,29.610
159751314,0.596,-0.114,-0.739,-3.990,57.400,18.620
159751334,0.594,-0.081,-0.664,-11.340,99.470,9.800
159751354,0.601,-0.033,-0.555,-37.450,121.660,1.540
159751374,0.675,-0.102,-0.497,-48.930,140.140,-5.740
159751394,0.687,-0.112,-0.424,-35.700,171.080,-16.310
159751418,0.560,-0.065,-0.393,-15.820,202.440,-29.890
159751433,0.456,0.014,-0.264,-4.830,217.700,-39.270
159751458,0.431,0.107,-0.080,-14.770,229.110,-44.240
159751478,0.440,0.137,-0.004,-36.260,238.630,-46.410
159751498,0.468,0.142,-0.038,-30.800,269.360,-52.850
159751518,0.298,0.151,-0.010,-8.120,298.550,-60.620
159751538,0.151,0.259,0.146,-15.120,302.890,-62.790
159751558,0.180,0.252,0.357,-40.180,307.020,-67.760
159751577,0.195,0.106,0.300,-27.860,333.130,-79.240
159751597,-0.017,0.179,0.079,13.230,369.740,-100.730
159751619,-0.236,0.311,0.525,-19.040,338.100,-118.370
159751636,-0.069,0.336,0.707,-38.500,362.880,-122.850
159751661,-0.242,0.198,0.535,-33.110,406.140,-137.130
159751678,-0.697,0.240,0.860,-85.120,408.240,-146.790
159751700,-0.799,0.066,1.072,-115.710,346.920,-147.280
159751720,-0.760,0.106,0.993,-64.890,373.450,-153.790
159751739,-0.984,0.255,0.761,-58.240,399.140,-172.060
159751759,-1.381,0.279,0.759,-68.950,413.770,-175.420
159751783,-1.676,-0.065,1.010,-103.460,366.310,-157.080
159751803,-1.649,-0.324,1.111,-83.510,370.300,-141.960
159751822,-1.762,-0.199,0.900,-73.430,356.440,-138.950
159751843,-1.918,-0.253,0.715,-90.160,339.500,-135.240
159751862,-1.912,-0.319,0.719,-66.080,297.430,-131.390
159751887,-1.803,-0.296,0.698,-32.900,269.570,-112.140
159751907,-1.743,-0.272,0.672,-10.850,248.080,-96.950
159751923,-1.736,-0.202,0.672,-14.910,213.990,-82.880
159751943,-1.538,-0.087,0.715,-30.520,183.190,-55.580
159751966,-1.392,-0.192,0.703,-61.950,143.360,-30.800
159751989,-1.294,-0.341,0.703,-49.140,126.280,-16.450
159752007,-1.248,-0.333,0.859,-35.910,99.750,-5.110
159752026,-1.112,-0.380,0.929,-23.310,70.700,2.660
159752048,-1.031,-0.433,0.902,-5.180,47.390,6.720
159752068,-1.005,-0.450,0.876,4.760,21.000,0.910
159752087,-1.013,-0.422,0.940,14.210,-3.640,-4.340
159752112,-1.026,-0.424,0.952,35.770,-37.940,-6.020
159752132,-1.094,-0.241,0.943,30.170,-67.130,-2.450
159752150,-1.148,-0.429,0.948,30.450,-89.600,6.160
159752173,-1.244,-0.545,0.924,79.170,-125.580,18.760
159752193,-1.358,-0.281,0.907,88.200,-161.000,34.650
159752213,-1.421,-0.291,0.883,57.890,-182.630,44.450
159752233,-1.442,-0.567,0.801,74.690,-204.260,49.350
159752252,-1.468,-0.579,0.805,111.580,-222.390,53.410
159752277,-1.602,-0.308,0.891,129.850,-243.250,61.740
159752292,-1.693,-0.202,1.014,101.010,-267.330,67.270
159752316,-1.690,-0.498,1.012,101.990,-277.690,71.540
159752332,-1.817,-0.340,0.968,139.580,-299.810,82.600
159752357,-1.932,-0.021,1.097,111.370,-332.990,107.170
159752377,-1.998,-0.156,1.148,108.640,-358.330,119.140
159752397,-1.929,-0.407,1.041,127.890,-382.200,122.430
159752413,-1.745,-0.246,0.801,192.150,-398.580,128.240
159752436,-1.414,0.127,0.789,178.640,-408.870,135.520
159752454,-1.160,0.150,0.757,150.990,-394.800,136.710
159752473,-0.953,0.125,0.730,108.640,-389.900,139.300
159752493,-0.665,-0.011,0.629,117.950,-368.550,129.920
159752518,-0.431,0.089,0.400,147.700,-335.300,121.660
159752533,-0.258,0.308,0.432,133.420,-328.790,117.320
159752558,-0.112,0.325,0.529,90.440,-286.440,102.410
159752578,-0.082,0.183,0.378,95.410,-271.460,94.780
159752598,0.123,0.267,0.283,115.360,-269.010,88.690
159752618,0.217,0.374,0.279,98.140,-221.270,86.170
159752642,0.079,0.329,0.289,82.600,-211.540,87.640
159752658,0.161,0.297,0.217,87.150,-208.390,89.670
159752682,0.324,0.299,0.184,70.980,-198.240,93.870
159752701,0.378,0.190,0.096,63.700,-174.580,97.650
159752720,0.380,0.107,-0.004,57.260,-167.930,95.130
159752739,0.447,0.114,-0.122,46.270,-160.440,90.720
159752759,0.525,0.078,-0.174,18.270,-158.340,81.270
159752780,0.632,-0.092,-0.228,14.980,-137.690,69.440
159752802,0.699,-0.098,-0.342,37.660,-115.150,58.520
159752824,0.772,-0.014,-0.372,41.370,-87.570,47.880
159752844,0.751,0.041,-0.422,23.100,-67.550,39.760
159752864,0.837,0.056,-0.421,3.220,-56.350,31.430
159752887,0.846,0.015,-0.390,-4.060,-30.940,20.160
159752908,0.841,0.050,-0.393,3.850,-22.540,9.450
159752926,0.918,0.103,-0.392,9.310,-11.830,1.890
159752946,0.905,0.152,-0.361,6.160,8.050,-2.800
159752968,0.864,0.145,-0.342,1.470,16.240,-5.670
159752988,0.912,0.154,-0.329,3.010,27.510,-8.610
159753009,0.880,0.145,-0.337,-0.490,51.800,-9.100
159753033,0.626,0.140,-0.380,-2.450,76.720,-10.080
159753051,0.656,0.122,-0.400,-8.960,96.040,-12.320
159753075,0.575,0.082,-0.427,-12.810,122.360,-11.550
159753093,0.557,0.080,-0.391,-18.130,175.770,-11.410
159753115,0.452,0.120,-0.383,-32.270,200.480,-12.040
159753134,0.388,0.116,-0.362,-54.250,233.240,-11.130
159753156,0.301,0.081,-0.293,-69.720,276.850,-14.210
159753180,0.126,0.030,-0.239,-75.320,315.630,-25.340
159753199,0.010,-0.038,-0.035,-66.290,331.940,-39.970
159753220,0.017,-0.027,0.146,-53.620,349.510,-54.250
159753244,-0.073,0.050,0.303,-41.510,370.090,-80.780
159753264,-0.316,0.139,0.333,-14.420,400.190,-108.920
159753280,-0.650,0.265,0.282,-5.390,409.080,-129.920
159753302,-0.877,0.391,0.646,-45.920,360.850,-141.470
159753322,-0.809,0.292,1.095,-90.580,351.470,-136.220
159753342,-0.838,0.070,1.031,-65.660,388.080,-162.120
159753366,-1.109,0.072,0.731,-1.260,402.150,-195.510
159753386,-1.458,0.318,0.749,-38.920,396.410,-196.630
159753402,-1.594,0.080,1.077,-110.040,406.910,-188.930
159753421,-1.647,-0.563,1.056,-93.520,429.310,-179.970
159753446,-1.959,-0.628,0.713,-14.490,466.900,-201.180
159753466,-2.479,-0.366,0.597,28.490,431.060,-223.160
159753486,-2.667,-0.307,0.822,27.440,367.360,-228.060
159753506,-2.350,-0.416,0.979,44.730,337.610,-214.200
159753528,-2.221,-0.307,0.696,81.410,300.720,-188.790
159753552,-2.137,-0.153,0.741,82.110,250.040,-152.460
159753572,-1.897,-0.046,0.955,70.420,208.880,-115.850
159753592,-1.619,0.000,1.041,51.940,173.950,-85.190
159753612,-1.492,0.017,1.065,44.170,129.570,-60.690
159753632,-1.292,0.130,1.084,28.140,101.290,-42.630
159753652,-1.234,0.264,1.080,4.620,70.420,-31.430
159753672,-1.123,0.216,1.054,-39.060,34.510,-24.080
159753692,-1.056,0.046,1.013,-39.200,3.010,-14.420
159753712,-0.998,-0.100,0.940,-16.240,-19.110,-7.630
159753731,-1.019,-0.021,0.845,11.620,-40.320,0.770
159753751,-1.044,0.122,0.805,6.230,-60.410,11.900
159753774,-1.131,0.148,0.794,-16.100,-86.170,24.010
159753795,-1.138,0.033,0.797,-21.490,-101.640,32.760
159753815,-1.289,-0.011,0.835,-8.610,-122.500,40.600
159753834,-1.423,0.007,0.917,-9.310,-143.290,50.400
159753856,-1.558,-0.154,0.976,-10.430,-170.520,66.990
159753880,-1.667,-0.408,0.888,21.000,-189.980,87.850
159753895,-1.715,-0.507,0.867,61.460,-216.720,100.240
159753917,-1.791,-0.571,0.852,88.550,-229.950,115.850
159753937,-1.943,-0.549,0.936,118.720,-254.310,139.300
159753960,-1.997,-0.397,1.025,138.530,-280.770,167.300
159753984,-2.016,-0.314,0.975,134.680,-296.730,197.400
159754004,-2.040,-0.356,0.952,150.850,-307.370,217.980
159754022,-2.088,-0.346,0.908,190.610,-319.550,241.360
159754045,-1.970,0.013,0.786,224.420,-338.660,264.950
159754066,-1.817,0.395,0.808,173.390,-348.460,280.350
159754085,-1.704,0.285,0.725,131.810,-344.120,280.000
159754108,-1.467,0.157,0.622,123.690,-359.730,282.380
159754125,-1.095,0.154,0.431,115.990,-351.260,275.730
159754148,-0.730,0.245,0.327,103.880,-337.330,247.520
159754168,-0.449,0.247,0.294,76.300,-313.040,226.450
159754187,-0.274,0.192,0.232,51.590,-299.320,204.120
159754207,-0.106,0.147,0.250,37.800,-266.980,184.240
159754231,-0.100,0.112,0.130,40.110,-242.270,161.700
159754251,-0.015,0.055,0.028,53.060,-233.240,146.160
159754271,0.179,0.065,0.001,73.360,-224.280,134.890
159754295,0.208,0.121,-0.041,69.370,-177.240,128.310
159754319,0.241,0.082,-0.104,45.500,-190.120,116.900
159754339,0.443,0.011,-0.127,24.010,-184.450,103.950
159754359,0.608,-0.072,-0.190,10.080,-138.320,93.450
159754376,0.635,-0.120,-0.209,15.260,-121.380,81.970
159754399,0.730,-0.066,-0.235,16.730,-107.870,67.270
159754416,0.807,-0.024,-0.292,12.600,-82.880,53.060
159754440,0.876,-0.035,-0.347,13.510,-73.990,39.690
159754460,1.022,-0.051,-0.335,4.830,-20.230,31.010
159754479,0.896,0.021,-0.291,-11.410,-0.420,20.790
159754500,0.918,0.035,-0.277,-25.830,6.790,11.970
159754524,0.928,0.022,-0.264,-24.920,33.040,3.010
159754541,0.860,0.045,-0.199,-24.850,45.640,-2.450
159754565,0.810,0.043,-0.159,-29.120,48.930,-10.500
159754585,0.816,0.048,-0.138,-27.230,57.820,-16.660
159754605,0.824,0.063,-0.153,-18.550,74.830,-21.910
159754625,0.723,0.076,-0.170,-12.810,93.660,-26.390
159754647,0.620,0.083,-0.152,-10.290,120.330,-31.570
159754666,0.487,0.104,-0.146,-20.440,144.130,-34.860
159754691,0.357,0.036,-0.138,-34.580,178.710,-41.160
159754711,0.242,-0.003,-0.133,-37.100,207.200,-48.440
159754735,0.130,-0.038,-0.116,-35.210,251.860,-63.210
159754755,0.021,-0.048,-0.155,-30.870,280.700,-76.510
159754771,-0.040,-0.001,-0.152,-28.700,308.420,-89.950
159754790,-0.103,0.072,0.017,-44.660,348.600,-103.390
159754815,-0.324,0.100,0.289,-67.270,387.660,-117.530
159754831,-0.587,0.079,0.369,-54.390,385.420,-140.420
159754855,-0.646,0.269,0.383,-29.050,390.040,-167.860
159754873,-0.864,0.576,0.654,-107.310,378.490,-184.660
159754894,-0.935,0.395,0.788,-183.890,384.160,-178.290
159754914,-0.959,-0.135,0.389,-132.720,460.880,-192.780
159754935,-1.633,0.027,0.416,-58.590,499.870,-198.310
159754958,-2.267,-0.114,0.984,-168.490,435.330,-195.510
159754978,-2.176,-0.883,0.897,-73.640,464.800,-177.450
159755002,-2.547,-0.604,0.649,47.740,452.060,-202.930
159755022,-2.746,-0.376,0.650,46.480,406.350,-206.150
159755042,-2.720,-0.318,0.823,29.750,353.920,-196.000
159755062,-2.437,-0.409,0.812,42.000,331.660,-179.130
159755080,-2.378,-0.323,0.662,60.970,299.740,-166.040
159755104,-2.204,-0.205,0.752,58.730,246.960,-143.150
159755123,-1.924,-0.089,0.982,56.140,208.670,-120.050
159755144,-1.703,0.030,1.182,7.840,173.250,-92.260
159755164,-1.393,0.051,1.303,-49.700,135.380,-69.650
159755184,-1.308,-0.006,1.304,-48.230,116.620,-53.690
159755208,-1.206,-0.220,1.239,-27.510,83.930,-26.670
159755227,-1.066,-0.262,1.158,26.250,50.680,-14.000
159755245,-0.983,-0.131,1.005,71.890,25.690,-0.630
159755268,-0.924,0.016,0.957,97.510,-1.820,13.510
159755289,-0.981,0.132,0.772,95.690,-39.620,33.670
159755309,-1.056,0.207,0.609,86.100,-63.980,54.250
159755328,-1.108,0.298,0.528,63.000,-91.700,67.690
159755352,-1.137,0.263,0.567,30.730,-113.120,80.360
159755372,-1.236,0.187,0.589,11.200,-132.090,87.990
159755389,-1.423,0.200,0.717,-5.530,-149.310,93.030
159755413,-1.542,0.098,0.757,-14.560,-164.570,107.520
159755433,-1.780,0.031,0.781,4.410,-187.950,130.760
159755448,-1.871,0.025,0.868,-8.050,-204.400,153.650
159755468,-2.020,-0.168,0.903,-9.660,-222.320,178.920
159755488,-2.141,-0.311,0.874,13.860,-246.890,206.290
159755513,-2.193,-0.327,0.783,55.300,-270.550,227.570
159755532,-2.156,-0.105,0.875,66.430,-298.480,242.900
159755552,-2.074,-0.020,0.945,65.170,-310.170,249.200
159755572,-2.084,0.052,0.945,60.060,-317.310,253.680
159755592,-2.048,0.066,0.905,69.160,-329.210,257.180
159755611,-1.840,0.206,0.871,69.860,-348.600,257.180
159755636,-1.645,0.219,0.792,71.610,-346.850,253.610
159755655,-1.426,0.307,0.732,73.780,-352.590,248.570
159755675,-1.158,0.282,0.719,77.140,-346.080,241.220
159755699,-1.015,0.401,0.574,45.920,-330.680,213.640
159755717,-0.824,0.268,0.366,10.500,-334.390,194.530
159755739,-0.483,0.052,0.222,17.150,-325.640,166.040
159755756,-0.384,0.044,0.124,52.710,-301.210,160.720
159755776,-0.337,0.199,0.100,74.270,-295.120,146.930
159755800,-0.253,0.225,0.074,52.150,-278.390,132.440
159755820,-0.181,0.103,-0.014,33.950,-280.700,122.220
159755839,-0.024,0.003,-0.091,46.620,-277.340,118.510
159755859,0.185,-0.019,-0.080,44.310,-238.140,109.760
159755880,0.227,-0.032,-0.124,46.340,-223.440,103.040
159755900,0.509,-0.034,-0.218,36.960,-224.980,93.520
159755916,0.726,-0.107,-0.207,55.020,-190.820,88.620
159755940,0.801,-0.075,-0.101,90.790,-102.060,81.410
159755957,0.804,-0.005,-0.315,102.550,-96.880,82.880
159755978,1.121,0.041,-0.554,88.410,-85.820,65.240
159756000,1.249,0.052,-0.514,48.440,-8.960,57.330
159756024,1.013,0.043,-0.354,-5.950,21.910,47.740
159756044,0.950,-0.025,-0.226,-24.080,31.220,36.400
159756064,0.917,-0.056,-0.144,-17.990,48.440,21.910
159756079,0.788,-0.053,-0.142,-16.450,50.260,16.520
159756104,0.751,-0.105,-0.178,-13.510,52.640,-1.260
159756119,0.737,-0.105,-0.224,-3.850,61.950,-7.770
159756140,0.683,-0.073,-0.233,-1.470,82.530,-12.880
159756159,0.589,-0.052,-0.225,-9.520,104.580,-21.770
159756184,0.517,-0.073,-0.251,-21.980,128.520,-31.360
159756204,0.486,-0.108,-0.227,-26.250,159.390,-40.390
159756224,0.391,-0.151,-0.170,-25.550,183.470,-54.810
159756241,0.251,-0.179,-0.069,-15.890,208.740,-67.830
159756265,-0.028,-0.180,0.047,2.030,225.400,-84.280
159756284,-0.103,-0.063,0.081,30.170,196.280,-109.060
159756309,0.143,0.098,0.295,17.850,206.780,-137.550
159756328,0.056,0.106,0.280,24.150,249.690,-158.200
159756348,-0.191,0.133,0.303,53.340,273.700,-189.070
159756368,-0.308,0.328,0.482,40.390,268.800,-219.870
159756389,-0.346,0.398,0.492,22.540,283.150,-246.330
159756406,-0.438,0.454,0.613,6.440,299.880,-269.640
159756426,-0.734,0.603,1.074,-37.940,287.350,-287.350
159756450,-0.717,0.774,1.135,-34.370,287.140,-298.550
159756469,-0.804,0.915,0.817,-46.620,344.190,-307.860
159756490,-1.297,0.773,1.223,-155.330,297.430,-295.680
159756507,-1.045,0.481,1.545,-150.780,288.260,-276.080
159756525,-1.197,0.439,1.222,-124.390,326.760,-267.400
159756545,-1.454,0.411,0.971,-132.510,354.060,-253.680
159756570,-1.678,0.030,1.306,-175.630,296.520,-221.060
159756589,-1.483,-0.406,1.279,-94.850,305.900,-201.250
159756608,-1.656,-0.113,1.140,-49.140,292.040,-193.340
159756628,-1.834,0.064,0.952,-67.760,257.040,-176.890
159756647,-1.771,0.107,0.915,-84.910,209.720,-153.790
159756672,-1.612,0.125,0.869,-108.710,179.620,-105.630
159756692,-1.430,-0.088,0.804,-119.000,144.620,-71.260
159756712,-1.163,-0.183,0.691,-96.810,126.910,-49.700
159756736,-1.160,-0.039,0.683,-107.240,105.630,-25.130
159756756,-1.139,-0.111,0.725,-136.640,79.940,-13.860
159756775,-1.037,-0.375,0.738,-115.220,60.200,-9.450
159756799,-0.960,-0.650,0.685,9.310,45.780,-9.450
159756817,-0.981,-0.405,0.683,49.350,29.750,-9.170
159756837,-1.013,-0.104,0.714,48.300,9.380,-2.660
159756861,-1.018,-0.194,0.717,31.290,-8.050,8.470
159756881,-0.987,-0.378,0.579,63.980,-31.640,13.160
159756901,-0.990,-0.218,0.596,73.150,-46.060,18.340
159756921,-1.037,-0.214,0.645,73.430,-61.530,24.710
159756941,-1.107,-0.125,0.658,78.470,-83.160,34.580
159756965,-1.152,-0.043,0.712,55.300,-102.550,55.230
159756980,-1.205,-0.200,0.757,33.880,-122.920,65.940
159757005,-1.262,-0.409,0.839,67.410,-144.200,83.440
159757022,-1.377,-0.217,0.952,99.750,-174.230,98.700
159757042,-1.479,-0.057,1.118,80.360,-199.080,116.060
159757062,-1.559,-0.222,1.226,86.800,-229.810,126.000
159757082,-1.589,-0.186,1.128,123.900,-264.460,142.240
159757105,-1.612,0.091,1.162,118.510,-300.090,158.130
159757128,-1.618,-0.017,1.210,127.750,-319.060,168.560
159757149,-1.564,0.031,1.108,160.300,-333.760,180.600
159757172,-1.358,0.038,0.959,208.110,-324.450,205.100
159757192,-1.213,0.082,0.845,292.880,-300.510,237.300
159757208,-1.049,0.296,0.730,351.750,-275.450,266.490
159757229,-0.943,0.733,0.609,366.940,-259.210,292.880
159757253,-0.751,1.050,0.538,245.700,-237.090,306.740
159757272,-0.574,0.904,0.520,177.240,-207.900,307.370
159757289,-0.527,0.725,0.460,124.180,-207.340,298.760
159757313,-0.381,0.649,0.392,69.720,-216.230,268.520
159757333,-0.161,0.602,0.337,20.860,-212.940,241.990
159757348,-0.119,0.590,0.305,-20.300,-201.600,223.370
159757372,-0.095,0.446,0.228,-59.640,-212.870,188.300
159757393,0.045,0.256,0.194,-49.070,-223.090,161.770
159757413,0.259,0.235,0.231,-22.750,-201.810,145.670
159757433,0.316,0.259,0.088,-13.020,-173.670,131.600
159757451,0.336,0.214,0.018,-3.990,-159.250,120.050
159757473,0.375,0.198,0.058,2.800,-140.980,110.670
159757492,0.396,0.194,0.025,4.060,-123.690,103.950
159757513,0.507,0.167,-0.041,3.220,-108.500,96.600
159757532,0.551,0.161,-0.111,-9.310,-87.710,82.530
159757551,0.605,0.001,-0.123,-21.140,-81.760,70.700
159757576,0.762,-0.042,-0.160,-8.680,-71.330,53.970
159757593,0.853,0.016,-0.139,-11.130,-39.130,41.650
159757614,0.773,0.047,-0.130,-18.550,-24.920,30.170
159757634,0.848,0.077,-0.150,-14.700,-23.520,19.530
159757658,0.929,0.117,-0.114,-6.230,-6.230,9.100
159757678,0.925,0.179,-0.086,-7.630,3.570,5.600
159757693,0.930,0.194,-0.085,-6.580,7.840,0.280
159757717,0.949,0.239,-0.069,-7.420,10.010,-5.250
159757736,0.963,0.255,-0.031,-16.450,14.700,-5.530
159757760,0.935,0.211,-0.019,-16.660,16.450,-10.990
159757780,0.963,0.216,-0.017,-6.930,14.280,-14.350
159757800,0.966,0.265,-0.025,-1.190,22.680,-16.100
159757820,0.928,0.282,-0.057,-1.190,31.500,-17.080
159757840,0.851,0.270,-0.100,0.700,44.310,-17.850
159757858,0.747,0.278,-0.141,2.800,68.950,-19.110
159757880,0.621,0.275,-0.126,-12.460,93.870,-19.670
159757900,0.529,0.235,-0.133,-36.750,118.580,-19.110
159757924,0.457,0.136,-0.190,-54.530,152.950,-24.290
159757942,0.360,0.087,-0.223,-61.180,179.270,-32.060
159757961,0.246,0.027,-0.239,-59.920,211.120,-40.390
159757981,0.156,0.055,-0.203,-48.090,246.890,-51.520
159758005,0.021,0.103,-0.077,-53.760,287.840,-66.850
159758029,-0.100,0.084,0.088,-58.800,306.110,-93.800
159758048,-0.129,0.043,0.221,-62.230,310.940,-118.510
159758068,-0.100,0.130,0.318,-45.220,324.870,-142.170
159758092,-0.255,0.273,0.356,-37.100,385.210,-168.910
159758112,-0.710,0.386,0.776,-93.520,384.650,-177.940
159758131,-0.860,0.388,1.117,-122.850,308.070,-186.550
159758150,-0.565,0.181,1.199,-95.270,358.610,-196.700
159758175,-0.919,0.048,0.854,-40.320,410.900,-228.760
159758193,-1.509,0.183,0.903,-43.750,384.510,-233.940
159758215,-1.521,0.117,1.474,-61.950,361.480,-215.950
159758235,-1.607,-0.119,1.363,-13.440,364.910,-208.950
159758251,-1.771,0.021,1.169,-0.490,358.260,-213.710
159758272,-1.903,0.015,1.023,-13.300,344.750,-220.360
159758291,-1.971,-0.090,0.977,-1.260,315.700,-220.640
159758311,-1.945,-0.071,0.936,22.750,286.160,-206.850
159758336,-1.870,-0.031,0.893,20.020,248.150,-175.140
159758355,-1.716,-0.132,0.932,21.980,202.510,-148.610
159758381,-1.506,-0.103,0.885,49.630,160.930,-111.930
159758400,-1.387,0.003,0.888,44.310,125.930,-87.500
159758420,-1.281,0.020,0.851,24.850,99.120,-64.190
159758444,-1.152,0.087,0.815,1.820,72.310,-43.330
159758462,-1.090,0.141,0.842,-30.870,47.670,-34.230
159758486,-1.047,0.146,0.854,-61.320,21.560,-21.700
159758506,-0.969,0.096,0.812,-69.440,5.180,-14.350
159758522,-0.911,0.007,0.777,-67.480,-9.730,-9.380
159758546,-0.854,-0.070,0.771,-55.790,-24.990,-4.830
159758566,-0.857,-0.153,0.767,-12.250,-34.370,-6.860
159758585,-1.042,-0.028,0.703,18.410,-52.080,-4.900
159758609,-1.123,0.057,0.730,26.670,-75.810,7.350
159758633,-1.191,0.031,0.714,19.950,-95.130,30.100
159758653,-1.227,-0.095,0.714,25.060,-118.370,49.630
159758673,-1.294,-0.217,0.686,44.730,-137.270,65.100
159758692,-1.366,-0.232,0.681,61.530,-156.730,79.660
159758713,-1.407,-0.183,0.741,47.110,-180.670,95.900
159758728,-1.468,-0.258,0.754,38.220,-193.970,105.910
159758748,-1.528,-0.407,0.762,53.970,-212.170,117.250
159758773,-1.627,-0.329,0.731,90.230,-241.990,132.160
159758793,-1.607,-0.230,0.805,92.610,-260.540,146.160
159758813,-1.632,-0.290,0.872,116.550,-275.800,159.950
159758833,-1.638,-0.145,0.852,137.760,-292.740,173.250
159758851,-1.570,0.158,0.921,121.030,-315.070,183.400
159758869,-1.448,0.183,0.971,88.970,-327.670,189.350
159758893,-1.299,0.134,1.002,88.480,-335.440,199.080
159758913,-1.157,0.189,0.970,101.710,-339.570,208.530
159758932,-0.812,0.273,0.783,112.770,-335.370,210.980
159758953,-0.555,0.319,0.656,113.470,-327.040,211.400
159758972,-0.359,0.498,0.702,82.600,-318.640,208.180
159758993,-0.183,0.468,0.567,25.480,-278.390,195.930
159759013,-0.091,0.249,0.522,17.990,-268.730,180.110
159759032,0.064,0.185,0.458,23.520,-256.270,161.420
159759056,0.225,0.143,0.407,25.200,-245.490,137.900
159759073,0.308,0.181,0.387,28.280,-216.160,122.220
159759093,0.318,0.235,0.435,14.490,-205.520,106.330
159759113,0.368,0.160,0.446,2.730,-194.530,92.680
159759138,0.480,0.123,0.387,16.520,-189.280,75.740
159759157,0.611,0.163,0.339,32.060,-182.840,65.660
159759176,0.707,0.171,0.371,27.790,-155.890,57.120
159759197,0.694,0.155,0.376,33.880,-145.460,49.140
159759217,0.730,0.190,0.254,40.740,-144.830,42.350
159759241,0.775,0.220,0.243,34.580,-124.600,38.290
159759261,0.730,0.139,0.154,40.670,-115.080,35.140
159759281,0.756,0.167,0.104,46.340,-110.460,32.130
159759305,0.746,0.190,0.096,46.550,-88.480,31.710
159759320,0.662,0.178,0.021,35.980,-84.770,30.100
159759345,0.686,0.140,-0.083,25.410,-86.590,26.180
159759361,0.813,0.100,-0.111,23.940,-67.970,26.810
159759385,0.772,0.116,-0.123,21.560,-50.960,24.150
159759405,0.748,0.117,-0.153,8.680,-44.240,18.130
159759425,0.837,0.051,-0.193,19.530,-40.250,15.400
159759444,0.905,0.084,-0.178,14.770,-6.510,13.580
159759464,0.827,0.081,-0.154,9.660,-0.210,10.430
159759487,0.914,0.118,-0.135,6.300,6.370,6.860
159759508,0.915,0.123,-0.113,0.000,26.880,3.570
159759528,0.875,0.096,-0.100,-4.970,26.530,0.980
159759546,0.931,0.070,-0.098,0.420,37.380,-2.520
159759568,0.879,0.090,-0.106,5.670,52.920,-5.810
159759587,0.776,0.128,-0.141,1.960,70.000,-6.650
159759608,0.710,0.107,-0.074,-11.340,83.860,-7.280
159759632,0.673,0.074,-0.071,-22.680,105.280,-8.540
159759652,0.622,0.036,-0.094,-23.100,129.920,-9.310
159759670,0.556,0.030,-0.046,-26.950,148.050,-10.360
159759690,0.487,0.020,0.002,-35.770,170.310,-8.260
159759709,0.443,0.025,0.113,-47.670,183.330,-9.800
159759734,0.504,-0.005,0.230,-55.440,201.950,-12.390
159759753,0.457,0.027,0.269,-47.600,224.350,-17.500
159759774,0.338,0.184,0.280,-70.350,230.160,-23.520
159759794,0.411,0.256,0.243,-117.320,236.810,-26.740
159759814,0.409,0.049,0.515,-134.820,274.470,-23.030
159759838,0.219,-0.108,0.671,-83.020,291.130,-26.390
159759861,0.142,0.147,0.587,-7.280,316.470,-38.010
159759882,-0.224,0.421,0.793,-45.430,320.390,-50.400
159759901,-0.294,0.001,1.143,-61.460,282.240,-48.510
159759921,-0.214,0.069,1.049,-9.240,262.220,-59.150
159759944,-0.233,0.255,0.829,14.840,273.560,-79.450
159759965,-0.619,0.264,1.025,17.640,282.170,-101.360
159759989,-0.565,0.070,1.370,19.460,242.550,-100.030
159760009,-0.533,0.074,1.291,56.700,257.320,-106.120
159760029,-0.580,0.099,0.936,75.320,278.810,-130.550
159760048,-0.767,0.133,0.810,94.080,293.020,-151.900
159760070,-1.091,0.158,1.063,48.300,247.590,-159.460
159760091,-0.833,-0.033,1.183,51.450,270.480,-151.480
159760114,-0.993,-0.097,0.917,72.030,290.220,-155.120
159760138,-1.209,0.002,0.764,72.940,301.420,-172.900
159760158,-1.487,0.131,0.781,21.000,259.770,-177.870
159760178,-1.473,0.009,0.864,6.370,254.520,-169.890
159760197,-1.533,-0.084,0.924,-1.190,237.510,-150.990
159760217,-1.559,0.110,0.942,-46.480,198.660,-120.260
159760241,-1.387,0.249,1.110,-150.360,146.790,-78.820
159760261,-1.348,-0.229,1.132,-219.380,119.420,-46.480
159760281,-1.289,-0.649,0.919,-157.640,83.860,-29.400
159760305,-1.132,-0.603,0.754,-71.260,49.070,-20.650
159760325,-1.030,-0.321,0.762,-26.600,33.110,-19.390
159760344,-0.941,-0.219,0.810,-34.230,10.080,-16.520
159760365,-0.934,-0.393,0.891,-11.410,-7.140,-21.490
159760384,-1.012,-0.253,0.833,41.370,-35.910,-22.120
159760406,-1.023,0.014,0.847,32.340,-55.860,-15.540
159760426,-1.082,-0.145,0.935,19.040,-72.310,-12.740
159760449,-1.168,-0.380,0.892,65.590,-97.020,0.070
159760466,-1.175,-0.312,0.852,107.800,-119.000,8.820
159760490,-1.177,-0.103,0.797,107.240,-135.380,31.010
159760511,-1.270,-0.096,0.813,76.020,-147.840,45.710
159760530,-1.351,-0.276,0.873,97.020,-163.730,52.150
159760549,-1.451,-0.191,0.910,126.420,-187.880,66.220
159760569,-1.527,-0.099,0.951,142.800,-219.520,85.540
159760590,-1.523,-0.294,0.826,179.620,-237.020,102.550
159760614,-1.542,-0.137,0.656,178.430,-289.030,128.240
159760634,-1.331,-0.026,0.754,166.460,-304.640,143.360
159760651,-1.225,0.069,0.987,156.870,-314.580,152.950
159760671,-1.168,0.177,1.081,143.990,-320.110,159.110
159760692,-1.078,0.277,1.071,132.510,-323.540,168.910
159760715,-0.852,0.215,0.971,118.860,-332.080,171.990
159760739,-0.470,0.233,0.892,116.620,-322.770,174.440
159760759,-0.306,0.317,0.813,103.110,-293.860,162.400
159760779,-0.223,0.368,0.621,83.580,-293.020,151.480
159760798,-0.067,0.361,0.657,45.430,-262.710,137.690
159760818,-0.046,0.248,0.549,38.430,-242.620,121.030
159760838,-0.012,0.339,0.482,48.020,-220.080,116.060
159760858,-0.043,0.371,0.554,31.430,-214.690,107.100
159760882,0.043,0.329,0.514,33.670,-209.580,99.400
159760902,0.172,0.305,0.453,45.360,-200.620,96.530
159760921,0.287,0.290,0.429,50.470,-187.110,92.890
159760941,0.346,0.304,0.457,57.400,-187.390,89.880
159760962,0.415,0.355,0.470,56.280,-176.050,87.220
159760981,0.519,0.276,0.398,55.300,-189.560,79.310
159761005,0.700,0.233,0.302,53.130,-176.330,71.610
159761024,0.716,0.201,0.219,47.880,-160.300,68.180
159761044,0.718,0.186,0.161,46.970,-154.000,61.180
159761063,0.747,0.200,0.135,48.580,-139.160,57.470
159761087,0.716,0.184,-0.008,37.030,-130.900,50.820
159761105,0.779,0.142,-0.093,35.000,-123.830,46.340
159761124,0.854,0.120,-0.182,42.770,-100.310,44.380
159761146,0.838,0.156,-0.239,41.230,-71.330,41.370
159761166,0.837,0.151,-0.212,29.820,-58.030,39.970
159761186,0.867,0.151,-0.199,23.170,-40.040,35.420
159761210,0.881,0.161,-0.214,13.580,-25.480,30.030
159761231,0.904,0.099,-0.233,8.960,-12.040,28.420
159761250,0.923,0.090,-0.207,12.180,6.300,25.060
159761270,0.871,0.140,-0.148,1.610,15.260,21.630
159761291,0.867,0.102,-0.121,-7.770,16.030,17.640
159761310,0.904,0.092,-0.114,-5.600,20.440,12.390
159761330,0.889,0.091,-0.084,-5.320,31.220,6.930
159761348,0.862,0.063,-0.075,-11.270,31.640,1.750
159761370,0.872,0.018,-0.044,-5.040,33.600,-6.230
159761390,0.899,0.082,-0.017,0.280,36.260,-10.500
159761414,0.898,0.092,0.029,-8.330,42.980,-16.800
159761434,0.860,0.052,0.023,-9.800,44.030,-23.730
159761453,0.867,0.086,0.006,-4.830,50.190,-27.790
159761477,0.810,0.122,-0.018,0.420,71.260,-31.920
159761497,0.710,0.166,-0.054,2.450,89.670,-33.880
159761516,0.597,0.199,-0.067,0.630,112.490,-34.650
159761536,0.525,0.234,-0.105,-11.760,133.560,-32.480
159761555,0.496,0.216,-0.121,-26.880,165.830,-31.640
159761577,0.365,0.159,-0.122,-36.820,211.190,-34.510
159761599,0.207,0.068,-0.053,-37.730,230.160,-45.360
159761619,0.203,0.052,-0.013,-26.040,268.380,-56.630
159761643,0.136,0.245,0.039,-11.900,338.380,-74.340
159761663,-0.024,0.181,0.160,-10.640,353.780,-93.170
159761683,-0.164,0.176,0.463,-14.630,361.620,-111.300
159761699,-0.280,0.217,0.665,-35.770,346.920,-130.130
159761722,-0.154,0.317,0.598,-26.110,366.030,-166.600
159761744,-0.373,0.397,0.618,-47.810,426.230,-192.920
159761766,-0.834,0.259,1.027,-115.220,385.980,-189.140
159761790,-0.828,0.094,1.208,-87.920,395.500,-199.990
159761806,-1.030,-0.009,0.909,-59.150,415.240,-215.180
159761831,-1.326,-0.086,0.610,-34.230,442.540,-247.380
159761850,-1.723,-0.114,0.562,-11.270,422.310,-255.010
159761870,-1.935,-0.098,0.699,-19.320,415.240,-245.840
159761889,-2.222,-0.239,0.929,-28.840,407.260,-235.620
159761910,-2.488,-0.424,1.121,23.030,358.750,-219.660
159761930,-2.417,-0.244,1.024,63.630,315.210,-211.400
159761950,-2.181,-0.061,0.834,101.360,255.990,-192.500
159761970,-1.993,0.028,0.756,111.790,204.330,-160.860
159761987,-1.664,-0.210,0.819,121.590,180.110,-131.180
159762011,-1.559,-0.307,0.670,188.300,162.680,-86.800
159762031,-1.451,-0.142,0.625,245.280,119.630,-64.680
159762050,-1.211,0.178,0.656,268.730,88.270,-43.120
159762074,-1.147,0.543,0.628,241.010,51.660,-26.320
159762094,-1.034,0.709,0.614,152.040,29.470,-0.770
159762113,-0.972,0.726,0.556,97.510,17.290,-7.980
159762131,-0.994,0.770,0.535,41.370,-6.440,-3.080
159762152,-0.982,0.799,0.522,-33.600,-28.630,8.750
159762173,-0.986,0.588,0.535,-101.640,-43.610,23.380
159762193,-1.034,0.301,0.466,-101.080,-56.560,33.460
159762217,-1.100,0.251,0.464,-91.980,-75.250,50.400
159762236,-1.143,0.116,0.529,-84.700,-85.960,68.040
159762256,-1.233,0.027,0.542,-51.100,-95.410,86.590
159762281,-1.318,0.063,0.572,-19.670,-112.980,116.480
159762296,-1.350,0.101,0.694,-25.200,-126.490,134.400
159762321,-1.394,-0.031,0.795,-25.410,-142.240,157.570
159762341,-1.519,-0.089,0.797,8.890,-167.090,178.850
159762361,-1.639,0.061,0.914,19.810,-194.460,213.920
159762376,-1.700,0.020,0.956,28.140,-213.710,208.880
159762396,-1.749,0.039,1.021,43.750,-244.510,223.510
159762421,-1.703,0.157,1.071,60.410,-267.260,237.160
159762441,-1.727,0.245,1.140,62.790,-290.360,248.920
159762461,-1.695,0.375,1.133,53.690,-316.260,258.650
159762481,-1.546,0.403,1.069,45.570,-329.560,268.240
159762503,-1.407,0.487,0.977,36.330,-346.780,265.860
159762525,-1.072,0.390,0.858,32.060,-349.090,258.230
159762544,-0.844,0.338,0.814,40.110,-347.060,244.510
159762565,-0.655,0.321,0.675,49.490,-335.790,216.580
159762585,-0.473,0.377,0.551,35.910,-317.380,214.900
159762603,-0.299,0.331,0.424,19.880,-301.140,192.710
159762627,-0.137,0.249,0.346,13.370,-281.820,168.840
159762647,-0.027,0.238,0.313,6.230,-264.950,145.320
159762663,0.123,0.205,0.272,9.660,-243.110,136.220
159762687,0.218,0.218,0.207,20.580,-221.760,112.280
159762706,0.254,0.252,0.161,19.600,-187.110,96.810
159762725,0.309,0.179,0.188,16.730,-181.790,86.660
159762744,0.490,0.174,0.209,24.570,-168.560,82.040
159762769,0.528,0.184,0.233,19.110,-136.360,66.850
159762789,0.523,0.150,0.140,26.180,-131.250,56.700
159762809,0.642,0.178,0.100,39.480,-134.330,49.420
159762827,0.751,0.177,0.131,31.290,-113.190,44.800
159762847,0.732,0.128,0.088,29.330,-91.980,42.560
159762868,0.761,0.138,0.040,33.880,-86.730,37.170
159762891,0.824,0.178,-0.000,26.110,-71.400,32.690
159762911,0.814,0.160,-0.022,14.980,-61.040,30.030
159762935,0.836,0.119,-0.039,16.870,-47.810,24.850
159762956,0.869,0.142,-0.035,16.940,-33.110,23.940
159762975,0.877,0.175,-0.063,9.310,-20.510,24.990
159762994,0.877,0.157,-0.085,-0.210,-9.240,22.960
159763014,0.881,0.111,-0.061,-3.990,-4.270,22.330
159763031,0.938,0.129,-0.038,0.000,2.660,20.300
159763054,0.942,0.150,-0.023,1.120,20.440,17.640
159763074,0.867,0.112,-0.005,0.840,23.660,15.330
159763093,0.914,0.111,0.036,1.470,17.640,10.640
159763115,0.953,0.145,0.086,-3.850,19.110,7.420
159763134,0.930,0.118,0.122,-8.960,15.680,4.410
159763156,0.947,0.072,0.123,0.630,9.240,-2.450
159763175,0.996,0.115,0.120,13.300,7.560,-5.740
159763195,0.998,0.176,0.088,14.350,13.020,-5.880
159763218,0.945,0.166,0.073,8.470,17.640,-5.530
159763237,0.913,0.161,0.063,3.850,23.310,-4.480
159763255,0.874,0.158,0.054,2.170,29.890,-3.150
159763277,0.825,0.153,0.013,3.010,46.130,-0.840
159763298,0.728,0.154,-0.014,2.100,64.750,1.330
159763322,0.632,0.144,-0.037,-1.190,83.650,2.100
159763341,0.553,0.146,-0.037,-12.740,94.430,4.130
159763363,0.575,0.121,-0.021,-21.840,121.310,5.390
159763379,0.514,0.061,-0.015,-15.400,143.710,3.360
159763402,0.378,0.059,0.050,-4.130,172.690,-4.970
159763423,0.285,0.097,0.115,2.380,181.580,-12.600
159763444,0.288,0.157,0.251,4.340,188.160,-20.020
159763463,0.300,0.178,0.269,27.510,217.560,-24.850
159763483,0.099,0.261,0.255,82.390,259.560,-37.240
159763503,-0.055,0.424,0.542,87.150,238.490,-54.180
159763518,0.135,0.409,0.631,107.940,241.570,-59.990
159763542,0.288,0.333,0.493,198.730,298.410,-81.970
159763565,-0.130,0.609,0.655,255.640,320.530,-132.510
159763584,-0.261,0.818,1.204,149.170,235.340,-177.940
159763609,0.003,0.644,1.174,138.670,234.150,-210.560
159763628,-0.119,0.639,0.865,154.840,226.240,-253.960
159763645,-0.250,0.722,0.706,131.530,220.640,-285.880
159763669,-0.427,0.750,1.020,63.560,188.580,-296.030
159763689,-0.355,0.697,1.048,50.540,184.240,-306.110
159763709,-0.379,0.618,0.851,54.880,197.610,-324.100
159763728,-0.600,0.765,0.886,45.710,214.410,-324.520
159763747,-0.917,0.875,0.912,-18.480,209.230,-310.170
159763765,-1.041,0.623,0.973,-58.870,198.310,-297.570
159763789,-1.022,0.297,0.991,-53.340,207.690,-280.630
159763809,-1.099,0.177,0.940,-22.890,224.350,-268.660
159763829,-1.309,0.123,0.884,3.920,234.010,-267.470
159763847,-1.650,0.012,0.846,39.620,214.130,-266.000
159763870,-1.856,0.047,0.746,87.500,169.680,-260.050
159763894,-1.873,0.113,0.584,112.210,123.480,-235.760
159763914,-1.725,0.228,0.473,125.720,70.700,-197.610
159763934,-1.555,0.366,0.405,110.180,40.530,-153.300
159763952,-1.350,0.488,0.372,73.500,20.510,-109.480
159763976,-1.213,0.495,0.339,31.360,5.670,-61.740
159763996,-1.151,0.462,0.293,-2.660,-3.220,-26.250
159764013,-1.099,0.501,0.309,-35.630,-20.930,-5.460
159764037,-1.012,0.371,0.365,-66.360,-27.790,17.150
159764061,-0.981,0.236,0.344,-45.150,-36.400,35.140
159764081,-0.950,0.254,0.359,-25.550,-43.400,43.330
159764101,-0.950,0.255,0.384,-14.490,-46.690,51.170
159764121,-1.001,0.300,0.386,-17.570,-52.570,57.680
159764138,-1.031,0.249,0.394,-23.100,-59.570,62.860
159764162,-1.038,0.191,0.370,-20.860,-64.540,70.770
159764182,-1.068,0.178,0.398,-21.280,-71.540,76.370
159764201,-1.102,0.183,0.467,-30.590,-77.560,84.420
159764223,-1.153,0.128,0.493,-37.240,-83.790,94.500
159764243,-1.217,0.144,0.499,-32.550,-92.610,102.410
159764267,-1.265,0.206,0.624,-51.100,-111.300,114.030
159764287,-1.331,0.096,0.637,-49.210,-125.230,123.900
159764307,-1.357,0.045,0.637,-17.570,-139.720,140.140
159764326,-1.330,0.110,0.704,8.400,-157.360,154.630
159764351,-1.286,0.144,0.787,29.050,-172.690,172.480
159764370,-1.273,0.214,0.876,42.350,-190.190,183.400
159764391,-1.267,0.409,0.894,29.400,-210.070,188.580
159764411,-1.149,0.410,0.945,11.130,-221.970,188.440
159764426,-1.045,0.302,0.908,29.330,-225.120,190.260
159764451,-0.919,0.358,0.838,49.000,-232.680,190.820
159764470,-0.749,0.415,0.810,47.880,-232.260,186.970
159764492,-0.608,0.421,0.775,47.390,-223.860,180.320
159764514,-0.465,0.431,0.769,40.390,-218.890,172.060
159764532,-0.371,0.463,0.747,30.380,-202.160,165.200
159764556,-0.341,0.463,0.665,20.090,-195.300,155.190
159764575,-0.244,0.461,0.683,18.410,-196.560,149.240
159764594,-0.101,0.450,0.722,20.510,-180.320,141.890
159764614,-0.026,0.478,0.716,18.690,-175.000,133.700
159764638,0.028,0.521,0.706,13.370,-168.000,126.280
159764657,0.113,0.471,0.665,11.620,-164.290,119.770
159764682,0.259,0.358,0.610,28.000,-168.000,110.740
159764701,0.452,0.416,0.607,42.420,-146.580,104.720
159764726,0.434,0.515,0.630,36.050,-136.430,98.980
159764743,0.455,0.486,0.559,22.260,-135.170,92.890
159764761,0.551,0.429,0.520,20.230,-136.570,89.320
159764780,0.623,0.427,0.508,20.510,-129.780,86.100
159764805,0.614,0.370,0.498,24.010,-113.750,78.960
159764825,0.623,0.361,0.480,32.060,-113.750,74.130
159764843,0.713,0.399,0.441,34.020,-118.090,69.790
159764865,0.793,0.386,0.466,23.170,-106.190,66.220
159764880,0.757,0.335,0.385,21.560,-102.620,62.230
159764900,0.752,0.311,0.333,27.090,-102.970,57.330
159764925,0.783,0.332,0.291,27.720,-97.230,51.870
159764945,0.795,0.334,0.260,21.420,-91.980,49.000
159764964,0.778,0.291,0.214,16.870,-86.100,46.130
159764985,0.813,0.272,0.186,15.680,-86.030,43.610
159765005,0.820,0.261,0.140,15.540,-86.660,43.260
159765029,0.857,0.226,0.104,13.090,-70.560,39.270
159765048,0.863,0.212,0.092,13.650,-60.130,37.660
159765069,0.883,0.230,0.099,4.690,-49.070,36.610
159765087,0.879,0.199,0.064,3.850,-47.040,33.600
159765108,0.868,0.207,0.051,5.670,-41.090,32.410
159765131,0.872,0.209,0.044,0.420,-37.030,31.850
159765149,0.874,0.183,0.038,-1.470,-33.320,30.800
159765171,0.870,0.178,0.036,3.010,-30.660,28.980
159765191,0.859,0.199,0.014,2.310,-29.680,28.070
159765210,0.903,0.167,-0.003,-3.850,-28.980,25.550
159765234,0.935,0.120,-0.019,1.960,-24.080,23.940
159765250,0.895,0.130,-0.004,8.820,-11.830,21.980
159765270,0.860,0.085,0.028,1.190,-15.260,20.300
159765290,0.942,0.061,-0.006,6.720,-17.570,18.340
159765312,0.945,0.111,-0.043,11.130,-7.000,15.820
159765330,0.892,0.142,-0.036,-0.840,-7.070,15.190
159765349,0.931,0.099,-0.020,-10.220,-7.630,14.140
159765374,0.952,0.066,-0.024,-5.600,3.150,9.380
159765390,0.903,0.056,-0.041,-1.890,2.590,6.650
159765413,0.929,0.058,-0.041,-0.140,3.710,2.450
159765432,0.899,0.038,-0.039,0.560,10.780,-1.190
159765457,0.851,0.034,-0.069,4.200,15.610,-7.070
159765475,0.763,0.041,-0.087,4.760,27.370,-10.920
159765496,0.669,0.016,-0.056,5.110,29.400,-12.040
159765519,0.757,0.049,-0.015,10.360,25.830,-10.850
159765538,0.824,0.126,0.029,4.410,47.110,-9.240
159765562,0.724,0.125,0.094,-17.220,50.960,-11.480
159765580,0.754,0.080,0.119,-15.680,28.280,-16.660
159765601,0.961,0.139,0.107,-8.120,39.480,-18.480
159765622,0.852,0.148,0.153,-19.460,69.090,-20.930
159765645,0.773,0.093,0.182,-21.560,41.930,-28.350
159765666,1.046,0.148,0.114,-2.660,50.050,-35.980
159765686,0.935,0.205,0.164,-3.780,79.660,-39.830
159765709,0.709,0.180,0.183,-11.130,75.530,-51.240
159765733,0.786,0.199,0.243,-8.750,55.720,-57.610
159765753,0.943,0.253,0.266,-7.840,84.280,-59.150
159765771,0.762,0.235,0.224,-6.230,107.450,-64.960
159765791,0.583,0.238,0.200,-4.690,118.930,-75.250
159765815,0.519,0.249,0.204,-10.010,106.960,-84.910
159765835,0.765,0.301,0.254,-19.810,145.880,-90.650
159765855,0.610,0.261,0.336,-30.310,190.330,-96.670
159765877,0.343,0.213,0.438,-40.180,194.250,-114.380
159765895,0.422,0.217,0.486,-43.330,172.200,-132.580
159765915,0.552,0.293,0.409,-12.810,219.030,-142.520
159765935,0.284,0.381,0.732,-23.100,244.790,-152.880
159765959,0.036,0.339,0.824,-53.480,204.680,-172.690
159765979,0.213,0.477,0.641,-18.900,222.880,-177.730
159766003,0.003,0.703,0.996,-53.410,235.200,-176.680
159766022,-0.095,0.518,1.167,-84.770,232.120,-175.910
159766042,-0.291,0.523,1.135,-58.380,228.480,-171.850
159766061,-0.380,0.704,0.990,-34.860,231.280,-167.860
159766085,-0.454,0.669,1.211,-56.490,218.120,-154.000
159766109,-0.424,0.439,1.237,-62.300,208.250,-143.290
159766127,-0.484,0.390,1.059,-33.670,205.450,-150.220
159766148,-0.579,0.451,0.893,-14.700,218.890,-159.950
159766167,-0.823,0.463,0.885,-6.580,221.830,-159.320
159766188,-0.935,0.357,0.890,-17.080,198.450,-153.300
159766212,-0.899,0.251,0.857,-11.200,192.220,-145.180
159766232,-0.923,0.213,0.734,3.150,199.850,-140.560
159766252,-1.047,0.199,0.710,12.180,206.780,-142.800
159766270,-1.150,0.154,0.694,20.720,199.500,-145.390
159766289,-1.211,0.072,0.633,42.840,189.070,-147.630
159766314,-1.212,0.073,0.582,85.750,177.800,-146.510
159766334,-1.265,0.144,0.612,94.710,167.510,-142.940
159766352,-1.301,0.174,0.585,88.480,149.520,-138.600
159766376,-1.284,0.215,0.551,68.810,117.110,-127.330
159766394,-1.234,0.300,0.513,46.830,92.050,-116.690
159766415,-1.197,0.334,0.545,4.760,76.930,-100.730
159766436,-1.167,0.285,0.545,-52.010,54.810,-80.710
159766456,-1.131,0.163,0.483,-34.160,39.620,-60.830
159766475,-1.080,0.095,0.527,-17.290,28.490,-44.590
159766496,-1.082,0.216,0.488,-10.710,11.970,-23.800
159766516,-1.001,0.160,0.480,-16.170,5.810,-7.840
159766532,-0.993,0.107,0.459,-2.170,-0.910,2.520
159766556,-0.975,0.129,0.427,19.880,-9.870,18.060
159766576,-0.982,0.180,0.413,24.640,-15.190,27.230
159766593,-1.001,0.188,0.380,26.110,-20.650,35.840
159766613,-1.014,0.233,0.346,22.820,-28.840,42.000
159766637,-1.012,0.236,0.327,5.460,-34.300,48.160
159766657,-1.048,0.147,0.308,0.420,-35.840,55.720
159766677,-1.078,0.059,0.267,24.010,-38.990,63.770
159766701,-1.092,0.101,0.256,59.920,-39.270,75.180
159766720,-1.086,0.189,0.231,58.730,-39.480,83.720
159766738,-1.104,0.213,0.216,47.110,-37.310,91.910
159766760,-1.116,0.212,0.214,34.580,-38.150,103.880
159766781,-1.138,0.214,0.197,13.300,-39.480,110.740
159766801,-1.106,0.212,0.194,-5.390,-41.090,116.550
159766825,-1.084,0.194,0.182,-24.290,-38.150,120.120
159766843,-1.088,0.167,0.202,-37.520,-37.800,121.100
159766861,-1.082,0.155,0.304,-47.110,-43.890,120.540
159766880,-1.046,0.138,0.301,-59.080,-48.580,118.580
159766904,-0.977,0.089,0.287,-59.150,-48.930,114.380
159766923,-1.004,0.102,0.341,-67.270,-49.420,111.090
159766943,-1.043,0.032,0.351,-77.350,-58.170,108.850
159766963,-1.001,-0.074,0.328,-68.460,-58.730,107.940
159766983,-1.026,-0.123,0.320,-50.120,-51.030,104.860
159767002,-1.115,-0.214,0.305,-35.280,-42.000,95.620
159767027,-0.954,-0.257,0.326,14.140,-45.850,80.220
159767047,-0.740,-0.129,0.351,41.090,-29.470,60.970
159767067,-0.636,-0.050,0.339,58.170,-14.070,37.310
159767091,-0.604,0.006,0.333,68.740,4.970,5.810
159767110,-0.663,0.054,0.282,69.370,11.270,-21.560
159767130,-0.631,0.089,0.234,70.840,14.210,-52.150
159767154,-0.596,0.131,0.209,66.920,25.900,-105.070
159767174,-0.591,0.167,0.204,57.960,37.870,-115.080
159767193,-0.624,0.181,0.239,48.230,50.960,-138.740
159767212,-0.711,0.176,0.233,41.090,59.920,-159.180
159767235,-0.743,0.207,0.255,40.740,68.460,-178.710
159767254,-0.769,0.255,0.302,30.450,72.660,-186.830
159767274,-0.863,0.261,0.352,3.080,75.390,-183.470
159767294,-1.026,0.210,0.342,-28.560,76.650,-185.780
159767314,-1.281,0.115,0.305,-57.120,85.610,-197.890
159767338,-1.602,-0.015,0.157,-53.130,96.880,-209.370
159767359,-1.911,-0.083,-0.024,-14.000,81.970,-213.780
159767379,-1.796,-0.026,-0.012,40.040,36.890,-209.440
159767399,-1.549,0.032,0.092,73.220,41.930,-184.870
159767423,-1.444,0.080,0.207,88.340,40.880,-149.380
159767441,-1.273,0.134,0.306,86.730,32.130,-125.230
159767462,-1.044,0.244,0.306,76.300,31.430,-100.450
159767485,-0.960,0.327,0.309,49.700,26.950,-76.440
159767501,-0.899,0.312,0.274,33.740,19.250,-64.470
159767525,-0.843,0.337,0.227,25.410,9.100,-48.090
159767544,-0.837,0.351,0.183,12.250,1.750,-36.750
159767566,-0.819,0.273,0.140,12.110,-8.960,-21.630
159767586,-0.792,0.220,0.157,19.040,-13.370,-5.880
159767610,-0.857,0.152,0.123,38.360,-15.540,14.490
159767626,-0.931,0.107,0.091,56.490,-18.970,30.520
159767650,-0.941,0.121,0.030,83.370,-14.770,53.550
159767669,-0.978,0.132,0.018,91.490,-9.170,74.130
159767694,-1.069,0.136,0.007,89.320,-5.460,92.680
159767714,-1.060,0.155,0.026,87.640,-5.110,103.110
159767738,-1.092,0.215,0.032,74.620,4.550,104.580
159767757,-1.155,0.232,0.023,54.530,7.910,97.300
159767781,-1.204,0.224,0.050,32.480,10.080,83.300
159767800,-1.210,0.221,0.067,7.280,6.860,70.210
159767821,-1.163,0.188,0.129,-21.770,8.540,50.260
159767839,-1.158,0.168,0.198,-44.450,3.360,29.470
159767863,-1.120,0.147,0.240,-81.130,-0.070,5.320
159767883,-1.116,-0.016,0.212,-82.390,7.910,-15.610
159767903,-1.210,-0.043,0.263,-79.870,-1.120,-27.230
159767921,-1.114,-0.001,0.376,-94.640,-8.050,-30.240
159767941,-1.097,-0.006,0.428,-122.430,3.220,-35.140
159767964,-1.434,-0.111,0.320,-146.230,9.100,-35.490
159767988,-1.539,-0.318,0.219,-141.260,-24.290,-21.280
159768011,-1.316,-0.343,0.251,-115.290,-42.420,4.270
159768032,-1.100,-0.396,0.264,-84.840,-45.710,31.920
159768047,-0.943,-0.542,0.269,-42.280,-47.810,50.610
159768067,-0.836,-0.466,0.287,9.310,-43.470,72.940
159768092,-0.935,-0.280,0.257,25.200,-47.600,90.580
159768110,-0.900,-0.322,0.230,12.250,-59.780,97.930
159768134,-0.817,-0.351,0.257,15.120,-66.220,101.010
159768153,-0.768,-0.222,0.225,12.320,-72.870,98.630
159768172,-0.601,-0.099,0.256,4.620,-76.020,94.710
159768192,-0.605,0.005,0.251,-18.480,-55.230,87.850
159768216,-0.609,-0.015,0.260,-47.880,-64.470,84.910
159768232,-0.497,-0.032,0.304,-60.130,-63.000,81.130
159768256,-0.447,-0.006,0.260,-65.870,-61.530,77.630
159768275,-0.494,0.044,0.282,-75.600,-45.710,74.130
159768300,-0.710,0.003,0.273,-91.070,-54.320,75.740
159768319,-0.800,-0.077,0.261,-92.120,-65.520,77.140
159768338,-0.935,-0.134,0.249,-81.060,-68.810,74.410
159768362,-1.123,-0.233,0.170,-56.980,-90.230,72.660
159768382,-1.101,-0.316,0.141,-0.630,-99.960,73.710
159768400,-1.028,-0.261,0.124,35.560,-97.020,74.270
159768424,-1.110,-0.167,0.132,45.920,-82.110,70.000
159768443,-1.105,-0.176,0.165,43.260,-83.580,62.790
159768460,-0.965,-0.146,0.158,52.710,-72.800,53.690
159768479,-0.852,-0.048,0.138,54.320,-65.170,34.090
159768499,-0.641,0.003,0.247,43.540,-54.180,14.140
159768524,-0.595,0.083,0.342,33.670,-24.570,-10.430
159768542,-0.681,0.125,0.360,26.530,-10.080,-30.030
159768561,-0.665,0.133,0.383,28.280,5.950,-48.370
159768586,-0.772,0.265,0.451,27.160,37.940,-75.390
159768604,-1.130,0.387,0.746,-11.340,41.510,-86.870
159768625,-1.201,0.363,0.803,-48.370,24.500,-86.520
159768644,-1.085,0.370,0.808,-60.200,12.180,-76.440
159768669,-0.902,0.338,0.809,-63.840,14.070,-65.380
159768689,-0.888,0.301,0.866,-62.300,17.990,-57.750
159768709,-0.822,0.273,0.856,-46.900,18.480,-53.970
159768725,-0.749,0.266,0.805,-26.110,22.540,-50.680
159768747,-0.695,0.333,0.879,-9.590,15.260,-44.310
159768771,-0.666,0.325,0.887,-6.930,23.170,-35.910
159768791,-0.723,0.334,0.803,10.360,22.750,-30.310
159768811,-0.744,0.413,0.752,18.690,25.060,-28.140
159768831,-0.852,0.348,0.717,11.550,31.500,-26.460
159768851,-0.908,0.257,0.674,23.940,24.780,-21.210
159768871,-0.834,0.189,0.559,35.910,30.240,-20.510
159768890,-1.212,0.313,0.740,17.080,83.650,-56.210
159768910,-2.043,0.015,0.297,-28.350,113.260,-91.140
159768934,-1.854,-0.508,0.158,40.180,-39.690,-80.710
159768949,-0.720,-0.277,0.405,58.730,-18.550,-77.000
159768972,-0.231,-0.127,0.569,40.600,82.950,-68.530
159768996,-0.953,-0.061,0.307,-46.480,126.070,-81.900
159769016,-1.338,-0.320,0.153,-86.800,93.380,-106.260
159769036,-1.311,-0.569,-0.032,-39.830,96.950,-148.260
159769054,-1.204,-0.782,-0.033,-10.640,134.470,-175.630
159769073,-1.752,-0.607,0.051,12.390,140.560,-184.310
159769098,-1.679,-0.378,0.258,-49.070,102.620,-194.040
159769115,-1.313,-0.746,0.177,-96.880,117.110,-189.770
159769138,-1.487,-0.843,0.056,-101.150,139.370,-176.820
159769157,-1.661,-0.664,0.030,-84.910,121.170,-169.260
159769179,-1.507,-0.752,0.129,-67.340,106.540,-176.050
159769199,-1.436,-0.840,0.076,-8.750,111.860,-171.990
159769223,-1.567,-0.356,0.291,22.750,90.580,-162.260
159769243,-1.493,-0.103,0.371,1.540,68.390,-156.240
159769263,-1.348,-0.179,0.366,-40.250,55.160,-136.640
159769282,-1.268,-0.256,0.396,-79.100,50.400,-126.560
159769301,-1.168,-0.348,0.422,-73.220,40.600,-104.230
159769326,-1.151,-0.219,0.339,-55.510,27.090,-80.430
159769344,-1.061,-0.290,0.323,-58.170,11.690,-66.570
159769361,-0.866,-0.392,0.329,-27.020,-7.630,-47.250
159769386,-0.545,-0.265,0.347,-1.610,-23.380,-25.410
159769406,-0.393,-0.322,0.135,-7.140,-21.840,-9.730
159769426,-0.243,-0.514,-0.080,5.250,-31.710,11.760
159769447,-0.122,-0.644,-0.188,-12.320,-43.120,19.040
159769470,-0.153,-0.732,-0.433,-37.520,-32.620,27.370
159769489,-0.168,-0.980,-0.580,-10.500,-35.490,42.140
159769507,-0.081,-1.014,-0.637,21.490,-28.070,35.420
159769531,-0.099,-0.996,-0.681,46.340,-6.230,19.880
159769551,-0.259,-1.009,-0.645,58.520,10.850,18.900
159769571,-0.344,-0.783,-0.520,50.190,4.480,14.280
159769591,-0.243,-0.779,-0.305,32.970,29.820,2.800
159769609,-0.383,-0.749,-0.259,52.850,45.990,-0.140
159769633,-0.429,-0.549,-0.117,73.640,58.380,-4.550
159769653,-0.516,-0.406,-0.064,53.130,51.030,-8.050
159769671,-0.468,-0.372,0.073,32.830,49.420,-1.960
159769693,-0.568,-0.358,0.113,5.600,44.450,4.760
159769717,-0.527,-0.363,0.160,10.640,30.030,17.990
159769737,-0.521,-0.318,0.268,7.490,19.950,21.420
159769754,-0.608,-0.343,0.293,2.800,14.350,28.630
159769778,-0.666,-0.385,0.235,-11.970,-2.170,44.660
159769796,-0.630,-0.489,0.268,-22.190,-14.770,50.750
159769817,-0.678,-0.511,0.368,-35.560,-27.160,62.860
159769834,-0.757,-0.625,0.301,-47.880,-35.630,65.590
159769853,-0.843,-0.713,0.181,-46.130,-52.570,69.300
159769878,-0.803,-0.794,0.143,-30.520,-62.300,78.120
159769898,-0.816,-0.729,0.098,-0.070,-75.180,77.140
159769917,-0.779,-0.563,0.049,-2.240,-79.310,76.160
159769938,-0.781,-0.695,-0.117,-3.150,-53.970,70.840
159769958,-1.024,-0.824,-0.280,-5.740,-68.180,72.450
159769978,-0.825,-0.704,-0.224,-5.600,-84.070,73.640
159770002,-0.612,-0.654,-0.162,-47.110,-55.300,64.330
159770022,-0.754,-0.969,-0.364,-60.200,-49.000,47.530
159770042,-0.818,-0.904,-0.400,-32.830,-62.370,37.310
159770066,-0.800,-0.713,-0.371,-52.220,-43.400,1.330
159770086,-0.625,-0.967,-0.417,-77.840,-24.290,-15.820
159770105,-0.629,-1.018,-0.468,-31.430,-5.530,-24.500
159770128,-0.874,-0.823,-0.552,-9.380,16.940,-42.630
159770149,-0.983,-0.820,-0.501,-5.320,23.170,-51.450
159770169,-1.048,-0.834,-0.306,-4.340,24.290,-48.650
159770189,-0.876,-0.752,-0.230,-7.840,19.950,-42.980
159770207,-0.905,-0.663,-0.161,-5.950,23.240,-38.360
159770231,-0.877,-0.638,-0.124,-2.240,24.710,-34.580
159770251,-0.817,-0.636,-0.025,10.570,21.910,-30.940
159770270,-0.720,-0.535,-0.018,14.770,18.060,-28.210
159770288,-0.622,-0.441,0.003,4.480,14.980,-28.770
159770312,-0.547,-0.425,-0.020,-1.890,17.150,-25.830
159770329,-0.502,-0.429,-0.057,22.470,18.690,-24.640
159770349,-0.521,-0.325,-0.023,40.460,15.820,-22.050
159770368,-0.542,-0.232,-0.009,43.960,15.610,-17.430
159770393,-0.571,-0.210,-0.057,32.480,13.580,-11.060
159770412,-0.528,-0.165,-0.062,22.680,2.030,-2.730
159770428,-0.445,-0.129,-0.064,7.210,8.890,4.760
159770453,-0.570,-0.216,-0.015,-5.530,2.730,11.970
159770473,-0.468,-0.169,0.098,-0.490,-5.320,19.180
159770493,-0.480,-0.101,0.104,1.260,-5.320,27.650
159770517,-0.473,-0.128,0.117,6.230,-15.540,42.840
159770537,-0.545,-0.110,-0.004,18.620,-11.270,50.610
159770557,-0.804,-0.083,-0.012,-5.950,-23.310,62.930
159770581,-0.807,-0.183,0.045,-38.780,-42.560,80.710
159770601,-0.849,-0.325,0.130,-45.850,-47.810,94.500
159770621,-1.003,-0.474,0.091,-14.700,-53.200,105.140
159770641,-1.220,-0.324,-0.098,38.360,-37.520,123.830
159770657,-1.564,-0.407,-0.121,8.050,-74.340,141.050
159770677,-1.345,-0.397,0.075,-26.460,-107.240,166.600
159770701,-1.261,-0.531,0.163,-37.870,-100.800,193.340
159770722,-1.464,-0.499,0.042,11.620,-108.430,216.720
159770743,-1.520,-0.315,0.042,28.980,-137.760,220.220
159770762,-1.469,-0.202,0.068,-5.950,-140.210,217.210
159770787,-1.536,-0.299,0.120,-42.000,-149.520,200.340
159770807,-1.604,-0.364,0.104,-31.220,-145.110,189.910
159770823,-1.586,-0.352,0.175,-20.930,-151.690,162.400
159770843,-1.367,-0.239,0.198,-15.680,-150.850,164.640
159770862,-1.118,-0.142,0.267,-23.730,-144.340,147.560
159770887,-0.964,-0.051,0.268,-47.320,-130.550,124.040
159770906,-0.802,-0.142,0.239,-69.790,-107.450,96.250
159770927,-0.788,-0.167,0.270,-59.080,-70.420,65.870
159770949,-1.032,-0.071,0.238,-64.050,-45.640,25.200
159770969,-0.890,-0.185,0.290,-53.970,-33.880,-0.420
159770989,-0.777,-0.143,0.288,-21.000,-6.930,-17.920
159771013,-0.789,-0.062,0.268,-15.120,19.180,-42.350
159771032,-0.964,-0.007,0.273,-34.440,41.930,-60.060
159771052,-1.009,-0.060,0.282,-45.220,48.300,-72.660
159771075,-0.859,-0.139,0.338,-39.830,58.170,-84.420
159771093,-0.877,-0.244,0.417,-18.690,79.660,-90.230
159771112,-0.974,-0.398,0.380,31.640,94.570,-94.920
159771137,-1.037,-0.287,0.403,123.270,96.250,-101.990
159771161,-0.978,-0.020,0.310,126.630,97.860,-115.920
159771181,-1.360,-0.075,0.036,130.480,168.000,-130.200
159771196,-1.774,-0.076,0.126,117.880,135.590,-143.080
159771219,-1.688,0.073,0.540,85.050,71.330,-154.910
159771239,-1.184,0.298,0.795,43.890,34.650,-160.930
159771259,-0.889,0.258,0.555,19.880,59.360,-147.490
159771283,-0.916,0.101,0.319,11.620,66.010,-135.380
159771303,-1.180,0.216,0.408,0.630,53.970,-125.300
159771323,-1.277,0.309,0.595,-21.490,32.830,-115.080
159771342,-1.161,0.276,0.738,-20.230,20.020,-101.220
159771362,-1.084,0.348,0.827,-2.310,3.640,-82.180
159771386,-1.167,0.462,0.928,-49.560,6.440,-53.620
159771406,-1.432,0.335,0.879,-92.890,-12.460,-30.450
159771426,-1.353,0.060,0.821,-91.280,-65.380,0.140
159771446,-1.085,-0.078,0.769,-64.400,-79.660,30.730
159771466,-1.030,-0.249,0.630,-20.230,-76.440,55.300
159771486,-1.408,-0.385,0.346,35.630,-66.220,83.090
159771505,-1.775,-0.395,0.139,55.090,-92.960,117.670
159771529,-1.761,-0.314,0.190,61.320,-129.500,150.780
159771545,-1.591,-0.247,0.219,57.190,-135.520,173.740
159771568,-1.462,-0.220,0.253,62.160,-132.650,189.350
159771589,-1.412,-0.195,0.279,77.280,-123.970,195.160
159771609,-1.298,-0.153,0.247,95.130,-105.560,194.460
159771629,-1.177,-0.080,0.200,108.850,-95.550,185.290
159771646,-0.938,0.018,0.205,112.980,-77.350,171.010
159771670,-0.816,0.117,0.177,85.890,-34.510,144.270
159771685,-0.819,0.140,0.189,65.030,-6.650,122.150
159771709,-1.009,0.117,0.144,18.620,12.110,89.250
159771733,-0.973,0.102,0.193,-13.020,17.570,60.270
159771753,-0.916,0.092,0.232,-49.840,24.990,42.700
159771772,-0.839,0.021,0.222,-59.290,28.140,24.640
159771795,-0.754,-0.027,0.222,-49.490,36.120,2.240
159771816,-0.698,0.006,0.241,-31.290,49.910,-16.520
159771836,-0.724,0.067,0.342,-22.050,74.200,-37.100
159771854,-0.925,0.046,0.346,-25.760,78.120,-49.000
159771875,-0.924,0.012,0.400,-23.940,71.400,-51.940
159771896,-0.923,0.041,0.443,-29.190,74.340,-51.030
159771916,-1.061,-0.050,0.361,-39.410,75.040,-48.300
159771936,-1.098,-0.177,0.258,-25.690,48.720,-38.850
159771959,-0.804,-0.095,0.253,2.520,36.470,-23.730
159771979,-0.646,-0.044,0.238,15.050,37.520,-12.040
159772003,-0.558,-0.008,0.262,29.470,44.240,-3.780
159772023,-0.577,0.106,0.322,25.200,44.940,-2.240
159772041,-0.639,0.207,0.347,8.680,39.690,-5.880
159772065,-0.641,0.206,0.270,-2.170,24.850,-13.930
159772085,-0.560,0.233,0.254,-7.840,16.380,-18.550
159772104,-0.502,0.284,0.259,-19.670,15.610,-22.050
159772124,-0.547,0.265,0.273,-31.360,19.600,-25.340
159772148,-0.669,0.244,0.273,-35.630,22.190,-32.690
159772168,-0.774,0.208,0.272,-35.210,17.360,-37.240
159772186,-0.825,0.161,0.282,-32.970,13.370,-37.730
159772210,-0.880,0.058,0.275,-23.590,13.930,-40.040
159772230,-0.967,-0.114,0.207,3.570,18.550,-41.930
159772250,-1.125,-0.081,0.195,32.900,7.630,-39.550
159772266,-1.156,-0.048,0.225,36.190,0.700,-37.240
159772289,-1.204,-0.063,0.181,26.110,-10.500,-27.720
159772310,-1.129,-0.217,0.103,31.150,-19.530,-15.050
159772327,-1.023,-0.350,0.085,54.320,-17.850,-9.590
159772345,-1.051,-0.331,0.080,80.780,-14.140,-8.330
159772369,-1.100,-0.249,0.059,96.320,-17.220,-13.370
159772389,-0.996,-0.296,0.013,100.870,-20.860,-23.170
159772410,-0.977,-0.291,0.053,106.750,-9.660,-31.080
159772427,-1.172,-0.283,0.109,105.630,-10.360,-35.910
159772451,-1.271,-0.390,-0.015,128.660,-34.860,-42.490
159772470,-1.220,-0.393,-0.021,160.160,-26.600,-42.210
159772486,-1.256,-0.277,-0.003,174.650,-21.490,-37.520
159772511,-1.235,-0.155,0.071,186.690,-39.620,-27.020
159772531,-1.165,-0.005,0.026,185.640,-48.860,-13.370
159772555,-1.094,0.083,0.009,181.370,-66.570,4.900
159772574,-0.984,0.222,0.094,171.500,-73.850,21.140
159772592,-0.868,0.244,0.093,169.610,-82.460,35.980
159772612,-0.812,0.313,0.037,181.160,-67.410,37.380
159772636,-0.958,0.496,-0.012,184.730,-57.820,19.670
159772656,-0.882,0.635,0.241,161.140,-65.380,0.910
159772676,-0.657,0.753,0.207,125.580,-50.750,-16.660
159772695,-0.515,0.764,0.183,98.980,-35.700,-23.170
159772712,-0.447,0.794,0.226,73.990,-9.380,-23.730
159772735,-0.498,0.821,0.349,34.300,29.050,-16.940
159772756,-0.834,0.827,0.445,-29.680,24.640,-1.540
159772776,-0.849,0.784,0.358,-63.210,13.510,18.480
159772799,-0.849,0.746,0.232,-73.990,13.650,35.910
159772817,-0.820,0.694,0.208,-65.730,9.590,46.410
159772836,-0.744,0.661,0.251,-51.030,13.790,58.450
159772861,-0.654,0.615,0.277,-40.250,19.320,76.650
159772879,-0.625,0.612,0.262,-38.920,26.040,85.470
159772898,-0.608,0.645,0.243,-45.990,35.070,89.810
159772920,-0.640,0.661,0.246,-68.110,42.070,86.450
159772944,-0.766,0.632,0.236,-97.580,46.200,78.190
159772963,-0.822,0.593,0.220,-112.910,44.870,74.410
159772983,-0.839,0.536,0.219,-131.810,44.240,73.150
159773003,-0.958,0.494,0.302,-149.100,50.890,70.910
159773023,-1.155,0.444,0.346,-179.480,34.720,68.110
159773047,-1.178,0.222,0.226,-204.120,20.370,69.300
159773067,-1.151,-0.121,0.213,-188.160,-1.680,75.880
159773086,-1.256,-0.153,0.154,-146.860,12.740,73.640
159773106,-1.258,-0.359,0.027,-115.010,-18.620,77.350
159773125,-1.062,-0.306,0.128,-92.050,-8.820,74.270
159773145,-1.075,-0.386,0.170,-90.860,-6.230,56.070
159773170,-1.102,-0.617,0.067,-53.410,-5.740,40.670
159773190,-1.036,-0.615,-0.028,-26.110,-9.590,27.160
159773209,-0.842,-0.505,-0.000,-11.130,-5.740,11.760
159773230,-0.752,-0.417,0.102,-21.140,0.980,-9.380
159773254,-0.942,-0.403,0.050,-22.330,17.990,-38.220
159773273,-0.922,-0.347,0.124,-17.360,11.340,-53.480
159773295,-0.709,-0.215,0.217,-20.090,9.940,-62.020
159773313,-0.564,-0.169,0.255,-17.290,6.860,-64.960
159773333,-0.586,-0.104,0.224,5.530,35.000,-73.780
159773353,-0.720,0.003,0.286,21.070,21.490,-80.150
159773377,-0.718,0.107,0.308,42.910,26.320,-91.070
159773397,-0.699,0.173,0.305,75.670,26.670,-97.020
159773417,-0.684,0.226,0.269,117.180,27.510,-97.160
159773435,-0.700,0.397,0.324,130.690,26.810,-99.680
159773459,-0.723,0.546,0.299,126.700,33.810,-108.500
159773479,-1.031,0.616,0.231,92.890,56.420,-123.550
159773499,-1.438,0.461,0.237,71.750,54.040,-136.990
159773519,-1.341,0.424,0.317,67.060,42.420,-130.270
159773543,-1.165,0.470,0.332,62.510,55.440,-121.450
159773563,-1.226,0.480,0.272,38.990,53.200,-112.210
159773583,-1.334,0.503,0.291,13.440,46.130,-106.190
159773603,-1.381,0.329,0.309,7.560,41.510,-90.160
159773623,-1.330,0.148,0.262,26.460,33.950,-68.880
159773641,-1.315,0.151,0.303,50.120,39.830,-50.050
159773660,-1.387,0.231,0.283,42.490,28.630,-40.670
159773680,-1.331,0.227,0.286,9.310,27.090,-39.410
159773705,-1.452,0.104,0.273,-24.570,24.080,-29.400
159773725,-1.467,-0.089,0.234,-25.690,13.230,-14.420
159773745,-1.406,-0.083,0.245,-15.330,15.330,-0.910
159773765,-1.260,-0.106,0.212,-19.670,6.930,2.590
159773789,-1.263,-0.040,0.247,-27.510,2.310,2.660
159773809,-1.179,-0.084,0.205,-31.500,-2.730,0.770
159773833,-1.007,-0.112,0.197,-14.210,-2.940,-1.960
159773851,-0.901,-0.010,0.267,-9.030,-0.140,-3.920
159773870,-0.871,0.034,0.261,-16.520,0.910,-8.820
159773893,-0.920,-0.022,0.241,-24.220,2.310,-15.890
159773912,-1.054,0.015,0.195,-22.260,-0.700,-20.300
159773931,-1.058,0.058,0.155,-19.740,-9.940,-21.490
159773956,-0.967,0.039,0.180,-16.100,-12.460,-15.190
159773976,-0.942,0.002,0.226,-4.690,-11.060,-8.050
159773994,-0.973,-0.000,0.199,4.690,-13.580,0.840
159774012,-1.041,0.071,0.219,8.610,-3.850,1.470
159774036,-1.532,0.168,0.162,-10.080,10.920,-7.070
159774054,-1.756,-0.034,-0.047,-14.770,-27.720,1.120
159774078,-1.073,-0.061,0.046,21.490,-53.060,24.080
159774098,-0.733,0.093,0.195,48.440,-21.350,41.160
159774117,-0.808,0.182,0.267,16.940,-11.480,47.390
159774138,-0.959,0.162,0.151,-4.340,-18.900,48.650
159774162,-1.034,0.139,0.134,-21.280,-15.960,40.600
159774181,-1.293,-0.096,0.045,-24.990,1.330,41.720
159774205,-1.568,-0.323,-0.074,-3.570,-2.660,63.490
159774223,-1.596,-0.601,-0.101,5.740,-4.970,78.330
159774243,-1.488,-0.982,-0.045,15.820,-4.900,95.760
159774263,-1.349,-0.932,0.040,30.730,13.160,94.710
159774287,-1.287,-0.575,0.052,17.500,4.830,61.460
159774307,-0.859,-0.726,0.090,-14.350,-17.990,11.200
159774327,-0.868,-0.644,0.339,3.990,44.520,-17.710
159774351,-1.499,-0.362,0.301,-29.330,35.700,-69.160
159774371,-1.419,-0.657,0.205,-64.330,-5.670,-71.260
159774391,-1.325,-0.698,0.301,-53.970,-26.390,-47.670
159774406,-1.284,-0.508,0.481,-34.020,-35.420,-12.810
159774431,-1.456,-0.426,0.438,40.390,-53.270,47.040
159774451,-1.491,-0.178,0.313,181.930,-75.040,91.700
159774469,-1.536,0.581,0.264,206.150,-103.250,138.670
159774489,-1.293,0.756,0.367,147.770,-128.800,158.270
159774512,-0.800,0.667,0.244,127.680,-96.460,186.970
159774532,-0.635,0.829,0.208,79.520,-66.850,193.060
159774551,-0.584,0.755,0.316,13.440,-27.090,177.940
159774571,-0.880,0.492,0.247,-43.820,7.140,159.250
159774595,-0.654,0.179,0.090,-75.460,3.780,141.330
159774614,-0.578,0.090,0.065,-73.080,10.570,120.610
159774635,-0.472,0.063,0.098,-54.250,1.540,89.810
159774659,-0.407,0.112,-0.067,-8.960,8.820,46.480
159774678,-0.342,0.202,-0.101,9.730,10.290,5.180
159774698,-0.277,0.286,0.023,18.130,28.070,-34.510
159774718,-0.317,0.347,0.230,18.060,42.840,-59.920
159774738,-0.407,0.379,0.275,10.710,55.510,-72.520
159774762,-0.477,0.387,0.216,-2.800,56.490,-76.160
159774778,-0.625,0.547,0.368,-17.570,44.940,-76.020
159774802,-0.722,0.822,0.315,-40.530,25.130,-71.470
159774820,-0.748,0.783,0.247,-63.280,1.890,-64.190
159774842,-0.498,0.577,0.309,-16.520,-2.380,-43.960
159774862,-0.455,0.725,0.340,23.660,-2.590,-25.270
159774878,-0.471,0.870,0.285,26.530,-5.670,-18.900
159774902,-0.448,0.861,0.253,1.050,-11.200,-10.500
159774922,-0.455,0.773,0.285,-10.920,-8.400,-1.890
159774940,-0.614,0.670,0.315,-21.420,3.080,1.960
159774960,-0.879,0.476,0.257,-37.590,-0.700,4.340
159774984,-0.962,0.300,0.151,-56.560,-8.680,8.470
159775004,-1.035,0.161,0.218,-65.380,-10.850,6.650
159775021,-1.159,0.027,0.112,-54.950,-9.380,0.980
159775045,-1.130,-0.137,-0.002,-24.080,-23.590,-3.850
159775064,-0.948,-0.123,0.061,19.950,-23.100,-14.140
159775085,-0.982,-0.050,0.138,25.410,-9.240,-35.840
159775105,-1.021,-0.119,0.118,21.210,-8.190,-54.950
159775129,-0.945,-0.058,0.141,20.020,-7.840,-80.710
159775146,-1.040,0.015,0.259,0.350,8.120,-101.290
159775170,-1.171,0.017,0.288,-21.910,0.000,-120.050
159775190,-1.011,-0.058,0.310,-34.860,-2.450,-126.420
159775210,-0.944,-0.084,0.289,-18.830,11.900,-130.410
159775226,-1.028,0.042,0.322,-15.050,19.740,-135.800
159775250,-1.147,0.112,0.460,-35.420,25.900,-140.070
159775267,-1.207,0.044,0.488,-49.420,27.230,-138.250
159775290,-1.210,-0.013,0.425,-38.920,22.470,-125.790
159775311,-1.061,-0.111,0.330,-11.970,18.830,-115.570
159775328,-1.103,-0.078,0.362,0.700,24.500,-107.240
159775352,-1.261,-0.059,0.378,3.080,17.780,-89.460
159775371,-1.353,-0.106,0.374,13.370,1.680,-74.270
159775389,-1.175,-0.166,0.327,35.910,-14.910,-54.670
159775413,-0.957,-0.021,0.448,42.630,-23.940,-30.450
159775437,-0.821,0.137,0.558,21.910,-23.170,-19.390
159775457,-0.783,0.166,0.487,-0.840,-24.360,-14.210
159775474,-0.752,0.054,0.367,-12.740,-22.610,-12.460
159775496,-0.759,0.015,0.368,-2.240,-23.170,-13.160
159775513,-0.818,0.105,0.418,-8.050,-23.870,-12.740
159775538,-0.829,0.095,0.429,-24.360,-28.840,-11.480
159775557,-0.851,0.070,0.346,-28.210,-28.700,-7.070
159775578,-0.893,0.057,0.283,-31.150,-27.020,3.570
159775598,-0.939,0.059,0.313,-37.800,-31.500,12.880
159775620,-0.972,0.016,0.276,-36.400,-31.080,25.200
159775643,-0.909,-0.026,0.245,-20.580,-35.210,42.490
159775664,-0.802,-0.001,0.233,-2.520,-17.570,54.950
159775683,-0.769,0.057,0.250,-4.830,-10.150,62.580
159775703,-0.715,0.147,0.357,-21.980,-4.340,62.300
159775727,-0.677,0.190,0.398,-50.260,-3.640,60.760
159775746,-0.613,0.149,0.335,-69.160,-0.910,60.690
159775762,-0.595,0.123,0.264,-67.900,3.920,60.690
159775787,-0.703,0.249,0.354,-75.390,8.960,56.210
159775807,-0.726,0.249,0.476,-91.770,6.230,48.930
159775827,-0.776,0.202,0.419,-86.800,7.840,45.010
159775851,-0.758,0.168,0.371,-69.020,10.710,45.710
159775871,-0.951,0.153,0.399,-54.530,24.990,41.510
159775891,-1.348,0.162,0.440,-61.460,30.520,40.460
159775911,-1.526,-0.027,0.293,-52.290,-0.560,58.450
159775930,-1.432,-0.068,0.261,-32.900,-4.830,74.970
159775954,-1.553,-0.162,0.223,-24.640,5.530,94.990
159775974,-1.692,-0.319,0.107,-7.840,-17.290,113.820
159775994,-1.562,-0.462,0.044,20.090,-40.950,133.630
159776010,-1.312,-0.430,0.063,33.530,-47.390,141.470
159776031,-1.237,-0.425,0.069,34.160,-41.370,153.720
159776050,-1.277,-0.404,0.037,33.110,-47.740,157.010
159776074,-1.134,-0.362,0.034,32.830,-62.580,152.600
159776094,-1.016,-0.327,0.062,24.710,-54.670,132.440
159776114,-0.979,-0.355,0.092,16.730,-65.590,110.880
159776134,-0.818,-0.259,0.132,20.440,-59.920,89.390
159776154,-0.764,-0.205,0.183,19.880,-48.090,65.240
159776171,-0.858,-0.191,0.122,23.030,-34.720,40.740
159776191,-0.842,-0.139,0.142,21.770,-33.460,23.800
159776211,-0.782,-0.102,0.155,17.780,-21.980,5.810
159776235,-0.775,-0.034,0.189,13.300,-16.100,-11.200
159776255,-0.725,0.027,0.228,10.010,-8.610,-21.350
159776275,-0.769,0.048,0.190,5.670,-7.070,-23.170
159776295,-0.666,0.039,0.207,6.300,-5.670,-20.720
159776315,-0.635,0.070,0.226,5.040,-0.420,-23.730
159776334,-0.653,0.146,0.206,5.110,-4.340,-30.380
159776354,-0.591,0.136,0.180,12.460,-5.810,-36.050
159776378,-0.567,0.135,0.276,24.360,-12.880,-35.420
159776398,-0.551,0.221,0.362,11.270,-24.290,-34.580
159776416,-0.593,0.197,0.282,-6.020,-19.880,-41.720
159776440,-0.788,0.055,0.185,8.750,-22.050,-52.220
159776459,-0.794,0.016,0.264,29.190,-27.230,-57.820
159776478,-0.792,0.053,0.419,27.650,-23.100,-71.260
159776499,-0.906,0.035,0.317,1.120,-19.320,-90.720
159776523,-0.860,-0.015,0.240,-3.430,-18.410,-108.150
159776542,-0.809,-0.057,0.340,4.410,11.200,-120.610
159776560,-0.929,0.016,0.283,0.490,22.120,-132.160
159776584,-1.030,0.056,0.265,-28.070,43.120,-155.540
159776604,-1.065,-0.013,0.221,-44.800,51.800,-170.800
159776621,-1.047,-0.116,0.260,-30.450,79.450,-180.880
159776641,-1.248,-0.163,0.264,-17.500,96.390,-176.050
159776661,-1.410,-0.122,0.127,-15.260,110.530,-175.560
159776685,-1.553,-0.218,0.083,-9.240,118.020,-169.960
159776705,-1.611,-0.276,0.163,-13.160,118.370,-160.510
159776724,-1.572,-0.331,0.162,-22.260,117.110,-147.700
159776748,-1.441,-0.284,0.144,-18.760,120.960,-129.780
159776768,-1.422,-0.343,0.063,-25.480,117.950,-119.910
159776791,-1.514,-0.584,0.157,-59.990,108.640,-107.730
159776812,-1.355,-0.530,0.091,-58.170,89.460,-93.800
159776830,-1.138,-0.405,0.233,-84.350,82.810,-98.980
159776854,-1.074,-0.435,0.284,-104.790,80.570,-99.890
159776870,-1.070,-0.631,0.187,-95.340,90.020,-102.270
159776894,-1.138,-0.596,0.150,-37.660,68.670,-96.040
159776913,-0.998,-0.221,0.220,-33.390,50.820,-98.840
159776933,-0.981,-0.318,0.202,-50.190,62.090,-95.970
159776952,-1.528,-0.541,0.009,0.980,119.630,-83.930
159776977,-1.863,-0.429,-0.063,4.900,-20.370,-30.030
159776997,-0.746,-0.269,0.444,-10.360,-19.880,-9.240
159777016,-0.367,-0.259,0.342,-14.140,5.250,11.690
159777040,-0.949,-0.166,0.094,-17.710,-17.500,17.710
159777060,-1.179,-0.224,0.140,-17.640,-20.020,20.160
159777084,-1.420,-0.348,0.059,12.530,-51.940,43.470
159777103,-1.211,-0.293,0.118,5.460,-64.120,71.750
159777127,-1.216,-0.400,0.172,-2.940,-83.230,108.990
159777147,-1.219,-0.364,0.115,0.910,-94.920,121.800
159777165,-1.371,-0.264,-0.025,-19.110,-91.980,121.100
159777187,-1.575,-0.451,-0.081,-22.050,-111.930,127.750
159777207,-1.288,-0.223,0.045,-10.290,-124.040,139.020
159777231,-1.259,-0.109,0.154,-36.820,-126.350,145.880
159777248,-1.264,-0.191,0.166,-36.820,-126.700,153.790
159777271,-1.371,-0.087,0.127,-22.680,-128.100,158.130
159777294,-1.520,0.024,0.122,-24.920,-126.840,151.690
159777314,-1.585,0.000,0.190,-39.900,-131.250,147.490
159777333,-1.591,-0.071,0.199,-40.040,-132.510,147.910
159777353,-1.546,-0.080,0.166,-27.230,-136.710,153.370
159777376,-1.503,-0.031,0.139,-19.040,-133.420,157.570
159777400,-1.532,-0.018,0.161,-17.710,-131.250,158.550
159777420,-1.664,-0.036,0.163,-19.320,-128.170,178.920
159777436,-1.662,-0.081,0.151,-16.660,-132.370,166.740
159777460,-1.547,-0.094,0.129,-13.370,-135.100,179.410
159777480,-1.337,-0.081,0.173,-13.790,-127.890,183.400
159777500,-1.311,-0.066,0.196,-9.520,-122.570,184.170
159777523,-1.205,-0.061,0.186,-5.810,-124.110,181.860
159777541,-1.055,-0.060,0.158,2.800,-110.600,176.050
159777561,-0.978,-0.037,0.121,3.010,-100.940,165.410
159777585,-0.799,-0.041,0.147,4.480,-91.140,152.670
159777605,-0.657,-0.021,0.154,4.200,-72.170,139.510
159777623,-0.534,-0.036,0.154,3.920,-57.120,123.480
159777647,-0.456,-0.034,0.103,12.740,-39.900,102.690
159777667,-0.348,0.012,0.097,16.520,-26.670,82.250
159777691,-0.281,0.078,0.101,11.060,-3.850,58.590
159777711,-0.315,0.114,0.110,4.760,17.080,34.930
159777727,-0.332,0.093,0.100,4.830,28.070,15.680
159777751,-0.349,0.078,0.100,13.790,47.320,-9.170
159777770,-0.341,0.112,0.103,21.560,60.690,-27.160
159777786,-0.350,0.162,0.095,22.400,72.520,-45.290
159777811,-0.457,0.240,0.125,7.070,94.010,-70.140
159777831,-0.670,0.214,0.158,-23.240,98.840,-90.090
159777850,-0.745,0.139,0.174,-35.560,103.530,-102.270
159777871,-0.753,0.082,0.171,-35.350,111.720,-114.800
159777891,-0.855,0.071,0.149,-24.150,125.440,-132.440
159777911,-0.987,0.060,0.223,-23.800,133.490,-150.990
159777931,-1.131,0.012,0.292,-27.580,140.560,-169.610
159777953,-1.279,-0.118,0.281,-17.360,140.490,-184.800
159777973,-1.394,-0.152,0.285,8.330,133.420,-197.540
159777997,-1.506,-0.035,0.300,42.350,114.100,-207.900
159778012,-1.487,0.005,0.332,63.910,95.900,-206.150
159778036,-1.476,0.018,0.331,103.810,80.220,-194.320
159778059,-1.485,0.071,0.265,167.020,57.750,-169.470
159778075,-1.466,0.230,0.268,197.890,48.090,-152.530
159778100,-1.348,0.436,0.353,217.000,9.100,-117.670
159778120,-1.004,0.630,0.449,207.760,-9.940,-95.200
159778140,-0.747,0.737,0.466,185.360,-2.450,-70.420
159778159,-0.760,0.776,0.423,151.900,7.770,-49.070
159778184,-0.837,0.786,0.405,123.130,7.910,-27.370
159778204,-0.937,0.815,0.408,86.870,5.530,-12.880
159778220,-1.032,0.752,0.399,58.310,-0.980,2.100
159778243,-1.067,0.662,0.362,21.630,-7.980,29.610
159778261,-1.116,0.532,0.279,-0.280,-19.530,56.770
159778281,-1.083,0.417,0.251,-5.530,-24.360,86.380
159778305,-1.078,0.359,0.265,-4.270,-28.630,111.230
159778325,-1.048,0.285,0.262,-3.640,-31.570,122.360
159778345,-1.028,0.243,0.243,-1.120,-34.370,130.760
159778364,-1.015,0.204,0.210,1.960,-31.780,135.870
159778385,-1.023,0.149,0.165,7.980,-31.290,138.810
159778405,-1.013,0.148,0.181,5.670,-28.280,138.530
159778429,-1.101,0.161,0.178,-18.340,-26.180,132.230
159778444,-1.112,0.122,0.152,-34.230,-33.950,126.840
159778464,-0.973,0.022,0.142,-45.570,-28.070,116.970
159778488,-0.925,-0.020,0.179,-42.000,-13.650,97.440
159778508,-1.029,0.019,0.305,-54.110,-3.290,78.050
159778532,-1.116,-0.095,0.239,-68.600,-10.570,65.170
159778552,-0.995,-0.298,0.179,-50.540,-11.690,59.780
159778572,-0.974,-0.244,0.180,-28.910,-1.260,52.150
159778592,-1.080,-0.205,0.194,-26.880,3.150,36.540
159778614,-1.033,-0.227,0.251,-16.170,17.780,17.290
159778634,-0.919,-0.177,0.261,-3.080,5.950,2.940
159778657,-0.898,-0.137,0.246,4.200,15.540,-14.700
159778673,-0.955,-0.105,0.253,7.980,21.070,-28.560
159778693,-0.992,-0.027,0.282,14.420,22.330,-42.840
159778713,-1.006,0.043,0.269,19.880,21.490,-57.680
159778737,-0.920,0.066,0.233,35.000,20.300,-65.170
159778756,-0.879,0.121,0.241,51.450,25.060,-67.620
159778781,-0.969,0.193,0.268,56.000,33.320,-77.210
159778800,-1.021,0.222,0.277,58.310,30.870,-85.470
159778821,-1.029,0.265,0.252,59.850,28.210,-94.640
159778841,-1.030,0.293,0.227,57.050,20.790,-101.640
159778860,-1.046,0.285,0.212,58.590,18.830,-105.560
159778880,-1.101,0.272,0.203,62.860,17.290,-109.900
159778904,-1.108,0.262,0.210,71.050,13.720,-114.380
159778924,-1.088,0.264,0.184,82.740,13.440,-116.550
159778944,-1.097,0.263,0.183,87.780,11.620,-118.650
159778964,-1.127,0.244,0.132,94.990,8.680,-119.630
159778984,-1.127,0.256,0.102,105.350,7.000,-120.750
159779007,-1.151,0.295,0.094,111.370,7.070,-121.660
159779031,-1.141,0.297,0.073,112.700,3.710,-118.580
159779051,-1.114,0.313,0.062,110.460,2.170,-114.100
159779071,-1.119,0.321,0.066,100.590,1.120,-106.330
159779095,-1.146,0.332,0.046,84.560,-1.260,-96.530
159779115,-1.128,0.366,0.059,59.570,-4.410,-91.980
159779135,-1.074,0.398,0.070,35.000,-5.390,-87.640
159779154,-1.105,0.391,0.049,4.900,-6.440,-82.320
159779173,-1.136,0.345,0.059,-11.270,-7.070,-75.180
159779193,-1.148,0.313,0.059,-19.600,-7.490,-62.510
159779213,-1.125,0.282,0.072,-21.420,-8.820,-48.020
159779237,-1.068,0.241,0.085,-16.590,-10.570,-25.200
159779257,-1.022,0.204,0.073,-0.350,-9.590,-8.470
159779276,-1.037,0.184,0.041,12.110,-6.790,7.490
159779295,-1.067,0.203,0.050,16.520,-10.220,22.400
159779315,-1.020,0.232,0.099,8.260,-10.430,32.550
159779339,-1.008,0.206,0.116,-1.820,-10.780,43.190
159779354,-1.032,0.184,0.110,-11.340,-13.160,50.330
159779379,-1.018,0.139,0.109,-26.740,-18.900,60.620
159779399,-1.025,0.097,0.168,-37.240,-18.550,64.610
159779416,-1.159,0.036,0.168,-56.000,-17.500,62.090
159779440,-1.079,-0.138,0.141,-53.550,-23.800,58.590
159779460,-1.023,-0.144,0.160,-40.810,-10.290,50.120
159779480,-1.060,-0.074,0.178,-36.050,-6.930,33.600
159779500,-1.017,-0.095,0.209,-47.180,-3.710,18.480
159779524,-1.025,-0.130,0.209,-50.890,0.840,13.720
159779544,-1.068,-0.200,0.213,-60.970,-2.870,16.520
159779564,-1.059,-0.253,0.204,-60.830,-6.790,25.480
159779584,-1.046,-0.265,0.166,-55.370,-16.870,36.190
159779599,-0.838,-0.345,0.181,-44.310,-23.590,41.230
159779623,-0.627,-0.306,0.273,-25.900,-18.970,52.430
159779641,-0.814,-0.240,0.262,-15.120,1.820,55.650
159779661,-0.972,-0.285,0.206,-19.600,-20.720,61.040
159779685,-0.834,-0.262,0.286,-23.310,-29.190,69.720
159779704,-0.832,-0.190,0.301,-39.130,-28.560,71.750
159779724,-0.990,-0.219,0.215,-47.250,-43.820,74.130
159779748,-0.845,-0.230,0.248,-45.430,-50.470,80.850
159779767,-0.742,-0.212,0.275,-38.080,-42.140,84.140
159779788,-0.761,-0.261,0.259,-28.700,-39.620,87.080
159779807,-0.770,-0.253,0.197,-21.280,-40.320,87.500
159779823,-0.701,-0.271,0.196,-19.110,-44.240,88.690
159779846,-0.665,-0.230,0.255,-20.440,-45.990,84.980
159779870,-0.648,-0.196,0.288,-31.570,-52.430,79.590
159779889,-0.664,-0.253,0.187,-27.510,-62.370,74.970
159779907,-0.605,-0.240,0.124,-12.670,-64.400,66.850
159779927,-0.641,-0.145,0.187,-8.960,-54.880,48.090
159779951,-0.832,-0.146,0.210,-13.300,-55.720,17.430
159779971,-0.853,-0.180,0.173,0.490,-54.040,-5.740
159779989,-0.868,-0.224,0.119,19.460,-49.700,-16.450
159780011,-0.879,-0.160,0.135,40.040,-41.230,-32.830
159780031,-1.022,-0.057,0.296,13.230,-22.050,-58.730
159780055,-1.047,-0.069,0.383,-41.370,-28.560,-81.830
159780075,-0.967,-0.108,0.397,-63.420,-11.970,-103.110
159780098,-0.976,-0.154,0.303,-52.150,9.870,-122.150
159780118,-1.055,-0.122,0.270,-34.860,32.900,-136.990
159780140,-1.094,-0.107,0.311,-32.690,45.640,-147.630
159780159,-1.061,-0.102,0.294,-23.800,63.140,-148.610
159780183,-1.081,-0.140,0.156,-14.980,81.620,-154.910
159780203,-1.163,-0.188,0.110,-7.350,106.330,-156.660
159780222,-1.365,-0.008,0.186,-37.450,112.280,-161.210
159780244,-1.256,-0.203,0.050,-90.370,113.400,-168.560
159780264,-1.331,-0.404,0.100,-125.860,141.820,-170.450
159780285,-1.583,-0.233,0.161,-156.870,135.170,-164.780
159780309,-1.508,-0.258,0.219,-158.620,116.760,-140.980
159780325,-1.288,-0.375,0.031,-181.300,109.760,-125.160
159780347,-1.214,-0.529,0.373,-230.930,107.800,-104.860
159780371,-1.310,-0.706,0.364,-178.640,120.820,-78.610
159780389,-1.972,-0.455,0.356,-113.820,106.750,-71.330
159780408,-2.056,-0.701,0.100,-91.070,18.550,-57.050
159780427,-1.076,-0.796,0.317,-67.830,-68.390,-16.660
159780451,-0.307,-0.596,0.785,-77.840,-31.570,7.350
159780468,-0.445,-0.838,0.661,-51.660,21.700,16.660
159780488,-1.037,-0.669,0.466,37.870,-18.270,19.110
159780512,-1.090,-0.106,0.500,49.490,-73.920,15.540
159780532,-0.957,0.104,0.499,-4.200,-81.270,19.740
159780551,-1.053,-0.081,0.443,-20.650,-87.150,20.580
159780571,-1.212,-0.180,0.354,10.990,-89.250,26.670
159780596,-1.284,-0.071,0.247,54.460,-103.880,44.310
159780615,-1.267,0.020,0.291,73.220,-99.190,62.930
159780639,-1.485,0.082,0.238,86.100,-94.150,89.740
159780659,-1.585,0.112,0.156,79.940,-98.840,116.130
159780679,-1.765,0.114,0.078,63.000,-98.630,140.980
159780697,-1.964,0.104,0.062,37.030,-104.650,165.760
159780718,-2.002,0.036,0.061,11.830,-113.960,191.100
159780737,-2.029,-0.050,0.023,2.310,-121.590,211.610
159780761,-1.973,-0.079,0.014,-13.440,-123.690,242.270
159780779,-1.924,-0.087,-0.026,-31.010,-123.620,259.980
159780800,-1.885,-0.106,0.013,-52.290,-122.570,269.290
159780820,-1.916,-0.198,0.077,-62.160,-125.090,273.000
159780841,-1.829,-0.256,0.063,-51.380,-132.580,276.990
159780861,-1.618,-0.200,0.066,-34.790,-128.800,276.430
159780880,-1.557,-0.218,0.101,-38.990,-113.750,265.720
159780900,-1.564,-0.397,-0.043,-32.620,-117.110,247.870
159780924,-1.144,-0.521,-0.104,-0.770,-110.180,215.950
159780944,-0.764,-0.550,-0.039,23.030,-80.920,193.480
159780961,-0.622,-0.392,0.032,25.620,-48.580,173.250
159780980,-0.746,-0.359,0.068,13.650,-23.520,138.810
159781004,-0.800,-0.373,0.125,5.950,-22.330,100.800
159781025,-0.663,-0.304,0.140,14.700,-5.110,61.670
159781043,-0.608,-0.297,0.099,8.750,10.780,22.330
159781067,-0.548,-0.328,0.069,11.690,29.960,-17.500
159781087,-0.561,-0.277,0.115,16.660,38.430,-52.710
159781111,-0.517,-0.190,0.170,27.650,50.120,-91.910
159781129,-0.512,-0.103,0.203,35.350,60.900,-121.310
159781148,-0.565,0.001,0.239,38.290,71.260,-150.710
159781172,-0.654,0.133,0.294,33.740,84.560,-183.540
159781191,-0.753,0.218,0.343,24.150,90.370,-203.420
159781215,-0.815,0.223,0.389,13.720,92.120,-221.830
159781235,-0.858,0.143,0.351,12.950,102.060,-228.480
159781253,-0.969,0.083,0.287,31.010,100.730,-230.440
159781272,-0.947,0.089,0.298,46.480,100.800,-226.730
159781292,-1.011,0.088,0.303,64.750,111.510,-227.150
159781311,-1.136,0.110,0.302,85.260,115.010,-222.670
159781333,-1.283,0.149,0.280,106.120,105.490,-217.910
159781353,-1.318,0.215,0.233,122.150,93.940,-209.860
159781377,-1.314,0.286,0.194,124.180,79.870,-189.840
159781397,-1.282,0.360,0.229,109.480,68.460,-170.590
159781413,-1.237,0.401,0.284,85.750,58.660,-150.500
159781437,-1.173,0.442,0.313,52.010,48.370,-116.620
159781455,-1.108,0.487,0.305,1.050,31.010,-88.620
159781479,-0.948,0.471,0.297,-50.400,17.640,-48.230
159781499,-0.939,0.432,0.292,-86.800,16.380,-19.110
159781518,-1.027,0.296,0.303,-110.460,8.190,9.520
159781538,-1.089,0.187,0.298,-110.740,-10.850,30.590
159781563,-1.022,0.081,0.232,-67.200,-22.820,54.390
159781579,-0.995,0.109,0.242,-30.240,-30.870,69.510
159781603,-0.943,0.102,0.333,-8.260,-49.280,93.590
159781623,-0.911,0.016,0.301,13.510,-50.750,110.040
159781643,-1.112,0.073,0.300,13.090,-51.030,120.120
