Millis,AccelX,AccelY,AccelZ,GyroX,GyroY,GyroZ
11399127,-0.993,0.104,0.226,-1.610,1.890,2.940
11399146,-0.987,0.100,0.236,-1.820,3.010,2.100
11399171,-0.994,0.098,0.216,-1.960,4.340,1.260
11399190,-0.995,0.089,0.216,-1.540,5.110,0.700
11399210,-1.002,0.090,0.212,-1.120,5.040,0.210
11399229,-0.997,0.095,0.205,-0.210,5.390,-0.210
11399252,-0.996,0.084,0.203,-1.120,5.460,-0.210
11399272,-1.001,0.083,0.203,-1.330,5.670,0.490
11399296,-1.010,0.099,0.190,-2.590,5.390,0.490
11399316,-1.006,0.092,0.191,-2.520,4.900,0.210
11399334,-1.012,0.082,0.188,-2.240,3.920,0.070
11399351,-1.006,0.084,0.192,-1.750,4.130,0.210
11399375,-1.007,0.088,0.188,-2.170,3.920,0.210
11399396,-1.011,0.072,0.179,-1.190,3.640,0.560
11399414,-1.007,0.088,0.181,-0.490,3.220,0.840
11399434,-1.006,0.082,0.177,-0.140,2.730,0.630
11399454,-1.005,0.081,0.180,0.560,2.310,0.630
11399478,-1.005,0.083,0.180,1.190,2.310,0.490
11399495,-1.001,0.094,0.188,0.700,2.730,0.630
11399519,-1.004,0.089,0.173,0.140,2.800,0.280
11399539,-1.004,0.087,0.175,-0.350,3.080,0.350
11399558,-1.005,0.085,0.173,-0.490,3.360,0.630
11399583,-1.009,0.091,0.168,-0.840,2.940,0.700
11399603,-1.014,0.083,0.159,-1.190,2.100,0.490
11399622,-1.011,0.080,0.159,-0.840,1.260,0.420
11399641,-1.008,0.080,0.161,-0.280,0.770,0.560
11399666,-1.007,0.081,0.156,-0.350,0.070,0.770
11399686,-1.011,0.087,0.161,-0.630,-0.560,0.700
11399706,-1.011,0.081,0.156,-0.420,-1.120,0.490
11399726,-1.015,0.078,0.157,-0.210,-1.610,0.700
11399750,-1.005,0.084,0.162,-0.490,-1.610,0.910
11399769,-1.006,0.079,0.163,-0.420,-1.330,1.050
11399793,-1.012,0.084,0.156,-0.070,-1.890,1.050
11399813,-1.011,0.081,0.157,-0.280,-2.660,0.980
11399830,-1.009,0.083,0.159,-0.140,-2.940,0.980
11399849,-1.012,0.080,0.159,-0.280,-3.220,1.190
11399874,-1.013,0.083,0.158,-0.280,-3.850,1.050
11399893,-1.011,0.084,0.162,-0.420,-4.060,0.840
11399913,-1.007,0.086,0.160,-0.560,-4.130,0.840
11399933,-1.010,0.085,0.162,-0.420,-4.550,0.630
11399956,-1.007,0.082,0.163,0.000,-4.690,0.350
11399977,-1.006,0.081,0.163,-0.070,-4.760,0.490
11399997,-1.009,0.085,0.163,-0.350,-4.900,0.420
11400017,-1.006,0.076,0.167,0.140,-5.390,0.560
11400037,-1.008,0.081,0.167,0.210,-5.530,0.840
11400055,-1.011,0.081,0.166,-0.070,-5.810,0.770
11400074,-1.012,0.077,0.169,-0.140,-6.020,0.630
11400099,-1.007,0.078,0.167,0.280,-6.300,0.560
11400119,-1.003,0.083,0.178,0.350,-6.020,0.490
11400139,-1.006,0.083,0.177,0.000,-5.950,0.560
11400157,-1.008,0.078,0.172,-0.420,-6.020,0.630
11400179,-1.006,0.070,0.178,-0.140,-6.090,1.050
11400199,-1.003,0.079,0.183,-0.070,-5.740,1.190
11400218,-1.001,0.080,0.182,-0.280,-5.460,1.260
11400241,-1.011,0.085,0.176,-0.350,-5.530,1.260
11400259,-1.009,0.071,0.180,-0.420,-6.020,1.050
11400279,-1.006,0.078,0.187,0.140,-5.950,1.260
11400303,-1.004,0.091,0.186,0.070,-5.880,0.770
11400323,-1.003,0.080,0.186,-0.560,-5.670,0.140
11400343,-0.999,0.080,0.190,-0.210,-5.250,0.210
11400360,-0.997,0.083,0.193,0.280,-4.620,-0.140
11400382,-0.992,0.082,0.198,-0.560,-3.150,-0.560
11400405,-1.000,0.082,0.203,-1.190,-1.960,-0.840
11400425,-0.992,0.090,0.200,-0.420,-0.700,-1.260
11400444,-0.993,0.070,0.200,-0.490,0.980,-2.030
11400466,-0.996,0.093,0.197,-0.350,1.960,-2.730
11400489,-0.991,0.086,0.201,-1.400,3.430,-4.410
11400506,-0.992,0.083,0.204,-1.400,5.320,-5.180
11400530,-1.001,0.070,0.182,-1.330,6.650,-5.670
11400550,-1.005,0.077,0.182,-3.430,6.790,-5.250
11400570,-1.023,0.059,0.157,-3.640,5.670,-5.110
11400589,-1.028,0.035,0.148,-2.450,3.570,-4.830
11400606,-1.022,0.018,0.149,-1.050,1.960,-3.430
11400630,-1.029,0.123,0.164,-0.910,-1.050,-4.410
11400649,-1.037,0.044,0.135,-2.590,-3.990,-4.760
11400670,-1.007,0.016,0.172,0.420,-4.760,-3.500
11400689,-1.003,0.025,0.169,2.310,-4.410,-1.890
11400709,-1.007,0.073,0.165,1.400,-5.180,-1.330
11400734,-1.020,0.078,0.176,-1.540,-5.950,-3.150
11400753,-1.004,0.058,0.180,-1.330,-5.390,-4.340
11400774,-0.997,0.030,0.183,0.140,-4.410,-3.430
11400795,-1.013,0.043,0.169,-0.140,-4.480,-2.380
11400814,-1.011,0.043,0.172,-1.260,-4.620,-2.520
11400839,-1.003,0.053,0.189,-0.770,-4.690,-2.940
11400859,-1.008,0.047,0.178,-0.490,-4.340,-3.430
11400877,-1.012,0.030,0.177,-0.630,-4.200,-3.360
11400899,-1.002,0.023,0.188,-0.210,-3.850,-2.730
11400919,-0.996,0.035,0.190,0.700,-3.010,-2.520
11400936,-1.001,0.036,0.181,0.350,-2.450,-2.380
11400956,-1.008,0.042,0.181,0.000,-2.240,-2.800
11400976,-1.007,0.041,0.187,0.350,-1.750,-3.220
11400996,-1.006,0.021,0.182,0.560,-1.330,-2.940
11401020,-1.004,0.011,0.178,1.050,-1.190,-1.820
11401039,-1.005,0.030,0.183,0.630,-0.560,-1.610
11401058,-0.998,0.050,0.191,0.140,0.280,-2.100
11401077,-1.006,0.026,0.176,-0.350,0.630,-2.870
11401101,-1.013,0.032,0.174,-0.490,0.630,-2.940
11401121,-1.022,0.018,0.162,-0.700,0.070,-2.730
11401141,-1.017,0.003,0.166,0.350,-0.840,-2.100
11401159,-1.014,0.019,0.163,0.140,-1.610,-0.980
11401178,-1.026,0.000,0.152,-0.210,-3.360,-0.210
11401202,-1.022,0.000,0.159,1.470,-5.320,1.190
11401223,-1.021,0.001,0.163,3.430,-7.000,1.820
11401243,-1.028,0.002,0.158,3.990,-9.030,1.960
11401260,-1.030,0.000,0.165,5.600,-10.780,2.590
11401283,-1.033,0.000,0.185,8.330,-14.070,3.920
11401301,-1.012,-0.021,0.168,9.380,-13.650,3.850
11401321,-1.013,-0.006,0.168,9.870,-15.120,3.920
11401344,-1.038,-0.017,0.178,10.990,-15.540,2.590
11401362,-0.980,-0.022,0.154,16.030,-13.230,2.030
11401383,-1.002,-0.005,0.203,20.370,-18.480,4.060
11401407,-0.980,0.055,0.215,22.400,-17.360,7.070
11401427,-0.973,0.041,0.233,20.510,-16.940,8.120
11401447,-0.964,0.100,0.267,15.750,-14.980,12.530
11401467,-0.960,0.046,0.272,11.130,-12.880,15.260
11401487,-0.948,0.121,0.290,6.300,-9.730,17.150
11401506,-0.966,0.108,0.231,-0.280,-6.930,18.270
11401527,-0.988,0.092,0.219,-3.220,-5.250,18.060
11401547,-1.035,0.013,0.197,-2.660,-7.070,16.310
11401567,-1.015,0.039,0.234,1.120,-8.890,18.200
11401588,-1.007,0.075,0.226,0.000,-9.450,19.600
11401610,-0.984,0.102,0.244,-3.290,-8.610,20.510
11401633,-0.987,0.090,0.247,-2.940,-7.840,18.550
11401654,-0.975,0.107,0.259,-1.190,-6.020,16.380
11401674,-0.967,0.111,0.269,1.260,-4.550,14.280
11401697,-0.968,0.124,0.271,2.380,-1.750,12.390
11401713,-0.979,0.131,0.261,0.910,0.140,12.180
11401738,-0.977,0.148,0.263,-1.400,2.450,11.900
11401757,-0.978,0.164,0.261,-2.730,3.570,10.920
11401778,-0.991,0.127,0.239,-3.570,4.410,8.540
11401798,-0.987,0.116,0.239,-2.660,4.760,7.980
11401818,-0.979,0.140,0.241,-1.400,5.320,7.980
11401838,-0.993,0.163,0.245,-4.060,5.670,7.070
11401858,-0.967,0.211,0.260,-6.090,6.370,5.880
11401876,-0.984,0.128,0.226,-9.310,9.030,3.920
11401896,-0.985,0.153,0.241,-6.580,10.920,1.750
11401920,-0.974,0.142,0.246,-5.740,13.300,-0.630
11401940,-0.958,0.121,0.238,-5.250,17.710,-1.120
11401959,-0.992,0.070,0.216,-0.210,18.340,-0.980
11401980,-0.955,0.146,0.221,-3.920,23.590,1.540
11402000,-0.995,0.102,0.194,-0.700,25.340,-0.350
11402019,-1.013,0.199,0.172,-7.350,25.970,-1.610
11402039,-1.001,0.102,0.158,-7.840,25.270,-3.640
11402059,-1.006,0.111,0.170,0.350,26.390,-3.500
11402081,-1.007,0.168,0.152,0.700,25.340,-4.550
11402105,-0.997,0.200,0.148,-6.580,25.760,-6.370
11402125,-0.985,0.185,0.135,-12.530,25.060,-7.140
11402144,-1.035,0.184,0.079,-18.620,20.090,-5.040
11402163,-1.058,0.073,0.048,-21.700,15.120,-3.360
11402188,-1.038,0.019,0.085,-15.260,11.900,-0.910
11402208,-1.045,0.097,0.067,-16.450,7.070,-1.680
11402228,-1.044,0.065,0.071,-15.330,3.710,-0.840
11402248,-1.030,0.041,0.086,-9.170,0.910,1.890
11402268,-1.018,0.079,0.096,-2.520,1.190,3.570
11402286,-1.009,0.186,0.088,-5.250,2.030,1.680
11402309,-1.006,0.077,0.137,-3.360,-0.210,-1.680
11402329,-0.937,0.108,0.151,0.910,3.150,-3.360
11402350,-0.936,0.162,0.183,5.250,25.690,-13.650
11402373,-0.818,0.207,0.226,9.450,70.560,-30.170
11402389,-0.859,0.201,0.211,14.420,74.830,-43.260
11402412,-0.822,0.148,0.203,29.470,112.210,-58.730
11402432,-0.869,0.304,0.057,4.060,104.370,-48.790
11402453,-0.886,-0.200,-0.212,-10.430,109.760,-43.050
11402474,-0.881,0.074,0.174,26.320,129.360,-25.970
11402498,-1.125,-0.109,-0.271,-8.540,101.710,-13.650
11402518,-1.128,0.035,-0.518,-13.790,96.670,-11.620
11402538,-1.066,-0.211,-0.326,-14.350,89.740,-1.750
11402555,-1.057,-0.072,-0.443,-5.670,64.820,6.580
11402579,-1.326,-0.245,-0.504,-2.030,42.350,27.370
11402599,-1.365,-0.067,-0.783,6.580,-6.580,53.340
11402618,-1.756,-0.003,-0.858,-8.680,-64.190,50.960
11402638,-1.956,-0.110,-0.892,4.060,-128.870,54.040
11402658,-2.231,-0.392,-0.411,32.480,-164.920,46.620
11402682,-3.161,-1.037,0.893,-3.640,-193.830,8.120
11402698,-0.904,-1.004,0.791,56.980,-277.410,40.250
11402721,-1.354,-0.049,0.640,73.990,-135.870,64.050
11402741,-1.434,-0.508,-2.903,43.890,-240.170,-59.360
11402765,0.702,0.143,-0.515,87.710,-52.430,-79.800
11402785,-0.666,0.511,0.429,53.200,-31.990,-76.930
11402806,-0.010,-0.120,0.162,24.780,0.910,-82.670
11402825,0.020,-0.677,-0.033,30.590,-4.060,-94.640
11402849,0.051,-0.258,0.209,34.230,11.550,-102.200
11402869,-0.133,0.221,0.146,-15.750,-6.930,-83.930
11402884,0.008,0.332,0.152,-50.050,0.700,-64.890
11402904,-0.089,0.569,-0.011,-105.910,9.380,-53.830
11402929,-0.090,0.747,-0.127,-153.790,5.880,-41.160
11402948,-0.188,0.961,-0.179,-211.680,12.600,-27.930
11402969,-1.136,0.854,-4.163,-264.670,83.160,-34.580
11402987,0.217,-0.535,-1.676,-198.100,427.140,21.560
11403007,-1.659,0.468,3.618,42.840,1152.480,-49.000
11403027,-4.495,1.292,1.728,-89.600,-149.590,-93.520
11403051,-1.533,-0.395,0.011,-128.870,166.250,-12.460
11403071,-1.483,-1.379,-0.898,26.810,74.620,-16.310
11403091,-1.406,-0.312,-1.840,32.130,36.960,-10.430
11403109,-1.295,-0.634,-1.391,-21.070,-3.010,28.420
11403129,-2.305,-0.567,-0.918,-59.990,-136.850,-6.370
11403153,-2.705,-1.040,-0.186,-0.700,-157.780,23.240
11403173,-2.563,-0.421,0.830,78.120,-214.200,32.900
11403193,-0.795,0.209,2.572,97.650,-206.920,83.300
11403209,-1.843,1.530,-0.065,-30.590,-169.470,117.040
11403230,-1.789,-0.069,-1.937,156.380,-303.450,82.950
11403249,0.467,1.315,-0.492,409.990,-255.220,-4.620
11403274,0.791,1.493,-1.055,116.480,-25.200,75.320
11403293,-0.255,0.349,0.349,65.380,-51.310,96.180
11403309,0.262,0.615,0.382,30.450,-31.150,115.990
11403334,-0.138,-0.278,-0.475,9.450,3.710,117.950
11403354,-0.089,-0.355,-0.392,30.310,28.000,92.050
11403378,-0.218,-0.045,-0.080,34.860,40.950,78.750
11403398,-0.170,0.122,-0.287,-16.380,63.910,61.600
11403416,-0.097,-0.854,-0.073,-13.440,71.400,33.740
11403435,-0.237,-0.920,0.249,34.370,95.830,15.960
11403455,-0.783,-0.157,-1.863,57.890,121.730,37.450
11403475,-2.855,-1.254,0.357,52.780,179.200,7.070
11403500,0.579,-1.597,-1.421,-85.820,720.440,4.970
11403520,-4.694,1.301,1.152,147.490,63.700,-27.300
11403539,-0.959,2.048,0.087,-203.980,203.070,13.860
11403556,-2.620,-0.171,0.153,-172.760,19.110,28.280
11403579,-1.690,-1.232,-1.232,38.290,75.950,11.900
11403597,-1.069,-0.477,-1.256,76.300,25.900,18.970
11403616,-0.820,0.276,-1.183,53.830,-44.940,36.750
11403641,-1.622,0.050,-0.854,-20.300,-79.380,54.740
11403661,-2.061,0.042,-0.624,-25.270,-118.650,40.880
11403681,-2.309,-0.134,-0.560,-13.720,-163.030,-17.290
11403701,-2.282,-0.449,0.182,-3.570,-208.110,-49.210
11403721,-1.954,-0.488,-0.339,-35.210,-445.060,-97.300
11403740,-0.688,-0.236,0.343,-26.600,-56.350,53.900
11403764,-2.781,-1.185,-1.931,-13.090,-196.490,-55.720
11403782,0.172,0.249,-0.880,240.100,-119.280,-71.050
11403804,-0.466,-0.034,0.090,152.880,-84.630,-60.970
11403824,-0.179,-0.300,0.379,138.390,-110.670,-93.730
11403844,0.353,-0.458,0.394,122.430,-73.220,-88.550
11403867,0.077,-0.329,0.121,117.180,-39.900,-89.950
11403886,-0.100,-0.227,0.020,99.610,-43.400,-84.700
11403910,-0.085,-0.105,0.006,38.920,-23.590,-92.890
11403927,-0.174,0.388,-0.161,-36.120,-4.830,-79.170
11403951,-0.147,0.763,-0.423,-119.420,-12.530,-63.980
11403971,-0.254,1.019,-0.448,-229.040,24.220,-54.390
11403986,-0.129,1.008,-0.509,-280.630,62.300,-57.820
11404011,-0.961,-0.109,-2.454,-400.050,79.800,-82.460
11404031,-0.637,1.288,1.562,240.590,386.120,-52.640
11404046,-4.733,2.469,1.801,-176.680,1357.510,-150.990
11404067,-2.100,-1.000,0.596,-133.350,-300.720,-91.420
11404086,-2.053,-2.822,-1.212,-59.990,26.250,-9.730
11404106,-0.798,-0.889,-1.636,117.530,29.750,-26.950
11404130,-1.985,-1.159,-1.400,28.350,-22.540,19.740
11404150,-2.802,-0.834,-0.798,-24.500,-123.200,55.440
11404174,-2.285,-0.599,0.320,22.190,-211.820,6.300
11404194,-1.519,-0.347,1.997,-85.190,-110.320,119.770
11404211,-2.220,0.884,-0.480,53.270,-162.470,118.090
11404235,-1.763,0.866,-2.732,209.860,-368.690,92.120
11404255,1.069,1.786,-1.586,202.860,-82.250,70.910
11404275,0.588,1.364,-0.005,161.770,34.160,112.630
11404293,-0.477,0.989,0.608,44.310,6.160,110.740
11404317,-0.002,0.137,0.066,-35.420,-19.180,115.850
11404337,-0.037,-0.585,0.207,-19.810,21.210,105.490
11404356,-0.124,-0.256,-0.081,-10.640,22.820,98.420
11404377,-0.167,-0.059,0.029,-60.060,41.230,94.920
11404395,-0.200,-0.226,0.008,-77.350,53.200,89.110
11404420,-0.311,-0.307,-0.231,-51.520,75.320,64.050
11404437,-0.397,-0.515,0.128,3.570,79.100,50.330
11404461,-0.094,-1.078,-0.490,78.470,128.730,61.950
11404481,-0.148,-0.551,-3.605,106.190,-281.680,64.190
11404505,-5.662,-3.199,4.426,158.550,906.990,-46.620
11404525,0.190,1.275,0.436,122.780,277.480,-109.760
11404540,-2.773,1.445,-0.260,-79.940,103.460,-76.230
11404564,-1.543,0.068,-0.752,-243.250,65.800,-37.660
11404583,-1.836,-1.612,-1.537,-14.420,31.220,22.050
11404604,-2.452,0.265,-0.547,65.170,-46.690,28.770
11404623,-2.569,-0.317,-0.607,-9.660,-114.380,32.620
11404643,-2.589,-0.590,-0.072,8.330,-160.300,18.550
11404664,-2.188,-0.647,0.399,32.830,-215.250,-15.750
11404684,-0.392,-0.150,2.156,-17.150,-103.250,15.750
11404704,-1.179,-0.061,-0.520,-183.610,35.770,57.400
11404724,-2.154,-0.492,-0.789,-61.390,-136.360,-22.470
11404748,0.208,-0.023,-0.314,-14.560,-95.480,-48.790
11404768,-0.180,-0.774,-0.005,49.280,-58.310,-87.990
11404787,-0.054,-0.803,0.170,148.680,-100.520,-120.050
11404811,0.166,-0.498,0.395,176.260,-77.630,-132.650
11404831,-0.050,-0.239,0.151,161.420,-67.900,-115.570
11404851,-0.305,0.246,-0.177,86.520,-55.650,-90.860
11404868,-0.276,0.592,-0.329,10.080,-42.840,-91.910
11404888,-0.147,0.715,-0.635,-80.640,-8.470,-83.650
11404911,-0.246,0.489,-0.228,-106.960,9.730,-116.130
11404928,-0.111,0.977,-0.092,-148.120,75.320,-136.920
11404948,-0.901,0.809,-2.826,-408.870,96.670,-85.190
11404972,0.610,0.121,-1.177,321.720,584.010,-115.500
11404992,-10.016,3.539,-0.410,-386.540,-496.020,-81.340
11405012,-1.356,-0.861,0.440,-253.120,97.230,-105.210
11405036,-2.133,-1.416,-0.910,88.130,105.350,-52.850
11405051,-1.057,-0.785,-1.214,94.430,37.240,-72.730
11405071,-2.132,-1.039,-1.315,-8.750,-15.120,13.650
11405096,-2.207,-1.123,-0.793,-72.310,-98.350,60.690
11405116,-2.521,-0.779,-0.116,-12.250,-190.610,70.070
11405136,-1.172,-0.002,2.327,40.390,-158.900,94.150
11405156,-2.164,0.515,1.656,12.390,-223.650,130.970
11405175,-1.935,0.467,-4.226,267.820,-246.050,137.480
11405192,0.916,0.175,-1.375,452.830,-358.750,101.920
11405216,0.969,1.208,-0.966,325.290,-13.230,62.510
11405236,-0.167,1.462,0.199,191.870,49.630,127.540
11405256,-0.331,0.586,0.004,81.550,-18.270,145.740
11405274,0.186,-0.098,0.261,28.910,-3.500,142.940
11405293,-0.291,-0.485,0.272,4.200,37.520,96.180
11405318,-0.180,-0.143,0.119,-44.870,61.110,69.790
11405338,-0.086,0.146,0.166,-115.220,71.050,81.690
11405356,-0.179,-0.084,-0.052,-152.180,74.130,84.420
11405377,-0.313,-1.013,-0.162,-112.000,70.280,58.800
11405401,-0.134,-1.085,0.685,-11.830,82.460,24.990
11405420,-0.927,0.314,-1.598,44.660,69.440,55.790
11405439,0.217,-1.872,-3.332,25.970,284.340,-31.780
11405464,-8.049,-3.833,-0.732,432.740,-254.590,-84.420
11405483,0.480,1.974,0.813,36.190,392.140,-83.790
11405503,-2.380,2.336,-0.484,-187.740,38.990,-33.320
11405523,-1.788,-2.728,-1.589,-211.050,101.360,13.370
11405547,-2.288,-1.533,-1.454,111.860,-72.800,43.680
11405565,-2.748,0.362,-0.531,-23.310,-112.770,55.930
11405585,-2.728,-0.209,-0.338,5.880,-161.700,26.950
11405604,-2.268,-0.462,0.489,1.610,-152.390,1.400
11405628,-1.258,-0.231,1.045,96.460,-305.830,126.840
11405648,-2.495,0.414,-1.718,-266.420,69.790,124.110
11405668,-2.701,-0.264,-1.580,-92.260,-480.200,-88.410
11405692,1.889,-0.527,-0.531,238.770,-220.570,-87.220
11405711,1.276,0.020,-0.062,96.740,-50.540,-94.500
11405730,-0.355,-0.285,0.261,79.450,-15.470,-103.180
11405751,0.074,-0.305,0.285,92.120,-63.490,-91.910
11405774,-0.101,-0.443,-0.036,95.410,-43.540,-107.380
11405795,-0.043,-0.194,0.093,98.210,-25.200,-122.640
11405815,-0.136,0.481,0.169,48.370,-5.810,-118.790
11405835,0.018,0.584,-0.061,-22.680,5.390,-97.580
11405859,-0.066,0.563,-0.376,-100.100,29.750,-66.570
11405879,-0.090,0.442,-0.433,-148.890,51.800,-66.500
11405894,0.010,0.777,0.100,-158.970,90.160,-81.130
11405919,-0.337,1.069,-0.397,-314.510,198.800,27.160
11405939,-0.544,-1.060,-7.779,-303.520,307.580,-84.770
11405959,-3.820,2.160,5.519,-181.860,1330.700,-238.980
11405974,-5.653,0.036,-0.057,-230.580,-380.100,-94.500
11405999,-2.488,-1.396,-0.142,-244.720,0.560,-57.610
11406014,-1.377,-1.632,-1.764,-0.840,89.320,-34.650
11406039,-1.541,-1.092,-1.365,-40.950,70.700,16.170
11406063,-2.113,-0.672,-0.843,-4.760,-27.020,84.840
11406083,-2.518,-0.599,-0.357,-2.100,-194.880,42.070
11406103,-2.097,-0.361,0.050,88.830,-167.020,4.760
11406122,-2.229,0.299,1.952,-84.070,-223.020,89.670
11406146,-2.307,0.615,-2.623,216.370,-184.800,155.610
11406162,-0.785,0.249,-1.224,334.530,-308.700,99.330
11406183,1.060,0.807,-1.185,208.110,-82.250,98.350
11406207,0.595,0.633,-0.491,126.420,37.590,106.820
11406227,-0.491,0.644,0.374,111.510,14.490,136.080
11406247,-0.180,0.522,0.018,24.780,-27.650,147.420
11406264,-0.093,-0.349,0.053,14.700,-25.620,126.350
11406288,-0.105,-0.625,0.054,29.610,20.090,77.350
11406307,-0.109,-0.029,-0.073,6.790,33.950,59.990
11406331,-0.061,0.000,-0.188,-36.330,29.960,70.840
11406352,-0.142,-0.226,0.153,-29.960,64.610,70.280
11406372,-0.243,-0.729,0.008,17.220,72.590,56.770
11406396,-0.629,-0.824,-1.493,87.990,138.530,27.790
11406414,1.499,-2.466,-3.503,-29.400,48.160,-84.980
11406437,-8.922,-2.184,0.120,422.940,-274.120,-79.870
11406457,0.123,2.657,0.748,-33.390,248.570,-88.620
11406476,-2.912,0.405,-0.416,-165.690,60.270,-51.170
11406500,-1.420,-1.906,-1.850,-19.670,54.110,-30.660
11406519,-2.223,-0.419,-1.079,152.740,-13.720,37.940
11406542,-2.395,-0.443,-0.743,-35.490,-111.160,69.790
11406561,-2.376,-0.256,-0.609,66.500,-131.810,66.220
11406581,-2.554,-0.008,0.484,37.590,-190.750,41.020
11406605,-1.189,-0.291,1.855,121.170,-263.830,61.040
11406629,-2.517,-0.613,-1.685,-330.190,66.640,113.960
11406651,-2.572,-0.872,-2.216,-50.750,-469.210,-45.430
11406673,0.133,0.051,-0.712,108.290,-190.120,-65.730
11406697,1.425,-0.121,-0.048,97.580,27.090,-143.150
11406717,-0.734,0.613,0.475,113.540,15.610,-126.140
11406734,0.248,0.154,0.304,47.460,-3.850,-84.280
11406758,-0.004,-0.463,-0.181,36.890,8.890,-102.410
11406778,-0.193,-0.366,0.225,52.640,4.130,-119.000
11406794,-0.084,0.251,0.283,50.960,12.600,-115.780
11406813,-0.015,0.577,0.021,-22.680,15.890,-87.780
11406838,0.070,0.553,-0.192,-100.240,44.660,-68.040
11406858,-0.113,0.565,-0.344,-168.840,57.050,-60.410
11406876,-0.165,0.368,-0.238,-212.660,56.840,-74.620
11406898,-0.527,0.307,-1.501,-269.710,120.680,-86.380
11406918,-0.288,-0.298,-5.010,-349.790,215.040,-121.380
11406942,-2.035,2.351,7.059,66.570,1458.240,-315.420
11406962,-0.454,1.757,1.190,-95.690,-45.500,-210.910
11406980,-1.700,-0.424,-0.675,-216.230,36.330,-17.360
11407002,-2.020,-1.520,-0.557,82.040,112.560,-5.530
11407026,-0.888,-0.254,-0.877,130.550,57.610,21.840
11407043,-1.864,0.038,-0.887,4.550,-37.310,30.520
11407067,-1.903,-0.846,-0.729,-42.910,-96.320,43.890
11407087,-2.296,-0.886,-0.723,-35.350,-130.340,67.550
11407106,-2.634,-0.587,-0.141,23.380,-217.630,58.590
11407125,-1.726,-0.035,-0.178,52.640,-270.620,6.720
11407148,-1.271,1.287,1.348,-81.340,-153.160,147.000
11407166,-2.105,0.607,-4.004,-71.890,32.760,213.920
11407187,0.100,-0.213,-2.664,328.300,-547.190,27.160
11407206,0.228,0.302,-0.917,216.720,-77.350,92.540
11407230,0.439,0.302,-0.340,138.390,45.850,56.560
11407251,-0.063,0.639,0.259,118.720,39.200,98.280
11407268,0.169,0.781,0.543,37.800,59.430,130.900
11407292,-0.295,-0.081,0.203,-89.110,46.340,122.920
11407312,-0.203,-0.428,-0.170,-85.190,44.310,83.440
11407331,-0.210,-0.561,-0.139,-63.910,55.510,77.980
11407354,-0.246,-0.759,0.234,-27.020,56.000,48.580
11407378,-0.465,-0.702,0.275,17.640,52.780,23.310
11407393,-0.449,-0.585,0.018,37.380,78.260,10.360
11407418,-0.840,-0.825,-0.522,4.900,104.160,-0.280
11407442,0.537,-0.675,-1.535,-43.190,240.240,-54.250
11407462,-0.865,-1.318,-1.242,133.280,419.300,-132.440
11407481,-7.299,5.687,1.714,303.940,-40.880,-25.830
11407502,-0.783,1.604,0.343,-188.720,185.710,-38.430
11407517,-3.189,-1.299,-1.224,-176.750,50.610,-0.350
11407542,-2.910,-0.768,-0.475,-24.360,9.310,-44.450
11407562,-1.385,0.563,-0.725,11.550,5.530,-6.090
11407582,-1.441,-0.754,-0.997,19.950,-27.370,21.980
11407602,-2.127,0.029,-0.734,-10.010,-79.730,37.170
11407625,-2.442,-0.297,-0.571,-19.180,-161.560,26.740
11407646,-2.282,-0.471,0.198,-23.100,-165.130,-15.260
11407666,-1.500,0.026,1.098,-67.340,-159.530,-31.710
11407690,-0.132,0.830,1.673,-109.620,-106.680,34.300
11407710,-2.274,-1.080,-4.082,-197.190,-74.340,16.800
11407730,-0.451,-0.416,-1.859,-29.400,-328.230,-53.550
11407750,0.628,-0.500,-0.483,51.450,-63.770,-51.870
11407767,0.189,-0.459,-0.335,130.760,5.950,-66.570
11407790,-0.011,-0.241,0.286,191.450,-57.190,-108.780
11407810,0.034,-0.038,0.207,190.050,-58.870,-101.640
11407830,-0.061,0.092,-0.036,171.640,-66.500,-96.670
11407850,0.026,0.342,0.150,141.330,-55.300,-93.520
11407874,-0.104,0.494,0.247,78.330,-41.230,-76.230
11407890,-0.100,0.370,-0.031,-13.510,-34.440,-82.180
11407914,-0.089,0.628,-0.526,-84.910,5.950,-109.620
11407930,0.122,1.366,-0.059,-76.650,54.880,-115.010
11407954,-1.025,0.520,-2.987,-428.610,125.160,69.930
11407974,0.034,-0.009,1.994,189.770,209.580,-183.680
11407994,-9.197,2.229,-1.087,-338.800,-136.500,-102.550
11408010,0.297,0.604,0.864,-155.260,-79.310,-121.590
11408030,-2.060,-3.528,-1.956,-133.210,94.360,-23.030
11408050,-2.186,-2.216,-1.464,26.040,43.330,-37.800
11408069,-1.423,0.592,-0.910,133.770,47.880,-26.390
11408094,-2.379,-0.766,-0.999,-59.500,-82.530,28.770
11408114,-1.794,-0.576,-0.916,-47.180,-84.630,29.260
11408134,-2.860,-1.008,-0.418,-25.900,-144.340,44.450
11408153,-2.264,-0.673,0.106,51.170,-265.300,63.350
11408174,-0.541,0.738,1.841,32.830,-165.340,77.280
11408194,-1.138,1.877,-2.321,-2.030,22.820,159.320
11408218,-1.596,1.058,-2.418,241.150,-402.710,143.920
11408238,0.468,0.241,-0.698,190.680,-1.820,43.960
11408256,0.248,0.749,-0.684,200.550,125.930,37.800
11408277,-0.188,1.068,-0.035,78.680,126.490,83.860
11408301,-0.142,0.428,0.264,-99.540,118.160,101.220
11408321,0.072,-0.662,0.293,-145.110,141.470,82.320
11408341,-0.260,-0.694,0.224,-66.710,90.720,51.940
11408361,-0.310,-0.433,0.285,-17.570,94.570,56.350
11408385,-0.449,-0.273,0.186,-36.120,64.470,52.290
11408404,-0.148,-0.792,0.296,-32.480,61.600,59.220
11408424,-0.449,-0.913,-0.137,57.750,62.300,51.240
11408444,-0.319,-0.630,-2.700,-29.750,84.490,30.170
11408463,-1.175,-2.003,2.074,209.860,270.060,-18.130
11408488,-3.632,1.911,0.469,75.320,66.290,8.120
11408506,-1.889,0.851,-0.021,-377.300,85.050,-37.520
11408527,-1.450,-0.601,-0.772,-120.960,44.240,-14.000
11408547,-1.090,-0.417,-1.465,-11.550,62.860,-66.080
11408571,-1.471,-0.214,-1.115,13.300,-39.410,-42.070
11408591,-2.033,-0.069,-0.732,-12.950,-98.490,-9.380
11408611,-2.728,-0.226,-0.402,17.010,-141.330,17.500
11408630,-2.830,-0.586,0.364,41.090,-162.050,23.590
11408649,-2.534,-0.319,1.583,64.750,-218.540,-14.070
11408669,-0.098,1.000,2.870,106.960,-398.300,115.080
11408694,-1.380,-0.161,-4.818,-33.670,154.070,47.460
11408713,-1.566,-0.096,-1.655,-69.580,-471.870,-80.710
11408734,0.541,-0.168,0.315,171.080,-97.300,-84.560
11408753,1.120,-0.225,0.765,235.900,-43.260,-101.990
11408774,0.086,0.299,0.384,209.860,-60.480,-51.940
11408793,-0.338,0.115,0.166,85.750,-128.940,-15.750
11408817,-0.203,-0.305,-0.166,12.390,-138.390,-46.620
11408836,-0.198,-0.219,-0.182,3.360,-102.690,-67.480
11408855,-0.201,0.346,-0.025,-21.140,-46.900,-60.130
11408872,-0.124,0.523,-0.167,-91.420,-35.420,-59.850
11408893,-0.061,0.374,-0.505,-183.050,-3.010,-57.540
11408913,-0.137,0.274,-0.410,-245.210,32.830,-81.550
11408937,0.008,0.424,-0.186,-293.370,127.050,-110.740
11408957,-1.428,-0.205,-4.952,-461.790,120.050,-64.260
11408977,-0.448,0.312,0.684,51.030,340.340,-217.420
11408998,-9.019,0.234,-0.951,-521.150,-61.740,-223.160
11409018,-0.864,1.178,0.008,-104.160,141.610,-195.930
11409038,-0.899,-0.553,-1.111,-232.820,120.260,-37.520
11409062,-2.736,-2.972,-2.010,53.200,-69.440,16.660
11409082,-2.117,-1.217,-0.610,167.860,-53.830,68.880
11409102,-2.641,-0.551,-0.371,-21.490,-107.520,80.220
11409126,-2.626,-0.233,0.160,-10.990,-166.950,41.580
11409146,-1.445,0.470,1.932,-104.930,-173.950,122.780
11409165,-1.593,0.787,-0.797,-58.170,-88.970,150.290
11409185,-2.267,1.176,-2.000,309.890,-322.420,41.160
11409209,0.832,0.335,-0.714,446.950,-230.650,77.210
11409229,0.719,0.893,-1.094,245.490,35.560,128.660
11409244,-0.246,0.610,0.529,258.720,50.470,123.620
11409269,-0.150,0.941,0.901,52.780,21.350,167.650
11409289,-0.407,-0.203,0.229,-83.650,-28.490,167.020
11409309,-0.022,-0.928,-0.199,-46.620,-27.440,109.480
11409333,-0.255,-0.139,-0.172,-31.220,-11.130,78.120
11409351,-0.067,0.223,0.162,-54.530,11.550,95.970
11409368,-0.444,-0.841,-0.291,-52.220,-6.720,85.680
11409390,-0.174,-1.386,-0.486,51.030,10.570,38.990
11409409,0.029,-1.355,-0.252,114.590,58.030,0.840
11409429,-0.615,-0.691,-2.458,189.210,66.220,24.710
11409452,-0.513,-1.230,-1.211,146.160,256.340,-173.880
11409473,-5.899,5.733,0.064,-55.580,-120.820,-92.890
11409493,0.447,1.988,0.964,-356.090,239.750,-174.440
11409512,-2.159,-2.122,-0.516,-108.430,203.420,-12.950
11409531,-2.458,-0.798,-0.481,-78.260,115.500,0.000
11409550,-1.707,-0.654,-0.748,25.200,-12.250,-18.550
11409569,-1.838,-0.445,-1.100,21.840,-44.310,64.260
11409594,-1.743,-0.175,-1.102,106.050,-107.030,80.710
11409614,-2.571,-0.112,-0.433,125.020,-114.170,106.120
11409634,-2.332,0.218,0.572,106.400,-198.800,83.580
11409654,-2.073,0.444,1.902,-64.890,-176.050,28.700
11409673,0.686,1.460,1.883,-60.970,92.050,12.740
11409697,-4.339,-2.420,-2.333,-77.490,-266.560,25.060
11409716,0.626,-1.031,-3.002,61.600,-610.470,-129.570
11409740,1.602,-0.132,-0.175,193.550,-38.290,-98.210
11409759,0.083,0.085,0.448,176.120,68.460,-98.700
11409775,-0.342,-0.248,0.409,125.440,-97.090,-82.320
11409798,0.177,-0.092,0.294,116.900,-54.810,-94.850
11409822,-0.119,0.201,0.155,67.480,-54.250,-84.070
11409842,-0.105,0.332,0.177,-1.260,-49.770,-72.520
11409858,-0.116,0.214,-0.005,-60.130,-37.940,-72.940
11409877,-0.218,0.201,-0.411,-127.120,-30.030,-87.430
11409902,-0.051,0.750,-0.790,-213.920,-3.080,-112.700
11409919,0.099,0.879,-0.295,-276.850,41.020,-118.790
11409943,-0.243,0.834,-0.237,-346.920,98.420,-78.680
11409963,-1.155,-1.064,-5.791,-444.990,144.970,-126.070
11409978,-0.004,-0.965,-0.312,-196.070,427.280,-242.900
11410003,-6.734,2.231,-1.301,-217.630,11.410,-201.740
11410023,0.277,0.270,0.737,-152.810,165.060,-88.620
11410043,-1.578,-2.226,-1.268,-114.100,60.060,-18.900
11410067,-1.901,-1.598,-0.492,138.810,41.650,-63.280
11410087,-1.853,-0.121,-0.799,80.710,51.380,-39.830
11410102,-1.457,-0.881,-0.868,-78.190,-2.520,-12.740
11410122,-1.467,-1.118,-0.980,-33.180,-36.820,24.290
11410142,-1.897,-1.365,-0.915,-47.390,-84.070,82.180
11410167,-2.354,-1.162,-0.508,51.240,-165.060,128.800
11410186,-2.492,-0.340,0.324,101.430,-224.560,119.350
11410206,-1.643,2.038,2.731,-12.810,-208.530,102.480
11410230,-1.616,1.249,-0.019,-165.970,-64.540,146.160
11410250,-3.436,0.042,-2.198,503.160,-430.430,153.930
11410270,0.651,0.919,-0.683,317.660,-281.260,153.160
11410289,0.676,0.961,-1.666,174.090,35.420,132.580
11410309,-0.240,0.801,0.374,266.420,126.910,128.940
11410329,0.061,0.700,0.909,48.650,103.880,162.890
11410353,-0.587,-0.507,0.510,-121.590,56.280,144.970
11410373,-0.490,-1.084,-0.270,-61.810,26.880,67.060
11410393,-0.117,-0.629,0.001,-3.850,26.040,44.520
11410413,0.008,-0.289,0.518,-27.440,29.540,50.540
11410430,-0.078,-0.287,0.203,-55.090,10.990,77.980
11410449,-0.270,-0.748,-0.006,-71.610,33.110,46.550
11410469,-0.415,-0.917,-0.049,-16.660,31.920,13.300
11410494,-1.273,-1.694,-3.239,161.000,48.580,-15.680
11410514,0.073,-1.546,-0.404,-165.550,160.020,-86.310
11410534,-4.247,0.365,-0.198,599.830,-501.480,-389.970
11410554,-2.860,4.337,0.700,-88.410,197.330,-209.510
11410577,-0.304,-0.416,-0.575,-339.570,-70.210,48.790
11410598,2.590,0.567,-1.639,94.150,921.830,83.720
11410618,-7.127,0.450,-0.874,-21.420,-372.050,-56.980
11410637,0.036,-0.667,-0.996,-68.040,81.830,-70.560
11410657,-1.945,-0.697,-0.523,-0.770,-60.620,-2.870
11410680,-2.073,-0.257,-0.684,14.770,-101.290,48.160
11410704,-2.177,-0.818,-0.351,6.230,-129.920,129.360
11410724,-2.475,-0.567,0.901,76.580,-209.300,138.670
11410744,-1.291,0.272,1.652,107.660,-240.310,156.520
11410762,-1.692,-0.022,1.248,-10.850,23.940,97.790
11410781,-3.105,-0.171,-2.679,-178.150,-246.890,140.210
11410806,-0.474,-1.384,-0.251,11.130,-192.850,-32.760
11410826,1.019,-0.156,-1.015,71.680,-48.020,-126.350
11410841,0.343,0.035,0.061,157.290,76.790,-142.450
11410865,-0.306,0.502,0.673,67.270,-4.830,-90.860
11410886,-0.064,-0.182,0.189,-5.320,-57.470,-61.390
11410904,-0.111,-0.668,0.272,15.750,-47.880,-83.090
11410924,-0.041,-0.181,0.405,72.170,-49.980,-92.820
11410944,-0.121,0.081,0.217,64.190,-59.430,-92.260
11410966,-0.084,0.055,0.101,32.690,-31.360,-77.070
11410990,-0.239,0.032,-0.313,-23.030,-25.970,-90.580
11411010,-0.160,0.015,-0.407,-105.000,3.640,-117.390
11411029,-0.187,0.460,-0.402,-165.200,25.760,-168.840
11411050,-0.752,-0.011,-6.281,-607.460,122.430,-93.380
11411074,-1.799,-0.398,1.900,377.090,161.070,-152.810
11411090,-6.033,2.175,-0.430,-136.570,-340.410,-38.850
11411114,-1.263,-0.467,0.450,-350.210,253.050,-35.700
11411134,-2.892,-6.556,-2.436,35.770,5.670,-39.480
11411154,-0.358,0.410,-0.646,40.180,76.300,-153.370
11411174,-1.931,-1.164,-1.229,7.070,-54.040,32.690
11411194,-1.773,-0.935,-0.681,-49.420,-55.370,66.290
11411218,-2.781,-1.321,-0.170,14.770,-178.430,104.020
11411237,-2.255,-0.402,0.399,30.100,-182.840,72.240
11411257,-1.492,1.105,2.619,-43.540,-158.130,117.250
11411281,-1.468,1.397,-1.448,-36.190,-77.350,145.250
11411300,-1.377,-0.384,-2.934,369.180,-240.310,206.500
11411324,0.548,0.346,-1.363,190.400,-117.950,139.090
11411348,0.886,0.062,-0.704,92.260,35.700,55.790
11411368,-0.262,0.213,0.001,122.360,103.390,62.160
11411386,-0.287,0.628,0.500,132.580,38.290,85.050
11411410,0.089,0.348,0.576,-14.560,81.620,98.770
11411428,-0.208,-0.394,0.033,-83.790,75.040,76.370
11411448,-0.383,-0.571,0.098,-69.930,77.490,45.360
11411472,-0.218,-0.027,-0.010,-100.240,80.640,45.290
11411487,-0.169,-0.357,0.416,-94.220,95.480,56.070
11411512,-0.424,-0.952,0.404,-49.630,67.130,26.950
11411532,-0.832,-0.372,-0.644,-9.870,59.430,21.210
11411552,-0.137,-0.849,-2.338,5.040,71.260,-23.100
11411572,-0.397,-1.579,-0.488,-90.300,378.770,-169.330
11411590,-3.439,2.327,2.010,62.510,110.110,-73.430
11411609,-2.173,0.955,0.603,-50.260,114.170,-67.830
11411634,-1.153,0.761,-0.664,-133.630,45.220,-17.920
11411650,-2.050,-2.147,-1.254,-105.840,75.950,-29.120
11411669,-3.507,-2.214,-1.137,-50.190,-5.250,-45.010
11411689,-0.672,1.057,-0.358,-46.830,8.820,6.930
11411712,-1.724,-0.342,-0.853,27.790,-79.240,58.380
11411733,-2.277,-0.554,-0.707,7.140,-100.240,100.870
11411752,-2.624,-0.305,-0.135,14.770,-199.850,108.430
11411774,-2.291,-0.180,1.071,-41.020,-209.090,61.110
11411799,-0.506,0.081,2.451,90.300,-317.520,203.980
11411815,-1.940,0.013,-0.619,-165.130,49.840,64.050
11411839,-1.878,-0.708,-1.720,-37.940,-504.980,-37.170
11411858,-0.265,-0.073,-0.711,140.140,-217.490,-106.400
11411878,1.677,0.165,0.086,170.240,32.060,-130.200
11411902,-0.754,0.208,0.357,177.100,75.390,-98.560
11411922,0.020,0.032,0.083,94.990,-39.340,-86.450
11411942,0.118,-0.381,0.181,85.400,-20.300,-105.070
11411958,0.042,-0.128,0.307,106.400,-25.550,-105.700
11411977,-0.053,0.548,0.179,71.680,-24.080,-73.920
11411997,-0.055,0.303,0.006,-20.300,-28.700,-43.820
11412018,0.111,0.106,-0.085,-65.590,-25.410,-63.560
11412042,-0.019,0.526,-0.279,-90.650,-10.220,-56.000
11412062,-0.073,0.629,-0.043,-153.720,6.020,-55.930
11412080,-0.354,0.640,-0.290,-199.430,19.950,-65.030
11412103,-1.081,0.093,-4.224,-416.710,70.490,-88.900
11412124,-0.124,-1.168,-2.361,-221.900,510.300,-143.010
11412147,-8.419,3.673,-0.237,-189.630,113.750,-86.310
11412168,-0.363,0.418,0.364,-105.840,47.670,-47.670
11412192,-2.102,-2.792,-1.448,17.500,62.160,-16.170
11412208,-2.064,-1.294,-0.717,118.230,60.830,-74.550
11412228,-1.702,0.092,-0.785,65.030,31.570,-42.560
11412252,-2.124,-0.403,-0.831,-38.780,-59.990,-20.160
11412272,-2.050,-0.694,-0.603,-39.340,-74.550,4.270
11412291,-2.660,-1.149,-0.294,7.350,-122.290,34.860
11412310,-2.424,-0.369,0.251,65.170,-189.630,55.720
11412335,-1.039,1.223,3.192,72.660,-276.010,192.920
11412359,-1.566,1.137,0.312,-209.860,62.160,114.940
11412378,-3.062,0.141,-2.771,382.130,-366.170,147.840
11412399,0.659,1.293,-0.513,304.780,-222.180,139.720
11412423,0.532,0.523,-0.719,131.950,-16.730,116.830
11412444,0.112,0.606,0.286,149.030,119.420,90.720
11412459,-0.368,1.034,0.448,63.070,31.640,139.720
11412483,-0.217,0.064,0.345,-66.010,15.400,173.670
11412502,-0.169,-1.033,-0.088,-12.950,-9.590,111.650
11412523,-0.107,-0.938,0.499,37.240,24.990,88.830
11412543,-0.320,-0.424,0.345,73.360,-12.040,64.260
11412562,-0.333,-0.545,0.040,32.480,-28.280,67.270
11412585,-0.044,-0.601,0.117,-17.640,49.420,30.240
11412607,-0.249,-0.863,-0.216,-47.390,106.050,8.120
11412627,-0.629,-2.609,-5.721,-34.930,86.450,-35.770
11412651,-0.703,-1.124,1.471,-264.460,460.600,-234.360
11412671,-3.874,2.876,1.249,-10.430,-9.590,-123.900
11412691,0.434,0.818,0.286,-201.600,143.920,-93.450
11412706,-3.196,-0.416,-0.006,-208.390,104.930,-1.050
11412730,-2.536,-1.668,-0.656,25.340,90.930,-101.570
11412750,-0.454,1.066,-0.347,45.990,51.310,-133.140
11412774,-0.855,-0.701,-0.765,-76.790,11.760,-7.630
11412794,-1.161,-0.529,-0.617,8.050,16.590,22.890
11412813,-1.411,0.141,-0.418,12.040,-18.690,32.830
11412834,-1.202,-0.015,-0.508,-4.620,-38.500,32.480
11412851,-1.164,-0.174,-0.482,-8.820,-55.020,37.170
11412870,-1.181,-0.318,-0.455,-4.830,-66.990,45.500
11412895,-1.107,-0.203,-0.411,14.910,-85.470,56.140
11412914,-0.991,-0.079,-0.397,14.770,-100.940,57.120
11412932,-0.897,-0.143,-0.374,28.420,-108.500,57.610
11412952,-0.695,-0.087,-0.372,55.510,-110.040,64.680
11412975,-0.644,0.012,-0.351,55.580,-98.140,72.940
11412996,-0.723,0.256,-0.186,40.180,-100.870,78.540
11413013,-0.745,0.327,-0.104,18.760,-105.560,81.200
11413033,-0.778,0.310,-0.042,0.420,-103.040,90.510
11413052,-1.057,0.319,0.072,23.100,-93.520,120.120
11413075,-0.671,0.898,0.626,3.500,-90.440,126.210
11413094,-0.953,0.081,0.334,-50.330,-53.900,106.050
11413119,-1.096,-0.180,0.161,-29.610,-25.900,53.340
11413137,-0.774,0.640,0.500,13.580,-27.020,33.460
11413159,-0.737,0.887,0.023,6.720,15.120,-1.190
11413179,-0.953,0.635,0.085,-12.460,14.070,-28.980
11413203,-1.053,0.121,0.064,-35.490,25.970,-33.040
11413222,-1.072,0.021,0.055,-7.070,7.840,-22.470
11413246,-0.952,0.285,0.041,1.260,8.050,-10.290
11413265,-0.981,0.294,0.036,5.460,2.380,-0.980
11413283,-1.034,0.328,-0.039,4.900,-2.870,3.990
11413302,-0.975,0.308,0.063,-2.170,-9.940,8.890
11413322,-0.992,0.216,0.098,-3.430,-8.540,11.830
11413347,-0.986,0.282,0.082,2.870,-10.360,12.600
11413367,-0.967,0.359,0.095,-0.770,-7.560,7.840
11413387,-0.957,0.338,0.087,-1.050,-6.230,5.110
11413404,-0.947,0.334,0.084,4.690,-5.600,2.520
11413428,-0.914,0.412,0.100,4.620,-4.130,-1.890
11413448,-0.977,0.327,0.074,0.910,-3.850,-2.870
11413468,-0.978,0.309,0.079,-1.190,-5.040,-0.280
11413487,-0.973,0.253,0.089,2.450,-5.670,3.500
11413506,-0.978,0.299,0.082,4.970,-5.810,6.580
11413529,-0.966,0.368,0.098,0.000,-6.580,6.020
11413550,-0.960,0.339,0.097,-2.590,-4.410,4.410
11413570,-0.956,0.362,0.083,-3.290,-3.430,2.800
11413591,-0.951,0.352,0.094,-5.040,-3.080,0.840
11413612,-0.968,0.321,0.086,-1.960,-3.920,1.050
11413635,-0.964,0.342,0.088,-2.870,-4.200,0.840
11413654,-0.957,0.331,0.101,-3.500,-3.360,0.700
11413674,-0.952,0.346,0.100,-3.500,-2.660,0.350
11413698,-0.943,0.339,0.120,-6.370,-0.070,-0.490
11413718,-0.949,0.315,0.115,-4.830,2.030,-0.770
11413738,-0.961,0.296,0.107,-1.190,1.820,-1.330
11413756,-0.940,0.352,0.112,-0.630,2.730,-2.310
11413777,-0.977,0.297,0.079,-1.050,3.710,-3.080
11413801,-0.972,0.317,0.080,0.070,1.750,-0.560
11413816,-0.970,0.310,0.082,-1.050,1.540,1.540
11413841,-0.970,0.330,0.088,-7.910,4.130,5.040
11413860,-0.996,0.324,0.067,-9.590,0.140,5.460
11413880,-0.960,0.308,0.090,-7.000,-1.610,3.360
11413897,-0.952,0.272,0.104,-2.310,-0.280,4.620
11413918,-0.962,0.331,0.097,0.630,0.210,5.110
11413939,-0.929,0.378,0.101,-3.430,3.570,4.130
11413963,-0.968,0.301,0.093,-4.480,4.900,2.730
11413982,-0.971,0.352,0.063,-3.500,3.010,3.920
11414003,-0.986,0.359,0.065,-3.360,0.350,1.260
11414023,-0.950,0.352,0.085,-2.800,0.560,-1.540
11414043,-0.956,0.331,0.083,-1.470,1.120,-1.120
11414065,-0.982,0.327,0.062,-3.360,1.190,-1.470
11414085,-0.962,0.345,0.064,-1.820,-0.210,-2.730
11414105,-0.970,0.307,0.077,-1.260,0.140,-2.800
11414126,-0.955,0.321,0.085,0.140,0.700,-1.120
11414147,-0.956,0.311,0.082,-1.050,1.610,0.490
11414170,-0.976,0.297,0.062,1.750,0.140,3.850
11414187,-0.995,0.328,0.054,1.400,-0.980,4.270
11414207,-0.989,0.345,0.046,1.050,-4.620,2.240
11414229,-0.985,0.352,0.050,2.100,-7.630,-0.630
11414249,-0.926,0.373,0.098,1.330,-6.930,-3.570
11414267,-0.938,0.379,0.079,-0.280,-4.410,-6.090
11414291,-0.960,0.304,0.095,-2.730,-3.360,-7.910
11414310,-0.961,0.347,0.079,-0.350,-3.150,-8.050
11414331,-0.946,0.325,0.088,-3.990,-1.470,-8.820
11414351,-0.967,0.272,0.087,-4.410,0.140,-6.580
11414371,-0.990,0.275,0.065,-6.580,-0.420,-3.850
11414389,-0.997,0.285,0.061,-4.900,-2.380,-2.870
11414413,-0.974,0.318,0.060,-5.530,-3.150,-2.940
11414430,-0.956,0.309,0.082,-5.880,-3.430,-2.590
11414452,-0.970,0.304,0.082,-7.420,-2.100,-2.100
11414472,-0.977,0.302,0.079,-8.540,-1.610,-2.380
11414491,-0.979,0.305,0.064,-9.030,-2.170,-3.570
11414516,-0.976,0.291,0.076,-6.090,-3.640,-5.320
11414536,-0.970,0.243,0.093,-1.540,-4.270,-5.530
11414556,-0.978,0.282,0.080,1.750,-4.620,-4.620
11414576,-0.975,0.298,0.083,0.560,-5.040,-3.920
11414600,-0.975,0.283,0.084,-0.350,-5.390,-2.450
11414620,-0.982,0.281,0.083,-1.260,-6.090,-1.400
11414640,-0.973,0.250,0.097,-0.910,-5.880,-0.210
11414659,-0.974,0.293,0.084,1.120,-5.670,0.840
11414680,-0.973,0.301,0.093,-0.980,-5.670,0.840
11414704,-0.976,0.299,0.093,-2.590,-5.950,-0.210
11414724,-0.973,0.290,0.097,-2.310,-4.830,-0.280
11414742,-0.960,0.273,0.105,-1.540,-3.640,-0.140
11414765,-0.980,0.279,0.097,-0.350,-3.290,0.280
11414785,-0.984,0.285,0.091,0.000,-3.780,0.490
11414802,-0.981,0.290,0.094,0.070,-3.710,-0.140
11414826,-0.968,0.283,0.103,0.840,-2.870,-0.560
11414846,-0.950,0.301,0.105,-0.140,-0.840,-0.210
11414865,-0.975,0.284,0.093,-0.980,-0.350,0.280
11414884,-0.985,0.294,0.093,-2.100,-1.050,0.350
11414903,-0.980,0.272,0.092,-1.400,-0.910,0.420
11414927,-0.977,0.249,0.113,0.070,-0.280,0.700
11414948,-0.965,0.291,0.106,-0.700,1.610,1.610
11414968,-0.960,0.316,0.080,-2.520,2.170,0.980
11414987,-0.985,0.269,0.090,-1.330,1.890,-0.700
11415007,-1.037,0.265,0.080,7.280,-2.310,0.210
11415030,-0.880,0.286,0.054,7.420,-4.900,-1.330
11415051,-0.956,0.322,0.089,3.710,-4.970,-1.680
11415071,-0.982,0.251,0.074,3.780,-4.550,-0.070
11415087,-0.998,0.253,0.081,3.150,-5.250,1.680
11415110,-0.980,0.269,0.088,2.170,-5.740,3.570
11415131,-0.983,0.280,0.084,1.190,-5.880,4.970
11415149,-0.978,0.322,0.091,-2.100,-6.090,4.270
11415173,-0.980,0.301,0.092,-3.150,-6.440,0.910
11415193,-0.962,0.282,0.111,-1.820,-5.390,-0.210
11415213,-0.964,0.296,0.101,-1.400,-4.550,-0.910
11415231,-0.968,0.275,0.091,-0.420,-3.920,-2.520
11415250,-0.988,0.278,0.101,2.100,-4.760,-3.360
11415269,-0.973,0.268,0.109,3.640,-4.270,-3.290
11415292,-0.959,0.304,0.115,3.220,-3.290,-3.360
11415316,-0.972,0.286,0.121,-0.700,-0.840,-4.130
11415334,-0.966,0.304,0.109,-1.610,0.770,-4.830
11415356,-0.960,0.285,0.110,-2.660,2.520,-6.090
11415371,-0.955,0.305,0.101,-4.340,3.710,-6.300
11415396,-0.980,0.268,0.105,-8.400,5.110,-5.670
11415414,-0.984,0.268,0.078,-10.080,4.550,-4.270
11415434,-1.017,0.235,0.075,-9.870,2.310,-3.080
11415455,-0.974,0.230,0.083,-5.320,-0.420,-1.400
11415475,-0.988,0.222,0.086,-1.610,-0.840,-0.980
11415499,-0.992,0.252,0.087,-1.330,0.210,-0.280
11415519,-0.995,0.253,0.080,-1.610,-1.120,0.210
11415538,-1.009,0.240,0.071,-0.420,-3.220,-0.280
11415559,-0.987,0.270,0.091,1.120,-3.850,0.490
11415579,-0.978,0.262,0.097,-1.190,-2.030,0.490
11415599,-0.986,0.258,0.083,-2.170,-2.450,0.350
11415622,-0.974,0.252,0.094,-4.690,-0.770,0.770
11415643,-0.959,0.304,0.081,-3.850,-0.210,-0.630
11415666,-0.967,0.335,0.088,-8.750,1.540,-1.890
11415685,-0.979,0.247,0.086,-9.030,1.960,-3.710
11415704,-0.959,0.296,0.092,-10.710,5.180,-3.850
11415728,-0.980,0.232,0.088,-12.670,4.900,-3.920
11415748,-0.988,0.223,0.087,-8.820,3.710,-3.850
11415764,-0.997,0.223,0.076,-8.190,2.170,-2.660
11415788,-0.996,0.226,0.062,-5.460,-0.560,-0.910
11415804,-0.992,0.189,0.091,-2.940,-1.820,0.560
11415824,-0.996,0.187,0.081,0.210,-3.290,2.660
11415844,-1.000,0.212,0.077,3.290,-5.040,4.480
11415864,-0.993,0.271,0.073,3.640,-5.810,5.040
11415883,-0.974,0.266,0.093,2.310,-5.740,5.320
11415908,-0.981,0.258,0.094,0.980,-4.550,5.390
11415932,-0.975,0.275,0.094,-0.280,-3.220,3.500
11415952,-1.001,0.249,0.084,-0.700,-2.940,2.100
11415967,-0.980,0.272,0.095,-0.910,-2.940,1.470
11415989,-0.983,0.244,0.095,-0.490,-1.610,0.770
11416008,-0.985,0.259,0.082,0.000,-1.470,0.980
11416029,-0.978,0.265,0.088,-1.610,-1.190,1.260
11416053,-0.996,0.244,0.084,-1.960,-0.840,1.680
11416072,-0.996,0.244,0.080,-0.700,-2.100,1.890
11416093,-0.986,0.265,0.085,-0.280,-2.310,1.890
11416112,-0.990,0.260,0.081,-1.400,-1.820,1.400
11416132,-0.986,0.238,0.081,-1.400,-2.660,1.470
11416153,-0.984,0.250,0.089,-0.560,-2.450,1.330
11416172,-0.986,0.257,0.088,0.280,-2.240,0.910
11416197,-0.982,0.264,0.088,0.000,-1.750,0.350
11416217,-0.976,0.264,0.090,-0.630,-0.840,-0.140
11416235,-0.976,0.263,0.095,-0.910,-0.210,-0.630
11416256,-0.982,0.260,0.089,-0.910,0.280,-1.610
11416278,-0.988,0.248,0.079,-0.420,0.420,-2.660
11416299,-0.984,0.244,0.081,1.120,0.140,-3.010
11416323,-0.987,0.250,0.086,1.960,0.560,-2.450
11416343,-1.004,0.244,0.074,0.210,-0.280,-2.170
11416361,-1.001,0.236,0.069,0.840,-1.470,-1.890
11416385,-1.008,0.218,0.064,2.380,-1.610,-2.870
11416405,-0.984,0.252,0.096,4.270,-3.290,-3.150
11416425,-0.996,0.236,0.077,3.990,-3.500,-2.800
11416441,-0.991,0.243,0.079,3.290,-3.640,-1.960
11416460,-0.996,0.227,0.077,1.610,-3.360,-0.490
11416480,-0.997,0.237,0.069,1.960,-4.480,0.420
11416505,-0.974,0.253,0.088,2.240,-4.480,1.820
11416526,-1.009,0.213,0.060,2.590,-5.530,2.940
11416542,-1.007,0.234,0.063,2.520,-7.700,4.410
11416565,-0.999,0.217,0.075,2.730,-9.030,5.810
11416584,-0.985,0.237,0.084,3.850,-9.310,6.510
11416608,-0.981,0.248,0.091,3.920,-8.890,6.650
11416627,-0.975,0.252,0.098,4.340,-8.750,5.880
11416647,-0.968,0.268,0.108,4.410,-7.000,5.110
11416667,-0.984,0.248,0.093,4.200,-6.300,4.690
11416691,-0.984,0.259,0.103,3.570,-5.460,4.060
11416710,-0.974,0.265,0.105,2.940,-4.830,3.430
11416731,-0.971,0.269,0.106,2.380,-3.010,2.590
11416750,-0.975,0.269,0.099,1.120,-1.890,1.960
11416772,-0.980,0.252,0.102,-0.070,-1.050,1.890
11416792,-0.986,0.247,0.104,-0.140,-0.700,2.450
11416816,-0.987,0.255,0.093,-0.490,-0.980,2.800
11416834,-0.983,0.254,0.093,-0.630,-0.910,2.940
11416854,-0.979,0.253,0.097,-0.980,-0.350,3.290
11416878,-0.975,0.253,0.103,-0.980,0.280,4.130
11416898,-0.987,0.256,0.092,-0.980,0.560,4.410
11416915,-0.983,0.255,0.086,-0.840,0.700,3.990
11416939,-0.982,0.255,0.088,0.840,0.420,3.640
11416963,-0.981,0.280,0.091,0.490,0.770,3.080
11416981,-0.981,0.273,0.083,-0.350,0.910,2.380
11417003,-0.985,0.260,0.083,-0.140,0.910,2.100
11417026,-0.989,0.240,0.085,1.610,0.420,2.170
11417047,-0.986,0.260,0.082,2.870,-0.070,3.220
11417071,-0.990,0.261,0.076,2.380,-1.470,4.690
11417090,-0.989,0.254,0.077,2.100,-1.820,5.460
11417109,-0.994,0.254,0.073,2.800,-2.520,6.510
11417130,-0.986,0.263,0.075,3.430,-3.500,6.720
11417153,-0.976,0.277,0.086,3.640,-3.570,6.860
11417173,-0.978,0.281,0.084,2.240,-3.080,6.580
11417197,-0.969,0.290,0.081,1.330,-2.240,5.880
11417217,-0.970,0.273,0.085,1.330,-1.260,5.180
11417237,-0.983,0.283,0.081,1.960,-1.260,4.410
11417257,-0.970,0.309,0.080,1.050,-0.560,3.150
11417276,-0.972,0.300,0.082,-0.280,0.140,1.750
11417300,-0.976,0.298,0.079,-1.050,0.210,0.770
11417320,-0.972,0.288,0.083,-1.260,0.420,0.350
11417339,-0.981,0.269,0.078,-0.770,0.910,0.980
11417360,-0.986,0.286,0.072,-2.030,0.490,1.260
11417381,-0.990,0.289,0.068,-2.800,-0.630,0.910
11417402,-0.987,0.280,0.064,-2.170,-1.750,0.490
11417424,-0.977,0.276,0.070,-1.190,-2.240,0.560
11417444,-0.980,0.273,0.073,-0.350,-2.520,0.840
11417464,-0.987,0.273,0.071,0.140,-2.940,1.330
11417486,-0.980,0.278,0.075,0.350,-3.430,1.750
11417508,-0.980,0.275,0.073,1.190,-4.200,2.240
11417527,-0.973,0.285,0.077,0.910,-4.060,2.450
11417552,-0.978,0.288,0.083,0.000,-3.780,2.170
11417572,-0.989,0.282,0.080,-0.560,-3.500,1.610
11417590,-0.979,0.282,0.076,-0.280,-3.780,1.540
11417614,-0.974,0.283,0.076,0.630,-4.200,1.540
11417632,-0.974,0.284,0.083,0.210,-3.990,1.820
11417654,-0.980,0.267,0.088,0.000,-3.780,2.870
11417674,-0.979,0.270,0.081,-0.070,-3.990,3.640
11417694,-0.975,0.285,0.081,-0.630,-3.500,4.200
11417713,-0.975,0.298,0.083,-0.700,-3.290,3.780
11417737,-0.986,0.277,0.077,-0.980,-3.430,2.730
11417756,-0.974,0.288,0.082,0.210,-3.850,2.310
11417777,-0.974,0.285,0.081,0.840,-3.430,2.240
11417797,-0.971,0.285,0.090,0.770,-2.590,2.170
11417815,-0.973,0.284,0.091,1.120,-2.240,2.100
11417834,-0.973,0.296,0.085,1.260,-1.680,1.470
11417859,-0.973,0.290,0.087,1.050,-0.770,0.910
11417879,-0.970,0.292,0.090,0.560,0.070,0.560
11417897,-0.969,0.299,0.085,-0.140,0.770,0.140
11417921,-0.974,0.302,0.086,-1.190,1.470,-0.980
11417941,-0.975,0.299,0.076,-3.010,1.610,-1.610
11417960,-0.981,0.287,0.074,-3.500,1.400,-1.750
11417980,-0.979,0.279,0.074,-3.430,1.190,-1.960
11417999,-0.981,0.283,0.070,-3.220,1.120,-1.960
11418024,-0.980,0.279,0.063,-2.590,0.000,-1.610
11418044,-0.984,0.277,0.061,-2.240,-1.120,-0.980
11418064,-0.985,0.270,0.059,-1.960,-2.450,-0.070
11418084,-0.981,0.267,0.068,-1.330,-3.780,0.910
11418103,-0.988,0.268,0.066,-1.610,-4.270,1.820
11418122,-0.989,0.272,0.073,-1.330,-4.970,2.380
11418147,-0.980,0.277,0.079,-0.630,-5.530,2.590
11418171,-0.972,0.283,0.080,-0.210,-5.180,2.380
11418191,-0.976,0.287,0.080,-0.630,-4.620,2.310
11418209,-0.979,0.277,0.084,-0.700,-4.690,2.450
11418231,-0.977,0.278,0.081,-0.420,-4.550,2.240
11418251,-0.976,0.279,0.083,-0.070,-4.550,2.030
11418275,-0.976,0.285,0.083,0.350,-4.200,2.100
11418295,-0.975,0.282,0.082,0.280,-3.710,2.100
11418315,-0.964,0.294,0.093,-0.350,-2.870,1.750
11418332,-0.974,0.288,0.087,-0.070,-2.170,0.980
11418352,-0.977,0.294,0.086,-0.560,-1.960,0.280
11418376,-0.976,0.283,0.089,-0.280,-1.400,-0.280
11418392,-0.977,0.282,0.081,-0.210,-1.050,-0.560
11418416,-0.975,0.279,0.083,0.490,-0.840,-0.770
11418436,-0.981,0.279,0.080,1.120,-1.120,-0.560
11418456,-0.983,0.274,0.077,1.190,-1.820,0.070
11418476,-0.979,0.265,0.081,1.190,-1.820,1.260
11418500,-0.984,0.271,0.076,0.490,-2.240,2.590
11418515,-0.984,0.273,0.081,0.420,-2.590,3.290
11418540,-0.983,0.285,0.078,0.350,-3.150,3.430
11418559,-0.981,0.278,0.081,0.630,-3.290,3.150
11418580,-0.972,0.287,0.085,0.840,-2.940,2.940
11418600,-0.977,0.281,0.083,1.330,-2.660,2.800
11418624,-0.975,0.295,0.083,0.980,-2.310,2.450
11418640,-0.972,0.285,0.082,0.980,-2.380,2.100
11418664,-0.975,0.283,0.080,1.190,-2.240,2.030
11418684,-0.985,0.275,0.079,1.260,-2.450,2.310
11418702,-0.976,0.287,0.083,1.050,-2.030,2.660
11418726,-0.978,0.293,0.080,0.490,-1.820,2.870
11418746,-0.980,0.291,0.079,-0.070,-2.100,2.940
11418762,-0.971,0.302,0.077,-0.490,-2.170,2.800
11418786,-0.976,0.285,0.082,-0.140,-2.310,2.100
11418804,-0.976,0.285,0.081,0.140,-2.590,1.960
11418825,-0.976,0.298,0.081,-0.140,-2.660,1.820
11418845,-0.976,0.296,0.075,-0.770,-2.730,1.260
11418869,-0.977,0.286,0.081,-0.350,-3.220,1.540
11418886,-0.976,0.288,0.079,-0.630,-3.080,1.820
11418907,-0.976,0.291,0.079,-1.260,-3.220,1.890
11418926,-0.978,0.291,0.075,-1.400,-3.570,1.820
11418951,-0.977,0.290,0.079,-1.330,-4.270,1.680
11418971,-0.971,0.296,0.090,-1.400,-3.920,1.680
11418991,-0.977,0.291,0.084,-1.750,-3.360,1.190
11419010,-0.977,0.295,0.083,-2.940,-3.500,1.050
11419031,-0.981,0.292,0.081,-0.980,-3.780,1.050
11419050,-0.974,0.288,0.093,-0.700,-3.150,1.120
11419070,-0.968,0.300,0.083,-0.980,-2.170,0.910
11419094,-0.970,0.290,0.087,-1.750,-2.100,0.490
11419114,-0.968,0.294,0.089,-1.400,-1.750,0.420
11419129,-0.973,0.282,0.085,-1.260,-1.750,0.420
11419154,-0.975,0.284,0.093,-0.490,-1.820,0.910
11419174,-0.983,0.285,0.080,-0.210,-1.960,1.190
11419194,-0.976,0.283,0.074,0.000,-2.870,1.470
11419214,-0.981,0.270,0.087,1.470,-3.570,1.960
11419234,-0.982,0.275,0.089,2.800,-3.850,2.660
11419254,-0.976,0.301,0.079,2.940,-4.200,2.730
11419274,-0.972,0.296,0.083,2.870,-4.480,2.450
11419294,-0.979,0.274,0.094,3.500,-4.620,2.730
11419312,-0.973,0.295,0.098,3.640,-3.850,2.940
11419336,-0.974,0.301,0.092,2.520,-3.710,2.730
11419355,-0.963,0.294,0.090,1.470,-2.520,2.520
11419376,-0.974,0.294,0.094,2.730,-1.750,3.010
11419396,-0.974,0.308,0.091,0.910,-1.190,3.010
11419413,-0.972,0.306,0.092,-0.210,-0.700,2.170
11419437,-0.972,0.293,0.091,0.140,-0.280,1.400
11419456,-0.971,0.296,0.091,1.400,0.280,1.330
11419473,-0.969,0.313,0.086,0.350,0.700,0.700
11419497,-0.969,0.313,0.081,-1.400,1.330,-0.560
11419517,-0.973,0.295,0.084,-2.100,1.400,-0.560
11419537,-0.980,0.300,0.078,-2.870,1.120,-0.630
11419557,-0.976,0.301,0.076,-3.920,0.770,-0.490
11419576,-0.980,0.289,0.070,-4.340,0.420,0.000
11419595,-0.982,0.285,0.066,-4.480,-0.560,0.560
11419616,-0.981,0.284,0.068,-3.360,-2.100,1.120
11419638,-0.983,0.282,0.075,-2.100,-3.220,1.400
11419662,-0.986,0.272,0.073,-0.700,-4.550,1.960
11419681,-0.982,0.285,0.073,-0.070,-5.810,2.800
11419701,-0.976,0.287,0.080,0.630,-6.440,3.430
11419725,-0.978,0.287,0.079,1.120,-6.650,3.780
11419749,-0.981,0.296,0.085,2.100,-7.280,3.710
11419769,-0.970,0.300,0.091,2.030,-7.140,3.430
11419788,-0.976,0.290,0.087,2.800,-7.000,3.360
11419813,-0.986,0.297,0.087,2.100,-7.490,3.010
11419832,-0.975,0.301,0.090,1.890,-8.050,2.940
11419852,-0.968,0.302,0.096,2.310,-7.630,2.590
11419876,-0.967,0.307,0.102,1.330,-6.720,2.450
11419896,-0.962,0.308,0.109,-0.280,-5.810,1.960
11419915,-0.965,0.301,0.109,-1.050,-4.760,1.540
11419938,-0.974,0.312,0.097,-1.820,-4.410,1.190
11419957,-0.976,0.295,0.097,-1.610,-4.410,1.050
11419976,-0.976,0.287,0.100,-0.910,-4.480,1.470
11420000,-0.976,0.281,0.095,-0.560,-4.760,2.590
11420018,-0.986,0.282,0.098,0.560,-6.160,3.290
11420037,-0.980,0.288,0.106,2.730,-6.510,4.060
11420062,-0.964,0.302,0.107,4.340,-7.140,5.460
11420082,-0.967,0.311,0.112,1.890,-6.650,5.600
11420101,-0.957,0.312,0.109,1.610,-5.740,4.900
11420122,-0.947,0.331,0.122,-0.070,-5.110,3.850
11420142,-0.956,0.318,0.123,-1.050,-2.730,2.380
11420162,-0.965,0.332,0.120,-1.820,-1.890,1.330
11420182,-0.962,0.289,0.121,-0.910,-1.050,0.560
11420206,-0.971,0.299,0.109,0.910,-1.330,0.630
11420225,-0.961,0.320,0.110,0.350,-0.630,0.350
11420246,-0.961,0.317,0.109,-0.490,0.210,0.000
11420266,-0.976,0.305,0.104,0.070,-1.540,0.280
11420285,-0.967,0.317,0.111,-0.070,-1.190,0.070
11420303,-0.968,0.318,0.105,-1.190,-0.210,-0.420
11420327,-0.978,0.301,0.098,-1.330,-0.910,-0.350
11420347,-0.977,0.307,0.102,-1.050,-1.820,0.350
11420367,-0.979,0.287,0.102,-0.840,-2.450,0.840
11420387,-0.980,0.294,0.098,-0.700,-3.290,1.260
11420406,-0.962,0.313,0.108,-1.120,-2.940,1.470
11420427,-0.964,0.312,0.113,-1.470,-2.380,1.470
11420446,-0.966,0.310,0.104,-1.960,-2.310,1.400
11420470,-0.970,0.308,0.112,-2.730,-1.960,1.190
11420490,-0.974,0.300,0.105,-2.310,-1.750,1.190
11420509,-0.974,0.304,0.100,-1.890,-1.890,0.980
11420529,-0.971,0.303,0.104,-1.470,-2.240,0.700
11420548,-0.969,0.309,0.104,-1.190,-2.310,0.700
11420573,-0.971,0.299,0.108,-1.330,-2.310,1.050
11420592,-0.973,0.294,0.105,-0.700,-2.590,1.470
11420613,-0.975,0.299,0.104,-0.560,-3.080,2.100
11420632,-0.976,0.302,0.108,-0.420,-3.360,2.240
11420653,-0.972,0.304,0.107,-0.490,-3.430,2.030
11420673,-0.967,0.300,0.108,0.700,-3.710,2.030
11420693,-0.967,0.307,0.104,1.470,-3.850,1.890
11420711,-0.967,0.316,0.107,1.330,-3.710,1.890
11420735,-0.972,0.300,0.108,1.330,-3.920,2.100
11420755,-0.967,0.307,0.116,0.630,-3.430,2.520
11420779,-0.963,0.308,0.116,0.560,-3.150,2.450
11420799,-0.965,0.307,0.120,0.700,-2.100,2.310
11420819,-0.977,0.305,0.114,0.420,-1.680,2.240
11420839,-0.966,0.328,0.110,-0.700,-1.400,1.960
11420855,-0.966,0.306,0.115,-1.050,-1.050,1.750
11420879,-0.976,0.304,0.108,-0.140,-1.680,1.960
11420899,-0.976,0.307,0.106,0.140,-1.890,2.170
11420919,-0.965,0.307,0.109,0.770,-1.820,2.030
11420937,-0.959,0.310,0.116,1.120,-1.120,2.310
11420957,-0.967,0.309,0.114,1.260,-0.700,2.450
11420980,-0.963,0.325,0.110,0.000,0.000,1.960
11420999,-0.971,0.321,0.103,-0.630,0.140,1.190
11421024,-0.974,0.310,0.106,-0.280,-0.420,0.840
11421044,-0.971,0.307,0.105,-0.210,-0.490,0.840
11421062,-0.969,0.314,0.104,-0.630,-0.420,1.050
11421083,-0.968,0.310,0.102,-0.910,-0.210,1.260
11421104,-0.972,0.309,0.101,-0.700,0.000,1.330
11421127,-0.977,0.302,0.097,-0.280,-1.120,1.680
11421147,-0.970,0.305,0.099,0.420,-1.190,2.100
11421165,-0.971,0.311,0.102,0.210,-1.540,2.310
11421188,-0.972,0.308,0.098,0.140,-1.750,2.310
11421209,-0.971,0.310,0.096,0.420,-1.750,2.240
11421224,-0.971,0.310,0.098,2.100,-2.730,2.100
11421248,-0.975,0.304,0.098,2.730,-3.290,1.960
11421271,-0.974,0.315,0.100,2.520,-3.500,2.170
11421291,-0.966,0.313,0.108,1.890,-3.290,1.960
11421311,-0.964,0.321,0.107,1.960,-2.590,2.590
11421327,-0.967,0.320,0.104,1.680,-2.240,2.590
11421347,-0.961,0.325,0.102,0.840,-2.240,2.170
11421367,-0.967,0.319,0.101,0.980,-2.170,1.540
11421388,-0.969,0.316,0.100,0.910,-2.450,0.980
11421408,-0.968,0.313,0.099,0.980,-2.380,1.120
11421428,-0.965,0.314,0.100,0.630,-2.520,1.470
11421448,-0.971,0.317,0.097,0.210,-2.660,1.400
11421472,-0.968,0.310,0.100,0.770,-3.080,1.260
11421496,-0.968,0.317,0.103,0.560,-3.010,1.400
11421516,-0.964,0.327,0.104,-0.560,-2.450,1.330
11421533,-0.970,0.314,0.100,-1.260,-2.240,1.050
11421557,-0.972,0.317,0.099,-0.840,-2.520,1.050
11421577,-0.966,0.315,0.101,-0.280,-2.380,0.910
11421597,-0.963,0.317,0.105,-0.490,-2.170,0.910
11421617,-0.968,0.310,0.102,-1.050,-1.610,1.120
11421637,-0.970,0.315,0.101,-0.980,-1.470,1.680
11421654,-0.968,0.313,0.101,-0.910,-1.540,1.750
11421674,-0.965,0.316,0.102,-0.980,-1.470,1.680
11421694,-0.968,0.315,0.099,-0.700,-1.330,1.680
11421718,-0.971,0.310,0.106,-0.840,-1.330,1.890
11421738,-0.969,0.311,0.099,0.000,-1.190,2.170
11421758,-0.971,0.309,0.098,0.210,-1.260,2.100
11421778,-0.969,0.313,0.096,0.770,-1.750,2.240
11421802,-0.975,0.305,0.098,1.260,-2.380,2.520
11421822,-0.966,0.320,0.097,1.400,-2.450,3.220
11421839,-0.966,0.321,0.097,1.120,-2.590,3.290
11421859,-0.973,0.305,0.103,0.980,-2.450,3.640
11421883,-0.960,0.329,0.100,1.120,-1.820,4.130
11421902,-0.959,0.333,0.097,-0.420,-1.470,4.130
11421918,-0.961,0.323,0.102,-0.770,-1.190,4.200
11421943,-0.968,0.321,0.095,0.000,-1.470,4.620
11421962,-0.963,0.326,0.096,0.070,-1.610,4.620
11421986,-0.967,0.320,0.096,1.120,-1.470,3.850
11422002,-0.969,0.325,0.092,1.260,-1.890,3.640
11422021,-0.966,0.332,0.092,2.520,-2.730,3.220
11422046,-0.967,0.328,0.101,2.590,-2.520,2.590
11422066,-0.965,0.322,0.097,3.010,-3.080,2.800
11422086,-0.962,0.341,0.091,1.540,-2.310,2.100
11422106,-0.950,0.341,0.100,0.700,-2.030,1.540
11422126,-0.960,0.341,0.093,-0.140,-1.610,1.470
11422150,-0.966,0.331,0.094,-0.980,-1.750,1.190
11422170,-0.964,0.337,0.088,-1.120,-2.030,0.910
11422189,-0.965,0.334,0.089,-0.910,-2.240,0.490
11422214,-0.968,0.337,0.097,-0.980,-2.310,0.350
11422234,-0.967,0.318,0.094,-0.490,-2.800,0.490
11422252,-0.962,0.320,0.095,0.350,-2.520,0.910
11422273,-0.963,0.331,0.089,0.700,-2.800,1.120
11422293,-0.962,0.329,0.094,0.630,-2.870,1.050
11422312,-0.961,0.330,0.097,0.840,-2.940,0.980
11422336,-0.968,0.329,0.097,0.980,-2.800,1.120
11422356,-0.969,0.332,0.101,0.910,-3.430,0.770
11422379,-0.964,0.327,0.099,0.560,-1.960,0.350
11422398,-0.960,0.332,0.098,0.910,-1.610,0.420
11422423,-0.969,0.327,0.093,0.770,-1.750,0.700
11422443,-0.967,0.322,0.091,0.700,-2.030,1.330
11422462,-0.972,0.324,0.091,0.280,-2.380,1.540
11422483,-0.960,0.334,0.096,0.070,-2.380,1.470
11422503,-0.952,0.328,0.100,-0.070,-1.960,1.400
11422523,-0.965,0.328,0.096,0.210,-1.680,1.610
11422543,-0.973,0.332,0.092,0.000,-2.030,1.050
11422559,-0.962,0.322,0.096,0.490,-2.030,0.700
11422583,-0.966,0.328,0.095,1.050,-1.610,0.700
11422603,-0.963,0.334,0.093,0.980,-1.330,0.560
11422622,-0.965,0.334,0.094,0.840,-1.330,0.280
11422647,-0.963,0.327,0.093,0.980,-1.050,-0.210
11422666,-0.962,0.324,0.094,1.120,-0.770,-0.210
11422687,-0.961,0.325,0.097,0.350,0.070,-0.070
11422703,-0.961,0.326,0.096,0.490,0.490,-0.210
11422727,-0.958,0.340,0.093,-0.560,0.980,-0.770
11422747,-0.957,0.338,0.088,-1.400,1.470,-1.540
11422767,-0.963,0.334,0.087,-2.870,1.890,-2.100
11422786,-0.968,0.337,0.084,-3.850,2.030,-2.520
11422807,-0.966,0.327,0.082,-4.900,2.310,-2.590
11422825,-0.970,0.315,0.078,-4.200,1.680,-2.450
11422845,-0.979,0.301,0.077,-3.010,0.840,-2.030
11422865,-0.971,0.310,0.080,-1.680,0.210,-1.050
11422889,-0.972,0.310,0.077,-1.470,0.000,-0.140
11422908,-0.978,0.309,0.075,-1.330,-1.120,0.560
11422929,-0.975,0.308,0.073,-0.420,-2.100,1.260
11422953,-0.976,0.309,0.074,0.770,-3.500,1.890
11422971,-0.975,0.309,0.077,0.840,-4.060,2.520
11422995,-0.974,0.308,0.074,1.610,-4.830,3.360
11423015,-0.972,0.315,0.081,2.030,-5.320,3.500
11423033,-0.972,0.325,0.084,2.380,-5.950,3.640
11423055,-0.966,0.321,0.087,2.380,-6.020,3.150
11423079,-0.965,0.323,0.088,2.450,-5.600,2.870
11423102,-0.961,0.328,0.087,2.240,-5.110,2.310
11423123,-0.962,0.333,0.091,1.540,-4.480,1.610
11423143,-0.959,0.332,0.093,0.630,-3.850,0.980
11423159,-0.964,0.324,0.092,0.350,-3.360,0.630
11423179,-0.963,0.330,0.088,0.490,-2.800,0.350
11423203,-0.963,0.327,0.090,-0.210,-2.520,0.070
11423223,-0.965,0.320,0.091,-0.350,-2.170,-0.070
11423241,-0.967,0.323,0.088,-0.490,-1.960,0.070
11423265,-0.969,0.320,0.088,-0.420,-2.030,0.140
11423284,-0.971,0.320,0.089,-0.560,-2.100,0.140
11423304,-0.971,0.318,0.083,-0.350,-2.520,0.140
11423328,-0.965,0.321,0.088,0.140,-2.800,0.420
11423347,-0.970,0.308,0.091,0.350,-2.660,0.700
11423371,-0.970,0.313,0.089,0.490,-2.870,0.840
11423395,-0.959,0.329,0.092,0.910,-2.590,0.700
11423415,-0.967,0.319,0.092,0.910,-2.100,0.280
11423438,-0.967,0.328,0.095,0.420,-1.610,0.000
11423454,-0.963,0.325,0.089,0.140,-1.120,-0.280
11423479,-0.967,0.312,0.089,0.350,-0.840,-0.140
11423499,-0.970,0.313,0.087,0.070,-0.770,0.350
11423518,-0.970,0.325,0.087,-0.770,-0.770,0.560
11423535,-0.971,0.308,0.089,-0.840,-0.630,0.350
11423555,-0.968,0.322,0.083,-0.280,-0.840,0.420
11423576,-0.971,0.317,0.083,-0.210,-1.260,0.420
11423600,-0.971,0.314,0.082,-0.700,-1.470,0.350
11423615,-0.970,0.308,0.083,-0.280,-1.890,0.560
11423640,-0.973,0.309,0.083,0.280,-2.170,1.050
11423659,-0.970,0.316,0.083,0.350,-2.240,0.980
11423679,-0.967,0.318,0.083,0.280,-2.240,0.980
11423703,-0.971,0.311,0.085,0.140,-2.170,1.120
11423722,-0.966,0.323,0.089,-0.070,-1.820,1.190
11423741,-0.967,0.314,0.087,-0.210,-1.050,0.910
11423761,-0.965,0.323,0.084,-0.490,-0.770,0.770
11423786,-0.967,0.317,0.086,-0.630,-0.700,0.070
11423806,-0.967,0.314,0.086,-0.420,-0.280,0.000
11423826,-0.968,0.320,0.082,-0.700,-0.070,0.140
11423846,-0.976,0.310,0.071,-0.770,-0.700,0.490
11423865,-0.970,0.317,0.077,-0.770,-1.330,0.420
11423886,-0.970,0.310,0.081,-0.630,-1.330,0.490
11423903,-0.971,0.312,0.079,-0.560,-1.470,0.840
11423923,-0.976,0.305,0.078,-0.630,-1.750,1.120
11423947,-0.975,0.314,0.073,0.000,-2.240,0.840
11423967,-0.967,0.315,0.073,0.070,-2.800,0.700
11423984,-0.971,0.310,0.084,0.280,-2.870,0.910
11424003,-0.971,0.312,0.078,0.140,-2.940,1.120
11424028,-0.971,0.311,0.076,0.280,-3.150,1.400
11424048,-0.968,0.314,0.081,0.420,-3.290,1.400
11424068,-0.970,0.314,0.082,0.000,-3.220,1.190
11424085,-0.972,0.318,0.082,0.070,-3.290,1.050
11424109,-0.969,0.316,0.080,-0.070,-3.290,0.630
11424127,-0.970,0.315,0.079,0.140,-3.220,0.630
11424147,-0.975,0.310,0.078,0.140,-3.570,1.050
11424171,-0.975,0.313,0.078,-0.350,-4.410,1.120
11424187,-0.965,0.310,0.086,-0.630,-4.060,1.050
11424211,-0.964,0.315,0.089,-0.700,-3.430,1.120
11424230,-0.971,0.318,0.086,-1.120,-3.150,0.910
11424251,-0.968,0.313,0.087,-1.190,-3.010,0.560
11424275,-0.967,0.299,0.087,0.350,-2.660,1.190
11424295,-0.968,0.318,0.082,0.070,-2.660,1.680
11424314,-0.977,0.309,0.080,0.210,-3.430,1.470
11424334,-0.971,0.309,0.082,0.910,-3.570,1.470
11424355,-0.973,0.297,0.087,2.590,-3.850,2.170
11424375,-0.978,0.308,0.086,3.570,-4.900,2.730
11424392,-0.974,0.320,0.089,1.890,-3.850,2.660
11424412,-0.971,0.314,0.088,1.260,-3.430,2.450
11424436,-0.963,0.313,0.093,1.890,-3.430,2.100
11424456,-0.966,0.314,0.090,1.820,-2.520,2.240
11424476,-0.959,0.331,0.095,-0.280,-1.330,1.680
11424496,-0.965,0.322,0.092,-1.050,-0.630,1.400
11424516,-0.970,0.320,0.085,-0.980,-0.490,1.050
11424535,-0.961,0.319,0.087,-1.540,-0.350,0.770
11424555,-0.960,0.321,0.090,-2.100,0.420,0.560
11424578,-0.967,0.319,0.089,-2.730,0.980,0.350
11424599,-0.973,0.310,0.078,-2.800,0.910,0.140
11424618,-0.967,0.321,0.079,-2.660,0.630,0.000
11424638,-0.973,0.310,0.082,-3.080,0.700,-0.210
11424659,-0.972,0.325,0.077,-3.850,0.350,-0.280
11424682,-0.973,0.313,0.071,-3.640,-0.490,-0.560
11424702,-0.972,0.302,0.075,-1.890,-1.470,-0.140
11424721,-0.971,0.305,0.079,-1.050,-1.890,0.560
11424741,-0.978,0.301,0.075,-1.190,-2.450,1.540
11424765,-0.983,0.298,0.069,-0.630,-3.780,2.100
11424785,-0.978,0.298,0.072,0.630,-4.970,2.660
11424805,-0.972,0.311,0.081,1.400,-5.390,2.870
11424822,-0.968,0.318,0.086,1.400,-5.460,3.080
11424841,-0.968,0.314,0.085,1.050,-5.390,2.870
11424861,-0.965,0.320,0.086,0.910,-5.250,2.660
11424885,-0.972,0.311,0.084,1.470,-5.110,2.450
11424904,-0.964,0.323,0.092,1.120,-4.620,2.240
11424923,-0.964,0.324,0.091,0.420,-4.270,1.960
11424947,-0.964,0.320,0.094,-0.420,-3.500,1.540
11424967,-0.965,0.321,0.091,-0.910,-2.940,1.610
11424987,-0.963,0.314,0.092,-1.120,-2.730,1.750
11425006,-0.966,0.307,0.090,-0.700,-2.590,2.100
11425027,-0.970,0.310,0.083,-0.140,-2.870,2.730
11425049,-0.974,0.314,0.085,-0.140,-3.290,2.940
11425067,-0.967,0.321,0.089,0.140,-3.500,2.590
11425091,-0.967,0.321,0.088,0.490,-3.150,2.520
11425110,-0.966,0.321,0.089,0.630,-3.010,1.960
11425131,-0.960,0.330,0.092,0.770,-2.660,1.400
11425149,-0.967,0.308,0.100,1.330,-2.310,1.260
11425172,-0.971,0.307,0.093,1.260,-2.030,1.890
11425192,-0.968,0.328,0.087,1.610,-1.750,2.590
11425216,-0.959,0.341,0.089,-0.210,-1.680,1.890
11425235,-0.961,0.325,0.093,-0.910,-0.910,1.050
11425256,-0.956,0.339,0.094,-1.820,0.000,-0.280
11425276,-0.959,0.337,0.094,-2.660,0.980,-1.330
11425294,-0.960,0.326,0.088,-3.080,1.750,-1.680
11425318,-0.957,0.315,0.092,-3.010,1.610,-1.190
11425338,-0.973,0.323,0.086,-3.360,0.980,-0.630
11425356,-0.983,0.289,0.076,-2.030,0.000,-0.420
11425377,-0.977,0.301,0.072,-0.350,-0.560,0.140
11425401,-0.981,0.307,0.078,1.190,-3.640,1.190
11425421,-0.977,0.307,0.081,1.540,-3.220,0.770
11425441,-0.965,0.325,0.085,-0.210,-1.680,0.770
11425459,-0.970,0.317,0.078,0.000,-1.680,0.840
11425481,-0.967,0.316,0.080,-0.700,-1.750,0.560
11425503,-0.969,0.309,0.084,-0.420,-1.890,0.980
11425522,-0.965,0.309,0.088,-0.700,-1.540,1.470
11425543,-0.974,0.311,0.085,-0.700,-1.330,1.400
11425567,-0.968,0.323,0.080,-1.190,-0.910,0.910
11425587,-0.968,0.322,0.079,-0.560,-1.190,0.210
11425606,-0.970,0.316,0.077,0.000,-1.540,-0.350
11425626,-0.971,0.309,0.081,-0.280,-1.540,-0.210
11425647,-0.977,0.313,0.074,-0.980,-1.890,0.490
11425671,-0.976,0.306,0.069,-0.910,-2.940,1.190
11425691,-0.976,0.307,0.074,-0.070,-3.640,1.470
11425710,-0.972,0.308,0.080,-0.070,-3.640,1.960
11425731,-0.968,0.318,0.083,-0.490,-3.780,2.170
11425751,-0.970,0.312,0.077,-0.700,-3.710,2.030
11425775,-0.968,0.320,0.079,-0.350,-4.060,1.820
11425790,-0.970,0.315,0.082,-0.140,-4.340,1.680
11425815,-0.964,0.324,0.087,-0.490,-3.990,1.400
11425834,-0.970,0.310,0.086,-0.210,-3.850,1.400
11425855,-0.971,0.315,0.080,0.070,-4.340,1.680
11425875,-0.981,0.307,0.089,0.630,-5.110,1.890
11425894,-0.965,0.314,0.086,1.260,-4.900,2.520
11425910,-0.979,0.311,0.088,1.120,-5.600,2.450
11425935,-0.967,0.321,0.088,0.840,-4.480,2.100
11425951,-0.968,0.313,0.089,1.120,-3.920,1.750
11425972,-0.960,0.322,0.095,1.750,-3.430,1.540
11425995,-0.962,0.321,0.091,1.400,-2.660,1.330
11426016,-0.974,0.318,0.086,1.120,-2.800,1.190
11426033,-0.970,0.322,0.086,0.840,-3.150,1.260
11426057,-0.964,0.314,0.086,1.050,-3.080,1.260
11426077,-0.972,0.313,0.092,1.470,-2.800,1.540
11426097,-0.978,0.312,0.089,1.470,-3.150,1.470
11426115,-0.966,0.326,0.090,0.770,-3.010,1.540
11426135,-0.956,0.320,0.092,1.330,-2.450,1.470
11426158,-0.971,0.310,0.089,1.470,-2.030,1.890
11426182,-0.970,0.325,0.096,0.210,-1.820,1.890
11426201,-0.967,0.325,0.089,-0.350,-1.680,1.400
11426225,-0.966,0.324,0.092,-0.280,-1.330,1.190
11426245,-0.961,0.330,0.094,-1.190,-0.700,0.770
11426265,-0.956,0.330,0.094,-2.240,0.350,0.140
11426282,-0.962,0.322,0.089,-2.170,0.840,-0.210
11426306,-0.969,0.317,0.087,-1.890,1.120,-0.630
11426325,-0.966,0.325,0.082,-1.960,1.260,-0.980
11426345,-0.976,0.315,0.086,-2.170,1.470,-1.680
11426369,-0.971,0.316,0.080,-1.260,0.840,-1.960
11426389,-0.970,0.317,0.077,-0.910,0.770,-2.310
11426405,-0.973,0.315,0.075,-0.630,0.210,-2.660
11426429,-0.972,0.312,0.075,-0.070,-0.630,-2.590
11426445,-0.973,0.305,0.075,0.280,-1.540,-2.030
11426466,-0.977,0.303,0.074,0.770,-2.660,-0.560
11426485,-0.984,0.295,0.070,0.700,-3.850,0.490
11426510,-0.980,0.298,0.072,0.630,-4.900,1.540
11426527,-0.973,0.303,0.081,0.700,-5.390,1.960
11426547,-0.971,0.314,0.081,0.630,-5.040,2.030
11426567,-0.966,0.318,0.086,0.560,-5.040,1.820
11426591,-0.970,0.308,0.081,0.000,-4.410,1.400
11426610,-0.967,0.311,0.086,0.000,-3.990,1.190
11426631,-0.970,0.311,0.086,-0.070,-3.850,1.120
11426646,-0.971,0.310,0.086,-0.210,-3.850,0.980
11426671,-0.965,0.310,0.089,-0.070,-3.290,0.980
11426691,-0.971,0.310,0.086,-0.770,-3.360,0.910
11426710,-0.971,0.313,0.087,-0.770,-3.220,0.980
11426729,-0.970,0.312,0.089,-0.490,-3.150,1.050
11426754,-0.969,0.314,0.088,-1.190,-3.010,0.840
11426770,-0.966,0.316,0.087,-1.400,-2.730,0.700
11426789,-0.973,0.303,0.087,-1.400,-2.660,0.490
11426813,-0.977,0.300,0.086,-0.420,-3.360,0.560
11426833,-0.978,0.305,0.086,0.070,-3.850,0.980
11426854,-0.972,0.309,0.090,-0.140,-3.850,1.120
11426870,-0.969,0.311,0.089,-0.560,-3.850,1.120
11426890,-0.971,0.302,0.092,-0.140,-4.130,1.190
11426914,-0.971,0.310,0.089,0.350,-4.060,1.120
11426934,-0.971,0.309,0.096,0.560,-3.990,1.120
11426954,-0.964,0.315,0.099,0.210,-3.220,1.120
11426974,-0.969,0.306,0.096,-0.140,-2.730,0.770
11426992,-0.968,0.307,0.096,0.280,-2.520,0.630
11427016,-0.965,0.314,0.098,0.000,-1.680,0.280
11427035,-0.969,0.310,0.091,0.000,-1.540,0.140
11427055,-0.973,0.303,0.098,-0.350,-1.330,0.280
11427074,-0.970,0.304,0.090,-0.070,-1.400,0.630
11427099,-0.974,0.305,0.089,-0.140,-1.540,0.700
11427119,-0.972,0.309,0.089,-0.560,-1.680,0.770
11427144,-0.973,0.303,0.088,-0.350,-1.890,0.980
11427163,-0.974,0.303,0.091,-0.350,-1.960,1.120
11427183,-0.971,0.312,0.089,-0.280,-2.100,1.330
11427203,-0.974,0.306,0.090,-0.490,-2.380,1.260
11427222,-0.972,0.306,0.089,-0.420,-2.310,1.190
11427241,-0.974,0.303,0.088,-0.490,-2.310,1.050
11427264,-0.968,0.308,0.090,-0.350,-2.520,0.910
11427285,-0.974,0.307,0.091,-0.490,-2.450,1.050
11427305,-0.973,0.310,0.091,-0.490,-2.450,1.190
11427325,-0.967,0.305,0.092,-0.770,-2.310,1.050
11427345,-0.970,0.304,0.090,-0.560,-2.030,1.120
11427369,-0.971,0.307,0.093,-0.140,-2.030,1.050
11427389,-0.973,0.308,0.086,-0.140,-2.310,0.980
11427409,-0.968,0.306,0.089,-0.280,-2.450,1.050
11427429,-0.968,0.298,0.090,0.350,-2.660,1.470
11427449,-0.973,0.305,0.088,0.000,-2.380,1.750
11427473,-0.973,0.311,0.089,-0.280,-2.730,1.610
11427493,-0.975,0.311,0.088,-0.350,-3.080,1.470
11427509,-0.974,0.306,0.090,-0.350,-3.080,1.540
11427528,-0.972,0.307,0.092,-0.490,-3.010,1.470
11427549,-0.973,0.307,0.094,-0.420,-3.290,1.680
11427573,-0.974,0.308,0.093,-0.420,-3.570,1.750
11427593,-0.971,0.311,0.094,-0.700,-3.570,1.470
11427611,-0.970,0.305,0.096,-0.560,-3.290,1.680
11427635,-0.971,0.303,0.095,0.280,-3.850,1.960
11427654,-0.968,0.308,0.093,-0.420,-3.220,1.680
11427670,-0.975,0.307,0.095,-0.420,-3.080,1.610
11427695,-0.967,0.308,0.094,0.140,-2.870,1.750
11427715,-0.968,0.309,0.097,0.210,-2.590,1.680
11427732,-0.971,0.303,0.095,0.630,-2.870,1.750
11427755,-0.981,0.300,0.096,1.400,-3.640,1.750
11427776,-0.965,0.313,0.101,1.890,-2.870,1.750
11427796,-0.966,0.317,0.090,0.980,-2.240,1.330
11427816,-0.969,0.312,0.095,0.840,-2.240,1.400
11427833,-0.976,0.309,0.093,0.560,-2.310,1.470
11427857,-0.970,0.311,0.095,0.350,-2.450,1.750
11427873,-0.963,0.309,0.095,-0.280,-2.030,1.890
11427893,-0.971,0.303,0.096,0.140,-1.890,2.380
11427917,-0.976,0.315,0.092,-0.840,-2.100,2.590
11427936,-0.970,0.315,0.094,-1.050,-1.960,2.380
11427955,-0.971,0.305,0.099,0.070,-2.100,2.310
11427974,-0.968,0.316,0.094,0.420,-2.030,2.450
11428000,-0.964,0.319,0.098,-0.070,-1.680,1.890
11428019,-0.969,0.313,0.099,0.280,-1.330,1.400
11428038,-0.970,0.317,0.097,0.560,-0.770,0.770
11428059,-0.967,0.324,0.093,0.280,-0.280,0.070
11428083,-0.968,0.314,0.095,0.000,0.070,-0.350
11428103,-0.971,0.304,0.089,0.560,-0.140,-0.140
11428122,-0.970,0.313,0.086,0.490,-0.490,0.210
11428146,-0.972,0.311,0.084,0.000,-0.910,0.210
11428166,-0.971,0.311,0.085,-0.350,-1.330,0.560
11428186,-0.974,0.309,0.087,-0.490,-1.470,0.840
11428205,-0.971,0.311,0.088,-0.210,-1.470,0.910
11428225,-0.969,0.314,0.089,-0.560,-1.750,0.420
11428242,-0.970,0.312,0.087,-0.630,-1.680,0.140
11428266,-0.971,0.314,0.086,-0.420,-1.960,-0.070
11428285,-0.973,0.307,0.086,-0.350,-2.030,0.140
11428305,-0.975,0.306,0.089,-0.770,-2.310,0.350
11428328,-0.970,0.314,0.090,-0.910,-2.100,0.210
11428349,-0.967,0.320,0.088,-1.470,-2.100,-0.210
11428369,-0.969,0.312,0.087,-1.890,-2.450,-0.280
11428390,-0.974,0.310,0.086,-2.100,-2.730,-0.070
11428408,-0.974,0.301,0.090,-1.960,-3.010,0.140
11428429,-0.968,0.310,0.092,-2.380,-3.080,0.350
11428449,-0.982,0.288,0.085,-2.030,-3.150,0.280
11428467,-0.976,0.300,0.086,-0.980,-3.500,0.560
11428491,-0.976,0.295,0.083,0.070,-4.200,0.910
11428508,-0.976,0.294,0.086,0.700,-4.480,1.120
11428528,-0.974,0.297,0.091,1.400,-5.040,1.540
11428547,-0.975,0.298,0.090,1.820,-5.460,2.100
11428572,-0.972,0.301,0.095,2.100,-6.020,2.800
11428590,-0.973,0.305,0.095,1.960,-6.300,3.220
11428612,-0.968,0.312,0.101,1.470,-6.020,3.080
11428636,-0.968,0.313,0.100,1.120,-5.600,2.660
11428656,-0.965,0.315,0.101,1.050,-5.040,2.310
11428676,-0.969,0.322,0.105,0.560,-5.110,1.610
11428700,-0.966,0.316,0.106,0.000,-4.130,0.980
11428720,-0.970,0.312,0.103,-0.210,-3.780,0.770
11428737,-0.966,0.310,0.104,-0.070,-3.290,0.700
11428760,-0.967,0.309,0.104,0.000,-3.010,0.630
11428780,-0.968,0.310,0.102,-0.560,-2.870,0.700
11428800,-0.970,0.311,0.102,-0.700,-3.220,0.560
11428820,-0.970,0.309,0.102,-0.350,-3.430,0.490
11428837,-0.970,0.302,0.105,-0.280,-3.290,0.630
11428861,-0.969,0.306,0.105,-0.140,-2.940,1.050
11428881,-0.970,0.308,0.103,-0.350,-2.520,1.190
11428905,-0.974,0.308,0.103,-0.490,-2.800,1.050
11428925,-0.966,0.311,0.105,-0.350,-2.660,0.770
11428945,-0.969,0.314,0.107,-0.350,-2.450,0.560
11428965,-0.969,0.308,0.104,-0.770,-2.030,0.280
11428985,-0.969,0.306,0.104,-0.770,-1.820,0.350
11429005,-0.971,0.305,0.101,-0.630,-1.890,0.420
11429026,-0.970,0.305,0.103,-0.350,-1.750,0.630
11429043,-0.970,0.302,0.101,-0.630,-1.820,0.770
11429067,-0.972,0.307,0.104,-0.350,-1.960,0.910
11429087,-0.970,0.310,0.102,-0.420,-1.820,1.050
11429106,-0.969,0.306,0.103,-0.420,-1.890,0.980
11429127,-0.969,0.307,0.106,-0.420,-1.820,0.910
11429147,-0.967,0.310,0.104,-0.490,-1.750,0.770
11429164,-0.968,0.312,0.104,-0.630,-1.610,0.350
11429184,-0.967,0.309,0.104,-0.700,-1.400,0.140
11429204,-0.971,0.303,0.102,-0.700,-1.120,-0.070
11429227,-0.971,0.308,0.102,-0.560,-1.050,-0.140
11429243,-0.972,0.306,0.102,-0.560,-1.050,-0.350
11429263,-0.972,0.303,0.101,-0.490,-1.120,-0.280
11429287,-0.974,0.304,0.096,-0.630,-1.400,-0.210
11429308,-0.977,0.297,0.097,-0.350,-2.100,0.140
11429328,-0.971,0.301,0.101,-0.350,-2.100,0.490
11429348,-0.970,0.305,0.101,-0.560,-2.170,0.490
11429367,-0.971,0.299,0.103,-0.630,-1.820,0.490
11429392,-0.966,0.304,0.102,0.070,-1.750,0.560
11429412,-0.971,0.302,0.101,-0.070,-1.820,0.140
11429432,-0.971,0.309,0.100,-0.140,-1.680,-0.210
11429451,-0.974,0.297,0.099,-0.140,-1.400,-0.280
11429475,-0.973,0.302,0.100,-0.350,-1.470,-0.140
11429495,-0.975,0.299,0.095,-0.350,-1.470,-0.210
11429513,-0.970,0.299,0.099,-0.350,-1.610,-0.140
11429533,-0.970,0.301,0.098,-0.560,-1.680,0.000
11429556,-0.973,0.300,0.099,-1.190,-1.400,0.070
11429575,-0.975,0.302,0.099,-0.770,-1.820,0.070
11429595,-0.972,0.297,0.098,-0.280,-1.890,0.000
11429616,-0.970,0.304,0.098,0.280,-1.960,-0.280
11429640,-0.971,0.302,0.102,0.140,-1.610,-0.700
11429658,-0.969,0.301,0.100,-0.140,-1.120,-0.910
11429680,-0.968,0.296,0.102,-0.630,-0.770,-0.560
11429699,-0.972,0.295,0.095,-0.770,-0.350,0.000
11429722,-0.984,0.285,0.090,-1.470,-1.050,0.210
11429742,-0.978,0.299,0.094,-1.610,-1.400,0.350
11429762,-0.976,0.285,0.094,-1.330,-1.610,0.560
11429782,-0.976,0.290,0.096,-1.190,-1.610,1.050
11429805,-0.978,0.293,0.095,-1.330,-1.750,1.190
11429826,-0.976,0.295,0.092,-0.770,-2.450,0.770
11429842,-0.968,0.299,0.095,-0.490,-2.590,0.560
11429866,-0.965,0.303,0.102,-0.560,-1.960,0.840
11429886,-0.977,0.290,0.095,-2.030,-1.470,0.560
11429906,-0.976,0.299,0.094,-2.030,-1.260,0.140
11429926,-0.971,0.291,0.094,-1.190,-1.470,0.070
11429945,-0.975,0.292,0.096,-1.120,-1.260,0.350
11429968,-0.982,0.291,0.092,-1.680,-1.330,0.840
11429988,-0.986,0.280,0.089,-1.260,-2.380,0.700
11430012,-0.979,0.284,0.092,0.420,-3.290,0.770
11430031,-0.974,0.285,0.095,1.190,-3.290,1.260
11430052,-0.976,0.293,0.097,0.560,-3.150,1.610
11430070,-0.975,0.292,0.094,0.490,-3.220,1.540
11430090,-0.973,0.289,0.096,1.190,-3.360,1.260
11430110,-0.977,0.288,0.092,1.610,-3.570,1.330
11430134,-0.972,0.300,0.098,0.630,-3.500,1.260
11430157,-0.974,0.291,0.096,0.700,-3.570,1.260
11430178,-0.974,0.290,0.098,0.280,-3.150,1.190
11430195,-0.970,0.295,0.100,0.420,-3.080,1.260
11430220,-0.973,0.297,0.099,0.140,-2.590,1.260
11430239,-0.970,0.295,0.097,0.210,-2.590,0.910
11430259,-0.973,0.289,0.102,0.140,-2.100,0.910
11430278,-0.976,0.292,0.096,0.280,-2.030,1.400
11430298,-0.976,0.294,0.095,-0.770,-2.100,1.330
11430322,-0.972,0.293,0.099,-0.350,-2.030,1.470
11430341,-0.975,0.292,0.097,-0.140,-2.030,1.540
11430365,-0.975,0.288,0.094,0.140,-2.380,1.680
11430385,-0.978,0.291,0.094,0.280,-2.660,1.610
11430404,-0.971,0.298,0.096,0.280,-2.520,1.470
11430427,-0.974,0.292,0.099,0.700,-2.520,1.330
11430448,-0.971,0.304,0.097,0.140,-2.380,0.910
11430466,-0.975,0.296,0.097,-0.140,-2.170,0.420
11430490,-0.976,0.293,0.098,0.210,-2.100,0.350
11430508,-0.977,0.295,0.096,-0.210,-2.240,0.350
11430528,-0.976,0.292,0.098,-0.700,-2.240,0.210
11430552,-0.974,0.291,0.099,-0.630,-2.170,0.350
11430572,-0.972,0.291,0.099,-0.630,-1.890,0.910
11430589,-0.971,0.292,0.096,-0.910,-1.470,0.910
11430610,-0.974,0.294,0.095,-1.050,-1.750,0.770
11430631,-0.975,0.291,0.099,-0.910,-1.610,0.560
11430654,-0.978,0.292,0.091,-0.490,-1.540,0.700
11430674,-0.978,0.295,0.092,-1.120,-2.030,0.420
11430694,-0.977,0.293,0.093,-1.120,-2.520,0.140
11430714,-0.973,0.290,0.099,-0.630,-2.100,0.280
11430733,-0.972,0.292,0.097,-1.190,-1.820,0.490
11430750,-0.976,0.304,0.091,-2.450,-2.030,0.350
11430770,-0.976,0.296,0.093,-2.730,-2.100,-0.420
11430794,-0.971,0.287,0.103,-1.680,-1.610,-0.700
11430814,-0.972,0.302,0.090,-2.380,-1.960,-1.050
11430831,-0.959,0.295,0.091,-4.060,0.770,-1.470
11430855,-0.974,0.277,0.094,-1.050,-2.940,-1.680
11430879,-0.981,0.275,0.094,0.560,-3.430,-0.980
11430899,-0.980,0.278,0.096,0.420,-3.920,-0.420
11430923,-0.985,0.281,0.086,0.490,-5.110,-0.420
11430943,-0.979,0.277,0.092,1.260,-5.530,-0.420
11430962,-0.984,0.277,0.100,2.380,-6.020,-0.210
11430982,-0.985,0.273,0.090,3.010,-6.790,0.490
11431001,-0.985,0.272,0.105,2.800,-7.420,-0.140
11431021,-0.976,0.294,0.101,5.110,-7.840,-0.840
11431046,-0.972,0.287,0.105,3.850,-7.140,-2.520
11431064,-0.959,0.251,0.117,8.260,-7.140,-2.240
11431087,-0.988,0.277,0.088,8.120,-7.280,-2.310
11431108,-1.001,0.302,0.090,6.020,-8.960,-3.290
11431127,-1.019,0.246,0.088,5.460,-11.200,-6.300
11431152,-1.009,0.230,0.103,13.720,-14.210,-7.070
11431172,-1.061,0.276,0.139,20.580,-22.330,-4.550
11431192,-1.057,0.169,0.086,19.530,-22.680,-12.530
11431216,-1.121,0.133,0.112,28.630,-27.370,-33.950
11431237,-1.104,0.108,-0.002,61.670,-28.490,-60.830
11431256,-0.977,0.400,0.044,81.480,-14.910,-71.050
11431274,-0.813,-0.061,-0.346,77.630,19.390,-84.070
11431294,-1.718,-0.500,-0.649,121.730,57.750,-123.620
11431314,-1.158,0.182,-0.463,189.770,52.150,-109.970
11431337,-0.772,0.296,-0.269,133.980,106.330,-83.790
11431358,-0.889,-0.153,-0.115,73.780,103.390,-66.430
11431377,-0.773,0.075,0.034,40.250,91.560,-50.050
11431399,-0.705,0.196,0.126,19.250,75.950,-19.600
11431421,-0.673,0.266,0.251,-11.620,50.540,11.340
11431437,-0.743,0.199,0.177,-20.510,31.990,28.210
11431458,-0.799,0.069,0.072,-15.330,-0.980,40.460
11431477,-0.869,0.090,-0.018,-4.270,-16.590,44.170
11431500,-0.923,0.076,-0.150,14.280,-18.760,36.470
11431518,-1.375,0.096,0.147,54.180,-22.960,45.850
11431539,-1.087,0.434,0.198,-0.560,-17.710,45.570
11431559,-0.779,0.043,-0.282,17.570,-19.460,31.850
11431583,-1.021,0.271,0.162,-26.670,-21.770,36.820
11431603,-0.996,-0.072,0.100,29.470,41.440,58.380
11431623,-1.473,1.227,1.196,-167.860,8.470,34.440
11431639,-1.110,-0.832,-0.367,21.560,5.180,17.010
11431662,-0.819,0.568,-0.197,-4.760,26.320,6.790
11431679,-0.967,0.365,-0.150,-1.400,12.320,3.920
11431703,-1.058,0.162,-0.216,-13.650,10.010,-3.220
11431722,-1.066,0.193,-0.121,4.410,-2.940,-7.630
11431742,-0.997,0.173,-0.087,-2.310,-5.250,-5.390
11431761,-1.019,0.051,-0.117,-8.050,-4.760,-0.350
11431786,-1.033,0.117,-0.083,0.560,-8.400,1.050
11431802,-0.963,0.232,-0.020,5.180,-5.040,-2.170
11431821,-0.915,0.205,-0.109,2.310,2.870,-6.300
11431846,-0.903,0.286,-0.067,6.160,8.820,-13.370
11431870,-0.894,0.272,-0.032,-1.400,20.510,-21.700
11431890,-0.828,0.242,0.017,-0.840,34.790,-30.450
11431910,-0.816,0.218,-0.011,-7.070,52.360,-33.880
11431928,-0.942,0.140,-0.150,-17.290,53.550,-34.650
11431950,-0.951,0.079,-0.163,-16.170,61.460,-40.040
11431974,-0.860,0.238,-0.059,-4.620,74.620,-46.550
11431994,-0.956,-0.028,-0.290,-7.980,71.540,-50.680
11432014,-1.005,0.015,-0.304,-10.850,69.300,-51.590
11432032,-0.954,0.041,-0.246,-9.100,72.450,-55.790
11432054,-1.016,-0.115,-0.332,-0.770,70.140,-51.730
11432074,-0.955,-0.103,-0.422,7.700,65.660,-44.800
11432093,-1.056,-0.175,-0.385,9.030,56.420,-35.910
11432113,-0.948,-0.011,-0.354,19.950,51.660,-34.300
11432136,-1.026,-0.166,-0.470,22.050,42.350,-25.970
11432160,-1.011,-0.090,-0.440,23.240,35.210,-24.290
11432176,-1.005,-0.064,-0.433,23.450,29.120,-27.230
11432196,-1.079,-0.127,-0.334,35.350,30.100,-32.690
11432220,-1.132,-0.014,-0.321,28.210,26.810,-41.300
11432240,-1.209,0.024,-0.447,15.680,26.670,-48.230
11432260,-1.350,0.016,-0.398,7.770,24.430,-49.560
11432279,-1.358,-0.053,-0.410,-0.350,18.340,-50.050
11432302,-1.377,-0.024,-0.136,-12.740,1.540,-45.430
11432323,-1.097,-0.305,-0.394,-26.110,13.440,-21.490
11432343,-0.987,-0.518,-0.407,-6.160,4.340,-13.300
11432362,-0.863,-0.626,-0.552,9.310,24.220,-20.650
11432382,-0.936,-0.286,-0.571,17.290,29.260,-21.420
11432401,-0.871,0.010,-0.807,11.060,17.920,-23.730
11432425,-0.710,-0.083,-0.705,2.310,21.560,-32.340
11432441,-0.545,-0.368,-1.041,19.180,87.080,-53.480
11432465,-0.755,-0.129,-0.850,51.170,70.280,-67.970
11432485,-0.472,0.041,-0.457,34.650,53.480,-63.910
11432502,-0.302,0.108,-0.142,-29.400,40.740,-59.080
11432521,-0.413,0.153,-0.148,-105.280,16.520,-42.840
11432545,-0.509,0.008,-0.612,-165.900,-1.540,-35.280
11432567,-0.132,-0.139,-0.615,-154.840,21.630,-8.050
11432583,0.004,-0.248,-0.173,-145.040,39.340,-8.260
11432605,-0.397,-0.163,0.081,-92.330,35.980,-1.680
11432625,-0.687,-0.115,-1.155,-92.680,78.330,-15.190
11432649,-0.864,-0.472,-1.569,-45.990,104.510,8.470
11432669,-0.224,-0.273,-0.103,-32.970,144.060,-26.810
11432691,-0.726,0.067,-0.472,-0.280,143.010,-8.470
11432714,-0.496,0.129,-0.732,-9.170,105.770,19.530
11432735,-0.526,-0.157,-1.016,3.430,141.960,28.770
11432755,-0.697,-0.213,-0.747,9.590,144.900,1.750
11432774,-0.434,-0.031,-0.561,15.190,139.020,-19.670
11432798,-0.639,-0.139,-0.897,-7.770,99.680,0.980
11432813,-0.290,-0.481,-1.070,-31.710,75.810,-3.500
11432838,-0.442,-0.634,-1.048,-13.580,119.630,-22.960
11432856,-0.891,-0.411,-0.922,-11.340,120.820,-30.520
11432875,-0.660,-0.263,-1.097,-24.920,89.250,-23.730
11432899,-0.359,-0.199,-0.988,-32.340,121.940,-23.660
11432919,-0.381,-0.059,-0.949,-7.000,107.730,-24.430
11432938,-0.167,0.181,-1.068,9.310,100.380,-15.820
11432959,-0.303,0.282,-1.019,18.410,107.380,-5.390
11432979,-0.257,0.182,-0.934,10.570,97.440,0.210
11432999,-0.113,-0.050,-0.909,15.610,83.650,-2.380
11433018,-0.052,-0.104,-0.952,19.110,80.080,-11.410
11433042,0.102,-0.082,-1.078,-3.360,69.650,-15.890
11433058,0.179,-0.121,-0.978,-7.910,68.950,-13.090
11433082,0.167,-0.403,-0.807,-20.720,63.560,-10.780
11433102,0.283,-0.345,-1.103,1.190,48.790,-11.060
11433121,0.051,-0.141,-1.027,-9.660,57.470,-18.690
11433145,0.103,-0.125,-1.143,-29.540,50.330,-25.060
11433166,0.190,-0.142,-0.840,-31.640,54.040,-29.750
11433185,0.351,-0.027,-1.024,-15.820,39.760,-28.350
11433202,0.203,-0.027,-1.753,-11.620,-17.990,-1.050
11433226,1.336,-0.445,-0.377,-11.340,92.960,14.490
11433246,0.103,-0.251,-0.920,10.500,-14.840,-16.100
11433264,0.100,0.251,-1.022,-12.600,-13.510,-1.750
11433284,0.137,0.111,-1.029,-21.210,-4.200,23.940
11433305,0.254,0.095,-1.019,-4.270,-13.930,6.230
11433328,0.456,0.150,-1.050,-4.480,-27.580,-5.600
11433348,0.499,-0.049,-0.944,-5.950,-32.130,-15.610
11433367,0.369,-0.166,-0.935,4.760,-44.310,-26.390
11433391,0.282,-0.118,-0.978,-0.280,-51.730,-34.440
11433409,0.211,-0.183,-1.063,-14.490,-58.380,-29.680
11433431,0.158,-0.222,-0.912,-14.350,-67.550,-17.850
11433451,0.063,-0.108,-0.966,-7.700,-82.180,2.520
11433467,-0.083,-0.128,-1.110,-16.520,-86.660,10.640
11433490,-0.075,-0.265,-1.064,-20.440,-90.230,3.500
11433508,-0.118,-0.183,-1.010,-20.580,-103.250,-3.570
11433528,-0.250,-0.016,-1.067,-39.340,-97.300,-2.310
11433552,-0.422,0.155,-1.000,-47.810,-104.720,5.390
11433571,-0.429,0.318,-0.977,-35.350,-96.390,18.130
11433591,-0.666,0.262,-1.058,-21.840,-108.010,31.290
11433616,-0.744,0.118,-0.953,-12.040,-134.540,38.780
11433635,-0.582,0.061,-1.021,-14.490,-135.800,40.530
11433654,-0.445,-0.114,-1.288,-24.640,-141.820,41.790
11433673,-0.854,-0.191,-1.201,-39.970,-133.700,23.590
11433697,-0.799,-0.010,-1.137,-38.640,-149.030,-4.830
11433716,-0.823,0.403,-0.895,-36.610,-127.260,-16.870
11433733,-0.993,0.462,-0.480,-44.450,-83.720,-12.390
11433753,-1.345,0.216,-0.099,-21.420,-41.160,-3.850
11433772,-1.282,-0.122,-0.292,-3.710,-88.480,-19.740
11433794,-0.547,-0.077,-0.591,37.800,-13.300,-19.670
11433818,-0.686,0.215,-0.846,46.060,29.750,-7.350
11433838,-0.581,0.369,-1.214,39.900,118.650,-11.550
11433856,-0.891,0.384,-0.448,40.530,165.620,-17.920
11433874,-1.113,0.437,-0.411,39.550,153.790,-1.050
11433898,-1.459,0.279,-0.652,23.450,59.220,17.850
11433914,-0.748,0.067,-0.636,53.690,2.170,31.360
11433938,-0.709,0.264,-0.584,48.930,-40.670,56.140
11433958,-0.049,0.287,-0.558,28.910,1.050,63.840
11433978,-0.411,-0.096,-0.216,3.220,-48.720,62.370
11433998,-0.394,-0.412,-0.176,18.060,-93.170,57.190
11434018,-0.110,-0.195,-0.274,20.930,-132.370,37.800
11434040,-0.011,0.036,-0.292,-7.210,-155.750,32.620
11434060,-0.081,-0.115,-0.325,-31.360,-191.660,35.980
11434080,-0.145,-0.343,-0.418,-27.230,-225.400,29.680
11434103,-0.265,-0.291,-0.504,-10.500,-249.830,25.620
11434124,-0.174,-0.112,-0.849,-21.140,-248.500,21.770
11434143,-0.335,-0.164,-1.075,-25.690,-244.510,13.930
11434167,-0.404,-0.020,-1.281,-42.350,-223.510,6.580
11434185,-0.513,0.020,-1.315,-72.170,-201.670,4.270
11434205,-0.707,0.111,-1.301,-124.950,-172.830,-3.010
11434229,-0.882,0.260,-1.188,-150.360,-133.490,-9.940
11434249,-1.224,0.317,-1.136,-187.110,-120.330,-29.610
11434269,-0.988,0.498,-1.052,-206.080,-70.420,-21.140
11434287,-1.135,0.120,-0.741,-140.280,-56.980,-12.600
11434311,-1.016,-0.156,-0.814,-61.670,-69.860,17.850
11434331,-0.748,-0.408,-1.146,-54.950,-60.970,40.460
11434351,-2.311,-1.058,0.860,128.800,-183.890,18.550
11434369,-0.983,1.105,-0.313,105.210,-83.580,19.390
11434389,-1.082,0.510,-0.114,-73.220,-52.290,42.000
11434410,-0.712,0.023,-0.007,-31.500,-40.530,18.760
11434434,-0.929,0.243,0.088,-37.240,-57.120,49.000
11434454,-1.231,0.519,-0.281,-90.580,-70.560,11.620
11434474,-1.705,0.299,-0.143,56.210,-59.920,-13.020
11434493,-0.936,0.433,0.028,-56.070,10.570,-16.940
11434517,-1.135,-0.139,-0.258,-39.970,-26.530,-9.730
11434534,-1.155,0.044,-0.085,-21.070,-43.540,-4.760
11434552,-0.979,-0.078,-0.002,-1.610,-14.770,-5.250
11434575,-1.104,0.074,-0.083,29.750,-48.370,3.640
11434597,-0.968,0.286,0.079,22.470,-39.130,4.900
11434616,-0.931,0.249,0.150,28.420,-33.880,-2.170
11434639,-0.893,0.303,0.243,38.710,-28.560,-3.920
11434660,-0.873,0.240,0.252,22.190,-12.250,-3.010
11434680,-0.946,0.258,0.129,-6.300,-0.350,-4.690
11434700,-0.999,0.021,0.091,-3.990,4.130,-8.120
11434724,-0.910,0.181,0.374,35.350,26.460,-19.460
11434744,-0.889,0.776,0.286,21.420,38.850,-15.540
11434762,-0.828,0.193,-0.026,9.310,44.870,-31.290
11434782,-1.075,0.210,0.127,7.350,76.160,-51.520
11434802,-0.572,0.420,0.224,33.180,100.240,-46.270
11434822,-0.810,0.245,-0.172,-14.770,62.650,-33.110
11434846,-1.142,-0.255,-0.130,-56.490,66.920,-29.750
11434862,-1.205,-0.549,-0.215,-27.230,78.820,-27.510
11434885,-1.059,0.281,0.198,57.260,48.300,-14.350
11434906,-0.977,0.539,-0.313,12.110,48.370,-8.680
11434930,-1.228,0.340,-0.458,-44.240,21.910,-22.960
11434945,-1.155,-0.342,-0.128,-28.140,21.840,-28.910
11434965,-1.049,-0.265,-0.195,8.680,21.210,-9.800
11434990,-1.119,-0.145,-0.254,46.270,3.780,0.350
11435010,-1.109,0.062,-0.343,13.160,5.530,16.240
11435028,-0.922,0.133,-0.179,16.030,17.640,13.510
11435047,-0.916,0.474,0.179,-17.220,32.620,18.970
11435071,-1.120,0.010,-0.335,-6.580,-4.690,21.700
11435089,-0.995,-0.064,-0.388,7.070,10.570,5.180
11435108,-1.064,0.372,-0.025,11.130,4.480,1.330
11435132,-1.047,0.336,-0.085,-4.340,-7.910,2.660
11435148,-0.912,0.368,-0.153,-18.410,-1.960,7.070
11435168,-1.083,0.035,-0.364,-32.410,-4.900,22.120
11435188,-1.036,-0.098,-0.285,-25.830,-8.610,13.930
11435211,-0.871,0.203,0.059,-8.680,0.910,1.890
11435231,-0.996,0.063,-0.162,-11.760,-17.640,9.800
11435251,-0.985,0.101,-0.250,-16.240,-10.220,5.880
11435275,-1.040,0.146,-0.403,-10.150,-20.510,-4.270
11435295,-0.904,0.132,0.191,-1.820,-6.440,-7.140
11435316,-0.936,0.050,-0.288,-10.290,-22.750,0.700
11435339,-1.017,0.189,-0.170,0.630,-10.850,-1.190
11435359,-1.082,0.131,-0.293,-7.560,-20.580,0.070
11435380,-1.005,0.230,-0.126,-9.940,-20.860,-5.810
11435397,-0.973,0.233,0.033,-18.760,-8.750,-4.900
11435421,-0.893,-0.006,-0.225,-10.150,-7.770,-2.590
11435441,-1.016,0.068,-0.136,2.380,-14.070,-4.480
11435460,-1.027,0.241,-0.193,-5.600,-23.240,-3.430
11435480,-0.997,0.075,0.024,-8.190,-6.300,3.850
11435504,-0.868,0.043,-0.049,-1.120,-10.360,8.750
11435519,-1.004,0.026,-0.181,11.270,-3.290,4.550
11435544,-1.036,0.235,-0.085,5.040,-2.660,5.040
11435563,-1.113,0.043,-0.193,0.420,-10.430,-1.260
11435583,-1.010,0.101,-0.179,6.510,-5.180,-12.040
11435604,-0.825,0.384,-0.137,-2.240,13.860,-9.730
11435623,-0.954,0.240,0.072,-16.730,17.220,-7.560
11435647,-0.906,0.071,-0.243,-14.000,14.630,-5.600
11435667,-1.034,0.142,-0.109,-9.590,15.890,-6.650
11435685,-0.897,0.319,0.058,-19.180,25.830,0.210
11435705,-0.925,0.205,0.104,-40.740,16.730,15.890
11435729,-1.098,-0.415,-0.090,-12.670,6.790,3.220
11435749,-0.958,0.538,-0.114,26.460,10.010,5.880
11435769,-1.074,0.313,-0.183,-7.560,-1.820,8.820
11435787,-0.873,0.212,-0.193,-13.510,14.070,8.890
11435804,-1.054,-0.105,-0.357,-0.700,2.870,-3.570
11435829,-1.005,0.306,-0.215,11.690,8.610,-4.270
11435849,-1.064,0.178,-0.191,-2.800,1.050,-2.310
11435869,-0.992,0.131,-0.319,-13.300,-0.280,-4.060
11435889,-1.008,-0.089,-0.299,-12.950,-4.270,-6.650
11435908,-0.997,-0.107,-0.199,-6.580,-2.870,-3.150
11435929,-1.012,0.034,-0.158,-0.630,-8.190,6.720
11435949,-1.029,0.149,-0.167,-4.270,-8.540,19.320
11435973,-0.989,0.000,-0.294,-6.230,-5.530,14.140
11435990,-1.009,0.027,-0.167,-3.080,-1.750,16.800
11436011,-1.081,-0.325,-0.218,15.400,-11.060,12.530
11436032,-0.951,0.510,-0.113,50.750,-8.540,20.930
11436051,-1.044,0.136,-0.239,30.170,-22.610,34.580
11436070,-0.944,0.256,-0.204,28.630,-11.200,24.850
11436095,-1.041,0.144,-0.223,16.800,-18.830,16.660
11436114,-1.008,0.072,-0.185,30.520,-16.170,10.500
11436130,-0.942,0.200,-0.163,40.880,-20.650,13.510
11436154,-0.988,0.321,-0.136,32.620,-28.770,21.700
11436177,-1.017,0.205,-0.313,34.230,-36.960,6.230
11436198,-1.095,0.572,-0.299,13.860,-43.400,-2.380
11436222,-1.027,0.395,-0.238,-7.980,-50.680,-18.760
11436242,-1.046,0.312,-0.107,-19.740,-59.710,-22.050
11436259,-1.060,0.393,-0.310,-25.620,-63.140,-16.380
11436282,-0.971,-0.066,0.096,-44.240,-48.720,-15.470
11436305,-0.904,0.394,0.033,-29.400,-41.020,-10.220
11436326,-0.823,0.414,0.349,-104.370,-35.000,2.030
11436346,-1.016,0.029,-0.316,-132.160,-33.810,-0.140
11436366,-0.942,-0.383,0.214,-105.840,-25.970,2.380
11436389,-0.956,-0.175,0.260,-21.910,-32.060,19.600
11436408,-0.853,0.254,0.131,-28.350,-30.870,33.810
11436433,-1.146,-0.109,-0.147,-50.120,-38.290,31.360
11436451,-1.015,-0.291,0.141,6.020,-45.780,30.590
11436470,-1.060,0.034,0.018,70.490,-47.320,39.200
11436495,-0.965,0.394,0.115,77.280,-45.920,38.430
11436515,-0.908,0.763,0.161,15.750,-32.760,23.590
11436534,-0.931,0.275,0.215,-12.040,-26.460,12.670
11436554,-0.985,-0.177,0.220,32.970,-30.450,5.110
11436574,-1.002,0.315,0.095,68.180,-32.830,9.940
11436595,-0.920,0.438,0.164,72.940,-32.130,9.730
11436619,-0.940,0.435,0.245,39.620,-21.910,-5.250
11436635,-0.958,0.379,0.157,29.190,-15.750,-12.600
11436658,-0.933,0.093,0.267,69.580,-23.730,-13.440
11436679,-0.899,0.191,0.315,77.840,-27.440,-3.360
11436699,-0.984,0.425,0.350,44.940,-23.240,-7.420
11436719,-0.879,0.511,0.180,51.730,-5.110,-3.010
11436738,-0.908,0.325,0.196,24.220,-1.960,-8.400
11436759,-0.954,0.061,0.416,33.670,-3.430,-8.540
11436777,-1.009,0.429,-0.035,37.380,12.110,-10.010
11436796,-0.761,0.295,0.527,67.200,24.290,-13.720
11436816,-0.909,0.673,0.212,46.340,41.790,-26.880
11436839,-1.007,0.318,0.237,22.400,40.320,-31.290
11436859,-1.087,0.301,0.220,7.770,48.650,-33.530
11436878,-1.408,0.229,0.662,6.090,44.100,-44.870
11436898,-2.411,0.083,1.503,53.270,24.220,-26.040
11436922,-1.832,-0.520,0.894,67.060,63.000,-21.700
11436942,-2.064,0.176,1.267,63.070,103.880,-6.300
11436961,-2.537,0.886,-1.599,-75.670,186.620,-6.650
11436980,-1.570,0.082,-2.416,-72.590,-115.780,-89.390
11437003,-2.179,0.893,-1.292,34.650,-5.740,-47.950
11437022,-0.694,0.307,-0.793,-30.100,-12.600,-45.150
11437047,-0.344,-0.351,-1.493,-25.760,76.090,-34.230
11437066,0.309,-0.342,-1.763,66.010,270.130,-64.960
11437086,-0.993,-0.014,-1.515,57.680,127.190,-77.560
11437106,-0.078,0.119,-1.165,14.700,89.460,-22.400
11437127,1.140,-0.519,-0.779,31.710,194.040,-19.880
11437147,0.774,-0.357,-0.794,36.890,250.880,-47.530
11437171,0.492,-0.177,-0.729,45.640,258.930,-49.070
11437195,0.515,-0.264,-0.558,81.690,253.330,-42.280
11437214,0.202,-0.336,-0.492,123.900,235.690,-48.020
11437232,0.013,-0.157,-0.469,126.000,220.150,-50.260
11437256,-0.066,-0.272,-0.506,100.660,192.990,-55.230
11437274,-0.135,-0.375,-0.548,97.720,165.830,-67.060
11437298,-0.166,0.181,-0.944,17.570,132.860,-46.410
11437318,-0.318,0.248,-1.212,-72.030,113.960,-4.480
11437336,-0.603,-0.059,-1.439,-101.500,110.810,9.870
11437356,-0.872,-0.345,-0.967,-93.520,77.420,2.800
11437375,-1.085,-0.637,-0.706,-67.480,21.490,-17.640
11437400,-1.177,-0.428,-0.915,-28.420,-28.490,-30.310
11437420,-1.143,0.238,-0.935,-17.640,-29.820,-19.250
11437439,-1.852,0.676,-0.803,-77.210,-147.700,20.020
11437463,-1.156,-0.339,-0.493,-78.680,-96.670,16.730
11437484,-1.281,-0.604,-0.374,-5.180,-114.030,21.140
11437504,-1.232,-0.179,-0.198,56.840,-73.640,42.280
11437522,-1.449,0.690,-0.162,79.030,-99.470,56.980
11437546,-1.152,0.615,0.162,-17.500,-40.390,90.790
11437566,-1.110,0.077,-0.057,-18.200,-60.970,81.200
11437584,-0.769,-0.203,0.136,22.330,-20.790,47.040
11437608,-0.501,0.007,0.543,71.120,6.720,23.660
11437623,-0.862,0.532,0.642,58.030,-12.390,28.000
11437648,-3.271,-0.511,-6.464,118.930,-152.320,63.770
11437668,2.819,-0.454,0.642,6.020,391.930,-32.340
11437686,-2.637,0.373,-0.467,76.790,362.530,-87.430
11437710,-0.370,0.232,-1.416,-171.080,-133.350,-1.680
11437730,0.239,-0.411,-1.037,-89.950,122.990,-25.410
11437748,-0.329,-0.668,-1.448,-41.020,91.490,-50.680
11437772,-0.365,-0.803,-1.310,-18.130,182.770,-67.900
11437790,-1.688,-0.264,-0.273,-22.820,224.630,-88.200
11437812,-1.215,0.127,-1.026,-18.550,132.440,-35.770
11437831,-2.070,0.228,-0.716,-1.750,133.070,-15.190
11437855,-1.066,0.109,-0.717,49.140,95.760,-9.940
11437875,-0.309,0.231,-1.384,61.460,-8.820,-5.390
11437893,1.207,0.429,-1.080,42.770,139.580,13.720
11437916,0.553,-0.183,-1.089,7.630,72.100,11.690
11437935,0.780,-0.590,-1.095,20.300,123.410,-8.470
11437954,0.078,-0.335,-0.877,22.960,98.630,-35.490
11437979,-0.235,-0.113,-1.112,-6.440,76.230,-33.600
11437998,-0.163,0.066,-1.348,-10.640,68.320,-24.080
11438022,-0.459,0.016,-0.921,-7.910,79.870,4.270
11438042,-0.265,-0.134,-1.160,4.550,35.420,9.100
11438059,0.151,-0.172,-1.153,2.240,34.720,-5.180
11438081,0.227,-0.131,-1.036,17.150,24.640,-12.180
11438101,0.296,0.071,-0.835,26.670,31.570,1.750
11438125,0.146,-0.247,-1.109,-5.530,11.200,2.310
11438140,0.150,-0.373,-1.057,-14.980,24.150,-5.390
11438160,0.047,-0.497,-1.013,-15.190,15.470,-22.610
11438183,0.044,-0.302,-0.838,-10.150,17.780,-21.350
11438205,0.098,0.168,-0.996,2.520,-0.910,-4.550
11438224,0.239,0.192,-0.927,-18.550,23.940,18.550
11438248,0.033,-0.142,-0.989,-6.860,14.070,13.230
11438267,-0.016,-0.224,-0.906,2.800,18.270,6.370
11438286,0.098,-0.090,-0.900,11.760,14.910,-4.970
11438309,0.203,-0.014,-1.011,6.160,22.750,-2.030
11438328,0.320,-0.073,-1.219,-1.820,23.310,7.070
11438350,0.552,-0.222,-1.029,4.060,50.050,-1.470
11438370,0.174,-0.372,-0.851,24.290,-22.400,1.050
11438389,0.599,0.089,-0.900,-8.820,7.000,3.710
11438409,0.248,-0.134,-0.856,-31.920,-9.450,9.310
11438428,0.159,0.018,-0.935,-23.870,-5.250,8.260
11438450,0.218,-0.207,-1.168,0.210,-15.610,6.370
11438470,0.109,0.107,-0.990,16.170,-11.830,-8.260
11438494,0.098,-0.111,-0.963,-3.010,-14.210,-18.200
11438514,-0.005,-0.030,-0.977,-2.030,-29.260,-24.290
11438533,0.282,-0.025,-1.124,-8.820,-19.740,-23.100
11438557,0.336,-0.190,-1.079,5.460,-24.360,-18.550
11438578,0.253,-0.037,-0.971,-5.880,-40.670,-13.020
11438596,0.256,-0.244,-0.881,-13.020,-48.020,-6.790
11438620,0.160,-0.383,-1.102,-17.150,-64.610,-8.190
11438639,0.098,-0.528,-1.186,-23.100,-64.540,-16.450
11438663,-0.017,-0.327,-0.914,-25.620,-71.120,-20.370
11438682,0.082,-0.078,-0.990,-42.000,-79.030,-13.370
11438703,0.076,-0.033,-1.063,-48.510,-80.010,4.060
11438721,0.126,-0.031,-1.043,-37.170,-73.500,12.180
11438742,-0.098,-0.004,-0.876,-11.060,-79.310,23.520
11438766,-0.197,0.047,-1.019,16.100,-97.090,49.350
11438785,-0.275,0.114,-0.987,20.790,-110.460,61.530
11438805,-0.297,-0.208,-1.169,6.160,-121.240,60.200
11438824,-0.152,-0.388,-1.034,14.840,-123.760,45.360
11438849,-0.030,-0.307,-1.014,26.810,-154.210,44.170
11438866,-0.171,0.017,-1.078,16.240,-162.820,47.040
11438887,-0.515,0.258,-0.716,8.190,-154.490,42.140
11438908,-0.521,0.549,-0.906,-12.320,-169.680,49.140
11438931,-0.376,0.187,-0.784,-8.470,-153.860,70.980
11438952,-0.186,-0.268,-0.890,37.800,-140.420,66.850
11438971,-0.339,-0.166,-0.784,39.200,-126.980,57.330
11438995,-0.527,-0.105,-0.776,5.460,-91.980,36.750
11439012,-0.670,0.090,-0.680,-22.680,-77.840,25.270
11439036,-0.936,0.349,-0.560,-63.910,-88.130,5.880
11439056,-0.940,0.294,-0.553,-85.680,-109.200,8.890
11439076,-0.548,0.030,-0.915,-79.870,-109.970,-2.590
11439096,-0.310,-0.145,-0.956,-49.210,-92.050,-7.560
11439119,-0.504,-0.252,-0.523,-30.240,-84.280,0.070
11439138,-0.957,0.090,-0.382,-4.830,-92.610,12.180
11439161,-0.968,0.153,-0.657,-19.880,-93.590,14.560
11439180,-0.810,-0.247,-0.460,-23.590,-68.600,4.410
11439204,-0.868,-0.521,-0.511,6.160,-79.800,-17.990
11439224,-0.796,0.207,-0.343,55.090,-68.040,-11.970
11439241,-0.831,0.793,-0.204,30.520,-58.310,2.520
11439265,-0.696,0.541,-0.353,17.500,-58.800,13.160
11439285,-0.633,0.083,-0.409,23.520,-33.040,9.870
11439303,-0.840,-0.080,-0.365,57.820,-24.220,6.020
11439325,-0.881,0.144,-0.215,66.780,-13.440,16.030
11439345,-0.918,-0.140,-0.203,54.950,-1.820,9.800
11439360,-0.942,0.036,-0.287,46.970,5.040,1.050
11439385,-0.911,0.379,-0.382,15.330,22.890,0.140
11439403,-0.811,0.305,-0.481,6.230,18.900,0.490
11439422,-0.672,0.181,-0.509,12.810,32.130,-6.860
11439446,-0.836,0.415,-0.292,23.660,45.430,-15.750
11439466,-0.877,0.513,-0.204,-26.180,41.300,-22.120
11439483,-0.638,0.206,-0.597,-57.400,59.920,-30.590
11439505,-0.657,0.214,-0.658,-49.910,112.980,-27.650
11439527,-2.543,-0.057,0.092,-175.560,249.060,-173.320
11439551,-0.630,-0.633,-0.504,10.150,-5.740,-96.530
11439575,-1.948,-0.112,-0.607,75.390,71.190,-17.990
11439595,-1.374,0.255,-0.021,8.400,52.570,-19.460
11439615,-1.106,0.429,-0.431,-25.340,15.750,6.930
11439634,-1.582,-0.077,-1.385,-31.430,81.410,-49.700
11439653,-1.557,0.239,0.122,-3.290,-69.020,-46.270
11439672,-0.877,-0.115,0.079,9.380,32.340,-38.920
11439697,-1.057,-0.029,-0.061,73.990,1.260,-18.690
11439717,-0.809,0.231,0.215,41.370,-92.680,31.710
11439733,-0.950,0.227,-0.127,6.370,-78.820,51.870
11439753,-0.030,0.265,-0.230,-8.960,-87.990,86.170
11439777,-1.168,0.227,-0.070,-60.270,-147.000,58.590
11439797,-0.756,0.094,-0.103,-52.500,-193.480,54.460
11439816,-0.703,0.139,-0.195,-41.020,-218.610,61.810
11439836,-0.732,0.045,-0.059,-32.620,-240.100,66.290
11439859,-0.798,-0.001,-0.126,-33.040,-248.360,73.850
11439875,-0.865,-0.017,-0.319,-32.410,-261.940,74.130
11439900,-0.964,0.069,-0.415,-59.360,-326.410,62.650
11439919,-0.448,-0.292,-0.908,-11.830,-311.430,50.400
11439941,-0.862,0.019,-0.979,8.960,-238.910,62.790
11439960,-1.214,0.473,-1.220,5.110,-192.640,79.240
11439985,-1.111,0.575,-0.952,-55.090,-205.240,86.100
11440004,-1.164,-0.086,-0.545,-80.780,-171.010,64.610
11440024,-1.042,-0.293,-0.142,-36.750,-138.110,42.350
11440048,-0.846,0.034,-0.476,-6.300,-87.710,42.280
11440067,-0.636,0.455,-0.648,-34.300,-32.060,12.880
11440090,-0.685,0.298,0.032,-64.820,53.970,6.020
11440110,-0.818,-0.030,-0.088,-89.180,82.740,-23.170
11440127,-0.936,0.145,-0.173,-93.170,112.910,-34.370
11440147,-0.944,0.376,0.077,-144.550,143.150,-28.560
11440171,-0.973,0.350,-0.669,-117.040,222.180,6.440
11440190,-2.759,-0.314,1.686,-494.760,459.130,-245.140
11440210,0.434,0.313,-0.111,137.340,-106.400,-51.660
11440232,-1.675,0.629,0.697,56.770,106.610,-47.880
11440252,-1.452,1.054,0.500,16.870,-5.600,7.560
11440276,-1.574,0.406,1.581,-146.720,-13.370,-17.920
11440294,-1.254,-2.147,-0.236,142.100,-58.030,2.240
11440315,-1.056,0.454,0.242,2.170,53.340,2.170
11440335,-1.003,0.268,0.143,-38.780,17.920,25.900
11440359,-1.062,0.088,0.169,-3.360,-2.100,15.330
11440377,-0.976,0.201,0.245,-13.230,4.550,5.880
11440396,-1.024,-0.056,0.278,-4.620,3.780,-1.820
11440421,-0.983,-0.130,0.166,4.830,6.650,5.600
11440441,-1.062,-0.000,0.196,6.860,1.190,6.160
11440460,-1.021,-0.078,0.284,10.290,6.090,5.320
11440477,-0.918,0.277,0.315,31.220,19.810,11.270
11440500,-0.845,0.365,0.207,28.140,23.310,5.530
11440521,-0.960,0.418,0.196,17.780,14.140,-8.330
11440541,-0.982,0.299,0.200,-0.420,16.800,-18.620
11440559,-1.022,0.224,0.168,-15.470,19.110,-24.850
11440583,-0.988,0.048,0.338,-23.870,28.490,-21.140
11440601,-0.816,-0.027,0.444,-0.700,40.670,-23.170
11440624,-0.919,0.369,-0.074,0.910,16.940,-16.240
11440644,-1.038,-0.071,0.368,-42.140,34.720,-22.190
11440664,-0.918,-0.271,0.253,-4.480,35.840,-23.030
11440687,-1.020,0.293,0.168,-4.550,52.080,-4.900
11440708,-0.995,-0.013,0.006,-2.170,50.890,-2.100
11440723,-0.971,-0.300,-0.153,-8.260,29.400,1.540
11440748,-1.118,-0.215,-0.060,24.780,25.340,-19.600
11440768,-1.037,-0.225,0.335,48.860,42.280,-31.080
11440787,-1.084,0.152,0.129,30.590,36.820,-27.580
11440808,-1.021,-0.083,-0.121,21.490,54.390,-13.930
11440828,-1.156,-0.351,-0.046,39.340,39.410,9.450
11440847,-0.850,0.052,0.042,62.650,56.910,6.160
11440871,-0.987,0.379,0.049,27.510,38.850,15.540
11440890,-1.098,0.278,0.038,16.170,14.910,62.160
11440914,-0.558,-0.228,-0.320,-26.110,64.820,87.080
11440933,-1.512,-0.369,-0.003,52.710,40.950,14.490
11440954,-0.977,0.452,-0.024,51.310,44.170,6.090
11440974,-1.008,0.319,-0.052,23.170,33.110,10.570
11440994,-1.047,0.178,-0.114,14.350,24.640,10.150
11441014,-1.090,0.083,-0.105,17.570,16.870,0.630
11441032,-1.040,0.163,-0.122,15.540,12.670,-1.960
11441054,-1.041,0.266,-0.125,2.450,10.150,-0.560
11441078,-0.960,0.130,-0.195,-9.590,11.690,3.990
11441098,-1.029,0.003,-0.281,-15.120,13.090,8.050
11441118,-1.039,-0.014,-0.212,4.130,6.440,-4.060
11441138,-0.904,0.181,-0.108,4.760,7.840,-5.180
11441158,-0.984,0.150,-0.190,-11.200,0.840,3.710
11441177,-1.049,-0.010,-0.262,-11.060,-3.780,1.120
11441201,-1.058,-0.040,-0.258,2.030,-6.440,-7.490
11441222,-0.998,0.099,-0.118,9.240,-1.330,-7.770
11441242,-0.953,0.184,-0.119,-0.560,-5.460,1.540
11441259,-0.964,-0.061,-0.198,-7.280,2.730,5.390
11441279,-0.821,-0.052,-0.259,4.060,1.540,13.090
11441302,-0.984,0.137,-0.125,13.720,-1.260,3.360
11441323,-0.951,0.166,-0.061,0.770,-3.850,2.520
11441341,-0.886,0.083,-0.202,6.090,1.890,-3.780
11441362,-0.935,0.206,-0.205,6.440,-0.910,-7.630
11441383,-1.033,0.206,-0.099,2.800,-0.630,-10.570
11441407,-0.966,0.140,-0.156,-6.230,1.400,-9.660
11441427,-0.958,0.347,-0.014,-7.700,0.000,-4.970
11441447,-1.087,0.487,-0.221,-39.690,-13.160,2.940
11441467,-0.858,-0.433,-0.285,-36.120,28.000,-21.000
11441486,-1.058,0.126,-0.055,-6.930,-6.370,-17.290
11441506,-0.988,0.041,-0.167,-15.050,3.500,-16.800
11441530,-1.062,0.148,-0.196,-13.090,-9.170,-5.880
11441551,-0.951,-0.080,-0.259,-40.460,8.400,-6.650
11441573,-1.012,-0.067,-0.203,-24.640,0.070,-11.900
11441597,-1.068,-0.150,-0.234,-6.300,-11.130,-8.750
11441617,-1.027,-0.121,-0.164,6.510,-13.720,-7.350
11441637,-1.020,-0.078,-0.194,14.770,-16.590,-1.050
11441654,-1.018,0.041,-0.134,15.120,-17.010,5.320
11441673,-0.990,0.052,-0.173,8.610,-17.500,13.790
11441698,-0.978,0.051,-0.201,4.760,-13.930,13.020
11441718,-1.033,0.076,-0.112,2.660,-17.990,15.540
11441738,-1.010,0.035,-0.164,4.060,-18.970,11.900
11441757,-1.000,0.037,-0.149,12.880,-19.320,11.480
11441778,-1.016,0.139,-0.110,18.900,-23.800,16.800
11441797,-0.996,0.196,-0.038,14.490,-23.590,15.120
11441821,-1.031,0.105,-0.304,-16.380,-33.040,8.750
11441836,-1.031,0.115,-0.044,-18.410,-22.400,2.450
11441861,-1.009,0.101,-0.058,-15.610,-41.160,5.880
11441880,-1.041,0.092,-0.115,-19.180,-44.380,0.560
11441901,-1.045,0.129,-0.080,-16.660,-50.820,-3.710
11441916,-1.026,0.121,-0.112,-28.630,-53.480,-6.580
11441941,-1.058,0.030,-0.177,-37.450,-56.910,-10.150
11441959,-1.056,0.081,-0.051,-27.650,-59.430,-5.250
11441983,-0.995,0.190,-0.018,-43.960,-56.560,1.890
11442001,-1.090,0.060,-0.160,-73.080,-57.400,0.560
11442022,-1.057,-0.062,0.085,-66.710,-57.750,6.370
11442043,-1.051,-0.158,0.029,-37.380,-60.060,17.360
11442067,-0.840,0.141,0.325,-23.170,-52.850,30.240
11442082,-0.981,0.070,0.023,-51.310,-52.710,24.500
11442105,-0.931,-0.074,0.264,-26.320,-46.620,18.130
11442128,-0.874,0.146,0.318,-9.100,-41.440,19.810
11442149,-0.846,0.307,0.387,-18.690,-29.960,19.600
11442169,-0.868,0.082,0.359,-37.310,-27.930,21.350
11442188,-0.966,-0.163,0.280,-22.610,-24.360,19.390
11442209,-0.940,-0.105,0.430,18.480,-17.780,16.870
11442227,-0.875,0.292,0.318,15.750,-12.250,16.590
11442247,-0.920,0.487,0.318,-2.660,-11.270,14.840
11442266,-0.953,0.308,0.253,-27.440,-8.330,5.390
11442290,-1.054,-0.041,0.166,-5.390,-7.140,-2.870
11442309,-1.014,0.169,0.225,14.910,-1.540,-6.580
11442330,-0.887,0.458,0.335,1.050,2.730,-6.020
11442354,-1.142,-0.025,0.004,-19.530,-7.210,-7.770
11442372,-1.107,-0.280,0.083,6.580,-11.900,-13.440
11442396,-1.123,-0.040,0.088,42.560,-6.090,-27.230
11442416,-0.666,0.199,0.086,117.040,30.100,-43.120
11442434,-1.152,0.194,0.315,149.380,70.770,-80.080
11442458,-1.150,0.081,-0.352,207.270,63.070,-81.200
11442478,-0.925,0.265,-0.342,153.300,77.070,-53.130
11442498,-1.486,0.285,-0.115,93.030,77.000,-26.040
11442516,-1.697,0.167,-0.807,114.100,108.570,-12.600
11442540,-1.649,-0.102,-1.043,133.280,143.360,-50.680
11442560,-1.288,-0.045,-0.869,132.720,191.170,-60.690
11442580,-1.079,-0.151,-0.821,92.820,214.200,-59.640
11442600,-0.895,-0.187,-0.834,67.060,245.490,-56.350
11442618,-0.783,-0.371,-0.848,71.470,257.740,-46.130
11442642,-0.662,-0.403,-0.682,93.730,271.040,-34.370
11442662,-0.732,-0.323,-0.408,108.500,254.240,-36.120
11442681,-0.314,-0.401,-0.107,101.010,221.970,-51.450
11442701,-0.356,-0.289,0.110,93.100,197.750,-53.340
11442721,-0.415,-0.265,0.008,68.390,107.520,-40.810
11442745,-0.022,-0.367,-0.399,99.680,112.280,-60.340
11442765,0.097,0.109,-0.237,106.610,103.950,-49.490
11442783,-0.491,-0.049,-0.293,49.490,42.560,-25.200
11442807,-0.514,-0.225,-0.874,17.990,34.020,-22.260
11442822,-0.518,-0.136,-0.779,8.260,43.330,-9.870
11442847,-1.118,0.257,-0.341,-20.440,-10.430,31.150
11442867,-1.147,0.233,-0.188,-62.440,-35.490,37.800
11442884,-1.050,-0.245,-0.212,-81.410,-80.010,24.780
11442903,-1.132,-0.323,-0.478,-49.280,-90.790,17.780
11442927,-1.210,-0.225,-0.467,-19.810,-103.880,7.630
11442948,-1.067,-0.028,0.047,2.310,-15.750,-10.080
11442968,-0.574,-0.259,-3.512,-77.000,-63.560,28.210
11442985,-0.364,-0.490,0.255,203.840,-74.760,-33.320
11443009,-0.982,0.610,1.060,-63.350,141.050,46.060
11443028,-0.832,-0.029,-0.754,-65.030,-97.020,79.170
11443049,-0.844,-0.421,-0.353,-49.560,-35.770,68.040
11443065,-0.534,-0.376,-0.194,-27.370,-53.340,70.280
11443089,-1.120,-0.376,-0.934,-12.180,-44.800,48.440
11443109,-1.438,-0.362,-0.208,40.460,-74.060,33.390
11443127,-0.861,0.551,-0.224,13.020,-42.420,48.020
11443145,-0.818,0.284,-0.257,-30.660,-44.170,70.840
11443169,-1.224,-0.130,-0.395,-29.190,-54.530,54.670
11443185,-1.091,-0.364,-0.313,-11.130,-54.460,34.090
11443209,-1.149,-0.252,-0.165,8.890,-49.000,31.010
11443229,-1.054,0.005,-0.204,5.320,-36.400,35.700
11443249,-1.073,0.221,-0.261,-14.700,-22.050,38.500
11443268,-1.121,0.073,-0.293,-22.960,-11.970,38.710
11443292,-1.054,-0.053,-0.451,-20.580,-6.230,27.930
11443309,-1.126,-0.106,-0.392,-6.860,-17.150,21.560
11443329,-0.995,0.035,-0.415,-5.110,-15.890,18.900
11443353,-0.920,0.186,-0.442,-4.900,-11.340,19.740
11443373,-0.900,0.152,-0.434,-9.940,-14.000,15.890
11443393,-0.878,0.072,-0.427,-10.220,-14.770,12.740
11443413,-0.917,0.020,-0.431,-6.930,-13.580,7.980
11443433,-0.943,0.097,-0.395,-2.310,-12.880,9.520
11443454,-0.895,-0.045,-0.349,0.840,-4.900,8.820
11443474,-1.025,-0.096,-0.359,9.030,2.590,2.730
11443498,-1.059,0.153,-0.382,7.210,5.250,1.960
11443518,-1.029,0.110,-0.396,7.070,9.310,-3.990
11443533,-0.983,0.041,-0.406,5.040,9.100,-7.840
11443558,-0.871,0.086,-0.448,1.890,8.050,-10.500
11443578,-0.849,0.053,-0.456,-0.140,9.380,-9.660
11443602,-0.895,0.051,-0.439,0.280,8.540,-10.570
11443622,-0.909,0.050,-0.455,-2.240,5.950,-10.850
11443641,-0.896,-0.033,-0.389,0.140,7.210,-9.590
11443659,-0.876,-0.066,-0.386,4.550,14.910,-10.220
11443680,-0.931,0.020,-0.370,8.330,20.580,-10.290
11443700,-0.928,0.021,-0.414,10.010,25.550,-11.900
11443724,-0.945,-0.055,-0.420,11.690,32.480,-19.810
11443743,-1.016,0.088,-0.453,7.350,35.770,-24.990
11443762,-0.978,0.057,-0.450,7.210,42.210,-29.050
11443787,-1.076,-0.033,-0.472,0.910,40.530,-34.160
11443803,-1.196,-0.047,-0.432,6.860,36.610,-33.950
11443822,-1.060,-0.079,-0.491,10.640,31.640,-33.460
11443847,-1.049,-0.109,-0.484,19.460,25.830,-22.540
11443867,-0.925,-0.305,-0.622,21.000,25.130,-16.450
11443887,-0.966,-0.386,-0.563,31.080,12.180,-13.930
11443911,-0.889,-0.350,-0.604,37.590,0.350,-16.730
11443931,-0.822,-0.254,-0.634,35.980,2.870,-19.110
11443950,-0.712,-0.144,-0.792,14.840,9.240,-21.980
11443967,-0.686,0.065,-0.762,-9.660,21.980,-25.690
11443987,-0.630,-0.228,-0.803,-34.090,37.030,-42.280
11444011,-0.671,-0.240,-1.339,-6.370,66.150,-60.970
11444031,-0.584,-0.126,-0.846,-2.870,85.260,-60.060
11444051,-0.367,-0.254,-0.571,1.750,94.850,-58.240
11444071,-0.534,-0.165,-0.369,-9.380,68.250,-44.100
11444089,-0.410,-0.200,-0.289,-21.280,45.920,-46.830
11444111,-0.409,-0.035,0.088,-38.430,28.630,-34.300
11444131,-0.421,-0.088,0.168,-47.670,-4.060,-23.240
11444154,-0.089,-0.249,-0.149,-26.180,-10.010,-10.150
11444175,-0.057,-0.195,-1.172,-41.650,7.560,-8.820
11444194,-0.484,0.116,-2.564,0.140,71.610,-10.990
11444219,-0.143,0.691,0.207,3.850,89.320,-2.450
11444237,-0.210,-0.067,-0.159,-71.260,181.440,10.850
11444261,-0.642,-0.166,-0.986,-33.670,19.180,-13.930
11444281,0.116,0.132,-1.152,-9.170,68.810,-15.960
11444301,-0.262,0.327,-1.148,-78.540,125.440,13.020
11444325,-0.813,-0.471,-1.268,-74.060,161.980,-23.940
11444345,-1.356,-0.425,-0.521,23.170,101.920,-47.950
11444364,-0.693,-0.268,-0.773,33.040,94.710,-39.410
11444384,-1.002,0.016,-0.800,16.800,140.280,-31.500
11444403,-1.223,-0.140,-0.862,11.410,132.860,-28.630
11444427,-1.366,-0.384,-0.809,8.190,137.130,-48.090
11444447,-1.206,-0.233,-0.709,-1.820,138.670,-58.170
11444471,-0.762,-0.203,-0.743,-75.810,125.790,-42.420
11444491,0.216,-0.622,-0.926,-74.130,99.820,-30.310
11444511,0.447,-0.425,-0.997,-25.620,111.860,-32.620
11444528,0.715,-0.092,-0.998,-1.750,100.310,-32.410
11444547,0.410,0.147,-1.105,-10.080,97.790,-8.260
11444572,0.209,0.153,-1.124,-2.240,97.930,6.790
11444592,-0.156,-0.027,-1.069,12.600,88.060,7.770
11444610,-0.324,-0.011,-1.042,17.990,78.960,-4.830
11444630,-0.075,-0.137,-0.952,5.670,69.020,-12.810
11444653,0.184,-0.260,-1.093,6.020,52.500,-24.430
11444674,0.192,-0.132,-0.964,7.210,54.950,-19.880
11444694,0.405,-0.409,-2.124,-32.620,-47.530,-16.730
11444714,0.530,-0.393,-0.511,-1.120,104.930,-2.380
11444738,0.427,-0.501,-0.517,28.910,-21.000,8.890
11444756,0.669,0.159,-1.014,-6.930,-5.600,24.570
11444778,-0.042,-0.334,-0.978,-70.980,-23.940,32.060
11444802,0.352,-0.039,-0.902,12.180,-14.700,8.400
11444820,0.577,0.236,-1.014,5.040,-23.870,9.870
11444841,0.461,0.086,-0.963,-7.630,-24.850,10.850
11444860,0.297,-0.071,-0.932,-4.410,-27.510,2.380
11444885,0.221,-0.257,-0.908,4.690,-39.410,-16.520
11444904,0.252,-0.305,-1.160,5.180,-44.380,-28.910
11444923,0.109,-0.096,-0.972,-9.380,-50.540,-27.510
11444947,0.070,-0.108,-0.968,-33.600,-60.830,-15.120
11444967,-0.054,-0.273,-1.063,-31.990,-59.990,-12.040
11444987,-0.329,-0.163,-1.088,-20.300,-63.560,-17.150
11445006,-0.155,-0.008,-1.020,-16.450,-74.550,-12.600
11445031,-0.024,0.003,-1.054,-7.840,-85.120,-2.940
11445051,-0.044,0.037,-1.036,-2.940,-91.910,3.430
11445074,-0.125,-0.009,-1.021,2.800,-94.150,13.020
11445091,-0.134,-0.204,-1.037,-2.660,-101.710,15.400
11445115,-0.191,-0.235,-1.047,-2.660,-107.100,12.880
11445134,-0.340,-0.194,-1.051,-12.670,-116.410,14.770
11445154,-0.400,-0.012,-1.048,-31.080,-126.490,21.840
11445176,-0.456,0.094,-1.070,-45.500,-130.970,31.010
11445195,-0.525,0.102,-1.072,-60.410,-127.680,42.350
11445219,-0.872,-0.002,-0.991,-76.930,-127.120,44.030
11445239,-1.180,-0.174,-0.779,-82.670,-134.750,29.400
11445257,-1.322,-0.179,-0.662,-50.190,-135.170,13.090
11445279,-1.229,0.130,-0.631,-16.520,-110.180,-1.960
11445295,-0.963,0.485,-1.167,-3.640,-105.770,-12.040
11445319,-0.659,0.243,-0.797,-27.650,3.220,-14.070
11445339,-0.986,-0.040,0.142,13.580,56.490,-11.760
11445358,-1.227,-0.073,-0.366,79.380,-34.160,-3.920
11445378,-0.462,0.231,-0.545,103.040,14.280,8.820
11445397,-0.955,0.273,-0.162,93.730,43.050,11.410
11445418,-1.016,0.164,-0.246,86.030,0.000,22.330
11445442,-0.736,0.114,-0.442,69.370,-20.860,28.280
11445462,-0.649,0.075,-0.244,50.260,-31.430,36.330
11445482,-0.824,0.055,-0.222,33.670,-72.240,45.570
11445502,-0.647,0.019,-0.365,23.450,-101.570,52.990
11445526,-0.670,-0.072,-0.412,3.640,-128.310,59.290
11445545,-0.639,-0.223,-0.487,3.220,-158.340,53.900
11445565,-0.556,-0.192,-0.489,4.970,-174.720,43.190
11445585,-0.603,-0.134,-0.467,13.510,-195.090,41.370
11445608,-0.571,-0.078,-0.635,4.270,-213.150,40.810
11445628,-0.522,-0.047,-0.900,-16.310,-220.290,42.560
11445647,-0.569,-0.092,-0.827,-40.600,-210.000,38.850
11445667,-0.680,-0.059,-0.892,-56.000,-217.140,33.880
11445690,-0.595,-0.004,-1.087,-70.210,-197.890,33.040
11445712,-0.792,0.019,-1.173,-94.430,-165.060,30.940
11445732,-0.857,0.076,-1.466,-105.350,-140.420,20.930
11445752,-0.625,-0.013,-1.675,-95.410,-116.410,20.930
11445772,-0.655,-0.209,-0.889,-87.080,-43.610,19.810
11445796,-0.922,-0.334,-0.969,-12.180,-33.110,12.250
11445816,-0.717,0.976,-1.973,-94.290,23.870,17.290
11445836,-2.174,-0.690,1.699,108.640,93.030,-18.060
11445856,-1.323,0.695,-0.130,-12.670,-102.970,20.790
11445876,-1.168,-0.007,-0.555,-32.060,-4.970,27.860
11445896,-1.087,-0.125,-0.181,3.430,-11.410,21.000
11445916,-1.107,0.297,-0.103,10.150,-35.630,32.410
11445932,-0.942,0.216,-0.144,8.260,-44.170,38.360
11445951,-0.927,0.181,-0.102,30.660,-48.720,29.050
11445976,-0.996,0.458,0.033,19.950,-43.190,32.760
11445993,-0.907,0.536,-0.015,-3.920,-36.120,30.940
11446012,-1.014,0.331,-0.063,-41.720,-31.850,17.920
11446033,-1.031,0.189,-0.113,-58.800,-29.330,5.250
11446052,-1.061,-0.004,-0.003,-31.430,-29.050,3.570
11446077,-0.940,0.148,0.105,0.070,-33.390,7.700
11446097,-0.919,0.387,0.081,20.160,-34.440,8.890
11446117,-0.925,0.351,0.080,0.140,-24.150,3.430
11446141,-0.974,0.382,-0.020,-26.180,-13.440,-4.830
11446161,-0.942,0.530,0.098,-40.950,-13.440,-3.220
11446181,-0.948,0.166,0.126,-83.440,-9.660,-5.530
11446201,-1.016,-0.232,0.073,-59.570,-1.400,-5.810
11446221,-1.037,0.065,0.054,-21.980,1.750,6.160
11446240,-1.005,0.260,0.002,-8.960,-0.700,3.780
11446260,-0.995,0.228,-0.124,-42.910,-6.160,-2.170
11446281,-1.030,-0.205,0.081,-33.460,0.000,-5.950
11446301,-1.136,-0.329,-0.046,24.290,-6.020,3.220
11446321,-1.039,0.245,0.016,47.320,-9.870,12.040
11446341,-0.944,0.454,-0.015,52.780,-18.900,10.990
11446360,-1.006,0.398,0.043,30.310,-31.360,7.350
11446385,-0.976,0.293,0.149,24.150,-25.480,3.710
11446400,-0.907,0.382,0.200,11.690,-18.690,4.270
11446425,-0.956,0.209,0.122,11.410,-13.090,-1.260
11446445,-0.908,0.767,0.228,4.830,-6.650,-9.520
11446464,-0.859,0.715,0.187,-25.970,1.470,-24.570
11446482,-0.891,0.488,0.215,-55.580,7.980,-32.410
11446502,-0.900,0.010,0.216,-48.370,27.510,-32.900
11446526,-0.965,0.239,0.079,-36.960,37.240,-24.990
11446546,-0.719,0.419,0.137,-46.340,61.040,-22.120
11446565,-0.984,-0.079,0.048,-78.820,42.140,-20.230
11446584,-1.243,-0.516,-0.137,-48.370,35.700,-26.460
11446608,-1.260,-0.521,-0.104,26.460,22.540,-15.540
11446628,-0.905,0.022,0.157,89.740,34.650,3.920
11446648,-1.106,0.234,-0.214,17.710,12.530,20.440
11446668,-1.238,0.149,-0.201,-15.960,2.800,4.060
11446688,-1.298,-0.383,-0.203,-0.210,8.120,13.440
11446712,-1.146,-0.144,0.187,81.970,40.460,20.790
11446732,-0.954,0.091,-0.264,58.030,0.420,28.280
11446751,-1.212,0.166,-0.188,74.690,19.110,11.060
11446767,-1.085,0.622,-0.025,63.840,18.550,12.180
11446792,-0.753,0.693,0.142,38.570,24.570,-6.160
11446812,-0.897,0.575,0.007,-8.470,11.130,1.050
11446830,-1.060,0.180,-0.122,-11.690,15.890,2.380
11446850,-1.000,0.154,-0.171,4.340,9.870,-5.880
11446874,-0.950,0.194,0.075,4.830,21.700,-3.010
11446894,-0.964,0.328,-0.028,-2.380,14.490,3.290
11446914,-0.995,0.095,-0.229,-21.070,18.550,-2.240
11446933,-1.139,0.178,-0.188,-29.400,17.360,-2.170
11446954,-1.007,0.243,-0.047,-16.940,21.070,-12.950
11446974,-1.082,0.143,-0.210,-22.960,0.910,-6.510
11446992,-0.904,0.048,-0.236,-14.560,10.920,-6.370
11447012,-1.128,0.083,-0.193,-2.660,-0.140,-4.410
11447031,-0.946,0.316,-0.101,2.520,0.910,-13.720
11447056,-0.903,0.387,-0.120,-24.570,1.330,1.400
11447076,-0.983,0.098,-0.223,-35.560,0.140,1.400
11447095,-1.083,-0.005,-0.295,-28.210,-0.560,-2.940
11447119,-0.940,0.202,-0.076,-15.890,7.490,-15.470
11447137,-0.981,0.084,-0.162,-19.810,-0.490,-16.450
11447155,-0.959,0.078,-0.171,-14.140,-1.750,-15.400
11447179,-1.035,0.020,-0.172,-5.320,-3.850,-19.530
11447199,-0.976,0.071,-0.062,-4.550,-0.350,-13.650
11447217,-0.982,0.202,-0.082,-6.860,6.790,-9.030
11447236,-0.964,0.082,-0.193,-12.110,7.980,3.570
11447260,-1.061,0.012,-0.182,1.890,-0.420,1.890
11447279,-0.823,0.167,-0.074,-3.220,10.640,14.210
11447300,-0.959,0.144,-0.179,1.750,7.280,10.990
11447323,-1.076,0.249,-0.160,-9.240,-3.290,14.210
11447344,-1.053,0.076,-0.194,-17.570,-4.970,16.170
11447363,-0.791,0.200,-0.007,-19.040,7.910,13.790
11447384,-0.935,0.102,-0.085,-18.760,2.450,17.430
11447403,-0.965,0.068,-0.094,-10.150,8.750,16.660
11447422,-0.955,0.254,-0.181,-1.190,10.640,10.500
11447446,-1.028,-0.011,-0.218,-0.700,8.960,-0.420
11447466,-1.020,0.275,-0.197,7.070,4.900,-1.120
11447484,-0.936,0.440,-0.240,0.980,10.500,1.470
11447505,-0.991,0.181,-0.286,-14.490,4.270,4.200
11447526,-1.012,0.122,-0.143,-4.830,8.190,4.550
11447546,-0.992,-0.081,-0.152,1.330,7.350,6.160
11447566,-0.998,-0.010,-0.233,12.740,4.060,10.500
11447586,-1.001,0.242,-0.188,16.170,9.590,16.380
11447605,-0.949,0.287,-0.189,-1.960,9.170,22.400
11447626,-0.989,0.220,-0.169,-3.080,6.650,17.990
11447646,-1.018,0.192,-0.214,1.050,1.610,10.150
11447670,-0.962,0.199,-0.222,10.640,2.030,0.210
11447690,-0.973,0.223,-0.254,17.360,1.610,-3.430
11447709,-1.047,0.209,-0.260,15.750,-1.400,-3.780
11447730,-0.969,0.311,-0.232,9.450,-5.250,-5.600
11447754,-0.989,0.182,-0.230,-1.190,-9.170,-6.090
11447778,-0.989,0.175,-0.237,-1.400,-11.060,-3.990
11447797,-1.004,0.075,-0.247,5.950,-14.280,-3.920
11447821,-1.014,0.241,-0.232,11.550,-21.700,-0.560
11447838,-1.005,0.218,-0.226,7.140,-26.880,-1.400
11447861,-1.014,0.236,-0.294,-1.400,-36.120,-7.280
11447885,-1.012,0.273,-0.240,-10.640,-42.420,-12.390
11447905,-1.052,0.186,-0.225,-14.490,-53.550,-17.080
11447925,-1.035,0.236,-0.134,-26.950,-57.540,-19.880
11447940,-1.064,0.213,-0.154,-38.570,-66.990,-19.460
11447965,-1.005,0.147,-0.309,-50.470,-69.580,-17.290
11447985,-0.987,0.043,-0.064,-61.810,-73.360,-8.890
11448003,-0.996,0.108,0.156,-66.990,-70.630,0.000
11448023,-0.971,0.008,0.043,-63.210,-72.240,12.040
11448047,-0.899,-0.039,-0.045,-69.650,-57.400,19.390
11448067,-0.918,-0.203,0.418,-28.420,-38.850,20.580
11448085,-0.897,-0.159,0.322,12.530,-28.420,25.900
11448106,-0.854,0.058,0.241,42.280,-17.500,26.740
11448125,-0.898,0.545,0.240,37.870,-11.760,21.560
11448151,-0.828,0.642,0.320,7.980,1.820,11.760
11448170,-0.891,0.361,0.173,-18.060,3.570,1.890
11448194,-0.930,0.106,0.149,-9.030,16.520,-7.420
11448214,-0.969,0.145,0.239,15.050,34.440,-7.700
11448233,-0.921,0.198,0.233,7.630,35.490,-9.660
11448256,-0.965,0.197,-0.027,32.480,27.300,-20.440
11448277,-1.032,0.246,-0.257,30.380,52.500,-19.530
11448297,-0.855,0.190,0.104,-30.660,82.250,-14.630
11448315,-1.091,-0.124,0.063,-11.690,36.820,-15.120
11448334,-0.953,0.143,-0.109,41.300,39.900,-11.970
11448359,-0.891,0.131,-0.179,12.390,49.000,-7.560
11448376,-1.129,0.218,-0.170,10.430,25.270,-8.750
11448396,-1.097,0.015,-0.068,14.210,14.280,-15.400
11448420,-1.117,-0.040,0.116,54.110,25.410,-20.650
11448440,-0.977,0.176,-0.091,66.220,41.580,-27.230
11448460,-1.199,0.214,-0.145,45.990,41.650,-29.120
11448480,-1.415,0.004,-0.019,20.160,29.820,-22.400
11448504,-1.525,-0.110,-0.218,50.260,21.630,-34.930
11448524,-1.055,0.015,-0.110,77.490,31.010,-34.160
11448544,-0.989,0.294,-0.712,84.980,80.990,-26.530
