Millis,AccelX,AccelY,AccelZ,GyroX,GyroY,GyroZ
9494876,-1.008,0.001,0.185,-0.980,-12.040,1.540
9494896,-0.982,0.000,0.159,-1.820,-11.270,2.240
9494921,-0.975,-0.007,0.174,-2.730,-9.940,0.980
9494941,-0.996,0.007,0.191,-3.220,-9.940,0.490
9494957,-1.016,0.016,0.201,-2.870,-10.010,0.700
9494980,-1.008,0.020,0.203,-2.170,-9.170,1.400
9495001,-0.995,0.010,0.204,-2.170,-8.960,1.400
9495025,-0.991,0.007,0.196,-1.610,-8.330,1.050
9495045,-1.004,0.017,0.193,-1.610,-9.170,1.050
9495065,-1.013,0.017,0.220,-3.570,-8.540,1.680
9495083,-1.003,0.010,0.209,-2.240,-8.890,1.260
9495105,-0.991,0.011,0.198,-1.050,-8.050,1.260
9495127,-0.988,0.002,0.192,-0.910,-5.950,0.700
9495148,-0.996,0.010,0.196,-0.840,-6.160,0.210
9495167,-0.998,0.011,0.193,-0.910,-6.510,-0.070
9495186,-0.997,0.019,0.194,-0.560,-5.460,0.140
9495205,-1.002,0.015,0.196,0.000,-4.760,0.700
9495224,-0.997,0.010,0.200,1.120,-5.250,0.840
9495247,-1.006,0.004,0.202,1.330,-4.760,0.490
9495267,-1.013,0.000,0.211,1.260,-6.230,-0.140
9495286,-1.022,0.010,0.211,2.170,-7.980,-0.980
9495312,-1.021,0.008,0.205,2.940,-10.570,-0.770
9495330,-1.021,0.010,0.210,3.640,-11.830,-1.400
9495351,-1.013,0.024,0.202,2.450,-14.350,-2.450
9495374,-1.029,0.037,0.218,2.660,-14.980,-2.520
9495394,-0.974,-0.003,0.210,2.800,-20.650,-3.570
9495414,-0.895,-0.009,0.188,1.470,-13.440,-6.650
9495438,-1.005,0.018,0.257,5.530,-14.700,-4.550
9495457,-0.997,0.026,0.221,3.220,-11.270,-4.410
9495476,-0.943,-0.002,0.298,0.420,-12.460,-4.830
9495500,-0.910,0.007,0.219,4.620,-13.510,-7.350
9495520,-0.954,0.054,0.254,-1.330,3.640,-2.660
9495539,-1.012,-0.006,0.348,1.190,2.310,-2.100
9495560,-1.029,-0.010,0.312,8.190,-0.210,-2.450
9495585,-0.980,0.012,0.270,7.840,0.070,-1.400
9495603,-0.965,0.003,0.249,6.510,3.990,-0.770
9495624,-0.975,0.001,0.269,4.760,6.930,-1.470
9495643,-0.973,0.009,0.269,3.570,8.540,-1.890
9495662,-0.992,0.012,0.279,4.480,5.320,-1.470
9495686,-0.977,0.018,0.257,4.690,8.050,-1.190
9495705,-0.992,0.013,0.268,4.200,8.820,-1.050
9495725,-0.996,0.023,0.256,5.180,9.590,-0.770
9495746,-1.002,0.022,0.248,4.060,9.590,-0.420
9495766,-0.996,0.008,0.255,2.800,10.010,-0.700
9495785,-1.007,0.006,0.271,3.010,9.940,-0.490
9495803,-0.996,0.006,0.265,3.640,8.610,-0.770
9495827,-0.985,0.016,0.245,2.800,7.910,-0.560
9495849,-0.976,0.018,0.216,1.330,6.860,-1.190
9495871,-0.969,0.022,0.229,-1.750,10.850,-1.680
9495891,-1.015,0.038,0.277,-1.820,11.480,-1.400
9495909,-1.023,0.025,0.277,-1.470,9.380,-0.770
9495928,-1.015,0.025,0.264,-1.050,9.100,-0.420
9495953,-1.009,0.022,0.244,-1.260,9.660,0.280
9495977,-0.996,0.022,0.217,-1.190,10.640,-0.350
9495993,-1.004,0.015,0.223,-2.940,10.430,-0.350
9496017,-0.992,0.004,0.190,-2.380,6.440,-3.290
9496037,-1.008,0.035,0.229,-1.330,6.790,-2.660
9496056,-0.994,0.026,0.172,-0.770,-1.330,-3.150
9496075,-0.960,0.054,0.127,-6.160,5.600,-4.270
9496094,-1.014,0.049,0.204,-9.240,10.850,-4.270
9496119,-1.026,0.015,0.206,-6.860,3.710,-6.580
9496139,-0.998,0.047,0.166,-9.660,3.010,-5.040
9496158,-0.990,0.020,0.175,-13.020,3.360,-5.880
9496179,-1.023,0.020,0.240,-14.140,2.660,-4.480
9496198,-1.016,-0.007,0.258,-10.920,-0.140,-3.710
9496223,-1.034,-0.040,0.255,-5.950,-6.370,-4.620
9496242,-1.030,-0.039,0.175,-1.330,-9.030,-7.280
9496262,-1.000,0.028,0.141,-3.640,-4.550,-7.070
9496281,-0.991,0.050,0.167,-5.320,-4.970,-5.110
9496301,-0.980,0.017,0.150,-2.100,-1.120,-2.870
9496326,-1.000,-0.034,0.156,4.200,1.330,-3.220
9496346,-1.011,-0.035,0.175,0.140,3.430,-5.040
9496365,-1.005,-0.009,0.191,-6.020,2.800,-5.250
9496390,-0.994,-0.008,0.198,-9.100,3.500,-5.180
9496409,-0.976,-0.015,0.196,-7.840,3.570,-4.480
9496425,-0.989,-0.015,0.198,-4.620,3.990,-4.130
9496449,-1.017,-0.005,0.203,-4.550,3.220,-2.940
9496470,-1.028,-0.005,0.204,-6.790,1.750,-1.610
9496489,-1.016,-0.015,0.189,-5.670,0.350,-0.840
9496510,-0.988,-0.033,0.162,-3.640,1.190,-0.420
9496529,-0.982,-0.052,0.161,-4.830,3.220,-0.630
9496550,-0.998,-0.060,0.192,-5.460,3.150,-1.890
9496570,-0.994,-0.060,0.187,-4.060,2.450,-2.800
9496588,-0.989,-0.055,0.188,-2.030,3.990,-2.380
9496609,-0.991,-0.061,0.169,0.140,1.960,-2.450
9496630,-1.001,-0.034,0.194,-0.770,4.620,-2.870
9496654,-1.018,-0.039,0.156,2.100,0.420,-0.980
9496674,-0.998,-0.039,0.143,-0.770,7.420,-0.910
9496692,-1.022,-0.057,0.203,-4.690,6.510,-1.820
9496710,-1.012,-0.049,0.194,-0.910,4.340,-2.310
9496733,-0.996,-0.042,0.165,4.690,4.690,-1.330
9496752,-0.978,-0.056,0.145,4.060,7.280,-1.960
9496776,-0.986,-0.054,0.147,2.310,10.150,-3.150
9496795,-1.002,-0.054,0.155,1.960,10.500,-3.220
9496814,-0.992,-0.062,0.146,4.970,11.760,-3.080
9496834,-0.990,-0.061,0.136,8.260,14.350,-2.450
9496859,-0.989,-0.069,0.143,10.290,16.380,-2.450
9496879,-1.008,-0.084,0.136,12.390,14.630,-3.640
9496899,-1.017,-0.075,0.140,11.620,17.220,-4.060
9496920,-1.019,-0.080,0.155,12.250,15.820,-5.110
9496939,-1.004,-0.083,0.148,16.240,15.470,-5.040
9496962,-0.996,-0.089,0.123,21.350,16.380,-4.970
9496983,-1.018,-0.091,0.125,20.440,16.100,-5.390
9497001,-1.037,-0.087,0.136,18.200,14.700,-5.390
9497020,-1.041,-0.059,0.138,16.240,13.020,-4.060
9497039,-1.022,-0.061,0.135,17.500,11.690,-2.100
9497063,-1.022,-0.082,0.128,20.020,8.470,-0.280
9497084,-1.013,-0.081,0.085,19.040,7.280,0.000
9497099,-1.007,-0.066,0.085,15.470,6.510,0.070
9497125,-1.014,-0.039,0.102,11.690,4.270,1.470
9497143,-1.024,-0.044,0.108,11.410,1.820,3.360
9497166,-1.029,-0.060,0.098,11.270,-0.910,3.570
9497186,-1.040,-0.051,0.097,5.670,-3.990,3.850
9497206,-1.033,-0.029,0.067,2.310,-7.980,3.570
9497227,-1.059,0.013,0.139,-0.840,-6.720,6.160
9497247,-1.056,0.002,0.096,5.040,-14.700,9.800
9497271,-0.996,0.011,0.038,1.890,-4.550,11.200
9497290,-1.027,-0.005,0.123,-1.680,-4.620,10.780
9497314,-1.022,-0.008,0.098,2.100,-10.150,10.150
9497334,-1.000,-0.001,0.069,0.280,-10.430,9.730
9497357,-1.006,0.001,0.072,-2.240,-12.460,7.840
9497377,-1.010,0.023,0.062,-1.610,-12.250,6.720
9497401,-1.005,0.042,0.094,-1.750,-10.360,6.160
9497420,-1.009,0.039,0.103,-0.770,-11.200,5.880
9497444,-1.004,0.035,0.089,-0.210,-13.720,5.460
9497464,-1.001,0.043,0.072,-2.170,-12.880,4.340
9497481,-1.000,0.063,0.096,-6.720,-8.960,4.900
9497500,-1.009,0.047,0.117,-5.530,-8.750,5.320
9497525,-1.003,0.035,0.133,-4.550,-7.210,5.810
9497545,-1.010,0.009,0.147,-2.730,-11.200,5.530
9497565,-0.992,-0.009,0.104,1.890,-9.590,4.760
9497589,-0.979,-0.024,0.094,3.570,-3.850,4.410
9497606,-0.984,-0.040,0.119,3.010,-1.330,2.660
9497630,-0.982,0.000,0.117,-3.780,-1.120,1.050
9497649,-1.013,0.031,0.135,-9.450,3.010,1.190
9497674,-1.017,0.047,0.138,-6.440,4.970,2.940
9497693,-0.990,0.038,0.103,-4.550,7.560,3.710
9497713,-0.980,0.040,0.076,-7.070,11.480,2.730
9497729,-0.980,0.057,0.071,-14.000,15.260,2.170
9497753,-0.978,0.075,0.091,-23.380,19.950,2.660
9497773,-0.971,0.073,0.077,-22.820,16.590,3.570
9497793,-0.932,0.083,0.029,-25.760,25.130,2.380
9497817,-0.983,0.105,0.056,-25.900,21.210,5.600
9497837,-0.993,0.110,-0.003,-35.980,26.530,6.370
9497852,-1.062,0.104,0.102,-41.370,29.400,6.580
9497877,-1.071,0.096,0.031,-37.380,24.500,5.810
9497898,-1.033,0.104,0.005,-40.040,29.540,6.790
9497917,-1.012,0.090,0.049,-42.560,29.890,6.440
9497937,-0.973,0.081,0.044,-44.030,28.630,3.990
9497956,-0.939,0.092,0.087,-41.300,26.320,2.520
9497977,-0.916,0.066,0.117,-22.190,20.580,-0.140
9497993,-0.883,0.047,0.054,-5.670,17.850,-4.200
9498017,-0.789,0.049,-0.068,6.370,27.510,-8.400
9498037,-0.648,-0.033,-0.025,21.350,49.980,-9.730
9498057,-0.459,-0.166,0.095,35.700,53.830,-14.910
9498076,-0.194,-0.197,0.150,38.360,34.300,-24.080
9498100,-0.219,-0.057,-0.020,19.390,5.040,-27.160
9498120,-0.387,0.111,-0.228,21.980,21.560,-20.090
9498140,-0.746,0.229,0.065,31.710,31.570,-6.510
9498159,-1.465,0.153,-0.008,17.850,15.960,-3.500
9498179,-2.321,0.166,-0.177,4.200,7.560,2.730
9498203,-2.534,0.081,-0.317,-21.280,-12.880,17.920
9498220,-2.512,-0.213,-0.172,-34.020,-19.530,-0.770
9498241,-2.998,-0.074,-0.190,-4.060,50.470,-32.130
9498260,-3.708,0.023,0.133,-7.630,-20.860,14.350
9498285,-3.224,-0.002,0.475,3.710,-73.360,30.800
9498304,-2.391,0.002,0.338,15.960,-136.990,28.000
9498325,-1.445,-0.044,-0.185,22.680,-175.840,21.210
9498349,-0.505,-0.102,-0.828,7.420,-157.710,11.900
9498369,0.594,-0.227,-0.987,-28.560,-64.050,0.980
9498389,1.167,-0.020,0.668,-57.120,17.850,-13.930
9498406,0.773,-0.229,0.211,20.510,-59.500,-17.570
9498429,0.202,0.023,-0.365,34.370,-23.380,-22.890
9498450,-0.315,0.183,0.216,4.620,-17.290,4.900
9498470,-0.271,0.108,0.144,8.610,-34.510,1.960
9498490,-0.169,0.113,0.125,12.110,-41.090,5.810
9498511,-0.095,0.041,0.036,12.670,-47.110,11.200
9498529,-0.066,-0.023,-0.005,11.130,-42.210,11.410
9498550,-0.171,-0.019,0.133,9.730,-51.800,14.000
9498570,-0.108,-0.068,-0.066,6.370,-54.460,-0.980
9498595,0.052,0.163,-0.084,-7.000,-42.210,-0.560
9498613,0.195,0.205,-0.053,-17.570,-28.420,0.910
9498633,-0.430,0.290,-0.309,-40.110,-5.740,6.160
9498653,-0.903,0.497,0.113,-89.110,37.030,17.780
9498676,-1.345,-0.234,0.074,-42.980,124.600,15.960
9498697,-2.327,-0.520,0.520,-0.210,88.270,12.600
9498717,-2.738,-0.342,0.238,27.300,95.550,-33.950
9498740,-3.462,0.228,0.294,4.270,81.200,-32.620
9498761,-4.636,0.662,1.345,-87.290,-38.780,6.300
9498781,-4.024,0.465,0.905,-36.190,-73.780,18.970
9498801,-2.195,-0.013,0.245,14.560,-70.420,19.810
9498826,-1.476,-0.126,-0.107,19.530,-68.950,13.020
9498844,-0.592,0.004,-0.205,28.490,-42.980,21.840
9498868,0.132,0.071,0.152,15.960,-51.800,27.720
9498888,0.816,0.204,-0.374,41.650,14.490,14.210
9498908,0.225,0.058,-0.461,11.900,33.110,-0.420
9498928,-0.235,-0.114,0.058,-10.920,38.220,-25.830
9498952,-0.366,-0.041,0.344,6.090,16.170,-29.890
9498968,-0.299,0.015,0.162,30.730,-7.070,-24.710
9498988,-0.109,0.098,-0.109,20.790,-18.340,-17.010
9499010,0.041,0.122,-0.065,-7.910,-22.610,-2.380
9499032,0.272,0.052,-0.141,-15.330,-10.640,-3.780
9499055,0.353,-0.069,-0.041,-1.540,19.180,-10.570
9499076,0.243,-0.243,0.100,13.090,27.160,-17.640
9499097,0.233,-0.102,-0.151,-7.420,27.300,-36.540
9499114,0.248,0.153,-0.335,-46.340,53.130,-48.510
9499136,0.209,0.276,0.461,-24.920,97.790,-30.100
9499155,-0.302,0.136,0.551,12.040,100.240,-6.790
9499173,-0.785,0.057,-0.041,24.570,170.660,-3.010
9499196,-2.613,0.086,0.228,6.720,74.410,17.710
9499216,-4.856,-0.447,-0.790,-27.720,-9.380,28.910
9499236,-4.805,-0.337,-0.199,23.240,143.080,-40.390
9499259,-3.514,-0.356,1.292,-30.730,-9.660,-18.970
9499280,-4.010,0.128,0.177,41.930,-43.540,-5.460
9499295,-3.471,0.344,0.047,24.850,-54.250,21.910
9499316,-2.859,-0.020,0.349,28.770,-71.050,28.560
9499335,-2.234,-0.068,0.388,48.160,-123.690,28.630
9499355,-1.369,-0.137,-0.036,76.370,-155.750,12.110
9499381,-0.312,-0.047,-0.378,45.150,-123.970,-7.910
9499400,0.575,0.001,-0.522,-18.550,-108.710,-15.890
9499419,1.028,0.035,-0.423,-51.450,-52.150,-29.120
9499439,0.985,0.163,-0.040,-6.790,-12.670,-30.660
9499461,0.463,0.208,-0.027,38.990,10.150,-19.040
9499481,0.058,0.134,0.062,34.300,28.700,-2.800
9499505,-0.260,-0.082,0.183,20.230,8.680,-0.280
9499525,-0.190,-0.099,0.069,20.300,-8.680,-4.340
9499545,-0.100,0.056,-0.120,14.910,-5.810,2.800
9499563,-0.140,0.038,-0.094,14.700,-3.710,12.880
9499585,-0.052,0.053,-0.160,13.790,6.160,17.570
9499609,0.024,0.086,0.187,-11.830,-5.180,15.890
9499629,-0.017,0.035,0.088,-15.050,-10.150,6.020
9499649,-0.100,0.061,0.000,-10.920,-1.050,4.410
9499669,-0.356,0.196,-0.155,-38.710,18.550,-2.030
9499686,-0.975,0.299,-0.238,-64.260,79.380,-2.380
9499710,-2.630,0.275,0.199,-39.550,161.420,49.000
9499730,-3.516,0.062,0.299,-2.940,96.530,79.030
9499750,-3.734,-0.608,0.013,31.710,63.420,11.480
9499770,-4.448,-0.197,0.793,-53.760,82.530,-52.640
9499788,-4.692,0.444,1.346,-98.910,-59.290,-6.370
9499812,-2.649,-0.307,0.749,77.700,-103.880,8.750
9499832,-1.670,-0.047,-0.075,141.750,-60.060,20.650
9499852,-0.427,-0.077,-0.628,108.430,-60.480,0.420
9499871,0.442,-0.109,-0.191,-25.060,-17.500,-2.870
9499896,0.687,0.019,-0.256,-33.320,1.890,-50.190
9499916,0.538,0.610,-0.233,2.660,30.660,-32.900
9499935,-0.096,0.355,-0.020,11.900,55.300,-8.680
9499955,-0.373,-0.046,0.259,-4.340,42.140,-7.420
9499976,-0.329,-0.203,0.094,-9.660,1.120,-12.110
9499996,-0.102,-0.175,-0.081,-0.630,4.410,-19.740
9500020,0.072,-0.243,0.117,-10.640,-3.710,-17.080
9500040,0.366,0.031,0.045,-12.460,1.400,-22.540
9500058,0.262,0.349,-0.093,-0.420,17.920,-22.050
9500080,0.287,0.305,-0.097,3.570,36.540,-9.310
9500099,0.337,0.048,-0.054,-1.610,50.610,-7.910
9500124,0.240,-0.010,-0.112,-17.780,65.660,-27.230
9500144,-0.090,-0.105,0.193,-6.020,82.950,-27.090
9500163,-0.586,-0.023,0.064,48.160,126.630,-22.260
9500188,-2.355,-0.064,0.292,44.100,103.390,1.050
9500208,-5.552,-0.868,-1.288,29.610,-65.450,23.730
9500231,-6.123,-0.461,-0.214,-43.050,113.470,4.480
9500252,-3.702,-0.054,0.386,-59.640,-66.920,3.780
9500276,-3.170,0.278,0.376,18.550,-30.170,10.290
9500296,-2.638,0.272,0.049,48.020,-115.360,14.770
9500316,-1.717,-0.012,-0.914,15.050,-174.930,10.290
9500336,-0.027,-0.066,-0.519,-69.720,-15.050,20.370
9500356,0.747,0.166,0.345,-155.400,-145.460,69.790
9500375,0.886,-0.439,0.079,2.870,-44.520,-1.610
9500396,0.731,0.011,-0.335,16.590,-27.230,-2.450
9500414,0.666,-0.054,-0.056,-2.310,9.030,11.970
9500434,0.245,-0.187,0.345,12.390,8.610,2.520
9500455,-0.227,-0.114,0.237,38.850,-20.720,-8.400
9500474,-0.301,0.001,-0.041,39.830,-40.110,-4.620
9500499,-0.120,0.087,-0.177,30.800,-33.040,15.890
9500519,-0.024,0.129,-0.022,23.730,-26.670,30.940
9500543,-0.072,0.170,-0.033,23.730,-20.230,40.390
9500563,-0.032,0.151,0.061,-8.260,-20.650,35.840
9500583,0.040,0.027,-0.045,-37.800,-22.680,11.480
9500603,0.119,-0.000,0.014,-52.290,-2.660,-4.410
9500623,-0.467,0.135,-0.087,-39.900,39.410,-21.630
9500639,-1.769,0.393,-0.101,-22.400,117.670,8.120
9500662,-3.411,0.456,0.334,34.160,78.750,78.680
9500680,-4.473,-0.125,0.121,26.600,60.480,37.800
9500704,-4.679,-0.483,0.636,-38.570,-1.330,-24.990
9500724,-3.929,0.887,0.598,-77.840,-36.120,-28.070
9500744,-2.935,0.383,0.518,-35.840,-93.870,11.200
9500763,-2.196,-0.020,-0.019,44.730,-74.690,21.770
9500782,-1.278,-0.146,-0.112,105.070,-41.020,41.580
9500806,-0.495,-0.520,0.335,64.050,-58.240,41.720
9500827,0.469,-0.583,-0.284,59.500,-77.980,-29.120
9500847,0.516,0.043,-0.459,37.800,-33.670,-67.970
9500866,0.375,0.437,-0.497,-12.390,20.930,-61.810
9500886,-0.144,0.627,0.315,-42.700,31.360,-35.490
9500910,-0.302,0.325,0.363,-21.280,1.470,-16.450
9500929,-0.184,0.038,0.156,14.980,-4.130,-15.680
9500950,-0.011,-0.055,-0.189,17.080,-4.620,-17.850
9500970,0.137,-0.215,-0.069,3.990,12.670,-8.400
9500994,0.181,-0.247,0.257,-0.630,2.240,-11.970
9501014,0.248,-0.027,-0.083,3.780,-9.800,-24.010
9501034,0.317,0.195,-0.283,-4.900,16.520,-23.240
9501054,0.352,0.165,-0.143,-9.870,50.120,-18.830
9501070,0.260,0.150,0.118,-21.140,66.010,-22.190
9501090,0.085,0.138,-0.017,-24.360,80.710,-24.570
9501114,-0.167,-0.020,-0.063,13.650,156.100,0.910
9501134,-1.171,-0.082,0.234,72.170,263.970,14.420
9501153,-4.189,-0.265,-0.148,48.160,-57.470,75.880
9501174,-6.243,-0.774,-0.625,11.410,111.510,-86.660
9501198,-4.907,0.777,0.502,-95.900,-113.190,-0.070
9501218,-3.556,1.017,0.599,-83.510,8.540,43.260
9501239,-3.233,0.181,0.639,52.780,-90.370,43.120
9501256,-2.415,-0.212,-0.111,73.640,-120.750,17.850
9501278,-0.822,-0.150,-0.558,12.530,-83.160,12.320
9501298,0.192,0.005,0.002,-74.340,-149.240,25.970
9501322,1.238,-0.336,-0.516,-117.530,-90.020,-23.590
9501343,1.256,0.122,-0.088,-32.410,-34.300,-40.670
9501361,1.022,0.505,-0.207,-15.120,-5.950,-10.850
9501381,0.397,0.159,0.021,-40.810,23.660,12.810
9501402,-0.237,-0.183,0.172,-27.300,1.260,10.920
9501426,-0.368,-0.245,0.155,7.070,-22.260,21.070
9501446,-0.278,-0.340,0.121,33.320,-26.530,18.200
9501466,-0.126,-0.243,0.152,32.760,-43.750,17.430
9501484,0.021,0.018,-0.102,21.000,-40.600,12.250
9501506,0.049,0.339,-0.019,-15.190,-17.150,6.720
9501526,0.043,0.425,0.032,-35.350,-7.280,0.700
9501542,0.098,0.223,-0.011,-34.790,9.800,-4.760
9501565,0.174,0.043,-0.122,-43.120,28.000,-4.900
9501588,-0.232,0.009,-0.153,-47.600,62.160,2.590
9501609,-1.533,0.092,-0.221,-13.930,203.280,27.860
9501627,-2.827,0.064,0.304,-16.450,158.480,60.690
9501648,-4.079,-0.336,-0.009,-14.420,99.750,48.720
9501668,-4.509,-0.228,0.227,33.950,33.880,4.270
9501690,-4.145,0.471,0.618,23.240,-17.710,-7.630
9501711,-3.356,0.425,0.872,-1.400,-83.370,-11.550
9501730,-2.341,0.132,0.052,27.230,-103.810,-7.840
9501755,-1.409,-0.037,-0.469,55.650,-43.120,-0.980
9501775,-0.667,0.067,0.049,5.460,-50.610,11.060
9501800,-0.015,0.124,-0.050,-14.280,-72.520,-8.470
9501815,0.347,0.101,-0.129,-10.920,-52.220,-22.050
9501835,0.459,0.121,-0.169,5.530,1.680,-17.710
9501859,0.095,-0.043,-0.093,33.670,19.740,-10.640
9501879,-0.121,-0.175,0.156,18.830,24.150,-19.460
9501899,-0.175,-0.021,0.256,-9.660,3.780,-30.800
9501914,-0.165,0.086,0.179,-11.970,0.140,-33.950
9501937,0.014,0.097,0.067,8.750,12.040,-19.740
9501961,0.221,-0.044,0.182,14.980,18.830,-4.830
9501980,0.365,-0.105,0.146,15.610,13.370,-5.950
9502001,0.360,0.075,-0.050,-2.380,25.200,-17.290
9502023,0.261,0.232,-0.072,9.310,43.820,-15.260
9502043,0.199,0.034,-0.060,22.820,35.210,-6.440
9502067,0.307,-0.104,-0.451,13.650,93.310,-22.400
9502086,-0.036,-0.100,-0.192,-9.590,128.940,-30.240
9502106,-1.799,0.072,0.271,38.080,222.530,-6.790
9502130,-5.223,-0.137,0.017,117.950,-110.950,28.770
9502150,-5.401,-0.140,-1.311,97.930,81.480,-45.290
9502170,-4.840,0.305,0.808,-82.670,7.630,-4.340
9502195,-3.836,0.456,0.404,-68.880,-50.610,3.010
9502213,-3.322,0.144,0.287,58.030,-87.080,6.300
9502234,-2.082,0.239,-0.204,99.190,-185.500,14.910
9502258,-0.693,0.062,-0.530,31.710,-58.310,25.480
9502277,-0.005,0.026,-0.234,-13.020,-140.910,59.290
9502298,0.946,-0.374,-0.226,-72.730,-101.850,25.970
9502314,1.395,-0.337,-0.606,-28.910,-52.150,-20.160
9502333,1.125,0.073,-0.198,-14.490,1.540,-20.720
9502357,0.584,0.009,0.048,4.200,37.870,-22.470
9502378,-0.082,0.034,0.119,2.310,20.860,-29.750
9502398,-0.328,0.142,0.053,5.600,3.570,-21.560
9502422,-0.298,0.153,0.094,1.050,-4.620,-0.070
9502440,-0.141,0.074,0.048,-1.470,-9.870,5.950
9502459,-0.095,0.080,0.040,-0.140,-8.680,10.990
9502480,-0.114,0.020,-0.024,-0.490,-3.080,9.800
9502503,-0.075,0.003,0.002,-5.110,-0.630,4.200
9502524,0.011,-0.004,-0.044,-5.880,17.150,3.220
9502544,0.102,0.067,-0.015,-24.850,31.360,3.570
9502565,-0.131,0.006,-0.043,-44.030,17.010,-9.450
9502585,-0.490,0.202,-0.039,-46.200,40.810,-5.670
9502608,-1.496,0.251,0.094,-31.920,80.430,51.240
9502628,-2.748,-0.065,0.147,31.990,82.530,68.880
9502651,-3.895,-0.133,-0.029,113.540,17.850,23.800
9502673,-4.361,-0.045,-0.169,72.870,87.360,-8.050
9502692,-4.090,0.292,0.462,-6.020,40.670,-24.150
9502713,-3.539,0.285,0.394,-117.950,-53.760,-39.130
9502732,-2.775,0.097,-0.057,-61.810,-10.430,-41.020
9502752,-2.413,0.062,0.343,37.380,7.140,-33.740
9502772,-1.815,0.070,0.406,36.750,-37.730,-10.850
9502792,-0.982,-0.068,0.068,32.480,-65.520,-10.010
9502813,-0.306,-0.048,-0.114,17.920,-65.030,-24.780
9502832,0.497,-0.029,-0.263,-16.940,-1.190,-28.280
9502852,0.532,0.075,-0.161,-40.110,-39.690,-17.220
9502872,0.927,0.013,-0.347,-55.930,2.730,-1.470
9502892,0.346,0.118,0.295,-21.840,65.380,-9.170
9502909,-0.109,0.019,0.325,13.650,23.520,-12.320
9502930,-0.184,-0.022,0.090,31.990,12.180,-13.370
9502950,-0.157,-0.029,0.061,17.850,16.450,-10.360
9502974,-0.020,0.025,0.066,18.830,18.970,-9.450
9502994,0.108,0.008,0.093,45.640,24.430,-1.120
9503013,0.260,-0.037,0.088,56.070,35.840,0.840
9503032,0.358,-0.028,0.135,42.420,38.780,-1.750
9503051,0.437,-0.152,-0.240,51.310,39.130,-4.130
9503071,0.522,-0.265,-0.373,73.640,85.190,-8.890
9503096,0.219,-0.096,0.025,51.800,90.300,-32.900
9503116,-0.408,0.224,-0.002,28.910,72.660,-17.150
9503140,-1.337,0.409,0.067,0.070,-5.670,43.750
9503160,-2.403,0.458,-0.669,22.680,64.890,49.700
9503180,-5.483,-0.446,-1.129,42.980,39.760,57.890
9503198,-5.998,-0.174,-0.758,99.680,45.570,-13.300
9503221,-3.599,0.426,0.438,-93.310,39.550,24.290
9503240,-3.554,0.015,0.402,-126.490,-108.850,30.660
9503259,-3.327,0.002,0.138,-15.890,-113.680,3.290
9503277,-2.563,0.187,0.042,56.770,-185.150,-5.740
9503296,-1.628,0.310,-0.825,22.540,-217.140,2.730
9503321,-0.634,0.343,-0.539,-92.260,-105.350,19.530
9503342,0.458,0.295,-0.508,-140.420,-138.460,22.470
9503361,1.260,-0.069,0.163,-47.040,-88.830,18.900
9503381,0.977,-0.009,-0.270,6.370,-56.420,11.060
9503399,0.697,-0.198,-0.226,-25.900,-12.110,9.940
9503423,0.211,-0.317,0.223,-21.770,0.490,-6.510
9503444,-0.030,-0.218,0.228,15.680,-6.860,-17.570
9503463,-0.182,-0.064,-0.015,8.960,-9.520,-13.300
9503481,-0.125,-0.096,-0.015,4.970,-11.830,-7.910
9503504,0.008,-0.116,0.058,10.430,-9.380,-3.290
9503525,0.021,-0.006,-0.091,13.440,-1.050,-5.110
9503543,-0.048,0.142,0.022,7.420,11.270,-0.840
9503562,-0.056,0.039,0.113,15.400,22.960,8.610
9503582,-0.015,-0.007,0.055,25.480,39.760,12.320
9503607,-0.263,0.326,0.058,-8.960,55.790,6.790
9503630,-0.658,0.607,0.017,-37.870,88.340,10.710
9503651,-1.361,0.691,0.081,-34.370,103.460,28.840
9503670,-2.608,0.519,-0.055,-30.170,100.590,46.760
9503694,-3.207,0.058,-0.493,-52.150,48.300,2.940
9503713,-3.818,-0.428,-0.662,-53.130,108.220,-37.450
9503732,-4.639,0.218,0.658,-72.030,-9.730,-7.000
9503752,-3.570,-0.033,0.528,12.460,-59.990,1.330
9503772,-2.665,-0.073,-0.305,43.470,-55.860,-10.150
9503796,-1.944,0.104,-0.049,12.880,-37.870,-0.770
9503812,-1.151,-0.122,0.119,13.020,-50.120,8.960
9503836,-0.116,-0.282,0.279,17.640,-66.990,5.740
9503854,0.693,-0.403,-0.181,40.530,-102.550,-21.140
9503876,0.876,0.459,-0.732,52.780,22.610,-31.850
9503900,0.059,0.448,-0.281,8.750,69.580,-26.880
9503920,-0.208,0.258,0.280,12.320,54.740,-30.730
9503940,-0.219,0.198,0.219,8.680,31.220,-33.320
9503958,-0.194,0.053,0.239,-3.290,-2.030,-31.780
9503980,-0.043,-0.053,-0.005,10.290,-10.920,-27.930
9504003,0.089,-0.105,0.043,-2.870,-17.920,-19.250
9504025,0.232,0.039,0.089,-3.150,-18.060,-20.510
9504044,0.286,0.135,0.034,19.110,2.800,-9.450
9504064,0.224,0.103,-0.061,27.090,32.830,2.380
9504088,0.132,0.016,0.163,1.330,41.510,-0.140
9504106,0.019,-0.047,0.286,17.640,56.210,-6.860
9504127,-0.350,0.046,-0.100,72.590,108.780,-18.970
9504145,-1.310,0.122,0.056,87.430,150.990,-23.660
9504165,-2.610,-0.122,-0.061,46.200,125.370,-33.810
9504185,-5.554,-0.899,-1.233,53.480,59.290,-36.680
9504205,-5.934,0.346,0.017,-41.860,-12.040,4.690
9504224,-3.665,-0.013,0.472,-69.370,-20.230,44.100
9504250,-3.934,-0.315,0.355,57.890,-30.100,21.070
9504265,-3.251,0.104,-0.012,106.120,-117.880,33.600
9504287,-2.057,0.304,-0.319,48.580,-171.360,28.350
9504306,-0.630,0.467,-0.823,-45.080,-137.970,62.650
9504330,0.294,0.273,0.053,-124.600,-113.050,66.150
9504351,1.235,-0.752,-0.118,-102.060,-70.210,33.250
9504375,0.966,-0.183,-0.048,-0.210,-42.910,-34.580
9504395,0.691,0.141,-0.219,-19.180,3.920,-32.060
9504415,0.116,0.207,0.120,-21.420,3.990,-7.210
9504433,-0.146,0.101,0.258,0.630,-4.060,8.330
9504455,-0.263,-0.024,-0.006,7.000,-15.540,12.040
9504471,-0.195,-0.049,-0.045,-6.160,-19.110,10.500
9504491,-0.132,0.014,-0.024,-22.540,-26.250,13.230
9504515,-0.129,0.085,-0.148,-22.540,-26.810,13.090
9504535,0.007,0.150,-0.009,-5.320,-8.120,31.850
9504554,0.050,0.049,0.066,9.520,-7.700,30.800
9504575,-0.015,0.025,-0.071,-14.560,-6.580,8.890
9504598,-0.230,0.109,-0.254,-39.270,5.600,1.260
9504621,-0.573,0.166,-0.432,-52.150,68.670,7.140
9504644,-1.450,-0.047,0.179,-62.790,106.260,5.950
9504668,-3.190,0.030,0.436,7.840,49.350,50.540
9504692,-3.751,-0.145,-0.026,20.300,4.760,19.950
9504711,-4.193,-0.404,0.186,9.590,22.050,-21.000
9504732,-4.046,0.253,0.587,-8.190,-54.460,-1.190
9504752,-2.928,-0.163,0.193,61.250,-63.350,-15.050
9504772,-2.137,-0.222,-0.053,107.800,-47.040,-9.100
9504796,-1.301,0.028,-0.222,105.280,-38.080,-10.080
9504817,-0.617,0.386,-0.058,-4.830,-14.980,-4.760
9504835,-0.259,0.224,0.233,-31.780,-54.320,-2.660
9504851,0.362,0.183,-0.187,-36.610,-54.180,-26.180
9504875,0.792,0.126,-0.381,-12.180,28.560,-29.680
9504896,0.377,-0.154,0.090,5.600,67.760,-14.560
9504912,0.063,-0.265,0.359,25.130,72.030,-28.210
9504931,-0.189,-0.139,0.374,40.460,54.600,-36.260
9504955,-0.264,0.015,0.196,34.580,34.860,-36.120
9504976,-0.103,0.146,-0.029,5.390,24.570,-20.650
9504996,0.100,0.243,-0.023,-19.530,24.150,1.190
9505020,0.273,0.170,0.029,-18.200,35.630,9.660
9505040,0.219,-0.104,-0.006,20.020,49.490,8.610
9505059,0.234,-0.223,-0.154,46.760,67.130,8.330
9505079,0.228,-0.047,-0.216,30.940,69.160,-3.780
9505103,0.080,0.220,-0.189,-51.940,65.450,-22.610
9505120,-0.243,0.121,-0.191,-23.310,87.920,-15.050
9505140,-0.839,0.185,-0.330,87.990,204.120,13.790
9505158,-3.897,-0.309,0.098,138.040,86.870,-10.990
9505183,-5.197,0.171,-1.105,17.360,-101.150,45.640
9505202,-5.011,-0.253,-1.691,-26.390,24.220,24.220
9505224,-4.768,0.025,-0.265,46.760,16.800,-14.770
9505243,-2.997,0.487,-0.186,49.070,-66.080,31.640
9505262,-2.305,0.244,-0.103,-0.210,-26.110,22.820
9505283,-1.993,0.008,-0.122,4.480,-102.410,23.660
9505307,-1.163,0.045,-0.128,5.250,-197.680,40.320
9505328,0.121,-0.041,-0.297,-43.820,-129.640,6.230
9505347,1.202,-0.301,-0.444,-20.510,-49.280,-13.930
9505366,1.069,-0.081,-0.189,-16.660,-50.470,-4.200
9505391,0.917,-0.162,-0.252,-3.500,-18.480,-18.830
9505407,0.441,-0.040,0.041,1.750,7.140,-29.190
9505431,-0.058,0.073,0.232,15.470,3.500,-26.530
9505451,-0.252,0.124,0.083,17.990,-7.280,-12.530
9505474,-0.320,0.162,0.017,-4.550,-23.170,2.940
9505491,-0.173,0.093,-0.019,-21.070,-22.890,12.530
9505516,-0.057,-0.009,-0.012,-5.250,-24.080,20.230
9505534,0.034,-0.034,-0.165,-5.740,-16.870,16.940
9505551,0.147,-0.033,-0.074,-28.840,-8.540,10.570
9505571,0.237,0.011,0.158,-42.210,-7.770,-0.420
9505595,0.076,0.212,0.243,-36.890,-18.130,-5.040
9505614,-0.380,0.224,-0.403,-35.910,-7.910,-10.710
9505637,-0.678,0.312,-0.063,-68.250,48.720,5.810
9505658,-1.632,-0.114,0.414,-11.900,59.780,21.980
9505678,-2.879,-0.325,0.500,18.550,39.060,10.710
9505702,-3.168,-0.018,-0.129,-22.400,-30.660,-23.520
9505722,-3.249,0.467,-0.482,-63.140,34.790,-28.980
9505742,-3.971,0.581,0.409,-89.040,9.870,27.160
9505762,-3.305,-0.536,0.623,-29.400,-4.270,25.690
9505786,-3.032,-0.649,-0.073,48.160,-24.920,-11.060
9505805,-2.554,0.073,-0.224,33.320,-24.850,-9.520
9505825,-2.221,0.198,0.175,25.200,-20.580,8.610
9505849,-1.661,-0.066,0.085,69.510,-47.250,24.920
9505870,-0.936,-0.159,-0.000,86.800,-64.260,21.630
9505887,-0.020,-0.087,-0.236,37.660,-76.370,3.920
9505907,0.529,-0.098,-0.309,-20.440,-75.390,-14.700
9505930,0.927,0.253,-0.392,-4.550,-11.970,-4.900
9505946,0.455,0.071,-0.235,-5.390,21.280,-13.650
9505970,-0.097,-0.099,0.120,2.660,46.550,-19.460
9505990,-0.336,-0.091,0.459,27.790,14.980,-16.450
9506010,-0.287,0.049,0.298,29.540,-0.420,-12.600
9506028,-0.088,0.183,-0.022,15.190,-25.060,-7.770
9506048,0.188,0.104,-0.322,-8.260,-6.510,5.320
9506071,0.376,-0.143,0.099,-8.750,25.970,3.360
9506092,0.151,-0.229,0.366,15.260,10.150,-19.460
9506111,0.060,0.101,-0.030,0.770,-5.110,-23.660
9506135,0.104,0.305,-0.294,-5.180,4.900,-12.180
9506155,0.050,0.217,-0.410,16.660,25.410,-5.320
9506176,-0.057,0.171,-0.168,9.100,91.070,-3.710
9506195,-0.392,-0.090,-0.108,40.600,102.620,3.150
9506220,-1.417,-0.099,-0.090,46.200,183.680,-1.120
9506238,-3.766,-0.856,0.643,18.130,-25.480,-46.550
9506258,-4.329,-0.316,-0.547,-37.660,-15.120,-51.450
9506275,-3.011,0.140,-0.141,-57.190,45.220,-29.820
9506298,-3.948,0.265,0.227,-34.160,5.320,-17.990
9506319,-3.615,0.388,0.158,7.490,-18.760,22.680
9506338,-3.035,0.078,0.116,28.770,-27.160,29.890
9506363,-2.387,0.072,-0.122,22.400,-68.250,36.190
9506383,-1.498,0.045,-0.078,-17.150,-46.760,45.360
9506399,-0.566,-0.113,0.166,-12.810,-113.330,38.920
9506421,0.369,-0.209,-0.126,-20.650,-157.290,24.780
9506443,0.865,-0.236,-0.870,-39.270,-64.400,-17.850
9506462,0.995,0.213,-0.516,-71.120,-15.680,-9.100
9506480,0.767,0.177,0.080,-63.210,14.630,0.070
9506503,0.166,-0.015,0.231,-1.190,33.180,-11.970
9506527,-0.105,-0.023,0.020,-16.240,22.330,-23.870
9506551,-0.276,0.011,0.144,-21.560,15.190,-14.210
9506571,-0.173,-0.052,0.104,-21.840,1.820,-12.110
9506590,-0.052,-0.045,0.129,-15.260,-7.070,-10.430
9506609,-0.055,0.073,0.046,-17.430,-10.640,-2.520
9506634,-0.036,0.092,0.063,-22.050,-19.880,15.260
9506651,-0.075,-0.069,0.118,10.430,-9.870,20.790
9506674,-0.071,-0.272,0.109,40.180,-11.620,10.990
9506695,-0.034,-0.112,-0.269,14.070,-15.330,-19.110
9506719,-0.520,0.367,-0.509,-61.180,32.480,-27.580
9506740,-1.458,0.462,0.024,-6.090,169.890,30.380
9506757,-3.575,0.334,0.931,23.660,64.400,68.600
9506779,-3.724,-0.472,-0.105,-0.980,-5.460,-6.650
9506800,-3.464,-0.084,-0.828,-48.860,13.370,-45.570
9506816,-4.231,0.572,0.401,-118.020,34.580,-24.710
9506839,-3.661,-0.194,0.902,-42.000,-21.000,4.060
9506858,-2.533,-0.546,0.120,62.020,-37.590,-2.380
9506877,-1.824,-0.455,-0.309,80.430,-3.710,0.070
9506902,-1.271,-0.305,-0.085,35.490,-12.180,0.840
9506922,-0.526,-0.111,0.198,10.640,-5.250,9.030
9506942,0.212,0.139,0.171,24.220,-66.850,24.850
9506961,0.517,0.165,-0.275,36.120,-1.890,5.460
9506978,0.493,0.479,-0.356,22.050,20.370,9.940
9506997,0.057,0.263,-0.171,-7.070,39.760,4.970
9507022,-0.219,-0.028,0.252,-0.700,24.360,-7.700
9507042,-0.245,-0.064,0.176,23.520,8.680,-16.590
9507061,-0.225,0.015,0.085,16.240,-7.000,-16.310
9507081,-0.071,0.063,-0.062,-5.950,-23.030,-9.660
9507106,0.193,0.073,0.097,-14.420,-12.740,0.700
9507125,0.273,-0.002,0.154,17.290,9.030,-1.680
9507142,0.078,-0.039,0.271,17.150,17.850,-0.070
9507166,0.053,-0.105,0.205,19.390,9.940,-7.700
9507186,0.154,-0.067,0.112,46.200,3.920,-7.350
9507209,0.153,-0.135,-0.301,84.910,27.300,-2.730
9507227,0.022,-0.083,-0.303,84.280,80.710,3.500
9507246,-0.510,0.093,-0.167,46.900,98.280,-16.240
9507270,-1.290,0.019,-0.349,20.790,112.490,-18.620
9507288,-3.507,-0.154,0.028,4.550,71.330,-19.040
9507311,-5.504,-0.952,-1.010,63.910,36.400,-38.570
9507331,-5.838,0.476,0.065,-82.950,-10.010,6.300
9507351,-3.760,0.564,0.160,-94.990,-4.550,18.550
9507374,-3.479,0.277,0.304,3.150,-64.960,42.910
9507395,-2.970,-0.037,-0.264,73.290,-112.280,46.270
9507415,-1.576,-0.126,-0.468,16.800,-104.020,54.810
9507434,-0.774,-0.170,-0.009,-58.590,-83.580,57.050
9507454,0.395,-0.107,0.035,-84.980,-161.210,40.040
9507474,0.852,-0.280,-0.314,-48.370,-85.120,-19.670
9507498,0.883,0.123,-0.512,-15.680,-79.520,-18.480
9507515,0.804,0.306,-0.352,-19.670,-17.290,6.370
9507539,0.226,0.084,0.152,7.560,14.140,23.800
9507557,0.016,-0.213,0.218,27.720,9.100,6.230
9507580,-0.115,-0.258,0.060,28.980,-5.880,-9.730
9507599,-0.103,-0.063,0.031,5.810,-17.010,-21.770
9507623,-0.131,0.170,0.082,-19.320,-24.640,-10.570
9507646,-0.225,0.157,0.003,-4.270,-22.540,11.550
9507664,-0.103,0.054,-0.078,-2.660,-14.140,15.400
9507687,0.117,-0.113,0.097,-15.330,-12.950,9.940
9507708,0.153,-0.142,0.139,-19.810,-12.740,-9.660
9507728,0.004,-0.069,0.144,-17.010,-0.910,-17.290
9507746,-0.041,0.102,0.040,-13.160,4.200,-21.630
9507769,-0.506,0.117,-0.277,-14.280,48.930,-27.790
9507783,-1.143,0.741,-0.117,-44.870,57.260,4.200
9507803,-1.637,0.324,-0.172,-50.190,52.710,38.850
9507828,-2.786,-0.072,0.528,-0.980,76.510,60.130
9507847,-2.788,-1.285,0.304,99.750,32.620,-1.330
9507870,-3.171,0.665,-0.037,34.650,19.740,-3.640
9507889,-4.072,0.931,0.445,-47.810,14.000,8.120
9507913,-3.992,0.360,0.371,-27.650,-27.440,3.780
9507933,-2.927,-0.061,0.184,35.630,-13.860,-0.490
9507951,-2.236,-0.124,0.123,32.340,-16.240,4.270
9507976,-1.212,-0.047,0.130,9.240,-37.100,3.220
9507995,-0.409,-0.002,0.120,11.410,-49.980,4.340
9508012,0.000,0.010,0.086,16.660,-75.950,4.690
9508036,0.597,0.065,-0.292,10.150,-27.580,-7.420
9508056,0.691,0.349,-0.296,-50.330,19.110,-1.120
9508075,0.193,0.199,0.006,-51.800,50.400,-0.980
9508099,-0.078,0.096,0.218,-13.370,56.770,-0.420
9508117,-0.174,-0.016,0.202,7.770,39.620,-2.940
9508141,-0.155,-0.060,0.147,2.310,20.580,-2.660
9508160,-0.060,0.035,0.037,-18.550,12.670,-3.500
9508180,0.100,0.055,-0.008,-37.660,8.820,-4.620
9508204,0.201,-0.024,0.010,-30.940,15.890,-4.340
9508223,0.129,-0.145,0.000,-23.170,11.410,-10.710
9508243,0.163,-0.191,-0.055,-15.540,23.170,-13.580
9508267,0.102,-0.333,-0.381,38.010,37.310,-23.450
9508291,-0.212,0.057,-0.326,33.250,85.190,-35.420
9508310,-0.767,0.094,-0.032,10.220,93.450,-34.440
9508334,-1.110,-0.020,0.070,49.630,118.160,-18.690
9508355,-2.728,-0.183,0.019,68.670,-7.280,-26.950
9508373,-3.481,-0.192,-1.105,27.720,-44.660,-19.460
9508396,-2.357,-0.157,0.195,-58.730,21.630,-15.330
9508416,-2.266,-0.126,0.604,54.040,-18.410,-35.000
9508439,-2.463,0.391,-0.283,97.370,-17.500,-4.760
9508459,-2.281,0.323,-0.205,-10.500,14.700,10.220
9508478,-2.136,0.062,0.299,-38.220,-8.120,12.880
9508497,-1.850,-0.090,0.145,15.540,-34.790,8.960
9508523,-1.469,-0.118,-0.288,55.790,-17.500,4.900
9508537,-1.272,-0.091,-0.285,53.550,-13.300,6.020
9508562,-1.003,-0.001,-0.130,12.740,-3.430,3.570
9508582,-0.812,0.027,0.193,-11.550,-8.400,2.100
9508601,-0.572,0.041,0.233,-9.940,-37.940,3.290
9508625,-0.365,-0.021,0.078,0.560,-58.450,-0.560
9508645,-0.220,-0.024,-0.080,-4.130,-55.860,-1.610
9508666,-0.169,0.002,-0.072,-6.230,-38.850,-2.310
9508684,-0.219,0.023,0.015,2.030,-35.210,-1.610
9508707,-0.247,-0.022,0.033,8.050,-24.430,0.630
9508728,-0.378,-0.041,-0.019,8.960,-26.670,-0.630
9508748,-0.620,-0.021,-0.025,-2.730,-15.260,-2.380
9508763,-0.957,-0.068,0.050,0.210,-11.060,-6.370
9508783,-1.545,-0.056,0.110,26.740,18.830,-17.430
9508807,-2.341,-0.281,0.081,59.920,0.210,-12.040
9508826,-1.747,-0.029,-0.273,52.710,9.940,5.810
9508848,-0.848,0.132,-0.056,-10.430,35.350,-0.070
9508871,-0.605,0.192,0.268,-36.260,3.640,1.680
9508888,-0.468,0.180,0.252,-20.230,-10.360,3.500
9508912,-0.543,0.146,0.025,6.510,-3.570,4.060
9508932,-0.796,0.047,0.084,-3.780,13.510,1.330
9508952,-1.047,-0.031,0.176,-7.770,5.670,-5.180
9508967,-1.195,0.040,0.132,-0.840,3.500,-7.980
9508990,-1.265,0.081,0.070,4.200,4.830,0.280
9509011,-1.235,0.041,-0.008,0.700,7.210,7.770
9509032,-1.020,-0.081,-0.042,-3.150,16.240,5.600
9509051,-0.896,-0.123,-0.019,-2.940,19.740,-0.350
9509075,-0.880,-0.075,0.057,-5.600,25.480,-3.430
9509096,-0.986,-0.005,0.085,-2.660,16.940,-1.610
9509112,-1.011,0.028,0.051,5.950,9.940,-1.820
9509135,-1.018,0.028,-0.016,15.330,11.690,-0.490
9509155,-1.055,0.047,-0.000,16.100,14.350,2.940
9509173,-1.042,-0.006,-0.043,11.970,9.660,0.630
9509197,-1.018,0.021,-0.072,6.580,13.720,-1.610
9509217,-1.047,0.068,-0.065,-0.980,14.070,-1.190
9509235,-1.070,0.059,0.002,-2.100,8.750,1.540
9509255,-1.048,-0.005,0.044,2.800,4.550,2.450
9509277,-1.019,0.013,-0.030,4.550,-2.170,1.120
9509297,-0.994,0.021,-0.095,1.540,-3.780,0.210
9509317,-0.979,0.027,-0.084,-3.850,0.770,-0.490
9509338,-1.018,0.003,-0.024,0.210,1.610,-0.980
9509357,-1.050,-0.007,-0.018,3.850,-2.520,-0.770
9509381,-1.077,-0.000,-0.036,3.500,-7.560,-0.210
9509401,-1.080,0.001,-0.012,-1.540,-13.300,-0.420
9509421,-1.062,-0.030,0.018,2.660,-19.880,-2.310
9509442,-1.055,-0.033,0.013,13.160,-22.610,-2.240
9509460,-1.043,0.022,0.003,11.690,-18.970,0.770
9509480,-1.038,0.038,-0.016,2.030,-14.560,1.050
9509496,-1.109,0.049,0.003,-1.190,-21.000,2.240
9509520,-1.119,0.025,0.011,6.370,-28.490,8.680
9509541,-1.037,0.006,0.063,14.980,-31.360,10.710
9509560,-0.979,-0.002,0.043,15.120,-31.920,6.020
9509581,-1.010,0.087,0.044,5.250,-26.250,5.180
9509605,-1.009,0.076,0.036,5.180,-30.940,5.740
9509625,-0.995,0.097,0.037,-4.690,-28.350,6.300
9509645,-1.014,0.104,0.053,-16.170,-27.300,3.080
9509661,-1.042,0.119,0.107,-27.300,-22.260,1.680
9509684,-1.077,0.095,0.212,-31.290,-32.270,1.680
9509702,-1.054,0.049,0.223,-17.010,-38.920,1.890
9509722,-1.009,0.026,0.202,-7.560,-33.600,4.550
9509743,-0.996,-0.016,0.216,-10.710,-27.860,4.130
9509763,-0.980,-0.011,0.214,-11.900,-26.250,3.780
9509782,-0.946,0.037,0.224,-8.470,-29.890,4.480
9509806,-0.860,0.065,0.084,6.230,-33.110,3.500
9509827,-0.904,0.089,0.077,23.240,-13.930,13.300
9509847,-0.970,0.064,0.236,24.990,-6.230,19.530
9509864,-1.007,0.015,0.281,28.560,-12.460,12.810
9509888,-1.033,0.079,0.219,26.810,-12.180,3.920
9509908,-1.032,0.248,0.192,13.510,-10.570,-0.980
9509928,-1.013,0.117,0.176,7.070,-3.850,-3.640
9509948,-0.950,0.102,0.201,8.260,1.190,-2.660
9509971,-0.941,0.059,0.174,7.070,1.400,-1.890
9509992,-0.893,0.072,0.086,0.350,7.210,-4.620
9510012,-0.932,0.106,0.122,-9.520,4.410,-8.050
9510030,-0.981,0.145,0.093,-15.400,9.590,-4.970
9510053,-1.002,0.118,0.135,-24.780,13.510,-4.690
9510070,-0.968,0.108,0.112,-28.910,6.790,-6.370
9510090,-0.963,0.049,0.029,-31.080,2.450,-6.790
9510112,-0.979,-0.061,0.067,-26.810,7.280,-6.790
9510136,-1.017,-0.118,0.172,-17.010,6.160,-6.370
9510157,-1.035,-0.127,0.179,-5.880,0.770,-6.160
9510176,-1.015,-0.084,0.165,3.150,0.490,-6.580
9510196,-1.019,0.010,0.156,7.910,2.800,-5.390
9510215,-1.030,0.108,0.184,7.700,2.170,-4.480
9510238,-1.029,0.151,0.158,-1.330,-2.170,-1.190
9510258,-1.017,0.112,0.124,-6.370,-0.840,1.190
9510278,-0.994,0.028,0.150,-8.820,0.000,1.820
9510297,-0.979,-0.047,0.189,-6.650,-0.700,0.140
9510322,-0.968,-0.039,0.199,-0.980,1.190,-3.010
9510342,-0.964,0.035,0.180,2.520,-0.630,-5.460
9510358,-0.930,0.051,0.095,1.960,3.430,-3.640
9510381,-0.912,0.038,0.093,0.420,17.990,-0.420
9510402,-0.931,0.024,0.144,-0.840,12.110,-0.490
9510421,-0.942,0.041,0.138,-4.480,16.940,-2.940
9510446,-0.997,0.014,0.205,-8.470,19.110,-4.480
9510465,-0.984,0.024,0.224,-7.980,19.180,-7.560
9510481,-1.023,0.039,0.296,-12.180,16.240,-10.920
9510500,-1.055,0.103,0.274,-13.090,10.710,-9.660
9510525,-1.038,0.068,0.280,-8.610,13.860,-8.890
9510545,-1.035,-0.093,0.304,7.000,9.240,-13.090
9510563,-1.078,-0.053,0.227,13.020,-7.280,-12.460
9510581,-1.032,0.034,-0.049,5.250,-1.260,-8.540
9510605,-1.179,0.008,0.003,-2.100,10.360,-4.830
9510625,-1.143,-0.083,0.082,9.520,-5.250,-3.360
9510643,-1.057,-0.056,0.049,18.410,-15.330,-6.440
9510663,-1.082,0.070,-0.032,7.770,-9.660,-5.390
9510687,-1.100,0.086,0.014,-1.820,-4.270,-0.630
9510707,-1.035,-0.013,0.062,10.570,-10.850,-1.540
9510727,-1.023,-0.026,0.118,23.800,-16.030,-1.540
9510748,-1.008,0.020,0.163,27.160,-19.390,1.680
9510767,-0.958,0.071,0.049,32.620,-10.220,3.710
9510784,-1.037,0.092,0.095,31.920,-7.770,5.740
9510807,-1.073,0.040,0.166,22.400,-21.490,5.950
9510828,-1.084,-0.003,0.197,9.660,-19.600,3.430
9510848,-1.096,-0.001,0.194,8.330,-26.180,2.170
9510868,-1.073,0.116,0.224,-6.580,-20.720,2.520
9510886,-1.091,0.194,0.294,-18.690,-30.030,8.400
9510905,-1.075,0.227,0.299,-22.400,-32.340,16.240
9510925,-1.033,0.123,0.243,-12.320,-33.530,24.290
9510947,-0.973,-0.000,0.206,0.140,-23.310,28.280
9510965,-0.907,-0.089,0.218,6.510,-23.730,23.730
9510990,-0.865,-0.075,0.195,5.600,-18.060,12.670
9511009,-0.864,-0.028,0.223,6.510,-15.050,8.260
9511029,-0.915,0.012,0.193,8.750,-11.340,6.020
9511052,-0.962,0.029,0.242,1.820,-6.720,0.980
9511073,-0.983,0.079,0.297,-8.680,-13.370,-1.610
9511089,-0.996,0.093,0.277,-8.400,-18.830,-3.220
9511110,-0.987,0.110,0.207,-1.890,-15.330,-4.060
9511129,-1.014,0.125,0.230,-5.250,0.000,-0.910
9511154,-1.088,0.087,0.258,-9.660,0.700,3.640
9511174,-1.061,0.020,0.278,-10.290,1.540,2.450
9511193,-0.967,0.025,0.291,-1.190,-4.970,1.050
9511210,-0.928,0.079,0.246,5.880,-7.700,1.960
9511234,-0.915,0.079,0.169,16.100,-8.680,3.430
9511253,-0.912,0.069,0.136,14.910,-0.210,1.820
9511274,-0.922,0.029,0.167,-5.180,-6.650,-5.180
9511293,-0.913,0.027,0.161,-18.900,-6.580,-13.580
9511317,-0.924,0.051,0.165,-16.520,-5.810,-16.730
9511337,-1.005,0.089,0.224,-15.470,2.870,-13.090
9511357,-0.993,0.043,0.280,-10.290,1.610,-11.900
9511376,-0.984,0.041,0.296,-5.740,1.400,-10.920
9511400,-0.995,0.033,0.289,-1.400,2.030,-8.050
9511420,-1.019,-0.000,0.319,-2.310,0.770,-5.740
9511438,-0.998,-0.001,0.304,0.910,-0.840,-7.140
9511458,-0.974,0.052,0.272,2.940,-1.470,-6.930
9511477,-0.948,0.105,0.228,2.870,0.280,-5.880
9511501,-0.978,0.130,0.256,-1.260,4.130,-1.750
9511521,-1.017,0.069,0.274,-2.730,-1.610,-0.070
9511541,-0.969,0.014,0.184,1.330,-1.050,-3.920
9511561,-0.887,-0.064,0.190,0.350,14.910,-7.280
9511576,-0.970,-0.065,0.259,-2.100,14.280,-9.520
9511600,-1.058,0.034,0.287,-9.870,10.080,-11.690
9511621,-0.998,0.119,0.205,-4.410,1.260,-9.800
9511645,-0.949,0.052,0.241,9.380,26.320,1.610
9511664,-1.046,-0.048,0.328,10.850,20.020,6.860
9511684,-1.026,0.005,0.254,1.120,5.740,0.560
9511704,-0.917,0.107,0.117,-8.050,12.110,-8.820
9511723,-0.958,0.020,0.276,-5.530,15.120,-4.760
9511748,-0.969,-0.045,0.290,-0.210,19.390,-2.030
9511768,-1.028,0.061,0.258,0.070,6.930,-4.970
9511787,-1.003,0.179,0.137,-0.840,15.890,-6.090
9511807,-1.084,0.111,0.250,-0.630,12.810,4.200
9511831,-0.985,0.018,0.231,0.980,7.210,2.660
9511851,-0.973,-0.023,0.177,-2.800,4.410,0.070
9511870,-0.970,-0.046,0.158,-3.710,7.560,-3.780
9511891,-1.013,-0.045,0.207,-0.630,11.340,-5.810
9511910,-1.032,-0.014,0.214,3.290,10.010,-6.440
9511930,-1.039,0.046,0.170,7.000,3.080,-3.570
9511954,-1.031,0.085,0.099,-0.700,0.490,-0.140
9511975,-1.023,0.035,0.113,-6.230,4.060,-0.420
9511994,-1.026,-0.027,0.152,-4.970,10.150,-3.220
9512019,-1.029,-0.041,0.140,0.770,6.510,-5.390
9512038,-1.007,-0.021,0.107,2.800,6.090,-4.760
9512058,-1.010,-0.017,0.118,4.970,5.950,-5.880
9512079,-1.019,0.000,0.099,7.980,5.740,-5.460
9512097,-1.025,0.020,0.117,6.930,7.210,-4.900
9512120,-1.036,0.002,0.169,7.910,-0.350,-4.270
9512141,-1.025,-0.011,0.146,14.490,-1.470,-4.690
9512161,-1.039,-0.039,0.140,20.300,-5.670,-2.590
9512181,-1.018,-0.035,0.085,16.240,-6.580,-5.740
9512200,-1.073,-0.023,0.150,9.800,-1.960,-5.250
9512220,-1.101,0.008,0.224,14.700,-7.560,-1.610
9512240,-1.035,0.016,0.210,18.690,-17.150,-0.630
9512264,-0.996,-0.003,0.127,18.830,-23.660,0.070
9512284,-0.985,0.001,0.115,16.030,-19.740,-0.140
9512302,-1.022,-0.005,0.169,13.160,-20.860,0.000
9512323,-1.028,0.038,0.190,12.810,-21.560,1.120
9512344,-1.025,0.079,0.230,5.600,-16.520,4.550
9512363,-0.995,0.054,0.220,4.060,-16.520,5.460
9512383,-0.978,0.029,0.235,1.610,-12.250,6.300
9512403,-0.977,0.021,0.251,-3.220,-5.320,5.670
9512427,-1.016,0.043,0.302,-10.570,-5.390,7.070
9512448,-1.029,0.061,0.278,-12.250,-9.520,8.120
9512467,-1.001,0.056,0.264,-8.120,-9.730,10.430
9512486,-0.964,0.022,0.251,-2.450,-7.630,10.990
9512507,-0.973,0.030,0.255,-4.060,-8.190,9.520
9512527,-0.993,0.052,0.227,-11.410,-10.080,6.930
9512547,-0.972,0.053,0.193,-16.170,-9.450,5.600
9512571,-0.979,0.030,0.274,-17.920,-4.970,8.400
9512591,-0.983,0.004,0.236,-7.700,-7.910,7.490
9512611,-0.983,0.004,0.246,-4.200,2.170,6.440
9512631,-0.970,-0.023,0.258,-0.420,5.460,3.710
9512654,-0.981,-0.011,0.259,2.660,8.820,1.470
9512675,-0.976,0.036,0.256,1.540,6.510,0.000
9512700,-0.967,0.037,0.237,1.820,8.540,-1.610
9512719,-1.022,0.051,0.255,4.480,4.970,-0.350
9512739,-1.003,0.084,0.229,10.780,1.190,-3.920
9512758,-1.010,0.144,0.195,15.750,-3.360,-0.770
9512778,-0.987,0.143,0.156,15.120,-0.770,3.430
9512799,-0.961,0.088,0.159,7.630,-4.410,4.200
9512823,-0.964,-0.010,0.129,-3.920,-4.410,0.280
9512841,-0.980,-0.016,0.153,-7.700,-3.010,-1.470
9512865,-0.966,0.014,0.176,-8.260,0.210,-3.150
9512885,-1.017,0.057,0.241,-7.560,-4.270,-1.960
9512905,-1.021,0.072,0.210,-5.390,-9.030,-1.330
9512925,-0.992,0.073,0.176,-3.780,-6.650,0.280
9512945,-0.990,0.046,0.195,-5.390,-7.070,-0.350
9512965,-0.924,0.031,0.136,-4.690,-8.960,-3.780
9512989,-0.964,0.061,0.169,-8.050,-5.040,-4.760
9513008,-0.978,0.031,0.143,-7.910,-3.710,-5.530
9513028,-1.016,0.052,0.227,-10.920,6.370,-4.130
9513049,-1.016,0.020,0.282,-11.200,1.540,-3.710
9513073,-0.976,-0.018,0.268,2.730,-1.820,-5.880
9513092,-0.964,-0.017,0.243,12.390,-6.090,-6.510
9513116,-0.965,0.021,0.202,14.700,-4.270,-7.420
9513134,-0.980,0.085,0.172,10.990,-2.590,-7.140
9513154,-0.976,0.102,0.154,5.670,1.680,-6.020
9513174,-0.976,0.045,0.200,2.170,9.030,-6.720
9513198,-0.992,-0.001,0.225,-0.350,6.160,-7.350
9513218,-1.012,0.036,0.188,0.140,7.980,-7.280
9513236,-0.959,0.050,0.224,2.310,16.030,-9.870
9513261,-0.942,-0.035,0.327,14.140,19.320,-13.090
9513280,-1.016,-0.062,0.332,18.900,7.910,-8.750
9513300,-0.995,0.059,0.141,14.210,0.840,-13.090
9513320,-0.990,0.253,0.024,-16.030,13.860,-13.650
9513340,-1.022,0.107,0.290,-26.180,29.820,-4.200
9513358,-0.996,-0.108,0.434,-6.230,20.090,-4.550
9513378,-0.983,0.001,0.217,16.730,6.930,-8.750
9513401,-0.920,0.107,0.065,7.420,25.270,-9.240
9513419,-1.026,-0.092,0.272,6.300,29.610,-5.740
9513442,-1.039,-0.157,0.271,15.260,16.100,-14.210
9513461,-1.030,-0.045,0.117,7.910,12.110,-17.710
9513481,-1.044,0.120,0.086,-6.020,11.060,-17.010
9513501,-1.051,0.174,0.136,-6.440,9.170,-7.770
9513524,-1.022,0.066,0.197,4.830,9.170,-1.400
9513548,-1.023,-0.023,0.061,3.500,-1.120,-1.610
9513566,-1.017,-0.098,0.038,-4.480,0.070,-7.000
9513588,-1.058,-0.110,0.098,-17.290,0.420,-7.630
9513606,-1.075,-0.080,0.111,-8.890,-2.240,-10.220
9513626,-1.045,-0.029,0.106,0.350,-6.020,-7.070
9513650,-1.028,-0.010,0.094,6.720,-3.150,0.630
9513670,-0.991,0.009,0.073,7.560,5.740,2.170
9513687,-1.009,-0.015,0.073,1.190,4.550,1.820
9513707,-0.990,-0.043,0.071,-2.660,2.170,0.350
9513731,-0.995,-0.035,0.072,-3.010,3.360,0.630
9513751,-1.020,-0.032,0.084,-2.450,1.190,1.960
9513771,-1.037,-0.051,0.084,2.660,-3.850,3.010
9513791,-1.067,-0.046,0.082,6.090,-5.810,4.200
9513808,-1.047,-0.051,0.071,7.770,-10.290,3.920
9513827,-1.057,-0.048,0.119,9.730,-11.760,2.870
9513850,-1.078,-0.040,0.136,12.670,-17.150,4.900
9513868,-1.086,0.021,0.152,7.420,-15.960,6.510
9513887,-1.084,0.033,0.185,2.800,-18.060,8.540
9513907,-1.032,-0.002,0.172,6.510,-26.320,8.050
9513932,-0.986,-0.014,0.124,5.810,-24.570,7.490
9513952,-0.960,0.021,0.124,-5.040,-18.760,5.110
9513972,-0.971,0.079,0.195,-14.560,-16.940,4.410
9513991,-1.000,0.051,0.230,-16.310,-15.540,5.950
9514015,-1.009,0.003,0.257,-10.710,-14.630,9.170
9514034,-0.998,-0.014,0.254,-7.980,-4.060,10.500
9514050,-0.994,-0.022,0.286,-6.090,-1.820,11.760
9514075,-0.970,-0.028,0.283,-0.140,1.960,11.200
9514096,-0.972,-0.015,0.272,1.260,0.490,10.570
9514115,-0.985,0.032,0.230,-1.750,1.190,8.540
9514134,-0.994,0.050,0.207,-4.550,1.960,7.280
9514153,-1.002,0.043,0.200,-5.460,1.540,6.300
9514177,-1.004,0.057,0.183,-2.730,3.360,4.620
9514197,-1.014,0.062,0.185,-0.770,7.210,7.070
9514218,-1.020,0.031,0.217,5.180,3.780,7.980
9514237,-0.984,-0.002,0.226,8.120,3.850,4.550
9514257,-0.967,0.012,0.140,11.550,-0.490,2.030
9514277,-0.982,0.040,0.151,5.740,6.160,2.380
9514299,-0.965,0.031,0.160,5.040,5.600,2.170
9514318,-0.967,0.034,0.152,10.640,3.080,0.630
9514343,-0.951,0.049,0.121,9.310,1.960,-0.840
9514361,-0.969,0.045,0.129,3.080,3.570,-2.100
9514381,-0.991,0.061,0.128,-2.310,2.100,-3.010
9514405,-1.001,0.080,0.118,-1.680,6.930,-1.960
9514420,-1.011,0.082,0.147,-0.770,5.670,-1.400
9514445,-1.008,0.061,0.155,-2.310,6.580,-0.840
9514465,-0.980,0.021,0.118,-4.830,9.170,-2.240
9514483,-0.992,0.043,0.158,-7.000,8.470,-3.430
9514507,-0.996,0.058,0.141,-4.130,8.960,-2.870
9514527,-1.000,0.050,0.125,-0.700,8.540,-2.660
9514543,-1.017,0.040,0.126,-4.480,6.650,-2.450
9514564,-0.994,0.018,0.110,-9.380,5.880,-3.570
9514584,-0.982,0.025,0.110,-8.750,6.510,-4.690
9514607,-1.015,0.043,0.130,-6.790,9.100,-4.270
9514627,-1.038,0.030,0.155,-1.540,1.820,-2.310
9514647,-1.017,0.026,0.151,1.820,5.250,-2.170
9514668,-0.989,0.010,0.117,7.560,-2.450,-0.560
9514692,-0.968,0.017,0.077,4.130,4.200,-2.030
9514712,-0.967,0.014,0.080,-3.570,4.340,-5.460
9514731,-0.984,0.037,0.106,-8.470,5.320,-9.030
9514752,-1.038,0.082,0.162,-14.140,1.750,-9.240
9514776,-1.014,0.065,0.180,-10.010,-0.420,-6.790
9514796,-0.977,0.036,0.162,2.800,0.840,-3.360
9514817,-0.960,-0.036,0.159,15.190,6.090,-2.240
9514836,-1.003,-0.075,0.193,13.790,7.560,-2.520
9514856,-1.014,-0.009,0.145,12.180,1.400,-4.760
9514875,-0.986,0.017,0.119,12.040,3.990,-6.160
9514898,-1.037,-0.050,0.155,17.990,16.030,-3.150
9514918,-1.132,-0.029,0.297,21.420,12.040,-1.330
9514939,-1.002,0.079,0.139,25.900,4.410,-5.040
9514963,-0.968,0.089,0.104,26.250,9.100,-5.390
9514983,-0.991,0.012,0.155,26.670,12.670,-4.760
9515003,-1.005,0.039,0.215,23.380,4.060,-10.640
9515024,-0.968,0.063,0.087,20.090,1.890,-18.480
9515042,-1.061,0.057,0.041,15.190,4.200,-15.820
9515067,-1.076,0.044,0.068,8.540,0.140,-11.480
9515084,-1.099,0.067,0.071,0.490,-9.800,-9.240
9515106,-1.057,0.062,-0.062,-17.710,-11.480,-5.250
9515126,-1.032,-0.003,-0.005,-26.250,-5.320,-3.500
9515150,-1.007,-0.094,0.117,-22.820,-7.420,-6.440
9515169,-1.003,-0.122,0.086,-5.740,-8.890,-8.190
9515188,-1.036,-0.024,0.060,4.690,-5.530,-4.060
9515213,-1.042,0.040,0.033,2.730,-3.360,1.470
9515232,-0.956,0.007,0.022,-1.400,5.180,2.380
9515255,-0.954,-0.057,0.083,0.770,7.770,0.490
9515277,-1.014,-0.052,0.071,7.980,2.730,0.070
9515293,-1.024,-0.012,0.042,11.340,1.680,0.770
9515313,-1.036,0.010,0.030,14.420,2.870,2.240
9515338,-1.030,-0.010,0.033,14.210,-0.210,3.150
9515355,-1.016,-0.030,0.031,10.780,-2.590,3.150
9515377,-1.045,-0.038,0.033,6.510,-4.830,3.150
9515397,-1.063,-0.007,0.060,6.020,-7.000,2.940
9515417,-1.052,0.017,0.080,6.300,-9.520,3.990
9515436,-1.065,0.071,0.112,5.460,-12.320,5.390
9515455,-1.072,0.094,0.103,3.010,-16.030,9.380
9515479,-1.036,0.068,0.088,0.770,-14.490,11.760
9515497,-1.022,0.024,0.127,-2.870,-14.910,12.250
9515521,-0.995,0.034,0.153,-10.080,-15.400,8.540
9515539,-0.980,0.023,0.125,-15.540,-18.830,6.230
9515563,-0.992,-0.015,0.163,-21.350,-12.810,4.270
9515584,-1.026,-0.027,0.194,-19.600,-8.050,4.830
9515603,-1.004,0.020,0.245,-14.630,-8.260,5.250
9515622,-1.000,0.055,0.229,-12.250,-7.770,4.620
9515646,-1.028,0.084,0.227,-12.670,-5.670,8.050
9515664,-1.045,0.097,0.242,-12.040,-3.220,11.410
9515686,-1.035,0.081,0.237,-10.920,-3.500,14.280
9515705,-1.028,0.071,0.246,-11.550,-4.480,13.440
9515725,-1.038,0.065,0.222,-9.030,-12.460,10.150
9515749,-1.026,0.061,0.192,-6.370,-9.590,8.330
9515769,-0.978,0.011,0.163,-3.850,-11.130,6.230
9515793,-0.953,-0.005,0.139,1.470,-7.070,4.410
9515812,-0.919,0.032,0.127,7.910,-5.040,5.810
9515829,-0.914,0.022,0.122,12.810,-3.010,5.810
9515852,-0.932,0.017,0.116,14.630,-3.290,6.090
9515873,-0.933,0.010,0.119,10.080,-2.660,-2.030
9515893,-0.962,0.082,0.081,3.290,-0.140,-5.740
9515916,-0.982,0.088,0.109,-3.080,5.950,-5.320
9515937,-1.011,0.044,0.175,-8.190,5.110,-4.690
9515957,-1.044,0.036,0.233,-3.430,2.520,-3.430
9515976,-1.034,0.058,0.200,7.000,-4.970,-1.960
9515996,-1.031,0.067,0.201,11.620,-7.840,-1.820
9516015,-1.001,0.080,0.088,11.200,-9.310,-1.820
9516040,-1.005,0.088,0.121,-2.590,-3.080,-1.960
9516059,-0.987,0.060,0.145,-6.650,-0.490,-4.130
9516079,-0.979,0.050,0.180,-4.340,-4.830,-4.690
9516099,-0.979,0.037,0.155,-1.610,-6.580,-5.600
9516123,-0.996,0.050,0.129,0.000,-4.970,-5.180
9516144,-1.008,0.062,0.124,-1.330,1.470,-3.150
9516158,-1.011,0.044,0.172,-3.150,1.820,-1.960
9516183,-0.985,0.006,0.212,-1.330,-2.030,-3.500
9516204,-0.973,0.005,0.187,4.550,-6.230,-5.460
9516223,-0.978,0.053,0.161,4.480,-5.880,-6.650
9516242,-1.001,0.088,0.128,-0.700,-4.690,-6.930
9516266,-1.047,0.118,0.160,-7.000,-0.840,-2.030
9516286,-1.002,0.036,0.195,-2.030,17.780,-0.350
9516305,-0.935,-0.025,0.199,9.870,3.850,-2.730
9516329,-0.919,-0.039,0.215,16.940,13.930,-3.360
9516351,-0.946,0.006,0.272,15.610,18.200,-4.620
9516368,-0.966,0.047,0.222,10.080,9.730,-9.940
9516388,-0.975,0.051,0.161,3.010,9.380,-18.760
9516412,-1.015,0.027,0.171,1.750,7.070,-25.270
9516432,-1.023,0.028,0.122,6.230,10.010,-21.840
9516450,-1.068,0.089,0.139,6.370,13.440,-14.280
9516472,-1.079,0.126,0.234,-3.640,21.210,-7.770
9516492,-1.036,-0.060,0.221,7.140,3.850,-6.160
9516512,-0.972,-0.029,0.108,5.810,11.340,-10.850
9516534,-1.066,0.056,0.153,4.900,12.670,-8.050
9516553,-1.078,0.032,0.198,8.820,9.100,-3.010
9516578,-0.973,0.004,0.062,9.870,1.820,-9.590
9516598,-0.985,0.094,0.039,-7.700,3.570,-8.470
9516613,-1.008,0.086,0.058,-14.210,3.430,-6.300
9516633,-1.045,0.054,0.141,-14.070,5.950,-3.010
9516658,-1.057,-0.019,0.133,-10.290,4.480,1.610
9516678,-1.062,-0.105,0.122,-7.210,2.590,1.890
9516699,-1.028,-0.079,0.116,-7.490,1.960,-0.980
9516718,-1.010,-0.040,0.108,-3.920,0.840,-1.610
9516737,-1.004,-0.030,0.101,2.240,0.630,0.280
9516757,-0.998,-0.041,0.073,5.530,1.890,0.000
9516780,-1.014,-0.011,0.064,4.270,1.540,-0.770
9516799,-1.018,0.013,0.069,3.360,1.610,-0.840
9516823,-1.029,0.006,0.077,3.990,2.240,0.000
9516843,-1.022,-0.008,0.099,6.860,-0.910,0.560
9516861,-1.030,-0.016,0.103,9.520,-2.100,1.330
9516882,-1.046,-0.020,0.102,12.390,-4.900,1.820
9516900,-1.034,-0.010,0.084,13.580,-7.980,1.890
9516925,-1.018,0.024,0.070,10.220,-8.120,2.380
9516945,-1.006,0.000,0.088,11.130,-14.840,2.520
9516965,-0.989,0.011,0.073,9.100,-10.850,0.280
9516985,-1.012,-0.013,0.098,15.050,-15.680,2.520
9517008,-1.015,0.029,0.078,8.050,-9.030,2.870
9517032,-1.054,-0.006,0.122,10.430,-11.760,3.220
9517052,-1.031,0.026,0.113,14.840,-9.310,5.040
9517072,-1.024,0.044,0.145,9.240,-7.840,6.440
9517092,-1.045,0.053,0.158,6.580,-14.980,6.440
9517111,-1.013,0.036,0.113,10.780,-15.680,7.420
9517131,-0.996,0.035,0.117,10.080,-9.240,9.240
9517155,-1.012,0.047,0.166,-1.400,-5.950,8.470
9517174,-1.016,0.042,0.191,-6.860,-12.180,7.770
9517198,-0.984,0.035,0.175,-6.790,-10.850,5.530
9517218,-0.987,0.042,0.178,-6.860,-8.330,5.040
9517235,-1.001,0.066,0.181,-8.610,-6.580,4.620
9517258,-1.004,0.066,0.183,-10.640,-5.040,6.020
9517278,-1.010,0.050,0.194,-10.290,-3.080,6.790
9517298,-1.013,0.046,0.203,-9.590,-5.180,6.510
9517320,-0.998,0.035,0.166,-9.730,-6.230,5.600
9517339,-0.991,0.027,0.168,-11.130,-1.330,5.460
9517356,-0.988,0.006,0.183,-10.290,0.000,4.760
9517376,-0.997,0.006,0.200,-7.910,1.750,4.480
9517396,-1.002,0.040,0.203,-4.830,0.770,3.780
9517420,-1.003,0.072,0.174,-1.260,2.520,2.660
9517438,-1.010,0.076,0.186,-0.910,4.060,4.340
9517459,-0.984,0.046,0.169,-1.120,4.690,2.730
9517477,-1.019,0.047,0.222,-2.660,-0.420,1.470
9517496,-0.996,0.054,0.122,2.240,-4.830,-0.630
9517517,-1.009,0.079,0.135,1.050,4.060,0.630
9517541,-0.989,0.051,0.161,2.660,3.360,1.050
9517561,-0.986,0.049,0.162,6.650,-1.050,1.470
9517580,-0.980,0.047,0.138,10.220,-1.890,1.400
9517601,-0.994,0.041,0.149,9.380,-1.330,0.490
9517621,-0.997,0.062,0.141,6.440,-3.990,-0.140
9517643,-0.997,0.064,0.137,4.270,-2.170,-2.450
9517667,-1.019,0.088,0.159,-0.140,-3.500,-0.980
9517687,-1.006,0.085,0.147,-0.560,-4.340,-0.350
9517707,-0.998,0.086,0.146,1.890,-3.290,1.330
9517723,-0.988,0.068,0.127,2.730,-2.800,1.050
9517748,-0.990,0.031,0.142,-1.610,0.350,-0.490
9517764,-0.988,0.040,0.158,-4.900,0.280,-2.800
9517783,-1.002,0.088,0.164,-3.290,0.700,-2.520
9517803,-1.004,0.107,0.146,-0.630,1.610,-0.910
9517829,-1.009,0.076,0.158,-3.990,3.780,-0.280
9517848,-1.015,0.032,0.171,-6.230,4.270,-1.890
9517864,-1.013,0.035,0.192,-5.320,3.290,-2.030
9517888,-0.991,0.064,0.190,1.400,-0.140,-1.680
9517907,-0.985,0.077,0.176,5.530,-2.660,-0.490
9517931,-0.973,0.046,0.148,6.090,-3.640,-2.310
9517952,-0.976,0.027,0.150,3.710,-1.330,-4.970
9517972,-0.965,0.046,0.106,1.960,-3.080,-6.650
9517988,-0.997,0.096,0.167,-2.170,1.680,-7.000
9518009,-0.970,0.069,0.139,2.730,-2.240,-6.160
9518032,-0.981,0.027,0.177,6.440,4.200,-7.210
9518053,-1.005,0.036,0.172,8.890,7.560,-6.860
9518073,-1.002,0.089,0.209,8.400,7.630,-7.070
9518091,-1.014,0.078,0.217,7.910,3.640,-8.120
9518111,-1.042,0.054,0.180,6.930,-2.520,-5.880
9518135,-0.963,0.044,0.076,5.530,6.930,-7.840
9518155,-0.922,0.039,0.164,2.310,19.600,-10.920
9518175,-1.025,0.023,0.233,2.870,16.660,-7.910
9518194,-1.065,0.052,0.175,3.640,12.250,-6.930
9518219,-1.021,0.102,0.106,2.660,12.110,-10.920
9518239,-1.062,0.075,0.171,4.410,12.320,-7.000
9518259,-1.087,-0.005,0.211,11.760,6.930,-4.130
9518276,-1.043,0.007,0.170,13.440,1.260,-4.760
9518298,-1.012,0.040,0.106,8.680,-0.560,-8.330
9518320,-1.002,0.070,0.075,0.140,-1.400,-9.450
9518341,-1.008,0.102,0.070,-12.600,-0.420,-7.000
9518360,-1.013,0.078,0.089,-18.130,-1.750,-5.460
9518385,-1.034,0.047,0.049,-16.240,1.400,-1.960
9518404,-1.026,-0.007,0.053,-15.820,1.610,0.910
9518424,-1.004,-0.064,0.091,-16.450,0.840,-2.660
9518448,-1.032,-0.081,0.110,-11.410,-1.610,-2.800
9518468,-1.051,-0.037,0.103,-5.950,-3.500,-2.240
9518488,-1.041,0.014,0.088,-4.200,-5.180,-0.210
9518503,-0.976,0.012,0.065,-1.610,-2.310,-0.910
9518527,-0.984,-0.011,0.055,1.190,0.980,-0.280
9518549,-0.997,-0.004,0.048,0.980,-2.030,-0.140
9518568,-1.014,0.001,0.050,-1.120,-0.630,-1.400
9518586,-1.051,0.024,0.102,1.050,-1.330,1.260
9518610,-1.050,0.007,0.146,4.690,-6.790,2.730
9518630,-1.056,0.003,0.142,9.870,-11.480,2.520
9518650,-1.057,0.021,0.130,9.800,-15.400,3.220
9518669,-1.036,0.022,0.152,8.890,-17.500,2.310
9518693,-1.033,0.039,0.180,9.800,-19.600,2.660
9518713,-1.036,0.043,0.185,14.280,-21.630,3.150
9518732,-1.030,0.043,0.163,15.400,-24.500,3.850
9518751,-0.994,0.031,0.142,13.230,-21.490,3.850
9518772,-0.981,0.030,0.139,11.130,-17.850,2.170
9518794,-0.974,0.004,0.162,9.100,-14.280,0.490
9518818,-0.984,0.018,0.194,8.400,-12.180,-0.280
9518837,-0.996,0.047,0.207,8.050,-12.180,-0.630
9518857,-0.993,0.073,0.173,6.510,-10.570,-0.840
9518873,-0.996,0.085,0.179,1.890,-8.680,0.000
9518898,-1.012,0.074,0.203,-2.170,-7.630,1.680
9518918,-1.023,0.052,0.239,-3.500,-7.000,2.520
9518936,-1.028,0.035,0.244,-1.190,-9.730,3.220
9518959,-1.013,0.041,0.221,1.820,-10.990,2.870
9518980,-0.995,0.021,0.204,2.730,-10.080,3.500
9518996,-1.010,0.022,0.204,1.330,-8.680,3.990
9519020,-1.030,0.026,0.245,2.030,-15.820,4.760
9519040,-0.964,0.052,0.227,5.600,-10.500,3.500
9519059,-0.972,0.057,0.165,7.280,-15.330,4.970
9519079,-0.995,0.061,0.189,-1.680,-7.630,4.620
9519100,-0.988,0.038,0.206,-3.780,-9.590,1.540
9519123,-0.989,0.076,0.213,-2.520,-7.420,1.960
9519143,-0.965,0.055,0.202,-2.590,-5.110,1.960
9519166,-0.978,0.047,0.219,-7.700,-4.270,-0.420
9519186,-0.992,0.040,0.262,-9.800,-1.610,-0.770
9519205,-0.996,0.031,0.266,-3.570,-2.450,-0.280
9519225,-1.012,0.038,0.278,4.270,-0.560,1.540
9519247,-1.003,0.065,0.248,6.650,-0.560,1.750
9519271,-0.995,0.074,0.256,2.590,-2.870,1.680
9519291,-0.992,0.078,0.214,3.500,-1.610,1.400
9519309,-0.989,0.075,0.218,3.360,-0.140,2.100
9519328,-0.974,0.063,0.222,0.910,-1.890,0.700
9519353,-0.966,0.062,0.192,-2.660,-3.290,-1.680
9519369,-0.969,0.060,0.173,-3.500,-2.660,-1.820
9519390,-0.968,0.049,0.179,-3.920,0.490,-1.890
9519409,-0.968,0.044,0.200,-4.480,-0.210,-2.730
9519429,-0.973,0.052,0.193,-4.130,2.100,-2.660
9519449,-0.999,0.043,0.216,-4.130,0.490,-2.170
9519473,-0.973,0.024,0.208,-5.460,0.140,-3.360
9519497,-0.991,0.045,0.209,-5.250,2.240,-4.480
9519517,-1.040,0.056,0.261,-7.420,1.400,-2.940
9519534,-0.974,0.043,0.196,-3.920,-4.200,-3.710
9519554,-1.022,0.070,0.248,-0.140,-3.150,-1.050
9519579,-0.985,0.063,0.199,-0.280,3.990,0.630
9519598,-0.996,-0.004,0.269,-4.130,-0.770,-0.420
9519621,-0.973,0.019,0.228,4.970,1.190,-2.730
9519645,-0.970,0.062,0.207,6.860,0.420,-1.470
9519670,-0.950,0.060,0.182,4.830,2.800,-1.540
9519688,-0.951,0.026,0.201,3.150,5.040,-2.380
9519709,-0.959,0.032,0.199,1.330,6.160,-5.880
9519730,-0.984,0.089,0.195,-4.550,10.150,-6.160
9519748,-0.992,0.075,0.233,-3.220,10.920,-5.670
9519768,-0.963,0.025,0.237,3.710,12.600,-7.000
9519788,-1.016,0.064,0.231,4.410,12.040,-5.880
9519812,-1.051,0.117,0.172,-9.870,7.420,-6.720
9519832,-1.021,0.065,0.155,-23.030,10.570,-6.650
9519852,-1.027,-0.032,0.262,-21.700,10.920,-6.230
9519871,-1.036,-0.071,0.276,-9.380,8.750,-2.450
9519895,-0.980,-0.046,0.205,7.210,7.560,-3.080
9519915,-0.903,0.017,0.144,16.660,17.710,-5.180
9519934,-0.948,-0.001,0.188,12.810,18.690,-3.010
9519954,-1.038,-0.002,0.252,6.790,18.480,-2.380
9519973,-1.029,0.050,0.181,7.350,10.360,-6.930
9519998,-0.973,0.039,0.142,17.850,14.560,-9.380
9520018,-1.039,0.025,0.176,19.950,11.900,-3.080
9520037,-1.000,0.008,0.122,5.880,14.140,-4.900
9520061,-1.101,0.040,0.232,-3.290,0.910,-8.120
9520079,-0.996,0.058,0.092,8.680,8.190,-8.610
9520101,-1.031,0.028,0.124,8.960,5.040,-5.950
9520117,-1.023,0.022,0.110,7.910,7.630,-4.200
9520139,-1.050,0.018,0.174,4.410,5.950,-2.100
9520162,-1.027,0.003,0.156,4.550,-1.470,-3.780
9520183,-0.994,0.033,0.075,-1.610,-0.630,-5.880
9520204,-1.013,0.094,0.084,-12.530,2.800,-5.040
9520223,-1.035,0.118,0.105,-17.850,-2.100,-3.290
9520248,-1.020,0.073,0.085,-17.430,-2.030,0.280
9520267,-1.023,0.022,0.070,-17.570,-1.540,3.220
9520285,-1.026,-0.045,0.091,-19.950,-2.030,2.730
9520308,-1.018,-0.087,0.123,-16.310,0.560,0.350
9520327,-1.017,-0.090,0.135,-7.210,0.700,-0.560
9520347,-1.011,-0.029,0.105,-1.260,-0.350,-1.190
9520370,-1.011,0.012,0.096,-2.450,0.070,-0.280
9520387,-1.029,0.011,0.112,-2.590,-2.310,0.350
9520407,-1.040,-0.004,0.113,2.730,-2.310,1.820
9520430,-1.042,-0.015,0.124,9.590,-3.360,3.360
9520450,-1.033,0.007,0.111,9.380,-6.370,3.220
9520469,-1.031,0.033,0.106,5.390,-8.470,3.150
9520494,-1.025,0.011,0.119,2.660,-10.500,3.150
9520513,-1.012,-0.009,0.138,6.090,-9.100,2.030
9520533,-1.024,0.006,0.171,9.240,-12.110,1.610
9520554,-1.046,0.032,0.169,4.340,-13.440,-1.330
9520578,-1.002,0.039,0.135,3.990,-18.830,-0.700
9520598,-0.986,0.047,0.179,-2.590,-10.220,0.140
9520617,-1.036,0.046,0.207,-1.750,-10.850,1.190
9520640,-1.036,0.052,0.203,-3.780,-19.320,0.910
9520661,-0.986,0.048,0.159,-4.060,-19.740,1.260
9520680,-0.996,0.051,0.169,-2.590,-16.030,4.060
9520705,-1.025,0.030,0.218,-1.680,-12.740,8.190
9520724,-1.037,0.044,0.248,-5.250,-15.190,8.260
9520748,-1.044,0.069,0.232,-7.280,-19.320,7.700
9520770,-1.010,0.085,0.203,-6.720,-16.730,9.520
9520794,-0.975,0.066,0.200,-6.860,-16.310,10.010
9520814,-0.966,0.079,0.208,-14.280,-14.490,7.840
9520833,-0.967,0.075,0.202,-20.370,-15.260,6.020
9520853,-0.950,0.015,0.205,-20.370,-12.460,4.130
9520877,-0.970,0.016,0.238,-20.090,-10.780,2.240
9520901,-1.007,0.031,0.243,-18.130,-9.660,3.640
9520919,-0.991,0.010,0.262,-8.400,-6.580,6.160
9520940,-0.978,-0.024,0.279,1.330,-5.530,7.910
9520960,-0.980,-0.003,0.286,5.110,-6.510,7.490
9520984,-0.989,0.053,0.236,5.390,-6.020,6.300
9521004,-0.987,0.081,0.221,4.270,-0.980,6.230
9521024,-1.000,0.063,0.304,5.740,-7.420,7.070
9521044,-0.986,0.079,0.264,4.130,-3.360,2.520
9521067,-0.972,0.083,0.181,4.410,-5.460,1.050
9521088,-0.991,0.091,0.253,-5.180,-1.820,1.470
9521106,-0.974,0.058,0.246,-6.160,-5.740,-0.910
9521130,-0.991,0.067,0.229,-1.330,-5.530,0.070
9521150,-0.973,0.049,0.211,0.280,-3.850,1.190
9521170,-0.954,0.024,0.210,-1.540,-4.550,-1.260
9521194,-0.963,0.046,0.209,-2.450,-2.100,-4.270
9521213,-0.989,0.077,0.244,-2.100,-0.910,-3.850
9521234,-0.998,0.075,0.265,2.030,-2.450,-2.800
9521254,-0.978,0.076,0.246,2.170,-1.890,-3.080
9521274,-0.976,0.056,0.239,-3.010,-1.680,-5.250
9521295,-0.987,0.060,0.238,-4.550,0.140,-5.740
9521314,-0.985,0.053,0.264,-0.140,2.730,-4.340
9521338,-0.986,0.045,0.267,1.260,1.890,-3.850
9521357,-0.971,0.052,0.226,-0.280,2.870,-4.620
9521377,-0.958,0.057,0.222,-1.470,6.650,-4.900
9521401,-0.978,0.056,0.242,0.070,10.290,-5.110
9521422,-0.999,0.059,0.250,1.960,10.850,-4.410
9521441,-0.994,0.053,0.251,1.960,10.500,-3.780
9521459,-0.991,0.041,0.254,1.890,9.310,-3.640
9521482,-1.004,0.045,0.241,1.190,9.240,-3.570
9521503,-1.035,0.038,0.285,1.120,7.420,-1.050
9521523,-0.959,0.031,0.225,3.780,5.110,-2.100
9521542,-0.987,0.020,0.273,11.620,-3.500,-1.470
9521563,-0.939,0.023,0.163,11.480,6.650,-2.940
9521583,-0.966,0.014,0.203,4.410,6.510,-4.760
9521603,-0.973,0.023,0.219,7.280,8.330,-7.350
9521619,-0.984,0.046,0.235,11.550,5.950,-6.720
9521640,-0.970,0.067,0.212,14.910,5.600,-6.790
9521663,-1.013,0.087,0.216,12.880,5.460,-5.530
9521680,-1.019,0.025,0.205,12.670,6.300,-5.180
9521700,-0.977,0.006,0.233,16.450,11.410,-8.540
9521720,-1.006,0.044,0.262,12.740,7.770,-8.470
9521741,-1.007,0.041,0.209,8.960,3.080,-10.780
9521765,-0.977,0.003,0.225,13.160,8.610,-13.300
9521783,-0.951,0.022,0.196,23.170,13.720,-14.840
9521807,-0.997,0.117,0.142,10.150,10.850,-15.120
9521827,-1.053,0.099,0.190,-11.410,11.550,-13.020
9521846,-1.077,0.075,0.283,-8.050,10.850,-10.220
9521870,-1.028,0.032,0.194,6.300,6.440,-6.720
9521888,-0.970,-0.122,0.144,7.140,7.840,-7.070
9521908,-0.945,-0.037,0.169,5.180,9.800,-9.240
9521928,-1.006,-0.012,0.198,5.250,8.330,-9.380
9521951,-1.061,0.019,0.178,5.040,3.570,-7.210
9521972,-1.041,0.022,0.113,3.500,3.150,-5.810
9521992,-1.017,-0.013,0.106,0.420,2.660,-3.920
9522011,-1.047,-0.038,0.154,-4.270,6.930,-7.560
9522036,-1.076,-0.081,0.143,2.590,-4.550,-12.180
9522056,-1.004,-0.039,0.069,3.430,5.250,-9.380
9522076,-1.028,0.001,0.115,5.460,5.810,-7.630
9522096,-1.044,0.061,0.102,10.150,1.960,-2.940
9522115,-1.006,0.029,0.100,7.910,2.380,0.980
9522136,-1.009,-0.020,0.116,5.530,-0.140,0.840
9522156,-1.024,-0.021,0.124,5.880,-2.380,1.750
9522173,-1.024,-0.017,0.128,6.370,-4.270,2.170
9522193,-1.029,-0.016,0.109,6.090,-3.710,2.170
9522215,-1.037,-0.034,0.118,7.840,-5.040,1.610
9522236,-1.033,-0.025,0.124,5.180,-8.050,1.820
9522256,-1.034,-0.009,0.144,4.200,-10.780,2.590
9522280,-1.024,0.006,0.153,5.670,-11.760,3.010
9522300,-1.031,0.011,0.146,7.280,-12.740,4.480
9522320,-1.006,0.018,0.142,6.370,-12.460,4.900
9522337,-0.996,0.020,0.149,3.780,-13.440,4.550
9522356,-0.999,0.019,0.154,1.540,-13.860,4.340
9522380,-1.000,0.028,0.178,-1.680,-12.040,4.620
9522402,-0.993,-0.002,0.206,-4.900,-11.270,3.920
9522420,-1.011,-0.020,0.218,-3.850,-10.500,3.920
9522444,-1.017,0.011,0.218,-3.080,-9.030,4.970
9522464,-1.025,0.055,0.240,-6.090,-8.470,6.580
9522480,-0.974,0.070,0.205,-7.630,-6.790,5.880
9522503,-1.041,0.068,0.279,-9.730,-10.710,10.570
9522523,-1.004,0.032,0.206,-5.810,-6.230,11.760
9522542,-1.024,0.011,0.253,-8.050,-3.640,13.580
9522566,-0.990,-0.016,0.252,-7.070,-4.410,9.940
9522584,-1.001,-0.008,0.227,-1.960,-12.040,9.100
9522606,-0.969,0.024,0.180,-17.710,-6.930,7.910
9522626,-0.977,0.040,0.204,-5.600,-5.600,8.470
9522646,-0.973,0.040,0.212,-8.540,-6.440,6.510
9522670,-0.970,0.041,0.211,-7.770,-4.970,4.620
9522689,-0.982,0.030,0.233,-4.410,-3.640,4.340
9522710,-0.998,0.034,0.249,-1.680,-5.740,3.500
9522729,-0.985,0.040,0.210,1.540,-7.420,2.730
9522749,-0.979,0.059,0.205,5.740,-1.960,3.080
9522773,-0.990,0.050,0.222,5.040,0.770,3.150
9522791,-1.008,0.056,0.244,-0.560,-1.960,2.100
9522815,-1.003,0.069,0.210,-4.340,-3.290,-0.840
9522835,-0.990,0.076,0.208,-4.830,-0.560,-0.630
9522851,-0.981,0.057,0.233,-3.360,-1.890,-0.350
9522875,-0.989,0.045,0.235,-1.120,-3.360,-0.980
9522895,-0.993,0.043,0.228,0.630,-4.270,-1.820
9522914,-0.992,0.044,0.222,1.190,-4.480,-1.680
9522935,-0.985,0.038,0.227,0.350,-3.500,-2.240
9522955,-0.980,0.037,0.222,1.330,-10.290,-2.380
9522979,-0.981,0.070,0.226,0.000,-5.880,-2.240
9522999,-0.997,0.058,0.224,3.360,-11.410,-1.750
9523019,-0.985,0.047,0.200,1.750,-5.880,-1.960
9523039,-0.996,0.060,0.193,0.840,-1.960,-1.890
9523062,-1.015,0.053,0.249,-1.610,-2.310,0.000
9523083,-0.983,0.010,0.252,3.010,-6.090,-1.540
9523102,-0.968,0.032,0.225,6.860,-5.530,-2.940
9523122,-0.977,0.057,0.211,3.360,-3.850,-4.200
9523145,-0.990,0.067,0.217,-2.800,-2.240,-4.130
9523166,-1.004,0.045,0.258,-0.560,-3.570,-3.220
9523185,-0.996,0.058,0.244,4.970,-1.750,-1.610
9523206,-0.998,0.046,0.243,5.040,-2.240,-0.980
9523227,-0.991,0.054,0.238,1.330,-2.870,-1.680
9523251,-0.982,0.054,0.232,-0.630,-0.700,-1.960
9523271,-0.981,0.029,0.254,2.730,1.680,-2.380
9523289,-0.987,0.023,0.250,2.240,1.050,-3.640
9523309,-1.003,0.045,0.243,-1.540,0.630,-4.900
9523329,-1.000,0.060,0.248,-1.400,-2.100,-4.410
9523348,-0.968,0.036,0.242,4.970,-3.290,-3.990
9523373,-0.954,0.010,0.238,11.060,-1.610,-4.480
9523393,-0.976,0.011,0.245,7.210,-1.890,-5.390
9523413,-0.987,0.039,0.231,1.610,0.420,-7.350
9523437,-0.983,0.058,0.256,3.360,-3.640,-8.190
9523457,-0.942,0.082,0.300,2.590,3.570,-7.840
9523477,-0.977,0.051,0.251,3.220,0.630,-5.110
9523497,-0.987,0.047,0.263,-5.390,6.020,-9.730
9523517,-0.944,0.039,0.229,-7.980,10.010,-15.190
9523540,-0.980,0.019,0.276,0.350,12.040,-9.800
9523559,-1.003,-0.018,0.313,5.110,13.440,-4.760
9523580,-1.047,0.033,0.284,8.120,5.320,-5.810
9523597,-0.991,0.058,0.192,12.600,4.830,-6.860
9523620,-0.991,0.060,0.171,9.100,6.580,-3.990
9523641,-1.020,0.037,0.225,-6.860,2.940,-1.750
9523658,-1.006,0.007,0.224,-10.850,-0.770,-7.070
9523678,-0.998,-0.005,0.206,-3.640,0.560,-10.360
9523701,-1.019,-0.062,0.216,7.140,2.240,-9.100
9523725,-1.030,-0.056,0.232,17.570,1.820,-3.220
9523742,-1.007,0.033,0.183,15.820,-3.920,-4.900
9523762,-1.011,0.129,0.157,8.610,-4.480,-3.850
9523782,-1.036,0.092,0.220,4.830,-0.770,1.050
9523806,-1.000,-0.024,0.230,7.210,0.980,-0.770
9523825,-0.988,-0.042,0.210,7.630,2.240,-2.450
9523847,-0.979,-0.024,0.226,5.320,2.240,-4.760
9523866,-0.988,0.036,0.206,2.800,2.940,-4.410
9523884,-1.001,0.076,0.185,1.470,5.320,-3.010
9523904,-1.049,0.064,0.214,-1.190,1.540,0.350
9523924,-0.974,0.051,0.158,-7.840,8.330,-1.400
9523948,-1.021,0.010,0.172,-8.960,1.750,0.770
9523967,-1.000,0.007,0.173,-11.410,8.680,0.910
9523989,-1.018,-0.017,0.186,-12.740,7.560,1.120
9524011,-1.023,-0.040,0.179,-5.250,6.930,2.730
9524031,-0.991,-0.071,0.159,-1.960,5.880,2.310
9524050,-0.983,-0.075,0.161,-0.210,6.510,-0.210
9524070,-0.998,-0.046,0.177,1.470,5.040,-1.050
9524094,-1.013,-0.017,0.173,5.320,3.150,-1.540
9524114,-1.055,0.028,0.180,7.560,1.750,0.280
9524132,-1.039,0.030,0.177,7.910,1.190,1.890
9524152,-1.026,0.010,0.188,7.840,-0.980,1.680
9524175,-1.014,0.014,0.184,8.890,-3.220,0.840
9524196,-1.009,0.006,0.177,10.990,-3.710,1.330
9524213,-1.004,0.007,0.181,12.460,-4.060,1.190
9524232,-0.993,0.011,0.159,12.460,-3.780,0.420
9524256,-1.004,0.031,0.178,9.520,-1.610,0.140
9524277,-0.999,0.018,0.206,8.120,-2.940,-0.420
9524296,-0.997,0.021,0.206,8.680,-4.550,-0.560
9524321,-1.004,0.036,0.186,6.510,-5.390,-0.770
9524340,-1.005,0.020,0.184,3.850,-5.040,-0.420
9524362,-1.011,0.018,0.211,3.430,-4.340,0.280
9524382,-0.972,0.016,0.168,6.230,-6.300,1.680
9524402,-1.030,0.041,0.225,6.160,-5.390,1.960
9524426,-0.995,0.029,0.179,8.330,-5.810,3.360
9524446,-1.024,0.042,0.201,0.910,-3.150,3.640
9524465,-1.024,0.039,0.242,-1.610,-5.040,2.940
9524482,-1.013,0.041,0.229,2.170,-6.300,3.500
9524502,-0.985,0.035,0.199,1.820,-7.840,3.570
9524526,-0.989,0.042,0.187,-2.100,-6.230,2.800
9524546,-0.998,0.036,0.240,-4.270,-7.350,2.940
9524565,-0.984,0.026,0.230,-1.750,-11.060,1.960
9524585,-0.972,0.019,0.199,-2.170,-9.520,1.540
9524605,-0.983,0.021,0.194,-4.690,-5.950,0.280
9524629,-1.011,0.039,0.248,-5.740,-4.970,1.890
9524649,-1.007,0.053,0.249,-2.940,-5.390,2.380
9524670,-1.006,0.047,0.240,-3.710,-7.070,3.570
9524687,-0.999,0.045,0.217,-5.320,-7.000,3.080
9524709,-0.994,0.047,0.205,-6.160,-3.850,3.430
9524728,-1.005,0.047,0.232,-6.370,-1.330,4.900
9524749,-1.012,0.050,0.256,-6.300,-2.940,5.670
9524769,-0.999,0.058,0.234,-5.530,-4.620,4.830
9524788,-0.988,0.056,0.217,-6.510,-3.150,4.900
9524808,-0.988,0.029,0.240,-7.210,-1.820,5.600
9524830,-0.986,0.032,0.239,-5.740,-2.660,4.410
9524849,-0.982,0.039,0.215,-2.030,-5.110,4.060
9524864,-0.971,0.063,0.200,-2.660,1.750,2.800
9524888,-1.004,0.050,0.252,-3.990,-3.080,4.060
9524908,-0.991,0.047,0.236,-4.340,1.960,4.060
9524928,-1.007,0.060,0.247,-4.900,3.850,4.340
9524952,-1.012,0.064,0.248,-5.250,3.710,3.920
9524972,-0.996,0.058,0.229,-1.890,1.820,3.430
9524991,-0.985,0.058,0.239,0.350,2.030,2.590
9525011,-0.991,0.062,0.224,1.120,1.400,2.240
9525034,-0.983,0.055,0.224,-0.420,2.590,1.680
9525054,-0.999,0.057,0.224,-1.820,2.310,1.470
9525071,-0.998,0.064,0.209,-1.540,2.100,1.120
9525095,-0.988,0.066,0.215,-1.120,4.060,0.910
9525113,-0.988,0.062,0.228,-0.420,3.850,0.770
9525137,-1.001,0.057,0.226,-0.280,4.410,1.820
9525157,-0.999,0.049,0.221,0.630,3.150,0.910
9525181,-0.994,0.062,0.220,1.750,2.800,-0.840
9525201,-0.991,0.063,0.189,0.420,3.290,-1.330
9525222,-1.010,0.072,0.191,-0.140,4.200,-0.140
9525241,-1.009,0.082,0.186,-2.030,8.750,1.050
9525261,-1.002,0.054,0.211,-3.570,9.380,2.380
9525279,-0.990,0.047,0.193,-1.050,8.190,0.980
9525299,-0.986,0.085,0.191,0.840,7.910,-0.630
9525323,-0.965,0.081,0.172,-0.280,3.290,-3.080
9525343,-0.981,0.071,0.200,-4.620,1.680,-4.200
9525367,-0.986,0.053,0.142,-2.450,-0.210,-4.620
9525387,-1.008,0.043,0.193,-7.280,3.360,-4.410
9525406,-1.007,0.042,0.194,-7.490,2.310,-5.530
9525426,-1.018,0.091,0.201,-7.210,1.120,-4.410
9525450,-1.013,0.079,0.189,-7.210,0.910,-3.710
9525468,-1.009,0.069,0.188,-6.510,2.450,-3.010
9525486,-0.941,0.017,0.197,-5.740,1.190,-4.970
9525507,-0.920,-0.033,0.178,-2.100,-0.770,-10.850
9525529,-0.986,0.005,0.158,-0.490,-1.890,-12.600
9525549,-1.035,0.061,0.172,-3.710,1.750,-12.250
9525571,-1.004,0.062,0.223,-4.550,-0.840,-10.710
9525590,-0.989,0.035,0.196,4.480,-1.260,-9.520
9525612,-1.039,0.041,0.216,11.970,0.140,-6.090
9525633,-1.045,0.044,0.211,7.700,-5.740,-5.600
9525653,-0.986,0.029,0.171,5.530,-5.110,-8.260
9525675,-0.975,0.011,0.178,11.480,-1.750,-7.070
9525700,-1.028,-0.003,0.209,10.570,-1.260,-4.620
9525715,-1.038,0.022,0.196,5.950,-3.640,-4.970
9525734,-1.020,0.060,0.157,3.150,-4.200,-6.020
9525757,-0.983,0.050,0.178,8.260,-1.470,-4.130
9525778,-1.017,0.029,0.259,14.140,-1.540,-1.190
9525795,-0.998,0.007,0.204,8.820,3.850,0.140
9525820,-1.024,-0.008,0.164,6.160,-8.470,-7.560
9525838,-0.938,0.003,0.133,6.160,1.890,-12.880
9525857,-0.981,0.017,0.192,5.390,3.220,-10.850
9525877,-1.038,0.036,0.202,-0.070,6.580,-7.980
9525897,-1.012,0.037,0.189,-2.520,0.770,-10.780
9525921,-1.014,0.025,0.179,-1.960,-0.490,-11.760
9525939,-1.024,0.020,0.189,1.750,0.140,-8.540
9525962,-0.984,0.013,0.203,1.890,2.520,-8.190
9525982,-0.980,-0.007,0.196,3.360,-0.280,-10.430
9525999,-1.012,0.002,0.183,6.370,-1.610,-10.430
9526023,-1.038,0.046,0.178,5.180,-2.170,-6.370
9526043,-0.983,0.028,0.182,0.770,0.700,-4.480
9526063,-0.987,-0.036,0.203,-0.210,1.750,-3.150
9526083,-1.012,-0.061,0.155,0.840,-0.210,-4.760
9526107,-1.024,-0.017,0.142,-1.540,3.780,-4.620
9526127,-1.021,0.007,0.210,-0.700,5.880,-1.960
9526148,-1.044,-0.022,0.231,5.320,4.130,1.610
9526166,-1.030,-0.015,0.204,7.070,0.980,2.870
9526186,-0.982,-0.015,0.158,4.970,1.050,0.840
9526206,-0.983,0.014,0.146,2.940,3.640,-1.960
9526231,-0.991,0.023,0.156,-1.330,5.250,-3.710
9526250,-0.980,0.030,0.156,-4.410,1.610,-3.430
9526270,-1.029,0.029,0.194,-6.790,-4.620,-0.280
9526290,-0.991,0.079,0.129,-13.300,-3.220,3.640
9526307,-1.121,0.111,0.173,-25.480,-10.500,-4.550
9526331,-1.029,0.011,0.186,-10.360,2.940,-4.200
9526351,-1.013,0.023,0.131,-9.660,2.380,-2.310
9526370,-0.993,0.009,0.126,-13.580,2.100,-0.910
9526391,-0.998,-0.029,0.130,-16.590,4.060,-2.030
9526410,-1.001,-0.053,0.133,-15.190,4.060,-2.170
9526427,-0.994,-0.067,0.139,-11.690,7.700,-2.170
9526451,-1.018,-0.067,0.144,-5.110,8.680,-1.050
9526471,-1.014,-0.054,0.153,-1.610,9.380,-0.980
9526491,-0.992,-0.050,0.137,-0.070,8.330,-2.660
9526515,-0.994,-0.048,0.133,2.940,8.750,-3.710
9526535,-1.004,-0.041,0.129,3.920,8.750,-3.990
9526550,-1.003,-0.032,0.112,4.900,9.450,-4.200
9526575,-1.010,-0.027,0.112,7.070,11.060,-4.480
9526596,-0.992,-0.035,0.089,10.220,12.180,-5.110
9526615,-0.991,-0.039,0.092,11.060,14.070,-6.510
9526634,-1.011,-0.024,0.100,11.270,14.420,-7.140
9526654,-0.999,-0.029,0.078,12.040,16.030,-7.350
9526676,-0.978,-0.033,0.052,14.350,21.070,-8.890
9526693,-0.997,-0.061,0.084,18.270,21.490,-8.960
9526718,-0.938,-0.072,0.012,14.980,29.890,-13.440
9526736,-0.983,-0.050,0.017,13.650,27.930,-13.440
9526760,-0.998,-0.002,0.049,9.170,36.820,-13.930
9526779,-1.039,-0.032,0.092,14.280,34.020,-12.810
9526801,-1.029,-0.036,0.023,25.620,35.210,-11.830
9526820,-0.956,-0.069,-0.051,26.600,38.500,-10.920
9526840,-0.938,-0.097,-0.060,25.550,40.810,-12.530
9526863,-0.963,-0.123,-0.027,27.580,42.000,-14.980
9526883,-0.987,-0.162,-0.032,39.480,44.520,-11.550
9526903,-0.943,-0.227,0.003,59.220,47.670,-8.750
9526920,-0.943,-0.234,0.033,63.630,40.530,-8.470
9526939,-0.994,-0.154,-0.028,42.210,17.780,-9.730
9526964,-1.073,0.012,-0.086,-4.340,9.100,-12.600
9526983,-1.287,0.113,0.053,-23.170,8.540,-7.490
9527002,-1.379,0.129,0.152,-16.590,3.080,4.550
9527022,-1.201,0.000,0.096,2.170,0.420,16.240
9527045,-1.051,-0.083,0.026,-0.840,-6.300,16.030
9527065,-0.993,-0.108,0.073,-6.090,-5.670,15.400
9527086,-0.936,-0.184,0.093,2.940,-7.210,13.160
9527106,-0.863,-0.286,0.000,12.390,-7.000,7.490
9527129,-0.854,-0.314,-0.065,14.350,-4.620,-1.610
9527150,-0.925,-0.291,0.007,9.520,-10.570,-4.760
9527168,-0.921,-0.167,-0.043,5.390,-8.400,-6.160
9527192,-1.032,-0.053,-0.020,3.780,-17.640,1.960
9527213,-0.882,0.044,-0.154,-10.640,-10.850,11.480
9527230,-0.774,0.143,-0.183,-26.810,-6.090,17.010
9527252,-0.621,0.255,-0.180,-39.620,6.370,19.740
9527273,-0.848,0.334,-0.039,-29.540,11.550,31.010
9527288,-1.142,0.104,-0.003,-7.910,-0.910,35.840
9527312,-1.381,-0.162,-0.094,42.490,-5.950,14.700
9527333,-1.520,-0.327,0.124,9.730,23.870,4.550
9527347,-1.433,-0.173,0.173,-1.890,-8.120,-8.610
9527367,-1.166,0.033,0.216,-13.790,-4.970,-10.150
9527392,-1.119,0.063,0.252,-21.070,-18.830,-5.460
9527408,-1.073,0.115,0.140,-22.890,-23.240,-2.660
9527428,-0.971,0.133,0.024,-12.880,-14.420,2.800
9527452,-0.905,0.113,0.014,1.330,-0.210,9.310
9527472,-0.852,-0.001,0.037,11.480,-1.540,10.220
9527492,-0.781,-0.019,0.027,10.290,-2.660,8.960
9527509,-0.791,-0.009,0.052,11.970,-3.920,6.930
9527532,-0.811,-0.028,0.090,19.740,-2.590,3.500
9527556,-0.828,-0.069,0.120,31.010,-12.110,-0.770
9527576,-0.777,-0.057,0.071,37.520,-15.470,-4.060
9527593,-0.762,-0.034,0.024,39.480,-8.820,-8.260
9527611,-0.846,-0.017,0.113,40.460,-10.780,-12.530
9527636,-0.840,-0.015,0.251,40.880,-9.660,-18.410
9527654,-1.068,0.027,0.338,39.270,-32.480,-19.600
9527674,-0.999,0.122,0.185,27.370,-36.470,-20.020
9527697,-0.980,0.186,0.091,26.110,-14.000,-19.670
9527718,-1.054,0.203,0.220,22.890,-8.050,-14.420
9527737,-1.147,0.165,0.338,14.000,-9.940,-12.950
9527761,-1.211,0.237,0.331,13.860,-3.220,-10.710
9527777,-1.135,0.218,0.182,7.140,9.590,-9.730
9527801,-1.060,0.170,0.158,-10.920,15.050,-12.040
9527821,-1.047,0.086,0.312,-9.730,25.270,-17.570
9527840,-1.051,0.071,0.356,-6.160,35.280,-21.210
9527860,-1.084,0.063,-0.125,11.620,56.070,-15.820
9527883,-0.871,0.078,-0.368,-34.510,77.910,-14.980
9527904,-0.986,-0.137,-0.215,-52.150,77.140,-26.250
9527927,-1.373,-0.207,-0.091,-14.980,92.330,-27.790
9527949,-1.539,-0.403,-0.505,-2.800,89.180,-34.650
9527968,-1.425,-0.423,-0.472,-12.740,94.570,-36.750
9527988,-1.226,-0.258,-0.370,-13.230,84.070,-27.930
9528008,-1.005,-0.171,-0.450,4.410,88.760,-19.040
9528032,-0.750,-0.260,-0.468,31.920,94.150,-7.560
9528052,-0.614,-0.386,-0.473,35.280,89.390,-9.660
9528070,-0.578,-0.435,-0.441,25.130,67.550,-18.620
9528092,-0.560,-0.382,-0.563,6.440,46.060,-33.880
9528115,-0.661,-0.192,-0.641,-4.900,33.530,-39.900
9528136,-0.789,-0.126,-0.473,-29.120,29.190,-36.890
9528152,-0.897,0.000,-0.402,-46.480,13.790,-32.200
9528175,-0.781,0.075,-0.466,-55.090,1.190,-0.630
9528196,-0.576,-0.057,-0.476,-54.390,-8.190,-6.370
9528216,-0.454,-0.279,-0.494,-64.470,-17.570,-9.520
9528237,-0.432,-0.249,-0.356,-92.820,-15.400,-15.260
9528258,-0.453,-0.164,-0.122,-103.110,-24.640,-12.110
9528282,-0.543,-0.234,-0.291,-11.970,-49.210,-6.020
9528302,-0.423,-0.255,-0.763,8.050,-42.210,2.310
9528320,-0.358,-0.469,-0.430,-49.280,-16.520,-8.610
9528340,-0.621,-0.211,0.040,-48.860,-26.670,-15.470
9528364,-0.805,-0.023,-0.377,49.630,-46.480,3.150
9528383,-0.669,-0.143,-0.681,38.010,-36.330,10.990
9528407,-0.763,-0.250,-0.272,-22.260,-14.980,-2.800
9528425,-0.966,-0.219,-0.051,3.220,-16.170,-7.210
9528444,-1.026,-0.292,-0.252,34.510,-41.230,-8.540
9528463,-0.969,-0.138,-0.486,-9.310,-43.330,-9.450
9528486,-1.075,0.083,-0.366,-28.420,-20.580,-3.430
9528506,-1.217,-0.042,-0.118,44.100,-14.490,15.400
9528530,-1.061,-0.237,-0.500,44.660,-23.450,21.770
9528550,-1.047,-0.259,-0.346,2.590,-17.570,11.830
9528574,-1.120,-0.252,-0.090,21.490,-2.870,4.200
9528591,-1.096,-0.350,-0.262,38.710,-12.950,-1.540
9528612,-0.993,-0.271,-0.625,5.880,-20.300,-10.220
9528631,-1.024,-0.088,-0.396,-31.640,-4.970,-16.870
9528654,-1.160,-0.130,-0.022,-10.010,-2.170,-12.950
9528673,-1.109,-0.305,-0.298,11.690,-23.100,-13.160
9528696,-1.009,-0.301,-0.490,-9.870,-18.410,-10.990
9528717,-1.103,-0.225,-0.207,-22.400,-10.570,-13.580
9528736,-1.230,-0.076,-0.060,-7.840,-19.390,-11.130
9528756,-1.182,-0.041,-0.254,9.940,-30.520,1.890
9528779,-1.102,-0.043,-0.503,-5.180,-28.910,11.130
9528797,-1.079,-0.142,-0.266,-15.750,-17.360,10.710
9528815,-1.171,-0.234,-0.057,6.650,-18.690,10.360
9528839,-1.163,-0.319,-0.159,12.320,-27.790,6.860
9528859,-1.384,-0.105,-0.121,-15.400,-13.090,-5.810
9528878,-2.107,-0.357,-0.503,30.100,-68.390,-14.630
9528898,-1.427,-0.123,0.250,-15.260,19.320,-1.820
9528922,-1.122,0.110,0.090,-14.840,-13.790,19.250
9528940,-0.720,-0.172,-0.348,-19.880,-11.690,27.930
9528963,-0.592,-0.380,-0.499,-20.230,8.400,11.060
9528982,-1.057,-0.227,-0.217,-34.370,33.110,2.100
9529006,-1.354,-0.164,-0.029,-18.480,25.200,-1.190
9529021,-1.433,-0.129,-0.031,-21.000,12.250,-0.700
9529046,-1.342,-0.175,-0.244,-29.680,-6.510,-0.070
9529061,-1.192,-0.203,-0.344,-21.000,3.290,1.610
9529082,-1.035,-0.105,-0.127,-12.250,22.960,5.670
9529106,-1.056,-0.051,-0.216,-12.250,30.800,11.200
9529126,-1.180,-0.083,-0.195,-6.510,34.440,12.320
9529150,-1.241,-0.118,-0.174,-3.500,34.720,13.790
9529169,-1.215,-0.148,-0.208,2.800,35.350,10.850
9529188,-1.164,-0.170,-0.208,16.590,41.160,5.810
9529213,-1.159,-0.241,-0.190,10.850,38.500,-6.580
9529232,-1.168,-0.172,-0.190,7.140,39.900,-14.210
9529253,-1.287,-0.048,-0.203,8.190,37.870,-10.710
9529277,-1.336,-0.022,-0.131,5.880,39.900,-4.270
9529297,-1.347,-0.104,-0.065,2.590,39.900,-6.020
9529317,-1.320,-0.103,-0.017,-6.580,28.140,-6.860
9529337,-1.170,-0.064,-0.195,1.820,18.480,-5.460
9529357,-0.948,-0.064,-0.379,16.660,22.260,0.490
9529377,-0.725,-0.133,-0.468,15.750,29.680,6.300
9529402,-0.600,-0.145,-0.543,8.190,31.290,7.070
9529421,-0.565,-0.119,-0.534,0.980,29.750,6.720
9529437,-0.590,-0.063,-0.503,-0.700,31.570,9.310
9529461,-0.644,-0.181,-0.468,30.030,13.300,15.680
9529481,-0.560,-0.272,-0.435,38.850,17.920,15.890
9529498,-0.608,-0.333,-0.271,38.780,13.090,13.160
9529517,-0.625,-0.355,-0.305,48.300,-9.310,7.420
9529542,-0.637,-0.277,-0.482,53.060,-11.060,4.550
9529563,-0.691,-0.180,-0.355,33.670,-11.900,5.600
9529583,-0.747,-0.175,-0.181,39.340,-20.300,8.960
9529601,-0.720,-0.149,-0.321,56.140,-29.540,12.810
9529625,-0.655,-0.110,-0.541,53.760,-26.880,12.460
9529645,-0.640,-0.092,-0.478,39.340,-10.570,12.390
9529666,-0.690,-0.117,-0.254,25.830,-11.130,9.310
9529685,-0.751,-0.106,-0.202,23.380,-20.440,6.650
9529705,-0.725,-0.063,-0.367,23.450,-29.120,8.050
9529723,-0.691,-0.039,-0.407,18.970,-19.880,9.170
9529746,-0.817,-0.104,-0.295,17.640,-15.820,10.710
9529770,-0.875,-0.187,-0.346,14.140,-25.480,6.090
9529789,-0.911,-0.134,-0.387,-3.780,-27.370,5.250
9529807,-0.983,-0.040,-0.331,-19.040,-30.940,7.560
9529830,-1.059,-0.074,-0.346,-1.120,-42.350,10.220
9529850,-1.060,-0.151,-0.360,-9.170,-48.300,11.690
9529869,-1.025,-0.226,-0.320,-12.600,-48.020,13.090
9529894,-1.003,-0.192,-0.230,-11.760,-45.080,14.490
9529911,-0.927,-0.243,-0.191,-8.750,-45.780,16.660
9529932,-0.771,-0.266,-0.289,5.040,-45.640,12.810
9529952,-0.726,-0.089,-0.413,-12.740,-46.830,8.610
9529976,-0.648,0.016,-0.560,-48.860,-23.660,3.710
9529993,-0.666,0.043,-0.438,-79.310,-5.250,-0.140
9530015,-0.709,0.068,-0.360,-83.020,0.840,-1.330
9530035,-0.713,0.077,-0.480,-68.390,10.220,-3.290
9530055,-0.612,0.009,-0.562,-63.210,50.190,-6.790
9530075,-0.760,-0.169,-0.094,-69.720,78.260,-3.780
9530099,-0.965,-0.369,0.100,-48.860,44.730,-19.250
9530119,-1.047,-0.317,-0.102,1.330,27.440,-34.370
9530140,-1.178,-0.284,-0.304,9.590,24.850,-37.450
9530159,-1.512,-0.093,-0.427,-32.620,22.820,-30.940
9530179,-1.622,-0.024,-0.192,-49.630,11.200,-17.430
9530198,-1.362,-0.061,0.016,-7.490,-9.590,-9.240
9530219,-1.062,-0.053,-0.187,21.000,-18.340,-3.500
9530238,-0.930,-0.019,-0.382,18.060,-10.360,5.320
9530259,-0.831,-0.056,-0.288,19.180,7.630,17.290
9530277,-0.757,-0.163,-0.114,26.110,10.710,20.650
9530295,-0.715,-0.168,-0.058,23.030,4.200,18.760
9530314,-0.771,-0.077,-0.140,16.520,-5.740,18.060
9530338,-0.711,0.002,-0.279,29.120,-2.730,23.310
9530359,-0.632,0.020,-0.392,43.820,5.880,28.070
9530376,-0.574,0.004,-0.408,44.100,22.400,27.020
9530401,-0.646,0.009,-0.136,26.390,23.660,26.250
9530420,-0.575,-0.081,-0.231,24.640,-1.540,18.760
9530439,-0.456,-0.053,-0.386,27.370,-0.700,10.360
9530462,-0.493,0.177,-0.345,-12.810,5.460,8.260
9530482,-0.646,0.217,-0.312,-43.470,-8.540,12.250
9530498,-0.694,0.112,-0.374,5.390,-3.640,16.450
9530519,-0.657,0.047,-0.431,46.550,6.440,27.440
9530543,-0.605,-0.011,-0.597,-22.820,8.610,22.540
9530563,-0.703,-0.120,-0.683,-61.950,-10.640,6.650
9530582,-0.825,-0.099,-0.573,-15.190,12.320,-3.990
9530601,-1.000,-0.238,-0.311,30.520,31.640,-1.050
9530626,-1.044,-0.252,-0.280,-7.280,9.800,-7.840
9530645,-1.088,-0.089,-0.362,-33.740,-27.720,-18.830
9530665,-0.985,0.049,-0.385,9.170,-18.410,-13.160
9530685,-0.915,-0.115,-0.199,33.390,-3.990,-2.800
9530705,-0.869,-0.194,-0.253,11.830,-22.120,-13.720
9530725,-0.866,-0.007,-0.366,-3.150,-24.570,-27.580
9530747,-1.022,0.017,-0.214,37.310,-8.470,-20.230
9530767,-1.081,-0.150,-0.120,39.900,-13.790,-20.090
9530791,-1.048,-0.166,-0.216,3.220,-41.160,-35.980
9530809,-0.993,-0.168,-0.334,6.230,-42.280,-46.270
9530829,-1.134,-0.087,-0.323,-14.350,-15.120,-56.140
9530852,-1.500,0.090,0.033,-35.560,-31.080,-50.120
9530873,-1.430,0.152,-0.050,-8.610,-71.190,-24.990
9530894,-1.156,-0.052,-0.480,23.310,-45.920,-8.960
9530913,-1.194,-0.494,-0.160,-8.470,-36.330,-20.230
9530938,-1.397,-0.144,-0.004,-32.620,-53.550,-36.680
9530957,-1.394,0.041,-0.108,-14.700,-56.840,-19.950
9530975,-1.198,-0.138,-0.219,12.320,-49.140,-5.250
9530999,-1.132,-0.253,-0.122,0.000,-37.310,-6.440
9531023,-1.069,-0.198,-0.041,-10.290,-35.980,-17.220
9531043,-1.107,-0.102,0.020,-6.930,-31.850,-14.980
9531062,-1.062,-0.112,-0.005,0.490,-28.980,-8.610
9531080,-0.965,-0.097,-0.110,1.960,-21.420,-3.360
9531100,-0.926,-0.084,-0.033,-5.810,-14.280,-1.680
9531123,-0.895,-0.178,0.062,-5.390,-11.760,-3.150
9531144,-0.969,-0.310,0.017,20.860,-4.270,-0.770
9531165,-1.408,-0.351,-0.207,52.430,-3.080,-8.400
9531184,-1.363,-0.266,-0.219,-88.620,-13.300,-36.470
9531204,-1.409,0.134,0.352,-65.380,-7.770,-7.630
9531222,-1.048,-0.002,0.385,20.930,-1.890,21.980
9531246,-0.720,-0.176,-0.030,31.920,-5.460,30.100
9531266,-0.693,-0.342,-0.116,7.000,7.630,15.820
9531284,-0.915,-0.398,-0.006,-9.170,11.620,-1.260
9531304,-1.163,-0.252,0.115,-3.710,22.680,-9.170
9531326,-1.171,-0.057,0.160,10.430,19.950,2.940
9531344,-1.032,-0.125,0.029,8.890,14.140,11.760
9531368,-1.027,-0.305,-0.044,4.270,20.650,9.800
9531388,-1.083,-0.292,-0.149,-2.450,39.830,4.620
9531410,-1.102,-0.181,-0.023,-19.040,59.710,4.620
9531433,-0.996,-0.237,-0.025,14.910,44.310,10.010
9531452,-0.766,-0.318,-0.421,35.490,55.510,6.020
9531472,-0.952,-0.265,-0.566,21.280,72.170,-0.700
9531492,-1.122,-0.346,-0.561,14.630,78.400,-13.440
9531512,-1.212,-0.420,-0.420,-12.390,84.770,-34.580
9531531,-1.367,-0.281,-0.169,-45.010,69.090,-61.390
9531550,-1.665,-0.166,-0.018,-27.510,46.270,-56.910
9531575,-1.554,-0.107,-0.237,19.250,13.230,-25.900
9531596,-1.249,-0.132,-0.773,23.730,19.810,-11.690
9531614,-1.254,-0.130,-0.554,0.840,34.930,-5.250
9531632,-1.365,-0.209,-0.358,-1.190,27.650,0.210
9531657,-1.357,-0.254,-0.311,6.020,20.160,4.900
9531676,-1.326,-0.131,-0.304,1.680,14.280,9.310
9531696,-1.270,-0.079,-0.329,-4.410,12.040,14.770
9531715,-1.208,-0.126,-0.257,-6.370,12.180,20.930
9531735,-1.275,-0.209,-0.144,-15.540,2.100,24.920
9531759,-1.256,-0.294,-0.132,-6.160,-17.290,26.600
9531777,-1.135,-0.261,-0.253,6.230,-24.080,31.500
9531795,-0.985,-0.243,-0.395,8.400,-25.690,34.090
9531815,-0.820,-0.220,-0.498,1.890,-23.730,34.160
9531834,-0.674,-0.143,-0.561,-14.560,-21.280,28.840
9531859,-0.583,-0.016,-0.534,-32.970,-4.270,20.580
9531878,-0.647,0.008,-0.293,-32.410,8.890,20.300
9531898,-0.671,-0.071,-0.040,-27.650,0.840,17.290
9531921,-0.672,-0.145,0.012,-29.050,-19.950,10.010
9531942,-0.605,-0.113,-0.305,-38.080,-51.030,2.450
9531961,-0.520,-0.037,-0.605,-52.220,-50.960,-2.310
9531982,-0.392,0.127,-0.562,-70.980,-21.420,1.680
9532002,-0.568,0.179,-0.186,-65.100,-9.590,14.560
9532027,-0.686,0.002,-0.064,-42.560,-32.900,16.800
9532045,-0.686,-0.037,-0.326,-47.320,-52.500,7.770
9532065,-0.694,0.082,-0.445,-86.730,-44.660,4.130
9532084,-0.739,0.090,-0.275,-87.710,-32.340,5.880
9532109,-0.795,-0.005,0.035,-31.010,-23.520,15.260
9532127,-0.824,-0.173,0.040,-4.060,-32.550,19.320
9532147,-0.807,-0.247,-0.128,3.150,-42.140,10.780
9532171,-0.810,-0.132,-0.279,-9.870,-38.850,5.110
9532191,-0.891,-0.032,-0.274,-18.550,-26.740,9.800
9532211,-0.917,-0.032,-0.279,-3.220,-16.590,12.530
9532227,-1.038,-0.045,-0.147,12.040,-16.100,17.570
9532251,-1.051,-0.065,-0.072,17.150,-21.700,14.560
9532271,-1.118,0.040,0.010,16.310,-28.490,17.010
9532289,-1.026,0.064,0.005,26.040,-39.970,19.390
9532313,-0.918,0.032,-0.157,44.730,-47.460,21.140
9532332,-0.892,0.021,-0.236,45.850,-31.780,21.350
9532348,-0.916,0.007,-0.136,39.970,-22.540,18.200
9532373,-0.906,0.009,-0.005,43.260,-30.800,10.500
9532390,-0.921,0.054,-0.078,47.250,-35.700,7.350
9532409,-0.966,0.102,-0.195,45.920,-30.450,4.410
9532429,-1.021,0.200,-0.162,29.050,-22.680,1.540
9532454,-1.018,0.154,-0.189,38.430,-22.330,1.750
9532474,-0.937,0.069,-0.248,55.720,-17.430,-1.190
9532494,-0.840,-0.078,-0.323,50.820,-12.390,-8.330
9532515,-0.834,-0.096,-0.371,47.950,2.660,-20.720
9532533,-0.900,-0.024,-0.130,48.160,14.490,-20.020
9532553,-0.785,0.022,0.038,69.440,12.740,-12.320
9532577,-0.608,-0.104,-0.081,131.950,21.560,-2.730
9532593,-0.733,-0.217,-0.260,191.590,48.090,9.380
9532616,-0.994,-0.208,-0.187,158.410,80.290,9.380
9532637,-1.224,-0.161,-0.262,37.730,29.820,-27.930
9532657,-1.299,0.142,-0.565,-8.960,41.860,-42.420
9532677,-1.438,0.349,-0.157,3.570,73.430,-7.700
9532701,-1.345,0.303,0.154,46.060,67.620,23.730
9532719,-1.115,-0.054,0.230,106.330,32.690,27.020
9532744,-1.030,-0.136,-0.030,88.480,8.190,10.080
9532761,-0.952,-0.048,-0.388,43.050,1.820,-3.710
9532782,-0.860,0.076,-0.368,7.840,18.340,-11.200
9532805,-0.862,0.111,-0.206,12.320,23.380,-6.230
9532826,-0.886,0.116,-0.141,7.070,19.670,-3.500
9532842,-0.864,0.122,-0.112,-8.190,12.250,-4.410
9532865,-0.868,0.111,-0.105,-23.170,2.310,-6.790
9532886,-0.883,0.074,-0.234,-26.950,-3.920,-6.510
9532906,-0.854,-0.026,-0.384,-26.740,6.300,-8.680
9532925,-0.902,-0.095,-0.277,-37.870,16.660,-11.760
9532945,-0.963,-0.152,-0.178,-47.390,11.760,-18.060
9532965,-0.979,-0.097,-0.227,-47.180,-0.280,-20.720
9532989,-0.908,-0.137,-0.425,-40.040,-0.630,-17.640
9533010,-0.845,-0.218,-0.469,-42.910,19.530,-21.700
9533028,-0.882,-0.170,-0.285,-59.010,22.610,-29.400
9533049,-0.875,-0.037,-0.345,-56.350,10.360,-22.190
9533069,-0.772,-0.066,-0.465,-21.000,17.990,-12.810
9533091,-0.678,-0.216,-0.735,3.220,31.640,-5.390
9533115,-0.652,-0.407,-0.717,0.840,71.120,-13.230
9533134,-0.749,-0.577,-0.137,-49.840,34.650,-34.020
9533153,-0.730,-0.123,-0.357,-43.960,6.650,-46.690
9533173,-0.732,0.203,-0.611,-17.710,14.980,-24.920
9533197,-0.662,0.124,-0.492,7.140,32.060,4.900
9533213,-0.536,-0.113,-0.509,3.430,35.350,6.650
9533236,-0.687,-0.230,-0.397,-11.970,14.770,-3.290
9533256,-0.688,-0.109,-0.568,-31.010,11.970,-11.270
9533279,-0.631,-0.061,-0.430,-38.570,9.170,-15.680
9533299,-0.646,-0.011,-0.066,-36.820,-12.320,-5.110
9533319,-0.607,0.043,-0.152,10.570,-5.460,16.240
9533343,-0.969,0.140,-0.153,-30.730,-18.130,30.310
9533360,-1.007,0.099,0.061,-30.590,-17.150,29.330
9533384,-0.928,-0.051,0.407,10.080,-29.050,35.210
9533404,-0.913,-0.093,0.085,16.310,-38.430,26.740
9533424,-0.799,0.205,-0.403,-23.590,-34.790,25.130
9533444,-0.820,0.235,-0.531,-22.120,-18.970,28.700
9533468,-1.354,0.165,-0.049,3.080,13.790,33.390
9533488,-1.561,-0.047,-0.117,6.160,-14.140,22.400
9533508,-1.189,-0.041,-0.504,-9.660,-9.940,14.070
9533528,-1.085,-0.017,-0.062,-13.160,-18.200,11.130
9533543,-1.165,0.038,-0.129,4.480,-29.050,10.010
9533568,-1.238,0.090,-0.256,6.720,-28.840,6.300
9533585,-1.258,0.223,-0.116,-5.670,-30.450,11.690
9533609,-1.216,0.154,-0.328,21.350,-40.670,26.810
9533629,-1.197,-0.127,-0.548,33.320,-13.300,19.740
9533649,-1.280,0.072,-0.222,10.080,-14.420,9.450
9533673,-1.201,0.205,-0.447,28.770,-27.440,16.450
9533693,-1.141,0.118,-0.592,14.420,-3.290,13.720
9533711,-1.354,0.074,-0.126,15.820,-6.720,8.120
9533732,-1.343,0.065,-0.120,25.410,-16.380,3.850
9533752,-1.179,0.133,-0.165,-14.700,-30.240,-8.890
9533772,-1.114,0.189,-0.254,-28.980,-18.620,-19.040
9533796,-1.060,0.192,-0.142,-15.050,-15.120,-14.840
9533815,-1.001,0.057,-0.139,-13.230,-9.520,-17.220
9533838,-0.930,0.269,-0.307,-33.810,-6.580,-15.750
9533856,-0.915,0.367,-0.212,-45.990,1.330,-7.910
9533876,-0.959,0.201,-0.003,-36.610,6.020,1.540
9533900,-0.980,-0.054,-0.027,-14.070,-0.910,-6.510
9533920,-0.920,-0.142,-0.186,-20.650,1.050,-16.100
9533935,-0.834,-0.038,-0.185,-29.120,6.370,-24.290
9533959,-0.872,0.118,-0.049,-22.400,11.410,-20.720
9533977,-0.936,0.154,-0.032,-14.350,9.940,-15.050
9533997,-1.324,0.291,-0.381,-26.180,16.800,-16.380
9534016,-1.575,0.055,-0.564,12.810,14.700,-18.410
9534036,-1.368,0.147,0.069,-4.200,50.960,-5.040
9534059,-1.208,0.027,0.073,-3.500,18.340,-9.520
9534080,-0.835,0.097,0.053,-2.660,-4.480,-6.930
9534102,-0.507,-0.014,-0.622,-4.340,18.480,-12.810
9534120,-0.705,0.075,-0.569,-1.680,56.420,-15.470
9534144,-1.237,0.144,-0.196,9.940,68.950,-4.200
9534163,-1.557,0.050,-0.184,12.110,28.000,-0.700
9534183,-1.453,-0.077,-0.526,0.000,4.410,-2.800
9534205,-1.217,-0.139,-0.765,-8.050,7.560,-11.130
9534224,-1.207,-0.185,-0.527,-30.310,14.700,-12.530
9534244,-1.240,-0.238,-0.518,-7.560,5.180,-16.870
9534264,-1.255,-0.057,-0.608,20.160,-5.810,-13.580
9534283,-1.238,0.146,-0.693,18.130,-16.870,-2.870
9534304,-1.312,0.219,-0.508,11.550,-28.770,13.860
9534321,-1.317,0.007,-0.484,10.220,-53.760,18.060
9534341,-1.167,-0.186,-0.584,22.120,-68.250,14.420
9534360,-1.115,-0.201,-0.627,20.860,-76.650,8.120
9534386,-1.249,-0.130,-0.493,17.780,-84.910,8.820
9534405,-1.336,-0.167,-0.445,54.740,-117.390,14.910
9534425,-1.247,-0.188,-0.655,79.310,-144.480,17.920
9534440,-1.249,-0.107,-0.901,75.740,-156.100,23.870
9534465,-1.199,-0.014,-1.065,67.760,-133.770,33.880
9534485,-1.144,-0.064,-1.008,59.920,-99.750,41.230
9534503,-0.974,-0.123,-0.984,59.570,-75.810,42.770
9534522,-0.667,-0.082,-0.944,69.370,-14.910,42.280
9534547,-1.009,-0.609,1.414,-47.320,-136.640,2.170
9534565,-0.431,-0.416,0.323,23.170,-56.700,-54.320
9534584,-0.496,0.536,0.141,8.050,-37.450,-40.460
9534608,-0.168,0.747,0.343,-15.820,5.670,-15.330
9534628,-0.218,0.686,0.074,-17.640,28.000,2.940
9534651,-0.542,0.533,0.084,-81.270,45.850,0.350
9534672,-0.818,0.183,0.305,-91.210,68.740,-4.060
9534690,-0.865,-0.048,0.311,-82.740,83.020,-10.640
9534710,-0.892,-0.035,0.339,-69.930,94.500,-19.390
9534734,-0.909,0.090,0.356,-44.590,87.990,-15.330
9534753,-0.999,0.221,0.282,-33.600,78.330,-7.700
9534773,-1.019,0.200,0.158,-42.420,71.330,3.850
9534797,-1.015,0.107,0.284,-54.110,63.630,8.610
9534812,-1.017,0.038,0.368,-39.130,50.960,11.480
9534837,-0.919,0.079,0.104,-11.690,35.630,23.450
9534857,-0.764,0.005,-0.031,-9.310,35.070,25.410
9534876,-0.727,0.120,0.187,-17.710,33.460,27.790
9534896,-0.765,0.073,0.249,-5.320,13.510,30.730
9534920,-0.704,0.007,-0.061,16.800,12.670,23.660
9534936,-0.737,-0.092,0.124,21.560,30.730,19.670
9534956,-0.813,-0.190,0.068,25.480,17.850,2.030
9534980,-0.722,-0.053,-0.107,28.630,13.440,-16.520
9535000,-0.850,0.133,-0.036,41.510,36.890,-15.680
9535020,-0.969,0.302,-0.008,55.720,34.720,-14.140
9535038,-0.978,0.337,0.040,46.760,34.300,-9.450
9535061,-0.958,0.125,0.127,28.980,17.080,-19.180
9535080,-0.953,0.114,0.077,30.590,9.450,-30.450
9535103,-0.780,0.057,-0.132,33.250,1.890,-43.960
9535123,-0.785,-0.102,-0.106,69.090,30.660,-49.560
9535141,-0.810,-0.160,-0.386,93.100,36.190,-56.910
9535165,-0.824,-0.086,-0.667,73.010,47.320,-58.730
9535181,-1.046,-0.083,-0.569,30.590,33.040,-57.680
9535205,-1.171,-0.040,-0.753,-17.570,19.040,-56.420
9535226,-1.623,0.076,-0.573,-18.270,20.930,-32.410
9535245,-1.480,0.034,-0.437,10.150,3.360,-11.620
9535269,-1.229,0.025,-0.499,15.680,-2.240,6.020
9535289,-1.055,-0.168,-0.388,-1.610,-6.720,6.510
9535311,-0.993,-0.329,-0.314,0.910,-16.240,-1.820
9535330,-0.989,-0.468,-0.238,32.550,-16.730,-7.770
9535354,-0.954,-0.370,-0.348,40.180,-20.790,-16.730
9535375,-0.836,-0.125,-0.511,-2.660,-13.020,-25.130
9535394,-0.798,-0.015,-0.438,-22.750,-8.260,-28.070
9535413,-0.771,0.081,-0.285,-7.350,-2.940,-21.000
9535438,-0.740,0.103,-0.187,23.100,11.760,-9.940
9535458,-0.774,-0.082,-0.219,25.830,5.740,-11.970
9535479,-0.835,-0.204,-0.283,13.090,-2.660,-25.970
9535498,-0.847,-0.257,-0.287,-14.070,-1.820,-36.470
9535517,-0.900,-0.277,-0.113,-22.330,-4.480,-44.660
9535541,-0.949,-0.221,-0.124,-5.670,-8.750,-43.400
9535562,-0.979,-0.173,-0.281,2.170,-10.710,-37.590
9535581,-0.974,-0.205,-0.299,-17.710,-7.490,-39.830
9535600,-1.012,-0.178,-0.111,-30.380,-14.560,-37.800
9535623,-1.061,-0.166,-0.007,-23.380,-25.480,-30.660
9535643,-1.053,-0.107,-0.044,-27.930,-29.400,-24.710
9535666,-0.943,-0.111,-0.135,-43.120,-49.070,-24.150
9535688,-0.853,-0.126,-0.238,-51.380,-48.720,-21.420
9535706,-0.877,-0.130,-0.171,-72.380,-43.120,-16.100
9535727,-0.970,-0.012,0.034,-105.000,-44.940,-6.790
9535743,-0.939,-0.010,-0.054,-81.060,-49.280,2.240
9535766,-0.870,-0.097,-0.212,-57.330,-38.710,16.520
9535787,-0.882,-0.343,-0.142,-63.560,-29.540,11.690
9535805,-1.011,-0.126,0.136,-121.520,-20.370,16.170
9535829,-0.955,0.070,0.042,-121.100,-33.810,30.660
9535848,-0.951,-0.071,-0.341,-36.890,-12.180,45.080
9535870,-1.056,-0.130,-0.667,-5.110,4.970,45.850
9535889,-1.408,-0.306,-0.527,-93.380,7.490,41.930
9535907,-1.493,-0.321,-0.400,-120.820,26.530,43.190
9535931,-1.299,-0.175,-0.336,-68.600,30.450,43.820
9535951,-0.962,-0.249,-0.486,29.120,21.000,38.780
9535971,-0.712,-0.229,-0.683,26.950,24.150,30.520
9535991,-0.622,-0.299,-0.429,-23.100,38.990,17.290
9536009,-0.845,-0.119,-0.279,-13.230,21.350,6.090
9536033,-0.825,0.103,-0.494,24.570,9.940,5.040
9536050,-0.720,0.149,-0.595,21.420,14.700,13.090
9536074,-0.791,0.158,-0.475,7.910,19.390,21.980
9536092,-0.948,0.192,-0.365,17.010,7.140,29.050
9536114,-0.840,0.131,-0.473,37.310,5.740,35.000
9536138,-0.688,0.011,-0.496,37.240,17.500,32.900
9536157,-0.624,-0.167,-0.373,33.670,18.270,23.240
9536177,-0.626,-0.145,-0.346,35.840,13.020,11.130
9536199,-0.675,-0.037,-0.575,29.960,10.500,4.060
9536218,-0.639,0.017,-0.600,27.930,19.390,2.100
9536242,-0.580,0.056,-0.411,31.150,28.560,5.530
9536262,-0.551,0.048,-0.244,33.740,25.480,7.350
9536282,-0.621,0.026,-0.345,37.660,6.230,6.860
9536299,-0.576,-0.026,-0.522,49.140,4.690,3.640
9536323,-0.516,-0.021,-0.592,33.530,18.900,-1.050
9536343,-0.581,0.110,-0.373,-10.710,20.090,-4.410
9536360,-0.699,0.210,-0.270,-21.420,5.740,-1.610
9536384,-0.646,0.036,-0.309,24.220,-11.200,6.020
9536406,-0.542,-0.135,-0.450,59.850,-3.010,7.630
9536429,-0.693,-0.112,-0.443,32.900,10.920,3.640
9536448,-0.920,0.072,-0.211,-6.370,-14.070,-3.570
9536468,-1.028,0.085,-0.108,10.080,-23.240,-1.960
9536486,-0.990,0.031,-0.199,39.550,-26.950,6.510
9536510,-1.033,-0.038,-0.343,36.750,-18.270,11.060
9536530,-1.100,-0.091,-0.280,26.530,-26.740,5.460
9536546,-1.128,-0.057,-0.309,27.440,-31.220,4.130
9536570,-1.146,-0.044,-0.325,22.960,-19.040,3.640
9536590,-1.250,0.073,-0.277,8.750,-24.710,7.980
9536610,-1.228,0.152,-0.390,14.140,-35.770,20.720
9536630,-1.232,0.081,-0.341,27.720,-29.400,32.130
9536650,-1.261,-0.015,-0.216,32.900,-27.370,32.760
9536666,-1.242,0.044,-0.161,23.940,-41.300,29.260
9536690,-1.118,0.050,-0.207,10.850,-49.280,23.730
9536706,-1.111,-0.027,-0.324,22.890,-45.360,20.230
9536730,-1.058,-0.141,-0.398,21.630,-27.370,10.780
9536750,-1.131,-0.048,-0.240,13.720,-20.020,5.670
9536769,-1.234,0.138,-0.157,0.280,-26.600,5.670
9536793,-1.145,0.100,-0.346,11.900,-29.610,9.870
9536811,-1.120,0.049,-0.359,14.280,-21.700,10.220
9536835,-1.109,0.082,-0.264,-5.460,-10.080,4.900
9536854,-1.168,0.169,-0.060,-7.910,-7.070,5.810
9536874,-1.114,0.173,-0.114,12.530,-16.310,11.690
9536895,-0.909,0.101,-0.334,8.120,-9.660,13.650
9536916,-1.075,-0.103,-0.246,22.540,4.480,13.020
9536936,-1.560,-0.035,-0.767,41.300,-6.930,9.870
9536958,-1.677,-0.137,-0.083,-76.650,22.610,2.940
9536977,-1.322,0.242,0.375,-15.470,8.050,4.620
9536999,-0.728,0.306,-0.348,34.580,-1.680,18.690
9537023,-0.636,0.035,-0.496,37.100,24.150,21.910
9537039,-0.866,-0.138,-0.475,26.740,41.720,11.200
9537062,-1.422,-0.089,-0.297,-12.880,35.350,-3.500
9537080,-1.613,0.070,-0.090,-5.390,16.940,-4.830
9537104,-1.383,0.048,-0.077,21.420,-4.970,-3.010
9537124,-1.123,-0.031,-0.379,18.620,-8.470,-18.340
9537144,-1.005,-0.004,-0.396,-10.290,7.000,-28.910
9537162,-1.081,0.148,-0.245,-25.760,4.130,-28.560
9537185,-1.100,0.158,-0.257,-14.980,2.030,-23.380
9537205,-1.120,0.100,-0.278,-0.700,9.310,-21.000
9537222,-1.159,-0.080,-0.209,-5.250,7.280,-24.010
9537246,-1.123,-0.069,-0.218,-9.310,-1.820,-33.600
9537266,-1.071,0.142,-0.336,-5.600,-1.330,-27.020
9537287,-1.080,0.132,-0.349,0.770,7.910,-16.940
9537305,-1.107,0.087,-0.269,4.690,13.440,-13.510
9537323,-1.139,-0.034,-0.164,9.450,11.410,-13.440
9537347,-1.124,-0.071,-0.201,5.530,4.830,-20.860
9537367,-1.159,-0.044,-0.190,12.180,-1.820,-19.670
9537387,-1.156,0.054,-0.207,15.680,8.610,-13.650
9537405,-1.186,0.059,-0.145,16.520,8.540,-6.020
9537425,-1.162,0.044,-0.121,11.760,1.610,-2.100
9537445,-1.157,-0.002,-0.135,4.480,-1.190,-1.260
9537469,-1.217,-0.043,-0.093,2.940,1.540,-1.050
9537486,-1.180,-0.071,-0.058,12.180,-1.120,1.680
9537510,-1.018,-0.064,-0.092,25.480,-24.710,0.350
9537530,-0.882,-0.059,-0.302,14.000,-38.990,-5.040
9537550,-0.832,-0.024,-0.479,-17.080,-24.570,-7.490
9537570,-0.848,0.026,-0.485,-37.800,-8.050,-10.990
9537590,-0.785,0.131,-0.394,-48.720,-1.960,-12.530
9537614,-0.702,0.236,-0.388,-67.200,-6.160,-13.090
9537633,-0.658,0.305,-0.436,-88.200,-4.130,-10.500
9537654,-0.608,0.305,-0.437,-97.860,0.280,-3.640
9537674,-0.597,0.233,-0.385,-87.920,13.790,5.460
9537698,-0.620,0.105,-0.297,-83.860,16.800,8.120
9537718,-0.581,-0.010,-0.255,-81.830,17.430,3.710
9537736,-0.593,-0.097,-0.202,-78.470,20.790,-2.660
9537760,-0.625,-0.142,-0.146,-77.490,13.510,-13.090
9537776,-0.596,-0.149,-0.149,-76.440,0.280,-16.170
9537800,-0.574,-0.126,-0.226,-72.030,-3.220,-23.100
9537821,-0.642,-0.001,-0.275,-73.220,4.760,-24.010
9537840,-0.765,0.072,-0.233,-75.950,14.630,-22.610
9537864,-0.844,0.110,-0.238,-61.600,13.580,-16.100
9537884,-0.889,0.041,-0.329,-35.490,3.920,-15.400
9537899,-0.924,0.023,-0.444,-18.130,9.240,-12.460
9537924,-1.027,-0.054,-0.203,-15.260,25.550,-9.380
9537948,-1.045,-0.121,-0.088,9.590,-9.590,-19.180
9537972,-0.931,-0.098,-0.412,38.430,-31.150,-25.340
9537992,-0.987,0.003,-0.274,58.940,-24.850,-12.880
9538011,-1.058,-0.042,-0.119,67.620,-34.860,-8.470
9538034,-1.074,-0.050,-0.280,88.060,-39.690,-14.980
9538054,-0.987,-0.081,-0.394,104.930,-32.830,-16.100
9538074,-0.801,-0.178,-0.448,113.190,-21.210,-18.060
9538098,-0.693,-0.320,-0.364,113.260,-14.770,-18.620
9538118,-0.813,-0.280,-0.146,64.750,3.920,-16.800
9538138,-1.094,-0.104,-0.144,40.740,-13.650,-12.250
9538162,-1.143,0.175,-0.435,58.870,-0.630,-0.140
9538180,-1.133,0.082,-0.484,86.310,18.550,17.010
9538199,-1.137,-0.189,-0.263,94.080,0.770,24.500
9538224,-1.090,-0.231,-0.062,66.080,5.110,14.070
9538248,-1.092,-0.070,-0.007,59.360,-14.280,12.530
9538268,-0.971,0.098,-0.165,43.960,-14.770,16.800
9538285,-0.919,0.118,-0.230,27.510,-19.460,19.880
9538308,-0.921,0.069,-0.213,9.660,-18.200,23.660
9538325,-0.960,0.024,-0.130,0.490,-25.760,26.600
9538345,-0.972,-0.027,-0.125,0.210,-30.170,26.810
9538364,-0.932,-0.061,-0.206,1.680,-31.570,26.950
9538390,-0.854,-0.060,-0.268,-7.210,-23.800,23.450
9538405,-0.876,-0.056,-0.204,-18.060,-17.430,19.740
9538428,-0.972,-0.071,-0.100,-29.470,-25.340,14.700
9538448,-1.007,-0.161,-0.211,-19.390,-29.470,12.950
9538468,-0.954,-0.217,-0.312,-6.720,-14.490,10.430
9538490,-0.912,-0.291,-0.239,-4.200,-8.260,6.090
9538513,-0.895,-0.241,-0.224,-10.850,-20.510,-3.360
9538532,-0.845,-0.116,-0.383,-5.740,-10.710,-0.700
9538552,-0.873,-0.094,-0.334,0.910,1.610,3.570
9538576,-0.958,-0.142,-0.266,-2.310,1.400,2.100
9538595,-0.988,-0.132,-0.268,-12.950,-6.090,-2.170
9538614,-0.948,-0.100,-0.316,-7.840,-3.640,-3.290
9538638,-0.899,-0.108,-0.338,3.500,-2.660,-0.140
9538657,-0.946,-0.091,-0.206,2.380,8.610,2.030
9538678,-1.063,-0.076,-0.131,6.230,-0.840,4.060
9538693,-1.039,-0.006,-0.120,1.120,-3.360,4.620
9538718,-0.928,-0.026,-0.186,0.210,-5.250,1.960
9538738,-0.866,0.001,-0.212,-6.510,-1.330,2.310
9538756,-0.965,-0.013,-0.231,-12.530,-1.960,1.960
9538778,-1.099,-0.030,-0.092,-1.960,-0.910,1.400
9538799,-1.127,-0.083,0.016,18.130,-1.680,3.290
9538817,-1.098,-0.025,-0.016,18.760,-14.770,3.780
9538842,-1.038,0.153,0.054,3.360,-28.770,22.400
9538862,-1.052,-0.058,-0.080,25.830,-18.760,-0.840
9538881,-1.114,0.067,-0.068,22.750,-11.130,3.500
9538901,-1.128,0.058,-0.068,28.630,-11.760,1.680
9538922,-1.122,0.082,0.061,26.740,-15.330,2.520
9538942,-1.149,0.076,0.146,23.310,-27.020,1.540
9538960,-1.144,0.052,0.108,27.510,-31.990,1.330
9538980,-1.106,-0.005,0.174,30.870,-32.340,2.240
9539003,-0.976,0.067,0.121,26.740,-40.040,-2.520
9539022,-0.881,0.167,0.050,8.050,-22.260,-6.580
9539043,-0.949,0.263,0.246,-5.670,-16.170,-7.700
9539065,-0.890,0.224,0.181,-7.630,-24.570,-5.320
9539086,-0.894,0.106,0.159,-15.540,-18.200,-8.050
9539106,-0.952,0.066,0.163,-12.880,-11.270,-11.690
9539129,-1.048,0.138,0.270,-5.460,7.280,-10.430
9539150,-1.083,0.117,0.181,4.200,12.810,-2.030
9539168,-1.007,0.061,0.132,7.210,18.620,0.840
9539190,-0.959,0.028,0.167,4.900,27.160,-1.890
9539210,-0.960,0.074,0.281,7.560,33.600,-5.110
9539232,-0.995,0.153,0.321,11.900,33.250,-5.110
9539256,-0.895,0.116,0.104,12.250,36.820,-6.160
9539274,-0.840,0.055,0.012,8.120,40.040,-11.620
9539294,-0.880,-0.038,0.073,10.150,47.950,-18.900
9539314,-0.979,-0.013,0.179,21.700,54.530,-22.680
9539338,-1.045,0.075,0.197,23.310,50.610,-20.230
9539357,-0.964,0.130,0.045,18.480,47.740,-19.950
9539377,-0.938,0.106,-0.024,24.220,54.880,-19.880
9539394,-0.946,0.116,-0.141,8.960,60.480,-19.950
9539413,-1.120,0.047,-0.076,-15.890,63.210,-23.450
9539437,-1.171,-0.003,-0.136,1.400,61.740,-22.680
9539456,-1.175,-0.152,-0.386,-9.800,63.490,-26.740
9539475,-1.247,-0.254,-0.281,-17.430,61.110,-31.220
9539494,-1.297,-0.125,-0.236,-9.030,60.060,-22.120
9539519,-1.203,-0.082,-0.281,17.010,60.970,-9.590
9539539,-0.913,-0.124,-0.470,34.370,53.760,-5.880
9539558,-0.696,-0.192,-0.638,39.690,68.040,-6.370
9539583,-0.616,-0.273,-0.489,28.560,76.930,-12.390
9539603,-0.608,-0.351,-0.524,30.100,69.930,-19.390
9539622,-0.628,-0.336,-0.626,35.280,67.340,-20.510
9539646,-0.642,-0.321,-0.714,28.140,59.640,-20.230
9539664,-0.657,-0.211,-0.629,18.270,53.270,-19.950
9539688,-0.707,-0.144,-0.585,9.310,38.920,-16.310
9539708,-0.720,-0.123,-0.586,-0.840,28.420,-13.300
9539731,-0.633,-0.148,-0.580,-6.720,21.700,-9.310
9539752,-0.510,-0.229,-0.539,-14.070,25.060,-10.500
9539776,-0.405,-0.245,-0.470,-24.080,30.100,-11.760
9539796,-0.382,-0.254,-0.411,-17.150,28.770,-9.100
9539815,-0.387,-0.262,-0.472,0.770,24.290,-2.660
9539835,-0.351,-0.193,-0.340,-20.090,18.900,1.400
9539860,-0.361,-0.063,-0.365,-35.700,21.490,2.450
9539880,-0.412,0.067,-0.509,-26.600,21.070,6.930
9539899,-0.473,0.038,-0.635,-18.900,11.480,9.240
9539919,-0.652,-0.204,-0.347,-21.070,-0.840,3.570
9539939,-0.788,-0.356,-0.157,-9.870,-7.070,-3.920
9539959,-0.901,-0.240,-0.245,-18.410,-17.360,-9.030
9539978,-0.844,-0.149,-0.592,-28.630,-37.030,-10.920
9540003,-0.813,-0.124,-0.761,-31.010,-44.450,-12.670
9540023,-0.960,-0.105,-0.359,-33.180,-39.760,-5.600
9540040,-1.063,-0.024,-0.442,-37.380,-31.220,3.220
9540059,-1.079,-0.021,-0.638,-37.660,-29.330,1.050
9540079,-1.031,-0.166,-0.681,-28.700,-46.410,-10.080
9540100,-1.066,-0.290,-0.559,-20.090,-58.240,-18.060
9540123,-1.041,-0.183,-0.394,-40.880,-59.780,-14.770
9540144,-1.151,0.080,-0.309,-46.270,-56.490,-15.680
9540168,-1.035,-0.041,-0.428,-13.020,-49.560,-3.360
9540186,-0.944,-0.363,-0.460,-3.990,-39.830,0.350
9540206,-1.085,-0.352,-0.506,-12.390,-34.790,-3.710
9540230,-1.145,-0.102,-0.509,-21.350,-33.600,-6.090
9540249,-1.105,-0.069,-0.524,-18.200,-32.200,-8.330
9540273,-1.052,-0.307,-0.565,-1.960,-24.500,-13.160
9540293,-1.176,-0.251,-0.529,-7.630,-18.480,-12.740
9540317,-1.210,-0.046,-0.430,-26.320,-18.060,-8.750
9540337,-1.041,-0.053,-0.588,-13.790,-13.160,-4.550
9540355,-1.452,0.083,-0.773,-10.780,-10.780,11.550
9540377,-1.914,-0.553,-1.030,107.520,-24.780,-46.130
9540396,-0.926,-0.216,0.459,-44.730,68.600,-15.470
9540421,-0.914,0.125,0.039,-18.340,-35.910,-13.370
9540439,-0.599,0.072,-0.703,16.240,1.470,-0.840
9540457,-0.543,-0.097,-0.714,13.650,36.750,-4.620
9540477,-0.945,-0.326,-0.571,-21.980,35.700,-18.060
9540501,-1.251,-0.185,-0.251,-31.570,16.520,-15.890
9540521,-1.228,0.022,-0.264,-5.530,14.000,-11.900
9540540,-1.223,-0.072,-0.528,16.240,-0.420,-3.010
9540560,-1.121,-0.241,-0.678,9.660,-4.410,3.570
9540583,-0.961,-0.256,-0.539,-5.460,12.740,0.840
9540604,-1.020,-0.244,-0.392,9.520,11.480,1.330
9540623,-1.136,-0.156,-0.512,18.130,13.370,1.890
9540648,-1.193,-0.111,-0.550,7.490,13.510,3.850
9540667,-1.223,-0.103,-0.414,4.200,10.920,7.210
9540684,-1.230,-0.107,-0.362,6.790,4.200,10.990
9540708,-1.205,-0.146,-0.380,12.810,0.630,10.780
9540727,-1.169,-0.180,-0.345,16.940,4.620,8.890
9540747,-1.121,-0.224,-0.307,13.720,3.430,5.670
9540771,-1.124,-0.186,-0.349,9.940,-3.500,-3.080
9540788,-1.140,-0.129,-0.386,3.780,-5.250,-4.480
9540807,-1.157,-0.096,-0.327,-4.410,6.790,-4.060
9540828,-1.204,-0.063,-0.220,-3.850,7.210,-0.700
9540847,-1.219,-0.058,-0.146,-2.870,1.470,0.000
9540873,-1.164,-0.085,-0.181,2.730,-11.900,-6.300
9540889,-1.052,-0.105,-0.250,6.510,-21.000,-8.330
9540911,-0.898,-0.161,-0.325,13.720,-26.810,-12.390
9540933,-0.678,-0.271,-0.453,31.500,-30.100,-16.730
9540951,-0.523,-0.382,-0.621,55.650,-27.860,-24.010
9540976,-0.322,-0.298,-0.812,47.670,-3.290,-10.780
9540995,-0.374,-0.309,-0.455,20.650,38.500,-5.180
9541015,-0.484,-0.244,-0.304,15.260,27.930,-11.970
9541034,-0.649,-0.131,-0.261,12.740,4.340,-7.840
9541054,-0.676,-0.092,-0.346,18.200,-3.220,-1.120
9541073,-0.666,-0.104,-0.386,34.580,-0.280,5.040
9541096,-0.676,-0.110,-0.364,46.760,5.950,18.550
9541116,-0.726,-0.155,-0.288,47.390,5.180,25.060
9541132,-0.776,-0.188,-0.243,42.560,-1.750,25.830
9541152,-0.758,-0.249,-0.260,37.170,-13.930,23.310
9541178,-0.712,-0.347,-0.394,42.700,-15.120,16.170
9541195,-0.729,-0.316,-0.360,35.700,-1.610,15.680
9541214,-0.767,-0.241,-0.085,12.110,-18.620,17.290
9541239,-0.732,-0.205,-0.155,13.300,-32.270,12.810
9541257,-0.793,-0.153,-0.342,36.330,-37.100,12.670
9541274,-0.719,-0.176,-0.496,41.230,-23.240,14.140
9541300,-0.818,-0.265,-0.276,17.010,-14.350,12.600
9541319,-0.865,-0.219,-0.233,-1.750,-27.300,4.970
9541337,-0.885,-0.142,-0.301,-11.480,-38.430,2.100
9541359,-0.890,-0.091,-0.395,-16.380,-38.640,5.810
9541380,-0.937,-0.061,-0.381,-21.910,-34.720,11.620
9541399,-0.998,-0.122,-0.298,-32.270,-35.840,14.140
9541422,-1.014,-0.099,-0.240,-51.100,-39.900,15.470
9541443,-0.938,-0.067,-0.266,-69.300,-46.900,21.000
9541461,-0.827,-0.046,-0.388,-76.090,-42.140,25.620
9541484,-0.849,-0.013,-0.499,-84.910,-30.870,31.080
9541504,-0.929,-0.038,-0.488,-73.360,-20.790,32.620
9541526,-0.917,-0.146,-0.489,-64.120,-0.560,33.950
9541543,-0.907,-0.098,-0.415,-73.500,18.200,33.810
9541563,-0.828,0.039,-0.419,-88.830,32.760,32.550
9541587,-0.726,0.115,-0.387,-89.950,44.520,30.310
9541606,-0.659,0.117,-0.308,-73.920,44.870,33.110
9541627,-0.751,-0.192,-0.225,-30.380,40.110,29.960
9541647,-0.847,-0.238,-0.365,-2.520,71.120,18.620
9541671,-1.079,-0.247,-0.419,-13.790,40.880,6.790
9541687,-1.081,-0.137,-0.383,-30.520,36.680,-0.420
9541711,-1.056,0.021,-0.302,-34.720,25.130,0.770
9541729,-0.960,0.206,-0.348,-16.310,24.500,11.410
9541752,-0.892,0.203,-0.332,25.690,37.520,22.820
9541770,-0.802,-0.083,-0.256,41.440,41.650,22.890
9541789,-0.774,-0.287,-0.212,36.190,30.100,7.140
9541808,-0.834,-0.179,-0.372,17.920,10.500,-13.160
9541832,-0.918,0.024,-0.455,10.290,14.910,-17.150
9541852,-0.960,0.209,-0.409,8.400,14.210,-10.430
9541873,-0.915,0.226,-0.453,4.970,10.990,-4.900
9541893,-0.918,0.228,-0.441,11.130,16.450,1.120
9541915,-0.959,0.171,-0.361,23.030,20.720,9.030
9541936,-0.953,0.105,-0.355,28.210,8.260,10.990
9541956,-0.901,0.210,-0.486,7.630,-4.060,10.010
9541976,-0.836,0.215,-0.581,-8.260,8.400,14.560
9541999,-0.811,0.125,-0.472,18.760,31.920,23.030
9542019,-0.799,-0.006,-0.391,56.280,27.440,25.760
9542039,-0.764,-0.108,-0.458,54.040,19.810,18.130
9542058,-0.694,-0.162,-0.534,27.230,14.350,8.680
9542082,-0.624,-0.074,-0.564,7.000,18.130,-0.630
9542099,-0.621,-0.013,-0.540,16.660,24.150,-2.940
9542123,-0.605,0.003,-0.415,47.530,36.190,-2.520
9542144,-0.591,-0.186,-0.389,57.890,27.370,-11.200
9542163,-0.537,-0.247,-0.517,29.190,11.970,-28.490
9542187,-0.460,-0.088,-0.603,-12.040,12.530,-40.530
9542206,-0.477,0.038,-0.386,-20.860,20.090,-42.560
9542227,-0.642,0.077,-0.263,-0.490,2.520,-40.530
9542251,-0.725,0.043,-0.614,9.940,-11.270,-43.960
9542268,-0.731,0.069,-0.659,-10.430,-0.420,-41.090
9542291,-0.736,0.123,-0.486,-14.000,7.700,-27.440
9542311,-0.712,0.083,-0.704,-7.140,7.980,-18.270
9542330,-0.854,-0.071,-0.636,17.710,9.310,-11.130
9542350,-1.073,-0.020,-0.225,1.330,-1.470,-3.500
9542369,-1.106,0.099,-0.211,-42.700,-23.380,4.550
9542394,-1.015,0.181,-0.469,9.450,-29.330,31.290
9542413,-0.900,-0.045,-0.424,61.530,-19.810,38.500
9542433,-0.837,-0.324,-0.225,66.150,-21.840,35.700
9542457,-0.794,-0.487,-0.367,43.820,-38.500,11.130
9542476,-0.691,-0.447,-0.629,39.410,-31.080,-10.500
9542501,-0.863,-0.188,-0.394,24.290,-20.510,-26.950
9542518,-1.022,0.009,-0.226,6.300,-36.400,-22.960
9542541,-1.086,0.218,-0.320,6.580,-50.190,-6.370
9542562,-1.188,0.284,-0.484,24.080,-50.330,13.300
9542582,-1.289,0.146,-0.352,30.030,-44.310,23.870
9542601,-1.105,-0.213,-0.359,6.370,-54.880,5.600
9542625,-1.167,-0.008,-0.310,-31.850,-65.520,-0.560
9542644,-1.153,-0.008,-0.299,-12.670,-64.540,0.770
9542664,-1.096,-0.208,-0.402,23.030,-53.480,-4.550
9542684,-1.103,-0.289,-0.510,12.810,-49.630,-15.610
9542705,-1.134,-0.237,-0.451,-17.220,-47.600,-21.000
9542728,-1.130,-0.055,-0.305,-20.720,-35.420,-20.160
9542748,-1.139,-0.007,-0.232,-18.900,-32.060,-19.670
9542768,-1.075,0.106,-0.257,-25.410,-34.020,-14.980
9542792,-1.019,0.087,-0.307,-27.510,-28.000,-6.020
9542811,-1.012,-0.036,-0.306,-20.930,-16.310,-4.690
9542833,-1.007,-0.051,-0.289,-23.660,-8.470,-5.320
9542850,-1.008,-0.036,-0.268,-34.370,-14.280,-4.830
9542874,-1.061,-0.120,-0.176,-22.400,-10.990,-2.380
9542892,-1.030,-0.228,-0.179,2.100,-13.230,-3.010
9542916,-0.947,-0.386,-0.214,33.040,0.980,-12.320
9542935,-1.340,-0.557,-0.583,71.890,-15.190,-24.290
9542954,-1.282,-0.416,-0.771,-54.810,-1.890,-24.290
9542978,-1.254,-0.452,0.514,2.800,23.660,-36.750
9542995,-1.072,-0.257,0.460,89.600,3.990,-38.850
9543013,-0.655,-0.235,-0.007,80.710,-44.030,-42.770
9543033,-0.554,-0.100,-0.682,38.080,-49.140,-63.840
9543053,-0.844,0.173,-0.839,33.600,15.610,-53.200
9543078,-1.296,0.119,-0.256,14.630,61.530,-28.630
9543098,-1.561,-0.132,-0.031,-15.820,30.660,-20.440
9543116,-1.346,-0.206,-0.163,-8.540,1.470,-17.430
9543138,-0.982,-0.376,-0.246,26.950,18.130,-12.180
9543157,-1.042,-0.564,-0.213,44.730,14.980,-17.780
9543181,-1.116,-0.632,-0.498,20.230,-1.400,-32.550
9543201,-1.318,-0.503,-0.329,-13.510,1.540,-42.420
9543226,-1.386,-0.196,-0.256,-20.580,-9.170,-35.210
9543243,-1.311,-0.087,-0.277,0.000,-8.820,-25.550
9543262,-1.203,-0.154,-0.276,2.660,-8.190,-12.250
9543287,-1.156,-0.214,-0.215,-25.270,1.890,-3.360
9543306,-1.128,-0.302,-0.241,-29.330,1.260,-4.620
9543324,-1.108,-0.267,-0.346,-22.960,-0.140,-3.920
9543348,-1.095,-0.276,-0.287,-17.850,12.810,5.460
9543363,-1.135,-0.326,-0.056,-13.860,9.590,10.360
9543386,-1.150,-0.403,-0.102,-12.950,7.420,10.290
9543408,-1.148,-0.349,-0.318,-11.270,6.510,9.800
9543426,-1.093,-0.345,-0.352,-21.350,35.350,10.010
9543450,-1.103,-0.378,-0.201,-24.640,26.880,7.770
9543468,-1.093,-0.373,-0.106,-15.820,16.450,6.160
9543491,-1.036,-0.343,-0.126,-25.130,10.360,5.180
9543507,-0.963,-0.269,-0.187,-29.540,7.140,4.340
9543531,-0.855,-0.213,-0.323,-23.940,9.940,7.700
9543551,-0.763,-0.184,-0.481,-23.100,10.080,10.640
9543569,-0.649,-0.128,-0.598,-37.730,16.520,11.130
9543593,-0.621,-0.063,-0.421,-49.490,28.070,10.850
9543609,-0.653,-0.013,-0.281,-42.630,24.010,12.460
9543632,-0.555,-0.003,-0.431,-39.200,23.590,13.160
9543650,-0.502,-0.029,-0.401,-53.830,25.830,12.950
9543675,-0.517,-0.020,-0.242,-68.600,20.720,10.850
9543695,-0.546,-0.006,-0.192,-67.550,12.460,11.130
9543713,-0.495,-0.036,-0.218,-60.270,5.390,12.390
9543737,-0.468,-0.050,-0.376,-71.610,-6.510,8.610
9543757,-0.525,-0.040,-0.408,-101.570,-2.660,3.570
9543782,-0.662,-0.043,-0.271,-104.440,-3.640,0.560
9543801,-0.785,-0.189,-0.189,-72.380,-5.670,0.350
9543819,-0.845,-0.292,-0.201,-47.670,-9.380,-1.120
9543843,-0.900,-0.328,-0.338,-39.760,-18.340,-5.390
9543864,-0.949,-0.229,-0.355,-42.140,-13.020,-0.630
9543880,-0.909,-0.090,-0.247,-37.870,-10.150,4.270
9543903,-0.909,0.017,-0.196,-24.150,-25.270,12.670
9543923,-0.983,-0.048,-0.324,-7.210,-32.970,15.400
9543944,-1.106,-0.144,-0.378,27.790,-31.290,13.720
9543968,-1.131,-0.159,-0.259,51.170,-35.630,9.870
9543984,-1.024,-0.093,-0.217,56.980,-47.040,9.170
9544008,-0.888,-0.102,-0.341,68.880,-50.890,3.640
9544032,-0.833,-0.114,-0.453,93.310,-31.780,-2.310
9544052,-0.739,-0.173,-0.526,98.910,-7.210,-5.040
9544072,-0.691,-0.148,-0.570,95.760,5.810,-8.120
9544092,-0.598,-0.112,-0.504,73.500,11.270,-8.610
9544108,-0.657,-0.067,-0.470,59.990,14.630,-8.820
9544127,-0.820,0.004,-0.506,55.860,18.760,-5.040
9544152,-0.949,0.007,-0.633,31.150,24.920,1.050
9544172,-0.893,-0.133,-0.495,26.950,29.120,0.210
9544195,-0.909,-0.199,-0.413,36.400,26.320,3.430
9544215,-0.959,-0.220,-0.422,38.570,18.830,6.160
9544234,-0.970,-0.287,-0.393,24.150,13.300,-1.540
9544257,-0.970,-0.192,-0.337,20.230,10.220,-4.480
9544278,-0.970,-0.178,-0.326,30.100,6.650,0.210
9544302,-0.907,-0.201,-0.420,34.300,3.640,2.380
9544322,-0.840,-0.220,-0.439,19.600,11.690,0.210
9544340,-0.837,-0.109,-0.372,-0.490,13.580,-1.190
9544364,-0.872,-0.029,-0.364,-6.580,12.740,2.590
9544383,-0.861,-0.040,-0.358,8.680,10.710,9.940
9544403,-0.829,-0.099,-0.440,17.500,12.180,15.960
9544423,-0.802,-0.165,-0.547,11.130,20.020,15.470
9544447,-0.787,-0.182,-0.540,-0.350,33.880,12.110
9544468,-0.761,-0.155,-0.470,-12.530,34.090,12.390
9544485,-0.749,-0.097,-0.390,-12.460,31.220,14.560
9544504,-0.745,-0.161,-0.410,0.980,23.310,18.130
9544529,-0.727,-0.271,-0.555,15.260,38.220,16.380
9544549,-0.735,-0.258,-0.401,-4.130,42.490,6.160
9544569,-0.674,-0.097,-0.245,-29.050,18.200,-8.050
9544593,-0.578,-0.014,-0.450,-17.640,0.490,-3.430
9544614,-0.392,-0.039,-0.629,3.500,25.340,8.260
9544630,-0.427,-0.105,-0.370,-7.770,44.030,11.130
9544653,-0.553,-0.012,-0.118,-57.470,9.730,1.400
9544673,-0.505,0.029,-0.318,-47.250,-9.800,5.110
9544697,-0.443,-0.123,-0.465,5.250,11.340,26.810
9544717,-0.509,-0.199,-0.462,-21.420,6.090,19.530
9544733,-0.524,-0.224,-0.495,-63.490,4.130,4.970
9544756,-0.613,-0.242,-0.447,-35.420,6.650,2.310
9544777,-0.675,-0.162,-0.699,18.480,14.560,8.470
9544797,-0.809,-0.081,-0.729,-39.970,27.020,4.340
9544817,-1.034,0.147,-0.211,-58.940,18.690,-2.030
9544836,-1.289,0.263,-0.024,-11.270,-0.210,12.810
9544853,-1.125,0.018,-0.233,40.670,-23.240,19.320
9544877,-0.906,-0.208,-0.774,10.920,-23.590,4.060
9544897,-1.010,-0.204,-0.403,-31.570,-4.970,-12.950
9544915,-1.055,0.038,-0.278,-29.050,-19.460,-16.800
9544934,-1.090,0.146,-0.491,-8.750,-18.270,-3.080
9544954,-1.170,0.103,-0.496,1.120,-13.860,8.820
9544979,-1.163,-0.025,-0.491,10.080,-9.660,17.570
9544999,-1.083,-0.169,-0.524,19.180,-17.360,12.810
9545018,-0.951,-0.030,-0.551,-2.030,-29.750,11.550
9545041,-0.892,0.181,-0.550,-27.720,-24.640,10.360
9545061,-0.947,0.323,-0.482,-28.910,-16.030,13.790
9545081,-1.018,0.125,-0.438,-8.610,-3.430,17.430
9545101,-1.024,-0.134,-0.556,13.160,-2.800,21.840
9545124,-1.156,-0.244,-0.556,2.240,-8.120,12.670
9545145,-1.184,0.011,-0.423,-4.200,-18.480,10.010
9545160,-0.972,0.070,-0.584,11.970,-3.710,12.670
9545183,-0.875,0.051,-0.697,11.550,3.780,16.730
9545203,-0.998,0.055,-0.580,-9.940,1.750,15.120
9545223,-1.193,0.120,-0.386,-20.370,-6.300,10.010
9545246,-1.095,0.129,-0.389,-5.110,-9.520,2.940
9545264,-1.056,0.049,-0.429,0.700,-9.100,1.680
9545282,-1.064,-0.002,-0.365,-4.200,-31.080,1.260
9545301,-1.000,-0.052,-0.336,-0.630,-48.300,-0.700
9545324,-0.897,0.012,-0.496,5.670,-22.820,0.140
9545348,-0.948,0.118,-0.548,3.150,-1.890,4.690
9545368,-1.113,0.198,-0.627,-9.590,-9.730,11.830
9545387,-1.439,-0.232,-0.905,14.630,-6.860,-3.920
9545407,-1.119,0.107,-0.378,56.700,-6.230,-14.490
9545426,-0.896,-0.074,-0.122,15.330,11.970,0.000
9545449,-0.899,0.038,-0.523,-6.370,-4.130,-5.180
