Millis,AccelX,AccelY,AccelZ,GyroX,GyroY,GyroZ
159674149,-0.929,-0.409,0.102,3.290,-18.690,-26.670
159674171,-0.967,-0.379,0.106,20.160,-13.370,-26.040
159674191,-0.976,-0.291,0.098,25.830,-11.410,-23.030
159674215,-0.982,-0.259,0.120,15.680,-14.420,-20.230
159674235,-0.989,-0.251,0.111,-11.410,-20.440,-22.890
159674253,-0.991,-0.282,0.117,-23.380,-24.570,-22.750
159674276,-0.955,-0.303,0.122,-31.990,-27.300,-20.440
159674296,-0.943,-0.315,0.120,-37.660,-27.510,-18.900
159674316,-0.946,-0.342,0.144,-38.500,-27.020,-16.520
159674340,-0.939,-0.346,0.143,-37.240,-27.160,-13.300
159674358,-0.929,-0.350,0.136,-39.200,-25.060,-10.990
159674380,-0.937,-0.414,0.150,-33.880,-21.770,-9.030
159674401,-0.941,-0.422,0.142,-18.900,-18.060,-4.690
159674419,-0.931,-0.399,0.143,-12.950,-14.770,-2.310
159674444,-0.941,-0.404,0.154,-10.430,-13.440,-1.750
159674460,-0.925,-0.381,0.147,-11.690,-12.740,-0.350
159674480,-0.920,-0.401,0.156,-12.670,-12.390,1.190
159674503,-0.924,-0.390,0.156,-13.860,-13.650,2.940
159674524,-0.915,-0.396,0.147,-20.930,-14.140,2.100
159674543,-0.906,-0.435,0.143,-18.270,-12.460,2.240
159674563,-0.900,-0.455,0.142,-10.710,-9.520,2.380
159674587,-0.900,-0.470,0.143,-1.400,-4.970,1.960
159674607,-0.898,-0.479,0.142,5.740,-1.400,1.120
159674626,-0.892,-0.485,0.143,13.300,1.680,-0.070
159674647,-0.879,-0.495,0.153,21.490,5.530,-1.120
159674667,-0.870,-0.509,0.163,32.620,9.100,-1.960
159674685,-0.864,-0.543,0.168,46.830,13.090,-2.450
159674708,-0.887,-0.559,0.177,63.980,17.500,-3.080
159674728,-0.904,-0.496,0.181,78.540,17.430,-3.500
159674752,-0.901,-0.452,0.175,73.080,15.820,-7.700
159674772,-0.909,-0.419,0.171,65.730,14.070,-10.710
159674787,-0.915,-0.451,0.165,66.360,12.880,-11.620
159674807,-0.909,-0.430,0.164,69.300,13.090,-11.760
159674832,-0.927,-0.404,0.159,68.950,12.950,-16.310
159674848,-0.943,-0.396,0.166,71.330,13.650,-18.130
159674872,-0.961,-0.372,0.175,72.940,12.250,-18.550
159674887,-0.958,-0.352,0.169,72.100,11.480,-17.710
159674912,-0.950,-0.374,0.163,74.130,12.460,-14.840
159674928,-0.959,-0.364,0.164,76.860,13.720,-13.090
159674951,-0.967,-0.327,0.171,76.370,16.170,-7.770
159674971,-0.963,-0.296,0.201,68.670,18.270,-3.780
159674990,-0.959,-0.302,0.224,61.810,18.900,-0.210
159675012,-0.953,-0.345,0.213,62.790,20.230,4.200
159675031,-0.936,-0.326,0.199,68.390,22.470,7.420
159675056,-0.939,-0.302,0.203,65.800,23.100,10.220
159675074,-0.954,-0.285,0.215,62.510,22.120,11.690
159675094,-0.974,-0.251,0.212,47.250,18.830,11.410
159675117,-0.976,-0.274,0.219,30.310,14.770,11.340
159675138,-0.971,-0.305,0.223,21.840,13.370,12.180
159675158,-0.959,-0.327,0.221,19.880,13.090,14.070
159675178,-0.953,-0.305,0.218,13.580,12.180,13.720
159675198,-0.951,-0.311,0.219,6.930,11.270,12.810
159675218,-0.946,-0.316,0.224,2.730,10.150,12.530
159675238,-0.946,-0.319,0.219,0.700,9.240,12.320
159675255,-0.947,-0.317,0.217,-3.150,8.400,11.130
159675279,-0.963,-0.328,0.215,-5.180,6.860,10.430
159675299,-0.950,-0.328,0.213,-5.040,6.790,9.870
159675317,-0.960,-0.317,0.204,-7.630,6.790,8.610
159675341,-0.975,-0.313,0.206,-13.790,5.600,7.140
159675361,-0.970,-0.306,0.207,-21.280,3.850,5.530
159675380,-0.959,-0.304,0.205,-30.170,1.960,2.660
159675400,-0.963,-0.294,0.193,-42.840,-1.050,-0.980
159675420,-0.956,-0.244,0.155,-63.490,-6.230,-5.950
159675442,-0.929,-0.314,0.156,-79.450,-10.080,-9.590
159675461,-0.916,-0.345,0.150,-81.340,-11.550,-11.760
159675486,-0.925,-0.360,0.134,-89.880,-14.140,-18.410
159675501,-0.922,-0.352,0.115,-93.940,-14.910,-20.860
159675521,-0.922,-0.332,0.080,-105.700,-16.450,-26.180
159675541,-0.914,-0.394,0.067,-112.770,-16.170,-28.910
159675561,-0.915,-0.452,0.066,-102.970,-13.440,-30.030
159675586,-0.983,-0.394,0.089,-100.380,-12.390,-30.870
159675605,-0.950,-0.361,0.102,-116.760,-13.580,-30.800
159675628,-0.860,-0.529,0.015,-107.660,-9.660,-32.410
159675645,-0.835,-0.592,0.015,-78.680,2.940,-28.070
159675669,-0.842,-0.544,-0.001,-38.920,17.780,-19.530
159675689,-0.899,-0.550,0.142,-13.860,25.760,-10.430
159675709,-1.156,-0.483,0.404,-16.660,-6.580,-5.390
159675726,-1.124,-0.246,0.441,-14.280,-21.980,-1.050
159675748,-0.974,-0.330,0.247,-61.600,-28.140,-8.400
159675766,-0.880,-0.493,0.124,-65.590,-0.700,-11.130
159675785,-0.843,-0.696,0.070,-24.010,-7.280,-8.540
159675810,-0.995,-0.750,0.058,27.930,9.660,-0.490
159675829,-0.888,-0.570,0.012,85.680,14.980,3.360
159675852,-0.905,-0.435,-0.019,80.430,14.840,1.470
159675873,-0.907,-0.436,-0.036,63.560,14.560,0.630
159675893,-0.912,-0.447,-0.013,54.950,15.190,-0.630
159675914,-0.903,-0.481,0.003,56.980,15.610,-0.140
159675931,-0.911,-0.395,0.006,53.340,13.160,-0.420
159675955,-0.919,-0.341,0.019,24.010,6.440,-2.660
159675975,-0.922,-0.370,0.029,8.400,0.840,-3.500
159675991,-0.922,-0.395,0.035,-0.630,-2.730,-3.780
159676010,-0.912,-0.407,0.031,-9.450,-4.340,-3.430
159676035,-0.918,-0.449,0.033,-11.830,-3.850,-2.240
159676054,-0.918,-0.473,0.041,-9.590,-2.030,-1.540
159676073,-0.921,-0.501,0.040,-5.810,0.140,-1.540
159676092,-0.902,-0.494,0.034,1.400,3.570,-1.610
159676116,-0.905,-0.496,0.083,9.800,4.340,-0.350
159676135,-0.911,-0.445,0.077,11.060,3.710,0.140
159676156,-0.914,-0.438,0.088,1.050,1.610,-1.960
159676180,-0.909,-0.467,0.068,0.070,2.030,-0.910
159676199,-0.902,-0.472,0.054,2.100,3.780,0.420
159676219,-0.905,-0.472,0.050,5.390,5.810,3.640
159676241,-0.910,-0.470,0.038,6.860,7.910,5.670
159676260,-0.901,-0.469,0.037,5.460,9.870,5.950
159676280,-0.906,-0.498,0.053,5.670,10.780,5.250
159676304,-0.905,-0.489,0.034,10.710,12.600,6.090
159676325,-0.897,-0.476,0.027,9.170,13.790,5.180
159676343,-0.897,-0.495,0.027,10.570,14.770,5.180
159676360,-0.901,-0.495,0.027,15.540,15.960,6.650
159676382,-0.913,-0.463,0.019,18.200,16.240,7.770
159676401,-0.901,-0.453,0.009,14.770,16.520,7.770
159676421,-0.899,-0.482,0.000,17.360,18.200,10.080
159676441,-0.944,-0.485,-0.018,21.910,18.690,11.760
159676463,-0.973,-0.444,-0.034,19.810,15.820,11.410
159676486,-0.933,-0.422,-0.024,14.980,14.070,10.360
159676510,-0.911,-0.404,-0.013,11.480,13.370,10.990
159676531,-0.905,-0.415,0.124,7.700,11.060,11.620
159676548,-0.923,-0.429,0.005,7.280,8.260,11.550
159676572,-0.941,-0.422,0.001,5.600,3.990,10.360
159676592,-0.950,-0.426,0.000,3.640,1.540,9.310
159676608,-0.957,-0.427,-0.005,1.890,-0.070,8.330
159676632,-0.969,-0.429,-0.006,3.150,-2.030,9.240
159676652,-0.988,-0.410,-0.009,2.520,-3.850,8.960
159676667,-0.986,-0.400,-0.007,2.450,-5.600,8.750
159676692,-0.953,-0.357,0.000,-1.890,-7.560,7.420
159676710,-0.948,-0.351,0.006,-4.480,-8.190,6.580
159676734,-0.953,-0.350,0.013,-7.280,-8.960,5.320
159676755,-0.943,-0.365,0.021,-6.300,-8.330,5.040
159676773,-0.929,-0.376,0.031,-3.850,-7.210,4.690
159676791,-0.930,-0.384,0.038,0.490,-6.160,4.200
159676814,-0.948,-0.375,0.037,4.620,-6.020,2.450
159676834,-0.962,-0.354,0.034,3.850,-7.630,0.420
159676855,-0.946,-0.353,0.043,4.130,-8.330,-1.820
159676871,-0.949,-0.362,0.041,6.300,-8.120,-2.240
159676891,-0.964,-0.351,0.045,8.680,-8.470,-2.520
159676914,-0.962,-0.347,0.038,6.720,-9.100,-3.990
159676936,-0.959,-0.363,0.030,5.530,-9.870,-4.760
159676953,-0.944,-0.371,0.021,5.670,-9.030,-4.620
159676977,-0.941,-0.385,0.010,7.560,-7.210,-3.570
159676995,-0.936,-0.387,0.011,8.120,-5.950,-3.710
159677015,-0.916,-0.394,0.006,8.680,-4.690,-4.060
159677040,-0.913,-0.395,0.001,13.790,-1.330,-1.820
159677058,-0.941,-0.375,-0.007,15.750,-0.840,1.540
159677082,-0.967,-0.343,-0.018,9.870,-3.080,3.850
159677097,-0.976,-0.341,-0.019,-1.190,-4.410,3.990
159677122,-0.976,-0.370,-0.004,-7.070,-5.180,3.570
159677140,-0.969,-0.380,0.022,-3.220,-5.040,4.060
159677162,-0.980,-0.340,0.047,3.710,-6.650,5.040
159677185,-0.968,-0.283,0.052,0.140,-9.310,4.830
159677206,-0.974,-0.273,0.026,-13.230,-12.880,3.500
159677225,-1.004,-0.290,0.010,-18.060,-14.910,3.430
159677248,-1.007,-0.287,0.007,-22.260,-15.750,3.220
159677266,-1.033,-0.297,0.018,-22.890,-16.660,3.990
159677290,-1.032,-0.289,0.049,-24.080,-19.880,3.990
159677310,-0.999,-0.280,0.072,-31.500,-23.310,1.820
159677334,-0.962,-0.305,0.085,-37.520,-25.480,-2.800
159677354,-0.897,-0.346,0.112,-38.850,-26.110,-7.350
159677370,-0.846,-0.368,0.122,-35.070,-24.850,-10.640
159677389,-0.827,-0.332,0.119,-29.890,-31.640,-9.170
159677415,-0.687,-0.309,0.168,-28.490,-11.760,-4.550
159677432,-0.629,-0.349,0.270,-13.020,-10.150,0.770
159677456,-0.506,-0.286,0.456,27.160,-3.850,15.470
159677476,-0.407,-0.047,0.613,61.180,-8.680,23.030
159677496,-0.301,0.261,0.785,73.850,-32.340,36.610
159677516,-0.137,0.227,0.648,-1.890,-40.880,40.810
159677536,-0.840,-0.394,0.901,73.010,-28.070,71.610
159677552,-1.610,-0.076,1.331,135.240,-38.080,122.010
159677576,-2.626,0.541,1.558,76.440,-35.770,138.670
159677591,-3.492,0.642,1.680,-81.830,-187.600,90.790
159677616,-3.408,-0.045,1.707,-107.590,-241.150,57.470
159677635,-4.106,-0.605,1.373,-13.160,-230.160,75.530
159677658,-4.554,-0.490,1.108,49.700,-293.370,106.260
159677679,-4.012,-0.272,0.918,-12.110,-314.650,105.070
159677697,-3.348,-0.182,0.640,-91.000,-335.300,73.500
159677719,-2.412,-0.379,0.358,-168.140,-371.070,32.480
159677741,-1.658,-0.492,0.081,-186.760,-388.150,-15.610
159677761,-0.895,-0.601,0.079,-116.130,-362.530,-26.040
159677781,-0.768,-0.581,0.178,30.870,-303.800,3.640
159677801,-0.987,-0.403,0.061,82.530,-292.320,38.920
159677825,-0.938,-0.443,-0.089,79.940,-294.840,38.990
159677840,-0.936,-0.374,-0.214,55.160,-300.720,27.790
159677865,-0.999,-0.337,-0.284,12.740,-304.220,10.010
159677884,-0.984,-0.333,-0.322,-9.870,-307.440,-6.090
159677902,-1.057,-0.464,-0.329,-22.890,-306.390,-23.310
159677921,-1.149,-0.495,-0.364,-19.670,-313.530,-41.440
159677946,-1.109,-0.396,-0.479,-56.000,-328.230,-78.120
159677963,-0.974,-0.312,-0.506,-86.240,-335.090,-116.760
159677988,-0.931,-0.196,-0.567,-139.090,-346.360,-170.520
159678005,-0.875,-0.214,-0.558,-160.510,-347.410,-209.090
159678025,-0.637,-0.288,-0.499,-114.870,-323.050,-224.420
159678048,-0.159,0.168,-0.475,-33.460,-294.560,-216.440
159678067,0.607,0.703,-0.638,18.270,-248.850,-174.300
159678084,1.750,1.271,-0.711,115.850,-222.740,-112.350
159678109,2.324,1.409,-0.664,134.960,-33.530,-0.630
159678129,2.333,1.721,-1.092,88.060,26.250,52.290
159678148,2.604,1.671,-1.488,-3.290,104.160,75.740
159678171,2.514,1.324,-1.203,86.590,232.960,126.910
159678190,1.795,1.302,-0.541,209.860,359.660,168.560
159678212,0.829,1.038,-0.269,224.420,403.900,167.230
159678229,0.249,0.651,-0.434,194.040,414.470,149.870
159678253,-0.191,0.273,-0.813,163.940,481.180,137.690
159678268,-1.083,-0.008,-0.952,154.070,503.720,135.170
159678293,-1.964,0.097,-0.840,114.660,407.960,113.330
159678313,-1.656,-0.047,-0.693,-34.930,360.710,68.390
159678333,-1.246,-0.229,-0.774,-82.040,359.590,51.940
159678352,-1.601,-0.283,-0.619,-134.540,361.130,50.890
159678371,-1.893,-0.583,-0.495,-170.590,345.660,39.480
159678390,-1.925,-0.681,-0.472,-193.410,334.950,29.050
159678415,-1.574,-0.863,-0.404,-188.860,326.830,23.450
159678433,-1.436,-0.999,-0.394,-136.570,332.220,27.860
159678457,-1.516,-0.812,-0.336,-70.210,345.100,16.870
159678477,-1.478,-0.589,-0.296,-96.180,320.950,-0.560
159678492,-1.387,-0.585,-0.321,-147.630,303.380,-8.120
159678517,-1.317,-0.730,-0.142,-189.980,275.590,-2.870
159678537,-1.117,-0.868,0.285,-218.190,230.370,-0.560
159678557,-0.906,-1.801,1.023,-130.900,337.960,63.770
159678577,-3.486,-2.139,0.997,108.500,439.740,84.350
159678597,-4.147,-1.194,2.170,145.740,233.940,26.460
159678614,-4.189,-0.863,2.982,163.310,199.080,-21.490
159678637,-4.088,-0.380,3.746,199.920,61.810,31.780
159678656,-5.452,2.018,2.916,42.140,-4.900,24.150
159678680,-4.970,-0.865,1.675,-8.680,-178.710,32.760
159678695,-4.342,-0.097,1.427,-65.100,-215.460,23.730
159678720,-3.798,-0.927,0.741,-150.290,-312.830,-21.490
159678735,-2.768,-1.497,0.759,-24.710,-274.330,0.560
159678755,-2.132,-1.098,0.618,69.720,-264.880,16.590
159678780,-1.383,-0.658,0.562,56.980,-290.080,-8.190
159678799,-0.933,-0.517,0.622,28.980,-306.740,-23.730
159678817,-0.678,-0.653,0.539,32.690,-308.140,-36.680
159678837,-1.073,-0.851,0.128,82.880,-301.350,-55.510
159678861,-1.423,-0.809,-0.171,134.680,-308.490,-71.050
159678881,-1.572,-0.592,-0.334,188.370,-304.080,-52.430
159678901,-1.510,-0.222,-0.435,163.520,-321.720,-46.270
159678919,-1.439,-0.169,-0.278,69.090,-339.430,-45.990
159678936,-1.383,-0.366,-0.298,15.820,-348.110,-62.720
159678961,-1.457,-0.446,-0.332,-14.420,-353.780,-77.630
159678980,-1.420,-0.281,-0.417,-51.240,-364.630,-94.430
159679003,-1.423,-0.405,-0.419,-82.110,-364.910,-130.200
159679023,-1.479,-0.319,-0.366,-108.360,-374.010,-174.440
159679044,-1.353,-0.224,-0.418,-154.280,-383.040,-235.270
159679064,-1.166,-0.139,-0.456,-165.830,-367.990,-259.840
159679084,-0.602,0.126,-0.512,-168.630,-341.740,-267.680
159679104,0.751,0.762,-0.710,-137.410,-332.220,-253.610
159679124,2.700,1.011,-0.439,4.550,-139.230,-152.600
159679148,2.268,1.322,-1.000,287.490,89.670,35.420
159679166,2.237,1.330,-1.427,341.110,199.430,88.690
159679188,2.105,2.465,-1.018,300.020,263.270,116.550
159679210,1.064,2.321,-0.534,116.970,287.840,105.910
159679229,0.309,1.565,-0.300,-25.830,307.020,102.970
159679252,-0.259,0.577,-0.440,-65.730,326.200,126.420
159679273,-0.762,0.040,-0.896,-19.600,407.820,172.060
159679293,-1.613,-0.608,-1.239,86.800,411.670,196.980
159679314,-1.919,-0.543,-1.246,153.860,414.680,185.500
159679334,-1.548,-0.277,-1.105,118.160,438.830,141.960
159679354,-2.064,0.175,-1.129,-2.660,466.340,119.560
159679374,-2.479,-0.105,-1.024,-176.470,418.810,85.330
159679393,-2.622,-0.917,-0.409,-183.680,369.040,72.450
159679412,-1.804,-0.879,-0.208,-120.120,359.870,47.040
159679436,-1.535,-0.836,-0.550,-43.260,381.640,14.770
159679458,-1.966,-0.739,-0.740,-19.810,387.310,-6.930
159679480,-2.350,-0.521,-0.012,-36.050,358.470,-19.670
159679500,-1.775,-0.130,0.154,-146.510,313.320,-41.090
159679520,-1.653,-1.066,0.664,-191.870,293.860,-24.080
159679540,-1.632,-1.305,1.346,-38.570,306.600,21.210
159679564,-2.611,-1.458,1.544,102.830,338.100,24.710
159679588,-3.842,-1.033,2.106,230.790,251.020,-2.170
159679608,-4.760,-0.807,4.111,562.380,21.910,128.030
159679626,-7.466,5.638,0.916,152.250,66.430,25.760
159679646,-3.782,-0.255,2.447,-467.040,8.680,-115.150
159679665,-5.309,-2.039,0.383,99.610,-182.700,95.550
159679689,-3.259,0.447,0.532,19.530,-246.750,49.560
159679713,-2.731,-0.381,0.342,-124.320,-281.750,-41.440
159679733,-1.933,-0.210,0.568,-136.850,-357.700,-72.450
159679753,-1.044,-0.355,0.644,-104.300,-381.150,-97.300
159679772,-0.402,-0.712,0.671,7.560,-306.530,-83.300
159679793,-0.863,-0.584,0.350,105.980,-289.240,-64.540
159679813,-1.264,-0.447,0.176,160.440,-304.010,-57.120
159679833,-1.647,-0.294,-0.050,158.550,-310.100,-55.930
159679857,-1.794,-0.187,-0.227,114.100,-357.910,-63.350
159679877,-1.374,-0.224,-0.174,52.850,-369.740,-77.980
159679896,-1.563,-0.324,-0.060,35.140,-390.600,-79.730
159679915,-1.969,-0.103,-0.201,-55.090,-438.620,-90.230
159679932,-1.990,0.020,-0.537,-205.100,-515.480,-144.270
159679956,-1.427,-0.581,-0.513,-291.550,-508.200,-241.710
159679976,-1.474,-1.266,-0.033,-154.070,-437.010,-263.410
159679998,-1.549,-0.956,0.158,37.590,-380.520,-251.440
159680020,-1.337,-0.330,0.086,109.270,-354.200,-234.920
159680040,-0.558,0.529,-0.656,95.830,-339.920,-196.980
159680062,1.334,1.022,-0.384,0.280,-396.690,-169.470
159680082,2.619,0.169,-0.579,96.530,-94.640,-111.930
159680106,1.796,1.675,-1.486,177.310,-7.420,-12.810
159680125,2.574,2.086,-1.377,101.080,136.640,9.380
159680145,1.740,1.685,-1.036,161.980,228.410,72.520
159680168,0.985,1.735,-0.714,136.290,265.720,124.530
159680189,0.549,1.398,-1.282,-3.220,357.420,154.770
159680207,-0.279,0.671,-1.681,-16.170,413.070,196.070
159680231,-1.388,-0.079,-1.598,41.300,459.760,245.070
159680251,-1.779,-0.562,-1.313,130.200,443.940,235.760
159680271,-1.615,-0.468,-1.024,172.620,439.320,180.600
159680291,-1.802,-0.249,-0.799,54.110,413.070,88.830
159680306,-2.135,-0.285,-0.874,-58.520,398.860,20.720
159680329,-2.576,-0.687,-0.647,-218.540,344.190,-30.450
159680349,-1.988,-0.948,-0.339,-244.720,325.010,-28.700
159680372,-1.730,-1.025,-0.429,-224.910,333.270,-8.820
159680393,-1.706,-1.081,-0.408,-169.890,352.310,12.530
159680413,-1.769,-0.902,-0.342,-138.950,350.700,27.930
159680437,-1.665,-0.715,-0.301,-158.690,341.460,29.330
159680457,-1.584,-0.697,0.131,-175.700,314.300,46.480
159680477,-1.185,-0.838,0.522,-189.700,319.830,87.500
159680497,-1.728,-1.030,0.510,-167.020,342.650,143.080
159680516,-2.924,-1.214,0.754,-191.030,366.730,163.520
159680541,-5.088,-2.438,2.294,-151.970,249.620,49.140
159680561,1.959,-1.901,12.551,1275.610,59.080,-42.770
159680581,-5.956,3.388,-3.096,-85.890,92.120,-84.420
159680601,-4.142,-0.295,0.420,-340.620,-278.180,-104.650
159680621,-4.338,-2.840,0.802,-147.070,-271.810,-62.230
159680640,-2.958,-1.988,0.786,97.860,-189.700,-55.650
159680660,-3.197,-0.285,0.538,116.060,-258.300,-59.710
159680684,-1.752,-0.585,0.794,-58.940,-334.110,-109.900
159680707,-0.680,-1.342,0.873,54.460,-361.480,-114.240
159680727,-0.727,-0.633,0.878,192.780,-250.880,-70.840
159680750,-1.622,-0.622,0.365,149.170,-294.070,-100.100
159680770,-2.066,-0.932,-0.094,190.820,-317.310,-113.820
159680790,-2.231,-0.723,-0.385,182.630,-341.600,-128.170
159680814,-1.957,-0.529,-0.233,98.420,-390.530,-162.680
159680834,-1.681,-0.938,-0.273,87.850,-380.310,-175.280
159680853,-1.908,-0.896,-0.453,131.320,-373.590,-162.820
159680877,-2.161,-0.624,-0.554,109.200,-375.760,-136.220
159680895,-2.405,-0.638,-0.524,52.780,-378.140,-144.340
159680919,-2.557,-0.430,-0.697,-25.340,-419.020,-213.570
159680937,-2.131,-0.372,-0.448,-75.600,-431.130,-266.350
159680961,-2.143,-0.274,-0.246,-16.450,-429.380,-307.930
159680981,-1.851,0.021,-0.560,30.940,-415.310,-297.290
159681000,-1.179,0.565,-0.938,66.080,-416.850,-282.800
159681025,0.224,1.383,-1.493,10.290,-399.140,-243.390
159681044,2.040,1.999,-1.539,82.950,-239.890,-151.340
159681063,2.373,3.141,-2.514,146.720,-63.630,-23.030
159681088,2.609,2.814,-2.856,-46.970,51.520,-9.800
159681108,2.323,2.448,-2.253,-89.530,171.010,23.520
159681132,1.354,1.871,-1.558,-34.020,289.590,91.350
159681152,0.687,1.493,-1.301,12.320,381.990,138.390
159681171,-0.235,0.875,-1.527,36.050,460.040,161.840
159681192,-0.877,-0.050,-1.825,26.180,489.720,167.370
159681210,-1.751,-0.478,-1.803,35.980,555.380,160.090
159681233,-2.682,-0.635,-1.718,39.760,538.160,129.780
159681253,-2.496,-0.735,-1.488,3.220,494.270,99.400
159681277,-2.523,-0.652,-1.523,-117.600,505.960,70.070
159681296,-3.132,-1.074,-1.206,-234.780,502.460,64.190
159681316,-3.280,-1.548,-0.992,-225.960,460.880,40.600
159681337,-2.978,-1.314,-0.778,-148.120,474.460,9.660
159681355,-2.746,-1.159,-0.413,-95.270,455.350,-7.280
159681378,-2.496,-0.882,-0.164,-39.760,439.320,-10.010
159681397,-2.593,-0.271,-0.244,-137.480,412.440,-25.410
159681417,-2.655,-0.789,0.123,-257.950,363.370,-50.540
159681440,-2.490,-1.038,2.085,-122.640,241.220,-1.960
159681460,-1.324,-0.332,2.283,-17.430,342.020,36.470
159681480,-2.914,-0.400,2.013,-5.320,315.980,53.900
159681501,-4.098,-0.147,2.198,11.060,187.810,44.380
159681520,-3.763,0.151,3.000,11.900,100.590,20.580
159681540,-4.317,0.729,3.261,-145.040,-74.900,-7.630
159681561,-4.281,-1.885,1.557,5.040,-67.900,21.350
159681579,-5.368,-1.085,0.814,149.310,-65.380,98.840
159681599,-4.836,0.081,0.881,-45.010,-206.780,54.950
159681618,-3.539,-0.492,0.981,-208.740,-291.690,-45.850
159681642,-2.649,-1.013,0.747,-182.910,-336.140,-98.000
159681666,-1.678,-1.009,0.786,-100.730,-364.910,-115.570
159681686,-0.949,-0.680,0.877,-1.120,-350.910,-105.700
159681706,-0.555,-0.412,0.720,22.960,-337.050,-107.030
159681726,-0.974,-0.630,0.303,36.820,-325.220,-125.230
159681746,-1.675,-0.913,0.065,90.300,-323.260,-143.150
159681765,-1.920,-0.925,-0.078,154.560,-327.180,-146.300
159681785,-1.805,-0.641,-0.223,183.120,-341.180,-143.500
159681807,-1.596,-0.457,-0.330,137.480,-342.930,-156.520
159681831,-1.670,-0.620,-0.407,108.220,-353.500,-161.770
159681851,-1.688,-0.617,-0.437,95.830,-354.830,-158.200
159681870,-1.717,-0.552,-0.491,72.730,-368.550,-156.870
159681890,-1.559,-0.401,-0.593,-1.050,-383.530,-183.050
159681914,-1.576,-0.630,-0.503,-38.220,-386.470,-227.360
159681934,-1.884,-0.660,-0.451,-59.570,-396.200,-271.250
159681954,-1.731,-0.656,-0.611,-118.160,-418.740,-343.840
159681972,-1.409,-0.495,-0.582,-125.020,-410.900,-408.730
159681994,-0.899,-0.088,-0.729,-86.940,-367.640,-438.830
159682012,-0.157,0.953,-1.403,-2.100,-309.610,-392.350
159682031,1.043,2.394,-1.445,70.350,-248.080,-276.290
159682056,2.229,2.535,-1.607,231.490,-40.180,-69.300
159682075,1.796,3.513,-2.069,136.430,68.950,2.380
159682095,2.122,3.443,-1.671,-36.820,175.280,17.920
159682111,1.761,2.959,-1.270,-60.130,290.430,58.870
159682136,0.783,2.040,-0.575,84.280,411.740,139.020
159682155,0.170,1.528,-0.301,145.530,486.990,140.560
159682179,-0.736,0.906,-0.356,75.810,494.200,116.060
159682199,-1.385,0.167,-0.705,-19.950,484.750,94.640
159682219,-1.744,-0.463,-0.835,-112.910,509.810,65.800
159682238,-2.275,-1.120,-0.590,-61.250,516.810,116.550
159682263,-2.257,-0.935,-0.309,39.480,453.530,108.780
159682283,-1.735,-0.605,-0.393,-68.040,428.330,60.830
159682299,-1.732,-0.721,-0.482,-163.520,412.930,19.670
159682322,-1.944,-0.947,-0.398,-220.360,376.670,-6.930
159682342,-1.914,-0.987,-0.240,-243.880,330.680,-17.080
159682362,-1.811,-0.860,-0.191,-261.940,304.710,-24.220
159682380,-1.675,-0.746,-0.193,-296.170,283.920,-32.130
159682404,-1.462,-0.987,-0.149,-311.570,264.390,-24.640
159682424,-1.418,-0.960,-0.092,-263.340,275.800,4.340
159682444,-1.568,-0.796,0.385,-192.920,251.020,18.200
159682464,-0.970,-0.743,0.558,-151.270,229.250,29.960
159682488,-1.066,-0.621,0.635,-107.030,257.320,50.400
159682508,-1.520,-0.468,1.138,-154.840,246.540,84.350
159682526,-2.084,-0.604,1.735,-177.450,198.240,114.030
159682549,-2.468,-1.573,1.937,-138.110,214.060,142.940
159682567,-3.989,-2.146,2.376,41.090,218.610,171.780
159682591,-4.426,-0.086,3.203,118.580,118.440,92.260
159682611,-4.402,-1.040,1.960,-171.290,-104.230,-66.080
159682631,-4.816,-1.857,0.984,146.090,-91.980,3.430
159682650,-4.115,-0.163,0.773,51.310,-212.170,-23.240
159682671,-3.358,-0.063,0.744,-213.010,-278.110,-119.420
159682693,-2.405,-1.097,0.972,-233.870,-324.730,-153.860
159682716,-1.494,-1.397,1.241,-79.380,-301.770,-142.800
159682737,-1.354,-0.813,1.096,87.990,-266.000,-125.300
159682756,-1.081,-0.141,1.057,97.650,-297.080,-119.840
159682776,-1.008,-0.203,0.775,88.620,-313.320,-120.750
159682799,-1.533,-0.464,0.282,107.450,-317.590,-116.270
159682818,-1.808,-0.590,-0.037,149.380,-321.090,-110.880
159682841,-1.870,-0.542,-0.263,183.190,-334.250,-103.110
159682862,-1.672,-0.354,-0.289,179.970,-329.210,-83.160
159682881,-1.730,-0.521,-0.306,185.010,-330.960,-61.950
159682900,-1.811,-0.432,-0.480,137.340,-355.250,-58.310
159682922,-1.844,-0.431,-0.490,66.430,-384.510,-87.640
159682941,-2.108,-0.260,-0.382,0.980,-406.910,-86.590
159682966,-2.340,-0.269,-0.579,-116.550,-466.690,-185.640
159682986,-1.850,-0.795,-0.466,-114.520,-485.100,-276.990
159683005,-1.815,-0.906,-0.051,-2.940,-454.160,-315.420
159683024,-1.754,-0.305,-0.569,67.900,-441.420,-341.390
159683049,-0.632,0.662,-1.884,103.040,-368.200,-288.680
159683068,1.461,1.588,-1.367,120.330,-309.890,-220.220
159683087,2.308,1.188,-1.579,355.390,3.430,-56.910
159683112,1.668,2.816,-2.658,285.040,50.610,7.420
159683132,2.872,2.653,-2.657,58.100,179.900,13.440
159683151,2.187,2.359,-2.231,42.910,271.670,55.300
159683170,1.414,1.670,-1.581,50.190,338.450,107.380
159683192,0.315,1.032,-0.890,30.520,437.570,130.900
159683210,-0.581,0.585,-0.736,-13.020,490.000,132.720
159683229,-1.387,0.002,-0.844,-57.050,506.380,147.000
159683253,-1.793,-0.422,-0.901,-74.900,528.150,142.450
159683274,-1.936,-0.948,-1.030,0.560,522.270,145.740
159683291,-1.809,-1.401,-0.578,79.520,474.110,125.020
159683311,-1.640,-0.907,-0.481,147.770,487.480,69.230
159683334,-2.167,-0.269,-0.510,-6.580,412.020,-28.070
159683354,-2.129,-0.390,-0.483,-231.560,330.750,-97.860
159683373,-1.796,-1.031,-0.308,-305.340,296.940,-113.540
159683398,-1.572,-1.296,-0.254,-238.560,303.870,-91.630
159683417,-1.563,-1.152,-0.272,-182.140,311.570,-77.770
159683441,-1.571,-0.987,-0.192,-161.910,318.220,-74.410
159683461,-1.612,-0.939,0.160,-126.280,300.860,-67.340
159683483,-1.365,-0.788,0.580,-87.010,273.140,-47.320
159683502,-1.063,-0.874,0.762,-75.180,307.790,-29.820
159683527,-2.127,-1.149,1.301,88.900,340.550,27.510
159683545,-2.824,-0.478,1.606,133.630,312.550,41.440
159683566,-3.509,-0.386,1.813,124.040,294.980,63.840
159683585,-4.485,-0.352,2.522,211.050,227.360,83.370
159683610,-5.036,0.973,2.663,240.030,104.580,90.650
159683630,-5.506,0.784,1.687,19.460,-89.740,38.080
159683654,-4.779,0.334,1.546,-0.140,-215.810,66.990
159683671,-3.873,0.420,1.235,-223.370,-273.280,34.650
159683690,-3.297,-0.526,0.693,-341.390,-373.240,-17.850
159683715,-1.897,-1.121,0.727,-196.280,-424.060,-38.360
159683733,-1.120,-0.934,1.123,-24.150,-381.570,-39.480
159683755,-1.112,-0.287,0.995,25.480,-390.600,-37.030
159683775,-1.505,-0.450,0.615,-1.120,-412.160,-55.790
159683796,-2.021,-0.918,0.352,58.170,-420.770,-67.760
159683816,-2.213,-0.833,0.052,128.380,-423.360,-60.760
159683835,-2.038,-0.535,-0.287,110.460,-427.000,-61.600
159683860,-1.836,-0.568,-0.359,35.140,-409.290,-81.900
159683878,-1.837,-1.063,-0.383,55.580,-381.080,-82.950
159683900,-2.058,-1.166,-0.384,153.790,-368.410,-40.740
159683915,-2.069,-0.671,-0.551,127.050,-382.060,-29.260
159683940,-2.093,-0.461,-0.795,-18.900,-417.550,-73.710
159683959,-2.245,-0.483,-0.789,-132.650,-451.360,-143.570
159683978,-2.029,-0.391,-0.933,-253.610,-498.120,-248.500
159684003,-1.378,-0.463,-1.125,-322.350,-478.450,-404.530
159684023,-1.010,-0.363,-1.546,-278.740,-408.450,-445.340
159684043,-0.523,0.595,-1.765,-163.730,-287.700,-379.540
159684058,0.508,1.566,-2.189,1.820,-216.370,-265.160
159684083,2.763,2.489,-1.857,232.960,-99.960,-37.520
159684102,2.229,2.807,-2.007,167.790,186.830,-8.540
159684123,1.734,3.289,-1.342,-62.300,184.100,-18.830
159684142,1.656,2.574,-1.037,-62.090,278.250,51.380
159684165,0.987,1.976,-0.542,72.030,344.750,156.100
159684186,0.229,1.038,-0.400,35.910,401.940,177.450
159684204,-0.459,0.442,-0.465,-62.930,441.140,174.930
159684224,-1.503,-0.077,-0.908,-162.050,455.630,174.370
159684244,-2.419,-0.648,-0.753,-162.680,474.740,203.490
159684267,-2.465,-1.197,-1.017,-11.410,379.400,186.060
159684288,-1.637,-1.184,-0.770,46.760,398.230,119.070
159684304,-1.769,-0.654,-0.705,18.060,409.710,59.150
159684328,-2.343,-0.673,-0.530,-118.440,377.440,3.990
159684348,-2.381,-0.913,-0.514,-192.080,366.030,9.100
159684368,-2.164,-0.995,-0.424,-232.190,364.490,32.410
159684390,-1.919,-1.148,-0.448,-216.790,370.860,63.700
159684408,-1.822,-1.097,-0.478,-178.920,384.090,81.340
159684427,-1.767,-1.192,0.103,-89.390,399.910,78.960
159684452,-1.514,-1.017,0.530,62.300,385.000,78.960
159684471,-1.027,-0.302,0.870,64.960,411.180,71.610
159684490,-1.444,-0.225,0.823,30.940,393.960,72.380
159684511,-2.528,-0.283,1.021,51.380,369.390,70.350
159684534,-3.721,0.284,1.181,69.650,258.720,56.700
159684557,-3.456,0.910,2.404,-14.210,204.400,21.910
159684576,-5.603,2.103,3.631,-159.390,14.770,-6.580
159684595,-4.055,-1.464,2.887,-304.080,-96.670,-18.760
159684615,-5.612,-1.399,0.508,95.130,-3.920,138.040
159684639,-4.739,0.025,0.445,-28.980,-162.540,161.210
159684660,-3.416,-0.336,0.471,-167.650,-241.990,54.670
159684684,-2.735,-0.451,0.524,-213.360,-283.290,-41.300
159684708,-1.979,-0.494,0.440,-209.790,-377.370,-126.770
159684728,-0.752,-0.710,0.471,-144.200,-361.620,-161.770
159684752,-0.417,-0.686,0.499,-25.620,-331.380,-154.630
159684772,-0.464,-0.493,0.275,48.860,-314.160,-146.020
159684791,-0.802,-0.553,0.048,114.380,-287.350,-139.790
159684812,-1.072,-0.607,-0.015,157.010,-295.820,-131.880
159684830,-1.350,-0.617,0.010,193.690,-285.740,-119.560
159684854,-1.525,-0.415,-0.136,185.430,-323.400,-108.710
159684874,-1.181,-0.315,-0.307,115.220,-331.030,-115.010
159684894,-0.963,-0.395,-0.289,91.350,-320.810,-110.810
159684911,-1.070,-0.366,-0.216,87.150,-315.000,-97.790
159684935,-1.184,-0.370,-0.249,39.900,-338.100,-110.040
159684954,-1.098,-0.533,-0.208,15.330,-342.020,-131.880
159684978,-1.119,-0.604,-0.071,19.600,-346.360,-153.300
159684997,-1.325,-0.614,-0.020,26.390,-361.270,-170.590
159685018,-1.239,-0.507,-0.232,8.540,-378.350,-206.080
159685034,-0.882,-0.307,-0.235,-4.410,-370.790,-228.550
159685058,-0.349,0.038,-0.210,8.610,-355.110,-221.340
159685078,0.440,0.708,-0.358,31.570,-320.320,-185.220
159685098,1.495,1.440,-0.513,26.530,-277.970,-112.140
159685118,2.449,1.536,-0.137,71.750,-47.320,-53.410
159685138,2.210,2.046,-0.427,84.770,5.110,3.080
159685156,2.526,2.017,-0.337,4.900,90.930,22.470
159685175,2.229,1.656,-0.361,17.360,207.480,70.350
159685200,1.617,1.365,-0.230,48.230,263.480,117.600
159685220,0.970,0.818,-0.169,83.510,353.010,143.920
159685240,0.295,0.728,-0.540,71.330,390.250,143.220
159685260,-0.251,0.454,-0.865,-10.850,410.340,121.590
159685275,-0.586,-0.116,-0.887,-43.050,458.780,107.800
159685298,-1.152,-0.657,-0.657,-1.050,455.350,112.700
159685322,-1.499,-0.745,-0.560,48.300,456.190,115.990
159685341,-1.633,-0.777,-0.501,87.640,411.110,98.910
159685361,-1.424,-0.626,-0.604,57.120,374.780,52.150
159685381,-1.497,-0.239,-0.614,-61.390,350.770,2.240
159685399,-1.612,-0.263,-0.401,-214.760,302.540,-37.310
159685421,-1.466,-0.667,-0.270,-303.030,266.700,-45.710
159685442,-1.372,-0.859,-0.245,-300.930,264.180,-32.340
159685464,-1.295,-0.944,-0.203,-260.470,265.300,-20.370
159685488,-1.269,-0.977,-0.137,-193.130,275.590,-3.430
159685507,-1.260,-0.721,0.039,-162.190,263.970,6.650
159685528,-1.079,-0.496,0.303,-180.040,237.230,2.800
159685549,-0.945,-0.457,0.726,-212.800,204.120,19.390
159685570,-1.017,0.103,0.759,-327.250,147.700,65.030
159685594,-1.099,-0.407,-0.102,-626.640,181.230,114.730
159685614,-3.173,-2.858,0.460,-566.930,215.880,144.130
159685638,-3.745,-5.381,2.610,-173.670,-173.530,124.460
159685658,-0.424,-3.677,3.450,622.580,263.130,81.690
159685678,-4.266,0.392,0.740,613.760,481.110,40.950
159685698,-5.376,2.317,0.937,-119.280,-254.380,-120.820
159685718,-4.228,-1.399,0.548,-524.160,-371.070,-227.220
159685738,-2.980,-3.678,1.318,-48.300,-181.650,-126.000
159685758,-3.264,-1.182,0.700,128.450,-164.220,-73.920
159685776,-2.595,-0.572,0.702,19.740,-243.250,-103.880
159685799,-1.717,-0.652,0.705,-56.140,-266.840,-160.930
159685820,-0.975,-0.818,0.529,-9.730,-308.350,-178.990
159685838,-0.434,-0.876,0.393,68.810,-293.860,-195.790
159685862,-0.525,-0.986,0.102,189.350,-242.550,-195.650
159685882,-1.056,-0.866,-0.198,303.660,-234.150,-196.000
159685899,-1.503,-0.786,-0.233,338.170,-235.900,-191.730
159685922,-1.966,-0.616,-0.265,344.260,-266.350,-172.830
159685943,-1.884,-0.449,-0.334,275.450,-321.860,-174.510
159685962,-1.229,-0.377,-0.285,200.130,-330.330,-183.120
159685982,-1.145,-0.473,-0.227,192.220,-320.460,-175.840
159686001,-1.254,-0.607,-0.206,186.270,-311.570,-144.480
159686026,-1.239,-0.631,-0.070,205.450,-307.020,-109.410
159686045,-1.180,-0.411,-0.000,179.550,-308.910,-87.570
159686064,-1.059,-0.339,-0.000,135.030,-312.830,-59.780
159686088,-1.092,-0.461,0.044,86.730,-305.620,-29.400
159686108,-1.165,-0.427,-0.123,24.430,-308.280,-29.330
159686126,-0.784,0.082,-0.508,-47.740,-312.130,-44.520
159686149,0.400,0.251,-0.790,-172.270,-341.320,-106.540
159686169,1.943,0.443,-0.996,-190.190,-278.460,-146.300
159686192,2.262,1.321,-1.151,-0.560,-57.820,-65.450
159686213,2.685,1.997,-1.391,53.760,55.160,-18.760
159686237,2.799,1.835,-1.065,146.580,156.100,54.180
159686257,1.869,1.680,-0.681,251.720,304.080,104.020
159686272,1.060,1.541,-0.392,200.480,349.230,106.260
159686297,0.438,1.091,-0.522,94.640,367.290,86.660
159686315,-0.094,0.468,-0.942,-20.860,408.730,81.340
159686337,-1.038,-0.249,-1.022,-23.590,446.390,110.040
159686357,-1.788,-0.712,-0.914,76.930,484.400,150.850
159686377,-2.192,-0.881,-0.685,154.070,441.280,121.380
159686395,-1.604,-0.730,-0.498,150.010,415.170,64.680
159686415,-1.496,-0.414,-0.537,63.000,389.690,-14.350
159686437,-1.847,-0.259,-0.494,-97.510,336.630,-76.370
159686459,-1.860,-0.490,-0.342,-250.180,295.470,-106.540
159686479,-1.745,-0.676,-0.317,-299.740,282.940,-102.760
159686499,-1.509,-0.956,-0.348,-301.490,278.530,-84.280
159686518,-1.364,-1.109,-0.373,-254.870,293.580,-58.100
159686539,-1.091,-1.355,-0.256,-126.140,355.320,-19.390
159686558,-1.587,-1.405,0.068,43.960,382.480,-6.020
159686578,-1.292,-0.451,-0.248,57.330,362.810,-31.360
159686602,-1.334,-0.376,-0.097,-36.610,369.250,-60.130
159686621,-1.549,-0.528,1.049,18.200,288.470,-33.180
159686641,-1.717,-0.222,1.729,45.010,352.940,18.690
159686660,-3.365,-0.633,1.390,90.720,307.300,50.820
159686685,-4.561,1.051,2.891,138.460,135.800,91.280
159686709,-5.430,2.128,3.305,-132.440,-95.270,-34.440
159686727,-4.649,-0.613,2.263,-43.820,-61.180,24.570
159686749,-5.479,-0.237,0.540,-3.570,-152.530,63.210
159686766,-4.584,-0.395,0.623,-41.020,-209.650,94.150
159686790,-3.810,-0.273,0.626,-67.270,-229.950,91.210
159686810,-3.347,-0.165,0.671,-173.530,-299.250,49.210
159686829,-2.457,-0.670,0.636,-152.180,-336.840,19.530
159686849,-1.622,-0.465,0.588,-108.710,-327.040,-3.080
159686871,-1.268,-0.343,0.344,-114.590,-357.350,-38.010
159686889,-0.906,-0.470,0.119,-80.360,-359.380,-47.950
159686913,-0.939,-0.234,-0.158,-55.440,-344.400,-46.760
159686933,-1.122,-0.361,-0.334,-41.930,-336.980,-55.300
159686953,-1.197,-0.636,-0.303,36.260,-318.990,-43.610
159686969,-1.305,-0.496,-0.230,113.400,-307.510,-29.120
159686989,-1.378,-0.070,-0.421,95.620,-315.980,-27.300
159687013,-1.409,-0.188,-0.418,11.410,-326.060,-57.470
159687033,-1.437,-0.350,-0.421,-0.420,-333.410,-75.320
159687053,-1.494,-0.167,-0.585,-45.430,-351.890,-105.910
159687072,-1.318,-0.132,-0.516,-80.640,-348.880,-133.140
159687092,-1.262,-0.249,-0.477,-76.440,-346.290,-154.280
159687116,-1.299,-0.196,-0.492,-68.950,-332.080,-166.320
159687132,-1.212,-0.372,-0.678,-38.500,-307.580,-168.980
159687151,-0.935,-0.132,-0.846,10.220,-277.970,-183.260
159687176,-0.062,0.430,-1.245,98.000,-256.410,-168.070
159687195,0.722,0.839,-0.763,99.260,-195.510,-119.840
159687214,1.395,0.830,-0.626,61.040,-228.270,-77.770
159687238,2.077,0.895,-0.792,-33.740,-95.270,-53.760
159687258,2.570,1.089,-1.122,-151.760,-89.810,-39.410
159687276,3.148,1.000,-1.078,-129.360,-57.050,-4.760
159687295,2.918,0.995,-0.546,-52.920,136.640,47.600
159687315,2.413,0.667,0.004,78.050,230.370,107.240
159687339,1.631,0.505,0.220,199.220,312.270,147.980
159687360,0.798,0.537,-0.000,236.880,386.400,146.790
159687376,-0.077,0.308,-0.347,198.380,438.270,131.040
159687395,-1.020,0.047,-0.500,144.130,424.340,100.590
159687415,-1.632,-0.040,-0.563,67.200,404.880,78.260
159687438,-1.689,-0.456,-0.483,17.360,387.380,67.340
159687461,-1.445,-0.517,-0.450,55.860,374.710,68.460
159687485,-1.414,-0.140,-0.645,7.140,364.070,36.260
159687504,-1.611,0.035,-0.680,-112.000,345.660,-13.300
159687529,-1.797,-0.253,-0.529,-222.880,316.540,-36.820
159687549,-1.734,-0.589,-0.346,-217.700,302.190,-24.150
159687568,-1.562,-0.669,-0.296,-194.180,307.160,-3.780
159687587,-1.511,-0.754,-0.192,-138.250,314.790,6.790
159687607,-1.454,-0.734,0.057,-66.920,305.830,12.740
159687630,-1.103,-0.543,0.451,18.550,308.210,10.780
159687650,-1.136,-0.363,0.853,87.080,318.290,10.360
159687674,-1.352,-0.012,0.726,54.740,274.750,-6.860
159687693,-1.556,-0.115,0.670,-41.930,244.580,-38.290
159687714,-2.095,-0.780,0.977,-21.280,222.320,-47.670
159687731,-2.273,-0.899,1.132,59.430,194.600,-33.950
159687755,-2.396,-0.364,1.051,105.630,178.920,-35.420
159687775,-2.782,-0.320,1.035,80.640,137.550,-31.010
159687799,-2.850,-0.406,1.234,39.340,60.550,-33.320
159687817,-2.993,0.162,1.853,-40.670,-8.890,-40.390
159687837,-2.436,-1.257,0.487,-87.220,-48.580,-44.800
159687858,-2.283,-1.326,0.170,84.280,-3.220,-0.490
159687877,-2.107,-0.858,-0.048,120.540,0.840,17.010
159687902,-1.880,-0.941,-0.095,166.250,-2.170,40.390
159687922,-1.613,-0.616,-0.187,189.630,-3.920,48.510
159687942,-1.195,-0.412,-0.177,151.970,-2.870,35.910
159687960,-1.011,-0.415,-0.090,139.230,-5.460,28.070
159687984,-0.855,-0.306,0.034,141.610,-3.850,17.850
159688001,-0.720,-0.114,0.139,122.780,-21.070,7.280
159688021,-0.550,0.017,0.181,91.070,-38.990,-4.900
159688040,-0.413,0.124,0.198,45.010,-52.430,-4.830
159688065,-0.333,0.124,0.124,-28.560,-77.420,-17.500
159688085,-0.272,0.004,0.073,-72.030,-90.300,-29.820
159688108,-0.207,-0.027,0.051,-100.520,-96.950,-32.410
159688132,-0.188,-0.153,0.025,-103.670,-93.450,-28.490
159688148,-0.333,-0.284,0.007,-89.530,-83.860,-22.960
159688172,-0.671,-0.289,-0.122,-79.660,-74.900,-9.660
159688192,-1.117,-0.352,-0.337,-107.240,-52.010,-1.120
159688212,-2.196,-0.669,-0.701,-151.340,-2.170,-15.680
159688232,-2.193,-0.342,-0.382,-155.610,-90.510,-10.640
159688252,-0.992,-0.072,0.056,-177.100,-68.320,-21.700
159688271,-0.445,-0.332,0.448,-114.590,-3.640,21.350
159688292,-0.602,-0.182,0.412,15.120,42.490,59.220
159688310,-0.698,-0.159,0.247,69.160,48.230,73.080
159688334,-0.704,-0.100,-0.013,101.500,49.980,81.900
159688354,-0.861,0.146,-0.184,76.300,64.960,85.750
159688369,-1.071,0.211,-0.233,35.840,69.860,88.270
159688393,-1.435,0.107,-0.194,-52.990,51.660,78.960
159688414,-1.491,-0.116,-0.165,-111.580,29.330,74.760
159688433,-1.238,-0.265,-0.044,-117.110,27.020,75.600
159688453,-1.104,-0.316,0.070,-91.980,39.200,86.100
159688476,-1.145,-0.260,0.040,-61.740,54.530,99.470
159688498,-1.146,-0.339,0.013,-34.440,64.610,107.660
159688517,-1.047,-0.391,0.004,4.970,73.500,113.750
159688541,-1.001,-0.290,0.011,38.150,82.040,116.200
159688561,-1.098,-0.120,-0.029,41.930,81.130,111.230
159688581,-1.223,0.039,-0.037,-5.670,66.220,98.980
159688600,-1.146,-0.021,0.062,-46.480,54.460,86.520
159688616,-1.041,-0.137,0.150,-47.670,47.810,81.830
159688636,-1.010,-0.211,0.239,-28.210,42.070,73.500
159688661,-1.009,-0.157,0.281,-14.840,35.070,62.370
159688681,-0.989,-0.198,0.296,-13.300,19.530,48.930
159688700,-0.925,-0.320,0.301,-2.870,10.290,38.640
159688723,-0.909,-0.417,0.311,9.100,-9.450,12.320
159688740,-0.861,-0.526,0.300,35.490,-6.370,-5.180
159688764,-0.915,-0.409,0.248,65.870,-14.280,-15.960
159688784,-0.964,-0.331,0.206,69.580,-27.160,-29.750
159688804,-0.957,-0.446,0.194,83.440,-34.580,-46.690
159688824,-1.032,-0.564,0.209,101.360,-56.910,-64.820
159688843,-1.055,-0.552,0.225,160.580,-52.290,-78.610
159688863,-1.241,-0.125,0.341,180.880,-74.270,-75.320
159688887,-1.432,0.033,0.367,125.650,-107.380,-86.940
159688907,-1.686,-0.317,0.514,89.180,-140.350,-105.070
159688922,-1.798,-0.332,0.561,113.680,-165.480,-113.890
159688946,-1.856,-0.072,0.605,134.890,-199.990,-122.010
159688967,-2.045,0.003,0.733,110.390,-240.660,-140.210
159688985,-2.225,-0.237,0.751,124.670,-275.450,-149.030
159689004,-2.298,-0.118,0.729,135.310,-315.560,-155.960
159689028,-2.318,-0.260,0.762,125.650,-353.220,-172.060
159689047,-2.411,-0.522,0.737,153.020,-374.710,-176.050
159689067,-2.324,-0.603,0.693,201.180,-394.940,-164.150
159689088,-2.127,-0.579,0.732,224.350,-405.090,-150.430
159689111,-1.865,-0.543,0.793,225.120,-408.380,-136.920
159689135,-1.588,-0.408,0.653,206.500,-405.440,-127.890
159689155,-1.109,-0.346,0.554,210.770,-388.780,-122.220
159689176,-0.922,-0.439,0.763,237.230,-353.360,-97.580
159689195,-0.933,-0.285,0.581,247.870,-336.070,-69.230
159689219,-0.741,-0.064,0.400,203.140,-328.160,-47.530
159689236,-0.519,-0.212,0.297,171.780,-315.560,-41.440
159689255,-0.399,-0.194,0.253,175.140,-309.120,-22.470
159689275,-0.263,-0.074,0.240,166.600,-301.910,-2.030
159689299,-0.205,-0.055,0.156,135.100,-302.050,8.680
159689318,-0.178,-0.069,0.084,116.480,-304.360,13.510
159689339,-0.087,-0.061,-0.020,101.080,-298.900,16.660
159689355,-0.086,-0.019,-0.108,86.590,-296.030,16.450
159689378,0.005,-0.001,-0.206,64.190,-291.340,10.570
159689399,0.170,0.033,-0.348,57.820,-271.530,6.090
159689419,0.326,0.137,-0.524,49.350,-241.780,4.900
159689439,0.589,0.244,-0.751,33.320,-201.740,-0.910
159689462,0.971,0.425,-0.965,-14.490,-155.400,-23.240
159689481,1.227,0.459,-0.930,-58.870,-85.050,-30.100
159689502,1.211,0.605,-1.303,-63.700,-20.580,-21.840
159689522,1.357,0.483,-0.797,-51.660,59.710,0.070
159689544,1.154,0.554,-0.652,-26.950,127.540,17.990
159689563,0.943,0.544,-0.474,-42.350,172.340,22.820
159689588,0.737,0.433,-0.386,-93.450,208.320,18.760
159689608,0.641,0.331,-0.373,-130.620,234.430,15.680
159689627,0.473,0.222,-0.307,-175.070,267.890,17.290
159689646,0.251,0.106,-0.222,-197.820,293.160,24.710
159689666,0.107,-0.071,-0.172,-199.780,323.190,38.850
159689685,-0.008,-0.199,-0.181,-178.780,351.400,51.870
159689710,0.024,-0.293,-0.140,-134.610,410.620,55.580
159689725,-0.161,-0.158,-0.153,-127.610,447.440,53.410
159689745,-0.469,-0.277,-0.057,-134.260,476.700,47.040
159689765,-0.744,-0.695,0.089,-97.930,508.340,37.310
159689789,-0.897,-0.799,0.096,-49.070,544.600,20.300
159689810,-1.101,-0.389,-0.083,-2.030,577.570,6.720
159689825,-1.373,-0.571,-0.151,15.260,578.760,0.910
159689845,-1.568,-1.289,-0.208,76.650,589.680,-22.820
159689868,-2.013,-1.616,-0.056,262.570,642.530,-54.880
159689888,-2.659,-0.402,0.175,268.310,555.170,-101.780
159689907,-2.857,-0.219,0.257,178.360,480.340,-129.920
159689932,-3.495,0.264,-0.079,121.380,348.740,-139.510
159689951,-2.860,0.615,0.067,12.880,218.960,-153.510
159689971,-2.670,0.719,0.205,-74.130,169.750,-160.650
159689992,-2.577,0.698,0.359,-79.030,87.990,-158.550
159690012,-2.059,1.341,0.709,-65.450,73.850,-115.710
159690031,-1.853,1.377,1.006,-49.840,56.350,-68.880
159690050,-1.885,1.102,0.958,-17.850,31.290,-16.030
159690075,-1.926,1.028,0.860,48.930,-13.090,51.660
159690093,-1.809,1.295,0.727,43.190,-51.660,76.160
159690117,-1.912,1.090,0.624,-13.860,-114.800,82.390
159690137,-1.945,0.712,0.493,-81.620,-197.750,82.040
159690161,-1.897,0.347,0.425,-114.240,-249.270,74.550
159690182,-1.967,0.206,0.527,-105.210,-295.960,83.230
159690200,-2.242,0.135,0.551,-117.670,-345.100,84.280
159690222,-2.294,-0.094,0.625,-120.400,-401.240,76.860
159690244,-2.215,-0.241,0.637,-96.110,-440.580,66.430
159690264,-2.126,-0.332,0.795,-51.520,-458.710,62.930
159690284,-2.101,-0.327,0.848,-27.370,-475.860,63.000
159690303,-1.977,-0.567,0.726,-30.380,-502.320,43.610
159690321,-1.724,-0.744,0.665,23.100,-507.850,37.240
159690343,-1.451,-0.518,0.589,68.390,-500.150,38.080
159690361,-1.261,-0.450,0.427,62.230,-499.310,30.800
159690385,-0.937,-0.467,0.243,44.940,-491.470,12.600
159690405,-0.654,-0.278,0.201,33.530,-471.940,-6.440
159690425,-0.484,-0.192,0.266,22.330,-456.610,-20.510
159690444,-0.369,-0.326,0.225,31.710,-444.360,-35.840
159690461,-0.304,-0.336,0.151,67.620,-419.160,-30.380
159690481,-0.322,-0.068,0.141,102.060,-404.810,-9.310
159690505,-0.098,0.214,-0.057,63.980,-409.640,-13.370
159690525,0.318,0.125,-0.172,19.460,-405.090,-33.530
159690549,0.636,0.019,-0.223,14.700,-367.990,-50.400
159690569,0.584,0.052,-0.325,56.910,-289.100,-48.510
159690584,0.514,0.310,-0.412,57.610,-252.840,-51.030
159690604,0.567,0.254,-0.565,44.380,-203.560,-63.700
159690628,0.688,0.197,-0.712,54.250,-127.190,-75.320
159690649,0.723,0.194,-0.629,65.940,-65.450,-77.280
159690669,0.592,0.258,-0.752,65.520,-11.270,-75.040
159690689,0.505,0.310,-0.694,46.550,32.200,-73.080
159690708,0.494,0.307,-0.697,29.750,71.330,-71.890
159690732,0.529,0.352,-0.664,0.000,107.870,-62.230
159690752,0.519,0.346,-0.545,10.780,137.480,-46.060
159690772,0.468,0.363,-0.405,9.730,158.480,-30.730
159690792,0.494,0.455,-0.318,-9.310,173.320,-24.710
159690812,0.513,0.399,-0.287,-52.780,191.800,-19.670
159690830,0.449,0.240,-0.241,-86.030,217.420,-12.670
159690854,0.471,0.191,-0.137,-102.900,243.670,-6.580
159690874,0.500,0.208,-0.074,-128.450,266.280,0.070
159690893,0.457,0.161,-0.041,-151.270,290.640,8.470
159690917,0.292,0.123,0.057,-177.520,319.200,23.520
159690937,0.196,0.110,0.322,-199.290,329.350,33.460
159690957,0.350,-0.021,0.484,-188.300,344.750,42.210
159690975,0.375,0.012,0.341,-192.710,377.720,46.200
159690995,0.135,0.066,0.183,-232.050,413.840,50.190
159691014,-0.435,-0.376,0.578,-209.860,427.350,69.510
159691037,-0.692,-0.432,0.976,-111.370,416.780,98.000
159691056,-0.316,-0.302,0.864,-67.690,395.850,95.200
159691080,-0.183,-0.040,0.360,-92.050,480.130,82.390
159691100,-1.231,-0.465,0.759,-125.370,477.470,66.710
159691120,-1.887,-0.732,0.981,-68.740,448.490,69.440
159691140,-1.492,-0.635,0.852,-36.750,402.430,49.840
159691164,-1.376,-0.311,0.650,-45.710,411.460,36.190
159691184,-1.721,-0.176,0.509,-120.050,402.850,33.320
159691202,-2.263,-0.379,0.503,-143.570,358.820,30.310
159691226,-2.025,-0.570,0.572,-125.930,303.730,25.900
159691245,-1.797,-0.633,0.356,-44.590,285.530,25.060
159691269,-1.820,-0.275,0.268,-24.430,255.850,6.300
159691290,-1.752,-0.203,0.336,-33.460,202.090,-24.640
159691308,-1.557,-0.067,0.433,-12.040,174.510,-32.130
159691332,-1.485,0.054,0.394,9.870,158.270,-31.640
159691352,-1.458,-0.020,0.479,17.850,123.620,-30.660
159691372,-1.389,0.071,0.530,29.960,98.350,-30.310
159691391,-1.299,0.400,0.557,28.490,74.760,-20.930
159691410,-1.299,0.445,0.544,-16.870,46.060,-16.240
159691435,-1.324,0.154,0.527,-15.400,11.970,-8.890
159691452,-1.275,0.077,0.473,14.700,1.330,1.540
159691476,-1.257,0.209,0.462,27.720,-19.810,16.030
159691496,-1.276,0.201,0.471,25.130,-42.350,26.250
159691516,-1.323,0.096,0.505,19.950,-68.810,27.510
159691540,-1.322,-0.038,0.483,23.240,-91.210,25.690
159691560,-1.443,0.064,0.432,31.780,-121.310,30.030
159691576,-1.525,0.140,0.440,12.040,-150.500,27.440
159691597,-1.510,-0.041,0.480,-17.500,-182.210,15.330
159691618,-1.582,-0.249,0.569,6.510,-209.230,8.330
159691638,-1.643,-0.069,0.505,17.080,-231.700,8.610
159691662,-1.708,-0.050,0.483,-17.290,-265.160,-2.240
159691682,-1.744,-0.380,0.651,-16.240,-295.330,-15.680
159691702,-1.815,-0.492,0.706,28.700,-305.200,-12.740
159691722,-1.857,-0.225,0.701,31.990,-331.450,-17.220
159691742,-1.816,-0.305,0.724,10.500,-347.060,-36.540
159691763,-1.770,-0.559,0.737,30.030,-363.160,-52.710
159691782,-1.685,-0.672,0.765,88.620,-363.370,-49.070
159691806,-1.525,-0.487,0.783,120.610,-365.890,-47.880
159691823,-1.346,-0.368,0.792,110.110,-364.700,-51.870
159691843,-1.229,-0.358,0.784,92.960,-365.120,-58.940
159691863,-1.038,-0.361,0.727,91.630,-361.900,-61.740
159691887,-0.780,-0.373,0.708,108.780,-352.590,-55.370
159691907,-0.560,-0.251,0.681,128.310,-326.970,-44.240
159691927,-0.418,-0.091,0.696,126.140,-313.950,-29.400
159691951,-0.290,-0.050,0.621,100.870,-306.250,-18.200
159691970,-0.152,-0.013,0.563,84.630,-294.490,-17.640
159691991,-0.066,0.027,0.598,63.000,-286.090,-16.380
159692010,-0.072,-0.018,0.618,58.380,-282.380,-13.860
159692030,0.019,-0.038,0.541,60.200,-283.290,-17.990
159692055,0.140,-0.018,0.434,54.110,-271.740,-35.000
159692075,0.174,0.017,0.385,53.760,-264.810,-46.970
159692093,0.259,0.084,0.295,52.430,-251.720,-63.280
159692113,0.407,0.208,0.181,38.710,-233.240,-74.690
159692134,0.410,0.219,0.032,41.930,-210.560,-65.660
159692155,0.481,0.163,-0.155,86.170,-185.500,-48.440
159692179,0.554,0.286,-0.290,105.210,-160.860,-35.210
159692198,0.560,0.377,-0.337,92.470,-131.530,-28.490
159692218,0.589,0.424,-0.373,75.530,-107.730,-21.700
159692238,0.643,0.399,-0.411,59.290,-85.330,-17.710
159692262,0.725,0.378,-0.434,40.740,-63.770,-16.730
159692282,0.756,0.314,-0.450,31.780,-35.420,-15.540
159692302,0.809,0.374,-0.420,27.090,-17.570,-12.740
159692318,0.834,0.423,-0.397,14.700,-4.270,-11.130
159692342,0.873,0.401,-0.368,2.380,14.000,-7.840
159692362,0.886,0.406,-0.317,-7.980,29.470,-7.980
159692381,0.857,0.415,-0.280,-18.620,42.070,-9.380
159692405,0.806,0.437,-0.261,-35.840,60.130,-11.760
159692430,0.703,0.394,-0.283,-47.110,77.840,-10.780
159692449,0.600,0.341,-0.307,-49.700,102.200,-11.130
159692469,0.612,0.305,-0.265,-48.230,132.650,-14.910
159692488,0.517,0.311,-0.224,-55.510,164.500,-16.590
159692509,0.361,0.314,-0.206,-77.840,189.140,-17.150
159692529,0.260,0.225,-0.214,-104.720,212.800,-14.420
159692547,0.258,0.131,-0.187,-119.070,235.760,-15.260
159692569,0.287,0.109,-0.101,-128.310,274.050,-15.120
159692591,0.151,0.127,0.011,-147.070,307.580,-3.500
159692610,-0.009,0.071,0.050,-176.050,320.530,11.480
159692634,-0.003,-0.001,0.147,-216.230,353.430,35.770
159692654,-0.099,-0.223,0.385,-189.000,385.140,31.920
159692673,-0.278,-0.182,0.508,-161.560,413.840,53.410
159692693,-0.433,-0.157,0.392,-177.870,421.890,69.370
159692713,-0.624,-0.499,0.265,-202.510,448.000,80.360
159692737,-1.152,-0.981,0.552,-154.280,480.620,83.090
159692757,-1.725,-0.974,0.878,-42.700,461.160,86.870
159692777,-1.628,-0.560,0.638,-53.970,432.600,76.160
159692796,-1.547,-0.398,0.291,-102.480,467.180,61.880
159692814,-2.184,-0.222,0.403,-177.800,474.250,22.540
159692836,-2.586,-0.516,0.549,-236.880,408.100,15.050
159692858,-2.511,-0.704,0.365,-190.610,370.020,40.040
159692878,-2.467,-0.527,0.163,-174.510,360.360,49.280
159692902,-2.420,-0.370,0.296,-213.360,315.350,27.090
159692920,-2.338,-0.500,0.485,-199.220,280.840,16.590
159692942,-2.219,-0.510,0.515,-145.390,236.040,-3.850
159692962,-1.927,-0.400,0.443,-109.550,194.880,-22.540
159692980,-1.743,-0.164,0.444,-84.000,178.360,-22.750
159692999,-1.689,0.092,0.529,-96.530,140.210,-22.120
159693019,-1.496,-0.005,0.694,-114.870,101.150,-26.180
159693044,-1.337,-0.180,0.838,-79.660,74.200,-15.470
159693062,-1.195,-0.053,0.882,-46.340,58.170,0.350
159693086,-1.174,-0.035,0.901,-27.370,35.560,15.890
159693106,-1.182,-0.173,0.844,27.440,0.910,25.620
159693122,-1.194,-0.129,0.773,65.730,-17.430,30.100
159693142,-1.278,0.056,0.652,76.580,-48.160,31.290
159693166,-1.375,0.030,0.588,51.310,-80.290,26.880
159693182,-1.366,-0.209,0.560,50.890,-109.900,27.160
159693206,-1.446,-0.210,0.556,71.750,-139.440,26.740
159693226,-1.635,-0.023,0.497,49.140,-175.140,18.620
159693245,-1.730,0.015,0.401,-10.990,-213.430,4.830
159693265,-1.758,-0.314,0.387,-29.890,-242.410,-14.630
159693288,-1.836,-0.461,0.448,7.630,-268.100,-26.950
159693309,-2.005,-0.326,0.456,31.640,-289.940,-44.170
159693329,-2.141,-0.214,0.475,15.750,-334.810,-67.760
159693349,-2.169,-0.319,0.621,-4.900,-361.830,-96.740
159693369,-2.244,-0.581,0.546,17.500,-376.180,-119.840
159693389,-2.313,-0.615,0.560,44.730,-396.340,-130.830
159693406,-2.199,-0.614,0.507,60.830,-403.760,-139.860
159693430,-1.978,-0.512,0.517,67.550,-411.110,-151.480
159693449,-1.774,-0.519,0.510,52.150,-415.730,-165.830
159693469,-1.542,-0.581,0.509,47.040,-405.370,-182.630
159693490,-1.198,-0.555,0.570,63.280,-380.100,-189.840
159693510,-0.954,-0.528,0.555,70.700,-362.530,-190.610
159693530,-0.744,-0.492,0.489,91.070,-343.000,-179.270
159693552,-0.440,-0.355,0.429,107.240,-320.530,-164.080
159693576,-0.252,-0.297,0.428,109.830,-302.540,-148.540
159693596,-0.190,-0.240,0.416,114.170,-279.230,-128.730
159693616,-0.169,-0.184,0.307,111.930,-267.960,-117.250
159693635,-0.014,-0.108,0.252,101.500,-252.910,-111.720
159693656,0.080,-0.073,0.220,96.180,-239.190,-104.090
159693679,0.127,0.060,0.117,90.930,-225.540,-94.850
159693702,0.242,0.160,0.029,68.810,-203.910,-92.540
159693722,0.335,0.134,0.031,59.010,-181.650,-88.690
159693742,0.393,0.182,0.012,79.170,-157.850,-77.490
159693766,0.471,0.396,-0.034,81.900,-142.380,-62.860
159693785,0.565,0.471,-0.089,58.380,-116.900,-55.300
159693806,0.668,0.420,-0.085,49.210,-85.890,-47.810
159693825,0.689,0.395,-0.053,55.090,-63.490,-40.110
159693846,0.719,0.397,-0.063,74.270,-35.840,-27.650
159693865,0.824,0.539,-0.138,67.760,-13.370,-20.720
159693885,0.899,0.559,-0.183,32.130,17.010,-24.780
159693905,0.874,0.447,-0.134,10.430,41.930,-26.250
159693926,0.755,0.402,-0.040,19.110,66.850,-16.870
159693948,0.668,0.453,0.018,34.650,77.980,-2.870
159693970,0.665,0.524,0.052,25.200,82.460,7.140
159693990,0.711,0.516,0.058,4.410,87.220,10.990
159694014,0.651,0.455,0.059,-28.420,96.810,13.860
159694034,0.554,0.404,0.022,-51.660,107.520,16.170
159694054,0.458,0.370,-0.008,-72.100,119.140,19.110
159694072,0.418,0.287,-0.029,-88.900,144.270,22.890
159694093,0.333,0.218,-0.068,-96.530,169.960,32.130
159694111,0.260,0.183,-0.126,-109.830,191.100,40.250
159694130,0.147,0.152,-0.155,-134.960,217.350,50.400
159694155,0.082,0.062,-0.164,-172.480,259.910,62.020
159694171,0.052,-0.127,-0.172,-195.020,292.040,69.860
159694194,-0.043,-0.237,-0.165,-202.440,334.460,87.710
159694214,-0.237,-0.304,-0.087,-206.990,394.450,105.560
159694235,-0.600,-0.446,0.071,-200.900,434.770,127.960
159694254,-0.929,-0.765,0.235,-174.370,455.140,155.330
159694279,-1.143,-1.098,0.301,-96.810,488.740,170.660
159694294,-1.432,-1.043,0.346,15.260,521.150,165.340
159694318,-1.735,-0.771,0.420,87.640,548.520,160.090
159694339,-2.091,-0.130,0.074,21.980,570.990,125.160
159694362,-2.940,-0.181,-0.221,-115.920,579.530,56.910
159694381,-3.371,-0.438,0.246,-150.010,469.280,38.220
159694405,-3.135,-0.452,0.140,-147.910,414.820,34.300
159694429,-3.084,-0.494,-0.078,-182.000,335.440,3.360
159694449,-2.752,-0.564,0.128,-167.580,282.450,-33.460
159694468,-2.263,-0.429,0.279,-84.000,251.090,-58.730
159694484,-2.234,0.063,0.179,-41.790,223.510,-59.990
159694504,-2.030,0.477,0.313,-89.530,181.510,-59.500
159694524,-1.812,0.035,0.591,-151.270,137.900,-60.690
159694549,-1.660,-0.128,0.951,-116.690,99.680,-42.980
159694569,-1.533,0.148,0.977,-87.850,71.330,-30.240
159694588,-1.383,0.316,0.945,-94.150,37.730,-18.270
159694608,-1.201,0.095,0.815,-68.670,13.650,7.700
159694632,-1.047,-0.090,0.737,-9.520,1.820,31.080
159694652,-1.028,-0.178,0.594,34.930,-5.880,41.860
159694667,-1.064,-0.202,0.506,79.380,-22.610,48.090
159694691,-1.091,-0.094,0.477,87.430,-49.630,51.870
159694712,-1.142,-0.154,0.422,74.410,-82.460,47.740
159694730,-1.209,-0.246,0.385,69.160,-107.170,43.470
159694753,-1.299,-0.316,0.357,69.230,-134.750,32.130
159694774,-1.474,-0.363,0.375,66.850,-172.760,20.300
159694791,-1.655,-0.342,0.362,60.760,-204.750,9.100
159694813,-1.844,-0.223,0.323,26.670,-257.950,-12.880
159694832,-1.911,-0.264,0.276,-12.950,-294.070,-48.580
159694857,-1.990,-0.431,0.323,-14.630,-327.180,-82.880
159694875,-2.024,-0.517,0.365,11.480,-342.160,-98.000
159694895,-1.926,-0.587,0.322,49.560,-341.530,-114.800
159694916,-1.775,-0.499,0.476,109.830,-316.960,-114.520
159694940,-1.807,-0.388,0.629,154.420,-293.720,-101.150
159694959,-1.966,-0.058,0.755,155.260,-310.380,-86.590
159694979,-1.905,-0.081,0.595,63.700,-322.280,-103.180
159695000,-1.882,-0.536,0.605,29.120,-326.060,-120.120
159695024,-1.820,-0.753,0.717,85.610,-332.640,-109.270
159695044,-1.693,-0.559,0.773,118.230,-343.770,-106.470
159695063,-1.385,-0.354,0.730,86.310,-360.570,-123.270
159695084,-1.264,-0.515,0.731,58.170,-377.090,-136.710
159695099,-0.980,-0.660,0.610,90.860,-365.330,-130.690
159695119,-0.777,-0.488,0.482,115.920,-364.700,-116.690
159695144,-0.521,-0.357,0.397,120.610,-358.540,-105.910
159695159,-0.394,-0.247,0.353,121.870,-353.570,-96.880
159695184,-0.239,-0.133,0.177,108.850,-339.360,-90.300
159695208,-0.196,-0.108,0.064,94.360,-327.530,-88.200
159695228,-0.089,-0.070,-0.018,94.360,-303.310,-87.150
159695247,0.075,-0.021,-0.068,98.420,-277.200,-86.730
159695268,0.201,0.119,-0.157,96.040,-247.800,-85.750
159695285,0.328,0.240,-0.199,84.770,-220.990,-88.410
159695306,0.449,0.359,-0.159,56.770,-180.390,-96.600
159695330,0.519,0.580,-0.094,14.000,-146.440,-104.370
159695350,0.730,0.343,-0.162,-1.120,-109.270,-105.280
159695368,0.921,0.208,-0.083,68.600,-49.280,-84.630
159695390,0.815,0.590,-0.054,103.460,-14.490,-66.990
159695414,0.813,0.737,-0.011,65.800,9.800,-61.110
159695433,0.805,0.706,-0.018,44.310,22.680,-50.820
159695457,0.799,0.671,-0.032,25.270,32.480,-38.570
159695477,0.729,0.627,-0.032,4.480,43.890,-28.000
159695496,0.590,0.580,0.004,0.420,50.540,-15.890
159695512,0.488,0.549,-0.011,3.920,54.810,1.190
159695537,0.429,0.503,-0.044,1.680,60.760,20.370
159695556,0.406,0.492,-0.120,-13.580,74.550,27.020
159695574,0.384,0.482,-0.141,-40.110,91.630,30.590
159695594,0.309,0.445,-0.130,-73.990,109.340,35.140
159695617,0.225,0.352,-0.127,-107.240,126.700,46.550
159695638,0.147,0.222,-0.159,-139.230,154.140,65.310
159695658,-0.013,0.133,-0.143,-156.520,169.820,106.680
159695678,-0.108,-0.025,-0.122,-186.970,203.280,113.680
159695697,-0.104,-0.209,-0.010,-194.320,233.240,131.180
159695718,-0.011,-0.239,0.125,-219.240,268.870,144.130
159695738,-0.047,-0.273,0.195,-259.840,308.700,152.460
159695762,-0.192,-0.448,0.286,-285.320,337.470,177.660
159695777,-0.349,-0.673,0.408,-261.030,371.700,198.100
159695801,-0.697,-1.001,0.943,-165.970,403.900,224.000
159695823,-0.778,-0.872,1.017,-82.950,421.890,226.870
159695845,-0.645,-0.820,0.759,-66.220,472.570,201.040
159695865,-1.377,-0.742,0.971,-17.920,539.980,177.730
159695885,-2.215,-0.877,1.407,41.020,507.990,147.490
159695909,-2.075,-0.681,1.195,81.690,462.210,96.390
159695929,-1.969,-0.081,0.720,37.170,451.780,60.200
159695946,-2.340,-0.104,0.661,-28.140,391.720,36.680
159695970,-2.376,-0.149,1.011,-42.210,310.870,25.340
159695989,-1.886,-0.283,0.900,-42.280,242.480,20.580
159696009,-1.756,-0.209,0.725,-35.770,198.380,12.180
159696032,-1.578,-0.136,0.575,-63.350,153.020,-8.470
159696052,-1.462,-0.240,0.482,-46.550,125.440,-17.150
159696072,-1.281,-0.175,0.514,-7.000,117.740,-14.000
159696092,-1.181,-0.018,0.440,15.470,98.420,-9.800
159696111,-1.106,0.090,0.348,4.830,83.580,-6.020
159696135,-1.134,-0.017,0.320,-16.450,63.280,-4.270
159696156,-1.132,-0.105,0.316,3.360,48.790,2.870
159696176,-1.131,0.028,0.294,15.750,35.490,8.960
159696199,-1.161,0.176,0.269,-16.310,13.580,10.780
159696218,-1.188,0.074,0.271,-50.330,-13.510,6.930
159696238,-1.184,-0.130,0.283,-53.130,-35.560,3.780
159696257,-1.215,-0.126,0.289,-31.500,-59.010,5.670
159696277,-1.224,0.078,0.294,-37.800,-81.340,3.500
159696302,-1.230,0.051,0.277,-79.520,-116.200,-11.340
159696320,-1.224,-0.156,0.299,-88.200,-136.150,-20.020
159696339,-1.258,-0.279,0.345,-63.350,-152.740,-28.350
159696363,-1.308,-0.312,0.380,-28.000,-174.370,-41.580
159696384,-1.333,-0.281,0.431,-3.920,-191.450,-49.840
159696400,-1.374,-0.279,0.508,9.450,-202.300,-56.350
159696420,-1.519,-0.178,0.670,15.890,-227.990,-62.160
159696444,-1.631,-0.126,0.756,-37.590,-267.470,-94.290
159696464,-1.600,-0.500,0.739,-58.380,-305.270,-124.320
159696484,-1.462,-0.765,0.755,30.520,-302.400,-123.340
159696503,-1.421,-0.539,0.814,69.300,-312.550,-123.760
159696524,-1.369,-0.440,0.882,50.540,-330.190,-137.620
159696542,-1.246,-0.445,0.900,24.990,-333.900,-154.980
159696565,-1.082,-0.529,0.896,-7.560,-342.790,-185.150
159696586,-0.960,-0.615,0.923,-40.810,-335.790,-219.030
159696604,-0.835,-0.577,0.866,-78.820,-334.530,-255.010
159696624,-0.492,-0.911,0.789,-89.460,-317.660,-288.050
159696648,-0.365,-1.276,0.735,21.280,-259.420,-287.070
159696667,-0.311,-0.913,0.633,115.780,-228.340,-265.160
159696688,-0.156,-0.612,0.589,156.380,-208.600,-241.080
159696708,0.027,-0.520,0.532,189.280,-183.750,-213.290
159696728,0.039,-0.620,0.534,256.550,-161.350,-178.850
159696752,-0.015,-0.524,0.471,341.740,-151.690,-120.260
159696769,0.072,-0.077,0.386,345.240,-152.880,-94.430
159696792,0.209,0.277,0.418,269.990,-159.740,-76.370
159696816,0.281,0.239,0.420,187.250,-159.810,-67.410
159696836,0.284,0.189,0.379,155.400,-154.350,-53.970
159696855,0.325,0.258,0.309,136.360,-146.790,-44.590
159696874,0.381,0.267,0.282,115.150,-138.110,-33.180
159696897,0.399,0.170,0.281,111.440,-129.920,-19.530
159696917,0.432,0.333,0.221,104.020,-123.130,-11.970
159696936,0.484,0.512,0.187,41.930,-118.090,-17.850
159696961,0.578,0.264,0.148,9.380,-105.210,-21.770
159696981,0.692,0.191,0.094,44.240,-82.460,-10.780
159696999,0.728,0.313,0.089,66.640,-65.730,-3.080
159697023,0.750,0.414,0.059,61.600,-50.820,-0.560
159697042,0.806,0.455,0.072,42.490,-38.710,-2.100
159697063,0.857,0.405,0.054,17.920,-22.330,-4.690
159697083,0.886,0.378,0.050,12.810,-8.260,-4.200
159697102,0.884,0.409,0.054,9.380,5.180,-3.220
159697127,0.873,0.437,0.090,6.440,18.480,-0.700
159697144,0.882,0.430,0.122,1.400,24.360,-1.750
159697167,0.881,0.417,0.151,-7.560,31.080,-3.080
159697186,0.842,0.409,0.171,-11.760,35.770,-2.030
159697210,0.787,0.406,0.178,-19.040,40.390,0.350
159697225,0.773,0.389,0.170,-25.060,46.970,-0.140
159697245,0.709,0.352,0.122,-31.150,62.440,0.700
159697269,0.591,0.317,0.054,-41.370,85.890,3.360
159697292,0.484,0.289,-0.013,-53.200,114.240,7.560
159697311,0.413,0.269,-0.044,-67.270,138.040,11.410
159697335,0.360,0.227,-0.065,-83.370,166.810,15.680
159697355,0.275,0.184,-0.059,-105.770,206.850,21.210
159697374,0.197,0.115,-0.084,-126.700,235.620,28.980
159697398,0.179,0.041,-0.100,-159.810,279.440,42.070
159697417,0.124,-0.059,-0.067,-171.220,317.940,52.430
159697436,-0.023,-0.101,0.030,-185.990,352.590,67.270
159697458,-0.207,-0.122,0.125,-198.450,383.250,83.720
159697482,-0.333,-0.275,0.214,-219.240,415.240,98.560
159697502,-0.611,-0.603,0.373,-179.130,457.520,124.740
159697519,-0.982,-0.808,0.670,-110.810,469.770,134.190
159697541,-1.239,-0.670,0.773,-42.000,468.580,131.670
159697565,-1.386,-0.569,0.599,-31.080,486.640,96.810
159697585,-1.618,-0.582,0.428,-37.870,504.560,68.530
159697605,-2.262,-0.466,0.728,-57.680,472.150,61.950
159697623,-2.428,-0.203,0.783,-114.800,416.430,53.550
159697644,-2.386,-0.314,0.570,-190.190,362.390,43.960
159697666,-2.295,-0.591,0.346,-176.890,326.410,45.080
159697685,-2.238,-0.597,0.301,-141.750,293.860,40.600
159697701,-2.127,-0.413,0.382,-106.820,265.790,22.890
159697722,-1.988,-0.272,0.492,-105.910,216.090,-10.150
159697746,-1.838,-0.190,0.445,-98.560,170.310,-35.770
159697761,-1.626,-0.028,0.432,-85.400,127.820,-39.550
159697781,-1.400,0.085,0.430,-94.710,100.660,-35.420
159697802,-1.322,-0.018,0.488,-92.470,79.310,-26.390
159697821,-1.354,-0.012,0.618,-71.120,59.010,-17.570
159697845,-1.266,0.097,0.654,-64.540,35.070,-10.360
159697864,-1.190,0.146,0.633,-69.230,13.020,-0.420
159697883,-1.176,-0.041,0.607,-50.120,-4.970,6.580
159697907,-1.161,-0.178,0.603,0.840,-17.500,21.000
159697925,-1.156,0.038,0.552,48.230,-33.320,31.290
159697945,-1.263,0.077,0.461,44.240,-51.590,34.230
159697964,-1.304,-0.017,0.427,33.460,-77.490,34.440
159697984,-1.339,-0.132,0.395,30.310,-99.680,29.470
159698009,-1.418,-0.218,0.369,46.970,-128.940,21.280
159698029,-1.407,-0.155,0.255,54.180,-149.450,12.320
159698053,-1.420,-0.136,0.270,45.360,-166.180,3.080
159698072,-1.449,-0.193,0.300,43.540,-191.310,-2.310
159698093,-1.488,-0.201,0.299,30.590,-217.420,-11.830
159698113,-1.488,-0.180,0.290,16.660,-237.230,-18.410
159698132,-1.521,-0.183,0.310,6.230,-249.410,-26.880
159698153,-1.564,-0.365,0.415,19.810,-274.540,-35.770
159698171,-1.588,-0.366,0.433,36.540,-291.690,-41.230
159698192,-1.562,-0.249,0.440,24.220,-315.140,-58.030
159698208,-1.495,-0.359,0.501,11.760,-325.430,-74.900
159698228,-1.452,-0.563,0.595,38.150,-330.190,-87.290
159698253,-1.388,-0.557,0.688,94.150,-329.980,-87.430
159698272,-1.241,-0.354,0.742,98.490,-334.530,-90.300
159698292,-1.057,-0.293,0.817,74.830,-340.830,-104.160
159698311,-0.898,-0.469,0.845,82.460,-334.180,-110.530
159698336,-0.708,-0.324,0.815,120.890,-319.620,-103.810
159698355,-0.535,-0.171,0.826,118.160,-319.900,-102.830
159698379,-0.341,-0.091,0.763,98.490,-311.430,-100.800
159698403,-0.149,-0.040,0.648,81.760,-299.740,-99.050
159698422,-0.003,-0.028,0.593,80.640,-278.880,-93.940
159698441,0.106,0.064,0.677,106.120,-267.960,-83.160
159698463,0.219,0.076,0.600,90.020,-236.180,-72.520
159698486,0.328,0.125,0.534,91.210,-216.440,-64.260
159698507,0.387,0.220,0.549,86.380,-192.430,-52.920
159698527,0.443,0.259,0.596,77.210,-176.120,-48.510
159698546,0.494,0.320,0.650,78.890,-164.220,-38.290
159698567,0.476,0.364,0.658,77.070,-160.300,-19.600
159698590,0.590,0.321,0.559,58.240,-159.110,-14.210
159698613,0.672,0.275,0.486,49.700,-146.580,-17.780
159698634,0.577,0.321,0.477,37.520,-143.010,-15.050
159698653,0.583,0.353,0.394,14.910,-142.170,-20.160
159698673,0.642,0.212,0.305,3.920,-129.570,-21.980
159698692,0.657,0.112,0.217,25.830,-113.190,-19.880
159698716,0.669,0.202,0.150,49.140,-92.890,-18.690
159698740,0.646,0.292,0.119,33.320,-79.310,-24.220
159698760,0.673,0.270,0.087,18.130,-68.950,-29.750
159698780,0.739,0.264,0.032,15.960,-52.780,-32.480
159698799,0.762,0.278,0.020,22.400,-37.450,-32.410
159698818,0.762,0.355,0.009,26.180,-24.780,-31.150
159698838,0.792,0.427,0.020,21.000,-13.230,-30.240
159698857,0.826,0.470,0.034,10.640,-2.870,-29.960
159698882,0.895,0.455,0.061,-1.610,6.650,-32.480
159698902,0.908,0.463,0.062,-8.190,19.670,-33.740
159698920,0.887,0.512,0.091,-12.390,31.430,-32.200
159698942,0.802,0.512,0.134,-11.970,40.670,-24.850
159698962,0.717,0.496,0.107,-11.970,48.860,-17.640
159698986,0.663,0.493,0.062,-23.660,55.720,-15.330
159699001,0.650,0.455,0.025,-42.910,70.420,-17.150
159699026,0.582,0.400,0.015,-55.580,90.510,-16.660
159699044,0.412,0.372,0.002,-63.770,115.010,-10.010
159699063,0.332,0.346,-0.018,-73.360,129.990,-6.510
159699086,0.348,0.314,0.022,-84.770,153.580,-5.320
159699105,0.323,0.262,0.116,-89.250,180.740,-0.280
159699128,0.181,0.287,0.237,-98.070,201.600,11.970
159699152,0.153,0.331,0.293,-113.820,206.360,24.500
159699171,0.376,0.355,0.251,-150.990,218.400,25.410
159699192,0.485,0.212,0.265,-184.310,246.960,39.060
159699212,0.194,0.007,0.459,-178.710,272.440,59.780
159699236,-0.164,-0.164,0.742,-153.510,278.600,83.370
159699256,-0.210,-0.117,0.713,-173.320,267.960,77.700
159699276,-0.153,-0.267,0.540,-215.110,278.880,78.540
159699296,-0.355,-0.432,0.543,-208.810,303.870,92.260
159699316,-0.654,-0.477,0.816,-180.320,306.740,102.200
159699336,-0.789,-0.797,0.854,-140.350,301.910,111.720
159699351,-0.789,-0.828,0.750,-99.750,310.800,119.350
159699375,-0.917,-0.450,0.701,-117.530,340.340,106.330
159699394,-1.208,-0.403,0.864,-164.150,335.090,81.760
159699419,-1.406,-0.907,0.897,-124.530,330.470,79.240
159699439,-1.458,-1.014,0.800,-26.320,338.870,93.730
159699455,-1.650,-0.465,0.827,-18.480,344.260,81.830
159699479,-1.715,-0.134,0.812,-82.180,308.560,39.060
159699494,-1.692,-0.349,0.807,-113.540,280.840,31.010
159699518,-1.704,-0.443,0.676,-82.110,257.950,39.340
159699539,-1.769,-0.283,0.644,-78.610,232.960,32.200
159699559,-1.743,-0.185,0.742,-84.350,183.960,16.590
159699577,-1.378,-0.269,0.757,-56.490,154.840,7.140
159699601,-1.387,-0.226,0.618,3.430,140.070,7.070
159699620,-1.424,0.080,0.582,14.700,116.200,11.830
159699641,-1.406,0.454,0.587,-64.680,60.690,9.240
159699661,-1.273,0.115,0.483,-129.360,26.530,5.180
159699681,-1.254,-0.387,0.489,-87.990,1.680,15.400
159699705,-1.137,-0.266,0.510,-14.840,-1.190,21.560
159699725,-1.117,-0.050,0.552,-12.180,-19.250,20.650
159699740,-1.135,-0.028,0.564,-24.150,-35.910,15.960
159699764,-1.157,-0.212,0.532,-28.420,-62.650,6.370
159699782,-1.201,-0.376,0.506,-2.590,-75.810,3.360
159699801,-1.299,-0.255,0.507,30.100,-98.630,-1.050
159699826,-1.330,-0.104,0.520,17.290,-129.990,-12.600
159699846,-1.313,-0.189,0.555,9.030,-152.110,-24.780
159699861,-1.286,-0.574,0.590,39.900,-161.630,-28.980
159699886,-1.310,-0.790,0.612,171.710,-163.730,-20.020
159699904,-1.394,-0.435,0.589,212.310,-181.790,-12.880
159699925,-1.400,-0.017,0.643,146.930,-216.160,-20.860
159699949,-1.434,-0.183,0.683,81.060,-248.290,-41.510
159699968,-1.450,-0.374,0.686,57.610,-273.700,-48.790
159699989,-1.438,-0.444,0.783,67.410,-294.140,-53.690
159700009,-1.369,-0.370,0.906,79.100,-308.560,-56.210
159700029,-1.337,-0.275,0.999,81.130,-316.400,-58.730
159700048,-1.325,-0.235,0.995,61.530,-332.430,-63.210
159700067,-1.205,-0.471,1.005,67.200,-341.040,-71.470
159700087,-1.044,-0.542,1.001,106.750,-337.330,-72.310
159700111,-0.930,-0.322,0.975,127.610,-331.520,-70.490
159700130,-0.668,-0.384,0.945,128.100,-319.130,-78.190
159700150,-0.508,-0.439,0.828,150.780,-297.220,-79.730
159700174,-0.348,-0.192,0.673,167.090,-269.150,-70.490
159700192,-0.155,0.014,0.610,148.890,-249.690,-69.440
159700212,0.006,-0.021,0.666,130.760,-228.620,-57.820
159700233,-0.047,-0.035,0.634,131.880,-215.600,-37.450
159700253,-0.012,0.122,0.616,127.540,-205.660,-21.490
159700274,0.068,0.189,0.620,98.910,-204.050,-13.580
159700298,0.101,0.150,0.676,76.440,-202.440,-9.730
159700316,0.137,0.129,0.648,73.430,-207.550,-7.630
159700337,0.256,0.175,0.590,71.050,-202.020,-10.570
159700359,0.326,0.234,0.595,75.810,-201.950,-7.840
159700379,0.305,0.299,0.528,87.780,-197.540,5.670
159700403,0.411,0.387,0.419,73.640,-202.370,7.490
159700421,0.506,0.385,0.336,50.540,-201.390,-1.260
159700442,0.554,0.345,0.238,29.330,-187.110,-7.840
159700462,0.562,0.316,0.149,37.520,-170.520,-9.240
159700484,0.612,0.309,0.022,43.470,-150.290,-12.180
159700508,0.661,0.312,-0.059,43.960,-121.940,-18.760
159700528,0.699,0.310,-0.108,54.670,-98.070,-20.230
159700548,0.759,0.404,-0.131,56.910,-73.220,-20.440
159700568,0.775,0.463,-0.158,43.190,-56.280,-23.660
159700584,0.802,0.426,-0.160,36.820,-40.950,-25.620
159700608,0.795,0.440,-0.119,34.090,-20.580,-24.920
159700627,0.784,0.468,-0.120,27.930,-11.130,-22.050
159700647,0.825,0.514,-0.127,17.080,-1.820,-18.620
159700668,0.837,0.508,-0.116,8.050,7.770,-16.870
159700688,0.818,0.482,-0.109,-0.560,17.360,-14.070
159700708,0.780,0.493,-0.065,2.100,24.430,-10.360
159700732,0.786,0.522,-0.029,-7.910,30.310,-8.120
159700750,0.775,0.508,-0.023,-10.640,35.770,-3.920
159700769,0.795,0.513,-0.006,-14.490,41.370,-2.170
159700793,0.778,0.498,-0.004,-17.430,50.120,-1.120
159700815,0.741,0.495,0.028,-18.760,59.920,2.380
159700834,0.696,0.495,0.049,-24.570,68.250,4.550
159700854,0.668,0.455,0.072,-32.200,78.540,4.410
159700874,0.610,0.413,0.046,-42.210,91.490,3.570
159700898,0.520,0.355,0.018,-53.270,110.670,3.290
159700918,0.426,0.311,-0.020,-69.300,137.900,0.490
159700938,0.372,0.257,-0.009,-94.430,159.320,-2.100
159700958,0.333,0.200,-0.011,-112.770,188.160,-1.680
159700980,0.270,0.147,-0.023,-135.660,219.870,1.400
159701000,0.190,0.095,0.008,-156.730,249.690,10.430
159701020,0.106,0.064,0.085,-180.320,276.080,25.830
159701040,0.029,-0.017,0.118,-204.330,303.660,42.630
159701060,-0.041,-0.091,0.111,-233.450,334.320,64.190
159701083,-0.214,-0.220,0.270,-252.140,370.860,84.910
159701107,-0.495,-0.385,0.469,-272.440,396.270,103.880
159701122,-0.723,-0.651,0.553,-262.290,412.300,119.070
159701147,-0.973,-0.912,0.749,-197.750,427.700,150.780
159701165,-1.111,-0.659,0.873,-122.920,436.730,149.100
159701182,-1.267,-0.443,0.900,-121.660,446.530,141.470
159701207,-1.477,-0.464,0.880,-128.730,482.510,137.410
159701227,-1.979,-0.479,0.696,-157.010,471.940,131.040
159701247,-2.331,-0.544,0.585,-182.140,441.140,120.330
159701266,-2.359,-0.658,0.602,-178.010,414.680,113.750
159701287,-2.479,-0.489,0.594,-155.050,362.810,111.930
159701310,-2.467,-0.381,0.478,-168.070,295.120,92.680
159701328,-2.025,-0.461,0.438,-201.320,218.960,54.320
159701352,-1.842,-0.602,0.450,-181.510,165.480,10.780
159701370,-1.767,-0.557,0.510,-128.730,126.630,-10.360
159701390,-1.590,-0.252,0.468,-102.620,88.970,-34.230
159701414,-1.395,-0.229,0.435,-122.010,44.100,-56.700
159701434,-1.213,-0.296,0.418,-137.480,19.250,-57.680
159701453,-0.995,-0.381,0.498,-126.910,14.350,-45.500
159701477,-0.904,-0.544,0.714,-68.810,5.250,-18.830
159701496,-0.895,-0.468,0.751,-29.400,13.650,-8.330
159701515,-0.890,-0.402,0.760,2.660,6.930,0.350
159701537,-0.885,-0.326,0.688,26.950,-3.080,5.250
159701556,-0.926,-0.321,0.587,31.850,-13.440,5.040
159701581,-1.021,-0.425,0.503,52.850,-34.930,0.700
159701598,-1.135,-0.472,0.524,83.370,-50.960,0.210
159701618,-1.211,-0.329,0.429,87.920,-79.240,-5.670
159701642,-1.293,-0.317,0.429,75.670,-102.480,-23.660
159701659,-1.437,-0.419,0.479,84.140,-134.750,-32.900
159701679,-1.558,-0.286,0.459,82.810,-165.480,-45.360
159701703,-1.593,-0.258,0.472,47.880,-203.490,-73.290
159701722,-1.649,-0.352,0.530,26.740,-239.120,-91.630
159701743,-1.680,-0.361,0.516,7.840,-269.360,-107.310
159701761,-1.644,-0.501,0.526,0.840,-286.510,-121.940
159701785,-1.638,-0.742,0.609,44.730,-295.470,-135.730
159701806,-1.686,-0.722,0.678,89.670,-306.810,-140.350
159701823,-1.651,-0.735,0.767,100.310,-320.530,-151.270
159701846,-1.523,-0.965,0.772,147.700,-321.790,-163.870
159701867,-1.512,-0.971,0.813,204.470,-323.610,-159.670
159701888,-1.422,-0.693,0.828,205.660,-337.820,-163.310
159701907,-1.124,-0.626,0.868,172.760,-352.590,-168.490
159701927,-0.815,-0.663,0.789,178.220,-340.550,-164.290
159701943,-0.706,-0.607,0.719,188.230,-333.270,-155.120
159701962,-0.499,-0.457,0.580,203.910,-319.340,-141.750
159701987,-0.260,-0.286,0.509,203.140,-298.620,-121.660
159702006,-0.043,-0.162,0.546,198.590,-275.730,-104.930
159702026,-0.002,-0.037,0.496,183.050,-259.980,-82.600
159702046,0.093,-0.004,0.440,154.560,-241.500,-70.700
159702065,0.185,0.019,0.388,136.920,-225.120,-60.200
159702085,0.283,0.088,0.423,120.960,-203.210,-54.180
159702109,0.267,0.110,0.433,105.980,-182.560,-42.980
159702126,0.309,0.135,0.365,98.140,-171.640,-32.060
159702150,0.439,0.189,0.294,77.420,-153.930,-29.890
159702167,0.497,0.241,0.305,62.720,-143.010,-30.100
159702190,0.486,0.291,0.333,49.420,-132.020,-24.430
159702212,0.496,0.307,0.293,35.000,-124.320,-19.740
159702231,0.612,0.307,0.267,27.020,-115.500,-19.320
159702249,0.651,0.325,0.235,21.490,-105.420,-18.340
159702269,0.656,0.316,0.222,20.720,-96.600,-16.730
159702289,0.683,0.332,0.202,19.320,-87.010,-16.310
159702313,0.726,0.347,0.152,16.520,-74.060,-17.360
159702330,0.808,0.355,0.136,17.780,-59.710,-18.270
159702354,0.802,0.379,0.131,15.890,-42.490,-19.950
159702371,0.788,0.389,0.123,14.840,-31.500,-19.880
159702390,0.807,0.398,0.118,13.720,-20.440,-19.950
159702410,0.820,0.402,0.109,12.950,-10.500,-20.230
159702435,0.816,0.415,0.125,12.740,-0.210,-18.270
159702453,0.785,0.433,0.154,13.090,4.200,-14.000
159702477,0.779,0.455,0.171,8.330,3.850,-10.430
159702495,0.846,0.474,0.197,-0.210,3.780,-10.220
159702519,0.830,0.475,0.216,-3.430,4.550,-5.950
159702539,0.828,0.480,0.226,-2.800,4.060,-2.450
159702559,0.843,0.476,0.231,-7.980,4.410,-1.890
159702579,0.851,0.458,0.224,-10.640,6.580,-2.730
159702599,0.855,0.450,0.211,-14.140,10.570,-3.850
159702619,0.804,0.430,0.205,-16.170,16.450,-3.710
159702636,0.749,0.395,0.191,-17.570,23.590,-2.940
159702655,0.724,0.382,0.170,-17.990,30.940,-5.040
159702679,0.711,0.386,0.164,-28.070,45.640,-9.520
159702699,0.632,0.344,0.131,-37.100,54.250,-13.230
159702719,0.514,0.265,0.096,-50.400,72.870,-14.560
159702739,0.447,0.225,0.076,-58.170,89.950,-15.470
159702763,0.444,0.215,0.093,-67.480,112.560,-17.290
159702783,0.399,0.188,0.092,-80.290,135.730,-16.590
159702800,0.350,0.163,0.090,-92.890,153.440,-13.510
159702819,0.293,0.122,0.140,-105.070,174.510,-5.530
159702844,0.290,0.037,0.239,-119.140,201.600,8.120
159702868,0.358,-0.233,0.397,-88.970,230.720,22.190
159702885,0.177,0.056,0.576,-69.370,243.530,45.080
159702905,-0.008,0.275,0.884,-72.800,242.130,77.000
159702925,0.004,0.299,0.902,-117.810,227.920,88.130
159702944,0.062,0.171,0.832,-187.950,235.690,82.320
159702965,-0.053,0.020,0.653,-279.510,261.660,98.140
159702989,-0.263,-0.295,0.700,-294.980,286.160,130.060
159703009,-0.285,-0.347,0.920,-255.640,309.260,150.500
159703028,-0.289,-0.507,1.127,-232.680,331.590,153.160
159703053,-0.752,-0.769,1.180,-213.360,342.300,141.260
159703069,-1.036,-0.759,1.081,-206.220,341.320,137.970
159703092,-1.111,-0.560,1.134,-196.980,306.250,136.430
159703109,-0.873,-0.422,1.066,-199.570,303.170,135.730
159703129,-1.008,-0.529,0.981,-186.690,304.780,150.850
159703153,-1.262,-0.530,0.884,-161.490,304.500,168.000
159703172,-1.397,-0.500,0.783,-172.690,301.490,156.240
159703191,-1.545,-0.624,0.716,-174.230,291.130,141.190
159703215,-1.627,-0.675,0.671,-139.440,282.100,131.950
159703235,-1.800,-0.708,0.686,-58.450,232.190,131.460
159703255,-1.718,-0.442,0.604,-43.330,165.550,112.350
159703279,-1.536,-0.386,0.548,-76.860,99.610,61.950
159703299,-1.458,-0.399,0.522,-103.250,49.630,30.940
159703319,-1.267,-0.574,0.557,-77.630,19.950,6.370
159703334,-1.139,-0.571,0.548,-42.350,6.090,-3.500
159703358,-0.971,-0.470,0.417,-11.760,-4.970,-12.460
159703381,-0.866,-0.375,0.449,9.380,-4.130,-3.570
159703403,-0.849,-0.299,0.471,21.210,-14.490,10.780
159703427,-0.872,-0.313,0.443,16.730,-20.370,10.920
159703443,-0.922,-0.413,0.418,25.270,-24.920,11.060
159703467,-0.959,-0.386,0.372,42.700,-26.880,9.590
159703484,-1.043,-0.395,0.355,49.490,-31.780,4.830
159703504,-1.135,-0.414,0.335,59.570,-43.120,-3.710
159703523,-1.172,-0.412,0.296,66.990,-57.400,-12.810
159703546,-1.188,-0.380,0.275,71.960,-73.640,-25.410
159703565,-1.181,-0.360,0.266,74.760,-85.610,-37.310
159703588,-1.183,-0.397,0.305,81.830,-98.000,-50.120
159703612,-1.215,-0.367,0.350,96.880,-113.470,-55.790
159703636,-1.215,-0.302,0.345,92.680,-130.200,-63.700
159703656,-1.232,-0.264,0.373,77.560,-147.630,-68.320
159703676,-1.186,-0.366,0.416,71.470,-162.400,-72.870
159703693,-1.169,-0.451,0.470,86.590,-166.460,-73.430
159703713,-1.168,-0.450,0.526,105.980,-170.800,-71.890
159703732,-1.196,-0.360,0.602,106.890,-179.760,-74.130
159703757,-1.145,-0.272,0.673,74.060,-200.480,-81.620
159703776,-1.076,-0.410,0.747,56.700,-210.980,-87.220
159703796,-1.020,-0.542,0.791,76.300,-212.660,-88.480
159703816,-0.956,-0.462,0.826,100.100,-215.460,-84.070
159703839,-0.828,-0.390,0.829,97.860,-219.870,-84.560
159703860,-0.737,-0.418,0.848,100.590,-218.050,-82.460
159703880,-0.625,-0.394,0.856,102.270,-216.230,-82.530
159703903,-0.569,-0.336,0.870,102.620,-215.600,-82.040
159703924,-0.443,-0.315,0.846,92.820,-210.140,-82.530
159703939,-0.335,-0.281,0.844,90.230,-205.100,-81.480
159703964,-0.226,-0.328,0.940,102.550,-202.860,-78.680
159703988,-0.255,-0.297,0.976,119.630,-189.070,-74.760
159704008,-0.165,-0.020,0.886,115.780,-188.790,-70.490
159704028,0.029,-0.026,0.915,104.580,-185.920,-67.760
159704047,0.115,-0.054,0.960,96.810,-184.170,-62.580
159704068,0.188,-0.027,0.980,96.950,-174.090,-60.060
159704087,0.210,0.054,0.930,91.350,-171.220,-55.580
159704112,0.325,0.079,0.874,85.260,-168.770,-51.660
159704131,0.444,0.107,0.837,88.620,-159.670,-49.840
159704151,0.488,0.151,0.854,90.860,-151.410,-46.270
159704170,0.449,0.138,0.844,91.210,-142.170,-41.510
159704191,0.479,0.205,0.787,87.430,-139.300,-38.920
159704215,0.540,0.246,0.740,75.110,-134.680,-39.970
159704235,0.574,0.290,0.724,62.370,-130.060,-41.090
159704255,0.591,0.283,0.696,55.510,-122.990,-38.360
159704275,0.590,0.264,0.640,57.820,-118.160,-34.370
159704292,0.613,0.268,0.598,63.770,-113.050,-32.340
159704311,0.634,0.307,0.564,66.990,-106.820,-29.680
159704336,0.638,0.339,0.533,65.450,-101.220,-27.370
159704356,0.628,0.347,0.481,58.590,-97.720,-25.900
159704373,0.629,0.357,0.434,53.340,-94.360,-25.410
159704395,0.651,0.385,0.396,48.160,-89.110,-24.640
159704414,0.669,0.420,0.339,44.590,-82.950,-23.170
159704439,0.698,0.460,0.292,36.750,-75.810,-20.440
159704459,0.708,0.419,0.302,40.250,-68.950,-15.400
159704474,0.653,0.397,0.285,48.300,-66.500,-11.060
159704494,0.681,0.474,0.263,47.250,-64.680,-8.330
159704514,0.712,0.481,0.222,33.530,-62.440,-8.610
159704539,0.710,0.461,0.188,31.150,-58.590,-5.040
159704555,0.704,0.469,0.176,30.030,-56.210,-2.870
159704579,0.717,0.477,0.168,26.530,-54.040,-2.730
159704599,0.745,0.484,0.141,22.680,-48.510,-2.800
159704619,0.746,0.502,0.107,18.690,-42.910,-2.730
159704639,0.726,0.490,0.074,13.230,-34.930,-2.940
159704663,0.686,0.434,0.025,18.410,-23.800,-3.640
159704683,0.776,0.430,0.036,31.710,-12.390,-2.800
159704698,0.778,0.511,0.038,29.120,-4.900,-3.080
159704723,0.786,0.546,0.040,12.320,1.750,-7.490
159704743,0.794,0.534,0.069,3.570,8.750,-8.400
159704763,0.764,0.484,0.058,5.880,14.770,-6.790
159704781,0.784,0.486,0.066,10.570,18.060,-4.550
159704804,0.774,0.526,0.082,3.430,20.300,-1.260
159704828,0.691,0.516,0.111,-16.660,14.770,3.080
159704847,0.640,0.485,0.108,-29.890,8.680,10.920
159704872,0.590,0.452,0.076,-45.150,3.220,17.500
159704891,0.676,0.427,0.058,-51.730,6.790,12.040
159704912,0.723,0.403,0.120,-42.700,17.360,11.410
159704928,0.682,0.409,0.138,-30.940,23.310,13.580
159704951,0.672,0.416,0.123,-31.500,32.200,15.190
159704969,0.731,0.396,0.127,-35.770,42.070,10.010
159704989,0.807,0.416,0.179,-34.650,54.040,7.910
159705008,0.790,0.444,0.227,-38.990,68.600,10.710
159705033,0.678,0.394,0.246,-41.930,79.940,19.740
159705053,0.643,0.390,0.238,-47.950,86.380,21.210
159705072,0.760,0.408,0.277,-63.980,97.860,17.500
159705093,0.753,0.390,0.325,-76.930,113.260,23.590
159705116,0.557,0.291,0.354,-75.740,123.200,37.660
159705137,0.498,0.260,0.355,-72.520,133.280,51.940
159705156,0.534,0.292,0.331,-88.130,145.530,57.260
159705176,0.584,0.305,0.371,-111.160,162.820,63.280
159705200,0.462,0.231,0.428,-116.340,186.620,86.380
159705219,0.349,0.147,0.538,-105.140,198.730,106.470
159705239,0.362,0.151,0.574,-110.320,211.610,114.240
159705263,0.374,0.178,0.569,-156.590,235.970,114.170
159705283,0.240,0.121,0.774,-164.640,255.570,128.380
159705303,0.005,-0.133,0.911,-144.340,250.390,147.280
159705319,0.015,-0.275,0.929,-129.710,261.310,152.460
159705338,-0.088,-0.413,1.000,-126.000,271.390,145.250
159705360,-0.443,-0.546,1.229,-113.750,268.240,133.560
159705384,-0.554,-0.530,1.200,-89.180,244.930,129.710
159705404,-0.383,-0.451,0.992,-100.170,248.990,124.320
159705421,-0.439,-0.360,0.871,-130.200,256.270,114.590
159705439,-0.713,-0.352,1.062,-157.360,252.700,107.730
159705464,-0.839,-0.623,1.147,-143.780,235.900,110.880
159705484,-0.796,-0.743,0.973,-89.460,250.040,122.360
159705503,-0.808,-0.491,0.770,-66.220,248.570,123.900
159705524,-1.074,-0.317,0.722,-117.740,241.220,111.790
159705544,-1.179,-0.429,0.681,-144.830,222.040,108.780
159705564,-1.191,-0.575,0.610,-129.780,210.770,115.290
159705587,-1.179,-0.556,0.518,-106.330,207.410,120.820
159705605,-1.225,-0.507,0.506,-97.650,193.690,117.040
159705626,-1.311,-0.484,0.499,-99.680,176.610,108.850
159705644,-1.426,-0.489,0.418,-112.280,155.260,95.200
159705666,-1.317,-0.515,0.362,-119.210,127.190,76.020
159705690,-1.239,-0.584,0.355,-100.800,111.160,55.790
159705710,-1.235,-0.614,0.402,-59.150,96.600,46.760
159705730,-1.190,-0.437,0.372,-52.430,79.380,34.580
159705749,-1.085,-0.319,0.368,-70.910,69.720,22.610
159705773,-1.036,-0.416,0.375,-69.650,63.490,18.270
159705792,-1.038,-0.488,0.391,-31.780,56.140,18.620
159705817,-1.049,-0.316,0.349,-11.130,45.150,18.550
159705835,-1.035,-0.173,0.331,-29.260,36.190,16.240
159705854,-1.049,-0.227,0.351,-50.540,22.120,11.760
159705874,-1.037,-0.346,0.355,-43.890,10.850,8.260
159705898,-1.005,-0.399,0.342,-12.740,6.440,7.140
159705919,-1.003,-0.334,0.311,19.110,2.660,6.930
159705937,-1.036,-0.336,0.287,33.460,-3.290,2.730
159705957,-1.030,-0.366,0.264,47.740,-11.270,-3.920
159705981,-1.031,-0.364,0.231,57.470,-20.580,-15.260
159706001,-1.039,-0.376,0.194,60.270,-28.630,-24.780
159706019,-1.038,-0.399,0.170,63.420,-35.630,-34.300
159706041,-1.030,-0.433,0.151,67.760,-42.140,-46.340
159706059,-1.015,-0.456,0.140,73.990,-46.830,-53.620
159706083,-1.003,-0.471,0.125,81.270,-50.050,-64.540
159706103,-1.039,-0.474,0.115,84.490,-52.220,-70.630
159706123,-1.093,-0.429,0.074,80.430,-61.460,-78.750
159706147,-1.037,-0.388,0.057,62.650,-69.230,-90.300
159706163,-0.973,-0.403,0.051,43.190,-70.000,-95.200
159706182,-0.932,-0.448,0.060,35.770,-66.220,-97.580
159706207,-0.962,-0.485,0.059,38.150,-58.100,-95.900
159706227,-0.973,-0.441,0.031,37.870,-55.440,-94.780
159706245,-0.896,-0.403,0.035,30.940,-49.140,-94.710
159706265,-0.915,-0.425,0.049,28.350,-39.270,-90.860
159706289,-0.996,-0.397,0.038,34.580,-27.090,-81.480
159706308,-0.975,-0.222,-0.065,15.400,-38.990,-82.880
159706332,-0.757,-0.227,-0.031,-16.030,-26.460,-85.330
159706356,-0.792,-0.403,-0.014,-4.060,-8.820,-71.610
159706375,-0.949,-0.501,-0.040,20.930,-2.240,-52.360
159706395,-1.031,-0.500,-0.075,34.370,12.880,-27.370
159706416,-1.113,-0.445,-0.120,26.110,2.310,-6.930
159706435,-1.004,-0.412,-0.056,1.330,4.620,5.250
159706460,-0.912,-0.387,0.017,-20.860,10.080,15.820
159706480,-0.803,-0.353,0.084,-37.800,16.380,23.100
159706499,-0.764,-0.387,0.144,-41.930,23.800,32.130
159706523,-0.750,-0.418,0.170,-33.810,29.820,48.930
159706542,-0.704,-0.406,0.183,-32.620,34.300,59.360
159706562,-0.658,-0.420,0.210,-32.410,40.460,72.240
159706582,-0.658,-0.440,0.237,-25.340,50.050,87.220
159706601,-0.745,-0.485,0.287,-11.830,55.860,108.290
159706626,-0.861,-0.479,0.286,9.170,51.940,125.580
159706646,-0.882,-0.412,0.278,9.800,42.980,126.140
159706669,-0.857,-0.353,0.242,-8.190,29.680,111.720
159706685,-0.863,-0.317,0.169,-44.240,30.800,100.100
159706708,-1.199,-0.480,0.158,-78.680,38.570,91.140
159706733,-1.543,-0.596,0.237,-73.500,25.130,81.200
159706752,-1.331,-0.492,0.348,-76.930,14.280,61.180
159706770,-1.122,-0.509,0.384,-77.980,11.620,41.370
159706787,-1.020,-0.617,0.376,-44.240,16.520,34.860
159706807,-1.009,-0.637,0.360,14.280,21.840,38.710
159706831,-1.051,-0.507,0.337,49.490,11.620,36.960
159706850,-1.043,-0.377,0.278,36.190,-3.430,27.370
159706873,-0.975,-0.276,0.252,-7.980,-21.420,9.240
159706894,-0.807,-0.270,0.288,-41.160,-31.500,-1.540
159706911,-0.722,-0.330,0.331,-46.200,-35.210,-4.130
159706932,-0.664,-0.373,0.375,-34.020,-34.020,-5.110
159706956,-0.651,-0.377,0.362,-18.760,-32.620,-8.960
159706975,-0.627,-0.390,0.333,0.070,-27.300,-11.620
159706996,-0.639,-0.426,0.319,25.060,-18.270,-11.340
159707016,-0.704,-0.406,0.309,47.250,-12.180,-9.520
159707039,-0.775,-0.352,0.338,59.640,-12.950,-9.380
159707060,-0.823,-0.297,0.275,49.910,-23.800,-10.500
159707080,-0.850,-0.288,0.209,29.890,-27.160,-15.330
159707100,-0.906,-0.360,0.201,17.010,-29.120,-18.690
159707120,-0.965,-0.401,0.186,6.580,-29.400,-21.700
159707144,-1.038,-0.420,0.178,-16.310,-26.670,-26.320
159707159,-1.145,-0.463,0.199,-21.560,-27.720,-27.860
159707184,-1.124,-0.424,0.243,-23.310,-32.830,-28.280
159707204,-0.960,-0.366,0.247,-40.320,-26.530,-31.220
159707224,-0.977,-0.411,0.235,-42.840,-13.860,-28.980
159707246,-1.103,-0.335,0.194,-38.290,-8.610,-18.830
159707266,-1.091,-0.250,0.200,-47.880,-2.450,-13.440
159707287,-1.069,-0.259,0.229,-48.720,-0.350,-2.310
159707307,-1.057,-0.011,0.150,-52.430,10.570,15.890
159707332,-1.184,-0.161,0.069,-81.270,19.810,26.740
159707349,-1.314,-0.340,0.022,-79.030,33.390,34.090
159707368,-1.453,-0.402,0.067,-47.250,38.360,51.380
159707387,-1.536,-0.340,0.006,-22.470,39.830,61.320
159707409,-1.383,-0.186,-0.013,-16.310,31.990,58.450
159707431,-1.114,-0.114,0.049,-20.160,26.320,47.460
159707455,-0.919,-0.114,0.105,-0.280,21.700,33.390
159707475,-0.714,-0.049,0.116,22.330,21.070,24.080
159707494,-0.634,0.031,0.131,25.830,18.970,13.020
159707518,-0.729,-0.006,0.050,22.400,3.290,-0.420
159707538,-0.776,0.084,-0.064,8.960,-7.560,-9.660
159707557,-0.887,0.049,-0.116,-19.250,-16.730,-20.440
159707581,-1.086,-0.019,-0.160,-28.840,-31.360,-32.830
159707603,-1.122,0.054,-0.139,-26.320,-50.470,-37.310
159707622,-0.895,0.094,-0.075,-25.690,-53.830,-43.470
159707646,-0.892,0.077,0.008,-7.070,-60.970,-45.360
159707662,-0.879,0.050,0.026,5.040,-66.710,-47.390
159707682,-0.795,0.078,0.037,20.090,-75.390,-45.570
159707701,-0.656,0.073,0.043,18.760,-76.370,-42.490
159707723,-0.623,0.054,0.093,16.100,-70.910,-28.280
159707744,-0.599,-0.015,0.191,16.310,-69.650,-15.540
159707764,-0.550,-0.030,0.237,11.900,-68.390,-4.130
159707788,-0.525,-0.142,0.216,-10.290,-60.480,5.040
159707811,-0.577,-0.296,0.205,-16.870,-50.960,15.190
159707828,-0.639,-0.372,0.235,-9.730,-42.280,23.380
159707848,-0.782,-0.402,0.244,-6.790,-32.970,29.610
159707872,-0.992,-0.450,0.157,-6.860,-23.590,33.600
159707891,-1.143,-0.443,0.138,-10.430,-20.510,32.550
159707907,-1.195,-0.456,0.162,-10.220,-19.880,25.970
159707932,-1.112,-0.441,0.209,-9.730,-15.190,12.950
159707951,-1.068,-0.464,0.219,-9.800,-12.180,2.660
159707969,-0.978,-0.486,0.267,1.050,-8.750,-5.600
159707988,-0.831,-0.483,0.366,23.590,-7.910,-9.380
159708012,-0.599,-0.480,0.344,24.430,-2.030,-15.890
159708033,-0.556,-0.555,0.327,9.800,10.360,-24.010
159708053,-0.740,-0.668,0.320,5.320,24.570,-27.930
159708071,-0.924,-0.678,0.343,9.730,25.130,-30.730
159708094,-1.017,-0.677,0.237,9.170,19.880,-43.610
159708114,-1.087,-0.701,0.189,12.880,22.400,-61.250
159708132,-1.315,-0.716,0.210,23.030,28.210,-75.530
159708156,-1.595,-0.699,0.170,46.200,21.910,-96.670
159708176,-1.623,-0.464,0.163,56.210,2.520,-102.410
159708196,-1.503,-0.398,0.207,48.720,5.040,-111.090
159708218,-1.578,-0.340,0.136,59.360,1.400,-110.810
159708237,-1.309,-0.116,0.255,60.130,-5.740,-106.330
159708262,-1.098,0.105,0.287,66.920,-4.480,-56.280
159708276,-1.140,0.162,0.112,16.030,29.890,-25.200
159708296,-1.786,-0.186,0.058,7.910,66.990,25.060
159708322,-1.488,0.030,0.382,28.140,40.180,71.960
159708341,-0.986,0.353,0.281,-38.150,38.430,73.780
159708361,-0.799,0.317,0.118,-125.720,50.540,82.390
159708381,-1.147,-0.343,0.080,-105.070,73.920,110.810
159708401,-1.383,-0.518,0.099,-36.050,78.190,145.600
159708420,-1.387,-0.244,0.016,10.290,84.280,170.590
159708441,-1.525,0.061,-0.031,-58.590,107.450,177.170
159708465,-2.090,-0.012,-0.321,-125.370,82.810,156.240
159708485,-1.683,-0.002,-0.311,-175.280,50.540,152.250
159708504,-1.498,-0.185,-0.257,-143.990,78.820,174.860
159708528,-1.825,-0.188,-0.263,-69.440,97.020,206.360
159708546,-1.771,-0.085,-0.099,-71.400,100.170,203.420
159708566,-1.622,-0.288,-0.013,-68.390,106.120,198.030
159708590,-1.506,-0.356,0.119,-21.210,116.200,199.220
159708610,-1.471,-0.297,0.124,-9.800,117.110,191.940
159708628,-1.503,-0.302,0.110,-17.570,111.090,179.130
159708648,-1.478,-0.434,0.161,-19.040,102.760,160.930
159708672,-1.295,-0.534,0.341,10.500,85.190,139.370
159708692,-1.191,-0.419,0.271,37.030,74.060,111.580
159708712,-1.101,-0.182,0.171,38.850,57.540,83.370
159708732,-1.022,-0.079,0.198,32.480,38.430,56.770
159708756,-0.923,0.096,0.112,10.220,8.120,31.010
159708776,-0.825,0.241,-0.070,-18.900,-10.080,6.650
159708795,-0.651,0.241,-0.222,-48.510,-25.480,-7.000
159708816,-0.369,0.103,-0.288,-10.010,-28.770,-10.710
159708836,-0.436,0.346,-0.446,51.800,-15.680,-13.510
159708852,-0.431,0.590,-0.512,33.390,-16.800,-16.940
159708877,-0.366,0.538,-0.393,33.320,-14.700,-20.930
159708895,-0.457,0.470,-0.218,56.560,-11.900,-25.760
159708919,-0.473,0.722,-0.201,45.290,-6.090,-12.530
159708939,-0.508,0.477,-0.071,52.920,-4.760,-3.290
159708957,-0.649,0.279,-0.022,81.270,-8.190,3.500
159708977,-0.672,0.545,-0.158,61.320,-16.940,3.780
159709000,-0.631,0.442,-0.201,12.180,-27.720,-1.610
159709016,-0.588,0.117,-0.148,18.130,-30.730,-2.380
159709041,-0.578,0.005,-0.061,55.650,-34.160,-6.300
159709060,-0.564,0.062,-0.028,74.550,-42.350,-12.810
159709081,-0.698,0.143,-0.314,53.340,-52.150,-31.570
159709099,-0.758,0.073,-0.360,49.910,-63.000,-44.380
159709123,-0.647,-0.021,-0.270,61.880,-69.370,-66.920
159709138,-0.691,-0.031,-0.210,86.730,-76.930,-82.600
159709163,-0.877,0.154,-0.426,60.060,-82.110,-103.670
159709182,-0.913,0.134,-0.517,53.690,-88.550,-112.630
159709202,-0.925,0.178,-0.470,60.620,-84.560,-104.090
159709225,-1.062,0.258,-0.630,39.620,-82.250,-109.760
159709249,-1.180,0.304,-0.832,-8.190,-91.350,-131.810
159709269,-1.038,0.224,-0.792,10.430,-74.900,-125.020
159709289,-1.108,0.266,-0.732,42.070,-63.350,-106.050
159709305,-1.176,0.664,-0.901,20.160,-51.940,-89.530
159709325,-0.928,0.761,-0.892,-31.360,-32.900,-67.340
159709349,-0.883,0.354,-0.564,-18.480,0.210,-25.480
159709369,-1.093,0.455,-0.630,6.860,7.700,-2.520
159709389,-0.975,0.717,-0.646,-23.520,14.910,7.000
159709406,-1.015,0.659,-0.557,-76.440,23.380,12.320
159709427,-1.109,0.501,-0.470,-91.630,29.680,24.990
159709451,-1.179,0.551,-0.490,-88.970,37.660,55.020
159709471,-1.048,0.523,-0.331,-104.790,45.710,68.390
159709490,-0.883,0.252,-0.164,-97.860,56.630,81.270
159709511,-0.916,0.162,-0.096,-84.910,67.620,95.620
159709530,-1.165,0.051,-0.068,-90.370,77.420,108.920
159709550,-1.421,-0.019,-0.140,-113.540,80.290,117.530
159709571,-1.588,-0.298,-0.160,-101.640,71.470,115.780
159709594,-1.343,-0.356,0.024,-37.870,60.550,100.100
159709613,-1.170,-0.130,0.128,3.780,51.100,80.990
159709637,-1.159,0.206,0.080,-0.140,23.380,55.720
159709661,-1.108,0.160,0.017,-64.610,-6.650,30.660
159709680,-0.985,-0.083,0.129,-64.680,-25.900,17.990
159709700,-0.775,-0.055,0.251,-31.850,-28.140,21.770
159709724,-0.778,0.096,0.230,-23.240,-36.540,30.590
159709742,-0.762,0.139,0.149,-41.860,-49.840,22.890
159709759,-0.622,0.042,0.118,-39.690,-51.590,19.040
159709781,-0.570,-0.034,0.136,15.190,-40.810,25.830
159709799,-0.656,0.134,0.124,50.610,-44.310,23.870
159709819,-0.584,0.200,0.087,48.790,-55.720,5.950
159709843,-0.478,0.240,-0.030,61.810,-57.260,1.960
159709863,-0.453,0.416,-0.112,48.370,-65.730,2.170
159709884,-0.519,0.360,-0.288,-3.920,-78.190,-19.880
159709904,-0.533,0.085,-0.323,-17.150,-78.680,-42.140
159709923,-0.420,-0.051,-0.139,21.070,-73.220,-49.840
159709943,-0.507,0.204,-0.133,57.540,-67.760,-53.060
159709963,-0.671,0.442,-0.279,21.490,-70.140,-66.150
159709987,-0.732,0.203,-0.232,-10.080,-69.720,-92.190
159710004,-0.943,-0.060,-0.223,23.660,-65.800,-109.690
159710023,-0.889,0.357,-0.378,64.330,-50.120,-102.550
159710048,-0.999,0.266,-0.064,66.010,-37.590,-93.380
159710064,-1.190,0.231,-0.069,65.170,-49.770,-100.870
159710088,-1.227,0.213,-0.190,40.880,-62.440,-131.040
159710108,-0.907,0.363,-0.158,21.000,-53.690,-123.340
159710123,-0.980,0.247,0.060,32.340,-48.860,-115.850
159710148,-1.302,0.187,0.000,29.750,-68.740,-118.020
159710166,-1.172,0.535,-0.201,-19.390,-70.280,-111.370
159710188,-0.861,0.382,-0.030,-51.380,-57.050,-97.300
159710208,-1.107,0.118,-0.036,-29.890,-52.360,-82.810
159710228,-1.222,0.401,-0.218,-53.690,-52.290,-72.380
159710252,-1.156,0.167,-0.101,-90.580,-34.440,-53.760
159710270,-1.318,-0.078,-0.038,-61.530,-1.610,-31.990
159710290,-1.465,0.027,-0.016,-59.290,-12.460,-19.320
159710314,-1.290,0.112,-0.168,-86.940,-7.490,-1.960
159710334,-1.097,0.182,-0.190,-108.990,26.600,28.140
159710354,-1.313,-0.456,-0.009,-47.250,56.560,51.590
159710374,-1.537,-0.137,-0.052,-9.310,57.260,62.930
159710392,-1.401,0.024,-0.207,-37.170,59.430,60.830
159710416,-1.312,-0.118,-0.207,-76.370,77.910,57.960
159710436,-1.327,-0.366,-0.029,-41.650,79.800,61.390
159710454,-1.225,-0.369,-0.019,-5.180,81.200,59.850
159710475,-1.191,-0.247,-0.151,6.160,89.740,60.060
159710499,-1.225,-0.221,-0.065,7.630,89.950,54.880
159710517,-1.151,-0.162,0.054,-6.230,77.000,42.840
159710541,-1.033,-0.133,0.132,-43.890,60.410,21.070
159710561,-1.024,-0.205,0.147,-56.490,64.750,23.100
159710581,-1.589,-0.598,0.152,-35.280,57.610,25.480
159710605,-1.826,-0.465,-0.178,-7.140,31.920,14.560
159710622,-1.436,-0.150,-0.126,-21.490,21.000,-4.760
159710641,-1.116,-0.167,0.061,-12.810,18.130,-14.070
159710666,-0.933,-0.184,0.188,48.370,26.670,3.430
159710686,-0.963,0.036,0.246,44.520,15.890,13.440
159710701,-0.992,0.057,0.203,20.650,5.740,16.030
159710721,-1.060,-0.108,0.197,-4.760,-11.270,13.370
159710744,-1.095,-0.113,0.116,-10.010,-22.400,11.480
159710764,-1.330,-0.081,0.025,-10.570,-37.240,5.670
159710785,-1.464,-0.079,-0.095,-20.790,-57.260,-12.180
159710806,-1.425,-0.098,-0.039,-23.380,-74.550,-24.010
159710830,-1.246,-0.113,0.052,-23.800,-90.650,-34.930
159710850,-1.057,-0.140,0.100,-29.050,-93.520,-38.290
159710868,-0.825,-0.155,0.151,-33.320,-88.410,-29.190
159710887,-0.783,-0.466,0.298,-4.060,-77.630,-14.000
159710907,-0.763,-0.573,0.328,51.520,-61.040,-3.570
159710932,-0.766,-0.547,0.241,97.230,-40.810,-7.210
159710952,-1.098,-0.604,-0.036,144.970,-26.390,-15.820
159710970,-1.627,-0.400,-0.395,154.000,-35.420,-39.900
159710990,-1.825,-0.106,-0.499,123.340,-69.510,-72.730
159711014,-1.800,0.066,-0.650,57.330,-71.960,-113.400
159711034,-2.028,0.279,-0.914,-22.610,-96.600,-146.510
159711053,-1.629,0.023,-0.645,-58.170,-77.700,-172.060
159711074,-1.472,-0.332,-0.329,-2.100,-53.340,-169.890
159711094,-1.496,-0.251,-0.191,34.650,-41.440,-156.660
159711115,-1.377,-0.092,-0.184,50.680,-25.830,-128.450
159711139,-1.196,0.059,-0.139,39.060,-5.390,-87.010
159711157,-1.116,-0.190,-0.035,39.830,16.800,-63.140
159711181,-1.138,-0.310,0.061,55.440,32.480,-33.180
159711201,-1.086,-0.201,0.121,75.950,38.570,-2.170
159711221,-0.848,0.125,0.132,42.840,35.140,16.800
159711236,-0.781,0.025,0.138,11.620,38.220,19.110
159711261,-0.813,-0.135,0.110,-8.820,35.980,18.830
159711281,-0.809,-0.180,0.159,-3.220,20.510,19.600
159711301,-0.715,-0.145,0.254,6.440,13.020,24.570
159711320,-0.789,-0.060,0.234,9.310,9.940,25.200
159711345,-0.769,0.014,0.247,-5.950,-9.030,11.060
159711365,-0.675,0.021,0.257,-26.460,-21.350,0.840
159711385,-0.700,-0.036,0.245,-33.250,-36.820,-0.980
159711404,-0.775,-0.031,0.111,-44.450,-57.120,-2.870
159711425,-0.758,-0.003,0.057,-71.260,-69.790,-11.620
159711444,-0.685,-0.081,0.077,-88.130,-73.990,-17.990
159711467,-0.654,-0.183,0.116,-89.950,-72.170,-19.740
159711487,-0.705,-0.294,0.149,-73.430,-67.900,-15.330
159711508,-0.855,-0.331,0.175,-34.020,-63.560,-5.600
159711528,-0.846,-0.224,0.141,-27.230,-65.240,-3.290
159711545,-0.726,-0.188,0.144,-38.850,-59.990,-6.090
159711569,-0.662,-0.287,0.185,-42.700,-47.600,-0.070
159711589,-0.718,-0.363,0.272,-16.240,-32.550,15.680
159711604,-0.773,-0.377,0.306,-6.020,-28.070,27.930
159711626,-0.813,-0.378,0.252,-4.550,-19.250,37.030
159711647,-0.817,-0.379,0.198,-8.960,-12.670,39.900
159711671,-0.798,-0.391,0.246,-9.590,-1.820,44.310
159711691,-0.810,-0.442,0.334,3.430,6.370,47.180
159711711,-0.840,-0.461,0.368,20.090,12.110,47.530
159711731,-0.838,-0.436,0.352,27.510,14.700,43.190
159711751,-0.836,-0.397,0.377,31.080,15.190,35.000
159711769,-0.814,-0.403,0.422,38.500,11.200,28.070
159711789,-0.743,-0.429,0.504,46.270,8.400,20.790
159711808,-0.766,-0.445,0.468,49.770,11.900,11.480
159711833,-0.810,-0.443,0.461,45.640,9.520,-2.590
159711850,-0.859,-0.528,0.482,48.930,5.880,-10.780
159711870,-0.881,-0.546,0.449,55.440,1.960,-22.680
159711890,-0.858,-0.538,0.393,62.370,-1.820,-38.080
159711910,-0.819,-0.555,0.359,73.920,1.260,-52.360
159711934,-0.925,-0.549,0.332,93.380,4.270,-63.070
159711954,-0.984,-0.476,0.306,108.850,-1.190,-69.790
159711969,-0.887,-0.373,0.288,109.970,-2.940,-75.250
159711989,-0.779,-0.346,0.298,112.070,-3.150,-77.700
159712012,-0.872,-0.448,0.263,118.230,9.800,-63.140
159712036,-1.202,-0.496,0.205,143.570,14.280,-31.990
159712055,-1.351,-0.301,0.072,143.710,1.610,-14.280
159712076,-1.214,-0.166,0.014,87.710,-4.130,-13.510
159712092,-1.216,-0.264,-0.020,66.990,-5.600,-14.350
159712116,-1.303,-0.194,-0.091,61.810,-17.990,-15.610
159712135,-1.091,0.094,-0.096,18.480,-24.290,-20.720
159712154,-0.897,0.189,-0.020,-2.450,-18.340,-16.170
159712179,-0.970,0.055,0.000,-17.570,-8.050,-5.110
159712197,-1.168,0.130,-0.110,-13.930,-8.820,8.960
159712217,-1.014,0.403,-0.172,-40.320,-7.350,26.810
159712239,-0.892,0.204,-0.089,-84.210,8.050,38.360
159712258,-1.059,0.003,-0.027,-62.300,17.010,53.900
159712283,-1.087,0.093,-0.007,-38.290,20.860,78.890
159712303,-0.999,0.233,-0.012,-60.060,28.000,92.540
159712323,-1.062,0.156,-0.008,-85.470,31.500,99.680
159712343,-1.202,0.027,0.015,-92.470,32.900,109.760
159712363,-1.219,0.062,-0.000,-105.000,28.420,121.730
159712387,-1.173,-0.013,-0.009,-125.020,29.820,122.360
159712407,-1.198,-0.177,-0.029,-123.830,31.710,120.120
159712426,-1.173,-0.219,0.003,-106.610,34.650,121.030
159712450,-1.093,-0.133,0.062,-83.160,36.400,129.360
159712470,-1.062,-0.123,0.088,-83.370,36.260,117.950
159712489,-1.007,-0.202,0.081,-87.290,32.200,104.860
159712512,-0.874,-0.251,0.052,-71.330,34.440,92.540
159712536,-0.791,-0.306,0.140,-35.560,44.310,84.420
159712554,-0.765,-0.260,0.169,-6.300,48.930,85.750
159712574,-0.784,-0.214,0.189,6.580,47.320,71.750
159712598,-0.681,-0.076,0.161,0.700,37.940,50.540
159712614,-0.610,-0.118,0.176,-3.920,31.990,32.130
159712637,-0.559,-0.212,0.242,21.140,30.940,10.430
159712661,-0.724,-0.164,0.225,47.460,27.300,-11.900
159712681,-0.793,0.071,0.197,56.700,6.790,-31.710
159712699,-0.777,0.206,0.185,43.050,-8.260,-51.030
159712721,-0.858,0.304,0.108,19.040,-14.770,-59.850
159712740,-0.887,0.204,0.202,27.580,-23.870,-46.550
159712761,-1.033,0.173,0.161,22.960,-27.370,-37.940
159712781,-1.046,0.238,0.169,2.800,-35.280,-30.310
159712800,-0.843,0.265,0.233,-8.960,-33.670,-15.120
159712820,-0.824,0.124,0.390,-24.920,-29.190,10.920
159712844,-1.081,-0.050,0.310,-18.270,-34.440,26.460
159712864,-1.133,-0.011,0.166,-29.820,-29.610,28.770
159712884,-1.240,-0.201,0.274,-27.650,-28.280,25.130
159712904,-1.267,-0.004,0.345,-8.260,-37.870,17.710
159712928,-1.099,0.213,0.342,-49.210,-47.110,-6.440
159712947,-1.007,-0.115,0.332,-63.840,-48.930,-10.990
159712967,-1.118,-0.178,0.325,-17.290,-45.150,-9.940
159712988,-1.342,0.143,0.254,-24.920,-44.520,-24.850
159713007,-1.389,0.083,0.304,-65.100,-61.320,-35.770
159713028,-1.198,-0.117,0.290,-72.590,-58.660,-42.140
159713048,-1.052,-0.229,0.265,-37.870,-39.200,-26.250
159713068,-1.124,-0.256,0.253,0.630,-20.790,-17.220
159713083,-1.198,-0.220,0.237,8.540,-13.160,-19.040
159713103,-1.210,-0.253,0.240,16.800,-7.420,-27.720
159713125,-1.108,-0.203,0.230,28.980,-0.910,-39.830
159713147,-0.989,-0.206,0.205,23.940,5.740,-59.080
159713166,-1.075,-0.244,0.222,39.900,10.500,-70.000
159713186,-1.211,-0.074,0.158,44.520,9.030,-79.380
159713206,-1.171,-0.019,0.177,27.860,7.210,-85.610
159713231,-1.110,-0.054,0.219,28.770,8.750,-83.580
159713249,-1.161,-0.113,0.245,40.180,7.490,-77.700
159713268,-1.161,-0.076,0.216,48.440,5.460,-76.720
159713293,-1.115,-0.044,0.239,38.710,1.680,-80.850
159713313,-0.967,0.041,0.281,20.090,-5.390,-76.720
159713333,-0.802,-0.018,0.349,0.070,-8.050,-74.340
159713356,-0.857,-0.120,0.356,-18.760,-5.390,-71.890
159713377,-0.932,-0.245,0.329,-35.420,-7.490,-70.140
159713397,-0.833,-0.400,0.363,-40.670,-2.730,-64.190
159713417,-1.091,-0.636,0.268,-47.950,31.360,-49.980
159713436,-1.508,-0.778,0.325,-8.260,44.520,-20.440
159713457,-1.300,-0.542,0.530,46.760,36.540,-7.140
159713481,-0.821,-0.299,0.526,47.390,25.690,-23.380
159713501,-0.699,-0.414,0.535,56.420,32.900,-31.080
159713521,-0.977,-0.472,0.461,87.640,32.130,-27.510
159713540,-1.200,-0.370,0.447,100.590,26.390,-21.910
159713558,-1.347,-0.270,0.340,80.780,15.820,-21.770
159713581,-1.318,-0.229,0.328,45.010,2.590,-30.940
159713601,-1.179,-0.318,0.399,29.890,-5.390,-33.320
159713619,-1.165,-0.402,0.339,38.010,-6.090,-30.030
159713643,-1.412,-0.441,0.288,57.470,-6.370,-22.960
159713663,-1.718,-0.230,0.006,61.810,-21.630,-14.000
159713681,-1.500,0.173,-0.004,17.430,-38.780,-11.130
159713701,-1.360,0.060,0.054,-43.400,-32.900,-17.780
159713721,-1.645,-0.080,-0.060,-23.660,-28.070,-1.750
159713740,-1.776,0.174,-0.187,-0.350,-30.940,12.740
159713764,-1.556,0.433,-0.144,-17.710,-39.830,9.590
159713785,-1.734,0.426,-0.223,-47.600,-33.460,6.510
159713809,-1.941,0.366,-0.461,-73.290,-43.680,-2.730
159713824,-1.758,0.457,-0.401,-100.940,-49.490,-3.640
159713848,-1.665,0.142,-0.267,-115.080,-39.200,3.710
159713867,-1.777,-0.078,-0.386,-83.300,-34.930,12.180
159713888,-1.565,-0.149,-0.355,-68.740,-32.550,3.990
159713908,-1.409,-0.244,-0.135,-53.830,-31.640,-3.430
159713932,-1.153,-0.235,-0.107,-49.490,-49.070,-8.400
159713951,-0.554,-0.564,-0.046,-42.700,-35.000,-7.630
159713972,-0.058,-0.756,0.137,-16.520,-28.770,23.380
159713996,0.389,-0.651,0.597,9.170,8.680,83.230
159714015,0.519,-0.578,0.764,-21.910,44.240,128.310
159714036,0.522,-0.890,0.625,-30.590,65.100,147.000
159714052,0.273,-0.915,0.572,-8.610,91.490,157.430
159714075,-0.317,-0.893,0.587,9.450,102.690,153.580
159714095,-0.862,-0.813,0.461,-3.990,89.390,129.710
159714114,-1.014,-0.767,0.310,-19.530,69.720,94.080
159714138,-0.933,-0.617,0.373,-30.590,49.140,60.620
159714155,-0.885,-0.567,0.362,-8.260,44.030,54.040
159714179,-0.881,-0.447,0.267,31.570,45.990,53.760
159714197,-0.956,-0.287,0.244,39.970,45.010,43.330
159714218,-1.142,0.019,0.039,30.660,58.170,48.580
159714237,-1.140,0.147,0.007,-27.440,15.960,38.150
159714262,-0.908,-0.055,0.148,-37.730,15.750,32.830
159714282,-0.818,-0.020,0.214,-5.250,21.840,42.280
159714301,-0.838,0.032,0.135,19.250,23.660,52.080
159714323,-0.761,0.087,0.138,14.350,29.260,52.710
159714343,-0.696,-0.084,0.237,14.420,32.130,56.000
159714363,-0.663,-0.178,0.347,49.560,42.910,64.820
159714387,-0.733,-0.086,0.346,60.760,47.600,70.630
159714407,-0.818,-0.169,0.328,47.950,51.170,74.970
159714427,-0.952,-0.363,0.355,66.220,50.680,75.880
159714450,-0.974,-0.159,0.322,78.400,42.490,66.920
159714469,-0.850,-0.072,0.270,66.500,33.810,52.990
159714493,-0.820,-0.062,0.251,63.910,25.130,37.590
159714512,-0.912,0.080,0.115,43.820,6.580,20.790
159714533,-0.841,0.193,-0.023,-1.260,-4.620,-3.360
159714553,-0.730,0.088,-0.028,-25.830,-1.190,-12.250
159714571,-0.786,0.022,-0.009,13.440,-2.310,-7.490
159714593,-0.854,0.172,-0.286,55.650,12.740,-1.750
159714613,-1.193,0.081,-0.413,85.680,19.460,-4.410
159714637,-1.475,0.329,-0.695,85.680,-2.800,-28.420
159714657,-1.401,0.526,-0.664,7.280,-30.660,-54.180
159714674,-1.293,0.440,-0.492,-35.490,-34.720,-68.110
159714697,-1.212,0.200,-0.250,-25.970,-42.350,-70.070
159714717,-1.081,0.162,-0.100,7.350,-46.270,-68.250
159714741,-0.935,0.208,0.062,27.230,-40.040,-60.270
159714761,-0.916,0.047,0.277,59.080,-32.620,-43.610
159714781,-1.074,-0.105,0.331,107.940,-21.490,-25.340
159714798,-1.279,0.015,0.182,110.950,-36.610,-20.860
159714821,-1.132,0.243,0.046,39.340,-63.980,-35.700
159714839,-0.941,0.087,0.116,-11.620,-74.060,-51.730
159714863,-0.873,-0.100,0.175,-14.630,-78.890,-59.080
159714881,-0.955,-0.121,0.081,-1.680,-83.930,-61.460
159714900,-1.008,0.009,-0.158,-9.660,-91.560,-70.140
159714920,-0.834,-0.036,-0.152,-41.720,-93.450,-85.470
159714945,-0.862,-0.182,-0.163,-38.990,-78.540,-91.000
159714969,-0.938,-0.197,-0.126,-25.900,-69.720,-86.520
159714989,-1.036,-0.192,-0.260,-22.120,-60.480,-75.670
159715005,-1.090,-0.200,-0.321,-21.210,-51.870,-69.090
159715025,-1.024,-0.174,-0.223,-22.470,-42.280,-67.760
159715046,-0.982,-0.150,-0.118,-28.070,-33.950,-69.300
159715067,-1.071,-0.179,-0.100,-30.380,-28.910,-67.970
159715086,-1.194,-0.161,-0.152,-22.540,-26.670,-60.200
159715105,-1.132,-0.211,-0.077,-19.740,-20.230,-52.640
159715125,-1.111,-0.267,0.013,-2.800,-12.390,-40.250
159715150,-1.168,-0.153,0.056,3.710,-13.020,-29.750
159715169,-1.221,-0.149,0.058,-18.690,-20.230,-27.160
159715190,-1.186,-0.252,0.069,-31.150,-21.560,-20.440
159715210,-1.154,-0.325,0.150,-23.730,-19.740,0.000
159715226,-1.203,-0.306,0.186,5.110,-14.980,23.030
159715246,-1.129,-0.117,0.159,-3.430,-13.440,41.720
159715266,-1.124,-0.224,0.191,-47.600,-4.270,58.240
159715289,-1.223,-0.417,0.227,-57.120,9.170,83.020
159715309,-1.284,-0.349,0.250,-52.990,16.590,104.020
159715330,-1.239,-0.275,0.260,-79.800,16.730,102.200
159715350,-1.128,-0.318,0.276,-89.600,14.490,93.310
159715370,-0.887,-0.401,0.362,-69.020,16.800,83.300
159715390,-0.747,-0.375,0.478,-25.200,33.880,81.480
159715410,-0.744,-0.247,0.493,6.510,38.010,79.100
159715432,-0.650,-0.189,0.410,22.750,36.890,70.910
159715453,-0.632,-0.162,0.334,31.010,38.010,64.680
159715473,-0.772,-0.127,0.305,31.430,37.730,57.330
159715493,-0.929,-0.133,0.301,30.730,26.390,51.450
159715512,-0.946,-0.058,0.243,31.080,12.110,45.430
159715537,-0.844,-0.007,0.213,21.910,-4.830,21.560
159715557,-0.806,0.041,0.213,17.150,-14.210,1.890
159715581,-0.800,0.064,0.223,22.190,-24.010,-13.790
159715600,-0.778,0.055,0.188,26.880,-24.990,-19.530
159715620,-0.798,-0.031,0.153,39.060,-21.490,-20.650
159715640,-0.860,-0.007,0.082,61.740,-22.960,-20.230
159715660,-0.721,0.184,0.065,68.460,-31.570,-22.960
159715683,-0.581,0.212,0.056,45.290,-35.770,-30.590
159715702,-0.692,0.099,0.008,31.150,-34.930,-36.470
159715727,-0.852,0.068,-0.041,30.240,-40.320,-42.770
159715744,-0.797,0.194,-0.053,27.020,-47.740,-38.220
159715764,-0.792,0.095,-0.027,27.160,-50.190,-39.130
159715787,-0.833,0.126,-0.096,27.860,-50.890,-43.680
159715808,-0.748,0.367,-0.143,-8.050,-47.670,-43.820
159715827,-0.752,0.183,-0.013,-12.880,-40.040,-36.400
159715846,-0.887,0.174,-0.025,5.740,-38.850,-15.120
159715867,-0.956,0.254,-0.114,-6.930,-27.440,0.350
159715886,-1.005,0.140,-0.121,-20.580,-13.020,15.750
159715911,-1.000,0.113,-0.055,-15.820,-1.960,36.820
159715931,-1.000,0.180,-0.037,-9.310,9.590,59.290
159715951,-1.043,0.080,-0.088,-16.730,29.120,82.600
159715975,-1.193,0.095,-0.124,-37.380,45.500,102.970
159715995,-1.400,-0.009,-0.096,-53.340,60.620,107.170
159716014,-1.443,-0.053,0.011,-46.410,67.550,112.070
159716032,-1.355,0.052,0.023,-37.730,78.470,122.290
159716052,-1.419,-0.053,0.034,-31.570,85.260,119.000
159716072,-1.414,-0.012,0.062,-30.660,77.140,98.770
159716091,-1.228,0.246,0.031,-39.480,76.650,86.240
159716115,-1.318,0.142,0.024,-38.220,92.120,85.820
159716139,-1.331,0.056,0.160,8.890,91.210,83.440
159716159,-1.259,0.148,0.177,50.260,106.260,88.830
159716176,-1.494,0.419,0.077,68.110,109.130,92.890
159716200,-1.625,0.620,-0.021,31.220,91.980,67.200
159716217,-1.255,0.513,0.054,3.500,67.620,56.910
159716239,-1.167,0.447,0.035,42.910,77.770,68.390
159716259,-1.319,0.549,0.017,49.490,72.940,75.110
159716283,-1.209,0.557,0.005,26.810,54.600,70.910
159716298,-1.142,0.574,0.006,-7.280,48.930,69.440
159716318,-1.160,0.531,0.026,-40.320,36.120,69.440
159716338,-1.359,0.250,0.001,-60.340,29.120,62.790
159716363,-1.652,0.012,-0.187,-32.200,-8.960,43.330
159716383,-1.134,0.302,0.101,-25.480,-26.390,27.300
159716403,-0.787,0.356,0.315,-38.360,-28.000,8.890
159716420,-0.840,0.164,0.347,-47.950,-32.270,0.490
159716444,-0.936,-0.133,0.305,-46.970,-48.510,-4.690
159716464,-0.824,-0.451,0.366,6.510,-51.380,-12.390
159716484,-0.718,-0.309,0.375,47.810,-53.130,-35.210
159716504,-0.793,-0.128,0.304,46.200,-61.460,-64.190
159716524,-0.970,-0.253,0.228,45.570,-71.470,-106.960
159716548,-1.214,-0.177,-0.073,46.200,-78.540,-124.460
159716568,-1.336,-0.142,-0.203,29.960,-90.440,-146.440
159716588,-1.189,-0.324,-0.091,50.470,-88.690,-159.740
159716612,-1.365,-0.272,-0.135,84.140,-80.990,-173.740
159716631,-1.610,-0.169,-0.285,84.560,-86.170,-192.640
159716651,-1.564,-0.258,-0.212,91.140,-83.440,-204.330
159716674,-1.618,-0.377,-0.114,129.850,-76.580,-210.840
159716692,-1.753,-0.317,-0.108,144.340,-79.100,-211.260
159716711,-1.817,-0.287,-0.124,131.320,-85.260,-220.920
159716736,-1.823,-0.318,-0.164,110.810,-94.220,-239.330
159716756,-1.660,-0.420,-0.111,109.480,-88.270,-246.890
159716779,-1.604,-0.468,-0.027,140.630,-76.720,-236.110
159716796,-1.605,-0.424,0.009,151.200,-71.890,-224.420
159716816,-1.606,-0.373,0.077,153.440,-70.910,-207.970
159716840,-1.553,-0.328,0.045,139.300,-76.020,-197.960
159716860,-1.376,-0.287,0.032,116.410,-76.650,-191.520
159716876,-1.252,-0.308,0.068,96.810,-66.080,-181.580
159716897,-1.210,-0.302,0.090,91.700,-59.290,-164.220
159716921,-1.205,-0.254,0.100,79.940,-54.320,-145.950
159716941,-1.164,-0.192,0.090,60.130,-56.350,-132.440
159716961,-1.009,-0.192,0.095,30.380,-54.390,-115.220
159716979,-0.913,-0.207,0.096,19.250,-48.370,-95.130
159717000,-0.875,-0.181,0.094,6.930,-42.700,-74.480
159717019,-0.855,-0.169,0.076,-11.690,-38.080,-54.320
159717044,-0.807,-0.186,0.084,-34.300,-31.640,-32.620
159717067,-0.776,-0.210,0.102,-39.900,-25.970,-6.720
159717088,-0.796,-0.204,0.107,-33.810,-26.390,25.480
159717108,-0.731,-0.142,0.093,-37.870,-30.450,46.200
159717132,-0.645,-0.106,0.069,-63.280,-34.370,67.760
159717152,-0.550,-0.116,0.070,-85.190,-34.510,82.320
159717171,-0.474,-0.140,0.097,-102.480,-34.020,97.510
159717195,-0.432,-0.179,0.112,-122.220,-30.100,119.840
159717215,-0.392,-0.237,0.125,-132.930,-22.190,140.910
159717235,-0.375,-0.360,0.154,-127.540,-10.640,160.650
159717255,-0.414,-0.538,0.203,-106.960,5.250,185.360
159717279,-0.541,-0.652,0.160,-73.920,16.100,202.160
159717299,-0.561,-0.772,0.292,-59.570,41.580,207.830
159717319,-0.671,-0.834,0.357,-45.360,56.280,198.030
159717338,-0.785,-0.723,0.375,-64.190,58.800,172.060
159717359,-0.838,-0.673,0.385,-107.800,59.360,140.350
159717380,-0.826,-0.796,0.397,-124.740,61.600,116.270
159717403,-0.764,-0.864,0.406,-108.990,66.850,94.150
159717423,-0.691,-0.851,0.416,-84.350,76.020,83.370
159717442,-0.759,-0.870,0.415,-35.420,92.400,79.310
159717462,-0.979,-0.839,0.375,10.710,94.570,75.880
159717486,-1.053,-0.720,0.329,48.720,80.150,55.020
159717506,-0.986,-0.534,0.302,61.530,64.820,35.490
159717526,-1.024,-0.250,0.154,63.210,56.770,38.220
159717549,-1.217,-0.145,0.023,17.570,30.450,40.460
159717569,-1.353,-0.252,-0.116,-18.760,5.670,37.030
159717588,-1.408,-0.155,-0.309,-55.440,-13.440,31.570
159717611,-1.215,-0.101,-0.250,-85.680,-17.220,30.310
159717635,-1.164,-0.189,-0.106,-52.710,-11.340,44.100
159717655,-1.121,-0.025,-0.079,-20.300,-12.950,50.470
159717674,-1.039,0.070,-0.146,-19.320,-13.230,51.030
159717698,-1.081,0.020,-0.249,-8.610,-9.520,50.120
159717718,-1.128,0.164,-0.300,-15.260,-12.740,54.810
159717738,-1.098,0.139,-0.272,-49.420,-18.970,49.140
159717763,-1.030,0.124,-0.241,-77.000,-24.850,46.620
159717782,-0.949,-0.005,-0.225,-88.340,-25.060,44.170
159717802,-0.923,-0.006,-0.212,-84.210,-21.560,42.910
159717822,-0.950,-0.048,-0.178,-80.640,-17.780,38.640
159717838,-0.944,-0.122,-0.126,-67.410,-15.610,35.560
159717862,-0.889,-0.076,-0.102,-56.910,-10.850,35.700
159717882,-0.915,-0.108,-0.111,-60.130,-7.840,33.740
159717902,-0.936,-0.159,-0.102,-61.740,-4.340,32.200
159717920,-0.954,-0.284,-0.032,-48.370,-1.890,28.770
159717937,-0.926,-0.271,0.019,-25.410,0.630,26.460
159717958,-0.858,-0.178,0.066,-11.200,3.500,21.560
159717982,-0.848,-0.235,0.098,9.380,5.110,7.490
159718002,-0.912,-0.233,0.053,28.280,4.410,-5.530
159718018,-0.983,-0.120,0.019,35.210,1.050,-13.370
159718040,-1.009,-0.052,-0.018,30.730,-4.830,-28.420
159718061,-0.996,-0.036,-0.001,20.510,-7.910,-39.620
159718085,-1.020,-0.089,0.028,28.140,-11.200,-45.990
159718104,-1.025,0.013,0.056,29.050,-15.400,-47.880
159718123,-0.988,0.046,0.057,20.370,-19.250,-50.470
159718147,-0.989,-0.007,0.059,19.390,-19.950,-48.650
159718166,-1.087,-0.051,0.030,22.190,-19.670,-46.060
159718190,-1.171,-0.122,0.015,25.690,-21.490,-52.850
159718210,-1.100,-0.174,0.042,41.860,-18.130,-56.840
159718227,-1.011,0.004,0.071,59.570,-12.460,-45.850
159718247,-1.062,-0.052,0.118,58.730,-8.750,-37.870
159718270,-1.170,-0.108,0.078,53.620,-12.320,-33.110
159718289,-1.152,-0.052,0.026,30.030,-14.490,-28.000
159718312,-1.054,-0.116,0.079,8.890,-7.910,-16.590
159718331,-1.155,-0.188,0.125,19.390,-3.640,-7.070
159718351,-1.157,-0.139,0.120,18.130,-3.290,-3.920
159718366,-1.080,-0.190,0.134,17.920,0.280,-4.270
159718391,-1.041,-0.266,0.153,33.530,6.860,-3.010
159718409,-1.049,-0.271,0.194,55.370,5.320,-3.850
159718433,-0.986,-0.266,0.222,64.610,1.540,-8.750
159718453,-0.987,-0.263,0.207,63.630,-2.660,-14.490
159718472,-0.982,-0.255,0.202,49.070,-9.520,-19.040
159718493,-0.940,-0.257,0.223,23.170,-15.610,-21.560
159718513,-0.925,-0.252,0.219,2.590,-16.380,-17.570
159718532,-0.912,-0.268,0.244,-22.400,-15.540,-13.300
159718556,-0.929,-0.385,0.277,-32.830,-13.160,-1.750
159718575,-0.923,-0.448,0.263,-30.800,-3.780,10.570
159718595,-0.895,-0.501,0.293,-19.810,5.390,20.300
159718615,-0.852,-0.483,0.358,2.520,17.290,28.910
159718639,-0.820,-0.419,0.385,15.610,24.430,28.910
159718656,-0.801,-0.418,0.398,24.360,26.320,27.230
159718677,-0.817,-0.419,0.383,36.470,27.580,25.130
159718699,-0.903,-0.362,0.341,41.300,24.080,19.250
159718719,-0.906,-0.281,0.302,31.920,17.920,15.400
159718739,-0.858,-0.263,0.305,15.120,13.580,9.800
159718759,-0.863,-0.277,0.317,10.500,10.850,8.050
159718783,-0.973,-0.136,0.215,1.260,6.370,14.980
159718798,-1.022,-0.074,0.178,-21.980,3.430,16.240
159718818,-1.100,-0.162,0.155,-44.870,-1.400,14.980
159718838,-1.182,-0.197,0.081,-46.410,1.540,16.520
159718858,-1.241,-0.089,-0.021,-48.300,-0.560,19.670
159718882,-1.216,-0.073,-0.020,-54.110,3.500,20.440
159718902,-1.273,-0.035,-0.058,-45.430,3.430,30.520
159718922,-1.297,0.026,-0.143,-40.180,9.520,38.430
159718942,-1.329,0.123,-0.246,-38.780,10.150,46.480
159718962,-1.118,0.161,-0.109,-38.430,15.190,50.470
159718986,-0.956,0.158,-0.027,-17.920,23.030,61.110
159719006,-0.866,0.287,-0.074,15.050,28.980,73.220
159719025,-0.812,0.438,-0.147,10.780,31.990,81.830
159719045,-0.812,0.326,-0.158,3.220,33.740,84.000
159719065,-0.890,0.253,-0.195,18.060,30.100,83.860
159719089,-0.863,0.444,-0.257,15.960,24.570,83.230
159719109,-0.876,0.426,-0.255,-12.110,18.690,69.440
159719128,-0.881,0.306,-0.193,-19.670,8.050,57.960
159719144,-0.840,0.291,-0.183,-15.190,1.750,50.260
159719169,-0.783,0.305,-0.121,-18.130,-6.160,41.720
159719189,-0.709,0.214,-0.026,-18.970,-15.540,34.020
159719209,-0.592,0.101,0.057,-12.390,-19.460,26.670
159719229,-0.532,0.040,0.110,5.600,-21.840,25.340
159719248,-0.488,0.159,0.111,7.210,-28.770,22.050
159719269,-0.553,0.110,0.073,-2.520,-38.990,8.890
159719285,-0.614,0.098,0.038,-9.450,-44.030,-2.170
159719306,-0.712,0.185,-0.028,-10.850,-44.310,-9.800
159719328,-0.834,0.191,0.037,-4.130,-45.990,-19.950
159719352,-0.725,0.283,0.068,-3.220,-53.690,-30.730
159719371,-0.665,0.355,0.041,-21.280,-53.550,-31.640
159719390,-0.806,0.142,0.070,-20.230,-50.960,-30.730
159719410,-0.970,0.053,0.048,-11.340,-54.110,-28.980
159719430,-1.062,0.020,0.124,-9.660,-57.330,-32.620
159719454,-1.046,-0.035,0.200,-4.970,-58.520,-45.010
159719474,-0.955,-0.119,0.258,2.870,-58.590,-56.910
159719494,-1.009,-0.190,0.297,20.440,-49.140,-64.960
159719513,-1.175,-0.241,0.235,42.840,-42.350,-65.520
159719529,-1.328,-0.033,0.063,47.810,-40.670,-61.740
159719549,-1.358,0.061,-0.017,14.000,-41.930,-78.330
159719572,-1.292,0.160,-0.080,-23.380,-42.560,-87.570
159719589,-1.294,0.235,-0.196,-33.320,-29.610,-83.370
159719613,-1.206,0.275,-0.286,-33.460,-10.710,-66.850
159719634,-1.025,0.150,-0.170,-17.570,18.200,-45.360
159719653,-1.197,0.086,-0.151,3.990,34.930,-22.190
159719670,-1.357,0.239,-0.264,-0.980,46.970,-6.790
159719692,-1.263,0.375,-0.269,-59.850,53.410,-2.800
159719712,-1.244,0.069,-0.166,-91.840,68.740,7.700
159719731,-1.462,-0.104,-0.114,-58.590,77.980,30.800
159719752,-1.371,0.215,-0.189,-42.000,87.010,64.610
159719773,-1.688,-0.137,-0.363,-118.370,146.650,65.170
159719796,-2.054,-0.683,0.109,3.010,133.700,89.180
159719813,-1.472,-0.247,0.478,76.440,140.490,84.070
159719832,-0.976,0.066,0.634,102.410,118.720,60.270
159719858,-0.798,-0.118,0.434,106.540,128.660,48.230
159719876,-1.137,-0.444,0.501,145.530,118.790,45.430
159719900,-1.447,-0.280,0.546,164.710,79.310,29.610
159719915,-1.464,0.030,0.601,106.610,39.550,-0.490
159719935,-1.434,-0.010,0.600,-5.740,-12.670,-44.590
159719960,-1.299,-0.412,0.405,-22.750,-51.870,-82.530
159719980,-1.229,-0.488,0.252,21.210,-59.920,-92.960
159719999,-1.314,-0.372,0.114,51.940,-72.520,-98.000
159720019,-1.318,-0.392,0.061,39.200,-83.370,-104.580
159720043,-1.273,-0.550,0.051,32.550,-87.360,-109.620
159720063,-1.313,-0.626,0.019,42.420,-83.370,-110.810
159720080,-1.442,-0.659,0.021,55.300,-77.210,-110.320
159720104,-1.658,-0.623,-0.061,70.070,-83.790,-120.400
159720123,-1.479,-0.479,-0.054,61.740,-96.390,-134.540
159720145,-1.314,-0.518,-0.059,61.950,-90.370,-147.700
159720166,-1.332,-0.543,-0.019,82.600,-84.560,-143.990
159720187,-1.446,-0.493,-0.030,80.150,-87.430,-141.400
159720207,-1.536,-0.459,-0.174,49.700,-97.930,-151.620
159720227,-1.326,-0.441,-0.169,15.120,-99.190,-164.010
159720249,-1.128,-0.475,-0.129,5.040,-83.230,-167.090
159720273,-1.157,-0.490,-0.122,12.740,-65.170,-158.620
159720292,-1.194,-0.464,-0.133,14.840,-57.190,-153.580
159720311,-1.043,-0.383,-0.103,9.940,-49.070,-150.360
159720333,-0.776,-0.301,-0.061,2.030,-33.530,-142.660
159720353,-0.508,-0.235,-0.021,-0.910,-19.460,-131.180
159720375,-0.560,-0.252,0.036,0.140,-4.550,-113.890
159720394,-0.636,-0.286,0.014,9.590,3.990,-89.740
159720419,-0.566,-0.256,0.020,11.060,10.640,-63.700
159720438,-0.478,-0.269,0.021,8.050,20.930,-37.380
159720455,-0.471,-0.305,0.024,9.030,27.650,-15.890
159720476,-0.468,-0.287,0.035,7.560,34.510,7.700
159720499,-0.502,-0.293,0.071,-2.520,43.120,32.130
159720521,-0.546,-0.332,0.088,-7.490,48.580,58.240
159720541,-0.566,-0.356,0.089,-7.910,54.950,79.800
159720564,-0.581,-0.374,0.086,-10.780,64.680,104.020
159720584,-0.637,-0.392,0.073,-15.330,72.310,120.610
159720604,-0.715,-0.419,0.087,-17.570,77.910,132.580
159720624,-0.788,-0.443,0.088,-15.330,78.050,144.410
159720648,-0.846,-0.451,0.070,-10.150,75.670,152.600
159720667,-0.879,-0.423,0.061,-14.770,73.780,153.090
159720684,-0.943,-0.448,0.058,-19.880,71.330,152.110
159720703,-1.024,-0.486,0.025,-20.160,65.170,150.290
159720723,-1.107,-0.466,-0.009,-22.680,56.980,144.620
159720748,-1.144,-0.407,-0.033,-35.280,42.910,130.900
159720768,-1.176,-0.405,-0.053,-46.480,31.360,116.340
159720787,-1.221,-0.432,-0.084,-50.050,16.310,102.480
