Timestamp,AccelX,AccelY,AccelZ,GyroX,GyroY,GyroZ
1743420266.9678059,-0.177,0.979,-0.137,0.980,-3.990,-0.140
1743420267.028089,-0.175,0.984,-0.132,0.000,-2.940,-1.120
1743420267.0290382,-0.170,0.976,-0.133,-0.280,-2.100,-2.940
1743420267.043707,-0.183,0.998,-0.139,2.100,-2.240,-0.980
1743420267.087905,-0.174,0.979,-0.129,1.890,-1.750,2.310
1743420267.10262,-0.165,0.972,-0.129,0.910,-1.610,-2.800
1743420267.147999,-0.176,0.994,-0.130,0.630,-1.680,-2.240
1743420267.148465,-0.180,0.991,-0.133,1.680,-3.150,1.750
1743420267.177988,-0.174,0.976,-0.128,0.840,-4.410,2.030
1743420267.208452,-0.176,0.973,-0.135,-0.560,-5.180,-1.960
1743420267.239088,-0.186,0.989,-0.140,0.280,-2.310,-1.960
1743420267.268409,-0.172,0.977,-0.131,0.700,0.350,-2.590
1743420267.333756,-0.163,0.984,-0.129,0.420,-0.840,-4.340
1743420267.34381,-0.176,1.003,-0.129,1.120,-2.520,0.000
1743420267.3789241,-0.178,0.989,-0.131,2.100,-3.920,4.410
1743420267.38015,-0.172,0.966,-0.132,1.120,-4.550,1.400
1743420267.4023948,-0.183,0.975,-0.136,0.420,-3.010,-2.730
1743420267.431701,-0.184,0.986,-0.134,1.050,-0.210,-2.380
1743420267.462728,-0.168,0.980,-0.128,0.770,-0.070,-2.870
1743420267.493462,-0.169,0.991,-0.127,0.210,-2.870,-2.520
1743420267.5228841,-0.179,0.995,-0.133,1.470,-4.060,2.240
1743420267.537555,-0.171,0.973,-0.133,1.190,-3.570,2.030
1743420267.568534,-0.174,0.972,-0.134,0.350,-3.080,-1.820
1743420267.628148,-0.184,0.988,-0.135,0.420,-2.170,-2.100
1743420267.628576,-0.178,0.984,-0.133,0.840,-1.820,-0.350
1743420267.659132,-0.168,0.976,-0.129,0.420,-2.870,-1.400
1743420267.688241,-0.176,0.988,-0.133,0.350,-3.080,-1.750
1743420267.718252,-0.176,0.984,-0.135,1.610,-1.190,0.210
1743420267.748957,-0.166,0.976,-0.125,1.400,-1.190,-1.260
1743420267.7779882,-0.175,0.989,-0.132,0.980,-2.800,-1.190
1743420267.8085551,-0.183,0.987,-0.132,1.330,-3.570,1.960
1743420267.8382258,-0.175,0.973,-0.129,0.770,-3.850,0.560
1743420267.927402,-0.179,0.977,-0.133,0.070,-2.590,-3.150
1743420267.929968,-0.179,0.988,-0.131,0.700,-0.490,-2.800
1743420267.93072,-0.166,0.985,-0.125,1.050,-0.420,-1.820
1743420267.9430668,-0.165,0.986,-0.123,0.770,-3.010,-0.910
1743420267.972702,-0.179,0.992,-0.132,1.050,-4.830,1.750
1743420268.0025501,-0.181,0.976,-0.135,1.330,-4.200,2.590
1743420268.032325,-0.176,0.969,-0.132,0.350,-2.450,-2.170
1743420268.062382,-0.180,0.986,-0.135,0.490,-0.630,-4.060
1743420268.092454,-0.173,0.990,-0.126,1.260,-0.490,-1.680
1743420268.122707,-0.165,0.983,-0.124,0.910,-2.310,-0.700
1743420268.137791,-0.176,0.987,-0.127,1.050,-4.270,0.630
1743420268.167885,-0.181,0.982,-0.132,1.400,-3.500,1.890
1743420268.2273889,-0.174,0.971,-0.131,0.910,-2.380,-0.420
1743420268.227933,-0.174,0.978,-0.131,0.280,-2.100,-3.080
1743420268.258967,-0.181,0.989,-0.132,0.560,-2.170,-1.400
1743420268.28839,-0.175,0.982,-0.128,0.910,-2.590,-0.280
1743420268.318631,-0.170,0.979,-0.128,0.560,-3.220,-1.470
1743420268.332843,-0.175,0.987,-0.130,1.050,-2.310,-0.910
1743420268.377918,-0.177,0.982,-0.132,1.260,-1.680,-0.140
1743420268.392868,-0.172,0.978,-0.127,0.910,-2.450,-0.770
1743420268.42349,-0.177,0.984,-0.129,0.700,-3.570,-0.630
1743420268.438082,-0.182,0.983,-0.131,0.980,-3.500,0.630
1743420268.467834,-0.175,0.974,-0.133,0.910,-2.520,-0.420
1743420268.528836,-0.173,0.977,-0.130,0.630,-1.330,-3.220
1743420268.5294452,-0.174,0.990,-0.128,0.980,-0.840,-2.380
1743420268.55934,-0.170,0.987,-0.125,1.260,-2.030,0.140
1743420268.5878,-0.171,0.981,-0.127,0.910,-4.060,0.630
1743420268.617643,-0.180,0.983,-0.132,0.770,-4.480,0.980
1743420268.648109,-0.179,0.976,-0.134,0.910,-2.730,-0.490
1743420268.676945,-0.172,0.974,-0.130,0.350,-1.190,-3.500
1743420268.708436,-0.174,0.991,-0.129,0.630,-1.050,-3.080
1743420268.723762,-0.173,0.990,-0.127,1.190,-1.960,-0.280
1743420268.752863,-0.172,0.984,-0.127,1.120,-3.360,1.050
1743420268.8286998,-0.176,0.981,-0.129,0.910,-4.130,0.560
1743420268.829365,-0.181,0.981,-0.132,0.980,-3.080,-0.070
1743420268.82974,-0.177,0.977,-0.131,0.910,-1.680,-1.190
1743420268.858907,-0.174,0.979,-0.128,0.490,-1.540,-2.590
1743420268.916085,-0.176,0.989,-0.130,0.700,-2.310,-1.680
1743420268.917585,-0.177,0.986,-0.128,1.050,-2.660,0.280
1743420268.948687,-0.175,0.979,-0.128,0.910,-2.940,-0.210
1743420268.977843,-0.175,0.983,-0.132,0.840,-2.520,-1.190
1743420269.0071511,-0.176,0.984,-0.130,1.050,-1.960,-0.560
1743420269.039103,-0.175,0.980,-0.129,0.770,-2.660,-0.490
1743420269.0528011,-0.175,0.982,-0.130,0.560,-3.360,-0.910
1743420269.082143,-0.177,0.983,-0.132,0.700,-3.010,-0.490
1743420269.114698,-0.176,0.980,-0.132,0.980,-1.960,-0.980
1743420269.143094,-0.172,0.980,-0.128,0.770,-1.330,-2.450
1743420269.218462,-0.172,0.989,-0.128,0.980,-1.960,-1.260
1743420269.219446,-0.174,0.986,-0.127,1.260,-3.010,0.700
1743420269.22083,-0.173,0.979,-0.129,0.910,-3.990,0.700
1743420269.2628548,-0.177,0.978,-0.135,0.630,-3.500,-0.560
1743420269.278324,-0.179,0.981,-0.135,0.840,-1.680,-1.610
1743420269.307898,-0.173,0.980,-0.129,0.770,-0.980,-2.660
1743420269.338681,-0.171,0.989,-0.129,0.630,-1.820,-2.170
1743420269.369375,-0.173,0.991,-0.131,1.330,-3.220,0.770
1743420269.397994,-0.175,0.979,-0.129,1.190,-3.850,1.120
1743420269.4277592,-0.179,0.974,-0.132,0.770,-3.360,-0.630
1743420269.458742,-0.178,0.980,-0.136,0.770,-1.960,-1.680
1743420269.51839,-0.176,0.982,-0.130,0.840,-1.330,-1.890
1743420269.518888,-0.173,0.984,-0.133,0.700,-1.960,-1.820
1743420269.533505,-0.175,0.990,-0.129,0.840,-2.870,-0.630
1743420269.5627048,-0.174,0.984,-0.132,1.120,-3.010,0.560
1743420269.5932648,-0.172,0.976,-0.132,0.910,-2.590,-0.560
1743420269.6236758,-0.176,0.981,-0.134,0.770,-2.240,-1.470
1743420269.653376,-0.177,0.985,-0.132,0.840,-2.170,-0.770
1743420269.6833532,-0.177,0.982,-0.130,0.840,-2.800,-0.770
1743420269.713075,-0.174,0.982,-0.135,0.630,-2.940,-1.050
1743420269.728595,-0.175,0.983,-0.132,0.840,-2.310,-0.840
1743420269.758231,-0.173,0.980,-0.133,0.910,-1.820,-1.120
1743420269.817028,-0.173,0.982,-0.132,0.840,-2.170,-1.330
1743420269.819933,-0.178,0.987,-0.131,0.910,-3.010,-0.280
1743420269.848044,-0.177,0.981,-0.134,0.910,-3.360,0.630
1743420269.878415,-0.176,0.977,-0.134,0.560,-3.010,-0.630
1743420269.9082181,-0.177,0.981,-0.134,0.630,-2.030,-1.960
1743420269.9379892,-0.175,0.983,-0.132,0.910,-1.260,-1.820
1743420269.968053,-0.171,0.984,-0.128,0.980,-2.100,-1.120
1743420269.998997,-0.173,0.986,-0.129,0.910,-3.360,0.070
1743420270.013099,-0.178,0.982,-0.130,1.050,-3.570,0.910
1743420270.042664,-0.175,0.978,-0.135,0.840,-3.080,-0.280
1743420270.1182442,-0.177,0.978,-0.134,0.630,-1.890,-2.100
1743420270.1191108,-0.178,0.986,-0.134,0.700,-1.470,-1.820
1743420270.133676,-0.173,0.985,-0.132,0.910,-2.170,-1.050
1743420270.163302,-0.173,0.984,-0.134,0.910,-3.150,-0.210
1743420270.192982,-0.175,0.982,-0.134,0.910,-3.360,0.210
1743420270.22401,-0.175,0.977,-0.134,1.050,-2.660,-0.350
1743420270.2529018,-0.175,0.978,-0.134,0.840,-2.100,-1.400
1743420270.282958,-0.174,0.982,-0.134,0.840,-2.170,-1.470
1743420270.337197,-0.174,0.983,-0.133,0.910,-2.520,-0.420
1743420270.339257,-0.174,0.982,-0.131,0.840,-2.800,-0.630
1743420270.357723,-0.174,0.980,-0.133,0.910,-2.520,-0.980
1743420270.41781,-0.176,0.982,-0.132,0.910,-2.100,-0.910
1743420270.4180632,-0.173,0.981,-0.131,0.980,-2.310,-0.840
1743420270.4482298,-0.176,0.983,-0.131,0.840,-2.800,-0.770
1743420270.477651,-0.178,0.983,-0.134,0.770,-3.080,0.000
1743420270.5079339,-0.175,0.979,-0.134,0.770,-2.590,-0.770
1743420270.5385559,-0.174,0.979,-0.134,0.700,-2.100,-1.890
1743420270.567735,-0.175,0.986,-0.131,0.840,-1.750,-1.610
1743420270.598231,-0.172,0.985,-0.131,0.910,-2.310,-0.490
1743420270.627705,-0.173,0.982,-0.132,0.840,-3.500,0.000
1743420270.659345,-0.176,0.980,-0.133,0.980,-3.360,0.000
1743420270.717118,-0.176,0.978,-0.133,0.770,-2.380,-1.050
1743420270.717411,-0.176,0.980,-0.133,0.700,-1.680,-2.030
1743420270.747628,-0.174,0.984,-0.131,0.770,-1.890,-1.400
1743420270.777843,-0.174,0.986,-0.133,1.050,-2.730,-0.140
1743420270.808341,-0.173,0.982,-0.131,1.190,-3.290,-0.280
1743420270.837781,-0.181,0.986,-0.134,1.260,-3.150,0.630
1743420270.867797,-0.176,0.975,-0.134,0.490,-1.890,-0.770
1743420270.8825011,-0.173,0.980,-0.133,0.420,-2.800,-3.220
1743420270.927784,-0.179,0.991,-0.136,0.980,-2.030,-1.050
1743420270.9424808,-0.170,0.978,-0.130,1.610,-2.170,0.210
1743420271.016914,-0.170,0.979,-0.128,0.700,-2.870,-1.260
1743420271.0171719,-0.179,0.987,-0.133,0.700,-3.220,-0.630
1743420271.0316281,-0.177,0.979,-0.132,1.120,-2.380,0.420
1743420271.0633779,-0.171,0.976,-0.133,0.560,-2.380,-1.820
1743420271.09351,-0.175,0.988,-0.132,0.490,-2.170,-2.450
1743420271.107958,-0.180,0.986,-0.134,1.260,-1.890,0.000
1743420271.1379461,-0.171,0.978,-0.128,1.120,-2.240,0.070
1743420271.1679192,-0.175,0.979,-0.133,0.630,-3.710,-1.400
1743420271.198463,-0.181,0.988,-0.135,1.470,-2.730,0.700
1743420271.2286751,-0.172,0.975,-0.130,-17.780,-1.890,-0.840
1743420271.269608,-0.169,0.979,-0.132,-0.630,-2.100,-3.710
1743420271.317972,-0.180,0.996,-0.135,1.890,-2.870,-0.700
1743420271.3182569,-0.176,0.982,-0.129,2.310,-2.520,2.170
1743420271.3329868,-0.167,0.969,-0.130,0.770,-3.640,-0.840
1743420271.362678,-0.183,0.990,-0.138,0.910,-3.290,-1.890
1743420271.3939672,-0.178,0.985,-0.133,1.400,-0.560,-0.070
1743420271.422864,-0.165,0.973,-0.128,0.840,-0.980,-2.170
1743420271.452606,-0.177,0.991,-0.131,0.770,-2.660,-1.960
1743420271.482933,-0.182,0.993,-0.131,1.820,-2.870,2.170
1743420271.511692,-0.168,0.971,-0.130,1.190,-2.660,0.280
1743420271.5426528,-0.172,0.975,-0.132,0.420,-2.940,-3.150
1743420271.557817,-0.185,0.995,-0.135,0.770,-2.170,-1.050
1743420271.618596,-0.172,0.978,-0.128,0.560,-2.800,0.280
1743420271.621802,-0.174,0.978,-0.135,-0.420,-4.690,-2.100
1743420271.692062,-0.182,0.989,-0.137,0.420,-3.570,-0.560
1743420271.7181828,-0.173,0.977,-0.135,1.330,-0.980,-0.280
1743420271.719512,-0.168,0.977,-0.132,0.910,-1.050,-3.150
1743420271.73804,-0.176,0.996,-0.131,1.190,-1.820,-1.260
1743420271.7668622,-0.174,0.989,-0.130,1.960,-2.590,2.100
1743420271.797123,-0.171,0.974,-0.130,1.120,-3.640,0.630
1743420271.828924,-0.184,0.983,-0.134,0.840,-3.150,-0.700
1743420271.902626,-0.182,0.978,-0.134,1.050,-1.750,-1.050
1743420271.905215,-0.174,0.978,-0.130,-0.280,-1.680,-3.080
1743420271.9055731,-0.175,0.985,-0.128,1.190,-2.310,-1.960
1743420271.934324,-0.176,0.992,-0.128,0.560,-3.360,0.630
1743420271.962804,-0.175,0.978,-0.132,0.840,-3.920,1.050
1743420271.993814,-0.176,0.977,-0.135,0.280,-3.850,-1.190
1743420272.023517,-0.181,0.984,-0.136,0.840,-2.100,-1.120
1743420272.05335,-0.174,0.978,-0.130,0.980,-1.120,-1.400
1743420272.0841799,-0.172,0.984,-0.131,0.770,-2.170,-2.100
1743420272.1138592,-0.178,0.988,-0.133,1.330,-2.310,0.420
1743420272.1458209,-0.172,0.981,-0.129,1.540,-2.450,0.420
1743420272.2182982,-0.175,0.983,-0.129,1.120,-2.590,-0.910
1743420272.218789,-0.176,0.985,-0.132,0.840,-2.520,-0.630
1743420272.233585,-0.176,0.982,-0.134,0.910,-2.660,-0.210
1743420272.263933,-0.176,0.980,-0.131,0.420,-2.870,-1.330
1743420272.292939,-0.178,0.981,-0.134,0.490,-2.870,-1.610
1743420272.322509,-0.175,0.983,-0.131,0.630,-2.170,-1.330
1743420272.338743,-0.173,0.983,-0.129,0.630,-2.450,-1.190
1743420272.3686368,-0.176,0.985,-0.130,0.770,-2.870,-0.490
1743420272.3983848,-0.176,0.984,-0.134,0.910,-3.220,0.210
1743420272.428854,-0.178,0.980,-0.132,1.190,-2.660,-0.210
1743420272.503486,-0.174,0.976,-0.132,1.050,-1.890,-1.470
1743420272.504521,-0.175,0.983,-0.133,1.190,-1.400,-1.680
1743420272.505166,-0.173,0.983,-0.128,1.050,-1.400,-1.330
1743420272.532916,-0.177,0.986,-0.127,1.120,-2.940,-0.280
1743420272.563334,-0.171,0.980,-0.130,0.840,-3.010,0.490
1743420272.593098,-0.177,0.978,-0.131,0.700,-3.430,-0.700
1743420272.623528,-0.182,0.982,-0.133,0.630,-2.520,-0.840
1743420272.653434,-0.174,0.980,-0.130,0.420,-2.520,-1.190
1743420272.684395,-0.177,0.980,-0.136,0.280,-3.010,-1.750
1743420272.713853,-0.175,0.982,-0.135,0.770,-2.800,-0.840
1743420272.743423,-0.175,0.981,-0.133,0.980,-2.100,-0.840
1743420272.803381,-0.175,0.983,-0.130,1.400,-1.750,-0.910
1743420272.804306,-0.176,0.986,-0.131,1.470,-2.170,0.280
1743420272.8336499,-0.176,0.980,-0.133,1.050,-2.940,0.280
1743420272.863629,-0.177,0.977,-0.135,0.770,-3.010,-1.050
1743420272.893857,-0.180,0.982,-0.135,0.700,-1.680,-1.540
1743420272.908413,-0.172,0.982,-0.128,0.700,-1.470,-2.030
1743420272.9389498,-0.171,0.985,-0.131,0.630,-2.450,-1.750
1743420272.968229,-0.175,0.988,-0.131,0.910,-3.500,0.420
1743420272.999375,-0.176,0.980,-0.134,1.050,-3.780,1.050
1743420273.029068,-0.178,0.976,-0.136,0.490,-3.360,-0.490
1743420273.103542,-0.177,0.979,-0.135,0.560,-2.380,-1.890
1743420273.104353,-0.175,0.983,-0.135,0.560,-1.610,-2.100
1743420273.1182458,-0.173,0.983,-0.132,0.840,-1.820,-1.750
1743420273.1473868,-0.175,0.987,-0.130,1.120,-2.310,-0.420
1743420273.178762,-0.172,0.981,-0.131,1.470,-2.590,0.490
1743420273.209472,-0.178,0.979,-0.131,1.540,-2.520,0.140
1743420273.2379148,-0.179,0.978,-0.134,1.050,-2.380,-0.770
1743420273.254171,-0.178,0.982,-0.130,0.770,-2.310,-1.610
1743420273.283038,-0.177,0.982,-0.133,0.980,-2.800,-1.540
1743420273.31311,-0.176,0.985,-0.130,0.280,-2.870,-0.700
1743420273.343552,-0.176,0.980,-0.130,0.560,-2.940,-0.980
1743420273.403133,-0.173,0.984,-0.131,0.630,-2.520,-1.190
1743420273.403531,-0.176,0.984,-0.132,0.910,-2.240,-0.840
1743420273.433919,-0.175,0.982,-0.133,1.120,-2.590,0.000
1743420273.4490519,-0.176,0.980,-0.134,0.910,-3.080,0.070
1743420273.478555,-0.175,0.977,-0.135,0.770,-3.080,-0.840
1743420273.507712,-0.174,0.980,-0.134,0.560,-1.960,-1.610
1743420273.538239,-0.173,0.984,-0.133,0.910,-1.050,-1.890
1743420273.5671291,-0.172,0.986,-0.128,1.190,-1.330,-0.980
1743420273.59939,-0.173,0.986,-0.130,1.190,-2.730,0.070
1743420273.628256,-0.178,0.984,-0.132,1.120,-3.710,0.700
1743420273.70299,-0.178,0.976,-0.133,0.700,-3.360,0.070
1743420273.7037692,-0.178,0.976,-0.134,0.420,-2.520,-1.890
1743420273.720672,-0.176,0.982,-0.135,0.420,-1.960,-2.520
1743420273.748235,-0.174,0.988,-0.130,0.770,-2.100,-1.120
1743420273.7786582,-0.172,0.982,-0.132,0.910,-2.660,-0.280
1743420273.8085911,-0.176,0.983,-0.132,1.050,-3.010,-0.350
1743420273.821463,-0.177,0.983,-0.134,1.190,-2.520,-0.070
1743420273.85361,-0.175,0.979,-0.133,1.050,-2.240,-0.700
1743420273.883024,-0.177,0.981,-0.132,0.840,-2.520,-1.190
1743420273.9131908,-0.178,0.983,-0.133,0.770,-2.310,-0.700
1743420273.943677,-0.177,0.979,-0.134,0.770,-2.450,-0.910
1743420274.004142,-0.173,0.982,-0.129,0.840,-2.310,-1.330
1743420274.00484,-0.177,0.984,-0.132,0.980,-2.170,-0.770
1743420274.033206,-0.175,0.981,-0.130,0.910,-2.380,-0.350
1743420274.063812,-0.173,0.981,-0.129,0.560,-3.290,-0.840
1743420274.094014,-0.178,0.983,-0.133,0.700,-3.290,-0.280
1743420274.107948,-0.175,0.979,-0.135,0.700,-2.730,-0.490
1743420274.1382642,-0.175,0.979,-0.134,0.980,-2.030,-1.470
1743420274.1682281,-0.172,0.984,-0.131,0.350,-1.890,-2.100
1743420274.1989279,-0.177,0.988,-0.129,1.400,-2.030,-0.490
1743420274.2290828,-0.174,0.980,-0.128,0.910,-2.800,0.070
1743420274.303749,-0.175,0.984,-0.130,1.610,-3.150,-0.490
1743420274.305158,-0.180,0.985,-0.135,0.490,-2.590,0.000
1743420274.319544,-0.183,0.977,-0.135,2.590,-3.430,-1.750
1743420274.349279,-0.177,0.969,-0.136,5.460,-2.030,-2.310
1743420274.379091,-0.177,0.986,-0.130,3.990,-2.170,-0.910
1743420274.4032059,-0.173,0.987,-0.124,-0.140,-3.570,-0.280
1743420274.427142,-0.174,0.980,-0.135,1.540,-3.430,-1.470
1743420274.453144,-0.180,0.991,-0.132,1.400,-0.560,-0.420
1743420274.483785,-0.167,0.976,-0.125,1.260,-1.470,-1.120
1743420274.5125382,-0.180,0.988,-0.129,0.910,-4.270,-0.420
1743420274.542946,-0.188,0.988,-0.132,1.540,-3.500,3.290
1743420274.601998,-0.169,0.962,-0.128,0.490,-2.240,-1.820
1743420274.604495,-0.179,0.989,-0.130,0.210,-0.630,-5.250
1743420274.632716,-0.175,0.995,-0.126,0.980,-0.630,-1.120
1743420274.6625621,-0.169,0.982,-0.125,0.770,-4.130,0.910
1743420274.803355,-0.177,0.984,-0.133,0.350,-5.950,0.630
1743420274.803616,-0.185,0.980,-0.136,1.400,-3.150,0.910
1743420274.803977,-0.169,0.970,-0.130,0.560,0.420,-2.030
1743420274.8041139,-0.176,0.989,-0.129,0.840,-1.260,-4.130
1743420274.812864,-0.180,0.996,-0.128,1.050,-2.450,0.630
1743420274.8284538,-0.175,0.979,-0.127,1.050,-4.270,2.170
1743420274.901031,-0.175,0.973,-0.130,0.420,-4.340,-0.280
1743420274.9021819,-0.180,0.979,-0.134,0.910,-1.890,-2.520
1743420274.9174578,-0.173,0.984,-0.130,1.120,0.770,-2.660
1743420274.947466,-0.169,0.986,-0.124,0.840,-1.470,-2.100
1743420274.977658,-0.174,0.996,-0.125,1.050,-4.550,0.980
1743420275.007702,-0.181,0.979,-0.130,1.120,-4.830,3.150
1743420275.037794,-0.174,0.969,-0.129,0.420,-3.080,-1.190
1743420275.069317,-0.179,0.983,-0.133,0.140,-0.910,-4.620
1743420275.098132,-0.174,0.993,-0.129,0.770,-0.560,-2.310
1743420275.1278222,-0.169,0.985,-0.125,0.840,-3.150,-0.210
1743420275.203348,-0.175,0.986,-0.130,0.910,-4.830,1.120
1743420275.204149,-0.177,0.981,-0.135,1.540,-3.080,1.400
1743420275.2045782,-0.175,0.972,-0.131,1.260,-1.260,-1.190
1743420275.2482188,-0.173,0.980,-0.127,0.560,-0.770,-3.640
1743420275.2628548,-0.179,0.995,-0.126,0.840,-2.100,-0.770
1743420275.29371,-0.173,0.984,-0.126,1.050,-3.570,1.330
1743420275.3242722,-0.173,0.976,-0.128,0.490,-4.200,-0.140
1743420275.353079,-0.179,0.980,-0.131,0.840,-2.170,-1.610
1743420275.38302,-0.178,0.983,-0.129,1.050,-0.280,-1.960
1743420275.412919,-0.171,0.986,-0.123,0.770,-1.540,-1.820
1743420275.443737,-0.176,0.991,-0.127,0.840,-4.340,0.840
1743420275.5034602,-0.181,0.984,-0.130,0.980,-4.760,2.240
1743420275.503822,-0.178,0.971,-0.133,0.630,-3.220,-0.420
1743420275.534102,-0.179,0.979,-0.134,0.560,-0.840,-4.060
1743420275.547798,-0.175,0.990,-0.126,0.980,0.210,-2.800
1743420275.57773,-0.168,0.990,-0.123,1.120,-1.750,-0.490
1743420275.6083992,-0.174,0.986,-0.128,1.120,-4.690,1.330
1743420275.637622,-0.182,0.981,-0.133,1.260,-4.760,2.170
1743420275.667707,-0.178,0.973,-0.133,0.910,-2.310,-0.560
1743420275.696258,-0.175,0.976,-0.129,0.280,-0.770,-4.130
1743420275.727788,-0.175,0.992,-0.129,0.560,-0.840,-2.940
1743420275.803172,-0.173,0.989,-0.125,0.910,-2.730,0.280
1743420275.8036108,-0.170,0.980,-0.128,0.910,-4.410,1.050
1743420275.8179688,-0.180,0.977,-0.133,0.980,-3.570,0.140
1743420275.847799,-0.179,0.978,-0.132,1.050,-1.470,-1.190
1743420275.878229,-0.174,0.980,-0.125,0.630,-1.400,-2.520
1743420275.9085288,-0.177,0.989,-0.130,0.630,-2.730,-1.120
1743420275.938506,-0.177,0.985,-0.129,1.050,-3.500,1.050
1743420275.968585,-0.173,0.975,-0.131,0.910,-3.010,-0.280
1743420275.9986439,-0.175,0.982,-0.130,0.770,-1.540,-2.240
1743420276.0138948,-0.175,0.987,-0.128,1.050,-0.910,-1.680
1743420276.1035461,-0.172,0.987,-0.125,0.840,-2.310,-0.490
1743420276.104115,-0.177,0.983,-0.127,0.560,-4.410,0.630
1743420276.104413,-0.183,0.979,-0.132,0.770,-3.990,0.700
1743420276.1340768,-0.176,0.974,-0.132,0.840,-2.030,-1.750
1743420276.162896,-0.174,0.980,-0.129,0.560,-0.630,-3.780
1743420276.1933281,-0.173,0.991,-0.126,0.980,-1.120,-2.030
1743420276.2238138,-0.172,0.988,-0.124,1.120,-3.360,1.120
1743420276.259041,-0.175,0.978,-0.128,1.050,-4.830,1.540
1743420276.2835982,-0.182,0.977,-0.133,0.840,-3.920,0.350
1743420276.313142,-0.179,0.977,-0.133,0.910,-1.470,-1.820
1743420276.3277938,-0.173,0.982,-0.128,0.560,-0.560,-3.500
1743420276.402903,-0.172,0.989,-0.128,0.770,-1.540,-2.100
1743420276.403431,-0.173,0.991,-0.126,1.190,-3.430,1.050
1743420276.417984,-0.174,0.977,-0.130,0.910,-4.130,1.190
1743420276.448025,-0.179,0.979,-0.130,0.840,-3.080,-0.560
1743420276.47805,-0.177,0.980,-0.131,0.980,-1.610,-1.750
1743420276.5086331,-0.175,0.983,-0.128,0.700,-1.400,-2.030
1743420276.53937,-0.176,0.984,-0.127,0.700,-2.800,-1.190
1743420276.568591,-0.177,0.988,-0.132,0.840,-3.500,0.420
1743420276.597861,-0.174,0.978,-0.131,1.050,-2.940,-0.070
1743420276.628084,-0.174,0.978,-0.130,0.910,-1.750,-1.680
1743420276.643379,-0.175,0.986,-0.128,0.840,-1.540,-1.820
1743420276.703198,-0.176,0.988,-0.127,0.980,-2.590,-0.140
1743420276.703827,-0.176,0.981,-0.131,0.700,-3.920,0.280
1743420276.733682,-0.178,0.979,-0.131,0.700,-3.430,-0.280
1743420276.763716,-0.175,0.979,-0.132,0.910,-1.680,-1.540
1743420276.79312,-0.173,0.982,-0.125,0.840,-0.770,-2.870
1743420276.823715,-0.172,0.990,-0.125,0.980,-1.890,-1.680
1743420276.853034,-0.174,0.985,-0.129,0.980,-3.570,0.910
1743420276.884001,-0.177,0.978,-0.129,0.770,-4.270,1.120
1743420276.9137769,-0.182,0.976,-0.132,0.770,-3.150,-0.910
1743420276.943222,-0.179,0.979,-0.133,0.700,-1.260,-2.520
1743420277.0033002,-0.174,0.983,-0.128,0.770,-0.770,-2.520
1743420277.003962,-0.172,0.987,-0.126,0.840,-2.240,-1.330
1743420277.0179882,-0.175,0.987,-0.126,1.120,-3.850,0.980
1743420277.048078,-0.178,0.978,-0.127,0.910,-3.780,0.980
1743420277.07801,-0.180,0.976,-0.131,0.700,-2.380,-1.260
1743420277.108395,-0.178,0.983,-0.127,0.700,-1.400,-2.380
1743420277.138891,-0.174,0.984,-0.127,0.700,-1.610,-1.680
1743420277.1683378,-0.172,0.984,-0.128,0.840,-3.010,-0.350
1743420277.198433,-0.175,0.985,-0.131,0.840,-3.570,0.210
1743420277.2281039,-0.176,0.979,-0.133,1.190,-2.730,-0.280
1743420277.303636,-0.174,0.982,-0.129,0.840,-1.820,-1.540
1743420277.304207,-0.176,0.984,-0.128,0.910,-1.890,-1.750
1743420277.3345459,-0.176,0.987,-0.131,0.910,-2.800,-0.210
1743420277.3477151,-0.176,0.980,-0.131,0.770,-3.500,0.140
1743420277.378101,-0.178,0.979,-0.129,0.840,-2.800,-0.910
1743420277.40873,-0.174,0.981,-0.133,0.980,-1.470,-1.750
1743420277.438455,-0.171,0.983,-0.125,0.910,-1.470,-1.680
1743420277.467811,-0.173,0.988,-0.126,0.770,-2.800,-0.420
1743420277.498116,-0.175,0.986,-0.129,0.980,-3.780,0.980
1743420277.528801,-0.177,0.976,-0.131,0.840,-3.360,-0.140
1743420277.603114,-0.179,0.977,-0.130,0.770,-1.820,-1.960
1743420277.6037672,-0.176,0.983,-0.130,0.770,-0.980,-2.380
1743420277.6182559,-0.172,0.985,-0.126,1.050,-2.100,-1.050
1743420277.648059,-0.176,0.983,-0.127,0.910,-3.570,0.350
1743420277.6782951,-0.177,0.980,-0.132,0.980,-3.780,0.700
1743420277.712744,-0.177,0.978,-0.132,0.910,-2.590,-0.840
1743420277.739537,-0.175,0.980,-0.129,0.630,-1.680,-2.380
1743420277.768366,-0.173,0.984,-0.129,0.770,-1.610,-1.820
1743420277.782628,-0.174,0.984,-0.128,0.910,-2.660,-0.140
1743420277.8129249,-0.176,0.981,-0.131,0.910,-3.570,0.350
1743420277.846925,-0.176,0.979,-0.130,1.120,-2.940,-0.140
1743420277.902241,-0.176,0.977,-0.130,0.910,-1.960,-1.190
1743420277.904136,-0.174,0.981,-0.130,0.770,-1.750,-1.680
1743420277.933922,-0.177,0.983,-0.129,0.840,-2.520,-0.980
1743420277.9630332,-0.177,0.983,-0.127,0.840,-3.080,-0.140
1743420277.992665,-0.176,0.980,-0.129,0.700,-3.080,-0.420
1743420278.023337,-0.177,0.980,-0.131,0.910,-2.170,-1.400
1743420278.0535302,-0.174,0.981,-0.130,0.980,-1.610,-1.540
1743420278.0833228,-0.174,0.985,-0.128,0.840,-2.240,-0.700
1743420278.112006,-0.175,0.983,-0.129,0.910,-3.360,0.140
1743420278.1435509,-0.179,0.981,-0.132,0.840,-3.430,0.280
1743420278.20347,-0.178,0.977,-0.132,0.840,-2.380,-1.120
1743420278.204279,-0.175,0.981,-0.130,0.770,-1.540,-2.170
1743420278.217559,-0.175,0.986,-0.126,0.910,-1.680,-1.750
1743420278.248096,-0.173,0.986,-0.129,0.980,-2.660,-0.070
1743420278.27812,-0.177,0.982,-0.131,0.980,-3.710,0.560
1743420278.308753,-0.180,0.979,-0.133,0.840,-3.290,-0.070
1743420278.3387709,-0.178,0.979,-0.131,0.770,-2.030,-1.400
1743420278.368396,-0.175,0.982,-0.129,0.700,-1.470,-2.100
1743420278.3978062,-0.175,0.987,-0.127,0.700,-2.030,-1.190
1743420278.4286442,-0.174,0.985,-0.128,0.910,-3.220,0.280
1743420278.5031161,-0.176,0.981,-0.128,0.980,-3.430,0.280
1743420278.503521,-0.177,0.978,-0.130,0.910,-2.730,-0.700
1743420278.5039701,-0.178,0.980,-0.132,0.910,-1.960,-1.400
1743420278.532347,-0.178,0.982,-0.128,0.770,-1.960,-1.610
1743420278.564438,-0.177,0.984,-0.127,0.840,-2.590,-0.840
1743420278.609236,-0.175,0.983,-0.130,0.980,-3.080,-0.070
1743420278.622261,-0.174,0.981,-0.128,0.910,-2.660,-0.490
1743420278.653435,-0.175,0.980,-0.131,0.840,-2.170,-1.260
1743420278.684513,-0.177,0.984,-0.128,0.910,-1.960,-1.260
1743420278.7124128,-0.175,0.983,-0.132,0.910,-2.520,-0.560
1743420278.743785,-0.175,0.980,-0.130,0.840,-3.290,-0.140
1743420278.803241,-0.178,0.979,-0.130,0.840,-2.870,-0.490
1743420278.803964,-0.175,0.982,-0.129,0.910,-2.030,-1.400
1743420278.8336918,-0.174,0.983,-0.127,0.840,-1.680,-1.750
1743420278.8624508,-0.174,0.984,-0.132,0.910,-2.310,-1.050
1743420278.923798,-0.176,0.982,-0.128,0.910,-3.150,0.280
1743420278.9250371,-0.179,0.980,-0.130,0.840,-3.360,0.000
1743420278.938318,-0.178,0.978,-0.130,0.770,-2.590,-0.840
1743420278.9685261,-0.177,0.980,-0.130,0.770,-1.750,-1.680
1743420278.998857,-0.173,0.984,-0.128,0.770,-1.750,-1.680
1743420279.027484,-0.175,0.985,-0.125,0.910,-2.590,-0.630
1743420279.059807,-0.174,0.983,-0.133,0.980,-3.290,0.210
1743420279.0885608,-0.177,0.980,-0.130,0.770,-3.080,-0.070
1743420279.11907,-0.179,0.978,-0.132,0.770,-2.310,-1.120
1743420279.148799,-0.175,0.982,-0.132,0.840,-1.890,-1.680
1743420279.224305,-0.176,0.985,-0.129,0.840,-2.310,-1.120
1743420279.2249339,-0.176,0.985,-0.129,0.910,-2.940,-0.420
1743420279.238938,-0.177,0.982,-0.129,0.980,-3.010,-0.210
1743420279.268716,-0.176,0.978,-0.130,0.980,-2.450,-0.700
1743420279.299111,-0.175,0.983,-0.128,0.840,-2.030,-1.540
1743420279.3131468,-0.177,0.984,-0.130,0.840,-2.240,-0.980
1743420279.34368,-0.176,0.982,-0.128,0.910,-2.800,-0.350
1743420279.3725219,-0.176,0.981,-0.132,0.840,-3.080,-0.350
1743420279.404165,-0.177,0.981,-0.130,0.840,-2.660,-0.700
1743420279.4330812,-0.177,0.979,-0.132,0.840,-1.960,-1.330
1743420279.462244,-0.172,0.982,-0.129,0.910,-2.100,-1.260
1743420279.537659,-0.176,0.986,-0.130,0.840,-2.450,-0.700
1743420279.538107,-0.176,0.984,-0.128,0.980,-3.150,0.000
1743420279.538518,-0.178,0.980,-0.134,1.050,-3.010,-0.280
1743420279.5680661,-0.177,0.977,-0.130,0.840,-2.450,-1.120
1743420279.5979671,-0.175,0.984,-0.129,0.840,-1.750,-1.680
1743420279.627957,-0.174,0.984,-0.129,0.840,-2.100,-1.120
1743420279.65905,-0.175,0.985,-0.131,0.910,-2.940,-0.280
1743420279.687412,-0.177,0.983,-0.131,1.050,-3.220,0.070
1743420279.718077,-0.178,0.980,-0.130,0.770,-2.730,-0.560
1743420279.748239,-0.175,0.980,-0.131,0.840,-2.100,-1.470
1743420279.82318,-0.175,0.985,-0.129,0.770,-1.820,-1.540
1743420279.823785,-0.174,0.984,-0.130,0.980,-2.520,-0.770
1743420279.838454,-0.178,0.983,-0.129,0.910,-3.080,-0.210
1743420279.8972769,-0.174,0.980,-0.132,0.980,-3.010,-0.280
1743420279.9000242,-0.176,0.980,-0.131,0.980,-2.310,-0.980
1743420279.928131,-0.175,0.982,-0.130,0.840,-2.170,-1.470
1743420279.95899,-0.176,0.983,-0.131,0.910,-2.310,-0.980
1743420279.9882638,-0.176,0.982,-0.128,0.980,-2.800,-0.350
1743420280.002574,-0.175,0.981,-0.129,0.910,-3.010,-0.420
1743420280.034799,-0.173,0.981,-0.130,0.980,-2.450,-0.980
1743420280.0631318,-0.178,0.982,-0.129,0.770,-2.030,-1.260
1743420280.1262348,-0.177,0.984,-0.129,0.980,-2.240,-1.050
1743420280.1267111,-0.175,0.983,-0.129,0.840,-2.730,-0.420
1743420280.168627,-0.177,0.981,-0.131,0.840,-3.080,-0.280
1743420280.183218,-0.179,0.980,-0.128,0.840,-2.800,-0.560
1743420280.212887,-0.178,0.981,-0.131,0.770,-2.030,-1.400
1743420280.243105,-0.177,0.983,-0.130,0.840,-2.030,-1.400
1743420280.2592452,-0.175,0.985,-0.130,0.910,-2.380,-0.840
1743420280.289171,-0.175,0.982,-0.128,0.910,-3.080,-0.210
1743420280.318641,-0.177,0.982,-0.131,1.120,-3.150,-0.140
1743420280.349765,-0.176,0.980,-0.130,0.700,-2.520,-0.980
1743420280.422833,-0.177,0.981,-0.128,0.840,-1.890,-1.470
1743420280.42506,-0.174,0.983,-0.129,0.840,-2.030,-1.260
1743420280.438414,-0.176,0.984,-0.127,0.910,-2.660,-0.490
1743420280.469128,-0.177,0.982,-0.130,0.770,-3.150,-0.210
1743420280.498802,-0.177,0.983,-0.132,0.980,-2.870,-0.420
1743420280.5281029,-0.175,0.981,-0.131,0.840,-2.310,-1.120
1743420280.5437639,-0.176,0.983,-0.130,0.910,-2.100,-1.330
1743420280.572918,-0.175,0.983,-0.132,0.840,-2.380,-0.980
1743420280.6027882,-0.176,0.984,-0.130,0.910,-2.870,-0.420
1743420280.632607,-0.177,0.982,-0.130,0.840,-2.800,-0.280
1743420280.662726,-0.176,0.981,-0.130,0.840,-2.380,-0.840
1743420280.7221298,-0.178,0.982,-0.129,0.840,-2.240,-1.190
1743420280.722563,-0.177,0.984,-0.131,0.910,-2.450,-0.980
1743420280.752239,-0.176,0.982,-0.133,0.910,-2.730,-0.490
1743420280.791286,-0.176,0.982,-0.130,0.770,-2.940,-0.560
1743420280.804828,-0.177,0.980,-0.130,0.910,-2.660,-0.630
1743420280.827754,-0.174,0.982,-0.130,0.840,-2.170,-1.190
1743420280.8578482,-0.175,0.984,-0.128,0.910,-2.100,-1.190
1743420280.888609,-0.173,0.984,-0.128,0.770,-2.660,-0.770
1743420280.917894,-0.176,0.982,-0.127,0.770,-3.010,-0.210
1743420280.947777,-0.175,0.980,-0.130,0.910,-2.940,-0.560
1743420281.023741,-0.176,0.979,-0.131,0.840,-2.310,-0.980
1743420281.024569,-0.173,0.982,-0.130,0.630,-2.100,-1.470
1743420281.038657,-0.174,0.983,-0.127,0.700,-2.240,-1.050
1743420281.068083,-0.177,0.986,-0.129,0.840,-2.730,-0.350
1743420281.09937,-0.177,0.981,-0.131,0.840,-2.870,-0.280
1743420281.129568,-0.178,0.981,-0.130,0.910,-2.590,-0.700
1743420281.173573,-0.176,0.980,-0.131,0.910,-2.100,-1.260
1743420281.1743722,-0.174,0.983,-0.132,0.840,-2.170,-1.190
1743420281.203603,-0.175,0.983,-0.126,0.840,-2.520,-0.840
1743420281.2322628,-0.178,0.984,-0.130,0.910,-2.940,-0.420
1743420281.263225,-0.176,0.981,-0.129,0.980,-2.730,-0.420
1743420281.3238652,-0.176,0.980,-0.129,0.910,-2.310,-1.050
1743420281.324522,-0.175,0.982,-0.128,0.840,-2.170,-1.120
1743420281.353796,-0.175,0.983,-0.128,0.910,-2.380,-0.980
1743420281.3844218,-0.175,0.982,-0.127,0.910,-2.730,-0.490
1743420281.413364,-0.177,0.981,-0.130,0.980,-2.800,-0.630
1743420281.443468,-0.175,0.981,-0.130,0.770,-2.450,-1.050
1743420281.473828,-0.175,0.982,-0.129,0.770,-2.170,-1.190
1743420281.503125,-0.174,0.985,-0.129,0.980,-2.380,-0.980
1743420281.533491,-0.178,0.984,-0.131,0.980,-2.730,-0.420
1743420281.563197,-0.177,0.982,-0.129,0.840,-2.870,-0.350
1743420281.623363,-0.176,0.979,-0.131,0.700,-2.590,-0.910
1743420281.623998,-0.178,0.981,-0.130,0.840,-2.170,-1.330
1743420281.6531992,-0.176,0.983,-0.129,0.910,-2.310,-1.050
1743420281.683024,-0.174,0.983,-0.130,0.980,-2.660,-0.560
1743420281.712411,-0.176,0.984,-0.130,1.050,-2.940,-0.280
1743420281.7280252,-0.177,0.980,-0.131,0.910,-2.660,-0.700
1743420281.759764,-0.176,0.980,-0.131,0.840,-2.240,-1.120
1743420281.7883542,-0.178,0.979,-0.128,0.770,-2.100,-1.330
1743420281.818157,-0.173,0.983,-0.129,0.910,-2.450,-0.980
1743420281.893606,-0.177,0.981,-0.129,0.910,-2.730,-0.560
1743420281.894115,-0.176,0.981,-0.129,0.910,-2.870,-0.490
1743420281.907924,-0.176,0.981,-0.130,0.770,-2.590,-0.840
1743420281.939017,-0.177,0.981,-0.132,0.770,-2.240,-1.120
1743420281.9684522,-0.175,0.985,-0.130,0.910,-2.380,-1.050
1743420281.983391,-0.173,0.984,-0.128,0.840,-2.590,-0.700
1743420282.013224,-0.177,0.982,-0.130,0.910,-2.730,-0.490
1743420282.04356,-0.175,0.981,-0.130,0.840,-2.590,-0.700
1743420282.073714,-0.175,0.980,-0.131,0.770,-2.380,-1.050
1743420282.103059,-0.174,0.983,-0.127,0.980,-2.310,-1.050
1743420282.133418,-0.175,0.983,-0.131,0.910,-2.590,-0.630
1743420282.193857,-0.177,0.982,-0.128,0.840,-2.660,-0.490
1743420282.194603,-0.179,0.981,-0.130,0.840,-2.660,-0.770
1743420282.2235289,-0.176,0.981,-0.132,0.770,-2.380,-0.980
1743420282.253193,-0.175,0.982,-0.131,0.840,-2.170,-1.050
1743420282.283913,-0.175,0.982,-0.128,0.980,-2.450,-0.770
1743420282.313335,-0.176,0.983,-0.130,0.910,-2.800,-0.420
1743420282.343543,-0.175,0.982,-0.128,0.840,-2.800,-0.420
1743420282.374068,-0.176,0.982,-0.131,0.840,-2.520,-0.840
1743420282.401891,-0.175,0.983,-0.129,0.910,-2.240,-1.190
1743420282.4472692,-0.174,0.985,-0.131,0.910,-2.310,-1.050
1743420282.493664,-0.175,0.982,-0.130,0.840,-2.660,-0.560
1743420282.5084858,-0.175,0.983,-0.132,0.770,-2.870,-0.350
1743420282.509164,-0.176,0.978,-0.129,0.770,-2.660,-0.770
1743420282.5388958,-0.177,0.981,-0.130,0.840,-2.380,-1.120
1743420282.5674088,-0.176,0.982,-0.131,0.840,-2.240,-1.050
1743420282.598499,-0.174,0.983,-0.129,0.840,-2.450,-0.840
1743420282.628095,-0.176,0.982,-0.129,0.770,-2.660,-0.490
1743420282.658127,-0.175,0.981,-0.133,0.770,-2.660,-0.490
1743420282.689439,-0.176,0.980,-0.130,0.840,-2.450,-0.910
1743420282.71939,-0.176,0.983,-0.129,0.840,-2.240,-1.050
1743420282.748964,-0.177,0.984,-0.128,0.910,-2.380,-0.840
1743420282.793677,-0.176,0.982,-0.128,0.770,-2.660,-0.560
1743420282.80927,-0.177,0.982,-0.127,0.840,-2.660,-0.630
1743420282.8385222,-0.173,0.980,-0.131,0.910,-2.520,-0.910
1743420282.8688152,-0.178,0.983,-0.130,0.840,-2.240,-1.050
1743420282.899115,-0.177,0.982,-0.130,0.840,-2.380,-1.050
1743420282.928098,-0.174,0.982,-0.130,0.840,-2.660,-0.630
1743420282.958652,-0.175,0.980,-0.131,0.980,-2.800,-0.560
1743420282.98855,-0.178,0.980,-0.132,0.910,-2.660,-0.770
1743420283.0033212,-0.178,0.981,-0.129,0.770,-2.380,-1.050
1743420283.033793,-0.176,0.982,-0.129,0.840,-2.310,-0.980
1743420283.0934012,-0.177,0.984,-0.132,0.840,-2.520,-0.770
1743420283.094031,-0.176,0.981,-0.132,0.840,-2.800,-0.490
1743420283.123713,-0.178,0.982,-0.133,0.770,-2.730,-0.630
1743420283.154089,-0.175,0.979,-0.131,0.910,-2.450,-0.840
1743420283.183243,-0.176,0.982,-0.130,0.840,-2.240,-1.050
1743420283.214006,-0.176,0.984,-0.130,0.980,-2.310,-0.980
1743420283.2441669,-0.176,0.981,-0.130,0.980,-2.590,-0.630
1743420283.2737548,-0.176,0.985,-0.129,0.840,-2.730,-0.560
1743420283.303395,-0.176,0.981,-0.130,0.840,-2.450,-0.700
1743420283.333258,-0.177,0.981,-0.131,0.910,-2.310,-0.910
1743420283.393431,-0.178,0.983,-0.129,0.910,-2.310,-0.980
1743420283.394094,-0.175,0.981,-0.128,0.840,-2.520,-0.630
1743420283.409527,-0.176,0.982,-0.131,0.910,-2.590,-0.560
1743420283.4377248,-0.177,0.981,-0.127,0.910,-2.590,-0.700
1743420283.469347,-0.177,0.982,-0.132,0.770,-2.380,-1.050
1743420283.498975,-0.173,0.984,-0.129,0.840,-2.240,-0.910
1743420283.5277288,-0.179,0.981,-0.132,0.980,-2.520,-0.840
1743420283.5591109,-0.175,0.983,-0.129,0.910,-2.660,-0.560
1743420283.588387,-0.178,0.982,-0.131,0.910,-2.660,-0.630
1743420283.617733,-0.177,0.981,-0.130,0.910,-2.450,-0.980
1743420283.648757,-0.175,0.981,-0.131,0.700,-2.310,-0.980
1743420283.692966,-0.173,0.983,-0.130,0.980,-2.520,-0.980
1743420283.738744,-0.176,0.981,-0.129,0.980,-2.660,-0.700
1743420283.739413,-0.175,0.981,-0.131,0.420,-2.660,-0.630
1743420283.7532852,-0.177,0.982,-0.131,0.700,-2.590,-0.770
1743420283.783287,-0.176,0.981,-0.131,0.910,-2.310,-1.050
1743420283.8193972,-0.175,0.982,-0.127,0.840,-2.310,-0.910
1743420283.842973,-0.175,0.982,-0.128,0.840,-2.520,-0.770
1743420283.8739169,-0.177,0.982,-0.129,0.910,-2.660,-0.560
1743420283.903011,-0.175,0.981,-0.130,0.840,-2.730,-0.630
1743420283.9328718,-0.176,0.980,-0.130,0.770,-2.450,-0.770
1743420283.9929512,-0.177,0.982,-0.130,0.840,-2.310,-0.910
1743420283.993463,-0.178,0.982,-0.131,0.840,-2.520,-0.770
1743420284.023592,-0.178,0.982,-0.129,0.910,-2.660,-0.630
1743420284.053194,-0.178,0.981,-0.131,0.910,-2.660,-0.630
1743420284.083081,-0.177,0.983,-0.132,0.910,-2.450,-0.770
1743420284.113982,-0.177,0.982,-0.130,0.770,-2.450,-0.910
1743420284.12808,-0.176,0.983,-0.129,0.910,-2.450,-0.700
1743420284.158732,-0.177,0.979,-0.131,0.840,-2.660,-0.630
1743420284.188452,-0.176,0.980,-0.130,0.770,-2.730,-0.700
1743420284.2187688,-0.174,0.983,-0.127,0.840,-2.450,-0.840
1743420284.248151,-0.172,0.981,-0.131,0.980,-2.310,-1.120
1743420284.2941,-0.176,0.981,-0.131,0.770,-2.380,-1.050
1743420284.308104,-0.174,0.983,-0.132,1.260,-2.380,-0.630
1743420284.339639,-0.176,0.982,-0.128,0.980,-2.730,-0.490
1743420284.368584,-0.176,0.982,-0.129,0.700,-2.660,-0.630
1743420284.398153,-0.178,0.981,-0.128,0.910,-2.450,-0.980
1743420284.4579148,-0.176,0.981,-0.132,0.910,-2.310,-0.980
1743420284.4717839,-0.175,0.983,-0.129,0.910,-2.450,-0.980
1743420284.4877791,-0.175,0.981,-0.130,0.840,-2.590,-0.630
1743420284.518164,-0.177,0.982,-0.127,0.840,-2.800,-0.560
1743420284.547828,-0.176,0.982,-0.132,0.910,-2.520,-0.770
1743420284.5783858,-0.176,0.980,-0.131,0.910,-2.450,-0.910
1743420284.608778,-0.175,0.982,-0.131,0.840,-2.380,-0.840
1743420284.6248288,-0.177,0.983,-0.129,0.910,-2.590,-0.700
1743420284.652621,-0.178,0.981,-0.131,0.840,-2.660,-0.700
1743420284.684065,-0.177,0.982,-0.130,0.910,-2.590,-0.770
1743420284.714144,-0.177,0.982,-0.131,0.910,-2.380,-0.770
1743420284.758944,-0.177,0.981,-0.127,0.840,-2.310,-0.980
1743420284.7731562,-0.174,0.983,-0.132,0.770,-2.520,-0.770
1743420284.803487,-0.176,0.983,-0.130,0.840,-2.660,-0.630
1743420284.8342881,-0.178,0.981,-0.131,0.910,-2.590,-0.700
1743420284.863235,-0.176,0.982,-0.132,0.840,-2.380,-0.980
1743420284.894488,-0.177,0.982,-0.128,0.770,-2.310,-1.050
1743420284.9247239,-0.177,0.981,-0.132,0.840,-2.380,-0.770
1743420284.954331,-0.179,0.982,-0.128,0.840,-2.590,-0.560
1743420284.983791,-0.174,0.981,-0.129,0.910,-2.660,-0.630
1743420285.013699,-0.176,0.979,-0.130,0.840,-2.520,-0.910
1743420285.0586681,-0.178,0.983,-0.132,0.910,-2.450,-0.980
1743420285.059468,-0.175,0.982,-0.131,0.770,-2.310,-1.050
1743420285.087081,-0.174,0.983,-0.129,0.770,-2.450,-0.700
1743420285.118979,-0.176,0.982,-0.130,1.120,-2.590,-0.630
1743420285.149685,-0.175,0.982,-0.130,0.980,-2.450,-0.770
1743420285.1784399,-0.177,0.981,-0.127,0.980,-2.310,-0.910
1743420285.208471,-0.175,0.983,-0.131,0.910,-2.450,-0.980
1743420285.238482,-0.175,0.981,-0.128,0.840,-2.520,-0.770
1743420285.268511,-0.177,0.984,-0.130,0.840,-2.660,-0.560
1743420285.297858,-0.176,0.980,-0.128,0.840,-2.590,-0.630
1743420285.358773,-0.177,0.980,-0.129,0.910,-2.520,-0.840
1743420285.359602,-0.175,0.982,-0.131,0.840,-2.310,-0.910
1743420285.388213,-0.176,0.984,-0.129,0.840,-2.450,-0.630
1743420285.4186618,-0.176,0.982,-0.129,0.770,-2.450,-0.700
1743420285.434149,-0.179,0.981,-0.128,0.840,-2.660,-0.700
1743420285.464308,-0.176,0.982,-0.127,0.770,-2.450,-0.770
1743420285.4945421,-0.175,0.981,-0.127,0.840,-2.450,-0.980
1743420285.523669,-0.175,0.983,-0.129,0.910,-2.450,-0.840
1743420285.5532649,-0.175,0.983,-0.131,0.840,-2.590,-0.840
1743420285.5830421,-0.176,0.982,-0.131,0.840,-2.590,-0.560
1743420285.6127858,-0.178,0.981,-0.130,0.770,-2.520,-0.700
1743420285.658198,-0.177,0.982,-0.127,0.840,-2.380,-1.050
1743420285.672816,-0.176,0.981,-0.131,0.840,-2.380,-0.910
1743420285.701777,-0.175,0.984,-0.131,0.840,-2.520,-0.770
1743420285.735571,-0.174,0.982,-0.129,0.770,-2.730,-0.630
1743420285.763256,-0.175,0.982,-0.129,0.980,-2.730,-0.560
1743420285.778174,-0.179,0.981,-0.129,0.910,-2.450,-0.840
1743420285.808949,-0.177,0.981,-0.132,0.770,-2.380,-0.910
1743420285.838368,-0.177,0.984,-0.130,0.770,-2.380,-0.980
1743420285.868744,-0.175,0.983,-0.128,0.910,-2.590,-0.700
1743420285.8982358,-0.177,0.982,-0.129,0.840,-2.590,-0.630
1743420285.973278,-0.175,0.980,-0.130,0.840,-2.520,-0.770
1743420285.974275,-0.176,0.984,-0.129,0.910,-2.450,-0.910
1743420285.988966,-0.175,0.984,-0.131,0.840,-2.520,-0.910
1743420286.019049,-0.175,0.981,-0.130,0.840,-2.590,-0.770
1743420286.048574,-0.175,0.980,-0.129,0.840,-2.660,-0.700
1743420286.0782988,-0.177,0.981,-0.132,0.910,-2.450,-0.770
1743420286.108421,-0.176,0.981,-0.129,0.910,-2.450,-0.840
1743420286.139633,-0.178,0.982,-0.130,0.980,-2.520,-0.910
1743420286.168532,-0.175,0.983,-0.130,0.910,-2.590,-0.770
1743420286.200447,-0.176,0.983,-0.130,0.700,-2.590,-0.490
1743420286.2584698,-0.177,0.983,-0.131,0.980,-2.520,-0.840
1743420286.259486,-0.177,0.980,-0.131,0.770,-2.450,-0.910
1743420286.303087,-0.176,0.983,-0.128,0.840,-2.310,-0.980
1743420286.3035588,-0.175,0.982,-0.130,0.910,-2.520,-0.840
1743420286.333308,-0.176,0.980,-0.131,0.910,-2.660,-0.700
1743420286.363015,-0.175,0.980,-0.129,0.980,-2.660,-0.770
1743420286.39357,-0.178,0.980,-0.131,0.910,-2.590,-0.770
1743420286.42385,-0.176,0.982,-0.134,0.840,-2.380,-1.050
1743420286.453556,-0.176,0.981,-0.128,0.840,-2.310,-0.910
1743420286.4830139,-0.175,0.981,-0.129,0.910,-2.450,-0.700
1743420286.5248818,-0.176,0.981,-0.130,0.840,-2.520,-0.700
1743420286.557518,-0.176,0.981,-0.128,0.770,-2.450,-0.770
1743420286.572736,-0.175,0.981,-0.129,0.840,-2.450,-0.840
1743420286.5878882,-0.175,0.982,-0.130,0.840,-2.310,-0.770
1743420286.61798,-0.175,0.983,-0.129,0.840,-2.450,-0.840
1743420286.6478631,-0.174,0.984,-0.132,0.840,-2.520,-0.700
1743420286.677873,-0.178,0.982,-0.131,0.980,-2.730,-0.630
1743420286.7080698,-0.175,0.982,-0.130,0.770,-2.520,-0.910
1743420286.739264,-0.176,0.983,-0.129,0.840,-2.450,-0.910
1743420286.769126,-0.179,0.982,-0.129,0.560,-2.520,-0.910
1743420286.8020322,-0.174,0.982,-0.132,0.980,-2.730,-0.770
1743420286.858757,-0.174,0.983,-0.130,0.770,-2.520,-0.700
1743420286.859422,-0.178,0.980,-0.131,0.910,-2.590,-0.840
1743420286.888577,-0.173,0.983,-0.130,0.910,-2.450,-0.910
1743420286.919002,-0.174,0.980,-0.129,0.840,-2.380,-0.770
1743420286.948304,-0.177,0.985,-0.132,0.910,-2.520,-0.700
1743420286.978315,-0.180,0.984,-0.130,0.770,-2.590,-0.700
1743420287.010088,-0.180,0.982,-0.132,0.840,-2.520,-0.770
1743420287.037908,-0.174,0.982,-0.130,0.910,-2.380,-0.840
1743420287.07023,-0.176,0.982,-0.128,0.770,-2.380,-1.050
1743420287.0838752,-0.177,0.981,-0.130,0.910,-2.520,-0.700
1743420287.113287,-0.178,0.985,-0.130,0.840,-2.590,-0.700
1743420287.158933,-0.176,0.980,-0.130,0.910,-2.660,-0.560
1743420287.174461,-0.177,0.983,-0.129,0.700,-2.590,-1.050
1743420287.20346,-0.177,0.983,-0.128,0.910,-2.450,-0.910
1743420287.234049,-0.174,0.984,-0.130,0.910,-2.450,-0.770
1743420287.263082,-0.175,0.983,-0.130,0.770,-2.450,-0.700
1743420287.293976,-0.177,0.983,-0.131,0.840,-2.450,-0.700
1743420287.323956,-0.176,0.980,-0.130,0.840,-2.520,-0.770
1743420287.3542242,-0.176,0.980,-0.131,0.840,-2.450,-0.910
1743420287.384036,-0.178,0.982,-0.127,0.910,-2.380,-0.910
1743420287.413304,-0.175,0.983,-0.129,0.840,-2.520,-0.700
1743420287.4590101,-0.177,0.984,-0.130,0.910,-2.660,-0.840
1743420287.473807,-0.175,0.980,-0.130,1.050,-2.660,-0.770
1743420287.488383,-0.175,0.978,-0.129,0.980,-2.520,-0.840
1743420287.5184908,-0.175,0.979,-0.131,0.910,-2.520,-0.980
1743420287.5792892,-0.177,0.982,-0.127,0.840,-2.450,-0.980
1743420287.5797582,-0.176,0.983,-0.133,0.840,-2.520,-0.700
1743420287.6092649,-0.178,0.981,-0.130,0.910,-2.660,-0.700
1743420287.63863,-0.176,0.981,-0.128,1.050,-2.380,-0.700
1743420287.668606,-0.176,0.982,-0.129,0.980,-2.450,-0.840
1743420287.697726,-0.176,0.982,-0.130,0.840,-2.450,-0.910
1743420287.75967,-0.178,0.982,-0.129,0.840,-2.520,-0.770
1743420287.774822,-0.177,0.982,-0.128,0.840,-2.590,-0.700
1743420287.788221,-0.177,0.982,-0.132,0.840,-2.590,-0.840
1743420287.81843,-0.177,0.982,-0.129,0.910,-2.520,-0.910
1743420287.833369,-0.177,0.982,-0.130,0.770,-2.380,-0.910
1743420287.862582,-0.174,0.982,-0.131,0.840,-2.450,-0.770
1743420287.893895,-0.176,0.982,-0.130,0.840,-2.520,-0.700
1743420287.9239502,-0.175,0.981,-0.129,0.770,-2.520,-0.700
1743420287.953666,-0.174,0.983,-0.130,0.840,-2.520,-0.840
1743420287.983741,-0.176,0.981,-0.130,0.910,-2.450,-0.840
1743420288.014347,-0.176,0.981,-0.131,0.840,-2.520,-0.910
1743420288.0740428,-0.176,0.982,-0.130,0.840,-2.520,-0.910
1743420288.074891,-0.176,0.983,-0.131,0.910,-2.590,-0.840
1743420288.103681,-0.176,0.981,-0.130,0.840,-2.590,-0.840
1743420288.133688,-0.177,0.982,-0.130,0.840,-2.380,-0.840
1743420288.163275,-0.177,0.982,-0.131,0.770,-2.450,-0.770
1743420288.1939049,-0.176,0.981,-0.130,0.840,-2.520,-0.700
1743420288.2247849,-0.176,0.981,-0.129,0.840,-2.520,-0.770
1743420288.254302,-0.176,0.983,-0.129,0.840,-2.450,-0.770
1743420288.268832,-0.176,0.982,-0.134,0.910,-2.450,-0.770
1743420288.2996411,-0.176,0.982,-0.132,0.910,-2.520,-0.910
1743420288.358142,-0.176,0.983,-0.130,0.910,-2.590,-0.770
1743420288.3589602,-0.176,0.980,-0.129,0.910,-2.590,-0.700
1743420288.388723,-0.175,0.982,-0.130,0.840,-2.590,-0.770
1743420288.418296,-0.178,0.981,-0.131,0.840,-2.520,-0.910
1743420288.448125,-0.175,0.983,-0.127,0.770,-2.380,-0.840
1743420288.4782138,-0.177,0.982,-0.131,0.840,-2.520,-0.910
1743420288.5077062,-0.176,0.982,-0.130,0.910,-2.590,-0.700
1743420288.538868,-0.178,0.981,-0.132,0.840,-2.590,-0.770
1743420288.553632,-0.175,0.983,-0.128,0.910,-2.520,-0.770
1743420288.584332,-0.177,0.982,-0.128,0.770,-2.380,-0.910
1743420288.613207,-0.176,0.981,-0.131,0.980,-2.520,-0.980
1743420288.6589398,-0.176,0.982,-0.128,0.770,-2.450,-0.840
1743420288.674442,-0.176,0.983,-0.128,0.770,-2.520,-0.910
1743420288.704095,-0.177,0.982,-0.129,0.980,-2.520,-0.630
1743420288.7331321,-0.176,0.982,-0.129,0.840,-2.520,-0.840
1743420288.7633548,-0.177,0.982,-0.128,0.910,-2.380,-0.700
1743420288.7938979,-0.176,0.982,-0.132,0.980,-2.590,-0.840
1743420288.8239841,-0.177,0.981,-0.130,0.770,-2.520,-0.840
1743420288.854487,-0.175,0.981,-0.130,0.840,-2.450,-0.840
1743420288.9141078,-0.177,0.983,-0.130,0.980,-2.520,-0.840
1743420288.91496,-0.176,0.983,-0.132,0.840,-2.380,-0.770
1743420288.928936,-0.178,0.984,-0.128,0.840,-2.450,-0.770
1743420288.959216,-0.176,0.981,-0.130,0.770,-2.520,-0.770
1743420288.988898,-0.176,0.980,-0.131,0.840,-2.520,-0.770
1743420289.0190248,-0.177,0.981,-0.129,0.770,-2.520,-0.770
1743420289.049418,-0.178,0.981,-0.129,0.770,-2.380,-0.910
1743420289.078998,-0.175,0.981,-0.129,0.700,-2.380,-0.840
1743420289.1106272,-0.175,0.981,-0.128,0.840,-2.590,-0.770
1743420289.1386628,-0.179,0.982,-0.128,0.840,-2.590,-0.630
1743420289.168464,-0.175,0.984,-0.128,0.840,-2.520,-0.700
1743420289.2140028,-0.177,0.981,-0.131,0.910,-2.450,-0.840
1743420289.228081,-0.177,0.982,-0.130,0.840,-2.380,-0.980
1743420289.25982,-0.175,0.981,-0.130,0.840,-2.380,-0.840
1743420289.289077,-0.177,0.982,-0.128,0.910,-2.450,-0.840
1743420289.304391,-0.177,0.981,-0.129,0.840,-2.590,-0.770
1743420289.333062,-0.175,0.980,-0.129,0.910,-2.520,-0.840
1743420289.363751,-0.176,0.983,-0.129,0.770,-2.450,-0.980
1743420289.393375,-0.176,0.980,-0.129,0.840,-2.450,-0.840
1743420289.4241369,-0.176,0.983,-0.131,0.840,-2.450,-0.840
1743420289.453411,-0.176,0.984,-0.128,0.910,-2.520,-0.770
1743420289.513865,-0.176,0.981,-0.129,0.840,-2.520,-0.840
1743420289.514444,-0.177,0.981,-0.129,0.770,-2.450,-0.770
1743420289.544437,-0.178,0.983,-0.130,0.910,-2.520,-0.840
1743420289.573683,-0.177,0.981,-0.131,0.840,-2.590,-0.770
1743420289.608478,-0.179,0.984,-0.133,0.840,-2.450,-0.770
1743420289.637378,-0.178,0.983,-0.130,0.910,-2.450,-0.840
1743420289.662735,-0.176,0.981,-0.129,0.770,-2.450,-0.910
1743420289.693748,-0.179,0.980,-0.131,0.770,-2.520,-0.840
1743420289.722854,-0.176,0.982,-0.131,0.770,-2.520,-0.700
1743420289.753835,-0.172,0.982,-0.129,0.840,-2.590,-0.700
1743420289.813405,-0.178,0.981,-0.130,0.840,-2.520,-0.770
1743420289.813884,-0.174,0.981,-0.129,0.770,-2.450,-0.910
1743420289.843085,-0.177,0.982,-0.129,0.840,-2.450,-0.910
1743420289.858597,-0.177,0.982,-0.130,0.910,-2.520,-0.770
1743420289.8888261,-0.174,0.981,-0.131,0.840,-2.660,-0.630
1743420289.918956,-0.176,0.980,-0.130,0.840,-2.730,-0.840
1743420289.9486752,-0.178,0.982,-0.131,0.910,-2.590,-0.630
1743420289.9784691,-0.178,0.980,-0.131,0.840,-2.450,-0.770
1743420290.009027,-0.178,0.982,-0.130,0.910,-2.520,-0.910
1743420290.0382888,-0.177,0.982,-0.131,0.980,-2.520,-0.700
1743420290.068105,-0.176,0.981,-0.129,0.980,-2.450,-0.630
1743420290.128464,-0.175,0.983,-0.130,0.700,-2.450,-0.980
1743420290.144213,-0.178,0.984,-0.130,1.050,-2.730,-0.770
1743420290.159107,-0.178,0.981,-0.129,0.910,-2.520,-0.210
1743420290.189159,-0.176,0.979,-0.131,0.630,-2.940,-1.050
1743420290.219111,-0.181,0.983,-0.128,0.980,-2.240,-1.050
1743420290.234387,-0.173,0.979,-0.130,1.190,-1.330,-1.400
1743420290.26355,-0.170,0.984,-0.127,0.770,-1.120,-2.380
1743420290.293917,-0.178,0.995,-0.129,1.330,-2.660,0.700
1743420290.323987,-0.178,0.976,-0.126,1.120,-4.270,2.240
1743420290.353647,-0.178,0.971,-0.131,-0.630,-6.440,-0.280
1743420290.415679,-0.196,0.990,-0.142,0.910,-5.110,0.490
1743420290.4165099,-0.174,0.964,-0.133,-0.630,0.000,-3.850
1743420290.444012,-0.165,0.987,-0.132,-0.070,1.680,-9.170
1743420290.474752,-0.171,1.012,-0.124,2.100,1.890,-1.540
1743420290.503904,-0.167,0.993,-0.122,4.060,-2.940,5.810
1743420290.533577,-0.173,0.970,-0.124,1.960,-6.580,4.550
1743420290.563021,-0.199,0.977,-0.139,1.190,-5.880,2.170
1743420290.5931861,-0.188,0.961,-0.131,-0.140,-0.560,-2.520
1743420290.6238232,-0.169,0.972,-0.127,-1.960,0.140,-9.380
1743420290.652999,-0.173,1.010,-0.126,-1.120,-1.540,-5.880
1743420290.711951,-0.170,1.002,-0.125,1.190,-4.130,2.940
1743420290.71276,-0.166,0.975,-0.129,1.330,-5.460,3.010
1743420290.743077,-0.183,0.981,-0.137,1.820,-4.060,0.980
1743420290.7584908,-0.184,0.974,-0.136,1.330,-0.840,-0.210
1743420290.789453,-0.180,0.975,-0.133,0.490,-1.960,-2.800
1743420290.8194969,-0.179,0.980,-0.129,-0.280,-2.660,-2.380
1743420290.84866,-0.177,0.988,-0.132,0.980,-2.380,-1.820
1743420290.878044,-0.174,0.986,-0.129,1.680,0.700,-1.470
1743420290.909139,-0.165,0.982,-0.125,2.380,0.700,-2.450
1743420290.9381099,-0.173,0.996,-0.122,2.310,-1.540,1.120
1743420290.968719,-0.183,0.984,-0.124,1.750,-5.180,4.900
1743420291.0140438,-0.182,0.968,-0.130,0.070,-7.280,2.100
1743420291.0281742,-0.190,0.971,-0.139,-1.610,-5.110,-2.590
1743420291.059564,-0.183,0.977,-0.137,-0.910,-0.770,-5.600
1743420291.089429,-0.166,0.984,-0.129,-0.350,1.470,-6.230
1743420291.11885,-0.163,1.001,-0.127,1.330,-1.400,-3.220
1743420291.148417,-0.174,1.002,-0.127,2.520,-3.570,4.620
1743420291.178572,-0.175,0.973,-0.129,2.450,-5.110,5.600
1743420291.2092009,-0.186,0.967,-0.135,1.190,-4.130,0.560
1743420291.239449,-0.190,0.975,-0.136,0.630,-0.770,-3.010
1743420291.2532532,-0.181,0.981,-0.131,0.280,0.350,-3.990
1743420291.313974,-0.170,0.984,-0.123,0.140,-1.190,-3.920
1743420291.3159502,-0.175,0.996,-0.126,0.770,-3.010,-1.190
1743420291.343512,-0.172,0.986,-0.124,1.470,-2.730,1.400
1743420291.372889,-0.170,0.978,-0.124,1.400,-3.220,0.700
1743420291.418903,-0.178,0.980,-0.131,0.490,-4.270,0.140
1743420291.433625,-0.187,0.981,-0.133,0.210,-4.690,0.700
1743420291.463576,-0.183,0.974,-0.135,0.070,-3.850,-0.980
1743420291.494124,-0.178,0.979,-0.134,0.070,-1.750,-3.780
1743420291.508566,-0.173,0.988,-0.132,1.120,0.770,-3.990
1743420291.538662,-0.167,0.991,-0.125,1.610,0.910,-2.590
1743420291.569052,-0.170,0.996,-0.121,1.820,-2.310,0.910
1743420291.614847,-0.179,0.987,-0.128,1.820,-5.740,4.620
1743420291.62898,-0.184,0.967,-0.134,0.840,-5.810,2.730
1743420291.6587908,-0.187,0.969,-0.136,0.140,-2.450,-2.380
1743420291.688701,-0.179,0.977,-0.133,0.000,1.050,-6.230
1743420291.7185018,-0.172,0.994,-0.127,0.840,1.050,-4.690
1743420291.748815,-0.167,0.995,-0.122,0.840,-1.820,-0.560
1743420291.77844,-0.169,0.992,-0.124,1.190,-5.670,2.590
1743420291.808173,-0.179,0.979,-0.132,1.400,-5.040,3.430
1743420291.838349,-0.185,0.971,-0.135,0.980,-3.430,0.000
1743420291.898283,-0.183,0.977,-0.135,0.140,-1.190,-2.870
1743420291.912637,-0.178,0.982,-0.129,0.210,-2.380,-3.150
1743420291.9282281,-0.177,0.985,-0.131,0.280,-2.520,-1.330
1743420291.958955,-0.171,0.980,-0.129,0.700,-2.520,-1.680
1743420291.9738429,-0.174,0.991,-0.128,0.980,-1.260,-0.770
1743420292.003711,-0.173,0.985,-0.129,2.730,-1.890,0.420
1743420292.032404,-0.180,0.983,-0.130,2.170,-3.710,0.770
1743420292.063518,-0.185,0.982,-0.134,1.330,-3.570,1.680
1743420292.094221,-0.182,0.971,-0.133,0.560,-3.080,-0.210
1743420292.123918,-0.179,0.976,-0.133,0.420,-0.840,-3.850
1743420292.197239,-0.174,0.987,-0.125,0.210,0.000,-5.040
1743420292.1987882,-0.170,0.997,-0.123,0.560,-2.240,-1.120
1743420292.213352,-0.176,0.991,-0.001,0.980,-5.390,2.660
1743420292.2428842,-0.180,0.979,-0.133,0.700,-6.160,3.290
1743420292.274019,-0.182,0.970,-0.136,0.630,-3.290,-0.770
1743420292.303309,-0.180,0.977,-0.134,0.560,0.490,-4.410
1743420292.333964,-0.173,0.988,-0.129,0.910,0.700,-4.340
1743420292.349455,-0.172,0.996,-0.123,1.260,-2.240,0.280
1743420292.379242,-0.171,0.984,-0.127,1.260,-5.110,2.520
1743420292.4087381,-0.182,0.978,-0.135,1.190,-4.900,1.890
1743420292.438124,-0.179,0.972,-0.133,0.980,-1.540,-1.330
1743420292.499326,-0.178,0.980,-0.129,0.700,0.070,-3.990
1743420292.4999192,-0.174,0.990,-0.123,0.700,-1.120,-2.380
1743420292.5425122,-0.178,0.988,-0.129,0.910,-3.920,0.630
1743420292.572313,-0.177,0.980,-0.130,0.770,-4.690,1.610
1743420292.588927,-0.179,0.975,-0.133,0.700,-3.360,-0.910
1743420292.6183,-0.179,0.980,-0.133,0.630,-1.400,-2.730
1743420292.632865,-0.174,0.985,-0.129,0.700,-1.330,-2.310
1743420292.663179,-0.177,0.987,-0.127,0.840,-2.870,-0.630
1743420292.693032,-0.177,0.984,-0.130,0.980,-4.060,1.050
1743420292.7234402,-0.181,0.978,-0.134,1.260,-3.290,0.210
1743420292.799047,-0.175,0.976,-0.131,1.050,-1.260,-2.100
1743420292.799656,-0.175,0.986,-0.127,1.120,-0.490,-2.660
1743420292.813588,-0.176,0.990,-0.126,0.910,-2.310,-0.560
1743420292.843912,-0.178,0.983,-0.126,0.840,-4.550,1.470
1743420292.873951,-0.181,0.979,-0.133,0.700,-4.690,1.050
1743420292.903817,-0.182,0.976,-0.134,0.700,-2.100,-1.750
1743420292.934379,-0.174,0.981,-0.127,0.840,-0.070,-3.640
1743420292.963521,-0.172,0.990,-0.125,0.840,-1.330,-2.240
1743420292.977391,-0.176,0.991,-0.127,1.050,-4.130,1.330
1743420293.008883,-0.182,0.981,-0.132,0.980,-5.250,2.380
1743420293.0395489,-0.183,0.973,-0.134,0.700,-3.780,0.000
1743420293.099211,-0.179,0.976,-0.135,0.630,-0.770,-3.080
1743420293.0999749,-0.176,0.987,-0.128,0.910,0.280,-3.640
1743420293.1292129,-0.174,0.992,-0.126,0.980,-1.540,-1.120
1743420293.1599329,-0.175,0.988,-0.128,0.980,-4.340,1.540
1743420293.188771,-0.177,0.978,-0.131,1.050,-4.410,1.890
1743420293.219299,-0.182,0.973,-0.130,0.910,-2.660,-0.910
1743420293.248384,-0.179,0.979,-0.131,0.560,-0.910,-3.150
1743420293.278516,-0.176,0.985,-0.131,0.630,-1.190,-2.450
1743420293.293238,-0.176,0.989,-0.128,0.770,-3.010,-0.140
1743420293.3245912,-0.177,0.982,-0.131,0.910,-4.200,0.770
1743420293.398557,-0.177,0.978,-0.135,0.980,-2.940,-0.280
1743420293.399029,-0.179,0.978,-0.130,0.980,-1.400,-1.890
1743420293.4135711,-0.177,0.982,-0.130,0.840,-1.330,-2.100
1743420293.443264,-0.176,0.986,-0.128,0.980,-2.940,-0.280
1743420293.474134,-0.180,0.982,-0.129,0.910,-3.850,0.770
1743420293.5028129,-0.182,0.976,-0.131,0.910,-3.010,-0.280
1743420293.534821,-0.178,0.978,-0.130,0.840,-1.120,-2.240
1743420293.5643961,-0.174,0.986,-0.127,0.980,-0.630,-2.450
1743420293.59302,-0.176,0.989,-0.127,0.910,-2.450,-0.560
1743420293.62398,-0.180,0.985,-0.127,0.770,-4.340,1.400
1743420293.638179,-0.183,0.978,-0.131,0.910,-4.550,1.050
1743420293.698584,-0.183,0.974,-0.134,0.700,-2.520,-1.190
1743420293.699051,-0.177,0.980,-0.131,0.490,-0.560,-3.430
1743420293.7281668,-0.176,0.988,-0.127,0.770,-0.770,-2.380
1743420293.7591,-0.175,0.989,-0.001,1.050,-3.080,0.210
1743420293.788683,-0.178,0.982,-0.131,1.120,-4.620,1.750
1743420293.819156,-0.181,0.978,-0.134,0.980,-3.640,0.630
1743420293.84883,-0.179,0.976,-0.134,0.770,-1.470,-1.890
1743420293.8782852,-0.178,0.981,-0.129,0.630,-0.560,-3.220
1743420293.909004,-0.175,0.991,-0.127,0.700,-1.890,-1.470
1743420293.9386408,-0.177,0.985,-0.128,1.050,-3.500,0.560
1743420293.998913,-0.175,0.981,-0.129,1.050,-3.990,0.840
1743420293.999439,-0.180,0.977,-0.133,0.980,-2.730,-0.700
1743420294.0140648,-0.178,0.978,-0.131,0.770,-1.540,-1.820
1743420294.04319,-0.176,0.984,-0.129,0.770,-1.750,-1.680
1743420294.074052,-0.177,0.984,-0.128,0.770,-3.080,-0.350
1743420294.103362,-0.180,0.983,-0.132,0.770,-3.640,0.210
1743420294.133756,-0.178,0.978,-0.132,0.910,-2.590,-0.630
1743420294.163848,-0.177,0.979,-0.129,0.980,-1.400,-2.030
1743420294.194048,-0.175,0.986,-0.129,0.840,-1.400,-1.820
1743420294.223996,-0.176,0.987,-0.127,0.910,-2.870,0.070
1743420294.298372,-0.178,0.980,-0.128,0.910,-4.200,0.840
1743420294.299329,-0.180,0.977,-0.135,0.770,-3.290,-0.140
1743420294.313604,-0.177,0.976,-0.133,0.840,-1.540,-2.030
1743420294.3434849,-0.176,0.982,-0.129,0.840,-0.700,-2.800
1743420294.3735502,-0.173,0.989,-0.126,0.910,-2.170,-1.120
1743420294.404487,-0.177,0.985,-0.131,1.120,-3.990,1.120
1743420294.433752,-0.177,0.977,-0.132,0.910,-4.200,0.840
1743420294.463688,-0.183,0.975,-0.135,0.840,-2.590,-1.260
1743420294.47904,-0.176,0.979,-0.131,0.770,-0.980,-2.730
1743420294.508832,-0.174,0.986,-0.127,0.630,-1.190,-2.310
1743420294.5372841,-0.175,0.987,-0.128,0.980,-2.660,-0.490
1743420294.598389,-0.176,0.982,-0.129,1.050,-3.780,0.980
1743420294.599102,-0.178,0.977,-0.130,0.840,-3.290,0.070
1743420294.62831,-0.179,0.978,-0.130,0.840,-1.890,-1.610
1743420294.659434,-0.177,0.980,-0.130,0.840,-1.470,-2.030
1743420294.689503,-0.176,0.985,-0.128,0.770,-2.310,-1.260
1743420294.704437,-0.180,0.983,-0.128,0.910,-3.290,-0.210
1743420294.733251,-0.178,0.980,-0.133,0.910,-3.360,0.000
1743420294.76385,-0.177,0.978,-0.131,0.980,-2.380,-0.840
1743420294.793679,-0.175,0.980,-0.130,0.910,-1.540,-1.750
1743420294.824769,-0.175,0.987,-0.131,0.840,-2.100,-1.190
1743420294.8985531,-0.174,0.983,-0.130,0.350,-3.080,-0.420
1743420294.899023,-0.179,0.984,-0.131,1.260,-3.920,0.630
1743420294.9135401,-0.179,0.977,-0.130,0.980,-2.800,-0.420
1743420294.943357,-0.177,0.979,-0.133,0.770,-1.610,-2.450
1743420294.972669,-0.175,0.984,-0.127,0.980,-0.910,-1.890
1743420295.003582,-0.174,0.985,-0.127,0.980,-2.520,-0.420
1743420295.0337868,-0.178,0.984,-0.129,0.980,-3.920,0.700
1743420295.062496,-0.180,0.980,-0.132,0.980,-3.850,0.910
1743420295.094431,-0.180,0.976,-0.134,0.770,-2.310,-1.050
1743420295.108664,-0.177,0.980,-0.129,0.700,-1.190,-3.150
1743420295.138734,-0.178,0.988,-0.129,0.770,-1.190,-2.100
1743420295.199137,-0.174,0.988,-0.127,0.840,-2.520,-0.070
1743420295.1998599,-0.176,0.980,-0.129,0.910,-3.920,0.630
1743420295.259211,-0.179,0.980,-0.132,0.980,-3.570,0.210
1743420295.259579,-0.181,0.976,-0.135,0.910,-2.100,-0.910
1743420295.288686,-0.177,0.981,-0.130,0.700,-1.400,-2.380
1743420295.3190248,-0.177,0.987,-0.130,0.630,-2.030,-1.540
1743420295.348327,-0.179,0.983,-0.129,0.910,-3.080,0.210
1743420295.378602,-0.177,0.980,-0.131,0.770,-3.290,0.140
1743420295.408714,-0.177,0.980,-0.131,0.840,-2.520,-1.050
1743420295.4399302,-0.180,0.981,-0.129,0.980,-1.680,-1.190
1743420295.4981508,-0.177,0.981,-0.130,0.770,-2.240,-1.190
1743420295.4998431,-0.178,0.985,-0.128,0.770,-3.150,-0.490
1743420295.5282319,-0.179,0.980,-0.132,0.980,-3.150,0.000
1743420295.5440059,-0.175,0.979,-0.131,0.910,-2.380,-0.980
1743420295.576457,-0.175,0.978,-0.130,0.840,-1.750,-2.030
1743420295.603084,-0.177,0.987,-0.129,1.050,-1.960,-1.050
1743420295.6330729,-0.175,0.985,-0.130,0.980,-2.940,0.140
1743420295.663095,-0.179,0.982,-0.130,0.770,-3.710,0.070
1743420295.693373,-0.181,0.979,-0.132,0.910,-2.940,-0.350
1743420295.721615,-0.179,0.980,-0.131,0.770,-1.750,-1.470
1743420295.8125389,-0.175,0.982,-0.128,0.840,-1.400,-2.170
1743420295.814961,-0.175,0.988,-0.126,0.840,-2.310,-1.050
1743420295.8154721,-0.179,0.985,-0.131,1.120,-3.360,0.700
1743420295.842891,-0.176,0.980,-0.129,0.770,-3.570,0.210
1743420295.874086,-0.182,0.979,-0.133,0.840,-2.590,-1.120
1743420295.903403,-0.178,0.982,-0.133,0.770,-1.400,-1.820
1743420295.932943,-0.175,0.982,-0.128,0.840,-1.680,-1.540
1743420295.9634528,-0.174,0.986,-0.128,0.840,-2.870,-0.490
1743420295.9937742,-0.178,0.983,-0.130,0.980,-3.290,0.490
1743420296.009012,-0.178,0.980,-0.131,0.980,-2.800,-0.420
1743420296.038422,-0.179,0.977,-0.130,0.770,-2.100,-1.540
1743420296.098475,-0.176,0.984,-0.129,0.840,-1.960,-1.610
1743420296.099126,-0.179,0.985,-0.129,0.910,-2.380,-0.630
1743420296.128778,-0.176,0.981,-0.128,0.840,-3.220,-0.350
1743420296.158551,-0.179,0.981,-0.131,0.910,-2.870,-0.350
1743420296.188357,-0.177,0.981,-0.132,0.840,-2.030,-1.050
1743420296.218626,-0.175,0.981,-0.128,0.770,-1.890,-1.610
1743420296.2484748,-0.176,0.984,-0.131,0.770,-2.520,-0.770
1743420296.278613,-0.177,0.982,-0.130,0.840,-3.150,0.140
1743420296.308844,-0.176,0.979,-0.132,0.770,-3.080,-0.350
1743420296.3397608,-0.177,0.978,-0.133,0.770,-2.380,-1.400
1743420296.400446,-0.176,0.981,-0.128,0.770,-1.680,-1.470
1743420296.400984,-0.174,0.985,-0.129,0.910,-2.030,-1.190
1743420296.41326,-0.178,0.984,-0.127,0.840,-3.150,-0.280
1743420296.4433742,-0.179,0.981,-0.130,0.980,-3.360,0.350
1743420296.474132,-0.177,0.977,-0.132,0.770,-2.730,-0.490
1743420296.503932,-0.176,0.979,-0.132,0.770,-1.960,-1.820
1743420296.534881,-0.179,0.984,-0.128,0.840,-1.610,-1.610
1743420296.5643399,-0.176,0.983,-0.128,0.910,-2.450,-0.840
1743420296.593586,-0.176,0.984,-0.130,0.910,-3.150,-0.140
1743420296.6244018,-0.179,0.982,-0.129,0.910,-3.220,0.070
1743420296.698459,-0.177,0.979,-0.131,0.840,-2.450,-0.770
1743420296.699096,-0.178,0.980,-0.133,0.770,-2.030,-1.750
1743420296.699608,-0.175,0.983,-0.130,0.840,-2.100,-1.260
1743420296.72881,-0.176,0.983,-0.129,0.910,-2.800,-0.350
1743420296.75936,-0.176,0.980,-0.132,0.910,-3.150,-0.280
1743420296.788668,-0.177,0.980,-0.132,0.980,-2.730,-0.770
1743420296.818989,-0.180,0.980,-0.128,0.840,-2.030,-1.120
1743420296.848813,-0.177,0.983,-0.131,0.840,-2.100,-1.190
1743420296.8776178,-0.175,0.983,-0.127,0.770,-2.730,-0.700
1743420296.909238,-0.179,0.982,-0.128,0.840,-3.010,-0.070
1743420296.93891,-0.178,0.979,-0.131,0.770,-2.590,-0.560
1743420296.9992352,-0.176,0.980,-0.130,0.840,-2.100,-1.400
1743420296.999982,-0.177,0.985,-0.128,0.840,-1.820,-1.330
1743420297.028457,-0.177,0.981,-0.127,0.910,-2.450,-0.700
1743420297.059405,-0.177,0.984,-0.129,0.840,-3.080,-0.140
1743420297.088402,-0.180,0.982,-0.133,0.840,-3.010,-0.280
1743420297.103325,-0.180,0.980,-0.131,0.840,-2.310,-0.980
1743420297.133178,-0.175,0.981,-0.130,0.770,-1.820,-1.680
1743420297.163234,-0.175,0.985,-0.131,0.840,-2.100,-1.190
1743420297.1940532,-0.176,0.987,-0.130,1.050,-2.730,-0.280
1743420297.224214,-0.179,0.981,-0.130,0.840,-3.150,0.070
1743420297.2990808,-0.180,0.979,-0.132,0.910,-2.800,-0.630
1743420297.2997272,-0.178,0.983,-0.131,0.910,-2.100,-1.260
1743420297.3119848,-0.175,0.982,-0.129,0.770,-1.890,-1.470
1743420297.3436632,-0.176,0.984,-0.128,0.910,-2.450,-0.910
1743420297.3585029,-0.178,0.982,-0.129,1.050,-3.010,-0.140
1743420297.388462,-0.176,0.982,-0.131,0.910,-2.870,-0.140
1743420297.418713,-0.177,0.980,-0.130,0.910,-2.520,-0.910
1743420297.4490938,-0.176,0.982,-0.130,0.910,-2.030,-1.470
1743420297.478691,-0.177,0.982,-0.128,0.770,-2.170,-1.050
1743420297.5089412,-0.176,0.981,-0.128,0.770,-2.800,-0.560
1743420297.53879,-0.178,0.983,-0.130,0.840,-2.870,-0.420
1743420297.597609,-0.178,0.979,-0.130,0.770,-2.450,-0.700
1743420297.599322,-0.178,0.981,-0.130,0.840,-1.960,-1.190
1743420297.627719,-0.174,0.985,-0.131,0.770,-2.100,-1.120
1743420297.658196,-0.177,0.984,-0.130,0.980,-2.520,-0.490
1743420297.688562,-0.178,0.982,-0.128,0.910,-3.080,-0.140
1743420297.718876,-0.178,0.979,-0.131,0.840,-2.800,-0.700
1743420297.733464,-0.178,0.981,-0.130,0.840,-2.170,-1.190
1743420297.763468,-0.177,0.982,-0.129,0.840,-2.030,-1.400
1743420297.809016,-0.175,0.985,-0.129,0.770,-2.450,-0.980
1743420297.8238451,-0.177,0.984,-0.128,0.910,-2.940,-0.280
1743420297.898491,-0.177,0.980,-0.131,0.840,-3.080,-0.210
1743420297.8992991,-0.178,0.977,-0.130,0.770,-2.520,-0.840
1743420297.913523,-0.177,0.982,-0.130,0.840,-1.960,-1.540
1743420297.943302,-0.176,0.986,-0.129,0.840,-2.100,-1.260
1743420297.9744792,-0.178,0.984,-0.126,0.770,-2.590,-0.490
1743420298.0036638,-0.177,0.981,-0.128,0.910,-3.080,-0.210
1743420298.0338938,-0.177,0.980,-0.130,0.980,-2.800,-0.560
1743420298.0628538,-0.175,0.980,-0.130,0.840,-2.310,-1.260
1743420298.093686,-0.176,0.980,-0.131,0.700,-2.100,-1.260
1743420298.108941,-0.178,0.983,-0.128,0.910,-2.590,-0.700
1743420298.1385138,-0.177,0.982,-0.128,0.840,-2.870,-0.350
1743420298.198922,-0.178,0.980,-0.130,0.910,-2.940,-0.490
1743420298.199606,-0.176,0.981,-0.131,0.910,-2.450,-0.980
1743420298.2293398,-0.179,0.984,-0.129,0.910,-2.100,-1.190
1743420298.258713,-0.174,0.983,-0.129,0.840,-2.450,-0.910
1743420298.288919,-0.179,0.982,-0.131,0.840,-2.730,-0.490
1743420298.3190541,-0.178,0.983,-0.130,0.910,-2.800,-0.420
1743420298.3485389,-0.177,0.980,-0.132,0.770,-2.520,-0.910
1743420298.378719,-0.177,0.981,-0.130,0.770,-2.030,-1.330
1743420298.3939252,-0.176,0.985,-0.129,0.770,-2.170,-1.050
1743420298.423915,-0.177,0.985,-0.127,0.770,-2.730,-0.560
1743420298.498382,-0.179,0.983,-0.130,0.840,-2.940,-0.350
1743420298.4990988,-0.178,0.980,-0.130,0.910,-2.660,-0.490
1743420298.5138938,-0.178,0.980,-0.129,0.770,-2.240,-1.400
1743420298.543763,-0.177,0.981,-0.129,0.700,-2.100,-1.330
1743420298.5741289,-0.177,0.985,-0.128,0.910,-2.380,-0.840
1743420298.615544,-0.179,0.985,-0.129,0.910,-2.870,-0.350
1743420298.6352909,-0.178,0.980,-0.128,0.980,-2.800,-0.420
1743420298.6633348,-0.179,0.979,-0.129,0.840,-2.380,-0.840
1743420298.693231,-0.178,0.979,-0.129,0.840,-2.170,-1.190
1743420298.724266,-0.180,0.981,-0.129,0.700,-2.240,-1.190
1743420298.79827,-0.179,0.982,-0.129,0.980,-2.730,-0.630
1743420298.7987,-0.177,0.983,-0.129,0.770,-2.870,-0.280
1743420298.798999,-0.177,0.980,-0.130,0.910,-2.590,-0.770
1743420298.829091,-0.178,0.980,-0.129,0.910,-2.380,-1.120
1743420298.857847,-0.177,0.985,-0.131,0.770,-2.240,-0.980
1743420298.918537,-0.178,0.982,-0.129,0.980,-2.590,-0.700
1743420298.9192472,-0.176,0.981,-0.127,0.840,-2.800,-0.560
1743420298.948561,-0.176,0.983,-0.130,0.980,-2.730,-0.630
1743420298.979129,-0.178,0.981,-0.131,0.910,-2.310,-0.980
1743420299.009223,-0.177,0.982,-0.129,0.770,-2.240,-1.190
1743420299.038034,-0.176,0.983,-0.131,0.910,-2.380,-0.840
1743420299.053733,-0.177,0.982,-0.127,0.840,-2.800,-0.420
1743420299.099245,-0.176,0.983,-0.130,0.840,-2.800,-0.490
1743420299.11424,-0.179,0.980,-0.130,0.840,-2.450,-0.770
1743420299.1441312,-0.179,0.982,-0.131,0.910,-2.170,-1.120
1743420299.218473,-0.176,0.984,-0.127,0.770,-2.100,-1.190
1743420299.2193222,-0.175,0.983,-0.129,0.770,-2.660,-0.630
1743420299.2334368,-0.175,0.983,-0.133,0.980,-2.940,-0.210
1743420299.26355,-0.179,0.982,-0.130,0.910,-2.660,-0.700
1743420299.2938318,-0.178,0.982,-0.128,0.770,-2.240,-1.330
1743420299.323804,-0.177,0.984,-0.128,0.910,-2.170,-1.190
1743420299.3535712,-0.175,0.982,-0.130,0.840,-2.520,-0.840
1743420299.384334,-0.177,0.982,-0.130,0.910,-2.940,-0.420
1743420299.414995,-0.178,0.981,-0.129,0.910,-2.730,-0.420
1743420299.44392,-0.179,0.979,-0.129,0.980,-2.310,-0.910
1743420299.5189729,-0.178,0.980,-0.131,0.910,-2.170,-1.050
1743420299.5196679,-0.176,0.981,-0.131,0.910,-2.380,-0.840
1743420299.533859,-0.177,0.982,-0.131,0.840,-2.660,-0.560
1743420299.5634959,-0.177,0.982,-0.131,0.910,-2.800,-0.700
1743420299.594798,-0.179,0.981,-0.129,0.910,-2.380,-0.840
1743420299.6239061,-0.179,0.984,-0.129,0.770,-2.310,-1.050
1743420299.653452,-0.180,0.984,-0.131,0.840,-2.450,-1.050
1743420299.6837819,-0.177,0.984,-0.131,0.840,-2.730,-0.490
1743420299.713637,-0.178,0.982,-0.131,0.840,-2.730,-0.490
1743420299.7283561,-0.177,0.981,-0.130,0.910,-2.520,-0.910
1743420299.75912,-0.179,0.980,-0.131,0.840,-2.310,-1.120
1743420299.818551,-0.177,0.983,-0.130,0.840,-2.240,-0.980
1743420299.819442,-0.176,0.983,-0.125,0.840,-2.660,-0.630
1743420299.848793,-0.175,0.982,-0.129,0.840,-2.870,-0.420
1743420299.878237,-0.178,0.982,-0.132,0.770,-2.730,-0.630
1743420299.908303,-0.176,0.981,-0.130,0.840,-2.380,-1.050
1743420299.93955,-0.177,0.984,-0.129,0.770,-2.170,-1.050
1743420299.969862,-0.178,0.984,-0.128,0.700,-2.380,-0.910
1743420299.998793,-0.178,0.981,-0.130,0.840,-2.730,-0.560
1743420300.028629,-0.179,0.983,-0.132,0.840,-2.730,-0.560
1743420300.059763,-0.177,0.981,-0.131,0.910,-2.520,-0.910
1743420300.118954,-0.178,0.982,-0.131,0.840,-2.240,-0.980
1743420300.119641,-0.177,0.981,-0.127,0.700,-2.310,-1.190
1743420300.133077,-0.176,0.983,-0.127,0.910,-2.660,-0.630
1743420300.163372,-0.182,0.979,-0.129,0.910,-2.660,-0.560
1743420300.194471,-0.176,0.982,-0.130,0.980,-2.590,-0.630
1743420300.2246442,-0.177,0.982,-0.131,0.910,-2.310,-1.050
1743420300.253711,-0.175,0.983,-0.129,0.910,-2.380,-0.980
1743420300.283304,-0.177,0.981,-0.129,0.770,-2.590,-0.840
1743420300.3137121,-0.181,0.981,-0.131,0.910,-2.660,-0.630
1743420300.343992,-0.179,0.980,-0.130,0.910,-2.660,-0.630
1743420300.418368,-0.177,0.980,-0.130,0.840,-2.380,-0.910
1743420300.4191701,-0.176,0.984,-0.129,0.910,-2.310,-0.980
1743420300.434612,-0.178,0.981,-0.129,0.910,-2.380,-0.840
1743420300.464431,-0.178,0.984,-0.131,0.910,-2.800,-0.490
1743420300.4783292,-0.180,0.979,-0.132,0.840,-2.730,-0.700
1743420300.508773,-0.177,0.981,-0.130,0.840,-2.450,-0.840
1743420300.53872,-0.176,0.979,-0.129,0.980,-2.240,-1.190
1743420300.568388,-0.178,0.982,-0.128,0.910,-2.380,-1.050
1743420300.5983932,-0.180,0.982,-0.130,0.910,-2.520,-0.560
1743420300.629227,-0.177,0.983,-0.131,0.840,-2.800,-0.560
1743420300.659085,-0.177,0.980,-0.130,0.840,-2.590,-0.700
1743420300.7176902,-0.180,0.981,-0.130,0.840,-2.380,-0.980
1743420300.7180622,-0.177,0.982,-0.129,0.910,-2.170,-0.910
1743420300.746903,-0.177,0.983,-0.129,0.770,-2.520,-0.770
1743420300.778537,-0.179,0.982,-0.129,0.910,-2.660,-0.560
1743420300.808637,-0.176,0.981,-0.127,0.910,-2.660,-0.560
1743420300.839017,-0.178,0.980,-0.131,0.840,-2.520,-0.840
1743420300.853869,-0.180,0.982,-0.130,0.840,-2.380,-1.050
1743420300.884664,-0.177,0.982,-0.131,0.910,-2.450,-0.840
1743420300.913642,-0.175,0.984,-0.128,0.770,-2.660,-0.630
1743420300.943755,-0.174,0.982,-0.129,0.910,-2.660,-0.560
1743420301.0190341,-0.178,0.978,-0.131,0.840,-2.520,-0.910
1743420301.0197499,-0.176,0.980,-0.131,0.840,-2.310,-1.050
1743420301.033421,-0.177,0.982,-0.129,0.910,-2.380,-0.910
1743420301.064235,-0.176,0.984,-0.131,0.840,-2.660,-0.770
1743420301.0949068,-0.178,0.982,-0.128,0.910,-2.660,-0.560
1743420301.123692,-0.179,0.982,-0.131,0.840,-2.590,-0.770
1743420301.1551418,-0.179,0.984,-0.132,0.770,-2.380,-0.980
1743420301.183687,-0.176,0.983,-0.130,0.840,-2.310,-0.910
1743420301.213481,-0.176,0.984,-0.131,0.910,-2.660,-0.840
1743420301.2431629,-0.178,0.983,-0.130,0.840,-2.660,-0.630
1743420301.259902,-0.178,0.980,-0.133,0.770,-2.590,-0.700
1743420301.319784,-0.179,0.981,-0.129,0.980,-2.450,-0.910
1743420301.3208551,-0.177,0.983,-0.128,0.910,-2.310,-1.050
1743420301.348871,-0.178,0.982,-0.131,0.840,-2.450,-0.700
1743420301.3785448,-0.177,0.982,-0.130,0.840,-2.730,-0.700
1743420301.409264,-0.177,0.982,-0.133,0.770,-2.730,-0.630
1743420301.440042,-0.178,0.981,-0.128,0.910,-2.520,-0.770
1743420301.4692879,-0.178,0.981,-0.130,0.910,-2.380,-0.910
1743420301.498573,-0.179,0.983,-0.131,0.840,-2.380,-0.980
1743420301.528945,-0.180,0.981,-0.131,0.840,-2.590,-0.630
1743420301.559699,-0.178,0.983,-0.132,0.840,-2.660,-0.490
1743420301.618099,-0.178,0.979,-0.132,0.840,-2.520,-0.770
1743420301.618952,-0.175,0.981,-0.132,0.980,-2.310,-0.840
1743420301.6629891,-0.176,0.982,-0.131,0.700,-2.380,-0.840
1743420301.680037,-0.179,0.981,-0.131,0.840,-2.590,-0.910
1743420301.7089942,-0.176,0.981,-0.128,0.770,-2.660,-0.770
1743420301.723231,-0.179,0.981,-0.128,0.910,-2.520,-0.630
1743420301.753451,-0.177,0.982,-0.129,0.910,-2.450,-0.980
1743420301.7836301,-0.178,0.982,-0.128,0.840,-2.380,-1.050
1743420301.813567,-0.179,0.983,-0.131,0.840,-2.450,-0.840
1743420301.903698,-0.178,0.982,-0.129,0.840,-2.660,-0.490
1743420301.906631,-0.178,0.981,-0.132,0.910,-2.590,-0.700
1743420301.907541,-0.175,0.981,-0.131,0.980,-2.520,-0.770
1743420301.9332118,-0.178,0.982,-0.130,0.840,-2.310,-0.910
1743420301.964111,-0.178,0.983,-0.130,0.840,-2.450,-0.910
1743420301.993665,-0.178,0.983,-0.131,0.840,-2.590,-0.630
1743420302.024395,-0.179,0.982,-0.132,0.980,-2.730,-0.490
1743420302.053813,-0.177,0.982,-0.130,0.840,-2.590,-0.630
1743420302.083466,-0.178,0.982,-0.128,0.840,-2.380,-0.980
1743420302.11336,-0.177,0.981,-0.132,0.840,-2.380,-0.980
1743420302.1442602,-0.176,0.982,-0.130,0.910,-2.520,-0.700
1743420302.203813,-0.177,0.981,-0.128,0.840,-2.660,-0.700
1743420302.204421,-0.177,0.981,-0.132,0.840,-2.660,-0.700
1743420302.233981,-0.178,0.981,-0.131,0.840,-2.450,-0.980
1743420302.263753,-0.179,0.982,-0.130,0.910,-2.380,-0.980
1743420302.278375,-0.178,0.982,-0.128,1.050,-2.450,-0.700
1743420302.3087308,-0.175,0.981,-0.130,0.840,-2.660,-0.700
1743420302.338688,-0.179,0.983,-0.131,0.770,-2.660,-0.630
1743420302.368503,-0.178,0.981,-0.131,0.910,-2.590,-0.980
1743420302.398724,-0.175,0.981,-0.132,0.770,-2.450,-0.980
1743420302.4284701,-0.179,0.982,-0.129,0.770,-2.450,-0.980
1743420302.4593222,-0.178,0.983,-0.129,0.910,-2.660,-0.700
1743420302.50394,-0.178,0.981,-0.130,0.910,-2.520,-0.700
1743420302.518719,-0.179,0.980,-0.130,0.910,-2.520,-0.700
1743420302.548755,-0.178,0.982,-0.128,0.840,-2.450,-0.910
1743420302.578608,-0.175,0.984,-0.130,0.840,-2.450,-0.910
1743420302.593398,-0.179,0.981,-0.129,0.770,-2.590,-0.770
1743420302.624453,-0.178,0.981,-0.129,0.840,-2.590,-0.630
1743420302.6535318,-0.177,0.981,-0.129,0.910,-2.590,-0.700
1743420302.6849148,-0.179,0.982,-0.128,0.770,-2.380,-0.910
1743420302.713774,-0.178,0.982,-0.129,0.700,-2.310,-1.050
1743420302.743485,-0.179,0.981,-0.131,0.910,-2.520,-0.840
1743420302.8041651,-0.178,0.981,-0.130,0.910,-2.660,-0.630
1743420302.8052301,-0.178,0.981,-0.129,0.840,-2.590,-0.700
1743420302.834949,-0.178,0.982,-0.129,0.910,-2.380,-0.840
1743420302.864334,-0.179,0.982,-0.129,0.910,-2.450,-0.980
1743420302.893555,-0.177,0.982,-0.129,0.840,-2.450,-0.910
1743420302.9389172,-0.179,0.982,-0.130,0.910,-2.590,-0.560
1743420302.9537432,-0.179,0.983,-0.129,0.910,-2.590,-0.630
1743420302.9841259,-0.177,0.982,-0.128,0.910,-2.520,-0.770
1743420302.998843,-0.178,0.981,-0.131,0.840,-2.380,-0.840
1743420303.029164,-0.176,0.981,-0.129,0.840,-2.380,-0.910
1743420303.059712,-0.177,0.983,-0.127,0.770,-2.450,-0.770
1743420303.1029608,-0.175,0.979,-0.131,0.910,-2.590,-0.700
1743420303.1192791,-0.177,0.980,-0.129,0.840,-2.590,-0.630
1743420303.149319,-0.178,0.981,-0.131,0.770,-2.520,-0.840
1743420303.178841,-0.180,0.984,-0.130,0.840,-2.380,-0.910
1743420303.208877,-0.178,0.983,-0.130,0.910,-2.520,-0.770
1743420303.238848,-0.176,0.982,-0.130,0.910,-2.730,-0.630
1743420303.253668,-0.179,0.981,-0.130,0.840,-2.660,-0.630
1743420303.284205,-0.176,0.979,-0.129,0.910,-2.590,-0.700
1743420303.3134131,-0.177,0.980,-0.131,0.910,-2.310,-0.840
1743420303.3451278,-0.178,0.982,-0.130,0.840,-2.520,-0.840
1743420303.4040651,-0.178,0.984,-0.129,0.770,-2.590,-0.700
1743420303.405131,-0.175,0.980,-0.129,0.910,-2.660,-0.630
1743420303.434249,-0.181,0.982,-0.130,0.910,-2.660,-0.840
1743420303.463888,-0.179,0.981,-0.130,0.840,-2.450,-0.840
1743420303.4939158,-0.179,0.982,-0.128,0.910,-2.380,-0.910
1743420303.5241432,-0.178,0.983,-0.127,0.840,-2.450,-0.770
1743420303.5538838,-0.176,0.984,-0.129,0.840,-2.590,-0.770
1743420303.584138,-0.177,0.983,-0.132,0.910,-2.590,-0.700
1743420303.614244,-0.176,0.978,-0.128,0.770,-2.520,-0.840
1743420303.6441479,-0.178,0.983,-0.130,0.910,-2.450,-0.910
1743420303.704274,-0.176,0.983,-0.129,0.770,-2.450,-0.770
1743420303.704874,-0.179,0.983,-0.129,0.840,-2.590,-0.700
1743420303.734729,-0.177,0.979,-0.133,0.910,-2.590,-0.700
1743420303.764098,-0.179,0.980,-0.130,0.770,-2.520,-0.770
1743420303.7786949,-0.178,0.982,-0.131,0.840,-2.380,-0.910
1743420303.808657,-0.179,0.982,-0.131,0.840,-2.520,-0.840
1743420303.8385558,-0.178,0.983,-0.130,0.840,-2.450,-0.700
1743420303.869461,-0.180,0.982,-0.128,0.840,-2.590,-0.700
1743420303.900039,-0.179,0.980,-0.128,0.980,-2.520,-0.770
1743420303.928715,-0.177,0.981,-0.129,0.840,-2.450,-0.770
1743420303.959724,-0.175,0.980,-0.129,0.840,-2.450,-0.910
1743420304.0043929,-0.179,0.983,-0.127,0.840,-2.520,-0.770
1743420304.018698,-0.179,0.982,-0.130,0.910,-2.520,-0.630
1743420304.049654,-0.177,0.981,-0.129,0.910,-2.590,-0.840
1743420304.0785532,-0.178,0.982,-0.129,0.840,-2.450,-0.840
1743420304.110083,-0.178,0.983,-0.132,0.770,-2.450,-0.910
1743420304.13887,-0.178,0.980,-0.131,0.840,-2.450,-0.770
1743420304.168691,-0.178,0.982,-0.130,0.980,-2.660,-0.700
1743420304.1845188,-0.178,0.984,-0.131,0.910,-2.590,-0.630
1743420304.213797,-0.177,0.982,-0.129,0.770,-2.450,-0.770
1743420304.244156,-0.179,0.981,-0.130,0.910,-2.450,-0.770
1743420304.303981,-0.178,0.982,-0.129,0.840,-2.520,-0.840
1743420304.30449,-0.177,0.983,-0.131,0.770,-2.520,-0.700
1743420304.333507,-0.178,0.980,-0.132,0.910,-2.590,-0.770
1743420304.363531,-0.179,0.979,-0.128,0.770,-2.520,-0.770
1743420304.3925939,-0.176,0.983,-0.129,0.910,-2.590,-0.770
1743420304.4237819,-0.177,0.981,-0.129,0.910,-2.450,-0.840
1743420304.453894,-0.179,0.982,-0.131,0.770,-2.590,-0.770
1743420304.484491,-0.178,0.982,-0.129,0.910,-2.590,-0.630
1743420304.514341,-0.178,0.982,-0.130,0.840,-2.450,-0.770
1743420304.52859,-0.179,0.982,-0.128,0.840,-2.450,-0.770
1743420304.559176,-0.178,0.982,-0.131,0.980,-2.450,-0.840
1743420304.60434,-0.176,0.981,-0.132,0.840,-2.520,-0.770
1743420304.618855,-0.177,0.983,-0.129,0.980,-2.590,-0.700
1743420304.648704,-0.179,0.980,-0.132,0.840,-2.730,-0.630
1743420304.679368,-0.178,0.979,-0.129,0.770,-2.380,-0.840
1743420304.712521,-0.175,0.981,-0.128,0.910,-2.310,-0.910
1743420304.740781,-0.177,0.986,-0.131,0.770,-2.380,-0.840
1743420304.76827,-0.176,0.985,-0.130,0.840,-2.590,-0.770
1743420304.7985878,-0.178,0.983,-0.130,0.840,-2.590,-0.700
1743420304.8273768,-0.178,0.982,-0.131,0.910,-2.450,-0.700
1743420304.8441799,-0.178,0.982,-0.130,0.840,-2.520,-0.910
1743420304.9049869,-0.176,0.983,-0.130,0.840,-2.380,-0.910
1743420304.905658,-0.178,0.983,-0.127,0.980,-2.590,-0.770
1743420304.934052,-0.179,0.980,-0.130,0.770,-2.590,-0.770
1743420304.964581,-0.177,0.982,-0.129,0.840,-2.660,-0.700
1743420304.9940228,-0.177,0.982,-0.130,0.770,-2.450,-0.770
1743420305.024317,-0.178,0.983,-0.131,0.770,-2.450,-0.910
1743420305.054695,-0.180,0.981,-0.129,0.980,-2.590,-0.840
1743420305.082902,-0.178,0.983,-0.132,0.770,-2.520,-0.770
1743420305.114611,-0.179,0.982,-0.133,0.910,-2.590,-0.840
1743420305.143989,-0.178,0.982,-0.130,0.770,-2.590,-0.700
1743420305.204261,-0.178,0.981,-0.131,0.770,-2.380,-0.910
1743420305.2049851,-0.177,0.981,-0.129,0.910,-2.590,-0.770
1743420305.278997,-0.177,0.983,-0.131,0.840,-2.660,-0.770
1743420305.279725,-0.177,0.983,-0.131,0.840,-2.590,-0.770
1743420305.2801092,-0.178,0.982,-0.132,0.840,-2.520,-0.910
1743420305.309458,-0.179,0.983,-0.130,0.840,-2.520,-0.770
1743420305.3388128,-0.176,0.983,-0.129,0.980,-2.450,-0.840
1743420305.367784,-0.177,0.981,-0.132,0.840,-2.590,-0.840
1743420305.3985631,-0.176,0.982,-0.133,0.770,-2.590,-0.630
1743420305.4285681,-0.179,0.980,-0.131,0.840,-2.590,-0.840
1743420305.458495,-0.178,0.979,-0.130,0.910,-2.380,-0.770
1743420305.488965,-0.178,0.982,-0.130,0.840,-2.380,-0.840
1743420305.519181,-0.177,0.982,-0.131,0.770,-2.520,-0.770
1743420305.578243,-0.178,0.982,-0.131,0.910,-2.590,-0.630
1743420305.5786,-0.178,0.980,-0.131,0.980,-2.590,-0.700
1743420305.606977,-0.177,0.982,-0.132,0.980,-2.520,-0.770
1743420305.621684,-0.180,0.982,-0.130,0.980,-2.520,-0.840
1743420305.651687,-0.176,0.983,-0.130,0.840,-2.450,-0.840
1743420305.6818519,-0.177,0.982,-0.129,0.700,-2.520,-0.770
1743420305.711854,-0.181,0.979,-0.129,0.770,-2.520,-0.770
1743420305.742035,-0.177,0.982,-0.130,0.840,-2.590,-0.770
1743420305.772039,-0.180,0.981,-0.131,0.770,-2.520,-0.840
1743420305.802289,-0.176,0.982,-0.132,0.840,-2.450,-0.770
1743420305.877066,-0.178,0.982,-0.132,0.910,-2.520,-0.770
1743420305.87819,-0.178,0.983,-0.131,0.840,-2.590,-0.770
1743420305.8926861,-0.178,0.981,-0.131,0.840,-2.520,-0.840
1743420305.92232,-0.177,0.980,-0.130,0.700,-2.450,-0.840
1743420305.9524329,-0.177,0.983,-0.130,0.840,-2.520,-0.910
1743420305.982176,-0.176,0.982,-0.130,0.840,-2.450,-0.840
1743420306.0123022,-0.175,0.983,-0.129,0.840,-2.520,-0.630
1743420306.043384,-0.177,0.981,-0.128,0.770,-2.450,-0.770
1743420306.058843,-0.178,0.980,-0.129,0.770,-2.520,-0.980
1743420306.0886002,-0.175,0.983,-0.130,0.770,-2.380,-0.910
1743420306.119663,-0.180,0.981,-0.131,0.770,-2.450,-0.770
1743420306.1793401,-0.177,0.982,-0.130,0.840,-2.590,-0.910
1743420306.1801448,-0.179,0.980,-0.131,0.770,-2.590,-0.630
1743420306.2080178,-0.179,0.981,-0.128,0.840,-2.590,-0.770
1743420306.239136,-0.178,0.982,-0.132,0.770,-2.520,-0.910
1743420306.268634,-0.179,0.981,-0.130,0.840,-2.520,-0.910
1743420306.28416,-0.179,0.981,-0.130,0.840,-2.520,-0.840
1743420306.314205,-0.178,0.982,-0.127,0.840,-2.660,-0.840
1743420306.344128,-0.178,0.981,-0.130,0.840,-2.520,-0.630
1743420306.3747442,-0.180,0.982,-0.128,0.840,-2.590,-0.840
1743420306.403937,-0.179,0.980,-0.130,0.910,-2.450,-0.840
1743420306.479042,-0.176,0.981,-0.129,0.910,-2.520,-0.770
1743420306.479736,-0.177,0.981,-0.130,0.910,-2.520,-0.770
1743420306.4943528,-0.182,0.984,-0.132,0.840,-2.590,-0.840
1743420306.524561,-0.177,0.984,-0.130,0.770,-2.590,-0.840
1743420306.554263,-0.179,0.982,-0.130,0.840,-2.450,-0.980
1743420306.5835881,-0.176,0.982,-0.130,0.910,-2.450,-0.840
1743420306.613077,-0.176,0.984,-0.129,0.910,-2.380,-0.840
1743420306.6435368,-0.178,0.981,-0.128,0.910,-2.520,-0.770
1743420306.658337,-0.178,0.979,-0.131,0.910,-2.590,-0.700
1743420306.68867,-0.178,0.981,-0.130,0.910,-2.450,-0.700
1743420306.718766,-0.177,0.981,-0.130,0.910,-2.520,-0.980
1743420306.795071,-0.179,0.980,-0.129,0.840,-2.520,-0.770
1743420306.7959812,-0.178,0.981,-0.130,0.910,-2.590,-0.700
1743420306.808851,-0.178,0.982,-0.130,0.840,-2.450,-0.700
1743420306.8393831,-0.177,0.981,-0.129,0.700,-2.380,-0.910
1743420306.868775,-0.177,0.984,-0.127,0.910,-2.520,-0.840
1743420306.883531,-0.179,0.984,-0.126,0.770,-2.450,-0.840
1743420306.91363,-0.176,0.983,-0.132,0.840,-2.590,-0.770
1743420306.9438112,-0.177,0.980,-0.132,0.840,-2.520,-0.770
1743420306.975038,-0.177,0.982,-0.129,0.910,-2.660,-0.770
1743420307.004587,-0.179,0.981,-0.132,0.910,-2.450,-0.840
1743420307.079029,-0.179,0.983,-0.131,0.840,-2.520,-0.840
1743420307.079468,-0.179,0.984,-0.129,0.980,-2.450,-0.770
1743420307.095391,-0.178,0.981,-0.128,0.770,-2.520,-0.770
1743420307.123826,-0.175,0.979,-0.128,0.840,-2.520,-0.700
1743420307.1538088,-0.175,0.982,-0.129,0.840,-2.520,-0.770
1743420307.1841578,-0.178,0.981,-0.131,0.770,-2.450,-0.980
1743420307.213815,-0.179,0.982,-0.130,0.840,-2.450,-0.840
1743420307.243843,-0.178,0.982,-0.131,0.980,-2.590,-0.770
1743420307.273851,-0.177,0.981,-0.129,0.840,-2.520,-0.770
1743420307.304,-0.178,0.981,-0.128,0.980,-2.450,-0.770
1743420307.37869,-0.178,0.984,-0.128,0.840,-2.520,-0.840
1743420307.3795788,-0.177,0.980,-0.130,0.840,-2.520,-0.700
1743420307.380209,-0.177,0.979,-0.128,0.770,-2.520,-0.840
1743420307.409455,-0.178,0.982,-0.130,0.840,-2.520,-0.700
1743420307.440303,-0.177,0.983,-0.131,0.980,-2.590,-0.770
1743420307.46874,-0.177,0.982,-0.130,0.840,-2.520,-0.770
1743420307.498823,-0.180,0.981,-0.129,0.770,-2.380,-0.840
1743420307.528766,-0.178,0.983,-0.131,0.840,-2.520,-0.910
1743420307.558439,-0.177,0.982,-0.129,0.840,-2.520,-0.840
1743420307.58915,-0.179,0.982,-0.128,0.840,-2.450,-0.770
1743420307.620136,-0.178,0.981,-0.129,0.840,-2.520,-0.840
1743420307.6881542,-0.178,0.981,-0.130,0.770,-2.590,-0.840
1743420307.688287,-0.178,0.982,-0.128,0.910,-2.520,-0.840
1743420307.708354,-0.177,0.980,-0.130,0.910,-2.590,-0.700
1743420307.738355,-0.177,0.982,-0.129,0.910,-2.520,-0.770
1743420307.7683752,-0.175,0.980,-0.128,0.910,-2.450,-0.840
1743420307.7984908,-0.178,0.982,-0.132,0.840,-2.450,-0.770
1743420307.8285701,-0.180,0.982,-0.129,0.840,-2.380,-0.700
1743420307.859042,-0.176,0.984,-0.131,0.910,-2.590,-0.840
1743420307.888866,-0.181,0.981,-0.130,0.910,-2.590,-0.840
1743420307.904263,-0.175,0.980,-0.128,0.770,-2.450,-0.840
1743420307.978106,-0.178,0.979,-0.132,0.980,-2.380,-0.910
1743420307.978781,-0.178,0.982,-0.129,0.840,-2.450,-0.770
1743420307.9934452,-0.177,0.984,-0.129,0.840,-2.520,-0.770
1743420308.024529,-0.177,0.982,-0.128,0.910,-2.450,-0.770
1743420308.053893,-0.182,0.984,-0.130,0.910,-2.520,-0.700
1743420308.083222,-0.178,0.981,-0.128,0.770,-2.520,-0.770
1743420308.114816,-0.178,0.982,-0.130,0.910,-2.520,-0.840
1743420308.144495,-0.180,0.981,-0.130,0.910,-2.520,-0.770
1743420308.174037,-0.180,0.981,-0.130,0.840,-2.520,-0.770
1743420308.20414,-0.180,0.982,-0.130,0.840,-2.590,-0.770
1743420308.279051,-0.178,0.979,-0.129,0.840,-2.520,-0.770
1743420308.2798028,-0.177,0.983,-0.128,0.910,-2.450,-0.840
1743420308.280121,-0.178,0.984,-0.128,0.910,-2.520,-0.840
1743420308.309729,-0.179,0.981,-0.127,0.770,-2.520,-0.910
1743420308.338927,-0.180,0.982,-0.131,0.910,-2.520,-0.770
1743420308.368622,-0.180,0.981,-0.129,0.840,-2.590,-0.840
1743420308.39874,-0.176,0.981,-0.131,0.910,-2.520,-0.770
1743420308.4290931,-0.178,0.982,-0.130,0.910,-2.520,-0.770
1743420308.4598489,-0.177,0.985,-0.130,0.770,-2.520,-0.700
1743420308.488946,-0.178,0.983,-0.130,0.910,-2.590,-0.700
1743420308.518888,-0.177,0.982,-0.129,0.910,-2.450,-0.770
1743420308.57886,-0.177,0.982,-0.129,0.770,-2.450,-0.770
1743420308.579554,-0.177,0.978,-0.129,0.840,-2.450,-0.910
1743420308.608115,-0.179,0.981,-0.131,0.910,-2.520,-0.770
1743420308.6414049,-0.178,0.980,-0.130,0.910,-2.590,-0.700
1743420308.669816,-0.178,0.983,-0.130,0.980,-2.520,-0.770
1743420308.699163,-0.176,0.983,-0.131,0.840,-2.450,-0.840
1743420308.727906,-0.179,0.983,-0.129,0.980,-2.450,-0.910
1743420308.759576,-0.179,0.980,-0.130,0.840,-2.520,-0.840
1743420308.7892969,-0.177,0.982,-0.130,0.840,-2.520,-0.700
1743420308.803715,-0.179,0.980,-0.130,0.910,-2.520,-0.770
1743420308.909485,-0.176,0.983,-0.130,0.840,-2.590,-0.700
1743420308.9103968,-0.179,0.984,-0.130,0.910,-2.520,-0.770
1743420308.910959,-0.176,0.982,-0.132,0.700,-2.450,-0.910
1743420308.924375,-0.177,0.983,-0.132,0.840,-2.520,-0.770
1743420308.954443,-0.178,0.980,-0.130,0.910,-2.520,-0.770
1743420308.9836009,-0.175,0.982,-0.128,0.770,-2.450,-0.770
1743420309.0149848,-0.178,0.983,-0.131,0.840,-2.520,-0.770
1743420309.043468,-0.178,0.981,-0.130,0.910,-2.450,-0.770
1743420309.059176,-0.178,0.982,-0.129,0.840,-2.520,-0.770
1743420309.08901,-0.176,0.984,-0.131,0.840,-2.450,-0.770
1743420309.119297,-0.178,0.982,-0.128,0.840,-2.450,-0.770
1743420309.148733,-0.178,0.983,-0.132,0.840,-2.520,-0.700
1743420309.208802,-0.175,0.982,-0.130,0.840,-2.450,-0.980
1743420309.225282,-0.178,0.981,-0.129,0.840,-2.450,-0.840
1743420309.23892,-0.179,0.981,-0.132,0.910,-2.520,-0.630
1743420309.2685802,-0.178,0.983,-0.131,0.980,-2.590,-0.770
1743420309.299616,-0.178,0.981,-0.127,0.840,-2.520,-0.630
1743420309.330312,-0.177,0.982,-0.130,0.910,-2.520,-0.910
1743420309.3591712,-0.178,0.982,-0.131,0.910,-2.520,-0.840
1743420309.390188,-0.178,0.982,-0.129,0.840,-2.520,-0.840
1743420309.4199,-0.177,0.982,-0.129,0.840,-2.520,-0.700
1743420309.449028,-0.178,0.981,-0.130,0.980,-2.590,-0.840
1743420309.508118,-0.178,0.983,-0.130,0.840,-2.520,-0.840
1743420309.508627,-0.179,0.982,-0.129,0.770,-2.520,-0.840
1743420309.5403268,-0.177,0.981,-0.133,0.910,-2.590,-0.770
1743420309.568817,-0.179,0.982,-0.129,0.910,-2.520,-0.770
1743420309.600162,-0.179,0.981,-0.128,0.840,-2.520,-0.770
1743420309.628908,-0.177,0.982,-0.128,0.770,-2.450,-0.700
1743420309.6586812,-0.177,0.981,-0.126,0.840,-2.450,-0.840
1743420309.674421,-0.179,0.983,-0.128,0.840,-2.590,-0.770
1743420309.703959,-0.179,0.981,-0.129,0.980,-2.520,-0.700
1743420309.733995,-0.177,0.979,-0.130,0.840,-2.450,-0.840
1743420309.764255,-0.178,0.983,-0.131,0.980,-2.450,-0.770
1743420309.8083498,-0.177,0.981,-0.130,0.910,-2.450,-0.770
1743420309.8235788,-0.178,0.981,-0.128,0.840,-2.520,-0.770
1743420309.853874,-0.178,0.981,-0.129,0.770,-2.590,-0.840
1743420309.8837602,-0.179,0.982,-0.128,0.910,-2.520,-0.840
1743420309.913735,-0.179,0.982,-0.129,0.770,-2.450,-0.770
1743420309.944224,-0.179,0.982,-0.129,0.840,-2.520,-0.910
1743420309.9748878,-0.178,0.981,-0.130,0.770,-2.450,-0.840
1743420310.004205,-0.178,0.981,-0.128,0.770,-2.520,-0.770
1743420310.03841,-0.177,0.982,-0.130,0.840,-2.520,-0.770
1743420310.064472,-0.180,0.982,-0.132,0.840,-2.520,-0.700
1743420310.1231282,-0.177,0.981,-0.129,0.980,-2.520,-0.840
1743420310.1245298,-0.179,0.982,-0.130,0.980,-2.450,-0.840
1743420310.139074,-0.178,0.981,-0.126,0.910,-2.520,-0.840
1743420310.1690629,-0.177,0.982,-0.131,0.910,-2.450,-0.840
1743420310.2004428,-0.179,0.981,-0.129,0.840,-2.520,-0.770
1743420310.2288551,-0.178,0.979,-0.131,0.840,-2.520,-0.770
1743420310.2600389,-0.178,0.981,-0.129,0.770,-2.450,-0.910
1743420310.28958,-0.177,0.981,-0.130,0.700,-2.450,-0.840
1743420310.319427,-0.178,0.982,-0.129,0.770,-2.450,-0.840
1743420310.3499892,-0.177,0.982,-0.129,0.910,-2.590,-0.700
1743420310.409232,-0.178,0.982,-0.129,0.910,-2.660,-0.840
1743420310.410041,-0.176,0.981,-0.129,0.980,-2.520,-0.770
1743420310.4392478,-0.182,0.985,-0.132,0.980,-2.450,-0.910
1743420310.454845,-0.179,0.980,-0.131,0.770,-2.520,-0.840
1743420310.4834821,-0.179,0.982,-0.131,0.840,-2.450,-0.770
1743420310.514376,-0.176,0.982,-0.131,0.910,-2.590,-0.840
1743420310.544045,-0.178,0.983,-0.128,0.910,-2.520,-0.770
1743420310.574024,-0.177,0.981,-0.130,0.910,-2.450,-0.770
1743420310.619406,-0.178,0.981,-0.129,0.840,-2.450,-0.770
1743420310.634151,-0.177,0.982,-0.130,0.840,-2.520,-0.770
1743420310.682237,-0.178,0.981,-0.129,0.700,-2.590,-0.700
1743420310.708394,-0.178,0.982,-0.129,0.840,-2.450,-0.980
1743420310.723304,-0.177,0.984,-0.131,0.910,-2.380,-0.910
1743420310.7369568,-0.180,0.983,-0.126,0.840,-2.450,-0.770
1743420310.7684128,-0.178,0.979,-0.130,0.770,-2.590,-0.700
1743420310.799146,-0.179,0.984,-0.128,0.840,-2.520,-0.770
1743420310.828458,-0.178,0.981,-0.130,0.840,-2.520,-0.840
1743420310.858368,-0.176,0.982,-0.130,0.840,-2.450,-0.700
1743420310.888656,-0.180,0.982,-0.129,0.840,-2.520,-0.840
1743420310.919322,-0.180,0.982,-0.131,0.910,-2.380,-0.840
1743420310.949048,-0.177,0.982,-0.128,0.840,-2.520,-0.770
1743420311.008785,-0.178,0.982,-0.130,0.910,-2.590,-0.770
1743420311.009003,-0.176,0.983,-0.129,0.770,-2.520,-0.840
1743420311.039671,-0.179,0.980,-0.127,0.910,-2.450,-0.840
1743420311.0690508,-0.176,0.980,-0.130,0.840,-2.520,-0.770
1743420311.0994089,-0.178,0.983,-0.131,0.770,-2.520,-0.770
1743420311.129781,-0.177,0.982,-0.129,0.910,-2.520,-0.700
1743420311.159992,-0.181,0.982,-0.129,0.980,-2.590,-0.700
1743420311.189591,-0.176,0.980,-0.133,0.840,-2.450,-0.910
1743420311.219264,-0.180,0.982,-0.129,0.770,-2.520,-0.700
1743420311.249177,-0.180,0.980,-0.129,0.840,-2.520,-0.630
1743420311.264506,-0.178,0.983,-0.128,0.840,-2.520,-0.770
1743420311.308297,-0.179,0.980,-0.130,0.840,-2.380,-0.980
1743420311.324196,-0.178,0.983,-0.132,0.770,-2.380,-0.770
1743420311.354832,-0.178,0.981,-0.132,0.910,-2.380,-0.770
1743420311.384162,-0.178,0.982,-0.130,0.910,-2.590,-0.770
1743420311.415571,-0.179,0.982,-0.129,0.910,-2.660,-0.840
1743420311.4437902,-0.180,0.983,-0.127,0.840,-2.590,-0.840
1743420311.47423,-0.178,0.980,-0.132,0.980,-2.520,-0.840
1743420311.503619,-0.178,0.982,-0.129,0.910,-2.520,-0.840
1743420311.518753,-0.177,0.983,-0.130,0.910,-2.450,-0.770
1743420311.555809,-0.177,0.982,-0.130,0.840,-2.450,-0.700
1743420311.626743,-0.179,0.984,-0.129,0.910,-2.520,-0.700
1743420311.62724,-0.179,0.981,-0.130,0.840,-2.590,-0.840
1743420311.6389089,-0.179,0.982,-0.129,0.840,-2.590,-0.840
1743420311.66864,-0.179,0.982,-0.131,1.050,-2.380,-0.770
1743420311.698754,-0.176,0.983,-0.128,0.770,-2.450,-0.770
1743420311.727772,-0.175,0.983,-0.128,0.910,-2.450,-0.770
1743420311.7589629,-0.176,0.981,-0.127,0.910,-2.520,-0.910
1743420311.788755,-0.177,0.982,-0.130,0.910,-2.450,-0.770
1743420311.818843,-0.181,0.983,-0.131,0.910,-2.450,-0.700
1743420311.8486779,-0.180,0.983,-0.130,0.840,-2.590,-0.840
1743420311.9095109,-0.179,0.980,-0.132,0.840,-2.520,-0.840
1743420311.9237309,-0.177,0.983,-0.128,0.840,-2.590,-0.770
1743420311.953658,-0.177,0.982,-0.130,0.910,-2.520,-0.840
1743420311.954096,-0.180,0.982,-0.131,0.840,-2.590,-0.840
1743420311.983733,-0.178,0.983,-0.130,0.980,-2.450,-0.700
1743420312.013382,-0.178,0.982,-0.130,0.770,-2.450,-0.630
1743420312.0444329,-0.179,0.982,-0.129,0.980,-2.520,-0.910
1743420312.073863,-0.178,0.980,-0.132,0.910,-2.590,-0.630
1743420312.133621,-0.180,0.981,-0.131,0.840,-2.520,-0.840
1743420312.134321,-0.177,0.983,-0.130,0.840,-2.450,-0.840
1743420312.163739,-0.178,0.980,-0.129,0.910,-2.520,-0.770
1743420312.19405,-0.178,0.982,-0.129,0.910,-2.520,-0.770
1743420312.224746,-0.180,0.981,-0.131,0.840,-2.520,-0.840
1743420312.254085,-0.177,0.980,-0.130,0.840,-2.520,-0.840
1743420312.284105,-0.178,0.982,-0.128,0.840,-2.520,-0.840
1743420312.299722,-0.180,0.980,-0.131,0.840,-2.520,-0.910
1743420312.3291478,-0.176,0.981,-0.131,0.840,-2.450,-0.770
1743420312.359363,-0.179,0.981,-0.131,0.840,-2.520,-0.700
1743420312.3896809,-0.177,0.981,-0.132,0.840,-2.450,-0.840
1743420312.43418,-0.178,0.981,-0.130,0.910,-2.520,-0.700
1743420312.449323,-0.177,0.982,-0.131,0.910,-2.520,-0.630
1743420312.479605,-0.178,0.981,-0.127,0.840,-2.520,-0.630
1743420312.508169,-0.180,0.981,-0.132,0.910,-2.450,-0.700
1743420312.539135,-0.182,0.982,-0.131,0.910,-2.380,-0.770
1743420312.569333,-0.178,0.981,-0.134,0.840,-2.450,-0.840
1743420312.5836549,-0.178,0.982,-0.131,0.840,-2.590,-0.980
1743420312.613882,-0.181,0.982,-0.130,0.980,-2.590,-0.770
1743420312.644016,-0.179,0.981,-0.131,0.840,-2.520,-0.910
1743420312.674429,-0.176,0.981,-0.131,0.840,-2.450,-0.910
1743420312.733237,-0.178,0.981,-0.131,0.840,-2.520,-0.910
1743420312.736629,-0.178,0.979,-0.133,0.770,-2.380,-0.910
1743420312.7633479,-0.176,0.981,-0.132,0.910,-2.450,-0.630
1743420312.795285,-0.176,0.982,-0.133,0.840,-2.520,-0.840
1743420312.823942,-0.179,0.981,-0.131,0.840,-2.520,-0.770
1743420312.854762,-0.177,0.984,-0.134,0.840,-2.450,-0.840
1743420312.883858,-0.178,0.983,-0.131,0.770,-2.450,-0.840
1743420312.898759,-0.178,0.980,-0.131,0.840,-2.450,-0.700
1743420312.9287481,-0.180,0.983,-0.131,0.770,-2.450,-0.840
1743420312.959479,-0.178,0.981,-0.133,1.050,-2.450,-0.560
1743420312.9922051,-0.179,0.982,-0.133,0.980,-2.590,-0.700
1743420313.034383,-0.180,0.981,-0.132,0.980,-2.380,-0.770
1743420313.050045,-0.177,0.982,-0.130,0.840,-2.590,-0.770
1743420313.0788622,-0.181,0.981,-0.132,0.910,-2.450,-0.840
1743420313.110338,-0.178,0.980,-0.130,0.770,-2.520,-0.840
1743420313.140335,-0.176,0.983,-0.133,0.770,-2.590,-0.910
1743420313.167594,-0.179,0.982,-0.129,0.910,-2.450,-0.840
1743420313.1836312,-0.177,0.982,-0.129,0.840,-2.450,-0.770
1743420313.214049,-0.179,0.983,-0.132,0.770,-2.520,-0.840
1743420313.243986,-0.179,0.981,-0.130,0.840,-2.520,-0.770
1743420313.273816,-0.178,0.982,-0.131,0.840,-2.380,-0.840
1743420313.333945,-0.177,0.980,-0.133,0.840,-2.450,-0.840
1743420313.336946,-0.177,0.981,-0.130,0.910,-2.450,-0.910
1743420313.3638022,-0.178,0.980,-0.131,0.910,-2.450,-0.770
1743420313.3943198,-0.178,0.983,-0.129,0.910,-2.590,-0.770
1743420313.424549,-0.180,0.982,-0.129,0.980,-2.590,-0.840
1743420313.4404202,-0.179,0.981,-0.131,0.980,-2.450,-0.630
1743420313.4690921,-0.179,0.981,-0.131,0.840,-2.450,-0.910
1743420313.498797,-0.178,0.980,-0.130,0.840,-2.520,-0.700
1743420313.528778,-0.178,0.983,-0.130,0.840,-2.660,-0.770
1743420313.559535,-0.180,0.982,-0.131,0.840,-2.520,-0.770
1743420313.5935922,-0.177,0.980,-0.128,0.840,-2.590,-0.770
1743420313.634032,-0.178,0.984,-0.128,0.910,-2.590,-0.840
1743420313.649198,-0.177,0.979,-0.131,0.910,-2.590,-0.840
1743420313.6792629,-0.179,0.981,-0.128,0.770,-2.520,-0.840
1743420313.708352,-0.181,0.983,-0.132,0.910,-2.590,-0.840
1743420313.738579,-0.176,0.981,-0.129,0.840,-2.520,-0.770
1743420313.768642,-0.178,0.982,-0.128,0.840,-2.380,-0.840
1743420313.798614,-0.179,0.985,-0.129,0.840,-2.520,-0.840
1743420313.813463,-0.178,0.982,-0.128,0.840,-2.520,-0.910
1743420313.844276,-0.178,0.984,-0.131,0.910,-2.520,-0.700
1743420313.8753111,-0.178,0.982,-0.129,0.910,-2.520,-0.770
1743420313.933312,-0.177,0.983,-0.129,0.840,-2.380,-0.910
1743420313.935841,-0.177,0.980,-0.128,0.910,-2.520,-0.840
1743420313.9640782,-0.182,0.981,-0.129,0.910,-2.520,-0.770
1743420313.994105,-0.178,0.982,-0.128,0.840,-2.520,-0.770
1743420314.0240169,-0.180,0.980,-0.130,0.840,-2.660,-0.700
1743420314.0540302,-0.177,0.981,-0.127,0.910,-2.520,-0.840
1743420314.084457,-0.179,0.983,-0.128,0.840,-2.520,-0.770
1743420314.1145039,-0.177,0.984,-0.129,0.840,-2.590,-0.840
1743420314.1438699,-0.177,0.982,-0.128,0.910,-2.590,-0.770
1743420314.1754172,-0.178,0.981,-0.127,0.770,-2.660,-0.770
1743420314.2330399,-0.179,0.982,-0.128,0.840,-2.520,-0.840
1743420314.2351701,-0.178,0.982,-0.129,0.910,-2.590,-0.700
1743420314.264086,-0.179,0.982,-0.128,0.840,-2.520,-0.770
1743420314.278643,-0.178,0.982,-0.126,0.700,-2.520,-0.910
1743420314.31007,-0.179,0.982,-0.127,0.700,-2.450,-0.910
1743420314.339026,-0.179,0.979,-0.129,0.840,-2.590,-0.700
1743420314.3683252,-0.178,0.981,-0.131,0.910,-2.520,-0.840
1743420314.398941,-0.177,0.980,-0.129,0.980,-2.520,-0.770
1743420314.4590878,-0.177,0.981,-0.127,0.840,-2.450,-0.700
1743420314.459742,-0.178,0.982,-0.129,0.910,-2.450,-0.910
1743420314.489113,-0.177,0.980,-0.129,0.770,-2.520,-0.770
1743420314.5341492,-0.178,0.982,-0.128,0.980,-2.590,-0.700
1743420314.534761,-0.179,0.979,-0.129,0.910,-2.590,-0.700
1743420314.565008,-0.178,0.982,-0.131,0.840,-2.450,-0.770
1743420314.593834,-0.177,0.983,-0.127,0.840,-2.520,-0.770
1743420314.624753,-0.179,0.981,-0.128,0.910,-2.590,-0.840
1743420314.654135,-0.180,0.983,-0.130,0.840,-2.520,-0.770
1743420314.684042,-0.177,0.981,-0.129,0.770,-2.520,-0.840
1743420314.713855,-0.178,0.981,-0.130,0.910,-2.450,-0.700
1743420314.744612,-0.178,0.983,-0.127,0.840,-2.520,-0.770
1743420314.775127,-0.180,0.982,-0.131,0.840,-2.450,-0.700
1743420314.7887208,-0.178,0.982,-0.128,0.840,-2.520,-0.840
1743420314.8341298,-0.178,0.982,-0.129,0.910,-2.590,-0.770
1743420314.849903,-0.179,0.983,-0.128,0.840,-2.520,-0.840
1743420314.878154,-0.179,0.983,-0.131,0.840,-2.520,-0.840
1743420314.909027,-0.178,0.981,-0.131,0.770,-2.520,-0.840
1743420314.939038,-0.177,0.982,-0.128,0.840,-2.520,-0.840
1743420314.96872,-0.181,0.980,-0.128,0.840,-2.450,-0.700
1743420314.999197,-0.181,0.983,-0.129,0.840,-2.450,-0.840
1743420315.029869,-0.178,0.983,-0.128,0.980,-2.380,-0.700
1743420315.059488,-0.177,0.983,-0.129,0.910,-2.520,-0.770
1743420315.073895,-0.179,0.982,-0.129,0.910,-2.520,-0.840
1743420315.1340458,-0.178,0.981,-0.130,0.840,-2.520,-0.770
1743420315.134781,-0.179,0.982,-0.128,0.770,-2.450,-0.840
1743420315.163876,-0.176,0.983,-0.129,0.910,-2.590,-0.840
1743420315.19398,-0.177,0.982,-0.130,0.910,-2.590,-0.910
1743420315.224504,-0.178,0.982,-0.129,0.910,-2.590,-0.700
1743420315.255101,-0.180,0.983,-0.131,0.770,-2.520,-0.840
1743420315.2854269,-0.178,0.982,-0.127,0.840,-2.520,-0.700
1743420315.313642,-0.177,0.983,-0.131,0.980,-2.450,-0.700
1743420315.344291,-0.177,0.982,-0.131,0.910,-2.450,-0.630
1743420315.375067,-0.176,0.983,-0.130,0.840,-2.520,-0.770
1743420315.434409,-0.179,0.983,-0.130,0.840,-2.590,-0.840
1743420315.435064,-0.177,0.983,-0.131,0.910,-2.590,-0.770
1743420315.464152,-0.178,0.981,-0.128,0.840,-2.450,-0.630
1743420315.478664,-0.178,0.981,-0.131,0.840,-2.590,-0.910
1743420315.509535,-0.180,0.980,-0.128,0.840,-2.450,-0.770
1743420315.539087,-0.178,0.983,-0.129,0.840,-2.520,-0.910
1743420315.568697,-0.180,0.981,-0.129,0.910,-2.450,-0.700
1743420315.598808,-0.178,0.981,-0.130,0.840,-2.450,-0.770
1743420315.629798,-0.180,0.981,-0.130,0.840,-2.520,-0.770
1743420315.658761,-0.178,0.983,-0.130,0.910,-2.450,-0.840
1743420315.6891751,-0.179,0.981,-0.128,0.910,-2.590,-0.700
1743420315.762589,-0.176,0.983,-0.128,0.910,-2.590,-0.700
1743420315.7788742,-0.176,0.981,-0.130,0.980,-2.590,-0.700
1743420315.779299,-0.178,0.980,-0.126,0.910,-2.520,-0.700
1743420315.810178,-0.177,0.983,-0.128,0.910,-2.450,-0.840
1743420315.8383229,-0.176,0.982,-0.129,0.840,-2.520,-0.840
1743420315.8691132,-0.178,0.981,-0.128,0.980,-2.590,-0.770
1743420315.8848152,-0.180,0.982,-0.130,0.910,-2.450,-0.840
1743420315.915309,-0.178,0.982,-0.129,0.980,-2.520,-0.840
1743420315.943983,-0.178,0.982,-0.129,0.910,-2.590,-0.770
1743420315.9747021,-0.177,0.985,-0.130,0.910,-2.520,-0.770
1743420316.0382552,-0.178,0.982,-0.131,0.770,-2.450,-0.700
1743420316.039306,-0.177,0.982,-0.129,0.840,-2.520,-0.770
1743420316.0637472,-0.179,0.981,-0.127,0.910,-2.520,-0.840
1743420316.093943,-0.180,0.983,-0.129,0.840,-2.450,-0.840
1743420316.123927,-0.179,0.982,-0.130,0.840,-2.520,-0.770
1743420316.155581,-0.176,0.983,-0.128,0.840,-2.660,-0.700
1743420316.183862,-0.178,0.981,-0.130,0.910,-2.380,-0.770
1743420316.214196,-0.180,0.982,-0.133,0.910,-2.520,-0.840
1743420316.243725,-0.177,0.983,-0.128,0.770,-2.590,-0.910
1743420316.258015,-0.178,0.982,-0.131,0.840,-2.520,-0.770
1743420316.2901802,-0.177,0.982,-0.128,0.980,-2.590,-0.770
1743420316.3355021,-0.179,0.980,-0.131,0.770,-2.590,-0.840
1743420316.349142,-0.180,0.983,-0.131,0.770,-2.450,-0.770
1743420316.378758,-0.178,0.983,-0.128,0.910,-2.590,-0.910
1743420316.409732,-0.178,0.981,-0.130,0.910,-2.590,-0.910
1743420316.438247,-0.178,0.982,-0.130,0.770,-2.520,-0.910
1743420316.475539,-0.180,0.983,-0.128,0.910,-2.520,-0.840
1743420316.507634,-0.177,0.981,-0.128,0.770,-2.520,-0.910
1743420316.5293949,-0.179,0.984,-0.129,0.840,-2.590,-0.770
1743420316.5593338,-0.177,0.981,-0.129,0.910,-2.450,-0.700
1743420316.589786,-0.179,0.981,-0.129,0.980,-2.450,-0.700
1743420316.633439,-0.176,0.982,-0.132,0.980,-2.520,-0.700
1743420316.648629,-0.178,0.983,-0.129,0.840,-2.450,-0.770
1743420316.678708,-0.178,0.981,-0.129,0.910,-2.520,-0.910
1743420316.70968,-0.179,0.980,-0.128,0.910,-2.380,-0.840
1743420316.739007,-0.179,0.983,-0.130,0.910,-2.520,-0.700
1743420316.769801,-0.177,0.984,-0.129,0.840,-2.590,-0.840
1743420316.7992609,-0.177,0.980,-0.129,0.910,-2.450,-0.700
1743420316.828864,-0.176,0.979,-0.129,0.840,-2.520,-0.910
1743420316.8594549,-0.178,0.981,-0.129,0.840,-2.380,-0.770
1743420316.88942,-0.178,0.982,-0.132,0.700,-2.450,-0.700
1743420316.934331,-0.178,0.981,-0.131,0.840,-2.520,-0.910
1743420316.9349928,-0.179,0.982,-0.130,0.980,-2.590,-0.770
1743420316.96464,-0.179,0.982,-0.129,0.840,-2.590,-0.840
1743420317.0092978,-0.178,0.982,-0.129,0.840,-2.520,-0.700
1743420317.024113,-0.178,0.981,-0.130,0.840,-2.520,-0.770
1743420317.054229,-0.181,0.984,-0.134,0.770,-2.380,-0.910
1743420317.084675,-0.177,0.983,-0.129,0.910,-2.520,-0.700
1743420317.1145961,-0.177,0.982,-0.129,0.910,-2.590,-0.840
1743420317.143997,-0.178,0.980,-0.130,0.910,-2.660,-0.840
1743420317.158935,-0.178,0.980,-0.129,0.980,-2.520,-0.910
1743420317.189165,-0.179,0.982,-0.131,0.770,-2.520,-0.770
1743420317.2345972,-0.180,0.981,-0.129,0.910,-2.660,-0.770
1743420317.2488608,-0.178,0.981,-0.129,0.840,-2.450,-0.770
1743420317.278738,-0.180,0.982,-0.130,0.840,-2.520,-0.840
1743420317.30918,-0.179,0.980,-0.129,0.840,-2.520,-0.910
1743420317.339094,-0.178,0.982,-0.133,0.770,-2.380,-0.770
1743420317.36976,-0.180,0.980,-0.129,0.910,-2.520,-0.910
1743420317.398958,-0.179,0.981,-0.129,0.840,-2.450,-0.770
1743420317.428976,-0.179,0.981,-0.129,0.840,-2.450,-0.770
1743420317.459508,-0.180,0.981,-0.130,0.910,-2.520,-0.770
1743420317.489753,-0.180,0.983,-0.131,0.910,-2.520,-0.910
1743420317.53376,-0.179,0.983,-0.130,0.910,-2.520,-0.700
1743420317.5488389,-0.179,0.983,-0.129,0.770,-2.520,-0.770
1743420317.5791621,-0.179,0.981,-0.131,0.840,-2.590,-0.700
1743420317.593769,-0.179,0.982,-0.128,0.770,-2.660,-0.840
1743420317.625367,-0.178,0.983,-0.128,0.910,-2.450,-0.700
1743420317.65501,-0.178,0.981,-0.130,0.910,-2.450,-0.840
1743420317.6839921,-0.180,0.981,-0.128,0.840,-2.520,-0.770
1743420317.714144,-0.178,0.984,-0.128,0.910,-2.520,-0.770
1743420317.743362,-0.177,0.982,-0.129,0.770,-2.590,-0.770
1743420317.774587,-0.179,0.981,-0.130,0.910,-2.520,-0.840
1743420317.834153,-0.180,0.981,-0.126,0.980,-2.590,-0.770
1743420317.8349261,-0.178,0.980,-0.128,0.840,-2.450,-0.770
1743420317.86427,-0.179,0.983,-0.131,0.770,-2.450,-0.770
1743420317.894742,-0.179,0.981,-0.129,0.910,-2.380,-0.770
1743420317.924122,-0.180,0.981,-0.129,0.840,-2.450,-0.770
1743420317.954413,-0.180,0.981,-0.129,0.700,-2.520,-0.910
1743420317.9841971,-0.178,0.982,-0.127,0.770,-2.590,-0.840
1743420317.999031,-0.177,0.981,-0.128,0.840,-2.450,-0.770
1743420318.028723,-0.177,0.982,-0.130,0.840,-2.660,-0.770
1743420318.059757,-0.178,0.982,-0.130,0.840,-2.520,-0.770
1743420318.0904572,-0.178,0.982,-0.128,0.700,-2.520,-0.840
1743420318.135227,-0.179,0.980,-0.131,0.910,-2.520,-0.840
1743420318.149295,-0.178,0.981,-0.132,0.910,-2.520,-0.770
1743420318.179023,-0.177,0.982,-0.130,0.770,-2.520,-0.770
1743420318.2098439,-0.177,0.983,-0.128,0.840,-2.450,-0.770
1743420318.239407,-0.180,0.980,-0.130,0.910,-2.590,-0.840
1743420318.2991612,-0.178,0.980,-0.130,0.840,-2.520,-0.770
1743420318.2997901,-0.178,0.978,-0.131,0.910,-2.520,-0.700
1743420318.329556,-0.178,0.982,-0.129,0.840,-2.450,-0.770
1743420318.360037,-0.175,0.982,-0.129,0.910,-2.450,-0.700
1743420318.374628,-0.178,0.981,-0.128,0.910,-2.590,-0.770
1743420318.434736,-0.180,0.981,-0.127,0.840,-2.450,-0.840
1743420318.435701,-0.181,0.983,-0.129,0.980,-2.450,-0.770
1743420318.4642,-0.175,0.981,-0.129,0.910,-2.450,-0.840
1743420318.494365,-0.179,0.982,-0.129,0.840,-2.520,-0.700
1743420318.524791,-0.179,0.981,-0.127,0.980,-2.520,-0.840
1743420318.554079,-0.180,0.980,-0.127,0.770,-2.590,-0.840
1743420318.583689,-0.180,0.981,-0.130,0.840,-2.450,-0.840
1743420318.599377,-0.177,0.982,-0.130,0.910,-2.590,-0.770
1743420318.629063,-0.179,0.980,-0.130,0.840,-2.520,-0.770
1743420318.659573,-0.179,0.981,-0.131,0.910,-2.590,-0.700
1743420318.6906009,-0.179,0.983,-0.131,0.910,-2.520,-0.840
1743420318.734695,-0.180,0.983,-0.128,0.910,-2.590,-0.700
1743420318.749598,-0.177,0.980,-0.130,0.910,-2.450,-0.840
1743420318.7787242,-0.177,0.981,-0.130,0.770,-2.520,-0.770
1743420318.810428,-0.180,0.983,-0.129,0.910,-2.520,-0.700
1743420318.839442,-0.178,0.981,-0.128,0.840,-2.520,-0.770
1743420318.869067,-0.177,0.981,-0.130,0.840,-2.520,-0.910
1743420318.8990479,-0.181,0.982,-0.129,0.840,-2.520,-0.770
1743420318.9140742,-0.180,0.982,-0.132,0.840,-2.520,-0.840
1743420318.94463,-0.178,0.983,-0.128,0.910,-2.520,-0.840
1743420318.974582,-0.177,0.982,-0.131,0.770,-2.520,-0.840
1743420319.0342772,-0.178,0.982,-0.129,0.840,-2.520,-0.700
1743420319.035024,-0.180,0.982,-0.130,0.700,-2.520,-0.840
1743420319.0643358,-0.177,0.983,-0.128,0.840,-2.590,-0.840
1743420319.0940642,-0.179,0.982,-0.128,0.910,-2.520,-0.840
1743420319.124654,-0.177,0.980,-0.127,0.770,-2.590,-0.840
1743420319.155193,-0.179,0.981,-0.130,0.840,-2.520,-0.910
1743420319.1841521,-0.177,0.983,-0.131,0.770,-2.590,-0.770
1743420319.21421,-0.177,0.982,-0.129,0.910,-2.450,-0.770
1743420319.243834,-0.178,0.981,-0.131,0.910,-2.520,-0.770
1743420319.2747679,-0.178,0.982,-0.129,0.770,-2.380,-0.910
1743420319.3343859,-0.178,0.980,-0.129,0.840,-2.520,-0.840
1743420319.335263,-0.177,0.982,-0.129,0.770,-2.450,-0.910
1743420319.37118,-0.178,0.981,-0.129,0.910,-2.450,-0.770
1743420319.394498,-0.178,0.983,-0.128,0.840,-2.590,-0.770
1743420319.423797,-0.176,0.981,-0.129,0.910,-2.450,-0.770
1743420319.4537091,-0.177,0.982,-0.132,0.840,-2.520,-0.770
1743420319.483797,-0.178,0.981,-0.129,0.840,-2.590,-0.770
1743420319.51397,-0.177,0.982,-0.130,0.770,-2.520,-0.770
1743420319.528685,-0.178,0.981,-0.125,0.770,-2.450,-0.770
1743420319.5738611,-0.178,0.980,-0.130,0.840,-2.520,-0.770
1743420319.5911481,-0.178,0.982,-0.131,0.770,-2.660,-0.770
1743420319.634099,-0.181,0.981,-0.129,0.840,-2.520,-0.910
1743420319.649266,-0.178,0.980,-0.128,0.840,-2.520,-0.700
1743420319.679787,-0.180,0.981,-0.129,0.840,-2.450,-0.770
1743420319.709671,-0.180,0.982,-0.131,0.840,-2.520,-0.840
1743420319.7395499,-0.178,0.980,-0.131,0.910,-2.590,-0.770
1743420319.769471,-0.177,0.982,-0.130,0.840,-2.450,-0.840
1743420319.7991621,-0.180,0.981,-0.128,0.910,-2.660,-0.770
1743420319.829931,-0.176,0.982,-0.132,0.910,-2.450,-0.770
1743420319.860374,-0.177,0.981,-0.130,0.770,-2.590,-0.770
1743420319.889618,-0.178,0.982,-0.128,0.840,-2.590,-0.770
1743420319.934224,-0.179,0.982,-0.131,0.910,-2.450,-0.770
1743420319.934865,-0.178,0.980,-0.130,0.840,-2.450,-0.910
1743420319.963906,-0.179,0.981,-0.128,0.910,-2.450,-0.770
1743420319.994168,-0.178,0.979,-0.130,0.840,-2.590,-0.770
1743420320.0247838,-0.178,0.982,-0.128,0.840,-2.520,-0.700
1743420320.054131,-0.179,0.983,-0.128,0.840,-2.520,-0.770
1743420320.0850382,-0.178,0.982,-0.131,0.980,-2.590,-0.700
1743420320.11487,-0.179,0.981,-0.130,0.910,-2.520,-0.840
1743420320.144234,-0.178,0.983,-0.131,0.840,-2.520,-0.840
1743420320.174765,-0.179,0.982,-0.126,0.910,-2.450,-0.770
1743420320.233872,-0.179,0.982,-0.128,0.980,-2.450,-0.840
1743420320.234951,-0.180,0.981,-0.128,0.840,-2.590,-0.770
1743420320.264127,-0.179,0.982,-0.130,0.770,-2.590,-0.840
1743420320.279555,-0.178,0.982,-0.130,0.910,-2.520,-0.770
1743420320.3088179,-0.178,0.983,-0.130,0.910,-2.520,-0.770
1743420320.3389819,-0.177,0.981,-0.131,0.840,-2.450,-0.840
1743420320.3689501,-0.181,0.983,-0.130,0.840,-2.520,-0.770
1743420320.3994722,-0.178,0.982,-0.127,0.910,-2.520,-0.770
1743420320.429406,-0.180,0.981,-0.132,0.910,-2.450,-0.840
1743420320.4605062,-0.178,0.983,-0.129,0.980,-2.520,-0.770
1743420320.489036,-0.177,0.982,-0.127,0.700,-2.380,-0.910
1743420320.5339,-0.181,0.982,-0.131,0.910,-2.590,-0.770
1743420320.5498571,-0.178,0.983,-0.131,0.840,-2.450,-0.770
1743420320.578909,-0.179,0.981,-0.130,0.840,-2.450,-0.770
1743420320.608787,-0.178,0.981,-0.130,0.840,-2.520,-0.840
1743420320.6389928,-0.180,0.981,-0.131,0.840,-2.520,-0.840
1743420320.6681302,-0.178,0.980,-0.130,0.980,-2.590,-0.770
1743420320.683608,-0.179,0.980,-0.129,0.840,-2.520,-0.840
1743420320.7144651,-0.177,0.984,-0.128,0.840,-2.450,-0.770
1743420320.743024,-0.178,0.983,-0.130,0.910,-2.590,-0.910
1743420320.772633,-0.177,0.980,-0.128,0.840,-2.520,-0.700
1743420320.8644469,-0.179,0.981,-0.130,0.770,-2.450,-0.700
1743420320.864821,-0.176,0.981,-0.129,0.840,-2.450,-0.630
1743420320.865311,-0.180,0.983,-0.129,0.910,-2.590,-0.910
1743420320.894357,-0.178,0.981,-0.127,0.770,-2.520,-0.700
1743420320.9246132,-0.178,0.981,-0.130,0.840,-2.450,-0.770
1743420320.9544032,-0.178,0.981,-0.130,0.840,-2.380,-0.840
1743420320.984069,-0.179,0.980,-0.130,0.840,-2.520,-0.840
1743420321.014076,-0.177,0.981,-0.130,0.840,-2.520,-0.700
1743420321.044194,-0.177,0.984,-0.130,0.910,-2.520,-0.770
1743420321.074419,-0.179,0.981,-0.129,0.840,-2.590,-0.770
1743420321.091136,-0.178,0.981,-0.131,0.910,-2.520,-0.700
1743420321.133815,-0.178,0.979,-0.129,0.910,-2.520,-0.840
1743420321.149127,-0.177,0.983,-0.130,0.700,-2.450,-0.770
1743420321.179054,-0.179,0.981,-0.131,0.840,-2.450,-0.770
1743420321.209878,-0.179,0.981,-0.131,0.840,-2.450,-0.770
1743420321.24086,-0.177,0.982,-0.130,0.840,-2.590,-0.770
1743420321.268665,-0.179,0.983,-0.127,0.840,-2.590,-0.840
1743420321.298939,-0.177,0.985,-0.129,0.840,-2.520,-0.840
1743420321.32907,-0.179,0.981,-0.128,0.840,-2.450,-0.770
1743420321.359319,-0.177,0.982,-0.128,0.840,-2.520,-0.980
1743420321.390774,-0.178,0.981,-0.131,0.840,-2.520,-0.770
1743420321.434119,-0.179,0.983,-0.128,0.840,-2.520,-0.700
1743420321.434484,-0.178,0.981,-0.131,0.770,-2.520,-0.840
1743420321.464295,-0.179,0.984,-0.132,0.980,-2.660,-0.560
1743420321.4942138,-0.179,0.979,-0.130,0.770,-2.450,-0.910
1743420321.524346,-0.180,0.981,-0.130,0.840,-2.450,-0.840
1743420321.5542889,-0.177,0.981,-0.130,0.910,-2.520,-0.840
1743420321.584394,-0.177,0.980,-0.128,0.840,-2.520,-0.770
1743420321.6136599,-0.179,0.981,-0.128,0.840,-2.520,-0.840
1743420321.644937,-0.176,0.981,-0.131,0.910,-2.520,-0.770
1743420321.674399,-0.181,0.982,-0.127,0.840,-2.450,-0.770
1743420321.734079,-0.177,0.982,-0.128,0.770,-2.660,-0.770
1743420321.7349708,-0.179,0.983,-0.129,0.910,-2.450,-0.770
1743420321.7643552,-0.179,0.981,-0.128,0.770,-2.450,-0.770
1743420321.779066,-0.180,0.981,-0.128,0.910,-2.520,-0.840
1743420321.810216,-0.176,0.981,-0.131,0.840,-2.450,-0.770
1743420321.8386922,-0.179,0.983,-0.129,0.840,-2.590,-0.700
1743420321.897527,-0.178,0.983,-0.129,0.840,-2.590,-0.770
1743420321.8989508,-0.179,0.983,-0.131,0.910,-2.520,-0.770
1743420321.930597,-0.178,0.981,-0.129,0.770,-2.450,-0.910
1743420321.959224,-0.181,0.982,-0.130,0.910,-2.450,-0.770
1743420321.988864,-0.177,0.980,-0.130,0.910,-2.590,-0.910
1743420322.003553,-0.179,0.981,-0.130,0.840,-2.520,-0.700
1743420322.034234,-0.181,0.982,-0.128,0.770,-2.590,-0.770
1743420322.064673,-0.178,0.983,-0.131,0.910,-2.730,-0.770
1743420322.094614,-0.178,0.982,-0.129,0.840,-2.450,-0.840
1743420322.1393511,-0.176,0.983,-0.129,0.840,-2.450,-0.840
1743420322.1987982,-0.177,0.979,-0.127,0.910,-2.520,-0.700
1743420322.1996312,-0.179,0.982,-0.131,0.770,-2.450,-0.770
1743420322.2142458,-0.178,0.981,-0.130,0.980,-2.520,-0.700
1743420322.24386,-0.178,0.982,-0.133,0.840,-2.590,-0.700
1743420322.2747679,-0.178,0.980,-0.127,0.840,-2.450,-0.910
1743420322.304248,-0.177,0.983,-0.129,0.770,-2.450,-0.700
1743420322.3340979,-0.178,0.981,-0.130,0.910,-2.590,-0.910
1743420322.365377,-0.177,0.981,-0.130,0.770,-2.380,-0.840
1743420322.379122,-0.177,0.982,-0.128,0.840,-2.450,-0.770
1743420322.4095712,-0.179,0.982,-0.129,0.980,-2.450,-0.770
1743420322.439353,-0.179,0.981,-0.128,0.770,-2.520,-0.910
1743420322.49939,-0.178,0.981,-0.130,0.770,-2.380,-0.770
1743420322.499962,-0.178,0.980,-0.130,0.910,-2.450,-0.700
1743420322.552042,-0.178,0.983,-0.129,0.770,-2.380,-0.840
1743420322.5741172,-0.179,0.982,-0.130,0.770,-2.520,-0.840
1743420322.588691,-0.179,0.982,-0.127,0.910,-2.520,-0.770
1743420322.6188421,-0.177,0.979,-0.129,0.770,-2.450,-0.770
1743420322.6488059,-0.183,0.982,-0.130,0.910,-2.660,-0.770
1743420322.678924,-0.179,0.981,-0.128,0.840,-2.520,-0.700
1743420322.709573,-0.177,0.981,-0.130,0.980,-2.520,-0.840
1743420322.738285,-0.178,0.982,-0.128,0.700,-2.520,-0.840
1743420322.7996979,-0.178,0.982,-0.127,0.840,-2.450,-0.770
1743420322.800468,-0.178,0.981,-0.130,0.910,-2.520,-0.770
1743420322.814417,-0.178,0.981,-0.130,0.840,-2.660,-0.840
1743420322.843466,-0.178,0.980,-0.129,0.910,-2.520,-0.770
1743420322.875366,-0.181,0.981,-0.131,0.840,-2.520,-0.770
1743420322.904203,-0.177,0.982,-0.128,0.910,-2.450,-0.840
1743420322.9356601,-0.177,0.983,-0.128,0.910,-2.520,-0.840
1743420322.96458,-0.178,0.981,-0.129,0.910,-2.450,-0.630
1743420322.994018,-0.178,0.984,-0.130,0.910,-2.520,-0.770
1743420323.024818,-0.178,0.984,-0.130,0.840,-2.520,-0.700
1743420323.0997498,-0.179,0.982,-0.129,0.910,-2.520,-0.700
1743420323.100269,-0.179,0.981,-0.128,0.910,-2.660,-0.770
1743420323.114335,-0.179,0.982,-0.127,0.980,-2.450,-0.840
1743420323.1445272,-0.179,0.980,-0.129,0.910,-2.520,-0.770
1743420323.1742442,-0.178,0.983,-0.130,0.980,-2.450,-0.840
1743420323.204038,-0.180,0.983,-0.127,0.980,-2.450,-0.840
1743420323.23363,-0.178,0.981,-0.127,0.840,-2.590,-0.770
1743420323.24882,-0.178,0.982,-0.130,0.840,-2.590,-0.700
1743420323.279063,-0.178,0.982,-0.131,0.840,-2.520,-0.770
1743420323.309427,-0.181,0.983,-0.132,0.980,-2.450,-0.700
1743420323.339914,-0.176,0.983,-0.127,0.840,-2.520,-0.770
1743420323.4145842,-0.179,0.981,-0.129,0.910,-2.520,-0.840
1743420323.4154172,-0.180,0.981,-0.129,0.910,-2.590,-0.700
1743420323.4291,-0.178,0.982,-0.132,0.910,-2.660,-0.770
1743420323.460214,-0.176,0.981,-0.132,0.910,-2.450,-0.840
1743420323.490102,-0.179,0.981,-0.129,0.840,-2.520,-0.840
1743420323.520144,-0.178,0.983,-0.130,0.910,-2.520,-0.910
1743420323.5509918,-0.178,0.982,-0.127,0.770,-2.520,-0.840
1743420323.5794811,-0.177,0.981,-0.129,0.840,-2.520,-0.770
1743420323.609816,-0.177,0.980,-0.129,0.980,-2.590,-0.700
1743420323.62563,-0.180,0.981,-0.130,0.770,-2.520,-0.840
1743420323.698774,-0.180,0.980,-0.129,0.980,-2.590,-0.770
1743420323.7040288,-0.177,0.982,-0.129,0.980,-2.520,-0.770
1743420323.7154932,-0.178,0.983,-0.128,0.770,-2.450,-0.840
1743420323.745731,-0.179,0.982,-0.130,0.910,-2.590,-0.700
1743420323.775418,-0.176,0.980,-0.131,0.910,-2.450,-0.840
1743420323.804866,-0.178,0.984,-0.131,0.910,-2.450,-0.770
1743420323.834547,-0.179,0.981,-0.132,0.910,-2.520,-0.770
1743420323.865022,-0.180,0.980,-0.129,0.840,-2.380,-0.840
1743420323.879293,-0.179,0.983,-0.128,0.910,-2.520,-0.770
1743420323.910391,-0.177,0.980,-0.130,0.770,-2.450,-0.840
1743420323.9407191,-0.178,0.981,-0.129,0.910,-2.450,-0.910
1743420323.999595,-0.180,0.981,-0.128,0.910,-2.380,-0.700
1743420324.000242,-0.180,0.982,-0.130,0.980,-2.450,-0.840
1743420324.02963,-0.179,0.983,-0.132,0.840,-2.520,-0.770
1743420324.059655,-0.178,0.980,-0.130,0.770,-2.520,-0.770
1743420324.0890398,-0.178,0.983,-0.129,0.840,-2.520,-0.910
1743420324.11843,-0.178,0.981,-0.129,0.910,-2.520,-0.910
1743420324.1503549,-0.179,0.982,-0.127,0.910,-2.450,-0.700
1743420324.1799629,-0.179,0.982,-0.128,0.840,-2.520,-0.770
1743420324.208937,-0.181,0.983,-0.130,0.840,-2.520,-0.700
1743420324.239465,-0.180,0.981,-0.130,0.910,-2.520,-0.770
1743420324.299201,-0.182,0.983,-0.131,0.910,-2.520,-0.630
1743420324.2998312,-0.179,0.980,-0.132,0.840,-2.520,-0.840
1743420324.314582,-0.178,0.983,-0.127,0.770,-2.450,-0.840
1743420324.3442361,-0.177,0.981,-0.130,0.910,-2.450,-0.770
1743420324.3745332,-0.180,0.981,-0.130,0.980,-2.520,-0.840
1743420324.4048698,-0.178,0.982,-0.132,0.770,-2.520,-0.630
1743420324.4344718,-0.176,0.981,-0.129,0.840,-2.520,-0.770
1743420324.4646301,-0.177,0.983,-0.129,0.980,-2.590,-0.770
1743420324.4943092,-0.179,0.981,-0.126,0.770,-2.590,-0.840
1743420324.524752,-0.182,0.982,-0.130,0.840,-2.520,-0.770
1743420324.599152,-0.177,0.980,-0.128,0.770,-2.520,-0.770
1743420324.601873,-0.179,0.983,-0.130,0.910,-2.520,-0.840
1743420324.6023989,-0.180,0.982,-0.126,0.910,-2.450,-0.770
1743420324.643911,-0.178,0.980,-0.128,0.840,-2.590,-0.770
1743420324.659893,-0.178,0.983,-0.127,0.840,-2.520,-0.840
1743420324.689368,-0.179,0.982,-0.129,0.840,-2.590,-0.840
1743420324.7188978,-0.179,0.984,-0.130,0.910,-2.520,-0.840
1743420324.7487612,-0.178,0.981,-0.129,0.840,-2.380,-0.770
1743420324.77903,-0.179,0.980,-0.130,0.840,-2.450,-0.630
1743420324.809738,-0.177,0.982,-0.129,0.980,-2.590,-0.700
1743420324.839805,-0.178,0.983,-0.129,0.840,-2.520,-0.770
1743420324.898793,-0.180,0.982,-0.129,0.910,-2.450,-0.840
1743420324.90081,-0.176,0.982,-0.128,0.840,-2.450,-0.840
1743420324.929139,-0.178,0.981,-0.130,0.770,-2.450,-0.840
1743420324.959766,-0.179,0.981,-0.127,0.910,-2.520,-0.840
1743420324.988352,-0.179,0.983,-0.131,0.910,-2.590,-0.770
1743420325.01927,-0.176,0.981,-0.130,0.910,-2.590,-0.700
1743420325.049922,-0.180,0.981,-0.127,0.980,-2.520,-0.770
1743420325.078523,-0.179,0.982,-0.129,0.770,-2.450,-0.840
1743420325.109726,-0.179,0.982,-0.127,0.840,-2.450,-0.840
1743420325.139888,-0.180,0.982,-0.128,0.910,-2.380,-0.910
1743420325.198715,-0.177,0.981,-0.131,0.980,-2.450,-0.770
1743420325.1994722,-0.179,0.981,-0.131,0.840,-2.520,-0.770
1743420325.2140532,-0.179,0.982,-0.130,0.770,-2.590,-0.840
1743420325.244299,-0.179,0.981,-0.131,0.840,-2.520,-0.770
1743420325.2747872,-0.178,0.982,-0.129,0.980,-2.450,-0.770
1743420325.3043299,-0.178,0.982,-0.131,0.980,-2.520,-0.910
1743420325.334678,-0.177,0.982,-0.131,0.910,-2.450,-0.770
1743420325.364933,-0.178,0.981,-0.129,0.840,-2.520,-0.840
1743420325.39459,-0.177,0.983,-0.128,0.840,-2.590,-0.770
