Millis,AccelX,AccelY,AccelZ,GyroX,GyroY,GyroZ
752946,0.065,0.045,1.033,0.280,-2.590,-0.560
752966,0.066,0.045,1.032,0.280,-2.520,-0.700
752986,0.065,0.045,1.031,0.280,-2.520,-0.560
753005,0.066,0.047,1.034,0.350,-2.520,-0.560
753030,0.066,0.048,1.033,0.350,-2.450,-0.700
753050,0.064,0.046,1.032,0.350,-2.520,-0.630
753067,0.066,0.045,1.028,0.490,-2.520,-0.630
753087,0.064,0.043,1.030,0.490,-2.310,-0.560
753106,0.064,0.044,1.034,0.140,-2.380,-0.560
753130,0.064,0.044,1.031,0.280,-2.380,-0.630
753150,0.064,0.045,1.028,0.210,-2.380,-0.630
753172,0.063,0.047,1.029,0.210,-2.450,-0.630
753196,0.062,0.044,1.031,0.280,-2.450,-0.560
753215,0.066,0.046,1.034,0.210,-2.520,-0.630
753231,0.062,0.046,1.028,0.490,-2.380,-0.560
753256,0.064,0.044,1.034,0.560,-2.520,-0.560
753276,0.067,0.048,1.033,0.350,-2.520,-0.490
753296,0.065,0.048,1.033,0.140,-2.380,-0.560
753314,0.068,0.045,1.030,0.490,-2.240,-0.630
753334,0.064,0.046,1.030,0.630,-2.310,-0.560
753353,0.065,0.046,1.032,0.420,-2.310,-0.560
753373,0.062,0.046,1.026,0.350,-2.380,-0.560
753398,0.066,0.045,1.030,0.420,-2.450,-0.700
753418,0.065,0.045,1.032,0.420,-2.450,-0.560
753438,0.064,0.045,1.033,0.420,-2.380,-0.560
753457,0.066,0.046,1.030,0.350,-2.310,-0.490
753482,0.065,0.046,1.030,0.420,-2.380,-0.490
753506,0.066,0.046,1.031,0.420,-2.380,-0.560
753526,0.066,0.045,1.032,0.280,-2.170,-0.630
753546,0.064,0.047,1.031,0.210,-2.380,-0.630
753563,0.066,0.046,1.029,0.210,-2.520,-0.560
753583,0.063,0.046,1.031,0.350,-2.590,-0.560
753606,0.065,0.046,1.033,0.420,-2.520,-0.630
753630,0.066,0.045,1.032,0.350,-2.520,-0.560
753649,0.064,0.045,1.026,0.560,-2.450,-0.630
753670,0.065,0.045,1.030,0.490,-2.450,-0.560
753690,0.066,0.044,1.032,0.420,-2.380,-0.630
753710,0.064,0.048,1.032,0.280,-2.450,-0.630
753730,0.063,0.046,1.028,0.140,-2.380,-0.630
753750,0.065,0.046,1.032,0.210,-2.520,-0.560
753770,0.066,0.046,1.031,0.140,-2.380,-0.560
753794,0.066,0.047,1.029,0.280,-2.520,-0.490
753812,0.065,0.047,1.029,0.350,-2.450,-0.630
753832,0.064,0.045,1.033,0.350,-2.450,-0.630
753851,0.065,0.045,1.033,0.280,-2.310,-0.490
753871,0.064,0.046,1.027,0.210,-2.170,-0.630
753891,0.064,0.046,1.029,0.490,-2.380,-0.560
753916,0.067,0.045,1.032,0.350,-2.310,-0.420
753935,0.063,0.047,1.035,0.280,-2.380,-0.420
753955,0.063,0.048,1.031,0.210,-2.380,-0.490
753979,0.064,0.046,1.029,0.140,-2.660,-0.490
754003,0.066,0.048,1.030,0.420,-2.730,-0.630
754023,0.065,0.044,1.034,0.350,-2.520,-0.630
754043,0.066,0.045,1.031,0.420,-2.450,-0.630
754063,0.065,0.043,1.028,0.350,-2.310,-0.630
754083,0.064,0.044,1.027,0.490,-2.380,-0.630
754103,0.065,0.047,1.030,0.490,-2.520,-0.630
754123,0.065,0.047,1.029,0.490,-2.590,-0.560
754138,0.063,0.048,1.032,0.280,-2.520,-0.560
754161,0.064,0.047,1.032,0.210,-2.590,-0.630
754185,0.064,0.048,1.030,0.350,-2.590,-0.490
754204,0.064,0.046,1.029,0.280,-2.660,-0.630
754221,0.063,0.045,1.032,0.420,-2.590,-0.700
754245,0.065,0.045,1.035,0.210,-2.380,-0.490
754264,0.066,0.048,1.031,0.140,-2.240,-0.700
754285,0.066,0.047,1.032,0.210,-2.240,-0.630
754305,0.064,0.046,1.029,0.350,-2.380,-0.630
754324,0.066,0.047,1.031,0.350,-2.240,-0.630
754341,0.065,0.048,1.031,0.350,-2.380,-0.700
754362,0.071,0.047,1.033,0.770,-2.170,-0.630
754382,0.065,0.041,1.030,0.070,-2.100,-0.630
754402,0.064,0.049,1.033,-0.140,-2.240,-0.420
754426,0.062,0.046,1.030,-0.140,-2.520,-0.560
754446,0.064,0.047,1.030,0.070,-2.590,-0.630
754466,0.063,0.045,1.031,0.420,-2.660,-0.560
754486,0.065,0.045,1.032,0.420,-2.520,-0.560
754510,0.065,0.048,1.031,0.420,-2.240,-0.560
754530,0.066,0.048,1.028,0.560,-2.380,-0.560
754554,0.067,0.045,1.030,0.420,-2.520,-0.630
754574,0.064,0.045,1.034,0.490,-2.380,-0.700
754594,0.065,0.047,1.031,0.280,-2.380,-0.700
754614,0.063,0.043,1.026,0.280,-2.380,-0.630
754634,0.063,0.043,1.031,0.490,-2.520,-0.560
754649,0.064,0.044,1.031,0.210,-2.380,-0.560
754674,0.066,0.047,1.031,0.210,-2.450,-0.560
754693,0.065,0.048,1.031,0.280,-2.380,-0.630
754714,0.068,0.046,1.032,0.280,-2.450,-0.560
754734,0.065,0.047,1.031,0.280,-2.450,-0.630
754754,0.066,0.046,1.027,0.350,-2.310,-0.630
754778,0.065,0.045,1.030,0.280,-2.520,-0.560
754794,0.065,0.048,1.033,0.210,-2.450,-0.560
754814,0.065,0.047,1.029,0.210,-2.450,-0.700
754834,0.066,0.045,1.030,0.560,-2.450,-0.560
754853,0.064,0.044,1.034,0.490,-2.590,-0.630
754873,0.065,0.044,1.030,0.280,-2.450,-0.630
754898,0.066,0.044,1.029,0.280,-2.240,-0.560
754918,0.065,0.046,1.027,0.350,-2.240,-0.630
754938,0.067,0.046,1.032,0.210,-2.380,-0.630
754962,0.064,0.047,1.032,0.350,-2.590,-0.630
754982,0.065,0.047,1.030,0.140,-2.380,-0.630
755006,0.066,0.046,1.032,0.210,-2.450,-0.560
755026,0.067,0.046,1.033,0.350,-2.380,-0.700
755046,0.065,0.046,1.032,0.350,-2.380,-0.630
755070,0.064,0.046,1.032,0.350,-2.380,-0.560
755090,0.063,0.047,1.028,0.350,-2.310,-0.630
755110,0.065,0.046,1.027,0.420,-2.450,-0.490
755130,0.067,0.045,1.031,0.350,-2.520,-0.560
755150,0.066,0.047,1.031,0.210,-2.450,-0.630
755170,0.066,0.046,1.031,0.420,-2.520,-0.630
755190,0.065,0.047,1.032,0.280,-2.520,-0.630
755210,0.064,0.045,1.031,0.350,-2.520,-0.560
755230,0.066,0.046,1.029,0.140,-2.380,-0.630
755250,0.066,0.044,1.029,0.350,-2.520,-0.490
755270,0.065,0.046,1.031,0.210,-2.380,-0.490
755291,0.065,0.046,1.031,0.210,-2.380,-0.560
755310,0.065,0.045,1.029,0.210,-2.380,-0.630
755330,0.064,0.047,1.033,0.350,-2.310,-0.630
755353,0.065,0.047,1.034,0.280,-2.380,-0.490
755373,0.064,0.047,1.030,0.210,-2.450,-0.630
755392,0.066,0.047,1.031,0.420,-2.380,-0.630
755417,0.063,0.043,1.033,0.350,-2.450,-0.630
755437,0.064,0.045,1.032,0.350,-2.450,-0.560
755457,0.067,0.046,1.028,0.350,-2.380,-0.560
755477,0.065,0.046,1.032,0.350,-2.450,-0.630
755495,0.065,0.048,1.033,0.070,-2.590,-0.630
755517,0.066,0.048,1.030,0.070,-2.450,-0.630
755536,0.066,0.048,1.026,0.350,-2.380,-0.630
755556,0.064,0.045,1.033,0.420,-2.380,-0.700
755576,0.066,0.047,1.034,0.280,-2.310,-0.560
755596,0.066,0.047,1.029,0.210,-2.380,-0.490
755616,0.063,0.045,1.027,0.420,-2.520,-0.560
755636,0.067,0.047,1.035,0.210,-2.520,-0.560
755660,0.066,0.047,1.030,0.280,-2.450,-0.560
755680,0.065,0.044,1.029,0.420,-2.310,-0.630
755700,0.064,0.047,1.030,0.560,-2.310,-0.630
755719,0.064,0.047,1.033,0.350,-2.170,-0.630
755740,0.066,0.046,1.028,0.350,-2.520,-0.560
755760,0.062,0.046,1.031,0.420,-2.380,-0.560
755776,0.064,0.044,1.036,0.350,-2.660,-0.490
755800,0.066,0.048,1.033,0.350,-2.450,-0.560
755820,0.067,0.049,1.029,0.210,-2.520,-0.630
755839,0.064,0.046,1.033,0.350,-2.520,-0.630
755860,0.066,0.046,1.034,0.280,-2.380,-0.560
755880,0.066,0.047,1.031,0.280,-2.450,-0.560
755899,0.066,0.048,1.030,0.420,-2.450,-0.630
755919,0.063,0.046,1.031,0.420,-2.450,-0.560
755939,0.064,0.049,1.032,0.000,-2.310,-0.560
755959,0.064,0.044,1.028,0.210,-2.450,-0.560
755979,0.065,0.047,1.033,0.420,-2.450,-0.560
755998,0.065,0.047,1.036,0.350,-2.520,-0.560
756023,0.063,0.045,1.028,0.350,-2.450,-0.560
756043,0.066,0.045,1.030,0.560,-2.380,-0.490
756063,0.063,0.047,1.030,0.420,-2.380,-0.560
756078,0.064,0.045,1.029,0.350,-2.450,-0.560
756098,0.067,0.044,1.028,0.350,-2.310,-0.630
756122,0.067,0.045,1.034,0.350,-2.450,-0.560
756139,0.068,0.045,1.034,0.280,-2.380,-0.490
756163,0.066,0.044,1.033,0.140,-2.450,-0.560
756183,0.065,0.045,1.028,0.350,-2.310,-0.630
756203,0.063,0.048,1.034,0.420,-2.520,-0.630
756223,0.064,0.046,1.034,0.280,-2.380,-0.630
756243,0.063,0.045,1.028,0.280,-2.310,-0.560
756259,0.067,0.043,1.034,0.490,-2.450,-0.560
756283,0.068,0.044,1.030,0.280,-2.380,-0.630
756303,0.067,0.044,1.025,0.210,-2.240,-0.630
756321,0.065,0.045,1.033,0.350,-2.380,-0.560
756343,0.063,0.045,1.033,0.420,-2.520,-0.700
756363,0.063,0.047,1.028,0.210,-2.380,-0.560
756378,0.065,0.046,1.031,0.420,-2.450,-0.490
756398,0.065,0.044,1.032,0.490,-2.380,-0.630
756423,0.064,0.045,1.028,0.350,-2.240,-0.630
756443,0.063,0.046,1.026,0.420,-2.380,-0.560
756463,0.065,0.045,1.034,0.420,-2.450,-0.560
756483,0.065,0.046,1.033,0.140,-2.380,-0.630
756499,0.065,0.047,1.027,0.280,-2.450,-0.630
756518,0.062,0.046,1.029,0.420,-2.520,-0.630
756543,0.065,0.046,1.033,0.280,-2.450,-0.700
756563,0.065,0.046,1.029,0.210,-2.450,-0.560
756583,0.065,0.047,1.031,0.420,-2.520,-0.560
756602,0.065,0.046,1.034,0.280,-2.310,-0.700
756619,0.066,0.046,1.032,0.210,-2.450,-0.630
756638,0.066,0.045,1.028,0.350,-2.380,-0.560
756658,0.065,0.043,1.034,0.490,-2.450,-0.560
756681,0.065,0.046,1.034,0.280,-2.310,-0.700
756700,0.066,0.047,1.029,0.280,-2.310,-0.560
756725,0.065,0.048,1.028,0.210,-2.450,-0.560
756748,0.063,0.047,1.028,0.350,-2.520,-0.490
756769,0.065,0.045,1.034,0.280,-2.450,-0.630
756789,0.064,0.045,1.033,0.210,-2.520,-0.560
756809,0.065,0.047,1.029,0.420,-2.520,-0.490
756828,0.064,0.045,1.034,0.490,-2.520,-0.560
756849,0.062,0.048,1.032,0.140,-2.450,-0.630
756873,0.066,0.044,1.030,0.280,-2.520,-0.560
756893,0.064,0.044,1.028,0.280,-2.450,-0.560
756913,0.065,0.047,1.030,0.490,-2.520,-0.630
756928,0.064,0.045,1.029,0.210,-2.450,-0.630
756953,0.066,0.046,1.027,0.420,-2.450,-0.630
756973,0.065,0.045,1.030,0.420,-2.450,-0.630
756996,0.065,0.043,1.034,0.000,-2.450,-0.630
757017,0.064,0.047,1.032,0.210,-2.450,-0.630
757037,0.065,0.047,1.026,0.140,-2.380,-0.630
757057,0.065,0.046,1.032,0.350,-2.450,-0.630
757077,0.064,0.045,1.032,0.280,-2.450,-0.560
757097,0.065,0.045,1.028,0.280,-2.450,-0.630
757115,0.065,0.045,1.031,0.490,-2.450,-0.490
757137,0.067,0.045,1.034,0.210,-2.380,-0.630
757156,0.066,0.047,1.028,0.280,-2.380,-0.560
757176,0.066,0.046,1.029,0.420,-2.380,-0.560
757201,0.066,0.046,1.034,0.490,-2.310,-0.630
757221,0.066,0.047,1.031,0.350,-2.310,-0.560
757237,0.066,0.045,1.029,0.420,-2.520,-0.560
757257,0.066,0.045,1.034,0.350,-2.380,-0.630
757277,0.063,0.047,1.031,0.210,-2.450,-0.560
757297,0.065,0.046,1.028,0.210,-2.450,-0.560
757317,0.065,0.043,1.033,0.420,-2.310,-0.700
757341,0.066,0.047,1.032,0.350,-2.520,-0.560
757365,0.067,0.047,1.032,0.350,-2.380,-0.560
757384,0.063,0.047,1.029,0.420,-2.310,-0.560
757405,0.068,0.045,1.033,0.490,-2.450,-0.630
757425,0.065,0.047,1.033,0.280,-2.450,-0.560
757445,0.065,0.047,1.028,0.350,-2.520,-0.420
757465,0.065,0.046,1.031,0.630,-2.450,-0.490
757484,0.065,0.044,1.035,0.350,-2.450,-0.560
757504,0.066,0.048,1.035,0.140,-2.240,-0.560
757524,0.063,0.048,1.028,0.210,-2.310,-0.560
757548,0.065,0.046,1.030,0.490,-2.380,-0.700
757568,0.067,0.047,1.033,0.420,-2.310,-0.630
757588,0.066,0.044,1.028,0.280,-2.380,-0.630
757607,0.066,0.046,1.025,0.350,-2.380,-0.630
757631,0.066,0.044,1.029,0.560,-2.450,-0.630
757651,0.067,0.047,1.033,0.420,-2.380,-0.560
757671,0.066,0.045,1.030,0.350,-2.450,-0.560
757691,0.065,0.046,1.027,0.420,-2.380,-0.560
757711,0.062,0.044,1.033,0.490,-2.520,-0.560
757731,0.064,0.049,1.033,0.210,-2.380,-0.560
757750,0.064,0.048,1.030,0.140,-2.310,-0.560
757770,0.064,0.047,1.028,0.420,-2.450,-0.630
757790,0.066,0.045,1.033,0.350,-2.450,-0.560
757815,0.065,0.044,1.030,0.280,-2.380,-0.560
757835,0.066,0.047,1.030,0.420,-2.380,-0.630
757852,0.068,0.046,1.032,0.420,-2.380,-0.630
757872,0.067,0.046,1.031,0.420,-2.450,-0.630
757892,0.066,0.047,1.027,0.350,-2.380,-0.560
757916,0.065,0.046,1.028,0.420,-2.520,-0.630
757936,0.066,0.045,1.031,0.350,-2.450,-0.630
757956,0.062,0.047,1.032,0.350,-2.450,-0.700
757980,0.064,0.046,1.027,0.420,-2.380,-0.630
758000,0.064,0.045,1.030,0.280,-2.380,-0.630
758020,0.064,0.045,1.034,0.210,-2.380,-0.630
758040,0.066,0.047,1.027,0.140,-2.450,-0.560
758060,0.067,0.045,1.030,0.350,-2.380,-0.490
758079,0.065,0.046,1.033,0.350,-2.590,-0.560
758100,0.065,0.048,1.032,0.140,-2.450,-0.560
758120,0.064,0.048,1.029,0.280,-2.380,-0.560
758140,0.064,0.045,1.030,0.350,-2.380,-0.560
758160,0.065,0.046,1.034,0.280,-2.450,-0.490
758180,0.066,0.047,1.033,0.280,-2.450,-0.560
758199,0.064,0.047,1.028,0.420,-2.520,-0.630
758220,0.066,0.047,1.031,0.280,-2.380,-0.560
758240,0.066,0.046,1.034,0.210,-2.520,-0.630
758260,0.065,0.045,1.030,0.140,-2.380,-0.560
758280,0.067,0.045,1.029,0.490,-2.520,-0.630
758300,0.067,0.046,1.032,0.350,-2.450,-0.630
758320,0.066,0.046,1.034,0.210,-2.450,-0.560
758340,0.066,0.046,1.028,0.350,-2.380,-0.560
758359,0.063,0.046,1.033,0.560,-2.520,-0.630
758380,0.063,0.046,1.034,0.350,-2.380,-0.630
758400,0.065,0.047,1.029,0.280,-2.380,-0.560
758420,0.066,0.047,1.028,0.350,-2.450,-0.560
758440,0.064,0.045,1.034,0.350,-2.380,-0.560
758457,0.066,0.045,1.027,0.350,-2.310,-0.560
758476,0.066,0.044,1.029,0.490,-2.310,-0.630
758501,0.065,0.047,1.032,0.420,-2.380,-0.490
758521,0.065,0.045,1.032,0.280,-2.450,-0.560
758541,0.064,0.047,1.027,0.420,-2.310,-0.560
758561,0.063,0.046,1.030,0.490,-2.450,-0.630
758576,0.063,0.046,1.032,0.210,-2.380,-0.630
758596,0.064,0.045,1.029,0.280,-2.380,-0.560
758621,0.064,0.045,1.028,0.420,-2.450,-0.560
758641,0.066,0.048,1.031,0.420,-2.590,-0.630
758661,0.065,0.050,1.034,0.140,-2.520,-0.630
758681,0.066,0.047,1.027,0.140,-2.380,-0.490
758698,0.065,0.044,1.030,0.420,-2.380,-0.630
758718,0.065,0.044,1.034,0.280,-2.450,-0.560
758738,0.068,0.046,1.030,0.140,-2.520,-0.630
758758,0.063,0.046,1.029,0.140,-2.450,-0.560
758778,0.068,0.047,1.033,0.350,-2.520,-0.560
758797,0.066,0.045,1.033,0.210,-2.310,-0.560
758821,0.065,0.048,1.032,0.210,-2.450,-0.630
758841,0.065,0.045,1.029,0.490,-2.450,-0.560
758861,0.065,0.047,1.033,0.350,-2.520,-0.560
758881,0.065,0.045,1.033,0.280,-2.450,-0.560
758901,0.064,0.044,1.028,0.280,-2.380,-0.700
758921,0.064,0.046,1.031,0.350,-2.380,-0.560
758940,0.065,0.046,1.033,0.210,-2.450,-0.630
758960,0.066,0.050,1.031,0.070,-2.380,-0.560
758985,0.066,0.050,1.031,0.210,-2.450,-0.490
759005,0.066,0.050,1.034,-0.070,-2.380,-0.560
759025,0.063,0.045,1.034,0.070,-2.380,-0.630
759045,0.067,0.048,1.030,0.140,-2.450,-0.490
759060,0.065,0.041,1.030,0.770,-2.380,-0.630
759085,0.065,0.045,1.032,0.840,-2.590,-0.630
759104,0.066,0.045,1.033,0.560,-2.450,-0.700
759129,0.064,0.047,1.031,0.770,-2.450,-0.560
759148,0.068,0.045,1.031,0.420,-2.450,-0.630
759173,0.063,0.046,1.028,0.700,-2.450,-0.560
759193,0.062,0.043,1.030,0.350,-2.310,-0.490
759213,0.061,0.043,1.028,0.980,-2.310,-0.630
759232,0.063,0.041,1.031,0.560,-2.450,-0.560
759249,0.065,0.043,1.030,0.000,-2.590,-0.560
759269,0.068,0.048,1.029,0.000,-2.520,-0.490
759292,0.067,0.049,1.029,0.070,-2.380,-0.490
759315,0.067,0.047,1.026,0.140,-2.170,-0.560
759335,0.068,0.048,1.032,0.350,-2.380,-0.630
759355,0.066,0.048,1.032,0.350,-2.310,-0.630
759379,0.066,0.046,1.027,0.420,-2.380,-0.490
759397,0.066,0.044,1.033,0.560,-2.380,-0.560
759419,0.066,0.045,1.032,0.560,-2.520,-0.630
759436,0.066,0.047,1.030,0.280,-2.310,-0.630
759456,0.065,0.045,1.030,0.350,-2.450,-0.700
759476,0.065,0.046,1.032,0.420,-2.310,-0.560
759496,0.066,0.048,1.031,0.350,-2.380,-0.560
759516,0.065,0.047,1.028,0.350,-2.380,-0.630
759540,0.066,0.045,1.026,0.490,-2.520,-0.630
759559,0.066,0.044,1.033,0.350,-2.240,-0.560
759579,0.066,0.044,1.034,0.350,-2.240,-0.560
759599,0.066,0.045,1.029,0.350,-2.450,-0.490
759618,0.065,0.044,1.029,0.490,-2.450,-0.560
759638,0.065,0.046,1.035,0.280,-2.520,-0.560
759663,0.067,0.044,1.030,0.210,-2.380,-0.630
759682,0.065,0.047,1.027,0.350,-2.310,-0.630
759702,0.068,0.046,1.029,0.350,-2.450,-0.630
759726,0.063,0.047,1.035,0.280,-2.380,-0.560
759746,0.064,0.045,1.029,0.280,-2.450,-0.560
759766,0.066,0.045,1.029,0.280,-2.450,-0.560
759786,0.063,0.044,1.027,0.630,-2.450,-0.560
759803,0.065,0.045,1.035,0.490,-2.380,-0.560
759826,0.065,0.046,1.030,0.210,-2.450,-0.630
759846,0.064,0.048,1.031,0.210,-2.450,-0.560
759866,0.065,0.045,1.034,0.140,-2.450,-0.630
759886,0.065,0.048,1.032,0.140,-2.450,-0.560
759906,0.067,0.048,1.030,0.070,-2.450,-0.560
759926,0.065,0.048,1.031,0.280,-2.380,-0.630
759945,0.064,0.046,1.030,0.420,-2.450,-0.490
759966,0.066,0.045,1.031,0.350,-2.310,-0.560
759986,0.064,0.045,1.031,0.490,-2.380,-0.560
760005,0.064,0.045,1.032,0.420,-2.240,-0.560
760026,0.066,0.043,1.034,0.350,-2.590,-0.630
760041,0.066,0.047,1.031,0.280,-2.310,-0.490
760061,0.065,0.046,1.032,0.490,-2.380,-0.560
760081,0.066,0.044,1.035,0.350,-2.520,-0.630
760101,0.066,0.048,1.030,0.350,-2.450,-0.630
760126,0.065,0.045,1.029,0.490,-2.380,-0.630
760146,0.066,0.046,1.031,0.560,-2.450,-0.630
760163,0.066,0.045,1.030,0.420,-2.380,-0.700
760186,0.066,0.046,1.030,0.350,-2.520,-0.630
760206,0.064,0.045,1.030,0.350,-2.380,-0.560
760226,0.067,0.043,1.033,0.140,-2.380,-0.630
760246,0.065,0.044,1.029,0.140,-2.380,-0.630
760266,0.066,0.047,1.028,0.280,-2.380,-0.630
760281,0.065,0.044,1.032,0.420,-2.590,-0.630
760301,0.066,0.046,1.033,0.280,-2.380,-0.560
760321,0.065,0.047,1.028,0.210,-2.450,-0.560
760346,0.068,0.045,1.030,0.350,-2.450,-0.490
760366,0.068,0.048,1.033,0.350,-2.590,-0.560
760386,0.066,0.046,1.031,0.070,-2.520,-0.630
760401,0.065,0.049,1.027,0.280,-2.450,-0.560
760422,0.064,0.049,1.029,0.420,-2.450,-0.630
760442,0.066,0.046,1.035,0.420,-2.380,-0.630
760464,0.065,0.047,1.031,0.420,-2.380,-0.490
760483,0.066,0.046,1.027,0.560,-2.520,-0.560
760503,0.063,0.045,1.028,0.630,-2.450,-0.560
760527,0.065,0.045,1.033,0.350,-2.310,-0.560
760546,0.064,0.046,1.031,0.210,-2.310,-0.630
760567,0.065,0.044,1.030,0.280,-2.380,-0.630
760587,0.066,0.042,1.029,0.420,-2.450,-0.630
760607,0.065,0.046,1.031,0.280,-2.450,-0.560
760622,0.067,0.047,1.029,0.350,-2.310,-0.560
760647,0.064,0.046,1.033,0.490,-2.240,-0.490
760667,0.066,0.046,1.033,0.420,-2.310,-0.560
760687,0.063,0.046,1.029,0.280,-2.310,-0.630
760707,0.065,0.046,1.029,0.490,-2.520,-0.630
760727,0.064,0.046,1.030,0.420,-2.450,-0.700
760747,0.066,0.045,1.032,0.140,-2.450,-0.630
760767,0.064,0.047,1.028,0.210,-2.450,-0.560
760787,0.063,0.044,1.032,0.350,-2.380,-0.630
760807,0.066,0.044,1.030,0.350,-2.450,-0.630
760825,0.063,0.044,1.032,0.280,-2.450,-0.630
760847,0.066,0.046,1.028,0.280,-2.380,-0.630
760871,0.065,0.045,1.026,0.350,-2.450,-0.630
760895,0.066,0.044,1.031,0.420,-2.520,-0.560
760915,0.065,0.045,1.031,0.140,-2.450,-0.630
760935,0.065,0.045,1.031,0.210,-2.450,-0.630
760955,0.067,0.045,1.029,0.210,-2.450,-0.630
760975,0.062,0.045,1.032,0.490,-2.520,-0.560
760995,0.064,0.046,1.032,0.280,-2.380,-0.700
761010,0.067,0.046,1.030,0.280,-2.520,-0.630
761033,0.064,0.044,1.028,0.420,-2.380,-0.630
761052,0.067,0.045,1.033,0.280,-2.380,-0.630
761072,0.067,0.048,1.032,0.140,-2.310,-0.700
761092,0.066,0.045,1.030,0.490,-2.450,-0.630
761112,0.068,0.045,1.031,0.420,-2.380,-0.560
761131,0.065,0.045,1.032,0.280,-2.520,-0.630
761155,0.065,0.044,1.029,0.350,-2.380,-0.560
761179,0.068,0.043,1.029,0.490,-2.450,-0.560
761198,0.064,0.046,1.030,0.490,-2.450,-0.490
761217,0.065,0.047,1.034,0.280,-2.450,-0.560
761239,0.064,0.046,1.031,0.280,-2.380,-0.560
761255,0.065,0.046,1.027,0.350,-2.450,-0.560
761277,0.065,0.044,1.032,0.280,-2.450,-0.560
761297,0.066,0.046,1.031,0.210,-2.380,-0.560
761316,0.064,0.046,1.028,0.210,-2.520,-0.560
761336,0.066,0.048,1.030,0.420,-2.450,-0.630
761356,0.064,0.048,1.032,0.210,-2.380,-0.560
761376,0.064,0.044,1.033,0.420,-2.380,-0.560
761401,0.066,0.047,1.029,0.280,-2.450,-0.560
761421,0.064,0.047,1.032,0.560,-2.380,-0.560
761440,0.065,0.046,1.035,0.420,-2.310,-0.630
761464,0.067,0.046,1.031,0.280,-2.310,-0.630
761488,0.064,0.047,1.028,0.280,-2.380,-0.630
761509,0.065,0.047,1.030,0.350,-2.380,-0.700
761530,0.064,0.047,1.031,0.420,-2.170,-0.630
761554,0.067,0.044,1.033,0.350,-2.450,-0.560
761574,0.064,0.046,1.028,0.280,-2.520,-0.560
761594,0.066,0.045,1.029,0.350,-2.310,-0.490
761614,0.065,0.048,1.030,0.630,-2.520,-0.560
761631,0.065,0.043,1.032,0.140,-2.380,-0.560
761651,0.064,0.046,1.029,0.140,-2.380,-0.490
761671,0.065,0.049,1.030,0.490,-2.450,-0.630
761691,0.066,0.046,1.034,0.280,-2.380,-0.560
761715,0.064,0.046,1.030,0.350,-2.310,-0.560
761735,0.067,0.046,1.026,0.630,-2.380,-0.630
761754,0.068,0.046,1.029,0.560,-2.450,-0.630
761774,0.064,0.046,1.033,0.420,-2.380,-0.560
761794,0.065,0.048,1.031,0.420,-2.380,-0.560
761817,0.066,0.048,1.029,0.350,-2.240,-0.630
761836,0.063,0.046,1.030,0.350,-2.380,-0.560
761856,0.065,0.045,1.034,0.420,-2.310,-0.560
761881,0.064,0.045,1.034,0.490,-2.590,-0.560
761901,0.065,0.046,1.030,0.420,-2.380,-0.560
761921,0.064,0.044,1.030,0.420,-2.450,-0.560
761941,0.067,0.045,1.034,0.280,-2.380,-0.560
761961,0.067,0.047,1.031,0.280,-2.520,-0.630
761981,0.067,0.045,1.027,0.210,-2.310,-0.630
761998,0.063,0.045,1.035,0.420,-2.380,-0.560
762021,0.064,0.046,1.031,0.420,-2.380,-0.630
762042,0.066,0.045,1.027,0.420,-2.380,-0.560
762062,0.067,0.046,1.031,0.490,-2.450,-0.560
762082,0.067,0.045,1.030,0.490,-2.450,-0.560
762106,0.066,0.047,1.031,0.350,-2.380,-0.630
762125,0.065,0.046,1.027,0.420,-2.310,-0.630
762145,0.067,0.048,1.031,0.630,-2.380,-0.630
762165,0.066,0.044,1.030,0.490,-2.380,-0.630
762185,0.068,0.046,1.030,0.280,-2.240,-0.630
762205,0.066,0.044,1.027,0.280,-2.380,-0.630
762225,0.065,0.046,1.028,0.210,-2.450,-0.700
762249,0.065,0.046,1.033,0.140,-2.380,-0.630
762269,0.065,0.045,1.030,0.280,-2.450,-0.560
762289,0.066,0.046,1.029,0.280,-2.520,-0.490
762309,0.065,0.046,1.030,0.350,-2.520,-0.560
762329,0.063,0.046,1.032,0.350,-2.380,-0.560
762349,0.065,0.046,1.029,0.350,-2.240,-0.630
762369,0.064,0.046,1.029,0.420,-2.450,-0.490
762389,0.066,0.044,1.033,0.350,-2.380,-0.560
762409,0.064,0.048,1.033,0.210,-2.310,-0.630
762429,0.066,0.045,1.028,0.280,-2.450,-0.630
762449,0.065,0.046,1.029,0.490,-2.450,-0.630
762469,0.067,0.046,1.032,0.350,-2.520,-0.630
762486,0.066,0.047,1.031,0.280,-2.310,-0.700
762510,0.064,0.048,1.031,0.280,-2.380,-0.560
762530,0.067,0.045,1.034,0.210,-2.450,-0.560
762549,0.064,0.047,1.030,0.280,-2.450,-0.560
762567,0.067,0.047,1.025,0.420,-2.380,-0.630
762586,0.066,0.045,1.033,0.630,-2.520,-0.560
762611,0.066,0.045,1.031,0.420,-2.450,-0.630
762626,0.066,0.045,1.027,0.350,-2.240,-0.490
762651,0.066,0.045,1.029,0.420,-2.380,-0.630
762675,0.062,0.045,1.032,0.630,-2.450,-0.700
762693,0.065,0.044,1.031,0.350,-2.380,-0.560
762715,0.062,0.047,1.030,0.280,-2.310,-0.560
762733,0.067,0.045,1.028,0.350,-2.380,-0.490
762757,0.066,0.044,1.034,0.420,-2.310,-0.560
762777,0.067,0.047,1.032,0.210,-2.450,-0.560
762797,0.067,0.046,1.028,0.210,-2.310,-0.560
762817,0.065,0.046,1.031,0.280,-2.520,-0.560
762837,0.066,0.045,1.031,0.280,-2.380,-0.630
762854,0.065,0.046,1.031,0.280,-2.310,-0.630
762874,0.064,0.049,1.028,0.280,-2.240,-0.630
762894,0.066,0.044,1.032,0.560,-2.310,-0.560
762918,0.066,0.044,1.032,0.490,-2.450,-0.700
762938,0.065,0.045,1.029,0.350,-2.450,-0.560
762958,0.064,0.044,1.026,0.350,-2.450,-0.560
762977,0.068,0.045,1.031,0.560,-2.450,-0.560
762997,0.066,0.046,1.032,0.350,-2.450,-0.490
763016,0.066,0.046,1.031,0.350,-2.380,-0.560
763036,0.067,0.045,1.030,0.490,-2.450,-0.630
763056,0.066,0.044,1.032,0.420,-2.380,-0.560
763081,0.064,0.046,1.030,0.070,-2.310,-0.630
763096,0.069,0.044,1.025,0.280,-2.310,-0.560
763116,0.066,0.046,1.031,0.350,-2.380,-0.630
763136,0.065,0.047,1.037,0.280,-2.380,-0.560
763156,0.066,0.046,1.028,0.070,-2.310,-0.560
763176,0.067,0.048,1.029,0.420,-2.310,-0.630
763201,0.064,0.045,1.034,0.350,-2.310,-0.560
763220,0.064,0.045,1.034,0.420,-2.380,-0.560
763240,0.062,0.045,1.029,0.280,-2.450,-0.630
763260,0.065,0.047,1.027,0.490,-2.450,-0.560
763284,0.064,0.044,1.030,0.420,-2.310,-0.630
763304,0.065,0.043,1.030,0.420,-2.380,-0.630
763324,0.067,0.046,1.033,0.420,-2.310,-0.560
763343,0.065,0.044,1.031,0.350,-2.380,-0.560
763363,0.067,0.045,1.034,0.280,-2.310,-0.490
763387,0.067,0.048,1.032,0.280,-2.310,-0.630
763407,0.067,0.046,1.027,0.210,-2.310,-0.560
763427,0.068,0.047,1.031,0.350,-2.520,-0.630
763447,0.065,0.045,1.034,0.350,-2.450,-0.560
763464,0.066,0.048,1.030,0.350,-2.310,-0.560
763484,0.066,0.047,1.026,0.420,-2.450,-0.630
763504,0.067,0.048,1.033,0.490,-2.520,-0.560
763523,0.066,0.047,1.033,0.280,-2.380,-0.630
763543,0.067,0.047,1.030,0.280,-2.310,-0.560
763568,0.067,0.047,1.030,0.420,-2.380,-0.630
763588,0.064,0.046,1.029,0.350,-2.310,-0.560
763608,0.066,0.046,1.028,0.350,-2.380,-0.490
763628,0.067,0.044,1.028,0.490,-2.380,-0.630
763648,0.065,0.043,1.031,0.420,-2.380,-0.560
763668,0.067,0.044,1.034,0.490,-2.450,-0.560
763688,0.064,0.045,1.031,0.350,-2.310,-0.560
763704,0.065,0.047,1.031,0.280,-2.520,-0.490
763724,0.066,0.047,1.033,0.280,-2.520,-0.630
763744,0.067,0.047,1.028,0.210,-2.380,-0.630
763764,0.065,0.046,1.028,0.350,-2.380,-0.560
763784,0.065,0.045,1.031,0.420,-2.380,-0.630
763808,0.064,0.043,1.034,0.420,-2.380,-0.630
763824,0.066,0.043,1.028,0.350,-2.520,-0.630
763848,0.064,0.045,1.028,0.350,-2.450,-0.560
763864,0.066,0.047,1.034,0.210,-2.590,-0.490
763886,0.065,0.047,1.032,0.140,-2.310,-0.630
763906,0.066,0.049,1.029,0.140,-2.240,-0.490
763926,0.064,0.045,1.029,0.210,-2.380,-0.560
763950,0.064,0.047,1.032,0.350,-2.520,-0.630
763967,0.065,0.046,1.031,0.490,-2.380,-0.630
763986,0.066,0.048,1.029,0.630,-2.380,-0.630
764005,0.065,0.044,1.032,0.630,-2.380,-0.630
764030,0.064,0.044,1.033,0.490,-2.450,-0.560
764050,0.066,0.044,1.030,0.350,-2.380,-0.630
764069,0.064,0.047,1.031,0.420,-2.380,-0.560
764093,0.065,0.046,1.033,0.210,-2.520,-0.630
764113,0.064,0.045,1.032,0.070,-2.520,-0.560
764133,0.066,0.047,1.028,0.210,-2.520,-0.560
764153,0.065,0.046,1.027,0.350,-2.520,-0.630
764173,0.064,0.048,1.033,0.210,-2.520,-0.490
764190,0.066,0.048,1.029,0.140,-2.380,-0.560
764211,0.063,0.048,1.031,0.350,-2.380,-0.560
764231,0.065,0.046,1.029,0.490,-2.450,-0.560
764251,0.067,0.045,1.033,0.350,-2.310,-0.630
764275,0.064,0.045,1.030,0.350,-2.450,-0.630
764295,0.066,0.047,1.030,0.350,-2.310,-0.630
764310,0.067,0.043,1.033,0.350,-2.450,-0.700
764335,0.064,0.045,1.032,0.280,-2.450,-0.560
764355,0.064,0.047,1.030,0.350,-2.380,-0.630
764375,0.066,0.045,1.030,0.490,-2.380,-0.490
764395,0.066,0.046,1.034,0.280,-2.450,-0.560
764415,0.066,0.047,1.031,0.350,-2.310,-0.560
764432,0.066,0.048,1.029,0.490,-2.240,-0.560
764451,0.065,0.045,1.032,0.350,-2.310,-0.630
764476,0.067,0.048,1.031,0.280,-2.380,-0.630
764495,0.066,0.047,1.028,0.350,-2.380,-0.490
764511,0.065,0.045,1.031,0.490,-2.380,-0.630
764531,0.066,0.044,1.032,0.280,-2.450,-0.630
764556,0.064,0.044,1.029,0.140,-2.380,-0.700
764576,0.068,0.045,1.024,0.280,-2.380,-0.560
764596,0.065,0.045,1.029,0.420,-2.450,-0.560
764615,0.065,0.046,1.032,0.490,-2.520,-0.630
764636,0.066,0.045,1.027,0.140,-2.310,-0.630
764656,0.066,0.045,1.031,0.350,-2.520,-0.560
764677,0.065,0.045,1.033,0.420,-2.590,-0.630
764697,0.064,0.047,1.032,0.210,-2.450,-0.560
764716,0.066,0.047,1.029,0.420,-2.380,-0.630
764736,0.065,0.045,1.028,0.560,-2.450,-0.630
764761,0.067,0.045,1.033,0.630,-2.450,-0.630
764781,0.066,0.046,1.031,0.140,-2.450,-0.630
764799,0.065,0.046,1.028,0.420,-2.310,-0.630
764818,0.065,0.045,1.030,0.420,-2.380,-0.630
764838,0.064,0.044,1.031,0.210,-2.450,-0.630
764863,0.066,0.045,1.030,0.210,-2.450,-0.630
764883,0.063,0.044,1.026,0.210,-2.380,-0.560
764900,0.064,0.046,1.034,0.350,-2.520,-0.560
764919,0.065,0.047,1.031,0.210,-2.450,-0.560
764939,0.063,0.047,1.031,0.280,-2.450,-0.560
764958,0.065,0.045,1.030,0.420,-2.380,-0.560
764983,0.063,0.044,1.032,0.420,-2.520,-0.560
765003,0.063,0.045,1.031,0.210,-2.450,-0.700
765023,0.065,0.046,1.032,0.350,-2.310,-0.560
765042,0.064,0.045,1.027,0.420,-2.450,-0.630
765061,0.066,0.045,1.033,0.210,-2.450,-0.560
765081,0.066,0.047,1.031,0.210,-2.450,-0.560
765101,0.066,0.049,1.030,0.350,-2.380,-0.560
765121,0.065,0.045,1.034,0.350,-2.520,-0.630
765141,0.063,0.047,1.033,0.280,-2.520,-0.560
765166,0.066,0.047,1.030,0.210,-2.380,-0.630
765185,0.064,0.048,1.028,0.350,-2.450,-0.630
765205,0.064,0.045,1.035,0.280,-2.380,-0.630
765229,0.065,0.044,1.031,0.210,-2.380,-0.630
765249,0.066,0.046,1.029,0.350,-2.520,-0.630
765269,0.064,0.044,1.032,0.350,-2.450,-0.700
765288,0.062,0.046,1.032,0.280,-2.450,-0.560
765312,0.064,0.047,1.032,0.140,-2.450,-0.630
765332,0.067,0.045,1.029,0.280,-2.450,-0.490
765352,0.067,0.044,1.032,0.420,-2.520,-0.560
765372,0.064,0.045,1.033,0.210,-2.450,-0.630
765392,0.065,0.049,1.029,0.280,-2.590,-0.630
765411,0.067,0.046,1.028,0.420,-2.520,-0.490
765431,0.064,0.047,1.030,0.560,-2.520,-0.560
765451,0.067,0.046,1.031,0.490,-2.380,-0.630
765471,0.067,0.044,1.028,0.280,-2.520,-0.630
765490,0.068,0.045,1.027,0.280,-2.380,-0.560
765515,0.063,0.042,1.031,0.490,-2.450,-0.630
765534,0.064,0.044,1.031,0.280,-2.380,-0.560
765554,0.067,0.044,1.030,0.210,-2.450,-0.490
765574,0.065,0.046,1.030,0.280,-2.450,-0.630
765599,0.066,0.044,1.030,0.280,-2.450,-0.700
765619,0.065,0.046,1.036,0.280,-2.450,-0.560
765639,0.064,0.048,1.029,0.280,-2.380,-0.560
765656,0.065,0.045,1.027,0.560,-2.450,-0.630
765676,0.065,0.045,1.034,0.350,-2.450,-0.490
765696,0.067,0.045,1.032,0.350,-2.450,-0.700
765715,0.065,0.045,1.029,0.350,-2.310,-0.630
765740,0.068,0.048,1.030,0.490,-2.520,-0.560
765760,0.067,0.047,1.033,0.210,-2.450,-0.630
765784,0.065,0.046,1.031,0.210,-2.450,-0.700
765804,0.066,0.047,1.032,0.210,-2.380,-0.630
765823,0.065,0.047,1.031,0.420,-2.660,-0.560
765844,0.066,0.046,1.032,0.420,-2.450,-0.560
765864,0.065,0.046,1.030,0.280,-2.310,-0.630
765884,0.066,0.047,1.027,0.350,-2.450,-0.560
765906,0.065,0.047,1.031,0.420,-2.520,-0.560
765926,0.066,0.045,1.033,0.140,-2.310,-0.630
765945,0.065,0.047,1.029,0.140,-2.310,-0.490
765965,0.063,0.047,1.029,0.350,-2.590,-0.560
765985,0.065,0.043,1.035,0.280,-2.660,-0.630
766005,0.066,0.046,1.032,0.210,-2.590,-0.490
766028,0.066,0.047,1.028,0.210,-2.450,-0.560
766048,0.067,0.045,1.030,0.280,-2.380,-0.630
766068,0.064,0.046,1.030,0.280,-2.310,-0.560
766088,0.066,0.047,1.032,0.280,-2.310,-0.490
766108,0.064,0.047,1.029,0.350,-2.450,-0.490
766128,0.063,0.047,1.036,0.350,-2.450,-0.630
766152,0.065,0.043,1.036,0.070,-2.660,-0.560
766170,0.066,0.049,1.032,0.070,-2.240,-0.560
766191,0.062,0.048,1.029,0.210,-2.520,-0.490
766215,0.064,0.047,1.033,0.560,-2.590,-0.490
766235,0.067,0.046,1.036,0.350,-2.310,-0.700
766255,0.063,0.046,1.031,0.210,-2.240,-0.560
766273,0.067,0.046,1.029,0.490,-2.380,-0.490
766293,0.067,0.045,1.034,0.630,-2.590,-0.630
766313,0.065,0.046,1.033,0.490,-2.590,-0.630
766333,0.066,0.046,1.029,0.350,-2.520,-0.560
766353,0.064,0.044,1.029,0.490,-2.520,-0.560
766377,0.062,0.046,1.033,0.280,-2.310,-0.630
766395,0.067,0.047,1.031,0.350,-2.450,-0.630
766419,0.068,0.048,1.030,0.140,-2.310,-0.630
766439,0.068,0.045,1.030,0.210,-2.310,-0.630
766459,0.064,0.045,1.033,0.210,-2.450,-0.630
766476,0.064,0.046,1.032,0.350,-2.240,-0.630
766497,0.067,0.046,1.029,0.420,-2.310,-0.630
766521,0.066,0.044,1.032,0.420,-2.590,-0.560
766540,0.067,0.045,1.032,0.630,-2.660,-0.630
766557,0.065,0.048,1.030,0.350,-2.450,-0.630
766577,0.062,0.045,1.032,0.210,-2.380,-0.700
766597,0.064,0.046,1.032,0.280,-2.450,-0.700
766616,0.067,0.049,1.031,0.140,-2.310,-0.630
766639,0.066,0.046,1.030,0.350,-2.380,-0.630
766661,0.064,0.046,1.029,0.210,-2.520,-0.560
766681,0.065,0.046,1.032,0.420,-2.380,-0.560
766705,0.067,0.047,1.029,0.490,-2.520,-0.560
766725,0.065,0.046,1.030,0.560,-2.450,-0.630
766745,0.064,0.043,1.033,0.490,-2.310,-0.560
766763,0.065,0.047,1.034,0.350,-2.310,-0.490
766787,0.065,0.046,1.029,0.350,-2.240,-0.490
766807,0.067,0.044,1.029,0.490,-2.380,-0.630
766827,0.063,0.044,1.031,0.420,-2.520,-0.630
766847,0.065,0.044,1.033,0.210,-2.380,-0.630
766867,0.065,0.047,1.028,0.210,-2.380,-0.560
766885,0.066,0.044,1.027,0.280,-2.520,-0.560
766909,0.066,0.045,1.030,0.350,-2.590,-0.560
766929,0.065,0.048,1.033,0.210,-2.380,-0.630
766949,0.068,0.047,1.030,0.280,-2.380,-0.560
766969,0.067,0.045,1.031,0.350,-2.380,-0.560
766989,0.065,0.046,1.031,0.420,-2.380,-0.630
767009,0.066,0.044,1.028,0.490,-2.450,-0.490
767029,0.067,0.043,1.028,0.490,-2.520,-0.560
767047,0.067,0.045,1.031,0.420,-2.450,-0.630
767069,0.067,0.046,1.030,0.280,-2.310,-0.630
767089,0.066,0.044,1.027,0.350,-2.310,-0.560
767109,0.067,0.045,1.032,0.420,-2.380,-0.560
767129,0.066,0.046,1.032,0.630,-2.380,-0.630
767149,0.061,0.047,1.030,0.560,-2.380,-0.560
767173,0.063,0.045,1.029,0.350,-2.380,-0.700
767193,0.066,0.043,1.028,0.280,-2.450,-0.630
767213,0.063,0.043,1.035,0.210,-2.450,-0.560
767233,0.063,0.046,1.029,0.210,-2.450,-0.560
767249,0.065,0.045,1.029,0.280,-2.450,-0.490
767269,0.067,0.046,1.033,0.420,-2.310,-0.630
767288,0.066,0.046,1.028,0.210,-2.450,-0.630
767308,0.064,0.044,1.028,0.280,-2.450,-0.630
767328,0.065,0.046,1.030,0.350,-2.450,-0.700
767348,0.068,0.045,1.034,0.280,-2.380,-0.630
767373,0.067,0.045,1.032,0.420,-2.450,-0.630
767390,0.066,0.045,1.028,0.420,-2.380,-0.630
767411,0.066,0.046,1.031,0.350,-2.450,-0.490
767431,0.063,0.046,1.033,0.070,-2.380,-0.560
767451,0.066,0.047,1.032,0.210,-2.520,-0.630
767470,0.066,0.046,1.030,0.350,-2.380,-0.630
767493,0.066,0.046,1.031,0.210,-2.520,-0.420
767515,0.068,0.046,1.033,0.280,-2.380,-0.560
767535,0.066,0.047,1.031,0.140,-2.450,-0.630
767555,0.065,0.045,1.029,0.280,-2.450,-0.560
767573,0.066,0.047,1.031,0.280,-2.380,-0.630
767595,0.066,0.048,1.029,0.350,-2.380,-0.700
767610,0.066,0.046,1.030,0.490,-2.310,-0.490
767630,0.065,0.045,1.030,0.280,-2.450,-0.630
767655,0.066,0.044,1.032,0.280,-2.380,-0.630
767675,0.067,0.048,1.033,0.210,-2.450,-0.560
767695,0.067,0.048,1.029,0.350,-2.450,-0.700
767715,0.064,0.046,1.034,0.420,-2.520,-0.630
767733,0.065,0.047,1.029,0.350,-2.380,-0.630
767755,0.065,0.048,1.030,0.490,-2.450,-0.630
767775,0.066,0.045,1.031,0.420,-2.450,-0.630
767795,0.065,0.046,1.033,0.560,-2.520,-0.630
767815,0.064,0.044,1.032,0.350,-2.380,-0.630
767835,0.067,0.046,1.029,0.280,-2.380,-0.490
767854,0.066,0.046,1.031,0.420,-2.520,-0.560
767878,0.065,0.044,1.034,0.350,-2.450,-0.630
767898,0.067,0.046,1.030,0.350,-2.450,-0.490
767917,0.063,0.048,1.028,0.350,-2.380,-0.490
767938,0.063,0.047,1.030,0.350,-2.380,-0.490
767958,0.064,0.048,1.032,0.280,-2.380,-0.630
767973,0.066,0.045,1.031,0.210,-2.380,-0.630
767997,0.065,0.044,1.028,0.140,-2.310,-0.700
768017,0.066,0.046,1.032,0.420,-2.310,-0.560
768041,0.066,0.046,1.033,0.420,-2.380,-0.560
768061,0.067,0.044,1.031,0.350,-2.380,-0.700
768081,0.064,0.045,1.031,0.490,-2.380,-0.630
768102,0.066,0.045,1.032,0.420,-2.310,-0.630
768126,0.066,0.046,1.035,0.490,-2.380,-0.630
768146,0.065,0.045,1.032,0.210,-2.450,-0.630
768166,0.065,0.046,1.029,0.210,-2.450,-0.560
768186,0.065,0.046,1.031,0.560,-2.450,-0.490
768206,0.066,0.047,1.033,0.350,-2.450,-0.560
768226,0.064,0.045,1.030,0.560,-2.520,-0.560
768246,0.065,0.044,1.030,0.420,-2.520,-0.630
768266,0.067,0.044,1.030,0.350,-2.450,-0.630
768286,0.066,0.047,1.030,0.210,-2.310,-0.700
768304,0.066,0.046,1.032,0.210,-2.310,-0.630
768326,0.066,0.047,1.030,0.280,-2.450,-0.630
768344,0.067,0.047,1.031,0.280,-2.380,-0.490
768364,0.066,0.048,1.035,0.350,-2.310,-0.630
768387,0.065,0.047,1.031,0.350,-2.380,-0.560
768407,0.065,0.045,1.031,0.420,-2.450,-0.630
768431,0.063,0.045,1.030,0.490,-2.520,-0.490
768451,0.063,0.045,1.033,0.350,-2.520,-0.630
768466,0.066,0.045,1.030,0.490,-2.310,-0.560
768491,0.063,0.047,1.028,0.350,-2.310,-0.630
768510,0.065,0.047,1.033,0.420,-2.310,-0.630
768531,0.066,0.046,1.031,0.280,-2.310,-0.560
768553,0.065,0.045,1.028,0.280,-2.310,-0.630
768573,0.067,0.046,1.028,0.560,-2.380,-0.700
768593,0.067,0.045,1.031,0.490,-2.380,-0.560
768613,0.066,0.047,1.030,0.350,-2.380,-0.700
768632,0.064,0.046,1.030,0.350,-2.310,-0.630
768652,0.065,0.047,1.031,0.350,-2.240,-0.630
768672,0.065,0.046,1.032,0.420,-2.240,-0.560
768692,0.068,0.046,1.032,0.280,-2.380,-0.630
768717,0.063,0.044,1.030,0.280,-2.450,-0.490
768737,0.066,0.048,1.031,0.490,-2.450,-0.560
768761,0.064,0.044,1.034,0.280,-2.240,-0.630
768780,0.065,0.047,1.032,0.280,-2.380,-0.560
768802,0.066,0.047,1.032,0.350,-2.310,-0.560
768822,0.066,0.047,1.029,0.420,-2.450,-0.630
768841,0.065,0.047,1.033,0.560,-2.310,-0.630
768862,0.065,0.047,1.033,0.350,-2.450,-0.560
768886,0.067,0.044,1.029,0.420,-2.380,-0.630
768906,0.068,0.044,1.032,0.560,-2.520,-0.560
768926,0.066,0.045,1.032,0.210,-2.450,-0.630
768946,0.066,0.045,1.031,0.280,-2.450,-0.560
768966,0.066,0.047,1.032,0.210,-2.450,-0.490
768990,0.063,0.048,1.029,0.280,-2.380,-0.630
769010,0.063,0.045,1.032,0.280,-2.450,-0.560
769029,0.063,0.045,1.033,0.350,-2.380,-0.560
769049,0.065,0.044,1.030,0.350,-2.380,-0.630
769074,0.065,0.045,1.031,0.350,-2.450,-0.700
769094,0.065,0.046,1.033,0.280,-2.450,-0.700
769114,0.064,0.045,1.033,0.350,-2.450,-0.630
769130,0.065,0.046,1.028,0.420,-2.380,-0.630
769153,0.066,0.047,1.029,0.350,-2.450,-0.490
769176,0.064,0.048,1.030,0.350,-2.520,-0.630
769197,0.063,0.046,1.033,0.350,-2.590,-0.700
769216,0.062,0.048,1.030,0.210,-2.520,-0.700
769236,0.065,0.046,1.031,0.210,-2.450,-0.630
769255,0.064,0.047,1.032,0.280,-2.520,-0.560
769275,0.064,0.047,1.031,0.280,-2.380,-0.560
769300,0.065,0.046,1.030,0.350,-2.450,-0.700
769320,0.064,0.045,1.031,0.420,-2.450,-0.630
769335,0.064,0.044,1.032,0.350,-2.520,-0.560
769357,0.065,0.046,1.031,0.350,-2.450,-0.630
769376,0.068,0.047,1.029,0.420,-2.310,-0.630
769401,0.066,0.046,1.029,0.420,-2.450,-0.560
769425,0.064,0.047,1.033,0.350,-2.450,-0.630
769443,0.067,0.042,1.031,0.280,-2.450,-0.630
769465,0.064,0.045,1.031,0.350,-2.450,-0.560
769485,0.066,0.046,1.030,0.420,-2.450,-0.700
769505,0.067,0.046,1.031,0.350,-2.520,-0.560
769523,0.065,0.046,1.031,0.350,-2.380,-0.630
769545,0.064,0.048,1.031,0.280,-2.310,-0.560
769565,0.065,0.048,1.031,0.210,-2.450,-0.560
769585,0.067,0.044,1.029,0.280,-2.380,-0.560
769603,0.066,0.044,1.032,0.490,-2.380,-0.630
769620,0.066,0.046,1.029,0.350,-2.380,-0.630
769642,0.065,0.045,1.029,0.350,-2.450,-0.630
769662,0.066,0.044,1.032,0.420,-2.380,-0.630
769682,0.063,0.046,1.030,0.280,-2.380,-0.630
769706,0.068,0.046,1.028,0.280,-2.310,-0.630
769724,0.065,0.046,1.029,0.350,-2.380,-0.490
769746,0.066,0.045,1.032,0.350,-2.380,-0.560
769766,0.065,0.049,1.029,0.350,-2.520,-0.630
769786,0.065,0.045,1.028,0.350,-2.380,-0.560
769806,0.066,0.046,1.032,0.560,-2.310,-0.630
769830,0.068,0.044,1.030,0.350,-2.520,-0.560
769849,0.063,0.044,1.029,0.350,-2.380,-0.560
769869,0.064,0.046,1.028,0.560,-2.380,-0.560
769886,0.065,0.043,1.030,0.280,-2.380,-0.560
769906,0.067,0.046,1.031,0.280,-2.450,-0.560
769926,0.065,0.044,1.030,0.350,-2.380,-0.560
769948,0.068,0.044,1.032,0.280,-2.380,-0.630
769968,0.064,0.044,1.034,0.350,-2.450,-0.560
769987,0.065,0.045,1.031,0.280,-2.380,-0.560
770012,0.066,0.046,1.028,0.280,-2.380,-0.560
770032,0.066,0.045,1.031,0.350,-2.520,-0.630
770052,0.065,0.046,1.031,0.420,-2.520,-0.630
770072,0.066,0.043,1.030,0.280,-2.380,-0.630
770092,0.064,0.047,1.028,0.350,-2.310,-0.700
770112,0.062,0.047,1.032,0.420,-2.310,-0.630
770130,0.064,0.044,1.032,0.420,-2.380,-0.560
770149,0.065,0.047,1.032,0.420,-2.520,-0.560
770173,0.066,0.046,1.032,0.420,-2.240,-0.630
770193,0.065,0.045,1.027,0.280,-2.380,-0.630
770216,0.064,0.048,1.033,0.350,-2.450,-0.630
770240,0.065,0.045,1.028,0.280,-2.380,-0.630
770260,0.066,0.047,1.029,0.420,-2.520,-0.560
770280,0.064,0.046,1.028,0.420,-2.380,-0.700
770300,0.063,0.046,1.032,0.420,-2.450,-0.700
770315,0.064,0.047,1.030,0.280,-2.380,-0.630
770335,0.065,0.046,1.028,0.140,-2.380,-0.560
770355,0.064,0.044,1.030,0.210,-2.450,-0.560
770375,0.065,0.046,1.033,0.350,-2.450,-0.560
770400,0.065,0.047,1.031,0.210,-2.450,-0.490
770420,0.064,0.047,1.030,0.280,-2.380,-0.700
770440,0.064,0.047,1.030,0.420,-2.450,-0.700
770460,0.064,0.047,1.030,0.420,-2.450,-0.630
770480,0.065,0.045,1.029,0.350,-2.450,-0.560
770504,0.066,0.045,1.030,0.490,-2.450,-0.630
770528,0.068,0.045,1.033,0.350,-2.450,-0.630
770548,0.065,0.045,1.031,0.350,-2.520,-0.560
770565,0.067,0.045,1.030,0.210,-2.310,-0.630
770585,0.063,0.046,1.029,0.350,-2.380,-0.490
770609,0.064,0.047,1.028,0.490,-2.380,-0.490
770629,0.065,0.045,1.032,0.210,-2.450,-0.560
770649,0.065,0.048,1.031,0.140,-2.520,-0.490
770669,0.065,0.047,1.028,0.280,-2.380,-0.560
770688,0.067,0.045,1.033,0.210,-2.450,-0.630
770707,0.066,0.049,1.034,0.210,-2.450,-0.560
770732,0.069,0.048,1.033,0.140,-2.380,-0.560
770752,0.066,0.047,1.031,0.210,-2.450,-0.560
770771,0.068,0.047,1.030,0.490,-2.380,-0.560
770796,0.066,0.046,1.030,0.560,-2.380,-0.630
770815,0.066,0.045,1.032,0.490,-2.240,-0.560
770836,0.066,0.047,1.032,0.420,-2.450,-0.630
770856,0.066,0.047,1.027,0.350,-2.380,-0.630
770875,0.065,0.044,1.032,0.350,-2.520,-0.630
770895,0.065,0.046,1.031,0.210,-2.380,-0.630
770920,0.069,0.046,1.032,0.280,-2.450,-0.630
770940,0.064,0.048,1.028,0.420,-2.450,-0.560
770960,0.064,0.045,1.032,0.420,-2.450,-0.560
770980,0.064,0.047,1.030,0.280,-2.380,-0.560
771000,0.067,0.046,1.033,0.350,-2.310,-0.630
771020,0.064,0.047,1.027,0.420,-2.380,-0.560
771040,0.063,0.044,1.030,0.420,-2.380,-0.630
771064,0.066,0.045,1.034,0.280,-2.590,-0.560
771084,0.068,0.045,1.032,0.140,-2.450,-0.560
771104,0.066,0.049,1.031,0.280,-2.380,-0.630
771124,0.067,0.049,1.030,0.210,-2.450,-0.560
771144,0.067,0.045,1.034,0.210,-2.380,-0.700
771164,0.065,0.049,1.035,0.350,-2.240,-0.630
771180,0.064,0.044,1.029,0.420,-2.310,-0.700
771204,0.063,0.043,1.028,0.280,-2.520,-0.490
771224,0.067,0.043,1.031,0.490,-2.660,-0.560
771244,0.065,0.046,1.028,0.490,-2.590,-0.560
771263,0.065,0.048,1.029,0.490,-2.590,-0.490
771284,0.065,0.047,1.032,0.210,-2.380,-0.630
771308,0.068,0.048,1.031,0.140,-2.310,-0.630
771328,0.065,0.047,1.025,0.280,-2.100,-0.630
771348,0.064,0.044,1.030,0.490,-2.310,-0.630
771364,0.064,0.042,1.035,0.210,-2.240,-0.630
771388,0.066,0.047,1.031,0.210,-2.310,-0.630
771408,0.067,0.047,1.028,0.280,-2.380,-0.560
771428,0.065,0.043,1.029,0.280,-2.520,-0.630
771448,0.065,0.045,1.032,0.140,-2.380,-0.490
771468,0.067,0.048,1.033,0.070,-2.450,-0.560
771488,0.067,0.044,1.030,0.420,-2.520,-0.560
771508,0.064,0.046,1.029,0.420,-2.520,-0.630
771525,0.065,0.049,1.030,0.210,-2.240,-0.700
771550,0.066,0.046,1.028,0.420,-2.450,-0.630
771569,0.067,0.045,1.030,0.490,-2.450,-0.630
771588,0.064,0.046,1.031,0.280,-2.520,-0.560
771609,0.066,0.046,1.033,0.210,-2.380,-0.630
771629,0.066,0.046,1.029,0.280,-2.380,-0.490
771649,0.064,0.044,1.030,0.420,-2.520,-0.560
771665,0.063,0.049,1.034,0.420,-2.310,-0.560
771685,0.065,0.046,1.032,0.420,-2.310,-0.560
771709,0.064,0.048,1.032,0.420,-2.450,-0.630
771726,0.062,0.046,1.033,0.490,-2.520,-0.560
771746,0.065,0.045,1.029,0.280,-2.520,-0.630
771770,0.066,0.047,1.031,0.280,-2.450,-0.560
771787,0.063,0.047,1.031,0.280,-2.240,-0.630
771808,0.064,0.045,1.031,0.140,-2.450,-0.490
771827,0.064,0.045,1.031,0.350,-2.380,-0.560
771847,0.064,0.046,1.030,0.490,-2.520,-0.490
771867,0.064,0.044,1.030,0.420,-2.450,-0.630
771891,0.067,0.045,1.032,0.280,-2.450,-0.560
771912,0.066,0.045,1.033,0.210,-2.310,-0.630
771932,0.065,0.047,1.030,0.280,-2.380,-0.560
771952,0.064,0.045,1.031,0.490,-2.310,-0.560
771971,0.067,0.045,1.032,0.560,-2.450,-0.630
771989,0.065,0.045,1.033,0.420,-2.380,-0.560
772013,0.064,0.044,1.029,0.350,-2.450,-0.700
772028,0.066,0.046,1.030,0.490,-2.380,-0.560
772053,0.067,0.046,1.030,0.350,-2.450,-0.560
772073,0.064,0.047,1.032,0.280,-2.450,-0.630
772091,0.064,0.046,1.029,0.210,-2.520,-0.560
772113,0.063,0.046,1.031,0.280,-2.380,-0.630
772132,0.065,0.046,1.033,0.210,-2.380,-0.700
772152,0.064,0.046,1.031,0.350,-2.450,-0.560
772176,0.066,0.047,1.031,0.210,-2.450,-0.560
772196,0.066,0.048,1.030,0.350,-2.520,-0.630
772216,0.066,0.045,1.033,0.420,-2.520,-0.630
772235,0.065,0.045,1.030,0.420,-2.380,-0.560
772256,0.065,0.047,1.030,0.420,-2.520,-0.630
772276,0.065,0.046,1.031,0.420,-2.380,-0.560
772296,0.064,0.045,1.031,0.280,-2.310,-0.630
772316,0.065,0.045,1.029,0.350,-2.660,-0.560
772336,0.064,0.044,1.029,0.420,-2.520,-0.560
772355,0.063,0.043,1.031,0.350,-2.520,-0.490
772376,0.063,0.046,1.031,0.350,-2.380,-0.560
772394,0.064,0.046,1.027,0.420,-2.450,-0.630
772417,0.066,0.046,1.031,0.350,-2.380,-0.630
772438,0.065,0.045,1.032,0.350,-2.520,-0.630
772458,0.067,0.046,1.030,0.350,-2.450,-0.630
772476,0.065,0.048,1.033,0.210,-2.520,-0.490
772497,0.064,0.046,1.028,0.210,-2.520,-0.560
772518,0.065,0.047,1.034,0.420,-2.450,-0.560
772541,0.064,0.047,1.034,0.210,-2.310,-0.560
772561,0.068,0.045,1.032,0.140,-2.380,-0.560
772576,0.063,0.043,1.029,0.560,-2.310,-0.630
772601,0.066,0.046,1.032,0.560,-2.380,-0.560
772621,0.066,0.048,1.031,0.490,-2.450,-0.560
772636,0.066,0.044,1.030,0.490,-2.380,-0.630
772661,0.065,0.046,1.029,0.490,-2.450,-0.560
772681,0.064,0.047,1.035,0.560,-2.380,-0.560
772696,0.065,0.047,1.032,0.210,-2.450,-0.630
772717,0.065,0.044,1.030,0.280,-2.450,-0.560
772741,0.064,0.045,1.028,0.350,-2.450,-0.560
772761,0.065,0.046,1.030,0.350,-2.310,-0.560
772785,0.064,0.046,1.030,0.490,-2.310,-0.560
772805,0.065,0.044,1.030,0.420,-2.380,-0.560
772825,0.066,0.046,1.030,0.350,-2.380,-0.630
772845,0.066,0.046,1.032,0.280,-2.310,-0.560
772865,0.064,0.046,1.030,0.280,-2.520,-0.630
772889,0.064,0.046,1.030,0.350,-2.380,-0.630
772906,0.066,0.046,1.031,0.350,-2.380,-0.560
772927,0.064,0.047,1.031,0.420,-2.380,-0.630
772948,0.064,0.046,1.030,0.210,-2.380,-0.560
772967,0.065,0.044,1.031,0.350,-2.380,-0.630
772987,0.065,0.046,1.031,0.490,-2.520,-0.560
773011,0.064,0.047,1.031,0.280,-2.380,-0.560
773031,0.065,0.046,1.030,0.280,-2.450,-0.560
773051,0.065,0.047,1.028,0.420,-2.380,-0.700
773070,0.063,0.047,1.031,0.560,-2.380,-0.630
773095,0.065,0.048,1.033,0.420,-2.380,-0.560
773115,0.067,0.045,1.030,0.350,-2.520,-0.560
773130,0.064,0.045,1.030,0.490,-2.380,-0.560
773155,0.065,0.046,1.029,0.420,-2.450,-0.630
773175,0.063,0.046,1.031,0.350,-2.520,-0.560
773194,0.066,0.046,1.030,0.210,-2.450,-0.490
773215,0.066,0.047,1.030,0.420,-2.450,-0.490
773235,0.065,0.047,1.032,0.420,-2.380,-0.630
773254,0.064,0.044,1.034,0.420,-2.450,-0.630
773278,0.067,0.045,1.030,0.420,-2.310,-0.560
773298,0.066,0.044,1.031,0.420,-2.310,-0.560
773318,0.066,0.045,1.032,0.420,-2.310,-0.560
773338,0.065,0.045,1.033,0.350,-2.380,-0.560
773357,0.065,0.045,1.029,0.420,-2.310,-0.630
773373,0.065,0.047,1.032,0.350,-2.380,-0.560
773398,0.065,0.046,1.032,0.350,-2.520,-0.630
773418,0.066,0.046,1.033,0.280,-2.310,-0.630
773433,0.065,0.046,1.030,0.490,-2.380,-0.560
773458,0.065,0.045,1.031,0.420,-2.310,-0.560
773478,0.067,0.047,1.032,0.350,-2.380,-0.630
773495,0.066,0.045,1.029,0.210,-2.240,-0.560
773517,0.065,0.045,1.027,0.350,-2.310,-0.560
773537,0.067,0.047,1.032,0.420,-2.520,-0.560
773559,0.064,0.047,1.033,0.280,-2.450,-0.630
773579,0.064,0.046,1.031,0.210,-2.380,-0.560
773603,0.066,0.045,1.030,0.420,-2.520,-0.560
773620,0.064,0.045,1.032,0.210,-2.520,-0.560
773640,0.067,0.046,1.034,0.280,-2.380,-0.700
773664,0.066,0.045,1.031,0.350,-2.450,-0.630
773684,0.067,0.047,1.028,0.350,-2.380,-0.630
773704,0.066,0.045,1.030,0.280,-2.450,-0.560
773721,0.064,0.044,1.030,0.350,-2.450,-0.490
773744,0.065,0.047,1.029,0.350,-2.450,-0.560
773763,0.066,0.044,1.032,0.420,-2.520,-0.630
773781,0.066,0.046,1.031,0.350,-2.450,-0.630
773804,0.065,0.045,1.034,0.420,-2.450,-0.560
773824,0.065,0.046,1.031,0.280,-2.310,-0.700
773844,0.064,0.046,1.029,0.420,-2.380,-0.630
773864,0.066,0.045,1.030,0.350,-2.380,-0.630
773884,0.065,0.046,1.029,0.280,-2.380,-0.630
773904,0.064,0.046,1.031,0.350,-2.590,-0.630
773924,0.065,0.045,1.032,0.210,-2.520,-0.700
773944,0.063,0.048,1.032,0.350,-2.380,-0.560
773964,0.065,0.045,1.027,0.490,-2.380,-0.560
773984,0.066,0.046,1.031,0.560,-2.310,-0.560
774008,0.065,0.044,1.032,0.490,-2.380,-0.630
774028,0.065,0.047,1.030,0.420,-2.520,-0.700
774048,0.067,0.044,1.026,0.350,-2.310,-0.630
774068,0.064,0.044,1.030,0.280,-2.310,-0.630
774088,0.066,0.045,1.032,0.280,-2.240,-0.630
774106,0.063,0.045,1.030,0.280,-2.590,-0.490
774125,0.064,0.046,1.028,0.350,-2.520,-0.630
774150,0.063,0.046,1.033,0.350,-2.380,-0.630
774170,0.065,0.047,1.035,0.280,-2.450,-0.560
774192,0.067,0.047,1.031,0.210,-2.380,-0.700
774214,0.065,0.048,1.028,0.420,-2.240,-0.490
774236,0.067,0.048,1.034,0.280,-2.380,-0.630
774256,0.065,0.049,1.033,0.280,-2.520,-0.560
774275,0.066,0.047,1.027,0.280,-2.310,-0.630
774295,0.066,0.045,1.029,0.420,-2.520,-0.490
774311,0.063,0.044,1.035,0.420,-2.520,-0.630
774336,0.065,0.046,1.032,0.210,-2.380,-0.490
774355,0.066,0.046,1.028,0.350,-2.380,-0.560
774375,0.065,0.047,1.030,0.420,-2.380,-0.630
774399,0.066,0.047,1.032,0.280,-2.310,-0.560
774419,0.065,0.045,1.032,0.210,-2.380,-0.560
774439,0.063,0.048,1.027,0.350,-2.310,-0.560
774454,0.064,0.045,1.032,0.490,-2.520,-0.630
774479,0.067,0.044,1.030,0.140,-2.380,-0.630
774498,0.067,0.044,1.029,0.350,-2.380,-0.560
774515,0.064,0.045,1.033,0.350,-2.450,-0.630
774539,0.065,0.047,1.034,0.350,-2.520,-0.630
774559,0.064,0.046,1.033,0.280,-2.310,-0.700
774576,0.066,0.046,1.027,0.420,-2.240,-0.630
774599,0.063,0.045,1.029,0.420,-2.240,-0.700
774619,0.063,0.047,1.033,0.420,-2.240,-0.630
774639,0.065,0.045,1.030,0.280,-2.380,-0.560
774659,0.063,0.043,1.027,0.630,-2.520,-0.560
774679,0.066,0.041,1.031,0.700,-2.590,-0.560
774699,0.066,0.048,1.031,0.350,-2.310,-0.700
774716,0.067,0.047,1.027,0.210,-2.380,-0.560
774736,0.064,0.044,1.033,0.210,-2.170,-0.630
774760,0.062,0.046,1.031,0.280,-2.310,-0.700
774780,0.067,0.046,1.033,0.140,-2.310,-0.630
774804,0.064,0.042,1.027,0.350,-2.450,-0.490
774824,0.065,0.045,1.030,0.490,-2.520,-0.490
774842,0.066,0.047,1.034,0.420,-2.380,-0.560
774859,0.065,0.046,1.031,0.420,-2.310,-0.490
774883,0.064,0.048,1.030,0.490,-2.380,-0.560
774903,0.064,0.046,1.031,0.490,-2.520,-0.490
774922,0.063,0.046,1.032,0.420,-2.520,-0.630
774947,0.064,0.047,1.031,0.350,-2.380,-0.700
774963,0.064,0.048,1.034,0.420,-2.380,-0.630
774986,0.065,0.044,1.033,0.280,-2.450,-0.560
775007,0.066,0.046,1.031,0.210,-2.380,-0.630
775024,0.065,0.046,1.029,0.350,-2.450,-0.560
775047,0.067,0.046,1.031,0.490,-2.590,-0.560
775067,0.066,0.044,1.034,0.490,-2.310,-0.560
775086,0.066,0.047,1.029,0.280,-2.310,-0.700
775111,0.065,0.046,1.029,0.350,-2.240,-0.490
775131,0.066,0.046,1.029,0.560,-2.240,-0.630
775150,0.065,0.046,1.035,0.350,-2.520,-0.630
775166,0.063,0.045,1.029,0.350,-2.380,-0.490
775186,0.064,0.048,1.031,0.210,-2.520,-0.630
775211,0.066,0.047,1.034,0.420,-2.450,-0.700
775231,0.065,0.044,1.033,0.350,-2.450,-0.630
775250,0.065,0.045,1.028,0.420,-2.450,-0.560
775271,0.066,0.045,1.028,0.560,-2.380,-0.630
775291,0.066,0.044,1.034,0.140,-2.240,-0.560
775311,0.066,0.045,1.029,0.070,-2.450,-0.560
775332,0.065,0.047,1.026,0.280,-2.520,-0.700
775351,0.065,0.046,1.031,0.280,-2.520,-0.630
775370,0.064,0.045,1.034,0.280,-2.520,-0.560
775391,0.062,0.046,1.028,0.420,-2.380,-0.630
775411,0.064,0.045,1.027,0.700,-2.380,-0.560
775431,0.065,0.046,1.033,0.560,-2.450,-0.630
775452,0.065,0.047,1.031,0.350,-2.240,-0.630
775471,0.064,0.046,1.025,0.350,-2.380,-0.700
775490,0.064,0.046,1.033,0.280,-2.450,-0.630
775511,0.063,0.043,1.033,0.000,-2.450,-0.490
775531,0.064,0.048,1.030,-0.070,-2.590,-0.420
775551,0.063,0.046,1.031,0.210,-2.520,-0.420
775571,0.065,0.048,1.035,0.560,-2.520,-0.630
775591,0.065,0.047,1.031,0.280,-2.380,-0.560
775611,0.064,0.046,1.030,0.560,-2.310,-0.630
775635,0.064,0.043,1.032,0.420,-2.240,-0.560
775653,0.064,0.045,1.030,0.210,-2.310,-0.560
775675,0.063,0.046,1.030,0.140,-2.520,-0.630
775692,0.064,0.046,1.032,0.280,-2.520,-0.490
775716,0.064,0.050,1.029,0.420,-2.660,-0.490
775736,0.066,0.048,1.034,0.280,-2.520,-0.560
775756,0.065,0.047,1.027,0.280,-2.450,-0.630
775776,0.064,0.044,1.031,0.490,-2.520,-0.630
775795,0.065,0.045,1.034,0.350,-2.450,-0.630
775815,0.066,0.049,1.030,0.350,-2.310,-0.560
775837,0.067,0.047,1.030,0.210,-2.450,-0.560
775861,0.063,0.047,1.027,0.350,-2.310,-0.630
775880,0.062,0.045,1.033,0.210,-2.380,-0.490
775904,0.065,0.047,1.029,0.350,-2.380,-0.560
775924,0.067,0.046,1.029,0.280,-2.380,-0.630
775941,0.065,0.045,1.034,0.490,-2.450,-0.560
775960,0.065,0.045,1.034,0.420,-2.380,-0.630
775980,0.064,0.047,1.026,0.350,-2.380,-0.560
776005,0.063,0.047,1.028,0.490,-2.380,-0.630
776025,0.064,0.046,1.031,0.490,-2.380,-0.700
776049,0.064,0.046,1.034,0.210,-2.380,-0.560
776069,0.065,0.048,1.030,0.210,-2.310,-0.630
776089,0.064,0.046,1.029,0.280,-2.450,-0.700
776109,0.063,0.047,1.030,0.350,-2.450,-0.630
776129,0.063,0.045,1.033,0.350,-2.450,-0.560
776149,0.065,0.045,1.029,0.280,-2.450,-0.630
776169,0.065,0.046,1.032,0.560,-2.450,-0.630
776185,0.065,0.049,1.034,0.350,-2.660,-0.630
776205,0.066,0.046,1.029,0.280,-2.380,-0.630
776225,0.065,0.046,1.030,0.350,-2.380,-0.560
776249,0.065,0.046,1.031,0.350,-2.380,-0.560
776269,0.066,0.046,1.032,0.280,-2.380,-0.630
776289,0.063,0.045,1.027,0.490,-2.380,-0.560
776309,0.065,0.045,1.029,0.350,-2.520,-0.630
776329,0.064,0.044,1.033,0.350,-2.450,-0.490
776349,0.067,0.045,1.032,0.350,-2.450,-0.560
776369,0.065,0.045,1.029,0.350,-2.450,-0.560
776392,0.064,0.046,1.029,0.420,-2.310,-0.560
776412,0.064,0.047,1.033,0.210,-2.450,-0.490
776432,0.064,0.046,1.029,0.140,-2.380,-0.560
776452,0.065,0.045,1.030,0.350,-2.520,-0.560
776472,0.067,0.047,1.029,0.350,-2.450,-0.560
776495,0.066,0.046,1.033,0.350,-2.380,-0.560
776512,0.064,0.046,1.029,0.210,-2.520,-0.560
776531,0.063,0.044,1.030,0.490,-2.450,-0.560
776552,0.063,0.045,1.036,0.420,-2.450,-0.560
776576,0.064,0.048,1.032,0.140,-2.380,-0.630
776596,0.067,0.045,1.028,0.420,-2.310,-0.630
776613,0.066,0.046,1.033,0.560,-2.520,-0.630
776636,0.064,0.047,1.032,0.420,-2.450,-0.560
776656,0.067,0.047,1.031,0.210,-2.380,-0.700
776676,0.064,0.044,1.029,0.420,-2.450,-0.560
776696,0.065,0.047,1.035,0.350,-2.380,-0.630
776716,0.064,0.046,1.033,0.210,-2.520,-0.560
776731,0.063,0.047,1.028,0.420,-2.380,-0.560
776751,0.064,0.046,1.032,0.420,-2.380,-0.630
776771,0.064,0.047,1.031,0.350,-2.450,-0.630
776796,0.065,0.046,1.028,0.350,-2.310,-0.700
776816,0.064,0.047,1.030,0.490,-2.310,-0.560
776836,0.066,0.045,1.032,0.490,-2.450,-0.630
776855,0.066,0.045,1.033,0.280,-2.520,-0.630
776875,0.064,0.047,1.029,0.350,-2.520,-0.630
776891,0.065,0.045,1.034,0.490,-2.520,-0.560
776916,0.066,0.045,1.033,0.350,-2.450,-0.560
776934,0.065,0.044,1.028,0.420,-2.380,-0.490
776953,0.065,0.047,1.030,0.770,-2.380,-0.630
776972,0.064,0.044,1.034,0.420,-2.310,-0.630
776997,0.064,0.046,1.032,0.420,-2.450,-0.630
777017,0.065,0.047,1.026,0.280,-2.450,-0.490
777036,0.065,0.046,1.029,0.350,-2.380,-0.490
777056,0.065,0.048,1.033,0.350,-2.520,-0.560
777076,0.066,0.045,1.032,0.140,-2.450,-0.560
777096,0.065,0.047,1.028,0.490,-2.310,-0.630
777116,0.063,0.046,1.032,0.490,-2.520,-0.560
777136,0.067,0.047,1.032,0.420,-2.450,-0.630
777160,0.063,0.045,1.028,0.350,-2.310,-0.560
777180,0.065,0.043,1.029,0.630,-2.450,-0.490
777199,0.063,0.044,1.037,0.280,-2.450,-0.490
777220,0.066,0.047,1.034,0.420,-2.450,-0.630
777240,0.065,0.048,1.029,0.280,-2.380,-0.560
777260,0.065,0.046,1.028,0.210,-2.450,-0.560
777275,0.065,0.045,1.034,0.210,-2.450,-0.560
777295,0.065,0.046,1.028,0.490,-2.450,-0.630
777315,0.066,0.048,1.030,0.560,-2.520,-0.560
777340,0.064,0.045,1.034,0.350,-2.380,-0.490
777360,0.067,0.045,1.032,0.210,-2.450,-0.700
777379,0.064,0.046,1.027,0.420,-2.520,-0.560
777396,0.065,0.045,1.033,0.420,-2.520,-0.560
777418,0.064,0.046,1.033,0.280,-2.380,-0.560
777438,0.063,0.047,1.029,0.210,-2.380,-0.490
777457,0.064,0.046,1.028,0.350,-2.660,-0.560
777477,0.064,0.046,1.036,0.350,-2.590,-0.560
777497,0.064,0.048,1.030,0.070,-2.450,-0.630
777522,0.064,0.045,1.028,0.420,-2.310,-0.490
777542,0.065,0.045,1.031,0.560,-2.450,-0.630
777562,0.066,0.046,1.032,0.350,-2.380,-0.630
777582,0.065,0.046,1.026,0.350,-2.310,-0.560
777602,0.063,0.046,1.028,0.560,-2.310,-0.560
777622,0.064,0.043,1.035,0.420,-2.450,-0.560
777642,0.064,0.047,1.034,0.280,-2.450,-0.420
777662,0.065,0.046,1.029,0.490,-2.520,-0.560
777681,0.064,0.044,1.030,0.560,-2.450,-0.630
777704,0.064,0.048,1.033,0.490,-2.520,-0.630
777724,0.064,0.046,1.032,0.350,-2.380,-0.630
777743,0.064,0.047,1.029,0.420,-2.450,-0.630
777763,0.064,0.048,1.028,0.630,-2.450,-0.700
777788,0.064,0.044,1.031,0.280,-2.380,-0.560
777808,0.066,0.045,1.027,0.280,-2.310,-0.560
777828,0.067,0.044,1.029,0.490,-2.380,-0.630
777847,0.065,0.046,1.033,0.280,-2.450,-0.560
777868,0.065,0.046,1.033,0.350,-2.590,-0.560
777885,0.065,0.045,1.025,0.350,-2.450,-0.490
777905,0.065,0.047,1.032,0.490,-2.520,-0.560
777929,0.063,0.047,1.033,0.350,-2.520,-0.490
777949,0.066,0.044,1.029,0.280,-2.310,-0.560
777969,0.066,0.045,1.030,0.490,-2.380,-0.560
777989,0.065,0.044,1.033,0.420,-2.520,-0.630
778005,0.065,0.044,1.032,0.140,-2.380,-0.560
778029,0.064,0.047,1.027,0.280,-2.380,-0.560
778049,0.065,0.045,1.030,0.280,-2.450,-0.700
778069,0.066,0.047,1.034,0.280,-2.520,-0.560
778089,0.067,0.047,1.031,0.070,-2.450,-0.490
778109,0.065,0.047,1.028,0.140,-2.520,-0.560
778125,0.064,0.046,1.035,0.490,-2.520,-0.700
778145,0.066,0.045,1.030,0.210,-2.450,-0.630
778169,0.066,0.046,1.026,0.350,-2.380,-0.560
778188,0.065,0.045,1.033,0.350,-2.450,-0.560
778209,0.064,0.046,1.032,0.350,-2.520,-0.630
778229,0.068,0.047,1.025,0.280,-2.380,-0.630
778244,0.067,0.045,1.031,0.490,-2.450,-0.630
778264,0.066,0.046,1.033,0.350,-2.380,-0.560
778289,0.066,0.045,1.031,0.350,-2.310,-0.560
778308,0.065,0.045,1.025,0.490,-2.520,-0.630
778329,0.065,0.047,1.033,0.420,-2.380,-0.560
778349,0.066,0.046,1.032,0.140,-2.450,-0.560
778368,0.066,0.044,1.030,0.140,-2.380,-0.630
778387,0.066,0.046,1.028,0.420,-2.520,-0.700
778407,0.065,0.046,1.032,0.420,-2.310,-0.630
778432,0.065,0.045,1.033,0.280,-2.380,-0.630
778450,0.065,0.046,1.029,0.280,-2.450,-0.560
778469,0.067,0.043,1.027,0.420,-2.520,-0.630
778493,0.067,0.045,1.033,0.350,-2.450,-0.630
778513,0.064,0.046,1.035,0.000,-2.380,-0.560
778533,0.066,0.046,1.027,0.140,-2.380,-0.630
778553,0.064,0.044,1.033,0.420,-2.520,-0.700
778573,0.065,0.045,1.032,0.420,-2.450,-0.560
778593,0.065,0.045,1.027,0.280,-2.380,-0.700
778608,0.065,0.046,1.028,0.490,-2.310,-0.490
778633,0.064,0.047,1.032,0.490,-2.590,-0.700
778653,0.065,0.045,1.033,0.280,-2.450,-0.560
778671,0.062,0.046,1.029,0.280,-2.310,-0.560
778693,0.066,0.047,1.029,0.350,-2.380,-0.630
778713,0.065,0.046,1.034,0.280,-2.520,-0.630
778732,0.065,0.046,1.031,0.070,-2.380,-0.560
778753,0.064,0.047,1.028,0.280,-2.310,-0.560
778772,0.066,0.048,1.029,0.420,-2.380,-0.490
778792,0.064,0.045,1.033,0.490,-2.380,-0.630
778817,0.063,0.044,1.031,0.420,-2.310,-0.630
778837,0.067,0.043,1.027,0.560,-2.450,-0.630
778856,0.066,0.045,1.030,0.700,-2.450,-0.630
778876,0.065,0.046,1.030,0.560,-2.380,-0.630
778900,0.066,0.045,1.031,0.420,-2.310,-0.560
778920,0.066,0.047,1.028,0.280,-2.310,-0.630
778940,0.064,0.046,1.031,0.490,-2.310,-0.490
778960,0.065,0.045,1.033,0.350,-2.380,-0.630
778980,0.066,0.048,1.031,0.350,-2.380,-0.560
779000,0.067,0.047,1.029,0.420,-2.450,-0.560
779020,0.064,0.046,1.032,0.420,-2.380,-0.560
779040,0.066,0.045,1.033,0.280,-2.310,-0.490
779064,0.068,0.047,1.029,0.350,-2.310,-0.630
779084,0.066,0.044,1.030,0.420,-2.520,-0.630
779100,0.063,0.045,1.031,0.350,-2.310,-0.630
779120,0.066,0.046,1.031,0.210,-2.450,-0.630
779139,0.065,0.047,1.027,0.280,-2.450,-0.630
779164,0.067,0.047,1.030,0.490,-2.380,-0.630
779188,0.065,0.045,1.033,0.420,-2.520,-0.560
779208,0.065,0.047,1.031,0.280,-2.450,-0.560
779225,0.068,0.045,1.027,0.210,-2.170,-0.630
779247,0.067,0.045,1.028,0.420,-2.380,-0.630
779267,0.064,0.046,1.031,0.420,-2.380,-0.560
779287,0.064,0.045,1.032,0.140,-2.380,-0.560
779307,0.066,0.047,1.028,0.140,-2.380,-0.560
779327,0.065,0.044,1.029,0.350,-2.380,-0.630
779346,0.063,0.047,1.037,0.280,-2.310,-0.490
779371,0.064,0.047,1.032,0.280,-2.450,-0.560
779391,0.064,0.048,1.028,0.210,-2.380,-0.630
779411,0.065,0.046,1.028,0.420,-2.450,-0.630
779431,0.062,0.046,1.031,0.420,-2.380,-0.630
779451,0.063,0.046,1.029,0.420,-2.450,-0.630
779466,0.062,0.046,1.029,0.350,-2.380,-0.560
779491,0.063,0.045,1.030,0.210,-2.450,-0.490
779511,0.065,0.047,1.034,0.070,-2.380,-0.490
779530,0.065,0.047,1.030,0.210,-2.380,-0.490
779550,0.063,0.047,1.031,0.350,-2.310,-0.630
779570,0.065,0.048,1.034,0.420,-2.380,-0.560
779594,0.064,0.048,1.034,0.280,-2.380,-0.630
779618,0.066,0.046,1.034,0.280,-2.450,-0.560
779638,0.066,0.045,1.029,0.280,-2.310,-0.560
779658,0.064,0.045,1.030,0.420,-2.450,-0.630
779678,0.064,0.044,1.033,0.630,-2.310,-0.630
779698,0.065,0.046,1.033,0.560,-2.450,-0.630
779715,0.066,0.045,1.029,0.420,-2.380,-0.630
779734,0.063,0.046,1.032,0.280,-2.450,-0.630
779754,0.065,0.044,1.030,0.210,-2.380,-0.630
779774,0.065,0.045,1.027,0.210,-2.520,-0.560
779799,0.068,0.045,1.031,0.350,-2.380,-0.560
779819,0.064,0.047,1.030,0.210,-2.450,-0.630
779837,0.066,0.044,1.032,0.280,-2.450,-0.630
779857,0.067,0.046,1.031,0.420,-2.380,-0.630
779877,0.065,0.046,1.031,0.280,-2.380,-0.630
779897,0.064,0.046,1.033,0.140,-2.380,-0.560
779917,0.065,0.048,1.031,0.280,-2.310,-0.630
779937,0.062,0.048,1.028,0.420,-2.310,-0.560
779961,0.065,0.045,1.030,0.560,-2.590,-0.560
779981,0.064,0.047,1.031,0.490,-2.590,-0.630
780001,0.065,0.047,1.031,0.280,-2.310,-0.560
780021,0.064,0.046,1.026,0.420,-2.450,-0.630
780039,0.065,0.048,1.032,0.280,-2.450,-0.490
780061,0.065,0.046,1.034,0.070,-2.310,-0.700
780085,0.064,0.047,1.032,0.000,-2.450,-0.560
780100,0.065,0.046,1.031,0.210,-2.380,-0.630
780120,0.064,0.045,1.032,0.350,-2.450,-0.560
780140,0.065,0.043,1.032,0.490,-2.380,-0.560
780162,0.066,0.048,1.030,0.630,-2.380,-0.560
780182,0.065,0.046,1.033,0.700,-2.450,-0.630
780201,0.065,0.045,1.033,0.420,-2.380,-0.630
780221,0.062,0.045,1.032,0.210,-2.240,-0.560
780241,0.064,0.045,1.031,0.280,-2.380,-0.630
780261,0.065,0.045,1.033,0.350,-2.520,-0.630
780286,0.067,0.045,1.034,0.420,-2.380,-0.560
780306,0.064,0.047,1.030,0.350,-2.310,-0.560
780321,0.065,0.045,1.032,0.420,-2.380,-0.630
780342,0.064,0.045,1.029,0.350,-2.380,-0.560
780362,0.064,0.047,1.031,0.140,-2.380,-0.490
780382,0.065,0.046,1.028,0.280,-2.450,-0.490
780402,0.064,0.044,1.031,0.280,-2.450,-0.560
780422,0.065,0.046,1.033,0.350,-2.520,-0.560
780441,0.065,0.045,1.031,0.280,-2.520,-0.490
780466,0.067,0.047,1.030,0.350,-2.310,-0.700
780486,0.067,0.045,1.031,0.280,-2.520,-0.490
780506,0.064,0.046,1.033,0.140,-2.520,-0.630
780526,0.064,0.047,1.031,0.140,-2.450,-0.630
780546,0.063,0.048,1.028,0.210,-2.520,-0.490
780563,0.064,0.047,1.031,0.420,-2.590,-0.700
780583,0.064,0.045,1.030,0.420,-2.380,-0.560
780603,0.067,0.047,1.028,0.560,-2.380,-0.560
780623,0.062,0.046,1.029,0.560,-2.520,-0.560
780643,0.065,0.047,1.034,0.420,-2.450,-0.630
780663,0.066,0.048,1.028,0.280,-2.240,-0.560
780686,0.062,0.046,1.028,0.350,-2.240,-0.630
780706,0.065,0.046,1.028,0.420,-2.240,-0.560
780726,0.067,0.045,1.033,0.350,-2.170,-0.630
780750,0.065,0.044,1.034,0.350,-2.310,-0.560
780770,0.066,0.045,1.027,0.280,-2.380,-0.630
780794,0.064,0.045,1.030,0.490,-2.380,-0.630
780813,0.066,0.045,1.032,0.420,-2.380,-0.630
780833,0.065,0.045,1.033,0.420,-2.380,-0.630
780853,0.065,0.046,1.030,0.350,-2.310,-0.630
780873,0.065,0.046,1.027,0.490,-2.310,-0.560
780892,0.064,0.045,1.032,0.210,-2.240,-0.630
780912,0.065,0.046,1.029,0.350,-2.380,-0.560
780935,0.064,0.043,1.029,0.350,-2.310,-0.560
780957,0.064,0.045,1.028,0.420,-2.520,-0.560
780977,0.064,0.045,1.032,0.420,-2.520,-0.630
780997,0.065,0.044,1.033,0.210,-2.450,-0.560
781017,0.065,0.045,1.029,0.280,-2.450,-0.560
781037,0.064,0.047,1.031,0.350,-2.590,-0.560
781052,0.064,0.049,1.031,0.070,-2.380,-0.630
781077,0.064,0.046,1.031,0.350,-2.450,-0.490
781097,0.065,0.043,1.028,0.280,-2.590,-0.700
781121,0.064,0.046,1.028,0.350,-2.450,-0.560
781141,0.065,0.045,1.032,0.420,-2.380,-0.560
781165,0.064,0.043,1.035,0.350,-2.380,-0.630
781189,0.067,0.045,1.031,0.280,-2.380,-0.560
781209,0.067,0.045,1.028,0.350,-2.380,-0.560
781229,0.064,0.044,1.029,0.560,-2.380,-0.560
781249,0.064,0.044,1.032,0.560,-2.380,-0.560
781269,0.064,0.044,1.030,0.350,-2.590,-0.560
781289,0.063,0.045,1.030,0.420,-2.590,-0.560
781307,0.063,0.046,1.032,0.280,-2.450,-0.560
781327,0.063,0.047,1.030,0.140,-2.520,-0.630
781347,0.064,0.046,1.032,0.280,-2.450,-0.560
781367,0.064,0.045,1.033,0.350,-2.450,-0.560
781387,0.066,0.045,1.031,0.210,-2.450,-0.560
781407,0.067,0.047,1.030,0.140,-2.380,-0.560
781431,0.064,0.050,1.029,0.420,-2.240,-0.560
781451,0.065,0.047,1.033,0.420,-2.520,-0.630
781471,0.063,0.048,1.032,0.490,-2.590,-0.630
781491,0.067,0.046,1.031,0.420,-2.450,-0.560
781511,0.064,0.046,1.031,0.420,-2.380,-0.560
781531,0.064,0.042,1.027,0.560,-2.450,-0.560
781548,0.063,0.045,1.034,0.280,-2.590,-0.560
781568,0.065,0.046,1.033,0.070,-2.590,-0.490
781592,0.066,0.047,1.032,0.210,-2.450,-0.560
781612,0.066,0.048,1.032,0.630,-2.450,-0.630
781632,0.064,0.046,1.032,0.560,-2.310,-0.630
781652,0.065,0.045,1.029,0.420,-2.240,-0.630
781668,0.064,0.045,1.029,0.420,-2.310,-0.560
781692,0.066,0.045,1.033,0.420,-2.310,-0.490
781712,0.066,0.046,1.034,0.420,-2.380,-0.560
781731,0.066,0.045,1.027,0.350,-2.450,-0.560
781751,0.065,0.046,1.029,0.490,-2.450,-0.560
781771,0.065,0.045,1.030,0.420,-2.590,-0.560
781790,0.063,0.048,1.031,0.210,-2.520,-0.630
781815,0.064,0.046,1.029,0.280,-2.450,-0.630
781835,0.065,0.047,1.029,0.350,-2.450,-0.560
781855,0.062,0.045,1.031,0.350,-2.520,-0.700
781875,0.063,0.046,1.029,0.210,-2.520,-0.560
781895,0.065,0.046,1.029,0.350,-2.310,-0.420
781915,0.063,0.044,1.031,0.420,-2.450,-0.630
781935,0.066,0.047,1.032,0.280,-2.450,-0.630
781954,0.065,0.049,1.030,0.210,-2.310,-0.630
781974,0.064,0.043,1.028,0.280,-2.240,-0.560
781998,0.066,0.045,1.033,0.490,-2.380,-0.560
782019,0.065,0.046,1.033,0.350,-2.590,-0.700
782037,0.064,0.045,1.030,0.140,-2.520,-0.560
782061,0.064,0.047,1.031,0.210,-2.380,-0.630
782081,0.064,0.044,1.030,0.350,-2.450,-0.560
782101,0.065,0.047,1.035,0.210,-2.520,-0.560
782121,0.064,0.047,1.032,0.070,-2.450,-0.560
782141,0.064,0.046,1.031,0.280,-2.520,-0.630
782160,0.065,0.045,1.032,0.490,-2.520,-0.560
782179,0.065,0.045,1.033,0.350,-2.450,-0.630
782204,0.064,0.047,1.029,0.280,-2.380,-0.560
782224,0.067,0.046,1.027,0.490,-2.450,-0.560
782244,0.068,0.046,1.030,0.420,-2.380,-0.560
782264,0.063,0.046,1.029,0.350,-2.450,-0.630
782279,0.066,0.044,1.028,0.280,-2.240,-0.630
782304,0.064,0.046,1.029,0.420,-2.380,-0.630
782324,0.065,0.047,1.032,0.280,-2.380,-0.630
782343,0.065,0.047,1.030,0.070,-2.310,-0.630
782364,0.066,0.046,1.028,0.280,-2.450,-0.630
782384,0.064,0.042,1.030,0.490,-2.450,-0.560
782399,0.063,0.044,1.032,0.350,-2.310,-0.490
782419,0.064,0.043,1.032,0.350,-2.450,-0.490
782443,0.063,0.046,1.030,0.420,-2.310,-0.560
782463,0.066,0.042,1.031,0.420,-2.450,-0.560
782483,0.065,0.044,1.030,0.210,-2.520,-0.560
782502,0.065,0.045,1.029,0.070,-2.240,-0.560
782527,0.065,0.047,1.029,0.280,-2.310,-0.630
782547,0.063,0.044,1.031,0.280,-2.240,-0.630
782567,0.063,0.048,1.031,0.210,-2.590,-0.560
782586,0.065,0.046,1.032,0.140,-2.520,-0.630
782607,0.063,0.046,1.030,0.280,-2.380,-0.560
782622,0.064,0.047,1.030,0.560,-2.380,-0.700
782647,0.064,0.046,1.031,0.490,-2.380,-0.490
782667,0.066,0.048,1.030,0.420,-2.450,-0.560
782687,0.065,0.044,1.029,0.490,-2.380,-0.630
782707,0.067,0.046,1.032,0.420,-2.450,-0.560
782726,0.065,0.046,1.033,0.210,-2.380,-0.630
782747,0.065,0.048,1.030,0.280,-2.450,-0.560
782771,0.067,0.044,1.030,0.210,-2.450,-0.560
782791,0.063,0.044,1.031,0.350,-2.450,-0.560
782811,0.065,0.045,1.034,0.350,-2.520,-0.560
782831,0.065,0.044,1.029,0.140,-2.380,-0.630
782851,0.063,0.046,1.031,0.210,-2.450,-0.490
782869,0.066,0.045,1.031,0.490,-2.450,-0.560
782888,0.067,0.046,1.031,0.350,-2.450,-0.560
782908,0.067,0.045,1.031,0.350,-2.450,-0.560
782928,0.064,0.044,1.030,0.350,-2.310,-0.630
782947,0.066,0.046,1.035,0.350,-2.450,-0.560
782967,0.064,0.046,1.032,0.210,-2.170,-0.560
782987,0.066,0.046,1.027,0.420,-2.380,-0.630
783007,0.065,0.044,1.030,0.490,-2.450,-0.560
783027,0.067,0.046,1.032,0.420,-2.590,-0.630
783047,0.065,0.045,1.027,0.420,-2.450,-0.560
783067,0.065,0.045,1.032,0.350,-2.450,-0.560
783092,0.066,0.046,1.031,0.210,-2.380,-0.630
783109,0.065,0.046,1.032,0.000,-2.310,-0.630
783132,0.063,0.048,1.029,0.140,-2.520,-0.560
783150,0.065,0.045,1.031,0.280,-2.520,-0.560
783172,0.065,0.047,1.033,0.280,-2.450,-0.560
783192,0.063,0.046,1.032,0.140,-2.240,-0.560
783216,0.067,0.047,1.030,0.280,-2.310,-0.630
783236,0.064,0.045,1.031,0.420,-2.240,-0.560
783255,0.061,0.046,1.032,0.420,-2.450,-0.630
783277,0.062,0.044,1.029,0.280,-2.450,-0.630
783298,0.066,0.046,1.031,0.210,-2.450,-0.490
783314,0.066,0.046,1.031,0.490,-2.450,-0.560
783334,0.064,0.047,1.031,0.420,-2.520,-0.560
783359,0.065,0.046,1.032,0.280,-2.520,-0.560
783375,0.067,0.047,1.030,0.350,-2.450,-0.630
783395,0.063,0.046,1.030,0.560,-2.380,-0.560
783415,0.063,0.046,1.032,0.560,-2.310,-0.630
783435,0.065,0.044,1.031,0.490,-2.310,-0.630
783455,0.065,0.044,1.029,0.350,-2.380,-0.630
783475,0.064,0.044,1.028,0.420,-2.520,-0.630
783499,0.064,0.047,1.033,0.210,-2.520,-0.560
783519,0.064,0.049,1.029,0.210,-2.310,-0.560
783539,0.064,0.046,1.027,0.420,-2.310,-0.630
783559,0.065,0.045,1.030,0.420,-2.380,-0.560
783579,0.064,0.046,1.032,0.280,-2.450,-0.630
783599,0.063,0.044,1.030,0.280,-2.380,-0.630
783614,0.064,0.044,1.031,0.350,-2.450,-0.560
783634,0.066,0.046,1.032,0.280,-2.450,-0.630
783657,0.064,0.045,1.032,0.350,-2.310,-0.630
783677,0.063,0.048,1.029,0.210,-2.450,-0.560
783697,0.065,0.049,1.029,0.280,-2.380,-0.490
783716,0.063,0.049,1.034,0.280,-2.380,-0.630
783737,0.063,0.044,1.030,0.350,-2.520,-0.630
783758,0.067,0.045,1.032,0.420,-2.380,-0.630
783776,0.062,0.044,1.031,0.280,-2.380,-0.490
783796,0.065,0.046,1.031,0.280,-2.310,-0.560
783817,0.068,0.046,1.034,0.280,-2.450,-0.560
783840,0.063,0.047,1.027,0.140,-2.310,-0.630
783859,0.065,0.047,1.032,0.280,-2.380,-0.630
783879,0.066,0.048,1.032,0.350,-2.380,-0.560
783899,0.064,0.047,1.033,0.350,-2.380,-0.560
783919,0.065,0.046,1.029,0.490,-2.380,-0.560
783942,0.064,0.047,1.031,0.630,-2.380,-0.560
783962,0.065,0.046,1.033,0.490,-2.240,-0.700
783986,0.064,0.046,1.033,0.280,-2.240,-0.630
784006,0.063,0.047,1.027,0.420,-2.310,-0.630
784024,0.065,0.045,1.029,0.560,-2.450,-0.560
784046,0.066,0.046,1.031,0.490,-2.520,-0.630
784066,0.063,0.045,1.032,0.490,-2.310,-0.560
784085,0.062,0.045,1.030,0.420,-2.310,-0.560
784105,0.066,0.045,1.029,0.420,-2.310,-0.560
784125,0.064,0.044,1.030,0.350,-2.380,-0.560
784144,0.063,0.043,1.031,0.350,-2.310,-0.700
784164,0.065,0.045,1.029,0.420,-2.380,-0.560
784184,0.066,0.047,1.030,0.420,-2.450,-0.560
784204,0.066,0.045,1.032,0.350,-2.380,-0.560
784225,0.062,0.047,1.029,0.210,-2.450,-0.560
784249,0.065,0.046,1.030,0.350,-2.450,-0.490
784267,0.063,0.046,1.031,0.490,-2.520,-0.560
784288,0.064,0.045,1.032,0.350,-2.520,-0.560
784308,0.064,0.045,1.027,0.210,-2.520,-0.630
784332,0.065,0.047,1.030,0.210,-2.380,-0.560
784351,0.065,0.045,1.030,0.210,-2.310,-0.560
784374,0.064,0.046,1.032,0.350,-2.590,-0.560
784394,0.065,0.045,1.029,0.210,-2.520,-0.560
784417,0.062,0.047,1.031,0.210,-2.380,-0.560
784436,0.065,0.045,1.029,0.420,-2.520,-0.630
784455,0.063,0.045,1.030,0.420,-2.380,-0.630
784480,0.065,0.044,1.034,0.280,-2.450,-0.630
784500,0.065,0.046,1.034,0.140,-2.380,-0.560
784520,0.064,0.046,1.030,0.140,-2.520,-0.630
784538,0.064,0.046,1.030,0.280,-2.310,-0.630
784560,0.065,0.045,1.032,0.280,-2.590,-0.560
784580,0.065,0.045,1.028,0.280,-2.450,-0.560
784599,0.065,0.046,1.029,0.280,-2.520,-0.630
784615,0.063,0.046,1.034,0.420,-2.380,-0.490
784635,0.066,0.049,1.031,0.350,-2.380,-0.560
784655,0.064,0.048,1.030,0.280,-2.100,-0.560
784678,0.063,0.045,1.033,0.350,-2.450,-0.560
784702,0.064,0.043,1.032,0.350,-2.450,-0.560
784721,0.066,0.045,1.030,0.350,-2.380,-0.560
784742,0.064,0.045,1.032,0.420,-2.450,-0.560
784762,0.066,0.045,1.029,0.560,-2.380,-0.630
784782,0.064,0.046,1.031,0.560,-2.380,-0.560
784802,0.066,0.045,1.031,0.490,-2.450,-0.560
784822,0.066,0.047,1.031,0.560,-2.380,-0.560
784840,0.066,0.046,1.030,0.490,-2.450,-0.560
784862,0.065,0.046,1.030,0.140,-2.380,-0.630
784882,0.064,0.046,1.030,0.070,-2.450,-0.630
784902,0.066,0.045,1.030,0.280,-2.380,-0.560
784922,0.065,0.046,1.032,0.350,-2.380,-0.630
784942,0.065,0.044,1.031,0.210,-2.450,-0.560
784962,0.065,0.046,1.031,0.350,-2.520,-0.560
784982,0.064,0.045,1.032,0.280,-2.380,-0.630
784999,0.064,0.047,1.030,0.140,-2.450,-0.560
785018,0.063,0.047,1.031,0.350,-2.380,-0.630
785038,0.066,0.046,1.031,0.420,-2.380,-0.560
785057,0.065,0.045,1.029,0.420,-2.450,-0.630
785080,0.066,0.046,1.032,0.420,-2.590,-0.560
785104,0.064,0.047,1.031,0.490,-2.520,-0.630
785121,0.064,0.046,1.031,0.280,-2.450,-0.560
785140,0.067,0.045,1.030,0.420,-2.450,-0.560
785159,0.066,0.047,1.032,0.490,-2.380,-0.630
785182,0.064,0.045,1.033,0.210,-2.310,-0.630
785206,0.063,0.045,1.030,0.210,-2.450,-0.630
785225,0.063,0.046,1.030,0.280,-2.520,-0.560
785246,0.065,0.047,1.030,0.490,-2.520,-0.560
785265,0.065,0.045,1.032,0.770,-2.520,-0.630
785289,0.063,0.048,1.026,0.630,-2.520,-0.490
785309,0.066,0.046,1.029,0.770,-2.380,-0.630
785328,0.063,0.046,1.028,0.700,-2.310,-0.700
785348,0.064,0.043,1.032,0.630,-2.450,-0.560
785367,0.067,0.045,1.030,0.350,-2.380,-0.560
785387,0.064,0.046,1.030,0.210,-2.170,-0.560
785407,0.065,0.044,1.028,0.070,-2.240,-0.700
785427,0.067,0.046,1.033,0.140,-2.380,-0.560
785452,0.066,0.048,1.031,0.280,-2.380,-0.560
785470,0.068,0.044,1.029,0.560,-2.450,-0.560
785489,0.065,0.046,1.031,0.420,-2.450,-0.700
785513,0.065,0.046,1.030,0.420,-2.380,-0.560
785533,0.067,0.047,1.029,0.350,-2.380,-0.560
785553,0.064,0.047,1.025,0.420,-2.450,-0.560
785572,0.066,0.045,1.029,0.490,-2.240,-0.630
785592,0.061,0.044,1.030,0.280,-2.240,-0.560
785612,0.065,0.047,1.031,0.280,-2.380,-0.700
785636,0.065,0.047,1.029,0.350,-2.450,-0.560
785655,0.065,0.042,1.027,0.420,-2.450,-0.560
785680,0.065,0.045,1.028,0.420,-2.520,-0.630
785695,0.065,0.045,1.031,0.350,-2.380,-0.560
785719,0.065,0.048,1.031,0.280,-2.310,-0.490
785743,0.064,0.045,1.030,0.350,-2.450,-0.700
785763,0.065,0.045,1.031,0.560,-2.450,-0.630
785783,0.064,0.044,1.033,0.350,-2.450,-0.560
785803,0.065,0.045,1.031,0.420,-2.380,-0.630
785818,0.065,0.046,1.030,0.420,-2.380,-0.560
785839,0.064,0.045,1.032,0.350,-2.450,-0.560
785863,0.065,0.045,1.032,0.350,-2.520,-0.630
785882,0.064,0.046,1.031,0.350,-2.590,-0.490
785902,0.067,0.044,1.029,0.350,-2.450,-0.630
785927,0.065,0.045,1.032,0.350,-2.450,-0.560
785946,0.064,0.043,1.034,0.280,-2.380,-0.630
785970,0.063,0.045,1.030,0.210,-2.450,-0.630
785988,0.064,0.044,1.030,0.280,-2.380,-0.630
786010,0.064,0.047,1.025,0.350,-2.380,-0.560
786030,0.064,0.047,1.032,0.210,-2.450,-0.560
786050,0.065,0.046,1.031,0.210,-2.450,-0.560
786066,0.062,0.045,1.029,0.350,-2.380,-0.630
786090,0.063,0.044,1.031,0.350,-2.380,-0.630
786108,0.063,0.047,1.034,0.210,-2.310,-0.560
786129,0.064,0.046,1.032,0.350,-2.520,-0.630
786150,0.063,0.045,1.031,0.350,-2.450,-0.560
786170,0.063,0.047,1.033,0.210,-2.520,-0.630
786189,0.063,0.044,1.031,0.140,-2.450,-0.630
786210,0.063,0.047,1.030,0.210,-2.450,-0.560
786230,0.065,0.045,1.030,0.420,-2.380,-0.560
786250,0.063,0.047,1.033,0.350,-2.520,-0.560
786269,0.067,0.047,1.031,0.420,-2.380,-0.560
786294,0.065,0.046,1.031,0.420,-2.380,-0.630
786311,0.066,0.046,1.028,0.560,-2.380,-0.630
786335,0.066,0.047,1.030,0.490,-2.450,-0.630
786353,0.064,0.042,1.033,0.350,-2.310,-0.630
786375,0.063,0.045,1.031,0.420,-2.380,-0.700
786395,0.065,0.047,1.029,0.350,-2.450,-0.700
786415,0.065,0.046,1.031,0.350,-2.380,-0.630
786439,0.066,0.045,1.032,0.420,-2.450,-0.630
786459,0.065,0.044,1.031,0.420,-2.380,-0.560
786479,0.064,0.045,1.030,0.490,-2.310,-0.630
786499,0.065,0.044,1.029,0.490,-2.380,-0.560
786519,0.065,0.046,1.031,0.420,-2.380,-0.560
786539,0.063,0.044,1.031,0.420,-2.380,-0.560
786555,0.064,0.046,1.031,0.210,-2.380,-0.560
786575,0.065,0.045,1.032,0.280,-2.380,-0.490
786599,0.061,0.047,1.030,0.280,-2.380,-0.700
786619,0.064,0.043,1.030,0.280,-2.450,-0.630
786639,0.065,0.046,1.029,0.350,-2.450,-0.560
786659,0.064,0.045,1.034,0.350,-2.520,-0.560
786683,0.064,0.043,1.030,0.280,-2.450,-0.490
786703,0.064,0.047,1.030,0.350,-2.520,-0.630
786723,0.063,0.046,1.033,0.420,-2.450,-0.560
786743,0.066,0.045,1.036,0.280,-2.380,-0.630
786763,0.064,0.047,1.031,0.140,-2.240,-0.560
786783,0.065,0.045,1.027,0.420,-2.310,-0.700
786802,0.066,0.045,1.030,0.350,-2.310,-0.560
786821,0.064,0.045,1.031,0.280,-2.380,-0.560
786846,0.067,0.044,1.031,0.350,-2.520,-0.630
786870,0.063,0.046,1.030,0.280,-2.520,-0.560
786890,0.064,0.046,1.031,0.350,-2.450,-0.560
786910,0.063,0.045,1.033,0.210,-2.450,-0.630
786928,0.064,0.044,1.032,0.210,-2.380,-0.630
786952,0.063,0.046,1.029,0.280,-2.450,-0.630
786972,0.066,0.044,1.029,0.350,-2.380,-0.490
786992,0.064,0.044,1.031,0.420,-2.450,-0.560
787012,0.066,0.046,1.035,0.210,-2.380,-0.630
787032,0.065,0.046,1.029,0.280,-2.380,-0.560
787051,0.065,0.045,1.029,0.490,-2.450,-0.630
787074,0.063,0.047,1.030,0.420,-2.380,-0.630
787095,0.063,0.046,1.031,0.280,-2.450,-0.560
787115,0.063,0.046,1.029,0.490,-2.450,-0.560
787135,0.067,0.045,1.030,0.420,-2.520,-0.560
787155,0.064,0.044,1.031,0.420,-2.450,-0.630
787171,0.066,0.047,1.031,0.420,-2.380,-0.630
787191,0.066,0.045,1.031,0.490,-2.450,-0.630
787211,0.066,0.044,1.031,0.490,-2.310,-0.490
787231,0.064,0.045,1.030,0.420,-2.380,-0.630
787251,0.063,0.047,1.030,0.420,-2.380,-0.560
787271,0.065,0.045,1.029,0.420,-2.310,-0.490
787292,0.065,0.045,1.031,0.560,-2.450,-0.560
787312,0.065,0.044,1.033,0.280,-2.380,-0.630
787332,0.063,0.046,1.030,0.210,-2.310,-0.630
787352,0.063,0.045,1.029,0.350,-2.380,-0.630
787372,0.063,0.045,1.033,0.350,-2.520,-0.560
787391,0.066,0.046,1.029,0.140,-2.520,-0.490
787412,0.066,0.047,1.031,0.280,-2.450,-0.630
787436,0.063,0.045,1.030,0.350,-2.450,-0.630
787456,0.062,0.047,1.033,0.420,-2.520,-0.490
787475,0.065,0.045,1.033,0.280,-2.450,-0.630
787495,0.063,0.046,1.030,0.140,-2.380,-0.630
787515,0.063,0.047,1.030,0.210,-2.380,-0.560
787539,0.064,0.045,1.032,0.280,-2.520,-0.560
787559,0.064,0.047,1.034,0.350,-2.520,-0.560
787574,0.065,0.046,1.029,0.420,-2.520,-0.630
787594,0.066,0.047,1.028,0.490,-2.590,-0.560
787619,0.062,0.046,1.034,0.350,-2.450,-0.560
787639,0.063,0.046,1.030,0.280,-2.380,-0.560
787658,0.064,0.045,1.028,0.280,-2.450,-0.560
787677,0.064,0.048,1.031,0.210,-2.310,-0.630
787702,0.063,0.046,1.032,0.210,-2.310,-0.560
787722,0.062,0.043,1.032,0.210,-2.520,-0.560
787742,0.065,0.045,1.030,0.280,-2.450,-0.490
787761,0.064,0.047,1.030,0.420,-2.520,-0.560
787786,0.065,0.047,1.030,0.280,-2.450,-0.630
787806,0.066,0.045,1.031,0.350,-2.450,-0.630
787826,0.065,0.043,1.030,0.420,-2.380,-0.560
787846,0.065,0.045,1.030,0.420,-2.450,-0.630
787865,0.067,0.047,1.033,0.350,-2.380,-0.630
787886,0.065,0.049,1.031,0.210,-2.310,-0.630
787905,0.065,0.046,1.029,0.420,-2.310,-0.560
787929,0.064,0.045,1.031,0.490,-2.310,-0.560
787949,0.065,0.045,1.031,0.420,-2.520,-0.560
787969,0.067,0.046,1.032,0.350,-2.380,-0.560
787987,0.064,0.045,1.029,0.490,-2.380,-0.630
788006,0.064,0.045,1.030,0.350,-2.450,-0.560
788031,0.064,0.045,1.032,0.210,-2.310,-0.630
788051,0.065,0.047,1.030,0.140,-2.380,-0.560
788071,0.063,0.049,1.029,0.280,-2.380,-0.560
788091,0.063,0.045,1.029,0.350,-2.450,-0.560
788111,0.064,0.044,1.031,0.350,-2.520,-0.560
788131,0.061,0.045,1.032,0.350,-2.450,-0.560
788151,0.063,0.046,1.029,0.490,-2.450,-0.490
788167,0.064,0.045,1.031,0.350,-2.520,-0.560
788187,0.063,0.045,1.033,0.140,-2.590,-0.490
788207,0.066,0.045,1.028,0.210,-2.450,-0.420
788227,0.064,0.046,1.029,0.280,-2.590,-0.560
788247,0.065,0.047,1.033,0.280,-2.380,-0.630
788270,0.066,0.046,1.033,0.280,-2.450,-0.560
788291,0.063,0.046,1.030,0.280,-2.450,-0.630
788311,0.064,0.047,1.031,0.350,-2.380,-0.560
788331,0.063,0.045,1.030,0.210,-2.450,-0.490
788351,0.065,0.043,1.031,0.280,-2.450,-0.630
788371,0.064,0.045,1.031,0.210,-2.380,-0.560
788390,0.065,0.047,1.033,0.280,-2.520,-0.490
788414,0.064,0.044,1.031,0.140,-2.520,-0.560
788437,0.065,0.046,1.032,0.140,-2.590,-0.560
788457,0.065,0.048,1.030,0.070,-2.380,-0.630
788476,0.063,0.047,1.030,0.350,-2.310,-0.630
788496,0.065,0.045,1.032,0.420,-2.310,-0.630
788521,0.063,0.047,1.031,0.210,-2.310,-0.490
788541,0.063,0.046,1.032,0.350,-2.380,-0.490
788561,0.063,0.047,1.030,0.280,-2.450,-0.490
788581,0.064,0.048,1.031,0.490,-2.450,-0.560
788601,0.065,0.045,1.034,0.350,-2.380,-0.560
788621,0.064,0.047,1.030,0.350,-2.450,-0.560
788639,0.063,0.044,1.029,0.420,-2.450,-0.630
788659,0.064,0.046,1.033,0.420,-2.380,-0.560
788678,0.066,0.045,1.031,0.490,-2.380,-0.560
788698,0.067,0.045,1.027,0.420,-2.310,-0.560
788718,0.063,0.044,1.031,0.420,-2.380,-0.630
788741,0.063,0.046,1.032,0.210,-2.380,-0.630
788763,0.065,0.046,1.032,0.350,-2.450,-0.560
788782,0.063,0.046,1.031,0.280,-2.380,-0.560
788802,0.063,0.046,1.032,0.490,-2.450,-0.630
788822,0.066,0.045,1.030,0.420,-2.380,-0.630
788842,0.064,0.046,1.032,0.210,-2.380,-0.630
788867,0.066,0.047,1.031,0.420,-2.450,-0.560
788889,0.063,0.047,1.031,0.490,-2.380,-0.560
788906,0.066,0.047,1.032,0.560,-2.450,-0.630
788926,0.066,0.046,1.031,0.420,-2.450,-0.560
788946,0.063,0.043,1.028,0.350,-2.520,-0.490
788969,0.065,0.044,1.031,0.490,-2.380,-0.560
788988,0.065,0.047,1.030,0.280,-2.450,-0.560
789013,0.066,0.045,1.028,0.280,-2.380,-0.560
789033,0.066,0.047,1.028,0.350,-2.380,-0.560
789053,0.063,0.047,1.029,0.490,-2.380,-0.560
789072,0.064,0.044,1.033,0.560,-2.450,-0.490
789093,0.066,0.045,1.032,0.420,-2.520,-0.560
789113,0.065,0.045,1.028,0.490,-2.380,-0.490
789135,0.065,0.045,1.028,0.490,-2.450,-0.560
789155,0.064,0.043,1.031,0.560,-2.450,-0.560
789179,0.064,0.044,1.032,0.350,-2.450,-0.630
789199,0.062,0.046,1.031,0.210,-2.450,-0.560
789219,0.064,0.046,1.030,0.280,-2.590,-0.630
789239,0.065,0.045,1.031,0.280,-2.590,-0.630
789256,0.067,0.047,1.034,0.210,-2.520,-0.490
789277,0.064,0.046,1.029,0.210,-2.380,-0.560
789297,0.067,0.045,1.027,0.420,-2.380,-0.490
789317,0.065,0.044,1.032,0.350,-2.520,-0.630
789336,0.066,0.046,1.033,0.350,-2.450,-0.560
789356,0.064,0.047,1.030,0.350,-2.450,-0.560
789380,0.066,0.046,1.032,0.350,-2.240,-0.560
789404,0.065,0.048,1.032,0.350,-2.520,-0.560
789424,0.067,0.047,1.030,0.280,-2.450,-0.700
789444,0.065,0.044,1.032,0.210,-2.450,-0.630
789464,0.064,0.045,1.031,0.490,-2.380,-0.560
789484,0.065,0.047,1.032,0.420,-2.380,-0.560
789499,0.064,0.047,1.030,0.350,-2.380,-0.560
789519,0.066,0.046,1.029,0.350,-2.310,-0.560
789539,0.066,0.048,1.028,0.350,-2.450,-0.560
789563,0.064,0.045,1.031,0.420,-2.450,-0.560
789587,0.065,0.048,1.033,0.280,-2.380,-0.630
789607,0.067,0.048,1.031,0.350,-2.310,-0.630
789627,0.065,0.047,1.031,0.420,-2.310,-0.560
789647,0.066,0.045,1.029,0.490,-2.240,-0.630
789667,0.064,0.044,1.033,0.420,-2.310,-0.560
789687,0.066,0.045,1.030,0.490,-2.450,-0.630
789707,0.066,0.047,1.029,0.490,-2.380,-0.560
789727,0.065,0.046,1.030,0.420,-2.310,-0.490
789743,0.067,0.046,1.031,0.350,-2.310,-0.560
789764,0.064,0.045,1.028,0.420,-2.380,-0.700
789788,0.065,0.045,1.029,0.350,-2.520,-0.490
789805,0.065,0.044,1.033,0.420,-2.450,-0.560
789829,0.065,0.047,1.031,0.070,-2.520,-0.630
789849,0.062,0.048,1.030,0.210,-2.450,-0.560
789869,0.064,0.047,1.029,0.280,-2.310,-0.560
789889,0.067,0.044,1.031,0.350,-2.380,-0.630
789909,0.063,0.045,1.033,0.280,-2.310,-0.560
789929,0.064,0.046,1.031,0.280,-2.450,-0.630
789944,0.065,0.046,1.031,0.560,-2.450,-0.630
789968,0.065,0.047,1.033,0.350,-2.450,-0.560
789992,0.064,0.045,1.029,0.350,-2.380,-0.560
790012,0.066,0.046,1.030,0.420,-2.380,-0.630
790032,0.064,0.046,1.029,0.420,-2.450,-0.560
790052,0.064,0.046,1.032,0.350,-2.380,-0.560
790072,0.064,0.046,1.032,0.280,-2.450,-0.630
790092,0.065,0.046,1.030,0.140,-2.380,-0.560
790116,0.064,0.046,1.030,0.280,-2.450,-0.630
790136,0.067,0.044,1.031,0.280,-2.450,-0.560
790156,0.065,0.047,1.034,0.350,-2.450,-0.560
790175,0.066,0.047,1.031,0.350,-2.380,-0.560
790195,0.067,0.046,1.030,0.350,-2.380,-0.630
790216,0.068,0.048,1.028,0.280,-2.450,-0.630
790231,0.066,0.045,1.031,0.280,-2.380,-0.630
790251,0.064,0.046,1.031,0.350,-2.310,-0.630
790271,0.065,0.047,1.031,0.420,-2.380,-0.630
790296,0.065,0.044,1.033,0.280,-2.380,-0.630
790314,0.064,0.046,1.033,0.420,-2.310,-0.490
790332,0.065,0.045,1.028,0.490,-2.450,-0.630
790351,0.064,0.045,1.029,0.560,-2.380,-0.560
790374,0.065,0.044,1.032,0.490,-2.450,-0.560
790394,0.065,0.045,1.033,0.420,-2.380,-0.560
790413,0.066,0.047,1.031,0.420,-2.310,-0.630
790437,0.066,0.045,1.030,0.420,-2.380,-0.560
790457,0.065,0.044,1.031,0.420,-2.380,-0.630
790479,0.065,0.045,1.034,0.280,-2.310,-0.630
790500,0.064,0.047,1.032,0.280,-2.380,-0.490
790520,0.066,0.046,1.029,0.560,-2.310,-0.490
790539,0.065,0.046,1.030,0.630,-2.380,-0.560
790559,0.066,0.044,1.032,0.490,-2.380,-0.420
790583,0.068,0.045,1.030,0.560,-2.450,-0.630
790607,0.067,0.045,1.031,0.420,-2.310,-0.630
790627,0.067,0.045,1.029,0.560,-2.240,-0.630
790647,0.065,0.044,1.032,0.490,-2.450,-0.630
790667,0.064,0.044,1.030,0.490,-2.450,-0.490
790687,0.063,0.046,1.031,0.210,-2.380,-0.560
790707,0.063,0.047,1.032,0.350,-2.450,-0.560
790731,0.066,0.046,1.032,0.280,-2.380,-0.630
790751,0.064,0.046,1.032,0.420,-2.380,-0.630
790771,0.066,0.045,1.032,0.280,-2.310,-0.630
790791,0.065,0.048,1.031,0.420,-2.380,-0.560
790811,0.067,0.043,1.031,0.280,-2.310,-0.490
790831,0.067,0.045,1.031,0.560,-2.450,-0.560
790851,0.065,0.045,1.030,0.420,-2.450,-0.560
790871,0.065,0.045,1.030,0.420,-2.380,-0.560
790888,0.064,0.045,1.033,0.350,-2.450,-0.700
790907,0.063,0.046,1.031,0.350,-2.380,-0.630
790927,0.063,0.045,1.028,0.350,-2.450,-0.560
790952,0.063,0.044,1.029,0.350,-2.520,-0.560
790971,0.066,0.046,1.032,0.280,-2.450,-0.630
790990,0.065,0.047,1.032,0.280,-2.450,-0.560
791015,0.067,0.046,1.033,0.210,-2.450,-0.560
791035,0.065,0.046,1.030,0.280,-2.450,-0.490
791055,0.064,0.046,1.032,0.210,-2.450,-0.630
791075,0.065,0.048,1.034,0.210,-2.450,-0.700
791099,0.065,0.045,1.031,0.280,-2.520,-0.630
791119,0.063,0.045,1.028,0.280,-2.380,-0.630
791138,0.066,0.047,1.029,0.420,-2.380,-0.560
791154,0.066,0.046,1.032,0.350,-2.380,-0.560
791174,0.064,0.048,1.029,0.420,-2.380,-0.420
791198,0.067,0.045,1.031,0.420,-2.310,-0.630
791219,0.065,0.047,1.030,0.420,-2.310,-0.560
791239,0.063,0.045,1.030,0.280,-2.310,-0.630
791258,0.066,0.046,1.028,0.280,-2.310,-0.560
791279,0.069,0.048,1.029,0.280,-2.590,-0.490
791299,0.064,0.048,1.033,0.280,-2.520,-0.560
791319,0.065,0.047,1.034,0.280,-2.380,-0.560
791339,0.064,0.046,1.032,0.280,-2.380,-0.560
791359,0.064,0.047,1.028,0.420,-2.380,-0.700
791378,0.066,0.045,1.032,0.560,-2.310,-0.630
791403,0.064,0.043,1.031,0.560,-2.450,-0.560
791422,0.065,0.045,1.031,0.490,-2.310,-0.560
791441,0.065,0.045,1.029,0.420,-2.520,-0.560
791460,0.064,0.046,1.031,0.420,-2.450,-0.490
791480,0.067,0.045,1.034,0.210,-2.380,-0.560
791505,0.066,0.048,1.030,0.420,-2.380,-0.560
791523,0.063,0.048,1.030,0.490,-2.310,-0.560
791542,0.067,0.046,1.032,0.420,-2.240,-0.560
791562,0.068,0.044,1.032,0.420,-2.450,-0.700
791583,0.066,0.045,1.030,0.490,-2.310,-0.630
791603,0.067,0.045,1.030,0.630,-2.450,-0.560
791622,0.065,0.044,1.032,0.490,-2.380,-0.560
791642,0.064,0.046,1.031,0.280,-2.380,-0.630
791666,0.065,0.046,1.030,0.280,-2.450,-0.560
791686,0.063,0.044,1.028,0.350,-2.450,-0.490
791710,0.065,0.044,1.030,0.280,-2.380,-0.560
791730,0.064,0.048,1.032,0.350,-2.380,-0.560
791749,0.066,0.045,1.031,0.210,-2.450,-0.560
791769,0.065,0.046,1.030,0.350,-2.380,-0.560
791789,0.067,0.046,1.031,0.350,-2.450,-0.560
791809,0.063,0.046,1.031,0.280,-2.380,-0.490
791828,0.066,0.047,1.030,0.280,-2.380,-0.630
791848,0.064,0.044,1.030,0.350,-2.520,-0.560
791873,0.066,0.045,1.030,0.350,-2.520,-0.700
791893,0.065,0.046,1.032,0.210,-2.520,-0.630
791913,0.066,0.048,1.032,0.420,-2.450,-0.560
791928,0.065,0.048,1.028,0.280,-2.450,-0.560
791952,0.067,0.047,1.028,0.350,-2.380,-0.560
791976,0.066,0.044,1.033,0.420,-2.380,-0.630
791996,0.065,0.045,1.033,0.350,-2.450,-0.560
792016,0.066,0.045,1.030,0.350,-2.450,-0.560
792036,0.066,0.046,1.032,0.350,-2.520,-0.630
792056,0.066,0.048,1.032,0.140,-2.450,-0.630
792076,0.064,0.047,1.031,0.280,-2.450,-0.560
792095,0.065,0.047,1.030,0.350,-2.310,-0.630
792116,0.064,0.046,1.033,0.490,-2.380,-0.560
792136,0.065,0.047,1.033,0.210,-2.450,-0.490
792155,0.065,0.044,1.030,0.350,-2.450,-0.490
792176,0.065,0.047,1.029,0.490,-2.380,-0.560
792191,0.064,0.046,1.033,0.280,-2.240,-0.630
792211,0.065,0.045,1.031,0.280,-2.380,-0.630
792236,0.065,0.043,1.029,0.350,-2.450,-0.630
792256,0.063,0.048,1.029,0.490,-2.450,-0.560
792276,0.061,0.045,1.029,0.420,-2.380,-0.630
792296,0.067,0.045,1.032,0.350,-2.450,-0.630
792315,0.063,0.047,1.030,0.420,-2.380,-0.630
792335,0.063,0.045,1.030,0.560,-2.450,-0.630
792354,0.065,0.044,1.031,0.420,-2.310,-0.630
792378,0.066,0.048,1.032,0.280,-2.450,-0.490
792399,0.066,0.046,1.031,0.280,-2.450,-0.700
792419,0.064,0.045,1.029,0.280,-2.380,-0.630
792437,0.065,0.046,1.031,0.350,-2.450,-0.560
792458,0.065,0.046,1.032,0.210,-2.380,-0.560
792478,0.066,0.046,1.027,0.280,-2.450,-0.560
792498,0.066,0.048,1.029,0.420,-2.380,-0.700
792517,0.065,0.047,1.032,0.420,-2.450,-0.560
792537,0.064,0.046,1.031,0.210,-2.450,-0.560
792560,0.064,0.045,1.031,0.280,-2.520,-0.630
792579,0.065,0.046,1.029,0.350,-2.380,-0.630
792599,0.064,0.045,1.032,0.420,-2.450,-0.630
792619,0.066,0.044,1.032,0.210,-2.240,-0.630
792643,0.066,0.044,1.029,0.350,-2.380,-0.560
792663,0.065,0.046,1.030,0.420,-2.380,-0.630
792681,0.062,0.044,1.031,0.350,-2.450,-0.630
792702,0.064,0.046,1.031,0.210,-2.380,-0.490
792722,0.065,0.046,1.029,0.350,-2.520,-0.560
792746,0.065,0.046,1.031,0.210,-2.450,-0.490
792766,0.066,0.051,1.033,0.210,-2.520,-0.490
792785,0.064,0.048,1.034,0.140,-2.450,-0.560
792802,0.064,0.047,1.031,0.420,-2.310,-0.630
792821,0.064,0.045,1.032,0.490,-2.380,-0.560
792841,0.063,0.046,1.032,0.350,-2.310,-0.630
792866,0.065,0.046,1.031,0.280,-2.310,-0.630
792886,0.064,0.046,1.028,0.350,-2.380,-0.560
792906,0.066,0.045,1.029,0.490,-2.450,-0.560
792922,0.067,0.047,1.034,0.350,-2.450,-0.490
792942,0.064,0.046,1.030,0.140,-2.520,-0.630
792962,0.065,0.047,1.031,0.420,-2.380,-0.560
792986,0.066,0.045,1.030,0.350,-2.450,-0.560
793006,0.067,0.047,1.032,0.350,-2.450,-0.630
793025,0.065,0.046,1.032,0.420,-2.310,-0.630
793042,0.066,0.043,1.030,0.280,-2.310,-0.560
793061,0.064,0.043,1.031,0.350,-2.520,-0.560
793086,0.065,0.044,1.035,0.350,-2.520,-0.490
793106,0.065,0.045,1.031,0.210,-2.450,-0.490
793126,0.064,0.047,1.030,0.280,-2.380,-0.560
793146,0.067,0.046,1.028,0.420,-2.520,-0.560
793164,0.062,0.045,1.031,0.350,-2.520,-0.560
793187,0.066,0.049,1.033,0.280,-2.450,-0.630
793207,0.066,0.046,1.030,0.280,-2.380,-0.630
793227,0.066,0.046,1.028,0.350,-2.380,-0.560
793247,0.065,0.045,1.029,0.420,-2.380,-0.630
793267,0.067,0.045,1.033,0.420,-2.310,-0.560
793289,0.066,0.044,1.029,0.420,-2.380,-0.560
793309,0.063,0.046,1.028,0.210,-2.380,-0.560
793329,0.066,0.046,1.033,0.350,-2.310,-0.560
793348,0.062,0.047,1.032,0.280,-2.380,-0.630
793372,0.064,0.044,1.031,0.280,-2.310,-0.560
793392,0.066,0.048,1.030,0.420,-2.380,-0.630
793416,0.063,0.044,1.032,0.420,-2.380,-0.560
793436,0.063,0.045,1.031,0.420,-2.450,-0.490
793456,0.067,0.045,1.030,0.490,-2.450,-0.560
793475,0.065,0.044,1.031,0.490,-2.520,-0.560
793493,0.066,0.044,1.029,0.350,-2.450,-0.560
793513,0.065,0.044,1.032,0.350,-2.450,-0.630
793532,0.064,0.047,1.031,0.210,-2.380,-0.630
793552,0.066,0.045,1.030,0.210,-2.450,-0.630
793577,0.063,0.047,1.032,0.350,-2.450,-0.630
793595,0.062,0.045,1.034,0.210,-2.450,-0.560
793617,0.065,0.046,1.030,0.210,-2.450,-0.560
793637,0.065,0.046,1.029,0.210,-2.310,-0.560
793653,0.066,0.047,1.032,0.560,-2.450,-0.490
793672,0.065,0.046,1.029,0.490,-2.240,-0.630
793692,0.064,0.046,1.029,0.420,-2.450,-0.630
793712,0.064,0.046,1.028,0.490,-2.380,-0.560
793737,0.065,0.045,1.032,0.420,-2.520,-0.700
793757,0.065,0.044,1.033,0.140,-2.450,-0.630
793776,0.063,0.046,1.030,0.420,-2.380,-0.490
793795,0.065,0.046,1.029,0.350,-2.380,-0.560
793815,0.065,0.043,1.029,0.280,-2.520,-0.560
793840,0.064,0.046,1.033,0.210,-2.520,-0.630
793860,0.066,0.044,1.030,0.210,-2.380,-0.700
793880,0.065,0.046,1.029,0.350,-2.450,-0.560
793901,0.064,0.044,1.030,0.420,-2.380,-0.560
793919,0.065,0.046,1.032,0.280,-2.450,-0.560
793940,0.066,0.046,1.030,0.210,-2.450,-0.560
793960,0.066,0.045,1.026,0.420,-2.380,-0.630
793980,0.064,0.046,1.031,0.420,-2.380,-0.490
794002,0.064,0.047,1.032,0.350,-2.450,-0.770
794026,0.067,0.045,1.030,0.280,-2.380,-0.630
794046,0.063,0.046,1.030,0.280,-2.380,-0.560
794066,0.067,0.047,1.030,0.420,-2.450,-0.560
794086,0.064,0.044,1.030,0.350,-2.520,-0.560
794106,0.067,0.047,1.031,0.350,-2.590,-0.700
794126,0.066,0.046,1.030,0.350,-2.450,-0.630
794144,0.066,0.045,1.031,0.420,-2.520,-0.630
794166,0.064,0.046,1.034,0.280,-2.380,-0.630
794186,0.064,0.046,1.030,0.210,-2.380,-0.630
794206,0.064,0.044,1.029,0.210,-2.520,-0.630
794226,0.065,0.045,1.030,0.280,-2.520,-0.560
794244,0.064,0.047,1.034,0.280,-2.380,-0.560
794264,0.066,0.047,1.030,0.280,-2.520,-0.560
794288,0.066,0.046,1.027,0.210,-2.310,-0.700
794308,0.066,0.045,1.031,0.420,-2.380,-0.560
794328,0.065,0.044,1.033,0.420,-2.450,-0.630
794344,0.065,0.046,1.031,0.280,-2.380,-0.560
794368,0.066,0.046,1.031,0.280,-2.450,-0.560
794392,0.064,0.045,1.029,0.210,-2.450,-0.630
794412,0.066,0.048,1.032,0.280,-2.310,-0.630
794432,0.064,0.048,1.033,0.210,-2.520,-0.560
794451,0.065,0.047,1.028,0.280,-2.450,-0.560
794472,0.066,0.048,1.031,0.350,-2.450,-0.630
794492,0.064,0.046,1.034,0.420,-2.450,-0.630
794510,0.064,0.046,1.030,0.350,-2.450,-0.560
794530,0.065,0.046,1.030,0.350,-2.450,-0.630
794550,0.065,0.046,1.032,0.420,-2.380,-0.560
794572,0.063,0.047,1.031,0.280,-2.450,-0.560
794592,0.065,0.047,1.031,0.280,-2.520,-0.560
794612,0.065,0.045,1.029,0.350,-2.450,-0.560
794632,0.062,0.046,1.031,0.280,-2.520,-0.560
794652,0.064,0.045,1.031,0.210,-2.520,-0.490
794672,0.064,0.048,1.032,0.210,-2.310,-0.490
794692,0.064,0.046,1.029,0.420,-2.520,-0.560
794716,0.066,0.047,1.032,0.560,-2.380,-0.490
794736,0.064,0.049,1.035,0.420,-2.310,-0.630
794756,0.067,0.044,1.032,0.420,-2.520,-0.630
794776,0.065,0.044,1.029,0.490,-2.380,-0.560
794795,0.062,0.046,1.031,0.490,-2.450,-0.560
794813,0.066,0.048,1.034,0.280,-2.520,-0.560
794832,0.066,0.048,1.031,0.350,-2.380,-0.420
794852,0.065,0.045,1.027,0.420,-2.380,-0.490
794877,0.065,0.046,1.032,0.280,-2.380,-0.560
794897,0.066,0.046,1.032,0.210,-2.450,-0.630
794917,0.066,0.046,1.030,0.490,-2.380,-0.700
794935,0.068,0.044,1.030,0.420,-2.310,-0.560
794957,0.063,0.045,1.031,0.420,-2.380,-0.560
794977,0.065,0.045,1.029,0.350,-2.380,-0.630
795001,0.064,0.047,1.027,0.280,-2.380,-0.560
795021,0.064,0.046,1.030,0.420,-2.450,-0.630
795041,0.066,0.049,1.034,0.350,-2.450,-0.420
795061,0.062,0.047,1.031,0.420,-2.450,-0.490
795081,0.067,0.047,1.030,0.210,-2.450,-0.630
795101,0.065,0.047,1.032,0.490,-2.380,-0.560
795120,0.067,0.044,1.032,0.490,-2.310,-0.630
795144,0.064,0.045,1.031,0.490,-2.380,-0.560
795164,0.067,0.045,1.032,0.350,-2.380,-0.630
795184,0.065,0.045,1.030,0.420,-2.310,-0.560
795203,0.065,0.045,1.032,0.420,-2.380,-0.560
795227,0.066,0.047,1.030,0.350,-2.450,-0.490
795243,0.063,0.046,1.030,0.210,-2.450,-0.560
795263,0.066,0.048,1.029,0.350,-2.450,-0.630
795287,0.066,0.048,1.028,0.350,-2.450,-0.630
795311,0.064,0.046,1.030,0.210,-2.450,-0.630
795335,0.065,0.047,1.032,0.280,-2.310,-0.630
795355,0.064,0.045,1.033,0.420,-2.380,-0.700
795374,0.064,0.048,1.030,0.280,-2.310,-0.630
795394,0.064,0.046,1.029,0.350,-2.450,-0.630
795414,0.064,0.046,1.031,0.420,-2.520,-0.630
795433,0.064,0.046,1.034,0.280,-2.380,-0.630
795458,0.065,0.047,1.033,0.280,-2.450,-0.560
795477,0.066,0.046,1.029,0.420,-2.450,-0.560
795498,0.065,0.046,1.032,0.490,-2.380,-0.560
795518,0.066,0.045,1.031,0.560,-2.380,-0.490
795538,0.065,0.044,1.031,0.490,-2.380,-0.630
795558,0.064,0.043,1.032,0.490,-2.450,-0.630
795578,0.067,0.044,1.032,0.070,-2.520,-0.630
795598,0.065,0.045,1.030,0.140,-2.310,-0.560
795613,0.065,0.044,1.031,0.280,-2.450,-0.560
795638,0.066,0.047,1.032,0.210,-2.450,-0.560
795658,0.064,0.048,1.033,0.280,-2.380,-0.630
795678,0.066,0.046,1.030,0.490,-2.450,-0.560
795698,0.068,0.045,1.029,0.490,-2.450,-0.490
795718,0.064,0.045,1.032,0.560,-2.520,-0.700
795737,0.063,0.045,1.034,0.420,-2.450,-0.630
795757,0.064,0.045,1.027,0.210,-2.450,-0.560
795781,0.064,0.047,1.028,0.350,-2.590,-0.420
795801,0.064,0.048,1.032,0.490,-2.450,-0.560
795819,0.065,0.045,1.032,0.420,-2.380,-0.560
795837,0.066,0.044,1.030,0.280,-2.380,-0.700
795861,0.065,0.044,1.027,0.280,-2.240,-0.700
795881,0.065,0.047,1.030,0.420,-2.380,-0.560
795901,0.065,0.046,1.031,0.490,-2.520,-0.560
795921,0.066,0.045,1.028,0.420,-2.450,-0.560
795941,0.067,0.045,1.030,0.420,-2.520,-0.630
795961,0.065,0.045,1.030,0.350,-2.450,-0.560
795978,0.064,0.045,1.031,0.420,-2.380,-0.560
795999,0.066,0.046,1.029,0.490,-2.450,-0.560
796019,0.065,0.046,1.029,0.350,-2.380,-0.630
796042,0.065,0.044,1.036,0.280,-2.450,-0.420
796062,0.065,0.047,1.029,0.210,-2.380,-0.630
796082,0.064,0.047,1.028,0.280,-2.450,-0.560
796101,0.065,0.046,1.031,0.350,-2.520,-0.630
796126,0.066,0.047,1.033,0.350,-2.590,-0.630
796144,0.065,0.046,1.031,0.210,-2.520,-0.490
796166,0.064,0.048,1.030,0.210,-2.450,-0.560
796186,0.065,0.046,1.029,0.210,-2.520,-0.560
796206,0.063,0.046,1.036,0.350,-2.450,-0.560
796230,0.066,0.046,1.033,0.280,-2.310,-0.490
796250,0.067,0.047,1.031,0.140,-2.310,-0.560
796270,0.063,0.046,1.030,0.490,-2.380,-0.630
796290,0.066,0.043,1.033,0.490,-2.380,-0.630
796310,0.063,0.047,1.032,0.210,-2.450,-0.560
796330,0.065,0.046,1.029,0.350,-2.310,-0.560
796348,0.065,0.048,1.031,0.350,-2.380,-0.630
796372,0.064,0.048,1.030,0.350,-2.380,-0.630
796392,0.066,0.048,1.032,0.280,-2.450,-0.560
796412,0.068,0.045,1.029,0.210,-2.380,-0.560
796436,0.063,0.044,1.033,0.350,-2.450,-0.700
796455,0.065,0.046,1.032,0.350,-2.450,-0.560
796480,0.066,0.044,1.033,0.420,-2.520,-0.560
796500,0.063,0.046,1.028,0.350,-2.450,-0.560
796520,0.065,0.047,1.028,0.420,-2.380,-0.630
796540,0.064,0.045,1.031,0.350,-2.380,-0.630
796560,0.064,0.045,1.033,0.000,-2.310,-0.630
796580,0.065,0.048,1.029,0.280,-2.380,-0.630
796596,0.065,0.047,1.030,0.280,-2.450,-0.630
796615,0.062,0.045,1.033,0.350,-2.450,-0.560
796635,0.064,0.047,1.031,0.210,-2.450,-0.490
796657,0.067,0.045,1.028,0.420,-2.310,-0.560
796677,0.065,0.047,1.031,0.560,-2.520,-0.560
796701,0.067,0.047,1.035,0.350,-2.520,-0.560
796721,0.065,0.046,1.033,0.210,-2.520,-0.560
796741,0.064,0.043,1.032,0.140,-2.310,-0.560
796761,0.065,0.047,1.032,0.000,-2.310,-0.560
796781,0.065,0.048,1.032,0.070,-2.380,-0.630
796805,0.067,0.048,1.031,0.420,-2.450,-0.560
796823,0.065,0.048,1.031,0.420,-2.380,-0.630
796845,0.066,0.044,1.030,0.350,-2.450,-0.630
796865,0.065,0.043,1.033,0.420,-2.590,-0.560
796885,0.067,0.046,1.031,0.350,-2.380,-0.630
796905,0.065,0.045,1.029,0.420,-2.380,-0.560
796925,0.064,0.045,1.030,0.350,-2.380,-0.560
796945,0.065,0.047,1.033,0.350,-2.450,-0.630
796960,0.066,0.048,1.028,0.350,-2.380,-0.560
796980,0.063,0.045,1.029,0.420,-2.450,-0.560
797005,0.063,0.047,1.030,0.350,-2.520,-0.630
797025,0.064,0.045,1.031,0.280,-2.450,-0.560
797045,0.065,0.047,1.031,0.420,-2.450,-0.630
797065,0.066,0.045,1.030,0.560,-2.380,-0.630
797082,0.064,0.047,1.031,0.420,-2.380,-0.560
797102,0.064,0.046,1.032,0.280,-2.380,-0.630
797122,0.065,0.046,1.031,0.210,-2.450,-0.560
797141,0.066,0.048,1.033,0.280,-2.380,-0.560
797161,0.064,0.048,1.030,0.280,-2.380,-0.560
797184,0.067,0.047,1.030,0.420,-2.380,-0.630
797203,0.064,0.045,1.028,0.560,-2.450,-0.560
797223,0.065,0.046,1.032,0.420,-2.450,-0.560
797243,0.064,0.044,1.029,0.630,-2.310,-0.630
797263,0.066,0.044,1.027,0.490,-2.450,-0.630
797283,0.066,0.042,1.035,0.350,-2.380,-0.560
797306,0.065,0.043,1.032,0.140,-2.310,-0.560
797328,0.067,0.046,1.032,0.210,-2.380,-0.490
797349,0.066,0.046,1.027,0.210,-2.380,-0.560
797369,0.067,0.044,1.031,0.420,-2.380,-0.630
797389,0.064,0.045,1.033,0.350,-2.310,-0.630
797409,0.065,0.043,1.031,0.210,-2.450,-0.630
797428,0.064,0.047,1.030,0.280,-2.450,-0.630
797453,0.064,0.047,1.031,0.420,-2.450,-0.560
797473,0.067,0.046,1.033,0.420,-2.450,-0.560
797493,0.067,0.045,1.029,0.420,-2.380,-0.560
797516,0.065,0.046,1.029,0.420,-2.520,-0.630
797536,0.065,0.045,1.030,0.490,-2.450,-0.630
797556,0.066,0.046,1.033,0.420,-2.450,-0.630
797576,0.062,0.045,1.030,0.350,-2.380,-0.630
797596,0.067,0.045,1.029,0.420,-2.380,-0.560
797615,0.065,0.044,1.033,0.420,-2.450,-0.630
797635,0.067,0.045,1.028,0.140,-2.240,-0.560
797655,0.066,0.045,1.027,0.350,-2.310,-0.560
797679,0.065,0.046,1.030,0.420,-2.520,-0.490
797695,0.065,0.043,1.034,0.350,-2.520,-0.630
797718,0.063,0.047,1.032,0.350,-2.380,-0.490
797738,0.063,0.048,1.029,0.280,-2.310,-0.630
797757,0.064,0.046,1.031,0.420,-2.520,-0.560
797782,0.066,0.044,1.031,0.420,-2.240,-0.630
797801,0.064,0.049,1.033,0.140,-2.310,-0.490
797826,0.065,0.047,1.032,0.210,-2.310,-0.560
797846,0.064,0.046,1.026,0.490,-2.450,-0.770
797866,0.064,0.043,1.028,0.630,-2.590,-0.560
797886,0.064,0.045,1.035,0.350,-2.590,-0.560
797909,0.066,0.047,1.029,0.350,-2.380,-0.560
797929,0.066,0.046,1.030,0.420,-2.240,-0.560
797952,0.066,0.046,1.030,0.560,-2.380,-0.560
797974,0.065,0.043,1.031,0.420,-2.520,-0.560
797994,0.064,0.045,1.031,0.350,-2.240,-0.630
798018,0.066,0.045,1.028,0.420,-2.380,-0.630
798038,0.067,0.045,1.029,0.490,-2.450,-0.560
798058,0.064,0.045,1.035,0.490,-2.450,-0.630
798078,0.064,0.045,1.029,0.280,-2.310,-0.560
798097,0.067,0.047,1.030,0.350,-2.380,-0.630
798114,0.064,0.045,1.033,0.280,-2.380,-0.630
798134,0.065,0.047,1.029,0.350,-2.310,-0.630
798158,0.065,0.048,1.028,0.490,-2.520,-0.630
798178,0.065,0.045,1.034,0.490,-2.450,-0.630
798196,0.064,0.044,1.032,0.420,-2.380,-0.630
798215,0.065,0.045,1.027,0.280,-2.450,-0.560
798235,0.064,0.047,1.031,0.420,-2.450,-0.560
798255,0.064,0.046,1.034,0.280,-2.590,-0.630
798275,0.067,0.046,1.031,0.140,-2.310,-0.560
798295,0.063,0.048,1.027,0.140,-2.380,-0.630
798318,0.065,0.044,1.030,0.280,-2.590,-0.630
798337,0.066,0.046,1.032,0.210,-2.310,-0.630
798357,0.066,0.045,1.031,0.140,-2.380,-0.630
798382,0.065,0.047,1.028,0.420,-2.590,-0.630
798402,0.064,0.047,1.032,0.350,-2.310,-0.630
798422,0.067,0.045,1.032,0.210,-2.380,-0.630
798441,0.063,0.046,1.030,0.420,-2.310,-0.560
798460,0.065,0.045,1.029,0.350,-2.380,-0.560
798480,0.066,0.047,1.033,0.280,-2.380,-0.700
798505,0.064,0.044,1.031,0.280,-2.520,-0.560
798525,0.064,0.044,1.031,0.350,-2.450,-0.560
798545,0.066,0.046,1.030,0.350,-2.310,-0.630
798565,0.065,0.044,1.032,0.350,-2.520,-0.560
798585,0.067,0.048,1.031,0.350,-2.380,-0.630
798605,0.065,0.045,1.027,0.280,-2.450,-0.630
798625,0.065,0.045,1.030,0.420,-2.450,-0.490
798645,0.065,0.045,1.033,0.350,-2.590,-0.490
798665,0.064,0.046,1.030,0.280,-2.520,-0.560
798684,0.068,0.045,1.031,0.490,-2.450,-0.630
798703,0.065,0.046,1.032,0.350,-2.380,-0.560
798726,0.066,0.046,1.035,0.210,-2.310,-0.630
798746,0.066,0.049,1.029,0.210,-2.380,-0.560
798770,0.065,0.046,1.029,0.280,-2.380,-0.630
798790,0.065,0.043,1.029,0.350,-2.660,-0.560
798810,0.063,0.044,1.034,0.420,-2.450,-0.490
798834,0.063,0.045,1.027,0.210,-2.450,-0.490
798853,0.067,0.048,1.029,0.350,-2.520,-0.560
798874,0.065,0.047,1.032,0.490,-2.450,-0.630
798894,0.066,0.045,1.035,0.280,-2.590,-0.630
798913,0.067,0.046,1.030,0.210,-2.380,-0.560
798938,0.064,0.045,1.029,0.210,-2.520,-0.560
798958,0.064,0.045,1.031,0.350,-2.450,-0.560
798978,0.063,0.048,1.030,0.280,-2.450,-0.560
798997,0.065,0.044,1.025,0.350,-2.520,-0.490
799022,0.064,0.047,1.034,0.280,-2.450,-0.630
799039,0.066,0.046,1.035,0.210,-2.450,-0.560
799062,0.065,0.048,1.033,0.140,-2.380,-0.560
799082,0.063,0.047,1.030,0.140,-2.380,-0.560
799102,0.064,0.045,1.028,0.350,-2.380,-0.560
799122,0.067,0.045,1.030,0.280,-2.520,-0.560
799142,0.067,0.048,1.032,0.350,-2.380,-0.490
799162,0.067,0.047,1.028,0.280,-2.380,-0.630
799186,0.065,0.047,1.026,0.420,-2.380,-0.630
799206,0.065,0.045,1.032,0.490,-2.520,-0.560
799226,0.064,0.045,1.034,0.140,-2.520,-0.490
799246,0.066,0.048,1.029,0.140,-2.310,-0.490
799266,0.065,0.049,1.028,0.350,-2.380,-0.630
799290,0.066,0.046,1.029,0.210,-2.450,-0.630
799314,0.064,0.046,1.031,0.280,-2.450,-0.630
799334,0.066,0.046,1.029,0.280,-2.310,-0.630
799354,0.065,0.046,1.032,0.420,-2.380,-0.560
799374,0.064,0.045,1.034,0.280,-2.380,-0.630
799394,0.065,0.045,1.030,0.210,-2.310,-0.490
799414,0.066,0.048,1.028,0.280,-2.380,-0.700
799429,0.066,0.047,1.033,0.350,-2.450,-0.490
799454,0.066,0.046,1.034,0.140,-2.450,-0.630
799474,0.066,0.046,1.029,0.350,-2.380,-0.560
799492,0.066,0.046,1.029,0.420,-2.450,-0.560
799514,0.065,0.046,1.030,0.350,-2.590,-0.630
799534,0.064,0.047,1.033,0.350,-2.380,-0.630
799558,0.064,0.047,1.031,0.280,-2.380,-0.560
799578,0.065,0.045,1.030,0.420,-2.450,-0.560
799597,0.065,0.047,1.031,0.350,-2.450,-0.490
799618,0.064,0.047,1.031,0.210,-2.170,-0.560
799638,0.066,0.048,1.029,0.280,-2.590,-0.630
799656,0.067,0.047,1.029,0.350,-2.240,-0.490
799675,0.064,0.046,1.033,0.350,-2.310,-0.630
799699,0.065,0.048,1.028,0.280,-2.380,-0.630
799719,0.065,0.046,1.032,0.490,-2.380,-0.560
799739,0.066,0.045,1.033,0.490,-2.450,-0.560
799759,0.067,0.044,1.029,0.210,-2.310,-0.700
799779,0.065,0.046,1.028,0.420,-2.380,-0.560
799801,0.065,0.046,1.030,0.420,-2.380,-0.560
799825,0.066,0.047,1.032,0.350,-2.450,-0.630
799843,0.066,0.047,1.033,0.280,-2.380,-0.630
799865,0.066,0.047,1.029,0.280,-2.310,-0.630
799880,0.065,0.042,1.031,0.560,-2.380,-0.630
799905,0.068,0.046,1.033,0.280,-2.520,-0.630
799921,0.069,0.045,1.028,0.350,-2.380,-0.630
799942,0.067,0.046,1.031,0.490,-2.450,-0.560
799966,0.066,0.045,1.035,0.420,-2.240,-0.490
799983,0.066,0.044,1.031,0.350,-2.310,-0.560
800006,0.065,0.047,1.026,0.420,-2.380,-0.630
800025,0.066,0.044,1.029,0.420,-2.380,-0.560
800041,0.063,0.045,1.033,0.140,-2.450,-0.630
800066,0.066,0.046,1.031,0.140,-2.380,-0.560
800086,0.065,0.046,1.028,0.350,-2.450,-0.560
800105,0.066,0.046,1.034,0.420,-2.450,-0.560
800125,0.067,0.046,1.030,0.420,-2.380,-0.560
800145,0.067,0.043,1.028,0.420,-2.520,-0.630
800169,0.065,0.046,1.034,0.350,-2.450,-0.560
800189,0.066,0.043,1.030,0.140,-2.450,-0.560
800209,0.065,0.045,1.027,0.210,-2.310,-0.490
800228,0.066,0.048,1.029,0.490,-2.310,-0.630
800246,0.067,0.044,1.035,0.350,-2.380,-0.630
800270,0.066,0.046,1.028,0.210,-2.170,-0.630
800289,0.065,0.047,1.028,0.280,-2.380,-0.560
800310,0.067,0.045,1.032,0.560,-2.520,-0.560
800328,0.066,0.046,1.036,0.210,-2.450,-0.560
800350,0.063,0.046,1.033,0.070,-2.520,-0.560
800370,0.063,0.045,1.029,0.280,-2.450,-0.560
800390,0.064,0.046,1.030,0.350,-2.520,-0.560
800405,0.067,0.047,1.031,0.210,-2.310,-0.560
800430,0.064,0.045,1.028,0.280,-2.310,-0.560
800450,0.065,0.045,1.031,0.420,-2.310,-0.490
800470,0.063,0.047,1.034,0.280,-2.450,-0.560
800488,0.066,0.045,1.025,0.420,-2.450,-0.630
800505,0.065,0.046,1.035,0.560,-2.450,-0.560
800527,0.065,0.045,1.037,0.280,-2.380,-0.630
800547,0.065,0.046,1.028,0.070,-2.380,-0.560
800567,0.064,0.049,1.027,0.490,-2.380,-0.630
800587,0.067,0.047,1.032,0.490,-2.520,-0.490
800607,0.067,0.045,1.032,0.420,-2.380,-0.560
800627,0.065,0.043,1.027,0.490,-2.450,-0.700
800651,0.065,0.046,1.030,0.490,-2.310,-0.630
800671,0.066,0.044,1.033,0.420,-2.450,-0.560
800691,0.065,0.047,1.030,0.210,-2.380,-0.560
800711,0.063,0.047,1.030,0.420,-2.450,-0.560
800731,0.065,0.047,1.032,0.280,-2.310,-0.560
800751,0.066,0.044,1.024,0.350,-2.310,-0.560
800768,0.065,0.047,1.028,0.490,-2.590,-0.560
800788,0.066,0.045,1.033,0.630,-2.450,-0.560
800808,0.068,0.046,1.032,0.210,-2.310,-0.560
800829,0.066,0.044,1.026,0.140,-2.310,-0.560
800848,0.065,0.047,1.031,0.420,-2.450,-0.630
800868,0.063,0.046,1.032,0.280,-2.450,-0.560
800893,0.065,0.045,1.033,0.140,-2.240,-0.490
800913,0.065,0.046,1.026,0.280,-2.450,-0.560
800935,0.065,0.046,1.029,0.560,-2.450,-0.560
800955,0.065,0.045,1.031,0.420,-2.380,-0.560
800975,0.066,0.047,1.028,0.350,-2.380,-0.560
800995,0.066,0.046,1.026,0.420,-2.450,-0.630
801019,0.064,0.045,1.032,0.490,-2.450,-0.490
801039,0.066,0.046,1.032,0.280,-2.450,-0.630
801059,0.064,0.049,1.027,0.140,-2.310,-0.560
801079,0.064,0.046,1.031,0.420,-2.450,-0.560
801099,0.064,0.046,1.035,0.420,-2.450,-0.560
801119,0.063,0.047,1.027,0.210,-2.450,-0.560
801134,0.066,0.046,1.030,0.490,-2.380,-0.560
801154,0.065,0.047,1.033,0.350,-2.450,-0.490
801174,0.065,0.046,1.028,0.350,-2.450,-0.630
801194,0.066,0.045,1.029,0.280,-2.450,-0.630
801214,0.064,0.046,1.033,0.350,-2.450,-0.630
801238,0.064,0.044,1.032,0.140,-2.450,-0.490
801261,0.063,0.045,1.029,0.140,-2.240,-0.630
801281,0.066,0.047,1.031,0.280,-2.450,-0.560
801301,0.066,0.047,1.033,0.070,-2.450,-0.560
801321,0.064,0.046,1.030,0.070,-2.450,-0.630
801344,0.067,0.045,1.030,0.280,-2.450,-0.630
801365,0.066,0.047,1.034,0.350,-2.520,-0.560
801380,0.061,0.045,1.030,0.350,-2.380,-0.630
801400,0.067,0.045,1.025,0.560,-2.310,-0.560
801420,0.066,0.044,1.032,0.630,-2.380,-0.560
801440,0.062,0.045,1.034,0.210,-2.520,-0.630
801460,0.064,0.044,1.032,0.280,-2.520,-0.560
801480,0.064,0.046,1.031,0.350,-2.450,-0.560
801505,0.064,0.044,1.035,0.280,-2.380,-0.630
801525,0.065,0.048,1.031,0.280,-2.450,-0.560
801545,0.067,0.047,1.030,0.350,-2.380,-0.490
801564,0.066,0.046,1.034,0.560,-2.240,-0.560
801585,0.064,0.043,1.029,0.420,-2.450,-0.630
801605,0.065,0.048,1.029,0.420,-2.380,-0.630
801620,0.066,0.045,1.033,0.280,-2.520,-0.630
801645,0.065,0.046,1.032,0.350,-2.380,-0.630
801665,0.062,0.045,1.029,0.420,-2.450,-0.630
801685,0.064,0.047,1.031,0.350,-2.450,-0.560
801705,0.066,0.048,1.035,0.280,-2.380,-0.490
801725,0.064,0.047,1.032,0.140,-2.240,-0.560
801742,0.066,0.047,1.029,0.420,-2.240,-0.560
801762,0.064,0.046,1.034,0.560,-2.380,-0.560
801782,0.067,0.047,1.031,0.350,-2.310,-0.560
801802,0.064,0.045,1.026,0.420,-2.170,-0.630
801821,0.068,0.045,1.031,0.490,-2.520,-0.560
801846,0.065,0.045,1.030,0.420,-2.380,-0.560
801866,0.066,0.046,1.029,0.420,-2.310,-0.630
801886,0.062,0.044,1.030,0.560,-2.450,-0.630
801906,0.066,0.044,1.030,0.490,-2.380,-0.560
801925,0.064,0.045,1.027,0.350,-2.310,-0.560
801946,0.064,0.046,1.033,0.280,-2.380,-0.700
801966,0.065,0.044,1.031,0.280,-2.380,-0.560
801986,0.065,0.048,1.030,0.280,-2.310,-0.560
802006,0.065,0.046,1.027,0.420,-2.520,-0.630
802026,0.065,0.045,1.029,0.490,-2.380,-0.560
802046,0.063,0.045,1.033,0.280,-2.310,-0.560
802066,0.066,0.046,1.028,0.350,-2.380,-0.560
802086,0.065,0.045,1.029,0.490,-2.310,-0.630
802102,0.066,0.045,1.030,0.210,-2.450,-0.560
802122,0.064,0.047,1.027,0.280,-2.310,-0.560
802142,0.065,0.046,1.032,0.210,-2.520,-0.560
802163,0.066,0.047,1.031,0.140,-2.310,-0.560
802187,0.065,0.049,1.029,0.210,-2.380,-0.630
802207,0.065,0.047,1.031,0.280,-2.450,-0.560
802222,0.065,0.046,1.032,0.350,-2.450,-0.560
802247,0.066,0.046,1.030,0.350,-2.310,-0.560
802267,0.065,0.047,1.030,0.490,-2.520,-0.630
802287,0.064,0.046,1.033,0.350,-2.450,-0.560
802306,0.065,0.045,1.030,0.280,-2.310,-0.560
802328,0.066,0.045,1.029,0.210,-2.310,-0.560
802352,0.065,0.046,1.026,0.420,-2.450,-0.630
802372,0.063,0.045,1.032,0.350,-2.590,-0.560
802396,0.066,0.047,1.030,0.140,-2.450,-0.630
802414,0.064,0.046,1.030,0.280,-2.310,-0.560
802436,0.066,0.047,1.032,0.210,-2.450,-0.560
802456,0.064,0.045,1.033,0.210,-2.380,-0.630
802471,0.065,0.046,1.031,0.350,-2.380,-0.560
802491,0.067,0.045,1.033,0.420,-2.240,-0.630
802515,0.066,0.047,1.031,0.490,-2.450,-0.630
802535,0.065,0.044,1.028,0.560,-2.450,-0.490
802559,0.066,0.044,1.030,0.560,-2.380,-0.630
802574,0.062,0.047,1.033,0.140,-2.590,-0.560
802597,0.066,0.047,1.028,0.070,-2.450,-0.630
802617,0.065,0.048,1.029,0.280,-2.380,-0.630
802637,0.065,0.045,1.031,0.350,-2.520,-0.630
802656,0.065,0.047,1.031,0.280,-2.310,-0.560
802676,0.063,0.046,1.028,0.350,-2.380,-0.630
802696,0.065,0.046,1.032,0.490,-2.520,-0.700
802717,0.065,0.044,1.030,0.280,-2.380,-0.490
802741,0.064,0.044,1.027,0.490,-2.660,-0.560
802759,0.066,0.044,1.030,0.490,-2.520,-0.560
802779,0.066,0.045,1.031,0.210,-2.310,-0.560
802799,0.066,0.049,1.030,0.140,-2.450,-0.490
802819,0.064,0.047,1.033,0.070,-2.450,-0.490
802843,0.064,0.046,1.032,0.140,-2.590,-0.630
802862,0.065,0.047,1.030,0.210,-2.590,-0.630
802881,0.064,0.048,1.032,0.210,-2.520,-0.630
802901,0.067,0.046,1.032,0.560,-2.450,-0.630
802921,0.065,0.045,1.030,0.560,-2.380,-0.630
802946,0.064,0.047,1.025,0.350,-2.380,-0.630
802966,0.064,0.045,1.031,0.350,-2.240,-0.630
802985,0.066,0.047,1.032,0.140,-2.450,-0.630
803001,0.066,0.048,1.029,0.140,-2.310,-0.560
803026,0.064,0.046,1.030,0.280,-2.450,-0.420
803044,0.065,0.045,1.033,0.350,-2.660,-0.560
803066,0.064,0.046,1.032,0.350,-2.660,-0.490
803084,0.065,0.046,1.030,0.490,-2.450,-0.630
803107,0.065,0.046,1.031,0.490,-2.450,-0.490
803128,0.067,0.047,1.031,0.350,-2.380,-0.560
803148,0.065,0.042,1.028,0.350,-2.380,-0.630
803170,0.066,0.045,1.031,0.490,-2.450,-0.700
803189,0.065,0.045,1.032,0.280,-2.520,-0.630
803213,0.067,0.046,1.031,0.210,-2.450,-0.560
803233,0.068,0.047,1.032,0.350,-2.520,-0.630
803253,0.066,0.048,1.029,0.350,-2.450,-0.560
803272,0.066,0.046,1.032,0.210,-2.240,-0.560
803288,0.065,0.048,1.030,0.350,-2.450,-0.630
803308,0.068,0.045,1.034,0.350,-2.380,-0.700
803330,0.066,0.047,1.030,0.210,-2.380,-0.560
803353,0.066,0.044,1.030,0.350,-2.520,-0.630
803373,0.066,0.046,1.030,0.280,-2.520,-0.560
803391,0.062,0.046,1.032,0.280,-2.450,-0.630
803412,0.065,0.048,1.030,0.210,-2.380,-0.560
803436,0.065,0.047,1.031,0.280,-2.520,-0.630
803456,0.064,0.046,1.033,0.210,-2.450,-0.630
803476,0.065,0.046,1.031,0.210,-2.310,-0.630
803496,0.066,0.047,1.030,0.280,-2.240,-0.630
803515,0.065,0.045,1.032,0.420,-2.380,-0.560
803536,0.065,0.047,1.031,0.350,-2.170,-0.560
803556,0.065,0.045,1.028,0.490,-2.380,-0.560
803576,0.064,0.044,1.031,0.420,-2.520,-0.630
803596,0.065,0.046,1.029,0.490,-2.450,-0.490
803616,0.064,0.046,1.026,0.350,-2.520,-0.560
803634,0.064,0.047,1.034,0.350,-2.310,-0.560
803658,0.064,0.048,1.033,0.350,-2.310,-0.560
803681,0.066,0.047,1.034,0.280,-2.380,-0.560
803705,0.065,0.047,1.030,0.420,-2.380,-0.630
803725,0.066,0.045,1.029,0.490,-2.520,-0.560
803745,0.067,0.045,1.032,0.350,-2.450,-0.560
803765,0.064,0.047,1.031,0.420,-2.450,-0.630
803784,0.065,0.045,1.030,0.560,-2.520,-0.630
803805,0.063,0.043,1.029,0.140,-2.450,-0.630
803820,0.066,0.045,1.028,0.140,-2.450,-0.630
803840,0.068,0.047,1.032,0.140,-2.380,-0.560
803865,0.067,0.047,1.030,0.140,-2.170,-0.630
803884,0.065,0.046,1.029,0.210,-2.310,-0.630
803903,0.064,0.045,1.031,0.350,-2.380,-0.560
803923,0.064,0.046,1.032,0.420,-2.450,-0.560
803946,0.064,0.048,1.033,0.350,-2.450,-0.490
803966,0.065,0.047,1.028,0.280,-2.310,-0.560
803985,0.067,0.046,1.033,0.420,-2.380,-0.560
804010,0.062,0.045,1.033,0.420,-2.520,-0.700
804030,0.066,0.045,1.031,0.280,-2.310,-0.630
804050,0.066,0.046,1.030,0.350,-2.380,-0.700
804069,0.066,0.048,1.033,0.210,-2.310,-0.560
804089,0.065,0.047,1.030,0.490,-2.380,-0.560
804114,0.067,0.042,1.031,0.560,-2.380,-0.490
804134,0.064,0.045,1.033,0.490,-2.380,-0.630
804154,0.066,0.048,1.030,0.560,-2.380,-0.560
804174,0.065,0.045,1.027,0.490,-2.380,-0.560
804194,0.067,0.044,1.032,0.210,-2.380,-0.630
804214,0.066,0.048,1.029,0.140,-2.380,-0.560
804234,0.065,0.045,1.030,0.140,-2.380,-0.490
804254,0.065,0.047,1.032,0.140,-2.380,-0.560
804272,0.066,0.047,1.029,0.280,-2.380,-0.490
804293,0.066,0.045,1.030,0.210,-2.450,-0.630
804313,0.066,0.047,1.032,0.490,-2.520,-0.560
804333,0.067,0.043,1.033,0.490,-2.380,-0.560
804353,0.063,0.045,1.031,0.350,-2.450,-0.630
804373,0.066,0.048,1.031,0.420,-2.450,-0.560
804393,0.065,0.043,1.031,0.350,-2.450,-0.630
804412,0.065,0.047,1.030,0.210,-2.380,-0.630
804437,0.065,0.045,1.033,0.280,-2.450,-0.560
804452,0.063,0.047,1.031,0.210,-2.450,-0.560
804473,0.066,0.047,1.028,0.140,-2.450,-0.630
804493,0.066,0.046,1.031,0.350,-2.450,-0.630
804513,0.066,0.044,1.032,0.490,-2.520,-0.700
804532,0.066,0.044,1.029,0.350,-2.380,-0.630
804555,0.065,0.046,1.030,0.350,-2.380,-0.560
804577,0.064,0.045,1.031,0.420,-2.450,-0.560
804601,0.067,0.047,1.033,0.280,-2.450,-0.630
804619,0.064,0.046,1.027,0.210,-2.660,-0.560
804637,0.065,0.045,1.032,0.350,-2.520,-0.630
804659,0.065,0.046,1.034,0.210,-2.590,-0.630
804681,0.064,0.046,1.027,0.420,-2.380,-0.560
804700,0.067,0.047,1.029,0.420,-2.240,-0.560
804720,0.068,0.044,1.032,0.420,-2.240,-0.560
804739,0.066,0.045,1.031,0.280,-2.100,-0.490
804764,0.064,0.048,1.029,0.140,-2.240,-0.630
804784,0.064,0.049,1.030,0.280,-2.520,-0.560
804802,0.064,0.048,1.031,0.210,-2.450,-0.560
804822,0.065,0.046,1.029,0.420,-2.450,-0.490
804844,0.065,0.046,1.031,0.280,-2.590,-0.700
804866,0.066,0.047,1.033,0.420,-2.450,-0.560
804886,0.066,0.049,1.027,0.140,-2.450,-0.560
804905,0.064,0.047,1.031,0.350,-2.380,-0.630
804929,0.065,0.046,1.035,0.420,-2.590,-0.490
804949,0.066,0.046,1.033,0.420,-2.310,-0.560
804969,0.064,0.047,1.030,0.490,-2.450,-0.560
804989,0.065,0.044,1.033,0.420,-2.450,-0.630
805009,0.064,0.044,1.029,0.350,-2.310,-0.630
805029,0.065,0.047,1.029,0.490,-2.450,-0.560
805049,0.066,0.046,1.028,0.560,-2.520,-0.560
805064,0.065,0.046,1.029,0.210,-2.380,-0.560
805089,0.066,0.045,1.028,0.420,-2.380,-0.560
805109,0.065,0.047,1.032,0.490,-2.450,-0.630
805129,0.065,0.046,1.033,0.210,-2.310,-0.630
805149,0.067,0.045,1.028,0.490,-2.450,-0.700
805169,0.066,0.043,1.029,0.490,-2.170,-0.630
805189,0.063,0.046,1.031,0.490,-2.450,-0.560
805209,0.066,0.046,1.028,0.350,-2.450,-0.560
805229,0.065,0.049,1.032,0.420,-2.380,-0.630
805249,0.065,0.046,1.031,0.210,-2.310,-0.700
805267,0.065,0.046,1.029,0.210,-2.310,-0.560
805289,0.063,0.045,1.031,0.280,-2.380,-0.630
805308,0.064,0.044,1.031,0.420,-2.450,-0.560
805328,0.066,0.046,1.029,0.420,-2.380,-0.490
805352,0.067,0.045,1.033,0.210,-2.450,-0.630
805370,0.064,0.048,1.031,0.070,-2.380,-0.630
805392,0.064,0.046,1.028,0.070,-2.450,-0.630
805410,0.064,0.046,1.031,0.280,-2.450,-0.560
805434,0.065,0.044,1.031,0.350,-2.310,-0.560
805454,0.065,0.047,1.031,0.210,-2.310,-0.560
805474,0.066,0.047,1.028,0.280,-2.450,-0.560
805493,0.064,0.046,1.031,0.350,-2.380,-0.490
805513,0.064,0.045,1.032,0.280,-2.310,-0.560
805537,0.067,0.047,1.033,0.210,-2.380,-0.560
805558,0.066,0.045,1.030,0.280,-2.520,-0.630
805576,0.065,0.048,1.034,0.210,-2.520,-0.630
805600,0.065,0.045,1.030,0.280,-2.520,-0.630
805620,0.063,0.047,1.029,0.210,-2.380,-0.560
805638,0.063,0.047,1.034,0.420,-2.380,-0.560
805658,0.064,0.045,1.033,0.350,-2.520,-0.560
805676,0.065,0.046,1.028,0.350,-2.450,-0.490
805696,0.064,0.046,1.031,0.490,-2.450,-0.560
805720,0.065,0.046,1.031,0.490,-2.450,-0.560
805740,0.064,0.046,1.031,0.350,-2.310,-0.490
805755,0.065,0.046,1.032,0.490,-2.310,-0.700
805780,0.065,0.044,1.030,0.280,-2.380,-0.560
805800,0.066,0.045,1.031,0.350,-2.380,-0.560
805818,0.065,0.046,1.031,0.350,-2.310,-0.560
805838,0.066,0.048,1.032,0.420,-2.380,-0.560
805858,0.068,0.046,1.028,0.490,-2.380,-0.630
805878,0.064,0.047,1.027,0.490,-2.380,-0.630
805897,0.066,0.045,1.033,0.630,-2.310,-0.560
805918,0.068,0.045,1.029,0.630,-2.170,-0.560
805938,0.066,0.042,1.028,0.350,-2.450,-0.560
805958,0.068,0.045,1.035,0.350,-2.520,-0.630
805978,0.066,0.045,1.032,0.070,-2.520,-0.700
805998,0.067,0.046,1.028,-0.070,-2.310,-0.560
806021,0.064,0.046,1.032,0.210,-2.520,-0.560
806042,0.064,0.046,1.033,0.070,-2.450,-0.560
806062,0.066,0.044,1.030,0.210,-2.520,-0.490
806082,0.065,0.047,1.031,0.420,-2.450,-0.560
806102,0.065,0.048,1.032,0.350,-2.450,-0.560
806122,0.067,0.046,1.030,0.490,-2.450,-0.630
806146,0.065,0.046,1.028,0.420,-2.380,-0.560
806166,0.065,0.046,1.030,0.420,-2.380,-0.490
806183,0.063,0.047,1.032,0.280,-2.310,-0.630
806206,0.064,0.046,1.030,0.210,-2.310,-0.560
806226,0.064,0.046,1.033,0.420,-2.380,-0.630
806245,0.065,0.044,1.030,0.280,-2.380,-0.630
806266,0.064,0.046,1.032,0.490,-2.450,-0.560
806286,0.066,0.045,1.032,0.350,-2.520,-0.630
806306,0.066,0.047,1.035,0.280,-2.450,-0.560
806326,0.063,0.045,1.031,0.140,-2.310,-0.630
806346,0.066,0.047,1.031,0.420,-2.450,-0.560
806366,0.067,0.046,1.033,0.420,-2.380,-0.630
806382,0.064,0.047,1.031,0.490,-2.310,-0.630
806402,0.066,0.046,1.030,0.490,-2.310,-0.700
806422,0.064,0.046,1.032,0.490,-2.310,-0.630
806442,0.063,0.045,1.031,0.280,-2.380,-0.560
806462,0.065,0.046,1.030,0.140,-2.450,-0.560
806486,0.063,0.043,1.032,0.280,-2.450,-0.560
806503,0.065,0.045,1.033,0.210,-2.520,-0.560
806527,0.064,0.044,1.029,0.280,-2.450,-0.630
806542,0.064,0.043,1.032,0.280,-2.450,-0.490
806567,0.065,0.045,1.034,0.140,-2.380,-0.560
806584,0.065,0.047,1.029,0.420,-2.380,-0.560
806605,0.066,0.046,1.030,0.560,-2.520,-0.630
806624,0.064,0.043,1.033,0.420,-2.380,-0.560
806649,0.065,0.043,1.028,0.280,-2.450,-0.630
806669,0.064,0.047,1.028,0.210,-2.240,-0.560
806689,0.064,0.047,1.033,0.280,-2.310,-0.630
806709,0.065,0.044,1.033,0.140,-2.450,-0.560
806729,0.063,0.045,1.031,0.350,-2.310,-0.560
806748,0.064,0.047,1.031,0.350,-2.450,-0.630
806769,0.065,0.045,1.033,0.350,-2.590,-0.490
806793,0.064,0.045,1.028,0.210,-2.240,-0.630
806817,0.065,0.047,1.029,0.210,-2.380,-0.630
806837,0.065,0.047,1.032,0.350,-2.520,-0.700
806857,0.062,0.046,1.033,0.140,-2.520,-0.560
806877,0.065,0.045,1.025,0.280,-2.450,-0.630
806892,0.066,0.042,1.032,0.420,-2.520,-0.560
806916,0.065,0.045,1.035,0.350,-2.380,-0.560
806935,0.064,0.046,1.032,0.210,-2.380,-0.560
806959,0.065,0.048,1.028,0.140,-2.520,-0.490
806983,0.065,0.045,1.029,0.350,-2.380,-0.490
807004,0.067,0.046,1.033,0.350,-2.380,-0.560
807027,0.066,0.048,1.031,0.350,-2.520,-0.560
807047,0.063,0.045,1.029,0.210,-2.520,-0.630
807066,0.064,0.042,1.035,0.350,-2.380,-0.560
807091,0.067,0.046,1.033,0.280,-2.380,-0.630
807111,0.065,0.046,1.032,0.210,-2.450,-0.630
807128,0.064,0.047,1.030,0.490,-2.380,-0.630
807151,0.065,0.044,1.031,0.280,-2.450,-0.560
807170,0.067,0.043,1.031,0.210,-2.450,-0.560
807193,0.067,0.044,1.031,0.210,-2.450,-0.630
807213,0.064,0.044,1.028,0.280,-2.450,-0.630
807233,0.066,0.044,1.032,0.140,-2.310,-0.630
807256,0.066,0.045,1.032,0.350,-2.380,-0.490
