Millis,AccelX,AccelY,AccelZ,GyroX,GyroY,GyroZ
680382,0.111,0.597,0.844,0.630,-1.960,-1.260
680396,0.110,0.595,0.842,0.840,-2.170,-1.190
680419,0.109,0.594,0.842,0.840,-2.450,-0.700
680440,0.112,0.598,0.841,0.910,-2.450,-0.490
680461,0.109,0.598,0.845,1.050,-2.450,-0.630
680480,0.107,0.593,0.843,0.910,-2.590,-0.560
680536,0.113,0.595,0.843,1.050,-2.800,-0.560
680553,0.113,0.598,0.840,0.910,-2.520,-0.770
680576,0.111,0.597,0.842,0.280,-2.030,-0.840
680597,0.112,0.597,0.840,0.700,-2.240,-0.840
680621,0.109,0.596,0.843,1.120,-2.520,-0.420
680641,0.111,0.597,0.844,1.820,-3.290,-0.420
680704,0.110,0.598,0.842,0.840,-2.590,-0.560
680726,0.110,0.594,0.843,0.910,-2.730,-0.770
680747,0.113,0.596,0.841,0.910,-2.590,-0.560
680764,0.114,0.598,0.841,0.770,-2.100,-1.120
680787,0.112,0.597,0.844,1.120,-2.170,-1.260
680806,0.111,0.595,0.843,0.910,-2.170,-1.260
680876,0.110,0.595,0.843,0.070,-1.890,-1.190
680895,0.110,0.595,0.844,0.840,-2.520,-0.770
680914,0.112,0.595,0.842,0.840,-2.730,-0.420
680939,0.113,0.596,0.843,1.190,-2.870,-0.140
680959,0.113,0.595,0.841,1.330,-2.590,-0.350
680979,0.112,0.594,0.844,0.980,-2.170,-0.840
681039,0.111,0.595,0.842,0.770,-2.310,-0.840
681057,0.108,0.594,0.841,0.560,-2.590,-0.280
681078,0.110,0.596,0.844,1.050,-3.150,0.140
681102,0.112,0.596,0.842,0.560,-2.870,0.000
681126,0.112,0.595,0.844,1.120,-2.660,-0.560
681143,0.114,0.594,0.841,0.980,-2.380,-1.120
681198,0.113,0.596,0.843,0.700,-1.960,-1.330
681217,0.110,0.597,0.844,0.630,-2.450,-0.910
681237,0.111,0.596,0.845,0.700,-2.380,-0.630
681256,0.112,0.595,0.845,0.770,-2.520,-0.350
681275,0.112,0.591,0.845,1.190,-2.800,-0.280
681297,0.113,0.597,0.843,0.910,-2.450,-0.350
681360,0.109,0.597,0.845,0.980,-2.310,-1.050
681381,0.110,0.599,0.843,-0.140,-2.730,0.070
681396,0.112,0.598,0.846,3.150,-4.130,-0.070
681416,0.117,0.595,0.836,1.820,-3.080,-0.210
681441,0.113,0.595,0.846,-0.070,-2.450,-0.490
681460,0.114,0.600,0.836,0.070,-1.820,-1.190
681514,0.112,0.595,0.839,0.770,-1.820,-1.330
681533,0.110,0.595,0.847,1.050,-2.170,-1.400
681553,0.113,0.597,0.841,0.840,-2.310,-1.120
681573,0.114,0.598,0.842,-0.910,-0.840,-0.490
681591,0.105,0.588,0.852,1.820,-4.480,0.140
681611,0.109,0.597,0.836,4.480,-6.790,1.260
681664,0.118,0.602,0.834,3.850,-6.020,1.260
681684,0.117,0.600,0.836,-0.070,-2.380,-0.140
681705,0.117,0.599,0.843,1.400,-2.450,-1.960
681723,0.118,0.598,0.835,-0.560,-0.350,-3.080
681740,0.117,0.600,0.840,-1.330,0.980,-3.360
681764,0.111,0.595,0.841,-1.330,0.280,-3.220
681824,0.105,0.591,0.855,3.150,-3.780,-2.240
681843,0.103,0.601,0.829,-2.030,-1.610,0.000
681863,0.110,0.606,0.852,-0.910,-2.240,0.070
681883,0.112,0.593,0.838,3.290,-3.360,-0.980
681901,0.113,0.595,0.838,-0.840,-1.050,-0.490
681923,0.106,0.596,0.850,1.470,-2.800,0.140
681985,0.113,0.599,0.839,1.540,-2.800,-0.980
682002,0.114,0.599,0.837,0.140,-0.980,-1.680
682024,0.115,0.595,0.841,0.000,-0.770,-1.960
682041,0.111,0.597,0.844,0.350,-1.470,-1.540
682060,0.111,0.597,0.842,0.280,-1.400,-1.610
682083,0.108,0.597,0.843,-0.210,-1.400,-1.120
682131,0.108,0.594,0.843,0.560,-2.590,-0.630
682150,0.110,0.594,0.844,1.260,-3.080,-0.630
682169,0.110,0.595,0.840,0.560,-2.450,-0.490
682190,0.109,0.596,0.846,1.120,-2.730,-0.490
682210,0.111,0.596,0.842,1.540,-2.450,-0.770
682230,0.111,0.596,0.842,1.050,-2.590,-0.700
682291,0.113,0.598,0.842,0.490,-2.450,-0.770
682308,0.110,0.598,0.844,0.420,-2.030,-0.910
682327,0.110,0.595,0.842,0.770,-2.310,-0.910
682352,0.114,0.595,0.844,0.700,-2.310,-0.980
682372,0.111,0.598,0.844,0.910,-2.450,-0.770
682392,0.112,0.596,0.841,0.910,-2.310,-0.980
682445,0.112,0.594,0.843,1.120,-2.590,-0.490
682468,0.111,0.595,0.844,0.980,-2.800,-0.560
682489,0.112,0.598,0.844,0.420,-2.240,-0.770
682508,0.112,0.597,0.846,0.420,-2.240,-0.910
682527,0.111,0.594,0.843,1.470,-3.010,-0.770
682546,0.112,0.598,0.842,0.980,-2.590,-0.700
682590,0.109,0.595,0.843,0.700,-2.240,-0.910
682608,0.110,0.595,0.842,0.840,-2.380,-0.910
682633,0.112,0.595,0.845,0.700,-2.240,-0.770
682651,0.111,0.597,0.840,0.770,-2.310,-0.630
682673,0.111,0.595,0.842,0.910,-2.450,-0.840
682693,0.111,0.595,0.844,0.560,-2.380,-0.910
682750,0.112,0.596,0.843,0.420,-1.890,-0.910
682768,0.108,0.596,0.845,0.280,-1.890,-0.980
682789,0.111,0.597,0.844,0.770,-2.100,-0.980
682809,0.110,0.594,0.841,0.700,-1.960,-0.910
682829,0.108,0.595,0.845,0.140,-1.960,-0.910
682846,0.112,0.595,0.846,0.560,-2.030,-0.840
682905,0.109,0.596,0.842,0.840,-2.170,-0.840
682919,0.109,0.592,0.844,0.770,-2.170,-0.910
682944,0.108,0.594,0.843,0.630,-2.240,-0.980
682964,0.111,0.593,0.843,0.490,-2.030,-0.910
682983,0.109,0.596,0.846,0.630,-2.100,-1.050
683008,0.107,0.592,0.844,0.840,-2.240,-0.910
683068,0.109,0.594,0.845,1.050,-2.450,-0.770
683084,0.107,0.595,0.843,0.770,-2.450,-0.770
683107,0.111,0.594,0.846,0.770,-2.520,-0.700
683126,0.111,0.594,0.845,0.770,-2.380,-0.770
683147,0.108,0.593,0.843,1.330,-2.590,-0.770
683165,0.107,0.594,0.844,0.910,-2.520,-0.700
683215,0.111,0.594,0.845,0.770,-2.520,-0.420
683239,0.110,0.599,0.846,1.050,-2.520,-0.560
683259,0.109,0.591,0.844,0.910,-2.310,-0.840
683283,0.110,0.594,0.845,1.050,-2.520,-0.910
683303,0.108,0.596,0.846,0.770,-2.240,-0.770
683323,0.106,0.596,0.845,0.910,-2.590,-0.700
683381,0.110,0.597,0.847,1.540,-3.150,-0.280
683395,0.108,0.593,0.842,1.400,-3.150,-0.070
683420,0.110,0.595,0.844,1.190,-3.150,-0.280
683440,0.109,0.597,0.844,1.680,-3.010,-0.350
683460,0.112,0.593,0.842,1.400,-2.940,-0.490
683479,0.111,0.594,0.845,1.190,-2.870,-0.560
683534,0.112,0.599,0.841,0.980,-2.800,-0.630
683553,0.110,0.596,0.843,1.190,-2.800,-0.630
683573,0.111,0.592,0.842,1.330,-3.080,-0.630
683593,0.111,0.596,0.842,0.980,-2.800,-0.350
683611,0.111,0.595,0.844,1.190,-2.940,-0.560
683630,0.113,0.596,0.844,1.540,-3.080,-0.350
683686,0.112,0.597,0.842,1.400,-2.730,-0.490
683705,0.108,0.595,0.843,0.840,-2.660,-0.560
683724,0.114,0.597,0.843,1.120,-2.730,-0.560
683743,0.113,0.596,0.841,1.190,-2.660,-0.770
683761,0.113,0.594,0.842,0.630,-2.450,-0.700
683781,0.114,0.599,0.841,0.700,-2.450,-0.630
683852,0.113,0.593,0.843,1.190,-2.730,-0.560
683866,0.114,0.597,0.843,1.120,-2.870,-0.560
683890,0.115,0.595,0.840,1.260,-2.730,-0.490
683911,0.115,0.595,0.843,1.190,-2.730,-0.700
683931,0.113,0.593,0.841,1.190,-2.730,-0.630
683949,0.115,0.600,0.844,1.050,-2.660,-0.420
684002,0.114,0.596,0.840,1.120,-2.660,-0.700
684021,0.113,0.594,0.840,0.980,-2.800,-0.700
684041,0.116,0.595,0.840,0.770,-2.450,-0.630
684057,0.118,0.597,0.840,1.050,-2.380,-0.770
684077,0.112,0.594,0.842,1.050,-2.590,-0.770
684097,0.112,0.599,0.843,0.840,-2.590,-0.560
684160,0.115,0.596,0.841,1.120,-2.730,-0.700
684184,0.114,0.596,0.842,0.770,-2.450,-0.700
684204,0.116,0.598,0.842,1.120,-2.380,-0.700
684222,0.113,0.593,0.840,1.330,-2.520,-0.910
684240,0.111,0.596,0.843,0.630,-2.520,-0.700
684260,0.115,0.601,0.845,0.840,-2.240,-0.700
684327,0.113,0.596,0.841,0.770,-2.590,-0.770
684349,0.114,0.599,0.845,0.700,-2.450,-0.630
684369,0.113,0.596,0.844,1.050,-2.520,-0.840
684389,0.113,0.595,0.840,0.910,-2.730,-0.630
684413,0.114,0.597,0.841,0.770,-2.870,-0.490
684433,0.115,0.600,0.843,0.770,-2.450,-0.700
684505,0.111,0.594,0.840,1.120,-2.520,-0.770
684519,0.114,0.600,0.841,0.910,-2.450,-0.560
684542,0.115,0.597,0.840,1.050,-2.520,-0.700
684564,0.115,0.595,0.841,1.400,-2.800,-0.770
684584,0.115,0.597,0.840,0.770,-2.520,-0.560
684604,0.116,0.599,0.842,0.840,-2.520,-0.700
684655,0.117,0.596,0.842,0.980,-2.450,-0.630
684673,0.114,0.595,0.839,0.910,-2.800,-0.560
684691,0.117,0.598,0.842,0.840,-2.520,-0.630
684715,0.116,0.597,0.839,1.120,-2.520,-0.700
684735,0.114,0.595,0.841,0.980,-2.520,-0.840
684754,0.115,0.598,0.841,0.630,-2.380,-0.910
684815,0.116,0.597,0.839,0.910,-2.590,-0.630
684835,0.115,0.597,0.843,0.560,-2.380,-0.630
684855,0.115,0.599,0.839,1.190,-2.520,-0.700
684874,0.115,0.596,0.839,1.260,-2.660,-0.700
684897,0.114,0.598,0.841,0.560,-2.450,-0.770
684917,0.116,0.599,0.840,0.770,-2.450,-0.700
684973,0.115,0.599,0.840,0.910,-2.380,-0.630
684993,0.116,0.596,0.839,1.190,-2.590,-0.770
685012,0.116,0.595,0.840,0.980,-2.520,-0.630
685037,0.115,0.600,0.842,0.840,-2.450,-0.700
685057,0.117,0.598,0.842,0.700,-2.310,-0.770
685077,0.113,0.597,0.840,1.260,-2.450,-0.770
685141,0.115,0.598,0.843,1.050,-2.660,-0.560
685165,0.116,0.594,0.840,1.330,-2.520,-0.840
685185,0.116,0.597,0.842,0.840,-2.450,-0.840
685205,0.113,0.600,0.842,1.050,-2.590,-0.560
685225,0.114,0.597,0.840,0.980,-2.380,-0.630
685243,0.116,0.595,0.839,1.260,-2.520,-0.770
685302,0.115,0.594,0.841,0.980,-2.660,-0.840
685316,0.116,0.597,0.842,0.630,-2.380,-0.630
685341,0.114,0.599,0.840,1.190,-2.590,-0.490
685361,0.117,0.597,0.840,1.260,-2.660,-0.700
685380,0.115,0.597,0.839,1.260,-2.730,-0.700
685396,0.115,0.597,0.840,0.840,-2.310,-0.700
685449,0.116,0.597,0.841,0.840,-2.240,-0.770
685472,0.117,0.597,0.842,1.260,-2.520,-0.980
685487,0.115,0.599,0.842,0.700,-2.380,-0.700
685511,0.116,0.601,0.840,0.770,-2.310,-0.630
685531,0.117,0.598,0.840,1.120,-2.520,-0.840
685555,0.116,0.596,0.840,0.840,-2.450,-0.840
685595,0.116,0.598,0.844,0.910,-2.310,-0.700
685619,0.116,0.597,0.840,0.910,-2.450,-0.770
685639,0.114,0.594,0.839,0.980,-2.590,-0.770
685659,0.116,0.597,0.840,0.700,-2.450,-0.700
685683,0.116,0.597,0.843,0.630,-2.240,-0.770
685707,0.118,0.601,0.842,0.910,-2.380,-0.770
685764,0.117,0.599,0.841,0.910,-2.450,-0.700
685781,0.117,0.595,0.841,1.190,-2.520,-0.770
685802,0.115,0.596,0.837,0.910,-2.450,-0.910
685822,0.115,0.601,0.842,0.770,-2.310,-0.910
685842,0.114,0.598,0.842,1.120,-2.450,-0.840
685866,0.117,0.594,0.839,0.980,-2.520,-0.840
685914,0.115,0.596,0.841,0.630,-2.520,-0.770
685935,0.117,0.599,0.842,0.840,-2.380,-0.840
685955,0.117,0.597,0.841,1.190,-2.520,-0.770
685975,0.114,0.596,0.841,1.190,-2.660,-0.910
685993,0.116,0.600,0.840,0.770,-2.450,-0.630
686014,0.117,0.601,0.840,0.700,-2.240,-0.630
686067,0.116,0.597,0.840,0.980,-2.520,-0.840
686086,0.114,0.595,0.839,1.120,-2.590,-0.630
686105,0.118,0.600,0.840,0.700,-2.520,-0.560
686125,0.116,0.599,0.842,1.120,-2.310,-0.700
686144,0.115,0.596,0.841,1.190,-2.590,-0.770
686167,0.115,0.596,0.841,0.770,-2.520,-0.700
686222,0.115,0.598,0.843,0.490,-2.450,-0.700
686240,0.117,0.597,0.845,0.840,-2.520,-0.700
686260,0.118,0.597,0.842,0.910,-2.380,-0.840
686284,0.114,0.595,0.842,0.630,-2.450,-0.910
686304,0.117,0.598,0.840,0.980,-2.450,-0.700
686323,0.119,0.597,0.841,0.910,-2.450,-0.980
686382,0.115,0.599,0.841,0.910,-2.310,-0.980
686396,0.115,0.597,0.841,0.910,-2.170,-0.980
686420,0.116,0.596,0.839,0.630,-2.100,-1.120
686439,0.113,0.595,0.841,0.560,-2.170,-0.980
686461,0.115,0.598,0.842,0.980,-2.310,-0.840
686479,0.115,0.596,0.843,1.050,-2.380,-0.770
686535,0.113,0.596,0.843,0.980,-2.660,-0.700
686559,0.113,0.595,0.841,0.910,-2.660,-0.700
686578,0.116,0.599,0.839,0.840,-2.310,-0.700
686597,0.114,0.597,0.842,1.050,-2.520,-0.840
686622,0.115,0.598,0.842,0.700,-2.310,-1.050
686642,0.115,0.597,0.842,1.050,-2.170,-0.910
686699,0.115,0.598,0.843,1.050,-2.380,-0.700
686716,0.114,0.597,0.843,0.560,-2.240,-0.700
686738,0.115,0.599,0.839,1.050,-2.590,-0.630
686758,0.114,0.596,0.841,1.260,-2.730,-0.490
686776,0.115,0.598,0.841,1.120,-2.730,-0.420
686798,0.116,0.598,0.840,1.260,-2.870,-0.560
686878,0.114,0.596,0.840,0.910,-2.450,-0.770
686895,0.117,0.597,0.841,0.910,-2.380,-0.980
686914,0.116,0.595,0.840,0.840,-2.310,-0.910
686935,0.117,0.598,0.843,1.050,-2.450,-0.840
686953,0.116,0.595,0.840,1.120,-2.520,-0.630
686978,0.115,0.598,0.842,1.260,-2.660,-0.700
687039,0.114,0.596,0.840,1.050,-2.660,-0.560
687063,0.115,0.596,0.841,0.840,-2.520,-0.630
687083,0.117,0.600,0.843,0.770,-2.590,-0.560
687102,0.117,0.598,0.840,0.700,-2.310,-0.770
687123,0.116,0.594,0.838,1.050,-2.450,-0.840
687145,0.115,0.593,0.841,1.050,-2.520,-0.770
687201,0.113,0.596,0.841,0.980,-2.520,-0.630
687221,0.114,0.599,0.841,0.490,-2.590,-0.630
687245,0.116,0.599,0.838,0.840,-2.590,-0.560
687264,0.115,0.597,0.841,0.910,-2.590,-0.560
687285,0.114,0.597,0.840,1.050,-2.590,-0.700
687306,0.116,0.598,0.842,0.910,-2.590,-0.630
687381,0.116,0.600,0.840,1.190,-2.590,-0.630
687399,0.116,0.596,0.839,1.190,-2.520,-0.630
687418,0.115,0.597,0.840,0.910,-2.520,-0.630
687435,0.116,0.600,0.840,0.980,-2.590,-0.770
687461,0.118,0.598,0.842,0.910,-2.450,-0.770
687480,0.119,0.596,0.841,1.190,-2.520,-0.700
687535,0.117,0.594,0.841,1.050,-2.660,-0.700
687558,0.118,0.598,0.839,0.700,-2.450,-0.560
687577,0.117,0.599,0.841,0.840,-2.450,-0.700
687597,0.117,0.597,0.840,0.980,-2.450,-0.770
687617,0.117,0.595,0.839,1.050,-2.520,-0.770
687637,0.117,0.599,0.840,0.770,-2.380,-0.630
687712,0.117,0.599,0.840,1.120,-2.380,-0.700
687731,0.117,0.595,0.841,1.050,-2.520,-0.770
687747,0.116,0.598,0.840,0.840,-2.590,-0.560
687771,0.116,0.600,0.840,0.840,-2.380,-0.700
687790,0.117,0.599,0.840,1.120,-2.520,-0.770
687811,0.117,0.594,0.837,0.980,-2.590,-0.700
687871,0.116,0.594,0.841,1.050,-2.590,-0.630
687891,0.117,0.598,0.842,0.770,-2.520,-0.560
687911,0.117,0.598,0.839,0.630,-2.380,-0.630
687931,0.116,0.597,0.843,0.980,-2.450,-0.770
687949,0.118,0.599,0.840,0.910,-2.450,-0.910
687968,0.116,0.599,0.840,0.630,-2.450,-0.770
688019,0.116,0.599,0.840,0.910,-2.520,-0.490
688037,0.117,0.595,0.841,1.120,-2.590,-0.560
688060,0.118,0.597,0.841,0.910,-2.590,-0.630
688082,0.117,0.599,0.841,0.840,-2.380,-0.700
688100,0.115,0.600,0.844,0.840,-2.310,-0.840
688118,0.113,0.595,0.839,0.910,-2.520,-0.770
688191,0.118,0.601,0.841,0.560,-2.310,-0.910
688211,0.117,0.598,0.843,0.980,-2.520,-0.700
688230,0.117,0.599,0.840,1.050,-2.380,-0.840
688249,0.117,0.597,0.841,0.700,-2.380,-0.630
688272,0.118,0.599,0.841,1.050,-2.450,-0.630
688293,0.117,0.600,0.841,1.120,-2.450,-0.840
688357,0.118,0.599,0.843,0.490,-2.310,-0.980
688372,0.115,0.599,0.840,0.910,-2.170,-1.190
688392,0.116,0.595,0.840,0.910,-2.380,-0.980
688411,0.116,0.597,0.844,0.910,-2.590,-0.770
688431,0.119,0.600,0.839,0.980,-2.520,-0.560
688453,0.117,0.597,0.842,1.120,-2.590,-0.490
688525,0.116,0.599,0.839,0.770,-2.450,-0.770
688545,0.117,0.597,0.840,0.840,-2.380,-0.910
688564,0.114,0.598,0.841,1.050,-2.380,-1.120
688584,0.117,0.598,0.839,0.910,-2.310,-0.910
688608,0.116,0.597,0.841,0.770,-2.380,-1.050
688628,0.114,0.597,0.840,0.700,-2.450,-0.840
688689,0.118,0.599,0.841,0.770,-2.590,-0.700
688706,0.118,0.597,0.842,0.980,-2.450,-0.630
688725,0.116,0.595,0.842,1.260,-2.660,-0.630
688745,0.117,0.597,0.837,0.910,-2.450,-0.420
688766,0.117,0.599,0.839,0.910,-2.520,-0.560
688790,0.117,0.597,0.842,1.120,-2.590,-0.560
688862,0.115,0.597,0.842,1.190,-2.940,-0.560
688881,0.117,0.601,0.840,0.980,-2.730,-0.560
688906,0.119,0.600,0.842,0.910,-2.520,-0.630
688924,0.115,0.600,0.839,1.260,-2.520,-1.050
688944,0.115,0.598,0.839,0.840,-2.310,-0.910
688968,0.117,0.599,0.841,0.840,-2.450,-0.840
689026,0.115,0.598,0.840,0.770,-2.450,-0.770
689045,0.115,0.602,0.841,0.980,-2.380,-0.700
689066,0.119,0.599,0.842,0.840,-2.380,-0.630
689086,0.117,0.597,0.840,0.980,-2.590,-0.560
689108,0.117,0.598,0.840,0.840,-2.520,-0.700
689129,0.117,0.600,0.841,0.840,-2.450,-0.630
689186,0.115,0.599,0.841,0.840,-2.380,-0.770
689202,0.117,0.598,0.839,1.120,-2.450,-0.980
689223,0.116,0.595,0.840,0.770,-2.310,-0.980
689245,0.118,0.599,0.842,0.770,-2.310,-0.770
689263,0.115,0.600,0.839,0.910,-2.310,-0.910
689287,0.112,0.597,0.839,0.980,-2.380,-0.840
689348,0.115,0.596,0.840,0.910,-2.380,-0.840
689362,0.115,0.597,0.839,0.910,-2.450,-0.840
689383,0.118,0.599,0.840,0.840,-2.310,-0.770
689407,0.117,0.597,0.841,0.980,-2.310,-0.980
689427,0.119,0.598,0.839,0.980,-2.310,-0.980
689446,0.116,0.597,0.840,0.630,-2.240,-1.050
689507,0.115,0.597,0.840,0.910,-2.520,-0.700
689525,0.117,0.600,0.840,0.630,-2.450,-0.560
689544,0.115,0.599,0.841,0.560,-2.380,-0.770
689562,0.118,0.597,0.840,0.980,-2.450,-0.910
689582,0.118,0.597,0.841,0.700,-2.310,-0.630
689605,0.117,0.599,0.842,0.770,-2.450,-0.840
689658,0.115,0.598,0.841,0.910,-2.380,-0.770
689682,0.116,0.598,0.840,0.700,-2.310,-0.910
689702,0.116,0.595,0.840,0.700,-2.380,-0.770
689726,0.116,0.597,0.842,0.840,-2.450,-0.840
689745,0.116,0.599,0.843,0.840,-2.380,-0.700
689764,0.117,0.598,0.839,1.120,-2.590,-0.630
689836,0.115,0.595,0.839,0.910,-2.380,-0.840
689855,0.117,0.600,0.841,0.840,-2.310,-0.840
689874,0.115,0.597,0.841,0.980,-2.310,-0.910
689895,0.115,0.594,0.838,0.770,-2.380,-0.910
689911,0.117,0.598,0.843,0.560,-2.310,-0.840
689931,0.117,0.599,0.839,0.840,-2.240,-0.980
689985,0.115,0.597,0.841,0.980,-2.380,-0.770
690001,0.117,0.595,0.840,0.840,-2.450,-0.770
690024,0.115,0.599,0.842,0.840,-2.450,-0.770
690044,0.117,0.597,0.839,0.700,-2.310,-0.840
690064,0.115,0.598,0.841,0.630,-2.310,-0.910
690084,0.115,0.599,0.844,0.770,-2.310,-0.770
690149,0.114,0.595,0.842,0.980,-2.450,-0.980
690166,0.114,0.596,0.839,1.050,-2.520,-0.840
690190,0.115,0.597,0.839,0.980,-2.450,-0.560
690211,0.114,0.596,0.839,1.120,-2.590,-0.770
690229,0.115,0.593,0.840,1.050,-2.450,-0.910
690253,0.117,0.596,0.841,0.840,-2.380,-0.770
690319,0.113,0.598,0.840,1.190,-2.520,-0.630
690338,0.114,0.597,0.842,0.980,-2.590,-0.630
690357,0.114,0.597,0.841,1.260,-2.660,-0.630
690375,0.113,0.597,0.842,1.260,-2.590,-0.630
690395,0.117,0.595,0.840,1.190,-2.660,-0.490
690419,0.113,0.598,0.842,1.120,-2.590,-0.490
690471,0.117,0.598,0.843,0.980,-2.660,-0.560
690487,0.115,0.596,0.842,1.050,-2.520,-0.700
690509,0.115,0.596,0.838,1.050,-2.590,-0.840
690529,0.116,0.597,0.841,0.980,-2.520,-0.630
690552,0.119,0.599,0.841,0.770,-2.450,-0.560
690575,0.116,0.598,0.841,0.980,-2.380,-0.700
690625,0.116,0.597,0.841,1.120,-2.590,-0.770
690643,0.115,0.596,0.841,0.840,-2.660,-0.630
690661,0.117,0.597,0.841,0.910,-2.590,-0.560
690681,0.115,0.599,0.841,1.120,-2.730,-0.770
690705,0.115,0.597,0.841,1.050,-2.730,-0.700
690723,0.115,0.598,0.841,0.560,-2.450,-0.770
690784,0.116,0.598,0.841,1.050,-2.450,-0.840
690803,0.115,0.600,0.840,0.840,-2.520,-0.560
690823,0.117,0.598,0.841,0.980,-2.660,-0.490
690843,0.114,0.595,0.840,1.400,-2.730,-0.770
690863,0.116,0.596,0.840,0.910,-2.450,-0.490
690883,0.115,0.598,0.843,0.910,-2.520,-0.770
690947,0.116,0.597,0.840,0.770,-2.590,-0.630
690970,0.115,0.600,0.840,0.700,-2.450,-0.560
690991,0.115,0.600,0.841,1.190,-2.660,-0.560
691011,0.118,0.596,0.843,1.400,-2.730,-0.630
691031,0.116,0.599,0.839,1.120,-2.590,-0.560
691051,0.117,0.599,0.841,0.980,-2.590,-0.490
691106,0.117,0.599,0.841,0.910,-2.520,-0.560
691124,0.117,0.596,0.838,0.980,-2.520,-0.770
691141,0.116,0.596,0.839,0.770,-2.520,-0.630
691164,0.118,0.598,0.839,0.770,-2.380,-0.770
691186,0.118,0.597,0.840,0.840,-2.380,-0.840
691207,0.117,0.593,0.838,1.120,-2.520,-0.910
691261,0.114,0.597,0.838,0.910,-2.520,-0.630
691280,0.118,0.600,0.841,0.980,-2.590,-0.350
691300,0.119,0.597,0.841,1.260,-2.870,-0.490
691319,0.116,0.597,0.840,1.050,-2.590,-0.630
691336,0.116,0.596,0.841,0.840,-2.520,-0.490
691359,0.118,0.599,0.840,0.980,-2.660,-0.630
691416,0.118,0.599,0.841,0.910,-2.380,-0.840
691434,0.116,0.597,0.842,1.190,-2.380,-1.050
691453,0.118,0.595,0.838,0.980,-2.380,-0.770
691472,0.118,0.598,0.843,0.910,-2.450,-0.840
691492,0.116,0.599,0.839,0.910,-2.520,-0.700
691512,0.118,0.596,0.841,1.260,-2.590,-0.700
691566,0.117,0.597,0.839,0.910,-2.660,-0.700
691586,0.117,0.602,0.839,0.700,-2.380,-0.630
691606,0.118,0.598,0.841,0.980,-2.380,-0.630
691624,0.116,0.598,0.841,1.120,-2.520,-0.910
691645,0.116,0.596,0.841,0.910,-2.520,-0.770
691664,0.120,0.598,0.841,0.840,-2.450,-0.630
691728,0.119,0.595,0.839,0.980,-2.450,-0.910
691747,0.119,0.598,0.840,0.840,-2.380,-0.700
691767,0.116,0.599,0.840,0.980,-2.380,-0.700
691786,0.119,0.596,0.841,0.910,-2.520,-0.770
691810,0.116,0.597,0.843,0.840,-2.590,-0.490
691828,0.118,0.598,0.841,0.980,-2.520,-0.560
691890,0.121,0.598,0.840,0.910,-2.450,-0.770
691911,0.118,0.599,0.839,1.050,-2.240,-1.050
691931,0.117,0.597,0.838,1.050,-2.450,-0.980
691952,0.117,0.597,0.840,0.840,-2.520,-0.700
691974,0.117,0.598,0.840,0.770,-2.450,-0.490
691992,0.116,0.599,0.842,0.980,-2.520,-0.770
692062,0.119,0.597,0.840,0.770,-2.380,-0.700
692082,0.116,0.598,0.841,0.980,-2.450,-0.770
692101,0.118,0.598,0.839,1.050,-2.450,-0.910
692119,0.115,0.600,0.839,0.700,-2.520,-0.700
692140,0.116,0.600,0.842,0.840,-2.450,-0.700
692163,0.118,0.598,0.841,0.980,-2.450,-0.770
692215,0.117,0.598,0.840,1.260,-2.450,-0.910
692230,0.114,0.597,0.840,1.050,-2.590,-0.840
692251,0.117,0.600,0.840,0.770,-2.590,-0.560
692271,0.118,0.599,0.840,1.190,-2.590,-0.630
692290,0.118,0.598,0.838,0.840,-2.380,-0.840
692313,0.116,0.598,0.842,0.840,-2.380,-0.770
692367,0.119,0.597,0.839,0.840,-2.380,-0.700
692387,0.116,0.597,0.842,0.910,-2.380,-0.840
692407,0.119,0.593,0.840,0.910,-2.380,-0.910
692425,0.119,0.599,0.841,0.700,-2.380,-0.770
692446,0.119,0.600,0.842,0.840,-2.450,-0.700
692465,0.120,0.596,0.837,0.980,-2.450,-0.840
692512,0.119,0.596,0.841,0.980,-2.590,-0.910
692536,0.118,0.600,0.840,0.770,-2.450,-0.630
692556,0.118,0.600,0.842,0.980,-2.380,-0.560
692576,0.117,0.598,0.840,0.980,-2.450,-0.770
692594,0.119,0.597,0.837,0.840,-2.590,-0.630
692615,0.118,0.598,0.839,0.770,-2.310,-0.770
692668,0.117,0.599,0.840,0.910,-2.450,-0.770
692682,0.119,0.598,0.839,1.050,-2.590,-0.770
692707,0.117,0.597,0.841,0.630,-2.380,-0.840
692727,0.117,0.599,0.840,0.770,-2.380,-0.700
692745,0.118,0.601,0.840,1.120,-2.450,-0.770
692764,0.118,0.595,0.840,0.980,-2.520,-0.770
692819,0.117,0.593,0.838,0.770,-2.590,-0.910
692837,0.119,0.600,0.841,0.700,-2.240,-0.630
692859,0.116,0.598,0.841,0.840,-2.450,-0.700
692880,0.116,0.598,0.841,1.050,-2.380,-0.980
692896,0.117,0.599,0.841,0.630,-2.310,-0.770
692919,0.118,0.600,0.842,0.910,-2.310,-0.910
692976,0.115,0.599,0.838,0.980,-2.520,-0.630
692995,0.120,0.596,0.840,0.980,-2.380,-0.840
693010,0.117,0.596,0.839,0.770,-2.380,-0.770
693030,0.119,0.600,0.841,0.490,-2.170,-0.770
693055,0.117,0.597,0.838,0.980,-2.310,-0.910
693075,0.118,0.594,0.840,0.980,-2.380,-0.980
693137,0.119,0.599,0.839,0.910,-2.450,-0.910
693161,0.116,0.597,0.839,0.980,-2.380,-0.980
693181,0.116,0.598,0.838,0.770,-2.450,-0.770
693205,0.114,0.597,0.844,0.700,-2.450,-0.630
693225,0.121,0.598,0.840,1.050,-2.450,-0.700
693245,0.117,0.595,0.841,0.700,-2.380,-1.050
693298,0.116,0.598,0.840,0.770,-1.820,-0.980
693321,0.116,0.598,0.841,0.910,-2.100,-1.050
693345,0.114,0.597,0.838,0.350,-1.750,-1.050
693363,0.114,0.599,0.843,0.630,-2.100,-1.050
693380,0.115,0.598,0.838,1.190,-2.520,-1.120
693400,0.115,0.599,0.841,0.280,-2.030,-1.050
693462,0.116,0.596,0.842,1.750,-3.290,-0.350
693483,0.116,0.601,0.842,0.770,-2.800,-0.140
693502,0.118,0.596,0.844,1.820,-3.500,-0.140
693526,0.118,0.600,0.840,1.400,-2.660,-0.420
693545,0.116,0.598,0.840,1.050,-2.380,-0.700
693566,0.117,0.598,0.841,1.260,-2.660,-0.560
693624,0.115,0.598,0.843,0.350,-2.100,-1.260
693638,0.118,0.599,0.840,0.210,-1.540,-1.680
693661,0.117,0.598,0.837,-1.680,-0.210,-2.030
693681,0.114,0.594,0.845,0.140,-1.820,-1.750
693705,0.113,0.594,0.844,2.030,-3.080,-0.840
693724,0.114,0.594,0.840,0.770,-2.660,-0.140
693783,0.117,0.599,0.841,0.910,-2.730,-0.210
693807,0.116,0.596,0.840,1.330,-2.800,-0.420
693826,0.114,0.596,0.840,1.120,-2.590,-0.700
693842,0.116,0.600,0.838,0.560,-2.240,-0.980
693862,0.117,0.599,0.842,0.490,-1.960,-1.540
693884,0.116,0.593,0.840,0.280,-1.400,-1.820
693930,0.112,0.598,0.842,0.000,-1.470,-1.330
693949,0.112,0.598,0.845,1.190,-2.520,-0.840
693972,0.114,0.598,0.842,1.120,-2.520,-0.700
693996,0.114,0.594,0.843,0.980,-2.800,-0.350
694015,0.114,0.599,0.839,1.400,-3.220,-0.140
694034,0.115,0.596,0.842,1.120,-2.730,-0.280
694096,0.113,0.599,0.842,0.770,-2.310,-0.980
694114,0.114,0.597,0.840,0.630,-1.960,-1.400
694134,0.116,0.597,0.842,0.070,-1.610,-1.470
694158,0.114,0.597,0.844,0.280,-1.680,-1.400
694178,0.116,0.599,0.841,0.490,-2.030,-1.120
694198,0.112,0.597,0.841,1.120,-2.450,-0.980
694258,0.116,0.599,0.841,1.680,-3.080,-0.280
694277,0.114,0.594,0.842,1.400,-3.150,-0.350
694298,0.115,0.596,0.842,1.750,-3.500,0.000
694318,0.116,0.599,0.839,1.680,-3.150,-0.070
694338,0.117,0.598,0.842,1.540,-3.220,-0.140
694358,0.117,0.597,0.840,1.330,-2.800,-0.350
694409,0.117,0.597,0.840,0.910,-2.380,-0.700
694427,0.116,0.598,0.841,0.770,-2.380,-0.910
694443,0.115,0.596,0.841,0.980,-2.380,-0.980
694464,0.115,0.596,0.840,0.420,-2.170,-0.910
694488,0.115,0.599,0.841,0.910,-2.380,-0.770
694508,0.117,0.599,0.840,0.840,-2.450,-0.700
694568,0.115,0.597,0.842,1.120,-2.730,-0.560
694589,0.115,0.599,0.839,1.260,-2.800,-0.420
694608,0.113,0.595,0.841,0.980,-2.590,-0.420
694633,0.115,0.598,0.843,1.120,-2.660,-0.560
694652,0.117,0.597,0.840,0.910,-2.450,-0.630
694671,0.113,0.597,0.839,1.050,-2.520,-0.770
694737,0.118,0.601,0.842,0.980,-2.380,-0.770
694753,0.117,0.596,0.843,1.050,-2.520,-0.770
694771,0.116,0.595,0.841,1.050,-2.590,-0.630
694790,0.116,0.599,0.842,0.770,-2.520,-0.490
694811,0.116,0.598,0.838,0.980,-2.660,-0.560
694832,0.118,0.597,0.838,1.190,-2.590,-0.700
694889,0.118,0.597,0.839,1.190,-2.590,-0.770
694910,0.117,0.595,0.843,1.120,-2.660,-0.700
694929,0.118,0.597,0.840,0.840,-2.520,-0.560
694949,0.115,0.597,0.842,0.980,-2.590,-0.560
694969,0.118,0.596,0.841,1.540,-2.870,-0.700
694990,0.117,0.597,0.837,0.840,-2.450,-0.490
695046,0.117,0.595,0.841,0.700,-2.450,-0.700
695066,0.115,0.597,0.842,1.190,-2.590,-0.630
695090,0.117,0.599,0.839,1.050,-2.450,-0.700
695110,0.118,0.596,0.843,1.260,-2.800,-0.700
695130,0.120,0.595,0.840,0.980,-2.590,-0.560
695148,0.121,0.598,0.841,0.770,-2.310,-0.630
695209,0.117,0.597,0.841,1.050,-2.660,-0.560
695228,0.121,0.597,0.839,1.050,-2.590,-0.700
695247,0.117,0.593,0.840,1.190,-2.590,-0.840
695266,0.117,0.596,0.838,0.910,-2.660,-0.700
695286,0.116,0.600,0.842,0.560,-2.380,-0.630
695306,0.117,0.599,0.840,0.490,-2.450,-0.560
695371,0.119,0.599,0.839,1.050,-2.870,-0.280
695391,0.117,0.598,0.840,1.050,-2.660,-0.350
695411,0.120,0.597,0.841,1.330,-2.730,-0.770
695435,0.120,0.598,0.841,1.400,-2.660,-0.840
695450,0.120,0.599,0.838,1.190,-2.380,-0.840
695475,0.119,0.599,0.840,1.050,-2.450,-1.050
695529,0.119,0.596,0.840,1.260,-2.380,-1.190
695547,0.119,0.597,0.837,1.190,-2.450,-0.910
695567,0.121,0.599,0.838,1.120,-2.590,-0.630
695588,0.119,0.598,0.837,1.190,-2.660,-0.700
695608,0.117,0.599,0.840,1.330,-2.660,-0.630
695627,0.119,0.599,0.838,0.910,-2.660,-0.630
695679,0.119,0.599,0.838,0.490,-2.520,-0.280
695700,0.119,0.601,0.839,0.980,-2.730,-0.350
695718,0.120,0.598,0.838,1.190,-2.800,-0.350
695739,0.119,0.600,0.838,1.400,-2.730,-0.560
695759,0.120,0.598,0.836,1.120,-2.590,-0.560
695779,0.120,0.598,0.841,1.470,-2.730,-0.280
695836,0.121,0.600,0.839,0.980,-2.240,-0.980
695853,0.119,0.596,0.837,1.120,-2.450,-1.120
695875,0.118,0.598,0.837,0.700,-2.590,-0.560
695895,0.119,0.601,0.838,0.700,-2.520,-0.350
695915,0.121,0.601,0.837,0.910,-2.590,-0.420
695934,0.120,0.600,0.839,1.330,-2.450,-0.840
695989,0.120,0.599,0.838,0.980,-2.310,-1.120
696010,0.118,0.598,0.840,0.770,-2.240,-0.910
696031,0.119,0.599,0.841,0.490,-2.240,-0.910
696055,0.119,0.599,0.839,0.770,-2.240,-0.910
696074,0.121,0.598,0.839,1.050,-2.520,-0.700
696094,0.120,0.598,0.836,1.190,-2.520,-0.560
696151,0.120,0.597,0.839,1.260,-2.870,-0.210
696171,0.122,0.600,0.839,0.980,-2.730,-0.350
696190,0.120,0.600,0.837,0.770,-2.520,-0.630
696211,0.118,0.600,0.839,0.700,-2.450,-0.980
696231,0.120,0.600,0.839,0.490,-2.240,-1.050
696249,0.118,0.599,0.839,0.700,-2.170,-1.190
696306,0.120,0.600,0.839,1.120,-2.450,-0.770
696324,0.121,0.596,0.837,1.120,-2.520,-0.490
696345,0.117,0.599,0.839,0.910,-2.940,-0.280
696363,0.120,0.600,0.839,0.980,-2.590,-0.140
696385,0.121,0.599,0.838,1.120,-2.730,-0.350
696406,0.117,0.596,0.840,1.050,-2.660,-0.700
696462,0.119,0.599,0.839,1.050,-2.380,-0.840
696481,0.119,0.600,0.836,0.910,-2.590,-0.910
696500,0.121,0.601,0.838,0.770,-2.310,-0.840
696521,0.117,0.599,0.840,0.840,-2.310,-0.910
696543,0.121,0.599,0.838,0.980,-2.590,-0.840
696567,0.119,0.599,0.837,0.980,-2.520,-0.630
696621,0.118,0.599,0.840,0.910,-2.590,-0.630
696642,0.122,0.601,0.840,0.840,-2.520,-0.700
696662,0.122,0.601,0.839,0.700,-2.520,-0.630
696677,0.122,0.598,0.838,0.910,-2.380,-0.980
696697,0.121,0.601,0.837,0.700,-2.310,-0.840
696717,0.120,0.602,0.838,1.050,-2.450,-0.980
696776,0.119,0.601,0.838,0.840,-2.520,-0.700
696796,0.121,0.600,0.840,0.770,-2.310,-0.840
696816,0.120,0.599,0.839,0.980,-2.450,-0.840
696840,0.119,0.598,0.840,0.700,-2.240,-0.980
696860,0.120,0.600,0.838,0.630,-2.170,-1.120
696878,0.121,0.598,0.839,0.770,-2.100,-1.190
696942,0.120,0.599,0.840,1.050,-2.380,-0.840
696959,0.122,0.597,0.836,0.630,-2.170,-0.840
696979,0.119,0.600,0.840,0.630,-1.960,-0.910
697002,0.117,0.599,0.840,0.630,-2.030,-0.980
697026,0.121,0.599,0.840,0.840,-2.100,-0.980
697046,0.118,0.601,0.837,0.420,-1.610,-1.260
697105,0.113,0.597,0.842,0.000,-1.330,-1.540
697125,0.119,0.598,0.838,-0.350,-0.980,-1.610
697143,0.115,0.598,0.843,-0.350,-1.260,-1.400
697165,0.117,0.597,0.841,0.560,-1.680,-1.470
697185,0.115,0.597,0.841,0.280,-1.470,-1.330
697204,0.114,0.596,0.842,0.490,-1.820,-0.980
697265,0.113,0.598,0.843,0.840,-2.380,-0.560
697284,0.112,0.595,0.839,0.840,-2.450,-0.840
697299,0.115,0.597,0.839,0.770,-2.450,-0.770
697323,0.111,0.598,0.839,0.910,-2.520,-0.770
697342,0.117,0.597,0.838,0.910,-2.520,-0.630
697364,0.114,0.592,0.841,1.190,-2.730,-0.700
697418,0.115,0.594,0.843,0.840,-2.450,-0.910
697437,0.116,0.598,0.838,1.120,-2.450,-0.770
697457,0.115,0.598,0.842,0.910,-2.310,-0.770
697472,0.114,0.594,0.844,1.120,-2.800,-0.280
697497,0.114,0.598,0.842,1.540,-3.220,-0.280
697516,0.118,0.597,0.843,1.260,-2.870,-0.350
697570,0.115,0.598,0.844,1.050,-2.520,-0.630
697591,0.115,0.599,0.843,0.840,-2.380,-0.770
697611,0.116,0.598,0.839,1.120,-2.450,-0.910
697626,0.116,0.597,0.840,0.770,-2.310,-1.050
697646,0.115,0.598,0.841,0.490,-2.100,-1.120
697668,0.115,0.598,0.842,0.770,-2.380,-1.050
697720,0.115,0.599,0.840,1.540,-3.150,-0.210
697740,0.117,0.598,0.838,1.400,-2.870,-0.350
697760,0.116,0.599,0.841,1.050,-2.800,-0.350
697780,0.117,0.597,0.841,1.680,-3.080,-0.490
697800,0.116,0.599,0.837,0.980,-2.590,-0.420
697818,0.115,0.597,0.842,0.910,-2.660,-0.490
697877,0.118,0.598,0.840,0.420,-1.890,-1.610
697896,0.116,0.600,0.839,0.420,-1.610,-1.470
697916,0.116,0.598,0.841,0.840,-2.100,-1.330
697939,0.115,0.595,0.840,1.050,-2.520,-0.700
697963,0.117,0.599,0.842,0.840,-2.660,-0.350
697983,0.115,0.596,0.840,0.910,-2.660,-0.420
698033,0.116,0.598,0.838,1.190,-2.450,-0.840
698052,0.115,0.598,0.843,1.120,-2.590,-0.700
698072,0.113,0.599,0.841,1.190,-2.730,-0.700
698092,0.114,0.599,0.839,0.770,-2.520,-0.560
698112,0.117,0.599,0.841,0.980,-2.380,-0.910
698137,0.115,0.599,0.840,0.700,-2.240,-0.910
698186,0.115,0.595,0.841,0.840,-2.380,-0.910
698205,0.116,0.598,0.844,0.770,-2.310,-0.700
698225,0.113,0.599,0.840,1.260,-2.450,-0.840
698244,0.115,0.596,0.840,0.980,-2.520,-0.840
698262,0.116,0.596,0.839,0.770,-2.380,-0.630
698281,0.114,0.597,0.841,1.120,-2.450,-0.700
698340,0.116,0.598,0.840,0.840,-2.450,-0.700
698359,0.116,0.599,0.841,0.910,-2.450,-0.700
698379,0.113,0.596,0.840,1.120,-2.450,-0.700
698394,0.117,0.599,0.842,0.840,-2.520,-0.560
698415,0.116,0.600,0.840,0.980,-2.310,-0.840
698439,0.116,0.595,0.840,1.190,-2.590,-0.770
698492,0.114,0.597,0.840,1.120,-2.660,-0.770
698506,0.113,0.596,0.839,0.770,-2.520,-0.560
698531,0.116,0.600,0.840,0.770,-2.730,-0.490
698551,0.115,0.600,0.840,0.980,-2.590,-0.560
698571,0.117,0.597,0.839,1.190,-2.660,-0.700
698591,0.117,0.599,0.841,0.980,-2.450,-0.630
698652,0.113,0.596,0.841,0.910,-2.450,-0.770
698671,0.112,0.600,0.842,1.050,-2.800,-0.560
698691,0.115,0.600,0.842,0.770,-2.590,-0.630
698711,0.116,0.598,0.840,0.910,-2.730,-0.560
698735,0.117,0.596,0.839,0.910,-2.590,-0.560
698755,0.119,0.596,0.840,0.910,-2.450,-0.630
698810,0.115,0.596,0.842,1.400,-2.310,-0.840
698834,0.113,0.601,0.838,1.680,-2.520,-0.560
698853,0.114,0.597,0.842,1.540,-2.730,-0.490
698872,0.116,0.598,0.839,1.260,-2.800,-0.350
698893,0.117,0.598,0.840,0.700,-2.520,-0.490
698913,0.117,0.599,0.840,0.560,-2.380,-0.910
698975,0.117,0.598,0.840,1.120,-2.450,-1.050
698993,0.116,0.598,0.840,1.260,-2.310,-0.910
699012,0.115,0.600,0.838,1.330,-2.520,-0.840
699035,0.113,0.598,0.840,1.050,-2.590,-0.420
699059,0.116,0.600,0.840,0.910,-2.590,-0.350
699079,0.115,0.600,0.840,0.980,-2.520,-0.560
699139,0.114,0.598,0.840,1.120,-2.450,-0.700
699163,0.117,0.599,0.840,0.910,-2.520,-0.630
699183,0.116,0.600,0.839,1.400,-2.800,-0.700
699203,0.113,0.599,0.839,0.700,-2.380,-0.630
699221,0.114,0.597,0.839,0.770,-2.520,-0.770
699240,0.118,0.599,0.842,0.910,-2.450,-0.840
699294,0.119,0.598,0.840,0.910,-2.450,-0.560
699314,0.114,0.597,0.839,1.330,-2.870,-0.420
699333,0.117,0.598,0.838,1.190,-2.730,-0.560
699357,0.117,0.598,0.840,0.770,-2.450,-0.630
699381,0.117,0.600,0.842,0.980,-2.240,-0.840
699400,0.117,0.600,0.839,0.840,-2.240,-0.700
699451,0.116,0.599,0.840,1.120,-2.660,-0.700
699472,0.118,0.599,0.839,1.120,-2.660,-0.700
699491,0.116,0.599,0.839,0.910,-2.520,-0.560
699512,0.117,0.601,0.840,1.050,-2.520,-0.630
699536,0.119,0.601,0.839,0.980,-2.450,-0.700
699556,0.117,0.593,0.841,0.910,-2.520,-0.770
699610,0.116,0.597,0.838,0.980,-2.590,-0.770
699629,0.117,0.601,0.836,0.770,-2.450,-0.630
699648,0.118,0.597,0.839,0.910,-2.450,-0.700
699668,0.115,0.600,0.838,0.910,-2.310,-0.910
699691,0.117,0.598,0.841,1.120,-2.590,-0.840
699715,0.115,0.599,0.839,0.840,-2.520,-0.630
699779,0.118,0.601,0.837,0.840,-2.520,-0.840
699797,0.117,0.599,0.839,0.840,-2.380,-0.630
699817,0.115,0.600,0.843,0.980,-2.520,-0.700
699838,0.117,0.599,0.840,1.050,-2.520,-0.770
699858,0.116,0.597,0.839,1.050,-2.450,-0.700
699877,0.114,0.598,0.843,0.770,-2.520,-0.770
699938,0.116,0.598,0.836,0.980,-2.520,-0.560
699958,0.116,0.597,0.840,0.840,-2.520,-0.630
699978,0.117,0.599,0.841,0.770,-2.380,-0.840
699997,0.118,0.600,0.839,1.050,-2.380,-0.840
700021,0.118,0.598,0.841,1.120,-2.450,-0.840
700040,0.117,0.599,0.839,0.910,-2.520,-0.630
700092,0.116,0.600,0.839,0.630,-2.310,-0.770
700111,0.118,0.599,0.842,0.980,-2.380,-0.840
700136,0.116,0.597,0.838,1.050,-2.450,-0.700
700156,0.118,0.599,0.839,0.840,-2.590,-0.700
700176,0.116,0.601,0.837,0.840,-2.450,-0.700
700196,0.118,0.598,0.841,0.980,-2.520,-0.770
700256,0.118,0.599,0.841,0.980,-2.380,-0.770
700270,0.119,0.599,0.839,0.980,-2.380,-0.770
700290,0.117,0.601,0.838,0.980,-2.520,-0.770
700315,0.117,0.600,0.841,0.770,-2.450,-0.770
700335,0.114,0.599,0.837,0.910,-2.450,-0.770
700353,0.116,0.599,0.839,1.120,-2.520,-0.700
700422,0.117,0.599,0.840,0.910,-2.380,-0.700
700436,0.116,0.600,0.838,0.910,-2.520,-0.630
700461,0.118,0.600,0.839,0.910,-2.520,-0.630
700481,0.117,0.598,0.840,0.770,-2.450,-0.700
700500,0.118,0.601,0.842,0.840,-2.310,-0.840
700520,0.118,0.598,0.838,0.980,-2.380,-0.910
700587,0.116,0.600,0.839,1.050,-2.520,-0.420
700611,0.115,0.599,0.840,1.050,-2.450,-0.630
700631,0.121,0.597,0.839,0.980,-2.520,-0.840
700651,0.118,0.598,0.841,0.770,-2.450,-0.630
700669,0.117,0.599,0.840,0.910,-2.450,-0.700
700691,0.115,0.597,0.839,0.700,-2.450,-0.630
700736,0.118,0.598,0.838,0.980,-2.520,-0.700
700759,0.118,0.600,0.840,1.260,-2.590,-0.770
700779,0.116,0.601,0.837,1.120,-2.520,-0.630
700798,0.117,0.599,0.838,1.050,-2.450,-0.630
700818,0.118,0.596,0.839,0.840,-2.380,-0.700
700837,0.115,0.601,0.838,0.630,-2.310,-0.840
700886,0.118,0.601,0.839,0.980,-2.450,-0.560
700905,0.117,0.598,0.840,1.260,-2.590,-0.700
700930,0.116,0.598,0.840,1.050,-2.590,-0.770
700950,0.118,0.600,0.841,0.770,-2.450,-0.630
700966,0.116,0.599,0.839,0.840,-2.450,-0.840
700985,0.118,0.598,0.836,0.980,-2.450,-0.770
701041,0.117,0.598,0.838,0.980,-2.450,-1.050
701065,0.117,0.598,0.840,0.700,-2.520,-0.700
701089,0.116,0.598,0.840,0.560,-2.380,-0.700
701108,0.116,0.600,0.840,0.980,-2.520,-0.560
701128,0.120,0.596,0.840,1.190,-2.380,-0.980
701153,0.115,0.596,0.843,1.050,-2.660,-0.840
701211,0.115,0.596,0.837,0.910,-2.590,-0.770
701230,0.118,0.599,0.839,0.420,-2.240,-0.770
701251,0.117,0.600,0.838,0.770,-2.240,-0.700
701270,0.119,0.598,0.839,1.050,-2.380,-0.840
701290,0.116,0.598,0.840,0.980,-2.380,-0.770
701311,0.115,0.599,0.837,1.050,-2.520,-0.700
701365,0.116,0.600,0.841,0.770,-2.380,-0.840
701380,0.115,0.602,0.842,0.910,-2.310,-0.980
701404,0.116,0.596,0.841,0.700,-2.170,-1.120
701424,0.118,0.599,0.841,0.490,-2.310,-0.980
701442,0.117,0.599,0.838,0.700,-2.170,-0.910
701464,0.117,0.598,0.839,1.050,-2.450,-0.840
701538,0.115,0.599,0.842,1.050,-2.520,-0.630
701557,0.114,0.599,0.841,0.910,-2.520,-0.630
701576,0.117,0.600,0.840,1.050,-2.310,-0.980
701594,0.114,0.597,0.836,0.700,-2.380,-0.770
701614,0.118,0.600,0.839,0.630,-2.310,-0.910
701637,0.118,0.599,0.840,0.840,-2.380,-0.910
701692,0.118,0.601,0.842,0.630,-2.310,-0.840
701714,0.116,0.597,0.844,0.840,-2.310,-0.770
701736,0.117,0.599,0.840,1.120,-2.450,-0.770
701756,0.118,0.599,0.841,0.770,-2.380,-0.700
701776,0.114,0.602,0.841,0.840,-2.380,-0.770
701794,0.114,0.597,0.840,0.980,-2.450,-0.770
701858,0.116,0.596,0.840,0.840,-2.310,-0.840
701876,0.116,0.597,0.837,0.910,-2.240,-0.980
701897,0.115,0.600,0.838,0.910,-2.380,-0.840
701916,0.117,0.600,0.838,0.910,-2.310,-0.840
701937,0.116,0.600,0.839,0.630,-2.240,-0.910
701961,0.115,0.597,0.839,0.630,-2.240,-1.120
702020,0.115,0.596,0.840,1.050,-2.030,-1.050
702043,0.116,0.596,0.844,1.260,-2.310,-0.980
702064,0.114,0.598,0.838,1.260,-2.590,-0.630
702084,0.114,0.600,0.838,1.260,-2.660,-0.490
702100,0.116,0.598,0.839,1.190,-2.870,-0.420
702120,0.113,0.597,0.839,0.700,-2.660,-0.280
702176,0.116,0.600,0.842,0.210,-2.030,-1.050
702193,0.116,0.600,0.841,0.770,-2.030,-1.330
702211,0.114,0.595,0.838,0.770,-1.960,-1.330
702235,0.115,0.598,0.840,1.120,-2.310,-0.980
702256,0.114,0.600,0.840,1.260,-2.520,-0.560
702274,0.115,0.596,0.839,1.260,-2.870,-0.280
702325,0.113,0.595,0.841,1.050,-2.730,-0.420
702344,0.117,0.597,0.840,0.980,-2.660,-0.560
702363,0.117,0.601,0.842,0.910,-2.660,-0.770
702388,0.115,0.596,0.838,1.190,-2.450,-0.770
702405,0.117,0.599,0.839,1.050,-2.520,-0.700
702428,0.114,0.599,0.841,0.910,-2.590,-0.630
702486,0.114,0.597,0.841,0.980,-2.660,-0.280
702506,0.116,0.598,0.842,0.770,-2.660,-0.490
702526,0.116,0.597,0.840,0.980,-2.520,-0.980
702546,0.113,0.596,0.836,0.840,-2.520,-0.910
702566,0.117,0.598,0.840,0.700,-2.380,-0.770
702590,0.117,0.598,0.840,0.980,-2.450,-0.700
702643,0.117,0.600,0.839,1.330,-2.660,-0.630
702657,0.113,0.595,0.839,0.980,-2.590,-0.770
702682,0.115,0.599,0.841,0.840,-2.450,-0.910
702702,0.116,0.600,0.840,0.490,-2.380,-0.770
702722,0.115,0.597,0.843,1.120,-2.450,-1.050
702742,0.116,0.598,0.839,1.120,-2.590,-0.980
702812,0.118,0.600,0.837,1.120,-2.520,-0.630
702831,0.115,0.595,0.837,1.050,-2.730,-0.560
702850,0.113,0.597,0.842,0.630,-2.870,-0.350
702868,0.116,0.601,0.842,0.980,-2.590,-0.490
702892,0.117,0.597,0.839,1.050,-2.450,-0.700
702912,0.115,0.599,0.839,0.910,-2.590,-0.840
702977,0.116,0.598,0.840,1.050,-2.240,-0.840
702994,0.116,0.596,0.837,0.910,-2.520,-0.910
703016,0.118,0.600,0.839,0.770,-2.450,-0.700
703036,0.117,0.600,0.840,0.770,-2.310,-0.770
703056,0.118,0.598,0.840,1.120,-2.380,-0.770
703076,0.117,0.597,0.839,1.050,-2.520,-0.770
703141,0.117,0.596,0.842,1.470,-2.730,-0.560
703160,0.117,0.601,0.839,0.910,-2.660,-0.560
703180,0.118,0.600,0.839,0.420,-2.380,-0.630
703198,0.119,0.599,0.838,0.770,-2.380,-0.770
703219,0.117,0.594,0.838,0.840,-2.310,-0.910
703238,0.116,0.600,0.841,0.700,-2.310,-0.770
703294,0.116,0.597,0.841,1.050,-2.590,-0.420
703315,0.115,0.601,0.839,1.120,-2.800,-0.490
703336,0.116,0.596,0.838,1.330,-2.800,-0.490
703354,0.116,0.599,0.837,0.770,-2.660,-0.490
703378,0.117,0.601,0.840,0.700,-2.450,-0.630
703396,0.113,0.598,0.839,0.910,-2.240,-0.980
703452,0.119,0.602,0.842,1.120,-2.380,-0.840
703472,0.119,0.596,0.839,1.260,-2.520,-0.630
703491,0.117,0.598,0.838,1.120,-2.450,-0.700
703516,0.118,0.600,0.837,1.120,-2.450,-0.770
703536,0.116,0.600,0.840,1.190,-2.380,-1.050
703551,0.117,0.599,0.839,0.910,-2.450,-0.910
703608,0.115,0.596,0.837,0.770,-2.240,-0.980
703632,0.117,0.601,0.840,0.840,-2.310,-0.980
703647,0.118,0.600,0.839,1.260,-2.380,-0.910
703670,0.117,0.598,0.841,1.260,-2.450,-0.840
703692,0.115,0.596,0.839,0.980,-2.590,-0.420
703712,0.116,0.603,0.838,0.770,-2.520,-0.420
703780,0.115,0.599,0.838,0.910,-2.450,-0.840
703799,0.115,0.602,0.840,0.770,-2.380,-0.700
703817,0.117,0.604,0.838,1.120,-2.450,-0.770
703834,0.114,0.596,0.839,1.120,-2.520,-0.840
703854,0.116,0.600,0.839,0.910,-2.380,-0.770
703878,0.120,0.602,0.840,0.980,-2.450,-0.840
703930,0.118,0.600,0.840,0.980,-2.450,-0.700
703948,0.117,0.597,0.837,1.050,-2.520,-0.770
703973,0.116,0.599,0.839,0.630,-2.450,-0.700
703991,0.118,0.602,0.843,0.840,-2.380,-0.490
704010,0.115,0.600,0.839,1.260,-2.520,-0.770
704030,0.116,0.598,0.841,1.050,-2.520,-0.700
704109,0.116,0.600,0.840,0.770,-2.380,-0.770
704129,0.116,0.600,0.839,0.770,-2.450,-0.700
704148,0.116,0.599,0.839,0.910,-2.450,-0.910
704164,0.118,0.599,0.838,0.700,-2.380,-0.700
704187,0.118,0.599,0.839,0.630,-2.310,-0.910
704209,0.118,0.600,0.837,1.120,-2.450,-0.700
704265,0.117,0.600,0.838,1.120,-2.380,-0.770
704284,0.117,0.598,0.837,1.120,-2.520,-0.910
704304,0.117,0.601,0.841,0.840,-2.450,-0.770
704322,0.116,0.601,0.839,0.980,-2.310,-0.770
704343,0.116,0.599,0.838,1.190,-2.520,-0.840
704359,0.117,0.598,0.840,0.630,-2.450,-0.700
704425,0.116,0.594,0.839,1.190,-2.590,-0.840
704442,0.115,0.602,0.840,0.980,-2.520,-0.700
704463,0.116,0.601,0.841,0.980,-2.450,-0.560
704479,0.118,0.600,0.840,1.190,-2.590,-0.770
704500,0.118,0.600,0.838,0.630,-2.380,-0.630
704522,0.115,0.605,0.842,0.700,-2.380,-0.700
704577,0.118,0.601,0.841,1.050,-2.520,-0.700
704594,0.115,0.596,0.836,1.190,-2.520,-0.840
704615,0.116,0.598,0.839,0.840,-2.520,-0.700
704635,0.118,0.602,0.840,0.700,-2.380,-0.700
704659,0.117,0.601,0.839,1.050,-2.450,-0.560
704679,0.113,0.597,0.840,1.190,-2.450,-0.770
704728,0.114,0.600,0.840,0.770,-2.590,-0.490
704742,0.116,0.601,0.839,1.050,-2.450,-0.700
704765,0.116,0.599,0.838,1.120,-2.520,-0.700
704785,0.116,0.597,0.839,0.840,-2.380,-0.700
704805,0.118,0.602,0.841,0.700,-2.380,-0.700
704827,0.119,0.603,0.840,0.910,-2.380,-0.910
704878,0.118,0.598,0.840,1.260,-2.590,-0.910
704898,0.119,0.601,0.838,0.980,-2.590,-0.840
704918,0.118,0.602,0.839,0.490,-2.520,-0.700
704938,0.118,0.601,0.840,0.980,-2.450,-0.840
704957,0.118,0.595,0.841,0.980,-2.450,-0.840
704981,0.118,0.599,0.842,0.700,-2.450,-0.840
705036,0.116,0.602,0.841,0.840,-2.520,-0.700
705055,0.117,0.600,0.838,0.840,-2.520,-0.630
705073,0.116,0.600,0.840,1.120,-2.590,-0.770
705094,0.116,0.598,0.838,0.910,-2.520,-0.770
705114,0.116,0.603,0.840,0.630,-2.310,-0.840
705134,0.116,0.599,0.839,0.910,-2.380,-0.840
705195,0.116,0.602,0.840,0.980,-2.380,-0.840
705216,0.116,0.596,0.840,0.980,-2.380,-0.980
705236,0.118,0.599,0.837,1.190,-2.520,-0.910
705254,0.115,0.600,0.839,0.840,-2.380,-0.700
705275,0.116,0.601,0.839,1.050,-2.520,-0.770
705295,0.117,0.598,0.839,0.910,-2.450,-0.700
705351,0.117,0.597,0.839,0.980,-2.450,-0.980
705370,0.116,0.600,0.838,0.630,-2.520,-0.560
705394,0.118,0.601,0.837,0.630,-2.310,-0.770
705413,0.116,0.601,0.841,1.050,-2.380,-0.980
705433,0.118,0.597,0.837,0.910,-2.310,-0.910
705458,0.115,0.601,0.842,0.630,-2.310,-0.840
705526,0.118,0.600,0.839,0.980,-2.450,-0.840
705546,0.116,0.594,0.839,1.050,-2.520,-0.840
705569,0.116,0.601,0.840,0.700,-2.310,-0.700
705588,0.115,0.603,0.839,0.700,-2.240,-0.840
705607,0.115,0.598,0.838,1.120,-2.380,-0.840
705627,0.118,0.598,0.839,0.980,-2.450,-0.770
705678,0.116,0.602,0.840,0.630,-2.310,-0.840
705692,0.115,0.599,0.841,0.910,-2.520,-0.770
705716,0.114,0.595,0.841,0.910,-2.520,-0.980
705737,0.115,0.602,0.841,0.700,-2.170,-0.770
705756,0.115,0.604,0.841,0.840,-2.310,-0.770
705775,0.115,0.600,0.839,0.840,-2.310,-0.910
705833,0.116,0.597,0.839,0.700,-2.170,-0.980
705851,0.113,0.597,0.839,0.630,-2.170,-0.910
705872,0.114,0.599,0.840,0.840,-2.240,-0.840
705892,0.114,0.598,0.841,0.770,-2.380,-0.840
705907,0.114,0.598,0.837,1.050,-2.450,-0.770
705927,0.116,0.599,0.841,0.910,-2.310,-0.630
705989,0.114,0.593,0.839,0.910,-2.590,-0.700
706012,0.112,0.598,0.841,0.910,-2.380,-0.630
706036,0.115,0.600,0.841,0.840,-2.380,-0.700
706055,0.113,0.598,0.839,1.050,-2.520,-0.910
706078,0.115,0.598,0.841,0.700,-2.380,-0.770
706097,0.114,0.599,0.838,0.840,-2.520,-0.560
706151,0.115,0.600,0.837,1.120,-2.660,-0.490
706170,0.114,0.600,0.842,1.120,-2.590,-0.700
706190,0.115,0.597,0.839,1.400,-2.590,-0.770
706209,0.115,0.598,0.839,0.980,-2.380,-0.630
706233,0.115,0.603,0.841,0.910,-2.380,-0.700
706253,0.117,0.600,0.842,0.910,-2.450,-0.840
706302,0.115,0.599,0.840,1.120,-2.380,-0.700
706321,0.115,0.597,0.837,0.910,-2.590,-0.700
706344,0.117,0.599,0.840,0.910,-2.520,-0.420
706365,0.116,0.601,0.839,1.400,-2.730,-0.490
706384,0.115,0.599,0.839,1.120,-2.520,-0.630
706409,0.114,0.600,0.839,0.910,-2.520,-0.630
706469,0.118,0.596,0.838,0.980,-2.520,-0.840
706488,0.116,0.597,0.841,0.770,-2.660,-0.630
706512,0.115,0.601,0.837,0.910,-2.520,-0.560
706536,0.117,0.600,0.840,1.050,-2.520,-0.560
706555,0.117,0.598,0.840,1.190,-2.590,-0.630
706573,0.114,0.600,0.839,1.050,-2.590,-0.630
706624,0.116,0.600,0.838,0.770,-2.520,-0.770
706644,0.115,0.600,0.840,0.770,-2.450,-0.630
706664,0.117,0.598,0.840,0.980,-2.450,-0.770
706684,0.117,0.597,0.838,0.910,-2.450,-0.630
706707,0.116,0.596,0.840,0.700,-2.450,-0.770
706728,0.117,0.601,0.839,0.980,-2.380,-0.700
706786,0.116,0.601,0.841,1.330,-2.660,-0.420
706805,0.115,0.598,0.841,1.260,-2.730,-0.630
706825,0.117,0.599,0.837,0.980,-2.590,-0.630
706843,0.117,0.599,0.842,0.840,-2.590,-0.490
706865,0.118,0.602,0.840,1.120,-2.660,-0.490
706887,0.116,0.600,0.840,1.050,-2.660,-0.630
706939,0.117,0.598,0.837,0.980,-2.520,-0.700
706959,0.116,0.599,0.839,0.910,-2.520,-0.770
706978,0.117,0.603,0.840,0.770,-2.450,-0.630
706997,0.117,0.600,0.840,0.910,-2.450,-0.770
707015,0.118,0.601,0.838,0.840,-2.450,-0.910
707035,0.116,0.599,0.840,0.910,-2.380,-0.840
707103,0.116,0.596,0.837,0.980,-2.380,-0.770
707124,0.121,0.598,0.840,0.910,-2.520,-0.560
707147,0.116,0.599,0.839,0.910,-2.240,-0.700
707167,0.117,0.601,0.838,1.190,-2.520,-0.770
707187,0.116,0.601,0.840,1.050,-2.450,-0.910
707207,0.116,0.598,0.840,0.840,-2.520,-0.840
707266,0.116,0.599,0.836,0.630,-2.450,-0.770
707285,0.114,0.601,0.840,0.770,-2.310,-0.490
707305,0.117,0.598,0.838,1.050,-2.520,-0.700
707321,0.118,0.599,0.841,0.980,-2.520,-0.770
707342,0.118,0.601,0.840,0.840,-2.520,-0.700
707362,0.119,0.601,0.839,0.980,-2.450,-0.770
707422,0.117,0.601,0.840,0.630,-2.380,-0.630
707445,0.116,0.600,0.839,0.980,-2.380,-0.910
707466,0.117,0.600,0.837,0.980,-2.380,-0.840
707485,0.116,0.598,0.839,0.770,-2.450,-0.700
707505,0.117,0.601,0.839,0.770,-2.450,-0.630
707529,0.116,0.599,0.840,0.980,-2.520,-0.630
707585,0.118,0.600,0.838,0.910,-2.450,-0.700
707605,0.118,0.599,0.838,0.910,-2.380,-0.770
707628,0.116,0.598,0.837,0.840,-2.590,-0.770
707649,0.117,0.600,0.840,0.770,-2.520,-0.630
707667,0.116,0.601,0.839,0.910,-2.520,-0.770
707689,0.119,0.598,0.836,0.980,-2.380,-0.980
707737,0.115,0.598,0.838,1.050,-2.450,-0.630
707757,0.117,0.599,0.839,0.980,-2.520,-0.700
707782,0.118,0.601,0.839,0.770,-2.310,-0.770
707802,0.116,0.598,0.841,0.910,-2.450,-0.630
707822,0.117,0.597,0.839,0.980,-2.520,-0.630
707842,0.116,0.600,0.841,0.770,-2.450,-0.560
707911,0.117,0.599,0.838,0.980,-2.450,-0.840
707930,0.117,0.599,0.841,1.120,-2.590,-0.700
707950,0.116,0.602,0.838,0.910,-2.590,-0.560
707969,0.115,0.600,0.840,0.980,-2.520,-0.700
707989,0.118,0.598,0.839,1.120,-2.590,-0.630
708006,0.115,0.599,0.838,0.700,-2.520,-0.630
708067,0.117,0.599,0.838,0.840,-2.450,-0.910
708088,0.118,0.601,0.840,0.840,-2.450,-0.770
708104,0.118,0.600,0.838,0.980,-2.520,-0.910
708128,0.119,0.597,0.839,1.120,-2.450,-0.980
708146,0.118,0.599,0.837,0.770,-2.450,-0.840
708166,0.122,0.598,0.839,0.770,-2.240,-0.840
708210,0.116,0.598,0.838,0.910,-2.240,-1.050
708229,0.117,0.602,0.839,0.490,-2.310,-0.980
708249,0.118,0.600,0.838,0.630,-2.170,-1.050
708266,0.119,0.598,0.839,0.840,-2.170,-1.330
708287,0.116,0.599,0.839,0.840,-2.100,-1.260
708307,0.116,0.599,0.840,0.630,-2.100,-1.050
708371,0.113,0.600,0.839,0.980,-2.590,-0.770
708390,0.116,0.602,0.838,0.770,-2.450,-0.490
708415,0.117,0.599,0.839,0.840,-2.520,-0.630
708434,0.117,0.598,0.839,1.120,-2.590,-0.700
708454,0.115,0.598,0.837,1.050,-2.520,-0.770
708478,0.115,0.600,0.839,0.980,-2.590,-0.700
708539,0.116,0.597,0.839,0.980,-2.450,-0.910
708557,0.115,0.603,0.838,0.770,-2.450,-0.840
708576,0.116,0.602,0.840,0.840,-2.380,-0.840
708599,0.115,0.599,0.836,0.840,-2.240,-1.050
708619,0.115,0.599,0.838,0.980,-2.310,-0.980
708641,0.114,0.598,0.838,1.050,-2.310,-0.910
708692,0.114,0.601,0.838,1.050,-2.450,-0.560
708712,0.116,0.601,0.840,0.840,-2.520,-0.490
708729,0.115,0.601,0.837,1.120,-2.590,-0.770
708748,0.116,0.599,0.841,0.840,-2.380,-0.840
708773,0.118,0.600,0.838,0.700,-2.450,-0.840
708791,0.118,0.599,0.841,0.980,-2.450,-0.910
708844,0.115,0.597,0.840,0.770,-2.240,-0.980
708859,0.116,0.598,0.839,0.770,-2.310,-0.910
708882,0.116,0.597,0.840,0.910,-2.380,-0.770
708906,0.115,0.603,0.837,0.840,-2.310,-0.700
708926,0.115,0.598,0.837,0.490,-2.170,-0.840
708945,0.114,0.598,0.843,1.400,-2.590,-0.840
709010,0.114,0.599,0.840,0.840,-2.520,-0.630
709029,0.116,0.597,0.840,0.700,-2.380,-0.910
709049,0.116,0.600,0.838,0.700,-2.240,-0.840
709067,0.114,0.601,0.838,0.630,-2.170,-0.910
709084,0.113,0.598,0.840,0.700,-2.170,-0.840
709104,0.116,0.600,0.839,0.770,-2.310,-1.050
709167,0.111,0.599,0.842,0.840,-2.450,-0.910
709189,0.112,0.599,0.839,0.840,-2.450,-0.560
709213,0.116,0.600,0.840,1.050,-2.660,-0.420
709233,0.115,0.600,0.838,0.910,-2.730,-0.420
709253,0.116,0.598,0.838,0.980,-2.730,-0.700
709270,0.115,0.599,0.840,0.840,-2.520,-0.700
709317,0.115,0.600,0.841,0.910,-2.310,-0.980
709336,0.113,0.599,0.836,0.770,-2.170,-0.980
709354,0.114,0.594,0.840,0.560,-2.240,-0.910
709376,0.113,0.601,0.839,0.840,-2.310,-0.770
709394,0.114,0.598,0.840,0.910,-2.310,-0.910
709413,0.113,0.598,0.840,1.260,-2.520,-0.770
709463,0.113,0.599,0.838,0.840,-2.520,-0.700
709478,0.116,0.599,0.839,0.840,-2.520,-0.770
709501,0.114,0.598,0.837,0.910,-2.450,-0.840
709521,0.115,0.596,0.841,0.980,-2.380,-0.910
709541,0.115,0.602,0.840,0.490,-2.170,-0.770
709565,0.113,0.599,0.838,0.910,-2.450,-0.840
709631,0.113,0.596,0.840,0.770,-2.310,-0.560
709650,0.113,0.598,0.841,0.700,-2.310,-0.770
709670,0.115,0.601,0.839,0.630,-2.100,-0.980
709690,0.113,0.600,0.841,0.560,-2.030,-1.120
709715,0.112,0.598,0.841,0.630,-2.100,-0.980
709735,0.112,0.599,0.842,0.630,-2.100,-0.840
709794,0.113,0.598,0.839,1.120,-2.730,-0.420
709812,0.113,0.599,0.837,1.190,-2.870,-0.420
709831,0.111,0.599,0.839,1.610,-2.870,-0.420
709853,0.115,0.598,0.838,1.470,-3.010,-0.350
709873,0.115,0.600,0.839,1.120,-2.730,-0.560
709892,0.116,0.601,0.840,1.120,-2.660,-0.560
709957,0.115,0.599,0.839,0.840,-2.380,-0.980
709971,0.115,0.599,0.840,0.910,-2.380,-0.700
709991,0.114,0.597,0.839,0.910,-2.520,-0.770
710014,0.113,0.599,0.838,0.980,-2.590,-0.630
710034,0.113,0.598,0.839,1.050,-2.590,-0.560
710058,0.113,0.599,0.840,1.120,-2.450,-0.350
710129,0.113,0.598,0.840,0.840,-2.520,-0.910
710150,0.114,0.597,0.840,0.980,-2.590,-0.770
710173,0.113,0.601,0.839,0.700,-2.380,-0.700
710192,0.112,0.599,0.840,0.980,-2.450,-0.770
710212,0.115,0.598,0.839,0.980,-2.520,-0.770
710232,0.114,0.599,0.838,1.120,-2.590,-0.630
710290,0.116,0.599,0.838,1.050,-2.520,-0.630
710314,0.113,0.599,0.840,0.770,-2.520,-0.630
710334,0.113,0.601,0.841,0.840,-2.590,-0.560
710354,0.115,0.597,0.842,0.910,-2.520,-0.700
710374,0.115,0.598,0.838,1.050,-2.450,-0.770
710397,0.114,0.599,0.841,0.840,-2.450,-0.840
710446,0.113,0.598,0.839,0.980,-2.520,-0.700
710463,0.116,0.599,0.840,1.120,-2.520,-0.560
710483,0.115,0.598,0.840,1.120,-2.520,-0.630
710506,0.114,0.597,0.839,0.910,-2.590,-0.770
710525,0.114,0.602,0.837,0.910,-2.450,-0.700
710548,0.115,0.601,0.840,0.840,-2.450,-0.840
710606,0.115,0.602,0.842,0.910,-2.590,-0.560
710625,0.114,0.601,0.838,0.980,-2.450,-0.770
710645,0.117,0.599,0.840,0.910,-2.450,-0.770
710668,0.114,0.600,0.841,0.840,-2.590,-0.630
710687,0.116,0.602,0.839,0.980,-2.380,-0.630
710707,0.114,0.599,0.841,1.260,-2.450,-0.700
710762,0.115,0.599,0.838,1.050,-2.520,-0.630
710781,0.113,0.600,0.839,0.910,-2.520,-0.630
710801,0.116,0.602,0.839,0.700,-2.520,-0.560
710821,0.116,0.600,0.841,0.910,-2.520,-0.770
710837,0.113,0.598,0.841,0.910,-2.380,-0.840
710861,0.116,0.598,0.841,0.840,-2.450,-0.840
710908,0.116,0.598,0.842,1.050,-2.590,-0.630
710927,0.115,0.597,0.840,1.050,-2.380,-0.630
710945,0.114,0.600,0.839,0.910,-2.450,-0.630
710966,0.116,0.600,0.838,0.840,-2.660,-0.700
710987,0.115,0.601,0.839,0.840,-2.590,-0.630
711011,0.115,0.601,0.837,0.980,-2.380,-0.630
711063,0.114,0.600,0.843,1.050,-2.380,-0.910
711082,0.114,0.599,0.839,0.980,-2.450,-0.840
711102,0.115,0.599,0.840,1.120,-2.450,-0.560
711122,0.116,0.602,0.838,0.840,-2.450,-0.630
711142,0.115,0.602,0.839,1.050,-2.590,-0.700
711157,0.115,0.598,0.841,0.910,-2.590,-0.770
711213,0.115,0.601,0.838,0.490,-2.310,-0.770
711227,0.114,0.599,0.839,1.050,-2.520,-0.700
711252,0.117,0.598,0.840,1.050,-2.520,-0.700
711271,0.114,0.599,0.838,0.980,-2.590,-0.770
711290,0.117,0.600,0.837,0.700,-2.450,-0.630
711312,0.116,0.599,0.838,1.190,-2.590,-0.770
711367,0.112,0.601,0.837,1.120,-2.450,-0.840
711391,0.115,0.597,0.838,1.120,-2.450,-0.770
711411,0.115,0.599,0.838,0.910,-2.450,-0.910
711431,0.115,0.598,0.837,0.910,-2.520,-0.700
711449,0.115,0.603,0.839,0.910,-2.450,-0.630
711471,0.114,0.598,0.838,1.050,-2.450,-0.700
711526,0.117,0.596,0.838,1.050,-2.520,-0.770
711544,0.114,0.599,0.837,0.910,-2.520,-0.630
711565,0.116,0.601,0.839,0.770,-2.450,-0.560
711588,0.114,0.603,0.838,0.980,-2.380,-0.770
711611,0.114,0.599,0.836,1.120,-2.450,-0.770
711632,0.115,0.598,0.839,1.120,-2.520,-0.840
711682,0.115,0.599,0.839,1.050,-2.590,-0.700
711706,0.114,0.600,0.840,0.910,-2.520,-0.840
711727,0.115,0.601,0.841,0.840,-2.450,-0.700
711744,0.115,0.598,0.841,1.120,-2.450,-0.770
711765,0.116,0.598,0.838,0.910,-2.520,-0.770
711785,0.117,0.600,0.839,0.700,-2.310,-0.770
711832,0.117,0.600,0.842,0.840,-2.380,-0.840
711856,0.114,0.598,0.838,0.770,-2.380,-0.700
711871,0.115,0.600,0.837,1.120,-2.590,-0.630
711891,0.116,0.598,0.840,0.980,-2.450,-0.630
711913,0.114,0.602,0.840,0.910,-2.380,-0.630
711936,0.115,0.602,0.838,1.190,-2.450,-0.700
711993,0.114,0.601,0.838,0.630,-2.310,-0.910
712017,0.112,0.601,0.839,0.770,-2.520,-0.770
712037,0.114,0.599,0.838,0.840,-2.380,-0.770
712057,0.115,0.600,0.841,0.700,-2.380,-0.770
712072,0.116,0.600,0.838,1.120,-2.590,-0.910
712092,0.117,0.598,0.836,1.190,-2.520,-0.700
712156,0.116,0.596,0.839,1.120,-2.520,-0.630
712174,0.117,0.598,0.839,0.980,-2.520,-0.630
712194,0.117,0.600,0.840,0.840,-2.450,-0.630
712213,0.117,0.600,0.839,0.840,-2.520,-0.840
712237,0.116,0.599,0.844,0.770,-2.380,-0.840
712257,0.113,0.600,0.838,0.910,-2.450,-0.840
712319,0.116,0.598,0.840,1.120,-2.590,-0.700
712338,0.116,0.599,0.841,0.980,-2.380,-0.770
712358,0.113,0.599,0.839,0.840,-2.520,-0.700
712378,0.117,0.602,0.838,0.700,-2.310,-0.770
712398,0.116,0.599,0.839,0.980,-2.520,-0.840
712416,0.115,0.599,0.838,0.770,-2.310,-0.840
712476,0.115,0.598,0.837,0.840,-2.380,-0.840
712490,0.115,0.600,0.838,0.910,-2.590,-0.630
712513,0.115,0.602,0.841,0.840,-2.450,-0.490
712531,0.114,0.601,0.840,1.120,-2.450,-0.770
712555,0.114,0.597,0.838,0.840,-2.310,-0.980
712575,0.114,0.599,0.838,0.770,-2.450,-0.770
712634,0.116,0.596,0.837,0.910,-2.310,-0.980
712656,0.116,0.598,0.840,0.910,-2.240,-0.910
712680,0.114,0.600,0.837,0.980,-2.520,-0.700
712699,0.115,0.600,0.840,0.980,-2.520,-0.560
712718,0.117,0.599,0.839,0.840,-2.590,-0.770
712742,0.115,0.600,0.837,0.840,-2.450,-0.700
712810,0.114,0.601,0.838,0.910,-2.310,-0.980
712829,0.116,0.599,0.838,0.840,-2.450,-0.840
712849,0.114,0.600,0.838,0.700,-2.170,-0.980
712868,0.116,0.600,0.839,0.910,-2.170,-1.190
712889,0.112,0.599,0.840,0.700,-1.960,-1.050
712909,0.111,0.597,0.839,0.560,-2.310,-1.050
712966,0.113,0.597,0.839,0.980,-2.660,-0.630
712985,0.115,0.601,0.838,0.910,-2.520,-0.630
713004,0.114,0.600,0.839,0.910,-2.380,-0.630
713021,0.114,0.598,0.839,1.050,-2.450,-0.770
713042,0.115,0.599,0.839,0.910,-2.450,-0.700
713066,0.115,0.601,0.838,0.980,-2.450,-0.840
713114,0.115,0.600,0.841,0.700,-2.310,-0.770
713134,0.113,0.599,0.840,0.700,-2.240,-0.980
713153,0.116,0.595,0.840,0.840,-2.170,-0.840
713178,0.114,0.599,0.841,0.630,-2.310,-0.770
713197,0.114,0.600,0.842,0.840,-2.520,-0.770
713216,0.113,0.599,0.838,0.980,-2.450,-0.560
713262,0.115,0.599,0.841,0.840,-2.380,-0.700
713284,0.113,0.599,0.839,1.120,-2.520,-0.770
713304,0.115,0.601,0.841,0.770,-2.310,-0.840
713324,0.115,0.600,0.840,0.840,-2.310,-0.840
713344,0.115,0.600,0.838,0.700,-2.310,-0.840
713364,0.113,0.600,0.840,0.630,-2.240,-0.840
713418,0.113,0.599,0.838,0.840,-2.240,-0.840
713437,0.115,0.599,0.839,1.120,-2.380,-0.840
713457,0.114,0.600,0.841,1.050,-2.520,-0.770
713482,0.114,0.598,0.839,0.980,-2.520,-0.700
713502,0.112,0.600,0.841,0.840,-2.520,-0.770
713522,0.115,0.599,0.839,0.840,-2.520,-0.770
713584,0.113,0.600,0.839,0.910,-2.520,-0.700
713603,0.115,0.599,0.841,0.910,-2.660,-0.770
713623,0.114,0.598,0.838,0.840,-2.450,-0.700
713648,0.113,0.598,0.839,0.770,-2.520,-0.560
713666,0.113,0.599,0.839,1.050,-2.520,-0.630
713688,0.114,0.600,0.841,1.050,-2.520,-0.770
713742,0.113,0.602,0.839,0.980,-2.520,-0.490
713758,0.113,0.601,0.839,1.190,-2.660,-0.630
713781,0.115,0.601,0.838,1.120,-2.730,-0.560
713803,0.113,0.598,0.837,0.980,-2.730,-0.560
713823,0.113,0.600,0.838,0.840,-2.730,-0.560
713843,0.114,0.600,0.839,1.050,-2.590,-0.630
713911,0.114,0.601,0.841,0.700,-2.170,-1.120
713929,0.114,0.599,0.839,0.980,-2.170,-1.190
713950,0.114,0.598,0.840,0.910,-2.100,-1.120
713969,0.112,0.600,0.841,0.770,-2.310,-0.840
713987,0.115,0.599,0.841,0.840,-2.380,-0.770
714009,0.113,0.597,0.840,0.840,-2.450,-0.630
714058,0.115,0.600,0.839,1.120,-2.660,-0.490
714075,0.115,0.598,0.839,1.050,-2.660,-0.490
714092,0.114,0.601,0.841,1.050,-2.660,-0.490
714116,0.113,0.597,0.840,1.050,-2.520,-0.630
714137,0.114,0.600,0.839,0.770,-2.450,-0.770
714157,0.115,0.600,0.839,0.840,-2.450,-0.840
714205,0.116,0.600,0.839,1.050,-2.380,-0.910
714224,0.114,0.598,0.838,0.980,-2.310,-0.770
714244,0.113,0.601,0.839,0.840,-2.380,-0.700
714262,0.114,0.601,0.840,0.980,-2.520,-0.630
714284,0.112,0.600,0.839,1.050,-2.660,-0.490
714301,0.114,0.598,0.839,1.050,-2.800,-0.490
714362,0.116,0.598,0.839,1.050,-2.520,-0.840
714381,0.115,0.601,0.838,0.770,-2.380,-0.840
714400,0.112,0.601,0.841,0.840,-2.380,-0.700
714420,0.116,0.601,0.840,0.980,-2.380,-0.770
714441,0.114,0.597,0.839,0.980,-2.520,-0.910
714461,0.114,0.598,0.838,0.840,-2.310,-0.700
714507,0.115,0.600,0.841,1.050,-2.520,-0.560
714528,0.116,0.600,0.839,1.330,-2.730,-0.560
714547,0.116,0.600,0.840,1.260,-2.870,-0.560
714568,0.116,0.599,0.838,0.840,-2.590,-0.490
714587,0.114,0.600,0.840,0.980,-2.520,-0.630
714612,0.112,0.599,0.839,0.910,-2.380,-0.840
714667,0.114,0.601,0.839,0.910,-2.520,-0.840
714686,0.116,0.597,0.839,1.400,-2.520,-0.840
714706,0.113,0.600,0.837,1.120,-2.450,-0.910
714724,0.114,0.602,0.838,1.050,-2.450,-0.700
714746,0.116,0.598,0.839,1.190,-2.590,-0.630
714766,0.114,0.599,0.840,0.910,-2.660,-0.630
714824,0.114,0.602,0.840,1.120,-2.380,-0.840
714847,0.116,0.600,0.838,0.840,-2.520,-0.700
714865,0.115,0.603,0.838,0.630,-2.450,-0.980
714887,0.116,0.599,0.839,0.910,-2.380,-0.910
714907,0.118,0.601,0.839,0.910,-2.380,-0.980
714924,0.114,0.598,0.837,0.700,-2.310,-0.770
714978,0.116,0.603,0.841,0.980,-2.520,-0.630
714997,0.114,0.602,0.840,1.190,-2.520,-0.770
715017,0.116,0.600,0.840,1.050,-2.520,-0.770
715038,0.116,0.598,0.839,0.770,-2.520,-0.560
715057,0.114,0.602,0.839,0.770,-2.450,-0.630
715078,0.116,0.602,0.839,0.840,-2.450,-0.700
715142,0.114,0.600,0.840,0.840,-2.380,-0.770
715162,0.114,0.602,0.840,1.120,-2.590,-0.560
715182,0.116,0.601,0.839,1.120,-2.590,-0.630
715206,0.114,0.601,0.839,0.980,-2.520,-0.630
715226,0.116,0.601,0.838,0.560,-2.380,-0.630
715246,0.115,0.603,0.841,0.910,-2.450,-0.700
715306,0.115,0.601,0.839,0.910,-2.660,-0.630
715324,0.115,0.599,0.839,1.050,-2.590,-0.700
715345,0.114,0.598,0.840,0.980,-2.380,-0.560
715361,0.115,0.601,0.839,0.980,-2.450,-0.560
715385,0.115,0.602,0.839,0.910,-2.450,-0.560
715405,0.116,0.599,0.840,0.980,-2.450,-0.770
715469,0.117,0.599,0.839,0.700,-2.240,-1.190
715488,0.114,0.600,0.839,0.840,-2.310,-1.120
715503,0.114,0.599,0.841,0.840,-2.450,-0.770
715526,0.115,0.600,0.839,0.910,-2.450,-0.630
715546,0.114,0.601,0.841,0.980,-2.450,-0.700
715567,0.115,0.600,0.841,1.120,-2.660,-0.700
715627,0.117,0.602,0.839,0.980,-2.520,-0.560
715646,0.116,0.599,0.839,0.840,-2.450,-0.770
715670,0.115,0.601,0.836,0.910,-2.310,-0.980
715691,0.113,0.599,0.839,0.560,-2.170,-0.840
715709,0.114,0.597,0.837,0.910,-2.380,-0.980
715729,0.113,0.599,0.840,1.050,-2.380,-0.840
715793,0.114,0.600,0.839,0.980,-2.380,-0.840
715811,0.113,0.599,0.842,1.050,-2.450,-0.700
715832,0.113,0.598,0.840,0.840,-2.520,-0.630
715852,0.117,0.600,0.838,0.770,-2.380,-0.770
715870,0.113,0.601,0.839,0.910,-2.520,-0.840
715892,0.114,0.600,0.840,0.630,-2.310,-0.910
715957,0.113,0.601,0.839,0.840,-2.100,-1.050
715981,0.114,0.600,0.838,0.910,-2.170,-1.120
716001,0.114,0.600,0.840,0.980,-2.310,-0.840
716018,0.112,0.601,0.840,1.050,-2.660,-0.560
716041,0.117,0.600,0.839,0.980,-2.660,-0.490
716061,0.115,0.600,0.837,0.910,-2.450,-0.630
716128,0.114,0.600,0.841,0.420,-2.030,-0.980
716152,0.114,0.598,0.842,0.840,-2.170,-0.910
716172,0.113,0.599,0.838,0.980,-2.240,-0.840
716190,0.112,0.599,0.836,0.840,-2.310,-0.770
716212,0.114,0.599,0.842,0.910,-2.450,-0.700
716232,0.112,0.601,0.841,0.980,-2.520,-0.420
716289,0.114,0.598,0.839,0.630,-2.380,-0.700
716311,0.111,0.600,0.839,0.980,-2.520,-0.840
716335,0.115,0.599,0.840,0.770,-2.380,-0.910
716350,0.115,0.597,0.838,0.700,-2.450,-0.770
716375,0.115,0.599,0.842,0.490,-2.240,-0.770
716395,0.113,0.598,0.842,0.770,-2.170,-0.910
716460,0.113,0.600,0.841,0.770,-2.240,-0.700
716479,0.111,0.600,0.840,0.840,-2.380,-0.700
716499,0.114,0.599,0.841,0.840,-2.380,-0.770
716516,0.113,0.598,0.840,0.770,-2.380,-0.700
716538,0.113,0.598,0.841,0.700,-2.520,-0.840
716559,0.113,0.598,0.840,0.700,-2.450,-0.630
716613,0.114,0.599,0.839,0.840,-2.520,-0.560
716636,0.113,0.599,0.842,1.050,-2.730,-0.560
716656,0.111,0.598,0.838,0.980,-3.010,-0.350
716677,0.113,0.602,0.841,0.840,-2.940,-0.280
716695,0.114,0.600,0.840,1.050,-2.940,-0.420
716713,0.115,0.596,0.839,0.840,-2.730,-0.420
716766,0.116,0.599,0.839,1.050,-2.660,-0.350
716780,0.115,0.597,0.839,0.910,-2.660,-0.420
716805,0.116,0.602,0.840,0.980,-2.660,-0.560
716824,0.115,0.597,0.841,0.980,-2.660,-0.490
716843,0.117,0.599,0.840,0.980,-2.730,-0.490
716865,0.116,0.599,0.840,0.910,-2.660,-0.560
716913,0.115,0.598,0.843,0.910,-2.520,-0.560
716934,0.115,0.597,0.840,0.980,-2.520,-0.630
716952,0.118,0.598,0.840,0.910,-2.520,-0.700
716974,0.115,0.599,0.838,0.910,-2.520,-0.630
716994,0.115,0.599,0.841,1.050,-2.590,-0.630
717012,0.117,0.598,0.841,1.330,-2.730,-0.560
717062,0.114,0.596,0.838,0.980,-2.520,-0.630
717082,0.117,0.599,0.839,0.840,-2.520,-0.560
717106,0.114,0.597,0.840,0.840,-2.380,-0.770
717124,0.114,0.597,0.841,0.980,-2.520,-0.700
717145,0.117,0.597,0.842,0.910,-2.590,-0.770
717165,0.117,0.599,0.837,0.980,-2.660,-0.630
717232,0.116,0.598,0.840,0.910,-2.380,-0.630
717257,0.114,0.598,0.841,0.980,-2.590,-0.700
717275,0.119,0.598,0.839,1.050,-2.590,-0.630
717296,0.117,0.599,0.838,0.770,-2.450,-0.770
717319,0.115,0.599,0.837,1.050,-2.590,-0.700
717340,0.118,0.599,0.840,0.980,-2.520,-0.770
717395,0.116,0.599,0.841,0.910,-2.520,-0.700
717414,0.118,0.599,0.839,0.980,-2.590,-0.770
717438,0.115,0.598,0.838,0.840,-2.380,-0.770
717458,0.118,0.602,0.840,0.770,-2.450,-0.630
717478,0.118,0.600,0.840,1.120,-2.660,-0.700
717498,0.116,0.597,0.839,1.050,-2.660,-0.560
717567,0.116,0.598,0.840,0.910,-2.380,-0.840
717587,0.117,0.599,0.838,0.840,-2.450,-0.700
717607,0.117,0.599,0.838,0.770,-2.590,-0.630
717627,0.116,0.599,0.839,0.910,-2.450,-0.700
717646,0.117,0.601,0.840,0.840,-2.450,-0.840
717667,0.118,0.600,0.839,1.260,-2.450,-0.980
717729,0.117,0.600,0.839,1.050,-2.520,-0.700
717747,0.116,0.597,0.840,1.120,-2.450,-0.700
717765,0.116,0.599,0.838,0.980,-2.450,-0.630
717784,0.117,0.601,0.840,0.910,-2.450,-0.560
717805,0.116,0.600,0.838,0.770,-2.660,-0.490
717828,0.117,0.598,0.839,1.050,-2.660,-0.560
717878,0.117,0.599,0.840,0.840,-2.380,-0.840
717896,0.116,0.599,0.838,1.120,-2.520,-0.700
717915,0.118,0.600,0.840,0.910,-2.380,-0.840
717937,0.117,0.598,0.838,1.120,-2.450,-0.840
717956,0.116,0.599,0.839,0.840,-2.520,-0.840
717973,0.119,0.600,0.840,0.770,-2.450,-0.490
718041,0.119,0.599,0.841,1.050,-2.520,-0.700
718065,0.117,0.601,0.837,0.910,-2.520,-0.700
718085,0.117,0.602,0.838,1.190,-2.660,-0.700
718105,0.119,0.598,0.837,1.120,-2.450,-0.560
718121,0.117,0.598,0.841,1.120,-2.590,-0.630
718143,0.117,0.599,0.840,0.910,-2.450,-0.630
718213,0.116,0.601,0.839,1.120,-2.520,-0.630
718237,0.117,0.599,0.840,0.840,-2.380,-0.700
718258,0.119,0.600,0.839,0.980,-2.660,-0.700
718282,0.116,0.599,0.841,0.910,-2.520,-0.840
718301,0.116,0.601,0.839,0.910,-2.520,-0.770
718318,0.117,0.600,0.840,0.840,-2.380,-0.840
718382,0.120,0.598,0.839,0.840,-2.450,-0.630
718401,0.117,0.600,0.841,1.050,-2.450,-0.770
718421,0.116,0.601,0.838,1.050,-2.520,-0.630
718444,0.116,0.597,0.840,0.980,-2.450,-0.770
718466,0.117,0.598,0.839,0.910,-2.520,-0.840
718485,0.119,0.599,0.838,0.910,-2.450,-0.770
718549,0.119,0.598,0.841,0.840,-2.450,-0.700
718568,0.118,0.601,0.843,0.910,-2.450,-0.630
718591,0.119,0.599,0.841,0.980,-2.450,-0.700
718615,0.118,0.599,0.839,1.050,-2.590,-0.840
718635,0.116,0.600,0.839,0.980,-2.520,-0.700
718655,0.117,0.599,0.840,0.980,-2.590,-0.700
718706,0.119,0.600,0.839,0.910,-2.450,-0.630
718725,0.116,0.597,0.840,0.910,-2.380,-0.700
718743,0.117,0.599,0.839,0.770,-2.380,-0.770
718760,0.118,0.600,0.837,0.840,-2.380,-0.770
718785,0.117,0.602,0.841,0.910,-2.450,-0.700
718809,0.118,0.601,0.840,0.980,-2.380,-0.770
718871,0.119,0.601,0.840,0.910,-2.520,-0.560
718889,0.117,0.601,0.839,0.910,-2.380,-0.770
718909,0.117,0.596,0.840,0.770,-2.450,-0.630
718928,0.119,0.599,0.841,0.840,-2.590,-0.560
718948,0.119,0.601,0.839,0.910,-2.590,-0.560
718968,0.116,0.598,0.840,1.470,-2.940,-0.700
719020,0.118,0.597,0.841,1.050,-2.450,-0.840
719044,0.118,0.599,0.840,0.700,-2.310,-0.910
719063,0.120,0.599,0.841,0.770,-2.450,-0.630
719088,0.118,0.601,0.840,0.980,-2.450,-0.700
719103,0.116,0.601,0.843,0.980,-2.450,-0.700
719126,0.121,0.599,0.840,1.050,-2.520,-0.770
719187,0.118,0.597,0.842,1.050,-2.450,-0.770
719206,0.118,0.600,0.838,0.910,-2.520,-0.770
719226,0.119,0.600,0.839,0.770,-2.380,-0.700
719246,0.119,0.602,0.840,0.700,-2.380,-0.840
719265,0.119,0.599,0.840,0.910,-2.450,-0.910
719286,0.118,0.597,0.840,0.700,-2.380,-0.910
719352,0.114,0.599,0.838,0.840,-2.380,-0.700
719374,0.119,0.601,0.840,0.910,-2.380,-0.770
719398,0.118,0.597,0.841,0.980,-2.310,-0.980
719418,0.118,0.600,0.839,0.770,-2.380,-0.840
719438,0.118,0.599,0.837,0.840,-2.380,-0.910
719458,0.116,0.601,0.840,1.050,-2.380,-0.910
719528,0.118,0.600,0.839,0.910,-2.310,-0.840
719552,0.116,0.600,0.841,0.840,-2.240,-1.050
719572,0.118,0.599,0.839,1.050,-2.240,-1.050
719592,0.116,0.599,0.840,1.120,-2.310,-1.050
719611,0.118,0.598,0.839,0.980,-2.380,-0.840
719632,0.116,0.600,0.840,0.840,-2.240,-0.770
719704,0.117,0.600,0.839,0.910,-2.520,-0.700
719721,0.119,0.598,0.839,0.910,-2.590,-0.700
719741,0.118,0.601,0.841,0.910,-2.380,-0.630
719762,0.115,0.599,0.838,0.910,-2.310,-0.980
719785,0.115,0.600,0.840,0.910,-2.170,-1.050
719803,0.116,0.599,0.839,0.910,-2.310,-0.910
719858,0.118,0.596,0.841,0.770,-2.450,-0.840
719882,0.116,0.601,0.839,0.910,-2.380,-0.770
719902,0.116,0.602,0.840,0.700,-2.310,-0.770
719921,0.118,0.600,0.840,1.120,-2.380,-0.840
719939,0.117,0.598,0.839,1.190,-2.520,-0.770
719958,0.114,0.600,0.840,1.050,-2.660,-0.490
720011,0.119,0.604,0.837,0.770,-2.450,-0.770
720026,0.118,0.597,0.840,0.770,-2.450,-0.700
720050,0.115,0.598,0.839,0.840,-2.380,-0.840
720071,0.114,0.601,0.840,0.770,-2.450,-0.840
720091,0.119,0.597,0.841,1.120,-2.520,-0.630
720109,0.117,0.602,0.839,1.120,-2.520,-0.630
720167,0.119,0.599,0.840,0.840,-2.660,-0.490
720191,0.115,0.600,0.839,0.910,-2.730,-0.490
720206,0.118,0.599,0.841,0.700,-2.730,-0.700
720231,0.118,0.597,0.838,0.840,-2.520,-0.630
720250,0.118,0.598,0.840,0.910,-2.450,-0.770
720269,0.115,0.597,0.838,1.050,-2.450,-0.910
720335,0.115,0.599,0.843,1.120,-2.520,-0.420
720358,0.116,0.600,0.836,0.910,-2.450,-0.560
720382,0.115,0.597,0.840,1.050,-2.660,-0.630
720401,0.117,0.598,0.841,0.980,-2.730,-0.560
720418,0.117,0.598,0.840,0.700,-2.520,-0.560
720437,0.117,0.600,0.840,1.050,-2.520,-0.700
720498,0.117,0.600,0.840,0.910,-2.450,-0.630
720518,0.118,0.601,0.840,0.840,-2.450,-0.560
720538,0.118,0.599,0.838,1.120,-2.590,-0.630
720558,0.117,0.599,0.837,0.980,-2.590,-0.630
720578,0.117,0.598,0.838,0.840,-2.520,-0.630
720598,0.116,0.600,0.839,0.980,-2.520,-0.630
720658,0.117,0.601,0.838,0.840,-2.450,-0.840
720682,0.118,0.598,0.838,1.050,-2.450,-0.770
720702,0.116,0.599,0.840,0.840,-2.310,-0.700
720721,0.116,0.598,0.840,0.980,-2.520,-0.700
720740,0.118,0.598,0.839,1.050,-2.520,-0.700
720761,0.117,0.600,0.838,0.840,-2.450,-0.490
720814,0.118,0.601,0.840,0.910,-2.520,-0.770
720833,0.118,0.598,0.839,1.120,-2.450,-0.840
720853,0.117,0.599,0.839,0.910,-2.520,-0.630
720878,0.119,0.602,0.838,0.910,-2.520,-0.700
720897,0.117,0.601,0.839,1.120,-2.380,-0.630
720918,0.118,0.598,0.840,1.050,-2.590,-0.700
720986,0.117,0.598,0.839,0.840,-2.380,-0.630
721007,0.117,0.599,0.839,0.980,-2.520,-0.770
721026,0.116,0.601,0.838,1.050,-2.380,-0.700
721047,0.119,0.599,0.840,1.050,-2.450,-0.770
721069,0.118,0.598,0.837,0.840,-2.520,-0.630
721092,0.119,0.599,0.841,0.980,-2.590,-0.630
721169,0.117,0.599,0.840,0.910,-2.450,-0.630
721184,0.119,0.598,0.839,0.910,-2.450,-0.770
721208,0.117,0.598,0.839,0.980,-2.520,-0.630
721228,0.118,0.600,0.837,0.770,-2.450,-0.630
721252,0.118,0.602,0.838,0.980,-2.520,-0.700
721272,0.118,0.601,0.840,0.980,-2.310,-0.910
721330,0.121,0.599,0.840,0.910,-2.520,-0.560
721349,0.121,0.600,0.837,1.050,-2.590,-0.630
721367,0.119,0.598,0.839,0.700,-2.450,-0.700
721389,0.116,0.599,0.839,0.840,-2.520,-0.770
721409,0.118,0.601,0.838,0.840,-2.450,-0.770
721427,0.119,0.597,0.839,0.980,-2.450,-0.770
721493,0.117,0.600,0.837,1.190,-2.590,-0.700
721513,0.117,0.599,0.837,1.120,-2.660,-0.630
721532,0.119,0.600,0.839,1.120,-2.730,-0.770
721557,0.119,0.598,0.838,0.840,-2.590,-0.560
721576,0.118,0.599,0.839,0.840,-2.450,-0.770
721595,0.119,0.600,0.836,0.980,-2.310,-0.910
721643,0.119,0.599,0.838,1.260,-2.380,-0.980
721662,0.118,0.600,0.837,0.910,-2.450,-0.700
721682,0.122,0.602,0.840,0.980,-2.590,-0.630
721702,0.119,0.599,0.838,1.050,-2.520,-0.630
721721,0.118,0.601,0.837,0.700,-2.450,-0.490
721745,0.118,0.601,0.840,0.980,-2.380,-0.700
721793,0.120,0.599,0.838,1.190,-2.520,-0.700
721812,0.119,0.601,0.841,0.910,-2.520,-0.770
721832,0.120,0.600,0.839,0.630,-2.310,-0.840
721852,0.116,0.599,0.839,0.700,-2.380,-0.910
721870,0.120,0.600,0.840,0.840,-2.380,-0.770
721891,0.118,0.599,0.839,0.910,-2.450,-0.840
721948,0.119,0.598,0.839,1.260,-2.660,-0.700
721967,0.119,0.597,0.842,1.050,-2.590,-0.630
721985,0.119,0.601,0.838,0.980,-2.590,-0.560
722005,0.120,0.600,0.838,0.980,-2.520,-0.630
722025,0.119,0.597,0.839,0.980,-2.380,-0.700
722044,0.116,0.599,0.839,0.770,-2.380,-0.840
722098,0.120,0.600,0.840,0.840,-2.380,-0.840
722116,0.119,0.602,0.840,0.840,-2.450,-0.700
722141,0.120,0.600,0.838,0.910,-2.380,-0.840
722161,0.120,0.597,0.842,1.190,-2.380,-0.910
722181,0.119,0.599,0.838,0.980,-2.380,-0.840
722201,0.116,0.601,0.837,0.840,-2.380,-0.560
722261,0.117,0.601,0.839,0.770,-2.590,-0.560
722285,0.117,0.601,0.839,0.700,-2.450,-0.630
722305,0.120,0.600,0.839,0.980,-2.450,-0.700
722326,0.119,0.601,0.841,1.120,-2.590,-0.700
722345,0.117,0.599,0.839,0.910,-2.590,-0.560
722368,0.119,0.600,0.836,0.980,-2.520,-0.700
722429,0.121,0.599,0.841,0.910,-2.450,-0.910
722447,0.120,0.600,0.839,0.840,-2.380,-0.770
722467,0.118,0.599,0.840,0.770,-2.450,-0.770
722488,0.118,0.599,0.838,0.840,-2.520,-0.840
722508,0.122,0.601,0.840,0.770,-2.310,-0.910
722528,0.118,0.602,0.840,0.770,-2.380,-0.910
722587,0.117,0.599,0.838,0.980,-2.380,-0.910
722606,0.119,0.600,0.838,0.980,-2.520,-0.840
722626,0.119,0.598,0.839,1.050,-2.380,-0.700
722644,0.116,0.602,0.840,0.910,-2.310,-0.770
722661,0.118,0.599,0.838,0.910,-2.450,-0.700
722681,0.119,0.601,0.840,0.980,-2.450,-0.770
722754,0.117,0.599,0.840,0.910,-2.520,-0.910
722774,0.118,0.598,0.839,0.630,-2.310,-0.770
722793,0.120,0.599,0.840,0.700,-2.310,-0.980
722817,0.119,0.602,0.841,0.910,-2.170,-0.910
722837,0.119,0.598,0.840,1.050,-2.380,-0.910
722861,0.118,0.600,0.838,0.770,-2.450,-0.910
722933,0.118,0.600,0.839,0.770,-2.310,-0.910
722953,0.117,0.599,0.838,0.840,-2.380,-0.770
722973,0.117,0.596,0.838,0.840,-2.240,-0.910
722997,0.118,0.599,0.842,0.700,-2.380,-0.910
723016,0.116,0.600,0.839,0.700,-2.240,-0.840
723037,0.117,0.600,0.841,0.910,-2.450,-0.910
723104,0.116,0.599,0.838,0.980,-2.450,-0.770
723127,0.118,0.599,0.840,0.840,-2.450,-0.560
723146,0.118,0.600,0.840,0.980,-2.450,-0.770
723171,0.117,0.598,0.840,0.910,-2.450,-0.840
723191,0.117,0.600,0.840,0.840,-2.450,-0.840
723211,0.115,0.596,0.838,0.630,-2.310,-0.700
723269,0.117,0.599,0.838,0.910,-2.170,-0.840
723293,0.118,0.600,0.838,0.700,-2.100,-1.050
723312,0.115,0.599,0.841,0.840,-2.170,-0.980
723332,0.116,0.598,0.840,1.120,-2.380,-0.910
723353,0.117,0.599,0.840,1.050,-2.450,-0.700
723372,0.116,0.599,0.838,0.770,-2.520,-0.700
723433,0.117,0.597,0.841,0.980,-2.520,-0.700
723451,0.118,0.600,0.838,0.980,-2.520,-0.630
723473,0.118,0.601,0.838,0.840,-2.380,-0.770
723493,0.118,0.598,0.839,0.980,-2.520,-0.910
723513,0.116,0.598,0.839,0.910,-2.450,-0.700
723532,0.118,0.602,0.840,0.910,-2.310,-0.560
723582,0.116,0.601,0.838,0.980,-2.520,-0.910
723606,0.117,0.597,0.839,0.980,-2.520,-0.630
723626,0.116,0.598,0.840,0.910,-2.730,-0.630
723645,0.117,0.601,0.840,0.980,-2.520,-0.630
723664,0.117,0.600,0.840,0.980,-2.520,-0.840
723686,0.116,0.600,0.839,1.190,-2.450,-0.770
723744,0.118,0.598,0.842,0.980,-2.520,-0.770
723763,0.117,0.597,0.839,0.910,-2.590,-0.700
723783,0.114,0.603,0.838,0.770,-2.380,-0.630
723802,0.117,0.602,0.842,1.120,-2.520,-0.700
723823,0.117,0.598,0.840,1.190,-2.660,-0.630
723842,0.118,0.600,0.839,0.910,-2.590,-0.490
723901,0.117,0.600,0.837,1.120,-2.520,-0.700
723919,0.116,0.600,0.837,0.910,-2.520,-0.490
723936,0.119,0.598,0.840,0.980,-2.520,-0.700
723960,0.118,0.597,0.842,0.980,-2.520,-0.700
723981,0.117,0.598,0.840,0.770,-2.590,-0.700
723999,0.116,0.602,0.839,0.980,-2.450,-0.700
724071,0.117,0.596,0.839,0.980,-2.520,-0.490
724091,0.119,0.598,0.840,1.050,-2.660,-0.630
724111,0.119,0.600,0.839,0.770,-2.520,-0.630
724131,0.118,0.602,0.841,1.050,-2.520,-0.630
724150,0.117,0.596,0.838,1.120,-2.520,-0.700
724168,0.116,0.598,0.838,0.700,-2.660,-0.560
724227,0.119,0.598,0.842,0.840,-2.380,-0.770
724246,0.116,0.600,0.840,1.120,-2.380,-0.770
724266,0.117,0.598,0.839,0.980,-2.590,-0.840
724286,0.118,0.598,0.838,0.980,-2.450,-0.630
724306,0.118,0.601,0.840,0.700,-2.380,-0.770
724324,0.118,0.601,0.840,0.770,-2.380,-0.770
724396,0.120,0.598,0.840,0.910,-2.520,-0.700
724416,0.117,0.600,0.840,1.050,-2.520,-0.630
724436,0.119,0.601,0.840,1.260,-2.590,-0.630
724452,0.119,0.601,0.839,0.980,-2.520,-0.560
724473,0.119,0.599,0.840,0.910,-2.520,-0.630
724492,0.117,0.601,0.838,0.770,-2.380,-0.910
724570,0.118,0.598,0.839,1.190,-2.450,-0.700
724588,0.120,0.597,0.839,0.840,-2.450,-0.700
724608,0.118,0.601,0.841,1.050,-2.520,-0.770
724632,0.117,0.602,0.839,1.050,-2.450,-0.560
724652,0.121,0.597,0.841,1.050,-2.590,-0.630
724671,0.120,0.599,0.838,0.980,-2.520,-0.560
724742,0.119,0.601,0.839,1.120,-2.520,-0.910
724761,0.119,0.599,0.837,1.260,-2.590,-0.910
724781,0.117,0.600,0.836,0.700,-2.380,-0.630
724805,0.119,0.601,0.837,0.910,-2.450,-0.490
724825,0.121,0.600,0.838,0.770,-2.310,-0.840
724843,0.119,0.600,0.838,1.050,-2.450,-0.770
724905,0.118,0.598,0.839,1.260,-2.660,-0.700
724921,0.118,0.600,0.840,0.840,-2.450,-0.630
724941,0.119,0.602,0.841,0.910,-2.590,-0.560
724965,0.120,0.600,0.841,0.910,-2.450,-0.700
724985,0.119,0.598,0.839,0.910,-2.380,-0.840
725005,0.120,0.599,0.841,0.840,-2.450,-0.770
725064,0.119,0.598,0.836,1.050,-2.520,-0.770
725088,0.119,0.597,0.840,0.910,-2.590,-0.630
725108,0.119,0.601,0.841,0.770,-2.380,-0.700
725132,0.121,0.599,0.840,0.910,-2.310,-0.700
725150,0.118,0.598,0.839,1.050,-2.450,-0.840
725170,0.120,0.601,0.839,0.840,-2.380,-0.770
725227,0.119,0.600,0.839,0.840,-2.450,-0.700
725245,0.119,0.601,0.837,0.980,-2.450,-0.630
725264,0.118,0.598,0.841,1.120,-2.520,-0.700
725286,0.119,0.601,0.838,1.050,-2.450,-0.560
725310,0.119,0.599,0.837,1.050,-2.660,-0.630
725330,0.119,0.603,0.841,0.770,-2.450,-0.560
725387,0.117,0.598,0.840,0.420,-2.380,-0.770
725410,0.120,0.602,0.840,0.910,-2.380,-0.840
725431,0.119,0.599,0.840,1.050,-2.450,-0.910
725449,0.118,0.598,0.838,0.700,-2.450,-0.770
725469,0.120,0.602,0.840,0.840,-2.380,-0.490
725491,0.119,0.599,0.839,1.260,-2.590,-0.770
725554,0.119,0.602,0.840,0.770,-2.380,-0.630
725573,0.119,0.597,0.840,1.120,-2.450,-0.910
725591,0.120,0.601,0.837,0.840,-2.450,-0.700
725613,0.119,0.603,0.840,0.630,-2.450,-0.560
725633,0.119,0.601,0.838,0.840,-2.450,-0.840
725653,0.119,0.601,0.838,1.120,-2.590,-0.910
725715,0.120,0.602,0.840,1.050,-2.520,-0.700
725733,0.117,0.600,0.838,1.050,-2.520,-0.770
725756,0.120,0.603,0.838,0.770,-2.520,-0.770
725774,0.119,0.601,0.841,0.700,-2.310,-0.700
725798,0.118,0.600,0.838,0.980,-2.520,-0.770
725817,0.120,0.598,0.840,0.630,-2.450,-0.630
725874,0.122,0.600,0.841,0.840,-2.240,-0.910
725895,0.118,0.600,0.838,0.910,-2.380,-1.050
725912,0.118,0.600,0.840,1.050,-2.380,-0.770
725936,0.116,0.601,0.839,0.980,-2.380,-0.770
725953,0.118,0.599,0.841,0.840,-2.590,-0.630
725976,0.120,0.602,0.839,0.770,-2.520,-0.630
726040,0.117,0.598,0.836,0.980,-2.450,-0.910
726059,0.118,0.602,0.838,0.630,-2.310,-0.840
726079,0.118,0.601,0.841,0.840,-2.310,-0.840
726098,0.118,0.602,0.838,0.840,-2.240,-0.980
726122,0.120,0.595,0.840,0.630,-2.450,-1.050
726143,0.119,0.601,0.838,0.560,-2.380,-0.770
726201,0.118,0.600,0.841,0.770,-2.450,-0.770
726220,0.119,0.599,0.840,1.120,-2.450,-0.980
726239,0.117,0.600,0.838,0.910,-2.170,-1.050
726260,0.118,0.601,0.840,0.420,-2.100,-0.980
726280,0.118,0.602,0.840,0.490,-2.030,-0.980
726300,0.119,0.601,0.837,0.350,-1.890,-1.190
726357,0.118,0.598,0.838,0.910,-2.380,-0.980
726376,0.117,0.598,0.839,0.840,-2.520,-0.770
726396,0.118,0.597,0.839,0.980,-2.730,-0.420
726418,0.118,0.604,0.839,1.190,-2.730,-0.350
726440,0.116,0.602,0.838,1.260,-2.660,-0.490
726459,0.116,0.596,0.840,1.050,-2.520,-0.560
726520,0.116,0.598,0.839,0.700,-2.380,-1.050
726535,0.116,0.602,0.838,0.350,-2.170,-1.050
726554,0.116,0.600,0.840,0.420,-2.030,-1.260
726579,0.116,0.600,0.839,0.350,-1.890,-1.260
726597,0.116,0.599,0.844,0.420,-2.100,-0.910
726619,0.117,0.600,0.841,0.910,-2.240,-0.770
726687,0.117,0.599,0.840,1.260,-2.520,-0.630
726707,0.115,0.599,0.839,1.050,-2.660,-0.490
726731,0.117,0.602,0.841,0.980,-2.520,-0.700
726750,0.119,0.600,0.840,0.910,-2.380,-0.910
726769,0.113,0.598,0.838,0.770,-2.240,-1.050
726788,0.115,0.599,0.839,0.420,-1.960,-0.980
726838,0.118,0.597,0.842,0.840,-2.240,-0.770
726861,0.118,0.598,0.841,1.050,-2.450,-0.770
726881,0.119,0.597,0.838,1.050,-2.520,-0.770
726900,0.116,0.596,0.840,0.980,-2.730,-0.490
726921,0.115,0.600,0.839,1.120,-2.590,-0.490
726943,0.116,0.599,0.839,1.330,-2.660,-0.560
727003,0.118,0.599,0.840,0.840,-2.380,-0.700
727018,0.116,0.598,0.841,0.840,-2.450,-0.700
727041,0.115,0.599,0.841,0.910,-2.450,-0.770
727063,0.117,0.599,0.841,0.700,-2.310,-0.700
727082,0.116,0.600,0.841,0.910,-2.520,-0.770
727105,0.116,0.598,0.841,0.980,-2.520,-0.840
727162,0.115,0.599,0.838,1.050,-2.730,-0.490
727181,0.117,0.600,0.839,0.980,-2.730,-0.560
727199,0.118,0.600,0.841,1.260,-2.520,-0.700
727220,0.115,0.598,0.841,1.400,-2.800,-0.700
727242,0.116,0.597,0.838,1.050,-2.660,-0.630
727263,0.117,0.601,0.840,0.770,-2.520,-0.420
727322,0.119,0.600,0.839,0.770,-2.450,-0.770
727339,0.118,0.600,0.841,0.980,-2.450,-0.840
727359,0.116,0.597,0.838,1.050,-2.380,-0.840
727379,0.115,0.598,0.838,0.840,-2.520,-0.630
727399,0.118,0.602,0.839,0.770,-2.450,-0.630
727418,0.117,0.599,0.840,1.190,-2.660,-0.700
727479,0.118,0.599,0.839,1.190,-2.590,-0.700
727498,0.117,0.597,0.839,0.980,-2.520,-0.770
727518,0.116,0.602,0.840,0.770,-2.520,-0.560
727538,0.118,0.601,0.839,0.770,-2.450,-0.630
727556,0.120,0.598,0.841,1.050,-2.590,-0.700
727580,0.115,0.599,0.841,0.840,-2.660,-0.770
727639,0.116,0.597,0.838,1.260,-2.800,-0.490
727662,0.118,0.599,0.841,0.840,-2.590,-0.560
727686,0.119,0.603,0.840,0.770,-2.310,-0.700
727705,0.119,0.599,0.841,1.050,-2.380,-0.770
727726,0.119,0.598,0.837,1.050,-2.590,-0.840
727744,0.119,0.602,0.840,0.700,-2.380,-0.700
727801,0.117,0.602,0.838,0.560,-2.520,-0.630
727821,0.120,0.601,0.838,0.770,-2.520,-0.560
727842,0.119,0.598,0.840,1.190,-2.660,-0.770
727866,0.118,0.597,0.838,0.770,-2.520,-0.770
727886,0.118,0.602,0.839,0.770,-2.450,-0.630
727904,0.118,0.600,0.843,1.260,-2.520,-0.770
727967,0.117,0.602,0.841,0.700,-2.380,-0.630
727990,0.116,0.604,0.840,0.840,-2.450,-0.700
728009,0.119,0.599,0.835,1.190,-2.450,-1.050
728029,0.118,0.597,0.837,0.490,-2.310,-0.840
728054,0.118,0.601,0.839,0.630,-2.450,-0.560
728074,0.118,0.598,0.836,1.120,-2.590,-0.630
728141,0.119,0.601,0.839,0.980,-2.730,-0.420
728165,0.118,0.604,0.839,0.630,-2.310,-0.770
728185,0.119,0.600,0.840,1.120,-2.520,-0.840
728208,0.116,0.597,0.837,1.050,-2.590,-0.910
728228,0.118,0.602,0.840,0.350,-2.310,-0.770
728248,0.120,0.603,0.839,0.910,-2.310,-0.910
728311,0.117,0.603,0.840,0.840,-2.380,-0.700
728325,0.118,0.595,0.840,1.540,-2.590,-0.910
728345,0.118,0.598,0.839,0.770,-2.380,-0.560
728365,0.119,0.602,0.840,0.770,-2.310,-0.490
728388,0.119,0.604,0.841,1.050,-2.450,-0.840
728410,0.117,0.595,0.838,1.050,-2.520,-0.840
728455,0.120,0.602,0.839,0.420,-2.380,-0.630
728476,0.117,0.603,0.841,0.980,-2.450,-0.770
728495,0.118,0.598,0.837,1.190,-2.590,-0.770
728515,0.117,0.595,0.838,0.770,-2.380,-0.630
728540,0.120,0.602,0.840,0.630,-2.240,-0.770
728560,0.117,0.600,0.842,0.910,-2.520,-0.980
728621,0.117,0.601,0.841,0.630,-2.380,-0.770
728642,0.117,0.596,0.840,1.120,-2.520,-1.050
728664,0.118,0.597,0.839,0.840,-2.380,-0.840
728683,0.120,0.599,0.840,0.630,-2.310,-0.700
728707,0.119,0.601,0.842,0.840,-2.380,-0.770
728727,0.116,0.596,0.840,1.260,-2.520,-0.840
728792,0.117,0.600,0.838,0.980,-2.450,-0.840
728811,0.117,0.598,0.840,0.910,-2.380,-0.910
728835,0.118,0.596,0.842,0.700,-2.240,-0.980
728855,0.119,0.602,0.839,0.700,-2.240,-0.770
728873,0.119,0.597,0.839,1.400,-2.590,-0.770
728893,0.116,0.598,0.839,1.260,-2.590,-0.840
728934,0.117,0.603,0.841,0.980,-2.380,-0.770
728954,0.117,0.595,0.839,1.120,-2.590,-0.840
728975,0.116,0.599,0.838,0.490,-2.310,-0.560
728995,0.120,0.603,0.841,0.980,-2.520,-0.700
729019,0.120,0.601,0.839,1.260,-2.520,-0.910
729041,0.117,0.596,0.840,0.910,-2.520,-0.840
729096,0.119,0.596,0.838,0.980,-2.590,-0.630
729114,0.117,0.602,0.840,0.840,-2.240,-0.560
729133,0.118,0.598,0.838,1.260,-2.520,-0.980
729157,0.116,0.598,0.837,0.630,-2.450,-0.910
729177,0.118,0.600,0.840,0.700,-2.450,-0.700
729197,0.117,0.601,0.840,1.050,-2.450,-0.700
729249,0.117,0.596,0.841,1.120,-2.520,-0.630
729265,0.116,0.598,0.842,0.560,-2.310,-0.630
729288,0.118,0.600,0.840,0.840,-2.310,-0.630
729308,0.117,0.598,0.840,1.190,-2.590,-0.770
729327,0.119,0.595,0.840,0.910,-2.450,-0.840
729346,0.118,0.600,0.840,0.630,-2.310,-0.770
729409,0.118,0.601,0.840,0.910,-2.380,-0.630
729428,0.115,0.597,0.839,1.260,-2.450,-0.630
729446,0.117,0.597,0.838,0.840,-2.660,-0.770
729468,0.118,0.602,0.840,0.490,-2.450,-0.560
729483,0.118,0.601,0.841,1.260,-2.520,-0.840
729508,0.118,0.596,0.837,1.050,-2.450,-0.980
729555,0.119,0.600,0.842,0.490,-2.310,-0.840
729579,0.118,0.600,0.840,0.700,-2.380,-0.840
729599,0.116,0.598,0.839,1.050,-2.520,-0.910
729617,0.119,0.598,0.838,0.840,-2.380,-0.630
729636,0.118,0.602,0.842,0.840,-2.520,-0.560
729658,0.117,0.599,0.838,1.190,-2.590,-0.840
729716,0.119,0.600,0.841,1.260,-2.450,-0.700
729737,0.116,0.597,0.840,1.050,-2.590,-0.770
729757,0.121,0.601,0.842,0.840,-2.450,-0.630
729777,0.117,0.598,0.836,1.400,-2.520,-0.770
729796,0.116,0.598,0.837,0.910,-2.520,-0.910
729815,0.118,0.599,0.840,0.630,-2.520,-0.560
729867,0.117,0.601,0.839,0.770,-2.380,-0.910
729886,0.117,0.596,0.840,1.050,-2.590,-0.840
729906,0.118,0.599,0.840,1.050,-2.520,-0.770
729930,0.116,0.598,0.840,0.980,-2.450,-0.560
729950,0.115,0.598,0.840,1.190,-2.450,-0.490
729970,0.118,0.599,0.839,0.980,-2.660,-0.630
730028,0.116,0.597,0.841,0.770,-2.520,-0.560
730045,0.117,0.603,0.841,0.630,-2.450,-0.630
730063,0.119,0.601,0.838,1.260,-2.590,-0.910
730082,0.118,0.599,0.841,0.560,-2.450,-0.770
730107,0.121,0.603,0.841,0.560,-2.310,-0.910
730123,0.118,0.600,0.839,0.980,-2.310,-1.120
730178,0.117,0.597,0.839,1.190,-2.380,-0.980
730202,0.116,0.597,0.838,0.700,-2.520,-0.770
730222,0.117,0.599,0.841,0.490,-2.520,-0.490
730241,0.118,0.602,0.841,1.050,-2.590,-0.840
730265,0.118,0.597,0.839,0.910,-2.590,-0.980
730285,0.119,0.600,0.838,0.770,-2.380,-0.770
730345,0.114,0.599,0.839,0.770,-2.380,-0.630
730369,0.116,0.599,0.839,0.700,-2.380,-0.700
730384,0.117,0.598,0.839,1.050,-2.450,-0.980
730409,0.116,0.600,0.841,1.120,-2.590,-0.910
730429,0.120,0.600,0.841,0.980,-2.520,-0.910
730447,0.119,0.602,0.840,1.260,-2.380,-0.840
730499,0.117,0.599,0.838,1.190,-2.730,-0.210
730522,0.118,0.598,0.837,0.560,-2.730,-0.210
730542,0.119,0.601,0.841,0.700,-2.800,-0.280
730562,0.118,0.601,0.839,1.120,-2.730,-0.560
730586,0.119,0.597,0.838,1.470,-2.520,-1.190
730606,0.117,0.601,0.839,1.050,-2.380,-1.050
730667,0.119,0.598,0.838,0.490,-2.520,-0.630
730681,0.120,0.600,0.841,0.420,-2.310,-0.490
730706,0.117,0.595,0.838,1.120,-2.520,-0.840
730726,0.118,0.598,0.839,1.330,-2.450,-0.770
730744,0.121,0.600,0.839,0.980,-2.590,-0.490
730766,0.118,0.602,0.837,1.400,-2.730,-0.350
730830,0.117,0.600,0.837,0.980,-2.590,-0.490
730847,0.121,0.599,0.840,1.050,-2.660,-0.770
730865,0.119,0.600,0.840,0.350,-2.240,-0.980
730889,0.117,0.601,0.840,1.050,-2.520,-1.190
730909,0.119,0.599,0.838,0.770,-2.170,-1.400
730929,0.119,0.596,0.841,0.770,-2.100,-1.190
730989,0.121,0.599,0.840,1.050,-2.660,-0.350
731009,0.119,0.603,0.840,1.400,-2.800,0.000
731027,0.119,0.596,0.841,1.470,-2.940,-0.140
731046,0.118,0.598,0.837,0.840,-2.660,-0.420
731066,0.120,0.601,0.839,0.840,-2.380,-0.630
731090,0.117,0.600,0.838,1.120,-2.450,-1.120
731148,0.119,0.598,0.841,0.910,-2.030,-1.400
731167,0.117,0.599,0.841,0.700,-2.170,-1.190
731187,0.118,0.601,0.840,0.560,-2.170,-1.050
731204,0.119,0.598,0.840,0.840,-2.310,-0.980
731225,0.116,0.598,0.842,0.700,-2.450,-0.840
731245,0.117,0.601,0.841,0.840,-2.450,-0.630
731293,0.118,0.599,0.841,0.980,-2.730,-0.630
731313,0.117,0.595,0.841,0.910,-2.660,-0.560
731333,0.119,0.602,0.840,0.700,-2.590,-0.420
731353,0.120,0.599,0.839,1.260,-2.590,-0.840
731377,0.119,0.596,0.840,0.910,-2.380,-1.050
731396,0.117,0.598,0.840,0.560,-2.310,-0.980
731452,0.118,0.602,0.838,0.350,-2.030,-1.050
731476,0.118,0.599,0.841,0.350,-1.820,-1.190
731500,0.117,0.596,0.840,0.980,-2.100,-1.190
731520,0.116,0.599,0.841,0.910,-2.310,-0.840
731538,0.117,0.598,0.842,1.050,-2.450,-0.700
731560,0.117,0.599,0.839,1.120,-2.590,-0.630
731618,0.117,0.600,0.840,1.050,-2.310,-0.910
731637,0.117,0.596,0.839,0.700,-2.310,-0.910
731653,0.117,0.602,0.841,0.630,-2.240,-0.770
731677,0.116,0.597,0.841,0.910,-2.520,-0.910
731695,0.116,0.596,0.841,0.770,-2.380,-0.630
731717,0.116,0.601,0.843,0.630,-2.310,-0.700
731784,0.115,0.599,0.842,0.560,-2.240,-0.770
731798,0.118,0.602,0.838,0.840,-2.380,-0.840
731818,0.117,0.597,0.837,1.050,-2.520,-0.770
731843,0.116,0.598,0.837,0.700,-2.380,-0.840
731863,0.114,0.601,0.840,0.560,-2.240,-0.840
731881,0.116,0.596,0.841,0.980,-2.380,-0.910
731944,0.116,0.599,0.841,0.980,-2.380,-0.980
731964,0.114,0.597,0.838,0.630,-2.240,-0.980
731984,0.115,0.600,0.842,0.700,-2.170,-0.910
732004,0.119,0.597,0.842,0.840,-2.450,-0.840
732024,0.116,0.594,0.841,0.910,-2.380,-0.840
732043,0.116,0.600,0.841,0.910,-2.380,-0.770
732096,0.115,0.602,0.839,0.980,-2.380,-0.840
732115,0.115,0.595,0.844,1.120,-2.380,-0.840
732137,0.115,0.597,0.839,0.630,-2.310,-0.840
732159,0.116,0.598,0.841,0.490,-2.170,-0.910
732178,0.116,0.599,0.841,1.120,-2.310,-0.980
732200,0.115,0.597,0.839,1.050,-2.380,-0.840
732274,0.115,0.599,0.840,1.050,-2.520,-0.630
732298,0.118,0.600,0.837,0.770,-2.380,-0.770
732317,0.115,0.598,0.840,0.980,-2.590,-0.770
732336,0.118,0.597,0.842,0.490,-2.310,-0.770
732355,0.117,0.600,0.842,1.120,-2.520,-0.700
732375,0.115,0.598,0.840,0.980,-2.520,-0.700
732439,0.115,0.598,0.837,1.190,-2.520,-0.700
732463,0.115,0.599,0.838,1.120,-2.660,-0.700
732483,0.117,0.598,0.842,0.630,-2.450,-0.560
732507,0.117,0.597,0.844,1.190,-2.660,-0.700
732527,0.117,0.597,0.838,0.910,-2.590,-0.770
732545,0.117,0.599,0.840,0.840,-2.590,-0.560
732602,0.117,0.599,0.841,0.630,-2.450,-0.490
732621,0.116,0.597,0.843,1.050,-2.590,-0.560
732641,0.116,0.597,0.838,1.120,-2.660,-0.840
732661,0.114,0.599,0.843,0.840,-2.590,-0.560
732681,0.116,0.599,0.843,1.260,-2.590,-0.630
732701,0.116,0.594,0.842,1.050,-2.450,-0.700
732772,0.116,0.599,0.843,1.050,-2.590,-0.630
732790,0.119,0.598,0.841,0.840,-2.520,-0.630
732811,0.116,0.600,0.839,0.770,-2.450,-0.770
732831,0.116,0.601,0.841,0.840,-2.450,-0.770
732849,0.117,0.597,0.843,0.910,-2.520,-0.840
732868,0.116,0.601,0.843,0.910,-2.590,-0.700
732914,0.118,0.598,0.839,1.260,-2.590,-0.630
732938,0.117,0.599,0.839,1.050,-2.450,-0.700
732957,0.118,0.599,0.842,0.840,-2.520,-0.490
732982,0.117,0.599,0.842,1.190,-2.590,-0.560
733002,0.117,0.597,0.841,1.260,-2.730,-0.560
733022,0.117,0.598,0.841,0.910,-2.660,-0.700
733079,0.117,0.598,0.838,1.050,-2.450,-0.630
733098,0.115,0.601,0.842,0.700,-2.380,-0.630
733118,0.119,0.597,0.840,1.260,-2.520,-0.630
733143,0.118,0.597,0.841,0.980,-2.590,-0.840
733164,0.120,0.602,0.839,0.700,-2.450,-0.700
733178,0.120,0.602,0.841,1.190,-2.520,-0.700
733250,0.120,0.600,0.840,0.980,-2.380,-0.560
733268,0.117,0.600,0.840,1.050,-2.450,-0.700
733292,0.118,0.599,0.841,1.330,-2.660,-0.630
733312,0.118,0.599,0.842,0.770,-2.380,-0.630
733332,0.118,0.601,0.841,1.120,-2.590,-0.630
733352,0.120,0.596,0.840,1.190,-2.520,-0.840
733417,0.118,0.602,0.839,0.980,-2.520,-0.700
733441,0.120,0.597,0.842,1.120,-2.450,-0.770
733461,0.117,0.599,0.840,0.910,-2.520,-0.770
733481,0.116,0.599,0.838,0.840,-2.520,-0.700
733500,0.118,0.599,0.841,1.260,-2.660,-0.840
733520,0.120,0.600,0.836,1.120,-2.590,-0.560
733578,0.116,0.598,0.841,0.700,-2.310,-0.840
733602,0.119,0.601,0.840,0.770,-2.380,-0.630
733622,0.118,0.602,0.838,0.910,-2.380,-0.910
733640,0.118,0.598,0.839,1.120,-2.450,-0.840
733661,0.116,0.600,0.839,0.910,-2.590,-0.490
733682,0.121,0.600,0.839,1.120,-2.660,-0.630
733750,0.117,0.598,0.838,0.700,-2.380,-0.630
733774,0.119,0.602,0.841,0.840,-2.310,-0.700
733794,0.117,0.597,0.839,1.190,-2.450,-0.840
733814,0.117,0.594,0.839,0.910,-2.590,-0.770
733834,0.119,0.599,0.843,0.770,-2.590,-0.560
733854,0.118,0.599,0.838,1.190,-2.590,-0.560
733921,0.117,0.602,0.842,0.910,-2.380,-0.630
733940,0.119,0.600,0.839,1.050,-2.520,-0.630
733960,0.118,0.597,0.839,1.050,-2.450,-0.630
733979,0.122,0.600,0.838,0.700,-2.380,-0.560
734003,0.117,0.600,0.841,0.770,-2.310,-0.700
734023,0.118,0.597,0.838,1.260,-2.520,-0.910
734083,0.120,0.600,0.839,0.910,-2.310,-0.770
734103,0.117,0.597,0.837,0.980,-2.520,-0.700
734127,0.118,0.600,0.839,0.840,-2.380,-0.700
734148,0.119,0.600,0.839,0.840,-2.450,-0.770
734168,0.118,0.601,0.841,1.260,-2.450,-0.840
734188,0.119,0.600,0.839,0.840,-2.520,-0.700
734252,0.119,0.597,0.839,1.190,-2.660,-0.700
734271,0.119,0.600,0.841,0.700,-2.380,-0.700
734294,0.119,0.598,0.840,1.050,-2.590,-0.630
734313,0.118,0.598,0.839,1.120,-2.590,-0.700
734333,0.118,0.596,0.840,0.910,-2.590,-0.630
734353,0.118,0.600,0.839,0.770,-2.450,-0.490
734411,0.119,0.600,0.840,0.630,-2.310,-0.770
734435,0.120,0.598,0.839,1.120,-2.520,-0.840
734455,0.118,0.596,0.841,0.980,-2.590,-0.840
734475,0.118,0.601,0.841,0.700,-2.450,-0.700
734495,0.117,0.601,0.838,0.980,-2.380,-0.560
734513,0.118,0.596,0.839,1.120,-2.660,-0.700
734566,0.117,0.599,0.838,0.770,-2.520,-0.700
734584,0.119,0.602,0.841,0.770,-2.380,-0.560
734603,0.118,0.603,0.837,1.260,-2.520,-0.770
734628,0.118,0.597,0.839,1.190,-2.590,-0.840
734648,0.118,0.601,0.839,0.770,-2.450,-0.700
734667,0.120,0.601,0.840,0.840,-2.380,-0.700
734730,0.121,0.601,0.838,0.630,-2.380,-0.840
734749,0.117,0.601,0.840,1.050,-2.520,-0.770
734773,0.119,0.598,0.840,0.980,-2.590,-0.840
734792,0.117,0.600,0.835,0.560,-2.450,-0.700
734814,0.118,0.599,0.839,0.560,-2.310,-0.700
734834,0.119,0.597,0.839,1.050,-2.450,-0.910
734896,0.118,0.600,0.837,1.050,-2.520,-0.840
734915,0.117,0.596,0.838,1.050,-2.520,-0.840
734935,0.118,0.597,0.839,0.490,-2.170,-0.700
734957,0.118,0.604,0.841,0.840,-2.310,-0.700
734981,0.118,0.599,0.840,1.190,-2.590,-0.770
735000,0.119,0.597,0.839,0.770,-2.450,-0.770
735058,0.117,0.595,0.840,1.120,-2.590,-0.700
735075,0.118,0.601,0.842,0.700,-2.450,-0.560
735099,0.118,0.600,0.836,0.910,-2.380,-0.770
735119,0.120,0.595,0.838,0.910,-2.520,-0.980
735139,0.118,0.601,0.840,0.630,-2.380,-0.910
735159,0.120,0.601,0.843,0.630,-2.310,-0.910
735209,0.119,0.598,0.842,1.120,-2.450,-0.910
735228,0.118,0.600,0.838,0.980,-2.380,-0.770
735246,0.119,0.601,0.842,0.700,-2.310,-0.840
735268,0.118,0.599,0.839,1.050,-2.590,-0.840
735288,0.118,0.597,0.838,0.770,-2.590,-0.840
735308,0.121,0.600,0.840,0.560,-2.380,-0.770
735366,0.121,0.599,0.840,0.700,-2.170,-0.770
735385,0.116,0.601,0.840,0.840,-2.240,-0.840
735402,0.116,0.595,0.841,1.190,-2.590,-0.630
735423,0.120,0.602,0.840,0.770,-2.380,-0.630
735441,0.118,0.600,0.840,1.400,-2.520,-0.840
735460,0.117,0.597,0.838,1.050,-2.450,-0.700
735515,0.118,0.597,0.839,0.490,-2.310,-0.630
735538,0.117,0.599,0.842,0.490,-2.380,-0.700
735562,0.117,0.601,0.840,0.840,-2.380,-0.980
735582,0.120,0.595,0.840,0.910,-2.450,-0.910
735602,0.117,0.597,0.839,1.190,-2.380,-0.770
735620,0.120,0.601,0.841,0.910,-2.520,-0.630
735677,0.119,0.600,0.841,0.840,-2.310,-0.770
735693,0.119,0.599,0.839,1.050,-2.450,-0.840
735713,0.118,0.599,0.839,0.420,-2.240,-0.910
735733,0.117,0.601,0.839,0.700,-2.240,-0.980
735752,0.117,0.597,0.839,0.980,-2.380,-1.050
735775,0.117,0.596,0.840,0.910,-2.240,-0.840
735817,0.117,0.602,0.839,0.910,-2.310,-0.840
735841,0.117,0.597,0.841,1.050,-2.520,-0.770
735861,0.119,0.599,0.840,0.560,-2.310,-0.770
735881,0.120,0.600,0.843,0.700,-2.520,-0.700
735896,0.118,0.597,0.839,1.050,-2.520,-0.840
735916,0.119,0.599,0.840,0.700,-2.310,-0.770
735964,0.116,0.602,0.841,0.910,-2.310,-0.770
735988,0.117,0.602,0.841,0.980,-2.380,-0.910
736012,0.117,0.600,0.840,0.840,-2.450,-0.910
736032,0.117,0.602,0.842,0.700,-2.380,-0.840
736052,0.118,0.599,0.844,0.910,-2.310,-0.700
736072,0.118,0.599,0.839,1.190,-2.450,-0.840
736124,0.116,0.595,0.838,1.120,-2.450,-0.630
736144,0.116,0.598,0.842,0.770,-2.380,-0.630
736168,0.117,0.601,0.839,1.050,-2.520,-0.630
736188,0.115,0.594,0.840,0.840,-2.590,-0.700
736208,0.117,0.597,0.840,0.910,-2.520,-0.630
736232,0.118,0.602,0.840,0.700,-2.450,-0.630
736303,0.116,0.598,0.839,1.540,-2.590,-0.910
736325,0.117,0.597,0.841,0.980,-2.590,-0.560
736347,0.118,0.598,0.841,0.840,-2.520,-0.490
736367,0.117,0.602,0.841,0.630,-2.380,-0.770
736386,0.118,0.597,0.838,1.260,-2.520,-0.630
736407,0.119,0.600,0.842,0.700,-2.450,-0.630
736471,0.116,0.596,0.839,0.980,-2.590,-0.840
736491,0.117,0.598,0.841,0.840,-2.590,-0.560
736511,0.118,0.601,0.840,1.330,-2.660,-0.420
736530,0.115,0.597,0.838,1.050,-2.590,-0.700
736551,0.116,0.598,0.840,0.840,-2.590,-0.700
736566,0.118,0.601,0.841,0.980,-2.590,-0.910
736635,0.118,0.602,0.840,0.700,-2.520,-0.560
736650,0.118,0.602,0.841,1.190,-2.590,-0.700
736674,0.117,0.597,0.838,0.910,-2.380,-0.910
736693,0.117,0.597,0.838,0.770,-2.380,-0.700
736714,0.118,0.600,0.838,0.700,-2.310,-0.700
736733,0.116,0.598,0.844,1.120,-2.520,-0.700
736807,0.116,0.603,0.842,0.910,-2.450,-0.490
736826,0.120,0.600,0.842,1.120,-2.590,-0.630
736844,0.117,0.597,0.838,1.120,-2.590,-0.770
736866,0.119,0.597,0.842,0.700,-2.380,-0.700
736886,0.118,0.599,0.841,1.260,-2.590,-0.630
736906,0.119,0.598,0.840,0.910,-2.520,-0.840
736968,0.116,0.599,0.838,1.120,-2.590,-0.700
736992,0.117,0.597,0.837,0.980,-2.660,-0.560
737012,0.117,0.601,0.840,0.910,-2.590,-0.630
737032,0.120,0.600,0.840,1.330,-2.660,-0.490
737051,0.118,0.599,0.840,1.120,-2.590,-0.560
737071,0.117,0.597,0.840,0.770,-2.450,-0.630
737132,0.117,0.595,0.841,0.770,-2.450,-0.770
737146,0.118,0.600,0.839,0.630,-2.380,-0.840
737169,0.116,0.598,0.839,1.260,-2.450,-0.770
737188,0.119,0.598,0.839,1.050,-2.520,-0.700
737207,0.118,0.602,0.837,0.840,-2.520,-0.560
737232,0.118,0.602,0.838,0.980,-2.520,-0.560
737295,0.119,0.601,0.841,0.700,-2.450,-0.770
737316,0.118,0.599,0.840,0.980,-2.450,-0.840
737338,0.118,0.597,0.840,1.190,-2.450,-0.770
737358,0.119,0.599,0.838,0.770,-2.450,-0.700
737382,0.117,0.602,0.839,0.910,-2.450,-0.560
737402,0.117,0.598,0.841,1.400,-2.660,-0.630
737468,0.118,0.603,0.838,0.840,-2.310,-0.770
737487,0.118,0.599,0.842,0.840,-2.380,-1.050
737507,0.119,0.596,0.838,0.980,-2.310,-1.050
737527,0.120,0.597,0.839,0.700,-2.310,-0.840
737546,0.117,0.601,0.842,0.980,-2.380,-0.770
737566,0.116,0.597,0.838,1.120,-2.520,-0.700
737632,0.119,0.603,0.840,1.120,-2.380,-0.700
737656,0.118,0.597,0.839,1.120,-2.520,-0.840
737674,0.117,0.598,0.840,0.560,-2.310,-0.700
737696,0.119,0.602,0.840,0.420,-2.380,-0.560
737716,0.118,0.597,0.840,0.910,-2.450,-0.770
737736,0.116,0.595,0.838,0.980,-2.520,-0.910
737799,0.118,0.597,0.839,1.470,-2.520,-0.770
737818,0.117,0.599,0.839,0.840,-2.520,-0.630
737838,0.119,0.603,0.842,0.700,-2.520,-0.630
737858,0.117,0.600,0.840,1.190,-2.450,-0.700
737878,0.121,0.599,0.839,0.840,-2.590,-0.840
737903,0.119,0.602,0.838,0.770,-2.450,-0.700
737962,0.118,0.599,0.839,0.770,-2.380,-0.840
737980,0.119,0.602,0.841,0.770,-2.310,-0.770
738000,0.118,0.603,0.839,1.050,-2.590,-0.840
738020,0.117,0.599,0.837,0.770,-2.520,-0.700
738040,0.118,0.600,0.840,0.700,-2.450,-0.630
738064,0.119,0.600,0.838,1.260,-2.590,-0.560
738120,0.119,0.598,0.840,1.190,-2.450,-0.700
738139,0.118,0.596,0.839,1.190,-2.660,-0.630
738159,0.117,0.598,0.839,0.630,-2.450,-0.840
738183,0.119,0.603,0.840,0.770,-2.240,-0.700
738202,0.118,0.599,0.839,1.050,-2.380,-1.120
738226,0.118,0.597,0.838,0.980,-2.380,-0.910
738276,0.117,0.599,0.840,0.700,-2.520,-0.700
738298,0.120,0.603,0.841,0.490,-2.310,-0.700
738318,0.118,0.600,0.839,1.190,-2.520,-0.770
738340,0.119,0.594,0.836,1.260,-2.660,-0.840
738355,0.122,0.599,0.840,0.560,-2.380,-0.490
738379,0.118,0.602,0.840,0.980,-2.380,-0.770
738436,0.119,0.600,0.841,0.840,-2.380,-0.770
738455,0.116,0.596,0.838,1.050,-2.450,-0.980
738475,0.118,0.599,0.837,0.700,-2.590,-0.700
738494,0.118,0.602,0.841,0.560,-2.450,-0.700
738515,0.118,0.600,0.841,1.050,-2.310,-0.910
738539,0.117,0.596,0.838,1.050,-2.450,-0.910
738595,0.117,0.599,0.836,1.400,-2.590,-0.910
738619,0.116,0.599,0.837,0.840,-2.450,-0.840
738638,0.120,0.602,0.839,0.700,-2.380,-0.630
738659,0.120,0.598,0.840,0.840,-2.240,-0.840
738679,0.114,0.598,0.837,1.050,-2.380,-0.980
738697,0.116,0.599,0.839,0.630,-2.310,-0.910
738760,0.118,0.598,0.838,0.840,-2.450,-0.840
738779,0.120,0.600,0.841,0.630,-2.310,-0.770
738798,0.118,0.599,0.841,0.980,-2.450,-0.840
738815,0.116,0.598,0.841,0.910,-2.450,-0.770
738839,0.117,0.598,0.841,0.560,-2.450,-0.770
738859,0.119,0.602,0.841,0.840,-2.380,-0.910
738935,0.117,0.597,0.839,0.840,-2.380,-0.910
738952,0.117,0.598,0.841,0.840,-2.380,-0.770
738973,0.115,0.602,0.842,0.770,-2.310,-0.770
738995,0.118,0.600,0.841,1.050,-2.380,-0.840
739017,0.117,0.596,0.840,0.980,-2.450,-0.980
739037,0.117,0.598,0.839,0.700,-2.380,-0.770
739106,0.118,0.597,0.841,0.840,-2.310,-0.840
739127,0.117,0.597,0.840,0.840,-2.240,-0.980
739151,0.116,0.599,0.840,0.770,-2.240,-0.840
739170,0.115,0.600,0.841,0.700,-2.380,-0.840
739194,0.118,0.600,0.841,1.050,-2.450,-0.840
739215,0.116,0.597,0.840,0.980,-2.380,-0.840
739286,0.115,0.598,0.840,0.560,-2.380,-0.770
739310,0.116,0.598,0.841,1.050,-2.380,-0.700
739330,0.117,0.598,0.841,0.910,-2.310,-0.770
739350,0.116,0.597,0.840,0.910,-2.450,-0.840
739370,0.116,0.601,0.840,0.980,-2.450,-0.840
739390,0.118,0.600,0.841,0.980,-2.450,-0.560
739466,0.117,0.595,0.839,1.050,-2.520,-0.770
739485,0.114,0.599,0.840,0.770,-2.450,-0.770
739505,0.120,0.601,0.840,0.770,-2.450,-0.630
739524,0.118,0.600,0.838,1.190,-2.520,-0.700
739544,0.116,0.599,0.841,1.050,-2.450,-0.560
739563,0.115,0.599,0.841,0.910,-2.450,-0.630
739622,0.115,0.600,0.840,0.980,-2.590,-0.700
739642,0.118,0.599,0.841,0.840,-2.520,-0.700
739662,0.114,0.597,0.840,1.050,-2.520,-0.630
739681,0.116,0.598,0.839,0.980,-2.590,-0.770
739700,0.117,0.598,0.839,0.700,-2.450,-0.560
739725,0.116,0.600,0.840,1.190,-2.450,-0.700
739784,0.115,0.601,0.840,0.840,-2.380,-0.770
739808,0.116,0.599,0.842,1.050,-2.520,-0.700
739828,0.118,0.598,0.840,1.050,-2.590,-0.700
739846,0.118,0.599,0.844,1.050,-2.590,-0.490
739865,0.116,0.599,0.840,0.980,-2.520,-0.560
739884,0.117,0.597,0.840,1.260,-2.520,-0.630
739931,0.117,0.597,0.838,1.050,-2.520,-0.700
739956,0.119,0.599,0.839,0.840,-2.590,-0.770
739976,0.115,0.599,0.840,0.770,-2.380,-0.630
739995,0.116,0.596,0.842,0.840,-2.380,-0.840
740016,0.116,0.599,0.839,0.700,-2.380,-0.910
740036,0.119,0.599,0.841,0.770,-2.240,-0.770
740096,0.117,0.597,0.842,1.120,-2.590,-0.700
740116,0.117,0.601,0.839,1.330,-2.730,-0.420
740136,0.116,0.597,0.838,1.120,-2.660,-0.490
740156,0.117,0.600,0.840,0.980,-2.660,-0.560
740175,0.117,0.600,0.839,0.630,-2.380,-0.700
740193,0.117,0.599,0.837,0.910,-2.450,-0.840
740249,0.119,0.598,0.839,0.840,-2.380,-0.840
740268,0.118,0.597,0.840,1.050,-2.380,-0.910
740288,0.118,0.597,0.841,1.050,-2.660,-0.700
740308,0.117,0.600,0.840,0.840,-2.590,-0.560
740323,0.119,0.597,0.841,1.050,-2.590,-0.700
740343,0.117,0.598,0.840,0.770,-2.520,-0.630
740401,0.117,0.598,0.838,0.840,-2.450,-0.700
740423,0.118,0.601,0.839,0.980,-2.590,-0.700
740442,0.118,0.600,0.840,0.840,-2.310,-0.700
740464,0.118,0.601,0.841,1.050,-2.450,-0.700
740483,0.117,0.598,0.839,1.050,-2.520,-0.770
740508,0.120,0.600,0.842,1.050,-2.660,-0.700
740568,0.119,0.596,0.840,0.910,-2.590,-0.840
740588,0.118,0.598,0.842,0.770,-2.380,-0.840
740607,0.118,0.599,0.839,0.980,-2.310,-0.840
740628,0.117,0.596,0.839,1.120,-2.520,-0.840
740643,0.118,0.598,0.840,0.980,-2.520,-0.770
740668,0.120,0.598,0.837,0.980,-2.450,-0.700
740739,0.116,0.600,0.839,0.840,-2.450,-0.630
740758,0.118,0.599,0.841,0.700,-2.450,-0.700
740774,0.118,0.600,0.839,0.700,-2.450,-0.630
740797,0.118,0.600,0.842,1.120,-2.520,-0.630
740817,0.117,0.600,0.838,1.120,-2.520,-0.840
740835,0.120,0.598,0.841,1.050,-2.590,-0.560
740891,0.119,0.599,0.841,0.770,-2.450,-0.770
740905,0.119,0.599,0.842,0.770,-2.240,-0.700
740930,0.119,0.598,0.843,1.050,-2.380,-0.840
740949,0.119,0.598,0.841,1.050,-2.590,-0.700
740968,0.119,0.599,0.840,0.980,-2.590,-0.630
740988,0.120,0.600,0.839,1.050,-2.660,-0.700
741038,0.117,0.598,0.838,0.910,-2.520,-0.630
741061,0.120,0.599,0.837,0.910,-2.590,-0.560
741085,0.120,0.598,0.839,0.980,-2.520,-0.700
741105,0.119,0.601,0.839,0.840,-2.380,-0.700
741124,0.118,0.600,0.839,0.980,-2.520,-0.910
741145,0.118,0.600,0.841,0.980,-2.450,-0.770
741212,0.117,0.600,0.839,0.980,-2.520,-0.560
741236,0.119,0.601,0.839,1.050,-2.450,-0.560
741256,0.119,0.597,0.839,1.050,-2.520,-0.700
741276,0.118,0.598,0.839,0.840,-2.520,-0.700
741296,0.117,0.599,0.840,0.770,-2.380,-0.630
741315,0.119,0.599,0.838,0.840,-2.380,-0.770
741383,0.117,0.598,0.839,0.910,-2.380,-0.630
741403,0.117,0.603,0.840,0.770,-2.450,-0.770
741421,0.118,0.599,0.837,1.120,-2.450,-0.840
741443,0.118,0.599,0.838,0.910,-2.380,-0.840
741463,0.116,0.597,0.840,0.910,-2.450,-0.630
741487,0.116,0.602,0.840,0.700,-2.450,-0.770
741544,0.118,0.600,0.840,0.840,-2.450,-0.910
741564,0.116,0.600,0.841,1.050,-2.450,-0.770
741584,0.116,0.601,0.840,0.980,-2.520,-0.630
741604,0.118,0.600,0.839,0.910,-2.520,-0.630
741623,0.119,0.601,0.840,0.700,-2.310,-0.630
741646,0.118,0.601,0.841,0.910,-2.520,-0.770
741710,0.120,0.599,0.837,0.910,-2.450,-0.770
741729,0.117,0.600,0.840,0.840,-2.310,-0.980
741747,0.120,0.600,0.840,0.980,-2.380,-0.910
741769,0.117,0.600,0.840,0.840,-2.380,-0.770
741789,0.118,0.599,0.838,0.770,-2.310,-0.700
741809,0.119,0.602,0.842,0.840,-2.450,-0.700
741875,0.119,0.598,0.838,0.980,-2.590,-0.700
741897,0.121,0.599,0.838,0.980,-2.450,-0.560
741916,0.120,0.601,0.839,0.840,-2.450,-0.700
741939,0.119,0.599,0.843,0.980,-2.380,-0.910
741960,0.117,0.596,0.839,0.910,-2.450,-0.980
741980,0.118,0.598,0.842,0.770,-2.310,-0.910
742030,0.120,0.600,0.841,0.910,-2.450,-0.630
742048,0.118,0.600,0.840,1.120,-2.380,-0.840
742067,0.119,0.599,0.839,1.050,-2.450,-0.560
742091,0.118,0.598,0.837,0.980,-2.450,-0.700
742111,0.117,0.600,0.837,0.910,-2.450,-0.770
742127,0.119,0.602,0.839,1.190,-2.380,-0.980
742188,0.119,0.600,0.841,0.630,-2.380,-0.980
742207,0.122,0.601,0.839,0.840,-2.310,-0.840
742227,0.119,0.599,0.839,0.910,-2.380,-0.770
742246,0.118,0.600,0.841,0.910,-2.380,-0.700
742266,0.118,0.599,0.839,1.260,-2.520,-0.840
742285,0.118,0.597,0.839,1.190,-2.520,-0.630
742341,0.118,0.598,0.839,0.630,-2.380,-0.910
742360,0.117,0.601,0.839,0.770,-2.380,-0.910
742378,0.118,0.601,0.839,0.840,-2.240,-0.840
742396,0.120,0.597,0.841,0.910,-2.380,-0.840
742420,0.120,0.599,0.839,0.700,-2.380,-0.910
742440,0.117,0.599,0.839,0.700,-2.450,-0.840
742503,0.117,0.599,0.840,0.910,-2.450,-0.770
742520,0.117,0.599,0.839,0.700,-2.450,-0.770
742540,0.118,0.600,0.840,0.840,-2.310,-0.770
742563,0.120,0.599,0.840,0.910,-2.450,-0.770
742583,0.116,0.598,0.840,0.840,-2.380,-0.700
742603,0.118,0.599,0.841,0.630,-2.380,-0.980
742665,0.116,0.598,0.839,0.840,-2.380,-0.840
742682,0.118,0.597,0.839,0.770,-2.310,-0.770
742702,0.116,0.599,0.840,0.630,-2.310,-0.840
742721,0.119,0.599,0.841,0.910,-2.520,-0.770
742745,0.120,0.598,0.839,0.840,-2.240,-0.770
742764,0.117,0.598,0.840,0.700,-2.240,-0.910
742822,0.118,0.598,0.839,0.910,-2.450,-0.910
742841,0.115,0.600,0.840,0.700,-2.450,-0.770
742861,0.117,0.597,0.838,0.910,-2.240,-0.840
742881,0.117,0.598,0.840,0.770,-2.380,-0.980
742905,0.117,0.596,0.840,0.700,-2.380,-0.980
742925,0.116,0.599,0.841,0.700,-2.170,-0.980
742981,0.114,0.597,0.842,0.840,-2.310,-0.840
743000,0.117,0.600,0.839,0.840,-2.380,-0.700
743020,0.117,0.598,0.841,0.770,-2.240,-0.840
743040,0.117,0.598,0.841,1.050,-2.520,-0.770
743065,0.118,0.599,0.840,0.630,-2.380,-0.770
743085,0.117,0.600,0.841,0.910,-2.380,-0.770
743138,0.118,0.600,0.841,0.840,-2.450,-0.770
743157,0.118,0.598,0.840,0.980,-2.450,-0.630
743175,0.113,0.599,0.839,0.700,-2.520,-0.770
743195,0.117,0.601,0.840,0.840,-2.450,-0.770
743217,0.114,0.598,0.839,0.980,-2.310,-0.770
743237,0.115,0.597,0.843,0.980,-2.450,-0.840
743291,0.117,0.598,0.840,1.190,-2.660,-0.630
743310,0.116,0.598,0.839,1.120,-2.660,-0.490
743329,0.118,0.599,0.840,1.120,-2.730,-0.490
743354,0.118,0.598,0.839,0.910,-2.520,-0.490
743373,0.115,0.599,0.841,0.700,-2.380,-0.700
743396,0.117,0.597,0.840,0.770,-2.450,-0.840
743456,0.117,0.597,0.841,1.120,-2.520,-0.770
743473,0.117,0.599,0.839,1.190,-2.520,-0.700
743490,0.119,0.599,0.839,0.910,-2.590,-0.560
743514,0.116,0.598,0.840,1.050,-2.730,-0.490
743533,0.120,0.599,0.839,1.260,-2.660,-0.420
743556,0.117,0.596,0.840,0.910,-2.590,-0.560
743614,0.118,0.598,0.841,1.260,-2.520,-0.770
743634,0.118,0.598,0.839,1.050,-2.520,-0.700
743653,0.116,0.601,0.842,1.190,-2.590,-0.630
743672,0.118,0.600,0.840,1.050,-2.450,-0.700
743692,0.117,0.598,0.839,1.050,-2.520,-0.560
743713,0.116,0.600,0.841,0.910,-2.660,-0.560
743773,0.116,0.599,0.837,1.120,-2.660,-0.700
743792,0.118,0.599,0.839,0.910,-2.450,-0.700
743811,0.117,0.599,0.839,0.910,-2.310,-0.700
743836,0.119,0.600,0.840,0.770,-2.380,-0.770
743856,0.115,0.601,0.840,0.910,-2.450,-0.840
743876,0.120,0.600,0.839,0.910,-2.520,-0.770
743929,0.118,0.599,0.839,0.840,-2.520,-0.560
743946,0.117,0.600,0.840,1.190,-2.590,-0.630
743967,0.119,0.600,0.838,1.260,-2.520,-0.560
743988,0.116,0.600,0.839,1.050,-2.450,-0.630
744003,0.116,0.599,0.840,0.910,-2.450,-0.560
744028,0.118,0.599,0.840,0.910,-2.520,-0.770
744083,0.119,0.600,0.840,0.840,-2.520,-0.770
744102,0.120,0.598,0.841,1.050,-2.520,-0.700
744127,0.120,0.598,0.840,1.050,-2.450,-0.700
744145,0.119,0.599,0.839,0.910,-2.450,-0.700
744165,0.116,0.601,0.839,0.770,-2.450,-0.630
744186,0.120,0.599,0.839,0.980,-2.520,-0.700
744242,0.119,0.600,0.840,1.120,-2.450,-0.840
744261,0.117,0.599,0.839,0.770,-2.450,-0.770
744280,0.119,0.601,0.839,0.980,-2.590,-0.560
744298,0.115,0.601,0.839,1.260,-2.520,-0.700
744318,0.118,0.598,0.839,0.910,-2.660,-0.630
744338,0.117,0.601,0.839,0.910,-2.660,-0.630
744398,0.118,0.599,0.837,0.770,-2.380,-0.840
744416,0.119,0.601,0.840,0.770,-2.310,-0.700
744438,0.118,0.599,0.839,1.050,-2.450,-0.560
744458,0.118,0.599,0.841,1.120,-2.450,-0.770
744478,0.121,0.596,0.839,1.190,-2.590,-0.560
744498,0.118,0.600,0.836,0.840,-2.590,-0.560
744561,0.117,0.599,0.836,0.910,-2.520,-0.910
744578,0.121,0.601,0.841,0.630,-2.380,-0.840
744598,0.120,0.600,0.839,0.840,-2.380,-0.840
744618,0.121,0.599,0.839,1.120,-2.450,-0.770
744642,0.117,0.599,0.839,0.910,-2.450,-0.560
744662,0.117,0.599,0.840,0.910,-2.520,-0.630
744717,0.120,0.599,0.837,0.980,-2.520,-0.490
744741,0.119,0.602,0.840,0.910,-2.590,-0.700
744761,0.121,0.597,0.838,0.910,-2.450,-0.840
744779,0.117,0.599,0.838,0.910,-2.450,-0.770
744800,0.119,0.599,0.840,0.840,-2.450,-0.700
744824,0.121,0.601,0.838,0.910,-2.450,-0.700
744881,0.117,0.599,0.840,0.980,-2.450,-0.630
744900,0.120,0.599,0.837,0.840,-2.380,-0.630
744920,0.119,0.598,0.839,0.980,-2.520,-0.700
744943,0.119,0.601,0.842,0.910,-2.520,-0.490
744963,0.118,0.600,0.841,0.910,-2.590,-0.560
744983,0.120,0.601,0.840,0.910,-2.520,-0.630
745039,0.119,0.601,0.839,1.120,-2.380,-0.840
745059,0.119,0.600,0.841,0.910,-2.520,-0.840
745078,0.119,0.596,0.837,0.910,-2.450,-0.770
745098,0.118,0.600,0.839,0.700,-2.310,-0.700
745117,0.118,0.598,0.839,1.120,-2.520,-0.770
745138,0.119,0.598,0.837,1.260,-2.520,-0.770
745194,0.120,0.598,0.839,1.120,-2.660,-0.770
745209,0.118,0.599,0.837,0.980,-2.590,-0.490
745233,0.118,0.600,0.839,0.840,-2.520,-0.560
745252,0.118,0.599,0.840,1.050,-2.520,-0.630
745273,0.119,0.598,0.837,0.770,-2.310,-0.980
745297,0.119,0.599,0.840,0.840,-2.450,-0.910
745345,0.118,0.601,0.839,0.770,-2.450,-0.700
745363,0.119,0.601,0.839,0.980,-2.380,-0.770
745388,0.121,0.601,0.839,1.050,-2.520,-0.700
745408,0.120,0.597,0.837,0.980,-2.380,-0.770
745432,0.119,0.599,0.840,0.770,-2.380,-0.770
745451,0.119,0.600,0.843,0.770,-2.450,-0.490
745517,0.122,0.596,0.838,0.910,-2.380,-0.840
745536,0.118,0.600,0.839,0.770,-2.380,-0.700
745561,0.121,0.602,0.837,0.910,-2.450,-0.700
745581,0.116,0.598,0.839,1.050,-2.380,-0.840
745601,0.118,0.598,0.840,1.050,-2.450,-0.700
745620,0.120,0.598,0.837,0.840,-2.520,-0.770
745683,0.118,0.598,0.839,0.840,-2.380,-0.910
745698,0.120,0.600,0.839,0.630,-2.240,-0.840
745718,0.119,0.599,0.842,0.910,-2.450,-0.840
745738,0.119,0.599,0.839,0.910,-2.380,-0.980
745763,0.118,0.600,0.841,0.770,-2.380,-0.840
745783,0.119,0.599,0.839,0.840,-2.450,-0.910
745837,0.120,0.600,0.837,0.910,-2.450,-0.700
745856,0.120,0.599,0.839,0.980,-2.450,-0.840
745874,0.119,0.599,0.839,0.840,-2.450,-0.840
745896,0.119,0.597,0.839,0.630,-2.310,-0.840
745918,0.119,0.600,0.837,0.910,-2.310,-0.840
745940,0.118,0.601,0.840,0.910,-2.520,-0.840
745995,0.120,0.599,0.839,1.120,-2.450,-0.840
746014,0.117,0.597,0.838,0.980,-2.450,-0.700
746033,0.119,0.598,0.841,0.700,-2.450,-0.630
746053,0.120,0.599,0.839,0.840,-2.450,-0.770
746073,0.119,0.601,0.839,0.980,-2.450,-0.840
746093,0.116,0.598,0.842,0.840,-2.380,-0.840
746152,0.119,0.598,0.840,0.910,-2.380,-0.840
746171,0.117,0.601,0.839,0.840,-2.450,-0.840
746195,0.120,0.600,0.841,0.910,-2.310,-0.700
746215,0.120,0.598,0.841,1.050,-2.310,-0.910
746235,0.119,0.598,0.839,0.910,-2.380,-0.910
746255,0.117,0.600,0.839,0.630,-2.240,-0.770
746313,0.117,0.600,0.838,0.770,-2.310,-0.770
746332,0.119,0.600,0.841,0.700,-2.240,-0.980
746352,0.118,0.600,0.841,0.910,-2.240,-0.840
746372,0.115,0.598,0.837,0.910,-2.380,-0.840
746392,0.117,0.599,0.842,0.910,-2.520,-0.700
746411,0.118,0.599,0.839,0.840,-2.450,-0.700
746462,0.118,0.597,0.837,0.840,-2.240,-0.980
746478,0.119,0.603,0.837,0.630,-2.310,-1.050
746499,0.116,0.597,0.840,0.560,-2.170,-0.770
746521,0.120,0.601,0.839,0.700,-2.310,-0.840
746541,0.117,0.598,0.838,0.980,-2.380,-0.980
746563,0.116,0.598,0.839,0.770,-2.380,-0.770
746613,0.114,0.601,0.838,0.840,-2.590,-0.560
746630,0.117,0.600,0.840,0.980,-2.380,-0.700
746650,0.117,0.598,0.837,1.050,-2.520,-0.700
746669,0.115,0.599,0.840,0.490,-2.240,-0.770
746694,0.118,0.600,0.843,0.840,-2.310,-0.840
746714,0.116,0.599,0.839,1.050,-2.310,-0.910
746780,0.119,0.600,0.842,0.980,-2.380,-0.560
746797,0.117,0.598,0.839,1.120,-2.520,-0.560
746816,0.117,0.595,0.840,0.980,-2.450,-0.700
746838,0.117,0.596,0.841,0.700,-2.380,-0.700
746858,0.117,0.602,0.838,0.840,-2.380,-0.770
746878,0.116,0.600,0.841,1.050,-2.520,-0.630
746940,0.119,0.597,0.843,0.980,-2.520,-0.560
746960,0.116,0.597,0.840,0.980,-2.450,-0.840
746980,0.117,0.598,0.840,0.700,-2.450,-0.840
746997,0.116,0.600,0.840,0.840,-2.310,-0.630
747017,0.116,0.598,0.839,1.190,-2.590,-0.840
747036,0.119,0.597,0.842,1.190,-2.660,-0.490
747101,0.115,0.598,0.841,1.260,-2.590,-0.630
747120,0.117,0.598,0.840,1.190,-2.730,-0.630
747141,0.118,0.600,0.840,1.120,-2.730,-0.560
747161,0.117,0.602,0.840,0.980,-2.660,-0.490
747180,0.117,0.597,0.838,0.840,-2.450,-0.840
747200,0.119,0.599,0.838,0.840,-2.450,-0.840
747262,0.118,0.596,0.838,0.910,-2.520,-0.700
747281,0.117,0.600,0.842,0.770,-2.520,-0.630
747300,0.116,0.601,0.841,1.260,-2.590,-0.630
747321,0.117,0.598,0.841,1.260,-2.800,-0.700
747336,0.116,0.600,0.839,1.260,-2.660,-0.560
747361,0.119,0.599,0.840,1.120,-2.660,-0.490
747413,0.118,0.599,0.839,0.630,-2.450,-0.700
747431,0.120,0.600,0.838,0.840,-2.380,-0.980
747455,0.118,0.598,0.840,0.980,-2.520,-0.840
747475,0.118,0.600,0.837,0.840,-2.450,-0.630
747494,0.118,0.600,0.841,1.050,-2.520,-0.700
747515,0.117,0.599,0.840,1.400,-2.590,-0.770
747574,0.119,0.603,0.837,0.910,-2.450,-0.490
747596,0.117,0.602,0.838,1.190,-2.590,-0.770
747620,0.119,0.600,0.840,0.840,-2.520,-0.770
747640,0.118,0.599,0.841,0.840,-2.520,-0.700
747659,0.119,0.601,0.841,0.910,-2.450,-0.700
747683,0.117,0.599,0.839,0.910,-2.450,-0.630
747742,0.117,0.602,0.839,1.050,-2.450,-0.560
747762,0.119,0.598,0.839,1.190,-2.520,-0.770
747785,0.116,0.596,0.839,1.050,-2.730,-0.770
747804,0.118,0.600,0.839,0.630,-2.520,-0.490
747827,0.118,0.602,0.839,0.980,-2.380,-0.700
747851,0.119,0.597,0.839,1.120,-2.380,-0.840
747907,0.118,0.597,0.840,1.190,-2.520,-0.700
747924,0.118,0.599,0.838,0.840,-2.450,-0.840
747944,0.120,0.602,0.839,0.770,-2.380,-0.700
747966,0.117,0.600,0.839,0.980,-2.310,-0.700
747986,0.118,0.598,0.836,0.980,-2.520,-0.700
748009,0.116,0.601,0.839,0.630,-2.520,-0.700
748075,0.117,0.598,0.839,1.400,-2.590,-0.630
748097,0.120,0.598,0.837,1.260,-2.590,-0.770
748118,0.116,0.596,0.840,1.050,-2.520,-0.560
748142,0.117,0.601,0.839,0.980,-2.660,-0.560
748162,0.118,0.600,0.839,0.840,-2.450,-0.560
748182,0.120,0.595,0.838,0.840,-2.520,-0.980
748236,0.117,0.599,0.838,1.190,-2.450,-0.840
748256,0.119,0.597,0.836,0.980,-2.450,-0.700
748276,0.118,0.602,0.842,1.050,-2.520,-0.420
748296,0.118,0.600,0.839,1.260,-2.520,-0.560
748316,0.117,0.597,0.839,1.190,-2.590,-0.490
748340,0.120,0.602,0.837,0.980,-2.660,-0.350
748397,0.119,0.599,0.838,0.700,-2.450,-0.980
748418,0.117,0.602,0.840,0.770,-2.310,-0.910
748438,0.118,0.600,0.837,0.980,-2.310,-0.910
748454,0.116,0.599,0.836,0.840,-2.380,-0.980
748474,0.120,0.601,0.841,0.910,-2.380,-0.700
748494,0.119,0.602,0.839,1.330,-2.520,-0.630
748550,0.120,0.601,0.841,1.050,-2.730,-0.420
748567,0.119,0.601,0.840,0.840,-2.730,-0.490
748589,0.120,0.600,0.839,0.770,-2.450,-0.560
748609,0.120,0.600,0.837,0.910,-2.450,-0.910
748629,0.118,0.597,0.838,0.910,-2.310,-0.980
748649,0.120,0.599,0.838,0.910,-2.310,-1.050
748712,0.121,0.598,0.835,1.190,-2.520,-0.700
748736,0.115,0.599,0.840,1.050,-2.520,-0.560
748752,0.115,0.601,0.840,0.840,-2.660,-0.420
748776,0.120,0.601,0.838,0.980,-2.590,-0.560
748796,0.121,0.599,0.839,1.050,-2.590,-0.840
748815,0.119,0.598,0.839,0.700,-2.450,-0.840
748888,0.118,0.603,0.838,1.050,-2.520,-0.560
748907,0.118,0.599,0.838,1.050,-2.520,-0.910
748925,0.116,0.599,0.839,0.560,-2.100,-0.980
748945,0.121,0.600,0.839,0.490,-1.960,-0.980
748966,0.118,0.601,0.841,1.190,-2.170,-1.050
748985,0.118,0.597,0.839,1.190,-2.240,-1.120
749042,0.118,0.597,0.841,1.190,-2.380,-0.980
749066,0.117,0.597,0.839,0.910,-2.240,-0.910
749090,0.119,0.602,0.842,0.630,-2.170,-0.840
749110,0.121,0.600,0.839,0.980,-2.100,-0.910
749130,0.118,0.603,0.841,0.910,-2.100,-1.120
749149,0.119,0.598,0.839,0.910,-2.170,-0.910
749198,0.117,0.599,0.841,0.980,-2.380,-0.630
749218,0.117,0.600,0.839,0.980,-2.380,-0.980
749238,0.118,0.600,0.836,0.980,-2.310,-0.980
749262,0.117,0.599,0.839,0.490,-2.100,-1.050
749282,0.117,0.601,0.839,0.700,-2.310,-0.910
749302,0.114,0.599,0.839,0.840,-2.170,-0.980
749372,0.115,0.599,0.840,0.770,-2.170,-0.910
749391,0.117,0.599,0.842,0.840,-2.240,-0.840
749411,0.117,0.599,0.838,0.770,-2.240,-0.980
749431,0.116,0.600,0.839,0.910,-2.380,-0.910
749455,0.117,0.599,0.840,0.840,-2.240,-0.910
749474,0.119,0.601,0.839,0.700,-2.240,-0.770
749537,0.115,0.596,0.839,0.770,-2.310,-0.770
749558,0.116,0.599,0.842,0.910,-2.310,-0.910
749581,0.115,0.601,0.840,0.910,-2.240,-0.910
749599,0.115,0.599,0.837,1.050,-2.380,-0.980
749623,0.117,0.599,0.840,0.840,-2.240,-0.910
749642,0.116,0.600,0.841,0.770,-2.310,-0.840
749713,0.115,0.597,0.843,1.120,-2.520,-0.840
749733,0.117,0.598,0.838,0.700,-2.380,-0.630
749753,0.115,0.599,0.840,0.840,-2.380,-0.700
749773,0.116,0.600,0.841,0.980,-2.380,-0.910
749793,0.113,0.598,0.838,1.050,-2.380,-0.840
749812,0.115,0.600,0.842,0.770,-2.240,-0.770
749857,0.115,0.600,0.839,0.910,-2.450,-0.840
749880,0.114,0.600,0.839,1.050,-2.450,-0.840
749896,0.114,0.598,0.840,0.980,-2.520,-0.490
749916,0.116,0.602,0.843,1.120,-2.590,-0.490
749936,0.115,0.600,0.838,1.260,-2.730,-0.560
749961,0.117,0.597,0.840,1.050,-2.660,-0.560
750028,0.116,0.600,0.843,1.120,-2.590,-0.700
750047,0.115,0.597,0.838,1.120,-2.520,-0.700
750066,0.116,0.598,0.840,1.120,-2.730,-0.630
750090,0.118,0.600,0.839,0.840,-2.520,-0.560
750110,0.117,0.599,0.839,1.120,-2.520,-0.770
750128,0.115,0.598,0.840,1.050,-2.450,-0.700
750185,0.112,0.598,0.839,0.910,-2.520,-0.770
750208,0.115,0.598,0.840,0.980,-2.660,-0.630
750224,0.117,0.601,0.840,0.980,-2.590,-0.490
750244,0.119,0.599,0.841,1.120,-2.590,-0.770
750264,0.118,0.599,0.838,1.260,-2.590,-0.560
750284,0.115,0.601,0.840,0.910,-2.660,-0.420
750333,0.115,0.600,0.837,0.700,-2.800,-0.210
750355,0.119,0.598,0.840,0.980,-2.940,-0.210
750374,0.118,0.598,0.839,0.630,-2.940,-0.280
750399,0.118,0.599,0.841,0.630,-2.800,-0.280
750414,0.118,0.602,0.837,1.050,-2.730,-0.420
750438,0.119,0.598,0.839,0.770,-2.450,-0.700
750504,0.116,0.601,0.840,0.840,-2.380,-0.840
750522,0.118,0.600,0.839,1.050,-2.450,-0.840
750543,0.116,0.598,0.838,1.120,-2.590,-0.630
750562,0.118,0.599,0.838,0.840,-2.870,-0.630
750582,0.119,0.603,0.838,0.770,-2.590,-0.490
750601,0.117,0.597,0.841,0.910,-2.450,-0.840
750663,0.117,0.601,0.840,1.050,-2.520,-0.700
750685,0.119,0.597,0.841,1.120,-2.520,-0.770
750707,0.117,0.597,0.839,1.050,-2.520,-0.840
750727,0.119,0.600,0.839,0.840,-2.450,-0.700
750747,0.118,0.600,0.839,0.630,-2.170,-0.910
750765,0.118,0.598,0.840,1.190,-2.590,-0.770
750846,0.121,0.599,0.840,0.910,-2.450,-0.700
750864,0.118,0.602,0.840,0.840,-2.380,-0.630
750885,0.120,0.600,0.838,0.700,-2.380,-0.700
750905,0.118,0.597,0.840,1.190,-2.520,-0.700
750923,0.117,0.599,0.838,1.120,-2.450,-0.560
750940,0.118,0.600,0.840,1.050,-2.520,-0.630
751002,0.117,0.601,0.838,0.980,-2.590,-0.630
751019,0.117,0.598,0.839,1.190,-2.520,-0.630
751038,0.117,0.599,0.839,0.980,-2.380,-0.770
751057,0.116,0.599,0.840,0.910,-2.590,-0.630
751082,0.120,0.600,0.841,1.050,-2.730,-0.560
751102,0.119,0.600,0.842,1.120,-2.450,-0.700
751168,0.117,0.600,0.841,0.630,-2.380,-0.770
751188,0.119,0.599,0.841,1.120,-2.450,-0.770
751208,0.118,0.598,0.837,0.980,-2.520,-0.840
751223,0.120,0.600,0.839,0.700,-2.310,-0.980
751243,0.116,0.602,0.839,0.630,-1.890,-1.260
751266,0.114,0.598,0.838,0.910,-1.960,-1.190
751341,0.117,0.598,0.839,-0.140,-1.400,-1.400
751360,0.115,0.600,0.840,-0.280,-1.120,-1.540
751380,0.115,0.597,0.843,-0.140,-1.050,-1.680
751400,0.116,0.597,0.839,-0.280,-0.980,-1.610
751420,0.115,0.596,0.841,0.070,-1.330,-1.330
751443,0.113,0.599,0.840,0.210,-1.890,-0.980
751513,0.113,0.595,0.840,0.980,-2.380,-0.770
