Millis	AccelX	AccelY	AccelZ	GyroX	GyroY	GyroZ
0	-0.996	0.215	-0.003	-0.28	-2.1	0.84
16	-0.999	0.219	-0.003	-0.49	-2.03	0.84
40	-0.995	0.213	-0.004	-0.35	-2.38	0.98
60	-0.998	0.214	-0.002	-0.07	-2.31	0.98
79	-0.992	0.216	0.0	-0.21	-2.24	0.84
99	-0.996	0.217	-0.002	-0.42	-2.24	0.91
117	-0.996	0.212	-0.005	-0.07	-2.31	0.98
137	-0.997	0.216	-0.001	-0.07	-2.31	1.05
156	-0.997	0.217	-0.003	-0.14	-2.59	1.05
181	-0.995	0.214	-0.001	0.0	-2.59	1.12
200	-0.997	0.216	-0.003	0.0	-2.73	1.19
221	-0.996	0.214	-0.004	0.07	-2.8	1.26
244	-0.992	0.214	-0.004	0.07	-2.8	1.26
264	-0.998	0.214	-0.003	0.35	-3.08	1.19
288	-0.995	0.221	0.0	0.21	-2.73	1.33
307	-0.996	0.216	0.002	-0.35	-2.8	1.4
328	-0.997	0.215	0.001	-0.28	-2.8	1.47
348	-0.994	0.215	-0.001	-0.28	-2.8	1.47
368	-0.995	0.218	-0.0	-0.35	-2.66	1.33
388	-0.996	0.219	-0.001	-0.49	-2.66	1.33
408	-0.996	0.213	-0.0	-0.28	-2.8	1.4
428	-0.995	0.218	-0.002	-0.14	-2.66	1.4
448	-0.996	0.216	-0.001	-0.28	-3.08	1.4
468	-0.996	0.216	0.0	-0.07	-3.08	1.33
492	-0.992	0.215	-0.123	0.07	-2.87	1.47
509	-0.994	0.216	0.0	-0.14	-2.94	1.47
528	-0.993	0.219	0.004	-0.07	-2.94	1.19
548	-0.994	0.216	0.0	-0.35	-2.73	1.33
573	-0.994	0.216	0.003	-0.42	-2.66	1.19
593	-0.993	0.218	0.004	-0.56	-2.38	1.05
610	-0.998	0.217	0.004	-0.49	-2.38	1.05
633	-0.992	0.216	0.002	-0.42	-2.38	1.05
654	-0.995	0.215	0.0	-0.35	-2.38	1.19
673	-0.996	0.218	0.002	-0.21	-2.66	1.12
693	-0.995	0.219	0.003	-0.49	-2.31	1.19
717	-0.996	0.215	0.001	-0.21	-2.24	1.12
732	-0.994	0.215	0.007	-0.14	-2.17	1.19
752	-0.998	0.218	0.004	-0.07	-2.1	1.05
772	-0.994	0.215	0.001	0.0	-2.03	0.98
797	-0.999	0.215	0.001	0.0	-2.17	1.19
816	-0.993	0.214	0.003	0.0	-2.03	1.19
835	-0.996	0.218	0.0	-0.07	-2.24	1.19
857	-0.994	0.215	0.004	-0.07	-2.24	1.26
877	-0.995	0.22	0.005	-0.21	-2.24	1.33
897	-0.995	0.216	0.001	-0.14	-2.17	1.26
921	-0.994	0.221	0.004	0.0	-2.24	1.19
941	-0.995	0.218	0.004	-0.28	-1.96	1.19
960	-0.994	0.221	0.002	-0.28	-1.96	1.05
981	-0.993	0.218	0.004	-0.07	-1.68	0.98
1000	-0.994	0.219	0.002	-0.35	-1.75	0.98
1020	-0.998	0.215	0.003	-0.42	-1.68	0.98
1044	-0.992	0.217	-0.001	-0.21	-1.75	0.98
1064	-0.993	0.218	0.001	-0.35	-1.61	0.91
1080	-0.996	0.216	-0.002	0.0	-1.61	0.77
1104	-0.994	0.213	-0.001	0.14	-1.68	0.84
1124	-1.003	0.219	0.0	0.56	-1.82	1.05
1143	-0.999	0.217	0.002	0.63	-1.96	0.98
1167	-0.992	0.215	0.003	0.56	-1.61	0.77
1187	-0.994	0.21	-0.002	0.28	-1.47	0.84
1206	-0.991	0.214	-0.007	0.0	-1.68	0.98
1226	-0.995	0.214	-0.006	-0.07	-2.1	1.33
1242	-1.001	0.217	-0.005	-0.63	-2.45	1.54
1262	-0.996	0.217	0.001	-0.77	-2.73	1.61
1285	-0.996	0.221	0.001	-0.63	-2.38	1.47
1307	-0.995	0.221	0.001	-0.49	-2.31	1.26
1327	-0.996	0.216	0.001	0.0	-2.24	1.33
1347	-0.992	0.217	-0.002	-0.07	-2.17	1.12
1367	-0.995	0.216	-0.003	0.28	-2.03	0.98
1385	-0.993	0.219	0.003	0.21	-1.75	0.98
1409	-0.995	0.217	0.005	-0.07	-1.47	0.98
1429	-0.995	0.219	-0.004	-0.14	-1.26	0.77
1449	-0.996	0.217	-0.0	-0.14	-1.4	0.77
1466	-0.992	0.217	-0.0	0.0	-1.33	0.7
1489	-0.994	0.217	-0.005	-0.28	-0.98	0.7
1513	-0.995	0.214	-0.004	-0.28	-1.33	0.63
1533	-0.996	0.215	-0.003	-0.21	-1.26	0.77
1553	-0.994	0.218	-0.004	-0.84	-1.26	0.63
1572	-0.993	0.214	-0.005	-0.77	-1.19	0.77
1593	-0.996	0.215	-0.006	-0.49	-1.26	0.77
1612	-0.994	0.214	-0.005	-0.49	-1.4	0.84
1637	-0.994	0.215	0.001	-0.7	-1.33	0.56
1657	-0.997	0.216	-0.007	-0.28	-1.4	0.49
1677	-0.995	0.21	-0.006	0.0	-1.19	0.28
1697	-0.99	0.214	-0.013	0.07	-0.84	0.07
1721	-0.997	0.207	-0.0	0.07	-0.84	-0.14
1741	-0.999	0.215	-0.01	-0.21	-0.98	-0.07
1756	-0.998	0.208	-0.009	0.35	-1.12	0.21
1776	-0.995	0.224	-0.001	0.49	-1.26	0.35
1801	-0.993	0.212	-0.007	-0.07	-0.84	0.49
1820	-0.996	0.211	-0.008	0.14	-1.05	0.77
1839	-0.995	0.212	-0.008	0.42	-0.98	0.84
1862	-0.987	0.222	0.001	0.63	0.28	0.21
1883	-0.983	0.225	-0.003	-1.33	1.75	-0.42
1902	-0.995	0.2	-0.009	0.84	2.31	-0.84
1922	-0.994	0.215	-0.01	1.75	3.01	-1.05
1947	-0.995	0.216	-0.004	1.68	4.13	-1.47
1965	-0.991	0.2	-0.016	2.73	4.76	-1.89
1988	-0.991	0.21	-0.012	2.73	5.32	-2.59
2008	-0.993	0.215	-0.016	3.5	6.72	-2.59
2028	-1.012	0.186	-0.042	3.22	5.88	-2.87
2047	-0.987	0.19	-0.019	3.92	6.93	-2.17
2072	-0.983	0.182	-0.029	4.06	8.12	-2.03
2088	-0.964	0.184	-0.029	3.64	9.94	-2.24
2108	-0.991	0.24	-0.02	0.63	10.43	-0.91
2132	-1.022	0.169	-0.041	-2.31	10.85	1.26
2152	-1.013	0.156	-0.087	-3.71	9.38	3.99
2172	-1.028	0.171	-0.085	-2.94	-1.26	8.05
2192	-1.057	0.165	-0.104	0.7	-12.46	12.04
2208	-0.996	0.187	-0.081	-0.98	-14.84	13.02
2228	-1.03	0.203	-0.044	-5.67	-20.02	12.32
2252	-0.952	0.195	-0.162	0.28	-18.2	10.92
2272	-0.982	0.36	0.024	-18.76	5.81	10.99
2292	-1.016	0.225	0.014	-24.22	6.79	9.87
2312	-0.994	0.086	0.002	-13.79	6.02	11.69
2327	-0.929	0.132	-0.034	13.37	11.13	15.47
2352	-1.023	0.235	-0.054	12.04	10.29	15.12
2371	-0.991	0.259	-0.02	7.63	10.64	14.49
2391	-0.969	0.203	-0.056	10.01	10.15	13.44
2415	-0.99	0.283	-0.095	13.93	6.79	10.43
2435	-0.948	0.293	-0.052	7.98	9.73	7.98
2453	-0.966	0.269	-0.101	2.59	8.68	6.16
2474	-1.007	0.282	-0.118	3.08	7.07	3.15
2497	-0.985	0.241	-0.083	-3.99	7.14	3.08
2516	-1.007	0.22	-0.115	2.59	5.53	2.17
2538	-0.999	0.292	-0.119	-1.4	2.66	1.05
2559	-1.0	0.307	-0.119	-6.86	-1.89	0.84
2583	-0.974	0.272	-0.082	0.07	-2.59	-0.14
2603	-0.959	0.357	-0.061	0.98	-2.1	-2.59
2621	-0.975	0.244	-0.108	1.61	-1.47	-4.76
2641	-0.961	0.263	-0.085	4.83	-1.19	-6.02
2665	-0.985	0.297	-0.061	5.46	0.77	-6.86
2685	-0.999	0.222	-0.071	6.37	3.43	-8.26
2703	-0.992	0.247	-0.126	6.58	3.29	-9.87
2725	-0.983	0.235	-0.098	8.4	3.01	-11.48
2745	-0.991	0.241	-0.089	10.22	3.85	-13.72
2765	-0.991	0.267	-0.115	8.26	4.2	-15.68
2784	-0.99	0.221	-0.106	10.57	3.43	-17.71
2803	-0.959	0.24	-0.075	14.63	4.83	-21.35
2823	-0.949	0.273	-0.068	9.45	9.45	-26.67
2847	-1.01	0.232	-0.104	14.35	9.94	-32.27
2867	-0.972	0.245	-0.064	21.0	15.89	-40.53
2891	-0.971	0.288	-0.05	22.26	26.32	-46.41
2911	-1.077	0.221	-0.065	20.79	31.5	-51.03
2931	-1.1	0.073	-0.051	22.47	37.59	-53.83
2951	-1.115	0.094	-0.031	27.44	44.03	-53.55
2969	-1.237	0.1	-0.043	26.81	48.3	-53.55
2989	-1.251	0.115	-0.075	38.15	53.06	-52.85
3013	-1.489	0.228	0.085	98.21	21.07	-43.54
3031	-0.93	0.184	-0.114	43.26	68.46	-61.46
3053	-0.948	0.1	-0.381	-16.8	70.56	-67.06
3076	-0.823	-0.102	-0.129	-42.14	42.56	-51.94
3097	-0.805	0.505	0.55	-60.69	-49.56	-10.57
3116	-0.619	0.481	0.303	-60.41	-94.43	27.93
3139	-0.887	0.166	0.031	-57.4	-140.07	59.5
3163	-0.969	0.022	-0.136	-44.66	-140.07	65.8
3183	-1.2	-0.124	-0.491	-45.08	-127.12	63.98
3198	-1.186	-0.047	-0.605	-58.59	-103.25	57.82
3224	-1.109	-0.68	-0.841	-36.47	-77.42	35.77
3242	-0.973	-0.437	-0.493	14.56	-59.5	28.28
3266	-0.895	-0.313	-0.427	59.99	-45.08	24.71
3286	-0.885	-0.046	-0.131	76.23	-39.55	28.35
3306	-0.937	-0.051	-0.327	43.4	-41.02	19.25
3326	-0.616	-0.152	-0.968	45.08	2.8	7.56
3346	-1.013	0.101	0.211	40.81	26.81	2.73
3366	-0.816	0.399	-0.176	-55.79	4.34	0.14
3390	-1.244	0.203	0.078	-38.57	20.23	3.64
3409	-1.16	0.027	0.008	-11.06	8.54	0.49
3430	-0.994	0.091	-0.027	4.27	10.43	3.92
3448	-0.981	0.151	-0.025	0.35	11.13	3.92
3472	-0.979	0.115	-0.024	-0.91	12.18	3.08
3492	-0.967	0.133	-0.011	4.97	11.55	3.99
3512	-0.988	0.147	-0.034	6.16	12.53	3.5
3531	-1.031	0.123	-0.032	6.93	12.81	3.71
3554	-0.99	0.141	-0.019	4.55	17.01	1.75
3575	-0.97	0.12	-0.051	2.59	19.95	-0.14
3594	-0.976	0.231	-0.018	1.82	21.77	0.98
3618	-1.07	0.201	-0.01	10.85	20.16	2.31
3638	-1.01	0.115	-0.113	3.5	24.85	0.14
3656	-0.971	0.048	-0.105	3.78	26.46	2.03
3675	-0.943	0.149	-0.098	11.62	19.95	3.99
3699	-0.966	0.114	-0.107	-0.35	25.76	1.4
3719	-1.006	0.034	-0.082	5.39	27.02	-0.28
3743	-0.985	0.108	-0.193	7.84	25.9	1.75
3763	-0.987	0.235	-0.113	10.5	20.23	0.98
3783	-0.969	0.207	-0.099	2.87	27.23	-3.71
3803	-1.041	0.089	-0.118	-0.28	26.95	-3.99
3823	-1.049	0.148	-0.17	15.19	25.34	-1.54
3847	-0.98	0.156	-0.232	9.94	23.94	-4.06
3867	-0.963	0.163	-0.144	5.53	21.91	-7.63
3887	-0.969	0.165	-0.24	0.98	23.52	-7.7
3906	-1.01	0.029	-0.305	3.08	12.32	-9.45
3925	-0.959	0.133	-0.163	6.86	21.0	-10.99
3947	-1.003	0.068	-0.233	14.28	19.32	-7.35
3969	-0.955	0.113	-0.286	12.81	17.15	-9.24
3987	-1.009	0.058	-0.201	10.85	15.4	-9.17
4010	-0.974	0.142	-0.23	19.39	14.63	-10.15
4029	-1.005	0.097	-0.266	5.04	12.95	-10.01
4048	-1.063	0.055	-0.244	7.84	13.16	-9.17
4072	-0.932	0.102	-0.241	9.52	12.25	-11.55
4092	-0.945	0.121	-0.34	0.35	9.87	-11.76
4112	-1.012	0.078	-0.325	-2.24	10.22	-12.67
4130	-0.962	0.033	-0.085	0.84	16.87	-11.06
4148	-0.993	0.061	-0.279	1.19	14.56	-7.35
4168	-1.0	-0.022	-0.42	-5.18	10.01	-7.0
4192	-0.952	0.078	-0.28	1.82	10.08	-6.86
4212	-0.95	0.132	-0.228	-0.35	9.66	-6.51
4232	-0.939	0.057	-0.33	-3.43	13.65	-6.79
4251	-0.927	0.045	-0.33	-3.15	12.95	-7.42
4271	-0.864	0.111	-0.376	-8.47	14.35	-5.11
4291	-0.916	0.025	-0.169	-2.31	14.84	-5.6
4315	-0.983	0.234	-0.274	-10.85	12.6	-7.7
4334	-1.009	0.035	-0.393	-16.52	13.58	-9.59
4353	-0.998	-0.035	-0.366	-12.11	13.93	-13.23
4378	-0.868	0.112	-0.135	-9.17	22.96	-13.58
4398	-0.943	0.061	-0.386	-11.2	19.46	-13.93
4413	-0.913	-0.042	-0.371	-12.46	23.59	-13.3
4438	-0.988	-0.045	-0.486	-9.66	21.35	-11.83
4462	-0.888	0.096	-0.281	-14.21	23.66	-17.29
4482	-1.021	0.114	-0.269	-19.74	25.13	-16.66
4501	-0.937	-0.206	-0.492	0.7	18.76	-13.86
4519	-0.932	0.064	-0.447	-4.34	19.88	-12.32
4543	-0.879	-0.016	-0.373	-9.17	22.68	-10.36
4563	-0.922	0.017	-0.335	-15.89	19.95	-7.63
4582	-0.985	-0.15	-0.471	1.12	15.19	-2.59
4601	-0.82	0.056	-0.497	-4.83	14.91	-0.63
4622	-0.956	-0.123	-0.399	-3.22	12.95	1.54
4645	-0.95	0.046	-0.463	3.01	7.98	3.64
4666	-0.887	-0.123	-0.464	6.37	5.6	5.39
4683	-0.959	-0.019	-0.473	11.76	0.21	5.46
4705	-0.967	0.067	-0.534	7.91	-5.04	4.06
4724	-0.863	-0.06	-0.487	6.09	-7.7	5.11
4749	-0.933	-0.022	-0.437	7.07	-13.37	7.56
4769	-0.91	-0.011	-0.43	3.29	-12.04	9.45
4788	-0.957	0.006	-0.423	7.14	-15.19	11.2
4811	-0.911	-0.051	-0.435	11.97	-19.39	13.16
4830	-0.887	0.007	-0.439	9.52	-15.89	13.44
4849	-0.915	0.026	-0.429	4.2	-17.01	12.74
4874	-0.903	0.043	-0.389	6.65	-16.8	9.73
4894	-0.982	0.102	-0.377	4.69	-18.2	8.54
4912	-0.895	-0.04	-0.454	10.01	-19.95	6.02
4935	-0.921	0.089	-0.375	10.29	-18.48	4.41
4955	-0.941	0.011	-0.423	3.85	-21.7	1.68
4975	-0.92	0.038	-0.382	2.94	-22.26	0.7
4995	-0.957	0.034	-0.29	0.63	-18.76	0.77
5019	-1.012	0.083	-0.368	-3.57	-22.75	1.82
5039	-0.945	-0.064	-0.37	-7.91	-13.58	2.38
5057	-0.965	-0.04	-0.404	-2.8	-13.65	2.45
5081	-0.895	-0.025	-0.42	-9.1	-16.94	2.8
5100	-0.977	0.058	-0.294	0.84	-21.56	5.95
5119	-0.992	0.029	-0.352	5.32	-24.01	7.56
5144	-0.94	-0.015	-0.393	1.68	-22.96	9.45
5164	-0.974	-0.028	-0.355	-1.61	-26.95	10.99
5188	-0.965	0.075	-0.293	-1.4	-28.21	10.71
5212	-0.968	0.026	-0.362	-1.61	-28.07	13.65
5230	-0.956	0.007	-0.305	-1.68	-29.75	14.07
5252	-0.985	0.059	-0.302	-4.34	-31.64	13.23
5275	-0.978	0.078	-0.276	-11.9	-32.69	13.16
5296	-1.009	0.068	-0.312	-8.12	-34.44	11.13
5313	-0.976	0.092	-0.255	-6.44	-36.61	12.6
5333	-0.99	0.05	-0.277	-8.26	-40.39	12.53
5357	-0.996	0.072	-0.203	-3.22	-41.58	13.51
5377	-0.939	0.081	-0.193	-6.3	-39.83	10.43
5397	-0.981	0.105	-0.263	-12.95	-39.34	16.73
5413	-1.059	0.083	-0.139	-17.85	-42.35	18.2
5436	-0.998	-0.003	-0.29	-10.78	-45.22	13.86
5453	-0.977	0.091	-0.124	-9.73	-44.03	18.9
5473	-0.996	0.177	-0.064	-10.29	-44.45	17.57
5496	-1.057	0.029	-0.26	-15.54	-49.7	22.54
5517	-1.014	0.088	-0.043	-6.93	-55.72	26.25
5537	-1.077	0.165	-0.044	5.74	-59.92	21.28
5554	-0.975	0.177	-0.141	-5.6	-56.56	18.76
5574	-0.907	0.149	-0.013	-13.65	-52.92	17.57
5597	-0.886	0.164	0.006	-8.12	-45.29	15.68
5618	-0.934	0.108	0.063	-14.35	-39.9	14.49
5637	-0.915	0.087	0.06	-7.91	-33.25	14.98
5655	-0.92	0.132	0.078	0.98	-25.9	16.03
5675	-0.979	0.17	0.054	0.84	-20.37	14.77
5694	-0.982	0.197	0.073	0.0	-16.66	12.04
5714	-1.011	0.213	0.049	-1.68	-14.07	12.25
5738	-1.043	0.194	0.041	-1.26	-13.79	10.5
5756	-1.015	0.227	0.055	-1.33	-12.67	9.31
5778	-0.993	0.219	0.033	1.26	-11.34	7.42
5794	-0.983	0.167	0.026	1.05	-11.06	7.28
5819	-0.955	0.166	0.071	2.87	-9.66	6.72
5838	-0.989	0.207	0.087	2.66	-6.86	6.72
5858	-0.987	0.188	0.056	2.73	-5.46	3.85
5876	-0.951	0.202	0.054	-0.56	-1.19	-0.56
5897	-0.945	0.315	0.128	-0.35	4.34	-6.72
5916	-0.966	0.336	0.157	3.78	15.05	-12.74
5941	-0.945	0.158	0.11	15.61	22.4	-19.74
5961	-0.935	0.086	0.099	20.65	31.29	-20.72
5981	-0.964	0.15	0.096	21.98	42.91	-21.56
6004	-0.887	0.061	0.069	25.69	57.61	-20.23
6023	-0.904	0.162	0.104	35.77	62.72	-19.18
6044	-1.007	0.27	-0.027	32.62	68.6	-15.89
6068	-1.122	0.125	-0.147	30.31	64.54	-14.07
6092	-0.973	0.005	-0.224	22.75	61.46	-12.74
6112	-1.009	0.117	-0.173	23.45	55.65	-12.88
6131	-1.005	0.093	-0.182	28.98	44.52	-14.35
6151	-0.964	0.163	-0.314	15.19	44.1	-13.58
6170	-1.035	0.154	-0.333	-2.38	39.83	-12.11
6195	-1.012	0.039	-0.296	-6.51	40.74	-14.84
6215	-0.952	0.029	-0.396	-0.56	35.56	-14.49
6235	-0.944	0.101	-0.174	-6.93	38.29	-13.58
6255	-1.043	0.016	-0.289	1.47	32.27	-13.3
6275	-0.994	0.012	-0.402	-4.27	30.45	-10.57
6298	-1.014	0.039	-0.197	8.89	26.53	-11.2
6322	-0.892	0.327	-0.264	3.43	31.99	-8.89
6342	-1.036	-0.061	-0.281	-5.04	27.3	-9.52
6362	-0.976	0.013	-0.225	6.23	27.86	-11.69
6380	-0.918	0.141	-0.468	9.31	28.56	-10.85
6400	-0.956	-0.003	-0.344	-0.91	27.37	-13.09
6422	-0.824	0.055	-0.427	2.38	26.32	-16.1
6439	-0.939	0.136	-0.36	-5.25	23.1	-14.28
6459	-1.049	-0.063	-0.356	-3.36	20.58	-14.7
6479	-0.904	-0.015	-0.342	3.43	23.03	-11.97
6503	-0.93	0.007	-0.442	-2.24	22.75	-6.23
6523	-1.036	-0.014	-0.435	-9.87	12.53	-8.61
6542	-0.918	0.12	-0.317	0.14	13.58	-7.98
6564	-0.933	0.082	-0.42	-13.51	20.23	-3.71
6584	-1.032	-0.004	-0.338	-14.07	15.96	-4.41
6608	-0.912	-0.169	-0.594	0.56	3.64	1.82
6628	-0.896	0.154	-0.429	-9.87	5.04	0.77
6648	-0.986	0.036	-0.417	-13.86	0.84	0.77
6664	-0.912	-0.005	-0.425	-10.92	2.73	1.89
6689	-0.991	0.001	-0.425	-11.41	5.53	9.03
6708	-0.923	-0.133	-0.435	-8.89	8.4	11.13
6725	-0.92	0.086	-0.341	-4.27	6.51	13.02
6745	-0.985	0.081	-0.44	-11.69	4.41	14.35
6769	-0.945	-0.012	-0.522	-5.46	-2.94	15.82
6789	-0.82	0.002	-0.475	-1.4	-3.22	18.41
6810	-0.876	0.155	-0.353	-8.33	0.49	17.22
6827	-1.018	0.072	-0.404	-9.8	-1.19	14.07
6846	-0.916	0.005	-0.515	1.4	-2.73	11.62
6870	-0.892	0.065	-0.439	3.92	0.21	6.79
6890	-0.939	0.098	-0.484	4.62	-2.03	3.71
6910	-0.817	0.106	-0.464	6.65	-6.02	1.82
6928	-0.954	0.063	-0.423	3.78	-5.39	2.52
6951	-0.895	0.086	-0.461	8.12	-9.31	1.26
6972	-0.94	0.056	-0.447	5.88	-12.18	0.35
6992	-0.86	0.083	-0.456	8.96	-12.32	-0.77
7011	-0.914	0.104	-0.366	5.32	-11.76	-3.15
7033	-0.915	0.075	-0.435	6.79	-14.07	-5.18
7054	-0.918	0.102	-0.392	9.17	-14.56	-6.44
7074	-0.924	0.059	-0.384	10.08	-14.63	-8.68
7093	-0.957	0.059	-0.5	9.73	-19.46	-10.22
7118	-0.953	0.102	-0.356	8.61	-19.04	-13.37
7137	-0.923	0.055	-0.421	2.94	-17.36	-14.84
7153	-0.897	-0.022	-0.413	10.15	-17.29	-14.63
7178	-0.928	0.082	-0.391	2.59	-19.81	-9.8
7197	-0.935	-0.122	-0.36	6.51	-17.43	-6.23
7218	-0.918	0.031	-0.368	2.17	-14.63	-2.17
7237	-0.942	-0.004	-0.399	-10.15	-15.12	0.84
7256	-0.933	-0.077	-0.376	-1.68	-17.57	4.9
7280	-0.956	-0.071	-0.439	3.43	-20.44	9.59
7300	-0.977	0.033	-0.286	10.01	-25.9	9.73
7319	-1.008	0.188	-0.348	2.73	-26.53	8.68
7339	-0.938	0.049	-0.382	-5.25	-26.25	6.09
7363	-0.962	-0.064	-0.397	1.96	-30.73	9.52
7380	-0.986	-0.011	-0.339	4.13	-36.12	11.2
7401	-0.98	0.043	-0.308	7.0	-36.68	13.72
7422	-0.943	0.05	-0.341	-3.08	-30.87	13.65
7446	-1.004	0.025	-0.329	-13.51	-37.45	13.16
7466	-0.993	0.011	-0.339	-12.18	-43.05	12.6
7486	-0.975	0.042	-0.307	-2.8	-44.87	14.28
7506	-0.984	0.015	-0.258	1.4	-47.18	16.24
7530	-0.935	0.086	-0.201	4.41	-46.2	16.31
7550	-0.969	0.102	-0.246	0.56	-48.93	23.45
7570	-0.976	0.062	-0.202	-0.28	-55.51	17.78
7590	-0.955	0.102	-0.173	-9.94	-47.95	16.03
7610	-0.955	0.153	-0.184	-14.35	-46.69	19.18
7630	-1.015	0.122	-0.05	-22.12	-48.86	20.09
7654	-1.093	-0.02	-0.184	-22.96	-52.43	27.58
7674	-1.052	-0.02	-0.125	-5.67	-54.95	23.59
7694	-1.026	0.11	-0.214	3.43	-59.99	24.43
7713	-0.973	0.172	-0.098	-7.91	-64.26	24.92
7738	-0.979	0.19	-0.013	-18.9	-60.06	17.01
7755	-0.928	0.178	0.023	-16.1	-54.53	13.86
7776	-0.879	0.211	0.074	-22.82	-44.17	14.07
7797	-0.883	0.186	0.186	-16.73	-33.32	13.79
7821	-0.913	0.116	0.142	-12.46	-19.95	14.21
7841	-0.962	0.154	0.12	-6.23	-12.25	13.16
7862	-0.968	0.258	0.08	-6.65	-5.39	8.89
7884	-0.958	0.226	0.055	-5.88	-0.14	3.85
7904	-0.996	0.204	0.049	-1.75	1.47	1.12
7923	-1.015	0.155	0.054	5.11	1.4	-0.63
7948	-1.03	0.171	0.037	8.4	1.4	0.63
7968	-1.037	0.112	-0.012	3.85	-1.54	2.66
7988	-1.015	0.16	0.011	3.15	-4.06	5.32
8012	-1.023	0.166	0.006	-3.5	-6.65	7.63
8027	-1.002	0.138	0.045	-5.6	-8.12	8.26
8050	-1.027	0.17	0.037	-1.96	-9.24	8.54
8069	-1.01	0.197	0.037	-3.92	-8.12	7.42
8094	-0.984	0.215	0.067	0.49	-6.3	4.41
8114	-0.982	0.234	0.06	1.47	-3.78	-0.07
8134	-0.938	0.219	0.096	7.42	2.73	-5.46
8150	-0.917	0.225	0.095	10.64	8.05	-9.1
8174	-0.895	0.241	0.142	16.52	35.21	-15.61
8194	-0.924	0.254	0.14	22.75	33.6	-20.3
8214	-0.945	0.114	0.067	21.98	44.17	-23.24
8238	-0.921	0.111	0.106	21.56	60.13	-25.2
8256	-0.939	0.091	0.031	21.07	69.23	-24.71
8276	-0.947	0.126	-0.093	14.63	72.94	-21.91
8294	-1.012	0.098	-0.162	8.12	74.76	-17.92
8318	-0.933	0.242	-0.075	31.08	57.82	-12.25
8338	-0.999	0.08	-0.19	31.78	57.96	-10.5
8358	-0.963	0.032	-0.26	31.57	41.93	-8.82
8380	-1.037	0.195	-0.248	22.82	45.64	-17.71
8401	-1.15	0.274	-0.101	21.84	41.37	-23.66
8422	-0.982	0.099	-0.311	-2.87	50.89	-24.01
8442	-1.009	0.014	-0.205	-1.89	48.23	-22.96
8460	-1.017	0.074	-0.416	5.32	47.25	-21.98
8484	-1.006	-0.046	-0.366	14.21	36.54	-23.1
8503	-0.947	-0.001	-0.234	19.74	34.37	-25.55
8521	-0.983	0.357	-0.235	-6.44	34.93	-20.37
8539	-1.044	-0.201	-0.476	-23.94	36.61	-20.72
8564	-0.943	-0.127	-0.232	1.68	29.19	-19.53
8583	-1.045	0.179	-0.409	-6.44	22.89	-15.47
8607	-0.895	-0.063	-0.276	-13.51	26.32	-19.04
8627	-0.969	0.023	-0.393	-5.81	22.47	-13.16
8645	-0.958	-0.092	-0.417	-10.64	25.62	-14.7
8669	-0.97	0.103	-0.34	-6.65	10.22	-15.26
8689	-0.977	-0.068	-0.404	-8.89	1.05	-10.92
8709	-1.033	-0.082	-0.462	-8.12	10.15	-9.03
8729	-0.816	-0.052	-0.406	-5.18	32.34	-5.95
8748	-0.869	-0.057	-0.405	-3.85	12.74	-1.12
8772	-0.933	-0.024	-0.425	-9.03	10.99	0.28
8792	-0.915	0.076	-0.295	-4.83	9.03	0.84
8812	-0.885	-0.028	-0.424	-3.85	14.7	3.99
8836	-0.987	0.0	-0.433	-10.29	9.87	3.08
8856	-0.893	-0.049	-0.363	-11.27	15.12	6.3
8875	-0.857	-0.089	-0.429	-7.35	12.95	10.22
8895	-0.93	0.102	-0.326	-6.51	12.39	11.97
8919	-1.021	0.062	-0.466	-17.22	9.94	9.38
8939	-0.938	-0.039	-0.464	-11.97	12.46	7.98
8958	-0.857	-0.024	-0.425	-10.5	11.9	10.15
8979	-0.855	0.025	-0.392	-6.16	10.85	13.16
9003	-0.973	0.12	-0.479	-10.99	6.93	11.69
9021	-0.857	0.032	-0.499	-9.1	2.45	8.89
9045	-0.925	0.045	-0.45	-6.16	-1.61	9.59
9064	-0.823	0.16	-0.393	-10.29	0.63	10.5
9085	-0.77	-0.075	-0.434	-18.55	4.83	13.86
9108	-1.018	0.054	-0.426	-3.01	-0.07	13.02
9129	-0.852	0.177	-0.57	1.82	-2.38	7.84
9149	-0.96	0.06	-0.484	-3.15	-5.95	1.89
9169	-0.896	0.036	-0.424	3.29	-7.0	-2.17
9188	-0.878	0.021	-0.459	8.47	-5.67	-2.59
9207	-0.871	0.079	-0.48	9.59	-10.5	-2.52
9226	-0.954	0.025	-0.431	8.54	-13.79	-1.54
9250	-0.932	-0.011	-0.466	13.79	-15.82	-2.94
9267	-0.906	0.051	-0.47	12.46	-17.64	-4.55
9291	-0.914	0.012	-0.476	12.25	-22.19	-3.99
9311	-0.897	0.06	-0.458	9.52	-21.77	-3.57
9330	-0.899	0.027	-0.402	10.78	-19.18	-5.6
9351	-0.895	0.004	-0.455	10.29	-23.24	-4.76
9375	-0.921	0.037	-0.388	11.83	-22.89	-1.82
9391	-0.944	-0.023	-0.45	10.01	-23.52	-1.33
9415	-0.874	0.082	-0.356	3.5	-20.37	1.61
9433	-0.919	0.037	-0.336	-4.13	-14.42	2.94
9457	-0.891	-0.132	-0.49	-2.8	-16.94	3.64
9477	-0.923	0.194	-0.36	-3.22	-21.77	5.46
9496	-0.956	0.0	-0.397	-3.22	-25.55	4.41
9515	-0.967	0.037	-0.33	4.48	-27.02	5.39
9532	-0.97	0.08	-0.415	-1.26	-32.9	5.88
9557	-0.954	-0.019	-0.402	-6.51	-34.93	6.79
9577	-0.97	0.051	-0.351	-8.4	-43.19	11.27
9597	-0.961	-0.05	-0.4	-7.49	-46.9	13.02
9617	-0.973	0.011	-0.353	-2.1	-52.57	17.85
9632	-0.998	-0.037	-0.331	-2.94	-50.54	19.88
9656	-0.979	0.012	-0.325	0.98	-54.25	18.83
9677	-1.029	0.067	-0.299	-5.04	-63.28	23.52
9697	-1.01	0.08	-0.195	-8.75	-63.63	23.31
9715	-0.962	0.078	-0.302	-13.3	-62.58	22.82
9735	-1.033	0.052	-0.178	-12.67	-69.16	27.51
9758	-0.96	0.108	-0.147	-4.34	-65.24	22.33
9776	-0.962	0.195	-0.064	-4.2	-65.17	20.51
9800	-0.938	0.223	-0.174	-13.23	-62.93	19.88
9819	-1.039	0.128	-0.139	-18.34	-68.39	18.06
9839	-1.05	0.062	-0.173	-9.17	-70.84	12.04
9862	-0.928	0.101	0.029	-5.81	-63.0	14.07
9884	-0.917	0.194	0.08	-0.21	-56.42	12.46
9907	-0.872	0.19	0.118	-8.47	-41.3	13.72
9926	-0.948	0.095	0.119	-17.08	-33.53	13.86
9948	-0.943	0.111	0.142	-0.91	-25.06	15.61
9972	-0.965	0.173	0.046	-0.14	-18.69	13.79
9992	-1.013	0.255	0.068	-6.44	-13.93	9.73
10007	-1.026	0.188	0.027	-8.82	-14.42	7.35
10027	-1.025	0.153	0.051	-3.5	-15.05	6.3
10052	-1.02	0.152	0.054	5.18	-15.68	5.74
10076	-0.988	0.176	0.088	7.77	-14.49	5.32
10096	-0.995	0.153	0.075	8.68	-13.37	6.09
10116	-0.993	0.159	0.078	7.49	-12.04	6.02
10136	-0.935	0.211	0.1	5.88	-9.45	5.11
10155	-0.94	0.276	0.113	-0.49	-5.11	3.57
10178	-0.918	0.27	0.114	-5.6	0.77	-0.56
10202	-0.927	0.255	0.103	-4.62	6.16	-6.79
10222	-0.923	0.221	0.124	-3.08	15.33	-11.83
10241	-0.969	0.163	0.149	6.09	23.59	-16.38
10261	-0.969	0.229	0.147	9.94	28.77	-19.32
10280	-0.939	0.216	0.139	17.64	39.62	-20.93
10301	-0.953	0.166	0.138	19.39	52.92	-22.19
10320	-0.997	0.053	-0.054	7.14	56.91	-21.63
10340	-0.971	-0.067	0.019	17.29	62.02	-15.47
10360	-0.94	0.037	-0.035	10.29	65.73	-12.46
10384	-0.93	0.175	-0.145	3.15	69.72	-8.61
10403	-1.146	0.223	0.097	-2.17	70.21	-10.08
10423	-0.975	0.035	-0.317	7.63	67.34	-17.71
10447	-0.93	0.065	-0.087	9.24	66.71	-8.68
10467	-1.016	0.131	-0.169	15.12	61.67	-18.48
10487	-0.921	0.256	-0.397	2.1	64.05	-20.93
10505	-1.068	-0.004	-0.435	-23.8	52.57	-21.42
10529	-1.128	0.082	-0.081	-9.1	43.89	-20.51
10549	-0.891	0.053	-0.38	16.03	45.43	-19.46
10569	-1.111	-0.018	-0.414	18.13	19.88	-5.81
10589	-1.206	-0.001	-0.134	42.56	-4.97	-2.59
10607	-0.807	0.013	-0.223	33.18	22.96	-10.29
10629	-0.854	0.081	-0.353	24.01	18.06	-6.3
10647	-1.026	0.092	-0.482	14.77	14.14	-3.29
10667	-0.897	-0.043	-0.222	0.14	21.42	-6.58
10691	-1.064	-0.071	-0.281	17.43	15.54	0.98
10706	-1.05	0.013	-0.383	9.73	16.73	-0.91
10726	-0.955	-0.023	-0.364	2.52	20.16	-2.59
10751	-1.052	0.213	-0.285	-8.19	14.98	-1.4
10773	-0.944	0.058	-0.397	-15.89	13.23	-6.58
10791	-0.92	-0.034	-0.334	-12.11	12.95	-3.85
10815	-0.988	-0.025	-0.415	-7.14	6.79	4.06
10834	-0.923	-0.018	-0.39	9.66	6.3	5.88
10853	-0.876	0.145	-0.205	-7.42	13.3	5.46
10870	-0.986	0.058	-0.344	-9.24	10.29	6.65
10895	-0.982	0.015	-0.373	-11.55	10.43	8.4
10915	-0.848	-0.035	-0.408	-1.68	11.83	11.69
10936	-0.943	0.091	-0.308	-6.79	10.29	11.13
10956	-0.944	0.165	-0.341	-14.91	13.44	11.34
10976	-0.883	0.022	-0.407	-23.17	18.83	11.9
10997	-0.975	0.067	-0.302	-13.72	15.68	14.63
11019	-0.993	0.045	-0.385	-15.47	15.47	9.59
11043	-0.932	0.112	-0.428	-9.52	13.37	6.58
11063	-0.951	-0.015	-0.389	5.25	7.77	8.68
11083	-0.923	0.098	-0.41	-2.17	6.44	8.4
11099	-0.88	0.201	-0.397	-10.64	7.98	8.26
11120	-0.928	0.182	-0.45	-5.25	1.75	7.56
11144	-0.966	0.035	-0.383	-3.85	-0.56	4.13
11164	-0.969	0.091	-0.458	6.3	-3.85	3.01
11182	-0.879	0.167	-0.463	2.24	-4.41	0.63
11201	-0.976	-0.014	-0.454	3.78	-1.75	-0.14
11221	-0.977	0.12	-0.41	11.55	-7.42	-2.73
11246	-0.885	0.157	-0.444	4.06	-8.19	-5.74
11266	-0.898	0.096	-0.454	10.78	-16.24	-6.37
11284	-0.934	0.093	-0.354	4.83	-13.79	-6.44
11302	-0.951	0.006	-0.437	11.69	-14.91	-6.79
11324	-0.893	0.148	-0.414	13.3	-21.77	-7.77
11344	-0.964	0.072	-0.381	7.98	-22.12	-8.61
11366	-0.952	-0.021	-0.48	8.82	-23.66	-7.77
11390	-0.931	0.038	-0.366	16.59	-26.32	-5.25
11410	-0.918	0.122	-0.252	12.32	-22.96	-4.97
11429	-0.956	-0.089	-0.477	0.56	-23.24	-3.57
11453	-0.967	-0.075	-0.364	8.47	-27.09	3.5
11473	-0.983	0.092	-0.285	10.08	-22.61	3.29
11493	-0.903	0.068	-0.392	-2.52	-18.69	0.56
11517	-0.93	0.065	-0.282	-2.73	-21.49	3.22
11537	-0.964	0.04	-0.333	-3.15	-24.71	4.2
11556	-1.009	-0.06	-0.385	4.76	-32.2	8.89
11577	-0.976	0.014	-0.354	11.9	-33.32	8.82
11595	-0.981	0.185	-0.242	6.86	-35.98	9.52
11618	-0.979	0.205	-0.29	-12.74	-35.28	11.06
11639	-1.016	0.006	-0.315	-17.64	-37.31	10.36
11656	-1.002	-0.006	-0.288	-13.37	-40.04	11.2
11680	-1.043	-0.062	-0.359	-2.24	-44.59	14.77
11699	-0.974	0.01	-0.29	12.39	-53.55	17.36
11718	-0.969	0.112	-0.226	15.05	-57.89	19.81
11738	-0.985	0.167	-0.122	-2.1	-56.63	17.08
11763	-1.04	0.167	-0.152	-25.13	-56.0	17.85
11782	-1.053	0.123	-0.199	-20.93	-55.65	15.47
11801	-0.977	0.063	-0.147	-6.23	-59.85	14.14
11826	-1.02	0.209	0.008	-2.87	-63.14	17.57
11846	-0.987	0.13	-0.181	-4.76	-64.68	15.19
11861	-0.997	0.177	-0.084	-3.15	-65.38	16.8
11886	-1.086	0.188	-0.078	-9.94	-67.48	14.35
11904	-0.964	0.058	0.001	2.24	-65.73	10.36
11923	-0.848	0.201	0.081	-1.4	-54.74	11.41
11947	-0.895	0.147	0.054	-14.21	-46.06	14.49
11967	-0.912	0.1	0.103	-11.48	-35.77	17.57
11987	-0.935	0.115	0.138	-13.09	-31.22	17.92
12005	-0.94	0.166	0.145	-18.76	-25.76	16.59
12025	-0.958	0.126	0.101	-19.18	-17.29	15.96
12047	-1.054	0.231	0.088	-14.28	-14.56	13.86
12066	-1.051	0.175	0.091	-13.09	-13.51	11.2
12091	-0.988	0.172	0.144	1.26	-10.01	5.95
12107	-0.922	0.314	0.154	2.52	-3.99	1.82
12126	-0.94	0.277	0.163	0.21	2.73	-4.2
12150	-0.986	0.179	0.101	5.18	7.14	-5.74
12169	-1.018	0.116	0.063	7.49	6.72	-5.04
12189	-0.998	0.112	0.055	6.93	5.11	-3.99
12214	-0.965	0.097	0.08	6.86	6.02	-3.43
12232	-0.98	0.194	0.07	1.54	7.7	-2.87
12251	-1.012	0.16	0.021	-4.48	6.72	-2.38
12275	-1.004	0.174	0.069	-2.03	6.86	-3.85
12293	-0.985	0.181	0.086	-0.63	8.19	-6.23
12313	-0.978	0.146	0.074	2.45	11.41	-8.12
12337	-0.985	0.16	0.063	4.55	14.14	-9.8
12352	-0.964	0.166	0.053	6.02	16.45	-11.48
12376	-0.986	0.206	0.091	6.37	22.61	-11.97
12397	-1.026	0.073	0.12	17.01	30.94	-12.25
12417	-0.965	0.073	0.051	19.74	38.15	-14.42
12437	-0.878	0.095	0.074	11.55	50.89	-14.7
12456	-0.976	0.213	0.096	8.75	55.09	-12.11
12476	-1.069	0.192	-0.097	-2.03	52.36	-7.63
12496	-1.057	0.074	-0.111	-8.33	53.34	-5.11
12514	-0.952	-0.034	-0.075	6.23	48.44	-4.41
12538	-0.91	0.186	-0.2	1.89	46.76	-2.8
12555	-0.953	0.036	-0.143	-2.45	43.68	-3.29
12579	-1.049	0.053	-0.116	13.79	42.14	-2.8
12598	-1.005	0.174	-0.229	10.99	42.07	-2.66
12622	-1.035	0.209	-0.151	25.27	30.38	3.08
12642	-1.194	0.17	-0.102	35.35	13.72	-6.65
12662	-0.907	0.156	-0.28	13.51	41.65	-15.68
12682	-0.918	0.166	-0.255	-7.21	42.98	-13.44
12701	-1.133	0.116	-0.316	1.75	24.08	-11.13
12720	-0.981	-0.007	-0.35	14.56	30.17	-16.52
12739	-0.958	0.13	-0.106	15.12	32.41	-19.11
12762	-1.034	0.242	-0.175	14.84	34.51	-17.01
12786	-1.007	0.054	-0.383	1.47	33.32	-17.64
12805	-0.996	-0.027	-0.382	7.0	28.91	-18.34
12824	-0.858	0.162	-0.305	-2.1	35.91	-17.71
12844	-0.966	0.011	-0.314	-9.73	25.69	-17.57
12865	-0.94	0.08	-0.311	-3.78	21.84	-14.98
12889	-0.954	0.082	-0.311	-6.72	23.03	-13.09
12907	-1.01	-0.082	-0.444	1.68	18.06	-16.59
12929	-0.835	0.213	-0.245	-4.41	18.27	-15.96
12949	-1.022	-0.003	-0.408	-13.86	13.16	-12.25
12972	-0.918	-0.057	-0.273	-3.99	13.65	-12.53
12996	-0.923	0.084	-0.371	-5.11	10.36	-5.18
13012	-0.963	-0.055	-0.41	-11.55	10.64	-2.66
13031	-1.09	-0.069	-0.301	-4.41	8.61	0.7
13056	-0.878	0.017	-0.38	-7.21	12.6	3.78
13074	-0.933	-0.058	-0.412	-3.01	8.54	8.54
13095	-0.942	0.13	-0.345	-6.58	3.85	6.79
13118	-0.94	-0.03	-0.461	-8.12	0.0	11.13
13138	-0.958	0.094	-0.307	-4.48	-4.48	11.2
13162	-0.952	0.059	-0.334	-8.75	4.83	14.63
13181	-0.928	0.092	-0.333	-27.58	3.5	11.55
13199	-1.023	0.063	-0.364	-29.54	5.11	13.09
13219	-0.904	-0.066	-0.365	-15.96	11.41	15.12
13240	-0.91	0.027	-0.423	-16.1	6.86	14.77
13264	-0.915	0.267	-0.382	-23.45	7.98	13.02
13282	-0.936	-0.031	-0.359	-17.99	6.3	11.06
13304	-0.921	0.122	-0.355	-8.26	7.7	12.67
13324	-0.905	-0.052	-0.475	-5.46	7.7	12.46
13347	-0.919	0.183	-0.439	-9.1	0.21	10.08
13366	-0.957	0.061	-0.361	-3.01	-1.82	6.72
13384	-0.986	0.093	-0.418	2.73	-6.51	6.09
13404	-0.936	0.06	-0.479	2.38	-5.39	6.37
13424	-0.963	0.13	-0.364	5.46	-5.6	6.72
13444	-0.909	0.043	-0.382	5.67	-6.79	7.7
13467	-0.962	0.141	-0.399	4.97	-7.49	7.7
13486	-0.956	-0.019	-0.478	10.92	-12.18	3.64
13505	-0.893	0.202	-0.449	9.94	-11.97	1.68
13529	-0.945	0.113	-0.41	4.83	-15.33	-3.99
13549	-0.932	0.115	-0.335	9.31	-20.58	-5.46
13565	-0.981	0.083	-0.427	13.58	-20.3	-4.48
13590	-0.946	0.112	-0.345	10.99	-17.92	-3.92
13606	-0.906	0.113	-0.36	5.32	-14.63	-4.76
13626	-0.933	-0.013	-0.375	10.99	-13.65	-4.9
13650	-0.944	0.132	-0.424	9.38	-18.34	-5.46
13667	-0.911	0.044	-0.335	13.23	-17.57	-5.04
13688	-0.956	0.119	-0.354	3.5	-15.33	-5.95
13710	-0.962	0.079	-0.334	-4.13	-15.05	-6.23
13730	-0.945	0.047	-0.33	2.73	-15.61	-5.25
13754	-1.0	0.012	-0.41	-9.45	-16.52	-2.03
13774	-0.953	-0.067	-0.439	-1.89	-19.74	1.4
13794	-0.901	0.054	-0.281	4.62	-21.14	5.39
13813	-0.919	0.122	-0.301	-0.91	-23.31	5.46
13833	-0.979	0.068	-0.386	-8.68	-23.87	7.07
13854	-1.001	-0.05	-0.318	-9.8	-29.61	11.27
13878	-1.022	-0.022	-0.386	1.4	-33.39	17.71
13898	-0.985	-0.018	-0.394	7.0	-39.62	18.48
13918	-0.959	0.185	-0.201	-3.5	-39.76	18.9
13938	-1.043	0.153	-0.341	-19.81	-41.3	18.2
13953	-1.011	-0.017	-0.361	-13.16	-44.94	15.61
13977	-0.96	0.059	-0.264	-8.47	-48.65	15.19
13993	-0.989	0.105	-0.248	-6.16	-49.42	16.38
14013	-0.948	0.131	-0.195	-7.98	-52.15	14.49
14033	-1.005	0.181	-0.224	-8.12	-56.35	15.33
14053	-1.008	0.071	-0.224	-15.89	-58.59	14.7
14075	-1.013	0.174	-0.156	-11.41	-60.48	14.21
14094	-1.025	0.158	-0.158	-10.71	-60.55	13.58
14118	-1.018	0.12	-0.149	-8.19	-65.66	17.22
14138	-1.116	0.154	-0.03	-6.58	-68.25	20.09
14156	-1.022	0.112	-0.122	-7.42	-68.67	17.57
14175	-0.91	0.15	-0.025	-7.07	-64.19	17.22
14199	-0.886	0.24	0.022	-15.61	-55.44	15.89
14219	-0.889	0.189	0.042	-24.64	-47.81	15.68
14240	-0.903	0.098	0.123	-19.32	-38.5	15.89
14259	-0.928	0.104	0.137	-8.54	-31.57	15.82
14283	-0.91	0.232	0.154	-6.37	-22.26	13.86
14303	-0.932	0.252	0.122	-12.18	-10.08	11.34
14323	-1.048	0.224	0.086	-16.1	-7.14	7.28
14343	-1.024	0.178	0.061	-5.53	-7.49	5.74
14363	-1.008	0.216	0.054	-0.91	-6.37	4.41
14382	-1.027	0.219	0.08	0.0	-7.07	2.38
14402	-0.974	0.21	0.098	4.2	-4.97	0.91
14422	-0.95	0.222	0.101	4.62	-1.4	0.21
14445	-0.961	0.232	0.114	-0.49	4.13	-0.56
14465	-0.999	0.215	0.06	-5.67	6.65	0.0
14489	-1.029	0.148	0.04	-3.78	3.71	0.07
14509	-0.994	0.204	0.062	2.17	2.38	0.14
14529	-0.991	0.234	0.061	1.12	3.99	-0.98
14547	-1.002	0.198	0.062	-0.35	4.97	-1.89
14564	-0.998	0.157	0.055	2.52	4.76	-2.87
14588	-0.952	0.232	0.088	3.5	9.31	-5.32
14606	-0.98	0.21	0.065	1.05	11.34	-5.6
14626	-1.018	0.191	0.023	0.49	11.83	-6.58
14650	-0.992	0.173	0.033	0.28	12.04	-8.4
14670	-0.942	0.157	0.05	8.12	15.61	-9.8
14688	-0.995	0.173	0.067	13.51	17.15	-11.83
14709	-0.97	0.231	0.048	13.93	23.66	-14.56
14733	-0.996	0.172	0.099	10.5	29.68	-15.75
14753	-0.984	0.122	0.06	19.32	38.36	-18.2
14773	-0.915	0.185	0.022	20.65	44.45	-23.31
14793	-0.911	0.21	-0.041	4.55	52.92	-21.21
14817	-1.022	-0.008	-0.18	-2.1	52.01	-19.04
14837	-0.99	-0.009	-0.169	4.69	49.63	-13.65
14857	-0.95	-0.028	-0.075	17.85	47.67	-10.08
14875	-1.0	0.068	-0.192	23.38	44.24	-8.26
14893	-1.052	0.169	-0.145	17.08	44.87	-6.16
14913	-1.064	0.116	-0.17	20.86	47.18	-6.72
14937	-1.047	0.196	-0.08	21.7	49.35	-13.23
14957	-0.895	0.217	-0.366	8.75	54.39	-15.75
14977	-0.933	0.078	-0.274	-3.01	48.44	-11.41
14997	-1.08	0.066	-0.272	3.43	40.6	-11.06
15013	-0.949	0.141	-0.292	9.38	40.25	-12.53
15033	-1.025	0.081	-0.236	26.46	25.62	-9.73
15056	-0.935	0.193	-0.339	30.94	21.63	-9.94
15077	-0.892	0.037	-0.311	18.27	16.38	-10.99
15095	-1.075	-0.007	-0.384	2.52	18.41	-14.91
15115	-0.969	-0.041	-0.297	15.05	15.75	-17.99
15135	-0.874	0.015	-0.223	16.87	27.65	-17.5
15158	-1.005	0.146	-0.354	-4.62	28.14	-11.76
15177	-1.005	-0.014	-0.397	-11.13	22.47	-12.74
15199	-0.913	-0.018	-0.215	0.21	20.37	-10.85
15223	-1.008	0.045	-0.374	4.9	20.93	-7.91
15243	-1.015	-0.009	-0.448	3.01	11.48	-10.36
15263	-0.838	0.054	-0.391	2.38	16.94	-7.84
15281	-0.971	-0.069	-0.384	-1.33	11.69	-6.37
15299	-1.009	0.067	-0.318	-17.57	6.23	-8.19
15319	-0.811	0.191	-0.359	-13.09	20.44	-10.22
15339	-1.027	-0.045	-0.444	-17.29	5.67	-13.58
15363	-0.968	-0.132	-0.426	2.8	3.92	-16.03
15382	-0.84	0.011	-0.349	3.01	9.24	-17.99
15401	-0.971	0.029	-0.344	-9.52	5.25	-18.27
15420	-0.926	-0.061	-0.371	-8.12	5.25	-17.92
15443	-1.007	-0.154	-0.435	7.21	-4.34	-12.39
15467	-0.908	-0.072	-0.389	-7.49	9.1	-5.11
15487	-0.944	-0.011	-0.353	-18.48	9.87	-0.56
15505	-0.956	-0.128	-0.356	-19.18	11.06	6.93
15525	-0.879	-0.026	-0.345	-9.73	14.14	13.58
15545	-0.966	0.046	-0.462	-22.96	18.55	14.98
15569	-1.032	-0.102	-0.478	-19.25	3.43	10.64
15589	-0.911	-0.053	-0.427	-2.38	8.82	10.08
15608	-0.756	0.053	-0.425	-11.55	12.53	9.87
15629	-0.891	0.038	-0.359	-14.84	6.16	10.08
15648	-0.882	0.026	-0.44	-7.28	4.13	9.52
15672	-0.969	0.053	-0.385	-4.97	-2.45	8.68
15696	-1.019	0.02	-0.424	5.04	0.21	8.75
15716	-1.01	-0.081	-0.44	7.35	0.35	12.67
15735	-0.898	-0.035	-0.447	10.43	1.4	16.52
15758	-0.986	0.145	-0.499	1.89	-6.58	14.28
15776	-0.87	0.024	-0.525	5.88	-11.48	10.71
15798	-0.952	0.06	-0.507	1.82	-21.0	6.3
15818	-0.874	-0.007	-0.455	5.81	-19.39	4.76
15840	-0.943	0.096	-0.392	1.4	-20.58	4.76
15864	-0.895	-0.1	-0.456	2.17	-22.61	4.27
15884	-0.945	0.08	-0.364	6.58	-22.33	6.51
15903	-0.909	0.103	-0.332	0.91	-21.49	5.18
15927	-0.874	0.037	-0.389	7.84	-18.69	3.36
15947	-0.939	0.166	-0.326	2.24	-20.16	3.36
15964	-0.917	0.044	-0.349	-6.3	-15.47	3.22
15984	-0.939	-0.08	-0.404	-3.22	-14.07	5.95
16008	-0.919	0.129	-0.327	7.21	-19.11	8.05
16028	-0.971	0.115	-0.303	-8.82	-16.52	8.12
16049	-0.95	-0.025	-0.416	-3.99	-18.9	7.49
16065	-1.008	0.091	-0.257	6.3	-23.66	10.85
16088	-0.935	-0.032	-0.393	2.73	-27.3	8.89
16109	-0.996	0.023	-0.311	6.3	-27.44	10.92
16128	-0.979	0.004	-0.425	5.53	-31.71	8.89
16151	-0.91	0.112	-0.311	-0.98	-32.83	10.29
16172	-0.986	0.135	-0.283	-10.57	-33.81	13.65
16192	-1.037	-0.061	-0.433	-6.58	-44.66	12.39
16211	-0.963	0.016	-0.258	1.89	-45.43	13.86
16229	-0.949	0.146	-0.258	4.55	-43.33	16.45
16253	-1.033	0.092	-0.212	-6.44	-45.36	16.45
16273	-1.01	0.096	-0.275	-10.5	-46.83	13.86
16292	-0.978	0.025	-0.274	-9.52	-49.07	14.84
16316	-0.918	0.108	-0.169	-8.19	-47.46	16.59
16336	-1.0	0.126	-0.21	-19.88	-48.79	17.71
16355	-1.041	0.073	-0.169	-18.06	-53.76	18.27
16376	-1.004	0.094	-0.148	-10.29	-49.07	17.99
16395	-0.983	0.136	-0.164	-11.97	-54.74	17.36
16419	-1.063	0.134	-0.186	-18.34	-62.79	21.35
16438	-1.031	0.101	-0.084	-12.46	-61.67	19.25
16462	-0.968	0.145	-0.058	-4.27	-60.97	18.62
16480	-0.932	0.152	-0.02	-3.78	-60.55	19.39
16502	-0.96	0.244	0.009	-7.49	-54.88	17.78
16521	-0.907	0.19	0.093	-20.65	-45.85	18.48
16542	-0.926	0.062	0.134	-17.99	-39.06	20.72
16566	-0.928	0.084	0.078	-10.57	-34.79	22.26
16586	-0.948	0.183	0.106	-3.57	-26.25	21.84
16604	-0.95	0.281	0.085	-4.27	-21.28	20.09
16626	-0.966	0.233	0.074	-17.92	-17.43	16.66
16642	-0.963	0.214	0.104	-16.52	-14.7	14.56
16664	-0.933	0.264	0.146	-10.5	-6.72	9.38
16684	-1.011	0.305	0.121	-7.42	-3.29	3.43
16708	-0.944	0.279	0.099	2.17	-0.14	-2.73
16728	-0.959	0.267	0.059	3.43	1.54	-4.97
16748	-0.998	0.182	0.076	4.2	0.98	-4.9
16768	-0.98	0.171	0.083	6.44	3.08	-2.73
16783	-1.009	0.19	0.06	0.84	3.5	-1.33
16806	-1.025	0.183	0.043	-2.52	1.54	0.77
16828	-0.994	0.206	0.048	-1.75	-0.07	1.4
16848	-0.977	0.241	0.07	-0.21	0.63	0.07
16872	-0.966	0.24	0.087	-1.54	4.2	-3.01
16891	-0.963	0.243	0.093	-2.59	8.33	-6.72
16909	-0.951	0.243	0.101	-2.66	13.37	-10.71
16928	-0.95	0.216	0.107	1.61	18.62	-13.51
16948	-1.027	0.215	0.061	4.76	21.77	-14.42
16968	-1.038	0.113	0.035	11.83	21.07	-14.84
16992	-0.976	0.146	0.04	14.84	23.94	-14.28
17012	-0.981	0.17	0.063	18.06	27.3	-14.98
17029	-0.977	0.189	0.054	19.04	31.36	-14.98
17053	-0.975	0.141	0.051	23.87	39.48	-15.96
17073	-0.895	0.207	-0.004	22.12	48.79	-21.77
17093	-0.83	0.098	0.045	8.75	62.58	-24.64
17113	-0.901	-0.009	-0.073	13.02	63.7	-24.64
17133	-1.071	0.197	-0.121	15.96	60.62	-15.12
17150	-1.067	0.134	-0.154	10.15	60.06	-16.94
17174	-1.027	-0.027	-0.213	20.65	51.1	-16.94
17193	-0.973	0.151	-0.183	25.48	47.6	-12.81
17217	-1.011	0.137	-0.188	11.34	50.05	-12.74
17237	-1.046	0.135	-0.186	5.46	45.99	-15.33
17256	-0.997	0.194	-0.179	2.59	46.83	-13.86
17277	-1.002	0.02	-0.255	4.34	46.27	-18.55
17295	-0.945	0.076	-0.307	7.0	44.73	-19.88
17319	-0.947	0.089	-0.323	0.7	42.63	-18.69
17339	-1.019	0.11	-0.197	-8.05	36.05	-18.9
17363	-0.973	0.068	-0.392	-6.23	37.24	-20.23
17383	-1.021	0.053	-0.24	2.94	26.81	-6.72
17403	-0.985	-0.117	-0.26	11.13	28.07	-6.37
17419	-0.904	0.043	-0.392	25.41	20.09	-3.5
17440	-1.044	0.139	-0.37	4.41	22.61	1.61
17464	-1.05	0.019	-0.183	11.62	11.97	-2.94
17484	-0.881	0.042	-0.496	13.65	23.52	-0.91
17508	-1.035	0.007	-0.371	1.33	11.2	-0.42
17523	-0.955	-0.053	-0.484	5.18	17.29	-0.77
17548	-0.861	0.032	-0.468	9.94	11.83	17.78
17566	-0.946	0.017	-0.45	8.68	1.75	0.28
17590	-0.971	0.024	-0.28	8.12	1.4	-3.78
17610	-0.98	0.092	-0.517	2.1	1.33	-5.6
17629	-0.906	-0.041	-0.494	-4.27	1.47	-7.77
17650	-0.82	-0.003	-0.304	2.73	1.05	-9.17
17670	-0.915	0.157	-0.331	-4.27	2.73	-4.48
17689	-0.968	-0.03	-0.349	-10.57	7.07	-2.73
17713	-0.812	0.006	-0.368	-8.33	12.67	5.32
17730	-0.946	0.068	-0.325	-17.92	15.75	10.78
17750	-0.897	-0.183	-0.399	-18.69	18.48	14.91
17774	-0.905	0.057	-0.341	-15.54	21.14	22.4
17793	-0.902	0.029	-0.393	-20.3	25.62	22.47
17815	-1.02	0.194	-0.453	-21.42	15.4	18.48
17835	-0.958	-0.057	-0.457	-17.99	11.76	11.34
17859	-0.863	0.173	-0.418	-6.3	13.65	11.76
17876	-0.863	-0.001	-0.461	-17.64	15.19	9.52
17895	-0.992	0.176	-0.38	-13.93	5.6	6.44
17920	-0.87	0.033	-0.444	3.85	5.11	7.49
17939	-0.878	0.239	-0.423	-9.8	10.15	3.92
17960	-0.982	0.02	-0.461	-2.8	0.56	0.56
17980	-0.887	0.076	-0.488	5.88	0.7	0.84
18004	-0.924	-0.007	-0.459	7.28	0.28	1.19
18024	-0.934	0.193	-0.51	3.43	-3.78	-0.77
18044	-0.929	0.035	-0.528	-1.61	-11.55	-0.91
18064	-0.904	0.067	-0.416	7.0	-11.69	1.33
18084	-0.941	0.079	-0.465	10.5	-16.17	0.0
18108	-0.973	0.087	-0.47	5.04	-20.65	0.7
18128	-0.896	-0.017	-0.458	13.16	-18.41	1.68
18147	-0.922	0.169	-0.387	6.23	-19.11	0.7
18167	-0.956	-0.029	-0.481	4.13	-20.09	-2.24
18191	-0.893	0.14	-0.435	14.49	-22.4	-3.15
18209	-0.919	0.091	-0.441	4.83	-23.45	-4.13
18228	-0.944	-0.015	-0.401	10.29	-22.54	-3.08
18251	-0.904	0.147	-0.334	6.37	-19.11	-1.47
18269	-0.918	-0.001	-0.434	1.4	-17.5	0.63
18289	-0.875	0.036	-0.42	8.26	-18.69	3.71
18309	-0.926	0.063	-0.34	4.48	-20.79	6.3
18333	-0.935	0.034	-0.397	0.28	-18.13	6.65
18352	-0.929	0.2	-0.317	-1.26	-18.06	5.32
18372	-0.903	-0.051	-0.462	-6.93	-17.99	-0.14
18393	-0.924	0.001	-0.404	-1.68	-24.78	4.13
18413	-1.012	0.063	-0.362	5.6	-35.7	5.74
18432	-0.958	-0.012	-0.373	8.54	-35.7	4.76
18450	-0.914	0.127	-0.327	0.07	-33.6	6.86
18470	-0.977	0.166	-0.272	-18.62	-34.51	9.87
18490	-1.009	0.025	-0.406	-19.18	-32.76	8.68
18512	-0.983	-0.001	-0.404	-10.15	-38.78	12.25
18535	-0.988	0.026	-0.301	-7.49	-47.81	14.56
18556	-1.015	0.067	-0.264	-5.25	-52.64	15.33
18575	-0.962	0.057	-0.28	-8.33	-52.36	14.7
18595	-0.983	0.093	-0.237	-12.25	-53.83	15.47
18615	-0.993	0.097	-0.193	-13.3	-54.39	14.14
18639	-0.931	0.15	-0.155	-13.79	-51.59	14.07
18656	-0.985	0.1	-0.216	-15.96	-51.17	17.36
18679	-0.976	0.172	-0.151	-18.2	-53.76	17.85
18699	-1.055	0.158	-0.179	-20.23	-51.73	18.48
18722	-0.999	0.082	-0.061	-14.14	-55.23	16.52
18741	-1.005	0.136	-0.192	-6.65	-55.93	18.34
18766	-1.048	0.175	-0.044	-5.25	-55.09	18.48
18790	-1.0	0.14	-0.023	-2.94	-55.3	14.28
18810	-0.867	0.205	0.032	-4.69	-42.21	14.49
18830	-0.909	0.22	-0.009	-18.55	-38.15	13.86
18846	-0.954	0.091	0.023	-17.01	-34.65	12.11
18870	-0.952	0.09	0.059	-1.12	-30.8	12.18
18887	-0.949	0.221	0.05	1.47	-25.27	12.11
18910	-0.977	0.224	0.062	-1.89	-22.54	11.13
18930	-0.994	0.205	0.059	-4.06	-18.69	10.36
18949	-0.985	0.207	0.039	-6.93	-17.71	10.64
18966	-0.987	0.193	0.047	-8.47	-15.33	11.34
18986	-1.027	0.154	0.068	-8.47	-14.42	11.2
19005	-1.029	0.215	0.072	-6.23	-13.72	9.87
19029	-0.961	0.227	0.076	-1.75	-11.27	6.72
19050	-0.926	0.305	0.107	-3.08	-5.81	3.29
19065	-0.942	0.301	0.116	-6.02	-1.33	1.05
19090	-0.99	0.191	0.074	-5.18	2.45	-0.56
19114	-1.002	0.181	0.068	-2.17	2.8	-0.21
19134	-1.009	0.169	0.036	0.7	1.75	-0.35
19152	-0.947	0.203	0.074	2.52	3.99	-1.19
19175	-0.963	0.135	0.144	-2.45	12.74	-0.42
19196	-0.999	0.204	0.116	0.49	15.96	-3.85
19216	-0.972	0.246	0.022	-5.53	19.11	-8.4
19235	-0.871	0.21	0.071	0.14	24.43	-14.7
19256	-0.911	0.555	0.109	-0.91	34.79	-16.17
19279	-1.051	0.08	-0.043	-3.01	30.8	-22.75
19303	-0.991	0.08	-0.006	21.98	30.87	-24.92
19323	-0.927	0.153	0.018	26.39	38.01	-28.7
19339	-0.908	0.206	0.003	21.35	40.81	-30.8
19363	-0.937	0.3	-0.007	18.34	50.05	-31.64
19383	-0.978	0.198	-0.113	3.29	56.21	-33.95
19401	-0.99	-0.033	-0.127	1.47	57.4	-30.1
19422	-1.111	0.075	-0.105	53.2	41.44	-15.82
19442	-0.973	0.078	-0.29	16.87	43.12	-16.87
19465	-1.039	-0.083	-0.183	12.74	41.51	-7.14
19489	-0.903	0.077	-0.162	40.6	42.56	-3.36
19506	-1.028	0.129	-0.167	16.38	40.32	-8.54
19526	-0.89	0.071	-0.303	8.47	35.56	-9.66
19546	-1.025	0.11	-0.293	10.29	29.82	-3.92
19570	-1.024	-0.027	-0.232	16.73	27.79	-7.77
19590	-0.92	0.091	-0.19	15.89	32.97	-10.29
19610	-1.014	0.127	-0.26	7.56	26.81	-8.26
19633	-0.936	0.092	-0.357	8.19	30.8	-12.88
19654	-0.918	0.022	-0.296	-6.16	35.0	-8.89
19674	-1.04	-0.073	-0.268	8.61	28.14	-5.67
19694	-0.969	0.067	-0.309	22.82	21.84	-5.11
19713	-0.987	0.099	-0.381	7.07	28.42	-5.6
19732	-0.943	0.089	-0.257	-4.83	25.9	-7.42
19751	-0.98	0.046	-0.377	-2.8	19.18	-3.08
19775	-1.032	-0.214	-0.423	19.39	18.97	1.12
19796	-0.854	0.282	-0.428	14.07	18.9	-7.42
19816	-0.915	0.095	-0.358	-15.75	21.21	-12.88
19836	-0.935	-0.129	-0.476	-7.0	20.09	-13.23
19854	-0.926	0.159	-0.312	3.71	9.87	-14.07
19872	-0.991	0.121	-0.404	1.4	7.0	-12.25
19894	-1.014	-0.237	-0.356	1.12	7.0	-6.58
19914	-0.974	0.038	-0.266	10.36	11.83	-1.82
19933	-0.932	0.001	-0.334	-2.87	20.09	-1.47
19958	-0.929	0.038	-0.425	-11.55	10.57	-0.35
19978	-0.934	-0.064	-0.388	-12.32	14.91	4.69
19997	-0.865	-0.064	-0.361	-7.77	18.55	9.24
20018	-0.839	0.146	-0.376	-14.21	24.01	10.85
20036	-0.918	0.141	-0.428	-28.77	22.4	7.07
20057	-0.903	-0.017	-0.519	-37.87	18.06	3.57
20080	-0.952	-0.054	-0.437	-8.96	6.65	0.21
20104	-0.792	0.216	-0.486	-16.8	10.01	-1.26
20119	-0.873	0.075	-0.375	-25.9	6.72	-0.91
20143	-0.916	-0.044	-0.396	-15.33	3.57	4.41
20167	-0.88	-0.06	-0.428	-6.3	5.39	9.31
20187	-0.874	0.127	-0.389	-9.31	3.01	13.3
20207	-0.896	0.009	-0.372	-16.73	8.89	15.89
20226	-0.954	-0.034	-0.456	-1.47	6.65	16.8
20247	-0.989	0.117	-0.463	-3.15	5.32	11.13
20267	-0.859	0.047	-0.56	1.75	1.82	8.19
20285	-0.797	0.134	-0.466	1.68	4.97	3.85
20305	-0.938	0.103	-0.448	1.68	0.07	-0.91
20323	-0.956	0.102	-0.432	1.26	-2.45	-3.29
20343	-0.973	0.071	-0.479	1.68	-9.17	-2.52
20367	-0.922	0.039	-0.411	1.33	-15.4	0.77
20390	-0.913	-0.007	-0.466	4.97	-12.74	5.04
20410	-0.915	0.077	-0.453	1.75	-10.92	4.41
20430	-0.902	0.09	-0.404	-6.16	-8.61	3.29
20450	-0.863	-0.011	-0.448	1.12	-8.82	4.27
20469	-0.911	0.083	-0.456	5.95	-13.3	3.43
20490	-0.912	0.061	-0.426	6.44	-13.37	0.56
20514	-0.917	0.072	-0.385	7.63	-13.44	-0.07
20534	-0.937	0.115	-0.411	5.25	-12.11	-3.57
20551	-0.855	-0.009	-0.539	8.47	-15.61	-5.39
20575	-0.961	0.123	-0.322	15.26	-21.84	-2.8
20595	-0.952	0.046	-0.403	8.82	-14.07	-5.11
20619	-0.885	0.162	-0.413	5.46	-14.56	-6.44
20634	-0.925	0.059	-0.394	-4.62	-11.48	-5.6
20656	-0.912	-0.02	-0.358	-6.86	-10.57	-3.01
20677	-0.99	0.08	-0.443	0.91	-18.83	-1.12
20696	-0.998	0.07	-0.281	4.76	-19.25	-0.91
20720	-0.995	-0.01	-0.444	-9.59	-12.81	-3.01
20742	-0.952	-0.051	-0.457	-20.86	-16.94	0.63
20765	-0.939	-0.053	-0.389	-8.26	-24.64	5.88
20784	-0.949	-0.016	-0.358	0.56	-26.11	8.68
20804	-0.943	0.218	-0.323	-11.27	-27.16	9.45
20823	-0.98	0.044	-0.409	-19.67	-28.7	8.68
20848	-0.992	-0.037	-0.397	-7.98	-40.46	12.53
20868	-0.982	0.047	-0.373	2.52	-43.89	16.38
20892	-0.994	0.067	-0.302	4.9	-46.55	15.19
20911	-0.978	0.145	-0.261	4.69	-50.47	13.09
20932	-0.972	0.11	-0.286	-3.36	-50.96	13.02
20952	-0.991	0.107	-0.379	-8.05	-54.74	16.17
20972	-1.037	0.026	-0.216	-3.78	-61.18	17.71
20988	-0.957	0.099	-0.127	6.3	-59.78	14.21
21012	-0.959	0.147	-0.244	-3.78	-56.98	18.34
21032	-1.029	0.069	-0.221	-11.97	-62.72	21.28
21048	-1.012	0.089	-0.072	-1.4	-59.22	17.08
21068	-0.96	0.225	-0.128	-0.35	-57.96	17.08
21092	-0.998	0.191	-0.14	-14.21	-57.33	18.2
21111	-1.021	0.134	-0.067	-8.19	-55.72	13.72
21131	-0.985	0.19	-0.102	-8.19	-56.28	13.02
21155	-0.975	0.152	-0.055	-10.22	-52.85	10.71
21175	-0.94	0.102	0.001	-14.84	-48.51	11.55
21195	-0.96	0.071	-0.004	-16.1	-45.43	14.56
21214	-0.939	0.071	0.052	-9.31	-41.51	17.5
21236	-0.918	0.134	0.068	-4.76	-34.44	21.42
21260	-0.974	0.177	0.057	-9.1	-29.61	22.12
21277	-0.982	0.193	0.049	-11.34	-27.86	22.54
21297	-1.0	0.202	0.041	-12.74	-24.78	22.82
21321	-1.038	0.183	0.065	-16.31	-22.89	21.56
21341	-1.013	0.233	0.123	-10.15	-19.88	17.71
21356	-0.862	0.346	0.183	-5.18	-11.55	10.57
21381	-0.826	0.459	0.203	-9.17	6.02	-0.14
21401	-0.973	0.294	0.089	-7.84	11.2	-5.95
21421	-1.045	0.097	0.039	1.68	9.94	-7.21
21440	-1.003	0.131	0.013	10.5	6.93	-6.09
21456	-0.998	0.16	0.02	9.66	4.83	-5.32
21480	-0.975	0.152	0.034	7.14	3.71	-4.9
21503	-0.985	0.219	0.036	4.34	3.78	-1.89
21523	-1.034	0.18	0.022	-0.7	1.19	-0.77
21544	-1.0	0.178	0.009	0.49	-1.75	-0.49
21564	-1.013	0.212	0.091	23.17	-9.17	-1.26
21583	-0.835	0.266	0.171	9.1	7.91	-13.16
21608	-0.812	0.482	0.27	-5.32	24.43	-20.93
21628	-0.996	0.19	0.131	-13.51	41.86	-27.09
21648	-0.999	0.121	0.071	-1.96	48.51	-31.57
21664	-1.014	0.199	0.06	2.17	52.36	-32.2
21685	-1.03	0.096	-0.16	9.24	49.63	-33.74
21708	-0.999	-0.031	-0.208	12.11	38.36	-23.94
21728	-0.974	-0.045	-0.167	23.31	30.73	-13.16
21748	-0.979	0.012	-0.11	14.49	22.68	-8.12
21772	-0.89	0.117	-0.12	11.13	22.54	-10.5
21793	-0.842	0.146	-0.058	5.46	31.08	-12.81
21812	-0.907	0.07	0.012	7.28	40.11	-11.41
21832	-1.163	0.22	-0.012	9.66	43.47	-3.08
21850	-1.209	0.07	-0.161	-3.15	48.93	-6.93
21874	-1.027	-0.091	-0.207	17.85	39.41	-2.38
21894	-1.006	0.018	-0.162	64.12	34.37	9.94
21913	-0.985	0.136	-0.239	42.35	41.09	10.99
21938	-1.057	0.198	-0.238	34.02	35.49	-0.49
21956	-0.924	0.198	-0.256	12.88	38.85	-8.33
21978	-1.037	0.104	-0.187	-1.05	31.29	-8.19
21998	-1.008	0.003	-0.223	9.66	27.58	-12.74
22022	-0.764	0.14	-0.164	14.56	31.78	-13.44
22038	-1.066	0.137	-0.306	11.76	24.99	-7.84
22062	-0.935	0.063	-0.31	10.85	31.15	-10.78
22082	-1.109	0.061	-0.328	13.02	18.9	-7.91
22098	-0.863	0.097	-0.294	17.78	19.95	-15.68
22123	-0.97	0.219	-0.267	-2.17	20.86	-14.84
22142	-0.969	0.055	-0.282	-5.67	24.22	-18.27
22162	-0.932	0.047	-0.319	-5.46	24.78	-17.36
22181	-0.964	0.066	-0.285	-6.93	24.15	-14.63
22206	-0.88	-0.026	-0.302	0.91	25.2	-11.48
22226	-0.984	0.029	-0.405	-1.4	16.73	-9.52
22245	-0.947	-0.037	-0.402	-2.8	16.52	-10.92
22266	-0.896	-0.015	-0.407	8.75	13.86	-9.31
22290	-0.87	0.064	-0.39	-0.42	16.38	-9.52
22310	-0.99	0.055	-0.396	-12.46	12.39	-9.8
22329	-0.874	-0.144	-0.426	-1.61	8.75	-4.69
22350	-0.942	-0.004	-0.471	7.7	-2.66	0.84
22370	-0.974	0.085	-0.388	9.52	-7.7	1.61
22387	-0.981	0.016	-0.343	0.0	-3.85	1.47
22407	-0.886	-0.028	-0.358	-2.1	3.57	3.01
22431	-0.81	-0.026	-0.317	-12.81	18.62	11.48
22451	-0.916	-0.089	-0.302	-18.13	20.58	12.11
22468	-0.994	0.031	-0.413	-11.34	16.59	13.37
22492	-0.987	-0.025	-0.481	-9.94	12.6	5.39
22510	-1.096	0.029	-0.444	-4.83	10.01	1.82
22531	-0.818	0.081	-0.526	-18.48	14.21	-6.02
22549	-0.848	0.039	-0.413	-15.75	9.1	-8.54
22568	-0.895	-0.099	-0.314	-4.2	6.65	-5.46
22589	-0.953	0.096	-0.37	-5.95	11.06	-3.43
22613	-0.96	0.067	-0.45	-10.5	6.65	-5.04
22633	-0.924	0.036	-0.41	-7.98	2.24	-5.74
22653	-0.854	-0.046	-0.466	-8.05	3.5	-2.8
22673	-0.876	0.053	-0.462	-15.61	3.22	-0.84
22695	-0.868	-0.099	-0.449	-7.35	2.17	0.21
22719	-0.902	0.016	-0.451	-0.21	-1.75	3.29
22736	-0.95	0.043	-0.461	-2.52	-0.7	3.36
22760	-0.84	-0.106	-0.451	2.73	-11.41	5.25
22780	-0.976	0.04	-0.453	3.22	-10.43	10.22
22799	-0.879	-0.016	-0.511	4.34	-14.49	10.01
22818	-0.926	0.013	-0.424	1.89	-15.33	9.73
22842	-0.921	-0.02	-0.426	4.13	-15.89	8.68
22862	-0.833	0.013	-0.456	12.11	-19.18	7.77
22882	-0.9	0.069	-0.454	6.72	-23.87	4.62
22902	-0.943	0.101	-0.33	3.85	-24.71	2.59
22922	-0.921	-0.004	-0.397	7.14	-23.1	2.03
22941	-0.894	0.098	-0.373	2.38	-20.86	1.4
22965	-0.973	0.049	-0.314	-6.72	-17.78	1.61
22981	-0.991	-0.058	-0.346	-7.21	-16.87	-0.35
23005	-0.909	-0.014	-0.453	2.31	-17.78	2.17
23025	-0.884	0.013	-0.339	-3.08	-16.38	7.21
23045	-0.894	-0.12	-0.339	16.94	-15.33	9.31
23060	-0.996	0.075	-0.327	15.89	-14.14	10.29
23083	-0.93	0.124	-0.431	-0.63	-12.46	5.32
23107	-0.85	0.056	-0.328	-6.58	-12.6	4.83
23126	-0.988	0.003	-0.303	9.03	-23.59	8.12
23146	-0.972	0.085	-0.382	11.41	-24.15	9.66
23166	-0.958	0.025	-0.347	9.1	-23.1	7.84
23190	-0.984	0.106	-0.254	6.93	-23.87	6.09
23206	-0.936	0.081	-0.41	-2.59	-25.2	4.41
23230	-0.967	0.035	-0.328	-2.66	-35.98	2.59
23250	-0.993	0.01	-0.255	1.12	-38.5	3.99
23270	-1.026	0.135	-0.244	-13.23	-35.91	6.51
23290	-1.001	0.037	-0.376	-20.72	-32.97	1.75
23309	-0.924	0.118	-0.249	-33.18	-35.42	2.59
23326	-0.943	0.098	-0.243	-41.51	-29.61	6.16
23345	-0.996	-0.046	-0.203	-41.3	-31.01	7.28
23365	-0.98	-0.036	-0.211	-0.7	-37.03	7.14
23390	-0.974	0.05	-0.151	-5.18	-40.46	14.07
23406	-1.02	-0.019	-0.203	0.84	-45.64	15.75
23427	-1.009	0.055	-0.215	4.06	-46.41	21.91
23449	-1.002	0.067	-0.17	-1.47	-44.38	19.88
23469	-1.009	0.114	-0.105	-2.24	-45.36	20.93
23493	-1.008	0.139	-0.179	-5.11	-51.66	21.84
23512	-1.062	0.061	-0.225	-7.7	-58.17	21.0
23532	-1.01	0.11	-0.082	6.09	-60.13	15.54
23553	-0.954	0.191	-0.083	3.08	-64.4	15.82
23575	-0.944	0.205	-0.037	-9.87	-61.11	20.16
23596	-0.999	0.105	0.046	-15.26	-57.05	20.02
23620	-0.973	0.101	0.064	-19.39	-49.21	24.29
23640	-0.967	0.025	0.077	-21.35	-45.36	28.07
23658	-0.955	0.032	0.121	-9.66	-40.88	29.75
23679	-0.926	0.18	0.104	1.89	-36.05	28.84
23703	-0.952	0.295	0.068	-7.77	-28.98	26.04
23723	-0.966	0.24	0.098	-18.62	-23.31	23.1
23740	-0.955	0.221	0.139	-19.18	-19.25	19.81
23764	-0.868	0.241	0.186	-14.98	-10.99	9.94
23784	-0.877	0.369	0.197	-7.42	3.08	2.59
23804	-1.001	0.296	0.12	-6.3	7.98	-4.13
23819	-1.042	0.168	0.057	3.78	5.67	-6.93
23844	-1.007	0.149	0.046	12.18	2.87	-7.0
23863	-0.988	0.184	0.073	10.08	2.8	-5.25
23881	-1.002	0.185	0.074	4.55	2.38	-3.29
23900	-1.01	0.183	0.057	0.63	2.38	-0.84
23925	-1.018	0.175	0.055	-1.61	0.49	1.12
23943	-0.993	0.163	0.053	-0.98	-1.33	1.89
23967	-1.013	0.178	0.074	1.33	-2.17	2.31
23987	-1.014	0.212	0.097	0.35	-1.05	2.59
24006	-0.999	0.22	0.09	-1.54	1.47	1.26
24023	-0.956	0.209	0.122	-2.52	4.97	-1.96
24042	-0.938	0.264	0.112	0.21	11.97	-6.44
24063	-0.966	0.253	0.08	-0.77	16.24	-9.73
24087	-0.965	0.153	0.053	7.21	18.9	-13.16
24106	-0.965	0.177	0.097	12.46	24.43	-16.38
24125	-0.943	0.269	0.112	12.39	32.69	-19.53
24145	-0.974	0.181	0.065	9.38	38.57	-21.56
24169	-0.956	0.087	0.066	18.27	48.37	-26.04
24184	-0.904	0.104	0.074	28.0	57.82	-28.14
24209	-0.806	0.156	0.017	24.92	72.03	-32.2
24226	-0.873	0.111	-0.021	25.27	76.37	-25.83
24246	-1.045	-0.045	-0.127	8.12	77.07	-19.88
24270	-1.09	0.054	-0.261	17.78	63.21	-6.37
24290	-1.098	0.113	-0.043	41.16	51.03	-1.54
24308	-0.969	0.101	-0.314	42.91	56.42	-5.95
24332	-1.051	0.116	-0.189	22.12	49.0	-7.56
24352	-1.013	0.286	-0.346	32.69	47.67	-14.14
24372	-1.035	0.253	-0.212	10.78	29.61	-15.4
24395	-0.9	0.064	-0.447	-12.88	46.55	-25.06
24416	-0.991	-0.044	-0.351	-6.3	31.43	-20.79
24436	-0.997	-0.07	-0.292	3.5	36.82	-25.06
24455	-0.916	0.143	-0.352	7.91	35.56	-26.18
24475	-0.986	0.178	-0.291	-9.31	35.63	-20.65
24495	-1.021	-0.058	-0.357	-13.02	30.31	-18.06
24519	-0.978	-0.108	-0.365	-1.96	29.82	-14.35
24536	-0.853	-0.017	-0.493	3.71	35.42	-10.78
24559	-0.935	-0.117	-0.414	2.59	21.14	-7.63
24576	-0.874	0.085	-0.295	5.53	19.95	-7.63
24600	-0.964	0.053	-0.327	-0.7	22.61	-5.04
24620	-1.039	-0.047	-0.44	1.96	12.67	-2.38
24640	-0.874	-0.036	-0.382	6.23	13.79	-4.41
24660	-0.785	0.109	-0.286	-5.53	22.54	-1.82
24677	-1.01	-0.057	-0.383	-7.63	17.36	0.28
24697	-0.957	-0.036	-0.483	2.24	12.67	-2.31
24719	-0.942	0.137	-0.401	0.07	8.82	-6.65
24743	-0.955	-0.056	-0.415	-9.38	3.64	-10.85
24763	-1.022	-0.08	-0.43	0.49	0.28	-9.03
24781	-0.888	0.05	-0.477	-3.64	1.75	-8.89
24803	-0.951	-0.031	-0.38	-3.36	0.49	-5.67
24823	-0.944	-0.023	-0.428	-2.31	5.39	0.0
24844	-0.854	0.006	-0.378	-9.66	11.9	3.29
24862	-0.953	-0.051	-0.358	-14.28	12.04	6.3
24881	-0.891	-0.056	-0.353	-7.21	17.43	9.38
24906	-0.828	-0.079	-0.477	-13.23	21.14	9.73
24921	-0.929	0.055	-0.421	-10.29	17.29	8.05
24946	-0.87	0.07	-0.407	1.05	11.2	6.58
24966	-0.81	0.094	-0.368	-4.41	14.0	5.25
24986	-0.931	0.03	-0.405	-8.4	17.85	5.95
25005	-0.891	-0.006	-0.472	-7.7	16.8	4.2
25028	-0.858	0.115	-0.441	-13.51	16.73	-0.42
25051	-0.916	0.061	-0.462	-9.38	11.06	-1.61
25072	-0.792	-0.001	-0.464	-1.12	5.81	-1.47
25092	-1.004	-0.042	-0.505	-3.57	5.11	-2.03
25110	-1.009	0.005	-0.561	4.06	-3.29	-2.1
25130	-0.875	-0.032	-0.533	6.02	-7.7	-0.63
25153	-0.908	0.021	-0.49	-0.7	-8.05	0.42
25174	-0.856	-0.051	-0.493	3.43	-15.19	2.66
25189	-0.901	-0.017	-0.486	6.44	-17.15	5.39
25213	-0.928	0.091	-0.481	1.54	-22.89	5.6
25234	-0.92	-0.045	-0.449	8.89	-25.97	4.76
25254	-0.896	0.106	-0.447	6.79	-23.38	2.66
25274	-0.907	0.005	-0.473	4.9	-28.63	0.42
25294	-0.875	0.063	-0.404	7.63	-27.51	0.56
25314	-0.913	0.074	-0.413	2.87	-25.97	-1.19
25334	-0.947	-0.035	-0.413	11.69	-27.16	-2.45
25358	-0.864	0.111	-0.418	2.45	-24.22	-4.27
25378	-0.915	0.017	-0.376	1.54	-23.52	-2.38
25398	-0.919	-0.077	-0.395	1.33	-18.97	0.21
25418	-0.93	-0.083	-0.388	6.93	-19.11	3.15
25435	-0.915	0.068	-0.406	-2.52	-19.46	3.78
25453	-0.924	0.033	-0.371	-3.85	-19.81	2.52
25478	-0.929	-0.087	-0.316	-1.75	-20.02	4.83
25498	-0.976	-0.045	-0.393	-1.61	-23.17	8.33
25517	-0.967	0.02	-0.429	0.0	-23.17	9.66
25538	-0.991	0.012	-0.306	-0.35	-29.26	9.52
25558	-0.952	-0.024	-0.341	-0.98	-25.55	9.87
25577	-0.981	0.102	-0.345	-15.68	-27.58	10.64
25598	-1.008	0.02	-0.357	-13.72	-31.71	10.01
25614	-0.923	-0.01	-0.31	-8.47	-29.82	7.7
25638	-0.971	0.005	-0.348	-6.51	-32.9	11.06
25656	-0.966	0.001	-0.298	-9.94	-31.5	12.04
25680	-0.99	0.047	-0.304	-2.59	-34.51	13.3
25700	-0.969	0.088	-0.248	-2.52	-35.91	14.28
25720	-0.958	0.028	-0.356	-6.65	-39.13	13.16
25740	-1.027	0.065	-0.283	-11.27	-44.66	17.99
25764	-0.981	-0.011	-0.204	-0.63	-44.73	12.39
25780	-0.975	0.044	-0.333	3.22	-44.1	15.54
25803	-1.012	0.091	-0.242	-6.23	-50.89	19.88
25822	-0.996	0.02	-0.235	-3.08	-49.84	15.61
25846	-1.011	0.186	-0.09	-7.49	-51.03	19.32
25866	-1.046	0.077	-0.213	-15.54	-52.64	19.6
25884	-0.997	0.03	-0.109	-9.8	-56.42	21.21
25906	-0.977	0.176	-0.074	-7.7	-52.15	25.97
25926	-1.028	0.05	-0.146	-15.19	-60.55	25.9
25946	-1.007	0.194	-0.014	-7.7	-53.69	24.78
25961	-1.039	0.16	-0.06	-11.83	-58.38	24.85
25986	-0.96	0.148	-0.055	-10.64	-53.34	19.6
26006	-0.893	0.12	-0.005	-15.12	-48.23	19.74
26025	-0.925	0.066	0.024	-16.31	-44.87	21.28
26044	-0.939	0.069	0.054	-7.56	-40.6	24.08
26068	-0.989	0.145	0.072	-6.02	-36.68	26.53
26092	-1.008	0.156	0.044	-6.93	-36.61	26.95
26111	-0.956	0.153	0.061	-2.38	-34.44	27.93
26130	-0.951	0.228	0.121	-7.84	-29.26	26.95
26152	-0.914	0.296	0.205	-9.94	-19.46	21.0
26171	-0.892	0.422	0.23	-14.28	-4.48	12.11
26191	-0.925	0.378	0.156	-17.64	6.58	2.1
26216	-0.974	0.301	0.108	-7.42	9.52	-5.32
26235	-1.013	0.187	0.052	0.77	8.05	-7.42
26254	-1.028	0.114	0.054	10.36	5.25	-7.21
26274	-0.982	0.139	0.065	14.14	4.97	-5.53
26296	-1.0	0.225	0.059	6.65	5.53	-1.96
26315	-1.037	0.196	0.022	-0.42	2.94	0.49
26334	-1.023	0.145	0.025	-0.77	-0.63	2.66
26354	-1.014	0.185	0.042	0.07	-2.8	4.48
26378	-0.992	0.216	0.073	-2.52	-2.24	4.97
26394	-0.998	0.218	0.072	-4.13	-0.98	4.97
26418	-0.995	0.215	0.043	-3.64	-1.54	4.06
26438	-0.995	0.237	0.048	-2.87	-2.24	3.01
26462	-1.003	0.232	0.051	-1.33	-3.57	1.19
26482	-0.991	0.22	0.069	0.56	-3.15	0.0
26502	-0.995	0.215	0.067	1.33	-2.31	-1.19
26517	-0.985	0.241	0.061	0.98	-1.75	-2.17
26537	-0.976	0.219	0.068	-0.28	-0.14	-3.29
26561	-0.988	0.217	0.065	-0.49	1.47	-3.92
26582	-1.003	0.193	0.063	-0.77	1.54	-3.64
26601	-1.004	0.215	0.053	-1.05	1.54	-3.57
26624	-0.991	0.214	0.054	-3.43	1.33	-3.99
26645	-0.987	0.188	0.078	-2.38	3.92	-4.69
26669	-1.024	0.233	0.067	-2.8	4.06	-4.69
26689	-1.031	0.193	0.019	-2.38	1.68	-5.32
26709	-0.998	0.165	0.037	2.24	-0.21	-6.02
26729	-0.982	0.195	0.058	3.92	0.91	-6.37
26752	-0.983	0.177	0.053	-0.84	2.52	-6.37
26771	-0.981	0.164	0.066	2.59	3.71	-6.79
26794	-0.976	0.225	0.06	-0.56	6.79	-7.77
26813	-1.003	0.162	0.032	-2.1	6.86	-8.54
26838	-1.012	0.134	0.02	3.85	4.55	-9.31
26855	-0.995	0.173	0.041	3.71	4.9	-9.73
26875	-1.061	0.111	0.011	4.9	2.38	-9.1
26899	-1.052	0.148	0.005	10.64	-3.08	-8.26
26918	-0.968	0.264	0.053	7.49	-0.07	-10.78
26938	-1.019	0.144	0.039	5.04	-0.21	-12.39
26963	-1.038	0.124	0.028	15.75	-2.8	-12.67
26983	-1.021	0.195	0.045	15.68	-2.94	-14.56
27001	-1.039	0.193	0.03	9.17	-2.45	-16.38
27022	-1.033	0.159	-0.001	6.79	-3.64	-18.41
27042	-1.003	0.124	0.039	11.2	-3.71	-20.37
27066	-1.016	0.167	0.029	9.66	-2.87	-21.49
27086	-1.093	0.124	0.036	4.9	-3.85	-22.33
27104	-1.109	0.054	0.012	20.09	-10.57	-17.99
27124	-0.95	0.139	0.047	22.89	-6.58	-23.1
27144	-0.979	0.272	0.041	10.29	-1.4	-26.67
27168	-1.008	0.239	-0.01	-2.31	4.06	-26.11
27188	-1.03	0.161	-0.055	12.74	0.14	-20.51
27208	-0.825	0.308	-0.247	-5.74	16.8	-26.74
27228	-0.732	0.264	-0.564	-36.54	45.29	-31.22
27248	-0.87	0.49	-0.767	-49.63	56.98	-18.13
27264	-1.149	-0.243	-0.575	-87.85	73.57	-16.38
27284	-1.057	0.336	-0.215	-47.74	63.77	-10.5
27304	-0.75	0.337	-0.221	-73.78	64.05	5.39
27323	-0.813	0.253	-0.226	-61.39	57.68	21.49
27343	-0.936	0.161	-0.064	-67.41	54.25	32.9
27368	-1.005	0.026	-0.064	-56.77	38.43	37.45
27386	-0.99	-0.015	-0.06	-54.53	29.26	42.98
27410	-0.986	-0.045	-0.019	-38.71	12.18	44.52
27430	-1.01	-0.112	-0.02	-36.54	5.95	45.36
27450	-1.078	-0.277	0.091	-23.59	-1.82	41.16
27469	-1.114	-0.268	0.059	-8.12	-7.63	37.31
27490	-1.087	-0.12	-0.004	4.27	-9.45	33.18
27512	-1.121	-0.074	0.091	3.43	-11.48	30.1
27533	-1.08	-0.226	0.097	25.9	-16.66	29.82
27553	-1.131	-0.359	0.269	-20.65	4.97	18.55
27573	-1.159	-0.041	0.163	60.55	-30.24	14.42
27597	-0.957	0.129	-0.16	70.35	-2.17	4.76
27617	-1.068	0.555	-0.031	7.35	6.3	-0.42
27637	-1.005	0.231	-0.195	-5.74	18.83	-8.61
27657	-0.923	0.144	-0.149	6.93	24.22	-12.88
27677	-0.85	0.185	-0.121	18.55	31.43	-14.35
27700	-0.884	0.234	-0.135	8.61	41.37	-19.6
27720	-0.928	0.323	-0.159	-11.48	47.81	-25.2
27744	-0.936	0.195	-0.204	-31.15	51.52	-25.69
27759	-0.951	0.332	-0.049	-22.47	58.94	-25.27
27783	-1.054	0.156	-0.337	-24.85	60.69	-29.05
27807	-1.074	-0.128	-0.298	-4.97	58.87	-34.02
27827	-0.995	0.141	-0.166	30.87	56.56	-35.21
27847	-0.813	0.241	-0.481	-2.03	58.87	-33.04
27867	-0.873	-0.08	-0.474	-7.91	38.5	-23.73
27887	-1.089	0.138	-0.269	5.32	26.95	-13.37
27907	-0.931	-0.182	-0.691	-7.21	28.35	-9.31
27931	-1.141	-0.141	-0.445	15.61	0.98	17.5
27950	-1.234	0.034	-0.52	0.98	-9.59	27.72
27969	-1.457	-0.105	-0.492	4.48	-30.38	45.64
27994	-1.689	-0.171	-0.309	25.06	-40.53	67.48
28009	-2.049	-0.449	-0.197	52.22	-60.97	69.65
28032	-2.097	-0.583	0.116	91.49	-101.99	62.02
28052	-1.745	-0.542	0.179	139.58	-149.38	48.51
28072	-1.335	-0.928	0.265	100.66	-104.79	-7.63
28096	-0.91	0.146	-0.231	94.57	-80.57	-51.94
28116	-0.203	-0.524	0.084	-58.52	-4.34	-124.67
28136	-0.687	-0.413	0.827	26.81	-76.86	-154.7
28156	-0.47	0.167	0.559	-27.79	-93.59	-130.13
28176	0.144	0.371	0.361	-56.35	-99.05	-93.59
28195	-0.387	0.532	0.113	-61.39	-107.24	-91.7
28215	-0.223	1.028	-0.331	-94.36	-102.76	-93.03
28240	0.06	1.135	-0.953	-137.27	-44.17	-97.23
28258	0.409	1.53	-1.029	-218.75	36.68	-84.49
28277	0.763	-0.42	-2.22	-157.71	129.85	-104.44
28297	-0.406	-1.133	-1.021	-111.51	247.38	-95.97
28322	-2.436	1.359	0.018	45.22	14.42	-49.28
28342	-2.067	-0.224	-0.214	113.75	104.58	-19.81
28362	-2.078	-0.524	0.251	67.27	71.26	-34.58
28380	-1.921	-0.578	-0.272	69.44	59.64	-49.42
28400	-0.818	-0.127	-0.467	0.0	42.63	-35.35
28420	-0.903	0.236	-0.627	-19.95	34.37	6.58
28444	-1.348	-0.434	-0.742	1.26	28.14	36.75
28464	-2.079	-0.231	-0.532	-13.09	-30.38	18.55
28484	-1.608	-0.076	-0.757	-26.25	-25.13	24.92
28500	-1.689	-0.334	-0.492	-22.47	-45.36	51.45
28524	-1.736	-0.49	-0.529	-6.58	-90.58	86.66
28544	-1.901	-0.244	-0.29	30.52	-117.53	106.68
28564	-1.959	0.773	-0.166	20.58	-143.85	105.84
28584	-1.06	0.736	-0.073	45.64	-157.15	97.16
28603	-1.004	0.177	-0.325	119.77	-141.89	104.51
28624	0.358	-0.63	-1.579	156.66	-180.81	85.89
28648	0.416	-0.056	-1.423	291.27	1.4	98.7
28668	0.04	0.764	-0.071	104.65	109.48	87.92
28688	-0.359	0.48	0.268	-24.15	58.8	47.11
28708	0.007	0.442	0.387	-136.43	83.44	41.09
28725	-0.13	-0.062	0.466	-164.85	78.68	45.78
28744	-0.146	-0.485	0.148	-151.13	89.95	38.92
28766	-0.183	-0.822	-0.257	-107.59	102.83	15.33
28787	-0.009	-0.713	0.733	31.08	185.15	41.72
28811	-1.136	-1.169	-0.569	163.03	108.57	4.97
28829	-2.274	0.728	0.935	83.86	145.32	-5.74
28850	-2.576	1.259	0.254	-44.1	112.42	-97.23
28872	-1.807	-0.411	-0.42	-128.38	96.46	-90.23
28894	-1.697	-0.501	-0.366	-18.41	27.37	-95.13
28909	-0.011	-0.648	-1.169	-47.95	69.79	-78.47
28933	0.522	-0.105	-0.366	24.22	15.33	-0.63
28953	-0.676	0.006	-0.952	34.79	10.78	63.91
28977	-2.086	0.076	-0.69	-17.01	-68.39	59.85
28992	-2.978	0.57	-0.301	-2.94	-0.28	22.82
29017	-1.493	-0.257	-1.081	-33.04	-39.48	21.14
29037	-1.64	-0.671	-0.663	-16.59	-103.25	57.19
29056	-1.375	-0.019	-0.06	37.38	-160.16	105.14
29077	-2.678	-0.065	0.294	27.3	-39.13	71.33
29095	-2.615	-0.461	0.503	84.91	-312.41	37.1
29117	-0.316	-0.776	0.437	66.15	-120.75	-6.16
29136	0.094	0.144	0.008	-20.16	-45.78	-55.09
29160	-0.183	0.291	-0.231	-164.57	-22.96	-84.14
29180	-0.358	-0.931	0.458	-180.67	-6.3	-110.25
29199	-0.839	-1.041	0.539	-26.53	-72.31	-115.78
29223	-0.176	-0.234	0.257	62.3	-77.56	-105.42
29243	-0.04	0.738	0.226	-0.35	-58.87	-112.63
29260	-0.134	0.919	-0.129	-167.09	-14.77	-137.62
29282	0.138	1.298	-0.619	-274.4	27.09	-156.66
29301	0.451	-0.296	-1.523	-271.53	90.93	-161.84
29326	-0.76	-0.803	-2.127	-374.57	129.5	-156.03
29346	-2.008	0.218	0.049	40.74	119.35	-80.78
29362	-0.27	0.099	-1.371	67.76	97.16	-56.35
29381	-2.887	0.674	-0.11	11.97	94.99	-27.58
29406	-1.967	-1.513	0.041	112.91	55.72	-57.47
29425	-1.481	-1.547	0.089	90.09	59.5	-46.2
29446	-0.933	-0.178	-0.541	44.31	16.24	-20.44
29461	-0.59	-0.217	-1.252	-75.67	23.66	6.86
29485	-0.923	-0.561	-0.956	-34.51	-21.91	75.88
29506	-1.394	-0.4	-0.787	11.9	-65.8	86.59
29526	-1.948	-0.435	-0.608	21.0	-99.54	90.51
29546	-2.098	-0.035	-0.644	37.73	-96.25	97.09
29570	-2.386	0.254	-0.615	4.34	-143.01	104.51
29590	-1.915	0.448	-0.001	25.41	-170.38	114.73
29608	-0.905	0.83	-0.051	61.25	-148.96	113.61
29627	-1.041	0.384	-0.481	171.78	-169.68	127.75
29646	0.373	-0.417	-1.498	225.19	-143.5	127.33
29666	0.295	-0.532	-1.634	427.91	-28.84	133.56
29691	0.253	0.234	-0.509	259.91	90.72	89.53
29711	-0.891	0.824	0.346	94.64	89.95	37.52
29731	-0.008	0.893	0.472	-67.06	101.22	19.95
29755	-0.109	-0.04	0.321	-156.73	126.42	22.75
29775	-0.113	-0.339	0.164	-118.44	120.54	31.92
29793	-0.312	-0.771	0.174	-147.77	105.0	27.93
29817	-0.084	-0.5	1.43	129.64	145.74	49.21
29837	-1.42	-1.754	-0.68	73.36	-31.78	22.61
29854	-1.554	0.151	1.143	158.34	316.68	50.61
29878	-2.51	1.614	1.435	83.23	114.73	-66.57
29897	-3.373	-0.183	0.202	-204.89	68.81	-109.34
29918	-2.146	0.142	-0.253	-39.76	85.89	-88.27
29938	-0.89	-0.176	-0.323	-5.18	73.71	-66.29
29962	0.123	-1.748	-2.382	38.5	-48.58	-29.26
29982	1.557	-0.548	-0.877	59.78	5.39	79.8
30000	-1.524	0.692	-0.658	86.66	-1.89	101.22
30022	-2.271	0.364	-0.651	-39.41	-35.35	29.61
30046	-2.147	-0.111	-0.72	-40.32	-74.76	20.44
30066	-1.93	-0.3	-0.274	-28.56	-129.15	50.4
30082	-1.693	-0.371	0.177	2.45	-128.52	76.79
30104	-2.006	-0.653	0.453	71.19	-156.8	54.11
30126	-1.021	-0.704	0.904	178.15	-168.7	28.63
30146	0.112	-0.466	-0.054	55.02	-130.41	-52.71
30170	-0.337	0.122	0.234	-111.23	-10.29	-82.32
30190	-0.425	-0.646	-0.624	-198.1	-6.86	-107.94
30210	-0.832	-1.844	0.616	-94.71	7.63	-142.24
30234	-0.422	-0.568	0.46	94.29	-68.67	-125.3
30254	-0.2	0.751	0.301	26.81	-93.8	-114.17
30274	-0.032	1.137	-0.428	-129.01	-58.52	-135.66
30292	-0.212	0.786	-0.636	-220.15	-6.37	-162.26
30316	-0.165	0.111	-1.768	-192.71	33.53	-166.53
30336	-0.558	1.044	-1.146	-449.12	115.99	-147.42
30353	-1.578	0.389	-0.665	-62.02	183.68	-101.01
30376	-0.279	-0.056	-1.311	108.99	195.16	-44.73
30397	-3.049	-0.328	-0.693	49.63	6.58	-40.11
30414	-1.372	-1.19	0.071	78.96	39.41	-54.81
30437	-1.617	-1.308	0.279	104.44	40.67	-35.63
30458	-1.333	0.038	-0.573	-14.0	8.68	-12.46
30475	-1.2	-0.226	-1.271	-91.84	4.2	41.23
30499	-1.776	-1.034	-0.685	6.51	-49.84	112.21
30519	-2.07	-0.499	-0.76	58.1	-66.64	106.4
30537	-2.35	0.392	-0.791	48.65	-83.09	86.59
30556	-1.923	0.732	-0.432	15.33	-134.05	85.61
30577	-1.688	1.056	0.101	-24.71	-122.57	92.26
30601	-1.0	0.341	-0.081	-26.81	-135.1	86.59
30621	-0.616	-0.206	-0.612	137.55	-148.89	97.37
30641	0.347	-1.229	-1.4	265.3	-54.74	109.55
30665	0.288	-0.063	-0.927	430.71	-10.85	111.72
30684	0.118	0.592	-0.312	214.55	114.8	117.88
30705	-0.078	0.99	-0.002	0.42	98.84	90.79
30726	-0.624	-0.176	0.439	-150.22	97.58	72.52
30746	-0.447	-0.987	0.46	-124.67	92.47	49.21
30766	-0.273	-0.642	0.35	-38.57	62.3	55.3
30790	-0.22	-0.248	0.457	-22.54	61.67	50.75
30810	-0.256	-0.663	-1.135	-59.99	52.57	30.66
30828	-0.081	-0.713	-1.054	-110.46	214.06	-5.39
30850	-1.978	-0.185	0.136	42.0	191.66	3.22
30870	-1.023	-0.226	0.704	-18.06	24.57	-44.59
30891	-1.935	-0.797	-0.011	-5.39	80.15	-48.93
30910	-2.035	-0.733	-0.305	-26.39	42.84	-51.73
30929	-2.075	0.523	-0.495	-25.55	20.93	-54.25
30949	-0.729	-0.094	-1.053	1.68	70.21	-18.83
30968	-0.999	-0.335	-0.795	16.87	-4.76	17.43
30993	-1.272	-0.273	-0.679	35.63	-33.74	43.47
31013	-1.82	0.2	-0.593	1.61	-68.6	44.94
31031	-2.099	0.298	-0.684	-40.46	-62.09	41.93
31052	-1.938	-0.251	-0.333	-22.33	-129.29	60.97
31071	-1.757	-0.463	0.174	6.65	-143.15	75.11
31096	-1.65	-0.676	0.391	63.91	-160.86	54.53
31116	-1.024	-0.989	0.747	124.39	-175.7	20.58
31131	-0.33	-0.446	-0.003	91.56	-151.83	-42.49
31155	0.266	-0.245	-0.616	3.15	-13.79	-79.31
31176	0.01	-0.506	0.406	-135.59	15.82	-101.01
31196	-0.955	-1.828	0.604	-74.55	-50.82	-136.78
31215	-0.395	-0.769	0.158	74.97	-85.19	-123.62
31239	-0.122	0.581	0.444	115.08	-95.41	-99.19
31259	-0.054	1.026	-0.031	-96.39	-49.35	-115.85
31279	-0.002	1.455	-0.811	-207.34	-4.41	-144.76
31297	-0.147	1.056	-1.458	-474.53	71.05	-183.33
31321	-0.429	1.296	-0.845	-315.56	97.58	-155.61
31341	-0.154	-0.62	-1.057	-111.51	211.89	-79.59
31361	-1.134	0.385	-1.164	50.82	69.02	-53.48
31379	-2.127	1.087	-0.256	160.93	124.74	-9.31
31401	-3.271	-1.008	0.27	66.29	6.93	-71.82
31419	-0.833	-1.947	-0.254	60.76	90.51	-80.22
31437	-1.199	0.236	-0.186	65.73	-9.8	-34.93
31456	-1.423	0.249	-1.028	-88.69	42.84	32.27
31481	-1.646	-1.055	-1.084	-30.1	-21.91	79.1
31500	-1.981	-0.815	-0.577	36.05	-68.39	99.4
31520	-2.193	0.402	-0.659	59.36	-87.64	86.45
31544	-2.183	0.763	-0.578	2.1	-116.27	82.32
31564	-1.323	0.629	-0.204	-20.02	-141.4	97.09
31584	-0.873	0.429	-0.273	-0.77	-119.91	118.86
31603	-1.068	-0.107	-0.72	232.47	-166.81	138.67
31624	0.207	-1.123	-1.684	337.19	-81.9	134.19
31642	0.399	0.497	-1.52	506.24	-39.41	122.57
31661	-0.184	0.875	-0.333	188.86	138.04	111.72
31686	-0.528	1.551	0.414	-45.36	138.81	90.3
31706	-0.478	0.145	0.488	-204.96	94.01	51.73
31726	-0.617	-1.293	0.41	-197.68	72.38	41.72
31745	-0.19	-1.121	0.213	-110.95	81.13	42.28
31762	-0.264	-0.003	0.514	-29.05	82.25	41.02
31785	-0.749	-0.773	-0.825	-112.98	22.96	19.74
31805	-0.817	-0.321	-0.075	-200.48	174.51	34.79
31823	-1.25	-0.631	-0.545	194.11	113.33	11.41
31847	-2.84	-0.488	0.462	137.69	49.77	4.2
31867	-1.705	0.387	0.446	43.89	143.71	-49.0
31886	-2.663	-0.66	-0.245	-117.39	66.78	-79.87
31905	-1.808	-0.007	-0.854	-75.95	32.34	-69.79
31925	-0.926	-0.062	-1.255	-61.18	-7.42	-36.82
31949	-0.653	-0.391	-0.685	14.84	-40.39	51.73
31969	-1.716	-0.182	-0.206	74.55	-56.49	80.64
31989	-2.581	0.658	-0.162	32.97	-13.51	32.69
32013	-2.953	0.508	-0.154	-66.99	-168.49	18.97
32031	-1.215	-0.55	0.035	-64.26	-106.26	45.22
32053	-1.191	-1.177	0.356	24.01	-143.99	39.13
32071	-0.979	-1.2	0.415	118.23	-137.97	16.59
32095	-0.346	-0.503	-0.355	108.99	-126.63	-61.74
32115	0.099	0.365	-0.315	-72.1	18.41	-79.1
32133	-0.475	-1.535	0.113	-164.5	18.34	-115.43
32152	-1.16	-2.444	0.868	7.14	-1.12	-151.62
32171	-0.38	-1.127	0.658	205.17	-112.49	-116.76
32196	-0.304	0.89	0.56	232.05	-164.29	-87.5
32216	0.148	2.142	-0.195	-141.54	-50.26	-107.73
32234	-0.105	2.118	-0.834	-365.96	18.9	-155.61
32254	0.181	-1.616	-3.389	-442.33	92.89	-192.22
32276	-0.396	-0.179	-1.443	-366.31	268.59	-188.09
32296	-2.404	1.486	-0.172	12.18	-46.62	-113.82
32313	-0.533	-0.779	-2.538	123.48	181.72	-42.0
32337	-2.649	1.283	-0.671	24.01	18.76	7.28
32355	-2.223	-0.95	0.285	81.97	98.21	-18.62
32374	-2.291	-1.371	0.42	95.27	52.01	-49.28
32398	-1.255	0.601	-0.527	29.89	27.93	-53.34
32418	-0.986	-0.264	-1.342	-101.78	24.85	16.24
32433	-1.237	-0.825	-0.843	-13.37	-2.1	70.77
32456	-1.681	-0.798	-0.599	33.95	-61.67	96.88
32476	-2.013	-0.081	-0.743	31.36	-65.31	79.52
32496	-1.733	0.182	-0.858	-4.76	-118.02	87.85
32520	-1.641	0.611	-0.552	15.68	-143.85	110.81
32540	-1.314	0.811	-0.168	50.12	-143.5	106.47
32558	-0.9	-0.014	-0.652	107.87	-139.09	114.94
32578	-0.104	0.291	-0.922	166.74	-127.12	102.9
32601	-0.141	-0.561	-1.35	256.13	-35.84	118.72
32618	0.616	1.061	-0.332	171.01	50.47	117.53
32642	-0.527	0.962	0.104	84.07	119.07	112.98
32660	-0.754	0.581	0.222	-160.09	113.61	98.77
32678	-0.102	-0.492	0.628	-211.68	80.43	70.63
32702	-0.333	-0.692	0.432	-116.27	42.14	61.81
32721	-0.139	-0.585	0.256	-46.76	64.19	36.4
32745	-0.195	-0.581	-1.023	21.07	48.86	65.38
32765	-1.502	-1.907	-0.244	-127.82	149.66	24.78
32784	-1.109	0.178	0.91	192.57	125.86	4.62
32801	-2.98	-0.956	0.82	157.15	12.18	-6.02
32824	-2.152	0.904	0.017	-51.17	101.92	-82.11
32841	-1.837	0.732	-1.147	-241.57	71.54	-91.56
32860	-1.605	-0.406	-0.787	-155.54	71.05	-32.76
32885	-0.759	-1.144	-1.101	45.08	29.61	-6.72
32904	-0.605	-0.72	-0.761	96.6	-63.7	35.28
32925	-1.067	0.407	-0.691	86.38	-54.04	91.28
32945	-2.049	0.759	-0.557	-23.73	-114.31	41.44
32965	-2.954	-0.442	-0.761	-84.49	-137.69	37.94
32983	-1.293	-0.618	-0.05	-33.39	-170.17	73.5
33002	-1.566	-1.115	0.442	23.94	-184.45	93.03
33026	-1.439	-1.034	0.59	148.61	-174.51	47.46
33042	-0.939	-0.446	0.257	89.88	-198.73	-6.51
33066	0.13	-0.754	-0.48	20.72	-94.64	-75.32
33086	0.244	1.085	-0.746	-93.17	0.0	-83.37
33104	-0.249	-1.533	0.448	-131.88	77.35	-147.07
33121	-1.355	-0.859	0.362	42.56	-44.94	-170.66
33141	-0.511	-0.199	0.219	120.47	-7.7	-156.87
33166	-0.058	1.331	0.307	-64.19	2.31	-167.86
33186	-0.351	1.106	-0.414	-220.92	14.77	-199.5
33204	-0.221	0.694	-1.637	-333.76	34.51	-210.21
33226	-0.809	1.478	-0.257	-458.08	12.11	-155.89
33250	0.322	-0.888	-1.236	-160.86	167.44	-99.68
33270	-1.139	1.004	-0.961	13.37	63.35	-52.01
33288	-2.275	0.474	-0.172	154.42	109.69	-28.98
33307	-1.709	-1.823	-0.446	116.69	66.36	-53.76
33332	-1.448	-1.756	0.127	134.61	35.63	-31.5
33351	-1.515	0.175	-0.57	68.46	7.84	-7.56
33368	-1.694	0.274	-1.24	-68.39	14.91	2.87
33392	-1.687	-0.728	-0.74	-18.62	-13.79	49.91
33407	-1.979	-0.914	-0.557	7.21	-51.94	64.82
33427	-2.054	-0.121	-0.742	15.19	-71.19	66.57
33452	-1.686	0.207	-0.685	-11.41	-116.06	97.72
33472	-1.466	0.272	0.048	4.76	-116.13	129.22
33492	-1.366	0.178	-0.211	46.83	-120.68	129.01
33508	-1.12	0.057	-0.489	198.59	-164.08	128.03
33532	0.508	-0.131	-1.27	252.28	-72.59	114.8
33552	0.191	-0.509	-1.547	347.34	-24.71	103.74
33572	0.302	0.673	-0.614	189.56	112.49	99.05
33592	-0.349	1.5	-0.17	-15.75	116.48	83.16
33611	-0.166	0.782	0.077	-180.18	149.8	81.76
33631	-0.4	-0.424	0.427	-213.01	79.38	65.87
33652	-0.303	-0.752	0.248	-129.43	66.15	71.61
33676	-0.287	-0.855	0.363	-57.82	62.23	65.52
33696	-0.526	-1.118	-0.139	46.06	42.56	60.48
33716	0.394	-1.289	-1.575	223.93	147.98	80.57
33735	-1.235	-1.278	-0.315	154.98	123.2	15.82
33754	-2.637	0.779	1.722	99.12	123.13	13.23
33778	-1.839	0.751	0.328	48.65	100.87	-50.89
33802	-2.082	0.248	-0.927	-239.26	58.59	-103.11
33822	-1.597	-0.649	-0.937	-170.8	45.01	-53.06
33846	-1.026	-0.832	-1.163	17.01	17.01	15.33
33866	-1.041	-0.334	-0.673	98.14	-55.23	51.87
33884	-2.0	0.417	-0.371	55.02	-90.37	75.11
33903	-2.162	0.637	-0.671	-38.92	-48.16	38.5
33923	-2.398	-0.167	-0.229	-57.82	-178.01	53.41
33943	-1.386	-0.675	0.283	-3.43	-126.28	72.73
33966	-1.332	-0.8	0.46	71.4	-145.32	51.17
33990	-1.113	-0.802	0.632	78.33	-134.54	10.36
34008	-0.508	-0.384	0.408	50.75	-152.46	-47.18
34032	0.268	0.57	-0.907	-22.19	-4.2	-80.08
34052	-0.013	-1.265	-0.569	-303.8	33.32	-113.33
34072	-1.171	-2.477	1.006	-31.64	-4.55	-159.74
34091	-0.419	-1.372	0.855	147.42	-150.92	-129.57
34115	-0.358	0.313	0.59	258.93	-137.06	-95.69
34134	0.22	2.371	-0.385	-103.11	-59.36	-111.93
34155	-0.171	2.56	-0.799	-381.92	1.82	-159.88
34175	-0.163	0.25	-2.011	-710.5	-6.23	-199.36
34194	-0.5	-0.351	-2.006	-416.85	130.97	-191.17
34213	-1.424	-0.151	-0.636	121.73	223.3	-88.62
34238	0.25	0.207	-1.306	215.18	236.88	-2.66
34256	-2.954	1.171	0.114	71.82	93.24	-9.52
34279	-2.899	-1.337	0.058	96.53	-21.98	-77.14
34298	-1.855	-1.184	0.155	56.84	35.21	-60.06
34318	-1.144	0.904	-0.834	-55.16	11.41	-14.49
34338	-1.767	-0.881	-1.177	-77.28	-23.8	27.65
34357	-2.085	-1.159	-0.589	-0.63	-53.48	73.08
34373	-1.968	-0.891	-0.676	38.57	-80.78	106.05
34398	-2.136	0.451	-0.531	6.16	-120.96	111.44
34414	-2.161	0.772	-0.304	-3.71	-143.43	115.43
34436	-1.315	0.826	-0.269	29.19	-184.66	113.33
34456	-0.836	-0.119	-0.694	127.61	-134.19	131.18
34476	0.349	-0.728	-1.938	220.5	-182.56	138.88
34499	0.25	-0.723	-1.844	490.98	-9.1	141.26
34516	-0.082	1.156	-0.532	252.49	120.19	118.02
34540	-0.317	1.114	-0.163	114.45	134.89	69.37
34560	-0.518	0.562	0.259	-87.22	153.16	47.74
34578	-0.476	-0.338	0.623	-150.71	172.9	25.41
34597	-0.448	-0.659	0.46	-119.21	123.9	24.57
34620	-0.344	-0.751	0.423	-76.16	124.18	20.44
34638	-0.272	-0.306	0.732	-36.4	111.44	6.37
34657	-0.629	-0.422	-0.209	-115.71	44.1	4.55
34677	0.852	-0.203	-0.027	-1.89	246.12	45.22
34702	-1.48	-0.957	-0.214	308.56	159.95	39.41
34722	-3.436	-0.784	0.112	101.99	1.54	-2.45
34742	-1.674	0.51	-0.003	-26.11	112.42	-65.94
34763	-2.374	-0.953	-0.951	-108.15	-9.17	-49.42
34782	-1.464	-0.429	-0.829	-0.35	13.44	-26.18
34802	-1.148	-0.309	-1.121	20.23	-39.97	26.18
34827	-1.522	-0.185	-0.708	38.08	-87.78	74.83
34847	-2.221	0.074	-0.451	28.28	-101.99	71.75
34867	-2.324	-0.279	-0.057	21.21	-143.85	77.28
34887	-2.062	-0.409	0.436	35.49	-163.94	67.76
34911	-1.18	-0.856	0.528	38.85	-178.43	40.67
34931	-0.848	-1.021	0.536	100.17	-185.78	-11.55
34950	-0.23	-1.103	-0.315	66.08	-132.3	-63.56
34971	-0.013	1.209	-0.847	-18.34	-49.98	-59.92
34990	-0.139	-0.178	0.385	-220.15	7.35	-105.49
35014	-1.023	-1.453	0.501	-87.43	-63.14	-154.84
35034	-0.37	-0.925	0.112	78.68	-61.67	-140.84
35052	-0.11	0.527	0.406	99.19	-52.36	-115.85
35074	-0.131	1.029	0.089	-54.04	-33.67	-119.21
35094	-0.085	1.338	-0.258	-155.75	-3.57	-142.31
35113	0.179	-0.549	-2.014	-343.49	-9.66	-150.71
35138	-0.266	0.745	-0.96	-333.9	173.32	-127.4
35157	-1.04	0.496	-1.087	75.95	187.39	-82.39
35181	-0.407	0.491	-0.859	102.83	107.8	-12.95
35201	-2.74	0.312	-0.264	49.91	12.18	-39.83
35221	-1.42	-2.297	0.202	108.57	49.42	-37.1
35241	-2.24	0.222	0.217	128.45	-17.99	0.28
35257	-2.338	0.943	-0.923	-44.1	54.95	4.9
35276	-1.733	-0.611	-0.669	-94.64	23.24	23.59
35301	-2.118	-1.053	-0.635	3.57	-57.47	50.47
35321	-1.664	-0.215	-0.689	26.18	-112.98	75.6
35337	-1.704	0.414	-0.659	12.74	-120.68	89.46
35361	-1.796	1.015	-0.243	-31.22	-142.1	106.33
35377	-1.525	0.883	-0.127	-30.38	-163.87	105.07
35397	-0.834	-0.368	-0.536	68.74	-147.21	110.6
35416	0.522	-1.307	-1.921	241.57	-150.85	111.3
35441	0.285	-0.046	-1.608	499.73	26.18	90.37
35461	-0.054	1.243	-0.813	96.46	177.31	85.82
35480	-0.447	1.134	0.106	-56.35	158.83	65.87
35499	-0.461	0.101	0.342	-214.9	125.09	47.81
35523	-0.478	-1.423	0.213	-154.98	107.52	48.93
35543	-0.307	-1.296	0.624	-20.51	87.36	53.34
35563	-0.375	-0.712	0.461	58.94	73.43	38.99
35581	-0.391	-0.272	0.546	4.13	78.75	19.88
35600	-0.763	-0.366	0.57	-41.72	45.71	-3.99
35624	-0.624	-0.527	-1.257	-122.57	155.05	-6.58
35644	-1.546	-0.914	0.103	115.01	197.75	-31.64
35661	-2.606	0.379	0.408	-47.11	45.57	-35.35
35681	-1.304	-0.123	-0.108	-33.81	73.29	-64.82
35700	-2.242	0.652	-0.08	-52.43	97.09	-37.73
35725	-1.698	-0.862	-0.796	1.26	-20.58	-42.07
35742	-1.452	-0.665	-0.806	8.89	9.24	-9.38
35761	-0.997	-0.219	-0.799	42.91	-17.85	43.05
35781	-1.755	0.074	-0.943	32.41	-61.6	77.14
35806	-2.311	0.13	-0.685	22.89	-76.86	66.71
35825	-2.176	-0.042	-0.295	31.99	-148.68	67.06
35845	-1.619	-0.447	0.3	21.63	-135.66	77.35
35869	-1.293	-0.941	0.428	49.42	-144.69	54.67
35889	-1.173	-1.156	0.555	135.38	-167.23	17.15
35909	-0.041	-0.785	-0.701	49.63	-126.07	-55.86
35929	-0.109	0.671	-0.163	-114.94	-48.44	-62.65
35948	-0.35	-0.71	0.534	-150.78	-4.27	-87.08
35974	-1.127	-2.298	0.509	41.16	-105.49	-122.64
35993	-0.407	-0.654	0.295	142.8	-119.42	-103.53
36013	-0.098	0.541	0.283	113.33	-98.63	-94.29
36032	-0.199	1.433	0.081	-99.19	-64.75	-111.86
36053	-0.323	1.155	-0.404	-247.1	-31.5	-140.77
36073	-0.244	0.287	-1.815	-440.16	-3.5	-176.89
36091	0.307	0.544	-2.177	-260.33	189.35	-173.81
36114	-2.042	0.026	0.024	-79.03	240.24	-149.94
36133	0.012	0.65	-1.176	-28.56	-0.21	-102.48
36153	-1.374	1.725	-0.611	99.68	190.96	-25.41
36177	-2.639	-1.022	-0.185	54.18	46.83	-49.21
36199	-1.799	-2.593	0.462	149.73	51.52	-61.95
36218	-1.359	0.354	-0.211	154.07	-1.75	-43.68
36238	-0.642	0.879	-1.248	-161.14	35.07	10.5
36256	-1.59	-0.804	-1.339	-98.91	-30.17	62.72
36278	-2.296	-1.172	-0.431	39.83	-78.33	86.31
36298	-2.537	0.337	-0.495	46.34	-92.54	81.06
36318	-2.27	0.742	-0.371	-31.36	-134.4	92.19
36342	-1.321	0.774	-0.165	-64.61	-135.8	115.15
36358	-0.827	-0.325	-0.238	-20.09	-135.73	127.26
36377	-0.437	-0.391	-1.197	204.54	-193.34	124.32
36397	0.298	-0.731	-1.947	352.45	-60.48	134.05
36417	0.67	1.354	-0.846	455.49	33.81	118.79
36442	-0.351	1.122	-0.494	130.48	113.26	99.05
36462	-0.091	1.419	-0.098	-81.62	178.85	90.72
36479	-0.7	-0.016	0.199	-202.23	199.5	87.64
36502	-0.369	-0.901	0.35	-99.12	141.19	60.2
36522	-0.445	-0.568	0.399	-59.43	122.29	50.19
36542	-0.341	-0.383	0.429	-41.86	125.16	34.72
36563	-0.536	-0.333	0.271	9.87	93.73	41.23
36585	0.467	0.166	0.564	-100.73	191.52	100.73
36609	-1.449	-2.328	1.028	350.91	115.78	16.8
36629	-3.97	-2.125	0.37	231.63	-63.56	-0.84
36649	-2.568	0.538	0.169	52.22	83.65	-92.61
36669	-2.001	1.134	-1.004	-152.11	21.14	-75.11
36689	-1.379	-0.386	-1.232	-131.11	29.33	-20.86
36712	-1.167	-1.251	-0.899	57.47	-23.1	45.78
36733	-0.969	-0.652	-0.937	127.54	-65.94	57.75
36751	-1.537	0.792	-0.746	23.38	-102.9	81.9
36772	-2.362	0.428	-0.389	-53.13	-80.78	74.55
36791	-2.714	-0.471	0.056	5.39	-152.25	69.79
36816	-1.496	-0.517	0.384	44.24	-178.92	65.73
36836	-1.069	-0.87	0.689	78.89	-156.17	46.62
36854	-0.802	-0.537	0.543	90.37	-174.72	3.43
36874	-0.469	-1.078	-0.119	-22.61	-144.48	-61.46
36898	-0.077	0.597	-0.509	-16.73	-73.5	-59.64
36919	-0.253	-0.559	0.42	-179.48	2.52	-109.69
36938	-0.985	-1.488	0.284	-38.64	-42.91	-143.99
36958	-0.325	-0.735	-0.013	43.54	-24.15	-146.72
36975	-0.301	0.327	0.014	85.75	-17.08	-142.17
36995	-0.261	0.853	0.022	0.77	-1.19	-142.38
37019	-0.285	0.97	0.152	-116.06	16.03	-162.75
37039	-0.34	0.887	-0.042	-173.81	23.87	-172.2
37059	0.166	-0.278	-1.661	-227.85	29.12	-183.19
37079	0.021	1.464	-1.258	-249.2	174.16	-127.89
37099	-0.784	-0.561	-1.844	107.45	306.6	-91.91
37123	-2.01	-0.062	-0.646	-54.81	35.42	-66.36
37144	-2.681	-0.569	0.163	121.66	23.45	-66.15
37163	-1.823	-1.616	0.143	93.87	23.03	-72.59
37187	-0.918	0.095	-0.232	6.65	25.27	-47.32
37207	-1.085	0.161	-1.066	-104.93	35.07	27.09
37225	-1.793	-1.19	-0.735	-18.9	-3.22	49.7
37249	-1.677	-0.662	-0.682	28.42	-46.27	65.87
37269	-1.755	-0.097	-0.807	9.38	-75.04	83.72
37293	-1.918	0.074	-0.626	-11.34	-86.8	85.19
37313	-2.353	0.725	-0.106	-46.41	-111.93	88.41
37333	-1.824	0.41	0.105	-66.15	-150.01	90.16
37350	-0.978	-0.041	-0.117	-28.56	-125.72	89.53
37370	-0.923	-0.88	-1.964	4.76	-217.56	49.91
37394	0.758	0.158	-1.391	217.63	22.82	118.93
37413	0.508	2.231	-0.063	30.8	78.4	154.77
37437	-0.298	2.076	-0.397	-154.21	60.69	181.37
37456	-0.82	0.15	-0.153	-259.35	54.39	163.66
37472	-0.599	-1.783	0.107	-133.84	-18.97	134.75
37497	-0.135	-1.276	0.862	123.9	-14.49	127.47
37513	-0.369	-0.935	0.35	192.85	-23.38	111.51
37536	-0.327	-0.084	0.084	182.98	7.84	94.01
37555	-0.72	-0.349	0.21	17.08	-48.3	84.56
37575	0.915	-2.537	-2.773	107.1	42.56	19.25
37596	-2.711	-0.299	1.195	182.07	387.38	43.26
37616	-1.65	-0.41	0.283	-52.22	-72.03	-17.5
37635	-1.63	0.38	0.105	-22.05	89.95	-16.94
37660	-2.228	0.289	-0.687	-97.86	12.67	-29.96
37678	-1.964	-0.166	-0.482	-76.86	-11.48	-7.42
37700	-1.295	-0.396	-0.52	10.57	-22.75	10.92
37720	-0.931	-0.128	-0.355	38.08	-50.75	27.72
37742	-1.141	0.311	-0.136	22.68	-47.39	50.26
37762	-1.284	0.322	-0.283	-35.56	-46.41	39.9
37783	-1.296	0.004	-0.341	-38.15	-63.28	33.67
37807	-0.839	0.041	-0.262	-8.61	-70.0	33.53
37826	-0.664	0.19	-0.291	2.87	-67.34	36.33
37847	-0.602	0.138	-0.339	-2.66	-61.6	36.19
37867	-0.623	0.173	-0.29	0.49	-60.62	38.08
37884	-0.732	0.234	-0.207	-1.96	-56.42	40.25
37903	-0.981	0.123	-0.028	-8.4	-54.11	39.69
37927	-1.167	0.07	0.092	1.12	-49.07	37.03
37948	-1.159	0.532	0.122	-15.89	-35.49	37.17
37964	-1.118	0.3	-0.034	-40.25	-33.6	33.04
37988	-1.003	0.219	-0.06	-25.83	-30.52	26.46
38008	-0.891	0.221	-0.018	-9.38	-25.06	19.32
38027	-0.863	0.294	0.004	16.03	-19.25	11.48
38048	-0.803	0.427	0.081	14.35	-7.14	7.35
38065	-0.928	0.334	0.023	3.08	-0.7	7.07
38089	-0.983	0.321	-0.053	-6.72	3.78	4.76
38107	-0.971	0.308	-0.09	-9.94	3.01	5.04
38131	-1.001	0.28	-0.111	-5.6	-0.7	4.83
38150	-1.024	0.275	-0.075	2.03	-6.09	4.55
38174	-1.005	0.277	-0.055	1.82	-5.11	5.11
38194	-0.994	0.274	-0.032	0.0	-3.5	4.2
38209	-0.999	0.275	-0.047	-2.66	-2.31	3.92
38234	-0.922	0.273	-0.033	3.29	-2.24	3.08
38256	-0.953	0.356	-0.041	-2.59	1.61	2.52
38276	-0.93	0.341	-0.059	-9.03	-0.77	0.0
38297	-0.974	0.357	-0.04	-16.31	-0.42	0.14
38321	-0.977	0.257	-0.075	-14.0	1.26	-1.68
38341	-1.008	0.283	-0.046	-12.6	0.91	-2.24
38356	-1.006	0.253	-0.062	-15.68	-1.05	-0.63
38381	-1.002	0.226	-0.053	-7.07	-1.68	-0.49
38401	-0.969	0.312	-0.045	-7.77	-1.75	-0.28
38421	-0.973	0.246	-0.072	-8.05	-4.13	0.98
38445	-1.001	0.264	-0.053	-3.64	-6.58	1.12
38465	-0.951	0.294	-0.029	-3.15	-5.32	1.61
38488	-0.978	0.245	-0.047	-3.71	-5.11	2.59
38508	-0.984	0.277	-0.036	-3.78	-4.9	3.36
38529	-0.977	0.261	-0.051	-2.52	-5.25	3.29
38549	-0.963	0.283	-0.029	2.38	-5.04	2.73
38568	-0.961	0.315	-0.023	1.05	-3.57	1.68
38590	-0.959	0.306	-0.004	0.14	-0.77	0.7
38609	-0.972	0.27	-0.025	0.14	0.91	0.49
38631	-0.983	0.261	-0.048	2.17	0.84	0.21
38648	-0.993	0.294	-0.056	1.33	0.0	0.7
38673	-0.987	0.226	-0.058	2.87	-1.26	1.89
38693	-0.999	0.282	-0.064	4.27	-2.8	2.94
38712	-0.985	0.331	-0.068	-1.4	-3.85	4.2
38736	-0.973	0.237	-0.07	0.0	-6.16	4.27
38756	-0.955	0.277	-0.033	5.11	-6.86	3.5
38775	-0.958	0.386	0.005	-1.19	-1.33	1.82
38796	-0.96	0.283	-0.042	-5.74	1.4	-0.21
38820	-0.959	0.294	-0.037	0.77	2.03	-0.98
38840	-0.955	0.311	-0.032	-1.89	2.94	-2.52
38863	-0.951	0.251	-0.041	-1.61	4.2	-2.59
38883	-1.002	0.267	-0.053	0.35	3.22	-2.31
38903	-0.978	0.297	-0.053	-1.26	2.8	-2.52
38922	-0.952	0.258	-0.06	-1.12	2.87	-2.31
38947	-0.975	0.249	-0.065	1.19	2.73	-1.75
38964	-1.0	0.3	-0.055	0.14	2.17	-1.61
38983	-0.978	0.26	-0.053	-1.75	1.96	-1.75
39007	-0.958	0.253	-0.068	1.96	2.31	-1.33
39027	-0.984	0.319	-0.059	1.19	2.03	-1.05
39046	-0.978	0.268	-0.069	-0.7	1.05	-1.26
39072	-0.99	0.261	-0.063	2.52	-0.42	-0.49
39087	-0.965	0.277	-0.054	1.05	0.28	-0.35
39111	-0.975	0.265	-0.055	-0.14	0.91	0.21
39131	-0.995	0.277	-0.068	-1.61	1.26	0.91
39150	-0.994	0.254	-0.06	0.49	0.28	1.19
39169	-0.96	0.277	-0.077	-1.61	1.19	1.54
39189	-0.977	0.252	-0.064	-1.68	1.33	1.68
39211	-0.99	0.288	-0.056	3.15	0.14	0.91
39235	-0.954	0.314	-0.075	0.98	0.91	0.07
39255	-0.991	0.238	-0.091	4.06	-0.49	0.21
39275	-1.027	0.258	-0.019	7.98	-7.91	0.28
39295	-0.99	0.357	-0.058	4.48	-2.24	0.07
39315	-1.003	0.247	-0.065	0.49	-1.33	0.49
39338	-0.997	0.268	-0.088	4.83	-3.22	1.54
39358	-0.969	0.283	-0.092	1.26	-3.15	1.61
39381	-0.984	0.254	-0.092	1.19	-3.99	2.45
39402	-0.983	0.273	-0.079	4.27	-5.67	1.96
39422	-0.96	0.293	-0.077	2.03	-4.9	1.68
39447	-0.973	0.281	-0.069	2.03	-4.9	1.05
39466	-0.966	0.293	-0.07	0.07	-4.48	0.28
39486	-0.985	0.274	-0.084	-1.68	-4.83	0.0
39504	-0.987	0.288	-0.078	-1.26	-6.09	-0.21
39525	-0.966	0.285	-0.071	-2.45	-5.95	-0.42
39546	-0.976	0.285	-0.066	-3.15	-5.25	-0.84
39565	-0.966	0.283	-0.06	-4.41	-4.62	-0.98
39590	-0.972	0.257	-0.054	-5.46	-2.52	-0.84
39605	-1.003	0.254	-0.06	-4.2	-2.73	-0.91
39625	-0.992	0.264	-0.061	-4.06	-3.22	-0.7
39650	-0.962	0.246	-0.061	-2.31	-2.59	-0.56
39670	-0.985	0.265	-0.07	0.28	-2.8	-0.35
39689	-0.981	0.268	-0.061	0.0	-2.73	-0.91
39709	-0.974	0.267	-0.054	0.35	-2.24	-1.05
39733	-0.972	0.262	-0.062	0.84	-1.47	-1.05
39753	-0.977	0.254	-0.074	0.0	-2.03	-1.05
39770	-0.993	0.253	-0.069	1.26	-3.15	-0.77
39794	-0.989	0.261	-0.072	1.61	-4.27	-0.21
39813	-0.978	0.261	-0.071	0.63	-4.69	0.42
39830	-0.98	0.248	-0.077	0.7	-5.18	0.91
39854	-0.993	0.247	-0.075	-0.49	-6.65	1.68
39874	-0.972	0.273	-0.059	-0.91	-7.0	1.47
39894	-0.962	0.274	-0.05	-1.96	-6.16	1.68
39910	-0.98	0.249	-0.048	-2.1	-5.95	1.82
39929	-0.991	0.255	-0.049	-1.26	-6.09	1.68
39954	-0.973	0.273	-0.034	-0.98	-4.76	1.54
39974	-0.969	0.28	-0.037	-0.49	-3.22	0.98
39994	-0.973	0.264	-0.044	0.14	-1.89	-0.35
40014	-0.981	0.29	-0.049	0.07	-0.63	-1.47
40034	-0.965	0.272	-0.049	-0.28	0.28	-2.1
40052	-0.964	0.254	-0.045	-1.33	1.12	-2.03
40069	-0.982	0.254	-0.067	-2.03	0.84	-1.47
40089	-1.011	0.247	-0.06	-1.75	-0.49	-0.84
40114	-0.989	0.25	-0.056	-1.68	-0.77	-0.84
40133	-0.969	0.253	-0.052	-0.35	0.35	-1.33
40153	-0.975	0.282	-0.061	0.07	0.7	-2.1
40172	-0.975	0.26	-0.063	-0.28	0.49	-2.03
40193	-0.976	0.244	-0.062	0.63	0.63	-1.68
40215	-0.991	0.24	-0.06	0.49	0.63	-1.12
40239	-0.985	0.255	-0.058	-0.42	0.7	-0.84
40259	-0.985	0.249	-0.056	-0.28	0.84	-0.91
40278	-0.976	0.249	-0.064	0.84	1.47	-1.05
40297	-0.99	0.249	-0.062	2.1	0.91	-1.47
40318	-0.982	0.24	-0.077	3.5	0.0	-2.24
40342	-0.991	0.281	-0.097	3.71	-2.31	-1.4
40362	-1.0	0.232	-0.102	3.78	-4.76	-0.42
40380	-0.998	0.245	-0.081	5.32	-6.37	1.68
40400	-0.996	0.234	-0.069	0.7	-7.42	2.87
40424	-0.959	0.251	-0.056	-1.89	-7.07	4.55
40439	-0.981	0.246	-0.055	-5.46	-6.51	5.04
40462	-0.992	0.258	-0.057	-6.44	-5.74	4.55
40484	-0.974	0.273	-0.04	-5.53	-4.48	3.08
40502	-0.962	0.274	-0.046	-3.64	-2.24	1.33
40521	-0.972	0.248	-0.053	-2.38	-1.61	0.35
40545	-0.969	0.262	-0.054	-0.77	-0.49	-0.14
40566	-0.991	0.239	-0.068	-2.66	-0.42	0.63
40586	-1.01	0.219	-0.076	-1.68	-2.45	1.47
40606	-0.994	0.232	-0.07	0.91	-3.71	2.45
40629	-0.982	0.26	-0.067	0.77	-4.69	2.59
40652	-0.976	0.254	-0.057	0.0	-4.83	2.52
40672	-0.971	0.274	-0.04	-1.33	-3.57	1.96
40689	-0.981	0.264	-0.064	-2.73	-2.73	1.61
40708	-0.979	0.253	-0.064	-1.96	-3.36	1.19
40733	-0.985	0.254	-0.053	-0.21	-3.43	0.77
40753	-0.986	0.256	-0.053	-0.49	-3.22	0.63
40771	-0.983	0.254	-0.059	-0.56	-3.5	0.98
40791	-0.99	0.246	-0.06	-0.42	-4.2	1.4
40813	-0.987	0.255	-0.064	0.63	-4.69	1.4
40833	-0.971	0.264	-0.048	-0.49	-4.55	1.82
40854	-0.984	0.253	-0.044	-0.98	-4.13	1.68
40875	-0.982	0.26	-0.055	-1.75	-3.5	1.47
40899	-0.966	0.258	-0.043	-1.19	-2.73	1.61
40919	-0.981	0.252	-0.043	-0.84	-1.89	1.26
40935	-0.988	0.252	-0.047	-1.54	-1.47	1.12
40955	-0.974	0.244	-0.054	-0.63	-1.4	1.12
40974	-0.981	0.249	-0.055	0.0	-1.68	1.4
40999	-0.988	0.253	-0.059	-0.28	-2.45	1.47
41019	-0.989	0.254	-0.054	0.14	-3.01	2.03
41038	-0.995	0.247	-0.056	-0.21	-3.85	1.96
41061	-0.973	0.262	-0.054	-0.14	-3.85	2.1
41082	-0.984	0.259	-0.043	-0.35	-3.64	1.96
41101	-0.98	0.254	-0.051	-0.14	-3.36	1.68
41117	-0.976	0.264	-0.039	-0.42	-2.59	1.75
41142	-0.981	0.258	-0.044	-0.84	-2.38	1.4
41160	-0.984	0.256	-0.042	-0.42	-1.68	1.05
41182	-0.966	0.264	-0.042	-0.14	0.21	0.49
41202	-0.981	0.262	-0.047	-0.63	0.35	0.07
41222	-0.976	0.259	-0.048	-0.98	0.84	0.14
41242	-0.988	0.249	-0.056	-0.07	0.7	0.14
41261	-0.992	0.25	-0.051	0.0	0.28	0.35
41280	-0.982	0.244	-0.062	0.56	0.07	0.7
41299	-0.979	0.248	-0.064	0.07	-0.42	1.05
41319	-0.991	0.246	-0.06	1.12	-1.19	1.68
41339	-0.984	0.258	-0.045	0.84	-1.47	1.61
41363	-0.97	0.258	-0.059	1.54	-0.56	1.61
41381	-0.98	0.259	-0.059	0.7	-0.42	1.54
41402	-0.974	0.246	-0.061	0.42	-0.14	1.26
41423	-0.975	0.25	-0.06	1.47	-0.07	1.19
41439	-0.973	0.259	-0.063	0.7	0.21	0.91
41463	-0.979	0.256	-0.062	0.35	0.56	0.7
41481	-0.998	0.262	-0.062	0.42	0.0	0.56
41505	-0.981	0.248	-0.068	0.35	-0.42	0.28
41525	-0.972	0.248	-0.063	1.61	0.21	0.7
41544	-1.006	0.252	-0.07	0.84	-0.84	0.98
41564	-0.98	0.235	-0.079	1.26	-2.03	1.4
41588	-0.979	0.243	-0.08	1.75	-3.01	2.31
41608	-0.99	0.254	-0.07	0.77	-4.06	2.87
41628	-0.981	0.247	-0.061	1.26	-4.13	3.15
41648	-0.966	0.263	-0.059	-0.49	-3.15	3.01
41672	-0.989	0.271	-0.052	-0.35	-2.17	2.52
41689	-0.992	0.272	-0.052	0.98	-2.17	1.82
41709	-0.977	0.273	-0.056	1.4	-1.82	1.05
41730	-0.981	0.255	-0.063	1.82	-1.54	0.28
41750	-0.978	0.249	-0.075	2.45	-1.89	0.28
41769	-0.973	0.252	-0.069	2.45	-2.03	0.77
41793	-0.986	0.263	-0.063	0.14	-2.52	1.26
41813	-0.967	0.251	-0.07	-0.7	-2.17	1.4
41837	-0.981	0.249	-0.072	-0.56	-2.45	2.1
41856	-0.994	0.244	-0.063	0.56	-2.87	2.59
41877	-0.988	0.258	-0.05	1.12	-2.87	2.31
41897	-0.977	0.277	-0.047	0.56	-1.61	2.17
41921	-0.979	0.265	-0.063	-0.63	-0.91	1.12
41940	-0.985	0.264	-0.068	0.35	-1.05	0.91
41964	-0.995	0.241	-0.079	1.33	-2.1	0.7
41984	-0.975	0.252	-0.075	2.31	-2.52	1.12
42007	-0.981	0.264	-0.07	1.19	-3.01	1.4
42027	-0.986	0.267	-0.068	-0.77	-3.43	1.89
42044	-0.982	0.236	-0.069	-0.21	-3.5	1.96
42064	-0.976	0.27	-0.061	-0.84	-3.01	1.75
42087	-0.994	0.264	-0.065	-0.49	-3.01	1.89
42107	-0.984	0.257	-0.059	1.05	-3.15	1.61
42126	-0.976	0.263	-0.055	0.91	-2.17	1.4
42149	-0.979	0.263	-0.057	0.0	-1.61	1.19
42170	-0.985	0.257	-0.064	-0.42	-1.68	1.05
42190	-0.963	0.263	-0.061	-0.49	-0.84	1.12
42209	-0.981	0.269	-0.064	-2.38	-0.7	0.77
42233	-0.974	0.245	-0.081	-2.8	-1.47	0.77
42253	-0.966	0.25	-0.074	-1.4	-1.89	0.84
42273	-0.982	0.276	-0.073	-2.87	-2.24	0.35
42293	-0.973	0.263	-0.066	-2.87	-2.17	-0.21
42313	-0.987	0.261	-0.068	-1.75	-2.03	-0.84
42331	-0.991	0.264	-0.067	-0.14	-2.73	-1.61
42350	-0.976	0.252	-0.069	1.33	-2.8	-2.17
42370	-0.982	0.258	-0.061	1.61	-2.59	-2.38
42394	-0.985	0.252	-0.074	1.12	-2.8	-2.31
42414	-0.986	0.235	-0.077	0.35	-4.06	-1.75
42434	-0.981	0.245	-0.067	0.49	-4.62	-1.61
42454	-0.969	0.266	-0.064	-0.63	-4.41	-1.4
42474	-0.987	0.253	-0.062	-0.56	-4.13	-1.26
42498	-1.003	0.238	-0.056	0.49	-4.62	-1.26
42518	-0.983	0.245	-0.048	0.14	-3.78	-1.19
42542	-0.973	0.249	-0.044	0.14	-2.66	-1.89
42566	-0.98	0.261	-0.06	-0.84	-0.77	-2.38
42586	-0.992	0.241	-0.061	-1.12	-1.61	-2.52
42604	-0.976	0.232	-0.063	0.98	-0.84	-2.45
42626	-0.982	0.252	-0.057	-0.28	-0.35	-2.52
42649	-0.982	0.224	-0.061	0.14	-0.63	-2.17
42670	-1.011	0.231	-0.062	0.91	-0.84	-1.54
42686	-0.986	0.217	-0.064	0.63	-1.26	-0.98
42710	-0.979	0.212	-0.064	1.61	-0.7	-0.07
42730	-0.991	0.24	-0.076	1.26	-1.33	0.63
42750	-0.977	0.233	-0.069	1.4	-2.1	1.4
42770	-0.984	0.231	-0.067	1.54	-2.59	1.75
42787	-0.985	0.232	-0.062	0.98	-2.17	1.89
42807	-0.984	0.233	-0.063	-0.21	-1.61	1.89
42826	-0.979	0.228	-0.065	-0.07	-1.33	1.61
42851	-0.981	0.262	-0.059	0.35	-0.7	1.05
42871	-0.977	0.241	-0.066	-1.26	-0.28	0.7
42891	-0.985	0.232	-0.071	-1.82	-0.14	0.84
42906	-0.995	0.235	-0.076	-1.96	-1.26	1.05
42926	-0.984	0.229	-0.091	-1.61	-2.45	1.05
42950	-1.003	0.252	-0.08	-2.17	-3.78	1.75
42969	-1.021	0.23	-0.076	-4.34	-5.6	1.75
42994	-0.985	0.214	-0.061	-3.57	-5.88	3.36
43013	-0.993	0.214	-0.075	-1.33	-6.65	4.62
43034	-0.987	0.24	-0.083	-0.07	-7.77	4.97
43054	-0.975	0.251	-0.057	-0.91	-7.77	4.34
43074	-0.968	0.248	-0.024	-0.14	-4.34	3.29
43094	-0.955	0.26	-0.023	-2.73	-0.21	1.61
43115	-0.972	0.268	-0.041	-4.34	2.17	0.35
43131	-0.977	0.233	-0.059	-3.92	2.94	-0.21
43155	-1.001	0.241	-0.078	-1.19	1.89	-0.21
43174	-1.0	0.232	-0.081	-0.28	0.0	0.07
43194	-0.988	0.228	-0.082	0.21	-0.77	0.98
43215	-1.008	0.229	-0.078	-0.21	-2.31	1.89
43236	-0.99	0.244	-0.072	-0.56	-3.5	2.31
43257	-0.98	0.237	-0.066	-1.05	-3.64	2.73
43281	-0.987	0.253	-0.067	-1.54	-4.06	2.52
43301	-0.981	0.238	-0.067	-1.4	-3.85	2.59
43321	-0.98	0.236	-0.061	-0.98	-3.29	2.24
43339	-0.982	0.26	-0.06	-1.82	-2.8	1.89
43363	-0.981	0.241	-0.063	-1.61	-2.94	1.89
43381	-0.981	0.24	-0.061	-0.49	-3.01	2.17
43400	-0.986	0.24	-0.058	-0.77	-3.01	2.03
43424	-0.989	0.246	-0.061	-1.12	-3.22	2.38
43444	-0.976	0.244	-0.051	-0.98	-2.59	2.38
43464	-0.988	0.243	-0.066	-1.75	-2.45	2.24
43488	-0.989	0.249	-0.061	-0.07	-2.66	2.52
43507	-0.982	0.242	-0.063	0.7	-3.01	2.59
43531	-0.984	0.245	-0.058	0.14	-3.01	2.73
43551	-0.987	0.247	-0.062	0.56	-3.71	3.08
43571	-0.981	0.238	-0.059	1.47	-3.99	3.57
43591	-1.003	0.239	-0.064	0.98	-4.9	4.06
43610	-0.987	0.244	-0.061	1.89	-5.32	3.64
43634	-0.974	0.262	-0.049	2.66	-4.69	3.5
43650	-0.983	0.246	-0.059	1.82	-4.69	3.5
43671	-0.98	0.247	-0.047	1.12	-4.55	3.08
43692	-0.979	0.284	-0.041	1.96	-2.94	2.59
43715	-0.981	0.276	-0.054	0.14	-2.17	1.82
43731	-0.977	0.25	-0.06	0.7	-1.96	1.33
43751	-0.975	0.271	-0.046	3.01	-1.12	0.63
43775	-0.979	0.262	-0.052	1.19	-0.28	0.14
43795	-0.976	0.25	-0.058	-0.07	0.14	0.14
43819	-0.976	0.253	-0.056	-0.07	0.0	0.14
43839	-0.976	0.26	-0.054	-1.47	0.42	0.21
43859	-0.984	0.243	-0.065	-2.66	0.63	0.35
43877	-0.99	0.248	-0.068	-2.17	-0.07	0.7
43901	-0.981	0.244	-0.067	-1.33	-0.42	0.91
43921	-0.976	0.255	-0.056	-1.19	-0.21	0.91
43939	-0.985	0.264	-0.05	-1.61	0.21	1.12
43959	-0.994	0.244	-0.067	-2.24	-0.7	1.05
43979	-0.978	0.247	-0.072	-0.91	-0.49	1.26
44001	-0.976	0.251	-0.065	-0.21	-0.84	1.19
44023	-0.994	0.247	-0.069	0.14	-1.47	1.4
44042	-0.983	0.243	-0.069	0.07	-2.1	1.68
44059	-0.975	0.246	-0.07	0.0	-1.89	1.82
44080	-0.992	0.251	-0.065	0.28	-1.96	2.1
44101	-0.987	0.253	-0.065	0.7	-2.73	2.1
44125	-0.979	0.259	-0.066	-0.07	-2.31	2.31
44142	-0.986	0.248	-0.072	-0.28	-2.24	2.59
44162	-0.989	0.241	-0.067	0.77	-2.94	3.01
44185	-0.982	0.268	-0.055	0.35	-2.45	3.15
44204	-0.977	0.253	-0.062	-0.49	-2.03	3.01
44225	-0.988	0.247	-0.067	0.35	-2.24	3.36
44245	-0.991	0.262	-0.064	0.84	-2.66	3.15
44270	-0.986	0.238	-0.076	1.33	-2.94	2.94
44288	-0.981	0.252	-0.077	3.15	-4.2	3.08
44307	-0.968	0.269	-0.066	3.5	-4.27	3.43
44332	-0.976	0.269	-0.053	1.47	-3.36	3.15
44351	-0.976	0.267	-0.06	-0.35	-2.59	3.01
44367	-0.966	0.253	-0.056	0.35	-1.12	2.73
44391	-0.977	0.278	-0.053	0.63	0.0	1.75
44415	-0.975	0.271	-0.062	0.35	0.84	0.7
44433	-0.976	0.274	-0.065	1.61	1.54	0.35
44457	-0.988	0.257	-0.074	1.19	1.05	0.35
44476	-0.981	0.245	-0.079	1.75	0.14	0.84
44497	-0.985	0.256	-0.084	1.26	-1.12	1.19
44513	-0.985	0.266	-0.08	0.49	-1.61	1.68
44532	-0.994	0.244	-0.084	0.56	-3.08	2.38
44552	-0.993	0.258	-0.081	0.28	-4.55	2.8
44577	-0.978	0.265	-0.083	1.19	-5.6	3.08
44597	-0.979	0.259	-0.073	1.61	-5.88	3.15
44616	-0.983	0.27	-0.07	0.14	-6.02	3.01
44640	-0.973	0.264	-0.063	0.42	-5.74	3.01
44657	-0.982	0.257	-0.071	0.14	-5.81	2.8
44680	-0.972	0.255	-0.064	2.31	-6.09	2.66
44696	-0.965	0.28	-0.057	1.61	-4.9	2.52
44721	-0.973	0.284	-0.051	-0.91	-3.5	2.52
44739	-0.983	0.278	-0.05	-0.91	-3.22	2.1
44756	-0.971	0.279	-0.057	-1.05	-2.45	1.75
44776	-0.983	0.261	-0.061	-1.12	-2.03	1.89
44796	-0.982	0.259	-0.063	-0.98	-2.24	1.68
44816	-0.97	0.279	-0.064	-1.47	-1.82	1.19
44841	-0.968	0.278	-0.067	-2.1	-1.54	0.49
44859	-0.976	0.264	-0.074	-0.77	-2.17	0.35
44877	-0.978	0.262	-0.061	0.14	-2.52	0.35
44897	-0.983	0.268	-0.06	-0.84	-2.45	0.14
44917	-0.985	0.259	-0.064	-1.4	-2.52	0.42
44939	-0.982	0.264	-0.065	-0.98	-3.01	0.49
44961	-0.968	0.276	-0.059	-1.05	-2.38	0.35
44983	-0.972	0.27	-0.064	-2.17	-1.89	0.14
44998	-0.994	0.273	-0.065	-2.94	-2.45	0.21
45021	-0.988	0.252	-0.064	-2.17	-3.43	0.21
45039	-0.972	0.26	-0.065	-1.26	-3.01	0.28
45059	-0.985	0.26	-0.069	-0.98	-3.29	0.56
45079	-0.996	0.255	-0.068	0.14	-5.18	0.91
45099	-0.975	0.252	-0.057	1.89	-5.11	1.12
45123	-0.995	0.275	-0.055	0.63	-5.18	1.61
45141	-0.984	0.269	-0.048	1.82	-5.18	1.61
45159	-0.974	0.293	-0.047	1.47	-4.48	1.4
45179	-0.98	0.265	-0.052	0.35	-3.57	1.26
45199	-0.98	0.26	-0.053	1.26	-3.43	0.91
45223	-0.973	0.271	-0.044	1.47	-2.52	0.42
45238	-0.964	0.284	-0.05	-0.14	-1.19	-0.14
45263	-0.968	0.275	-0.052	-0.63	-0.14	-1.19
45282	-0.974	0.278	-0.055	-2.17	0.49	-1.33
45303	-0.982	0.257	-0.063	-1.75	0.49	-1.54
45323	-0.978	0.259	-0.06	-1.75	0.7	-1.68
45339	-0.974	0.255	-0.059	-1.68	1.12	-2.03
45363	-0.97	0.254	-0.06	-2.73	2.17	-2.17
45381	-0.98	0.262	-0.061	-3.5	2.1	-2.1
45401	-1.005	0.277	-0.046	-3.71	1.82	-2.59
45425	-0.973	0.266	-0.052	-3.78	2.17	-2.94
45444	-0.986	0.218	-0.09	-3.78	1.12	-2.17
45465	-1.004	0.229	-0.086	0.56	-2.52	-0.56
45481	-0.997	0.235	-0.089	1.12	-4.69	1.12
45505	-0.993	0.218	-0.092	0.42	-6.16	3.85
45524	-1.004	0.247	-0.082	-2.24	-9.03	4.69
45545	-0.981	0.243	-0.057	-2.45	-9.24	6.09
45564	-0.986	0.252	-0.045	-1.26	-9.03	5.6
45584	-0.958	0.27	-0.047	-0.49	-7.63	4.27
45608	-0.956	0.285	-0.028	1.96	-4.55	2.31
45628	-0.971	0.276	-0.021	2.59	-2.52	0.56
45646	-0.976	0.274	-0.038	1.19	-0.21	-0.56
45668	-0.991	0.27	-0.057	-0.21	0.35	-0.84
45687	-0.987	0.238	-0.075	0.7	-0.91	-0.56
45708	-0.983	0.256	-0.07	0.84	-1.82	0.0
45731	-0.979	0.254	-0.058	-0.63	-2.17	0.21
45750	-0.977	0.257	-0.058	-1.61	-2.1	0.49
45772	-0.983	0.252	-0.056	-0.7	-2.24	0.56
45792	-0.987	0.254	-0.054	-0.28	-2.1	0.42
45816	-0.974	0.263	-0.047	0.7	-1.33	-0.14
45836	-0.984	0.272	-0.051	0.35	-0.56	-0.49
45851	-0.976	0.249	-0.059	-0.21	-0.56	-0.63
45875	-0.973	0.239	-0.066	0.91	-0.42	-0.91
45894	-0.98	0.276	-0.063	0.91	-0.49	-0.98
45918	-0.989	0.233	-0.073	0.0	-1.75	-0.42
45938	-0.983	0.238	-0.066	0.42	-2.52	0.21
45957	-0.987	0.255	-0.061	0.21	-2.94	0.49
45977	-0.982	0.251	-0.062	-0.49	-3.15	0.84
45998	-0.986	0.248	-0.058	-0.49	-2.94	0.91
46017	-0.972	0.268	-0.05	-1.26	-2.1	0.77
46037	-0.978	0.26	-0.054	-1.82	-1.26	0.42
46061	-0.979	0.252	-0.057	-1.47	-0.77	0.21
46080	-0.978	0.241	-0.064	-1.12	-0.84	0.14
46100	-0.977	0.253	-0.059	-0.07	-0.77	0.28
46118	-0.993	0.258	-0.062	-0.63	-1.19	0.56
46142	-0.993	0.236	-0.069	-0.91	-2.24	1.05
46162	-0.985	0.236	-0.07	0.98	-2.59	1.47
46181	-0.989	0.262	-0.064	-17.64	-3.15	1.61
46202	-0.981	0.234	-0.062	0.21	-3.01	1.82
46220	-0.99	0.25	-0.052	0.84	-2.73	1.61
46243	-0.974	0.258	-0.048	0.35	-1.61	1.05
46261	-0.976	0.257	-0.061	0.07	-0.98	0.91
46281	-0.99	0.247	-0.063	0.7	-1.61	0.63
46301	-0.977	0.255	-0.065	1.89	-1.26	0.63
46325	-0.976	0.244	-0.055	1.75	-0.14	0.84
46341	-0.986	0.253	-0.058	0.0	0.21	0.63
46361	-0.981	0.258	-0.061	0.07	0.49	0.63
46385	-0.983	0.255	-0.067	-0.56	0.21	0.49
46405	-0.976	0.238	-0.07	0.49	0.0	0.77
46425	-0.979	0.239	-0.066	0.42	0.0	0.7
46445	-0.976	0.249	-0.072	-0.14	0.14	0.91
46465	-0.986	0.251	-0.075	0.63	-0.63	1.61
46485	-0.987	0.243	-0.072	1.26	-1.75	1.61
46504	-0.976	0.248	-0.071	1.33	-1.19	1.19
46525	-0.984	0.253	-0.074	0.07	-0.91	1.12
46540	-0.984	0.24	-0.074	0.77	-1.19	1.05
46565	-0.976	0.245	-0.075	1.26	-0.98	1.12
46585	-0.978	0.244	-0.072	0.42	-0.63	1.05
46605	-0.973	0.247	-0.069	0.98	0.07	1.26
46625	-0.992	0.255	-0.074	-0.49	-0.07	1.33
46649	-0.982	0.24	-0.079	-0.63	-0.84	1.61
46669	-0.984	0.26	-0.08	0.07	-1.12	1.4
46689	-0.984	0.253	-0.08	-0.84	-1.47	1.26
46708	-0.981	0.24	-0.079	-0.56	-2.03	1.61
46727	-0.98	0.241	-0.077	-0.35	-1.96	1.96
46747	-1.001	0.244	-0.078	-0.77	-2.59	2.45
46770	-0.984	0.243	-0.084	-0.28	-3.57	2.59
46788	-0.97	0.243	-0.084	0.84	-4.13	3.01
46808	-0.992	0.252	-0.085	1.75	-4.69	3.43
46831	-0.988	0.247	-0.074	1.47	-5.53	3.43
46850	-0.979	0.25	-0.073	2.03	-5.67	3.57
46870	-0.977	0.262	-0.071	2.31	-5.18	3.57
46894	-0.983	0.252	-0.065	2.03	-4.97	3.43
46914	-0.977	0.258	-0.063	1.47	-4.34	3.15
46933	-0.971	0.259	-0.065	0.84	-3.57	3.01
46957	-0.981	0.265	-0.069	-0.28	-3.29	3.15
46977	-0.985	0.246	-0.072	17.85	-3.78	3.01
46993	-0.96	0.253	-0.067	0.56	-2.66	3.15
47017	-0.986	0.264	-0.066	0.14	-2.52	3.22
47036	-0.984	0.269	-0.066	-0.56	-3.22	3.08
47054	-0.97	0.262	-0.068	0.63	-2.94	2.87
47073	-0.981	0.258	-0.066	0.91	-3.15	2.8
47093	-0.983	0.254	-0.07	1.33	-3.29	2.73
47118	-0.987	0.249	-0.073	1.12	-3.92	3.01
47138	-0.968	0.264	-0.073	1.54	-4.06	3.08
47156	-0.976	0.265	-0.067	1.12	-3.85	3.15
47180	-0.984	0.273	-0.062	1.4	-3.57	2.52
47197	-0.975	0.267	-0.06	1.05	-3.64	1.96
47221	-0.947	0.267	-0.069	1.4	-1.89	2.03
47241	-1.002	0.271	-0.069	-0.63	-3.64	2.03
47261	-0.971	0.265	-0.067	-0.77	-3.99	1.89
47281	-0.969	0.284	-0.061	-1.54	-3.36	1.54
47301	-0.977	0.276	-0.064	-2.45	-3.29	1.33
47319	-0.983	0.251	-0.063	-1.19	-3.15	1.19
47339	-0.978	0.273	-0.06	-1.33	-2.94	1.05
47363	-0.977	0.26	-0.065	-0.98	-2.94	0.7
47383	-0.98	0.266	-0.065	-0.42	-3.08	0.7
47402	-0.98	0.268	-0.061	-0.07	-2.87	0.42
47420	-0.983	0.268	-0.061	-0.84	-2.87	0.35
47444	-0.974	0.251	-0.067	-0.35	-3.22	0.49
47464	-0.982	0.261	-0.071	0.7	-3.85	0.7
47484	-0.984	0.262	-0.065	0.35	-4.55	0.84
47503	-0.979	0.256	-0.07	0.28	-4.9	1.4
47522	-0.978	0.265	-0.06	-0.07	-5.25	1.89
47542	-0.976	0.269	-0.053	-1.05	-5.39	1.68
47565	-0.984	0.278	-0.059	-3.36	-5.18	1.61
47585	-0.979	0.26	-0.053	-2.8	-5.04	1.68
47604	-0.979	0.256	-0.05	-1.75	-4.83	1.75
47628	-0.993	0.271	-0.044	-1.89	-4.55	1.4
47647	-0.974	0.266	-0.048	-1.68	-3.92	0.91
47670	-0.965	0.266	-0.055	-0.91	-3.29	0.56
47687	-0.993	0.265	-0.058	-1.05	-3.57	0.84
47708	-0.989	0.257	-0.049	0.07	-3.99	1.12
47730	-0.97	0.265	-0.05	1.12	-3.78	0.84
47750	-0.969	0.268	-0.055	-0.07	-3.29	0.7
47770	-0.987	0.248	-0.052	0.35	-3.43	0.98
47794	-0.993	0.274	-0.042	0.84	-3.78	1.19
47809	-0.973	0.284	-0.041	-0.63	-3.01	1.26
47833	-0.974	0.254	-0.053	-1.05	-3.29	1.12
47853	-0.98	0.267	-0.046	-0.7	-3.29	1.12
47877	-0.984	0.276	-0.044	-2.24	-3.01	1.05
47895	-0.973	0.25	-0.054	-2.94	-2.73	1.26
47914	-0.987	0.262	-0.045	-2.24	-3.01	1.19
47938	-0.975	0.281	-0.033	-2.03	-2.59	0.91
47958	-0.978	0.259	-0.049	-1.4	-2.45	0.63
47979	-0.977	0.258	-0.05	-0.35	-2.66	0.49
47999	-0.981	0.266	-0.046	0.21	-3.01	0.35
48023	-0.98	0.267	-0.041	0.28	-2.52	0.42
48040	-0.988	0.261	-0.044	-0.07	-2.8	0.35
48060	-0.964	0.271	-0.039	0.28	-2.03	0.07
48080	-0.98	0.281	-0.03	0.14	-1.05	-0.28
48103	-0.985	0.26	-0.043	0.14	-0.56	-0.63
48122	-0.983	0.263	-0.055	0.28	-0.7	-0.56
48145	-0.979	0.262	-0.052	0.56	-1.61	0.0
48169	-0.976	0.254	-0.044	0.07	-1.05	0.49
48189	-0.975	0.229	-0.058	1.26	-0.77	1.19
48209	-0.981	0.289	-0.061	-1.82	-2.03	0.84
48232	-0.986	0.262	-0.049	-3.5	-2.59	-0.35
48256	-0.97	0.253	-0.039	-4.34	-1.47	-0.35
48275	-0.99	0.232	-0.077	-2.17	-1.75	0.0
48294	-1.012	0.274	-0.057	-0.35	-3.64	0.21
48319	-0.974	0.268	-0.035	-1.54	-3.08	0.0
48339	-0.98	0.269	-0.025	-1.96	-1.19	-0.56
48358	-0.991	0.259	-0.039	-2.94	-0.42	-1.05
48379	-0.971	0.244	-0.05	-1.19	-0.14	-1.19
48396	-0.967	0.264	-0.051	-1.4	0.28	-1.26
48416	-0.986	0.262	-0.052	-1.54	0.14	-1.19
48439	-0.979	0.255	-0.053	-1.26	-0.21	-1.05
48463	-0.986	0.253	-0.053	-2.38	0.28	-1.05
48482	-0.988	0.23	-0.054	-1.61	0.28	-0.63
48502	-0.985	0.25	-0.047	-0.14	-0.14	-0.35
48525	-0.994	0.255	-0.052	0.35	-0.63	-0.21
48546	-0.978	0.25	-0.05	-0.07	-0.63	-0.14
48566	-0.981	0.246	-0.053	0.91	-0.14	17.85
48586	-0.987	0.253	-0.067	-0.21	-1.19	0.14
48605	-0.988	0.242	-0.069	0.91	-2.31	0.42
48623	-0.984	0.252	-0.06	1.4	-2.52	0.21
48647	-0.974	0.26	-0.046	0.77	-1.89	-0.14
48667	-0.983	0.25	-0.053	-0.35	-1.12	-0.21
48686	-0.978	0.243	-0.056	0.28	-0.56	-0.21
48706	-0.984	0.242	-0.064	-0.07	-0.77	0.0
48725	-0.985	0.241	-0.059	0.56	-1.33	0.49
48750	-0.986	0.243	-0.055	0.42	-1.54	0.77
48769	-0.985	0.25	-0.058	-0.49	-1.12	1.05
48790	-0.985	0.252	-0.062	-1.4	-1.54	1.26
48810	-0.99	0.246	-0.061	-1.12	-2.03	1.61
48830	-0.986	0.246	-0.063	-0.84	-2.1	1.82
48850	-0.978	0.244	-0.064	-0.98	-2.38	2.03
48870	-0.985	0.245	-0.059	-1.12	-2.94	2.52
48894	-0.984	0.25	-0.055	-0.98	-2.94	2.87
48914	-0.987	0.248	-0.062	-0.7	-3.5	2.94
48933	-0.987	0.245	-0.06	-0.7	-3.78	3.15
48952	-0.981	0.249	-0.052	-0.28	-3.57	3.15
48975	-0.978	0.251	-0.056	0.21	-3.43	2.8
48996	-0.987	0.25	-0.062	-0.14	-3.57	2.87
49016	-0.997	0.252	-0.055	0.28	-4.48	2.73
49040	-0.974	0.254	-0.051	0.91	-3.78	2.45
49059	-0.974	0.256	-0.049	0.7	-2.87	2.24
49078	-0.992	0.255	-0.056	0.0	-3.22	1.89
49102	-0.985	0.241	-0.055	1.12	-3.01	1.68
49122	-0.976	0.283	-0.053	3.01	-2.1	1.47
49138	-0.986	0.261	-0.056	3.01	-2.24	1.05
49161	-0.977	0.243	-0.051	3.71	-2.1	1.54
49178	-0.987	0.259	-0.048	2.24	-0.84	1.4
49202	-0.978	0.257	-0.053	-0.21	-0.14	1.4
49222	-0.984	0.251	-0.058	0.07	-0.63	1.68
49239	-0.984	0.249	-0.061	-0.84	-0.56	1.47
49263	-0.976	0.258	-0.066	-0.7	-0.77	1.68
49282	-0.986	0.269	-0.057	0.84	-1.61	1.61
49303	-0.976	0.251	-0.059	0.91	-1.61	1.19
49323	-0.983	0.25	-0.061	1.19	-1.12	0.91
49343	-0.996	0.26	-0.063	1.54	-1.61	0.91
49367	-0.993	0.254	-0.059	2.03	-1.33	0.7
49385	-0.975	0.247	-0.063	1.47	-0.91	0.63
49407	-0.98	0.249	-0.061	1.47	-0.35	1.05
49426	-0.988	0.256	-0.053	0.98	-0.28	1.12
49445	-0.974	0.26	-0.069	-0.07	0.21	1.26
49464	-0.992	0.246	-0.067	-0.28	-0.21	1.54
49489	-0.987	0.25	-0.062	-0.14	-0.56	1.75
49509	-0.977	0.26	-0.067	-0.14	-0.28	1.75
49529	-0.973	0.25	-0.073	0.56	-0.28	1.82
49549	-0.981	0.253	-0.067	0.49	-0.63	1.68
49569	-0.978	0.27	-0.058	0.42	-0.42	1.75
49588	-0.989	0.268	-0.057	0.0	0.28	1.61
49608	-0.993	0.252	-0.071	-0.35	-0.42	0.84
49632	-0.963	0.256	-0.076	1.68	-0.07	0.56
49651	-0.984	0.261	-0.076	1.33	-0.35	0.49
49668	-0.989	0.125	-0.075	1.4	-0.77	0.63
49688	-0.981	0.239	-0.081	2.03	-1.33	0.7
49713	-0.977	0.248	-0.091	2.8	-1.96	1.47
49733	-0.992	0.245	-0.076	2.94	-2.8	2.24
49751	-0.988	0.246	-0.063	2.8	-3.43	2.52
49771	-0.968	0.254	-0.075	1.05	-2.73	2.52
49793	-0.971	0.251	-0.078	-0.49	-1.89	2.66
49817	-0.976	0.271	-0.071	-1.61	-1.75	2.24
49836	-0.978	0.268	-0.07	-1.96	-1.68	1.75
49855	-0.971	0.258	-0.081	-1.61	-1.4	1.05
49875	-0.975	0.263	-0.075	-1.33	-1.12	0.56
49899	-0.992	0.269	-0.067	-1.19	-1.26	-0.42
49919	-0.976	0.263	-0.068	-1.19	-0.63	-1.05
49937	-0.969	0.244	-0.079	0.21	-0.42	-1.12
49955	-0.996	0.268	-0.069	0.56	-0.35	-0.98
49975	-0.982	0.257	-0.071	-1.12	-0.42	-1.26
49999	-0.975	0.238	-0.085	-0.98	-0.77	-0.49
50016	-0.977	0.248	-0.087	-0.84	-1.54	0.07
50036	-0.988	0.246	-0.082	-1.26	-2.24	0.35
50056	-0.984	0.256	-0.076	-1.12	-2.45	0.77
50080	-0.987	0.244	-0.08	-0.42	-3.36	1.4
50100	-0.979	0.242	-0.076	0.77	-3.71	1.61
50120	-0.979	0.255	-0.073	0.7	-3.5	1.47
50140	-0.982	0.257	-0.077	0.21	-3.15	1.4
50160	-0.981	0.258	-0.076	-0.21	-3.29	1.26
50179	-0.976	0.246	-0.082	-0.07	-3.43	1.05
50199	-0.976	0.254	-0.08	0.21	-3.57	1.05
50223	-0.985	0.255	-0.073	-0.63	-3.43	1.12
50241	-0.979	0.248	-0.067	-1.26	-3.15	1.26
50265	-0.98	0.254	-0.069	-1.26	-2.59	0.77
50282	-0.98	0.25	-0.074	-1.54	-2.38	0.42
50301	-0.977	0.244	-0.079	-0.49	-2.8	0.28
50326	-0.974	0.251	-0.083	0.0	-3.15	0.07
50346	-0.981	0.26	-0.074	0.49	-3.57	0.42
50366	-0.986	0.247	-0.076	-0.49	-4.06	0.91
50384	-0.976	0.243	-0.074	-0.49	-3.99	1.4
50407	-0.985	0.251	-0.07	-2.1	-3.92	1.61
50425	-0.981	0.261	-0.064	-2.66	-3.43	1.82
50444	-0.993	0.25	-0.071	-2.59	-3.5	1.89
50464	-0.983	0.237	-0.079	-1.89	-4.34	1.96
50488	-0.974	0.252	-0.064	-0.28	-3.78	2.24
50508	-0.986	0.256	-0.06	-0.56	-3.99	2.31
50525	-0.992	0.238	-0.07	0.28	-4.27	2.52
50549	-0.974	0.246	-0.072	0.77	-4.62	2.45
50569	-0.974	0.266	-0.066	1.33	-3.99	2.31
50589	-0.987	0.26	-0.058	0.7	-4.13	1.96
50609	-0.979	0.245	-0.062	1.26	-3.71	1.96
50629	-0.976	0.253	-0.069	0.91	-3.57	1.89
50648	-0.975	0.25	-0.064	0.63	-3.29	2.1
50665	-0.994	0.264	-0.056	0.42	-3.57	2.03
50686	-0.976	0.262	-0.057	0.0	-2.8	1.54
50705	-0.976	0.264	-0.066	0.0	-1.82	0.98
50725	-0.996	0.271	-0.054	0.49	-1.75	1.12
50750	-0.974	0.246	-0.061	0.91	-1.47	0.98
50768	-0.979	0.236	-0.069	1.33	-1.47	1.47
50785	-0.989	0.247	-0.071	1.26	-2.17	2.03
50810	-0.981	0.255	-0.069	0.63	-2.66	2.87
50829	-0.982	0.25	-0.069	0.21	-3.22	3.36
50850	-0.98	0.257	-0.062	0.07	-3.15	3.36
50870	-0.979	0.265	-0.056	-0.21	-2.8	2.94
50892	-0.977	0.266	-0.059	-0.49	-1.89	2.59
50912	-0.977	0.262	-0.07	-0.7	-1.68	2.17
50933	-0.977	0.261	-0.063	-0.21	-2.03	2.1
50954	-0.974	0.264	-0.061	-0.49	-1.75	2.24
50974	-0.98	0.27	-0.062	-2.1	-1.68	2.59
50998	-0.989	0.238	-0.078	-2.87	-3.22	3.43
51018	-0.993	0.266	-0.081	-0.42	-4.69	3.22
51038	-0.977	0.281	-0.064	-3.64	-5.11	2.8
51055	-0.973	0.234	-0.056	-0.98	-5.04	2.87
51079	-0.977	0.267	-0.061	-0.98	-4.69	2.73
51099	-0.978	0.26	-0.065	0.07	-4.76	2.31
51117	-0.973	0.274	-0.053	2.45	-4.69	1.54
51137	-0.965	0.281	-0.046	2.87	-2.94	0.49
51159	-0.973	0.272	-0.042	1.89	-1.54	-0.42
51178	-0.971	0.271	-0.056	0.63	-0.56	-1.4
51198	-0.976	0.264	-0.069	-0.07	-0.63	-1.47
51222	-0.992	0.268	-0.072	-0.49	-2.31	-0.14
51242	-0.997	0.23	-0.068	-0.42	-4.06	0.98
51266	-0.992	0.253	-0.057	-0.7	-4.48	1.96
51284	-0.979	0.268	-0.055	-1.68	-4.13	2.03
51304	-0.975	0.28	-0.052	-1.47	-3.36	1.33
51328	-0.975	0.272	-0.05	-1.12	-2.66	0.28
51348	-0.975	0.266	-0.046	-0.77	-1.33	-0.56
51368	-0.976	0.276	-0.047	-1.82	0.07	-1.4
51385	-0.976	0.273	-0.062	-1.89	0.21	-1.54
51405	-0.975	0.273	-0.066	-1.96	0.98	-2.1
51429	-0.977	0.243	-0.064	-2.17	0.91	-1.68
51445	-0.984	0.243	-0.061	-2.03	0.0	-1.4
51469	-0.981	0.249	-0.066	-2.45	-0.28	-0.49
51487	-1.001	0.24	-0.073	-2.52	-1.75	0.28
51510	-0.979	0.248	-0.072	-0.77	-3.29	0.98
51527	-0.978	0.26	-0.066	-0.77	-2.94	1.26
51551	-0.98	0.254	-0.065	-1.26	-3.85	1.54
51571	-0.984	0.243	-0.063	-0.7	-4.2	2.03
51591	-0.983	0.252	-0.055	-0.42	-4.27	2.17
51611	-0.982	0.256	-0.061	-0.56	-4.13	1.89
51635	-0.991	0.251	-0.058	0.07	-4.27	2.24
51654	-0.978	0.264	-0.055	0.56	-4.27	2.59
51677	-0.973	0.271	-0.054	-0.07	-4.06	2.45
51698	-0.981	0.25	-0.052	-0.49	-4.06	2.66
51718	-0.982	0.257	-0.052	-1.12	-3.85	2.87
51736	-0.977	0.266	-0.054	-1.19	-3.36	2.73
51757	-0.983	0.27	-0.054	-0.49	-3.5	2.66
51776	-0.986	0.262	-0.056	0.14	-3.71	2.66
51798	-0.979	0.257	-0.055	0.56	-3.36	2.45
51822	-0.982	0.268	-0.052	0.7	-3.15	2.24
51842	-0.976	0.261	-0.057	-0.07	-3.22	1.96
51857	-0.98	0.262	-0.053	1.12	-3.85	1.54
51878	-0.976	0.276	-0.05	1.54	-3.5	0.91
51901	-0.974	0.271	-0.05	0.7	-2.52	0.35
51921	-0.983	0.259	-0.052	0.77	-2.31	0.0
51945	-0.974	0.258	-0.055	0.21	-1.75	0.07
51965	-0.995	0.262	-0.048	0.14	-1.82	0.42
51985	-0.976	0.256	-0.053	0.14	-1.54	0.35
52004	-0.973	0.265	-0.055	0.56	-1.26	0.49
52024	-0.983	0.258	-0.054	-1.05	-1.19	0.77
52044	-0.98	0.249	-0.047	0.0	-0.91	1.05
52068	-0.969	0.264	-0.049	-0.77	0.28	0.42
52088	-0.974	0.268	-0.057	-0.91	0.49	0.21
52108	-0.991	0.262	-0.059	-0.63	-0.07	0.07
52125	-0.977	0.26	-0.059	0.28	0.28	-0.28
52146	-0.973	0.269	-0.059	-0.14	0.56	-0.42
52167	-0.983	0.247	-0.069	0.07	-0.14	-0.21
52191	-0.98	0.249	-0.065	0.21	-0.42	0.35
52211	-0.991	0.243	-0.071	-0.7	-0.98	0.77
52229	-0.996	0.256	-0.067	-0.35	-2.1	1.54
52250	-0.985	0.26	-0.053	0.21	-1.96	1.47
52274	-0.975	0.266	-0.049	-1.33	-1.19	0.91
52294	-0.968	0.264	-0.053	-1.82	-0.14	0.28
52314	-0.986	0.261	-0.062	-1.89	-0.35	0.42
52334	-0.987	0.25	-0.065	-1.54	-0.7	0.28
52351	-0.976	0.244	-0.073	-0.91	-0.7	0.42
52375	-0.978	0.256	-0.075	-0.07	-1.19	0.98
52395	-0.991	0.249	-0.078	0.49	-3.08	1.26
52415	-0.99	0.242	-0.076	2.24	-3.99	2.1
52433	-0.997	0.254	-0.064	2.45	-5.04	2.52
52452	-0.97	0.248	-0.063	2.45	-4.83	2.73
52477	-0.988	0.261	-0.056	3.5	-4.62	2.94
52493	-0.988	0.263	-0.055	2.59	-4.48	2.94
52517	-0.982	0.26	-0.055	2.8	-4.13	2.87
52532	-0.986	0.259	-0.063	3.43	-4.2	2.8
52557	-0.976	0.248	-0.062	4.13	-4.55	3.22
52577	-0.979	0.26	-0.054	3.71	-4.2	3.15
52597	-0.973	0.284	-0.052	0.42	-3.57	3.08
52613	-0.962	0.265	-0.055	-1.26	-2.59	2.8
52637	-0.963	0.264	-0.054	-1.75	-1.26	2.17
52653	-0.99	0.275	-0.053	-1.89	-1.19	1.96
52676	-0.984	0.275	-0.058	-3.08	-1.26	1.19
52697	-0.967	0.264	-0.062	-2.59	0.42	1.05
52717	-0.982	0.253	-0.06	-1.75	0.0	0.77
52737	-0.979	0.261	-0.058	-1.96	0.28	0.7
52755	-0.982	0.268	-0.065	-1.96	0.0	0.84
52777	-0.975	0.254	-0.07	-1.05	-0.7	0.84
52800	-0.973	0.251	-0.068	0.49	-0.91	1.05
52820	-0.991	0.272	-0.061	-0.28	-0.91	1.4
52844	-0.995	0.259	-0.065	-1.05	-1.33	1.47
52859	-0.973	0.26	-0.07	0.14	-1.4	1.61
52884	-0.986	0.272	-0.071	0.42	-2.03	1.47
52903	-0.98	0.264	-0.06	0.28	-2.03	1.54
52922	-0.976	0.26	-0.071	0.77	-2.24	1.68
52943	-0.982	0.261	-0.073	-0.14	-2.73	2.24
52963	-0.98	0.255	-0.069	-0.14	-3.43	2.73
52985	-0.979	0.268	-0.065	-0.77	-3.5	2.87
53009	-0.977	0.268	-0.065	-1.4	-3.15	2.87
53029	-0.983	0.269	-0.066	-1.19	-3.15	2.8
53049	-0.979	0.264	-0.065	-1.12	-3.36	2.52
53069	-0.972	0.268	-0.061	-0.63	-3.01	2.31
53089	-0.978	0.282	-0.051	-1.33	-2.8	2.24
53112	-0.981	0.264	-0.059	-1.82	-2.24	1.89
53132	-0.973	0.266	-0.064	-1.68	-1.89	1.82
53155	-0.976	0.271	-0.061	-0.77	-2.03	1.47
53176	-0.975	0.27	-0.061	-0.49	-1.82	1.4
53196	-0.988	0.26	-0.064	-0.21	-2.1	1.54
53215	-0.976	0.263	-0.069	-0.14	-2.45	1.96
53235	-0.981	0.257	-0.072	0.21	-2.94	2.31
53260	-0.98	0.264	-0.068	-0.21	-3.92	2.73
53280	-0.979	0.277	-0.061	-0.35	-4.27	3.22
53298	-0.976	0.266	-0.059	-0.28	-4.48	3.36
53319	-0.965	0.262	-0.063	0.49	-4.2	3.36
53338	-0.983	0.27	-0.054	1.61	-4.62	3.57
53363	-0.98	0.268	-0.055	1.26	-4.62	3.43
53383	-0.965	0.277	-0.061	1.19	-3.99	3.22
53402	-0.976	0.266	-0.062	1.89	-4.13	3.29
53422	-0.983	0.279	-0.051	1.75	-3.64	3.01
53446	-0.965	0.293	-0.05	0.14	-3.36	2.31
53466	-0.956	0.281	-0.054	0.63	-1.89	1.68
53485	-0.969	0.282	-0.049	0.21	-1.54	1.26
53505	-0.974	0.271	-0.052	-0.42	-0.98	0.91
53526	-0.972	0.288	-0.057	-0.98	0.28	0.91
53545	-0.989	0.279	-0.059	-0.91	-0.63	0.91
53569	-0.967	0.267	-0.066	0.42	-0.77	0.84
53589	-0.982	0.268	-0.067	-0.14	-0.77	1.05
53612	-0.99	0.262	-0.064	0.28	-2.17	1.61
53631	-0.974	0.282	-0.066	0.21	-2.45	1.61
53652	-0.972	0.273	-0.069	0.35	-2.59	1.47
53672	-0.978	0.27	-0.059	0.49	-2.66	1.4
53697	-0.976	0.277	-0.061	0.63	-2.73	1.33
53716	-0.973	0.286	-0.062	0.0	-2.8	1.05
53731	-0.979	0.28	-0.056	-0.14	-2.59	0.91
53756	-0.975	0.285	-0.051	-0.35	-1.82	0.28
53775	-0.971	0.285	-0.053	-0.7	-0.98	0.0
53796	-0.98	0.269	-0.061	-0.42	-1.12	-0.42
53815	-0.975	0.277	-0.063	-0.42	-1.26	-0.35
53835	-0.974	0.274	-0.065	-0.56	-1.19	-0.42
53859	-0.983	0.266	-0.063	-0.56	-1.68	-0.35
53879	-0.979	0.281	-0.061	-1.05	-1.82	-0.21
53899	-0.978	0.258	-0.07	-1.33	-2.1	-0.28
53918	-0.967	0.269	-0.079	-0.35	-2.73	-0.07
53939	-0.991	0.269	-0.067	-0.91	-3.57	-0.14
53959	-0.985	0.258	-0.057	-1.12	-4.27	0.21
53983	-0.976	0.266	-0.064	-1.75	-3.99	0.7
54001	-0.976	0.27	-0.066	-1.68	-4.48	1.26
54020	-0.974	0.264	-0.057	-1.19	-4.62	1.33
54044	-0.97	0.269	-0.045	-1.89	-3.36	0.98
54064	-0.974	0.285	-0.042	-2.52	-2.52	0.63
54084	-0.973	0.273	-0.055	-2.52	-2.17	0.28
54104	-0.975	0.266	-0.056	-0.98	-2.24	0.14
54124	-0.977	0.281	-0.049	-1.26	-1.82	0.07
54148	-0.985	0.266	-0.061	-1.82	-2.1	0.07
54168	-0.974	0.262	-0.064	-0.42	-2.66	0.28
54192	-0.979	0.27	-0.061	-1.4	-3.22	0.35
54211	-0.981	0.26	-0.06	-0.63	-3.57	0.56
54234	-0.979	0.269	-0.056	0.49	-3.85	0.49
54254	-0.981	0.274	-0.055	0.07	-3.64	0.49
54276	-0.983	0.264	-0.054	1.19	-4.2	0.42
54296	-0.976	0.273	-0.049	1.54	-3.71	0.35
54320	-0.973	0.279	-0.047	0.84	-3.08	0.0
54340	-0.977	0.27	-0.049	0.63	-2.52	0.0
54355	-0.98	0.265	-0.05	0.21	-2.17	-0.28
54380	-0.979	0.269	-0.05	0.14	-1.68	-0.21
54400	-0.985	0.266	-0.06	0.91	-2.03	-0.07
54418	-0.978	0.259	-0.057	1.54	-2.31	0.0
54438	-0.979	0.264	-0.054	1.4	-2.24	0.21
54462	-0.979	0.262	-0.056	0.63	-2.03	0.28
54478	-0.983	0.267	-0.053	0.7	-2.17	0.35
54500	-0.976	0.268	-0.049	0.49	-1.82	0.21
54520	-0.982	0.27	-0.057	0.35	-1.61	0.21
54544	-0.986	0.262	-0.059	0.91	-2.24	0.21
54568	-0.971	0.256	-0.059	0.56	-1.96	0.21
54588	-0.989	0.272	-0.054	-0.49	-2.03	0.7
54604	-0.987	0.26	-0.052	-0.63	-2.24	0.98
54624	-0.978	0.256	-0.063	-0.28	-2.31	1.19
54648	-0.979	0.266	-0.057	0.14	-2.66	1.47
54668	-0.992	0.259	-0.06	-0.56	-2.94	1.61
54687	-0.978	0.268	-0.053	-0.7	-3.08	1.89
54705	-0.973	0.264	-0.051	-0.21	-2.66	1.89
54728	-0.98	0.264	-0.056	-1.54	-2.1	1.4
54747	-0.971	0.255	-0.058	-0.84	-2.03	1.19
54771	-0.973	0.265	-0.057	-0.77	-1.96	0.98
54795	-0.987	0.263	-0.055	-1.26	-2.59	1.33
54810	-0.989	0.25	-0.061	-0.49	-3.08	1.47
54831	-0.988	0.263	-0.06	0.21	-3.85	1.61
54855	-0.978	0.272	-0.051	1.12	-3.92	1.54
54874	-0.98	0.263	-0.052	0.35	-3.85	1.54
54899	-0.975	0.254	-0.05	0.84	-3.22	1.4
54919	-0.979	0.274	-0.052	0.49	-2.87	1.12
54938	-0.974	0.275	-0.051	0.56	-2.52	0.91
54962	-0.975	0.259	-0.051	0.63	-2.24	0.7
54978	-0.985	0.261	-0.052	0.63	-2.03	0.42
55002	-0.976	0.279	-0.044	0.56	-0.84	0.14
55022	-0.978	0.269	-0.054	-0.35	-0.7	-0.56
55046	-0.972	0.253	-0.059	-0.28	-0.63	-0.56
55066	-0.979	0.26	-0.059	0.49	-0.56	-0.63
55085	-0.983	0.25	-0.057	0.35	-0.84	-0.56
55106	-0.987	0.257	-0.062	0.28	-0.98	-0.21
55125	-0.991	0.261	-0.055	0.42	-1.12	-0.07
55149	-0.982	0.257	-0.057	-0.21	-0.98	0.49
55169	-0.979	0.248	-0.059	-0.42	-0.98	0.91
55193	-0.976	0.267	-0.059	-0.63	-0.77	1.05
55213	-0.975	0.255	-0.062	-1.75	-0.91	1.26
55228	-0.985	0.257	-0.056	-1.33	-0.91	1.54
55252	-0.991	0.256	-0.056	-1.26	-1.26	1.4
55271	-0.972	0.268	-0.057	-0.77	-0.49	1.26
55290	-0.973	0.26	-0.061	0.14	-0.35	1.12
55314	-0.972	0.252	-0.063	0.42	0.21	1.61
55332	-0.982	0.245	-0.068	0.35	-0.14	1.89
55352	-0.995	0.25	-0.066	0.49	-0.91	2.31
55372	-0.98	0.251	-0.071	0.42	-1.96	2.8
55396	-0.983	0.269	-0.071	1.33	-3.29	3.08
55414	-0.978	0.268	-0.057	1.89	-3.43	3.08
55434	-0.981	0.254	-0.049	0.49	-2.24	3.43
55458	-0.977	0.268	-0.063	-1.19	-1.54	2.94
55475	-0.98	0.268	-0.069	-0.28	-1.68	3.01
55494	-0.982	0.274	-0.069	0.42	-2.66	2.52
55519	-0.976	0.252	-0.066	1.05	-3.08	2.38
55538	-0.969	0.271	-0.056	1.4	-2.24	2.1
55562	-0.976	0.283	-0.059	-0.35	-1.82	1.54
55580	-0.977	0.266	-0.069	-0.63	-1.54	1.47
55604	-0.983	0.276	-0.063	-1.26	-2.03	1.12
55623	-0.962	0.264	-0.067	-1.26	-1.61	0.49
55642	-0.978	0.272	-0.069	-1.61	-1.54	0.63
55667	-0.98	0.26	-0.066	-2.03	-2.31	1.19
55687	-0.986	0.246	-0.063	-0.84	-2.52	1.47
55706	-0.981	0.264	-0.059	-0.14	-2.17	1.82
55726	-0.981	0.266	-0.058	0.7	-1.82	1.68
55745	-0.974	0.267	-0.056	1.61	-1.54	1.47
55769	-0.98	0.275	-0.061	1.4	-0.84	1.12
55789	-0.975	0.266	-0.067	0.77	-0.91	0.91
55808	-0.975	0.271	-0.071	0.35	-0.7	0.91
55825	-0.98	0.266	-0.067	0.56	-0.77	0.84
55849	-0.978	0.264	-0.066	0.28	-1.19	0.84
55867	-0.973	0.271	-0.068	-0.35	-1.12	0.7
55887	-0.977	0.267	-0.072	-0.14	-1.47	0.7
55906	-0.974	0.263	-0.068	0.35	-1.61	0.77
55930	-0.98	0.265	-0.068	0.91	-1.54	0.77
55946	-0.988	0.272	-0.07	0.63	-1.75	0.7
55969	-0.976	0.257	-0.072	-0.07	-2.03	0.84
55993	-0.973	0.263	-0.076	0.35	-2.03	1.12
56013	-0.983	0.271	-0.073	-0.63	-2.52	1.26
56033	-0.98	0.272	-0.069	-1.26	-2.94	1.54
56052	-0.977	0.255	-0.078	-1.89	-3.15	1.68
56073	-0.979	0.265	-0.076	-0.56	-3.99	1.96
56091	-0.986	0.279	-0.057	-0.28	-4.27	1.82
56110	-0.972	0.266	-0.051	-0.14	-3.5	1.19
56130	-0.974	0.258	-0.058	0.28	-2.17	0.56
56154	-0.978	0.271	-0.065	1.68	-2.17	0.21
56174	-0.976	0.262	-0.071	1.19	-2.31	0.35
56194	-0.987	0.248	-0.074	1.33	-3.08	0.98
56215	-0.974	0.245	-0.075	0.7	-3.71	1.89
56234	-0.986	0.266	-0.075	-0.14	-4.48	2.8
56255	-0.982	0.265	-0.077	-1.12	-5.6	3.29
56275	-0.975	0.266	-0.063	-0.07	-5.88	3.43
56299	-0.976	0.272	-0.057	0.0	-5.6	3.29
56319	-0.99	0.258	-0.069	0.49	-6.02	3.36
56338	-0.98	0.271	-0.059	1.68	-6.3	3.22
56357	-0.97	0.292	-0.052	0.21	-5.46	2.94
56382	-0.973	0.269	-0.055	0.49	-4.55	2.52
56402	-0.975	0.266	-0.057	0.14	-4.55	2.59
56422	-0.975	0.279	-0.053	-0.7	-3.85	2.1
56442	-0.97	0.28	-0.056	0.14	-2.8	1.82
56460	-0.982	0.271	-0.055	0.28	-2.94	1.47
56480	-0.986	0.267	-0.049	0.84	-2.87	1.47
56504	-0.972	0.267	-0.056	0.42	-2.17	1.19
56524	-0.96	0.278	-0.057	-0.7	-1.4	1.26
56544	-0.972	0.286	-0.051	-1.26	-1.05	1.05
56560	-0.992	0.272	-0.053	-3.01	-1.12	1.19
56582	-0.976	0.264	-0.052	-2.59	-0.7	1.33
56601	-0.975	0.269	-0.063	-2.73	-0.49	1.19
56621	-0.983	0.267	-0.065	-1.61	-1.54	1.12
56641	-0.976	0.267	-0.066	-0.35	-2.38	1.05
56664	-0.983	0.273	-0.063	0.21	-3.29	1.19
56685	-0.979	0.274	-0.058	0.35	-3.71	1.4
56705	-0.978	0.271	-0.057	0.7	-3.92	1.4
56725	-0.98	0.266	-0.053	0.21	-3.57	1.61
56749	-0.974	0.271	-0.055	0.56	-3.5	1.54
56769	-0.976	0.285	-0.048	0.49	-3.01	1.4
56792	-0.981	0.284	-0.044	0.49	-2.52	0.77
56813	-0.977	0.274	-0.047	0.7	-1.61	0.28
56836	-0.974	0.278	-0.053	1.54	-1.4	-0.14
56855	-0.973	0.273	-0.054	0.56	-1.19	-0.42
56875	-0.976	0.265	-0.058	-0.07	-0.56	-0.07
56899	-0.983	0.262	-0.059	-0.28	-0.77	0.56
56918	-0.989	0.266	-0.067	-1.75	-1.68	0.91
56939	-0.979	0.269	-0.071	-1.89	-2.52	1.26
56959	-0.982	0.269	-0.06	-2.03	-3.08	1.82
56983	-0.983	0.258	-0.062	-2.31	-3.85	2.24
57003	-0.978	0.268	-0.053	-2.03	-4.2	2.24
57022	-0.97	0.283	-0.05	-1.75	-3.78	1.75
57045	-0.972	0.291	-0.047	-2.24	-2.66	1.12
57066	-0.976	0.274	-0.045	-1.47	-2.1	0.42
57081	-0.976	0.276	-0.052	-1.12	-1.82	0.21
57104	-0.975	0.273	-0.05	-1.19	-0.98	-0.14
57124	-0.982	0.262	-0.055	-0.91	-0.91	-0.07
57143	-0.984	0.271	-0.056	-0.56	-1.26	0.07
57168	-0.981	0.26	-0.058	0.0	-1.4	0.35
57188	-0.977	0.272	-0.051	-0.14	-1.4	0.49
57204	-0.978	0.267	-0.062	-0.21	-1.4	0.7
57228	-0.987	0.262	-0.06	0.28	-2.38	1.19
