Timestamp,AccelX,AccelY,AccelZ,GyroX,GyroY,GyroZ
1743542241.715921,0.035,0.02,1.031,0.35,-2.45,-0.35
1743542241.735921,0.035,0.034,1.036,0.21,-2.45,-0.35
1743542241.755921,0.032,0.03,1.033,0.35,-2.38,-0.35
1743542242.016656,0.036,0.026,1.032,0.42,-2.31,-0.42
1743542242.036656,0.033,0.025,1.034,0.35,-2.38,-0.35
1743542242.056656,0.033,0.027,1.033,0.42,-2.45,-0.35
1743542242.315773,0.036,0.026,1.035,0.56,-2.31,-0.35
1743542242.335773,0.036,0.026,1.027,0.14,-2.45,-0.42
1743542242.355773,0.039,0.029,1.032,0.56,-2.31,-0.42
1743542242.6154711,0.035,0.029,1.032,0.49,-2.38,-0.28
1743542242.635471,0.035,0.027,1.029,0.42,-2.38,-0.28
1743542242.655471,0.032,0.027,1.023,0.7,-2.38,-0.35
1743542242.916196,0.033,0.026,1.033,0.35,-2.45,-0.42
1743542242.936196,0.034,0.024,1.033,0.49,-2.24,-0.28
1743542242.956196,0.033,0.028,1.037,0.28,-2.45,-0.21
1743542243.216732,0.033,0.028,1.035,0.42,-2.31,-0.42
1743542243.236732,0.035,0.025,1.032,0.35,-2.45,-0.42
1743542243.256732,0.036,0.029,1.031,0.56,-2.45,-0.35
1743542243.515594,0.034,0.028,1.034,0.35,-2.45,-0.28
1743542243.535594,0.034,0.03,1.035,0.42,-2.45,-0.35
1743542243.555594,0.034,0.032,1.032,0.42,-2.45,-0.28
1743542243.818455,0.033,0.027,1.035,0.42,-2.45,-0.28
1743542243.838455,0.034,0.03,1.03,0.35,-2.38,-0.35
1743542243.858455,0.033,0.026,1.03,0.42,-2.45,-0.35
1743542244.144151,0.034,0.023,1.032,0.35,-2.38,-0.35
1743542244.164151,0.033,0.024,1.034,0.21,-2.38,-0.28
1743542244.184151,0.034,0.023,1.032,0.35,-2.38,-0.35
1743542244.428735,0.038,0.024,1.032,0.14,-2.31,-0.35
1743542244.448735,0.038,0.023,1.027,0.42,-2.38,-0.28
1743542244.468735,0.041,0.018,1.027,0.63,-2.31,-0.35
1743542244.715798,0.039,0.018,1.035,0.35,-2.45,-0.35
1743542244.735798,0.036,0.015,1.037,-0.14,-2.45,-0.35
1743542244.755798,0.035,0.024,1.032,0.14,-2.31,-0.35
1743542245.0160751,0.034,0.023,1.034,0.28,-2.45,-0.28
1743542245.036075,0.038,0.016,1.017,1.82,-2.31,-0.42
1743542245.056075,0.037,0.02,1.031,0.49,-2.45,-0.35
1743542245.316136,0.032,0.028,1.029,0.35,-2.45,-0.35
1743542245.336136,0.035,0.029,1.03,0.42,-2.45,-0.35
1743542245.3561358,0.035,0.026,1.033,0.42,-2.38,-0.35
1743542245.616104,0.034,0.026,1.033,0.63,-2.38,-0.35
1743542245.636104,0.033,0.024,1.029,0.77,-2.38,-0.49
1743542245.6561038,0.035,0.023,1.032,0.35,-2.38,-0.42
1743542245.96123,0.034,0.029,1.033,0.42,-2.45,-0.28
1743542245.98123,0.037,0.027,1.018,0.56,-2.38,-0.35
1743542246.00123,0.034,0.026,1.032,0.56,-2.45,-0.28
1743542246.2161431,0.031,0.03,1.032,0.35,-2.38,-0.28
1743542246.236143,0.031,0.031,1.034,0.49,-2.45,-0.35
1743542246.256143,0.031,0.03,1.035,0.56,-2.38,-0.35
1743542246.5159192,0.029,0.028,1.032,0.49,-2.38,-0.28
1743542246.5359192,0.032,0.026,1.028,0.56,-2.38,-0.42
1743542246.5559192,0.031,0.024,1.032,0.42,-2.38,-0.42
1743542246.816593,0.03,0.025,1.032,0.49,-2.38,-0.28
1743542246.836593,0.031,0.028,1.031,0.42,-2.38,-0.35
1743542246.856593,0.03,0.028,1.032,0.35,-2.38,-0.28
1743542247.116597,0.034,0.031,1.03,0.42,-2.45,-0.35
1743542247.136597,0.031,0.03,1.033,0.35,-2.45,-0.35
1743542247.156597,0.035,0.026,1.031,0.42,-2.38,-0.35
1743542247.4187222,0.034,0.027,1.031,0.49,-2.31,-0.35
1743542247.438722,0.035,0.028,1.025,0.35,-2.31,-0.42
1743542247.458722,0.033,0.027,1.034,0.28,-2.31,-0.35
1743542247.716581,0.034,0.026,1.032,0.35,-2.31,-0.28
1743542247.736581,0.033,0.026,1.029,0.42,-2.38,-0.35
1743542247.756581,0.034,0.027,1.033,0.42,-2.38,-0.28
1743542248.0155752,0.034,0.027,1.033,0.35,-2.45,-0.28
1743542248.0355752,0.034,0.026,1.032,0.28,-2.45,-0.42
1743542248.0555751,0.034,0.028,1.033,0.42,-2.38,-0.35
1743542248.31694,0.037,0.026,1.034,0.35,-2.52,-0.35
1743542248.33694,0.033,0.027,1.03,0.42,-2.31,-0.35
1743542248.35694,0.034,0.027,1.033,0.49,-2.45,-0.35
1743542248.616692,0.034,0.027,1.032,0.49,-2.45,-0.35
1743542248.636692,0.032,0.026,1.032,0.35,-2.38,-0.35
1743542248.656692,0.034,0.026,1.033,0.35,-2.45,-0.28
1743542248.915196,0.033,0.027,1.031,0.35,-2.45,-0.35
1743542248.935196,0.035,0.028,1.034,0.42,-2.45,-0.28
1743542248.955196,0.033,0.026,1.032,0.42,-2.31,-0.35
1743542249.2176032,0.032,0.026,1.033,0.35,-2.38,-0.35
1743542249.2376032,0.035,0.027,1.033,0.42,-2.52,-0.35
1743542249.2576032,0.033,0.023,1.034,0.35,-2.45,-0.35
1743542249.516923,0.034,0.026,1.033,0.28,-2.38,-0.35
1743542249.536923,0.035,0.028,1.031,0.35,-2.38,-0.21
1743542249.556923,0.034,0.027,1.032,0.35,-2.45,-0.35
1743542249.8169951,0.035,0.026,1.032,0.35,-2.45,-0.35
1743542249.8369951,0.035,0.029,1.034,0.49,-2.45,-0.35
1743542249.856995,0.035,0.027,1.031,0.35,-2.45,-0.28
1743542250.1324732,0.033,0.025,1.035,0.35,-2.45,-0.35
1743542250.1524732,0.034,0.025,1.034,0.42,-2.38,-0.28
1743542250.1724732,0.034,0.029,1.032,0.49,-2.45,-0.21
1743542250.416242,0.034,0.027,1.032,0.49,-2.38,-0.28
1743542250.436242,0.032,0.027,1.035,0.42,-2.52,-0.35
1743542250.4562418,0.034,0.026,1.034,0.42,-2.45,-0.28
1743542250.716068,0.032,0.027,1.031,0.35,-2.38,-0.35
1743542250.736068,0.035,0.027,1.032,0.42,-2.45,-0.35
1743542250.756068,0.035,0.028,1.032,0.42,-2.52,-0.35
1743542251.018252,0.035,0.027,1.031,0.42,-2.24,-0.42
1743542251.038252,0.034,0.028,1.031,0.35,-2.45,-0.35
1743542251.058252,0.034,0.026,1.033,0.42,-2.38,-0.35
1743542251.317813,0.032,0.027,1.033,0.35,-2.52,-0.42
1743542251.337813,0.036,0.027,1.034,0.42,-2.31,-0.42
1743542251.357813,0.035,0.027,1.031,0.42,-2.31,-0.42
1743542251.61693,0.032,0.029,1.033,0.35,-2.31,-0.35
1743542251.63693,0.032,0.026,1.033,0.42,-2.38,-0.42
1743542251.65693,0.034,0.025,1.032,0.35,-2.38,-0.35
1743542251.918118,0.034,0.026,1.031,0.35,-2.38,-0.42
1743542251.938118,0.035,0.025,1.031,0.42,-2.38,-0.35
1743542251.958118,0.034,0.027,1.032,0.42,-2.45,-0.28
1743542252.216599,0.033,0.026,1.032,0.49,-2.38,-0.35
1743542252.236599,0.034,0.027,1.032,0.35,-2.31,-0.35
1743542252.256599,0.035,0.026,1.029,0.35,-2.38,-0.49
1743542252.516757,0.032,0.028,1.032,0.42,-2.45,-0.35
1743542252.536757,0.035,0.026,1.034,0.28,-2.45,-0.35
1743542252.556757,0.033,0.028,1.032,0.35,-2.45,-0.35
1743542252.818076,0.036,0.027,1.032,0.35,-2.38,-0.28
1743542252.838076,0.034,0.026,1.034,0.42,-2.31,-0.35
1743542252.858076,0.034,0.027,1.03,0.42,-2.45,-0.35
1743542253.117279,0.033,0.028,1.032,0.42,-2.45,-0.28
1743542253.137279,0.035,0.027,1.032,0.42,-2.31,-0.28
1743542253.157279,0.035,0.028,1.034,0.42,-2.45,-0.35
1743542253.415944,0.035,0.027,1.032,0.35,-2.38,-0.42
1743542253.4359438,0.035,0.027,1.032,0.35,-2.38,-0.28
1743542253.4559438,0.035,0.026,1.029,0.42,-2.45,-0.42
1743542253.7315872,0.034,0.027,1.033,0.35,-2.38,-0.28
1743542253.7515872,0.033,0.027,1.033,0.35,-2.38,-0.42
1743542253.7715871,0.032,0.026,1.03,0.49,-2.45,-0.35
1743542254.031716,0.034,0.027,1.031,0.35,-2.38,-0.28
1743542254.051716,0.034,0.026,1.03,0.28,-2.45,-0.42
1743542254.071716,0.034,0.026,1.031,0.35,-2.38,-0.42
1743542254.330605,0.035,0.025,1.032,0.42,-2.38,-0.35
1743542254.350605,0.033,0.027,1.032,0.28,-2.38,-0.28
1743542254.370605,0.034,0.027,1.034,0.35,-2.45,-0.35
1743542254.630795,0.036,0.025,1.03,0.42,-2.45,-0.35
1743542254.650795,0.034,0.027,1.034,0.35,-2.38,-0.42
1743542254.670795,0.034,0.027,1.032,0.35,-2.45,-0.28
1743542254.945825,0.033,0.027,1.032,0.35,-2.31,-0.35
1743542254.965825,0.033,0.026,1.03,0.42,-2.45,-0.28
1743542254.985825,0.034,0.027,1.032,0.49,-2.52,-0.28
1743542255.230593,0.034,0.025,1.033,0.42,-2.52,-0.35
1743542255.250593,0.033,0.025,1.034,0.35,-2.45,-0.28
1743542255.270593,0.035,0.026,1.034,0.42,-2.45,-0.35
1743542255.531738,0.033,0.028,1.033,0.35,-2.45,-0.35
1743542255.551738,0.032,0.029,1.034,0.42,-2.38,-0.35
1743542255.571738,0.033,0.028,1.032,0.42,-2.45,-0.28
1743542255.8451002,0.035,0.027,1.032,0.42,-2.45,-0.35
1743542255.8651,0.034,0.028,1.033,0.42,-2.31,-0.28
1743542255.8851,0.033,0.027,1.033,0.35,-2.52,-0.35
1743542256.13156,0.034,0.028,1.032,0.42,-2.38,-0.35
1743542256.15156,0.035,0.027,1.033,0.28,-2.45,-0.21
1743542256.17156,0.035,0.028,1.033,0.35,-2.52,-0.42
1743542256.446364,0.033,0.026,1.033,0.42,-2.45,-0.42
1743542256.466364,0.035,0.026,1.032,0.42,-2.45,-0.28
1743542256.486364,0.035,0.027,1.033,0.42,-2.45,-0.28
1743542256.731472,0.035,0.025,1.029,0.35,-2.38,-0.28
1743542256.751472,0.034,0.026,1.032,0.42,-2.45,-0.35
1743542256.771472,0.036,0.027,1.033,0.42,-2.45,-0.42
1743542257.031348,0.033,0.026,1.034,0.35,-2.38,-0.42
1743542257.051348,0.035,0.027,1.032,0.42,-2.38,-0.35
1743542257.071348,0.036,0.026,1.032,0.35,-2.38,-0.35
1743542257.331506,0.031,0.027,1.035,0.35,-2.45,-0.42
1743542257.351506,0.033,0.027,1.032,0.42,-2.45,-0.35
1743542257.371506,0.032,0.028,1.031,0.42,-2.45,-0.35
1743542257.63216,0.036,0.029,1.032,0.42,-2.45,-0.28
1743542257.65216,0.033,0.028,1.032,0.42,-2.52,-0.35
1743542257.67216,0.033,0.025,1.032,0.35,-2.31,-0.42
1743542257.931026,0.033,0.026,1.033,0.35,-2.38,-0.35
1743542257.951026,0.035,0.026,1.033,0.35,-2.31,-0.42
1743542257.971026,0.036,0.027,1.032,0.42,-2.38,-0.35
1743542258.231339,0.036,0.028,1.031,0.42,-2.31,-0.35
1743542258.251339,0.034,0.027,1.032,0.35,-2.38,-0.42
1743542258.271339,0.036,0.025,1.034,0.35,-2.38,-0.35
1743542258.531564,0.035,0.028,1.034,0.42,-2.31,-0.35
1743542258.551564,0.034,0.025,1.033,0.42,-2.38,-0.28
1743542258.571564,0.035,0.027,1.032,0.35,-2.45,-0.42
1743542258.831018,0.035,0.026,1.031,0.35,-2.45,-0.28
1743542258.851018,0.034,0.028,1.031,0.49,-2.38,-0.28
1743542258.871018,0.035,0.025,1.031,0.42,-2.31,-0.35
1743542259.132409,0.033,0.027,1.032,0.35,-2.31,-0.35
1743542259.152409,0.034,0.027,1.032,0.35,-2.52,-0.35
1743542259.172409,0.035,0.028,1.033,0.42,-2.38,-0.42
1743542259.434306,0.034,0.024,1.034,0.42,-2.45,-0.42
1743542259.454306,0.033,0.025,1.032,0.42,-2.45,-0.28
1743542259.474306,0.036,0.026,1.031,0.42,-2.38,-0.28
1743542259.730748,0.034,0.026,1.033,0.35,-2.38,-0.35
1743542259.750748,0.033,0.025,1.032,0.42,-2.38,-0.28
1743542259.770748,0.035,0.028,1.03,0.35,-2.38,-0.35
1743542260.063039,0.032,0.027,1.034,0.42,-2.38,-0.35
1743542260.083039,0.035,0.027,1.03,0.42,-2.24,-0.49
1743542260.103039,0.036,0.026,1.033,0.28,-2.38,-0.42
1743542260.3326662,0.034,0.027,1.033,0.35,-2.38,-0.35
1743542260.352666,0.034,0.027,1.033,0.42,-2.38,-0.35
1743542260.372666,0.035,0.028,1.033,0.42,-2.38,-0.35
1743542260.630761,0.033,0.026,1.033,0.42,-2.45,-0.35
1743542260.650761,0.034,0.028,1.033,0.35,-2.45,-0.35
1743542260.6707609,0.034,0.025,1.033,0.42,-2.38,-0.35
1743542260.930967,0.035,0.029,1.031,0.42,-2.45,-0.28
1743542260.950967,0.037,0.027,1.032,0.28,-2.45,-0.35
1743542260.970967,0.033,0.026,1.03,0.35,-2.45,-0.28
1743542261.232222,0.035,0.027,1.032,0.42,-2.45,-0.35
1743542261.252222,0.034,0.028,1.032,0.35,-2.31,-0.35
1743542261.272222,0.034,0.025,1.032,0.42,-2.31,-0.42
1743542261.531317,0.036,0.028,1.032,0.49,-2.38,-0.35
1743542261.551317,0.034,0.028,1.032,0.49,-2.45,-0.35
1743542261.571317,0.033,0.027,1.031,0.42,-2.45,-0.28
1743542261.831526,0.035,0.024,1.034,0.49,-2.38,-0.35
1743542261.851526,0.033,0.027,1.033,0.35,-2.52,-0.35
1743542261.871526,0.033,0.028,1.031,0.35,-2.24,-0.35
1743542262.132179,0.034,0.026,1.032,0.42,-2.31,-0.28
1743542262.152179,0.034,0.029,1.031,0.42,-2.45,-0.35
1743542262.172179,0.035,0.028,1.032,0.42,-2.38,-0.28
1743542262.431079,0.032,0.027,1.033,0.35,-2.38,-0.21
1743542262.451079,0.036,0.028,1.03,0.42,-2.45,-0.28
1743542262.4710789,0.035,0.027,1.03,0.42,-2.38,-0.35
1743542262.731636,0.032,0.025,1.029,0.42,-2.38,-0.42
1743542262.751636,0.034,0.028,1.033,0.42,-2.38,-0.35
1743542262.771636,0.035,0.026,1.032,0.35,-2.38,-0.35
1743542263.0325582,0.032,0.028,1.034,0.42,-2.38,-0.35
1743542263.0525582,0.035,0.027,1.031,0.42,-2.45,-0.35
1743542263.0725582,0.034,0.028,1.032,0.42,-2.38,-0.35
1743542263.330914,0.035,0.027,1.034,0.35,-2.45,-0.35
1743542263.350914,0.035,0.025,1.032,0.42,-2.38,-0.42
1743542263.370914,0.032,0.026,1.03,0.35,-2.31,-0.42
1743542263.631823,0.032,0.027,1.032,0.35,-2.38,-0.35
1743542263.651823,0.035,0.027,1.031,0.42,-2.45,-0.35
1743542263.671823,0.034,0.026,1.033,0.35,-2.52,-0.35
1743542263.917641,0.033,0.026,1.033,0.49,-2.52,-0.35
1743542263.937641,0.033,0.028,1.033,0.28,-2.45,-0.28
1743542263.957641,0.035,0.026,1.031,0.42,-2.38,-0.28
1743542264.216532,0.034,0.027,1.032,0.42,-2.38,-0.35
1743542264.236532,0.035,0.029,1.033,0.35,-2.38,-0.35
1743542264.256532,0.033,0.026,1.032,0.28,-2.45,-0.35
1743542264.518413,0.035,0.027,1.031,0.49,-2.38,-0.28
1743542264.538413,0.033,0.027,1.032,0.42,-2.31,-0.28
1743542264.558413,0.034,0.026,1.032,0.42,-2.31,-0.35
1743542264.817649,0.036,0.026,1.031,0.28,-2.38,-0.28
1743542264.8376489,0.035,0.026,1.034,0.49,-2.31,-0.42
1743542264.8576488,0.035,0.026,1.033,0.35,-2.45,-0.35
1743542265.1161442,0.034,0.028,1.032,0.42,-2.45,-0.42
1743542265.1361442,0.034,0.026,1.033,0.35,-2.52,-0.35
1743542265.156144,0.036,0.025,1.032,0.42,-2.52,-0.28
1743542265.4301052,0.035,0.029,1.034,0.42,-2.38,-0.35
1743542265.4501052,0.037,0.028,1.031,0.35,-2.38,-0.28
1743542265.4701052,0.036,0.028,1.033,0.35,-2.52,-0.28
1743542265.7307909,0.032,0.025,1.034,0.35,-2.45,-0.42
1743542265.7507908,0.033,0.024,1.033,0.35,-2.38,-0.35
1743542265.7707908,0.034,0.027,1.033,0.49,-2.52,-0.35
1743542266.0163991,0.032,0.027,1.034,0.42,-2.45,-0.28
1743542266.0363991,0.033,0.025,1.032,0.35,-2.52,-0.28
1743542266.056399,0.035,0.025,1.033,0.49,-2.38,-0.28
1743542266.3171048,0.033,0.027,1.032,0.35,-2.52,-0.28
1743542266.3371048,0.033,0.026,1.032,0.42,-2.45,-0.35
1743542266.3571048,0.034,0.028,1.031,0.42,-2.38,-0.28
1743542266.6175592,0.034,0.027,1.033,0.35,-2.31,-0.35
1743542266.6375592,0.033,0.027,1.031,0.35,-2.38,-0.28
1743542266.6575592,0.034,0.027,1.033,0.42,-2.38,-0.28
1743542266.930716,0.034,0.026,1.032,0.35,-2.38,-0.21
1743542266.950716,0.033,0.027,1.032,0.42,-2.38,-0.35
1743542266.970716,0.037,0.026,1.032,0.42,-2.38,-0.28
1743542267.230346,0.033,0.027,1.034,0.35,-2.45,-0.42
1743542267.250346,0.033,0.027,1.031,0.35,-2.38,-0.35
1743542267.270346,0.034,0.026,1.033,0.42,-2.45,-0.35
1743542267.51718,0.033,0.028,1.032,0.35,-2.38,-0.42
1743542267.53718,0.034,0.026,1.031,0.42,-2.45,-0.35
1743542267.55718,0.035,0.028,1.033,0.35,-2.38,-0.35
1743542267.817167,0.034,0.029,1.033,0.42,-2.45,-0.35
1743542267.837167,0.035,0.027,1.033,0.35,-2.24,-0.35
1743542267.857167,0.034,0.026,1.034,0.35,-2.45,-0.28
1743542268.1326551,0.032,0.027,1.03,0.35,-2.38,-0.28
1743542268.1526551,0.034,0.027,1.032,0.42,-2.38,-0.35
1743542268.172655,0.034,0.026,1.033,0.42,-2.45,-0.42
1743542268.4313445,0.034,0.026,1.032,0.49,-2.45,-0.35
1743542268.4513445,0.036,0.027,1.032,0.42,-2.45,-0.21
1743542268.4713442,0.033,0.028,1.032,0.35,-2.38,-0.42
1743542268.731922,0.038,0.026,1.033,0.42,-2.38,-0.35
1743542268.751922,0.034,0.027,1.032,0.49,-2.31,-0.35
1743542268.771922,0.033,0.026,1.032,0.42,-2.45,-0.35
1743542269.0187762,0.035,0.026,1.032,0.42,-2.52,-0.28
1743542269.0387762,0.034,0.026,1.03,0.49,-2.38,-0.42
1743542269.058776,0.036,0.025,1.033,0.35,-2.38,-0.35
1743542269.330368,0.034,0.027,1.033,0.28,-2.38,-0.35
1743542269.350368,0.034,0.027,1.031,0.49,-2.24,-0.42
1743542269.370368,0.034,0.025,1.032,0.35,-2.24,-0.42
1743542269.630055,0.035,0.029,1.03,0.35,-2.38,-0.35
1743542269.650055,0.032,0.025,1.032,0.42,-2.38,-0.42
1743542269.670055,0.035,0.029,1.031,0.35,-2.38,-0.42
1743542269.917962,0.034,0.029,1.03,0.35,-2.45,-0.28
1743542269.937962,0.037,0.026,1.031,0.35,-2.38,-0.28
1743542269.957962,0.034,0.024,1.032,0.35,-2.38,-0.35
1743542270.2175832,0.034,0.025,1.035,0.35,-2.38,-0.35
1743542270.2375832,0.035,0.026,1.033,0.42,-2.45,-0.35
1743542270.2575831,0.034,0.026,1.032,0.35,-2.38,-0.35
1743542270.517177,0.034,0.026,1.033,0.35,-2.31,-0.35
1743542270.537177,0.032,0.026,1.034,0.42,-2.45,-0.35
1743542270.557177,0.035,0.026,1.032,0.35,-2.38,-0.35
1743542270.817603,0.036,0.028,1.033,0.42,-2.38,-0.35
1743542270.837603,0.035,0.027,1.03,0.28,-2.52,-0.35
1743542270.857603,0.034,0.028,1.032,0.42,-2.38,-0.28
1743542271.1184862,0.034,0.025,1.032,0.35,-2.45,-0.35
1743542271.138486,0.034,0.026,1.031,0.42,-2.45,-0.28
1743542271.158486,0.037,0.029,1.033,0.28,-2.31,-0.28
1743542271.416337,0.034,0.027,1.032,0.35,-2.38,-0.42
1743542271.436337,0.033,0.026,1.034,0.42,-2.45,-0.35
1743542271.456337,0.03,0.028,1.032,0.42,-2.38,-0.28
1743542271.717637,0.033,0.026,1.032,0.35,-2.38,-0.42
1743542271.737637,0.033,0.029,1.032,0.35,-2.45,-0.35
1743542271.757637,0.032,0.026,1.031,0.42,-2.38,-0.35
1743542272.01767,0.033,0.026,1.033,0.42,-2.45,-0.28
1743542272.03767,0.034,0.027,1.032,0.42,-2.45,-0.35
1743542272.05767,0.033,0.026,1.032,0.42,-2.38,-0.35
1743542272.3170402,0.036,0.026,1.032,0.35,-2.38,-0.35
1743542272.3370402,0.033,0.027,1.03,0.42,-2.38,-0.35
1743542272.3570402,0.031,0.026,1.033,0.35,-2.31,-0.42
1743542272.645499,0.036,0.028,1.033,0.42,-2.38,-0.28
1743542272.665499,0.034,0.027,1.032,0.35,-2.38,-0.35
1743542272.685499,0.033,0.028,1.034,0.42,-2.45,-0.28
1743542272.916928,0.035,0.029,1.033,0.42,-2.45,-0.35
1743542272.936928,0.034,0.026,1.031,0.35,-2.31,-0.35
1743542272.956928,0.033,0.027,1.031,0.42,-2.52,-0.35
1743542273.2170272,0.034,0.029,1.032,0.28,-2.45,-0.35
1743542273.2370272,0.035,0.025,1.032,0.49,-2.38,-0.42
1743542273.2570271,0.034,0.025,1.033,0.42,-2.38,-0.35
1743542273.5193129,0.034,0.027,1.034,0.35,-2.38,-0.35
1743542273.5393128,0.033,0.025,1.033,0.42,-2.45,-0.28
1743542273.5593128,0.033,0.029,1.031,0.42,-2.45,-0.35
1743542273.819464,0.034,0.026,1.031,0.35,-2.45,-0.35
1743542273.839464,0.035,0.028,1.032,0.35,-2.24,-0.35
1743542273.859464,0.034,0.028,1.034,0.35,-2.38,-0.42
1743542274.117156,0.034,0.028,1.03,0.35,-2.38,-0.28
1743542274.137156,0.033,0.026,1.033,0.42,-2.45,-0.42
1743542274.157156,0.034,0.029,1.035,0.42,-2.38,-0.35
1743542274.418231,0.033,0.027,1.035,0.35,-2.45,-0.35
1743542274.438231,0.033,0.025,1.033,0.42,-2.38,-0.35
1743542274.458231,0.035,0.029,1.031,0.35,-2.24,-0.42
1743542274.717432,0.034,0.027,1.034,0.35,-2.38,-0.35
1743542274.737432,0.033,0.024,1.031,0.35,-2.24,-0.35
1743542274.757432,0.035,0.026,1.032,0.28,-2.38,-0.42
1743542275.016426,0.034,0.027,1.033,0.35,-2.52,-0.42
1743542275.036426,0.035,0.027,1.032,0.42,-2.38,-0.35
1743542275.056426,0.034,0.027,1.031,0.42,-2.45,-0.35
1743542275.3194292,0.033,0.026,1.032,0.42,-2.38,-0.35
1743542275.3394291,0.034,0.026,1.033,0.35,-2.45,-0.35
1743542275.3594291,0.035,0.026,1.032,0.42,-2.38,-0.28
1743542275.617287,0.032,0.028,1.032,0.35,-2.38,-0.28
1743542275.637287,0.034,0.027,1.032,0.42,-2.24,-0.35
1743542275.657287,0.035,0.025,1.031,0.35,-2.38,-0.35
1743542275.9165,0.034,0.025,1.031,0.42,-2.38,-0.35
1743542275.9365,0.033,0.026,1.031,0.35,-2.45,-0.42
1743542275.9565,0.034,0.027,1.032,0.42,-2.38,-0.35
1743542276.230558,0.033,0.027,1.034,0.28,-2.31,-0.35
1743542276.250558,0.033,0.027,1.033,0.49,-2.45,-0.28
1743542276.270558,0.033,0.028,1.033,0.42,-2.45,-0.35
1743542276.518996,0.033,0.026,1.034,0.35,-2.38,-0.35
1743542276.538996,0.034,0.029,1.033,0.42,-2.31,-0.35
1743542276.558996,0.033,0.026,1.032,0.28,-2.31,-0.28
1743542276.817058,0.034,0.027,1.03,0.35,-2.31,-0.28
1743542276.837058,0.036,0.028,1.032,0.42,-2.31,-0.35
1743542276.857058,0.034,0.028,1.031,0.42,-2.38,-0.42
1743542277.1193092,0.036,0.026,1.031,0.28,-2.45,-0.42
1743542277.1393092,0.034,0.026,1.031,0.35,-2.38,-0.35
1743542277.1593091,0.035,0.027,1.032,0.35,-2.31,-0.35
1743542277.417079,0.034,0.028,1.033,0.35,-2.31,-0.28
1743542277.437079,0.034,0.027,1.033,0.35,-2.38,-0.35
1743542277.457079,0.034,0.026,1.032,0.42,-2.31,-0.21
1743542277.717199,0.034,0.028,1.033,0.35,-2.38,-0.35
1743542277.737199,0.034,0.028,1.032,0.35,-2.31,-0.28
1743542277.757199,0.035,0.026,1.033,0.49,-2.45,-0.35
1743542278.016917,0.033,0.025,1.031,0.35,-2.45,-0.28
1743542278.036917,0.034,0.027,1.032,0.42,-2.38,-0.35
1743542278.056917,0.034,0.026,1.034,0.42,-2.38,-0.35
1743542278.317074,0.037,0.026,1.032,0.35,-2.38,-0.35
1743542278.337074,0.033,0.027,1.032,0.49,-2.31,-0.28
1743542278.357074,0.034,0.027,1.034,0.42,-2.45,-0.42
1743542278.616541,0.035,0.027,1.031,0.35,-2.38,-0.42
1743542278.636541,0.035,0.026,1.032,0.35,-2.38,-0.28
1743542278.6565409,0.034,0.027,1.034,0.42,-2.45,-0.28
1743542278.9181702,0.036,0.025,1.034,0.28,-2.45,-0.42
1743542278.9381702,0.033,0.027,1.033,0.35,-2.45,-0.42
1743542278.9581702,0.035,0.028,1.033,0.42,-2.31,-0.35
1743542279.2196202,0.033,0.028,1.033,0.42,-2.45,-0.21
1743542279.2396202,0.035,0.025,1.032,0.35,-2.38,-0.35
1743542279.2596202,0.034,0.025,1.029,0.35,-2.38,-0.35
1743542279.516736,0.033,0.027,1.033,0.42,-2.52,-0.42
1743542279.536736,0.032,0.027,1.034,0.42,-2.38,-0.28
1743542279.556736,0.031,0.026,1.034,0.42,-2.45,-0.35
1743542279.817388,0.035,0.027,1.031,0.42,-2.31,-0.35
1743542279.837388,0.037,0.026,1.032,0.35,-2.31,-0.42
1743542279.857388,0.033,0.027,1.032,0.42,-2.38,-0.42
1743542280.117517,0.035,0.029,1.032,0.35,-2.31,-0.42
1743542280.137517,0.032,0.026,1.032,0.42,-2.45,-0.49
1743542280.157517,0.033,0.027,1.033,0.28,-2.38,-0.28
1743542280.417238,0.035,0.027,1.033,0.42,-2.31,-0.35
1743542280.437238,0.033,0.027,1.032,0.42,-2.45,-0.35
1743542280.457238,0.034,0.026,1.031,0.42,-2.38,-0.35
1743542280.719351,0.032,0.026,1.034,0.42,-2.45,-0.28
1743542280.739351,0.034,0.027,1.031,0.42,-2.52,-0.35
1743542280.759351,0.035,0.028,1.033,0.35,-2.38,-0.35
1743542281.018247,0.035,0.027,1.036,0.35,-2.52,-0.49
1743542281.0382469,0.033,0.025,1.032,0.35,-2.52,-0.28
1743542281.0582469,0.035,0.026,1.032,0.35,-2.31,-0.42
1743542281.360713,0.035,0.03,1.032,0.35,-2.38,-0.28
1743542281.380713,0.034,0.027,1.033,0.56,-2.45,-0.42
1743542281.400713,0.036,0.027,1.033,0.42,-2.38,-0.35
1743542281.617874,0.036,0.026,1.033,0.42,-2.38,-0.42
1743542281.637874,0.033,0.027,1.031,0.35,-2.38,-0.35
1743542281.657874,0.034,0.027,1.033,0.35,-2.31,-0.28
1743542281.917833,0.036,0.026,1.033,0.42,-2.38,-0.35
1743542281.937833,0.033,0.026,1.032,0.49,-2.38,-0.35
1743542281.957833,0.034,0.026,1.033,0.42,-2.38,-0.42
1743542282.2167702,0.035,0.027,1.031,0.28,-2.45,-0.28
1743542282.2367702,0.033,0.028,1.032,0.35,-2.45,-0.42
1743542282.25677,0.034,0.027,1.033,0.42,-2.38,-0.35
1743542282.518165,0.034,0.028,1.034,0.42,-2.38,-0.35
1743542282.538165,0.033,0.028,1.032,0.35,-2.31,-0.35
1743542282.558165,0.034,0.026,1.032,0.35,-2.38,-0.35
1743542282.8174562,0.033,0.027,1.031,0.35,-2.31,-0.35
1743542282.8374562,0.034,0.028,1.031,0.49,-2.31,-0.35
1743542282.8574562,0.035,0.027,1.032,0.35,-2.31,-0.35
1743542283.116448,0.032,0.026,1.032,0.35,-2.45,-0.35
1743542283.136448,0.033,0.025,1.032,0.42,-2.45,-0.35
1743542283.156448,0.035,0.027,1.034,0.42,-2.31,-0.35
1743542283.416964,0.034,0.026,1.034,0.35,-2.38,-0.42
1743542283.436964,0.035,0.026,1.033,0.35,-2.31,-0.35
1743542283.456964,0.033,0.027,1.032,0.49,-2.38,-0.42
1743542283.733587,0.036,0.025,1.032,0.42,-2.31,-0.35
1743542283.753587,0.033,0.028,1.033,0.42,-2.38,-0.35
1743542283.773587,0.035,0.028,1.033,0.49,-2.38,-0.42
1743542284.032087,0.032,0.028,1.033,0.35,-2.45,-0.35
1743542284.052087,0.035,0.027,1.033,0.42,-2.45,-0.42
1743542284.072087,0.033,0.025,1.031,0.35,-2.38,-0.35
1743542284.347902,0.034,0.022,1.032,0.35,-2.31,-0.35
1743542284.367902,0.033,0.025,1.033,0.42,-2.38,-0.35
1743542284.387902,0.034,0.025,1.034,0.42,-2.45,-0.35
1743542284.633385,0.033,0.026,1.034,0.35,-2.38,-0.42
1743542284.653385,0.032,0.026,1.033,0.42,-2.45,-0.35
1743542284.673385,0.035,0.027,1.032,0.42,-2.45,-0.35
1743542284.93228,0.035,0.026,1.033,0.35,-2.38,-0.42
1743542284.95228,0.034,0.028,1.033,0.42,-2.38,-0.35
1743542284.97228,0.035,0.028,1.033,0.35,-2.52,-0.35
1743542285.232405,0.035,0.025,1.033,0.42,-2.24,-0.42
1743542285.252405,0.034,0.027,1.032,0.49,-2.38,-0.35
1743542285.272405,0.034,0.028,1.032,0.49,-2.31,-0.35
1743542285.533438,0.034,0.027,1.032,0.42,-2.38,-0.42
1743542285.553438,0.035,0.029,1.031,0.49,-2.38,-0.42
1743542285.573438,0.032,0.028,1.032,0.42,-2.45,-0.35
1743542285.8319628,0.035,0.026,1.032,0.42,-2.31,-0.42
1743542285.8519628,0.035,0.026,1.031,0.42,-2.38,-0.35
1743542285.8719628,0.033,0.026,1.034,0.35,-2.31,-0.42
1743542286.132392,0.033,0.025,1.034,0.49,-2.45,-0.42
1743542286.152392,0.034,0.026,1.032,0.35,-2.38,-0.28
1743542286.172392,0.034,0.027,1.033,0.42,-2.38,-0.35
1743542286.432982,0.033,0.028,1.034,0.35,-2.38,-0.35
1743542286.452982,0.035,0.026,1.031,0.35,-2.31,-0.35
1743542286.472982,0.031,0.025,1.031,0.42,-2.31,-0.42
1743542286.732096,0.035,0.026,1.03,0.49,-2.38,-0.42
1743542286.752096,0.034,0.027,1.031,0.42,-2.38,-0.35
1743542286.772096,0.032,0.027,1.032,0.28,-2.38,-0.28
1743542287.032425,0.034,0.028,1.033,0.49,-2.31,-0.28
1743542287.052425,0.032,0.025,1.032,0.35,-2.45,-0.35
1743542287.072425,0.033,0.029,1.034,0.35,-2.45,-0.28
1743542287.332468,0.034,0.026,1.033,0.28,-2.31,-0.35
1743542287.352468,0.035,0.026,1.031,0.49,-2.45,-0.28
1743542287.372468,0.034,0.028,1.033,0.42,-2.45,-0.35
1743542287.632606,0.035,0.026,1.033,0.35,-2.45,-0.21
1743542287.652606,0.033,0.029,1.031,0.42,-2.45,-0.28
1743542287.672606,0.034,0.026,1.031,0.42,-2.45,-0.42
1743542287.93376,0.033,0.027,1.032,0.35,-2.38,-0.35
1743542287.95376,0.033,0.025,1.031,0.42,-2.38,-0.28
1743542287.97376,0.033,0.026,1.034,0.35,-2.45,-0.42
1743542288.23372,0.034,0.027,1.032,0.35,-2.45,-0.49
1743542288.25372,0.033,0.026,1.033,0.28,-2.31,-0.35
1743542288.27372,0.034,0.027,1.032,0.35,-2.38,-0.35
1743542288.532166,0.032,0.027,1.032,0.42,-2.45,-0.35
1743542288.552166,0.033,0.027,1.033,0.42,-2.45,-0.42
1743542288.572166,0.035,0.027,1.032,0.42,-2.45,-0.35
1743542288.8326662,0.035,0.029,1.03,0.42,-2.45,-0.35
1743542288.852666,0.032,0.027,1.033,0.42,-2.31,-0.35
1743542288.872666,0.035,0.026,1.032,0.42,-2.38,-0.35
1743542289.132718,0.035,0.027,1.033,0.35,-2.38,-0.35
1743542289.152718,0.034,0.027,1.033,0.42,-2.31,-0.28
1743542289.172718,0.034,0.028,1.03,0.42,-2.45,-0.35
1743542289.432086,0.033,0.026,1.032,0.35,-2.45,-0.35
1743542289.452086,0.033,0.028,1.033,0.35,-2.38,-0.35
1743542289.472086,0.032,0.025,1.033,0.42,-2.38,-0.42
1743542289.7324302,0.035,0.028,1.031,0.42,-2.38,-0.35
1743542289.7524302,0.036,0.027,1.032,0.42,-2.31,-0.42
1743542289.7724302,0.034,0.026,1.031,0.35,-2.38,-0.49
1743542290.032953,0.033,0.028,1.03,0.28,-2.31,-0.35
1743542290.052953,0.034,0.026,1.035,0.49,-2.45,-0.35
1743542290.072953,0.035,0.027,1.035,0.42,-2.38,-0.28
1743542290.3318322,0.034,0.024,1.032,0.49,-2.45,-0.35
1743542290.3518322,0.035,0.025,1.033,0.35,-2.38,-0.35
1743542290.371832,0.035,0.026,1.033,0.35,-2.38,-0.35
1743542290.6333272,0.032,0.026,1.031,0.42,-2.45,-0.28
1743542290.6533272,0.034,0.026,1.034,0.35,-2.31,-0.35
1743542290.6733272,0.033,0.026,1.034,0.42,-2.45,-0.35
1743542290.9190972,0.034,0.027,1.033,0.35,-2.38,-0.35
1743542290.9390972,0.036,0.026,1.033,0.42,-2.45,-0.28
1743542290.9590971,0.035,0.024,1.031,0.35,-2.45,-0.35
1743542291.217519,0.034,0.027,1.034,0.35,-2.45,-0.42
1743542291.237519,0.033,0.027,1.031,0.35,-2.45,-0.28
1743542291.257519,0.033,0.027,1.034,0.35,-2.17,-0.42
1743542291.519272,0.034,0.027,1.032,0.35,-2.45,-0.35
1743542291.539272,0.034,0.027,1.031,0.42,-2.45,-0.35
1743542291.559272,0.036,0.026,1.033,0.42,-2.45,-0.35
1743542291.819495,0.033,0.027,1.033,0.35,-2.38,-0.35
1743542291.839495,0.034,0.028,1.032,0.42,-2.52,-0.35
1743542291.859495,0.034,0.027,1.032,0.42,-2.52,-0.42
1743542292.1177542,0.034,0.026,1.033,0.35,-2.38,-0.42
1743542292.1377542,0.033,0.026,1.032,0.35,-2.38,-0.35
1743542292.1577542,0.034,0.027,1.031,0.35,-2.45,-0.28
1743542292.419261,0.035,0.024,1.03,0.42,-2.45,-0.35
1743542292.439261,0.032,0.026,1.032,0.28,-2.38,-0.35
1743542292.459261,0.035,0.027,1.032,0.35,-2.31,-0.35
1743542292.7179022,0.035,0.026,1.031,0.42,-2.38,-0.35
1743542292.7379022,0.034,0.025,1.033,0.49,-2.45,-0.35
1743542292.757902,0.032,0.027,1.034,0.49,-2.38,-0.28
1743542293.0322711,0.034,0.025,1.033,0.35,-2.45,-0.28
1743542293.0522711,0.035,0.025,1.033,0.35,-2.45,-0.35
1743542293.072271,0.034,0.025,1.031,0.35,-2.52,-0.35
1743542293.317034,0.036,0.029,1.031,0.35,-2.38,-0.42
1743542293.337034,0.035,0.026,1.032,0.35,-2.38,-0.28
1743542293.357034,0.033,0.025,1.032,0.42,-2.38,-0.28
1743542293.618277,0.035,0.029,1.033,0.35,-2.45,-0.35
1743542293.638277,0.032,0.027,1.034,0.35,-2.38,-0.35
1743542293.658277,0.035,0.026,1.031,0.42,-2.45,-0.35
1743542293.917078,0.032,0.028,1.033,0.42,-2.38,-0.28
1743542293.937078,0.033,0.024,1.033,0.42,-2.31,-0.42
1743542293.957078,0.037,0.026,1.032,0.35,-2.38,-0.42
1743542294.218278,0.035,0.026,1.031,0.35,-2.38,-0.28
1743542294.238278,0.034,0.025,1.031,0.35,-2.31,-0.42
1743542294.258278,0.035,0.026,1.034,0.35,-2.38,-0.28
1743542294.520105,0.034,0.026,1.035,0.49,-2.52,-0.28
1743542294.5401049,0.032,0.025,1.034,0.35,-2.38,-0.35
1743542294.5601048,0.034,0.027,1.032,0.35,-2.38,-0.49
1743542294.81716,0.034,0.027,1.033,0.42,-2.45,-0.28
1743542294.83716,0.035,0.026,1.035,0.35,-2.38,-0.42
1743542294.85716,0.035,0.028,1.031,0.42,-2.31,-0.35
1743542295.118437,0.034,0.027,1.033,0.35,-2.38,-0.35
1743542295.138437,0.035,0.024,1.033,0.35,-2.31,-0.35
1743542295.158437,0.033,0.029,1.033,0.42,-2.45,-0.42
1743542295.419647,0.033,0.027,1.031,0.42,-2.45,-0.35
1743542295.439647,0.032,0.027,1.033,0.42,-2.45,-0.28
1743542295.459647,0.032,0.027,1.031,0.35,-2.45,-0.42
1743542295.718614,0.034,0.029,1.031,0.28,-2.38,-0.35
1743542295.738614,0.035,0.025,1.031,0.42,-2.45,-0.28
1743542295.758614,0.037,0.027,1.032,0.35,-2.38,-0.28
1743542296.019886,0.035,0.027,1.034,0.42,-2.52,-0.28
1743542296.039886,0.034,0.026,1.032,0.42,-2.31,-0.42
1743542296.059886,0.033,0.026,1.033,0.35,-2.45,-0.35
1743542296.317674,0.036,0.023,1.032,0.28,-2.38,-0.42
1743542296.337674,0.033,0.029,1.033,0.49,-2.31,-0.35
1743542296.357674,0.032,0.026,1.033,0.28,-2.38,-0.35
1743542296.63263,0.033,0.025,1.034,0.42,-2.38,-0.35
1743542296.65263,0.032,0.025,1.033,0.49,-2.38,-0.28
1743542296.67263,0.035,0.025,1.031,0.42,-2.38,-0.28
1743542296.918817,0.034,0.025,1.03,0.42,-2.38,-0.35
1743542296.938817,0.035,0.026,1.032,0.35,-2.38,-0.28
1743542296.958817,0.033,0.026,1.03,0.42,-2.38,-0.35
1743542297.2202032,0.031,0.027,1.033,0.42,-2.38,-0.42
1743542297.2402031,0.032,0.028,1.032,0.49,-2.45,-0.35
1743542297.2602031,0.032,0.026,1.03,0.42,-2.38,-0.42
1743542297.518024,0.033,0.024,1.033,0.35,-2.52,-0.42
1743542297.538024,0.033,0.027,1.033,0.42,-2.38,-0.28
1743542297.558024,0.036,0.027,1.032,0.42,-2.45,-0.35
1743542297.818221,0.034,0.025,1.033,0.28,-2.52,-0.42
1743542297.838221,0.035,0.027,1.031,0.42,-2.38,-0.35
1743542297.858221,0.034,0.027,1.033,0.35,-2.45,-0.35
1743542298.1192122,0.033,0.027,1.032,0.42,-2.38,-0.35
1743542298.139212,0.034,0.027,1.032,0.35,-2.45,-0.35
1743542298.159212,0.033,0.028,1.033,0.35,-2.45,-0.35
1743542298.418051,0.033,0.025,1.033,0.35,-2.38,-0.28
1743542298.438051,0.035,0.027,1.032,0.35,-2.31,-0.42
1743542298.458051,0.036,0.027,1.032,0.28,-2.45,-0.28
1743542298.7205498,0.032,0.027,1.033,0.42,-2.31,-0.28
1743542298.7405498,0.035,0.026,1.031,0.35,-2.45,-0.35
1743542298.7605498,0.036,0.026,1.033,0.42,-2.38,-0.35
1743542299.018335,0.036,0.028,1.032,0.35,-2.45,-0.35
1743542299.038335,0.033,0.029,1.034,0.42,-2.38,-0.42
1743542299.058335,0.037,0.026,1.034,0.35,-2.38,-0.42
1743542299.3182652,0.033,0.027,1.033,0.35,-2.38,-0.35
1743542299.3382652,0.033,0.026,1.033,0.35,-2.31,-0.35
1743542299.3582652,0.035,0.027,1.032,0.42,-2.45,-0.35
1743542299.616881,0.034,0.026,1.033,0.42,-2.38,-0.35
1743542299.6368809,0.035,0.027,1.033,0.35,-2.45,-0.28
1743542299.6568809,0.034,0.026,1.031,0.35,-2.38,-0.42
1743542299.918398,0.032,0.026,1.033,0.42,-2.38,-0.35
1743542299.938398,0.033,0.024,1.034,0.35,-2.38,-0.35
1743542299.958398,0.034,0.027,1.032,0.35,-2.38,-0.35
1743542300.218116,0.034,0.026,1.032,0.42,-2.38,-0.28
1743542300.238116,0.033,0.027,1.031,0.49,-2.31,-0.35
1743542300.258116,0.034,0.029,1.032,0.49,-2.45,-0.35
1743542300.533343,0.034,0.025,1.032,0.35,-2.45,-0.42
1743542300.553343,0.035,0.026,1.033,0.35,-2.38,-0.35
1743542300.573343,0.035,0.028,1.033,0.42,-2.24,-0.35
1743542300.818222,0.031,0.026,1.033,0.42,-2.45,-0.28
1743542300.838222,0.033,0.026,1.032,0.42,-2.31,-0.35
1743542300.858222,0.033,0.026,1.033,0.42,-2.38,-0.42
1743542301.133598,0.034,0.027,1.032,0.35,-2.38,-0.28
1743542301.153598,0.034,0.025,1.032,0.42,-2.38,-0.28
1743542301.173598,0.034,0.025,1.032,0.42,-2.45,-0.28
1743542301.418326,0.035,0.027,1.034,0.42,-2.45,-0.28
1743542301.438326,0.034,0.025,1.034,0.35,-2.45,-0.35
1743542301.458326,0.033,0.027,1.033,0.35,-2.38,-0.42
1743542301.717877,0.033,0.027,1.033,0.35,-2.38,-0.28
1743542301.737877,0.035,0.027,1.034,0.42,-2.45,-0.28
1743542301.7578769,0.034,0.027,1.031,0.42,-2.31,-0.28
1743542302.018683,0.035,0.025,1.032,0.42,-2.38,-0.35
1743542302.038683,0.036,0.028,1.032,0.42,-2.38,-0.42
1743542302.058683,0.034,0.026,1.032,0.35,-2.45,-0.35
1743542302.3182511,0.034,0.027,1.031,0.35,-2.38,-0.35
1743542302.338251,0.033,0.025,1.031,0.42,-2.45,-0.42
1743542302.358251,0.034,0.026,1.034,0.42,-2.38,-0.35
1743542302.618266,0.032,0.027,1.033,0.42,-2.45,-0.28
1743542302.638266,0.033,0.025,1.032,0.49,-2.38,-0.35
1743542302.658266,0.034,0.027,1.032,0.35,-2.45,-0.35
1743542302.9182532,0.03,0.027,1.031,0.35,-2.38,-0.35
1743542302.9382532,0.035,0.026,1.033,0.35,-2.45,-0.35
1743542302.9582531,0.034,0.024,1.033,0.42,-2.45,-0.35
1743542303.219845,0.034,0.027,1.034,0.49,-2.24,-0.35
1743542303.239845,0.034,0.027,1.033,0.42,-2.45,-0.42
1743542303.259845,0.033,0.027,1.032,0.35,-2.38,-0.35
1743542303.519721,0.036,0.026,1.033,0.42,-2.38,-0.35
1743542303.539721,0.034,0.028,1.031,0.49,-2.38,-0.35
1743542303.559721,0.034,0.026,1.033,0.42,-2.45,-0.28
1743542303.817894,0.034,0.027,1.032,0.28,-2.38,-0.42
1743542303.837894,0.035,0.028,1.033,0.42,-2.31,-0.42
1743542303.857894,0.035,0.028,1.033,0.42,-2.38,-0.35
1743542304.119869,0.037,0.028,1.035,0.42,-2.38,-0.28
1743542304.139869,0.033,0.027,1.033,0.35,-2.45,-0.35
1743542304.159869,0.033,0.026,1.031,0.35,-2.31,-0.21
1743542304.419007,0.035,0.026,1.032,0.35,-2.31,-0.35
1743542304.439007,0.035,0.026,1.033,0.42,-2.45,-0.28
1743542304.459007,0.034,0.027,1.031,0.42,-2.45,-0.28
1743542304.71825,0.035,0.025,1.033,0.42,-2.38,-0.35
1743542304.73825,0.035,0.027,1.033,0.49,-2.38,-0.28
1743542304.75825,0.035,0.025,1.033,0.49,-2.45,-0.35
1743542305.0200362,0.033,0.024,1.032,0.35,-2.45,-0.42
1743542305.0400362,0.034,0.027,1.033,0.42,-2.38,-0.35
1743542305.0600362,0.035,0.029,1.031,0.42,-2.31,-0.35
1743542305.31861,0.036,0.027,1.032,0.49,-2.38,-0.28
1743542305.33861,0.034,0.026,1.033,0.42,-2.31,-0.28
1743542305.35861,0.034,0.027,1.033,0.42,-2.45,-0.35
1743542305.618346,0.035,0.027,1.031,0.35,-2.45,-0.42
1743542305.638346,0.034,0.027,1.033,0.42,-2.59,-0.35
1743542305.658346,0.033,0.026,1.033,0.42,-2.45,-0.35
1743542305.920191,0.034,0.027,1.033,0.42,-2.45,-0.35
1743542305.940191,0.034,0.024,1.032,0.49,-2.38,-0.35
1743542305.960191,0.034,0.027,1.034,0.42,-2.31,-0.35
1743542306.220206,0.035,0.026,1.035,0.35,-2.38,-0.35
1743542306.240206,0.034,0.026,1.033,0.42,-2.38,-0.49
1743542306.260206,0.032,0.026,1.031,0.35,-2.38,-0.35
1743542306.5193222,0.035,0.024,1.033,0.42,-2.45,-0.42
1743542306.539322,0.034,0.028,1.033,0.28,-2.38,-0.28
1743542306.559322,0.034,0.026,1.033,0.35,-2.38,-0.35
1743542306.818517,0.035,0.026,1.031,0.35,-2.45,-0.35
1743542306.838517,0.035,0.026,1.033,0.49,-2.45,-0.49
1743542306.858517,0.033,0.025,1.032,0.42,-2.31,-0.35
1743542307.1191092,0.034,0.026,1.033,0.42,-2.38,-0.35
1743542307.1391091,0.035,0.027,1.031,0.42,-2.24,-0.28
1743542307.159109,0.036,0.026,1.031,0.28,-2.38,-0.42
1743542307.418442,0.036,0.026,1.031,0.35,-2.45,-0.42
1743542307.438442,0.033,0.026,1.033,0.42,-2.45,-0.35
1743542307.458442,0.036,0.027,1.033,0.42,-2.31,-0.28
1743542307.718677,0.033,0.028,1.035,0.42,-2.45,-0.28
1743542307.738677,0.035,0.029,1.035,0.35,-2.38,-0.35
1743542307.758677,0.034,0.027,1.033,0.35,-2.38,-0.28
1743542308.01977,0.035,0.024,1.031,0.42,-2.31,-0.35
1743542308.03977,0.034,0.026,1.033,0.42,-2.52,-0.28
1743542308.05977,0.036,0.027,1.033,0.42,-2.45,-0.35
1743542308.3179731,0.033,0.026,1.034,0.42,-2.45,-0.42
1743542308.337973,0.035,0.028,1.034,0.35,-2.31,-0.35
1743542308.357973,0.035,0.026,1.033,0.42,-2.45,-0.35
1743542308.618689,0.033,0.026,1.033,0.42,-2.38,-0.35
1743542308.638689,0.034,0.027,1.035,0.35,-2.38,-0.35
1743542308.658689,0.036,0.027,1.034,0.42,-2.45,-0.42
1743542308.918528,0.035,0.027,1.031,0.42,-2.31,-0.35
1743542308.938528,0.034,0.026,1.032,0.35,-2.45,-0.28
1743542308.958528,0.034,0.027,1.03,0.35,-2.45,-0.28
1743542309.218612,0.034,0.027,1.034,0.42,-2.38,-0.35
1743542309.238612,0.035,0.027,1.036,0.14,-2.45,-0.35
1743542309.258612,0.035,0.03,1.032,0.42,-2.38,-0.28
1743542309.520532,0.033,0.028,1.033,0.28,-2.45,-0.42
1743542309.540532,0.032,0.027,1.032,0.35,-2.38,-0.42
1743542309.560532,0.033,0.026,1.03,0.42,-2.38,-0.42
1743542309.819746,0.033,0.027,1.033,0.35,-2.45,-0.35
1743542309.839746,0.034,0.024,1.032,0.35,-2.45,-0.21
1743542309.859746,0.034,0.023,1.033,0.21,-2.31,-0.28
1743542310.1181629,0.033,0.027,1.033,0.35,-2.52,-0.28
1743542310.1381629,0.033,0.025,1.034,0.42,-2.38,-0.28
1743542310.1581628,0.033,0.026,1.033,0.28,-2.31,-0.28
1743542310.433354,0.033,0.027,1.032,0.42,-2.45,-0.35
1743542310.453354,0.034,0.026,1.032,0.49,-2.31,-0.35
1743542310.473354,0.035,0.025,1.031,0.35,-2.45,-0.28
1743542310.72044,0.037,0.028,1.032,0.42,-2.31,-0.28
1743542310.74044,0.035,0.026,1.038,0.28,-2.52,-0.28
1743542310.76044,0.037,0.027,1.022,0.42,-2.38,-0.28
1743542311.0180109,0.036,0.026,1.034,0.35,-2.38,-0.35
1743542311.0380108,0.035,0.03,1.031,0.42,-2.38,-0.42
1743542311.0580108,0.033,0.028,1.033,0.42,-2.45,-0.42
1743542311.3192792,0.032,0.025,1.034,0.28,-2.45,-0.35
1743542311.3392792,0.032,0.027,1.031,0.35,-2.24,-0.35
1743542311.3592792,0.032,0.023,1.032,0.35,-2.38,-0.35
1743542311.619871,0.034,0.025,1.033,0.42,-2.45,-0.42
1743542311.639871,0.034,0.023,1.033,0.35,-2.45,-0.28
1743542311.6598709,0.033,0.026,1.033,0.42,-2.45,-0.35
1743542311.934123,0.034,0.028,1.034,0.21,-2.38,-0.35
1743542311.954123,0.032,0.03,1.032,0.49,-2.38,-0.42
1743542311.974123,0.032,0.029,1.032,0.42,-2.38,-0.28
1743542312.2207072,0.033,0.027,1.033,0.35,-2.38,-0.28
1743542312.2407072,0.035,0.028,1.032,0.28,-2.38,-0.28
1743542312.2607071,0.034,0.025,1.031,0.35,-2.38,-0.35
1743542312.521285,0.036,0.024,1.031,0.35,-2.45,-0.35
1743542312.541285,0.037,0.028,1.033,0.35,-2.38,-0.42
1743542312.561285,0.036,0.026,1.033,0.42,-2.38,-0.35
1743542312.818125,0.034,0.026,1.032,0.42,-2.45,-0.35
1743542312.838125,0.034,0.027,1.032,0.35,-2.45,-0.42
1743542312.858125,0.034,0.027,1.033,0.35,-2.52,-0.35
1743542313.119944,0.035,0.026,1.034,0.35,-2.45,-0.42
1743542313.1399438,0.033,0.025,1.031,0.35,-2.45,-0.35
1743542313.1599438,0.034,0.026,1.034,0.35,-2.38,-0.35
1743542313.419282,0.034,0.027,1.03,0.42,-2.45,-0.42
1743542313.439282,0.032,0.026,1.031,0.35,-2.45,-0.42
1743542313.459282,0.034,0.026,1.033,0.49,-2.31,-0.42
1743542313.732438,0.034,0.024,1.032,0.35,-2.45,-0.28
1743542313.752438,0.032,0.025,1.033,0.42,-2.38,-0.28
1743542313.772438,0.033,0.024,1.033,0.42,-2.45,-0.35
1743542314.019438,0.035,0.026,1.03,0.49,-2.38,-0.35
1743542314.039438,0.034,0.025,1.033,0.42,-2.31,-0.35
1743542314.059438,0.035,0.027,1.033,0.35,-2.52,-0.35
1743542314.3215292,0.034,0.027,1.03,0.42,-2.38,-0.35
1743542314.3415291,0.037,0.025,1.031,0.35,-2.38,-0.28
1743542314.361529,0.034,0.026,1.034,0.42,-2.38,-0.35
1743542314.618379,0.034,0.025,1.033,0.42,-2.45,-0.42
1743542314.638379,0.031,0.026,1.035,0.42,-2.38,-0.35
1743542314.658379,0.033,0.027,1.031,0.42,-2.45,-0.35
1743542314.9192278,0.033,0.027,1.033,0.35,-2.45,-0.42
1743542314.9392278,0.033,0.028,1.032,0.42,-2.45,-0.35
1743542314.9592278,0.033,0.028,1.033,0.42,-2.45,-0.35
1743542315.222264,0.034,0.027,1.033,0.35,-2.31,-0.35
1743542315.242264,0.035,0.027,1.033,0.28,-2.38,-0.28
1743542315.262264,0.035,0.026,1.035,0.35,-2.31,-0.28
1743542315.51938,0.033,0.029,1.034,0.35,-2.38,-0.28
1743542315.53938,0.034,0.026,1.033,0.35,-2.45,-0.28
1743542315.55938,0.031,0.028,1.032,0.35,-2.38,-0.35
1743542315.820384,0.035,0.028,1.031,0.35,-2.52,-0.28
1743542315.840384,0.034,0.028,1.031,0.35,-2.38,-0.35
1743542315.860384,0.033,0.027,1.033,0.35,-2.38,-0.28
1743542316.120118,0.032,0.026,1.033,0.42,-2.45,-0.28
1743542316.140118,0.033,0.027,1.033,0.35,-2.52,-0.35
1743542316.160118,0.033,0.026,1.033,0.35,-2.38,-0.35
1743542316.420393,0.032,0.027,1.031,0.42,-2.38,-0.35
1743542316.440393,0.033,0.027,1.032,0.49,-2.52,-0.28
1743542316.460393,0.035,0.025,1.034,0.49,-2.31,-0.28
1743542316.718774,0.035,0.024,1.032,0.35,-2.45,-0.35
1743542316.738774,0.033,0.026,1.031,0.35,-2.38,-0.28
1743542316.758774,0.033,0.025,1.031,0.35,-2.45,-0.28
1743542317.021631,0.033,0.027,1.031,0.28,-2.52,-0.35
1743542317.041631,0.035,0.025,1.033,0.35,-2.38,-0.35
1743542317.061631,0.034,0.026,1.031,0.35,-2.45,-0.35
1743542317.321942,0.035,0.026,1.033,0.42,-2.38,-0.28
1743542317.341942,0.035,0.024,1.033,0.35,-2.38,-0.42
1743542317.361942,0.032,0.026,1.032,0.28,-2.38,-0.35
1743542317.654675,0.035,0.027,1.034,0.35,-2.45,-0.28
1743542317.674675,0.038,0.025,1.034,0.35,-2.52,-0.28
1743542317.694675,0.037,0.028,1.033,0.35,-2.31,-0.35
1743542317.921022,0.035,0.026,1.032,0.35,-2.38,-0.35
1743542317.941022,0.035,0.026,1.031,0.42,-2.31,-0.35
1743542317.961022,0.035,0.026,1.033,0.42,-2.45,-0.35
1743542318.2190762,0.033,0.026,1.033,0.35,-2.45,-0.35
1743542318.239076,0.033,0.027,1.033,0.35,-2.31,-0.35
1743542318.259076,0.034,0.026,1.034,0.42,-2.31,-0.35
1743542318.520603,0.034,0.025,1.032,0.42,-2.38,-0.28
1743542318.540603,0.035,0.025,1.033,0.42,-2.31,-0.35
1743542318.560603,0.035,0.026,1.03,0.42,-2.45,-0.42
1743542318.818558,0.036,0.027,1.032,0.35,-2.38,-0.42
1743542318.838558,0.035,0.026,1.031,0.42,-2.38,-0.35
1743542318.858558,0.035,0.028,1.032,0.28,-2.31,-0.35
1743542319.118617,0.035,0.028,1.032,0.35,-2.52,-0.28
1743542319.138617,0.033,0.026,1.033,0.42,-2.45,-0.35
1743542319.158617,0.033,0.027,1.032,0.35,-2.38,-0.35
1743542319.419629,0.035,0.026,1.033,0.35,-2.38,-0.28
1743542319.439629,0.036,0.031,1.029,0.28,-2.45,-0.28
1743542319.459629,0.035,0.029,1.033,0.35,-2.31,-0.35
1743542319.7239802,0.034,0.028,1.033,0.35,-2.38,-0.28
1743542319.7439802,0.033,0.027,1.032,0.35,-2.45,-0.42
1743542319.7639802,0.033,0.026,1.029,0.28,-2.38,-0.35
1743542320.0197709,0.032,0.024,1.033,0.42,-2.52,-0.28
1743542320.0397708,0.031,0.023,1.03,0.35,-2.45,-0.28
1743542320.0597708,0.032,0.022,1.032,0.35,-2.31,-0.35
1743542320.319504,0.032,0.025,1.032,0.35,-2.38,-0.42
1743542320.339504,0.033,0.024,1.031,0.35,-2.31,-0.28
1743542320.359504,0.034,0.027,1.033,0.56,-2.45,-0.35
1743542320.619942,0.035,0.027,1.032,0.42,-2.45,-0.28
1743542320.639942,0.035,0.027,1.029,0.42,-2.45,-0.35
1743542320.659942,0.032,0.027,1.032,0.42,-2.31,-0.35
1743542320.919601,0.036,0.025,1.031,0.42,-2.52,-0.35
1743542320.939601,0.033,0.027,1.034,0.35,-2.31,-0.42
1743542320.959601,0.034,0.028,1.03,0.49,-2.45,-0.35
1743542321.2190468,0.035,0.026,1.033,0.35,-2.38,-0.35
1743542321.2390468,0.033,0.025,1.033,0.42,-2.38,-0.35
1743542321.2590468,0.034,0.026,1.031,0.42,-2.45,-0.35
1743542321.519688,0.033,0.026,1.033,0.42,-2.31,-0.35
1743542321.539688,0.035,0.026,1.032,0.35,-2.45,-0.42
1743542321.559688,0.036,0.024,1.031,0.42,-2.45,-0.35
1743542321.8200152,0.034,0.026,1.033,0.42,-2.45,-0.35
1743542321.8400152,0.034,0.027,1.032,0.42,-2.38,-0.21
1743542321.8600152,0.033,0.025,1.035,0.42,-2.38,-0.35
1743542322.120104,0.033,0.027,1.033,0.35,-2.38,-0.28
1743542322.140104,0.033,0.028,1.031,0.35,-2.52,-0.35
1743542322.160104,0.034,0.028,1.032,0.35,-2.38,-0.28
1743542322.4239392,0.035,0.024,1.032,0.49,-2.38,-0.42
1743542322.4439392,0.033,0.025,1.033,0.42,-2.52,-0.35
1743542322.4639392,0.034,0.028,1.032,0.49,-2.31,-0.28
1743542322.74726,0.034,0.026,1.032,0.49,-2.31,-0.35
1743542322.7672598,0.035,0.025,1.032,0.42,-2.38,-0.28
1743542322.7872598,0.033,0.025,1.033,0.35,-2.24,-0.35
1743542323.021001,0.035,0.028,1.032,0.42,-2.45,-0.42
1743542323.041001,0.032,0.027,1.032,0.42,-2.38,-0.35
1743542323.061001,0.033,0.028,1.032,0.28,-2.45,-0.42
1743542323.319818,0.032,0.027,1.032,0.42,-2.38,-0.35
1743542323.339818,0.034,0.026,1.032,0.42,-2.38,-0.35
1743542323.359818,0.032,0.027,1.032,0.35,-2.31,-0.35
1743542323.618484,0.034,0.027,1.032,0.35,-2.38,-0.35
1743542323.638484,0.033,0.027,1.032,0.42,-2.45,-0.42
1743542323.658484,0.033,0.028,1.032,0.42,-2.45,-0.35
1743542323.918525,0.033,0.026,1.032,0.35,-2.45,-0.35
1743542323.938525,0.034,0.026,1.033,0.35,-2.45,-0.42
1743542323.958525,0.034,0.027,1.031,0.35,-2.31,-0.35
1743542324.218783,0.035,0.026,1.032,0.49,-2.31,-0.35
1743542324.238783,0.033,0.025,1.033,0.35,-2.38,-0.28
1743542324.2587829,0.035,0.028,1.032,0.42,-2.38,-0.28
1743542324.5189672,0.033,0.026,1.032,0.35,-2.38,-0.35
1743542324.5389671,0.034,0.026,1.033,0.35,-2.45,-0.28
1743542324.558967,0.033,0.021,1.032,0.42,-2.45,-0.35
1743542324.818855,0.031,0.025,1.033,0.42,-2.38,-0.35
1743542324.838855,0.034,0.026,1.034,0.42,-2.45,-0.42
1743542324.858855,0.036,0.026,1.034,0.35,-2.38,-0.35
1743542325.119033,0.036,0.028,1.03,0.42,-2.38,-0.28
1743542325.139033,0.034,0.028,1.033,0.35,-2.31,-0.35
1743542325.159033,0.035,0.03,1.035,0.42,-2.38,-0.35
1743542325.418174,0.036,0.029,1.032,0.42,-2.38,-0.35
1743542325.438174,0.035,0.027,1.033,0.35,-2.38,-0.42
1743542325.458174,0.034,0.028,1.034,0.35,-2.38,-0.42
1743542325.718537,0.035,0.028,1.031,0.35,-2.31,-0.35
1743542325.738537,0.033,0.025,1.032,0.42,-2.45,-0.35
1743542325.758537,0.034,0.025,1.033,0.42,-2.38,-0.35
1743542326.02109,0.033,0.026,1.033,0.42,-2.45,-0.35
1743542326.04109,0.033,0.028,1.035,0.35,-2.38,-0.42
1743542326.06109,0.034,0.025,1.033,0.42,-2.38,-0.35
1743542326.319405,0.034,0.027,1.031,0.21,-2.45,-0.28
1743542326.339405,0.035,0.026,1.034,0.42,-2.38,-0.28
1743542326.359405,0.033,0.027,1.032,0.42,-2.45,-0.42
1743542326.618923,0.036,0.026,1.034,0.42,-2.38,-0.42
1743542326.638923,0.037,0.026,1.034,0.35,-2.31,-0.42
1743542326.658923,0.035,0.029,1.035,0.35,-2.45,-0.42
1743542326.918883,0.035,0.027,1.03,0.35,-2.38,-0.35
1743542326.938883,0.033,0.027,1.033,0.49,-2.52,-0.35
1743542326.958883,0.034,0.028,1.032,0.35,-2.31,-0.28
1743542327.218573,0.032,0.027,1.032,0.28,-2.45,-0.35
1743542327.238573,0.034,0.026,1.033,0.35,-2.45,-0.35
1743542327.258573,0.034,0.025,1.034,0.42,-2.38,-0.35
1743542327.519058,0.034,0.026,1.031,0.35,-2.45,-0.42
1743542327.539058,0.033,0.025,1.033,0.42,-2.38,-0.35
1743542327.559058,0.034,0.028,1.03,0.35,-2.45,-0.21
1743542327.819398,0.034,0.026,1.033,0.21,-2.45,-0.42
1743542327.839398,0.034,0.025,1.035,0.35,-2.45,-0.35
1743542327.859398,0.035,0.026,1.032,0.42,-2.45,-0.35
1743542328.118804,0.034,0.026,1.033,0.49,-2.24,-0.35
1743542328.138804,0.032,0.027,1.031,0.42,-2.45,-0.28
1743542328.158804,0.034,0.03,1.033,0.42,-2.31,-0.28
1743542328.4181452,0.034,0.027,1.034,0.42,-2.31,-0.42
1743542328.4381452,0.036,0.027,1.033,0.49,-2.45,-0.35
1743542328.4581451,0.034,0.027,1.032,0.35,-2.45,-0.28
1743542328.7223732,0.034,0.026,1.032,0.28,-2.31,-0.35
1743542328.7423732,0.035,0.026,1.031,0.35,-2.45,-0.35
1743542328.7623732,0.036,0.025,1.032,0.28,-2.38,-0.42
1743542329.018664,0.032,0.024,1.033,0.28,-2.38,-0.35
1743542329.038664,0.034,0.025,1.033,0.42,-2.38,-0.35
1743542329.0586638,0.033,0.026,1.034,0.28,-2.38,-0.28
1743542329.318874,0.036,0.027,1.032,0.42,-2.45,-0.35
1743542329.338874,0.034,0.028,1.031,0.42,-2.45,-0.42
1743542329.358874,0.036,0.026,1.032,0.35,-2.38,-0.35
1743542329.6195452,0.036,0.029,1.032,0.42,-2.38,-0.35
1743542329.6395452,0.036,0.027,1.033,0.42,-2.45,-0.28
1743542329.6595452,0.034,0.026,1.031,0.35,-2.38,-0.42
1743542329.9191942,0.037,0.026,1.033,0.35,-2.45,-0.35
1743542329.9391942,0.034,0.026,1.03,0.35,-2.38,-0.35
1743542329.9591942,0.034,0.027,1.031,0.35,-2.45,-0.28
1743542330.220304,0.035,0.026,1.034,0.42,-2.38,-0.35
1743542330.240304,0.033,0.024,1.033,0.42,-2.45,-0.42
1743542330.260304,0.031,0.027,1.031,0.42,-2.45,-0.28
1743542330.519955,0.033,0.026,1.03,0.42,-2.38,-0.28
1743542330.539955,0.035,0.026,1.035,0.28,-2.45,-0.35
1743542330.559955,0.035,0.027,1.031,0.35,-2.38,-0.42
1743542330.819382,0.035,0.026,1.031,0.35,-2.38,-0.35
1743542330.839382,0.034,0.026,1.032,0.42,-2.45,-0.35
1743542330.859382,0.035,0.028,1.032,0.42,-2.38,-0.35
1743542331.119114,0.033,0.026,1.031,0.42,-2.52,-0.35
1743542331.139114,0.034,0.026,1.032,0.49,-2.31,-0.35
1743542331.159114,0.033,0.023,1.032,0.42,-2.38,-0.35
1743542331.4188712,0.034,0.024,1.033,0.42,-2.52,-0.35
1743542331.4388711,0.033,0.028,1.032,0.49,-2.38,-0.35
1743542331.4588711,0.035,0.027,1.032,0.35,-2.38,-0.28
1743542331.718786,0.032,0.027,1.036,0.42,-2.45,-0.35
1743542331.738786,0.034,0.027,1.034,0.35,-2.38,-0.28
1743542331.758786,0.031,0.026,1.035,0.42,-2.45,-0.35
1743542332.0191472,0.033,0.027,1.03,0.35,-2.38,-0.35
1743542332.0391471,0.033,0.025,1.032,0.35,-2.38,-0.35
1743542332.0591471,0.036,0.029,1.035,0.49,-2.31,-0.42
1743542332.319375,0.034,0.027,1.033,0.35,-2.38,-0.35
1743542332.339375,0.038,0.024,1.033,0.35,-2.38,-0.35
1743542332.359375,0.035,0.025,1.033,0.42,-2.45,-0.35
1743542332.619305,0.036,0.028,1.033,0.35,-2.45,-0.35
1743542332.6393049,0.035,0.028,1.034,0.35,-2.31,-0.28
1743542332.6593049,0.036,0.03,1.035,0.56,-2.38,-0.28
1743542332.921951,0.039,0.029,1.032,0.49,-2.45,-0.42
1743542332.941951,0.037,0.027,1.034,0.42,-2.38,-0.42
1743542332.961951,0.033,0.027,1.033,0.42,-2.45,-0.42
1743542333.22258,0.033,0.024,1.031,0.42,-2.52,-0.35
1743542333.24258,0.032,0.023,1.031,0.21,-2.52,-0.42
1743542333.26258,0.032,0.026,1.032,0.42,-2.45,-0.35
1743542333.518381,0.032,0.025,1.032,0.35,-2.38,-0.42
1743542333.538381,0.033,0.029,1.032,0.35,-2.45,-0.28
1743542333.558381,0.035,0.026,1.033,0.42,-2.45,-0.35
1743542333.818895,0.034,0.027,1.032,0.42,-2.45,-0.28
1743542333.838895,0.033,0.028,1.034,0.42,-2.45,-0.35
1743542333.858895,0.033,0.027,1.03,0.56,-2.45,-0.35
1743542334.120081,0.032,0.025,1.031,0.35,-2.38,-0.28
1743542334.140081,0.035,0.027,1.034,0.35,-2.31,-0.42
1743542334.160081,0.033,0.025,1.032,0.49,-2.59,-0.42
1743542334.419283,0.034,0.025,1.031,0.35,-2.38,-0.35
1743542334.439283,0.033,0.027,1.032,0.35,-2.38,-0.35
1743542334.4592829,0.036,0.025,1.032,0.42,-2.38,-0.28
1743542334.719043,0.036,0.028,1.034,0.42,-2.24,-0.35
1743542334.739043,0.034,0.025,1.033,0.42,-2.45,-0.35
1743542334.759043,0.035,0.026,1.034,0.42,-2.45,-0.35
1743542335.0191622,0.033,0.026,1.033,0.42,-2.38,-0.28
1743542335.0391622,0.036,0.027,1.034,0.42,-2.31,-0.35
1743542335.059162,0.036,0.029,1.033,0.42,-2.38,-0.28
1743542335.319713,0.035,0.026,1.03,0.42,-2.52,-0.35
1743542335.339713,0.034,0.026,1.03,0.35,-2.38,-0.35
1743542335.359713,0.035,0.026,1.032,0.35,-2.52,-0.35
1743542335.619832,0.032,0.027,1.033,0.42,-2.31,-0.35
1743542335.639832,0.034,0.027,1.036,0.42,-2.38,-0.42
1743542335.659832,0.034,0.026,1.034,0.35,-2.45,-0.35
1743542335.919332,0.034,0.028,1.033,0.49,-2.38,-0.42
1743542335.939332,0.035,0.026,1.032,0.35,-2.45,-0.28
1743542335.959332,0.036,0.027,1.032,0.35,-2.38,-0.35
1743542336.21841,0.033,0.026,1.032,0.35,-2.45,-0.35
1743542336.23841,0.034,0.026,1.032,0.42,-2.38,-0.35
1743542336.25841,0.033,0.027,1.032,0.42,-2.38,-0.35
1743542336.5193632,0.035,0.026,1.033,0.42,-2.31,-0.42
1743542336.5393631,0.032,0.028,1.032,0.49,-2.38,-0.28
1743542336.5593631,0.034,0.026,1.033,0.35,-2.45,-0.35
1743542336.8203468,0.034,0.026,1.033,0.49,-2.45,-0.28
1743542336.8403468,0.035,0.027,1.033,0.42,-2.38,-0.42
1743542336.8603468,0.033,0.027,1.032,0.28,-2.38,-0.28
1743542337.134625,0.033,0.029,1.032,0.35,-2.38,-0.35
1743542337.154625,0.036,0.027,1.034,0.35,-2.38,-0.35
1743542337.174625,0.036,0.025,1.032,0.35,-2.38,-0.28
1743542337.420613,0.038,0.026,1.032,0.42,-2.38,-0.35
1743542337.440613,0.036,0.026,1.034,0.35,-2.45,-0.35
1743542337.460613,0.033,0.025,1.034,0.35,-2.45,-0.28
1743542337.718772,0.035,0.025,1.033,0.35,-2.45,-0.35
1743542337.738772,0.034,0.026,1.032,0.35,-2.38,-0.35
1743542337.758772,0.033,0.026,1.034,0.42,-2.31,-0.28
1743542338.018475,0.034,0.029,1.031,0.42,-2.38,-0.28
1743542338.038475,0.034,0.029,1.032,0.42,-2.24,-0.35
1743542338.058475,0.034,0.029,1.032,0.42,-2.38,-0.28
1743542338.320904,0.033,0.028,1.032,0.63,-2.45,-0.42
1743542338.340904,0.033,0.024,1.03,0.42,-2.52,-0.35
1743542338.360904,0.034,0.025,1.035,0.35,-2.45,-0.42
1743542338.619764,0.035,0.027,1.032,0.35,-2.45,-0.42
1743542338.639764,0.034,0.027,1.033,0.35,-2.38,-0.35
1743542338.659764,0.034,0.026,1.035,0.49,-2.52,-0.21
1743542338.919081,0.033,0.029,1.036,0.56,-2.45,-0.42
1743542338.939081,0.035,0.025,1.033,0.42,-2.24,-0.28
1743542338.959081,0.034,0.025,1.034,0.42,-2.38,-0.28
1743542339.218497,0.033,0.025,1.033,0.35,-2.38,-0.42
1743542339.238497,0.033,0.026,1.034,0.35,-2.31,-0.42
1743542339.258497,0.037,0.027,1.034,0.35,-2.31,-0.42
1743542339.519638,0.036,0.024,1.045,0.49,-2.38,-0.35
1743542339.539638,0.035,0.028,1.03,0.21,-2.45,-0.28
1743542339.559638,0.033,0.029,1.032,0.42,-2.52,-0.28
1743542339.818876,0.035,0.027,1.029,0.28,-2.45,-0.35
1743542339.838876,0.035,0.028,1.033,0.35,-2.31,-0.28
1743542339.858876,0.033,0.026,1.032,0.35,-2.31,-0.35
1743542340.119432,0.034,0.022,1.033,0.35,-2.52,-0.28
1743542340.139432,0.032,0.025,1.034,0.35,-2.45,-0.28
1743542340.159432,0.035,0.024,1.031,0.35,-2.38,-0.35
1743542340.463605,0.034,0.025,1.033,0.42,-2.45,-0.42
1743542340.483605,0.035,0.027,1.032,0.42,-2.52,-0.35
1743542340.503605,0.035,0.027,1.032,0.35,-2.45,-0.28
1743542340.718965,0.035,0.028,1.032,0.35,-2.38,-0.28
1743542340.738965,0.035,0.028,1.031,0.35,-2.45,-0.28
1743542340.758965,0.035,0.027,1.032,0.49,-2.38,-0.42
1743542341.062519,0.035,0.026,1.033,0.42,-2.38,-0.35
1743542341.082519,0.034,0.026,1.034,0.49,-2.45,-0.42
1743542341.102519,0.033,0.027,1.032,0.35,-2.45,-0.28
1743542341.321512,0.034,0.025,1.032,0.49,-2.38,-0.35
1743542341.341512,0.037,0.028,1.031,0.42,-2.45,-0.35
1743542341.361512,0.035,0.026,1.031,0.28,-2.38,-0.35
1743542341.619322,0.036,0.026,1.031,0.42,-2.38,-0.35
1743542341.639322,0.033,0.028,1.034,0.35,-2.45,-0.28
1743542341.659322,0.034,0.027,1.032,0.35,-2.45,-0.35
1743542341.91936,0.033,0.025,1.032,0.42,-2.31,-0.35
1743542341.93936,0.035,0.026,1.032,0.49,-2.38,-0.28
1743542341.95936,0.031,0.027,1.032,0.42,-2.45,-0.35
1743542342.2190669,0.034,0.025,1.033,0.42,-2.45,-0.28
1743542342.2390668,0.034,0.028,1.031,0.28,-2.38,-0.42
1743542342.2590668,0.033,0.024,1.033,0.35,-2.45,-0.28
1743542342.520441,0.033,0.025,1.03,0.35,-2.38,-0.42
1743542342.540441,0.034,0.025,1.031,0.35,-2.38,-0.35
1743542342.560441,0.035,0.026,1.033,0.35,-2.31,-0.35
1743542342.8219311,0.035,0.026,1.031,0.49,-2.52,-0.28
1743542342.841931,0.036,0.026,1.033,0.35,-2.38,-0.49
1743542342.861931,0.035,0.028,1.033,0.35,-2.38,-0.35
1743542343.162817,0.034,0.027,1.033,0.28,-2.38,-0.28
1743542343.182817,0.033,0.027,1.032,0.42,-2.38,-0.35
1743542343.202817,0.034,0.027,1.032,0.35,-2.52,-0.35
1743542343.421068,0.037,0.026,1.032,0.42,-2.38,-0.35
1743542343.441068,0.034,0.031,1.031,0.49,-2.38,-0.42
1743542343.461068,0.037,0.026,1.032,0.42,-2.38,-0.42
1743542343.734883,0.035,0.026,1.033,0.35,-2.38,-0.35
1743542343.754883,0.034,0.027,1.033,0.49,-2.45,-0.35
1743542343.774883,0.034,0.026,1.034,0.28,-2.38,-0.35
1743542344.03683,0.031,0.026,1.03,0.35,-2.38,-0.35
1743542344.05683,0.032,0.028,1.033,0.35,-2.38,-0.35
1743542344.07683,0.033,0.027,1.034,0.35,-2.38,-0.35
1743542344.335072,0.031,0.028,1.033,0.42,-2.38,-0.35
1743542344.355072,0.033,0.027,1.032,0.56,-2.52,-0.35
1743542344.375072,0.036,0.026,1.031,0.42,-2.38,-0.35
1743542344.6347022,0.035,0.026,1.032,0.35,-2.38,-0.28
1743542344.6547022,0.036,0.027,1.033,0.42,-2.45,-0.28
1743542344.6747022,0.034,0.027,1.034,0.42,-2.31,-0.35
1743542344.934692,0.035,0.026,1.03,0.56,-2.38,-0.35
1743542344.954692,0.031,0.026,1.033,0.35,-2.45,-0.35
1743542344.974692,0.034,0.028,1.031,0.42,-2.38,-0.28
1743542345.234185,0.037,0.026,1.032,0.49,-2.45,-0.35
1743542345.254185,0.036,0.028,1.032,0.49,-2.52,-0.42
1743542345.274185,0.034,0.027,1.033,0.42,-2.38,-0.35
1743542345.547752,0.032,0.026,1.032,0.35,-2.38,-0.28
1743542345.567752,0.034,0.026,1.031,0.42,-2.38,-0.28
1743542345.587752,0.035,0.027,1.031,0.35,-2.38,-0.35
1743542345.834917,0.033,0.026,1.031,0.35,-2.31,-0.42
1743542345.854917,0.032,0.026,1.032,0.42,-2.31,-0.35
1743542345.874917,0.036,0.028,1.034,0.42,-2.45,-0.35
1743542346.1338298,0.036,0.027,1.033,0.35,-2.31,-0.35
1743542346.1538298,0.036,0.027,1.034,0.42,-2.24,-0.35
1743542346.1738298,0.03,0.03,1.03,0.49,-2.45,-0.42
1743542346.448956,0.033,0.025,1.035,0.42,-2.45,-0.28
1743542346.468956,0.035,0.026,1.032,0.28,-2.45,-0.42
1743542346.488956,0.033,0.027,1.033,0.42,-2.38,-0.35
1743542346.7348108,0.035,0.028,1.033,0.42,-2.45,-0.35
1743542346.7548108,0.034,0.027,1.035,0.35,-2.31,-0.35
1743542346.7748108,0.034,0.027,1.033,0.42,-2.45,-0.35
1743542347.03457,0.034,0.026,1.031,0.28,-2.31,-0.42
1743542347.05457,0.036,0.026,1.032,0.35,-2.31,-0.42
1743542347.07457,0.035,0.027,1.033,0.42,-2.38,-0.28
1743542347.334952,0.034,0.027,1.03,0.35,-2.45,-0.35
1743542347.354952,0.032,0.027,1.033,0.42,-2.31,-0.35
1743542347.3749518,0.034,0.027,1.032,0.35,-2.38,-0.28
1743542347.63571,0.033,0.027,1.034,0.42,-2.45,-0.28
1743542347.65571,0.035,0.026,1.033,0.42,-2.24,-0.42
1743542347.67571,0.036,0.027,1.032,0.42,-2.38,-0.42
1743542347.934995,0.033,0.026,1.034,0.49,-2.31,-0.28
1743542347.954995,0.032,0.026,1.034,0.42,-2.38,-0.28
1743542347.974995,0.032,0.027,1.032,0.35,-2.31,-0.35
1743542348.235865,0.032,0.028,1.033,0.42,-2.45,-0.42
1743542348.255865,0.033,0.026,1.032,0.42,-2.38,-0.35
1743542348.275865,0.032,0.027,1.033,0.35,-2.31,-0.35
1743542348.534932,0.034,0.026,1.034,0.28,-2.38,-0.28
1743542348.554932,0.032,0.029,1.033,0.42,-2.38,-0.42
1743542348.574932,0.034,0.027,1.032,0.42,-2.38,-0.28
1743542348.8342862,0.035,0.026,1.033,0.35,-2.38,-0.21
1743542348.8542862,0.033,0.026,1.031,0.35,-2.45,-0.35
1743542348.8742862,0.035,0.027,1.033,0.35,-2.38,-0.35
1743542349.134644,0.032,0.026,1.031,0.49,-2.38,-0.42
1743542349.154644,0.035,0.026,1.032,0.42,-2.45,-0.35
1743542349.174644,0.033,0.028,1.033,0.42,-2.38,-0.35
1743542349.435085,0.034,0.026,1.032,0.42,-2.45,-0.28
1743542349.455085,0.033,0.026,1.033,0.35,-2.38,-0.28
1743542349.475085,0.033,0.026,1.032,0.35,-2.31,-0.28
1743542349.734755,0.036,0.025,1.033,0.42,-2.45,-0.28
1743542349.754755,0.035,0.026,1.033,0.42,-2.31,-0.35
1743542349.774755,0.034,0.026,1.033,0.35,-2.38,-0.35
1743542350.0343418,0.037,0.025,1.031,0.35,-2.31,-0.28
1743542350.0543418,0.033,0.027,1.033,0.28,-2.31,-0.42
1743542350.0743418,0.032,0.027,1.032,0.35,-2.38,-0.35
1743542350.335621,0.035,0.026,1.035,0.42,-2.45,-0.35
1743542350.355621,0.034,0.026,1.033,0.42,-2.45,-0.28
1743542350.375621,0.034,0.029,1.031,0.42,-2.38,-0.42
1743542350.619138,0.032,0.028,1.032,0.35,-2.38,-0.28
1743542350.639138,0.036,0.028,1.035,0.42,-2.38,-0.28
1743542350.659138,0.034,0.025,1.033,0.42,-2.45,-0.42
1743542350.921045,0.035,0.025,1.033,0.42,-2.38,-0.42
1743542350.941045,0.035,0.026,1.031,0.28,-2.45,-0.28
1743542350.961045,0.034,0.025,1.036,0.49,-2.31,-0.42
1743542351.234967,0.032,0.028,1.032,0.42,-2.31,-0.35
1743542351.254967,0.034,0.026,1.032,0.42,-2.38,-0.21
1743542351.274967,0.034,0.026,1.033,0.49,-2.31,-0.35
1743542351.52028,0.032,0.026,1.034,0.42,-2.45,-0.35
1743542351.54028,0.036,0.026,1.033,0.42,-2.38,-0.42
1743542351.56028,0.036,0.024,1.034,0.42,-2.52,-0.42
1743542351.8205,0.034,0.028,1.034,0.49,-2.52,-0.42
1743542351.8405,0.035,0.027,1.032,0.42,-2.45,-0.35
1743542351.8605,0.036,0.026,1.034,0.42,-2.31,-0.35
1743542352.120586,0.032,0.028,1.031,0.28,-2.45,-0.42
1743542352.140586,0.034,0.026,1.031,0.42,-2.45,-0.42
1743542352.160586,0.033,0.026,1.032,0.35,-2.38,-0.35
1743542352.4203465,0.035,0.029,1.033,0.35,-2.31,-0.42
1743542352.4403462,0.034,0.028,1.034,0.35,-2.38,-0.35
1743542352.4603462,0.033,0.024,1.034,0.49,-2.45,-0.35
1743542352.720442,0.033,0.026,1.029,0.42,-2.38,-0.35
1743542352.740442,0.036,0.025,1.034,0.35,-2.38,-0.28
1743542352.760442,0.034,0.028,1.034,0.35,-2.38,-0.49
1743542353.0210838,0.035,0.027,1.031,0.42,-2.31,-0.35
1743542353.0410838,0.036,0.029,1.033,0.42,-2.38,-0.35
1743542353.0610838,0.033,0.026,1.033,0.42,-2.38,-0.35
1743542353.3340502,0.034,0.028,1.034,0.42,-2.45,-0.28
1743542353.3540502,0.034,0.026,1.03,0.42,-2.38,-0.35
1743542353.37405,0.033,0.027,1.031,0.35,-2.38,-0.35
1743542353.62054,0.032,0.026,1.032,0.35,-2.38,-0.35
1743542353.64054,0.033,0.026,1.032,0.35,-2.38,-0.42
1743542353.66054,0.034,0.028,1.03,0.35,-2.31,-0.42
1743542353.922328,0.032,0.027,1.033,0.35,-2.38,-0.35
1743542353.942328,0.036,0.027,1.032,0.35,-2.52,-0.35
1743542353.962328,0.034,0.029,1.033,0.35,-2.45,-0.42
1743542354.221236,0.035,0.027,1.031,0.35,-2.38,-0.28
1743542354.241236,0.032,0.025,1.031,0.42,-2.45,-0.28
1743542354.261236,0.034,0.027,1.035,0.35,-2.52,-0.35
1743542354.52037,0.034,0.027,1.033,0.35,-2.45,-0.28
1743542354.54037,0.034,0.028,1.032,0.35,-2.45,-0.35
1743542354.56037,0.036,0.025,1.033,0.42,-2.38,-0.28
1743542354.820799,0.036,0.027,1.032,0.42,-2.45,-0.28
1743542354.840799,0.036,0.028,1.033,0.35,-2.38,-0.35
1743542354.860799,0.034,0.025,1.031,0.42,-2.38,-0.28
1743542355.119876,0.033,0.025,1.033,0.42,-2.45,-0.42
1743542355.139876,0.035,0.024,1.031,0.35,-2.45,-0.35
1743542355.159876,0.036,0.028,1.033,0.35,-2.38,-0.28
1743542355.422558,0.034,0.027,1.032,0.42,-2.38,-0.35
1743542355.442558,0.035,0.025,1.033,0.35,-2.38,-0.42
1743542355.462558,0.036,0.027,1.034,0.42,-2.38,-0.35
1743542355.720632,0.032,0.027,1.031,0.35,-2.38,-0.42
1743542355.740632,0.034,0.027,1.034,0.42,-2.38,-0.35
1743542355.760632,0.032,0.028,1.032,0.42,-2.31,-0.42
1743542356.0509388,0.034,0.026,1.033,0.35,-2.38,-0.35
1743542356.0709388,0.033,0.023,1.032,0.42,-2.38,-0.35
1743542356.0909388,0.034,0.027,1.031,0.35,-2.31,-0.42
1743542356.3209212,0.036,0.026,1.034,0.35,-2.52,-0.35
1743542356.3409212,0.035,0.027,1.032,0.42,-2.24,-0.28
1743542356.3609211,0.035,0.028,1.033,0.42,-2.38,-0.28
1743542356.620554,0.033,0.028,1.033,0.35,-2.45,-0.42
1743542356.640554,0.035,0.028,1.032,0.42,-2.38,-0.21
1743542356.660554,0.033,0.029,1.032,0.42,-2.24,-0.35
1743542356.9198909,0.035,0.026,1.033,0.42,-2.45,-0.28
1743542356.9398909,0.032,0.025,1.032,0.35,-2.45,-0.35
1743542356.9598908,0.035,0.027,1.034,0.42,-2.45,-0.35
1743542357.220484,0.032,0.024,1.032,0.49,-2.45,-0.35
1743542357.240484,0.036,0.024,1.031,0.35,-2.45,-0.28
1743542357.260484,0.033,0.028,1.032,0.42,-2.38,-0.35
1743542357.520558,0.034,0.027,1.031,0.35,-2.45,-0.28
1743542357.540558,0.034,0.024,1.033,0.42,-2.38,-0.42
1743542357.560558,0.035,0.026,1.032,0.35,-2.24,-0.35
1743542357.8198369,0.034,0.027,1.032,0.35,-2.31,-0.35
1743542357.8398368,0.036,0.027,1.031,0.42,-2.38,-0.35
1743542357.8598368,0.034,0.027,1.034,0.35,-2.45,-0.28
1743542358.136749,0.035,0.026,1.031,0.42,-2.31,-0.35
1743542358.156749,0.033,0.029,1.033,0.42,-2.31,-0.35
1743542358.176749,0.031,0.026,1.03,0.42,-2.38,-0.35
1743542358.420811,0.033,0.026,1.033,0.42,-2.45,-0.35
1743542358.440811,0.035,0.027,1.031,0.42,-2.52,-0.42
1743542358.460811,0.034,0.027,1.033,0.35,-2.31,-0.35
1743542358.720865,0.034,0.029,1.031,0.35,-2.38,-0.42
1743542358.740865,0.033,0.028,1.033,0.49,-2.38,-0.49
1743542358.760865,0.032,0.026,1.034,0.35,-2.52,-0.42
1743542359.020669,0.033,0.025,1.032,0.35,-2.45,-0.28
1743542359.040669,0.033,0.027,1.035,0.42,-2.38,-0.35
1743542359.060669,0.034,0.029,1.03,0.42,-2.31,-0.28
1743542359.33846,0.034,0.028,1.033,0.35,-2.38,-0.35
1743542359.35846,0.032,0.026,1.034,0.49,-2.45,-0.42
1743542359.37846,0.032,0.026,1.034,0.35,-2.38,-0.42
1743542359.634909,0.036,0.026,1.03,0.42,-2.45,-0.35
1743542359.654909,0.034,0.026,1.034,0.42,-2.45,-0.35
1743542359.6749089,0.035,0.024,1.032,0.35,-2.38,-0.35
1743542359.933959,0.032,0.025,1.034,0.35,-2.45,-0.35
1743542359.953959,0.032,0.028,1.031,0.42,-2.31,-0.28
1743542359.973959,0.035,0.027,1.031,0.28,-2.45,-0.35
1743542360.23518,0.035,0.027,1.032,0.35,-2.45,-0.35
1743542360.25518,0.034,0.028,1.031,0.42,-2.24,-0.35
1743542360.27518,0.031,0.027,1.033,0.42,-2.38,-0.35
1743542360.5349,0.033,0.026,1.034,0.35,-2.52,-0.35
1743542360.5549,0.031,0.027,1.034,0.42,-2.38,-0.42
1743542360.5749,0.032,0.027,1.033,0.42,-2.45,-0.28
1743542360.8209212,0.036,0.027,1.032,0.42,-2.38,-0.28
1743542360.8409212,0.031,0.027,1.034,0.35,-2.52,-0.35
1743542360.8609211,0.034,0.024,1.032,0.35,-2.31,-0.42
1743542361.120255,0.035,0.029,1.032,0.28,-2.45,-0.35
1743542361.140255,0.036,0.027,1.033,0.42,-2.45,-0.28
1743542361.160255,0.033,0.025,1.033,0.35,-2.45,-0.35
1743542361.420262,0.033,0.027,1.032,0.42,-2.24,-0.35
1743542361.4402618,0.034,0.026,1.033,0.42,-2.38,-0.28
1743542361.4602618,0.035,0.025,1.033,0.28,-2.38,-0.28
1743542361.720543,0.034,0.027,1.033,0.49,-2.38,-0.35
1743542361.740543,0.035,0.027,1.033,0.42,-2.45,-0.42
1743542361.7605429,0.035,0.027,1.034,0.42,-2.45,-0.35
1743542362.022079,0.035,0.026,1.033,0.35,-2.52,-0.28
1743542362.042079,0.034,0.028,1.036,0.35,-2.45,-0.28
1743542362.062079,0.032,0.024,1.028,0.56,-2.38,-0.42
1743542362.320412,0.031,0.025,1.035,0.42,-2.38,-0.35
1743542362.340412,0.034,0.026,1.032,0.42,-2.45,-0.42
1743542362.360412,0.035,0.026,1.031,0.49,-2.31,-0.28
1743542362.623095,0.034,0.027,1.033,0.42,-2.31,-0.35
1743542362.643095,0.034,0.029,1.031,0.42,-2.31,-0.28
1743542362.663095,0.034,0.029,1.03,0.42,-2.38,-0.35
1743542362.9215162,0.034,0.028,1.033,0.49,-2.38,-0.28
1743542362.9415162,0.033,0.029,1.034,0.35,-2.38,-0.28
1743542362.961516,0.036,0.027,1.032,0.42,-2.38,-0.42
1743542363.219829,0.031,0.026,1.035,0.28,-2.38,-0.35
1743542363.239829,0.032,0.027,1.032,0.42,-2.45,-0.21
1743542363.259829,0.034,0.026,1.031,0.28,-2.45,-0.35
1743542363.523002,0.034,0.027,1.034,0.42,-2.38,-0.35
1743542363.543002,0.035,0.027,1.033,0.42,-2.45,-0.42
1743542363.563002,0.036,0.025,1.033,0.42,-2.38,-0.28
1743542363.8214102,0.036,0.028,1.036,0.28,-2.38,-0.35
1743542363.8414102,0.033,0.027,1.033,0.35,-2.45,-0.35
1743542363.86141,0.033,0.027,1.032,0.35,-2.38,-0.35
1743542364.120322,0.034,0.028,1.033,0.49,-2.45,-0.35
1743542364.140322,0.035,0.026,1.035,0.42,-2.31,-0.28
1743542364.160322,0.032,0.024,1.034,0.42,-2.52,-0.35
1743542364.4226902,0.035,0.026,1.033,0.35,-2.45,-0.35
1743542364.44269,0.033,0.025,1.032,0.42,-2.38,-0.35
1743542364.46269,0.034,0.028,1.035,0.35,-2.45,-0.35
1743542364.720714,0.035,0.026,1.031,0.35,-2.38,-0.35
1743542364.740714,0.033,0.023,1.032,0.42,-2.31,-0.35
1743542364.760714,0.034,0.027,1.032,0.42,-2.38,-0.35
1743542365.019895,0.034,0.025,1.033,0.42,-2.24,-0.35
1743542365.039895,0.035,0.026,1.034,0.42,-2.45,-0.28
1743542365.059895,0.036,0.027,1.033,0.35,-2.31,-0.35
1743542365.3192265,0.035,0.024,1.033,0.35,-2.45,-0.42
1743542365.3392262,0.034,0.026,1.033,0.28,-2.31,-0.42
1743542365.3592262,0.035,0.026,1.034,0.35,-2.45,-0.35
1743542365.62096,0.032,0.027,1.033,0.42,-2.45,-0.28
1743542365.64096,0.032,0.025,1.032,0.35,-2.38,-0.35
1743542365.66096,0.033,0.027,1.034,0.42,-2.38,-0.28
1743542365.920059,0.032,0.027,1.032,0.42,-2.38,-0.42
1743542365.940059,0.035,0.027,1.033,0.42,-2.52,-0.35
1743542365.960059,0.035,0.025,1.033,0.42,-2.24,-0.28
1743542366.221096,0.035,0.029,1.032,0.35,-2.31,-0.28
1743542366.241096,0.034,0.028,1.032,0.42,-2.38,-0.28
1743542366.261096,0.035,0.026,1.032,0.35,-2.52,-0.28
1743542366.5217412,0.034,0.027,1.03,0.35,-2.45,-0.42
1743542366.5417411,0.033,0.026,1.033,0.49,-2.45,-0.35
1743542366.561741,0.032,0.025,1.032,0.28,-2.38,-0.49
1743542366.820428,0.031,0.026,1.033,0.35,-2.45,-0.35
1743542366.840428,0.033,0.026,1.033,0.49,-2.52,-0.28
1743542366.860428,0.034,0.027,1.032,0.42,-2.31,-0.35
1743542367.123709,0.035,0.024,1.033,0.42,-2.45,-0.42
1743542367.143709,0.032,0.028,1.03,0.35,-2.45,-0.42
1743542367.163709,0.034,0.027,1.031,0.35,-2.45,-0.35
1743542367.4217973,0.032,0.03,1.03,0.28,-2.45,-0.35
1743542367.4417973,0.035,0.027,1.032,0.35,-2.38,-0.35
1743542367.4617972,0.037,0.027,1.032,0.42,-2.52,-0.35
1743542367.719667,0.035,0.024,1.032,0.42,-2.38,-0.35
1743542367.739667,0.033,0.028,1.033,0.42,-2.38,-0.35
1743542367.759667,0.034,0.025,1.033,0.49,-2.45,-0.28
1743542368.022878,0.036,0.028,1.031,0.42,-2.38,-0.35
1743542368.042878,0.032,0.026,1.033,0.42,-2.38,-0.35
1743542368.062878,0.038,0.024,1.031,0.42,-2.38,-0.28
1743542368.32145,0.033,0.027,1.034,0.35,-2.38,-0.35
1743542368.34145,0.031,0.028,1.033,0.42,-2.38,-0.28
1743542368.36145,0.032,0.028,1.034,0.35,-2.38,-0.21
1743542368.620756,0.035,0.029,1.033,0.35,-2.45,-0.28
1743542368.640756,0.032,0.026,1.029,0.35,-2.38,-0.42
1743542368.660756,0.031,0.027,1.031,0.42,-2.45,-0.28
1743542368.9219358,0.033,0.026,1.031,0.35,-2.45,-0.35
1743542368.9419358,0.031,0.026,1.032,0.42,-2.38,-0.35
1743542368.9619358,0.031,0.027,1.033,0.35,-2.45,-0.35
1743542369.2210271,0.035,0.028,1.034,0.49,-2.31,-0.35
1743542369.241027,0.032,0.027,1.034,0.42,-2.52,-0.35
1743542369.261027,0.035,0.028,1.034,0.42,-2.38,-0.42
1743542369.519315,0.033,0.028,1.032,0.35,-2.38,-0.42
1743542369.539315,0.034,0.025,1.033,0.42,-2.45,-0.28
1743542369.559315,0.033,0.026,1.033,0.35,-2.45,-0.35
1743542369.821067,0.035,0.025,1.033,0.42,-2.38,-0.42
1743542369.841067,0.035,0.025,1.034,0.35,-2.38,-0.35
1743542369.861067,0.032,0.026,1.033,0.35,-2.38,-0.35
1743542370.121143,0.034,0.026,1.032,0.42,-2.38,-0.35
1743542370.141143,0.036,0.026,1.031,0.35,-2.45,-0.28
1743542370.161143,0.034,0.026,1.033,0.42,-2.45,-0.35
1743542370.480375,0.034,0.026,1.03,0.42,-2.52,-0.28
1743542370.500375,0.032,0.027,1.033,0.42,-2.45,-0.35
1743542370.520375,0.033,0.026,1.032,0.49,-2.45,-0.42
1743542370.7205122,0.037,0.029,1.032,0.35,-2.38,-0.35
1743542370.740512,0.033,0.026,1.032,0.42,-2.45,-0.28
1743542370.760512,0.035,0.025,1.034,0.42,-2.31,-0.35
1743542371.021323,0.032,0.027,1.032,0.49,-2.38,-0.28
1743542371.041323,0.035,0.026,1.033,0.35,-2.45,-0.35
1743542371.061323,0.034,0.026,1.03,0.42,-2.38,-0.42
1743542371.321574,0.037,0.025,1.033,0.49,-2.45,-0.35
1743542371.341574,0.034,0.027,1.033,0.49,-2.38,-0.42
1743542371.361574,0.034,0.025,1.033,0.42,-2.45,-0.28
1743542371.62169,0.034,0.026,1.032,0.35,-2.38,-0.35
1743542371.64169,0.034,0.025,1.032,0.35,-2.45,-0.35
1743542371.66169,0.033,0.029,1.034,0.35,-2.38,-0.42
1743542371.921279,0.033,0.028,1.032,0.28,-2.38,-0.28
1743542371.941279,0.033,0.027,1.034,0.28,-2.38,-0.35
1743542371.961279,0.035,0.027,1.033,0.35,-2.38,-0.35
1743542372.22034,0.033,0.026,1.032,0.42,-2.45,-0.35
1743542372.24034,0.035,0.026,1.031,0.42,-2.45,-0.28
1743542372.26034,0.034,0.024,1.034,0.35,-2.38,-0.35
1743542372.521384,0.032,0.025,1.033,0.35,-2.45,-0.35
1743542372.541384,0.033,0.027,1.032,0.42,-2.45,-0.28
1743542372.561384,0.035,0.027,1.034,0.35,-2.45,-0.35
1743542372.821453,0.033,0.027,1.032,0.35,-2.38,-0.35
1743542372.841453,0.035,0.027,1.033,0.21,-2.38,-0.35
1743542372.861453,0.034,0.027,1.032,0.35,-2.45,-0.28
1743542373.119719,0.031,0.025,1.033,0.42,-2.45,-0.28
1743542373.139719,0.033,0.025,1.033,0.42,-2.45,-0.28
1743542373.159719,0.03,0.025,1.033,0.42,-2.38,-0.35
1743542373.4229472,0.032,0.025,1.032,0.49,-2.31,-0.28
1743542373.4429471,0.031,0.027,1.03,0.49,-2.45,-0.42
1743542373.4629471,0.034,0.029,1.032,0.49,-2.38,-0.28
1743542373.749217,0.035,0.026,1.03,0.42,-2.52,-0.35
1743542373.769217,0.034,0.028,1.03,0.42,-2.38,-0.42
1743542373.789217,0.033,0.027,1.035,0.49,-2.31,-0.35
1743542374.034878,0.034,0.027,1.033,0.35,-2.45,-0.35
1743542374.054878,0.034,0.023,1.034,0.35,-2.45,-0.42
1743542374.074878,0.035,0.026,1.032,0.42,-2.45,-0.42
1743542374.335958,0.036,0.027,1.032,0.42,-2.45,-0.35
1743542374.355958,0.033,0.026,1.032,0.42,-2.38,-0.35
1743542374.375958,0.034,0.028,1.032,0.35,-2.52,-0.42
1743542374.636597,0.035,0.028,1.033,0.42,-2.38,-0.35
1743542374.656597,0.031,0.026,1.034,0.35,-2.38,-0.35
1743542374.6765969,0.034,0.026,1.034,0.42,-2.45,-0.42
1743542374.934975,0.032,0.028,1.034,0.42,-2.52,-0.35
1743542374.954975,0.037,0.025,1.032,0.35,-2.45,-0.28
1743542374.9749749,0.034,0.027,1.034,0.42,-2.45,-0.35
1743542375.2380118,0.036,0.027,1.033,0.35,-2.31,-0.42
1743542375.2580118,0.032,0.028,1.033,0.42,-2.31,-0.28
1743542375.2780118,0.034,0.026,1.033,0.42,-2.31,-0.35
1743542375.536313,0.034,0.027,1.033,0.42,-2.38,-0.42
1743542375.556313,0.034,0.027,1.032,0.42,-2.45,-0.28
1743542375.576313,0.035,0.027,1.035,0.42,-2.38,-0.35
1743542375.836095,0.034,0.026,1.033,0.42,-2.38,-0.35
1743542375.856095,0.035,0.026,1.032,0.42,-2.31,-0.35
1743542375.876095,0.035,0.027,1.032,0.35,-2.38,-0.28
1743542376.136697,0.035,0.028,1.032,0.35,-2.38,-0.35
1743542376.156697,0.034,0.027,1.032,0.49,-2.45,-0.35
1743542376.176697,0.034,0.028,1.032,0.42,-2.31,-0.42
1743542376.436022,0.04,0.026,1.033,0.42,-2.38,-0.35
1743542376.456022,0.033,0.027,1.033,0.42,-2.38,-0.35
1743542376.476022,0.034,0.027,1.031,0.35,-2.38,-0.35
1743542376.735719,0.034,0.027,1.033,0.35,-2.31,-0.35
1743542376.755719,0.037,0.027,1.032,0.35,-2.31,-0.35
1743542376.775719,0.034,0.027,1.032,0.49,-2.45,-0.28
1743542377.0223072,0.037,0.025,1.03,0.42,-2.31,-0.28
1743542377.0423071,0.033,0.025,1.032,0.49,-2.38,-0.28
1743542377.0623071,0.033,0.027,1.033,0.49,-2.45,-0.35
1743542377.322807,0.034,0.026,1.031,0.35,-2.38,-0.35
1743542377.342807,0.036,0.026,1.033,0.35,-2.31,-0.42
1743542377.362807,0.034,0.026,1.034,0.42,-2.24,-0.35
1743542377.6202812,0.033,0.027,1.031,0.42,-2.38,-0.35
1743542377.6402812,0.032,0.03,1.032,0.35,-2.38,-0.35
1743542377.6602812,0.034,0.029,1.033,0.35,-2.38,-0.42
1743542377.922633,0.038,0.026,1.034,0.35,-2.45,-0.42
1743542377.942633,0.033,0.028,1.033,0.42,-2.38,-0.28
1743542377.962633,0.036,0.029,1.032,0.42,-2.45,-0.28
1743542378.221323,0.034,0.023,1.036,0.42,-2.31,-0.28
1743542378.241323,0.033,0.027,1.031,0.49,-2.38,-0.35
1743542378.261323,0.033,0.026,1.032,0.35,-2.38,-0.35
1743542378.520365,0.034,0.028,1.032,0.35,-2.45,-0.28
1743542378.540365,0.034,0.026,1.033,0.35,-2.45,-0.28
1743542378.560365,0.035,0.027,1.031,0.42,-2.24,-0.28
1743542378.8209312,0.036,0.028,1.034,0.49,-2.31,-0.35
1743542378.8409312,0.034,0.026,1.031,0.42,-2.38,-0.35
1743542378.8609312,0.036,0.026,1.035,0.35,-2.38,-0.28
1743542379.120832,0.037,0.027,1.032,0.35,-2.45,-0.35
1743542379.140832,0.037,0.025,1.032,0.42,-2.38,-0.28
1743542379.160832,0.036,0.027,1.032,0.28,-2.38,-0.35
1743542379.421169,0.035,0.027,1.031,0.35,-2.52,-0.42
1743542379.441169,0.035,0.028,1.034,0.35,-2.31,-0.35
1743542379.461169,0.034,0.026,1.032,0.35,-2.24,-0.42
1743542379.725128,0.035,0.027,1.034,0.42,-2.45,-0.35
1743542379.745128,0.037,0.026,1.033,0.28,-2.38,-0.35
1743542379.765128,0.036,0.026,1.034,0.42,-2.45,-0.28
1743542380.020834,0.033,0.027,1.032,0.35,-2.45,-0.35
1743542380.040834,0.033,0.025,1.032,0.42,-2.45,-0.42
1743542380.060834,0.034,0.025,1.032,0.42,-2.38,-0.35
1743542380.320986,0.034,0.024,1.033,0.49,-2.45,-0.35
1743542380.340986,0.033,0.027,1.035,0.56,-2.45,-0.35
1743542380.360986,0.035,0.024,1.033,0.42,-2.38,-0.28
1743542380.6341069,0.037,0.025,1.032,0.28,-2.45,-0.42
1743542380.6541069,0.034,0.026,1.033,0.42,-2.52,-0.42
1743542380.6741068,0.035,0.026,1.032,0.42,-2.45,-0.35
1743542380.921858,0.034,0.028,1.031,0.49,-2.31,-0.35
1743542380.941858,0.033,0.028,1.031,0.42,-2.31,-0.35
1743542380.961858,0.037,0.028,1.029,0.63,-2.38,-0.42
1743542381.221128,0.036,0.026,1.033,0.35,-2.38,-0.28
1743542381.241128,0.035,0.026,1.031,0.42,-2.38,-0.42
1743542381.261128,0.034,0.026,1.032,0.42,-2.38,-0.35
1743542381.534347,0.037,0.028,1.034,0.42,-2.38,-0.42
1743542381.554347,0.036,0.027,1.031,0.42,-2.31,-0.35
1743542381.574347,0.035,0.024,1.032,0.35,-2.31,-0.42
1743542381.836271,0.035,0.026,1.034,0.42,-2.45,-0.35
1743542381.856271,0.033,0.027,1.033,0.42,-2.52,-0.42
1743542381.876271,0.033,0.026,1.031,0.42,-2.38,-0.28
1743542382.1208131,0.036,0.026,1.033,0.42,-2.45,-0.35
1743542382.140813,0.035,0.027,1.033,0.42,-2.52,-0.35
1743542382.160813,0.033,0.027,1.033,0.35,-2.38,-0.28
1743542382.420362,0.033,0.026,1.031,0.42,-2.38,-0.42
1743542382.440362,0.033,0.027,1.031,0.35,-2.45,-0.35
1743542382.460362,0.035,0.026,1.033,0.42,-2.38,-0.21
1743542382.721757,0.035,0.025,1.031,0.35,-2.31,-0.35
1743542382.741757,0.034,0.029,1.033,0.42,-2.38,-0.35
1743542382.761757,0.035,0.025,1.035,0.49,-2.38,-0.42
1743542383.021753,0.034,0.027,1.034,0.28,-2.38,-0.42
1743542383.041753,0.034,0.028,1.033,0.42,-2.45,-0.35
1743542383.061753,0.035,0.025,1.032,0.35,-2.38,-0.42
1743542383.323888,0.035,0.027,1.033,0.35,-2.31,-0.28
1743542383.343888,0.032,0.026,1.034,0.42,-2.38,-0.35
1743542383.363888,0.033,0.025,1.035,0.35,-2.38,-0.35
1743542383.622141,0.035,0.026,1.033,0.56,-2.45,-0.42
1743542383.6421409,0.034,0.025,1.033,0.49,-2.45,-0.35
1743542383.6621408,0.034,0.025,1.031,0.42,-2.31,-0.35
1743542383.921512,0.034,0.025,1.034,0.42,-2.45,-0.42
1743542383.941512,0.031,0.024,1.031,0.42,-2.38,-0.42
1743542383.961512,0.034,0.027,1.031,0.28,-2.31,-0.42
1743542384.223914,0.033,0.027,1.034,0.42,-2.38,-0.28
1743542384.243914,0.035,0.028,1.031,0.42,-2.45,-0.35
1743542384.263914,0.036,0.025,1.035,0.35,-2.45,-0.35
1743542384.522351,0.037,0.027,1.031,0.42,-2.52,-0.28
1743542384.542351,0.035,0.028,1.031,0.7,-2.38,-0.21
1743542384.562351,0.033,0.027,1.034,0.49,-2.38,-0.35
1743542384.821407,0.034,0.027,1.031,0.49,-2.38,-0.28
1743542384.841407,0.034,0.028,1.032,0.42,-2.38,-0.35
1743542384.861407,0.035,0.027,1.034,0.35,-2.38,-0.42
1743542385.12392,0.034,0.025,1.033,0.42,-2.45,-0.42
1743542385.14392,0.036,0.027,1.034,0.35,-2.45,-0.28
1743542385.16392,0.033,0.026,1.033,0.35,-2.45,-0.28
1743542385.42195,0.032,0.025,1.032,0.28,-2.38,-0.28
1743542385.44195,0.032,0.028,1.031,0.42,-2.52,-0.35
1743542385.46195,0.034,0.03,1.031,0.35,-2.38,-0.42
1743542385.721332,0.033,0.025,1.032,0.35,-2.38,-0.35
1743542385.741332,0.035,0.028,1.033,0.28,-2.38,-0.35
1743542385.761332,0.034,0.028,1.032,0.35,-2.31,-0.35
1743542386.023004,0.033,0.026,1.032,0.42,-2.31,-0.35
1743542386.043004,0.033,0.026,1.032,0.42,-2.38,-0.35
1743542386.063004,0.036,0.025,1.03,0.42,-2.38,-0.35
1743542386.324927,0.034,0.026,1.033,0.28,-2.52,-0.35
1743542386.344927,0.035,0.026,1.034,0.35,-2.31,-0.42
1743542386.364927,0.034,0.028,1.033,0.35,-2.38,-0.35
1743542386.621988,0.035,0.028,1.032,0.42,-2.45,-0.42
1743542386.641988,0.035,0.025,1.033,0.49,-2.38,-0.35
1743542386.661988,0.036,0.025,1.031,0.42,-2.38,-0.42
1743542386.9227011,0.032,0.026,1.034,0.35,-2.38,-0.28
1743542386.942701,0.033,0.026,1.034,0.49,-2.45,-0.35
1743542386.962701,0.035,0.025,1.033,0.35,-2.45,-0.28
1743542387.2228322,0.037,0.026,1.032,0.28,-2.38,-0.42
1743542387.2428322,0.036,0.027,1.033,0.35,-2.52,-0.35
1743542387.2628322,0.034,0.027,1.033,0.28,-2.38,-0.28
1743542387.520693,0.035,0.027,1.029,0.42,-2.38,-0.28
1743542387.540693,0.033,0.027,1.029,0.42,-2.31,-0.42
1743542387.560693,0.035,0.026,1.033,0.42,-2.38,-0.35
1743542387.82128,0.035,0.023,1.033,0.42,-2.38,-0.42
1743542387.84128,0.036,0.026,1.032,0.42,-2.31,-0.35
1743542387.86128,0.036,0.026,1.033,0.35,-2.38,-0.35
1743542388.121346,0.034,0.025,1.034,0.49,-2.45,-0.35
1743542388.141346,0.034,0.026,1.032,0.42,-2.38,-0.35
1743542388.161346,0.033,0.026,1.032,0.35,-2.45,-0.35
1743542388.42063,0.031,0.028,1.033,0.35,-2.45,-0.28
1743542388.44063,0.033,0.027,1.032,0.42,-2.38,-0.35
1743542388.46063,0.033,0.028,1.031,0.28,-2.38,-0.21
1743542388.7202182,0.034,0.028,1.032,0.35,-2.38,-0.35
1743542388.7402182,0.035,0.029,1.03,0.42,-2.45,-0.42
1743542388.760218,0.034,0.026,1.031,0.49,-2.38,-0.28
1743542389.021367,0.033,0.024,1.033,0.42,-2.52,-0.28
1743542389.041367,0.033,0.026,1.032,0.35,-2.45,-0.42
1743542389.061367,0.035,0.025,1.033,0.42,-2.38,-0.35
1743542389.321144,0.037,0.024,1.033,0.35,-2.38,-0.42
1743542389.341144,0.032,0.025,1.032,0.35,-2.38,-0.35
1743542389.361144,0.034,0.025,1.032,0.42,-2.45,-0.42
1743542389.623845,0.034,0.026,1.032,0.35,-2.38,-0.35
1743542389.643845,0.035,0.028,1.032,0.42,-2.31,-0.42
1743542389.663845,0.034,0.025,1.032,0.42,-2.31,-0.42
1743542389.92226,0.033,0.03,1.032,0.42,-2.45,-0.42
1743542389.94226,0.033,0.028,1.033,0.49,-2.38,-0.28
1743542389.96226,0.032,0.027,1.032,0.49,-2.45,-0.28
1743542390.221067,0.034,0.024,1.032,0.42,-2.38,-0.28
1743542390.241067,0.034,0.025,1.033,0.35,-2.45,-0.35
1743542390.261067,0.034,0.026,1.032,0.42,-2.45,-0.35
1743542390.522977,0.035,0.026,1.031,0.35,-2.31,-0.35
1743542390.542977,0.037,0.026,1.032,0.42,-2.45,-0.28
1743542390.562977,0.036,0.026,1.033,0.28,-2.38,-0.42
1743542390.821835,0.035,0.027,1.033,0.49,-2.52,-0.35
1743542390.841835,0.034,0.025,1.033,0.35,-2.45,-0.28
1743542390.861835,0.032,0.027,1.035,0.42,-2.38,-0.28
1743542391.1216052,0.032,0.026,1.034,0.35,-2.38,-0.28
1743542391.1416051,0.035,0.026,1.034,0.35,-2.38,-0.28
1743542391.1616051,0.035,0.026,1.032,0.35,-2.31,-0.35
1743542391.4234812,0.034,0.027,1.033,0.42,-2.45,-0.35
1743542391.4434812,0.03,0.026,1.034,0.42,-2.45,-0.35
1743542391.4634812,0.035,0.026,1.03,0.49,-2.38,-0.28
1743542391.72196,0.036,0.027,1.032,0.42,-2.45,-0.35
1743542391.74196,0.034,0.027,1.033,0.42,-2.38,-0.35
1743542391.76196,0.034,0.027,1.032,0.42,-2.31,-0.35
1743542392.0220392,0.034,0.026,1.033,0.35,-2.45,-0.42
1743542392.0420392,0.033,0.027,1.032,0.49,-2.38,-0.28
1743542392.0620391,0.032,0.027,1.034,0.35,-2.31,-0.28
1743542392.321665,0.035,0.025,1.032,0.42,-2.45,-0.35
1743542392.341665,0.034,0.027,1.031,0.35,-2.52,-0.35
1743542392.361665,0.035,0.026,1.032,0.42,-2.52,-0.28
1743542392.622653,0.035,0.029,1.032,0.42,-2.38,-0.28
1743542392.642653,0.035,0.027,1.035,0.42,-2.38,-0.35
1743542392.662653,0.035,0.027,1.032,0.42,-2.38,-0.28
1743542392.937147,0.035,0.028,1.032,0.35,-2.38,-0.21
1743542392.957147,0.036,0.027,1.032,0.42,-2.45,-0.35
1743542392.9771469,0.035,0.027,1.033,0.49,-2.38,-0.42
1743542393.221645,0.034,0.026,1.031,0.42,-2.45,-0.42
1743542393.241645,0.034,0.026,1.034,0.42,-2.31,-0.35
1743542393.261645,0.035,0.027,1.037,0.35,-2.38,-0.35
1743542393.522154,0.032,0.026,1.032,0.42,-2.38,-0.49
1743542393.542154,0.035,0.022,1.032,0.35,-2.38,-0.28
1743542393.562154,0.032,0.027,1.031,0.42,-2.45,-0.35
1743542393.8215282,0.035,0.028,1.032,0.35,-2.45,-0.35
1743542393.8415282,0.034,0.027,1.031,0.35,-2.45,-0.35
1743542393.8615282,0.034,0.028,1.03,0.28,-2.31,-0.28
1743542394.1243882,0.035,0.028,1.033,0.35,-2.38,-0.28
1743542394.1443882,0.035,0.028,1.032,0.42,-2.52,-0.21
1743542394.1643882,0.033,0.028,1.033,0.42,-2.45,-0.35
1743542394.425174,0.034,0.025,1.032,0.49,-2.31,-0.35
1743542394.445174,0.033,0.026,1.033,0.35,-2.31,-0.35
1743542394.465174,0.034,0.025,1.035,0.42,-2.52,-0.28
1743542394.72202,0.034,0.026,1.036,0.42,-2.31,-0.28
1743542394.74202,0.032,0.024,1.035,0.42,-2.45,-0.28
1743542394.76202,0.033,0.026,1.033,0.42,-2.45,-0.35
1743542395.024301,0.032,0.025,1.034,0.35,-2.45,-0.35
1743542395.044301,0.035,0.026,1.031,0.35,-2.38,-0.35
1743542395.064301,0.035,0.028,1.034,0.42,-2.38,-0.35
1743542395.3217752,0.034,0.028,1.032,0.42,-2.38,-0.42
1743542395.3417752,0.035,0.028,1.033,0.35,-2.31,-0.35
1743542395.3617752,0.035,0.027,1.032,0.35,-2.45,-0.42
1743542395.621661,0.033,0.028,1.033,0.28,-2.31,-0.35
1743542395.641661,0.033,0.03,1.031,0.42,-2.38,-0.49
1743542395.661661,0.034,0.027,1.029,0.28,-2.45,-0.35
1743542395.9224572,0.035,0.028,1.03,0.35,-2.38,-0.42
1743542395.9424572,0.033,0.028,1.032,0.42,-2.38,-0.28
1743542395.9624572,0.037,0.024,1.033,0.28,-2.38,-0.28
1743542396.2222002,0.034,0.025,1.032,0.35,-2.45,-0.35
1743542396.2422,0.035,0.028,1.031,0.42,-2.31,-0.28
1743542396.2622,0.036,0.026,1.03,0.35,-2.31,-0.42
1743542396.5210938,0.033,0.028,1.032,0.28,-2.45,-0.35
1743542396.5410938,0.036,0.026,1.036,0.35,-2.38,-0.35
1743542396.5610938,0.032,0.026,1.035,0.49,-2.38,-0.42
1743542396.824288,0.031,0.025,1.033,0.42,-2.38,-0.35
1743542396.844288,0.032,0.024,1.032,0.42,-2.31,-0.35
1743542396.864288,0.033,0.025,1.034,0.42,-2.45,-0.35
1743542397.1366222,0.036,0.027,1.031,0.49,-2.38,-0.35
1743542397.1566222,0.036,0.024,1.033,0.42,-2.38,-0.42
1743542397.1766222,0.037,0.025,1.032,0.49,-2.31,-0.35
1743542397.423074,0.036,0.026,1.034,0.42,-2.45,-0.35
1743542397.443074,0.035,0.028,1.033,0.35,-2.38,-0.35
1743542397.463074,0.032,0.028,1.031,0.49,-2.38,-0.35
1743542397.722157,0.035,0.028,1.032,0.42,-2.38,-0.35
1743542397.742157,0.036,0.026,1.032,0.35,-2.45,-0.35
1743542397.762157,0.034,0.027,1.032,0.35,-2.45,-0.35
1743542398.023378,0.036,0.026,1.035,0.35,-2.45,-0.35
1743542398.043378,0.036,0.029,1.033,0.35,-2.45,-0.28
1743542398.063378,0.036,0.024,1.032,0.42,-2.38,-0.35
1743542398.320706,0.032,0.026,1.03,0.35,-2.31,-0.35
1743542398.340706,0.035,0.028,1.03,0.42,-2.45,-0.42
1743542398.360706,0.034,0.026,1.034,0.42,-2.45,-0.35
1743542398.6221802,0.033,0.024,1.032,0.42,-2.38,-0.42
1743542398.6421802,0.034,0.026,1.035,0.49,-2.38,-0.42
1743542398.6621802,0.034,0.025,1.033,0.49,-2.31,-0.35
1743542398.923207,0.036,0.026,1.031,0.35,-2.45,-0.35
1743542398.943207,0.032,0.028,1.033,0.49,-2.45,-0.28
1743542398.963207,0.033,0.027,1.033,0.28,-2.31,-0.35
1743542399.22099,0.033,0.026,1.034,0.42,-2.38,-0.35
1743542399.24099,0.034,0.028,1.032,0.35,-2.45,-0.28
1743542399.26099,0.035,0.028,1.033,0.35,-2.38,-0.28
1743542399.522526,0.036,0.024,1.031,0.42,-2.38,-0.35
1743542399.542526,0.035,0.026,1.033,0.42,-2.38,-0.35
1743542399.562526,0.036,0.025,1.032,0.42,-2.31,-0.35
1743542399.8228412,0.033,0.023,1.031,0.21,-2.45,-0.35
1743542399.8428411,0.033,0.024,1.033,0.35,-2.38,-0.35
1743542399.8628411,0.034,0.024,1.032,0.35,-2.45,-0.28
1743542400.120978,0.033,0.027,1.032,0.35,-2.38,-0.35
1743542400.140978,0.034,0.027,1.033,0.21,-2.31,-0.35
1743542400.1609778,0.035,0.028,1.031,0.49,-2.38,-0.28
1743542400.424445,0.035,0.029,1.033,0.42,-2.38,-0.35
1743542400.444445,0.035,0.028,1.032,0.35,-2.38,-0.28
1743542400.4644449,0.036,0.026,1.031,0.49,-2.38,-0.35
1743542400.7221608,0.035,0.026,1.033,0.49,-2.38,-0.28
1743542400.7421608,0.034,0.026,1.033,0.42,-2.38,-0.35
1743542400.7621608,0.035,0.025,1.031,0.42,-2.45,-0.35
1743542401.021676,0.035,0.03,1.032,0.35,-2.45,-0.35
1743542401.041676,0.035,0.028,1.03,0.35,-2.45,-0.35
1743542401.061676,0.035,0.031,1.03,0.21,-2.38,-0.42
1743542401.3226,0.034,0.03,1.031,0.35,-2.45,-0.35
1743542401.3426,0.037,0.027,1.033,0.49,-2.38,-0.35
1743542401.3625998,0.035,0.027,1.03,0.35,-2.38,-0.42
1743542401.6219542,0.034,0.026,1.034,0.49,-2.38,-0.42
1743542401.6419542,0.034,0.025,1.025,0.49,-2.38,-0.28
1743542401.6619542,0.033,0.025,1.033,0.28,-2.38,-0.35
1743542401.921976,0.033,0.027,1.033,0.42,-2.52,-0.35
1743542401.941976,0.032,0.025,1.032,0.35,-2.31,-0.42
1743542401.961976,0.037,0.026,1.029,0.28,-2.31,-0.28
1743542402.236328,0.035,0.028,1.031,0.42,-2.31,-0.35
1743542402.256328,0.033,0.029,1.031,0.42,-2.45,-0.28
1743542402.2763278,0.036,0.029,1.032,0.35,-2.52,-0.35
1743542402.522351,0.034,0.026,1.032,0.42,-2.45,-0.42
1743542402.542351,0.033,0.028,1.032,0.42,-2.38,-0.35
1743542402.562351,0.033,0.025,1.033,0.49,-2.38,-0.35
1743542402.82191,0.034,0.026,1.03,0.56,-2.45,-0.35
1743542402.84191,0.034,0.027,1.033,0.35,-2.38,-0.35
1743542402.86191,0.035,0.026,1.031,0.42,-2.45,-0.28
1743542403.124761,0.035,0.029,1.035,0.35,-2.38,-0.35
1743542403.144761,0.035,0.03,1.033,0.42,-2.45,-0.28
1743542403.164761,0.033,0.028,1.032,0.35,-2.45,-0.28
1743542403.42312,0.035,0.026,1.033,0.42,-2.52,-0.35
1743542403.44312,0.035,0.025,1.032,0.42,-2.38,-0.35
1743542403.46312,0.033,0.025,1.034,0.42,-2.45,-0.35
1743542403.750378,0.035,0.025,1.032,0.35,-2.45,-0.28
1743542403.770378,0.031,0.027,1.033,0.28,-2.38,-0.35
1743542403.790378,0.033,0.028,1.033,0.35,-2.38,-0.42
1743542404.03792,0.033,0.024,1.03,0.42,-2.38,-0.35
1743542404.05792,0.035,0.025,1.033,0.42,-2.38,-0.35
1743542404.07792,0.034,0.025,1.033,0.42,-2.38,-0.35
1743542404.340298,0.033,0.029,1.031,0.56,-2.31,-0.35
1743542404.360298,0.032,0.028,1.033,0.42,-2.38,-0.28
1743542404.380298,0.033,0.024,1.034,0.35,-2.38,-0.28
1743542404.6366773,0.034,0.026,1.033,0.49,-2.38,-0.35
1743542404.6566772,0.036,0.025,1.032,0.35,-2.38,-0.28
1743542404.6766772,0.034,0.025,1.032,0.42,-2.52,-0.35
1743542404.936757,0.036,0.023,1.034,0.35,-2.31,-0.35
1743542404.956757,0.033,0.029,1.033,0.42,-2.31,-0.35
1743542404.976757,0.035,0.028,1.033,0.35,-2.45,-0.35
1743542405.2371132,0.034,0.024,1.031,0.28,-2.45,-0.28
1743542405.2571132,0.034,0.025,1.032,0.42,-2.45,-0.28
1743542405.2771132,0.034,0.027,1.033,0.35,-2.45,-0.35
1743542405.550436,0.032,0.024,1.033,0.49,-2.31,-0.28
1743542405.570436,0.034,0.026,1.032,0.42,-2.38,-0.42
1743542405.590436,0.038,0.026,1.032,0.35,-2.31,-0.42
1743542405.837595,0.036,0.025,1.034,0.42,-2.38,-0.35
1743542405.857595,0.036,0.025,1.033,0.49,-2.38,-0.35
1743542405.877595,0.035,0.026,1.032,0.42,-2.38,-0.42
1743542406.1368809,0.031,0.024,1.033,0.35,-2.38,-0.28
1743542406.1568809,0.036,0.026,1.03,0.35,-2.31,-0.35
1743542406.1768808,0.033,0.026,1.034,0.35,-2.38,-0.35
1743542406.436775,0.033,0.029,1.034,0.42,-2.45,-0.35
1743542406.456775,0.035,0.028,1.032,0.42,-2.52,-0.28
1743542406.476775,0.033,0.026,1.033,0.42,-2.38,-0.28
1743542406.736979,0.035,0.026,1.033,0.56,-2.45,-0.35
1743542406.756979,0.034,0.028,1.032,0.42,-2.31,-0.35
1743542406.776979,0.033,0.027,1.033,0.42,-2.38,-0.35
1743542407.0376582,0.037,0.026,1.033,0.42,-2.38,-0.42
1743542407.0576582,0.034,0.028,1.033,0.35,-2.38,-0.35
1743542407.0776582,0.033,0.026,1.032,0.35,-2.38,-0.35
1743542407.337434,0.034,0.029,1.033,0.49,-2.38,-0.35
1743542407.357434,0.032,0.028,1.032,0.49,-2.45,-0.42
1743542407.377434,0.033,0.027,1.03,0.35,-2.45,-0.28
1743542407.637221,0.035,0.028,1.033,0.42,-2.31,-0.35
1743542407.657221,0.037,0.026,1.033,0.28,-2.52,-0.28
1743542407.677221,0.032,0.026,1.03,0.42,-2.52,-0.35
1743542407.93855,0.035,0.026,1.032,0.35,-2.45,-0.42
1743542407.95855,0.033,0.026,1.035,0.42,-2.45,-0.28
1743542407.97855,0.033,0.027,1.032,0.35,-2.38,-0.35
1743542408.23657,0.035,0.027,1.032,0.35,-2.45,-0.42
1743542408.25657,0.032,0.027,1.033,0.49,-2.38,-0.35
1743542408.27657,0.034,0.028,1.031,0.35,-2.38,-0.35
1743542408.553513,0.035,0.027,1.033,0.42,-2.45,-0.35
1743542408.573513,0.034,0.026,1.034,0.42,-2.38,-0.28
1743542408.593513,0.032,0.026,1.032,0.49,-2.45,-0.35
1743542408.8381882,0.034,0.026,1.034,0.35,-2.38,-0.42
1743542408.8581882,0.034,0.027,1.032,0.42,-2.38,-0.35
1743542408.878188,0.036,0.028,1.034,0.35,-2.45,-0.35
1743542409.136827,0.036,0.025,1.029,0.42,-2.45,-0.35
1743542409.156827,0.034,0.024,1.033,0.49,-2.52,-0.35
1743542409.176827,0.033,0.025,1.031,0.35,-2.45,-0.35
1743542409.4367712,0.033,0.027,1.034,0.49,-2.52,-0.42
1743542409.4567711,0.033,0.027,1.032,0.42,-2.31,-0.28
1743542409.476771,0.031,0.027,1.031,0.56,-2.31,-0.28
1743542409.73716,0.035,0.024,1.029,0.35,-2.38,-0.35
1743542409.75716,0.035,0.027,1.031,0.42,-2.45,-0.35
1743542409.77716,0.036,0.027,1.033,0.35,-2.45,-0.35
1743542410.050399,0.036,0.028,1.03,0.42,-2.45,-0.28
1743542410.070399,0.036,0.03,1.031,0.35,-2.38,-0.42
1743542410.090399,0.036,0.031,1.033,0.49,-2.38,-0.35
1743542410.337197,0.032,0.024,1.031,0.42,-2.38,-0.35
1743542410.357197,0.029,0.025,1.033,0.42,-2.38,-0.35
1743542410.377197,0.032,0.023,1.032,0.42,-2.31,-0.28
1743542410.650688,0.032,0.024,1.033,0.42,-2.31,-0.28
1743542410.670688,0.034,0.025,1.03,0.42,-2.38,-0.28
1743542410.690688,0.034,0.027,1.034,0.42,-2.45,-0.35
1743542410.937688,0.033,0.027,1.035,0.42,-2.38,-0.28
1743542410.957688,0.033,0.028,1.033,0.42,-2.24,-0.28
1743542410.977688,0.035,0.027,1.033,0.42,-2.31,-0.42
1743542411.2377431,0.031,0.027,1.032,0.49,-2.45,-0.35
1743542411.2577431,0.034,0.027,1.031,0.42,-2.38,-0.35
1743542411.277743,0.036,0.028,1.033,0.35,-2.31,-0.35
1743542411.538104,0.036,0.028,1.03,0.42,-2.38,-0.42
1743542411.558104,0.034,0.026,1.033,0.35,-2.45,-0.35
1743542411.578104,0.034,0.029,1.034,0.49,-2.24,-0.35
1743542411.837093,0.032,0.027,1.032,0.42,-2.45,-0.35
1743542411.857093,0.035,0.025,1.032,0.42,-2.31,-0.35
1743542411.877093,0.032,0.027,1.033,0.35,-2.31,-0.42
1743542412.137746,0.034,0.028,1.033,0.28,-2.38,-0.35
1743542412.1577458,0.036,0.028,1.033,0.42,-2.52,-0.28
1743542412.1777458,0.034,0.026,1.032,0.35,-2.38,-0.28
1743542412.4385622,0.036,0.027,1.032,0.35,-2.38,-0.49
1743542412.458562,0.034,0.029,1.032,0.35,-2.52,-0.42
1743542412.478562,0.034,0.028,1.033,0.28,-2.45,-0.35
1743542412.737518,0.036,0.027,1.03,0.42,-2.38,-0.28
1743542412.757518,0.033,0.028,1.032,0.35,-2.38,-0.42
1743542412.777518,0.035,0.026,1.031,0.42,-2.52,-0.28
1743542413.0367832,0.032,0.022,1.034,0.42,-2.45,-0.35
1743542413.0567832,0.035,0.027,1.032,0.49,-2.38,-0.42
1743542413.0767832,0.035,0.024,1.032,0.42,-2.38,-0.42
1743542413.338444,0.035,0.026,1.03,0.35,-2.45,-0.28
1743542413.358444,0.035,0.025,1.032,0.49,-2.38,-0.35
1743542413.378444,0.034,0.024,1.032,0.42,-2.45,-0.35
1743542413.667832,0.034,0.027,1.034,0.42,-2.45,-0.28
1743542413.687832,0.036,0.027,1.031,0.42,-2.45,-0.28
1743542413.707832,0.034,0.025,1.032,0.35,-2.38,-0.28
1743542413.9249349,0.033,0.027,1.033,0.42,-2.31,-0.35
1743542413.9449348,0.036,0.028,1.034,0.35,-2.38,-0.35
1743542413.9649348,0.034,0.027,1.033,0.42,-2.38,-0.42
1743542414.236533,0.036,0.026,1.032,0.49,-2.31,-0.28
1743542414.256533,0.033,0.026,1.03,0.56,-2.31,-0.35
1743542414.276533,0.034,0.024,1.031,0.35,-2.38,-0.35
1743542414.522204,0.032,0.025,1.033,0.35,-2.45,-0.28
1743542414.542204,0.031,0.028,1.033,0.42,-2.38,-0.42
1743542414.562204,0.036,0.027,1.034,0.35,-2.38,-0.28
1743542414.823199,0.034,0.027,1.032,0.42,-2.38,-0.42
1743542414.843199,0.033,0.026,1.033,0.35,-2.45,-0.35
1743542414.863199,0.034,0.027,1.031,0.49,-2.38,-0.42
1743542415.122987,0.035,0.027,1.032,0.42,-2.45,-0.42
1743542415.142987,0.035,0.027,1.031,0.35,-2.38,-0.35
1743542415.162987,0.034,0.027,1.033,0.35,-2.38,-0.35
1743542415.42267,0.036,0.024,1.033,0.42,-2.45,-0.35
1743542415.44267,0.035,0.027,1.032,0.35,-2.38,-0.42
1743542415.46267,0.033,0.027,1.032,0.42,-2.38,-0.35
1743542415.723009,0.034,0.028,1.031,0.35,-2.52,-0.49
1743542415.743009,0.033,0.026,1.034,0.42,-2.38,-0.35
1743542415.763009,0.033,0.025,1.031,0.35,-2.31,-0.28
1743542416.023364,0.033,0.029,1.032,0.42,-2.45,-0.35
1743542416.043364,0.035,0.027,1.033,0.35,-2.31,-0.42
1743542416.063364,0.033,0.029,1.031,0.35,-2.45,-0.28
1743542416.322271,0.033,0.025,1.032,0.35,-2.45,-0.42
1743542416.342271,0.033,0.027,1.032,0.42,-2.24,-0.42
1743542416.362271,0.034,0.027,1.033,0.49,-2.38,-0.42
1743542416.622853,0.034,0.025,1.032,0.35,-2.31,-0.28
1743542416.642853,0.032,0.027,1.033,0.49,-2.45,-0.28
1743542416.662853,0.032,0.026,1.032,0.42,-2.45,-0.35
1743542416.924418,0.035,0.028,1.033,0.42,-2.38,-0.35
1743542416.944418,0.032,0.027,1.032,0.42,-2.38,-0.28
1743542416.964418,0.034,0.029,1.032,0.49,-2.38,-0.28
1743542417.2225978,0.037,0.027,1.033,0.42,-2.38,-0.35
1743542417.2425978,0.034,0.027,1.032,0.42,-2.45,-0.35
1743542417.2625978,0.036,0.028,1.03,0.35,-2.45,-0.35
1743542417.5243452,0.034,0.026,1.033,0.42,-2.45,-0.35
1743542417.5443451,0.037,0.025,1.033,0.35,-2.38,-0.35
1743542417.5643451,0.034,0.026,1.033,0.42,-2.45,-0.35
1743542417.823317,0.034,0.028,1.033,0.42,-2.45,-0.35
1743542417.843317,0.035,0.027,1.032,0.35,-2.38,-0.42
1743542417.863317,0.036,0.027,1.031,0.42,-2.52,-0.28
1743542418.122714,0.034,0.026,1.031,0.28,-2.38,-0.21
1743542418.142714,0.037,0.028,1.032,0.35,-2.38,-0.42
1743542418.162714,0.034,0.025,1.032,0.42,-2.38,-0.42
1743542418.4377449,0.035,0.026,1.031,0.42,-2.38,-0.35
1743542418.4577448,0.034,0.026,1.032,0.42,-2.45,-0.28
1743542418.4777448,0.034,0.027,1.034,0.42,-2.38,-0.42
1743542418.724543,0.035,0.027,1.032,0.49,-2.45,-0.28
1743542418.744543,0.036,0.026,1.034,0.42,-2.52,-0.35
1743542418.764543,0.035,0.028,1.031,0.49,-2.38,-0.35
1743542419.023316,0.033,0.028,1.033,0.35,-2.38,-0.35
1743542419.043316,0.034,0.026,1.032,0.35,-2.38,-0.28
1743542419.063316,0.035,0.026,1.033,0.42,-2.45,-0.35
1743542419.325002,0.037,0.028,1.033,0.42,-2.45,-0.35
1743542419.345002,0.033,0.028,1.033,0.49,-2.45,-0.35
1743542419.365002,0.034,0.025,1.032,0.42,-2.45,-0.35
1743542419.62414,0.036,0.026,1.031,0.42,-2.38,-0.35
1743542419.64414,0.035,0.026,1.032,0.42,-2.31,-0.35
1743542419.66414,0.034,0.027,1.033,0.42,-2.38,-0.35
1743542419.922686,0.034,0.027,1.032,0.42,-2.45,-0.35
1743542419.942686,0.034,0.026,1.032,0.42,-2.52,-0.42
1743542419.962686,0.034,0.027,1.031,0.42,-2.38,-0.35
1743542420.223186,0.034,0.027,1.03,0.35,-2.38,-0.42
1743542420.243186,0.034,0.026,1.031,0.35,-2.52,-0.35
1743542420.263186,0.035,0.026,1.033,0.35,-2.38,-0.42
1743542420.526908,0.035,0.024,1.03,0.35,-2.38,-0.42
1743542420.546908,0.035,0.026,1.035,0.49,-2.45,-0.35
1743542420.566908,0.034,0.027,1.034,0.35,-2.31,-0.28
1743542420.8372402,0.032,0.028,1.034,0.42,-2.52,-0.28
1743542420.8572402,0.032,0.025,1.033,0.35,-2.45,-0.35
1743542420.8772402,0.033,0.027,1.032,0.42,-2.31,-0.42
1743542421.123024,0.035,0.023,1.031,0.42,-2.38,-0.28
1743542421.143024,0.035,0.028,1.032,0.49,-2.31,-0.28
1743542421.163024,0.036,0.025,1.031,0.42,-2.45,-0.42
1743542421.4229782,0.033,0.029,1.033,0.35,-2.38,-0.35
1743542421.442978,0.034,0.027,1.031,0.35,-2.45,-0.35
1743542421.462978,0.034,0.027,1.032,0.42,-2.38,-0.42
1743542421.723339,0.035,0.027,1.033,0.42,-2.38,-0.35
1743542421.743339,0.036,0.028,1.03,0.42,-2.31,-0.28
1743542421.763339,0.033,0.026,1.033,0.49,-2.45,-0.35
1743542422.023548,0.036,0.027,1.03,0.42,-2.38,-0.42
1743542422.043548,0.035,0.027,1.03,0.35,-2.45,-0.42
1743542422.0635478,0.036,0.027,1.032,0.42,-2.45,-0.35
1743542422.323165,0.033,0.028,1.034,0.42,-2.38,-0.35
1743542422.343165,0.036,0.028,1.033,0.42,-2.31,-0.35
1743542422.363165,0.035,0.027,1.032,0.35,-2.38,-0.35
1743542422.623373,0.034,0.025,1.033,0.35,-2.38,-0.35
1743542422.643373,0.033,0.028,1.03,0.42,-2.45,-0.35
1743542422.663373,0.034,0.027,1.032,0.49,-2.45,-0.35
1743542422.938186,0.035,0.027,1.032,0.42,-2.38,-0.35
1743542422.958186,0.037,0.028,1.033,0.35,-2.38,-0.35
1743542422.978186,0.035,0.028,1.031,0.42,-2.45,-0.49
1743542423.22436,0.036,0.026,1.034,0.42,-2.45,-0.35
1743542423.24436,0.034,0.028,1.031,0.42,-2.52,-0.28
1743542423.26436,0.035,0.026,1.032,0.42,-2.45,-0.35
1743542423.522933,0.035,0.026,1.034,0.35,-2.45,-0.35
1743542423.542933,0.034,0.029,1.032,0.35,-2.45,-0.42
1743542423.562933,0.034,0.026,1.031,0.35,-2.52,-0.28
1743542423.824418,0.032,0.026,1.033,0.42,-2.38,-0.35
1743542423.844418,0.033,0.027,1.033,0.42,-2.38,-0.28
1743542423.864418,0.034,0.028,1.032,0.42,-2.45,-0.28
1743542424.12359,0.033,0.026,1.032,0.49,-2.38,-0.35
1743542424.14359,0.034,0.026,1.031,0.42,-2.31,-0.42
1743542424.16359,0.034,0.027,1.033,0.42,-2.45,-0.35
1743542424.422857,0.034,0.027,1.032,0.35,-2.38,-0.28
1743542424.442857,0.034,0.028,1.032,0.35,-2.45,-0.35
1743542424.462857,0.034,0.026,1.033,0.42,-2.38,-0.28
1743542424.7252538,0.032,0.027,1.032,0.42,-2.45,-0.28
1743542424.7452538,0.035,0.027,1.032,0.35,-2.52,-0.49
1743542424.7652538,0.034,0.029,1.035,0.35,-2.31,-0.35
1743542425.023207,0.034,0.027,1.033,0.49,-2.45,-0.35
1743542425.043207,0.033,0.027,1.033,0.35,-2.38,-0.35
1743542425.063207,0.035,0.027,1.033,0.28,-2.31,-0.35
1743542425.323441,0.035,0.027,1.034,0.42,-2.38,-0.35
1743542425.343441,0.032,0.025,1.033,0.35,-2.38,-0.35
1743542425.363441,0.033,0.027,1.03,0.42,-2.38,-0.28
1743542425.62549,0.035,0.027,1.033,0.42,-2.31,-0.42
1743542425.64549,0.033,0.029,1.033,0.42,-2.31,-0.35
1743542425.66549,0.037,0.027,1.032,0.42,-2.45,-0.42
1743542425.924232,0.032,0.027,1.033,0.35,-2.31,-0.35
1743542425.944232,0.034,0.026,1.033,0.42,-2.45,-0.35
1743542425.964232,0.036,0.026,1.032,0.42,-2.38,-0.35
1743542426.222589,0.034,0.027,1.032,0.49,-2.45,-0.28
1743542426.242589,0.035,0.028,1.031,0.35,-2.31,-0.35
1743542426.262589,0.035,0.026,1.032,0.35,-2.38,-0.28
1743542426.5240142,0.036,0.027,1.032,0.35,-2.38,-0.35
1743542426.5440142,0.034,0.027,1.032,0.28,-2.38,-0.28
1743542426.5640142,0.035,0.027,1.032,0.42,-2.45,-0.35
1743542426.823702,0.034,0.026,1.034,0.35,-2.38,-0.21
1743542426.843702,0.033,0.026,1.033,0.35,-2.45,-0.35
1743542426.863702,0.032,0.026,1.033,0.35,-2.24,-0.35
1743542427.123255,0.033,0.026,1.034,0.42,-2.31,-0.28
1743542427.143255,0.036,0.029,1.034,0.42,-2.38,-0.35
1743542427.163255,0.032,0.026,1.033,0.35,-2.31,-0.35
1743542427.4257789,0.032,0.028,1.031,0.42,-2.45,-0.35
1743542427.4457788,0.033,0.025,1.032,0.42,-2.52,-0.28
1743542427.4657788,0.034,0.026,1.034,0.42,-2.38,-0.42
1743542427.725865,0.035,0.025,1.035,0.42,-2.45,-0.28
1743542427.7458649,0.035,0.027,1.034,0.42,-2.38,-0.28
1743542427.7658648,0.035,0.027,1.034,0.35,-2.45,-0.35
1743542428.0385332,0.032,0.027,1.034,0.35,-2.45,-0.35
1743542428.0585332,0.036,0.028,1.031,0.42,-2.45,-0.35
1743542428.0785332,0.032,0.026,1.032,0.42,-2.31,-0.35
1743542428.325092,0.033,0.028,1.033,0.28,-2.38,-0.35
1743542428.345092,0.034,0.025,1.032,0.28,-2.38,-0.35
1743542428.365092,0.034,0.027,1.031,0.42,-2.38,-0.42
1743542428.6236172,0.034,0.027,1.032,0.42,-2.38,-0.42
1743542428.6436172,0.034,0.029,1.033,0.35,-2.38,-0.35
1743542428.6636171,0.037,0.026,1.031,0.49,-2.52,-0.28
1743542428.923625,0.033,0.026,1.035,0.42,-2.31,-0.49
1743542428.943625,0.033,0.027,1.032,0.35,-2.52,-0.42
1743542428.963625,0.034,0.028,1.032,0.42,-2.38,-0.35
1743542429.225435,0.033,0.027,1.032,0.28,-2.45,-0.28
1743542429.245435,0.031,0.029,1.033,0.35,-2.45,-0.35
1743542429.265435,0.034,0.026,1.032,0.42,-2.38,-0.28
1743542429.5243652,0.032,0.027,1.032,0.35,-2.45,-0.28
1743542429.5443652,0.033,0.027,1.033,0.35,-2.38,-0.35
1743542429.5643651,0.034,0.027,1.031,0.42,-2.38,-0.28
1743542429.823769,0.036,0.026,1.031,0.49,-2.38,-0.35
1743542429.843769,0.035,0.028,1.032,0.42,-2.52,-0.28
1743542429.863769,0.034,0.027,1.034,0.42,-2.38,-0.28
1743542430.123906,0.034,0.025,1.033,0.35,-2.38,-0.42
1743542430.143906,0.033,0.027,1.031,0.42,-2.45,-0.35
1743542430.163906,0.035,0.027,1.031,0.42,-2.38,-0.28
1743542430.4246569,0.032,0.027,1.033,0.42,-2.38,-0.28
1743542430.4446568,0.033,0.029,1.032,0.42,-2.31,-0.28
1743542430.4646568,0.036,0.027,1.032,0.35,-2.38,-0.35
1743542430.7240682,0.034,0.026,1.031,0.35,-2.38,-0.49
1743542430.744068,0.034,0.028,1.031,0.35,-2.38,-0.35
1743542430.764068,0.034,0.027,1.032,0.35,-2.38,-0.35
1743542431.0259788,0.036,0.026,1.035,0.35,-2.45,-0.35
1743542431.0459788,0.036,0.026,1.031,0.35,-2.38,-0.35
1743542431.0659788,0.036,0.028,1.031,0.42,-2.38,-0.35
1743542431.323841,0.034,0.028,1.032,0.49,-2.38,-0.35
1743542431.343841,0.032,0.026,1.034,0.28,-2.45,-0.28
1743542431.363841,0.033,0.027,1.034,0.35,-2.38,-0.42
1743542431.623156,0.033,0.026,1.032,0.35,-2.45,-0.35
1743542431.643156,0.034,0.024,1.032,0.42,-2.45,-0.35
1743542431.663156,0.034,0.029,1.033,0.35,-2.52,-0.35
1743542431.9238882,0.033,0.025,1.03,0.42,-2.52,-0.35
1743542431.9438882,0.034,0.024,1.03,0.42,-2.45,-0.28
1743542431.9638882,0.035,0.025,1.034,0.28,-2.38,-0.35
1743542432.2250838,0.035,0.026,1.032,0.42,-2.52,-0.35
1743542432.2450838,0.034,0.024,1.033,0.42,-2.31,-0.35
1743542432.2650838,0.035,0.026,1.03,0.35,-2.45,-0.28
1743542432.52414,0.034,0.027,1.034,0.49,-2.38,-0.35
1743542432.54414,0.033,0.027,1.033,0.42,-2.45,-0.35
1743542432.56414,0.032,0.026,1.034,0.42,-2.45,-0.35
1743542432.824167,0.033,0.026,1.03,0.42,-2.31,-0.35
1743542432.844167,0.031,0.025,1.031,0.42,-2.45,-0.35
1743542432.864167,0.035,0.024,1.032,0.42,-2.45,-0.28
1743542433.1254752,0.033,0.026,1.032,0.35,-2.45,-0.35
1743542433.1454751,0.033,0.027,1.033,0.35,-2.38,-0.21
1743542433.1654751,0.034,0.026,1.032,0.35,-2.38,-0.35
1743542433.423244,0.034,0.026,1.033,0.35,-2.45,-0.35
1743542433.443244,0.034,0.027,1.033,0.42,-2.31,-0.35
1743542433.463244,0.033,0.027,1.032,0.42,-2.31,-0.35
1743542433.7229111,0.035,0.027,1.031,0.49,-2.38,-0.35
1743542433.742911,0.033,0.026,1.035,0.42,-2.45,-0.21
1743542433.762911,0.034,0.026,1.03,0.35,-2.45,-0.28
1743542434.024055,0.034,0.026,1.03,0.35,-2.38,-0.28
1743542434.044055,0.037,0.028,1.033,0.35,-2.45,-0.35
1743542434.064055,0.035,0.027,1.033,0.21,-2.38,-0.28
1743542434.324296,0.035,0.026,1.034,0.35,-2.38,-0.35
1743542434.344296,0.034,0.026,1.032,0.42,-2.38,-0.35
1743542434.364296,0.033,0.028,1.032,0.42,-2.52,-0.35
1743542434.6260731,0.033,0.028,1.032,0.42,-2.45,-0.35
1743542434.646073,0.034,0.027,1.033,0.35,-2.38,-0.28
1743542434.666073,0.034,0.026,1.032,0.42,-2.38,-0.35
1743542434.92408,0.036,0.028,1.033,0.35,-2.45,-0.28
1743542434.94408,0.033,0.027,1.032,0.35,-2.38,-0.35
1743542434.96408,0.033,0.026,1.033,0.42,-2.45,-0.28
1743542435.224467,0.032,0.027,1.033,0.42,-2.38,-0.35
1743542435.244467,0.035,0.027,1.03,0.42,-2.24,-0.35
1743542435.264467,0.035,0.027,1.034,0.35,-2.45,-0.28
1743542435.52401,0.034,0.029,1.032,0.35,-2.38,-0.28
1743542435.54401,0.033,0.027,1.033,0.35,-2.31,-0.35
1743542435.56401,0.035,0.027,1.033,0.42,-2.31,-0.28
1743542435.8240485,0.035,0.026,1.033,0.42,-2.31,-0.35
1743542435.8440485,0.033,0.026,1.036,0.42,-2.38,-0.35
1743542435.8640482,0.033,0.027,1.033,0.49,-2.45,-0.28
1743542436.124021,0.033,0.027,1.032,0.35,-2.38,-0.35
1743542436.144021,0.033,0.025,1.033,0.35,-2.45,-0.28
1743542436.164021,0.034,0.028,1.031,0.35,-2.38,-0.35
1743542436.424214,0.034,0.029,1.034,0.28,-2.38,-0.35
1743542436.444214,0.035,0.027,1.033,0.42,-2.38,-0.35
1743542436.464214,0.032,0.025,1.032,0.35,-2.52,-0.28
1743542436.723488,0.031,0.026,1.031,0.42,-2.52,-0.35
1743542436.743488,0.034,0.024,1.033,0.42,-2.45,-0.42
1743542436.763488,0.032,0.025,1.032,0.35,-2.31,-0.42
1743542437.0235798,0.035,0.026,1.033,0.42,-2.38,-0.35
1743542437.0435798,0.033,0.027,1.031,0.35,-2.38,-0.35
1743542437.0635798,0.032,0.027,1.031,0.42,-2.52,-0.35
1743542437.3236492,0.036,0.025,1.033,0.42,-2.45,-0.35
1743542437.3436491,0.036,0.029,1.031,0.42,-2.31,-0.35
1743542437.3636491,0.033,0.028,1.033,0.42,-2.38,-0.42
1743542437.6252968,0.035,0.028,1.03,0.35,-2.31,-0.35
1743542437.6452968,0.034,0.029,1.031,0.35,-2.38,-0.42
1743542437.6652968,0.035,0.025,1.032,0.35,-2.38,-0.35
1743542437.922636,0.034,0.026,1.031,0.42,-2.31,-0.42
1743542437.942636,0.034,0.027,1.029,0.49,-2.38,-0.42
1743542437.962636,0.033,0.027,1.034,0.42,-2.38,-0.35
1743542438.222869,0.038,0.027,1.032,0.42,-2.52,-0.21
1743542438.242869,0.035,0.026,1.034,0.42,-2.38,-0.42
1743542438.262869,0.033,0.025,1.033,0.49,-2.38,-0.42
1743542438.5239942,0.033,0.027,1.031,0.49,-2.52,-0.28
1743542438.5439942,0.036,0.027,1.033,0.35,-2.45,-0.35
1743542438.5639942,0.035,0.028,1.034,0.28,-2.45,-0.35
1743542438.8235002,0.034,0.028,1.031,0.42,-2.45,-0.35
1743542438.8435,0.033,0.027,1.03,0.49,-2.45,-0.21
1743542438.8635,0.035,0.025,1.033,0.42,-2.38,-0.42
1743542439.12625,0.035,0.026,1.032,0.42,-2.45,-0.35
1743542439.14625,0.036,0.025,1.034,0.35,-2.52,-0.28
1743542439.16625,0.034,0.026,1.03,0.42,-2.45,-0.35
1743542439.424158,0.034,0.026,1.033,0.49,-2.38,-0.35
1743542439.444158,0.035,0.026,1.032,0.35,-2.38,-0.35
1743542439.464158,0.034,0.027,1.031,0.35,-2.45,-0.35
1743542439.72343,0.033,0.027,1.033,0.35,-2.38,-0.28
1743542439.74343,0.033,0.028,1.032,0.35,-2.38,-0.35
1743542439.76343,0.035,0.027,1.031,0.42,-2.45,-0.35
1743542440.0243452,0.034,0.028,1.033,0.28,-2.38,-0.35
1743542440.0443451,0.036,0.027,1.033,0.42,-2.31,-0.35
1743542440.0643451,0.033,0.028,1.032,0.42,-2.45,-0.42
1743542440.3250198,0.034,0.026,1.032,0.42,-2.31,-0.42
1743542440.3450198,0.035,0.027,1.031,0.35,-2.38,-0.28
1743542440.3650198,0.034,0.027,1.032,0.42,-2.52,-0.28
1743542440.623481,0.033,0.025,1.033,0.42,-2.38,-0.28
1743542440.643481,0.033,0.028,1.032,0.35,-2.31,-0.42
1743542440.663481,0.035,0.028,1.033,0.42,-2.38,-0.28
1743542440.924224,0.036,0.026,1.033,0.49,-2.38,-0.35
1743542440.944224,0.034,0.025,1.03,0.49,-2.31,-0.42
1743542440.964224,0.036,0.028,1.03,0.42,-2.38,-0.35
1743542441.2258031,0.034,0.027,1.031,0.35,-2.38,-0.35
1743542441.245803,0.034,0.025,1.033,0.28,-2.38,-0.35
1743542441.265803,0.034,0.027,1.031,0.35,-2.31,-0.35
1743542441.5241642,0.032,0.029,1.032,0.35,-2.45,-0.35
1743542441.5441642,0.035,0.025,1.032,0.42,-2.38,-0.42
1743542441.5641642,0.034,0.026,1.032,0.35,-2.38,-0.42
1743542441.824335,0.033,0.028,1.03,0.42,-2.38,-0.35
1743542441.844335,0.036,0.025,1.032,0.35,-2.45,-0.28
1743542441.864335,0.036,0.026,1.034,0.49,-2.45,-0.35
1743542442.1241548,0.034,0.026,1.033,0.42,-2.52,-0.35
1743542442.1441548,0.033,0.023,1.034,0.49,-2.45,-0.35
1743542442.1641548,0.035,0.028,1.03,0.35,-2.38,-0.42
1743542442.423579,0.034,0.027,1.031,0.42,-2.38,-0.28
1743542442.443579,0.032,0.028,1.031,0.42,-2.38,-0.35
1743542442.463579,0.034,0.027,1.032,0.42,-2.38,-0.42
1743542442.724381,0.031,0.027,1.033,0.42,-2.38,-0.35
1743542442.744381,0.036,0.029,1.034,0.42,-2.38,-0.28
1743542442.764381,0.033,0.027,1.033,0.42,-2.45,-0.35
1743542443.026196,0.037,0.026,1.032,0.42,-2.38,-0.28
1743542443.046196,0.033,0.026,1.033,0.35,-2.45,-0.42
1743542443.066196,0.033,0.026,1.033,0.49,-2.38,-0.28
1743542443.3243992,0.034,0.027,1.03,0.35,-2.38,-0.35
1743542443.3443992,0.033,0.026,1.031,0.42,-2.38,-0.28
1743542443.3643992,0.033,0.026,1.034,0.35,-2.38,-0.42
1743542443.62458,0.034,0.027,1.032,0.35,-2.52,-0.35
1743542443.64458,0.034,0.028,1.032,0.42,-2.38,-0.35
1743542443.66458,0.032,0.026,1.032,0.42,-2.24,-0.28
1743542443.924364,0.033,0.026,1.032,0.42,-2.45,-0.35
1743542443.944364,0.033,0.027,1.033,0.35,-2.31,-0.35
1743542443.964364,0.033,0.027,1.032,0.42,-2.38,-0.35
1743542444.222659,0.033,0.028,1.033,0.28,-2.38,-0.42
1743542444.242659,0.034,0.027,1.031,0.42,-2.45,-0.35
1743542444.262659,0.033,0.027,1.032,0.42,-2.45,-0.28
1743542444.525192,0.035,0.026,1.034,0.35,-2.45,-0.35
1743542444.545192,0.031,0.029,1.031,0.42,-2.38,-0.35
1743542444.565192,0.033,0.026,1.032,0.42,-2.38,-0.35
1743542444.824379,0.037,0.026,1.033,0.35,-2.52,-0.35
1743542444.844379,0.034,0.026,1.031,0.35,-2.38,-0.28
1743542444.864379,0.035,0.027,1.031,0.42,-2.38,-0.35
1743542445.1240551,0.034,0.026,1.031,0.35,-2.45,-0.35
1743542445.1440551,0.034,0.027,1.034,0.35,-2.45,-0.28
1743542445.164055,0.034,0.024,1.031,0.35,-2.45,-0.35
1743542445.424139,0.034,0.027,1.031,0.35,-2.38,-0.35
1743542445.444139,0.034,0.026,1.03,0.49,-2.52,-0.28
1743542445.464139,0.033,0.028,1.033,0.42,-2.45,-0.35
1743542445.724018,0.034,0.028,1.031,0.42,-2.38,-0.35
1743542445.7440178,0.034,0.022,1.032,0.42,-2.45,-0.35
1743542445.7640178,0.032,0.028,1.034,0.35,-2.45,-0.35
1743542446.024378,0.033,0.027,1.033,0.42,-2.45,-0.35
1743542446.044378,0.034,0.028,1.034,0.42,-2.38,-0.35
1743542446.064378,0.035,0.027,1.031,0.49,-2.38,-0.28
1743542446.325474,0.035,0.026,1.033,0.42,-2.38,-0.35
1743542446.345474,0.036,0.029,1.032,0.35,-2.38,-0.28
1743542446.365474,0.031,0.025,1.032,0.42,-2.45,-0.35
1743542446.624362,0.034,0.026,1.034,0.35,-2.38,-0.28
1743542446.644362,0.033,0.027,1.032,0.42,-2.52,-0.28
1743542446.664362,0.033,0.027,1.033,0.49,-2.45,-0.35
1743542446.92318,0.035,0.028,1.031,0.35,-2.45,-0.28
1743542446.94318,0.035,0.025,1.032,0.35,-2.31,-0.28
1743542446.96318,0.034,0.026,1.033,0.49,-2.45,-0.28
1743542447.224191,0.033,0.026,1.034,0.35,-2.38,-0.35
1743542447.244191,0.034,0.026,1.032,0.42,-2.45,-0.28
1743542447.264191,0.036,0.027,1.032,0.49,-2.38,-0.28
1743542447.52452,0.035,0.026,1.032,0.35,-2.38,-0.42
1743542447.54452,0.035,0.026,1.031,0.28,-2.45,-0.28
1743542447.56452,0.035,0.027,1.032,0.35,-2.38,-0.42
1743542447.824418,0.036,0.025,1.032,0.42,-2.38,-0.28
1743542447.844418,0.034,0.026,1.032,0.35,-2.38,-0.35
1743542447.864418,0.034,0.027,1.031,0.35,-2.38,-0.28
1743542448.131145,0.034,0.026,1.032,0.35,-2.52,-0.35
1743542448.151145,0.032,0.027,1.031,0.28,-2.38,-0.42
1743542448.171145,0.033,0.026,1.032,0.42,-2.45,-0.35
1743542448.424658,0.036,0.026,1.033,0.42,-2.38,-0.42
1743542448.444658,0.034,0.028,1.029,0.35,-2.38,-0.28
1743542448.464658,0.034,0.026,1.032,0.42,-2.45,-0.35
1743542448.723507,0.035,0.026,1.031,0.42,-2.38,-0.28
1743542448.743507,0.035,0.029,1.033,0.42,-2.45,-0.35
1743542448.763507,0.032,0.026,1.032,0.42,-2.38,-0.42
1743542449.024588,0.033,0.027,1.033,0.35,-2.45,-0.28
1743542449.044588,0.032,0.028,1.033,0.35,-2.38,-0.35
1743542449.064588,0.035,0.027,1.031,0.35,-2.45,-0.42
1743542449.3264031,0.033,0.028,1.031,0.35,-2.45,-0.49
1743542449.3464031,0.034,0.025,1.032,0.35,-2.38,-0.28
1743542449.366403,0.033,0.024,1.031,0.42,-2.52,-0.28
1743542449.624449,0.035,0.027,1.034,0.35,-2.52,-0.35
1743542449.644449,0.033,0.027,1.031,0.42,-2.38,-0.42
1743542449.664449,0.035,0.028,1.035,0.35,-2.45,-0.35
1743542449.924658,0.035,0.025,1.034,0.35,-2.38,-0.35
1743542449.944658,0.034,0.028,1.034,0.35,-2.38,-0.28
1743542449.964658,0.036,0.027,1.033,0.28,-2.38,-0.35
1743542450.225219,0.035,0.026,1.031,0.35,-2.31,-0.35
1743542450.245219,0.033,0.025,1.031,0.49,-2.45,-0.35
1743542450.265219,0.033,0.027,1.031,0.35,-2.52,-0.28
1743542450.5375192,0.034,0.027,1.03,0.35,-2.31,-0.42
1743542450.5575192,0.033,0.025,1.032,0.42,-2.45,-0.28
1743542450.5775192,0.032,0.027,1.032,0.42,-2.52,-0.35
1743542450.824141,0.034,0.026,1.035,0.42,-2.45,-0.35
1743542450.844141,0.035,0.025,1.032,0.56,-2.45,-0.28
1743542450.864141,0.034,0.027,1.034,0.42,-2.38,-0.42
1743542451.125224,0.032,0.027,1.033,0.42,-2.45,-0.42
1743542451.145224,0.032,0.026,1.031,0.35,-2.45,-0.35
1743542451.1652238,0.034,0.026,1.032,0.35,-2.38,-0.35
1743542451.424343,0.036,0.027,1.034,0.35,-2.45,-0.28
1743542451.444343,0.036,0.025,1.031,0.42,-2.45,-0.28
1743542451.464343,0.034,0.027,1.034,0.35,-2.31,-0.35
1743542451.724807,0.036,0.029,1.034,0.42,-2.38,-0.35
1743542451.744807,0.035,0.027,1.033,0.42,-2.38,-0.35
1743542451.764807,0.037,0.027,1.032,0.42,-2.38,-0.35
1743542452.0264509,0.034,0.027,1.031,0.42,-2.52,-0.28
1743542452.0464509,0.034,0.025,1.032,0.42,-2.38,-0.35
1743542452.0664508,0.034,0.028,1.033,0.35,-2.38,-0.35
1743542452.324181,0.035,0.026,1.035,0.35,-2.38,-0.28
1743542452.344181,0.033,0.027,1.033,0.49,-2.24,-0.35
1743542452.364181,0.033,0.024,1.031,0.35,-2.45,-0.35
1743542452.625801,0.034,0.027,1.032,0.42,-2.45,-0.35
1743542452.645801,0.034,0.027,1.032,0.49,-2.45,-0.28
1743542452.665801,0.032,0.026,1.032,0.49,-2.45,-0.35
1743542452.927587,0.032,0.027,1.034,0.42,-2.45,-0.35
1743542452.947587,0.034,0.027,1.034,0.35,-2.38,-0.42
1743542452.967587,0.033,0.025,1.034,0.35,-2.38,-0.42
1743542453.223695,0.032,0.025,1.033,0.35,-2.38,-0.35
1743542453.243695,0.031,0.029,1.031,0.35,-2.24,-0.28
1743542453.263695,0.033,0.025,1.032,0.49,-2.38,-0.42
1743542453.525097,0.034,0.027,1.03,0.35,-2.38,-0.28
1743542453.5450969,0.035,0.027,1.029,0.35,-2.45,-0.28
1743542453.5650969,0.033,0.026,1.032,0.35,-2.38,-0.42
1743542453.825991,0.031,0.027,1.031,0.35,-2.52,-0.42
1743542453.845991,0.032,0.026,1.031,0.35,-2.31,-0.42
1743542453.8659909,0.035,0.028,1.034,0.42,-2.45,-0.28
1743542454.1243882,0.035,0.027,1.031,0.35,-2.45,-0.28
1743542454.1443882,0.036,0.026,1.032,0.35,-2.38,-0.42
1743542454.1643882,0.035,0.026,1.032,0.49,-2.45,-0.35
1743542454.425502,0.033,0.025,1.032,0.35,-2.45,-0.28
1743542454.445502,0.035,0.028,1.031,0.28,-2.45,-0.35
1743542454.465502,0.033,0.028,1.031,0.42,-2.45,-0.42
1743542454.737441,0.034,0.027,1.024,0.28,-2.38,-0.35
1743542454.757441,0.035,0.022,1.035,0.35,-2.38,-0.35
1743542454.777441,0.034,0.025,1.031,0.42,-2.52,-0.35
1743542455.0238132,0.035,0.028,1.03,0.49,-2.38,-0.28
1743542455.0438132,0.034,0.027,1.031,0.35,-2.45,-0.42
1743542455.0638132,0.036,0.025,1.033,0.42,-2.38,-0.35
1743542455.324818,0.033,0.025,1.031,0.42,-2.45,-0.35
1743542455.344818,0.035,0.026,1.032,0.49,-2.38,-0.28
1743542455.364818,0.035,0.026,1.033,0.49,-2.45,-0.35
1743542455.625952,0.032,0.025,1.034,0.56,-2.38,-0.42
1743542455.645952,0.035,0.026,1.03,0.42,-2.38,-0.35
1743542455.665952,0.034,0.026,1.032,0.35,-2.45,-0.35
1743542455.9244292,0.034,0.025,1.032,0.42,-2.45,-0.28
1743542455.9444292,0.032,0.026,1.032,0.42,-2.38,-0.35
1743542455.9644291,0.034,0.025,1.032,0.42,-2.31,-0.35
1743542456.2268329,0.034,0.026,1.032,0.49,-2.38,-0.42
1743542456.2468328,0.035,0.025,1.034,0.42,-2.45,-0.28
1743542456.2668328,0.036,0.028,1.033,0.42,-2.45,-0.28
1743542456.525109,0.033,0.03,1.035,0.35,-2.38,-0.28
1743542456.545109,0.033,0.025,1.032,0.35,-2.38,-0.35
1743542456.565109,0.035,0.024,1.031,0.49,-2.31,-0.42
1743542456.82427,0.034,0.025,1.034,0.35,-2.45,-0.49
1743542456.84427,0.033,0.027,1.034,0.42,-2.38,-0.28
1743542456.86427,0.033,0.028,1.034,0.28,-2.45,-0.35
1743542457.127499,0.034,0.027,1.031,0.35,-2.38,-0.35
1743542457.147499,0.035,0.028,1.03,0.35,-2.45,-0.42
1743542457.167499,0.035,0.025,1.031,0.35,-2.38,-0.35
1743542457.425506,0.036,0.028,1.03,0.42,-2.45,-0.35
1743542457.445506,0.034,0.028,1.031,0.35,-2.52,-0.35
1743542457.465506,0.035,0.026,1.035,0.49,-2.45,-0.35
1743542457.7238631,0.036,0.028,1.034,0.49,-2.38,-0.42
1743542457.743863,0.033,0.026,1.033,0.35,-2.38,-0.35
1743542457.763863,0.033,0.026,1.033,0.35,-2.38,-0.35
1743542458.025535,0.037,0.028,1.03,0.42,-2.45,-0.42
1743542458.045535,0.035,0.028,1.034,0.42,-2.38,-0.35
1743542458.065535,0.033,0.028,1.032,0.35,-2.31,-0.35
1743542458.327443,0.036,0.027,1.031,0.42,-2.38,-0.35
1743542458.3474429,0.033,0.025,1.032,0.42,-2.38,-0.28
1743542458.3674428,0.034,0.027,1.032,0.42,-2.31,-0.35
1743542458.625556,0.033,0.026,1.032,0.42,-2.31,-0.28
1743542458.645556,0.034,0.025,1.033,0.42,-2.45,-0.28
1743542458.665556,0.031,0.027,1.035,0.42,-2.38,-0.28
1743542458.927123,0.033,0.027,1.033,0.35,-2.38,-0.35
1743542458.947123,0.035,0.027,1.033,0.49,-2.45,-0.28
1743542458.967123,0.036,0.028,1.031,0.49,-2.38,-0.35
1743542459.228381,0.035,0.029,1.032,0.49,-2.31,-0.35
1743542459.248381,0.034,0.025,1.033,0.42,-2.45,-0.35
1743542459.2683809,0.034,0.026,1.031,0.42,-2.59,-0.35
1743542459.5247629,0.034,0.027,1.031,0.35,-2.45,-0.35
1743542459.5447628,0.035,0.027,1.032,0.42,-2.31,-0.28
1743542459.5647628,-0.008,0.107,1.079,80.64,-1.89,0.63
1743542459.825176,0.03,-0.083,1.075,93.1,-41.65,-24.01
1743542459.845176,0.05,0.022,1.036,-10.71,1.12,0.0
1743542459.865176,0.045,0.01,1.032,0.28,-2.38,-0.35
1743542460.1252391,0.045,0.009,1.031,0.35,-2.38,-0.28
1743542460.145239,0.045,0.001,1.031,0.63,-2.66,-0.35
1743542460.165239,0.042,0.003,1.032,0.77,-2.59,-0.42
1743542460.42339,0.045,0.005,1.031,0.42,-2.45,-0.28
1743542460.44339,0.044,0.007,1.031,0.56,-2.38,-0.35
1743542460.46339,0.046,0.007,1.03,0.56,-2.45,-0.21
1743542460.725621,0.044,0.01,1.031,0.49,-2.38,-0.35
1743542460.745621,0.042,0.011,1.032,0.49,-2.52,-0.35
1743542460.765621,0.047,0.011,1.033,0.56,-2.45,-0.35
1743542461.025048,0.045,0.007,1.031,0.56,-2.45,-0.42
1743542461.045048,0.045,0.01,1.034,0.49,-2.31,-0.42
1743542461.065048,0.044,0.006,1.032,0.42,-2.45,-0.42
1743542461.324033,0.044,0.008,1.034,0.28,-2.45,-0.35
1743542461.344033,0.046,0.009,1.032,0.28,-2.38,-0.28
1743542461.364033,0.046,0.007,1.033,0.35,-2.38,-0.35
1743542461.624841,0.043,0.009,1.031,0.35,-2.38,-0.35
1743542461.644841,0.044,0.007,1.032,0.42,-2.31,-0.28
1743542461.664841,0.045,0.007,1.035,0.35,-2.31,-0.28
1743542461.926715,0.044,0.009,1.034,0.35,-2.38,-0.35
1743542461.9467149,0.043,0.008,1.033,0.35,-2.38,-0.28
1743542461.9667149,0.046,0.009,1.032,0.49,-2.52,-0.35
1743542462.2246642,0.044,0.009,1.034,0.42,-2.38,-0.28
1743542462.2446642,0.043,0.008,1.033,0.35,-2.38,-0.35
1743542462.2646642,0.044,0.007,1.03,0.35,-2.38,-0.42
1743542462.525526,0.044,0.009,1.032,0.35,-2.38,-0.42
1743542462.545526,0.046,0.008,1.032,0.35,-2.45,-0.35
1743542462.565526,0.044,0.008,1.032,0.28,-2.38,-0.35
1743542462.8255622,0.046,0.008,1.034,0.42,-2.45,-0.28
1743542462.8455622,0.046,0.008,1.034,0.35,-2.38,-0.28
1743542462.8655622,0.044,0.01,1.032,0.35,-2.45,-0.28
1743542463.12567,0.046,0.007,1.033,0.35,-2.38,-0.35
1743542463.14567,0.045,0.009,1.032,0.35,-2.45,-0.28
1743542463.16567,0.043,0.007,1.032,0.42,-2.45,-0.42
1743542463.424948,0.044,0.009,1.033,0.42,-2.45,-0.35
1743542463.444948,0.045,0.008,1.033,0.42,-2.38,-0.42
1743542463.464948,0.047,0.01,1.028,0.35,-2.31,-0.42
1743542463.7280798,0.042,0.007,1.032,0.35,-2.45,-0.35
1743542463.7480798,0.045,0.009,1.033,0.56,-2.45,-0.35
1743542463.7680798,0.042,0.01,1.03,0.35,-2.31,-0.35
1743542464.026305,0.043,0.011,1.032,0.28,-2.31,-0.28
1743542464.046305,0.047,0.008,1.033,0.28,-2.38,-0.28
1743542464.066305,0.044,0.008,1.033,0.28,-2.31,-0.35
1743542464.325185,0.047,0.008,1.034,0.28,-2.31,-0.42
1743542464.345185,0.044,0.009,1.032,0.35,-2.45,-0.35
1743542464.365185,0.044,0.007,1.033,0.35,-2.38,-0.35
1743542464.6252742,0.045,0.009,1.032,0.49,-2.38,-0.42
1743542464.6452742,0.043,0.01,1.034,0.49,-2.38,-0.35
1743542464.665274,0.045,0.009,1.033,0.35,-2.38,-0.35
1743542464.92497,0.046,0.01,1.032,0.49,-2.38,-0.35
1743542464.94497,0.045,0.008,1.034,0.35,-2.45,-0.42
1743542464.96497,0.043,0.008,1.031,0.49,-2.31,-0.28
1743542465.2262242,0.045,0.011,1.032,0.42,-2.38,-0.28
1743542465.2462242,0.045,0.007,1.033,0.35,-2.38,-0.35
1743542465.266224,0.045,0.007,1.032,0.42,-2.45,-0.35
1743542465.526676,0.046,0.008,1.031,0.35,-2.38,-0.42
1743542465.546676,0.045,0.009,1.032,0.56,-2.45,-0.35
1743542465.566676,0.045,0.008,1.033,0.56,-2.38,-0.42
1743542465.8243642,0.045,0.006,1.031,0.35,-2.52,-0.28
1743542465.8443642,0.045,0.008,1.031,0.42,-2.52,-0.28
1743542465.864364,0.045,0.009,1.033,0.42,-2.45,-0.35
1743542466.126214,0.045,0.01,1.032,0.35,-2.52,-0.35
1743542466.146214,0.046,0.007,1.029,0.35,-2.38,-0.35
1743542466.166214,0.046,0.008,1.032,0.42,-2.45,-0.35
1743542466.425486,0.043,0.008,1.032,0.42,-2.45,-0.42
1743542466.445486,0.044,0.008,1.03,0.42,-2.45,-0.35
1743542466.465486,0.043,0.007,1.032,0.49,-2.45,-0.28
1743542466.724447,0.046,0.006,1.031,0.35,-2.31,-0.35
1743542466.744447,0.046,0.009,1.03,0.35,-2.52,-0.35
1743542466.764447,0.042,0.007,1.03,0.42,-2.45,-0.35
1743542467.027633,0.045,0.006,1.032,0.35,-2.52,-0.28
1743542467.047633,0.046,0.008,1.032,0.35,-2.38,-0.28
1743542467.067633,0.044,0.009,1.034,0.35,-2.38,-0.35
1743542467.3276548,0.047,0.007,1.033,0.42,-2.38,-0.42
1743542467.3476548,0.044,0.007,1.033,0.35,-2.45,-0.35
1743542467.3676548,0.045,0.007,1.03,0.35,-2.38,-0.35
1743542467.624916,0.046,0.009,1.031,0.42,-2.38,-0.42
1743542467.644916,0.043,0.01,1.032,0.35,-2.38,-0.28
