Timestamp,AccelX,AccelY,AccelZ,GyroX,GyroY,GyroZ
1743542241.6494238,-0.42,-0.854,-0.298,0.21,-2.38,-0.63
1743542241.6694238,-0.418,-0.854,-0.3,0.35,-2.87,-0.42
1743542241.6894238,-0.412,-0.863,-0.301,-0.35,-3.01,-0.56
1743542241.948457,-0.419,-0.855,-0.308,0.63,-2.52,-0.77
1743542241.968457,-0.428,-0.867,-0.313,-0.84,-3.5,-0.7
1743542241.988457,-0.421,-0.858,-0.305,0.63,-2.73,-0.56
1743542242.248714,-0.417,-0.863,-0.31,3.5,-1.33,-1.19
1743542242.268714,-0.422,-0.855,-0.306,1.05,-2.45,-0.77
1743542242.288714,-0.417,-0.852,-0.292,0.98,-2.45,-0.7
1743542242.548241,-0.42,-0.858,-0.305,0.49,-2.73,-0.7
1743542242.568241,-0.424,-0.836,-0.298,1.19,-2.1,-1.12
1743542242.5882409,-0.42,-0.851,-0.306,0.56,-2.52,-0.7
1743542242.848028,-0.415,-0.856,-0.301,2.38,-2.31,-0.63
1743542242.868028,-0.419,-0.856,-0.304,1.12,-2.66,-0.77
1743542242.888028,-0.415,-0.855,-0.305,1.05,-2.73,-0.7
1743542243.161816,-0.418,-0.858,-0.306,0.91,-2.38,-0.7
1743542243.181816,-0.419,-0.854,-0.305,0.98,-2.45,-0.7
1743542243.201816,-0.42,-0.857,-0.306,0.91,-2.52,-0.7
1743542243.447674,-0.423,-0.856,-0.308,0.98,-2.52,-0.77
1743542243.467674,-0.421,-0.857,-0.303,0.98,-2.52,-0.63
1743542243.487674,-0.42,-0.854,-0.309,0.91,-2.59,-0.77
1743542243.7637162,-0.42,-0.855,-0.306,0.98,-2.52,-0.7
1743542243.7837162,-0.42,-0.854,-0.305,0.91,-2.45,-0.7
1743542243.8037162,-0.421,-0.855,-0.307,0.98,-2.59,-0.7
1743542244.0488222,-0.419,-0.853,-0.307,1.05,-2.59,-0.7
1743542244.068822,-0.419,-0.854,-0.307,0.98,-2.52,-0.7
1743542244.088822,-0.417,-0.858,-0.306,0.98,-2.59,-0.7
1743542244.347583,-0.423,-0.859,-0.312,0.0,-2.59,-0.49
1743542244.367583,-0.412,-0.85,-0.306,-1.47,-2.66,-0.42
1743542244.387583,-0.413,-0.849,-0.298,1.26,-2.87,-0.7
1743542244.663403,-0.418,-0.862,-0.32,2.38,-2.73,-0.77
1743542244.683403,-0.42,-0.857,-0.305,1.26,-2.45,-0.7
1743542244.703403,-0.416,-0.855,-0.298,0.21,-2.66,-0.7
1743542244.948516,-0.416,-0.854,-0.307,1.26,-2.24,-0.7
1743542244.968516,-0.422,-0.855,-0.307,0.84,-2.59,-0.84
1743542244.988516,-0.427,-0.868,-0.329,2.73,-1.54,-1.12
1743542245.261684,-0.419,-0.854,-0.311,1.12,-2.59,-0.7
1743542245.281684,-0.42,-0.855,-0.302,0.56,-2.52,-0.7
1743542245.301684,-0.422,-0.857,-0.305,0.91,-2.52,-0.63
1743542245.547841,-0.42,-0.856,-0.303,1.05,-2.66,-0.77
1743542245.567841,-0.418,-0.856,-0.303,0.42,-2.87,-0.56
1743542245.587841,-0.422,-0.853,-0.304,0.91,-2.73,-0.63
1743542245.848656,-0.409,-0.862,-0.298,0.35,-3.36,-0.35
1743542245.868656,-0.422,-0.853,-0.304,0.42,-2.59,-0.7
1743542245.888656,-0.43,-0.856,-0.316,-2.8,-3.71,0.0
1743542246.149307,-0.415,-0.855,-0.301,1.19,-2.24,-0.7
1743542246.169307,-0.422,-0.853,-0.307,0.98,-2.52,-0.77
1743542246.189307,-0.422,-0.863,-0.311,0.21,-2.73,-0.7
1743542246.448344,-0.423,-0.854,-0.306,0.77,-2.59,-0.77
1743542246.468344,-0.424,-0.853,-0.298,-0.14,-3.15,-0.42
1743542246.488344,-0.419,-0.854,-0.297,1.19,-2.17,-0.63
1743542246.748011,-0.418,-0.85,-0.301,0.42,-2.52,-0.63
1743542246.768011,-0.419,-0.852,-0.305,1.12,-2.66,-0.63
1743542246.788011,-0.416,-0.856,-0.305,0.98,-2.66,-0.7
1743542247.04885,-0.416,-0.856,-0.305,0.98,-2.59,-0.63
1743542247.06885,-0.417,-0.856,-0.303,0.91,-2.52,-0.77
1743542247.08885,-0.42,-0.858,-0.304,0.84,-2.52,-0.77
1743542247.348196,-0.421,-0.855,-0.301,0.91,-2.59,-0.77
1743542247.368196,-0.42,-0.856,-0.305,1.05,-2.59,-0.77
1743542247.388196,-0.421,-0.854,-0.304,1.89,-2.59,-0.7
1743542247.647501,-0.416,-0.857,-0.319,1.33,-2.45,-0.63
1743542247.667501,-0.418,-0.853,-0.314,1.12,-2.59,-0.77
1743542247.687501,-0.417,-0.853,-0.315,1.33,-2.38,-0.77
1743542247.94879,-0.417,-0.854,-0.313,0.91,-2.52,-0.63
1743542247.96879,-0.415,-0.854,-0.313,0.84,-2.66,-0.7
1743542247.98879,-0.419,-0.856,-0.312,0.91,-2.66,-0.63
1743542248.247777,-0.417,-0.853,-0.314,0.91,-2.59,-0.7
1743542248.267777,-0.416,-0.854,-0.315,0.98,-2.59,-0.7
1743542248.287777,-0.419,-0.854,-0.312,0.98,-2.66,-0.7
1743542248.54918,-0.417,-0.854,-0.312,0.98,-2.52,-0.7
1743542248.56918,-0.417,-0.854,-0.314,1.05,-2.59,-0.7
1743542248.58918,-0.416,-0.854,-0.315,1.05,-2.45,-0.77
1743542248.848654,-0.418,-0.854,-0.312,0.91,-2.59,-0.7
1743542248.868654,-0.416,-0.854,-0.312,0.98,-2.52,-0.77
1743542248.888654,-0.416,-0.855,-0.312,1.05,-2.52,-0.77
1743542249.14881,-0.417,-0.856,-0.313,0.98,-2.52,-0.7
1743542249.16881,-0.42,-0.854,-0.313,0.91,-2.52,-0.77
1743542249.18881,-0.419,-0.853,-0.311,1.05,-2.59,-0.63
1743542249.451989,-0.416,-0.854,-0.313,1.19,-2.59,-0.7
1743542249.471989,-0.417,-0.853,-0.313,0.91,-2.45,-0.7
1743542249.491989,-0.418,-0.855,-0.313,0.98,-2.52,-0.7
1743542249.7489011,-0.415,-0.853,-0.313,0.98,-2.52,-0.77
1743542249.768901,-0.417,-0.853,-0.314,1.05,-2.59,-0.7
1743542249.788901,-0.417,-0.854,-0.313,0.91,-2.59,-0.63
1743542250.0485132,-0.417,-0.853,-0.315,0.98,-2.59,-0.7
1743542250.0685132,-0.417,-0.854,-0.313,0.84,-2.59,-0.77
1743542250.0885131,-0.419,-0.855,-0.311,0.91,-2.59,-0.7
1743542250.350163,-0.416,-0.854,-0.311,1.05,-2.59,-0.7
1743542250.370163,-0.417,-0.854,-0.313,0.91,-2.66,-0.7
1743542250.390163,-0.417,-0.854,-0.313,0.98,-2.52,-0.7
1743542250.647746,-0.418,-0.854,-0.314,1.05,-2.52,-0.77
1743542250.667746,-0.418,-0.853,-0.312,0.98,-2.52,-0.7
1743542250.687746,-0.418,-0.852,-0.312,1.05,-2.52,-0.7
1743542250.9491673,-0.419,-0.854,-0.314,0.91,-2.52,-0.7
1743542250.9691672,-0.417,-0.854,-0.314,0.98,-2.73,-0.56
1743542250.9891672,-0.416,-0.853,-0.312,1.05,-2.52,-0.84
1743542251.2490408,-0.419,-0.854,-0.313,0.98,-2.59,-0.7
1743542251.2690408,-0.416,-0.853,-0.311,0.98,-2.52,-0.7
1743542251.2890408,-0.42,-0.853,-0.313,0.98,-2.45,-0.63
1743542251.563568,-0.416,-0.852,-0.315,1.12,-2.52,-0.7
1743542251.583568,-0.417,-0.854,-0.313,0.98,-2.66,-0.77
1743542251.603568,-0.416,-0.854,-0.313,0.91,-2.66,-0.63
1743542251.8482,-0.416,-0.855,-0.311,0.98,-2.52,-0.7
1743542251.8682,-0.419,-0.854,-0.313,0.91,-2.52,-0.63
1743542251.8882,-0.418,-0.852,-0.314,0.98,-2.59,-0.63
1743542252.148222,-0.418,-0.855,-0.315,0.98,-2.52,-0.63
1743542252.168222,-0.416,-0.854,-0.312,0.91,-2.59,-0.84
1743542252.188222,-0.418,-0.853,-0.315,1.05,-2.59,-0.7
1743542252.44845,-0.419,-0.853,-0.316,1.05,-2.59,-0.7
1743542252.46845,-0.417,-0.855,-0.316,0.98,-2.52,-0.7
1743542252.48845,-0.416,-0.854,-0.315,0.91,-2.59,-0.7
1743542252.750184,-0.417,-0.855,-0.314,1.05,-2.52,-0.63
1743542252.770184,-0.415,-0.854,-0.313,0.98,-2.59,-0.7
1743542252.790184,-0.418,-0.853,-0.313,1.05,-2.52,-0.77
1743542253.0791402,-0.417,-0.853,-0.313,0.91,-2.59,-0.63
1743542253.0991402,-0.417,-0.854,-0.314,1.05,-2.52,-0.63
1743542253.11914,-0.417,-0.854,-0.312,0.91,-2.59,-0.7
1743542253.363948,-0.417,-0.854,-0.314,0.98,-2.52,-0.7
1743542253.383948,-0.42,-0.853,-0.315,1.05,-2.59,-0.7
1743542253.403948,-0.418,-0.854,-0.313,1.05,-2.59,-0.77
1743542253.6770692,-0.417,-0.856,-0.314,0.91,-2.59,-0.63
1743542253.6970692,-0.417,-0.852,-0.315,1.05,-2.52,-0.56
1743542253.7170691,-0.419,-0.853,-0.315,0.91,-2.59,-0.77
1743542253.9512162,-0.418,-0.852,-0.312,1.05,-2.59,-0.63
1743542253.9712162,-0.416,-0.854,-0.312,0.91,-2.59,-0.7
1743542253.9912162,-0.417,-0.854,-0.312,0.91,-2.52,-0.63
1743542254.24931,-0.417,-0.853,-0.313,0.98,-2.66,-0.7
1743542254.26931,-0.417,-0.856,-0.313,0.98,-2.59,-0.7
1743542254.28931,-0.418,-0.852,-0.313,0.98,-2.52,-0.63
1743542254.550325,-0.418,-0.852,-0.31,0.98,-2.52,-0.77
1743542254.570325,-0.416,-0.855,-0.313,0.91,-2.52,-0.77
1743542254.5903249,-0.418,-0.853,-0.313,0.98,-2.59,-0.77
1743542254.865173,-0.417,-0.854,-0.312,0.91,-2.66,-0.77
1743542254.885173,-0.418,-0.853,-0.313,0.98,-2.66,-0.7
1743542254.905173,-0.417,-0.854,-0.313,0.98,-2.52,-0.7
1743542255.148596,-0.418,-0.854,-0.313,0.98,-2.52,-0.56
1743542255.168596,-0.416,-0.854,-0.316,1.05,-2.59,-0.7
1743542255.188596,-0.418,-0.854,-0.312,0.98,-2.66,-0.7
1743542255.4485278,-0.416,-0.854,-0.311,0.84,-2.52,-0.7
1743542255.4685278,-0.417,-0.854,-0.315,1.05,-2.59,-0.77
1743542255.4885278,-0.416,-0.854,-0.313,0.91,-2.66,-0.77
1743542255.762782,-0.415,-0.853,-0.314,1.05,-2.73,-0.63
1743542255.782782,-0.416,-0.853,-0.314,0.98,-2.45,-0.7
1743542255.802782,-0.42,-0.855,-0.315,0.98,-2.52,-0.63
1743542256.062745,-0.418,-0.853,-0.313,1.05,-2.66,-0.56
1743542256.082745,-0.418,-0.854,-0.313,0.98,-2.59,-0.77
1743542256.102745,-0.418,-0.854,-0.315,0.98,-2.52,-0.63
1743542256.350203,-0.419,-0.854,-0.312,0.98,-2.52,-0.63
1743542256.370203,-0.416,-0.853,-0.315,0.98,-2.59,-0.7
1743542256.390203,-0.416,-0.853,-0.314,0.98,-2.59,-0.7
1743542256.648596,-0.418,-0.853,-0.313,0.98,-2.59,-0.63
1743542256.668596,-0.417,-0.854,-0.313,1.12,-2.66,-0.7
1743542256.688596,-0.417,-0.852,-0.313,0.91,-2.52,-0.7
1743542256.9496672,-0.418,-0.854,-0.313,0.91,-2.45,-0.7
1743542256.9696672,-0.418,-0.853,-0.312,0.98,-2.52,-0.77
1743542256.9896672,-0.417,-0.854,-0.313,1.05,-2.59,-0.7
1743542257.249088,-0.418,-0.854,-0.313,0.91,-2.52,-0.63
1743542257.269088,-0.416,-0.852,-0.315,0.98,-2.59,-0.77
1743542257.289088,-0.415,-0.854,-0.313,0.91,-2.59,-0.7
1743542257.549786,-0.417,-0.852,-0.311,1.05,-2.52,-0.77
1743542257.569786,-0.419,-0.855,-0.315,0.98,-2.59,-0.7
1743542257.589786,-0.417,-0.855,-0.312,0.98,-2.59,-0.7
1743542257.849025,-0.416,-0.855,-0.312,0.91,-2.52,-0.7
1743542257.869025,-0.417,-0.854,-0.316,1.05,-2.59,-0.7
1743542257.889025,-0.416,-0.852,-0.312,1.05,-2.59,-0.63
1743542258.1485078,-0.416,-0.852,-0.315,0.91,-2.59,-0.63
1743542258.1685078,-0.417,-0.853,-0.314,0.91,-2.59,-0.7
1743542258.1885078,-0.417,-0.855,-0.311,1.05,-2.59,-0.63
1743542258.450096,-0.419,-0.855,-0.312,0.98,-2.52,-0.7
1743542258.470096,-0.416,-0.855,-0.313,0.91,-2.66,-0.7
1743542258.490096,-0.418,-0.854,-0.311,0.98,-2.59,-0.7
1743542258.74963,-0.418,-0.854,-0.314,0.91,-2.52,-0.7
1743542258.76963,-0.418,-0.851,-0.312,0.98,-2.59,-0.63
1743542258.78963,-0.418,-0.853,-0.315,0.98,-2.52,-0.77
1743542259.064096,-0.416,-0.854,-0.313,1.05,-2.59,-0.7
1743542259.084096,-0.415,-0.853,-0.313,0.98,-2.52,-0.7
1743542259.104096,-0.417,-0.854,-0.312,0.98,-2.52,-0.77
1743542259.3513238,-0.414,-0.854,-0.315,0.98,-2.52,-0.56
1743542259.3713238,-0.417,-0.854,-0.312,0.98,-2.52,-0.77
1743542259.3913238,-0.417,-0.853,-0.314,0.91,-2.59,-0.7
1743542259.648454,-0.417,-0.854,-0.317,0.98,-2.52,-0.63
1743542259.668454,-0.416,-0.855,-0.313,0.98,-2.59,-0.63
1743542259.688454,-0.418,-0.855,-0.312,0.91,-2.66,-0.77
1743542259.9498749,-0.416,-0.853,-0.316,0.98,-2.52,-0.77
1743542259.9698749,-0.417,-0.854,-0.312,0.98,-2.52,-0.84
1743542259.9898748,-0.416,-0.853,-0.313,0.98,-2.59,-0.7
1743542260.2505832,-0.417,-0.854,-0.315,1.05,-2.59,-0.77
1743542260.2705832,-0.416,-0.855,-0.313,0.98,-2.59,-0.7
1743542260.2905831,-0.418,-0.853,-0.311,0.91,-2.59,-0.7
1743542260.548502,-0.417,-0.854,-0.315,0.98,-2.59,-0.77
1743542260.568502,-0.419,-0.854,-0.314,0.91,-2.59,-0.77
1743542260.588502,-0.416,-0.853,-0.313,0.91,-2.52,-0.7
1743542260.861949,-0.418,-0.854,-0.315,0.98,-2.52,-0.63
1743542260.881949,-0.415,-0.855,-0.313,0.91,-2.52,-0.56
1743542260.901949,-0.418,-0.855,-0.314,0.98,-2.59,-0.63
1743542261.149328,-0.418,-0.855,-0.312,0.98,-2.52,-0.7
1743542261.169328,-0.416,-0.853,-0.313,0.84,-2.59,-0.7
1743542261.189328,-0.42,-0.853,-0.314,0.98,-2.59,-0.7
1743542261.4484422,-0.419,-0.853,-0.312,0.98,-2.52,-0.77
1743542261.4684422,-0.415,-0.852,-0.313,0.98,-2.52,-0.63
1743542261.4884422,-0.418,-0.854,-0.311,0.98,-2.59,-0.63
1743542261.7510998,-0.417,-0.853,-0.312,0.91,-2.52,-0.63
1743542261.7710998,-0.418,-0.855,-0.314,0.98,-2.59,-0.77
1743542261.7910998,-0.418,-0.851,-0.313,0.98,-2.59,-0.7
1743542262.050071,-0.415,-0.855,-0.312,0.98,-2.52,-0.77
1743542262.070071,-0.417,-0.854,-0.312,0.98,-2.59,-0.77
1743542262.090071,-0.416,-0.854,-0.315,0.91,-2.59,-0.7
1743542262.349208,-0.416,-0.854,-0.315,0.91,-2.59,-0.63
1743542262.369208,-0.417,-0.854,-0.314,1.05,-2.66,-0.63
1743542262.389208,-0.416,-0.853,-0.314,0.98,-2.59,-0.7
1743542262.649181,-0.417,-0.854,-0.312,0.91,-2.52,-0.7
1743542262.6691809,-0.417,-0.854,-0.313,0.98,-2.66,-0.77
1743542262.6891809,-0.417,-0.854,-0.314,0.98,-2.59,-0.63
1743542262.951097,-0.418,-0.854,-0.312,0.98,-2.66,-0.63
1743542262.971097,-0.42,-0.853,-0.313,0.91,-2.59,-0.84
1743542262.991097,-0.419,-0.851,-0.314,0.91,-2.59,-0.7
1743542263.2497752,-0.416,-0.854,-0.315,0.98,-2.59,-0.56
1743542263.2697752,-0.416,-0.854,-0.314,0.98,-2.59,-0.63
1743542263.2897751,-0.417,-0.854,-0.312,0.98,-2.59,-0.7
1743542263.5492182,-0.417,-0.854,-0.311,0.98,-2.52,-0.7
1743542263.5692182,-0.418,-0.854,-0.312,0.91,-2.52,-0.77
1743542263.589218,-0.417,-0.854,-0.315,0.91,-2.52,-0.63
1743542263.881977,-0.418,-0.855,-0.313,0.98,-2.73,-0.7
1743542263.901977,-0.415,-0.854,-0.314,0.98,-2.59,-0.84
1743542263.921977,-0.417,-0.854,-0.313,0.98,-2.66,-0.77
1743542264.149112,-0.417,-0.853,-0.315,1.05,-2.59,-0.77
1743542264.169112,-0.417,-0.854,-0.314,0.98,-2.59,-0.7
1743542264.189112,-0.415,-0.852,-0.313,0.98,-2.59,-0.7
1743542264.449333,-0.418,-0.853,-0.312,0.91,-2.59,-0.7
1743542264.469333,-0.418,-0.851,-0.313,1.05,-2.66,-0.63
1743542264.489333,-0.417,-0.852,-0.315,0.91,-2.52,-0.77
1743542264.75139,-0.417,-0.854,-0.313,0.91,-2.45,-0.7
1743542264.77139,-0.414,-0.852,-0.314,0.91,-2.45,-0.77
1743542264.79139,-0.418,-0.854,-0.314,0.98,-2.59,-0.7
1743542265.049224,-0.418,-0.853,-0.312,1.12,-2.52,-0.63
1743542265.069224,-0.417,-0.852,-0.313,0.91,-2.45,-0.7
1743542265.089224,-0.417,-0.853,-0.315,0.84,-2.66,-0.7
1743542265.348675,-0.416,-0.852,-0.313,0.98,-2.52,-0.7
1743542265.368675,-0.417,-0.853,-0.313,0.84,-2.52,-0.7
1743542265.388675,-0.416,-0.854,-0.313,1.05,-2.59,-0.77
1743542265.651298,-0.416,-0.854,-0.313,0.91,-2.59,-0.63
1743542265.671298,-0.417,-0.854,-0.313,1.12,-2.52,-0.7
1743542265.691298,-0.418,-0.851,-0.313,0.98,-2.59,-0.7
1743542265.948649,-0.419,-0.854,-0.315,1.05,-2.52,-0.7
1743542265.968649,-0.416,-0.853,-0.312,0.98,-2.52,-0.7
1743542265.988649,-0.417,-0.853,-0.31,1.05,-2.59,-0.7
1743542266.249346,-0.417,-0.853,-0.314,0.91,-2.52,-0.7
1743542266.269346,-0.418,-0.853,-0.313,0.91,-2.45,-0.7
1743542266.289346,-0.418,-0.853,-0.315,0.98,-2.45,-0.7
1743542266.5493152,-0.416,-0.852,-0.315,0.98,-2.59,-0.7
1743542266.5693152,-0.418,-0.853,-0.314,0.77,-2.45,-0.7
1743542266.5893152,-0.418,-0.854,-0.314,0.91,-2.59,-0.63
1743542266.849608,-0.419,-0.854,-0.312,0.91,-2.59,-0.7
1743542266.869608,-0.417,-0.851,-0.313,0.91,-2.59,-0.7
1743542266.889608,-0.417,-0.854,-0.315,0.98,-2.59,-0.63
1743542267.1504378,-0.417,-0.852,-0.315,0.98,-2.52,-0.7
1743542267.1704378,-0.418,-0.854,-0.313,0.84,-2.59,-0.7
1743542267.1904378,-0.419,-0.853,-0.313,0.98,-2.52,-0.7
1743542267.450064,-0.416,-0.854,-0.313,1.05,-2.45,-0.77
1743542267.470064,-0.416,-0.852,-0.315,0.98,-2.45,-0.7
1743542267.490064,-0.417,-0.854,-0.316,0.91,-2.66,-0.7
1743542267.749643,-0.417,-0.853,-0.313,0.91,-2.59,-0.77
1743542267.769643,-0.417,-0.855,-0.313,0.98,-2.52,-0.77
1743542267.789643,-0.417,-0.852,-0.313,1.05,-2.52,-0.63
1743542268.0492082,-0.417,-0.853,-0.314,0.98,-2.52,-0.7
1743542268.069208,-0.418,-0.855,-0.313,0.98,-2.66,-0.7
1743542268.089208,-0.419,-0.853,-0.314,1.05,-2.66,-0.77
1743542268.349848,-0.418,-0.854,-0.312,0.98,-2.59,-0.7
1743542268.369848,-0.418,-0.855,-0.314,1.05,-2.45,-0.7
1743542268.389848,-0.416,-0.853,-0.314,0.98,-2.59,-0.63
1743542268.648554,-0.418,-0.856,-0.312,0.98,-2.59,-0.7
1743542268.668554,-0.419,-0.854,-0.313,0.98,-2.52,-0.7
1743542268.688554,-0.418,-0.854,-0.313,0.98,-2.59,-0.63
1743542268.948915,-0.416,-0.853,-0.314,1.05,-2.52,-0.63
1743542268.968915,-0.418,-0.855,-0.313,0.91,-2.52,-0.63
1743542268.988915,-0.416,-0.853,-0.312,1.05,-2.59,-0.7
1743542269.249688,-0.417,-0.855,-0.313,0.91,-2.59,-0.7
1743542269.269688,-0.418,-0.856,-0.314,0.91,-2.59,-0.63
1743542269.289688,-0.418,-0.854,-0.312,0.98,-2.52,-0.56
1743542269.548883,-0.416,-0.856,-0.315,0.98,-2.59,-0.7
1743542269.568883,-0.418,-0.854,-0.314,0.91,-2.59,-0.7
1743542269.588883,-0.417,-0.854,-0.314,0.98,-2.66,-0.7
1743542269.849271,-0.416,-0.853,-0.314,0.91,-2.52,-0.7
1743542269.869271,-0.418,-0.855,-0.311,0.91,-2.45,-0.63
1743542269.889271,-0.419,-0.851,-0.313,1.05,-2.59,-0.7
1743542270.151743,-0.416,-0.854,-0.313,0.77,-2.59,-0.7
1743542270.171743,-0.417,-0.853,-0.315,1.05,-2.66,-0.7
1743542270.191743,-0.417,-0.855,-0.312,0.84,-2.59,-0.7
1743542270.478883,-0.417,-0.851,-0.315,0.91,-2.59,-0.7
1743542270.498883,-0.418,-0.854,-0.315,0.91,-2.52,-0.63
1743542270.518883,-0.418,-0.853,-0.311,1.05,-2.66,-0.7
1743542270.763932,-0.417,-0.854,-0.312,0.91,-2.59,-0.77
1743542270.783932,-0.417,-0.855,-0.313,0.91,-2.59,-0.7
1743542270.803932,-0.417,-0.854,-0.315,1.05,-2.59,-0.7
1743542271.06412,-0.418,-0.855,-0.314,0.98,-2.52,-0.63
1743542271.08412,-0.417,-0.855,-0.312,0.98,-2.59,-0.77
1743542271.10412,-0.418,-0.854,-0.315,0.98,-2.59,-0.63
1743542271.363898,-0.418,-0.854,-0.314,0.91,-2.52,-0.77
1743542271.383898,-0.415,-0.854,-0.313,0.91,-2.52,-0.7
1743542271.403898,-0.415,-0.852,-0.315,0.98,-2.59,-0.7
1743542271.663831,-0.416,-0.852,-0.316,0.91,-2.45,-0.7
1743542271.683831,-0.416,-0.853,-0.315,0.98,-2.52,-0.77
1743542271.703831,-0.418,-0.854,-0.314,0.84,-2.59,-0.56
1743542271.965653,-0.418,-0.855,-0.314,0.98,-2.59,-0.63
1743542271.985653,-0.417,-0.854,-0.315,0.84,-2.59,-0.7
1743542272.005653,-0.417,-0.854,-0.313,0.98,-2.52,-0.77
1743542272.2637892,-0.418,-0.854,-0.313,0.91,-2.52,-0.63
1743542272.2837892,-0.419,-0.853,-0.313,1.05,-2.66,-0.63
1743542272.3037891,-0.417,-0.852,-0.314,0.91,-2.66,-0.77
1743542272.5637178,-0.418,-0.853,-0.313,0.91,-2.66,-0.77
1743542272.5837178,-0.417,-0.853,-0.317,1.05,-2.52,-0.63
1743542272.6037178,-0.417,-0.855,-0.312,0.98,-2.59,-0.63
1743542272.878519,-0.417,-0.854,-0.313,0.98,-2.66,-0.7
1743542272.898519,-0.416,-0.853,-0.314,0.98,-2.59,-0.7
1743542272.918519,-0.415,-0.855,-0.313,0.98,-2.66,-0.7
1743542273.163893,-0.416,-0.854,-0.311,0.98,-2.52,-0.77
1743542273.183893,-0.418,-0.853,-0.314,0.91,-2.59,-0.77
1743542273.203893,-0.416,-0.854,-0.313,0.98,-2.52,-0.7
1743542273.464328,-0.417,-0.853,-0.313,0.84,-2.59,-0.56
1743542273.484328,-0.419,-0.854,-0.315,0.98,-2.66,-0.7
1743542273.504328,-0.416,-0.854,-0.314,0.98,-2.52,-0.63
1743542273.750049,-0.417,-0.855,-0.312,0.98,-2.52,-0.7
1743542273.770049,-0.415,-0.854,-0.315,0.98,-2.66,-0.63
1743542273.790049,-0.417,-0.854,-0.316,0.91,-2.66,-0.63
1743542274.063932,-0.419,-0.853,-0.313,1.05,-2.52,-0.77
1743542274.083932,-0.417,-0.854,-0.313,0.98,-2.59,-0.63
1743542274.103932,-0.419,-0.853,-0.315,0.91,-2.52,-0.77
1743542274.3661451,-0.415,-0.851,-0.314,0.98,-2.52,-0.84
1743542274.386145,-0.417,-0.856,-0.314,0.91,-2.59,-0.63
1743542274.406145,-0.418,-0.853,-0.314,0.91,-2.59,-0.63
1743542274.6639528,-0.416,-0.854,-0.312,0.98,-2.52,-0.7
1743542274.6839528,-0.417,-0.851,-0.313,0.91,-2.73,-0.77
1743542274.7039528,-0.416,-0.855,-0.316,1.05,-2.59,-0.7
1743542274.964437,-0.417,-0.854,-0.315,1.05,-2.59,-0.7
1743542274.984437,-0.417,-0.853,-0.313,0.91,-2.59,-0.7
1743542275.004437,-0.416,-0.854,-0.314,0.98,-2.59,-0.77
1743542275.2641711,-0.417,-0.852,-0.313,0.84,-2.52,-0.77
1743542275.284171,-0.418,-0.851,-0.315,0.91,-2.52,-0.77
1743542275.304171,-0.419,-0.853,-0.312,0.91,-2.52,-0.77
1743542275.5644171,-0.418,-0.851,-0.312,1.05,-2.59,-0.77
1743542275.584417,-0.416,-0.856,-0.315,0.84,-2.59,-0.77
1743542275.604417,-0.417,-0.853,-0.314,0.98,-2.59,-0.77
1743542275.864262,-0.417,-0.855,-0.312,0.98,-2.59,-0.7
1743542275.8842618,-0.416,-0.853,-0.314,0.98,-2.52,-0.77
1743542275.9042618,-0.417,-0.852,-0.313,0.98,-2.52,-0.7
1743542276.164052,-0.417,-0.854,-0.313,0.98,-2.52,-0.7
1743542276.184052,-0.415,-0.854,-0.315,1.05,-2.52,-0.7
1743542276.204052,-0.416,-0.854,-0.314,0.91,-2.66,-0.63
1743542276.464254,-0.417,-0.853,-0.314,0.98,-2.59,-0.7
1743542276.484254,-0.416,-0.854,-0.315,0.91,-2.52,-0.7
1743542276.504254,-0.415,-0.853,-0.315,0.91,-2.59,-0.7
1743542276.76425,-0.418,-0.854,-0.315,1.05,-2.59,-0.7
1743542276.78425,-0.417,-0.854,-0.313,1.05,-2.59,-0.77
1743542276.80425,-0.419,-0.853,-0.315,0.98,-2.59,-0.77
1743542277.06417,-0.417,-0.853,-0.312,0.98,-2.59,-0.7
1743542277.08417,-0.416,-0.853,-0.313,0.98,-2.52,-0.7
1743542277.10417,-0.418,-0.852,-0.314,0.98,-2.73,-0.56
1743542277.364053,-0.419,-0.851,-0.313,0.98,-2.52,-0.84
1743542277.384053,-0.417,-0.852,-0.313,1.05,-2.59,-0.7
1743542277.404053,-0.417,-0.854,-0.316,0.84,-2.52,-0.77
1743542277.663632,-0.418,-0.852,-0.314,0.98,-2.52,-0.63
1743542277.683632,-0.416,-0.853,-0.314,0.98,-2.59,-0.77
1743542277.703632,-0.416,-0.854,-0.313,0.98,-2.52,-0.7
1743542277.995795,-0.415,-0.854,-0.315,1.05,-2.52,-0.7
1743542278.015795,-0.417,-0.854,-0.315,1.05,-2.52,-0.84
1743542278.035795,-0.419,-0.853,-0.31,1.05,-2.66,-0.7
1743542278.265119,-0.416,-0.853,-0.314,0.91,-2.66,-0.77
1743542278.285119,-0.416,-0.854,-0.314,0.91,-2.38,-0.7
1743542278.305119,-0.416,-0.852,-0.313,0.91,-2.59,-0.77
1743542278.564752,-0.42,-0.854,-0.315,0.91,-2.59,-0.7
1743542278.5847518,-0.417,-0.853,-0.316,0.91,-2.59,-0.63
1743542278.6047518,-0.417,-0.854,-0.315,0.91,-2.52,-0.77
1743542278.878127,-0.418,-0.853,-0.315,1.12,-2.45,-0.63
1743542278.898127,-0.415,-0.852,-0.314,0.91,-2.45,-0.77
1743542278.918127,-0.418,-0.854,-0.315,0.91,-2.59,-0.7
1743542279.1658828,-0.417,-0.853,-0.312,1.05,-2.59,-0.63
1743542279.1858828,-0.417,-0.852,-0.314,0.98,-2.52,-0.7
1743542279.2058828,-0.417,-0.854,-0.315,0.91,-2.52,-0.77
1743542279.4642072,-0.415,-0.854,-0.313,1.05,-2.59,-0.7
1743542279.4842072,-0.417,-0.851,-0.313,0.98,-2.59,-0.7
1743542279.5042071,-0.417,-0.853,-0.315,0.98,-2.52,-0.7
1743542279.7643142,-0.416,-0.854,-0.313,1.05,-2.52,-0.63
1743542279.7843142,-0.418,-0.852,-0.315,0.98,-2.66,-0.56
1743542279.804314,-0.414,-0.854,-0.314,0.98,-2.66,-0.7
1743542280.0645928,-0.417,-0.854,-0.314,0.91,-2.59,-0.7
1743542280.0845928,-0.416,-0.854,-0.314,0.91,-2.52,-0.56
1743542280.1045928,-0.416,-0.854,-0.314,1.05,-2.59,-0.7
1743542280.3643222,-0.418,-0.853,-0.315,1.05,-2.52,-0.7
1743542280.3843222,-0.417,-0.854,-0.314,1.05,-2.59,-0.7
1743542280.404322,-0.416,-0.852,-0.315,0.91,-2.45,-0.7
1743542280.663567,-0.418,-0.854,-0.313,0.91,-2.59,-0.77
1743542280.683567,-0.416,-0.854,-0.314,0.91,-2.52,-0.7
1743542280.703567,-0.418,-0.853,-0.313,0.91,-2.52,-0.7
1743542280.964836,-0.418,-0.854,-0.313,0.91,-2.59,-0.63
1743542280.984836,-0.419,-0.851,-0.317,0.98,-2.59,-0.7
1743542281.004836,-0.418,-0.853,-0.317,0.98,-2.59,-0.63
1743542281.2497811,-0.417,-0.853,-0.316,0.98,-2.52,-0.7
1743542281.269781,-0.417,-0.853,-0.314,0.84,-2.59,-0.77
1743542281.289781,-0.419,-0.854,-0.313,1.05,-2.52,-0.63
1743542281.564988,-0.419,-0.855,-0.312,0.98,-2.66,-0.63
1743542281.584988,-0.416,-0.854,-0.312,0.98,-2.52,-0.77
1743542281.604988,-0.418,-0.855,-0.312,1.12,-2.59,-0.77
1743542281.850649,-0.417,-0.855,-0.312,0.91,-2.59,-0.7
1743542281.870649,-0.419,-0.853,-0.315,0.98,-2.52,-0.63
1743542281.890649,-0.418,-0.852,-0.316,1.05,-2.59,-0.77
1743542282.149166,-0.418,-0.854,-0.315,0.98,-2.59,-0.7
1743542282.169166,-0.417,-0.853,-0.312,0.98,-2.59,-0.63
1743542282.189166,-0.416,-0.853,-0.314,0.98,-2.66,-0.7
1743542282.4505842,-0.417,-0.854,-0.313,1.05,-2.59,-0.7
1743542282.4705842,-0.417,-0.852,-0.314,0.98,-2.66,-0.77
1743542282.490584,-0.417,-0.853,-0.311,0.98,-2.59,-0.63
1743542282.763208,-0.417,-0.853,-0.312,1.12,-2.66,-0.63
1743542282.783208,-0.418,-0.854,-0.313,0.91,-2.52,-0.63
1743542282.803208,-0.417,-0.854,-0.315,0.91,-2.59,-0.63
1743542283.080641,-0.418,-0.854,-0.311,0.84,-2.59,-0.7
1743542283.100641,-0.417,-0.856,-0.314,1.05,-2.52,-0.63
1743542283.120641,-0.419,-0.854,-0.314,0.91,-2.59,-0.7
1743542283.350536,-0.421,-0.853,-0.314,0.77,-2.52,-0.77
1743542283.370536,-0.419,-0.854,-0.315,0.98,-2.66,-0.77
1743542283.3905358,-0.417,-0.851,-0.314,0.91,-2.59,-0.63
1743542283.650728,-0.416,-0.855,-0.313,0.98,-2.59,-0.7
1743542283.670728,-0.415,-0.851,-0.314,0.98,-2.52,-0.7
1743542283.690728,-0.418,-0.852,-0.313,1.05,-2.59,-0.7
1743542283.9505742,-0.415,-0.854,-0.313,0.98,-2.59,-0.63
1743542283.970574,-0.416,-0.855,-0.314,0.98,-2.59,-0.77
1743542283.990574,-0.417,-0.853,-0.309,0.91,-2.59,-0.7
1743542284.250184,-0.416,-0.852,-0.314,0.98,-2.45,-0.77
1743542284.270184,-0.421,-0.853,-0.315,0.91,-2.52,-0.63
1743542284.290184,-0.418,-0.853,-0.315,0.98,-2.52,-0.7
1743542284.5527098,-0.416,-0.852,-0.314,1.05,-2.59,-0.7
1743542284.5727098,-0.418,-0.854,-0.313,0.98,-2.59,-0.7
1743542284.5927098,-0.415,-0.853,-0.313,0.98,-2.52,-0.77
1743542284.850002,-0.416,-0.853,-0.314,0.98,-2.52,-0.63
1743542284.870002,-0.418,-0.853,-0.315,0.98,-2.59,-0.63
1743542284.890002,-0.418,-0.855,-0.313,0.91,-2.52,-0.7
1743542285.149705,-0.418,-0.854,-0.313,0.98,-2.59,-0.63
1743542285.169705,-0.419,-0.853,-0.313,0.84,-2.59,-0.77
1743542285.189705,-0.416,-0.853,-0.315,0.84,-2.59,-0.7
1743542285.451081,-0.417,-0.855,-0.313,0.98,-2.59,-0.7
1743542285.471081,-0.42,-0.855,-0.312,0.98,-2.59,-0.63
1743542285.491081,-0.418,-0.852,-0.314,1.05,-2.59,-0.7
1743542285.750035,-0.417,-0.854,-0.314,0.84,-2.52,-0.63
1743542285.770035,-0.416,-0.853,-0.315,1.05,-2.59,-0.77
1743542285.790035,-0.416,-0.854,-0.314,0.98,-2.45,-0.77
1743542286.050302,-0.417,-0.852,-0.313,0.91,-2.66,-0.63
1743542286.070302,-0.418,-0.854,-0.314,1.05,-2.59,-0.63
1743542286.090302,-0.414,-0.851,-0.315,0.98,-2.52,-0.77
1743542286.3522182,-0.416,-0.854,-0.314,0.98,-2.45,-0.7
1743542286.372218,-0.418,-0.854,-0.313,0.98,-2.59,-0.7
1743542286.392218,-0.419,-0.854,-0.315,0.98,-2.45,-0.63
1743542286.6508958,-0.418,-0.854,-0.312,1.12,-2.59,-0.63
1743542286.6708958,-0.418,-0.853,-0.315,1.05,-2.59,-0.7
1743542286.6908958,-0.417,-0.853,-0.313,0.98,-2.59,-0.77
1743542286.950849,-0.417,-0.853,-0.316,0.98,-2.52,-0.56
1743542286.970849,-0.417,-0.855,-0.31,0.91,-2.52,-0.7
1743542286.990849,-0.417,-0.854,-0.313,1.05,-2.59,-0.63
1743542287.253033,-0.418,-0.854,-0.313,0.98,-2.52,-0.7
1743542287.273033,-0.417,-0.854,-0.317,0.91,-2.59,-0.56
1743542287.293033,-0.416,-0.853,-0.315,0.98,-2.52,-0.77
1743542287.5494752,-0.42,-0.853,-0.313,0.98,-2.59,-0.7
1743542287.5694752,-0.419,-0.852,-0.316,1.05,-2.59,-0.7
1743542287.5894752,-0.419,-0.853,-0.314,0.91,-2.52,-0.7
1743542287.849656,-0.418,-0.854,-0.314,0.98,-2.66,-0.7
1743542287.869656,-0.418,-0.853,-0.312,0.98,-2.59,-0.63
1743542287.889656,-0.417,-0.852,-0.313,0.98,-2.66,-0.63
1743542288.1502302,-0.419,-0.853,-0.317,0.91,-2.59,-0.7
1743542288.1702302,-0.416,-0.854,-0.315,0.98,-2.52,-0.7
1743542288.19023,-0.42,-0.855,-0.312,0.98,-2.59,-0.7
1743542288.450537,-0.419,-0.854,-0.314,0.98,-2.59,-0.77
1743542288.470537,-0.418,-0.853,-0.314,0.91,-2.52,-0.7
1743542288.490537,-0.416,-0.855,-0.314,0.91,-2.66,-0.7
1743542288.750133,-0.418,-0.853,-0.315,0.98,-2.59,-0.63
1743542288.770133,-0.419,-0.855,-0.312,1.05,-2.52,-0.63
1743542288.790133,-0.419,-0.854,-0.314,0.98,-2.52,-0.63
1743542289.0507588,-0.417,-0.853,-0.313,0.98,-2.59,-0.77
1743542289.0707588,-0.416,-0.854,-0.314,0.91,-2.52,-0.63
1743542289.0907588,-0.414,-0.853,-0.312,0.98,-2.52,-0.77
1743542289.349555,-0.416,-0.854,-0.316,1.05,-2.66,-0.63
1743542289.369555,-0.418,-0.854,-0.314,0.91,-2.66,-0.77
1743542289.389555,-0.417,-0.856,-0.315,0.98,-2.59,-0.63
1743542289.649684,-0.418,-0.854,-0.313,1.05,-2.66,-0.77
1743542289.669684,-0.417,-0.855,-0.314,1.05,-2.59,-0.7
1743542289.689684,-0.417,-0.855,-0.312,0.91,-2.52,-0.56
1743542289.9503832,-0.418,-0.852,-0.313,0.98,-2.59,-0.56
1743542289.9703832,-0.418,-0.853,-0.318,1.19,-2.59,-0.84
1743542289.9903831,-0.42,-0.853,-0.314,0.98,-2.59,-0.7
1743542290.250047,-0.419,-0.854,-0.313,1.05,-2.59,-0.84
1743542290.270047,-0.417,-0.853,-0.315,0.98,-2.52,-0.77
1743542290.290047,-0.417,-0.854,-0.316,0.91,-2.59,-0.7
1743542290.550526,-0.415,-0.853,-0.315,0.91,-2.52,-0.7
1743542290.570526,-0.416,-0.853,-0.313,1.12,-2.59,-0.77
1743542290.590526,-0.417,-0.854,-0.314,1.05,-2.59,-0.7
1743542290.8512452,-0.418,-0.854,-0.314,0.91,-2.59,-0.77
1743542290.8712451,-0.416,-0.854,-0.313,0.98,-2.52,-0.56
1743542290.8912451,-0.418,-0.854,-0.315,0.98,-2.45,-0.7
1743542291.1491892,-0.419,-0.855,-0.313,0.91,-2.59,-0.56
1743542291.1691892,-0.417,-0.854,-0.315,1.05,-2.66,-0.77
1743542291.1891892,-0.417,-0.854,-0.313,1.05,-2.59,-0.77
1743542291.451022,-0.419,-0.854,-0.314,0.91,-2.59,-0.63
1743542291.471022,-0.418,-0.855,-0.314,1.12,-2.59,-0.56
1743542291.491022,-0.419,-0.854,-0.315,0.91,-2.59,-0.63
1743542291.752427,-0.417,-0.853,-0.317,0.98,-2.59,-0.77
1743542291.772427,-0.415,-0.852,-0.315,0.98,-2.52,-0.7
1743542291.792427,-0.417,-0.854,-0.315,0.98,-2.59,-0.7
1743542292.050425,-0.416,-0.854,-0.314,0.98,-2.52,-0.7
1743542292.070425,-0.418,-0.853,-0.313,1.05,-2.52,-0.7
1743542292.090425,-0.416,-0.853,-0.314,0.91,-2.59,-0.63
1743542292.3501709,-0.417,-0.855,-0.315,1.05,-2.59,-0.7
1743542292.3701708,-0.417,-0.854,-0.313,1.05,-2.52,-0.63
1743542292.3901708,-0.414,-0.854,-0.316,0.84,-2.59,-0.63
1743542292.650814,-0.42,-0.853,-0.314,0.98,-2.59,-0.7
1743542292.670814,-0.418,-0.854,-0.314,0.98,-2.59,-0.63
1743542292.690814,-0.417,-0.853,-0.313,0.98,-2.52,-0.7
1743542292.950492,-0.418,-0.852,-0.316,1.05,-2.59,-0.7
1743542292.970492,-0.418,-0.854,-0.314,0.98,-2.59,-0.7
1743542292.990492,-0.418,-0.854,-0.313,0.84,-2.52,-0.7
1743542293.249866,-0.419,-0.854,-0.312,1.12,-2.52,-0.56
1743542293.269866,-0.417,-0.853,-0.314,0.91,-2.52,-0.63
1743542293.289866,-0.418,-0.852,-0.314,0.98,-2.59,-0.63
1743542293.5500731,-0.416,-0.852,-0.312,0.98,-2.52,-0.63
1743542293.5700731,-0.417,-0.852,-0.315,0.98,-2.52,-0.7
1743542293.590073,-0.419,-0.852,-0.313,0.84,-2.66,-0.63
1743542293.850418,-0.419,-0.853,-0.315,0.91,-2.59,-0.7
1743542293.8704178,-0.416,-0.854,-0.316,0.98,-2.52,-0.77
1743542293.8904178,-0.418,-0.854,-0.312,0.98,-2.59,-0.77
1743542294.14997,-0.416,-0.854,-0.314,0.98,-2.59,-0.63
1743542294.16997,-0.418,-0.853,-0.312,0.98,-2.59,-0.84
1743542294.18997,-0.416,-0.854,-0.313,1.05,-2.59,-0.7
1743542294.4529653,-0.417,-0.854,-0.314,0.91,-2.52,-0.7
1743542294.4729652,-0.417,-0.852,-0.314,0.98,-2.66,-0.63
1743542294.4929652,-0.418,-0.851,-0.316,0.98,-2.66,-0.56
1743542294.74962,-0.42,-0.851,-0.314,0.98,-2.52,-0.63
1743542294.76962,-0.418,-0.854,-0.317,0.98,-2.59,-0.77
1743542294.78962,-0.418,-0.854,-0.312,0.91,-2.52,-0.7
1743542295.050435,-0.418,-0.853,-0.315,1.05,-2.59,-0.7
1743542295.070435,-0.417,-0.854,-0.315,0.91,-2.52,-0.7
1743542295.090435,-0.416,-0.853,-0.313,1.05,-2.52,-0.63
1743542295.352663,-0.417,-0.855,-0.315,0.98,-2.66,-0.7
1743542295.372663,-0.419,-0.852,-0.316,0.98,-2.59,-0.7
1743542295.392663,-0.418,-0.853,-0.311,0.91,-2.59,-0.7
1743542295.634882,-0.418,-0.854,-0.313,0.98,-2.59,-0.56
1743542295.654882,-0.418,-0.852,-0.312,0.91,-2.52,-0.63
1743542295.674882,-0.418,-0.852,-0.316,1.05,-2.59,-0.7
1743542295.950183,-0.418,-0.854,-0.313,0.91,-2.45,-0.63
1743542295.970183,-0.419,-0.851,-0.314,0.98,-2.59,-0.56
1743542295.9901829,-0.418,-0.856,-0.317,0.98,-2.59,-0.7
1743542296.251105,-0.414,-0.851,-0.317,0.98,-2.52,-0.77
1743542296.271105,-0.417,-0.852,-0.315,1.05,-2.66,-0.63
1743542296.291105,-0.417,-0.854,-0.316,0.91,-2.59,-0.84
1743542296.5503812,-0.415,-0.853,-0.313,0.91,-2.66,-0.7
1743542296.5703812,-0.416,-0.854,-0.312,0.98,-2.59,-0.77
1743542296.5903811,-0.417,-0.854,-0.314,0.98,-2.52,-0.56
1743542296.850898,-0.42,-0.853,-0.312,1.05,-2.45,-0.84
1743542296.870898,-0.42,-0.854,-0.317,0.84,-2.59,-0.63
1743542296.890898,-0.419,-0.853,-0.316,0.98,-2.45,-0.7
1743542297.1521962,-0.417,-0.854,-0.313,0.91,-2.52,-0.77
1743542297.172196,-0.418,-0.855,-0.316,0.98,-2.59,-0.77
1743542297.192196,-0.419,-0.852,-0.313,0.98,-2.59,-0.7
1743542297.450544,-0.417,-0.853,-0.313,0.84,-2.59,-0.63
1743542297.470544,-0.415,-0.851,-0.317,0.98,-2.66,-0.7
1743542297.490544,-0.417,-0.854,-0.316,0.98,-2.52,-0.77
1743542297.7349122,-0.419,-0.853,-0.313,0.91,-2.52,-0.77
1743542297.754912,-0.416,-0.852,-0.312,0.91,-2.59,-0.77
1743542297.774912,-0.419,-0.852,-0.315,0.91,-2.52,-0.63
1743542298.0506408,-0.416,-0.852,-0.314,0.98,-2.59,-0.7
1743542298.0706408,-0.416,-0.853,-0.315,0.98,-2.59,-0.77
1743542298.0906408,-0.418,-0.853,-0.315,0.98,-2.52,-0.63
1743542298.35,-0.417,-0.853,-0.317,0.91,-2.52,-0.7
1743542298.37,-0.418,-0.854,-0.314,1.05,-2.59,-0.63
1743542298.39,-0.418,-0.852,-0.315,0.91,-2.52,-0.7
1743542298.650319,-0.417,-0.853,-0.314,0.91,-2.59,-0.56
1743542298.670319,-0.417,-0.854,-0.315,0.91,-2.52,-0.63
1743542298.690319,-0.416,-0.854,-0.313,0.98,-2.59,-0.7
1743542298.950407,-0.416,-0.854,-0.314,0.91,-2.59,-0.63
1743542298.970407,-0.416,-0.853,-0.314,1.05,-2.59,-0.77
1743542298.990407,-0.418,-0.854,-0.315,0.91,-2.52,-0.7
1743542299.264408,-0.416,-0.853,-0.314,0.98,-2.52,-0.63
1743542299.284408,-0.417,-0.854,-0.313,0.91,-2.59,-0.56
1743542299.304408,-0.418,-0.852,-0.314,0.98,-2.59,-0.77
1743542299.5352,-0.415,-0.853,-0.314,0.98,-2.59,-0.7
1743542299.5552,-0.417,-0.854,-0.313,0.91,-2.59,-0.77
1743542299.5752,-0.417,-0.854,-0.314,0.91,-2.66,-0.7
1743542299.851628,-0.418,-0.853,-0.314,0.91,-2.59,-0.7
1743542299.871628,-0.416,-0.852,-0.313,0.84,-2.59,-0.7
1743542299.891628,-0.417,-0.853,-0.315,1.05,-2.52,-0.7
1743542300.149693,-0.417,-0.853,-0.312,0.98,-2.66,-0.7
1743542300.169693,-0.417,-0.853,-0.315,1.05,-2.52,-0.84
1743542300.189693,-0.417,-0.854,-0.314,1.05,-2.59,-0.7
1743542300.48052,-0.419,-0.854,-0.313,0.98,-2.59,-0.63
1743542300.50052,-0.417,-0.854,-0.313,0.98,-2.52,-0.77
1743542300.52052,-0.417,-0.853,-0.314,0.91,-2.45,-0.7
1743542300.766111,-0.417,-0.854,-0.314,0.91,-2.52,-0.63
1743542300.7861109,-0.418,-0.854,-0.314,0.91,-2.59,-0.7
1743542300.8061109,-0.419,-0.853,-0.314,0.91,-2.59,-0.63
1743542301.065543,-0.417,-0.853,-0.313,0.98,-2.59,-0.7
1743542301.085543,-0.418,-0.853,-0.315,1.05,-2.59,-0.7
1743542301.105543,-0.417,-0.853,-0.315,0.98,-2.59,-0.77
1743542301.380474,-0.417,-0.854,-0.313,0.98,-2.59,-0.7
1743542301.400474,-0.417,-0.854,-0.315,0.98,-2.52,-0.63
1743542301.420474,-0.419,-0.854,-0.312,0.98,-2.45,-0.7
1743542301.665656,-0.416,-0.854,-0.315,1.12,-2.52,-0.56
1743542301.685656,-0.416,-0.853,-0.316,0.98,-2.52,-0.7
1743542301.705656,-0.419,-0.856,-0.317,0.98,-2.52,-0.84
1743542301.978993,-0.416,-0.854,-0.315,0.84,-2.59,-0.7
1743542301.998993,-0.416,-0.854,-0.315,0.98,-2.52,-0.7
1743542302.018993,-0.418,-0.854,-0.314,0.98,-2.52,-0.7
1743542302.295153,-0.415,-0.853,-0.313,0.84,-2.52,-0.63
1743542302.315153,-0.415,-0.854,-0.317,0.91,-2.66,-0.63
1743542302.3351529,-0.419,-0.854,-0.312,0.91,-2.59,-0.7
1743542302.5794902,-0.418,-0.852,-0.315,0.98,-2.66,-0.77
1743542302.5994902,-0.418,-0.854,-0.313,0.91,-2.59,-0.63
1743542302.61949,-0.418,-0.854,-0.314,0.91,-2.59,-0.63
1743542302.8652852,-0.417,-0.852,-0.316,0.98,-2.59,-0.77
1743542302.8852851,-0.418,-0.853,-0.315,0.91,-2.52,-0.63
1743542302.9052851,-0.418,-0.854,-0.316,0.98,-2.52,-0.7
1743542303.1803572,-0.419,-0.853,-0.314,0.98,-2.52,-0.7
1743542303.2003572,-0.418,-0.854,-0.313,0.98,-2.52,-0.7
1743542303.2203572,-0.416,-0.853,-0.314,0.98,-2.59,-0.7
1743542303.4803631,-0.418,-0.853,-0.314,1.05,-2.45,-0.77
1743542303.500363,-0.418,-0.854,-0.315,1.05,-2.52,-0.63
1743542303.520363,-0.417,-0.852,-0.315,0.91,-2.59,-0.63
1743542303.735203,-0.416,-0.854,-0.315,1.05,-2.66,-0.63
1743542303.755203,-0.419,-0.854,-0.312,0.91,-2.59,-0.7
1743542303.775203,-0.418,-0.854,-0.314,0.91,-2.59,-0.63
1743542304.036204,-0.416,-0.852,-0.314,0.98,-2.52,-0.63
1743542304.056204,-0.419,-0.852,-0.314,0.98,-2.59,-0.7
1743542304.076204,-0.416,-0.854,-0.314,1.05,-2.73,-0.7
1743542304.33536,-0.417,-0.853,-0.315,0.91,-2.52,-0.56
1743542304.35536,-0.418,-0.853,-0.314,1.05,-2.59,-0.7
1743542304.37536,-0.417,-0.853,-0.315,0.98,-2.45,-0.77
1743542304.649382,-0.417,-0.853,-0.313,0.98,-2.66,-0.7
1743542304.669382,-0.417,-0.854,-0.314,0.98,-2.52,-0.63
1743542304.6893818,-0.416,-0.853,-0.314,1.05,-2.45,-0.77
1743542304.9508371,-0.418,-0.854,-0.315,0.91,-2.52,-0.56
1743542304.970837,-0.417,-0.854,-0.315,1.05,-2.66,-0.7
1743542304.990837,-0.418,-0.852,-0.314,0.98,-2.59,-0.7
1743542305.2366831,-0.416,-0.852,-0.314,0.91,-2.66,-0.7
1743542305.256683,-0.412,-0.855,-0.316,1.05,-2.52,-0.7
1743542305.276683,-0.417,-0.853,-0.315,0.98,-2.52,-0.7
1743542305.5354502,-0.417,-0.854,-0.315,0.98,-2.66,-0.63
1743542305.5554502,-0.417,-0.855,-0.315,0.98,-2.66,-0.77
1743542305.5754502,-0.418,-0.852,-0.315,1.05,-2.45,-0.63
1743542305.835488,-0.417,-0.854,-0.314,1.05,-2.52,-0.56
1743542305.855488,-0.417,-0.853,-0.313,1.05,-2.52,-0.7
1743542305.875488,-0.42,-0.853,-0.316,1.05,-2.59,-0.63
1743542306.164043,-0.42,-0.854,-0.315,1.05,-2.66,-0.49
1743542306.184043,-0.417,-0.854,-0.313,0.91,-2.52,-0.56
1743542306.204043,-0.417,-0.855,-0.315,1.05,-2.59,-0.63
1743542306.4355032,-0.416,-0.852,-0.318,0.91,-2.52,-0.7
1743542306.4555032,-0.417,-0.854,-0.313,0.91,-2.59,-0.56
1743542306.4755032,-0.417,-0.853,-0.316,0.98,-2.59,-0.7
1743542306.750575,-0.418,-0.852,-0.315,0.98,-2.59,-0.7
1743542306.770575,-0.417,-0.853,-0.315,0.98,-2.59,-0.63
1743542306.790575,-0.418,-0.854,-0.313,1.12,-2.66,-0.7
1743542307.0358212,-0.417,-0.852,-0.314,0.98,-2.52,-0.56
1743542307.0558212,-0.416,-0.856,-0.315,0.91,-2.52,-0.7
1743542307.0758212,-0.415,-0.853,-0.313,0.91,-2.52,-0.56
1743542307.336326,-0.419,-0.854,-0.316,0.98,-2.59,-0.77
1743542307.356326,-0.418,-0.853,-0.316,0.91,-2.59,-0.7
1743542307.3763258,-0.415,-0.855,-0.318,0.91,-2.52,-0.63
1743542307.6358552,-0.416,-0.854,-0.314,0.91,-2.52,-0.77
1743542307.6558552,-0.417,-0.854,-0.314,1.05,-2.59,-0.63
1743542307.6758552,-0.416,-0.853,-0.313,1.05,-2.52,-0.7
1743542307.9499788,-0.419,-0.854,-0.314,0.91,-2.59,-0.77
1743542307.9699788,-0.416,-0.854,-0.314,0.91,-2.52,-0.7
1743542307.9899788,-0.415,-0.852,-0.315,0.84,-2.59,-0.7
1743542308.250672,-0.419,-0.854,-0.314,1.05,-2.59,-0.63
1743542308.270672,-0.415,-0.854,-0.317,0.98,-2.59,-0.63
1743542308.290672,-0.417,-0.853,-0.314,0.98,-2.52,-0.63
1743542308.5350778,-0.416,-0.852,-0.314,0.91,-2.52,-0.7
1743542308.5550778,-0.418,-0.853,-0.312,0.98,-2.59,-0.7
1743542308.5750778,-0.417,-0.854,-0.316,0.91,-2.59,-0.77
1743542308.836288,-0.418,-0.852,-0.313,0.91,-2.52,-0.77
1743542308.856288,-0.416,-0.855,-0.314,0.98,-2.59,-0.56
1743542308.876288,-0.416,-0.854,-0.316,0.98,-2.59,-0.77
1743542309.13553,-0.417,-0.854,-0.313,0.98,-2.66,-0.7
1743542309.15553,-0.419,-0.851,-0.316,0.91,-2.52,-0.63
1743542309.17553,-0.417,-0.852,-0.316,0.07,-2.59,-0.49
1743542309.435942,-0.417,-0.853,-0.318,1.19,-2.52,-0.7
1743542309.455942,-0.417,-0.851,-0.317,0.77,-2.66,-0.84
1743542309.475942,-0.417,-0.855,-0.314,1.05,-2.45,-0.56
1743542309.7507908,-0.416,-0.855,-0.314,1.12,-2.52,-0.77
1743542309.7707908,-0.414,-0.851,-0.313,0.98,-2.38,-0.77
1743542309.7907908,-0.414,-0.855,-0.316,0.77,-2.52,-0.7
1743542310.036535,-0.413,-0.855,-0.316,1.19,-2.52,-0.63
1743542310.056535,-0.415,-0.854,-0.318,1.05,-2.59,-0.77
1743542310.076535,-0.419,-0.856,-0.315,1.05,-2.66,-0.77
1743542310.3368058,-0.416,-0.856,-0.312,0.77,-2.59,-0.7
1743542310.3568058,-0.416,-0.854,-0.314,0.98,-2.59,-0.56
1743542310.3768058,-0.416,-0.854,-0.313,1.05,-2.52,-0.63
1743542310.651369,-0.417,-0.852,-0.312,0.98,-2.66,-0.63
1743542310.671369,-0.419,-0.853,-0.311,0.91,-2.52,-0.7
1743542310.691369,-0.416,-0.854,-0.318,1.89,-2.45,-0.77
1743542310.935648,-0.416,-0.851,-0.312,1.19,-2.45,-0.7
1743542310.955648,-0.418,-0.853,-0.321,0.98,-2.59,-0.7
1743542310.975648,-0.418,-0.853,-0.315,1.05,-2.59,-0.77
1743542311.236263,-0.419,-0.854,-0.316,1.12,-2.52,-0.56
1743542311.256263,-0.42,-0.85,-0.314,0.98,-2.52,-0.7
1743542311.276263,-0.419,-0.856,-0.313,0.98,-2.52,-0.7
1743542311.5663362,-0.418,-0.852,-0.317,0.84,-2.66,-0.7
1743542311.586336,-0.415,-0.852,-0.315,1.05,-2.59,-0.7
1743542311.606336,-0.419,-0.855,-0.314,1.12,-2.52,-0.63
1743542311.851314,-0.417,-0.854,-0.317,1.26,-2.59,-0.77
1743542311.871314,-0.416,-0.854,-0.315,0.98,-2.59,-0.63
1743542311.891314,-0.418,-0.854,-0.313,0.98,-2.52,-0.7
1743542312.13607,-0.418,-0.854,-0.31,0.84,-2.52,-0.77
1743542312.15607,-0.414,-0.854,-0.312,0.98,-2.59,-0.7
1743542312.17607,-0.417,-0.854,-0.312,0.91,-2.52,-0.63
1743542312.436251,-0.415,-0.854,-0.317,0.98,-2.59,-0.56
1743542312.456251,-0.416,-0.852,-0.315,0.91,-2.45,-0.7
1743542312.476251,-0.414,-0.853,-0.315,0.98,-2.52,-0.77
1743542312.751332,-0.416,-0.855,-0.315,0.98,-2.52,-0.63
1743542312.771332,-0.417,-0.852,-0.315,0.7,-2.59,-0.63
1743542312.791332,-0.417,-0.853,-0.317,0.77,-2.66,-0.7
1743542313.035945,-0.419,-0.854,-0.316,1.05,-2.45,-0.63
1743542313.055945,-0.418,-0.854,-0.314,0.91,-2.59,-0.7
1743542313.075945,-0.417,-0.854,-0.316,0.98,-2.59,-0.7
1743542313.337909,-0.417,-0.853,-0.313,0.91,-2.52,-0.77
1743542313.357909,-0.418,-0.853,-0.314,0.98,-2.45,-0.7
1743542313.377909,-0.414,-0.853,-0.313,0.98,-2.52,-0.7
1743542313.6368809,-0.417,-0.854,-0.315,0.84,-2.59,-0.7
1743542313.6568809,-0.417,-0.851,-0.316,0.91,-2.66,-0.56
1743542313.6768808,-0.418,-0.854,-0.313,0.98,-2.52,-0.77
1743542313.9373,-0.418,-0.852,-0.314,1.05,-2.59,-0.63
1743542313.9573,-0.417,-0.854,-0.31,0.91,-2.59,-0.63
1743542313.9773,-0.417,-0.853,-0.315,0.91,-2.52,-0.7
1743542314.236962,-0.417,-0.852,-0.314,1.05,-2.52,-0.7
1743542314.256962,-0.418,-0.85,-0.316,0.98,-2.59,-0.77
1743542314.276962,-0.419,-0.853,-0.316,0.84,-2.59,-0.63
1743542314.5364082,-0.419,-0.853,-0.314,0.91,-2.59,-0.7
1743542314.5564082,-0.418,-0.851,-0.315,0.91,-2.59,-0.63
1743542314.576408,-0.417,-0.853,-0.315,0.91,-2.52,-0.77
1743542314.849782,-0.417,-0.853,-0.312,0.91,-2.66,-0.77
1743542314.869782,-0.417,-0.853,-0.313,1.05,-2.66,-0.7
1743542314.889782,-0.417,-0.853,-0.315,1.12,-2.52,-0.63
1743542315.152445,-0.418,-0.854,-0.315,0.98,-2.59,-0.56
1743542315.172445,-0.417,-0.853,-0.314,1.05,-2.66,-0.7
1743542315.192445,-0.416,-0.85,-0.314,0.91,-2.59,-0.7
1743542315.451544,-0.415,-0.852,-0.314,0.91,-2.52,-0.63
1743542315.471544,-0.416,-0.853,-0.316,0.98,-2.59,-0.77
1743542315.491544,-0.417,-0.854,-0.315,0.98,-2.66,-0.7
1743542315.735868,-0.417,-0.853,-0.315,0.98,-2.52,-0.56
1743542315.755868,-0.417,-0.853,-0.313,0.98,-2.59,-0.7
1743542315.775868,-0.416,-0.852,-0.311,0.98,-2.59,-0.77
1743542316.051566,-0.417,-0.854,-0.315,0.91,-2.59,-0.77
1743542316.071566,-0.416,-0.856,-0.315,1.12,-2.59,-0.56
1743542316.091566,-0.417,-0.851,-0.316,0.98,-2.52,-0.77
1743542316.365061,-0.416,-0.853,-0.314,0.98,-2.59,-0.7
1743542316.385061,-0.419,-0.854,-0.315,0.98,-2.45,-0.7
1743542316.405061,-0.415,-0.855,-0.315,1.05,-2.59,-0.7
1743542316.651689,-0.416,-0.854,-0.313,0.84,-2.66,-0.7
1743542316.671689,-0.418,-0.852,-0.313,0.91,-2.59,-0.63
1743542316.691689,-0.418,-0.854,-0.316,0.91,-2.59,-0.7
1743542316.9517431,-0.416,-0.853,-0.314,0.91,-2.59,-0.63
1743542316.971743,-0.418,-0.853,-0.316,0.91,-2.52,-0.7
1743542316.991743,-0.417,-0.853,-0.316,1.26,-2.59,-0.63
1743542317.251202,-0.416,-0.852,-0.314,1.05,-2.59,-0.7
1743542317.271202,-0.417,-0.853,-0.315,0.91,-2.59,-0.63
1743542317.291202,-0.419,-0.855,-0.313,0.91,-2.52,-0.77
1743542317.553602,-0.417,-0.854,-0.317,0.91,-2.45,-0.7
1743542317.573602,-0.416,-0.856,-0.314,0.91,-2.59,-0.7
1743542317.593602,-0.417,-0.856,-0.313,0.91,-2.45,-0.7
1743542317.853502,-0.417,-0.854,-0.315,0.91,-2.52,-0.7
1743542317.873502,-0.414,-0.852,-0.314,1.05,-2.52,-0.7
1743542317.893502,-0.417,-0.853,-0.315,0.91,-2.59,-0.63
1743542318.15062,-0.415,-0.851,-0.315,1.05,-2.52,-0.7
1743542318.17062,-0.415,-0.853,-0.313,1.12,-2.66,-0.7
1743542318.19062,-0.418,-0.854,-0.312,1.26,-2.45,-0.77
1743542318.451183,-0.417,-0.854,-0.313,0.91,-2.52,-0.63
1743542318.471183,-0.417,-0.855,-0.315,0.98,-2.52,-0.7
1743542318.491183,-0.419,-0.854,-0.315,0.98,-2.59,-0.7
1743542318.764927,-0.417,-0.852,-0.315,0.98,-2.52,-0.7
1743542318.784927,-0.417,-0.854,-0.315,0.84,-2.59,-0.63
1743542318.8049269,-0.417,-0.854,-0.316,0.98,-2.59,-0.7
1743542319.0512471,-0.419,-0.853,-0.316,0.98,-2.45,-0.7
1743542319.071247,-0.417,-0.854,-0.317,0.84,-2.45,-0.63
1743542319.091247,-0.417,-0.854,-0.314,1.05,-2.59,-0.63
1743542319.351896,-0.416,-0.847,-0.31,0.84,-2.8,-0.56
1743542319.371896,-0.417,-0.856,-0.316,1.05,-2.59,-0.7
1743542319.391896,-0.418,-0.854,-0.313,0.77,-2.52,-0.63
1743542319.651065,-0.417,-0.854,-0.314,0.91,-2.59,-0.63
1743542319.671065,-0.416,-0.854,-0.316,0.91,-2.59,-0.63
1743542319.691065,-0.417,-0.852,-0.315,0.98,-2.59,-0.7
1743542319.9508202,-0.419,-0.852,-0.315,0.91,-2.59,-0.7
1743542319.9708202,-0.416,-0.853,-0.315,1.12,-2.45,-0.7
1743542319.9908202,-0.416,-0.853,-0.313,1.12,-2.59,-0.7
1743542320.250942,-0.419,-0.856,-0.315,1.19,-2.66,-0.77
1743542320.270942,-0.414,-0.854,-0.313,1.05,-2.59,-0.77
1743542320.290942,-0.416,-0.854,-0.315,0.91,-2.52,-0.7
1743542320.551889,-0.414,-0.855,-0.313,0.91,-2.52,-0.7
1743542320.571889,-0.417,-0.854,-0.312,1.05,-2.59,-0.7
1743542320.591889,-0.417,-0.854,-0.314,0.84,-2.59,-0.7
1743542320.8516638,-0.415,-0.854,-0.314,0.84,-2.59,-0.63
1743542320.8716638,-0.419,-0.852,-0.312,1.19,-2.8,-0.56
1743542320.8916638,-0.416,-0.854,-0.312,1.05,-2.59,-0.7
1743542321.135744,-0.416,-0.851,-0.312,0.91,-2.52,-0.63
1743542321.155744,-0.418,-0.854,-0.316,0.98,-2.52,-0.7
1743542321.175744,-0.417,-0.853,-0.314,0.77,-2.59,-0.63
1743542321.4803562,-0.418,-0.854,-0.313,0.84,-2.66,-0.77
1743542321.5003562,-0.417,-0.855,-0.317,0.98,-2.66,-0.77
1743542321.5203562,-0.415,-0.852,-0.316,0.84,-2.59,-0.7
1743542321.751611,-0.416,-0.854,-0.315,1.12,-2.52,-0.77
1743542321.771611,-0.416,-0.853,-0.315,0.98,-2.59,-0.63
1743542321.791611,-0.418,-0.855,-0.317,0.98,-2.59,-0.63
1743542322.0551372,-0.415,-0.852,-0.315,1.05,-2.52,-0.7
1743542322.0751371,-0.418,-0.855,-0.316,0.84,-2.59,-0.63
1743542322.0951371,-0.417,-0.854,-0.315,1.05,-2.59,-0.7
1743542322.355475,-0.417,-0.853,-0.313,0.91,-2.52,-0.63
1743542322.375475,-0.418,-0.853,-0.312,0.98,-2.59,-0.63
1743542322.395475,-0.416,-0.851,-0.312,0.98,-2.52,-0.56
1743542322.652728,-0.418,-0.854,-0.312,0.91,-2.66,-0.56
1743542322.672728,-0.417,-0.853,-0.313,0.98,-2.66,-0.84
1743542322.692728,-0.419,-0.856,-0.315,1.12,-2.52,-0.7
1743542322.951873,-0.417,-0.853,-0.316,1.05,-2.52,-0.63
1743542322.971873,-0.417,-0.854,-0.314,1.05,-2.52,-0.7
1743542322.991873,-0.417,-0.855,-0.313,0.98,-2.59,-0.77
1743542323.253338,-0.419,-0.854,-0.314,0.98,-2.45,-0.7
1743542323.273338,-0.417,-0.856,-0.315,0.98,-2.59,-0.63
1743542323.293338,-0.416,-0.853,-0.314,0.91,-2.52,-0.63
1743542323.55089,-0.418,-0.853,-0.315,0.91,-2.66,-0.7
1743542323.57089,-0.419,-0.854,-0.314,0.84,-2.52,-0.56
1743542323.59089,-0.416,-0.854,-0.313,1.05,-2.59,-0.63
1743542323.849938,-0.416,-0.855,-0.314,0.77,-2.45,-0.63
1743542323.869938,-0.417,-0.853,-0.315,0.91,-2.59,-0.7
1743542323.889938,-0.415,-0.853,-0.314,0.91,-2.59,-0.77
1743542324.150366,-0.417,-0.854,-0.315,0.98,-2.52,-0.63
1743542324.170366,-0.416,-0.854,-0.315,0.98,-2.52,-0.63
1743542324.190366,-0.418,-0.854,-0.314,0.98,-2.59,-0.77
1743542324.451292,-0.417,-0.852,-0.311,1.05,-2.59,-0.7
1743542324.471292,-0.416,-0.854,-0.313,0.98,-2.52,-0.77
1743542324.491292,-0.417,-0.853,-0.313,0.98,-2.52,-0.7
1743542324.751495,-0.417,-0.854,-0.314,1.12,-2.52,-0.63
1743542324.7714949,-0.419,-0.853,-0.315,1.05,-2.59,-0.63
1743542324.7914948,-0.417,-0.853,-0.314,1.05,-2.45,-0.7
1743542325.0528362,-0.418,-0.853,-0.314,0.84,-2.52,-0.7
1743542325.0728362,-0.416,-0.854,-0.316,0.91,-2.52,-0.7
1743542325.092836,-0.418,-0.851,-0.317,0.84,-2.59,-0.7
1743542325.3504262,-0.419,-0.854,-0.315,0.91,-2.52,-0.7
1743542325.3704262,-0.419,-0.853,-0.309,0.91,-2.52,-0.63
1743542325.3904262,-0.418,-0.85,-0.311,0.7,-2.45,-0.77
1743542325.650835,-0.419,-0.853,-0.314,0.91,-2.52,-0.7
1743542325.670835,-0.417,-0.853,-0.316,1.05,-2.59,-0.63
1743542325.690835,-0.418,-0.854,-0.311,0.91,-2.52,-0.7
1743542325.968343,-0.416,-0.851,-0.316,0.84,-2.52,-0.77
1743542325.988343,-0.42,-0.854,-0.316,0.91,-2.59,-0.7
1743542326.008343,-0.415,-0.852,-0.315,1.12,-2.59,-0.7
1743542326.236408,-0.416,-0.853,-0.314,1.26,-2.59,-0.7
1743542326.256408,-0.418,-0.855,-0.315,0.56,-2.73,-0.56
1743542326.276408,-0.417,-0.854,-0.316,0.84,-2.52,-0.7
1743542326.553107,-0.417,-0.854,-0.314,1.05,-2.59,-0.7
1743542326.573107,-0.417,-0.853,-0.313,0.84,-2.59,-0.77
1743542326.593107,-0.417,-0.854,-0.314,1.05,-2.52,-0.77
1743542326.853256,-0.417,-0.851,-0.315,0.98,-2.59,-0.77
1743542326.873256,-0.418,-0.853,-0.314,1.05,-2.52,-0.77
1743542326.893256,-0.416,-0.854,-0.314,0.98,-2.52,-0.7
1743542327.135743,-0.418,-0.851,-0.312,0.98,-2.59,-0.63
1743542327.155743,-0.42,-0.854,-0.315,0.98,-2.52,-0.7
1743542327.1757429,-0.419,-0.853,-0.313,0.98,-2.59,-0.63
1743542327.4514482,-0.418,-0.852,-0.315,0.98,-2.59,-0.63
1743542327.4714482,-0.417,-0.856,-0.314,0.91,-2.59,-0.7
1743542327.4914482,-0.418,-0.854,-0.314,0.91,-2.52,-0.63
1743542327.7372942,-0.416,-0.85,-0.314,0.63,-2.52,-0.77
1743542327.7572942,-0.418,-0.854,-0.314,0.7,-2.52,-0.7
1743542327.7772942,-0.418,-0.854,-0.316,0.98,-2.52,-0.77
1743542328.0356312,-0.417,-0.854,-0.315,0.91,-2.52,-0.7
1743542328.0556312,-0.417,-0.855,-0.315,0.98,-2.66,-0.77
1743542328.0756311,-0.416,-0.854,-0.315,0.91,-2.52,-0.7
1743542328.3509462,-0.418,-0.854,-0.313,1.12,-2.59,-0.63
1743542328.3709462,-0.419,-0.854,-0.314,0.91,-2.59,-0.77
1743542328.390946,-0.417,-0.853,-0.313,1.05,-2.52,-0.84
1743542328.653666,-0.416,-0.854,-0.314,0.98,-2.52,-0.63
1743542328.673666,-0.417,-0.854,-0.315,0.98,-2.73,-0.7
1743542328.693666,-0.418,-0.852,-0.316,1.05,-2.66,-0.7
1743542328.954004,-0.419,-0.852,-0.313,0.77,-2.59,-0.84
1743542328.974004,-0.416,-0.853,-0.314,1.05,-2.59,-0.7
1743542328.994004,-0.419,-0.855,-0.315,0.98,-2.59,-0.7
1743542329.2513149,-0.417,-0.852,-0.313,1.05,-2.59,-0.7
1743542329.2713149,-0.414,-0.854,-0.312,0.91,-2.59,-0.7
1743542329.2913148,-0.416,-0.854,-0.314,0.98,-2.52,-0.63
1743542329.5529711,-0.419,-0.854,-0.315,0.98,-2.59,-0.77
1743542329.572971,-0.415,-0.853,-0.312,0.98,-2.66,-0.7
1743542329.592971,-0.416,-0.853,-0.313,0.98,-2.52,-0.63
1743542329.8516102,-0.416,-0.854,-0.313,0.98,-2.59,-0.7
1743542329.8716102,-0.417,-0.852,-0.315,0.98,-2.59,-0.63
1743542329.89161,-0.419,-0.852,-0.314,0.91,-2.59,-0.77
1743542330.1519282,-0.416,-0.854,-0.315,1.05,-2.59,-0.7
1743542330.1719282,-0.415,-0.853,-0.316,0.63,-2.59,-0.63
1743542330.191928,-0.415,-0.856,-0.312,0.84,-2.59,-0.63
1743542330.48241,-0.417,-0.854,-0.315,1.05,-2.45,-0.56
1743542330.50241,-0.416,-0.852,-0.315,0.98,-2.59,-0.7
1743542330.52241,-0.415,-0.853,-0.317,0.7,-2.66,-0.63
1743542330.766432,-0.415,-0.853,-0.314,0.91,-2.52,-0.7
1743542330.786432,-0.418,-0.854,-0.315,0.91,-2.52,-0.7
1743542330.806432,-0.419,-0.855,-0.315,0.98,-2.52,-0.77
1743542331.065812,-0.418,-0.853,-0.312,0.91,-2.66,-0.63
1743542331.085812,-0.417,-0.851,-0.316,0.98,-2.59,-0.84
1743542331.105812,-0.419,-0.855,-0.308,1.05,-2.66,-0.77
1743542331.3654752,-0.417,-0.854,-0.312,1.05,-2.52,-0.7
1743542331.3854752,-0.416,-0.852,-0.314,0.91,-2.59,-0.63
1743542331.4054751,-0.42,-0.854,-0.311,0.91,-2.52,-0.63
1743542331.6663098,-0.418,-0.854,-0.313,1.05,-2.52,-0.7
1743542331.6863098,-0.418,-0.853,-0.316,1.05,-2.59,-0.77
1743542331.7063098,-0.417,-0.853,-0.315,1.12,-2.59,-0.77
1743542331.966318,-0.42,-0.853,-0.313,0.98,-2.52,-0.7
1743542331.986318,-0.419,-0.853,-0.313,0.98,-2.59,-0.63
1743542332.006318,-0.417,-0.852,-0.313,1.05,-2.59,-0.7
1743542332.266349,-0.417,-0.854,-0.316,0.98,-2.52,-0.77
1743542332.286349,-0.418,-0.854,-0.316,0.84,-2.45,-0.63
1743542332.306349,-0.415,-0.851,-0.317,0.98,-2.52,-0.56
1743542332.56588,-0.415,-0.854,-0.313,0.98,-2.52,-0.63
1743542332.58588,-0.416,-0.854,-0.316,0.98,-2.52,-0.7
1743542332.60588,-0.418,-0.852,-0.316,0.84,-2.59,-0.7
1743542332.8801029,-0.419,-0.853,-0.317,0.7,-2.8,-0.7
1743542332.9001029,-0.419,-0.853,-0.313,0.98,-2.52,-0.7
1743542332.9201028,-0.417,-0.851,-0.317,0.91,-2.45,-0.7
1743542333.199409,-0.416,-0.853,-0.316,0.91,-2.66,-0.77
1743542333.219409,-0.419,-0.853,-0.314,1.05,-2.59,-0.63
1743542333.239409,-0.417,-0.854,-0.315,0.84,-2.38,-0.7
1743542333.479778,-0.415,-0.854,-0.313,1.26,-2.59,-0.63
1743542333.499778,-0.416,-0.854,-0.316,0.98,-2.59,-0.63
1743542333.519778,-0.415,-0.854,-0.312,1.05,-2.66,-0.56
1743542333.7518,-0.416,-0.854,-0.311,0.91,-2.59,-0.63
1743542333.7718,-0.417,-0.855,-0.312,0.91,-2.52,-0.7
1743542333.7918,-0.417,-0.854,-0.315,0.84,-2.52,-0.7
1743542334.052792,-0.416,-0.854,-0.317,0.98,-2.52,-0.63
1743542334.072792,-0.417,-0.852,-0.314,0.98,-2.45,-0.7
1743542334.092792,-0.419,-0.854,-0.313,1.05,-2.59,-0.56
1743542334.3373609,-0.419,-0.854,-0.315,1.05,-2.52,-0.7
1743542334.3573608,-0.419,-0.85,-0.313,1.12,-2.59,-0.63
1743542334.3773608,-0.419,-0.854,-0.315,1.05,-2.66,-0.7
1743542334.651579,-0.416,-0.852,-0.313,1.05,-2.52,-0.63
1743542334.671579,-0.418,-0.854,-0.313,0.98,-2.59,-0.63
1743542334.6915789,-0.417,-0.853,-0.313,0.98,-2.66,-0.7
1743542334.951443,-0.417,-0.854,-0.313,0.91,-2.45,-0.7
1743542334.971443,-0.416,-0.854,-0.315,0.84,-2.59,-0.63
1743542334.991443,-0.419,-0.853,-0.316,0.91,-2.52,-0.7
1743542335.251223,-0.418,-0.852,-0.316,0.91,-2.59,-0.63
1743542335.271223,-0.417,-0.853,-0.313,0.91,-2.52,-0.63
1743542335.291223,-0.419,-0.853,-0.314,0.98,-2.52,-0.63
1743542335.5949771,-0.419,-0.856,-0.314,0.98,-2.52,-0.7
1743542335.6149771,-0.421,-0.854,-0.314,0.91,-2.52,-0.7
1743542335.634977,-0.419,-0.854,-0.314,0.91,-2.52,-0.63
1743542335.850028,-0.416,-0.855,-0.314,0.98,-2.52,-0.63
1743542335.870028,-0.419,-0.854,-0.316,1.05,-2.59,-0.63
1743542335.890028,-0.417,-0.853,-0.314,1.12,-2.45,-0.7
1743542336.2118332,-0.418,-0.853,-0.316,0.98,-2.59,-0.7
1743542336.2318332,-0.418,-0.852,-0.314,0.91,-2.66,-0.84
1743542336.2518332,-0.419,-0.853,-0.317,0.98,-2.52,-0.63
1743542336.436187,-0.416,-0.855,-0.316,0.84,-2.66,-0.77
1743542336.456187,-0.417,-0.855,-0.314,0.98,-2.59,-0.77
1743542336.476187,-0.421,-0.857,-0.318,0.56,-2.73,-0.63
1743542336.7512982,-0.419,-0.853,-0.316,0.84,-2.52,-0.77
1743542336.7712982,-0.418,-0.852,-0.314,1.05,-2.59,-0.63
1743542336.7912982,-0.417,-0.853,-0.317,0.91,-2.52,-0.63
1743542337.037002,-0.416,-0.854,-0.315,0.77,-2.59,-0.63
1743542337.057002,-0.417,-0.855,-0.315,0.84,-2.73,-0.63
1743542337.077002,-0.417,-0.854,-0.313,0.63,-2.66,-0.7
1743542337.336312,-0.415,-0.853,-0.312,1.05,-2.59,-0.7
1743542337.356312,-0.418,-0.851,-0.311,1.05,-2.52,-0.63
1743542337.376312,-0.418,-0.854,-0.315,0.98,-2.45,-0.7
1743542337.637204,-0.419,-0.856,-0.315,0.91,-2.52,-0.56
1743542337.657204,-0.418,-0.854,-0.314,0.84,-2.52,-0.7
1743542337.677204,-0.419,-0.854,-0.315,0.84,-2.59,-0.63
1743542337.9522471,-0.419,-0.856,-0.313,1.05,-2.52,-0.63
1743542337.9722471,-0.416,-0.852,-0.314,0.63,-2.73,-0.63
1743542337.992247,-0.418,-0.853,-0.315,0.63,-2.66,-0.63
1743542338.2519,-0.419,-0.851,-0.313,0.56,-2.59,-0.49
1743542338.2719,-0.421,-0.852,-0.314,1.33,-2.31,-0.77
1743542338.2919,-0.415,-0.854,-0.314,1.05,-2.52,-0.63
1743542338.538691,-0.418,-0.855,-0.314,0.91,-2.59,-0.7
1743542338.558691,-0.416,-0.853,-0.317,1.05,-2.59,-0.77
1743542338.578691,-0.416,-0.854,-0.315,0.91,-2.52,-0.77
1743542338.8514209,-0.416,-0.856,-0.312,1.05,-2.52,-0.77
1743542338.8714209,-0.418,-0.856,-0.313,1.19,-2.38,-0.7
1743542338.8914208,-0.414,-0.854,-0.315,1.33,-2.24,-0.56
1743542339.151242,-0.417,-0.855,-0.313,1.05,-2.52,-0.7
1743542339.171242,-0.416,-0.856,-0.313,1.05,-2.59,-0.7
1743542339.191242,-0.418,-0.854,-0.313,0.98,-2.52,-0.77
1743542339.454907,-0.418,-0.853,-0.314,0.98,-2.52,-0.77
1743542339.474907,-0.416,-0.86,-0.328,-0.56,-2.66,-0.77
1743542339.494907,-0.417,-0.854,-0.315,1.05,-2.59,-0.77
1743542339.7374022,-0.416,-0.853,-0.319,1.05,-2.59,-0.7
1743542339.7574022,-0.418,-0.853,-0.316,1.19,-2.52,-0.7
1743542339.7774022,-0.42,-0.853,-0.318,0.91,-2.59,-0.7
1743542340.037076,-0.419,-0.854,-0.313,1.05,-2.66,-0.77
1743542340.057076,-0.417,-0.851,-0.314,1.12,-2.59,-0.63
1743542340.077076,-0.418,-0.853,-0.314,0.98,-2.59,-0.7
1743542340.337196,-0.419,-0.854,-0.314,1.05,-2.59,-0.7
1743542340.357196,-0.416,-0.855,-0.315,0.98,-2.66,-0.63
1743542340.377196,-0.414,-0.854,-0.315,0.91,-2.52,-0.63
1743542340.651791,-0.419,-0.855,-0.314,0.91,-2.52,-0.63
1743542340.671791,-0.418,-0.854,-0.315,0.91,-2.52,-0.7
1743542340.691791,-0.418,-0.853,-0.314,0.98,-2.59,-0.63
1743542340.936455,-0.418,-0.854,-0.313,0.91,-2.52,-0.63
1743542340.956455,-0.42,-0.853,-0.314,1.12,-2.52,-0.84
1743542340.976455,-0.418,-0.853,-0.317,1.05,-2.52,-0.63
1743542341.236664,-0.417,-0.854,-0.316,1.05,-2.59,-0.63
1743542341.256664,-0.42,-0.853,-0.314,0.98,-2.66,-0.77
1743542341.276664,-0.416,-0.854,-0.314,0.91,-2.52,-0.7
1743542341.5366962,-0.416,-0.854,-0.313,0.98,-2.52,-0.56
1743542341.5566962,-0.418,-0.854,-0.315,0.98,-2.59,-0.77
1743542341.5766962,-0.417,-0.85,-0.317,1.12,-2.59,-0.7
1743542341.8371882,-0.418,-0.854,-0.317,0.84,-2.45,-0.63
1743542341.8571882,-0.417,-0.854,-0.312,0.98,-2.52,-0.7
1743542341.8771882,-0.418,-0.854,-0.314,1.05,-2.59,-0.7
1743542342.1650171,-0.418,-0.853,-0.317,0.98,-2.52,-0.7
1743542342.185017,-0.415,-0.854,-0.315,0.98,-2.59,-0.7
1743542342.205017,-0.417,-0.852,-0.317,0.98,-2.45,-0.7
1743542342.452266,-0.417,-0.853,-0.314,0.98,-2.59,-0.7
1743542342.472266,-0.416,-0.854,-0.313,0.98,-2.52,-0.63
1743542342.492266,-0.418,-0.854,-0.315,0.91,-2.52,-0.7
1743542342.737032,-0.415,-0.853,-0.315,0.91,-2.52,-0.7
1743542342.757032,-0.419,-0.853,-0.316,0.98,-2.59,-0.7
1743542342.777032,-0.418,-0.854,-0.316,0.91,-2.59,-0.7
1743542343.0381892,-0.417,-0.853,-0.315,0.98,-2.52,-0.63
1743542343.0581892,-0.417,-0.851,-0.314,0.98,-2.66,-0.7
1743542343.0781891,-0.417,-0.854,-0.316,0.98,-2.59,-0.7
1743542343.35204,-0.417,-0.854,-0.317,0.84,-2.59,-0.7
1743542343.37204,-0.416,-0.854,-0.314,0.91,-2.66,-0.7
1743542343.39204,-0.421,-0.849,-0.314,1.12,-2.66,-0.84
1743542343.6366563,-0.42,-0.85,-0.317,0.98,-2.59,-0.56
1743542343.6566565,-0.42,-0.852,-0.313,1.05,-2.59,-0.77
1743542343.6766562,-0.419,-0.852,-0.314,0.98,-2.66,-0.7
1743542343.939904,-0.417,-0.856,-0.316,1.19,-2.59,-0.77
1743542343.959904,-0.416,-0.853,-0.316,1.05,-2.59,-0.77
1743542343.979904,-0.419,-0.859,-0.312,1.19,-2.87,-0.77
1743542344.251507,-0.416,-0.853,-0.315,0.7,-2.66,-0.77
1743542344.271507,-0.419,-0.855,-0.312,0.56,-2.8,-0.63
1743542344.291507,-0.416,-0.847,-0.311,1.12,-2.24,-0.84
1743542344.554281,-0.418,-0.851,-0.312,0.98,-2.52,-0.7
1743542344.574281,-0.418,-0.854,-0.313,1.05,-2.59,-0.77
1743542344.594281,-0.417,-0.855,-0.313,1.05,-2.59,-0.63
1743542344.865216,-0.415,-0.853,-0.317,1.05,-2.66,-0.63
1743542344.885216,-0.416,-0.855,-0.315,0.98,-2.59,-0.7
1743542344.905216,-0.419,-0.85,-0.311,1.19,-2.38,-0.63
1743542345.153843,-0.418,-0.852,-0.315,0.56,-2.73,-0.56
1743542345.173843,-0.417,-0.854,-0.313,0.84,-2.66,-0.63
1743542345.193843,-0.416,-0.854,-0.314,0.98,-2.45,-0.77
1743542345.4516702,-0.42,-0.854,-0.312,1.05,-2.52,-0.7
1743542345.4716702,-0.419,-0.854,-0.316,0.84,-2.45,-0.63
1743542345.49167,-0.417,-0.852,-0.316,0.98,-2.59,-0.7
1743542345.766156,-0.419,-0.854,-0.314,1.05,-2.59,-0.63
1743542345.786156,-0.418,-0.854,-0.316,0.91,-2.59,-0.63
1743542345.806156,-0.418,-0.853,-0.315,0.98,-2.59,-0.7
1743542346.052153,-0.416,-0.852,-0.317,0.84,-2.59,-0.63
1743542346.072153,-0.418,-0.854,-0.314,0.98,-2.45,-0.7
1743542346.092153,-0.419,-0.857,-0.316,1.26,-2.66,-0.63
1743542346.352389,-0.415,-0.854,-0.314,1.05,-2.52,-0.7
1743542346.372389,-0.417,-0.854,-0.316,0.98,-2.38,-0.63
1743542346.392389,-0.419,-0.855,-0.313,0.98,-2.59,-0.7
1743542346.665334,-0.418,-0.854,-0.313,0.91,-2.59,-0.77
1743542346.685334,-0.418,-0.853,-0.313,0.91,-2.52,-0.77
1743542346.705334,-0.419,-0.854,-0.316,0.98,-2.59,-0.7
1743542346.937354,-0.417,-0.853,-0.313,0.91,-2.59,-0.7
1743542346.957354,-0.419,-0.854,-0.315,0.98,-2.59,-0.63
1743542346.977354,-0.415,-0.853,-0.318,0.98,-2.66,-0.7
1743542347.25161,-0.415,-0.852,-0.312,0.98,-2.66,-0.63
1743542347.27161,-0.416,-0.854,-0.316,0.98,-2.52,-0.77
1743542347.29161,-0.416,-0.854,-0.315,0.91,-2.59,-0.63
1743542347.5546398,-0.418,-0.851,-0.313,0.98,-2.52,-0.7
1743542347.5746398,-0.418,-0.853,-0.314,0.91,-2.52,-0.7
1743542347.5946398,-0.416,-0.854,-0.314,0.98,-2.52,-0.7
1743542347.837895,-0.417,-0.855,-0.314,0.91,-2.66,-0.7
1743542347.857895,-0.415,-0.854,-0.313,0.98,-2.52,-0.63
1743542347.8778949,-0.416,-0.854,-0.313,0.91,-2.59,-0.7
1743542348.151575,-0.419,-0.852,-0.312,0.91,-2.59,-0.77
1743542348.171575,-0.416,-0.854,-0.314,0.91,-2.52,-0.7
1743542348.191575,-0.416,-0.852,-0.314,0.98,-2.59,-0.63
1743542348.438764,-0.417,-0.854,-0.315,0.91,-2.52,-0.7
1743542348.458764,-0.416,-0.853,-0.314,1.05,-2.59,-0.63
1743542348.478764,-0.418,-0.853,-0.316,0.98,-2.59,-0.7
1743542348.736599,-0.416,-0.855,-0.314,0.91,-2.52,-0.77
1743542348.756599,-0.418,-0.853,-0.313,0.84,-2.59,-0.77
1743542348.776599,-0.418,-0.854,-0.313,0.91,-2.52,-0.63
1743542349.037332,-0.415,-0.854,-0.313,0.77,-2.52,-0.63
1743542349.057332,-0.417,-0.852,-0.314,0.91,-2.52,-0.7
1743542349.077332,-0.418,-0.854,-0.318,0.84,-2.59,-0.7
1743542349.339379,-0.417,-0.854,-0.315,1.12,-2.59,-0.7
1743542349.359379,-0.416,-0.854,-0.313,0.84,-2.45,-0.7
1743542349.379379,-0.417,-0.855,-0.315,1.26,-2.66,-0.63
1743542349.637426,-0.419,-0.852,-0.311,0.49,-2.66,-0.7
1743542349.657426,-0.417,-0.853,-0.313,0.98,-2.66,-0.7
1743542349.677426,-0.419,-0.853,-0.313,0.98,-2.52,-0.56
1743542349.9371898,-0.416,-0.854,-0.314,0.98,-2.52,-0.7
1743542349.9571898,-0.416,-0.851,-0.315,1.05,-2.66,-0.63
1743542349.9771898,-0.417,-0.853,-0.315,0.84,-2.45,-0.63
1743542350.253961,-0.416,-0.853,-0.313,0.84,-2.59,-0.77
1743542350.273961,-0.417,-0.853,-0.314,1.05,-2.45,-0.63
1743542350.293961,-0.418,-0.851,-0.314,0.98,-2.52,-0.7
1743542350.537193,-0.417,-0.854,-0.316,0.98,-2.59,-0.7
1743542350.557193,-0.418,-0.852,-0.313,0.84,-2.59,-0.77
1743542350.577193,-0.419,-0.854,-0.313,0.98,-2.59,-0.7
1743542350.837078,-0.417,-0.853,-0.317,1.05,-2.52,-0.77
1743542350.857078,-0.418,-0.852,-0.315,1.05,-2.52,-0.63
1743542350.877078,-0.415,-0.853,-0.313,1.26,-2.59,-0.77
1743542351.153864,-0.417,-0.854,-0.315,1.12,-2.66,-0.63
1743542351.173864,-0.418,-0.853,-0.312,0.91,-2.59,-0.77
1743542351.193864,-0.416,-0.853,-0.318,0.98,-2.52,-0.7
1743542351.437084,-0.415,-0.853,-0.315,0.77,-2.66,-0.7
1743542351.457084,-0.423,-0.841,-0.316,0.91,-2.8,-0.84
1743542351.477084,-0.42,-0.856,-0.315,0.77,-2.66,-0.7
1743542351.7372842,-0.418,-0.852,-0.315,0.77,-2.52,-0.7
1743542351.7572842,-0.424,-0.848,-0.314,-0.84,-3.22,-0.91
1743542351.777284,-0.422,-0.853,-0.316,1.4,-2.45,-0.77
1743542352.03982,-0.419,-0.854,-0.316,1.33,-2.45,-0.7
1743542352.05982,-0.415,-0.852,-0.313,1.33,-2.31,-0.7
1743542352.07982,-0.417,-0.853,-0.317,0.91,-2.52,-0.63
1743542352.337174,-0.416,-0.851,-0.315,0.98,-2.66,-0.77
1743542352.357174,-0.418,-0.852,-0.317,1.12,-2.73,-0.63
1743542352.377174,-0.417,-0.852,-0.315,1.05,-2.66,-0.7
1743542352.652307,-0.418,-0.853,-0.314,0.98,-2.59,-0.63
1743542352.672307,-0.418,-0.852,-0.311,1.12,-2.66,-0.7
1743542352.692307,-0.416,-0.855,-0.313,0.98,-2.52,-0.7
1743542352.952518,-0.418,-0.853,-0.313,0.91,-2.59,-0.7
1743542352.972518,-0.418,-0.852,-0.318,0.77,-2.66,-0.63
1743542352.992518,-0.421,-0.853,-0.316,0.56,-2.66,-0.77
1743542353.2369852,-0.419,-0.852,-0.314,0.84,-2.66,-0.63
1743542353.2569852,-0.418,-0.854,-0.31,0.98,-2.66,-0.7
1743542353.2769852,-0.416,-0.853,-0.315,0.77,-2.66,-0.7
1743542353.55331,-0.417,-0.854,-0.315,0.98,-2.66,-0.7
1743542353.57331,-0.417,-0.854,-0.314,0.98,-2.59,-0.7
1743542353.59331,-0.417,-0.854,-0.311,0.98,-2.59,-0.7
1743542353.838366,-0.416,-0.855,-0.316,0.63,-2.66,-0.63
1743542353.858366,-0.416,-0.855,-0.314,0.98,-2.52,-0.77
1743542353.878366,-0.417,-0.854,-0.314,0.98,-2.52,-0.77
1743542354.1517491,-0.418,-0.854,-0.313,0.98,-2.66,-0.77
1743542354.171749,-0.415,-0.855,-0.314,0.91,-2.59,-0.7
1743542354.191749,-0.417,-0.853,-0.315,0.98,-2.66,-0.63
1743542354.438846,-0.416,-0.854,-0.314,0.98,-2.59,-0.7
1743542354.458846,-0.416,-0.852,-0.315,0.91,-2.59,-0.7
1743542354.4788458,-0.418,-0.854,-0.312,0.91,-2.52,-0.7
1743542354.753793,-0.418,-0.854,-0.314,0.91,-2.59,-0.77
1743542354.773793,-0.415,-0.854,-0.315,1.05,-2.59,-0.7
1743542354.793793,-0.416,-0.852,-0.316,0.98,-2.66,-0.7
1743542355.053043,-0.416,-0.852,-0.315,0.91,-2.66,-0.7
1743542355.0730429,-0.418,-0.854,-0.314,0.98,-2.52,-0.63
1743542355.0930429,-0.416,-0.853,-0.315,0.91,-2.66,-0.7
1743542355.339036,-0.418,-0.853,-0.31,0.98,-2.52,-0.77
1743542355.359036,-0.415,-0.854,-0.316,1.12,-2.59,-0.63
1743542355.379036,-0.418,-0.853,-0.315,0.91,-2.52,-0.63
1743542355.6379652,-0.419,-0.854,-0.314,0.98,-2.52,-0.77
1743542355.6579652,-0.418,-0.852,-0.316,0.98,-2.59,-0.63
1743542355.6779652,-0.416,-0.853,-0.316,0.98,-2.52,-0.7
1743542355.965978,-0.417,-0.853,-0.313,1.12,-2.52,-0.77
1743542355.985978,-0.417,-0.853,-0.314,1.05,-2.52,-0.7
1743542356.005978,-0.417,-0.853,-0.315,0.91,-2.59,-0.7
1743542356.25363,-0.417,-0.854,-0.315,1.05,-2.59,-0.77
1743542356.27363,-0.418,-0.853,-0.317,0.98,-2.59,-0.56
1743542356.29363,-0.417,-0.852,-0.314,0.98,-2.59,-0.7
1743542356.552584,-0.416,-0.852,-0.312,0.91,-2.52,-0.63
1743542356.572584,-0.417,-0.853,-0.314,0.98,-2.59,-0.63
1743542356.592584,-0.417,-0.854,-0.316,0.98,-2.59,-0.7
1743542356.8514938,-0.419,-0.854,-0.314,0.91,-2.59,-0.7
1743542356.8714938,-0.418,-0.853,-0.314,1.05,-2.59,-0.63
1743542356.8914938,-0.417,-0.854,-0.316,0.98,-2.52,-0.7
1743542357.152443,-0.417,-0.852,-0.314,0.91,-2.52,-0.77
1743542357.172443,-0.417,-0.854,-0.314,0.98,-2.59,-0.56
1743542357.192443,-0.416,-0.853,-0.315,0.98,-2.59,-0.63
1743542357.452806,-0.416,-0.853,-0.315,0.98,-2.59,-0.7
1743542357.472806,-0.417,-0.855,-0.316,0.84,-2.52,-0.7
1743542357.492806,-0.421,-0.853,-0.314,1.12,-2.59,-0.7
1743542357.752804,-0.416,-0.853,-0.315,0.98,-2.59,-0.7
1743542357.772804,-0.418,-0.854,-0.316,1.05,-2.66,-0.7
1743542357.792804,-0.416,-0.853,-0.314,0.91,-2.52,-0.63
1743542358.052959,-0.417,-0.853,-0.313,0.91,-2.59,-0.7
1743542358.072959,-0.417,-0.855,-0.316,0.98,-2.66,-0.7
1743542358.092959,-0.417,-0.854,-0.311,0.98,-2.66,-0.7
1743542358.354674,-0.42,-0.853,-0.316,0.49,-2.8,-0.56
1743542358.3746738,-0.418,-0.853,-0.315,0.98,-2.52,-0.63
1743542358.3946738,-0.418,-0.854,-0.315,0.91,-2.52,-0.77
1743542358.6524105,-0.417,-0.854,-0.313,0.98,-2.66,-0.7
1743542358.6724102,-0.419,-0.853,-0.314,0.91,-2.66,-0.7
1743542358.6924102,-0.418,-0.854,-0.313,0.98,-2.52,-0.7
1743542358.952113,-0.417,-0.854,-0.317,0.98,-2.45,-0.63
1743542358.972113,-0.419,-0.853,-0.311,0.98,-2.66,-0.63
1743542358.9921129,-0.415,-0.852,-0.314,0.98,-2.59,-0.63
1743542359.253333,-0.416,-0.852,-0.313,1.12,-2.52,-0.77
1743542359.273333,-0.418,-0.853,-0.313,1.05,-2.59,-0.77
1743542359.293333,-0.418,-0.846,-0.312,1.54,-2.45,-0.84
1743542359.552457,-0.42,-0.851,-0.314,1.12,-2.45,-0.7
1743542359.572457,-0.419,-0.853,-0.312,1.05,-2.66,-0.77
1743542359.592457,-0.418,-0.851,-0.315,1.4,-2.31,-0.77
1743542359.852703,-0.417,-0.854,-0.314,0.91,-2.52,-0.7
1743542359.872703,-0.418,-0.853,-0.315,0.98,-2.59,-0.63
1743542359.892703,-0.418,-0.854,-0.315,0.84,-2.59,-0.77
1743542360.1526752,-0.417,-0.853,-0.315,0.91,-2.59,-0.56
1743542360.1726751,-0.417,-0.855,-0.315,0.98,-2.52,-0.63
1743542360.192675,-0.418,-0.854,-0.316,0.98,-2.52,-0.7
1743542360.48226,-0.419,-0.854,-0.313,0.91,-2.66,-0.7
1743542360.50226,-0.415,-0.852,-0.313,0.98,-2.52,-0.7
1743542360.52226,-0.418,-0.854,-0.314,0.98,-2.59,-0.7
1743542360.782694,-0.42,-0.853,-0.315,1.05,-2.59,-0.63
1743542360.8026938,-0.418,-0.852,-0.314,1.05,-2.52,-0.7
1743542360.8226938,-0.417,-0.854,-0.315,1.05,-2.59,-0.77
1743542361.0813482,-0.418,-0.851,-0.311,0.91,-2.52,-0.63
1743542361.1013482,-0.417,-0.852,-0.313,0.21,-2.45,-0.77
1743542361.121348,-0.418,-0.853,-0.316,0.91,-2.59,-0.7
1743542361.366856,-0.419,-0.851,-0.312,0.91,-2.52,-0.7
1743542361.3868558,-0.418,-0.854,-0.314,1.05,-2.59,-0.77
1743542361.4068558,-0.418,-0.853,-0.317,0.91,-2.59,-0.63
1743542361.681383,-0.418,-0.853,-0.317,0.98,-2.59,-0.7
1743542361.7013829,-0.417,-0.852,-0.312,0.98,-2.66,-0.7
1743542361.7213829,-0.416,-0.853,-0.315,0.91,-2.59,-0.7
1743542361.975819,-0.419,-0.854,-0.315,0.91,-2.59,-0.77
1743542361.995819,-0.419,-0.854,-0.315,1.26,-2.45,-0.63
1743542362.015819,-0.415,-0.855,-0.314,1.33,-2.45,-0.7
1743542362.280839,-0.415,-0.853,-0.311,0.98,-2.52,-0.63
1743542362.300839,-0.416,-0.854,-0.311,1.12,-2.52,-0.7
1743542362.320839,-0.417,-0.854,-0.312,1.05,-2.52,-0.77
1743542362.567551,-0.415,-0.854,-0.313,0.84,-2.59,-0.63
1743542362.5875509,-0.416,-0.854,-0.312,1.05,-2.66,-0.63
1743542362.6075509,-0.42,-0.856,-0.312,0.84,-2.8,-0.63
1743542362.867428,-0.419,-0.854,-0.314,0.98,-2.73,-0.63
1743542362.887428,-0.416,-0.849,-0.313,1.05,-2.45,-0.63
1743542362.907428,-0.417,-0.852,-0.314,1.05,-2.59,-0.77
1743542363.1676202,-0.417,-0.854,-0.315,0.91,-2.59,-0.7
1743542363.1876202,-0.418,-0.854,-0.313,0.98,-2.59,-0.7
1743542363.20762,-0.418,-0.853,-0.317,0.91,-2.52,-0.56
1743542363.468341,-0.417,-0.853,-0.315,0.98,-2.59,-0.7
1743542363.488341,-0.416,-0.854,-0.315,0.98,-2.45,-0.7
1743542363.508341,-0.415,-0.854,-0.313,0.98,-2.66,-0.7
1743542363.770569,-0.419,-0.854,-0.316,0.91,-2.52,-0.7
1743542363.790569,-0.417,-0.855,-0.316,0.84,-2.66,-0.7
1743542363.810569,-0.417,-0.853,-0.314,1.05,-2.59,-0.7
1743542364.037823,-0.417,-0.854,-0.315,0.91,-2.52,-0.7
1743542364.057823,-0.419,-0.855,-0.318,0.63,-2.52,-0.7
1743542364.077823,-0.416,-0.855,-0.312,0.98,-2.59,-0.7
1743542364.352584,-0.419,-0.854,-0.315,1.05,-2.52,-0.63
1743542364.372584,-0.418,-0.854,-0.313,0.98,-2.52,-0.7
1743542364.3925838,-0.419,-0.854,-0.312,0.91,-2.52,-0.77
1743542364.637207,-0.417,-0.852,-0.311,1.05,-2.66,-0.7
1743542364.657207,-0.418,-0.854,-0.315,0.91,-2.59,-0.63
1743542364.677207,-0.418,-0.853,-0.314,0.98,-2.52,-0.7
1743542364.937428,-0.418,-0.851,-0.317,0.84,-2.59,-0.77
1743542364.957428,-0.42,-0.856,-0.316,0.98,-2.59,-0.63
1743542364.977428,-0.415,-0.851,-0.314,0.98,-2.59,-0.7
1743542365.23983,-0.417,-0.854,-0.314,1.05,-2.59,-0.7
1743542365.25983,-0.416,-0.852,-0.314,0.77,-2.45,-0.77
1743542365.27983,-0.415,-0.853,-0.315,1.05,-2.59,-0.63
1743542365.5379772,-0.418,-0.854,-0.314,1.05,-2.59,-0.7
1743542365.5579772,-0.417,-0.852,-0.312,1.12,-2.59,-0.7
1743542365.5779772,-0.419,-0.854,-0.312,0.98,-2.59,-0.63
1743542365.837489,-0.417,-0.854,-0.313,1.12,-2.59,-0.7
1743542365.8574889,-0.416,-0.853,-0.313,1.05,-2.59,-0.77
1743542365.8774889,-0.419,-0.854,-0.313,1.05,-2.52,-0.63
1743542366.137926,-0.418,-0.853,-0.313,0.91,-2.59,-0.77
1743542366.1579258,-0.419,-0.854,-0.314,0.84,-2.52,-0.63
1743542366.1779258,-0.416,-0.854,-0.315,0.98,-2.52,-0.7
1743542366.4552112,-0.416,-0.852,-0.316,0.91,-2.73,-0.7
1743542366.4752111,-0.419,-0.853,-0.313,0.98,-2.52,-0.7
1743542366.4952111,-0.416,-0.854,-0.315,0.91,-2.52,-0.77
1743542366.737545,-0.418,-0.856,-0.312,0.98,-2.52,-0.7
1743542366.757545,-0.416,-0.851,-0.311,1.05,-2.59,-0.7
1743542366.777545,-0.417,-0.852,-0.313,1.05,-2.59,-0.7
1743542367.038026,-0.42,-0.855,-0.314,0.98,-2.59,-0.63
1743542367.058026,-0.416,-0.855,-0.314,0.91,-2.52,-0.7
1743542367.078026,-0.414,-0.852,-0.314,1.05,-2.73,-0.77
1743542367.352354,-0.416,-0.854,-0.32,0.98,-2.73,-0.7
1743542367.372354,-0.415,-0.855,-0.319,0.98,-2.52,-0.63
1743542367.392354,-0.415,-0.853,-0.314,0.91,-2.52,-0.7
1743542367.6376112,-0.416,-0.853,-0.315,0.91,-2.59,-0.77
1743542367.6576111,-0.418,-0.853,-0.315,0.91,-2.59,-0.63
1743542367.677611,-0.421,-0.852,-0.315,1.05,-2.52,-0.7
1743542367.938012,-0.417,-0.854,-0.317,0.98,-2.52,-0.7
1743542367.958012,-0.418,-0.852,-0.314,1.12,-2.52,-0.63
1743542367.9780118,-0.417,-0.852,-0.314,1.05,-2.52,-0.7
1743542368.239742,-0.417,-0.853,-0.315,1.05,-2.59,-0.77
1743542368.259742,-0.419,-0.855,-0.317,1.19,-2.59,-0.7
1743542368.279742,-0.417,-0.855,-0.314,1.05,-2.59,-0.7
1743542368.5379322,-0.416,-0.853,-0.316,0.98,-2.59,-0.63
1743542368.557932,-0.417,-0.854,-0.312,0.98,-2.52,-0.7
1743542368.577932,-0.417,-0.856,-0.313,0.98,-2.52,-0.7
1743542368.8373692,-0.418,-0.853,-0.315,1.05,-2.59,-0.7
1743542368.8573692,-0.415,-0.856,-0.314,0.91,-2.52,-0.63
1743542368.8773692,-0.415,-0.854,-0.317,0.91,-2.59,-0.7
1743542369.1381052,-0.419,-0.853,-0.314,1.05,-2.52,-0.7
1743542369.1581051,-0.416,-0.854,-0.313,0.91,-2.52,-0.63
1743542369.178105,-0.415,-0.854,-0.313,0.84,-2.52,-0.7
1743542369.437376,-0.418,-0.852,-0.316,0.91,-2.59,-0.7
1743542369.457376,-0.418,-0.854,-0.313,0.91,-2.52,-0.7
1743542369.477376,-0.416,-0.852,-0.316,1.12,-2.59,-0.63
1743542369.737258,-0.418,-0.851,-0.315,0.91,-2.66,-0.63
1743542369.757258,-0.418,-0.854,-0.315,0.98,-2.59,-0.63
1743542369.777258,-0.418,-0.854,-0.314,0.91,-2.59,-0.7
1743542370.0375922,-0.416,-0.855,-0.315,1.05,-2.52,-0.63
1743542370.0575922,-0.416,-0.85,-0.316,1.05,-2.59,-0.7
1743542370.077592,-0.419,-0.854,-0.315,0.98,-2.38,-0.63
1743542370.3524191,-0.417,-0.854,-0.316,0.84,-2.66,-0.63
1743542370.372419,-0.419,-0.855,-0.314,0.91,-2.52,-0.63
1743542370.392419,-0.418,-0.853,-0.315,1.19,-2.59,-0.7
1743542370.652745,-0.418,-0.851,-0.314,0.98,-2.59,-0.63
1743542370.672745,-0.418,-0.853,-0.314,0.98,-2.66,-0.7
1743542370.692745,-0.415,-0.852,-0.314,0.91,-2.52,-0.77
1743542370.95474,-0.418,-0.853,-0.314,0.98,-2.59,-0.7
1743542370.97474,-0.416,-0.854,-0.313,1.05,-2.52,-0.63
1743542370.99474,-0.416,-0.854,-0.314,1.12,-2.59,-0.7
1743542371.238775,-0.417,-0.853,-0.317,1.05,-2.59,-0.7
1743542371.258775,-0.415,-0.853,-0.313,0.98,-2.52,-0.63
1743542371.278775,-0.417,-0.852,-0.314,0.91,-2.52,-0.63
1743542371.538302,-0.418,-0.854,-0.316,0.91,-2.59,-0.7
1743542371.558302,-0.417,-0.853,-0.314,0.98,-2.45,-0.63
1743542371.578302,-0.419,-0.852,-0.316,0.98,-2.45,-0.63
1743542371.855642,-0.416,-0.853,-0.315,0.91,-2.59,-0.7
1743542371.875642,-0.416,-0.854,-0.313,1.05,-2.59,-0.7
1743542371.895642,-0.418,-0.854,-0.314,1.05,-2.66,-0.56
1743542372.137728,-0.415,-0.853,-0.313,0.98,-2.52,-0.7
1743542372.157728,-0.419,-0.854,-0.313,0.98,-2.59,-0.56
1743542372.177728,-0.417,-0.856,-0.314,0.98,-2.45,-0.7
1743542372.4385972,-0.418,-0.853,-0.314,1.05,-2.59,-0.77
1743542372.4585972,-0.418,-0.854,-0.315,0.98,-2.59,-0.7
1743542372.4785972,-0.414,-0.851,-0.314,0.91,-2.59,-0.56
1743542372.7387671,-0.416,-0.854,-0.319,0.84,-2.59,-0.77
1743542372.7587671,-0.417,-0.854,-0.317,0.84,-2.52,-0.77
1743542372.778767,-0.419,-0.854,-0.318,0.98,-2.59,-0.7
1743542373.052591,-0.416,-0.852,-0.317,0.98,-2.59,-0.63
1743542373.072591,-0.417,-0.853,-0.317,1.05,-2.59,-0.7
1743542373.092591,-0.418,-0.852,-0.312,0.98,-2.52,-0.77
1743542373.33811,-0.417,-0.857,-0.311,0.98,-2.59,-0.63
1743542373.35811,-0.415,-0.854,-0.313,0.98,-2.59,-0.7
1743542373.37811,-0.418,-0.855,-0.314,1.05,-2.59,-0.77
1743542373.6541922,-0.417,-0.853,-0.313,0.98,-2.52,-0.77
1743542373.6741922,-0.417,-0.854,-0.315,0.91,-2.59,-0.7
1743542373.6941922,-0.417,-0.854,-0.313,1.05,-2.52,-0.77
1743542373.952577,-0.415,-0.854,-0.314,0.84,-2.45,-0.63
1743542373.972577,-0.418,-0.855,-0.315,0.56,-2.59,-0.63
1743542373.992577,-0.415,-0.853,-0.315,0.98,-2.52,-0.7
1743542374.237698,-0.416,-0.853,-0.318,1.05,-2.52,-0.77
1743542374.257698,-0.418,-0.852,-0.313,0.98,-2.73,-0.63
1743542374.277698,-0.419,-0.854,-0.312,1.12,-2.73,-0.63
1743542374.538518,-0.416,-0.853,-0.313,1.05,-2.52,-0.7
1743542374.558518,-0.417,-0.854,-0.314,1.05,-2.59,-0.56
1743542374.578518,-0.42,-0.853,-0.316,0.98,-2.45,-0.7
1743542374.8532531,-0.418,-0.853,-0.32,1.05,-2.66,-0.7
1743542374.873253,-0.417,-0.853,-0.315,0.98,-2.52,-0.63
1743542374.893253,-0.417,-0.853,-0.318,0.7,-2.59,-0.63
1743542375.1383429,-0.417,-0.852,-0.313,0.91,-2.59,-0.7
1743542375.1583428,-0.418,-0.853,-0.315,0.98,-2.59,-0.7
1743542375.1783428,-0.419,-0.852,-0.317,0.98,-2.59,-0.84
1743542375.454425,-0.417,-0.852,-0.314,0.91,-2.52,-0.7
1743542375.474425,-0.416,-0.854,-0.313,0.84,-2.52,-0.7
1743542375.494425,-0.416,-0.853,-0.314,0.98,-2.52,-0.63
1743542375.738247,-0.417,-0.853,-0.315,1.05,-2.59,-0.7
1743542375.758247,-0.417,-0.853,-0.316,0.91,-2.66,-0.63
1743542375.7782469,-0.417,-0.853,-0.316,0.98,-2.59,-0.7
1743542376.053512,-0.417,-0.852,-0.313,0.98,-2.66,-0.7
1743542376.0735118,-0.417,-0.854,-0.314,0.91,-2.45,-0.63
1743542376.0935118,-0.417,-0.855,-0.314,0.84,-2.52,-0.7
1743542376.353088,-0.419,-0.855,-0.315,0.84,-2.59,-0.7
1743542376.373088,-0.417,-0.855,-0.314,0.98,-2.52,-0.63
1743542376.393088,-0.419,-0.854,-0.312,1.12,-2.52,-0.77
1743542376.63769,-0.416,-0.85,-0.317,0.91,-2.59,-0.7
1743542376.65769,-0.416,-0.853,-0.313,0.98,-2.66,-0.7
1743542376.67769,-0.417,-0.853,-0.314,0.98,-2.52,-0.7
1743542376.9375832,-0.419,-0.853,-0.316,0.98,-2.66,-0.63
1743542376.9575832,-0.416,-0.852,-0.312,1.05,-2.66,-0.77
1743542376.9775832,-0.419,-0.853,-0.315,0.84,-2.59,-0.7
1743542377.239797,-0.419,-0.853,-0.315,0.91,-2.59,-0.63
1743542377.259797,-0.417,-0.856,-0.314,0.98,-2.59,-0.63
1743542377.279797,-0.417,-0.852,-0.313,0.98,-2.52,-0.56
1743542377.5379012,-0.418,-0.853,-0.315,1.05,-2.59,-0.77
1743542377.5579011,-0.417,-0.853,-0.315,1.05,-2.59,-0.7
1743542377.5779011,-0.416,-0.854,-0.313,0.84,-2.52,-0.7
1743542377.838241,-0.417,-0.853,-0.314,0.91,-2.59,-0.7
1743542377.858241,-0.417,-0.851,-0.315,0.84,-2.59,-0.7
1743542377.878241,-0.419,-0.854,-0.316,0.7,-2.59,-0.63
1743542378.1529322,-0.418,-0.851,-0.315,1.05,-2.52,-0.77
1743542378.172932,-0.418,-0.854,-0.315,0.91,-2.52,-0.63
1743542378.192932,-0.417,-0.852,-0.317,0.91,-2.52,-0.7
1743542378.437876,-0.416,-0.853,-0.313,0.98,-2.59,-0.7
1743542378.457876,-0.415,-0.857,-0.313,1.68,-2.66,-0.7
1743542378.477876,-0.416,-0.851,-0.313,1.33,-2.73,-0.56
1743542378.739022,-0.416,-0.853,-0.313,0.91,-2.52,-0.63
1743542378.759022,-0.417,-0.854,-0.315,0.84,-2.66,-0.63
1743542378.779022,-0.415,-0.854,-0.312,1.05,-2.45,-0.63
1743542379.0837882,-0.417,-0.853,-0.316,1.12,-2.59,-0.63
1743542379.103788,-0.416,-0.854,-0.314,0.98,-2.59,-0.63
1743542379.123788,-0.417,-0.852,-0.316,0.98,-2.52,-0.7
1743542379.339162,-0.414,-0.854,-0.315,0.98,-2.52,-0.7
1743542379.359162,-0.415,-0.852,-0.316,0.98,-2.59,-0.56
1743542379.379162,-0.418,-0.853,-0.315,0.98,-2.52,-0.7
1743542379.641446,-0.417,-0.854,-0.317,0.91,-2.59,-0.63
1743542379.661446,-0.416,-0.854,-0.317,0.77,-2.52,-0.63
1743542379.6814458,-0.417,-0.851,-0.314,1.05,-2.59,-0.77
1743542379.9393291,-0.418,-0.852,-0.317,1.12,-2.52,-0.77
1743542379.9593291,-0.417,-0.853,-0.316,0.98,-2.52,-0.7
1743542379.979329,-0.419,-0.853,-0.316,1.19,-2.66,-0.7
1743542380.253309,-0.419,-0.851,-0.312,0.91,-2.52,-0.77
1743542380.273309,-0.419,-0.853,-0.314,1.12,-2.59,-0.63
1743542380.293309,-0.42,-0.853,-0.313,0.98,-2.59,-0.77
1743542380.5399702,-0.417,-0.853,-0.316,1.05,-2.59,-0.7
1743542380.55997,-0.417,-0.854,-0.316,1.05,-2.45,-0.77
1743542380.57997,-0.419,-0.852,-0.314,0.98,-2.59,-0.7
1743542380.855086,-0.42,-0.853,-0.315,1.05,-2.59,-0.63
1743542380.875086,-0.418,-0.853,-0.314,1.05,-2.52,-0.7
1743542380.895086,-0.419,-0.855,-0.311,1.05,-2.59,-0.7
1743542381.1397069,-0.406,-0.847,-0.303,1.05,-1.75,-1.05
1743542381.1597068,-0.416,-0.854,-0.316,0.84,-2.59,-0.63
1743542381.1797068,-0.417,-0.853,-0.313,0.84,-2.59,-0.63
1743542381.4686651,-0.417,-0.855,-0.316,1.05,-2.52,-0.7
1743542381.488665,-0.419,-0.853,-0.315,0.84,-2.59,-0.77
1743542381.508665,-0.418,-0.854,-0.313,0.98,-2.59,-0.63
1743542381.754553,-0.416,-0.852,-0.316,0.98,-2.52,-0.7
1743542381.774553,-0.417,-0.851,-0.312,0.84,-2.45,-0.77
1743542381.794553,-0.418,-0.854,-0.316,1.12,-2.59,-0.77
1743542382.053112,-0.417,-0.853,-0.315,1.05,-2.52,-0.63
1743542382.073112,-0.418,-0.854,-0.312,1.05,-2.59,-0.77
1743542382.093112,-0.417,-0.852,-0.315,0.98,-2.66,-0.7
1743542382.3532271,-0.419,-0.847,-0.315,0.49,-2.66,-0.7
1743542382.3732271,-0.418,-0.852,-0.313,0.98,-2.59,-0.63
1743542382.393227,-0.417,-0.854,-0.315,0.91,-2.66,-0.63
1743542382.639444,-0.417,-0.854,-0.315,0.91,-2.52,-0.7
1743542382.659444,-0.415,-0.855,-0.317,0.7,-2.59,-0.7
1743542382.679444,-0.416,-0.853,-0.315,0.84,-2.59,-0.56
1743542382.938803,-0.42,-0.853,-0.316,0.98,-2.66,-0.63
1743542382.958803,-0.419,-0.854,-0.315,0.98,-2.52,-0.63
1743542382.978803,-0.417,-0.853,-0.315,0.98,-2.52,-0.56
1743542383.23866,-0.417,-0.853,-0.313,1.05,-2.52,-0.77
1743542383.25866,-0.418,-0.853,-0.315,1.05,-2.52,-0.7
1743542383.27866,-0.417,-0.853,-0.314,1.05,-2.45,-0.63
1743542383.5538292,-0.417,-0.853,-0.315,1.05,-2.52,-0.7
1743542383.5738292,-0.418,-0.854,-0.315,0.91,-2.52,-0.63
1743542383.5938292,-0.419,-0.852,-0.314,0.84,-2.52,-0.7
1743542383.838691,-0.419,-0.855,-0.313,1.05,-2.45,-0.7
1743542383.858691,-0.415,-0.852,-0.316,1.05,-2.66,-0.63
1743542383.878691,-0.42,-0.855,-0.318,0.98,-2.59,-0.63
1743542384.138647,-0.416,-0.851,-0.315,0.98,-2.59,-0.56
1743542384.158647,-0.417,-0.852,-0.314,0.98,-2.52,-0.77
1743542384.178647,-0.419,-0.853,-0.315,0.91,-2.52,-0.7
1743542384.456093,-0.416,-0.854,-0.314,0.84,-2.59,-0.7
1743542384.476093,-0.412,-0.857,-0.31,1.82,-2.1,-1.12
1743542384.496093,-0.416,-0.854,-0.31,1.75,-2.38,-0.84
1743542384.7391958,-0.419,-0.851,-0.315,0.56,-2.45,-0.63
1743542384.7591958,-0.419,-0.852,-0.313,1.05,-2.45,-0.7
1743542384.7791958,-0.418,-0.851,-0.314,0.91,-2.52,-0.7
1743542385.038998,-0.416,-0.852,-0.315,0.98,-2.66,-0.77
1743542385.058998,-0.416,-0.853,-0.315,0.98,-2.59,-0.7
1743542385.078998,-0.417,-0.852,-0.314,0.98,-2.59,-0.63
1743542385.3549309,-0.414,-0.853,-0.317,0.84,-2.52,-0.7
1743542385.3749309,-0.418,-0.851,-0.318,0.98,-2.52,-0.77
1743542385.3949308,-0.414,-0.853,-0.314,0.98,-2.45,-0.77
1743542385.637651,-0.415,-0.853,-0.317,1.05,-2.52,-0.7
1743542385.657651,-0.417,-0.852,-0.315,0.98,-2.59,-0.63
1743542385.677651,-0.418,-0.854,-0.314,0.98,-2.52,-0.7
1743542385.9391732,-0.418,-0.853,-0.312,0.98,-2.52,-0.77
1743542385.9591732,-0.417,-0.853,-0.314,1.05,-2.52,-0.7
1743542385.9791732,-0.415,-0.853,-0.314,0.98,-2.52,-0.63
1743542386.240283,-0.416,-0.854,-0.314,1.05,-2.52,-0.7
1743542386.260283,-0.416,-0.851,-0.315,0.7,-2.66,-0.63
1743542386.280283,-0.415,-0.852,-0.318,0.91,-2.59,-0.77
1743542386.539186,-0.416,-0.854,-0.316,0.84,-2.59,-0.7
1743542386.559186,-0.418,-0.853,-0.312,0.98,-2.52,-0.63
1743542386.579186,-0.42,-0.854,-0.312,0.98,-2.59,-0.77
1743542386.8391602,-0.419,-0.852,-0.314,1.12,-2.52,-0.77
1743542386.8591602,-0.419,-0.853,-0.314,0.98,-2.59,-0.7
1743542386.8791602,-0.418,-0.852,-0.315,0.98,-2.66,-0.77
1743542387.141215,-0.419,-0.853,-0.317,1.12,-2.59,-0.56
1743542387.161215,-0.418,-0.851,-0.315,1.05,-2.59,-0.7
1743542387.181215,-0.417,-0.854,-0.315,0.91,-2.66,-0.7
1743542387.438446,-0.417,-0.853,-0.316,0.91,-2.59,-0.77
1743542387.458446,-0.418,-0.854,-0.316,0.98,-2.45,-0.63
1743542387.478446,-0.419,-0.854,-0.313,1.05,-2.59,-0.7
1743542387.738018,-0.417,-0.853,-0.315,0.98,-2.59,-0.7
1743542387.758018,-0.419,-0.852,-0.314,0.84,-2.52,-0.63
1743542387.778018,-0.417,-0.851,-0.316,0.98,-2.52,-0.7
1743542388.040571,-0.418,-0.854,-0.317,0.98,-2.59,-0.56
1743542388.060571,-0.418,-0.853,-0.317,1.05,-2.66,-0.77
1743542388.080571,-0.416,-0.852,-0.316,1.12,-2.52,-0.7
1743542388.343255,-0.417,-0.852,-0.316,0.98,-2.52,-0.7
1743542388.363255,-0.419,-0.852,-0.317,1.12,-2.59,-0.7
1743542388.383255,-0.417,-0.854,-0.314,0.91,-2.66,-0.63
1743542388.6404102,-0.413,-0.852,-0.315,0.91,-2.59,-0.77
1743542388.6604102,-0.416,-0.854,-0.317,0.91,-2.59,-0.7
1743542388.68041,-0.417,-0.854,-0.316,0.91,-2.52,-0.7
1743542388.93905,-0.419,-0.853,-0.314,1.47,-2.45,-0.7
1743542388.95905,-0.419,-0.852,-0.315,1.05,-2.52,-0.77
1743542388.97905,-0.42,-0.853,-0.314,0.77,-2.66,-0.77
1743542389.23864,-0.417,-0.854,-0.315,1.05,-2.52,-0.77
1743542389.25864,-0.417,-0.854,-0.315,0.98,-2.52,-0.7
1743542389.27864,-0.415,-0.853,-0.315,0.98,-2.52,-0.63
1743542389.540448,-0.417,-0.853,-0.315,1.05,-2.52,-0.7
1743542389.560448,-0.415,-0.851,-0.315,0.91,-2.66,-0.49
1743542389.580448,-0.417,-0.854,-0.314,0.84,-2.59,-0.63
1743542389.839537,-0.417,-0.853,-0.317,0.98,-2.52,-0.63
1743542389.859537,-0.419,-0.854,-0.316,0.91,-2.59,-0.7
1743542389.8795369,-0.417,-0.854,-0.313,0.91,-2.59,-0.7
1743542390.1396632,-0.418,-0.852,-0.314,1.12,-2.45,-0.7
1743542390.1596632,-0.415,-0.853,-0.313,0.91,-2.66,-0.63
1743542390.1796632,-0.416,-0.853,-0.315,1.12,-2.59,-0.7
1743542390.454447,-0.417,-0.854,-0.315,0.98,-2.59,-0.7
1743542390.474447,-0.417,-0.852,-0.314,0.91,-2.59,-0.63
1743542390.494447,-0.417,-0.853,-0.315,0.98,-2.59,-0.84
1743542390.739996,-0.417,-0.852,-0.315,1.05,-2.59,-0.63
1743542390.759996,-0.417,-0.854,-0.313,0.98,-2.52,-0.7
1743542390.779996,-0.417,-0.853,-0.315,0.91,-2.59,-0.56
1743542391.039593,-0.418,-0.852,-0.313,0.98,-2.59,-0.63
1743542391.059593,-0.417,-0.851,-0.314,1.05,-2.59,-0.63
1743542391.079593,-0.417,-0.854,-0.315,1.05,-2.52,-0.77
1743542391.354121,-0.42,-0.854,-0.316,1.05,-2.59,-0.7
1743542391.374121,-0.417,-0.852,-0.313,0.84,-2.59,-0.63
1743542391.394121,-0.42,-0.852,-0.315,0.98,-2.45,-0.7
1743542391.6557288,-0.417,-0.853,-0.315,0.98,-2.52,-0.56
1743542391.6757288,-0.417,-0.854,-0.316,0.98,-2.52,-0.63
1743542391.6957288,-0.42,-0.853,-0.315,0.91,-2.59,-0.63
1743542391.9396129,-0.419,-0.854,-0.315,0.98,-2.59,-0.7
1743542391.9596128,-0.42,-0.853,-0.314,0.98,-2.45,-0.63
1743542391.9796128,-0.419,-0.852,-0.315,0.98,-2.52,-0.56
1743542392.23828,-0.417,-0.853,-0.316,0.91,-2.73,-0.63
1743542392.25828,-0.416,-0.851,-0.315,0.84,-2.66,-0.56
1743542392.27828,-0.418,-0.853,-0.315,0.77,-2.66,-0.63
1743542392.557044,-0.416,-0.853,-0.315,0.98,-2.66,-0.63
1743542392.577044,-0.417,-0.852,-0.315,1.19,-2.59,-0.7
1743542392.597044,-0.417,-0.854,-0.313,0.98,-2.59,-0.7
1743542392.8391109,-0.417,-0.853,-0.315,0.91,-2.52,-0.7
1743542392.8591108,-0.418,-0.852,-0.315,0.84,-2.66,-0.7
1743542392.8791108,-0.419,-0.853,-0.315,1.12,-2.59,-0.7
1743542393.1547031,-0.418,-0.853,-0.313,0.91,-2.59,-0.77
1743542393.1747031,-0.419,-0.853,-0.313,0.98,-2.59,-0.7
1743542393.194703,-0.418,-0.854,-0.313,1.05,-2.59,-0.7
1743542393.439346,-0.418,-0.853,-0.316,0.84,-2.73,-0.84
1743542393.459346,-0.418,-0.853,-0.315,1.05,-2.59,-0.7
1743542393.479346,-0.416,-0.852,-0.314,1.05,-2.59,-0.77
1743542393.7394612,-0.418,-0.854,-0.313,0.98,-2.59,-0.63
1743542393.7594612,-0.417,-0.852,-0.313,0.98,-2.59,-0.7
1743542393.7794611,-0.416,-0.851,-0.317,0.91,-2.59,-0.7
1743542394.0388212,-0.422,-0.85,-0.32,2.03,-2.38,-0.98
1743542394.0588212,-0.413,-0.854,-0.317,0.98,-2.52,-0.63
1743542394.0788212,-0.416,-0.851,-0.315,1.05,-2.59,-0.63
1743542394.339122,-0.417,-0.85,-0.314,1.05,-2.52,-0.63
1743542394.359122,-0.417,-0.853,-0.314,1.05,-2.38,-0.63
1743542394.379122,-0.416,-0.852,-0.312,0.98,-2.52,-0.7
1743542394.63914,-0.418,-0.853,-0.316,1.12,-2.66,-0.63
1743542394.65914,-0.418,-0.852,-0.315,1.61,-2.38,-0.77
1743542394.67914,-0.418,-0.851,-0.314,1.19,-2.52,-0.63
1743542394.956922,-0.418,-0.854,-0.314,1.05,-2.45,-0.7
1743542394.976922,-0.417,-0.851,-0.313,0.98,-2.52,-0.77
1743542394.996922,-0.416,-0.854,-0.315,0.91,-2.59,-0.63
1743542395.2404842,-0.415,-0.852,-0.315,1.05,-2.66,-0.63
1743542395.2604842,-0.417,-0.853,-0.314,0.84,-2.66,-0.63
1743542395.2804842,-0.419,-0.854,-0.312,0.84,-2.52,-0.7
1743542395.5392232,-0.415,-0.853,-0.314,0.98,-2.59,-0.77
1743542395.5592232,-0.417,-0.854,-0.317,0.84,-2.59,-0.77
1743542395.5792232,-0.42,-0.853,-0.313,0.91,-2.52,-0.7
1743542395.853736,-0.417,-0.852,-0.314,0.84,-2.59,-0.7
1743542395.873736,-0.417,-0.853,-0.314,1.05,-2.52,-0.63
1743542395.893736,-0.418,-0.852,-0.313,0.98,-2.52,-0.56
1743542396.138318,-0.417,-0.854,-0.314,0.98,-2.52,-0.7
1743542396.158318,-0.417,-0.853,-0.316,0.91,-2.52,-0.7
1743542396.178318,-0.417,-0.851,-0.313,1.12,-2.66,-0.77
1743542396.454182,-0.416,-0.852,-0.318,0.91,-2.52,-0.7
1743542396.474182,-0.417,-0.852,-0.315,1.26,-2.59,-0.7
1743542396.494182,-0.418,-0.852,-0.315,0.91,-2.52,-0.77
1743542396.739249,-0.415,-0.851,-0.314,1.05,-2.52,-0.7
1743542396.759249,-0.419,-0.852,-0.313,1.05,-2.59,-0.77
1743542396.779249,-0.417,-0.854,-0.312,1.12,-2.59,-0.63
1743542397.039499,-0.415,-0.853,-0.312,0.91,-2.52,-0.7
1743542397.059499,-0.419,-0.853,-0.313,1.05,-2.59,-0.63
1743542397.079499,-0.418,-0.854,-0.316,0.84,-2.52,-0.7
1743542397.339361,-0.417,-0.851,-0.311,0.91,-2.59,-0.77
1743542397.359361,-0.42,-0.853,-0.315,0.77,-2.52,-0.7
1743542397.379361,-0.419,-0.852,-0.315,0.91,-2.59,-0.77
1743542397.63913,-0.419,-0.852,-0.318,0.91,-2.66,-0.77
1743542397.65913,-0.418,-0.854,-0.317,0.98,-2.59,-0.63
1743542397.67913,-0.415,-0.85,-0.315,1.05,-2.52,-0.84
1743542397.939197,-0.415,-0.851,-0.317,0.84,-2.59,-0.63
1743542397.959197,-0.417,-0.852,-0.318,1.05,-2.66,-0.77
1743542397.979197,-0.417,-0.851,-0.316,1.05,-2.59,-0.7
1743542398.2986429,-0.419,-0.852,-0.316,1.05,-2.52,-0.7
1743542398.3186429,-0.417,-0.853,-0.315,1.05,-2.59,-0.7
1743542398.3386428,-0.418,-0.851,-0.317,1.12,-2.66,-0.63
1743542398.5551412,-0.419,-0.852,-0.313,0.91,-2.66,-0.49
1743542398.5751412,-0.419,-0.853,-0.313,1.05,-2.59,-0.63
1743542398.5951412,-0.417,-0.854,-0.314,1.26,-2.59,-0.63
1743542398.85544,-0.418,-0.853,-0.314,0.98,-2.59,-0.84
1743542398.87544,-0.417,-0.852,-0.315,0.91,-2.52,-0.7
1743542398.89544,-0.42,-0.854,-0.316,0.91,-2.52,-0.7
1743542399.153621,-0.419,-0.852,-0.315,0.98,-2.52,-0.7
1743542399.173621,-0.417,-0.85,-0.315,0.98,-2.52,-0.7
1743542399.193621,-0.417,-0.852,-0.317,0.77,-2.66,-0.63
1743542399.4392562,-0.418,-0.852,-0.314,0.7,-2.52,-0.7
1743542399.4592562,-0.418,-0.854,-0.311,1.12,-2.66,-0.7
1743542399.4792562,-0.42,-0.851,-0.314,1.05,-2.52,-0.7
1743542399.755615,-0.418,-0.854,-0.315,1.05,-2.59,-0.63
1743542399.775615,-0.418,-0.853,-0.315,0.77,-2.73,-0.63
1743542399.795615,-0.416,-0.854,-0.315,1.19,-2.52,-0.7
1743542400.0394871,-0.416,-0.852,-0.317,1.05,-2.45,-0.63
1743542400.059487,-0.415,-0.856,-0.317,0.91,-2.59,-0.63
1743542400.079487,-0.418,-0.854,-0.318,0.91,-2.66,-0.63
1743542400.340472,-0.418,-0.853,-0.315,1.05,-2.52,-0.84
1743542400.360472,-0.42,-0.853,-0.314,0.84,-2.66,-0.63
1743542400.380472,-0.42,-0.852,-0.313,0.98,-2.59,-0.77
1743542400.6397178,-0.418,-0.853,-0.312,0.91,-2.66,-0.7
1743542400.6597178,-0.419,-0.852,-0.313,1.05,-2.59,-0.63
1743542400.6797178,-0.416,-0.854,-0.315,1.05,-2.59,-0.7
1743542400.9399402,-0.414,-0.853,-0.314,0.98,-2.59,-0.7
1743542400.9599402,-0.417,-0.853,-0.316,0.91,-2.52,-0.63
1743542400.9799402,-0.416,-0.852,-0.318,1.05,-2.59,-0.7
1743542401.254235,-0.417,-0.852,-0.316,0.98,-2.59,-0.7
1743542401.274235,-0.417,-0.852,-0.312,0.77,-2.66,-0.63
1743542401.294235,-0.42,-0.853,-0.314,0.84,-2.59,-0.77
1743542401.5398862,-0.418,-0.854,-0.316,0.98,-2.59,-0.77
1743542401.5598862,-0.416,-0.853,-0.312,0.91,-2.52,-0.63
1743542401.5798862,-0.416,-0.85,-0.31,1.61,-2.59,-0.63
1743542401.8394172,-0.416,-0.854,-0.316,0.98,-2.45,-0.77
1743542401.8594172,-0.415,-0.853,-0.314,0.98,-2.59,-0.56
1743542401.8794172,-0.416,-0.851,-0.316,1.05,-2.52,-0.63
1743542402.154059,-0.415,-0.854,-0.315,0.84,-2.52,-0.77
1743542402.174059,-0.415,-0.853,-0.316,0.91,-2.66,-0.77
1743542402.194059,-0.416,-0.853,-0.315,0.91,-2.59,-0.7
1743542402.440083,-0.418,-0.854,-0.311,0.84,-2.52,-0.77
1743542402.460083,-0.418,-0.852,-0.314,0.91,-2.52,-0.7
1743542402.480083,-0.416,-0.853,-0.315,0.98,-2.66,-0.7
1743542402.739383,-0.419,-0.853,-0.315,1.05,-2.59,-0.56
1743542402.759383,-0.419,-0.858,-0.317,1.12,-2.52,-0.91
1743542402.779383,-0.415,-0.852,-0.312,0.91,-2.59,-0.7
1743542403.039509,-0.416,-0.854,-0.314,1.05,-2.59,-0.77
1743542403.059509,-0.413,-0.853,-0.316,1.12,-2.45,-0.77
1743542403.079509,-0.419,-0.854,-0.313,0.91,-2.59,-0.7
1743542403.369587,-0.419,-0.853,-0.315,1.05,-2.59,-0.7
1743542403.389587,-0.418,-0.852,-0.315,0.98,-2.52,-0.7
1743542403.409587,-0.417,-0.849,-0.315,1.82,-2.17,-0.7
1743542403.639081,-0.418,-0.851,-0.312,0.91,-2.59,-0.63
1743542403.659081,-0.416,-0.854,-0.317,1.05,-2.59,-0.77
1743542403.679081,-0.415,-0.852,-0.317,1.05,-2.59,-0.7
1743542403.95425,-0.418,-0.855,-0.316,0.84,-2.52,-0.7
1743542403.97425,-0.418,-0.854,-0.314,0.91,-2.52,-0.7
1743542403.99425,-0.418,-0.852,-0.316,0.98,-2.59,-0.7
1743542404.25463,-0.418,-0.852,-0.318,0.98,-2.52,-0.63
1743542404.2746298,-0.418,-0.853,-0.315,0.98,-2.66,-0.7
1743542404.2946298,-0.418,-0.851,-0.317,0.84,-2.52,-0.7
1743542404.554513,-0.417,-0.853,-0.315,0.98,-2.66,-0.63
1743542404.574513,-0.419,-0.852,-0.314,0.98,-2.66,-0.77
1743542404.594513,-0.417,-0.851,-0.313,0.98,-2.45,-0.56
1743542404.8389592,-0.415,-0.851,-0.314,1.12,-2.59,-0.7
1743542404.8589592,-0.417,-0.853,-0.315,1.05,-2.45,-0.63
1743542404.8789592,-0.416,-0.851,-0.316,0.98,-2.59,-0.63
1743542405.140359,-0.417,-0.851,-0.315,1.05,-2.52,-0.63
1743542405.160359,-0.418,-0.853,-0.317,0.98,-2.66,-0.77
1743542405.180359,-0.417,-0.852,-0.318,0.91,-2.52,-0.7
1743542405.4394891,-0.414,-0.853,-0.314,0.98,-2.59,-0.7
1743542405.459489,-0.42,-0.854,-0.313,0.98,-2.52,-0.7
1743542405.479489,-0.415,-0.856,-0.311,1.05,-2.52,-0.77
1743542405.739885,-0.419,-0.853,-0.314,0.98,-2.52,-0.7
1743542405.759885,-0.418,-0.854,-0.313,0.91,-2.59,-0.77
1743542405.779885,-0.418,-0.852,-0.316,0.98,-2.52,-0.77
1743542406.041662,-0.418,-0.852,-0.314,0.98,-2.59,-0.77
1743542406.061662,-0.418,-0.853,-0.315,1.19,-2.59,-0.42
1743542406.081662,-0.417,-0.854,-0.313,0.91,-2.59,-0.7
1743542406.339228,-0.415,-0.853,-0.316,1.05,-2.59,-0.7
1743542406.359228,-0.418,-0.852,-0.315,0.98,-2.59,-0.63
1743542406.379228,-0.416,-0.854,-0.311,0.98,-2.59,-0.7
1743542406.639006,-0.416,-0.853,-0.312,0.91,-2.52,-0.7
1743542406.659006,-0.417,-0.854,-0.314,0.98,-2.59,-0.63
1743542406.679006,-0.417,-0.854,-0.316,0.98,-2.59,-0.63
1743542406.95671,-0.416,-0.852,-0.315,1.05,-2.59,-0.63
1743542406.9767098,-0.417,-0.853,-0.316,1.05,-2.52,-0.7
1743542406.9967098,-0.417,-0.852,-0.317,0.98,-2.66,-0.91
1743542407.23907,-0.414,-0.854,-0.313,0.98,-2.52,-0.63
1743542407.25907,-0.417,-0.854,-0.314,0.91,-2.59,-0.7
1743542407.27907,-0.419,-0.854,-0.315,0.84,-2.66,-0.7
1743542407.53942,-0.418,-0.854,-0.316,0.98,-2.59,-0.77
1743542407.55942,-0.418,-0.851,-0.316,1.12,-2.59,-0.7
1743542407.57942,-0.418,-0.853,-0.315,0.98,-2.66,-0.7
1743542407.8406432,-0.417,-0.851,-0.313,0.91,-2.59,-0.63
1743542407.8606431,-0.416,-0.854,-0.313,0.98,-2.52,-0.63
1743542407.8806431,-0.419,-0.851,-0.316,1.12,-2.59,-0.63
1743542408.154059,-0.416,-0.853,-0.315,0.98,-2.66,-0.7
1743542408.174059,-0.416,-0.854,-0.317,0.98,-2.66,-0.7
1743542408.194059,-0.416,-0.854,-0.314,1.05,-2.59,-0.7
1743542408.454728,-0.418,-0.854,-0.315,0.91,-2.52,-0.7
1743542408.474728,-0.417,-0.851,-0.314,0.98,-2.59,-0.7
1743542408.4947278,-0.417,-0.853,-0.314,0.91,-2.52,-0.7
1743542408.739109,-0.414,-0.853,-0.315,0.98,-2.52,-0.63
1743542408.759109,-0.416,-0.854,-0.316,0.98,-2.59,-0.63
1743542408.779109,-0.418,-0.852,-0.318,0.77,-2.66,-0.56
1743542409.040006,-0.416,-0.854,-0.316,0.98,-2.45,-0.77
1743542409.060006,-0.418,-0.852,-0.315,0.84,-2.52,-0.7
1743542409.080006,-0.42,-0.852,-0.318,1.05,-2.59,-0.63
1743542409.341772,-0.417,-0.853,-0.317,0.91,-2.52,-0.63
1743542409.361772,-0.417,-0.853,-0.315,1.05,-2.59,-0.63
1743542409.381772,-0.419,-0.852,-0.314,0.98,-2.52,-0.77
1743542409.65326,-0.415,-0.851,-0.309,0.63,-2.66,-0.77
1743542409.67326,-0.416,-0.853,-0.315,1.05,-2.45,-0.7
1743542409.69326,-0.417,-0.851,-0.315,1.05,-2.59,-0.63
1743542409.954868,-0.417,-0.854,-0.315,0.77,-2.52,-0.77
1743542409.974868,-0.419,-0.85,-0.315,0.77,-2.66,-0.63
1743542409.994868,-0.417,-0.849,-0.313,0.91,-2.66,-0.63
1743542410.2415822,-0.421,-0.853,-0.315,0.84,-2.66,-0.63
1743542410.261582,-0.419,-0.852,-0.316,1.05,-2.45,-0.63
1743542410.281582,-0.418,-0.851,-0.316,1.05,-2.45,-0.7
1743542410.540589,-0.417,-0.853,-0.315,1.05,-2.52,-0.63
1743542410.560589,-0.417,-0.854,-0.314,1.05,-2.59,-0.7
1743542410.580589,-0.416,-0.853,-0.313,0.98,-2.59,-0.7
1743542410.840385,-0.415,-0.853,-0.315,1.05,-2.59,-0.7
1743542410.860385,-0.42,-0.853,-0.316,0.84,-2.59,-0.7
1743542410.880385,-0.417,-0.854,-0.314,1.05,-2.66,-0.63
1743542411.154602,-0.417,-0.854,-0.314,0.98,-2.59,-0.63
1743542411.174602,-0.419,-0.853,-0.315,1.12,-2.59,-0.77
1743542411.194602,-0.416,-0.852,-0.313,0.98,-2.59,-0.63
1743542411.4423392,-0.418,-0.849,-0.313,1.12,-2.52,-0.77
1743542411.4623392,-0.418,-0.852,-0.315,1.12,-2.59,-0.7
1743542411.4823391,-0.418,-0.854,-0.319,0.98,-2.59,-0.7
1743542411.75346,-0.417,-0.854,-0.315,0.98,-2.59,-0.63
1743542411.77346,-0.418,-0.85,-0.314,1.05,-2.66,-0.63
1743542411.79346,-0.417,-0.852,-0.314,1.12,-2.52,-0.63
1743542412.0550358,-0.417,-0.854,-0.314,0.98,-2.66,-0.7
1743542412.0750358,-0.418,-0.854,-0.314,0.98,-2.73,-0.77
1743542412.0950358,-0.418,-0.852,-0.314,0.84,-2.52,-0.63
1743542412.355662,-0.416,-0.853,-0.315,0.98,-2.59,-0.63
1743542412.375662,-0.417,-0.851,-0.318,0.98,-2.52,-0.7
1743542412.395662,-0.415,-0.852,-0.316,0.91,-2.52,-0.63
1743542412.6397252,-0.414,-0.852,-0.314,0.84,-2.45,-0.84
1743542412.6597252,-0.418,-0.854,-0.318,1.12,-2.59,-0.7
1743542412.6797252,-0.418,-0.852,-0.313,0.98,-2.59,-0.63
1743542412.955012,-0.417,-0.854,-0.314,0.98,-2.52,-0.7
1743542412.975012,-0.416,-0.854,-0.314,0.91,-2.52,-0.84
1743542412.995012,-0.416,-0.852,-0.316,1.05,-2.52,-0.7
1743542413.255298,-0.417,-0.852,-0.313,1.12,-2.52,-0.7
1743542413.275298,-0.419,-0.854,-0.313,1.05,-2.59,-0.84
1743542413.295298,-0.416,-0.853,-0.314,0.84,-2.59,-0.7
1743542413.540676,-0.42,-0.854,-0.314,1.05,-2.52,-0.7
1743542413.560676,-0.416,-0.853,-0.315,0.98,-2.59,-0.63
1743542413.580676,-0.418,-0.852,-0.313,0.98,-2.66,-0.63
1743542413.8403358,-0.417,-0.853,-0.313,0.91,-2.52,-0.7
1743542413.8603358,-0.418,-0.854,-0.315,0.98,-2.52,-0.56
1743542413.8803358,-0.415,-0.854,-0.315,0.91,-2.59,-0.63
1743542414.141082,-0.419,-0.853,-0.314,1.05,-2.59,-0.7
1743542414.161082,-0.417,-0.852,-0.315,1.12,-2.52,-0.77
1743542414.181082,-0.418,-0.854,-0.315,0.91,-2.52,-0.7
1743542414.4550989,-0.419,-0.853,-0.316,0.91,-2.52,-0.7
1743542414.4750988,-0.419,-0.854,-0.315,0.98,-2.66,-0.7
1743542414.4950988,-0.418,-0.854,-0.315,0.98,-2.59,-0.7
1743542414.755392,-0.416,-0.854,-0.314,0.98,-2.52,-0.63
1743542414.775392,-0.418,-0.855,-0.312,0.98,-2.59,-0.7
1743542414.795392,-0.417,-0.851,-0.315,0.91,-2.59,-0.77
1743542415.040081,-0.416,-0.854,-0.318,0.98,-2.52,-0.7
1743542415.060081,-0.416,-0.853,-0.314,0.98,-2.59,-0.7
1743542415.080081,-0.416,-0.851,-0.315,0.91,-2.52,-0.77
1743542415.3543591,-0.417,-0.853,-0.318,0.91,-2.59,-0.7
1743542415.3743591,-0.416,-0.853,-0.316,0.98,-2.66,-0.63
1743542415.394359,-0.416,-0.854,-0.313,1.05,-2.66,-0.84
1743542415.639498,-0.417,-0.853,-0.317,1.05,-2.59,-0.7
1743542415.659498,-0.419,-0.853,-0.314,0.98,-2.66,-0.63
1743542415.679498,-0.416,-0.854,-0.314,1.05,-2.59,-0.77
1743542415.9399922,-0.416,-0.854,-0.316,1.05,-2.59,-0.63
1743542415.9599922,-0.417,-0.854,-0.315,1.12,-2.45,-0.77
1743542415.9799922,-0.417,-0.853,-0.314,0.98,-2.52,-0.7
1743542416.2397692,-0.417,-0.852,-0.316,1.05,-2.59,-0.7
1743542416.2597692,-0.418,-0.852,-0.316,0.91,-2.52,-0.77
1743542416.2797692,-0.417,-0.853,-0.315,1.05,-2.52,-0.63
1743542416.5394402,-0.419,-0.854,-0.313,1.05,-2.59,-0.7
1743542416.55944,-0.418,-0.854,-0.313,1.05,-2.52,-0.7
1743542416.57944,-0.415,-0.851,-0.315,0.98,-2.66,-0.63
1743542416.840863,-0.419,-0.854,-0.313,0.91,-2.59,-0.77
1743542416.860863,-0.416,-0.854,-0.314,0.98,-2.59,-0.7
1743542416.880863,-0.417,-0.854,-0.316,1.05,-2.52,-0.77
1743542417.141172,-0.418,-0.854,-0.316,0.98,-2.52,-0.77
1743542417.161172,-0.417,-0.855,-0.314,0.98,-2.59,-0.56
1743542417.181172,-0.418,-0.853,-0.315,1.05,-2.59,-0.77
1743542417.4416032,-0.416,-0.851,-0.316,0.91,-2.52,-0.77
1743542417.4616032,-0.417,-0.852,-0.312,1.05,-2.52,-0.63
1743542417.4816031,-0.416,-0.854,-0.314,1.05,-2.59,-0.7
1743542417.741157,-0.417,-0.851,-0.313,0.91,-2.66,-0.91
1743542417.761157,-0.416,-0.853,-0.316,0.91,-2.52,-0.7
1743542417.781157,-0.417,-0.853,-0.315,1.05,-2.52,-0.63
1743542418.040031,-0.416,-0.854,-0.315,1.05,-2.59,-0.63
1743542418.060031,-0.418,-0.854,-0.313,0.98,-2.59,-0.63
1743542418.080031,-0.419,-0.852,-0.318,0.98,-2.59,-0.7
1743542418.3401868,-0.416,-0.854,-0.314,1.12,-2.45,-0.63
1743542418.3601868,-0.415,-0.852,-0.316,0.98,-2.66,-0.49
1743542418.3801868,-0.417,-0.852,-0.316,0.98,-2.52,-0.77
1743542418.65655,-0.418,-0.853,-0.316,0.91,-2.59,-0.77
1743542418.67655,-0.416,-0.852,-0.313,0.91,-2.52,-0.7
1743542418.69655,-0.416,-0.853,-0.313,1.05,-2.59,-0.77
1743542418.955657,-0.418,-0.851,-0.315,1.05,-2.66,-0.7
1743542418.975657,-0.419,-0.852,-0.315,0.98,-2.52,-0.7
1743542418.995657,-0.417,-0.853,-0.313,0.98,-2.52,-0.56
1743542419.2403252,-0.419,-0.852,-0.314,1.05,-2.52,-0.56
1743542419.2603252,-0.417,-0.854,-0.316,0.98,-2.59,-0.63
1743542419.2803252,-0.419,-0.854,-0.318,0.98,-2.52,-0.7
1743542419.55685,-0.417,-0.853,-0.314,0.98,-2.59,-0.63
1743542419.57685,-0.417,-0.851,-0.314,0.98,-2.52,-0.77
1743542419.59685,-0.419,-0.854,-0.312,0.91,-2.52,-0.7
1743542419.840316,-0.416,-0.853,-0.315,0.91,-2.59,-0.63
1743542419.860316,-0.418,-0.852,-0.316,1.05,-2.59,-0.63
1743542419.880316,-0.417,-0.852,-0.314,0.98,-2.59,-0.56
1743542420.154933,-0.418,-0.854,-0.315,1.05,-2.66,-0.7
1743542420.174933,-0.417,-0.854,-0.314,1.05,-2.59,-0.7
1743542420.194933,-0.418,-0.853,-0.315,1.05,-2.45,-0.7
1743542420.4424012,-0.418,-0.854,-0.315,0.98,-2.52,-0.56
1743542420.4624012,-0.418,-0.853,-0.313,0.91,-2.59,-0.77
1743542420.4824011,-0.418,-0.854,-0.316,1.05,-2.59,-0.7
1743542420.739635,-0.417,-0.852,-0.316,0.98,-2.52,-0.63
1743542420.759635,-0.417,-0.852,-0.316,1.12,-2.59,-0.77
1743542420.779635,-0.418,-0.852,-0.314,0.98,-2.52,-0.7
1743542421.039818,-0.419,-0.851,-0.314,1.05,-2.59,-0.63
1743542421.059818,-0.418,-0.853,-0.314,0.91,-2.59,-0.77
1743542421.079818,-0.415,-0.854,-0.315,1.05,-2.52,-0.7
1743542421.34087,-0.419,-0.855,-0.314,0.98,-2.59,-0.63
1743542421.36087,-0.418,-0.852,-0.313,0.98,-2.52,-0.7
1743542421.38087,-0.419,-0.854,-0.314,1.12,-2.52,-0.63
1743542421.639612,-0.416,-0.854,-0.314,1.05,-2.59,-0.7
1743542421.659612,-0.418,-0.854,-0.314,0.98,-2.59,-0.7
1743542421.679612,-0.418,-0.852,-0.315,0.91,-2.66,-0.77
1743542421.940407,-0.417,-0.851,-0.314,0.84,-2.59,-0.77
1743542421.960407,-0.416,-0.854,-0.316,0.91,-2.59,-0.56
1743542421.980407,-0.418,-0.854,-0.315,0.98,-2.59,-0.77
1743542422.242764,-0.417,-0.852,-0.314,0.98,-2.66,-0.7
1743542422.262764,-0.417,-0.854,-0.316,0.98,-2.59,-0.63
1743542422.282764,-0.417,-0.853,-0.314,1.12,-2.59,-0.7
1743542422.5403368,-0.42,-0.853,-0.313,1.05,-2.59,-0.7
1743542422.5603368,-0.417,-0.851,-0.317,1.05,-2.59,-0.7
1743542422.5803368,-0.417,-0.854,-0.316,0.91,-2.59,-0.7
1743542422.84069,-0.418,-0.852,-0.315,0.91,-2.52,-0.7
1743542422.86069,-0.418,-0.853,-0.316,1.05,-2.52,-0.63
1743542422.88069,-0.421,-0.853,-0.314,1.05,-2.66,-0.7
1743542423.14191,-0.416,-0.852,-0.312,0.98,-2.52,-0.63
1743542423.16191,-0.416,-0.855,-0.313,0.91,-2.52,-0.63
1743542423.18191,-0.416,-0.854,-0.316,0.91,-2.59,-0.7
1743542423.441044,-0.418,-0.853,-0.314,0.98,-2.66,-0.63
1743542423.461044,-0.416,-0.854,-0.314,0.98,-2.59,-0.77
1743542423.481044,-0.416,-0.852,-0.314,1.05,-2.59,-0.7
1743542423.742708,-0.417,-0.85,-0.316,0.98,-2.52,-0.7
1743542423.762708,-0.418,-0.854,-0.315,1.12,-2.59,-0.56
1743542423.782708,-0.419,-0.853,-0.316,0.98,-2.52,-0.7
1743542424.040681,-0.419,-0.851,-0.316,0.98,-2.52,-0.7
1743542424.0606809,-0.418,-0.853,-0.315,1.05,-2.52,-0.7
1743542424.0806808,-0.417,-0.852,-0.317,1.05,-2.66,-0.7
1743542424.340196,-0.419,-0.854,-0.314,0.91,-2.59,-0.7
1743542424.360196,-0.417,-0.854,-0.317,1.05,-2.59,-0.56
1743542424.380196,-0.417,-0.853,-0.314,1.05,-2.59,-0.56
1743542424.641217,-0.416,-0.853,-0.317,0.91,-2.52,-0.63
1743542424.661217,-0.418,-0.855,-0.314,0.98,-2.45,-0.63
1743542424.681217,-0.416,-0.853,-0.316,0.98,-2.59,-0.7
1743542424.940835,-0.417,-0.854,-0.314,0.98,-2.52,-0.7
1743542424.960835,-0.417,-0.854,-0.314,1.05,-2.59,-0.7
1743542424.980835,-0.413,-0.853,-0.317,1.12,-2.59,-0.56
1743542425.239938,-0.417,-0.853,-0.313,0.98,-2.59,-0.63
1743542425.259938,-0.417,-0.853,-0.316,0.91,-2.59,-0.63
1743542425.279938,-0.417,-0.854,-0.315,1.05,-2.52,-0.63
1743542425.540234,-0.418,-0.853,-0.316,1.05,-2.45,-0.7
1743542425.560234,-0.417,-0.853,-0.316,1.05,-2.52,-0.63
1743542425.580234,-0.419,-0.855,-0.316,1.12,-2.59,-0.63
1743542425.8401432,-0.417,-0.853,-0.315,0.98,-2.52,-0.63
1743542425.8601432,-0.418,-0.853,-0.316,0.98,-2.59,-0.7
1743542425.8801432,-0.418,-0.853,-0.315,0.91,-2.59,-0.77
1743542426.13988,-0.417,-0.854,-0.316,0.98,-2.52,-0.63
1743542426.15988,-0.417,-0.852,-0.318,1.05,-2.59,-0.63
1743542426.17988,-0.417,-0.855,-0.318,0.98,-2.66,-0.7
1743542426.4568791,-0.418,-0.854,-0.315,0.91,-2.52,-0.77
1743542426.4768791,-0.419,-0.853,-0.314,0.91,-2.52,-0.7
1743542426.496879,-0.419,-0.851,-0.315,1.12,-2.52,-0.63
1743542426.742229,-0.417,-0.852,-0.315,0.91,-2.59,-0.84
1743542426.762229,-0.417,-0.854,-0.315,1.12,-2.52,-0.7
1743542426.782229,-0.418,-0.853,-0.315,1.05,-2.52,-0.7
1743542427.040521,-0.418,-0.853,-0.315,1.12,-2.66,-0.7
1743542427.060521,-0.417,-0.852,-0.314,0.91,-2.66,-0.7
1743542427.0805209,-0.417,-0.854,-0.315,0.91,-2.52,-0.63
1743542427.342179,-0.416,-0.854,-0.314,0.98,-2.52,-0.7
1743542427.362179,-0.416,-0.853,-0.316,0.98,-2.45,-0.7
1743542427.382179,-0.417,-0.853,-0.313,0.98,-2.66,-0.7
1743542427.642516,-0.417,-0.852,-0.316,0.91,-2.52,-0.7
1743542427.662516,-0.418,-0.853,-0.315,0.91,-2.59,-0.77
1743542427.682516,-0.418,-0.852,-0.314,1.05,-2.52,-0.7
1743542427.940619,-0.416,-0.852,-0.315,0.98,-2.52,-0.7
1743542427.960619,-0.417,-0.854,-0.314,1.05,-2.66,-0.63
1743542427.980619,-0.415,-0.852,-0.315,1.05,-2.59,-0.7
1743542428.240893,-0.418,-0.854,-0.314,0.91,-2.52,-0.84
1743542428.2608929,-0.419,-0.852,-0.316,1.05,-2.45,-0.7
1743542428.2808928,-0.417,-0.852,-0.314,1.05,-2.59,-0.63
1743542428.540714,-0.417,-0.853,-0.314,1.05,-2.52,-0.7
1743542428.560714,-0.417,-0.854,-0.315,1.05,-2.59,-0.63
1743542428.580714,-0.418,-0.852,-0.313,1.12,-2.45,-0.63
1743542428.854793,-0.415,-0.855,-0.314,1.05,-2.59,-0.56
1743542428.874793,-0.42,-0.853,-0.314,0.98,-2.52,-0.77
1743542428.894793,-0.418,-0.853,-0.315,0.98,-2.59,-0.77
1743542429.140968,-0.417,-0.852,-0.316,1.05,-2.52,-0.7
1743542429.160968,-0.418,-0.854,-0.312,0.98,-2.52,-0.7
1743542429.180968,-0.418,-0.854,-0.317,1.12,-2.59,-0.63
1743542429.4429913,-0.417,-0.854,-0.316,0.91,-2.45,-0.77
1743542429.4629912,-0.418,-0.854,-0.317,0.91,-2.66,-0.77
1743542429.4829912,-0.417,-0.853,-0.315,0.98,-2.52,-0.7
1743542429.7562292,-0.416,-0.854,-0.316,0.98,-2.59,-0.7
1743542429.7762291,-0.417,-0.853,-0.315,0.98,-2.59,-0.7
1743542429.7962291,-0.418,-0.853,-0.314,0.84,-2.59,-0.7
1743542430.040427,-0.415,-0.853,-0.317,1.19,-2.66,-0.7
1743542430.060427,-0.416,-0.853,-0.317,1.05,-2.59,-0.7
1743542430.080427,-0.417,-0.853,-0.314,1.12,-2.52,-0.63
1743542430.343667,-0.418,-0.854,-0.314,0.98,-2.52,-0.56
1743542430.363667,-0.418,-0.851,-0.315,1.05,-2.52,-0.56
1743542430.383667,-0.417,-0.853,-0.318,1.05,-2.66,-0.7
1743542430.640693,-0.417,-0.852,-0.312,1.05,-2.59,-0.63
1743542430.660693,-0.419,-0.854,-0.313,0.91,-2.52,-0.63
1743542430.680693,-0.416,-0.853,-0.312,0.91,-2.59,-0.56
1743542430.942218,-0.419,-0.852,-0.313,0.98,-2.59,-0.7
1743542430.962218,-0.418,-0.853,-0.315,0.98,-2.59,-0.7
1743542430.982218,-0.418,-0.852,-0.315,1.05,-2.52,-0.7
1743542431.240833,-0.417,-0.852,-0.314,0.98,-2.66,-0.63
1743542431.260833,-0.415,-0.851,-0.315,1.05,-2.59,-0.63
1743542431.280833,-0.418,-0.854,-0.317,0.98,-2.59,-0.63
1743542431.556309,-0.418,-0.852,-0.314,0.91,-2.66,-0.77
1743542431.576309,-0.416,-0.85,-0.316,0.98,-2.66,-0.7
1743542431.596309,-0.416,-0.855,-0.316,1.05,-2.59,-0.7
1743542431.841006,-0.418,-0.852,-0.316,0.98,-2.59,-0.49
1743542431.861006,-0.416,-0.852,-0.315,0.98,-2.52,-0.7
1743542431.881006,-0.418,-0.852,-0.318,1.05,-2.52,-0.56
1743542432.14405,-0.419,-0.854,-0.316,0.98,-2.59,-0.7
1743542432.16405,-0.418,-0.852,-0.313,1.05,-2.59,-0.7
1743542432.1840498,-0.416,-0.855,-0.315,1.05,-2.52,-0.7
1743542432.4408772,-0.418,-0.852,-0.315,0.98,-2.59,-0.63
1743542432.4608772,-0.418,-0.854,-0.315,0.98,-2.59,-0.7
1743542432.4808772,-0.418,-0.853,-0.315,0.91,-2.59,-0.7
1743542432.756126,-0.416,-0.853,-0.313,1.05,-2.52,-0.63
1743542432.776126,-0.417,-0.851,-0.312,1.05,-2.59,-0.7
1743542432.796126,-0.418,-0.852,-0.315,1.05,-2.59,-0.7
1743542433.040964,-0.419,-0.855,-0.313,1.12,-2.66,-0.7
1743542433.060964,-0.416,-0.853,-0.313,1.05,-2.59,-0.7
1743542433.080964,-0.417,-0.855,-0.314,0.98,-2.59,-0.77
1743542433.340806,-0.418,-0.854,-0.315,0.98,-2.59,-0.63
1743542433.360806,-0.419,-0.853,-0.315,0.91,-2.59,-0.63
1743542433.380806,-0.417,-0.853,-0.315,0.91,-2.59,-0.7
1743542433.670509,-0.419,-0.851,-0.315,0.98,-2.59,-0.77
1743542433.690509,-0.418,-0.854,-0.315,0.91,-2.59,-0.7
1743542433.710509,-0.416,-0.852,-0.314,1.12,-2.52,-0.63
1743542433.956772,-0.417,-0.853,-0.315,0.91,-2.59,-0.7
1743542433.976772,-0.417,-0.852,-0.313,1.05,-2.59,-0.63
1743542433.996772,-0.417,-0.853,-0.315,0.91,-2.59,-0.7
1743542434.240577,-0.418,-0.854,-0.315,0.98,-2.59,-0.63
1743542434.260577,-0.416,-0.853,-0.316,1.05,-2.52,-0.7
1743542434.280577,-0.416,-0.853,-0.316,0.98,-2.59,-0.63
1743542434.541074,-0.418,-0.853,-0.315,1.05,-2.52,-0.84
1743542434.561074,-0.419,-0.852,-0.313,1.12,-2.59,-0.7
1743542434.581074,-0.416,-0.853,-0.313,0.91,-2.52,-0.77
1743542434.841393,-0.418,-0.853,-0.315,1.05,-2.52,-0.63
1743542434.861393,-0.415,-0.854,-0.319,1.05,-2.59,-0.77
1743542434.881393,-0.418,-0.852,-0.313,0.91,-2.52,-0.63
1743542435.141312,-0.419,-0.853,-0.318,1.05,-2.52,-0.7
1743542435.161312,-0.418,-0.854,-0.313,0.98,-2.59,-0.77
1743542435.181312,-0.419,-0.854,-0.315,1.12,-2.66,-0.7
1743542435.440951,-0.418,-0.853,-0.316,0.84,-2.66,-0.84
1743542435.460951,-0.418,-0.853,-0.317,0.98,-2.52,-0.63
1743542435.480951,-0.419,-0.854,-0.315,1.05,-2.59,-0.7
1743542435.742185,-0.418,-0.855,-0.315,0.91,-2.66,-0.56
1743542435.762185,-0.418,-0.852,-0.316,1.05,-2.52,-0.7
1743542435.782185,-0.419,-0.852,-0.313,0.98,-2.59,-0.63
1743542436.040925,-0.418,-0.854,-0.314,0.84,-2.59,-0.77
1743542436.060925,-0.416,-0.854,-0.312,0.98,-2.59,-0.63
1743542436.080925,-0.418,-0.852,-0.315,1.05,-2.59,-0.77
1743542436.3429031,-0.417,-0.852,-0.315,0.98,-2.52,-0.7
1743542436.362903,-0.418,-0.852,-0.316,0.98,-2.52,-0.63
1743542436.382903,-0.418,-0.851,-0.316,0.98,-2.59,-0.56
1743542436.641616,-0.42,-0.853,-0.317,0.91,-2.59,-0.7
1743542436.6616158,-0.419,-0.854,-0.316,0.98,-2.52,-0.7
1743542436.6816158,-0.416,-0.853,-0.316,0.98,-2.52,-0.7
1743542436.94036,-0.415,-0.854,-0.314,0.98,-2.52,-0.63
1743542436.96036,-0.416,-0.852,-0.314,0.98,-2.59,-0.77
1743542436.98036,-0.421,-0.853,-0.316,0.98,-2.59,-0.63
1743542437.242181,-0.418,-0.853,-0.314,1.05,-2.52,-0.63
1743542437.262181,-0.418,-0.854,-0.316,1.05,-2.66,-0.56
1743542437.282181,-0.418,-0.852,-0.316,0.98,-2.59,-0.91
1743542437.543479,-0.415,-0.853,-0.314,1.05,-2.52,-0.63
1743542437.563479,-0.417,-0.853,-0.317,0.91,-2.59,-0.7
1743542437.583479,-0.417,-0.851,-0.317,0.98,-2.59,-0.56
1743542437.840976,-0.418,-0.853,-0.315,0.98,-2.52,-0.7
1743542437.860976,-0.417,-0.853,-0.316,0.98,-2.59,-0.77
1743542437.880976,-0.415,-0.853,-0.314,0.91,-2.66,-0.77
1743542438.156607,-0.417,-0.854,-0.314,0.98,-2.52,-0.77
1743542438.176607,-0.418,-0.854,-0.316,0.91,-2.66,-0.63
1743542438.1966069,-0.418,-0.853,-0.317,0.84,-2.59,-0.77
1743542438.443992,-0.417,-0.853,-0.316,0.98,-2.45,-0.77
1743542438.463992,-0.417,-0.851,-0.315,0.98,-2.45,-0.7
1743542438.483992,-0.417,-0.85,-0.314,1.12,-2.59,-0.77
1743542438.7412271,-0.417,-0.853,-0.316,1.05,-2.52,-0.63
1743542438.7612271,-0.419,-0.853,-0.317,0.91,-2.59,-0.63
1743542438.781227,-0.416,-0.85,-0.318,0.98,-2.59,-0.7
1743542439.041072,-0.419,-0.853,-0.314,0.98,-2.59,-0.63
1743542439.061072,-0.418,-0.854,-0.316,0.98,-2.59,-0.7
1743542439.081072,-0.416,-0.853,-0.313,0.98,-2.52,-0.63
1743542439.3572218,-0.418,-0.853,-0.315,0.98,-2.52,-0.7
1743542439.3772218,-0.416,-0.853,-0.314,0.98,-2.52,-0.7
1743542439.3972218,-0.416,-0.854,-0.316,1.05,-2.52,-0.63
1743542439.6407402,-0.418,-0.852,-0.314,0.91,-2.59,-0.77
1743542439.66074,-0.417,-0.854,-0.316,0.98,-2.66,-0.7
1743542439.68074,-0.416,-0.85,-0.317,0.98,-2.59,-0.63
1743542439.9414148,-0.418,-0.852,-0.315,0.98,-2.59,-0.7
1743542439.9614148,-0.418,-0.855,-0.316,0.98,-2.45,-0.7
1743542439.9814148,-0.418,-0.852,-0.315,0.98,-2.52,-0.63
1743542440.2433865,-0.414,-0.854,-0.316,0.91,-2.59,-0.77
1743542440.2633862,-0.418,-0.853,-0.315,0.98,-2.59,-0.63
1743542440.2833862,-0.416,-0.853,-0.314,0.91,-2.52,-0.63
1743542440.5415392,-0.418,-0.852,-0.315,0.91,-2.52,-0.49
1743542440.5615392,-0.418,-0.853,-0.313,0.98,-2.66,-0.7
1743542440.5815392,-0.417,-0.854,-0.317,1.05,-2.66,-0.7
1743542440.841268,-0.418,-0.854,-0.317,0.91,-2.59,-0.63
1743542440.861268,-0.417,-0.854,-0.317,1.05,-2.59,-0.63
1743542440.881268,-0.418,-0.85,-0.316,0.98,-2.52,-0.63
1743542441.158101,-0.415,-0.853,-0.315,1.05,-2.52,-0.63
1743542441.178101,-0.417,-0.854,-0.316,1.05,-2.66,-0.77
1743542441.198101,-0.417,-0.853,-0.316,1.05,-2.52,-0.77
1743542441.4414082,-0.417,-0.851,-0.314,0.91,-2.59,-0.84
1743542441.461408,-0.415,-0.852,-0.317,0.98,-2.52,-0.56
1743542441.481408,-0.417,-0.853,-0.317,0.98,-2.59,-0.77
1743542441.7411232,-0.417,-0.852,-0.316,1.05,-2.52,-0.7
1743542441.7611232,-0.417,-0.852,-0.313,1.05,-2.52,-0.77
1743542441.7811232,-0.416,-0.853,-0.313,0.98,-2.66,-0.7
1743542442.044081,-0.418,-0.854,-0.316,0.91,-2.66,-0.63
1743542442.064081,-0.42,-0.853,-0.316,0.98,-2.52,-0.7
1743542442.084081,-0.418,-0.854,-0.315,1.05,-2.52,-0.7
1743542442.341015,-0.417,-0.853,-0.314,0.98,-2.52,-0.7
1743542442.361015,-0.419,-0.853,-0.317,0.98,-2.52,-0.77
1743542442.381015,-0.419,-0.852,-0.317,0.84,-2.52,-0.63
1743542442.6414762,-0.417,-0.853,-0.316,0.91,-2.52,-0.7
1743542442.661476,-0.42,-0.853,-0.317,1.05,-2.45,-0.7
1743542442.681476,-0.416,-0.853,-0.314,0.98,-2.59,-0.7
1743542442.9424,-0.416,-0.853,-0.314,0.91,-2.59,-0.63
1743542442.9624,-0.418,-0.854,-0.316,0.98,-2.45,-0.56
1743542442.9824,-0.419,-0.851,-0.312,0.98,-2.52,-0.77
1743542443.2408142,-0.418,-0.853,-0.316,0.98,-2.52,-0.7
1743542443.2608142,-0.416,-0.853,-0.315,0.91,-2.59,-0.7
1743542443.2808142,-0.417,-0.854,-0.317,0.91,-2.66,-0.7
1743542443.542832,-0.419,-0.853,-0.316,0.98,-2.52,-0.56
1743542443.562832,-0.416,-0.854,-0.315,0.98,-2.52,-0.56
1743542443.582832,-0.418,-0.852,-0.316,1.12,-2.59,-0.7
1743542443.8422952,-0.418,-0.853,-0.315,0.98,-2.73,-0.77
1743542443.8622952,-0.418,-0.851,-0.315,0.91,-2.59,-0.63
1743542443.8822951,-0.418,-0.851,-0.314,0.91,-2.52,-0.7
1743542444.140417,-0.416,-0.854,-0.315,0.91,-2.59,-0.7
1743542444.160417,-0.418,-0.85,-0.314,0.98,-2.66,-0.77
1743542444.180417,-0.418,-0.852,-0.315,1.05,-2.59,-0.77
1743542444.441122,-0.416,-0.854,-0.314,1.05,-2.59,-0.77
1743542444.461122,-0.417,-0.854,-0.316,0.98,-2.45,-0.7
1743542444.481122,-0.417,-0.854,-0.313,1.05,-2.59,-0.7
1743542444.755764,-0.418,-0.855,-0.316,1.12,-2.52,-0.7
1743542444.775764,-0.416,-0.854,-0.313,1.05,-2.52,-0.7
1743542444.795764,-0.418,-0.851,-0.314,0.91,-2.59,-0.7
1743542445.041867,-0.418,-0.854,-0.314,0.84,-2.59,-0.63
1743542445.061867,-0.418,-0.854,-0.316,0.98,-2.59,-0.63
1743542445.081867,-0.417,-0.852,-0.314,0.98,-2.52,-0.56
1743542445.341664,-0.417,-0.853,-0.316,0.98,-2.59,-0.77
1743542445.361664,-0.418,-0.854,-0.316,0.91,-2.52,-0.7
1743542445.381664,-0.418,-0.853,-0.319,0.91,-2.52,-0.77
1743542445.642566,-0.418,-0.854,-0.316,1.05,-2.59,-0.77
1743542445.662566,-0.414,-0.851,-0.314,1.05,-2.52,-0.63
1743542445.682566,-0.418,-0.854,-0.319,0.98,-2.66,-0.7
1743542445.941911,-0.417,-0.853,-0.315,1.05,-2.66,-0.63
1743542445.961911,-0.416,-0.853,-0.316,1.05,-2.59,-0.77
1743542445.981911,-0.418,-0.852,-0.317,1.05,-2.59,-0.7
1743542446.2410738,-0.419,-0.851,-0.317,1.05,-2.59,-0.77
1743542446.2610738,-0.419,-0.852,-0.317,1.05,-2.59,-0.63
1743542446.2810738,-0.418,-0.852,-0.316,1.05,-2.59,-0.7
1743542446.542292,-0.419,-0.853,-0.317,0.91,-2.59,-0.7
1743542446.562292,-0.418,-0.854,-0.315,0.98,-2.59,-0.63
1743542446.582292,-0.418,-0.854,-0.315,0.98,-2.66,-0.7
1743542446.841804,-0.417,-0.852,-0.316,0.91,-2.66,-0.7
1743542446.861804,-0.417,-0.854,-0.313,1.05,-2.66,-0.7
1743542446.881804,-0.418,-0.852,-0.314,1.05,-2.59,-0.77
1743542447.141492,-0.416,-0.854,-0.317,0.98,-2.73,-0.63
1743542447.161492,-0.419,-0.852,-0.316,1.05,-2.59,-0.7
1743542447.181492,-0.419,-0.852,-0.317,1.05,-2.45,-0.7
1743542447.4425712,-0.419,-0.85,-0.316,0.91,-2.59,-0.77
1743542447.4625711,-0.418,-0.854,-0.318,0.98,-2.52,-0.7
1743542447.4825711,-0.418,-0.853,-0.315,1.05,-2.52,-0.7
1743542447.741921,-0.418,-0.853,-0.314,1.12,-2.66,-0.56
1743542447.761921,-0.417,-0.853,-0.313,0.91,-2.66,-0.63
1743542447.781921,-0.417,-0.854,-0.315,0.91,-2.52,-0.7
1743542448.0414762,-0.416,-0.85,-0.317,1.05,-2.59,-0.77
1743542448.0614762,-0.418,-0.855,-0.316,0.98,-2.45,-0.7
1743542448.0814762,-0.418,-0.854,-0.314,0.91,-2.59,-0.63
1743542448.357708,-0.418,-0.853,-0.317,0.98,-2.52,-0.63
1743542448.377708,-0.42,-0.851,-0.313,1.05,-2.52,-0.56
1743542448.397708,-0.416,-0.853,-0.315,1.05,-2.59,-0.7
1743542448.641516,-0.419,-0.853,-0.314,0.98,-2.52,-0.63
1743542448.661516,-0.418,-0.854,-0.315,1.05,-2.59,-0.56
1743542448.681516,-0.417,-0.852,-0.314,1.05,-2.52,-0.7
1743542448.94178,-0.415,-0.853,-0.313,0.91,-2.66,-0.7
1743542448.96178,-0.416,-0.853,-0.316,1.05,-2.52,-0.63
1743542448.98178,-0.417,-0.854,-0.317,0.91,-2.52,-0.7
1743542449.243634,-0.415,-0.854,-0.315,1.05,-2.52,-0.7
1743542449.263634,-0.417,-0.854,-0.312,1.05,-2.66,-0.63
1743542449.283634,-0.419,-0.854,-0.314,1.12,-2.59,-0.77
1743542449.541337,-0.417,-0.853,-0.316,0.98,-2.59,-0.77
1743542449.561337,-0.418,-0.855,-0.316,0.98,-2.59,-0.7
1743542449.581337,-0.415,-0.852,-0.315,1.05,-2.52,-0.7
1743542449.841778,-0.419,-0.853,-0.314,1.05,-2.59,-0.7
1743542449.861778,-0.418,-0.853,-0.316,0.91,-2.59,-0.63
1743542449.881778,-0.416,-0.853,-0.316,0.84,-2.52,-0.63
1743542450.1441011,-0.418,-0.851,-0.315,0.91,-2.59,-0.7
1743542450.1641011,-0.418,-0.853,-0.315,0.91,-2.66,-0.77
1743542450.184101,-0.416,-0.852,-0.316,0.91,-2.59,-0.77
1743542450.441924,-0.417,-0.853,-0.314,1.12,-2.59,-0.7
1743542450.461924,-0.417,-0.85,-0.317,1.05,-2.52,-0.7
1743542450.481924,-0.415,-0.853,-0.316,1.05,-2.52,-0.63
1743542450.756475,-0.418,-0.855,-0.315,1.12,-2.52,-0.56
1743542450.776475,-0.42,-0.854,-0.317,0.98,-2.59,-0.63
1743542450.796475,-0.419,-0.853,-0.315,0.91,-2.66,-0.56
1743542451.0439172,-0.414,-0.853,-0.314,0.98,-2.52,-0.7
1743542451.0639172,-0.418,-0.854,-0.314,0.91,-2.59,-0.77
1743542451.0839171,-0.418,-0.854,-0.317,0.91,-2.59,-0.7
1743542451.3560991,-0.416,-0.854,-0.315,0.98,-2.66,-0.7
1743542451.376099,-0.417,-0.854,-0.314,0.91,-2.52,-0.7
1743542451.396099,-0.416,-0.853,-0.316,0.91,-2.52,-0.7
1743542451.656605,-0.417,-0.853,-0.315,1.05,-2.59,-0.7
1743542451.676605,-0.415,-0.853,-0.315,0.98,-2.52,-0.63
1743542451.696605,-0.418,-0.851,-0.314,1.05,-2.45,-0.77
1743542451.944095,-0.414,-0.853,-0.315,0.98,-2.52,-0.63
1743542451.9640949,-0.415,-0.853,-0.315,0.91,-2.52,-0.7
1743542451.9840949,-0.421,-0.854,-0.317,1.05,-2.59,-0.77
1743542452.2415411,-0.417,-0.854,-0.315,0.98,-2.59,-0.7
1743542452.2615411,-0.416,-0.854,-0.313,1.05,-2.59,-0.7
1743542452.281541,-0.417,-0.852,-0.315,0.98,-2.52,-0.7
1743542452.5419788,-0.418,-0.852,-0.316,0.98,-2.66,-0.63
1743542452.5619788,-0.417,-0.854,-0.313,1.05,-2.52,-0.56
1743542452.5819788,-0.416,-0.852,-0.318,1.12,-2.59,-0.77
1743542452.84313,-0.418,-0.852,-0.316,0.84,-2.59,-0.7
1743542452.86313,-0.418,-0.851,-0.315,0.98,-2.52,-0.84
1743542452.88313,-0.418,-0.852,-0.315,0.98,-2.59,-0.7
1743542453.1564631,-0.416,-0.854,-0.317,0.98,-2.52,-0.77
1743542453.1764631,-0.418,-0.853,-0.317,0.98,-2.59,-0.63
1743542453.196463,-0.418,-0.854,-0.314,0.98,-2.59,-0.7
1743542453.44116,-0.417,-0.853,-0.316,0.98,-2.52,-0.63
1743542453.46116,-0.418,-0.852,-0.319,1.05,-2.52,-0.7
1743542453.48116,-0.418,-0.853,-0.316,0.98,-2.59,-0.63
1743542453.741771,-0.42,-0.853,-0.315,0.98,-2.52,-0.7
1743542453.761771,-0.418,-0.852,-0.316,1.05,-2.45,-0.7
1743542453.781771,-0.416,-0.852,-0.313,0.98,-2.52,-0.56
1743542454.0412989,-0.417,-0.854,-0.317,0.98,-2.59,-0.77
1743542454.0612988,-0.416,-0.851,-0.314,0.98,-2.45,-0.7
1743542454.0812988,-0.419,-0.854,-0.315,0.98,-2.59,-0.63
1743542454.341995,-0.418,-0.853,-0.314,1.05,-2.66,-0.7
1743542454.361995,-0.418,-0.852,-0.316,0.91,-2.59,-0.7
1743542454.381995,-0.416,-0.851,-0.313,1.05,-2.45,-0.63
1743542454.641303,-0.415,-0.854,-0.313,1.33,-2.59,-0.77
1743542454.661303,-0.414,-0.853,-0.312,0.0,-2.73,-0.56
1743542454.681303,-0.416,-0.853,-0.316,1.05,-2.38,-0.63
1743542454.94177,-0.417,-0.854,-0.319,0.91,-2.59,-0.7
1743542454.96177,-0.418,-0.854,-0.315,0.77,-2.59,-0.7
1743542454.98177,-0.416,-0.853,-0.316,0.98,-2.59,-0.77
1743542455.241792,-0.419,-0.854,-0.315,0.91,-2.52,-0.63
1743542455.261792,-0.42,-0.851,-0.315,0.91,-2.52,-0.7
1743542455.281792,-0.421,-0.853,-0.316,0.98,-2.52,-0.77
1743542455.541607,-0.419,-0.85,-0.314,0.91,-2.59,-0.77
1743542455.561607,-0.419,-0.853,-0.316,0.98,-2.59,-0.7
1743542455.5816069,-0.42,-0.852,-0.315,1.19,-2.59,-0.7
1743542455.841782,-0.418,-0.853,-0.317,0.91,-2.59,-0.7
1743542455.861782,-0.417,-0.853,-0.314,1.05,-2.73,-0.63
1743542455.881782,-0.417,-0.854,-0.317,0.98,-2.52,-0.77
1743542456.142129,-0.417,-0.852,-0.315,0.91,-2.52,-0.7
1743542456.162129,-0.417,-0.854,-0.314,0.98,-2.52,-0.7
1743542456.182129,-0.42,-0.854,-0.315,0.98,-2.52,-0.7
1743542456.441982,-0.419,-0.854,-0.315,0.98,-2.59,-0.7
1743542456.461982,-0.419,-0.853,-0.315,0.98,-2.59,-0.7
1743542456.481982,-0.419,-0.853,-0.314,0.98,-2.59,-0.63
1743542456.741469,-0.418,-0.854,-0.316,0.84,-2.59,-0.63
1743542456.761469,-0.418,-0.853,-0.317,0.98,-2.59,-0.63
1743542456.7814689,-0.415,-0.853,-0.314,1.05,-2.73,-0.63
1743542457.0579169,-0.419,-0.851,-0.316,0.77,-2.66,-0.7
