Millis	AccelX	AccelY	AccelZ	GyroX	GyroY	GyroZ
0	-0.993	0.029	-0.084	3.15	-3.64	-6.51
22	-0.992	0.007	-0.092	3.5	-3.64	-5.88
43	-1.001	-0.003	-0.093	3.64	-4.55	-5.6
66	-1.009	0.034	-0.083	1.68	-4.34	-5.6
87	-1.02	0.025	-0.088	0.07	-4.69	-5.04
106	-1.018	0.031	-0.082	-1.33	-4.2	-5.39
127	-1.0	0.012	-0.076	-2.8	-3.64	-4.55
147	-1.01	-0.027	-0.086	-2.8	-4.06	-4.9
166	-1.006	-0.008	-0.099	1.75	-5.25	-4.06
186	-0.993	0.003	-0.093	3.64	-6.79	-3.78
211	-1.004	-0.006	-0.096	5.18	-7.42	-4.27
235	-1.018	0.013	-0.092	5.88	-9.66	-5.18
252	-1.014	0.039	-0.094	5.81	-10.78	-5.67
271	-1.008	0.04	-0.091	2.24	-12.32	-7.35
296	-1.014	-0.001	-0.076	2.45	-14.28	-7.98
316	-1.014	-0.014	-0.074	1.12	-14.7	-8.96
340	-1.005	0.017	-0.046	0.98	-13.79	-7.63
360	-0.982	-0.031	-0.059	3.36	-12.67	-7.35
377	-0.996	-0.044	-0.052	3.85	-12.39	-6.86
396	-1.013	-0.009	-0.046	0.77	-11.48	-6.3
422	-1.019	-0.066	-0.054	2.59	-11.13	-6.16
441	-1.005	-0.016	-0.047	2.17	-10.85	-6.02
459	-1.0	-0.006	-0.04	1.89	-10.99	-5.53
479	-0.987	-0.017	-0.021	-1.4	-9.31	-5.46
500	-0.995	-0.043	-0.036	2.03	-7.7	-4.27
522	-1.002	-0.008	-0.018	-0.07	-6.65	-4.62
545	-0.999	-0.032	-0.022	0.84	-5.67	-3.29
566	-0.998	-0.038	-0.011	-0.56	-3.36	-2.59
586	-0.997	-0.041	-0.025	0.0	-2.59	-2.03
606	-1.0	-0.02	-0.02	0.14	-1.54	-1.12
630	-0.983	-0.025	-0.019	-0.84	0.98	-0.07
649	-0.989	-0.031	-0.019	-1.05	2.66	0.84
665	-0.993	-0.027	-0.027	-0.98	3.85	1.82
690	-0.996	-0.027	-0.033	-1.33	5.46	2.94
709	-0.999	-0.026	-0.029	-1.82	6.3	3.5
733	-1.005	-0.034	-0.037	-0.7	6.09	3.5
748	-1.014	-0.0	-0.06	0.42	5.88	3.57
773	-1.018	0.006	-0.063	-0.56	4.13	2.38
789	-1.012	0.019	-0.057	-2.45	3.36	1.26
809	-1.006	-0.003	-0.057	-1.19	2.73	0.98
832	-1.003	-0.019	-0.054	0.14	2.73	0.77
852	-1.007	-0.022	-0.069	1.19	2.45	0.63
869	-1.01	-0.004	-0.07	2.17	1.68	0.28
893	-1.006	0.015	-0.058	0.42	1.82	0.63
913	-1.002	-0.0	-0.061	-0.63	2.31	0.7
933	-1.004	-0.018	-0.061	0.49	2.59	0.91
952	-1.001	-0.007	-0.069	0.56	3.22	0.91
975	-1.001	0.004	-0.072	1.4	3.29	0.84
994	-1.009	0.007	-0.074	-0.14	3.57	1.19
1016	-1.001	0.006	-0.076	-0.35	3.57	1.05
1037	-0.989	-0.016	-0.074	-0.63	3.99	1.47
1058	-0.999	-0.021	-0.08	-0.21	4.48	1.82
1081	-1.002	-0.013	-0.089	1.33	4.62	1.61
1100	-0.997	0.011	-0.083	-0.56	4.55	1.26
1123	-1.001	0.025	-0.085	0.0	3.64	1.54
1143	-1.002	0.017	-0.096	0.49	3.99	1.26
1167	-1.0	0.021	-0.085	-1.47	3.99	1.33
1184	-1.004	-0.015	-0.108	3.08	3.15	0.49
1204	-1.011	0.008	-0.106	1.54	2.1	0.35
1228	-1.003	0.01	-0.111	1.19	1.33	-0.21
1245	-0.992	0.027	-0.115	0.63	1.12	0.35
1269	-1.004	0.022	-0.107	0.35	-0.49	-0.91
1289	-1.009	0.006	-0.108	1.68	-1.61	-1.89
1308	-1.011	0.017	-0.117	2.24	-2.52	-1.96
1332	-1.008	0.017	-0.11	1.33	-3.71	-2.8
1352	-1.006	0.019	-0.113	1.75	-4.41	-3.36
1372	-1.009	0.013	-0.102	1.75	-5.74	-3.64
1397	-1.011	0.007	-0.11	1.89	-6.72	-3.99
1416	-1.005	0.02	-0.1	2.66	-7.63	-4.06
1440	-1.009	0.017	-0.101	1.68	-8.26	-4.62
1460	-1.005	0.015	-0.097	1.33	-8.68	-4.83
1479	-0.996	0.0	-0.095	1.75	-8.47	-4.69
1500	-0.998	-0.003	-0.091	2.17	-8.54	-4.48
1520	-1.0	-0.002	-0.078	1.75	-8.19	-4.27
1535	-1.001	-0.01	-0.083	1.12	-8.05	-4.27
1560	-1.002	-0.0	-0.079	1.96	-7.42	-3.92
1577	-0.996	-0.003	-0.076	2.03	-6.37	-3.71
1600	-0.999	-0.004	-0.074	2.17	-5.53	-3.5
1621	-1.0	0.008	-0.075	2.17	-4.97	-2.94
1636	-1.0	0.001	-0.076	1.54	-4.62	-2.66
1661	-0.997	-0.011	-0.069	1.05	-3.36	-1.96
1680	-0.999	-0.0	-0.073	0.49	-2.73	-1.61
1699	-1.006	0.002	-0.075	0.35	-2.73	-1.4
1723	-1.006	-0.0	-0.077	0.14	-2.1	-1.19
1743	-1.006	0.004	-0.076	0.21	-1.68	-1.19
1763	-0.998	0.002	-0.078	-0.49	-1.05	-1.26
1783	-1.002	-0.009	-0.076	-0.77	-1.26	-1.12
1807	-1.001	-0.009	-0.092	0.0	-2.17	-0.98
1827	-1.007	0.004	-0.086	-0.14	-3.01	-1.12
1845	-1.005	0.008	-0.088	-0.49	-3.36	-1.33
1869	-1.008	0.008	-0.082	-0.42	-4.13	-1.82
1889	-1.003	0.003	-0.081	-0.14	-4.06	-2.17
1908	-0.997	-0.003	-0.079	0.07	-3.64	-2.17
1926	-1.002	-0.005	-0.075	0.42	-3.5	-2.24
1945	-0.998	-0.017	-0.075	0.35	-3.36	-2.17
1965	-0.997	-0.006	-0.075	0.91	-2.38	-1.89
1986	-1.006	0.0	-0.075	0.28	-1.89	-1.96
2006	-1.015	0.01	-0.08	0.14	-1.75	-2.17
2029	-1.005	0.009	-0.079	0.0	-1.33	-2.52
2050	-1.003	0.001	-0.079	-0.77	-1.12	-2.52
2068	-1.005	-0.005	-0.082	0.21	-1.12	-2.31
2089	-1.002	-0.008	-0.081	0.42	-1.05	-2.45
2113	-1.017	-0.002	-0.093	0.98	-1.82	-2.38
2137	-1.017	0.015	-0.093	0.91	-3.43	-3.15
2156	-1.007	0.009	-0.091	0.42	-4.62	-3.92
2177	-1.006	-0.007	-0.098	1.54	-6.3	-4.2
2196	-1.002	-0.001	-0.096	2.52	-7.42	-3.92
2215	-1.002	-0.004	-0.083	2.94	-7.35	-3.78
2239	-1.0	-0.122	-0.087	3.15	-8.33	-3.36
2258	-0.993	-0.024	-0.076	3.85	-7.7	-3.29
2277	-1.008	-0.014	-0.069	4.27	-7.63	-3.15
2297	-1.01	-0.006	-0.067	3.57	-7.21	-3.15
2316	-1.005	-0.012	-0.061	3.64	-6.02	-3.15
2336	-1.001	-0.002	-0.066	2.1	-5.46	-3.08
2359	-0.989	0.006	-0.053	0.07	-4.2	-2.59
2383	-0.973	-0.034	-0.054	0.21	-1.82	-0.84
2403	-0.986	-0.017	-0.057	-0.84	-0.49	0.63
2423	-0.983	-0.006	-0.056	-3.08	1.54	1.75
2443	-0.99	-0.018	-0.052	-5.11	3.01	2.03
2461	-1.004	-0.016	-0.062	-4.9	3.71	1.75
2482	-1.029	0.005	-0.09	-2.1	2.73	1.89
2506	-1.028	0.023	-0.089	-3.78	0.35	0.07
2525	-1.017	0.004	-0.091	-2.38	-1.26	-0.77
2544	-1.009	-0.003	-0.089	-1.4	-2.1	-1.12
2564	-1.008	-0.005	-0.079	0.0	-2.87	-1.47
2588	-1.004	-0.007	-0.091	1.26	-4.55	-2.03
2608	-1.008	-0.004	-0.085	1.75	-5.25	-1.96
2628	-0.999	0.004	-0.079	1.47	-5.32	-2.45
2647	-0.998	-0.001	-0.073	1.54	-5.39	-2.59
2667	-1.004	0.004	-0.067	0.98	-4.69	-2.94
2690	-1.005	-0.004	-0.068	0.56	-4.2	-2.73
2709	-0.997	-0.002	-0.065	-0.07	-3.36	-2.1
2731	-0.992	-0.0	-0.065	-0.84	-2.24	-1.33
2751	-0.998	-0.011	-0.063	-1.82	-0.84	-0.63
2775	-1.001	-0.01	-0.067	-1.54	-0.21	0.21
2793	-0.997	-0.005	-0.074	-1.61	0.56	0.7
2814	-0.995	-0.002	-0.08	-1.47	1.19	1.05
2834	-1.011	0.007	-0.078	-1.54	0.56	0.63
2856	-1.005	0.006	-0.084	-1.19	0.35	0.42
2876	-1.003	0.004	-0.084	-1.68	-0.07	-0.21
2896	-1.006	-0.015	-0.081	-0.84	-0.28	-0.14
2919	-1.008	0.001	-0.086	0.63	-0.63	-0.35
2941	-1.003	0.018	-0.085	0.07	-1.19	-0.77
2960	-1.004	0.002	-0.087	-0.07	-1.54	-0.7
2979	-1.011	0.006	-0.084	-0.14	-1.89	-0.98
2997	-1.007	0.01	-0.082	-0.42	-2.38	-1.26
3016	-1.001	-0.0	-0.085	-0.14	-2.59	-1.33
3041	-1.004	0.008	-0.086	0.0	-2.73	-1.26
3059	-1.005	0.006	-0.085	0.07	-2.8	-1.19
3083	-1.001	0.012	-0.089	-0.56	-2.66	-1.47
3098	-0.998	0.001	-0.083	-0.42	-2.38	-1.4
3123	-0.992	-0.003	-0.081	0.35	-1.26	-1.19
3143	-0.994	0.003	-0.081	1.75	-0.84	-1.05
3163	-0.989	-0.004	-0.085	2.66	-0.14	-0.98
3187	-1.004	0.008	-0.086	3.5	-0.07	-1.26
3206	-1.005	0.008	-0.087	2.59	0.14	-1.05
3225	-1.014	0.013	-0.095	1.68	-0.98	-1.05
3249	-1.0	0.005	-0.09	-0.42	-1.33	-0.49
3270	-0.997	-0.014	-0.093	1.54	-0.84	0.0
3289	-1.001	0.016	-0.079	2.8	-0.28	-0.49
3308	-0.997	0.014	-0.075	3.22	1.12	-0.35
3333	-0.982	-0.02	-0.073	2.38	4.06	0.98
3349	-0.973	-0.016	-0.062	1.68	6.79	2.31
3372	-1.002	0.002	-0.04	0.14	11.9	1.68
3391	-1.036	-0.01	-0.081	0.07	11.34	5.39
3416	-1.035	0.066	-0.131	2.17	11.83	0.42
3434	-1.01	0.043	-0.173	3.92	8.96	-0.7
3458	-1.018	0.051	-0.195	-4.55	1.47	-2.66
3478	-1.014	0.014	-0.189	-1.47	-4.06	-3.85
3497	-1.018	0.017	-0.166	0.98	-11.34	-4.69
3521	-1.021	0.004	-0.141	4.48	-16.38	-5.81
3542	-1.009	0.023	-0.109	5.67	-17.57	-5.95
3560	-0.995	0.014	-0.089	5.04	-16.03	-6.23
3579	-0.991	0.013	-0.086	4.41	-14.21	-5.74
3600	-0.988	-0.016	-0.079	3.43	-12.32	-5.25
3623	-0.988	-0.029	-0.072	4.48	-9.52	-3.92
3644	-0.978	-0.005	-0.064	3.22	-5.81	-2.31
3663	-0.984	-0.019	-0.064	1.82	-2.87	-1.05
3687	-0.983	-0.009	-0.076	1.12	0.14	0.63
3707	-0.982	0.004	-0.075	0.28	2.94	1.54
3727	-0.99	-0.005	-0.071	-0.14	5.67	2.17
3746	-0.985	0.001	-0.076	0.14	8.12	2.52
3766	-0.992	0.004	-0.068	-1.75	10.64	2.59
3786	-1.003	-0.0	-0.114	-0.63	10.15	1.89
3811	-1.013	0.02	-0.116	2.45	7.84	1.54
3826	-1.01	0.039	-0.128	1.33	7.07	0.49
3846	-1.011	0.006	-0.134	0.63	6.16	1.12
3871	-1.012	0.035	-0.145	2.38	3.57	-0.84
3890	-1.026	0.056	-0.157	0.14	0.35	-2.66
3914	-1.011	0.025	-0.168	-1.33	-3.5	-4.76
3934	-1.006	0.021	-0.144	-1.96	-6.93	-4.76
3954	-1.015	-0.002	-0.137	-0.77	-9.73	-4.34
3973	-1.013	0.002	-0.127	0.07	-11.06	-4.2
3994	-0.997	0.029	-0.11	-0.84	-11.34	-4.62
4014	-0.998	0.007	-0.112	-0.28	-11.06	-4.55
4038	-0.983	-0.019	-0.096	1.05	-10.29	-3.71
4057	-0.98	-0.017	-0.091	3.78	-7.42	-2.45
4078	-0.996	-0.002	-0.093	2.59	-5.95	-1.68
4094	-1.004	-0.004	-0.104	2.1	-5.67	-1.4
4117	-1.019	0.021	-0.114	1.96	-6.58	-1.68
4136	-1.015	0.021	-0.109	0.84	-7.42	-2.24
4160	-1.011	0.009	-0.108	0.21	-8.4	-2.73
4180	-1.009	0.007	-0.107	1.68	-9.66	-2.94
4198	-1.001	0.017	-0.099	0.91	-9.94	-3.22
4216	-1.001	0.011	-0.092	-0.42	-9.8	-3.43
4239	-1.002	0.007	-0.088	-1.33	-9.52	-3.64
4263	-1.003	-0.02	-0.09	-0.77	-9.59	-3.01
4283	-1.008	0.001	-0.089	-0.56	-9.38	-3.36
4303	-1.006	0.013	-0.084	-0.21	-9.73	-2.45
4320	-0.998	-0.01	-0.079	-1.05	-9.38	-2.73
4344	-0.997	0.019	-0.077	-3.29	-8.05	-2.24
4364	-0.992	0.01	-0.073	-2.17	-7.77	-0.63
4384	-0.984	-0.037	-0.046	-2.8	-5.11	-1.4
4404	-0.987	-0.027	-0.053	-3.08	-2.66	0.77
4422	-0.989	0.0	-0.051	-1.54	-0.84	1.33
4443	-0.989	0.001	-0.062	-1.96	1.75	1.61
4467	-0.987	0.001	-0.056	-2.1	3.85	2.52
4487	-0.996	-0.014	-0.066	-1.61	5.18	2.66
4507	-1.01	-0.008	-0.088	-0.56	4.55	2.38
4524	-1.008	0.026	-0.103	0.56	3.29	2.59
4548	-1.017	0.025	-0.088	-0.84	2.1	2.03
4567	-1.005	0.008	-0.097	-1.26	1.4	2.45
4588	-0.995	0.008	-0.098	-1.12	0.98	2.66
4611	-0.985	0.017	-0.086	-3.15	1.75	2.87
4632	-0.997	0.015	-0.078	-2.8	2.45	3.01
4654	-0.997	0.003	-0.099	-1.89	3.01	3.15
4675	-1.003	0.041	-0.104	-1.96	2.03	3.29
4694	-1.006	0.036	-0.109	-2.1	0.77	1.75
4716	-1.01	0.048	-0.107	-2.87	-0.49	0.7
4737	-1.011	0.012	-0.121	-0.28	-2.03	-0.21
4757	-1.014	0.025	-0.119	1.12	-4.83	-1.47
4780	-1.013	0.026	-0.118	1.75	-7.14	-2.1
4800	-1.015	0.031	-0.107	2.03	-8.61	-2.66
4819	-0.994	0.026	-0.098	2.52	-8.54	-2.73
4842	-0.984	0.021	-0.088	3.01	-7.28	-2.31
4863	-0.985	0.017	-0.072	2.59	-5.18	-1.54
4881	-0.992	0.015	-0.071	1.75	-3.15	-0.77
4905	-0.988	0.024	-0.072	0.77	-0.7	0.21
4924	-0.991	0.029	-0.08	-0.56	1.05	0.63
4945	-0.988	0.035	-0.079	-2.73	3.43	1.12
4964	-0.993	0.018	-0.086	-2.66	4.9	1.4
4986	-1.008	0.016	-0.097	-1.89	5.11	1.26
5005	-1.013	0.046	-0.11	-1.82	3.99	1.12
5029	-0.999	0.039	-0.115	-2.03	2.87	1.4
5048	-1.006	0.049	-0.118	-1.05	0.77	0.0
5069	-1.007	0.039	-0.118	0.84	-0.14	-0.21
5091	-1.018	0.04	-0.118	2.17	-1.75	-1.12
5111	-1.008	0.03	-0.12	2.73	-2.94	-1.19
5134	-0.996	0.033	-0.104	1.82	-3.01	-1.47
5154	-0.992	0.041	-0.099	2.1	-2.1	-1.68
5173	-0.989	0.033	-0.09	1.96	-0.35	-1.96
5190	-0.996	0.036	-0.107	2.66	0.28	-2.31
5210	-0.995	0.055	-0.116	3.43	0.28	-2.31
5235	-0.995	0.034	-0.128	1.96	-1.05	-2.38
5253	-0.987	0.035	-0.12	0.84	-1.4	-2.38
5273	-0.998	0.029	-0.11	1.05	-1.61	-2.03
5293	-0.986	0.041	-0.109	1.12	-1.33	-2.31
5316	-1.001	0.026	-0.108	0.0	-0.84	-3.01
5337	-1.041	0.026	-0.13	1.47	-3.92	-3.71
5352	-1.025	0.049	-0.128	1.61	-5.88	-4.62
5377	-0.997	0.046	-0.131	2.03	-8.26	-5.95
5396	-1.002	0.032	-0.122	1.68	-9.94	-6.51
5416	-1.021	0.022	-0.112	3.57	-11.48	-7.0
5440	-0.996	0.034	-0.103	3.78	-11.9	-6.65
5460	-0.976	0.017	-0.085	2.31	-9.66	-6.37
5480	-0.982	0.012	-0.069	2.73	-7.28	-5.32
5500	-0.988	-0.0	-0.067	2.45	-3.99	-4.69
5517	-1.005	0.001	-0.065	2.45	-2.24	-3.92
5541	-1.005	0.013	-0.099	2.94	-1.12	-3.64
5561	-1.006	0.038	-0.096	0.56	-1.54	-3.85
5581	-1.009	0.025	-0.108	-0.07	-2.24	-3.92
5598	-1.016	0.029	-0.115	-1.4	-3.85	-3.64
5618	-1.001	0.011	-0.114	-1.68	-5.53	-3.08
5642	-0.996	0.012	-0.114	-1.54	-6.23	-2.17
5662	-1.011	-0.002	-0.101	-1.33	-8.26	-2.52
5681	-0.997	0.023	-0.088	-2.03	-8.19	-2.87
5700	-0.986	0.008	-0.071	0.0	-6.93	-2.66
5719	-0.984	-0.026	-0.065	1.68	-5.32	-1.12
5744	-1.001	0.002	-0.069	2.03	-3.08	-1.12
5759	-1.008	0.024	-0.086	1.05	-2.24	-1.19
5784	-0.998	0.02	-0.085	0.84	-1.47	-1.19
5803	-0.986	0.012	-0.079	1.47	-0.35	-0.98
5826	-0.995	0.013	-0.085	2.03	0.84	-1.4
5845	-0.997	0.015	-0.096	2.1	1.12	-1.19
5866	-0.996	0.015	-0.091	1.75	1.54	-0.98
5890	-1.005	0.007	-0.087	1.47	1.61	-0.84
5910	-1.002	0.012	-0.099	2.1	1.54	-0.84
5930	-1.001	0.009	-0.099	2.73	1.4	-0.84
5945	-1.025	0.026	-0.107	2.73	-0.35	-1.19
5969	-1.01	0.031	-0.112	1.68	-1.75	-2.1
5990	-0.995	0.016	-0.106	1.75	-1.82	-2.66
6007	-1.011	0.011	-0.104	1.96	-2.31	-2.94
6027	-1.013	0.014	-0.105	1.61	-3.85	-3.36
6047	-1.013	0.018	-0.115	0.77	-5.53	-4.06
6068	-1.018	0.026	-0.112	-0.07	-7.63	-4.48
6088	-1.01	0.011	-0.112	-0.42	-8.68	-4.69
6111	-1.004	0.011	-0.106	-0.35	-9.8	-4.62
6135	-1.004	0.009	-0.094	0.14	-10.08	-4.76
6155	-1.009	0.008	-0.091	-0.56	-10.29	-4.69
6173	-1.005	0.021	-0.086	-1.4	-9.94	-4.41
6195	-1.002	-0.0	-0.086	-2.59	-9.59	-4.2
6214	-0.994	0.008	-0.081	-3.57	-8.12	-3.01
6235	-0.981	0.022	-0.066	-3.15	-6.58	-2.73
6254	-0.985	-0.031	-0.056	-2.66	-5.11	-2.59
6271	-0.988	-0.025	-0.063	-0.77	-3.43	-1.68
6295	-0.99	-0.02	-0.051	-1.19	-1.96	-0.56
6311	-0.985	-0.003	-0.072	-0.14	0.28	-0.35
6335	-0.984	-0.007	-0.074	0.42	1.47	0.84
6355	-0.997	-0.01	-0.075	1.82	2.17	1.61
6374	-0.995	-0.015	-0.082	2.87	2.59	2.24
6395	-0.996	-0.002	-0.073	3.5	3.29	2.87
6412	-1.004	0.005	-0.089	3.78	3.78	3.43
6434	-1.002	0.017	-0.083	2.1	4.27	3.5
6458	-1.004	0.02	-0.09	0.49	5.04	3.5
6478	-0.997	0.022	-0.09	-0.98	5.6	3.01
6496	-1.0	0.03	-0.106	-3.29	5.53	2.8
6520	-0.999	0.016	-0.116	-1.75	3.99	1.82
6540	-1.013	0.032	-0.12	-4.55	1.47	1.05
6559	-1.019	0.045	-0.117	-4.13	-0.42	0.14
6583	-1.005	0.021	-0.118	-3.15	-2.17	-0.14
6603	-1.001	0.012	-0.111	-2.03	-3.29	-0.14
6622	-1.01	0.02	-0.104	-1.05	-3.92	0.07
6642	-1.006	0.023	-0.105	-0.49	-4.2	0.21
6660	-0.995	0.022	-0.094	-0.14	-3.78	0.35
6684	-0.996	0.021	-0.093	-0.07	-2.66	0.56
6703	-0.991	0.033	-0.095	2.24	-1.12	0.77
6724	-0.989	0.028	-0.087	0.56	0.21	0.77
6744	-0.992	0.041	-0.092	1.26	1.05	1.47
6764	-0.985	0.05	-0.101	1.19	2.38	1.26
6783	-0.983	0.031	-0.108	4.41	2.59	1.33
6807	-0.997	0.04	-0.096	1.4	4.34	1.47
6826	-0.997	0.03	-0.119	2.52	4.27	1.26
6845	-0.996	0.068	-0.124	0.63	3.64	0.49
6865	-1.018	0.049	-0.121	0.07	2.1	-0.84
6890	-1.007	0.061	-0.129	1.12	-0.49	-1.61
6908	-1.007	0.047	-0.129	-1.4	-1.12	-2.24
6932	-1.023	0.051	-0.128	-1.19	-3.01	-3.22
6952	-1.014	0.038	-0.119	-1.54	-4.27	-3.99
6971	-1.005	0.037	-0.122	-0.28	-4.69	-4.62
6995	-0.999	0.032	-0.119	1.33	-5.25	-4.34
7015	-0.99	0.026	-0.114	1.12	-4.48	-3.57
7035	-0.981	0.018	-0.107	0.28	-3.01	-2.73
7054	-0.987	0.022	-0.111	-0.35	-1.96	-2.1
7073	-0.974	0.032	-0.116	-1.19	-0.91	-1.26
7093	-0.971	0.015	-0.119	-2.1	0.35	-0.28
7117	-0.995	0.016	-0.114	-2.24	1.33	0.28
7137	-1.002	0.041	-0.107	-3.36	2.73	0.14
7154	-1.002	0.05	-0.114	-3.71	3.22	-0.35
7177	-0.999	0.042	-0.126	-4.06	2.94	-1.12
7195	-0.988	0.024	-0.137	-1.12	2.45	-1.05
7215	-0.99	0.036	-0.134	0.49	1.75	-1.12
7239	-1.001	0.027	-0.137	3.08	0.35	-0.63
7256	-1.004	0.034	-0.142	2.73	-0.63	-0.91
7280	-1.005	0.041	-0.144	2.66	-2.24	-1.61
7300	-1.001	0.04	-0.145	2.31	-3.01	-2.1
7319	-0.991	0.037	-0.136	1.82	-3.78	-2.1
7340	-0.995	0.031	-0.135	1.96	-3.85	-2.31
7364	-1.001	0.032	-0.132	2.17	-4.34	-2.31
7382	-0.999	0.038	-0.129	1.82	-4.41	-2.52
7402	-0.994	0.035	-0.127	1.47	-3.64	-2.59
7424	-1.001	0.031	-0.123	1.26	-2.8	-2.17
7447	-1.016	0.021	-0.123	0.84	-2.94	-2.03
7468	-1.011	0.038	-0.136	0.63	-4.34	-2.24
7486	-0.997	0.042	-0.144	0.0	-5.18	-2.66
7505	-0.991	0.025	-0.142	-0.28	-6.16	-2.66
7530	-0.989	0.02	-0.136	0.7	-7.14	-2.1
7548	-0.997	0.026	-0.124	0.91	-7.35	-1.82
7571	-1.002	0.033	-0.116	0.56	-6.79	-2.03
7592	-0.998	0.036	-0.114	-0.28	-5.67	-2.24
7607	-0.998	0.026	-0.106	-1.05	-4.76	-2.52
7632	-0.996	0.037	-0.114	-0.77	-3.85	-2.73
7652	-0.994	0.031	-0.117	-0.84	-3.57	-2.8
7668	-0.996	0.027	-0.123	-0.42	-3.43	-2.8
7692	-0.994	0.02	-0.124	0.28	-3.57	-2.73
7712	-0.998	0.021	-0.118	0.98	-3.5	-2.8
7732	-0.999	0.027	-0.123	1.12	-3.43	-2.66
7755	-0.987	0.026	-0.114	1.68	-2.94	-2.24
7774	-1.001	0.022	-0.112	1.33	-2.45	-1.75
7794	-0.995	0.025	-0.107	1.12	-2.03	-1.61
7814	-0.988	0.028	-0.111	-0.07	-0.77	-1.54
7838	-1.0	0.032	-0.113	0.21	-0.14	-1.89
7858	-0.987	0.034	-0.109	-0.7	0.91	-1.89
7876	-0.989	0.029	-0.115	-0.91	1.89	-1.75
7897	-0.996	0.02	-0.117	-1.12	2.38	-1.61
7918	-0.993	0.017	-0.123	-1.4	2.73	-1.47
7942	-1.003	0.025	-0.126	-0.7	2.1	-1.75
7961	-0.996	0.03	-0.129	-1.26	1.61	-1.33
7981	-1.008	0.021	-0.139	0.0	1.19	-1.61
8001	-1.017	0.038	-0.148	-0.35	-0.56	-1.4
8021	-1.008	0.04	-0.147	-0.84	-2.31	-1.61
8045	-1.003	0.03	-0.154	-0.42	-4.69	-2.03
8065	-0.995	0.024	-0.144	0.0	-6.37	-2.03
8083	-0.995	0.026	-0.138	0.21	-7.21	-1.82
8106	-1.006	0.029	-0.132	0.21	-8.19	-1.96
8125	-1.003	0.037	-0.125	-0.7	-8.54	-2.17
8150	-0.999	0.025	-0.128	-0.21	-8.26	-2.38
8169	-1.002	0.026	-0.122	0.0	-8.61	-2.52
8190	-0.992	0.03	-0.112	-1.05	-7.49	-2.17
8209	-0.99	0.022	-0.11	-1.05	-6.65	-2.1
8233	-0.987	0.026	-0.109	-0.56	-6.02	-1.12
8253	-0.976	0.018	-0.109	-0.49	-4.27	-0.56
8272	-0.982	0.014	-0.102	0.28	-2.1	0.28
8293	-0.989	0.02	-0.098	0.21	-0.42	1.12
8313	-0.984	0.025	-0.102	-0.28	1.89	1.54
8333	-0.994	0.029	-0.104	-0.63	3.5	1.61
8352	-1.002	0.046	-0.117	-1.75	3.71	1.82
8371	-0.99	0.038	-0.131	-3.22	3.5	1.82
8391	-0.986	0.042	-0.126	-4.34	3.08	1.54
8415	-0.985	0.025	-0.133	-3.08	1.75	1.47
8435	-0.991	0.039	-0.141	-2.1	0.63	1.12
8455	-1.001	0.036	-0.142	-1.61	-0.56	0.77
8475	-1.008	0.043	-0.136	-1.47	-1.68	0.42
8495	-1.014	0.036	-0.138	-1.19	-2.73	0.63
8519	-0.999	0.044	-0.132	-0.49	-3.29	0.28
8539	-0.992	0.052	-0.13	0.07	-3.22	-0.35
8559	-0.997	0.042	-0.134	1.12	-3.43	-0.98
8579	-1.008	0.046	-0.131	1.4	-4.2	-1.47
8598	-0.996	0.049	-0.132	1.75	-4.69	-1.61
8621	-0.999	0.04	-0.127	1.33	-4.76	-1.96
8641	-0.996	0.048	-0.124	1.82	-4.62	-2.03
8665	-0.997	0.044	-0.127	1.82	-4.27	-2.45
8684	-1.0	0.044	-0.127	1.12	-4.62	-2.73
8705	-0.988	0.038	-0.131	1.33	-4.9	-2.73
8728	-0.991	0.043	-0.132	1.33	-4.97	-2.38
8747	-0.998	0.04	-0.128	0.7	-5.39	-2.38
8766	-0.996	0.035	-0.12	0.35	-5.11	-2.45
8787	-0.995	0.042	-0.114	0.35	-4.41	-2.59
8811	-0.996	0.035	-0.11	0.35	-3.5	-2.24
8831	-0.993	0.033	-0.114	0.35	-2.59	-1.75
8849	-0.993	0.031	-0.112	-17.71	-1.47	-1.33
8871	-1.003	0.037	-0.114	0.0	-0.63	-1.12
8888	-0.996	0.033	-0.119	-0.07	-0.07	-0.84
8912	-0.995	0.037	-0.122	0.49	0.35	-0.49
8932	-0.991	0.043	-0.125	0.77	0.42	-0.49
8950	-0.99	0.044	-0.126	0.07	0.42	-0.63
8974	-0.996	0.041	-0.126	0.77	0.35	-0.91
8994	-0.997	0.05	-0.121	1.12	0.91	-1.26
9014	-0.994	0.046	-0.13	1.33	0.77	-1.82
9029	-0.996	0.043	-0.135	1.47	0.56	-2.03
9053	-0.999	0.046	-0.141	1.19	-0.42	-2.59
9074	-1.003	0.045	-0.148	0.49	-2.03	-3.15
9094	-0.999	0.04	-0.148	0.49	-3.71	-3.36
9118	-0.993	0.043	-0.145	0.63	-5.04	-3.22
9138	-0.994	0.035	-0.135	0.98	-5.74	-3.43
9158	-1.007	0.036	-0.133	0.77	-6.02	-3.01
9177	-0.993	0.034	-0.134	1.33	-6.44	-2.31
9198	-0.993	0.019	-0.125	1.26	-6.09	-1.47
9218	-1.007	0.033	-0.122	1.05	-6.23	-1.19
9237	-1.003	0.043	-0.117	1.33	-5.88	-1.26
9256	-0.992	0.04	-0.116	0.98	-4.9	-1.33
9281	-0.983	0.037	-0.116	1.33	-3.15	-1.12
9301	-0.99	0.037	-0.116	1.19	-2.31	-0.98
9320	-0.999	0.034	-0.121	0.91	-2.17	-0.7
9339	-0.998	0.031	-0.12	0.84	-1.89	-0.63
9364	-0.999	0.039	-0.117	0.56	-0.98	-0.63
9383	-1.002	0.045	-0.122	0.21	-0.49	-0.84
9399	-1.006	0.045	-0.126	-0.21	-0.77	-0.98
9419	-1.008	0.036	-0.135	-0.21	-1.61	-1.26
9444	-0.997	0.053	-0.139	-0.98	-3.15	-1.82
9464	-0.995	0.041	-0.139	-1.05	-4.2	-2.17
9488	-0.991	0.039	-0.132	0.21	-5.04	-1.96
9507	-0.987	0.034	-0.126	1.33	-5.18	-2.03
9523	-0.988	0.038	-0.127	0.7	-5.25	-2.24
9548	-0.991	0.033	-0.122	0.91	-5.11	-2.1
9567	-0.991	0.037	-0.115	1.68	-4.27	-1.82
9586	-0.986	0.039	-0.107	1.75	-1.89	-1.61
9609	-0.986	0.04	-0.102	2.17	1.12	-1.19
9630	-0.981	0.031	-0.101	2.17	3.99	-0.98
9650	-0.976	0.037	-0.099	3.22	7.14	-0.07
9669	-0.979	0.01	-0.118	3.57	8.68	0.42
9689	-1.002	0.021	-0.123	3.5	8.82	0.49
9705	-0.993	0.055	-0.145	7.42	7.56	0.7
9725	-0.999	0.048	-0.141	5.04	8.19	0.07
9750	-1.019	0.039	-0.153	6.02	5.81	-0.98
9767	-1.017	0.068	-0.184	6.02	3.78	-1.05
9788	-1.006	0.089	-0.175	2.38	1.26	-2.1
9812	-1.022	0.058	-0.201	2.66	-5.25	-3.29
9831	-1.016	0.063	-0.187	2.94	-8.89	-5.18
9849	-1.01	0.061	-0.173	2.03	-11.83	-6.93
9873	-1.018	0.054	-0.167	3.57	-15.26	-8.33
9890	-0.998	0.05	-0.15	2.24	-16.66	-8.75
9914	-0.996	0.029	-0.142	1.68	-17.64	-8.68
9934	-0.997	0.028	-0.001	1.12	-17.43	-8.05
9954	-1.001	0.014	-0.13	1.26	-17.92	-6.65
9971	-1.001	0.007	-0.128	-0.28	-18.2	-6.72
9991	-0.997	0.046	-0.098	-0.28	-17.29	-5.6
10015	-0.99	0.036	-0.104	-1.68	-16.94	-5.39
10035	-0.996	0.002	-0.074	-3.5	-15.89	-5.25
10055	-0.996	0.043	-0.086	-2.52	-13.93	-5.6
10075	-0.98	0.055	-0.08	-4.69	-12.67	-5.88
10094	-0.98	-0.007	-0.061	-2.59	-11.13	-5.04
10119	-0.993	0.003	-0.065	0.56	-9.24	-4.13
10138	-0.983	0.002	-0.065	2.45	-7.28	-3.36
10158	-0.982	0.009	-0.068	2.52	-4.76	-2.38
10178	-0.994	0.01	-0.066	1.68	-2.94	-1.68
10202	-0.986	0.004	-0.067	0.42	-0.21	-1.19
10219	-0.992	0.003	-0.082	0.28	0.7	-0.7
10240	-1.002	0.002	-0.087	0.91	0.84	0.14
10264	-0.996	0.025	-0.086	0.49	0.91	1.05
10288	-1.001	0.027	-0.083	-0.56	1.33	1.12
10307	-0.999	0.013	-0.085	-1.61	1.68	1.05
10328	-1.001	0.02	-0.099	-0.14	1.4	1.05
10345	-1.001	0.027	-0.092	-1.19	0.91	0.7
10364	-0.987	0.019	-0.089	-0.91	1.82	0.77
10389	-1.004	0.027	-0.09	-0.7	2.38	0.63
10408	-1.021	0.028	-0.101	-0.35	1.68	0.14
10428	-1.008	0.035	-0.108	-1.19	0.98	-0.14
10452	-1.01	0.02	-0.105	-1.47	-0.14	-0.21
10471	-1.015	0.028	-0.116	-0.42	-1.82	0.0
10491	-1.01	0.033	-0.113	-0.7	-2.87	-0.63
10509	-1.007	0.034	-0.106	-0.56	-3.71	-0.98
10533	-0.997	0.029	-0.099	0.49	-3.64	-1.19
10553	-0.991	0.025	-0.081	0.56	-2.24	-1.54
10573	-1.001	0.025	-0.097	0.42	-1.26	-1.61
10596	-0.993	0.032	-0.101	0.84	-0.84	-1.54
10617	-0.982	0.016	-0.099	0.63	0.7	-0.84
10634	-0.981	0.005	-0.09	1.05	2.17	-0.35
10658	-0.995	0.015	-0.084	1.19	3.85	-0.42
10678	-1.005	0.005	-0.097	0.0	5.46	-0.84
10695	-1.021	0.019	-0.133	1.96	4.2	-1.4
10718	-1.021	0.068	-0.13	-0.7	2.87	-2.38
10739	-1.026	0.048	-0.145	-2.1	-0.56	-3.85
10757	-1.02	0.035	-0.147	-1.12	-3.01	-4.62
10777	-1.015	0.029	-0.146	-0.07	-6.93	-5.53
10797	-1.009	0.037	-0.132	-0.21	-9.38	-6.16
10816	-0.999	0.025	-0.127	0.0	-11.13	-6.23
10836	-0.986	0.023	-0.105	-0.49	-10.71	-5.46
10861	-0.981	0.009	-0.094	-0.21	-9.8	-4.69
10877	-0.98	0.006	-0.093	-0.56	-7.84	-3.57
10896	-0.981	-0.014	-0.075	0.49	-5.11	-2.31
10920	-0.995	-0.003	-0.084	1.82	-2.66	-0.56
10940	-0.989	0.022	-0.083	0.28	-0.56	-0.21
10961	-0.995	0.018	-0.103	0.42	0.91	0.07
10980	-0.995	0.017	-0.108	0.28	1.33	0.35
11003	-1.002	0.016	-0.11	1.33	0.84	0.56
11023	-1.002	0.027	-0.114	1.82	-0.14	0.84
11042	-1.0	0.027	-0.12	0.84	-0.98	0.56
11067	-1.009	0.02	-0.124	0.98	-2.38	0.63
11087	-0.993	0.033	-0.111	1.54	-3.15	0.14
11106	-0.996	0.037	-0.107	1.05	-2.59	-0.14
11127	-1.004	0.028	-0.106	0.7	-2.52	-0.56
11147	-0.995	0.033	-0.088	-0.35	-1.05	-0.35
11166	-0.997	0.01	-0.081	-1.89	0.49	-0.7
11191	-1.008	0.025	-0.119	-0.7	-0.14	-0.77
11211	-1.003	0.032	-0.114	-2.24	0.35	-1.12
11230	-0.999	0.034	-0.107	-3.43	-0.14	-1.82
11250	-1.0	0.02	-0.111	-1.82	0.28	-1.75
11271	-1.006	0.044	-0.118	-1.54	0.56	-2.24
11290	-0.986	0.034	-0.111	-2.24	1.19	-2.17
11314	-0.964	0.016	-0.094	-2.38	4.27	-0.98
11332	-0.953	-0.053	-0.046	-3.43	9.59	1.33
11356	-1.01	-0.008	-0.143	0.7	9.24	1.75
11376	-1.01	0.044	-0.137	3.85	9.1	1.82
11395	-1.018	0.036	-0.15	3.29	8.61	1.33
11416	-1.005	0.037	-0.129	4.27	8.19	0.77
11436	-0.996	0.052	-0.153	5.95	7.49	1.89
11460	-0.984	0.04	-0.149	1.26	7.07	0.14
11480	-1.001	0.028	-0.175	3.64	5.88	-0.28
11498	-1.009	0.039	-0.172	2.1	4.2	-0.35
11517	-1.003	0.039	-0.189	4.27	1.12	-0.49
11537	-1.006	0.039	-0.174	4.62	-0.7	-0.7
11561	-1.011	0.029	-0.17	6.86	-3.99	-1.33
11580	-1.008	0.059	-0.184	4.41	-5.81	-1.89
11599	-1.015	0.061	-0.179	3.29	-9.03	-3.08
11623	-1.011	0.022	-0.182	3.57	-12.39	-4.34
11641	-1.014	0.045	-0.17	4.76	-15.05	-5.25
11661	-1.017	0.041	-0.167	4.97	-17.5	-6.37
11686	-1.017	0.049	-0.157	3.15	-19.88	-7.77
11705	-1.002	0.043	-0.148	1.33	-21.21	-8.26
11724	-1.014	0.029	-0.135	-0.21	-22.4	-8.68
11749	-1.022	0.028	-0.123	0.84	-23.1	-8.4
11769	-0.999	0.009	-0.109	3.43	-23.1	-8.68
11789	-0.99	0.014	-0.119	3.01	-22.61	-7.0
11809	-0.987	0.005	-0.104	-0.14	-22.33	-7.63
11833	-0.967	0.071	-0.073	-9.87	-17.43	-9.73
11853	-0.945	-0.006	-0.04	3.5	-17.36	-4.76
11873	-0.968	0.05	-0.029	-0.35	-12.81	-6.23
11897	-0.978	-0.019	-0.031	0.77	-10.92	-4.48
11916	-0.97	0.019	-0.025	-1.33	-7.28	-2.87
11940	-0.97	-0.033	-0.041	-2.03	-2.52	-0.63
11960	-0.992	-0.005	-0.039	-1.54	-0.07	0.21
11978	-0.994	-0.0	-0.059	-1.12	2.66	1.47
12001	-0.983	-0.004	-0.059	-1.26	4.9	2.59
12021	-0.977	0.007	-0.054	-1.12	7.63	3.29
12045	-0.983	-0.003	-0.077	-0.56	8.89	3.85
12065	-1.009	-0.007	-0.09	-2.17	8.26	4.06
12084	-1.012	0.005	-0.095	0.0	7.63	4.13
12104	-1.007	0.032	-0.104	-0.21	6.86	4.41
12127	-0.989	0.029	-0.083	-1.61	7.49	3.57
12148	-1.005	0.002	-0.093	-1.82	7.77	3.71
12171	-1.025	0.038	-0.112	0.63	6.37	3.43
12195	-1.012	0.053	-0.123	-0.35	4.13	2.66
12215	-1.014	0.024	-0.128	-0.77	3.01	2.87
12234	-0.993	0.043	-0.12	-1.54	1.89	2.38
12257	-0.986	0.014	-0.115	-0.28	2.03	2.38
12277	-0.996	0.03	-0.116	0.77	1.61	3.15
12297	-0.999	0.04	-0.111	-0.21	2.24	2.17
12317	-0.993	0.049	-0.118	1.82	1.89	2.1
12341	-0.998	0.039	-0.122	1.96	2.38	2.24
12356	-1.02	-0.026	-0.127	6.37	1.4	1.61
12381	-1.02	0.041	-0.135	2.1	-0.28	0.84
12399	-1.002	0.079	-0.151	1.89	-0.63	0.0
12418	-1.008	0.063	-0.146	0.07	-2.94	-1.12
12442	-1.012	0.035	-0.147	0.77	-6.44	-2.1
12462	-1.014	0.042	-0.135	1.05	-8.05	-3.01
12482	-1.008	0.044	-0.135	0.98	-9.59	-3.5
12498	-0.997	0.045	-0.129	1.33	-10.08	-3.57
12521	-0.985	0.037	-0.118	1.75	-9.87	-3.5
12542	-0.988	0.036	-0.1	2.38	-8.4	-3.5
12561	-0.994	0.046	-0.092	2.03	-6.37	-3.22
12586	-0.984	0.038	-0.081	0.77	-3.22	-2.8
12606	-0.996	0.035	-0.097	0.77	-1.4	-2.45
12630	-0.99	0.036	-0.107	0.21	-0.42	-2.1
12649	-0.976	0.031	-0.112	-0.35	0.21	-1.61
12668	-0.985	0.02	-0.116	-0.42	0.21	-0.7
12688	-0.993	0.037	-0.116	-0.7	0.21	-0.21
12712	-1.007	0.031	-0.115	-1.12	-0.14	-0.21
12732	-1.01	0.04	-0.117	-1.33	0.0	-0.07
12751	-1.012	0.033	-0.118	-0.14	-0.7	0.28
12772	-0.995	0.041	-0.125	-0.21	-1.54	0.21
12790	-0.983	0.041	-0.127	-0.98	-1.68	0.28
12813	-0.982	0.03	-0.125	0.84	-1.68	0.56
12834	-0.996	0.044	-0.12	2.38	-1.96	0.07
12858	-1.01	0.062	-0.118	1.4	-2.52	-0.7
12878	-1.009	0.052	-0.126	0.28	-3.85	-1.12
12896	-0.997	0.038	-0.126	0.98	-4.2	-1.33
12917	-0.996	0.05	-0.121	0.56	-4.62	-1.4
12941	-0.989	0.038	-0.116	0.0	-4.06	-1.12
12961	-0.987	0.043	-0.117	0.49	-3.43	-0.77
12981	-0.976	0.046	-0.107	0.56	-1.75	0.0
13001	-0.976	0.031	-0.089	0.42	1.75	0.91
13021	-0.986	0.042	-0.074	-1.54	4.76	1.12
13044	-0.999	0.017	-0.099	0.91	7.84	2.24
13066	-0.999	0.041	-0.109	4.41	9.24	2.52
13085	-1.003	0.07	-0.137	3.99	9.45	2.03
13105	-1.01	0.048	-0.141	7.35	7.35	1.54
13124	-1.018	0.08	-0.163	4.2	5.53	1.61
13145	-1.016	0.071	-0.17	3.64	0.7	-1.82
13165	-1.003	0.094	-0.159	-0.56	-2.38	-2.24
13185	-1.008	0.057	-0.165	0.56	-4.76	-3.22
13205	-1.006	0.059	-0.158	1.61	-7.0	-4.13
13229	-1.004	0.052	-0.142	1.33	-8.19	-4.97
13248	-0.995	0.046	-0.138	2.31	-8.68	-4.76
13269	-0.983	0.038	-0.126	2.66	-7.77	-4.48
13289	-0.979	0.042	-0.112	2.17	-5.18	-3.85
13309	-0.982	0.038	-0.102	1.4	-2.17	-3.01
13332	-0.986	0.02	-0.116	0.63	1.05	-1.26
13349	-0.993	0.04	-0.121	1.33	1.68	-0.56
13373	-0.992	0.047	-0.131	0.14	2.8	-0.63
13392	-1.005	0.045	-0.15	0.0	2.52	-0.7
13416	-1.003	0.051	-0.157	-0.21	0.14	-1.54
13436	-1.01	0.052	-0.153	-0.63	-1.54	-2.24
13456	-1.014	0.06	-0.157	0.14	-3.85	-3.29
13476	-1.01	0.055	-0.158	0.49	-6.3	-4.41
13499	-0.999	0.045	-0.151	0.28	-7.91	-4.62
13520	-1.004	0.036	-0.145	1.19	-9.38	-4.76
13540	-1.004	0.035	-0.134	1.12	-10.43	-4.62
13560	-0.997	0.038	-0.139	1.33	-10.64	-4.2
13580	-0.997	0.042	-0.132	0.42	-10.71	-4.13
13600	-0.997	0.039	-0.123	0.14	-10.36	-4.2
13621	-1.0	0.044	-0.126	-0.35	-10.5	-3.99
13644	-1.005	0.043	-0.123	-1.19	-10.43	-4.13
13665	-1.003	0.053	-0.121	-2.94	-10.85	-3.92
13685	-0.992	0.036	-0.114	-3.22	-10.71	-4.41
13708	-0.994	0.022	-0.105	-3.15	-9.94	-4.34
13729	-0.997	0.014	-0.114	-1.82	-9.73	-3.5
13749	-0.998	0.041	-0.105	-3.29	-9.17	-3.71
13768	-0.994	0.066	-0.109	-3.36	-9.1	-3.36
13792	-0.991	0.029	-0.113	-3.22	-8.96	-3.92
13812	-0.995	0.011	-0.088	-2.38	-7.49	-3.36
13831	-0.978	0.014	-0.087	-0.35	-5.6	-2.45
13851	-0.981	0.006	-0.065	0.42	-3.08	-1.12
13874	-0.985	0.006	-0.087	0.98	-0.35	0.42
13895	-0.994	0.024	-0.087	1.47	1.33	1.61
13915	-0.989	0.029	-0.083	1.68	3.57	1.96
13934	-0.982	0.041	-0.088	0.91	5.67	2.59
13955	-0.986	0.025	-0.093	0.98	6.79	3.36
13974	-1.004	0.028	-0.1	1.68	7.21	3.15
13995	-1.008	0.052	-0.112	0.77	6.93	3.22
14015	-1.015	0.062	-0.135	1.82	5.88	3.43
14039	-1.016	0.051	-0.144	1.75	3.08	3.01
14059	-1.01	0.058	-0.13	0.35	1.89	0.77
14083	-1.012	0.062	-0.152	1.47	-1.47	-0.63
14103	-1.006	0.07	-0.144	0.35	-3.57	-1.47
14120	-0.996	0.046	-0.138	0.7	-4.97	-1.75
14144	-0.993	0.04	-0.122	1.89	-5.81	-2.03
14164	-0.99	0.038	-0.114	1.61	-5.18	-1.68
14188	-0.99	0.037	-0.112	1.61	-3.5	-0.98
14208	-0.995	0.046	-0.107	1.33	-1.89	-1.19
14226	-0.994	0.042	-0.103	0.91	-0.42	-0.98
14248	-0.992	0.038	-0.11	1.26	1.05	-0.7
14268	-0.989	0.05	-0.117	2.03	2.1	-0.42
14292	-0.989	0.05	-0.132	1.12	1.89	-0.42
14311	-0.996	0.04	-0.139	1.05	1.26	-0.7
14335	-1.006	0.047	-0.137	-0.84	-0.07	-0.98
14352	-1.015	0.052	-0.144	-1.26	-1.19	-1.19
14376	-1.007	0.061	-0.142	-0.56	-3.78	-1.54
14396	-0.998	0.051	-0.135	0.0	-4.83	-1.96
14416	-1.001	0.053	-0.136	0.7	-5.67	-2.52
14436	-0.994	0.05	-0.13	0.63	-6.16	-2.73
14461	-0.978	0.049	-0.12	1.05	-5.04	-2.87
14480	-0.984	0.044	-0.106	1.47	-3.29	-2.59
14499	-0.998	0.04	-0.109	1.19	-1.75	-2.94
14520	-1.01	0.053	-0.126	0.42	-1.75	-3.22
14543	-1.012	0.061	-0.143	-0.14	-3.57	-3.92
14567	-1.001	0.059	-0.14	-1.33	-5.32	-4.48
14587	-0.998	0.043	-0.134	-1.47	-6.09	-4.76
14606	-0.991	0.041	-0.127	-1.19	-6.72	-4.9
14630	-0.98	0.031	-0.117	-0.14	-6.58	-4.06
14649	-0.981	0.018	-0.116	0.98	-5.74	-3.57
14668	-1.001	0.028	-0.109	2.94	-5.25	-2.94
14692	-0.997	0.057	-0.111	1.96	-4.55	-2.73
14712	-0.983	0.036	-0.11	1.33	-2.8	-2.03
14731	-0.991	0.031	-0.114	2.17	-1.82	-1.26
14751	-1.011	0.031	-0.108	1.89	-1.33	-0.84
14771	-1.013	0.038	-0.124	0.98	-2.38	-1.05
14793	-1.003	0.043	-0.129	0.21	-3.08	-1.26
14815	-0.998	0.033	-0.13	1.26	-4.41	-1.4
14839	-1.008	0.049	-0.124	1.47	-6.23	-1.96
14859	-0.999	0.043	-0.12	1.96	-6.58	-2.03
14879	-0.991	0.033	-0.108	2.03	-5.88	-1.82
14898	-0.985	0.029	-0.097	3.57	-3.85	-0.91
14916	-0.982	0.033	-0.084	3.29	-0.7	-0.14
14935	-0.986	0.018	-0.079	2.8	3.22	0.21
14960	-0.999	0.027	-0.096	4.2	5.25	0.91
14980	-0.993	0.046	-0.122	3.43	6.16	1.33
14999	-1.0	0.05	-0.137	1.96	5.25	0.91
15020	-1.007	0.061	-0.143	0.28	3.5	0.21
15039	-1.003	0.07	-0.134	-1.54	2.1	-0.98
15058	-0.992	0.046	-0.138	-2.8	0.98	-1.68
15082	-0.997	0.032	-0.142	-1.82	-0.28	-1.82
15102	-1.006	0.048	-0.142	-0.21	-2.03	-1.54
15126	-1.004	0.051	-0.14	-0.21	-3.71	-2.17
15146	-0.997	0.047	-0.134	0.21	-4.34	-2.45
15161	-0.999	0.041	-0.125	0.42	-4.41	-2.94
15184	-0.995	0.042	-0.134	1.68	-4.48	-2.73
15201	-0.995	0.044	-0.129	1.26	-4.55	-2.73
15224	-0.991	0.05	-0.13	1.19	-4.2	-2.73
15246	-0.992	0.041	-0.122	1.05	-2.94	-2.59
15266	-0.986	0.033	-0.109	0.7	-1.19	-2.31
15283	-0.989	0.036	-0.116	1.33	0.14	-1.75
15307	-0.988	0.03	-0.121	0.7	1.89	-1.19
15326	-0.993	0.022	-0.134	1.19	1.75	-0.84
15344	-0.997	0.043	-0.148	2.03	0.35	-1.05
15368	-1.01	0.058	-0.153	1.05	-1.96	-1.75
15388	-1.012	0.048	-0.154	1.12	-4.2	-2.52
15403	-1.012	0.055	-0.152	0.98	-6.16	-3.57
15427	-1.011	0.045	-0.145	0.77	-8.54	-4.76
15445	-1.011	0.042	-0.148	1.05	-10.57	-4.9
15464	-0.995	0.035	-0.135	0.91	-11.83	-5.04
15489	-1.001	0.044	-0.122	0.98	-12.11	-5.04
15509	-0.997	0.041	-0.114	0.28	-11.69	-4.97
15528	-1.005	0.031	-0.118	-0.14	-11.41	-5.11
15552	-1.005	0.042	-0.119	1.05	-11.55	-4.76
15572	-0.992	0.045	-0.115	-1.75	-11.9	-4.41
15589	-0.998	0.033	-0.099	-2.45	-11.76	-3.99
15612	-1.009	0.035	-0.091	-2.59	-10.92	-2.66
15630	-0.989	0.052	-0.087	-1.26	-10.08	-2.94
15652	-0.988	0.039	-0.071	-3.78	-8.33	-3.29
15672	-0.984	0.01	-0.091	-0.56	-7.28	-2.03
15691	-0.987	0.003	-0.083	0.56	-5.95	-1.26
15714	-0.985	0.022	-0.09	1.4	-4.27	-1.26
15738	-0.994	0.027	-0.076	1.54	-2.1	-0.56
15756	-0.994	0.054	-0.08	0.56	-0.91	-0.21
15776	-0.994	0.022	-0.083	-0.35	0.98	0.0
15798	-0.992	0.021	-0.092	0.77	2.31	0.49
15820	-0.985	0.022	-0.085	1.61	3.71	0.98
15839	-0.989	0.032	-0.101	0.91	5.25	1.33
15864	-0.989	0.037	-0.087	-0.28	6.79	1.75
15881	-1.005	0.008	-0.107	0.0	6.23	1.4
15905	-1.018	0.058	-0.112	-1.26	5.6	1.05
15924	-1.017	0.055	-0.138	-3.01	3.15	0.56
15945	-1.008	0.064	-0.142	-3.85	0.35	-0.91
15966	-0.995	0.039	-0.141	-2.24	-1.33	-1.33
15990	-1.02	0.043	-0.133	0.28	-3.85	-2.1
16008	-1.003	0.052	-0.12	0.63	-4.2	-2.31
16031	-0.982	0.043	-0.112	0.42	-3.85	-3.08
16052	-0.993	0.015	-0.102	1.12	-2.66	-3.01
16070	-0.987	0.007	-0.113	3.01	-1.96	-2.1
16091	-0.992	0.027	-0.114	4.06	-1.33	-1.33
16110	-1.001	0.043	-0.106	2.45	-0.63	-1.4
16135	-1.0	0.037	-0.111	2.59	0.56	-1.26
16154	-0.997	0.03	-0.123	3.64	0.98	-1.33
16173	-0.996	0.047	-0.126	3.22	0.77	-1.89
16197	-1.003	0.034	-0.131	0.7	-0.98	-2.24
16218	-1.021	0.044	-0.144	0.98	-3.78	-2.31
16242	-1.015	0.057	-0.141	0.35	-6.79	-3.92
16262	-1.005	0.06	-0.13	-0.49	-8.12	-4.76
16282	-1.005	0.03	-0.125	0.77	-9.45	-5.25
16306	-0.998	0.038	-0.124	1.61	-10.01	-5.11
16324	-0.997	0.026	-0.111	1.68	-9.66	-5.18
16346	-0.985	0.017	-0.098	3.29	-8.19	-3.92
16370	-0.981	0.019	-0.083	2.94	-5.25	-3.5
16390	-0.983	0.029	-0.089	1.89	-1.96	-2.52
16410	-0.989	0.036	-0.094	1.33	0.28	-2.24
16428	-0.998	0.032	-0.103	0.35	2.17	-1.89
16448	-1.007	0.014	-0.115	-0.07	1.68	-1.68
16472	-1.013	0.039	-0.123	0.07	0.07	-1.96
16490	-1.002	0.041	-0.141	-1.19	-1.96	-2.38
16514	-0.989	0.032	-0.13	-0.98	-3.71	-2.31
16534	-0.998	0.022	-0.116	-0.07	-4.41	-2.24
16557	-1.003	0.031	-0.112	0.14	-4.62	-2.24
16577	-1.006	0.042	-0.108	0.07	-4.97	-2.66
16596	-1.001	0.034	-0.119	-0.14	-5.32	-3.08
16620	-1.002	0.015	-0.115	0.21	-6.44	-3.36
16644	-1.007	0.049	-0.122	-0.14	-7.7	-3.5
16664	-0.998	0.025	-0.113	-1.68	-8.26	-2.87
16684	-0.999	0.034	-0.107	-1.05	-7.98	-2.59
16704	-0.996	0.034	-0.102	-1.26	-7.77	-1.89
16721	-0.996	-0.007	-0.088	0.0	-6.86	-1.89
16741	-0.995	-0.001	-0.084	-0.91	-4.13	-1.61
16765	-0.99	0.007	-0.078	0.63	-1.19	-0.56
16785	-0.985	0.014	-0.078	0.98	1.68	0.49
16805	-0.985	0.019	-0.082	1.4	4.55	1.19
16823	-0.992	0.01	-0.08	0.98	7.77	2.1
16845	-1.008	0.036	-0.101	3.01	9.45	2.66
16860	-0.976	0.058	-0.107	0.21	11.06	2.45
16885	-0.987	0.001	-0.108	-6.23	12.95	2.66
16909	-1.0	-0.008	-0.114	-3.01	12.67	2.17
16929	-0.997	0.003	-0.136	-0.42	11.55	3.01
16948	-1.001	0.055	-0.153	2.87	7.91	1.96
16969	-0.991	0.093	-0.145	4.27	6.3	0.84
16993	-1.004	0.068	-0.176	1.54	2.73	0.28
17011	-1.012	0.068	-0.177	0.35	0.21	-1.75
17035	-1.005	0.044	-0.177	0.14	-3.99	-2.66
17055	-1.009	0.037	-0.158	0.91	-6.09	-2.73
17075	-1.003	0.048	-0.147	1.68	-7.21	-3.29
17098	-0.995	0.058	-0.142	-0.14	-6.79	-4.13
17114	-0.987	0.039	-0.133	0.0	-6.16	-4.13
17139	-0.974	0.014	-0.114	1.54	-3.22	-3.22
17159	-0.977	0.027	-0.12	1.82	-0.91	-2.52
17177	-0.976	0.028	-0.126	1.61	1.19	-1.89
17196	-0.977	0.032	-0.124	1.61	3.15	-1.47
17221	-0.993	0.041	-0.117	-0.42	3.99	-1.05
17237	-1.008	0.011	-0.16	0.49	3.57	-1.4
17261	-1.023	0.061	-0.165	0.91	0.42	-2.8
17285	-1.027	0.057	-0.196	0.42	-5.04	-3.85
17304	-1.022	0.063	-0.181	0.91	-9.17	-5.53
17324	-1.027	0.042	-0.172	1.68	-13.3	-6.79
17347	-1.013	0.03	-0.161	2.59	-16.03	-7.0
17363	-1.012	0.02	-0.148	0.35	-17.15	-7.7
17388	-1.005	0.037	-0.146	1.75	-18.9	-7.63
17406	-0.99	0.016	-0.131	2.31	-19.11	-7.28
17431	-0.989	-0.003	-0.117	4.06	-18.83	-5.32
17448	-0.995	0.028	-0.102	5.81	-18.34	-5.25
17470	-0.999	0.028	-0.1	4.27	-17.15	-5.67
17489	-0.996	0.03	-0.094	1.4	-15.75	-5.46
17514	-0.987	0.013	-0.067	-3.29	-12.32	-4.9
17533	-0.976	-0.0	-0.086	-1.4	-12.25	-2.94
17552	-1.0	-0.012	-0.069	0.98	-10.99	-2.8
17576	-1.004	-0.063	-0.099	0.14	-9.1	-2.87
17594	-0.978	-0.009	-0.05	-0.63	-2.24	-0.21
17611	-0.973	-0.004	-0.044	-0.28	2.1	1.05
17636	-0.978	0.011	-0.041	-1.05	7.84	2.66
17653	-0.976	-0.005	-0.07	-0.14	10.5	3.29
17674	-0.986	0.012	-0.086	0.28	12.25	4.06
17698	-1.003	0.022	-0.106	-1.68	12.04	4.41
17718	-1.009	0.002	-0.119	-2.52	10.36	4.34
17735	-1.017	0.039	-0.14	-2.31	8.82	4.27
17754	-1.011	0.047	-0.124	-5.53	8.19	2.94
17779	-1.01	0.041	-0.137	-3.71	5.95	3.08
17798	-1.004	0.004	-0.142	-2.17	4.97	1.89
17819	-1.004	0.027	-0.137	-3.08	3.5	1.61
17838	-1.005	0.064	-0.143	-1.12	2.38	1.4
17862	-1.01	0.058	-0.148	-1.96	-0.21	-0.07
17880	-1.011	0.05	-0.153	-1.05	-2.87	-0.42
17901	-1.001	0.036	-0.144	0.42	-4.97	-1.12
17919	-1.01	0.042	-0.135	1.05	-6.3	-1.96
17943	-1.003	0.043	-0.133	1.19	-7.21	-2.52
17960	-0.991	0.044	-0.133	1.12	-7.0	-2.8
17983	-0.991	0.038	-0.125	0.84	-7.0	-2.94
18002	-0.995	0.031	-0.116	1.96	-6.51	-2.94
18020	-0.999	0.037	-0.114	1.68	-5.67	-3.15
18043	-0.999	0.039	-0.122	0.91	-5.32	-3.36
18064	-0.992	0.033	-0.122	1.4	-5.11	-3.15
18088	-0.992	0.033	-0.113	1.33	-4.06	-3.01
18108	-0.986	0.028	-0.111	1.33	-2.8	-2.8
18126	-0.984	0.022	-0.103	1.54	-1.26	-2.24
18148	-0.999	0.028	-0.113	1.4	-0.28	-1.96
18166	-1.009	0.036	-0.133	0.98	-1.47	-2.38
18187	-1.012	0.04	-0.142	0.77	-4.06	-2.8
18211	-1.022	0.049	-0.142	1.89	-8.89	-5.11
18227	-1.011	0.065	-0.14	1.61	-10.01	-5.67
18251	-0.999	0.035	-0.121	2.03	-11.97	-6.23
18271	-0.994	0.01	-0.116	2.87	-11.9	-5.95
18291	-0.994	0.02	-0.106	2.38	-11.62	-5.18
18315	-0.979	0.015	-0.091	1.61	-9.1	-3.78
18334	-0.98	0.008	-0.065	1.54	-6.51	-3.57
18358	-0.981	0.005	-0.068	1.33	-2.31	-2.38
18377	-0.984	0.013	-0.087	0.91	0.21	-1.68
18395	-0.983	0.024	-0.077	-0.14	2.45	-0.63
18419	-0.988	0.007	-0.101	-0.35	4.62	0.7
18438	-1.002	0.019	-0.101	-0.7	4.41	0.98
18455	-1.011	0.025	-0.118	-1.47	3.64	0.98
18478	-1.01	0.036	-0.131	-1.61	1.75	0.63
18497	-0.998	0.027	-0.122	-1.19	0.07	0.14
18516	-1.007	0.035	-0.118	-0.28	-0.91	-0.14
18541	-1.007	0.028	-0.121	0.91	-2.66	-0.42
18565	-0.996	0.026	-0.122	1.26	-3.57	-0.63
18585	-0.995	0.022	-0.117	0.91	-3.57	-0.35
18605	-1.004	0.017	-0.107	1.19	-3.78	-0.42
18624	-1.003	0.021	-0.116	1.89	-4.06	-0.21
18645	-1.004	0.041	-0.118	0.56	-4.06	-0.63
18663	-1.011	0.034	-0.115	0.07	-4.62	-0.84
18687	-0.996	0.033	-0.112	-0.07	-4.48	-0.91
18707	-0.995	0.023	-0.111	0.0	-4.06	-0.7
18725	-0.995	0.04	-0.107	-0.35	-3.71	-0.91
18745	-0.992	0.028	-0.102	-1.19	-2.8	-0.77
18766	-0.999	0.018	-0.103	-0.7	-1.61	-0.28
18788	-1.003	0.037	-0.103	-0.49	-1.26	0.0
18808	-1.011	0.035	-0.12	-1.47	-2.45	-0.56
18831	-1.001	0.03	-0.127	0.07	-3.92	-0.56
18853	-0.996	0.02	-0.12	1.54	-5.18	-0.28
18877	-0.991	0.04	-0.103	1.89	-4.55	-0.63
18896	-0.995	0.046	-0.1	0.7	-3.5	-1.19
18917	-0.991	0.029	-0.098	0.42	-1.96	-1.12
18936	-0.992	0.028	-0.097	1.19	-0.77	-1.05
18961	-1.004	0.035	-0.115	1.26	-0.56	-1.4
18977	-0.997	0.035	-0.112	0.35	-0.21	-1.47
18996	-1.0	0.042	-0.119	0.56	-0.28	-1.68
19016	-0.997	0.044	-0.118	-0.07	-0.28	-2.1
19040	-0.999	0.03	-0.122	0.21	-0.63	-2.52
19059	-1.004	0.033	-0.123	0.63	-1.33	-2.52
19079	-0.983	0.027	-0.113	0.84	-0.91	-2.17
19103	-0.981	0.016	-0.098	1.75	1.47	-1.05
19121	-0.989	0.02	-0.087	2.59	3.85	-0.49
19140	-1.009	0.035	-0.113	1.61	4.2	-0.77
19164	-1.004	0.042	-0.121	1.47	4.06	-0.91
19183	-1.013	0.036	-0.129	1.82	3.64	-1.26
19207	-0.997	0.031	-0.139	2.73	2.59	-1.4
19223	-1.001	0.041	-0.148	3.85	1.61	-1.4
19242	-1.005	0.038	-0.154	2.45	0.35	-1.68
19265	-1.008	0.034	-0.154	0.84	-1.4	-2.94
19289	-1.003	0.044	-0.147	0.98	-3.99	-3.64
19304	-1.004	0.041	-0.138	0.7	-4.83	-4.41
19328	-1.006	0.033	-0.138	0.14	-6.16	-4.83
19350	-1.002	0.029	-0.139	-0.21	-7.35	-4.83
19370	-1.004	0.034	-0.135	-0.98	-8.26	-4.83
19393	-1.001	0.03	-0.136	-1.4	-9.59	-4.76
19417	-0.999	0.026	-0.129	-1.47	-10.43	-4.76
19437	-0.996	0.026	-0.125	-1.47	-10.36	-4.2
19455	-0.999	0.032	-0.119	-1.05	-10.43	-3.92
19477	-0.997	0.029	-0.102	-1.89	-9.73	-3.78
19495	-0.995	0.027	-0.101	-2.24	-8.12	-3.78
19515	-0.985	0.013	-0.103	-0.77	-7.77	-2.17
19535	-0.984	0.014	-0.097	-0.91	-6.23	-2.1
19559	-0.987	0.005	-0.103	0.49	-5.25	-1.54
19579	-0.987	0.017	-0.095	0.49	-4.06	-0.42
19594	-0.992	0.014	-0.095	1.19	-2.87	0.21
19619	-0.996	0.019	-0.099	0.42	-1.33	0.84
19639	-0.992	0.029	-0.094	-0.28	0.42	1.47
19663	-0.991	0.021	-0.097	-0.63	1.82	1.82
19683	-0.99	0.021	-0.094	-0.77	3.22	2.45
19701	-0.991	0.023	-0.105	-0.7	3.92	2.59
19723	-1.002	0.045	-0.109	-0.56	4.27	2.87
19742	-0.995	0.034	-0.118	-2.87	4.97	2.66
19766	-0.998	0.016	-0.125	-0.98	4.41	3.57
19786	-0.992	0.037	-0.129	-2.24	4.06	3.22
19804	-1.002	0.045	-0.13	-2.17	3.43	2.87
19824	-1.003	0.05	-0.137	-1.12	2.1	3.08
19843	-0.996	0.035	-0.139	0.28	1.68	2.38
19868	-1.007	0.041	-0.147	2.17	1.4	0.84
19888	-1.017	0.071	-0.142	-1.19	0.84	-0.77
19908	-1.006	0.056	-0.151	-0.21	-1.26	-1.4
19925	-1.001	0.051	-0.147	-0.28	-2.45	-2.31
19944	-1.007	0.045	-0.146	0.7	-3.78	-2.94
19968	-1.003	0.052	-0.14	1.12	-5.32	-3.36
19988	-0.979	0.045	-0.132	0.7	-4.69	-3.29
20008	-0.977	0.028	-0.126	1.61	-3.36	-2.8
20032	-0.973	0.043	-0.102	1.19	-0.49	-1.68
20052	-0.992	-0.001	-0.113	0.77	1.96	-0.63
20072	-1.012	0.057	-0.139	1.68	0.56	-0.21
20089	-1.007	0.063	-0.156	0.14	-0.84	-1.05
20110	-1.014	0.056	-0.169	-0.91	-4.34	-2.73
20133	-1.021	0.06	-0.174	0.07	-9.66	-4.13
20152	-1.011	0.054	-0.156	0.0	-13.51	-5.53
20172	-1.011	0.039	-0.141	0.98	-15.05	-5.81
20192	-0.998	0.06	-0.12	2.24	-15.47	-6.58
20216	-1.005	0.047	-0.112	2.59	-14.91	-6.58
20231	-0.997	0.036	-0.105	3.22	-14.0	-6.02
20251	-0.986	0.037	-0.086	0.98	-12.04	-6.09
20276	-0.98	0.006	-0.086	2.1	-9.31	-5.04
20296	-0.992	0.001	-0.093	5.46	-7.56	-3.43
20314	-0.984	0.032	-0.089	2.38	-5.53	-2.31
20338	-0.991	0.035	-0.09	0.98	-3.5	-1.54
20358	-1.002	0.037	-0.09	0.35	-2.52	-1.4
20377	-1.005	0.03	-0.111	-0.35	-2.73	-1.4
20396	-1.019	0.043	-0.246	-0.84	-4.55	-1.33
20416	-1.005	0.059	-0.121	-2.03	-6.23	-1.4
20436	-1.008	0.03	-0.119	-2.73	-8.05	-1.47
20460	-1.016	0.03	-0.112	-4.06	-9.59	-2.03
20484	-1.017	0.046	-0.122	-1.61	-11.76	-1.96
20504	-1.008	0.019	-0.12	-2.24	-14.98	-2.45
20521	-1.015	-0.003	-0.099	-0.35	-15.12	-2.45
20540	-0.997	0.036	-0.067	0.0	-14.28	-3.29
20563	-0.984	0.031	-0.072	0.49	-12.32	-3.78
20587	-1.013	0.0	-0.076	0.84	-11.9	-3.36
20606	-0.988	-0.018	-0.069	1.96	-10.36	-2.73
20625	-0.983	0.0	-0.055	1.4	-7.56	-1.61
20650	-1.003	0.044	-0.025	-2.17	-4.55	-1.75
20670	-0.995	0.045	-0.036	0.77	-0.07	-1.75
20686	-0.989	0.036	-0.029	0.28	3.78	-0.84
20710	-0.977	0.012	-0.003	0.35	12.67	1.12
20733	-0.979	-0.003	-0.001	-0.56	19.81	4.41
20754	-1.016	-0.029	-0.021	-0.14	26.32	6.3
20772	-1.054	-0.021	-0.042	-1.89	30.1	9.59
20791	-1.017	0.103	-0.004	-0.56	36.89	12.32
20815	-1.119	0.172	0.009	-11.83	41.02	10.64
20830	-1.1	0.165	-0.02	-11.27	49.28	17.64
20853	-1.105	0.03	-0.025	-13.58	58.8	22.47
20875	-1.152	0.128	-0.037	-3.78	63.77	27.02
20893	-1.412	0.351	-0.041	-34.93	57.54	18.27
20912	-1.424	0.156	-0.063	-67.97	9.03	0.42
20932	-0.887	0.149	-0.213	-52.29	10.85	10.64
20958	-0.867	0.133	-0.385	-8.89	22.05	24.29
20975	-0.805	0.123	-0.435	-8.4	15.61	23.52
20995	-0.884	0.375	-0.49	0.84	5.88	22.12
21016	-0.723	0.196	-0.064	-42.42	1.54	11.69
21039	-0.641	-0.027	-0.229	21.49	-4.97	9.03
21058	-0.789	0.166	0.026	-13.51	-21.77	2.24
21082	-0.831	0.23	-0.013	-28.42	-44.38	-1.61
21102	-0.813	0.137	-0.07	-33.53	-55.09	-5.88
21121	-0.858	0.06	-0.114	-32.97	-62.3	-9.45
21144	-0.901	-0.068	-0.142	-3.5	-67.55	-13.65
21165	-0.908	-0.179	-0.239	25.13	-67.27	-19.74
21185	-0.97	-0.193	-0.346	67.13	-74.9	-20.93
21208	-0.978	0.023	-0.401	65.38	-74.13	-29.82
21229	-1.013	-0.122	-0.404	49.91	-68.81	-38.57
21249	-1.019	-0.065	-0.382	44.94	-63.42	-40.11
21268	-1.69	0.877	-0.388	-100.87	-163.17	-101.78
21289	-1.408	0.102	-0.31	65.94	1.12	-17.15
21307	-1.125	0.412	0.797	21.35	-20.72	2.31
21331	-1.145	-0.029	0.02	58.03	-39.41	-1.19
21351	-0.882	0.274	0.043	19.67	-3.64	-19.67
21370	-0.993	0.199	0.122	38.85	-2.38	-14.35
21394	-1.019	-0.061	-0.097	36.4	5.32	-21.7
21413	-0.965	0.038	-0.043	-19.32	26.04	-25.27
21433	-0.985	-0.057	0.003	14.49	13.72	-19.11
21457	-0.993	-0.051	-0.018	10.22	25.48	-17.43
21481	-1.043	0.012	-0.002	-5.81	27.79	-14.84
21500	-1.054	0.043	0.005	-10.43	33.95	-6.16
21521	-1.067	0.044	-0.216	0.56	31.15	-1.75
21541	-1.054	0.125	-0.204	-2.38	19.88	0.84
21561	-1.055	0.045	-0.166	-3.22	13.58	1.4
21578	-1.076	0.017	-0.207	8.89	4.34	2.1
21602	-1.061	0.104	-0.17	11.9	-6.3	0.7
21622	-1.05	0.146	-0.098	2.87	-8.05	-1.89
21642	-1.067	0.083	-0.099	-6.51	-15.12	0.42
21659	-1.035	0.068	-0.059	-12.88	-15.96	0.07
21682	-0.981	0.0	0.025	-15.61	-10.78	0.49
21700	-0.956	-0.057	0.053	-10.57	-4.13	5.74
21724	-1.108	-0.064	0.09	-25.41	-10.78	0.7
21744	-1.201	0.099	0.131	-26.88	12.46	-3.64
21764	-1.084	0.454	0.053	-62.58	25.69	1.12
21784	-1.01	-0.058	-0.127	24.36	33.67	25.13
21803	-1.125	0.267	0.067	-3.64	63.0	43.12
21826	-1.004	-0.211	-0.435	18.27	40.88	63.07
21846	-0.81	-0.158	-0.335	71.82	13.51	80.22
21866	-0.138	-0.065	-0.122	109.62	40.67	51.31
21886	-0.549	0.62	0.11	48.72	-17.57	32.83
21910	-0.863	1.152	-0.138	-305.48	7.21	-14.56
21930	-0.926	-2.375	-1.311	96.11	1.82	74.9
21950	-2.852	-0.19	0.325	96.25	85.96	39.55
21970	-0.19	1.106	0.61	-19.18	-48.65	-11.55
21990	-0.781	-0.352	-0.813	-72.59	126.21	-4.83
22009	-0.71	-0.049	-0.098	125.44	55.79	27.09
22029	-1.207	0.065	-0.275	-35.7	102.48	17.85
22049	-0.698	0.183	-0.319	24.01	65.03	39.9
22073	-0.738	-0.02	-0.259	41.3	79.38	36.96
22093	-1.069	0.477	-0.323	60.9	64.4	35.0
22113	-0.876	0.102	-0.377	27.44	95.48	49.21
22132	-1.178	0.174	-0.402	-27.58	95.9	45.29
22152	-0.93	0.334	-0.462	7.28	84.07	31.71
22175	-0.858	0.325	-0.524	4.27	71.33	30.24
22192	-0.969	0.2	-0.549	10.43	59.01	28.07
22216	-0.884	0.2	-0.483	4.34	59.85	14.28
22236	-0.907	0.36	-0.549	-4.13	62.58	7.84
22255	-0.874	0.256	-0.546	-1.75	48.65	0.35
22279	-0.969	0.25	-0.582	-10.85	32.34	-9.38
22296	-0.668	0.236	-0.543	-5.46	18.55	-11.55
22319	-0.8	0.261	-0.609	-1.54	15.89	-17.43
22338	-0.897	0.277	-0.618	-11.55	19.25	-16.66
22362	-0.877	0.266	-0.631	-9.66	2.73	-20.3
22382	-0.849	0.215	-0.635	-14.84	-6.3	-13.58
22401	-0.7	0.219	-0.599	-5.25	0.56	-11.34
22420	-0.773	0.266	-0.601	-6.65	-0.77	-7.98
22445	-0.847	0.193	-0.626	-4.06	-7.49	-3.92
22465	-0.858	0.156	-0.566	-11.27	-10.71	-4.41
22484	-0.626	0.302	-0.547	-2.1	-3.08	-3.01
22504	-0.841	0.298	-0.574	-5.53	-9.94	-0.28
22525	-0.913	0.153	-0.628	-2.52	-16.73	-1.61
22543	-0.823	0.225	-0.558	-5.74	-23.94	-3.36
22565	-0.706	0.297	-0.543	-3.01	-16.66	-1.75
22585	-0.835	0.2	-0.57	7.28	-14.07	1.4
22604	-0.945	0.199	-0.58	-4.9	-30.1	0.7
22628	-0.864	0.227	-0.554	-9.8	-30.1	1.33
22647	-0.823	0.264	-0.516	-12.88	-32.83	-0.21
22666	-0.852	0.268	-0.493	-18.48	-30.38	0.28
22690	-0.867	0.242	-0.508	-17.15	-31.64	-0.77
22708	-0.861	0.261	-0.488	-19.04	-32.62	-1.4
22725	-0.809	0.276	-0.476	-16.17	-31.29	0.42
22750	-0.887	0.236	-0.483	-19.53	-34.65	-0.98
22770	-0.843	0.22	-0.456	-16.73	-31.85	0.49
22789	-0.873	0.235	-0.457	-18.27	-37.31	-1.89
22813	-0.84	0.214	-0.449	-16.45	-39.13	-3.29
22830	-0.861	0.244	-0.415	-14.07	-36.12	-3.01
22849	-0.889	0.252	-0.439	-9.66	-35.77	-6.3
22873	-0.938	0.313	-0.424	-15.54	-41.93	-13.86
22896	-0.949	0.303	-0.399	-20.79	-40.67	-22.54
22917	-0.992	0.085	-0.444	-18.13	-51.73	-18.62
22937	-0.912	0.223	-0.402	-7.98	-46.41	-17.71
22954	-1.017	0.281	-0.354	-6.09	-53.55	-19.67
22978	-0.894	0.352	-0.355	-19.53	-52.57	-18.83
22997	-0.909	0.185	-0.326	-12.11	-53.97	-17.57
23015	-0.966	0.165	-0.303	-11.48	-52.64	-18.9
23033	-0.927	0.261	-0.305	-0.21	-55.86	-16.31
23058	-0.935	0.178	-0.229	2.03	-53.55	-14.84
23082	-1.04	-0.0	-0.24	19.88	-56.7	-14.7
23100	-0.969	0.16	-0.231	28.7	-53.48	-15.68
23122	-0.934	0.293	-0.228	9.52	-52.5	-17.78
23140	-0.909	0.113	-0.163	5.39	-53.83	-17.85
23163	-1.009	0.231	-0.193	18.55	-55.16	-22.05
23184	-1.009	0.083	-0.131	28.77	-57.68	-24.57
23204	-0.949	0.244	-0.122	22.05	-56.98	-25.06
23223	-1.011	0.272	-0.103	9.24	-64.54	-26.88
23246	-0.956	0.2	-0.081	-7.21	-62.09	-22.89
23270	-1.03	0.074	-0.101	-18.62	-65.8	-20.86
23287	-0.945	0.112	-0.029	-16.52	-60.2	-20.65
23310	-0.896	0.015	0.071	-7.63	-55.65	-18.83
23331	-0.871	-0.055	-0.055	4.76	-50.47	-19.53
23351	-0.939	0.176	0.102	22.89	-50.54	-14.84
23370	-0.951	0.247	0.121	-2.8	-48.72	-18.06
23395	-0.953	0.203	0.115	-21.56	-40.11	-20.86
23415	-0.999	0.109	0.003	-36.75	-31.57	-20.72
23435	-0.961	-0.037	0.079	-24.36	-29.19	-22.05
23459	-0.918	0.002	0.184	0.56	-20.79	-18.41
23479	-0.928	0.053	0.223	5.67	-10.36	-15.68
23499	-0.949	-0.015	0.196	6.37	-1.4	-10.29
23518	-0.945	-0.077	0.171	3.08	6.02	-6.3
23542	-0.963	-0.07	0.085	7.63	13.86	0.14
23558	-1.067	0.078	0.068	12.53	5.18	1.82
23582	-1.037	0.162	0.077	-0.07	5.25	4.41
23602	-1.027	0.129	0.064	-9.52	4.55	4.06
23622	-0.987	0.061	0.069	-9.24	3.92	2.1
23642	-0.996	0.009	0.064	-0.63	4.69	0.21
23662	-1.071	0.124	0.059	2.87	-0.49	-1.4
23679	-0.981	0.122	0.082	-1.19	-0.28	-1.26
23699	-1.026	0.105	0.049	-4.13	-1.26	-1.82
23718	-0.988	0.062	0.069	-1.61	-2.8	-2.1
23743	-0.993	0.036	0.071	1.61	-3.01	-3.57
23763	-1.049	0.098	0.082	6.86	-3.29	-4.13
23781	-0.996	0.099	0.079	0.28	-4.41	-4.34
23803	-0.967	0.047	0.067	-0.07	-1.19	-2.45
23827	-1.043	-0.015	0.093	-21.49	-7.14	-7.49
23847	-0.956	-0.1	0.092	-13.44	-2.17	-0.42
23866	-0.976	0.095	0.114	4.27	8.82	8.82
23890	-1.033	0.146	0.144	-11.55	10.99	12.6
23910	-0.981	0.046	0.135	-17.08	16.87	11.55
23930	-0.949	-0.066	0.081	-0.63	23.66	12.25
23950	-0.996	0.0	0.057	19.04	25.2	11.9
23969	-1.049	0.135	0.045	17.78	24.15	8.05
23990	-0.934	0.178	0.017	9.31	22.68	4.97
24014	-0.96	0.205	0.025	8.54	27.51	0.42
24033	-0.953	0.141	0.08	8.05	32.69	-0.49
24049	-0.969	-0.078	0.053	23.73	38.36	1.54
24074	-1.003	0.024	-0.031	50.82	39.9	1.68
24094	-1.013	0.199	0.044	68.88	46.69	3.29
24114	-0.989	0.315	-0.021	40.39	51.03	0.7
24138	-0.967	0.131	0.034	-0.14	64.05	-2.87
24158	-0.985	0.039	-0.225	9.17	60.76	-0.14
24177	-0.976	0.151	-0.201	-2.87	59.64	4.2
24198	-0.966	0.111	-0.033	-12.74	52.71	4.62
24218	-0.847	-0.054	-0.326	-15.12	47.53	1.75
24234	-1.082	0.112	-0.409	26.74	64.54	1.19
24258	-0.986	0.322	-0.204	-27.02	60.06	17.64
24276	-1.229	0.244	-0.221	-47.46	27.51	1.19
24298	-0.896	-0.079	-0.218	-20.3	44.31	19.53
24317	-0.845	-0.107	-0.267	13.72	58.94	27.44
24338	-1.069	0.002	-0.258	26.25	43.33	23.59
24362	-1.01	0.206	-0.258	-2.73	37.24	21.7
24380	-1.031	0.316	-0.277	-28.42	56.7	21.49
24398	-0.841	0.228	-0.342	-20.58	36.12	25.9
24422	-0.874	0.072	-0.29	-14.35	52.64	37.03
24441	-0.892	0.002	-0.425	3.43	54.95	46.83
24460	-0.897	0.073	-0.451	4.83	44.52	50.4
24483	-0.759	0.317	-0.291	-13.65	62.51	39.27
24503	-0.955	0.412	-0.423	-7.63	48.86	32.34
24524	-0.817	0.323	-0.459	4.27	52.15	21.14
24548	-0.797	0.021	-0.553	3.08	59.71	9.8
24568	-0.936	0.456	-0.454	13.79	47.39	-4.06
24584	-0.903	0.493	-0.471	11.34	40.88	-16.52
24608	-0.91	0.378	-0.542	11.48	39.27	-27.65
24628	-0.798	0.287	-0.489	21.56	30.03	-29.61
24646	-0.83	0.259	-0.502	10.99	29.47	-30.73
24669	-0.842	0.262	-0.549	-0.07	21.84	-33.25
24689	-0.848	0.136	-0.54	-0.7	20.86	-24.71
24713	-0.8	0.097	-0.555	0.0	14.28	-9.52
24731	-0.874	0.126	-0.563	-1.33	6.72	-5.11
24754	-0.828	0.192	-0.566	0.35	12.67	-0.84
24774	-0.85	0.148	-0.526	0.42	9.87	-2.94
24795	-0.776	0.283	-0.533	-1.68	12.32	-7.0
24815	-0.846	0.245	-0.583	-3.43	7.21	-9.38
24831	-0.796	0.212	-0.584	-0.91	3.08	-11.83
24851	-0.804	0.217	-0.587	0.14	-1.61	-14.56
24871	-0.856	0.24	-0.595	-4.97	-7.49	-16.52
24891	-0.775	0.184	-0.603	-2.52	-11.55	-14.28
24915	-0.836	0.103	-0.603	4.34	-17.78	-6.16
24935	-0.866	0.154	-0.566	-4.41	-22.89	-2.03
24954	-0.807	0.195	-0.553	-9.52	-26.46	2.17
24974	-0.882	0.196	-0.539	-15.47	-28.49	2.87
24999	-0.855	0.216	-0.53	-20.79	-30.03	3.57
25016	-0.876	0.192	-0.512	-19.18	-35.0	1.82
25039	-0.858	0.242	-0.486	-23.1	-32.06	-0.42
25058	-0.827	0.265	-0.493	-20.3	-33.6	-2.24
25078	-0.862	0.223	-0.504	-21.77	-37.59	-3.71
25102	-0.873	0.191	-0.485	-15.75	-37.8	-0.42
25123	-0.905	0.267	-0.475	-12.6	-36.19	1.89
25142	-0.929	0.172	-0.511	-23.38	-47.53	-1.89
25163	-0.836	0.231	-0.436	-20.09	-41.93	-4.48
25182	-0.872	0.182	-0.473	-8.61	-41.86	-7.35
25199	-0.94	0.229	-0.426	-3.57	-41.23	-12.04
25223	-0.912	0.306	-0.385	-3.22	-50.12	-17.15
25243	-0.897	0.201	-0.371	-5.6	-46.41	-18.48
25263	-0.938	0.194	-0.385	2.94	-46.06	-19.95
25281	-0.889	0.401	-0.374	-1.82	-41.09	-25.69
25306	-0.896	0.245	-0.317	-4.48	-49.14	-20.86
25325	-0.908	0.176	-0.291	-5.81	-48.09	-0.91
25344	-0.905	0.155	-0.26	-4.62	-46.13	-17.57
25368	-0.996	0.041	-0.278	4.9	-48.37	-16.87
25389	-0.961	0.095	-0.323	14.49	-40.04	-19.67
25408	-0.953	0.604	-0.197	-12.6	-56.77	-13.51
25428	-0.921	-0.015	-0.24	-31.5	-49.0	-13.86
25452	-1.028	0.027	-0.299	16.24	-54.95	-16.24
25471	-1.063	0.285	-0.169	15.82	-59.78	-13.65
25492	-0.918	0.17	-0.236	1.54	-59.64	-14.77
25511	-0.915	0.08	-0.212	15.19	-61.74	-15.61
25533	-1.068	0.191	-0.176	-0.35	-69.16	-15.82
25553	-0.897	0.02	-0.06	20.37	-66.15	-10.5
25573	-0.967	-0.045	-0.056	20.44	-73.08	-16.1
25596	-0.969	0.026	-0.128	20.51	-67.9	-18.48
25619	-0.982	0.116	-0.125	45.43	-63.07	-15.12
25640	-0.956	0.507	0.193	12.11	-59.64	-17.85
25658	-0.967	0.276	0.103	-17.5	-55.72	-22.05
25682	-0.955	0.024	0.026	-25.27	-49.07	-24.22
25702	-0.977	0.035	0.055	-17.36	-43.89	-19.53
25722	-0.996	0.137	0.076	-9.31	-48.86	-25.06
25742	-0.944	0.166	0.131	-38.22	-37.8	-23.59
25757	-0.884	0.018	0.177	-37.31	-28.91	-21.21
25782	-0.99	-0.105	0.189	-16.52	-19.74	-12.25
25797	-0.863	-0.224	0.242	-8.26	-8.12	-7.07
25822	-0.831	-0.295	0.215	26.6	5.6	3.99
25842	-0.967	-0.009	0.117	18.13	12.32	10.01
25861	-1.043	0.061	0.047	33.32	22.19	16.38
25885	-1.261	0.324	0.131	-6.09	6.02	13.23
25906	-0.882	-0.065	0.075	-17.43	13.37	12.95
25924	-0.955	0.023	0.044	5.11	13.79	13.44
25945	-1.0	0.083	0.02	15.05	8.05	10.5
25964	-1.048	0.123	0.02	24.57	9.94	7.56
25988	-1.085	0.299	0.068	8.54	0.14	2.03
26008	-0.979	0.105	0.001	4.76	1.4	-1.47
26028	-1.056	0.153	0.008	5.88	-2.94	-4.41
26052	-1.025	0.121	0.014	4.06	-7.91	-7.91
26072	-0.968	0.023	0.042	10.22	-5.25	-7.28
26092	-1.1	0.276	0.094	-0.7	-10.85	-7.35
26112	-0.913	0.002	0.07	-8.89	-7.35	-6.37
26132	-1.006	0.017	0.054	-5.18	-5.11	-4.41
26156	-1.017	0.036	0.062	-1.89	-5.88	-0.98
26176	-0.984	0.062	0.08	-5.25	-4.83	0.28
26194	-0.976	0.058	0.095	-5.18	-1.47	1.89
26214	-0.993	0.078	0.092	-4.97	0.35	2.24
26238	-1.003	0.074	0.07	-2.24	2.38	2.52
26262	-0.984	0.067	0.065	0.49	3.64	2.31
26279	-1.001	0.071	0.051	3.08	3.5	1.89
26298	-1.021	0.083	0.047	2.73	1.33	0.0
26318	-1.017	0.128	0.028	3.36	-0.21	-0.14
26343	-1.034	0.152	0.031	-1.12	-3.92	-2.1
26361	-1.011	0.113	0.04	-3.71	-4.76	-2.73
26385	-0.984	0.076	0.064	-3.71	-5.04	-2.45
26405	-0.981	0.033	0.062	-0.63	-3.71	-1.26
26424	-1.005	0.089	0.059	1.19	-2.87	-0.35
26445	-1.01	0.107	0.06	-5.67	-2.38	-0.07
26464	-1.001	0.08	0.069	-4.62	-1.96	0.14
26488	-0.988	0.08	0.07	-3.36	-0.42	0.77
26508	-0.997	0.08	0.06	-2.59	0.49	0.14
26523	-1.006	0.089	0.057	-2.73	1.54	0.84
26548	-0.996	0.088	0.058	-1.47	2.38	1.61
26568	-0.996	0.11	0.05	-2.94	2.94	2.1
26588	-0.996	0.081	0.056	-2.45	3.43	1.89
26608	-0.996	0.094	0.056	-0.49	5.04	1.61
26626	-1.012	0.1	0.05	-0.56	4.76	1.26
26644	-0.988	0.086	0.047	1.89	5.39	1.12
26668	-0.979	0.077	0.059	5.18	6.44	0.35
26688	-0.989	0.072	0.063	7.84	12.18	2.8
26706	-1.009	0.076	0.068	10.43	15.05	4.48
26730	-1.0	0.114	0.102	13.93	18.9	6.79
26749	-0.945	0.09	0.098	9.03	32.34	9.03
26770	-0.951	0.026	0.112	15.05	49.49	10.15
26790	-0.955	-0.05	0.102	31.22	62.58	8.4
26805	-0.903	-0.042	-0.121	19.11	52.78	-0.56
26826	-0.94	0.092	-0.055	65.59	66.36	5.88
26846	-1.075	0.427	-0.173	58.73	51.94	4.41
26866	-1.018	0.293	-0.181	8.4	49.21	2.17
26890	-0.905	0.168	-0.155	-30.66	42.0	-3.15
26913	-0.826	0.093	-0.251	-49.84	45.78	0.7
26934	-0.996	0.192	-0.1	-37.8	54.04	7.91
26958	-0.931	-0.208	0.025	-27.79	57.26	11.69
26977	-0.843	-0.204	-0.337	-10.22	58.45	5.81
26996	-1.058	0.178	-0.287	32.48	62.16	14.63
27014	-0.951	0.384	-0.294	40.46	46.69	16.24
27038	-0.985	0.253	-0.311	-23.17	69.72	13.16
27058	-0.965	-0.036	-0.311	0.98	54.46	17.64
27074	-0.933	-0.098	-0.306	2.24	69.16	25.62
27098	-0.9	-0.081	-0.379	23.31	55.79	32.13
27118	-0.753	0.331	-0.357	24.15	71.89	33.74
27138	-1.074	0.345	-0.409	-8.82	63.56	34.02
27158	-1.081	0.272	-0.399	-22.19	61.53	31.01
27178	-0.844	0.165	-0.373	7.07	63.14	27.23
27195	-0.582	-0.06	-0.528	-37.1	72.03	23.45
27215	-0.906	0.39	-0.567	-0.35	39.55	22.26
27239	-0.974	0.285	-0.525	-7.21	48.02	17.01
27257	-0.966	0.234	-0.428	-7.0	37.94	10.78
27281	-0.848	0.353	-0.475	7.77	17.01	-1.61
27300	-0.668	0.368	-0.562	0.14	27.65	-0.84
27319	-0.857	0.257	-0.562	12.18	35.49	-11.41
27342	-1.017	0.371	-0.539	6.16	28.84	-32.13
27358	-0.888	0.401	-0.475	9.45	32.76	-37.66
27383	-0.774	0.283	-0.462	1.61	21.7	-47.67
27402	-0.695	0.363	-0.572	-16.31	21.07	-39.48
27422	-0.98	0.001	-0.754	9.59	16.31	-35.56
27441	-0.858	0.232	-0.654	-1.82	4.76	-35.21
27466	-0.753	0.203	-0.58	-21.56	4.83	-23.31
27486	-0.713	0.126	-0.62	-21.14	12.6	-13.09
27505	-0.773	0.086	-0.696	-14.21	-10.78	-6.51
27524	-0.775	0.171	-0.621	-4.83	-9.66	-1.75
27548	-0.805	0.213	-0.564	2.94	-7.7	-0.49
27569	-0.885	0.173	-0.561	-4.2	-7.84	-3.85
27588	-0.796	0.228	-0.555	-6.44	-4.41	-6.72
27612	-0.788	0.189	-0.58	-6.3	-7.28	-5.88
27628	-0.825	0.141	-0.601	-3.15	-6.86	-4.83
27647	-0.79	0.173	-0.571	-2.45	-9.31	-3.15
27671	-0.78	0.152	-0.583	0.84	-9.24	3.71
27692	-0.823	0.122	-0.611	1.61	-14.07	9.03
27712	-0.795	0.169	-0.574	-2.66	-17.71	13.37
27731	-0.802	0.196	-0.558	-2.52	-16.31	15.26
27752	-0.822	0.281	-0.535	-1.4	-19.25	13.3
27772	-0.839	0.265	-0.542	-2.94	-20.37	10.5
27792	-0.871	0.227	-0.563	-3.57	-23.24	7.77
27816	-0.852	0.224	-0.567	-8.05	-28.77	8.05
27836	-0.854	0.25	-0.572	-6.86	-29.82	9.45
27855	-0.854	0.228	-0.546	3.99	-26.95	11.83
27873	-0.921	0.349	-0.481	0.84	-26.53	8.75
27894	-0.794	0.321	-0.486	-21.56	-44.45	0.07
27913	-0.8	0.269	-0.488	-21.63	-38.85	0.98
27938	-0.868	0.211	-0.501	-0.84	-37.59	5.11
27958	-0.898	0.233	-0.481	7.56	-33.46	4.97
27977	-0.898	0.315	-0.45	1.68	-36.33	4.62
27996	-0.891	0.24	-0.464	-4.48	-41.3	0.98
28013	-0.879	0.252	-0.424	-9.87	-39.06	-12.46
28033	-0.798	0.18	-0.381	-6.86	-36.96	-11.06
28053	-0.933	0.23	-0.424	4.34	-43.33	-16.66
28073	-0.925	0.317	-0.401	4.9	-38.43	-18.06
28098	-0.914	0.281	-0.374	-0.77	-43.96	-18.83
28118	-0.911	0.15	-0.367	-4.69	-37.94	-19.53
28142	-0.936	0.203	-0.347	6.3	-51.45	-23.8
28162	-0.95	0.22	-0.356	2.24	-54.74	-20.93
28182	-0.982	0.17	-0.386	-2.45	-54.18	-19.53
28201	-0.966	0.197	-0.36	-0.42	-56.42	-19.04
28220	-0.991	0.214	-0.328	0.63	-64.47	-17.57
28244	-0.893	0.164	-0.255	-6.23	-68.04	-20.23
28259	-0.943	0.066	-0.252	11.06	-64.33	-20.3
28283	-1.036	0.147	-0.208	20.65	-66.99	-19.53
28302	-0.974	0.262	-0.195	16.17	-69.65	-18.97
28323	-0.888	0.235	-0.183	6.09	-66.85	-21.56
28341	-0.955	0.222	-0.138	-9.31	-69.79	-23.52
28367	-0.894	0.091	-0.105	-15.96	-65.66	-20.86
28384	-0.96	0.005	-0.12	-4.55	-71.89	-20.51
28408	-0.959	0.14	-0.099	-0.42	-61.53	-16.8
28428	-0.97	0.095	0.009	-7.07	-64.33	-16.45
28448	-0.934	0.131	0.006	10.36	-57.54	-19.81
28466	-0.98	0.211	0.051	6.37	-53.48	-20.02
28490	-0.974	0.171	0.093	-18.34	-46.69	-24.36
28510	-0.926	0.163	0.052	-17.99	-41.51	-24.43
28530	-0.961	0.079	0.052	-21.21	-39.41	-25.13
28549	-0.986	0.142	0.117	-20.44	-34.58	-24.08
28573	-0.968	0.021	0.108	-9.03	-29.68	-19.6
28594	-0.937	-0.002	0.169	3.29	-19.6	-12.95
28611	-0.902	-0.221	0.175	7.7	-6.44	-7.21
28631	-0.989	-0.202	0.197	9.03	-0.84	-8.96
28653	-0.926	-0.04	0.164	7.77	13.02	1.33
28673	-1.021	0.132	0.081	18.97	9.38	9.03
28693	-1.091	0.241	0.058	3.01	2.87	8.82
28713	-1.022	0.164	0.041	-15.61	3.57	5.81
28737	-0.994	0.123	0.03	-17.64	-0.07	3.08
28757	-0.976	0.07	0.036	3.08	3.99	1.47
28777	-1.022	0.093	0.073	14.0	1.61	-1.12
28797	-1.019	0.108	0.042	9.24	-0.07	-2.31
28816	-1.003	0.016	0.038	8.19	-1.54	-3.15
28841	-1.006	0.009	0.016	15.75	-3.57	-2.94
28857	-1.02	0.07	0.052	18.34	-5.88	-2.1
28880	-1.005	0.089	0.052	10.71	-6.16	-2.66
28901	-1.009	0.065	0.065	7.28	-6.93	-1.96
28921	-1.01	0.106	0.053	2.59	-7.56	-1.82
28939	-0.998	0.1	0.078	-3.15	-5.67	-0.98
28963	-0.992	0.073	0.094	-5.18	-3.57	0.7
28980	-0.987	0.006	0.089	-5.25	-2.52	1.68
29003	-0.975	0.018	0.102	4.27	0.49	3.57
29021	-0.994	0.072	0.073	1.54	1.89	3.36
29041	-0.989	0.047	0.082	0.35	4.06	5.18
29065	-0.984	0.102	0.077	1.05	5.25	5.53
29085	-0.984	0.141	0.076	-2.24	5.74	5.53
29101	-0.994	0.108	0.057	-10.43	7.91	6.44
29120	-0.987	0.055	0.083	-6.51	9.45	7.14
29145	-0.982	0.077	0.09	-4.97	11.55	6.23
29165	-1.004	0.076	0.045	-1.54	12.32	5.95
29185	-1.017	0.202	-0.008	3.71	10.15	5.46
29204	-1.013	0.143	-0.009	-5.32	9.17	3.01
29226	-0.989	0.049	0.006	-0.77	10.22	3.85
29250	-0.965	0.028	0.086	4.2	17.71	7.56
29269	-0.973	-0.081	0.095	26.25	24.64	12.95
29289	-0.965	0.13	0.164	27.02	35.49	16.17
29313	-0.997	0.115	0.146	18.48	58.03	18.2
29333	-0.976	0.091	0.019	19.39	77.98	23.52
29353	-1.175	0.439	-0.061	13.02	72.1	27.44
29370	-1.079	0.488	-0.095	18.27	68.11	25.2
29393	-0.931	0.276	-0.178	-17.57	58.66	18.06
29414	-0.748	0.04	-0.201	-14.07	48.37	14.77
29434	-0.717	0.101	-0.178	-45.22	42.14	3.29
29453	-0.726	-0.058	-0.182	-62.37	40.32	-5.6
29473	-0.763	-0.069	-0.121	-51.45	33.18	-16.59
29494	-1.347	0.758	-0.123	-20.23	64.05	17.92
29514	-1.578	0.105	-0.243	-116.9	53.2	-5.81
29534	-0.643	-0.447	-0.229	95.2	19.81	43.61
29554	-1.002	-0.027	-0.189	8.05	66.36	19.81
29574	-0.682	0.139	-0.305	62.93	43.54	28.91
29594	-0.747	0.237	-0.513	81.62	103.95	38.43
29614	-1.098	0.491	-0.249	41.93	55.93	27.86
29634	-1.055	0.522	-0.207	4.9	72.38	24.64
29654	-0.953	0.187	-0.446	-29.12	62.86	31.36
29674	-1.048	-0.024	-0.446	17.5	34.44	24.15
29694	-0.885	0.341	-0.384	33.04	45.64	21.14
29714	-1.005	0.538	-0.294	-20.58	50.4	10.99
29732	-0.738	0.334	-0.442	-4.48	17.99	1.82
29751	-0.96	0.186	-0.65	-24.71	61.04	12.46
29776	-0.815	0.246	-0.508	-4.9	48.44	18.34
29796	-0.958	0.263	-0.437	10.43	40.25	13.86
29816	-0.809	0.372	-0.421	-16.66	40.67	3.22
29835	-0.68	0.347	-0.51	5.95	42.84	0.21
29856	-0.89	0.358	-0.496	14.63	46.83	-4.2
29876	-0.797	0.294	-0.641	2.94	24.43	-10.08
29896	-0.901	0.293	-0.549	11.69	26.53	-13.37
29915	-0.882	0.353	-0.606	9.8	15.82	-15.75
29940	-0.741	0.382	-0.544	-6.09	15.19	-2.03
29958	-0.817	0.258	-0.602	-0.98	-5.95	-20.16
29980	-0.77	0.145	-0.598	-5.46	3.99	-14.91
30000	-0.714	0.265	-0.587	0.21	4.69	-13.02
30019	-0.761	0.293	-0.535	2.31	-1.54	-11.2
30043	-0.736	0.197	-0.632	5.67	-6.44	-8.89
30064	-0.878	0.26	-0.536	4.34	-8.12	-9.8
30080	-0.829	0.211	-0.543	0.42	-3.99	-9.8
30104	-0.831	0.143	-0.533	0.21	0.91	-6.3
30121	-0.836	0.186	-0.498	-4.2	3.43	-3.29
30141	-0.802	0.209	-0.543	-10.57	5.95	-3.15
30165	-0.81	0.166	-0.563	-8.54	10.01	1.75
30185	-0.79	0.234	-0.608	-1.26	7.7	4.13
30202	-0.835	0.319	-0.63	-3.92	3.57	2.66
30225	-0.771	0.22	-0.634	-0.21	-5.39	4.76
30244	-0.786	0.293	-0.596	2.24	-8.68	4.83
30269	-0.76	0.271	-0.584	0.0	-11.83	4.69
30289	-0.815	0.272	-0.595	0.35	-14.91	6.51
30309	-0.855	0.233	-0.614	1.05	-21.35	5.6
30325	-0.805	0.314	-0.576	-3.78	-23.8	4.34
30345	-0.858	0.322	-0.561	-5.74	-27.44	0.49
30369	-0.862	0.321	-0.583	-9.8	-29.82	-3.15
30389	-0.872	0.256	-0.593	-16.94	-37.94	-6.58
30404	-0.859	0.289	-0.534	-20.37	-38.85	-5.53
30424	-0.874	0.272	-0.496	-32.55	-41.58	-5.18
30449	-0.797	0.342	-0.489	-30.59	-42.77	-5.74
30469	-0.82	0.253	-0.478	-22.96	-49.56	-3.57
30489	-0.915	0.231	-0.469	-32.2	-48.65	-5.74
30504	-0.852	0.285	-0.48	-20.58	-55.65	-6.3
30528	-0.836	0.314	-0.431	-15.26	-49.56	-8.96
30547	-0.874	0.288	-0.434	-14.35	-46.97	-14.07
30570	-0.907	0.356	-0.414	-10.15	-50.96	-23.24
30591	-0.896	0.257	-0.381	-6.37	-54.25	-25.97
30615	-0.98	0.168	-0.441	-6.65	-55.3	-30.59
30635	-0.999	0.394	-0.411	-9.31	-54.46	-38.36
30654	-0.869	0.278	-0.326	-9.45	-62.93	-30.17
30673	-0.918	0.182	-0.349	-3.64	-63.77	-31.85
30697	-0.966	0.216	-0.331	-4.13	-65.59	-29.96
30721	-0.958	0.214	-0.235	-9.52	-66.85	-28.42
30741	-0.932	0.128	-0.24	-3.36	-66.15	-30.45
30761	-0.949	0.117	-0.274	18.13	-69.93	-30.87
30785	-0.959	0.34	-0.279	16.59	-67.06	-24.92
30805	-0.958	0.199	-0.254	27.86	-69.09	-25.13
30825	-0.986	0.052	0.001	20.86	-60.2	-21.49
30848	-0.915	0.063	-0.102	26.53	-64.4	-28.84
30869	-1.025	0.162	0.033	16.66	-64.89	-32.27
30888	-0.935	0.318	-0.154	17.57	-71.89	-28.84
30912	-0.977	0.152	0.002	-24.99	-45.64	-26.18
30932	-0.923	-0.213	0.173	-0.98	-48.65	-25.34
30952	-0.988	-0.097	0.462	6.79	-52.99	-26.6
30971	-0.844	0.167	0.275	-10.29	-52.64	-22.96
30992	-0.939	-0.103	-0.003	-21.21	-16.31	-11.34
31012	-0.885	-0.516	-0.08	31.92	-31.22	-10.01
31032	-0.79	0.193	-0.246	41.58	-30.24	-2.45
31056	-1.209	0.411	0.279	-30.24	-32.55	-13.09
31076	-0.936	0.198	0.058	-53.13	-29.33	-21.42
31096	-0.897	0.143	0.144	-62.93	-13.51	-14.0
31116	-1.029	-0.183	0.019	-27.86	-19.74	-10.29
31140	-1.049	-0.095	0.037	-10.85	-25.9	-11.41
31160	-1.033	-0.046	0.052	-0.07	-26.53	-10.57
31178	-0.927	-0.153	-0.011	-8.19	-27.3	-11.69
31202	-0.798	-0.495	0.116	47.18	-14.42	-9.87
31220	-0.823	-0.199	0.287	119.42	-9.38	-5.67
31240	-1.261	1.273	0.291	84.21	-32.83	8.54
31264	-1.23	0.26	0.221	-89.81	-16.1	-12.04
31284	-0.779	-0.183	0.245	-21.7	8.19	-0.77
31304	-0.984	-0.242	0.072	12.11	1.33	0.0
31324	-0.937	-0.302	0.105	38.08	7.49	2.52
31343	-1.041	0.209	0.12	50.75	7.42	7.0
31364	-1.134	0.457	0.167	-18.27	-0.42	2.31
31384	-0.976	0.136	0.081	-45.99	0.28	1.75
31402	-0.981	-0.059	0.067	-27.23	-1.68	1.75
31422	-0.973	-0.088	0.067	2.73	0.07	0.98
31446	-0.955	0.039	0.243	24.99	2.73	2.1
31466	-1.019	0.22	0.094	8.47	4.55	1.33
31486	-1.049	0.083	0.103	-8.75	-0.84	-1.26
31506	-1.005	0.01	0.055	4.97	-0.7	-0.84
31526	-0.997	0.066	0.051	2.03	-0.84	-1.12
31543	-0.984	0.033	0.153	7.77	-0.07	-0.63
31567	-1.008	0.141	0.112	5.88	0.28	0.28
31585	-0.982	0.104	0.096	-4.34	-0.98	0.84
31609	-0.991	0.059	0.093	-4.2	-2.24	1.47
31629	-0.994	0.04	0.078	-0.98	-0.98	1.68
31647	-0.975	0.001	0.103	2.17	-0.63	1.89
31667	-0.989	0.099	0.133	0.84	1.4	3.57
31687	-1.006	0.114	0.102	-2.31	0.7	4.06
31711	-1.015	0.099	0.098	-6.09	0.91	5.18
31730	-0.973	0.019	0.114	-7.7	2.8	6.86
31749	-0.958	-0.009	0.124	2.66	7.7	9.03
31768	-0.958	0.042	0.122	3.71	10.71	12.53
31787	-0.998	0.061	0.124	-0.63	15.33	13.86
31808	-1.028	0.096	0.103	3.22	16.73	13.72
31832	-0.963	0.104	0.096	3.5	22.12	13.51
31852	-0.958	0.033	0.095	6.16	26.74	12.88
31872	-0.954	0.037	0.106	16.66	33.46	14.49
31892	-1.003	0.213	0.115	39.27	39.76	13.86
31909	-0.971	0.279	0.059	28.07	40.67	7.63
31932	-0.956	0.099	-0.039	3.99	42.84	3.08
31950	-0.987	0.058	-0.008	12.6	46.97	2.17
31973	-1.016	0.132	-0.075	24.5	43.33	-0.7
31994	-0.919	0.223	-0.149	40.53	44.38	3.08
32014	-0.935	0.228	-0.041	29.4	51.17	7.21
32032	-0.957	0.115	-0.023	15.33	55.02	7.07
32056	-0.992	0.037	-0.164	13.44	56.21	5.53
32076	-1.005	0.449	-0.045	-22.89	58.73	8.75
32094	-1.046	0.367	0.065	-26.74	54.95	17.15
32118	-0.836	-0.135	-0.238	-1.33	68.46	24.78
32138	-1.0	-0.079	0.014	0.91	79.73	28.42
32162	-0.836	0.138	-0.427	-24.5	47.88	15.75
32181	-0.978	0.082	-0.332	7.84	86.87	23.87
32201	-0.988	0.24	-0.263	18.55	63.56	27.37
32221	-0.915	0.233	-0.414	0.0	72.31	29.05
32241	-0.904	0.127	-0.333	8.47	78.26	33.46
32261	-0.809	0.168	-0.353	-5.11	81.9	34.79
32285	-0.919	0.14	-0.475	7.56	71.61	33.81
32305	-0.934	0.28	-0.507	4.48	66.22	33.67
32323	-1.0	0.173	-0.496	15.61	28.77	21.07
32345	-0.871	0.234	-0.565	11.83	53.2	26.81
32368	-1.028	0.366	-0.486	2.03	50.96	16.1
32389	-0.92	0.322	-0.415	-4.13	34.58	3.71
32408	-0.715	0.353	-0.526	-13.09	35.07	-0.49
32432	-0.815	0.247	-0.583	12.39	42.77	-2.66
32451	-1.096	0.303	-0.591	23.66	30.03	-13.51
32470	-0.929	0.383	-0.528	1.26	20.37	-25.62
32494	-0.719	0.385	-0.551	-8.75	16.38	-33.18
32514	-0.569	0.349	-0.468	10.43	39.06	-33.95
32533	-0.956	0.263	-0.66	15.12	2.17	-29.05
32557	-0.907	0.285	-0.675	11.97	5.32	-28.98
32577	-0.749	0.194	-0.561	-15.75	-11.2	-25.2
32601	-0.59	0.193	-0.528	-0.77	-1.26	-17.29
32620	-0.88	0.265	-0.562	-14.28	-0.77	-10.99
32641	-0.796	0.028	-0.601	0.42	-3.78	-4.41
32661	-0.853	0.231	-0.552	-6.37	-0.63	2.8
32677	-0.811	0.157	-0.57	-7.77	-0.7	6.58
32700	-0.815	0.187	-0.59	-5.46	1.05	10.01
32721	-0.758	0.222	-0.581	-1.89	-0.84	11.34
32741	-0.873	0.237	-0.596	-3.71	-4.9	10.5
32761	-0.842	0.276	-0.587	-6.58	-7.21	4.83
32785	-0.774	0.299	-0.558	-3.78	-7.42	-0.63
32806	-0.776	0.298	-0.551	-0.28	-13.3	-4.41
32823	-0.855	0.285	-0.58	-2.17	-18.34	-5.46
32845	-0.851	0.183	-0.61	-4.27	-20.65	-0.07
32869	-0.895	0.18	-0.594	-8.26	-31.57	3.5
32888	-0.796	0.319	-0.562	-19.67	-32.13	3.22
32907	-0.85	0.245	-0.506	-23.94	-34.44	1.89
32932	-0.836	0.308	-0.518	-24.36	-38.22	1.12
32950	-0.837	0.306	-0.5	-25.97	-39.97	1.61
32970	-0.847	0.244	-0.517	-26.67	-49.14	1.05
32993	-0.847	0.303	-0.467	-26.88	-46.41	3.85
33014	-0.852	0.299	-0.486	-28.14	-50.4	5.18
33033	-0.847	0.249	-0.464	-21.91	-52.71	6.09
33054	-0.843	0.247	-0.418	-16.52	-50.61	6.02
33073	-0.922	0.217	-0.375	-9.59	-47.39	4.34
33098	-0.919	0.265	-0.308	-15.96	-39.34	-5.74
33118	-0.922	0.359	-0.375	-7.63	-46.83	-10.29
33138	-0.95	0.328	-0.364	-13.37	-37.31	-18.48
33158	-0.894	0.192	-0.365	-12.39	-48.65	-0.49
33177	-0.902	0.285	-0.321	-1.05	-44.24	-17.36
33198	-0.952	0.324	-0.316	6.44	-43.47	-20.37
33216	-1.029	0.274	-0.36	-1.26	-42.91	-29.26
33236	-0.844	0.496	-0.328	11.83	-55.51	-23.1
33260	-0.943	0.312	-0.303	3.78	-54.39	-28.28
33280	-0.975	0.238	-0.262	1.96	-55.3	-30.59
33299	-0.969	0.291	-0.263	11.9	-56.14	-30.24
33323	-0.99	0.265	-0.184	-5.18	-54.46	-37.94
33342	-0.938	0.255	-0.239	18.55	-56.84	-33.39
33363	-0.928	0.314	-0.228	10.15	-59.15	-33.67
33386	-0.968	0.123	-0.168	9.24	-63.28	-32.97
33410	-0.945	0.052	-0.175	25.62	-64.33	-30.31
33430	-0.959	0.198	-0.064	21.56	-64.33	-25.69
33449	-0.99	0.25	-0.027	11.69	-64.26	-23.17
33465	-0.973	0.119	0.025	-4.83	-54.18	-22.68
33486	-0.853	-0.027	0.025	1.68	-45.99	-21.56
33511	-0.951	-0.19	0.173	6.37	-42.56	-19.74
33530	-0.967	-0.124	-0.096	56.91	-43.47	-22.19
33548	-1.006	0.378	0.087	60.48	-34.58	-13.23
33568	-1.001	0.162	0.108	18.13	-26.25	-13.16
33588	-0.986	0.193	0.107	9.1	-24.64	-16.45
33612	-1.046	0.236	0.107	-13.72	-21.07	-17.36
33632	-1.019	-0.051	0.057	-55.79	-18.13	-24.36
33649	-0.869	0.079	-0.126	13.09	-16.94	-13.86
33668	-1.121	0.062	0.144	-24.92	-10.43	-7.56
33692	-0.944	-0.027	0.082	-14.91	-11.69	-4.27
33712	-0.891	-0.218	0.107	15.19	-6.79	0.91
33730	-0.898	-0.242	0.098	36.89	-1.19	3.85
33754	-0.854	-0.373	-0.017	62.02	8.05	5.6
33774	-0.988	-0.033	0.035	140.07	5.32	17.08
33789	-1.125	1.094	0.049	105.98	0.84	25.69
33814	-1.152	0.147	0.017	-71.61	9.24	6.72
33831	-0.891	0.001	0.027	-25.41	11.13	10.22
33850	-0.962	-0.044	0.031	-9.94	10.64	6.37
33869	-0.983	-0.06	0.005	19.67	10.29	6.79
33894	-1.002	0.179	0.018	30.03	14.28	4.83
33912	-1.026	0.274	0.008	16.73	10.15	3.99
33936	-1.019	0.192	-0.014	-3.99	8.75	1.82
33955	-0.972	0.024	-0.021	-2.87	9.8	1.54
33974	-0.996	-0.009	-0.016	23.38	9.87	1.75
33998	-1.029	0.189	-0.047	29.54	6.58	0.07
34019	-1.017	0.27	-0.012	3.08	7.0	-1.05
34042	-1.025	0.149	-0.05	-5.39	5.04	-3.08
34067	-0.994	0.104	-0.04	-4.2	3.15	-3.57
34085	-1.035	0.156	-0.033	-2.66	0.77	-4.83
34106	-0.982	0.211	-0.077	-14.35	0.28	-5.95
34126	-1.044	0.133	-0.087	-0.42	-4.27	-8.4
34145	-1.037	0.123	-0.035	-17.92	-6.65	-9.03
34165	-0.965	0.091	-0.031	-17.57	-9.94	-7.77
34190	-0.956	0.095	-0.043	-13.23	-8.75	-7.14
34210	-1.004	0.153	-0.016	-24.5	-10.92	-8.61
34230	-1.047	0.123	-0.045	-21.63	-11.9	-9.45
34247	-1.02	0.122	-0.032	-26.11	-11.76	-10.43
34266	-0.97	0.192	0.004	-32.34	-12.11	-11.2
34286	-0.97	0.144	0.006	-40.39	-11.97	-12.74
34307	-0.966	-0.009	0.01	-33.95	-8.82	-9.17
34328	-0.972	-0.031	0.033	-21.98	-3.78	-4.34
34352	-1.04	0.064	0.066	-13.93	-1.05	-0.21
34373	-0.99	0.066	-0.012	-14.84	-0.42	3.57
34388	-0.978	0.119	0.025	-17.01	2.73	5.88
34407	-1.03	0.112	0.065	-28.14	5.74	7.28
34432	-1.066	-0.0	0.07	-36.19	11.48	4.9
34452	-0.971	0.023	0.073	-21.84	13.65	8.82
34468	-1.019	0.105	0.017	-29.26	26.39	10.22
34492	-0.937	0.057	-0.029	-3.43	45.36	14.84
34512	-1.022	0.211	-0.114	-12.6	48.23	14.49
34528	-0.985	0.055	-0.01	1.05	47.11	16.52
34552	-0.851	0.157	-0.218	-3.01	32.41	6.02
34575	-0.772	0.279	-0.142	-44.73	34.65	-6.58
34595	-0.749	0.274	0.103	-61.25	38.71	-4.55
34618	-0.832	0.118	0.076	-51.38	16.1	3.01
34639	-1.118	-0.371	-0.276	-19.46	55.86	3.22
34654	-1.473	-0.253	-0.089	60.55	24.15	12.88
34674	-0.798	0.078	-0.087	82.25	13.44	18.9
34694	-0.865	0.231	-0.153	59.85	43.33	17.71
34717	-1.041	0.823	-0.0	-14.35	48.3	26.18
34741	-0.973	-0.248	-0.215	-30.87	39.27	28.77
34761	-0.666	-0.203	-0.456	51.38	55.3	34.16
34786	-0.898	0.277	-0.208	74.13	59.08	40.04
34803	-1.038	0.401	-0.225	15.82	62.44	35.28
34827	-1.017	0.47	-0.283	-23.38	70.07	33.18
34846	-0.892	-0.037	-0.312	-8.75	64.96	38.85
34866	-0.912	0.173	-0.329	32.76	64.96	39.55
34889	-0.92	0.326	-0.392	13.16	72.24	40.88
34913	-0.928	0.383	-0.439	2.03	66.01	29.47
34932	-0.772	0.278	-0.428	-13.16	71.4	25.97
34953	-0.923	0.305	-0.537	-0.56	53.76	15.54
34977	-0.969	0.392	-0.556	2.24	47.18	6.86
34996	-0.83	0.347	-0.453	8.75	46.97	5.11
35017	-0.993	0.278	-0.517	-20.44	35.98	-0.21
35032	-0.884	0.341	-0.474	0.14	25.2	-11.06
35057	-0.858	0.408	-0.482	-5.11	27.79	-19.39
35073	-0.73	0.303	-0.498	4.62	29.68	-19.39
35092	-0.702	0.272	-0.535	10.36	22.05	-23.31
35116	-0.892	0.087	-0.679	14.49	21.63	-18.55
35140	-0.914	0.241	-0.66	17.43	12.18	-9.59
35161	-0.813	0.385	-0.602	-14.77	4.55	1.26
35180	-0.757	0.234	-0.571	-17.15	1.68	4.97
35200	-0.765	0.253	-0.594	-6.16	4.83	7.84
35219	-0.88	0.334	-0.61	1.05	-2.94	3.22
35239	-0.829	0.385	-0.586	-0.28	-7.07	-3.5
35262	-0.803	0.35	-0.584	-2.94	-11.69	-9.38
35286	-0.871	0.261	-0.603	0.35	-15.54	-8.4
35306	-0.838	0.279	-0.58	-0.84	-22.33	-8.05
35324	-0.839	0.318	-0.555	-8.47	-26.95	-7.91
35347	-0.818	0.236	-0.557	-9.73	-30.24	-7.14
35368	-0.832	0.277	-0.54	-10.64	-35.56	-7.21
35388	-0.841	0.266	-0.502	-12.88	-38.5	-7.07
35408	-0.823	0.294	-0.481	-14.63	-41.09	-7.07
35428	-0.85	0.252	-0.508	-12.04	-44.38	-4.69
35445	-0.883	0.235	-0.508	-9.94	-47.74	-1.75
35465	-0.857	0.254	-0.483	-6.86	-50.4	-3.64
35488	-0.849	0.303	-0.458	-6.3	-51.66	-8.89
35509	-0.856	0.337	-0.412	-8.54	-48.58	-15.4
35528	-0.888	0.28	-0.402	-6.37	-44.87	-22.47
35552	-0.934	0.231	-0.343	0.21	-44.59	-31.43
35572	-0.969	0.263	-0.406	-5.11	-45.92	-37.8
35592	-0.911	0.275	-0.415	3.01	-47.53	-35.42
35612	-0.884	0.231	-0.419	0.21	-68.81	-41.86
35634	-0.983	0.197	-0.342	-15.4	-61.74	-42.98
35653	-0.946	0.243	-0.3	-18.55	-66.5	-38.71
35673	-0.95	0.198	-0.32	-13.65	-64.82	-35.63
35697	-0.984	0.175	-0.34	-3.64	-72.66	-34.72
35718	-0.987	0.21	-0.273	-3.57	-76.58	-35.14
35736	-0.953	0.183	-0.227	1.19	-76.72	-33.25
35760	-0.913	0.062	-0.234	-7.14	-75.46	-34.37
35780	-0.928	0.158	-0.126	15.82	-81.9	-32.62
35799	-1.021	0.171	-0.088	7.77	-84.7	-32.76
35818	-0.97	0.063	-0.104	6.3	-86.31	-31.15
35840	-0.976	-0.005	-0.176	2.1	-87.36	-32.2
35864	-1.019	0.212	0.077	-19.18	-73.92	-40.95
35884	-0.829	0.003	0.054	-44.38	-77.84	-31.57
35901	-0.941	-0.149	0.053	-16.94	-65.8	-28.84
35923	-0.93	-0.045	0.086	21.98	-65.24	-29.4
35947	-0.967	0.204	0.164	9.31	-59.15	-29.96
35967	-0.935	0.268	0.158	-31.43	-48.65	-33.46
35987	-0.931	0.194	0.261	-61.74	-38.29	-30.38
36006	-0.896	-0.126	0.298	-55.37	-29.26	-20.3
36029	-0.843	-0.465	0.21	-56.49	-4.83	-6.23
36049	-0.966	-0.538	0.156	23.59	-0.21	4.06
36073	-0.947	-0.273	0.166	57.54	13.09	13.86
36093	-1.051	0.181	0.155	57.82	8.26	20.09
36111	-1.078	0.298	0.1	-4.2	13.65	17.78
36135	-0.984	0.023	0.086	-24.43	8.47	11.69
36155	-0.998	-0.1	0.048	-4.9	7.14	9.03
36175	-0.992	-0.045	0.045	16.17	6.37	9.24
36193	-1.037	0.086	0.074	22.89	2.8	7.21
36210	-1.04	0.201	0.067	3.08	0.0	5.25
36231	-1.02	0.081	0.059	-8.82	-3.57	2.94
36251	-1.032	0.001	0.068	-4.69	-3.85	-1.12
36275	-1.017	0.039	0.076	7.0	-6.3	-3.99
36294	-0.971	0.077	0.132	9.94	-4.62	-4.62
36315	-0.981	0.029	0.113	6.72	-2.45	-3.71
36335	-0.962	-0.046	0.127	7.42	-0.28	-1.68
36355	-1.013	-0.031	0.119	14.35	3.36	2.1
36373	-0.942	0.011	0.153	3.22	6.02	4.62
36394	-0.942	-0.042	0.159	-17.43	13.44	3.36
36418	-0.93	-0.018	0.093	-8.12	17.78	9.87
36435	-1.046	0.08	0.118	0.14	14.77	15.82
36455	-1.055	0.054	0.083	-5.53	14.49	18.83
36479	-1.006	0.03	0.049	4.48	17.78	20.16
36499	-1.057	0.165	0.072	6.79	15.61	17.01
36519	-1.079	0.176	0.04	-6.3	15.61	10.57
36543	-1.014	0.224	0.041	-11.34	7.7	0.84
36562	-0.994	0.292	0.09	-21.63	4.2	-0.63
36587	-1.084	0.164	0.105	-11.69	11.97	3.15
36607	-1.074	0.197	0.16	-6.65	25.55	13.44
36630	-1.029	0.139	0.043	11.83	30.1	23.66
36647	-1.023	0.245	0.03	4.69	44.24	25.41
36671	-1.034	-0.104	-0.213	28.07	47.53	26.74
36690	-0.81	0.227	-0.409	43.96	9.38	14.84
36709	-0.65	-0.019	-0.49	50.75	45.99	19.53
36734	-0.551	-0.217	-0.194	81.76	35.7	10.78
36753	-0.419	0.084	-0.009	36.82	44.66	-0.14
36776	-0.813	-0.268	1.574	-35.35	64.26	-9.1
36797	-2.319	0.566	-0.399	-47.88	61.11	6.72
36815	-1.552	-0.377	-0.517	12.81	-68.81	-39.69
36835	-0.098	0.59	0.337	-41.79	102.41	19.18
36854	-1.351	-0.618	-1.014	136.29	29.68	17.99
36878	-1.056	0.932	0.196	3.92	69.23	20.93
36899	-0.834	-0.147	-0.141	-0.98	50.96	33.6
36919	-0.808	-0.081	-0.208	42.42	76.65	26.18
36939	-0.887	0.386	-0.412	-11.41	72.17	34.86
36958	-0.949	0.271	-0.366	30.52	80.29	42.63
36975	-1.098	0.242	-0.116	1.68	83.44	49.0
36994	-0.894	-0.219	-0.361	-30.73	70.14	31.29
37014	-0.933	-0.05	-0.478	40.67	77.84	44.03
37039	-0.922	0.33	-0.59	67.48	63.35	41.23
37059	-0.853	0.413	-0.437	-5.11	70.63	40.04
37079	-0.932	0.159	-0.41	-24.01	56.56	25.97
37096	-0.788	0.441	-0.462	3.99	46.9	15.33
37120	-1.005	0.255	-0.565	-0.28	42.49	5.04
37140	-0.835	0.253	-0.563	10.08	25.2	-0.91
37160	-0.798	0.336	-0.462	11.55	31.99	-9.52
37179	-0.861	0.427	-0.444	17.22	33.81	-17.64
37199	-0.755	0.437	-0.611	23.52	15.68	-21.49
37219	-0.91	0.276	-0.567	24.78	26.25	-20.3
37243	-1.025	0.099	-0.642	9.94	-12.81	-14.21
37263	-0.686	0.281	-0.559	-12.81	1.54	-2.8
37283	-0.748	0.207	-0.608	-19.04	-5.53	4.41
37301	-0.812	0.242	-0.615	-7.35	-14.98	9.24
37322	-0.909	0.187	-0.574	-7.49	-20.23	9.8
37345	-0.849	0.281	-0.508	-3.15	-26.74	4.9
37366	-0.897	0.38	-0.501	-8.75	-17.22	0.28
37388	-0.908	0.278	-0.539	-16.45	-24.22	-4.27
37412	-0.816	0.312	-0.529	-12.39	-27.65	-6.93
37432	-0.853	0.291	-0.496	-13.3	-31.71	-9.8
37451	-0.891	0.299	-0.543	-17.29	-37.94	-11.34
37469	-0.889	0.251	-0.502	-14.07	-37.94	-8.75
37493	-0.866	0.274	-0.448	-18.2	-42.91	-6.65
37508	-0.878	0.26	-0.425	-21.35	-41.44	-7.56
37533	-0.844	0.325	-0.41	-22.05	-42.63	-7.14
37553	-0.89	0.264	-0.4	-28.14	-45.36	-7.21
37570	-0.906	0.264	-0.373	-25.97	-48.58	-6.79
37590	-0.92	0.282	-0.354	-34.23	-49.21	-4.83
37610	-0.925	0.317	-0.346	-39.55	-53.97	-2.24
37632	-0.871	0.528	-0.371	-68.88	-55.16	0.42
37652	-0.967	0.078	-0.373	-46.48	-57.05	-4.06
37673	-0.908	0.327	-0.283	-39.69	-47.46	-11.13
37693	-0.901	0.288	-0.287	-36.96	-51.73	-15.12
37714	-0.933	0.246	-0.289	-23.59	-48.93	-20.3
37736	-0.921	0.274	-0.287	-5.32	-40.95	-23.66
37760	-0.934	0.357	-0.033	-22.47	-38.29	-25.27
37779	-0.93	0.142	-0.113	-18.62	-36.68	-28.42
37798	-0.977	0.218	-0.295	-5.6	-34.3	-31.57
37817	-0.997	0.353	-0.232	-12.32	-25.9	-33.04
37842	-0.944	0.247	-0.241	-19.25	-37.73	-25.41
37862	-0.969	0.092	-0.106	-12.81	-36.47	-24.92
37881	-0.959	0.019	-0.175	2.94	-39.97	-24.5
37906	-1.008	0.188	-0.248	29.12	-39.9	-21.07
37925	-1.006	0.244	-0.083	21.84	-41.37	-17.99
37945	-0.947	0.09	-0.075	19.53	-44.87	-21.63
37966	-0.977	0.027	-0.219	36.33	-42.35	-21.77
37983	-1.008	0.169	0.0	55.37	-45.15	-19.88
38007	-0.987	0.322	-0.073	49.42	-45.64	-23.24
38027	-0.963	0.282	0.093	9.03	-43.26	-24.85
38046	-0.928	0.131	0.08	10.29	-45.22	-28.56
38067	-1.043	0.167	0.06	0.14	-46.06	-28.42
38085	-0.923	0.179	-0.086	-8.68	-44.03	-24.99
38109	-0.986	0.005	0.06	-12.46	-37.17	-19.81
38128	-0.928	-0.144	0.37	-22.68	-30.59	-19.11
38147	-0.874	-0.026	0.421	1.82	-37.59	-21.35
38172	-0.892	-0.343	0.453	-1.12	-37.66	-13.3
38192	-0.761	0.19	-0.64	-22.05	-70.49	-30.52
38210	-0.703	0.225	-1.096	111.09	21.84	20.44
38234	-2.498	0.714	0.258	-73.64	-26.46	-33.88
38249	-0.469	0.153	0.082	31.57	-48.16	-9.8
38274	-1.033	0.422	0.157	-55.65	-18.06	-16.87
38292	-0.914	-0.029	0.223	-56.56	8.05	-13.44
38313	-0.959	-0.34	0.1	36.33	-9.52	-8.12
38333	-0.931	0.034	0.215	32.69	6.02	0.63
38353	-0.955	-0.069	0.097	18.69	7.7	3.08
38377	-0.98	0.072	0.068	2.94	11.9	7.7
38397	-0.996	0.062	0.058	2.38	13.23	8.89
38417	-1.144	0.245	0.072	2.94	5.25	6.72
38441	-0.935	0.149	0.115	-14.56	8.61	5.18
38461	-0.969	0.135	0.074	-10.71	9.66	6.02
38476	-0.986	0.087	0.031	-7.07	8.61	4.34
38501	-1.102	0.061	0.022	6.58	7.35	1.61
38521	-1.104	0.185	0.037	11.76	2.17	-0.49
38545	-0.876	0.111	0.067	3.08	-0.35	-4.69
38565	-0.996	0.139	0.05	3.92	-1.26	-3.57
38585	-0.982	0.037	0.073	0.28	-2.17	-1.12
38609	-0.907	-0.046	0.072	4.2	2.94	1.96
38624	-1.075	0.139	0.092	9.66	4.13	4.13
38649	-0.963	0.137	0.098	-6.09	8.05	7.0
38669	-0.956	0.001	0.089	-6.79	14.21	10.57
38688	-0.991	0.102	0.083	-6.79	15.75	11.97
38712	-1.006	0.078	0.049	0.7	20.58	11.13
38732	-1.066	0.145	0.063	11.97	20.16	9.24
38748	-0.978	0.169	0.054	18.69	23.73	5.6
38771	-0.988	0.261	0.014	12.67	25.34	0.07
38795	-0.987	0.239	-0.047	18.2	28.0	-4.9
38815	-0.976	0.21	-0.046	13.37	24.36	-2.03
38836	-0.852	-0.031	0.02	33.46	33.04	3.08
38855	-0.937	-0.207	-0.075	53.69	41.65	7.14
38873	-0.951	-0.124	-0.044	88.27	42.56	8.61
38893	-0.908	0.184	0.071	78.61	54.95	14.42
38913	-1.068	0.064	-0.11	57.82	50.05	16.38
38933	-1.079	0.343	-0.22	63.63	58.73	21.7
38953	-0.963	0.413	-0.005	9.38	67.76	23.45
38974	-0.865	0.055	0.057	-52.5	48.16	22.26
38996	-0.737	-0.12	-0.37	-14.0	87.85	24.78
39019	-1.177	0.408	-0.084	-0.35	67.83	16.73
39042	-0.936	0.409	-0.29	-38.08	71.54	9.8
39063	-1.043	-0.035	-0.362	-20.79	71.54	21.56
39081	-0.875	-0.015	-0.317	-22.54	66.5	30.38
39105	-0.726	-0.311	-0.46	18.9	84.49	38.99
39120	-1.074	0.329	-0.315	39.41	78.05	45.22
39144	-0.989	0.475	-0.362	-3.08	79.38	44.31
39165	-0.925	0.214	-0.572	6.58	50.4	42.07
39180	-0.784	0.258	-0.436	-25.06	71.89	29.89
39200	-1.027	0.369	-0.493	2.38	56.0	19.32
39220	-0.868	0.381	-0.407	4.06	48.58	12.81
39245	-0.806	0.432	-0.508	0.42	46.55	-6.65
39264	-0.991	0.396	-0.605	11.2	45.64	-14.77
39282	-0.897	0.457	-0.56	6.23	46.9	-26.95
39306	-0.919	0.4	-0.464	4.69	29.54	-36.54
39325	-0.782	0.353	-0.652	12.18	1.19	-51.38
39344	-0.757	0.266	-0.632	20.79	29.19	-37.03
39366	-0.889	0.248	-0.686	11.2	-5.25	-31.57
39386	-0.754	0.113	-0.616	4.83	0.7	-26.11
39410	-0.817	0.131	-0.565	13.93	-5.25	-23.24
39430	-0.736	0.281	-0.488	-5.04	-3.15	-18.83
39448	-0.912	0.181	-0.617	-18.41	-4.62	-10.5
39470	-0.789	0.075	-0.619	-8.61	-1.61	-1.96
39486	-0.827	0.146	-0.55	-1.54	-3.08	2.73
39510	-0.787	0.233	-0.545	-0.84	-0.77	2.03
39530	-0.805	0.254	-0.579	-2.52	-0.7	1.4
39548	-0.873	0.24	-0.578	0.0	-0.28	0.21
39570	-0.751	0.256	-0.6	-2.59	-4.69	-4.69
39590	-0.789	0.254	-0.562	-3.71	-12.67	-5.11
39614	-0.818	0.217	-0.629	-8.4	-15.61	2.17
39634	-0.894	0.176	-0.643	-15.61	-24.78	7.35
39654	-0.837	0.168	-0.576	-25.2	-30.59	12.32
39672	-0.853	0.204	-0.545	-27.16	-38.57	15.54
39694	-0.755	0.219	-0.51	-25.9	-39.2	19.81
39718	-0.841	0.197	-0.528	-15.33	-43.47	20.93
39738	-0.906	0.255	-0.502	-17.01	-48.23	19.25
39757	-0.836	0.352	-0.472	-21.42	-52.08	17.29
39776	-0.831	0.269	-0.447	-22.33	-53.62	18.06
39801	-0.866	0.167	-0.453	-15.89	-50.96	18.13
39820	-0.876	0.251	-0.474	-0.21	-52.15	17.64
39844	-0.848	0.365	-0.388	-2.38	-54.53	15.26
39860	-0.866	0.317	-0.351	-9.94	-52.29	11.34
39884	-0.873	0.286	-0.352	-10.15	-45.99	-1.19
39904	-0.967	0.262	-0.346	-6.09	-42.14	-10.71
39924	-0.899	0.328	-0.333	0.49	-52.64	-18.48
39943	-0.93	0.399	-0.389	13.51	-47.46	-25.13
39964	-1.041	0.34	-0.352	10.29	-56.14	-28.63
39986	-0.874	0.335	-0.25	8.19	-51.8	-31.92
40010	-0.892	0.273	-0.338	5.46	-61.04	-33.53
40030	-0.99	0.163	-0.289	10.99	-60.55	-32.13
40050	-1.04	0.269	-0.258	16.45	-65.03	-30.8
40069	-0.946	0.325	-0.245	6.23	-70.98	-32.9
40093	-0.939	0.209	-0.109	-10.29	-68.67	-29.4
40113	-0.853	0.063	-0.132	-2.66	-70.7	-29.68
40133	-0.9	0.133	-0.222	17.99	-66.64	-26.46
40151	-0.996	0.117	-0.158	40.88	-59.36	-20.16
40172	-0.945	0.163	0.02	8.96	-66.15	-24.36
40196	-0.955	0.284	-0.073	-6.37	-66.43	-22.96
40216	-0.917	0.168	-0.046	-12.11	-64.05	-20.16
40233	-1.034	-0.049	-0.048	-20.86	-63.98	-18.76
40257	-0.931	0.117	0.03	5.25	-67.55	-15.96
40274	-0.956	0.257	0.14	0.35	-63.98	-13.86
40293	-0.914	0.246	0.203	-23.8	-45.08	-17.85
40317	-0.956	0.261	0.265	-22.89	-30.52	-15.61
40338	-0.889	-0.045	0.192	-17.01	-19.04	-7.63
40358	-0.836	-0.105	0.126	15.61	-10.57	4.06
40376	-0.884	-0.056	0.129	30.1	2.66	13.79
40396	-1.087	0.137	0.103	35.28	4.2	19.25
40416	-0.922	0.272	0.081	13.3	4.55	23.1
40440	-0.928	0.305	0.109	-20.09	9.94	28.42
40460	-1.019	-0.018	0.003	-33.25	14.7	22.4
40480	-1.081	0.011	-0.059	23.31	3.71	21.84
40498	-1.087	0.241	-0.024	27.44	-1.54	16.17
40517	-1.07	0.573	0.09	7.98	-8.33	8.26
40541	-0.907	0.421	0.089	-44.94	-2.94	3.5
40561	-0.966	0.153	0.119	-42.14	-0.07	2.03
40585	-0.952	0.119	0.049	3.99	-4.69	2.94
40604	-0.938	0.108	0.038	20.93	-0.49	2.45
40620	-1.075	0.313	0.028	25.97	-4.69	-1.89
40642	-0.955	0.29	0.06	-4.69	-8.89	-3.43
40666	-0.928	0.212	0.073	-13.16	-3.08	-2.73
40686	-0.966	0.218	0.098	-16.38	-2.17	-2.59
40705	-0.917	0.112	0.081	-10.64	0.21	-0.91
40725	-0.965	0.133	0.092	1.05	3.64	0.91
40742	-1.034	0.233	0.067	2.17	3.78	0.56
40765	-1.017	0.164	0.088	-7.07	5.74	-0.7
40786	-1.009	0.089	0.087	10.08	9.94	2.45
40805	-0.962	0.193	0.17	13.3	16.8	7.77
40825	-1.028	0.136	0.057	15.89	21.0	9.45
40845	-1.108	0.175	0.062	21.28	19.88	11.13
40867	-1.029	0.318	0.069	15.89	21.14	11.13
40891	-1.046	0.316	0.078	-3.78	27.51	6.86
40911	-1.141	0.373	0.135	-32.06	29.82	-0.91
40930	-1.124	0.456	0.2	-34.3	39.06	4.13
40950	-1.032	0.435	0.091	-29.19	33.39	10.5
40970	-1.083	0.241	0.031	-4.41	41.23	20.16
40993	-0.957	0.188	-0.224	32.76	29.12	18.2
41012	-0.69	0.51	-0.208	12.25	33.04	11.27
41032	-0.707	0.538	-0.195	3.57	29.12	7.0
41056	-0.668	0.787	-0.152	-40.88	1.61	11.48
41075	-0.726	0.243	-0.157	-23.8	1.75	14.49
41096	-0.531	0.072	0.013	-13.93	-18.27	14.63
41116	-0.574	0.222	-0.125	1.68	-15.47	10.08
41133	-0.596	0.087	-0.273	-12.53	-10.99	-2.24
41156	-0.884	0.588	-0.024	64.75	-30.24	6.44
41177	-0.554	-0.902	1.071	-160.02	153.23	33.95
41195	-3.329	-2.03	-1.395	-59.71	64.82	-110.6
41218	-0.529	0.356	-0.071	208.46	-122.64	-42.35
41235	0.425	1.368	1.129	-40.6	197.61	34.3
41259	-1.352	-0.134	-0.203	35.7	11.13	4.97
41279	-1.186	0.222	-0.793	-57.96	71.54	-7.56
41299	-0.768	-0.027	-0.593	64.26	51.66	24.29
41322	-0.813	0.267	-0.272	14.56	67.55	16.17
41342	-0.626	0.31	-0.409	19.46	59.57	23.59
41363	-1.052	0.324	-0.207	26.32	51.03	28.98
41387	-0.913	0.201	-0.264	32.41	66.85	46.97
41406	-0.909	0.185	-0.279	57.61	73.43	52.08
41427	-0.811	0.305	-0.408	58.38	76.3	57.4
41444	-0.948	0.477	-0.44	28.42	52.43	45.15
41467	-0.737	0.443	-0.377	16.94	67.9	37.87
41487	-0.937	0.29	-0.406	8.82	39.41	36.26
41507	-0.902	0.407	-0.449	6.37	47.95	22.75
41526	-0.947	0.379	-0.534	0.21	37.45	14.56
41551	-0.777	0.368	-0.494	17.92	34.02	8.19
41569	-0.805	0.423	-0.437	24.08	36.12	0.0
41591	-0.988	0.572	-0.388	25.97	23.24	-17.99
41610	-0.845	0.505	-0.405	0.7	29.61	-23.03
41630	-0.751	0.251	-0.59	22.05	22.75	-33.88
41651	-0.81	0.539	-0.563	15.82	22.26	-40.88
41674	-0.862	0.279	-0.567	6.65	9.8	-38.64
41694	-0.8	0.3	-0.557	18.55	11.83	-34.23
41718	-0.808	0.274	-0.623	11.55	-6.44	-31.01
41737	-0.799	0.278	-0.534	0.49	-8.05	-21.35
41757	-0.803	0.266	-0.528	-5.88	-6.86	-15.54
41776	-0.834	0.194	-0.566	-6.02	-14.14	-7.84
41800	-0.769	0.263	-0.49	-2.17	-9.03	-2.38
41819	-0.852	0.332	-0.475	-3.57	-3.5	-5.11
41843	-0.91	0.386	-0.507	-16.17	-3.92	-9.45
41863	-0.856	0.267	-0.528	-21.21	-5.11	-11.55
41883	-0.765	0.316	-0.495	-11.06	-0.7	-12.88
41901	-0.842	0.304	-0.528	-12.18	-6.93	-12.6
41925	-0.849	0.186	-0.546	-6.51	-5.88	-8.05
41944	-0.834	0.233	-0.535	-0.35	-11.55	-0.77
41963	-0.879	0.181	-0.557	-1.96	-18.97	7.0
41988	-0.858	0.279	-0.533	-9.03	-24.43	12.11
42008	-0.85	0.295	-0.504	-13.86	-23.8	14.7
42032	-0.895	0.323	-0.485	-12.46	-29.68	16.03
42051	-0.85	0.266	-0.459	-4.83	-28.56	19.81
42072	-0.865	0.301	-0.481	-9.17	-30.94	20.51
42091	-0.853	0.372	-0.408	-17.64	-29.33	20.65
42114	-0.847	0.306	-0.422	-16.24	-33.53	19.46
42135	-0.838	0.341	-0.416	-6.37	-31.15	20.16
42154	-0.887	0.333	-0.43	-3.92	-36.05	19.11
42173	-0.859	0.338	-0.414	-3.15	-37.45	15.47
42193	-0.804	0.328	-0.426	2.38	-38.99	11.97
42216	-0.844	0.425	-0.387	5.53	-32.41	4.34
42240	-0.88	0.434	-0.362	0.84	-26.88	-8.61
42260	-0.973	0.432	-0.336	-0.42	-39.48	-21.14
42280	-0.855	0.362	-0.358	0.14	-38.92	-22.12
42299	-0.924	0.351	-0.388	9.31	-45.64	-26.39
42318	-0.905	0.467	-0.336	12.81	-52.99	-29.54
42338	-0.914	0.339	-0.364	1.54	-53.69	-34.72
42363	-0.958	0.318	-0.325	12.74	-52.71	-36.19
42378	-0.951	0.362	-0.293	9.94	-56.7	-36.26
42403	-0.951	0.354	-0.304	12.18	-59.15	-39.2
42423	-0.948	0.36	-0.269	4.06	-60.83	-41.79
42443	-0.944	0.337	-0.24	-0.35	-62.93	-44.03
42463	-1.006	0.373	-0.233	-8.05	-71.26	-43.89
42482	-0.966	0.302	-0.18	-17.85	-73.78	-41.23
42501	-0.908	0.163	-0.134	-12.6	-63.49	-41.93
42521	-0.734	0.148	0.024	-25.76	-39.9	-37.31
42544	-0.88	0.177	-0.116	-3.15	-68.04	-40.04
42568	-0.976	0.341	-0.024	-34.86	-70.21	-33.46
42588	-0.957	0.089	-0.113	-48.23	-70.35	-34.23
42607	-0.971	0.041	-0.041	-24.78	-68.53	-32.76
42627	-0.954	0.07	0.099	-29.89	-62.44	-29.26
42646	-0.936	0.038	0.084	-19.88	-60.9	-29.54
42669	-0.902	0.079	0.129	-5.95	-49.63	-26.32
42693	-0.898	0.162	0.115	-9.94	-43.33	-25.34
42711	-0.937	0.194	0.183	-19.18	-29.26	-25.2
42730	-0.984	0.145	0.142	-29.4	-24.71	-23.1
42754	-0.973	0.031	0.14	-28.0	-15.82	-21.28
42774	-0.943	-0.052	0.15	-6.86	-11.27	-14.21
42793	-0.921	-0.14	0.152	15.4	0.84	-7.42
42814	-1.083	0.133	0.165	17.5	-1.47	-6.65
42834	-0.95	0.057	0.096	4.97	1.4	-3.36
42858	-1.01	0.054	0.066	0.0	2.31	-0.07
42878	-1.0	0.021	0.064	3.64	0.7	2.1
42897	-1.01	0.032	0.07	10.57	1.47	4.2
42918	-1.023	0.14	0.108	3.99	-3.5	4.06
42941	-0.945	0.142	0.091	-4.34	1.33	6.09
42962	-0.989	0.102	0.074	-14.56	0.49	5.04
42980	-0.985	0.083	0.08	-13.86	0.7	3.99
42999	-1.059	0.085	0.076	-10.85	-2.17	4.13
43023	-0.968	0.058	0.111	-14.77	0.56	6.3
43044	-0.93	0.056	0.149	-0.07	4.69	9.94
43063	-0.977	0.081	0.068	0.84	3.85	13.23
43087	-1.051	0.079	0.069	0.21	3.71	15.61
43111	-1.052	0.149	0.095	-2.59	0.35	16.94
43131	-0.945	0.055	0.109	-6.65	6.79	19.95
43151	-1.003	0.088	0.083	-0.21	8.12	21.35
43173	-0.986	0.062	0.114	4.34	11.76	23.45
43193	-1.112	0.161	0.109	8.12	19.53	20.3
43214	-0.986	0.235	0.088	5.67	14.7	15.05
43235	-0.985	0.252	0.084	-6.16	16.52	16.38
43255	-0.999	0.222	0.055	-23.45	19.6	14.77
43279	-0.987	0.065	0.006	6.23	33.11	30.94
43299	-1.072	-0.102	-0.018	36.75	43.12	27.3
43318	-1.011	0.209	-0.113	89.25	27.79	17.71
43334	-0.91	0.655	-0.2	58.66	15.82	8.12
43356	-0.847	0.326	-0.336	-13.86	26.25	0.56
43377	-0.652	-0.037	-0.583	69.09	29.12	8.19
43396	-0.7	-0.278	-0.336	100.59	52.43	14.21
43421	-1.052	-0.059	0.903	125.37	60.13	16.38
43441	-1.381	0.108	1.229	43.05	-6.86	-10.36
43460	-0.736	0.716	-0.793	68.74	-2.1	-9.87
43484	-1.143	0.227	0.373	-1.89	66.85	23.59
43501	-1.073	0.128	0.332	4.55	43.05	15.05
43521	-0.723	-0.119	-0.59	52.99	97.51	31.85
43544	-1.081	0.533	-0.06	51.52	68.18	34.02
43563	-0.856	0.244	-0.336	-81.06	87.01	19.25
43586	-0.688	0.373	-0.472	-8.96	57.19	20.93
43609	-0.542	0.343	-0.061	-11.27	88.55	30.31
43630	-0.664	0.134	-0.333	-6.72	110.74	28.0
43649	-1.386	-0.093	-0.571	9.1	112.28	40.11
43668	-0.945	0.205	-0.528	72.59	45.5	42.63
43691	-0.783	0.522	-0.358	22.68	60.76	37.73
43710	-0.771	0.546	-0.489	-8.33	68.53	28.98
43731	-1.038	0.206	-0.595	2.94	42.98	23.1
43751	-0.849	0.288	-0.524	7.49	41.3	13.02
43771	-0.781	0.432	-0.406	-1.4	43.05	1.12
43794	-0.597	0.516	-0.556	9.1	40.53	-6.65
43813	-0.894	0.475	-0.409	22.4	58.45	-14.84
43837	-1.09	0.453	-0.559	28.7	20.16	-33.39
43861	-0.827	0.403	-0.625	12.39	24.08	-45.78
43880	-0.691	0.031	-0.901	-90.93	29.4	-60.83
43899	-0.713	0.583	-0.63	-92.12	8.68	-58.1
43918	-0.904	0.837	-0.099	44.87	24.43	-0.35
43937	-0.7	-0.189	-0.781	-100.17	-9.03	-13.44
43962	-0.959	0.266	-0.609	43.61	-7.35	4.06
43982	-0.674	0.213	-0.595	-3.43	-19.95	4.55
44002	-0.791	0.284	-0.538	1.4	-3.78	4.9
44022	-0.953	0.404	-0.556	1.61	-5.46	-1.4
44041	-0.865	0.269	-0.564	-8.68	-6.37	-3.92
44066	-0.771	0.272	-0.518	-1.4	-3.29	-5.95
44084	-0.724	0.434	-0.47	-8.54	0.56	-9.52
44108	-0.832	0.134	-0.553	-17.92	-0.28	-7.0
44131	-0.803	0.21	-0.606	-5.67	-3.5	-1.75
44148	-0.8	0.223	-0.561	-4.83	-8.89	1.54
44167	-0.758	0.353	-0.526	0.07	-8.75	1.47
44192	-0.773	0.379	-0.555	-3.99	-11.2	0.28
44212	-0.773	0.319	-0.557	-0.14	-13.72	-0.28
44237	-0.825	0.254	-0.504	-2.24	-17.22	-1.26
44256	-0.86	0.323	-0.509	-10.85	-18.2	-0.21
44280	-0.803	0.277	-0.526	-6.02	-15.26	4.34
44299	-0.845	0.309	-0.557	-4.9	-21.77	7.77
44316	-0.852	0.304	-0.549	-11.62	-28.98	7.84
44335	-0.852	0.367	-0.516	-18.9	-31.29	8.61
44360	-0.867	0.347	-0.476	-24.85	-33.11	9.31
44379	-0.896	0.287	-0.468	-13.79	-29.75	11.62
44400	-0.808	0.385	-0.462	-26.18	-46.9	6.79
44424	-0.761	0.462	-0.351	-30.17	-37.31	9.31
44444	-0.844	0.306	-0.42	-9.45	-36.05	9.52
44464	-0.851	0.29	-0.453	10.99	-35.98	10.15
44482	-0.868	0.285	-0.423	5.74	-35.84	9.38
44502	-0.866	0.303	-0.434	10.01	-33.11	4.2
44521	-0.863	0.544	-0.356	4.41	-31.08	-4.55
44546	-0.848	0.464	-0.356	-4.34	-32.76	-18.83
44566	-0.821	0.443	-0.333	-7.0	-22.96	-28.63
44586	-0.964	0.207	-0.402	-0.42	-37.1	-35.0
44610	-0.924	0.27	-0.382	19.39	-36.33	-34.16
44627	-0.947	0.324	-0.414	19.81	-39.83	-36.26
44649	-0.976	0.341	-0.415	24.71	-49.14	-37.66
44667	-0.883	0.384	-0.314	8.68	-53.76	-34.72
44691	-0.848	0.288	-0.341	-4.9	-56.0	-35.07
44707	-0.969	0.166	-0.323	2.17	-53.9	-36.68
44731	-1.026	0.242	-0.266	4.27	-60.55	-35.49
44749	-0.954	0.238	-0.294	4.97	-66.78	-34.44
44773	-0.929	0.216	-0.304	9.73	-70.77	-34.72
44793	-0.931	0.257	-0.209	15.54	-71.12	-31.08
44813	-0.863	0.17	-0.111	4.62	-71.89	-26.67
44833	-0.937	0.147	-0.159	-0.98	-72.45	-28.91
44852	-0.989	0.159	-0.122	8.75	-70.98	-25.55
44873	-1.035	0.285	-0.032	-11.27	-69.65	-21.21
44892	-0.945	0.164	-0.055	-24.36	-69.44	-19.18
44916	-0.857	0.079	-0.017	-22.33	-62.86	-16.45
44936	-0.91	0.044	0.001	-4.27	-59.43	-16.17
44951	-0.961	0.073	0.031	11.48	-54.67	-15.96
44974	-0.942	0.154	0.061	15.89	-48.51	-13.86
44996	-0.884	0.257	0.197	4.83	-32.2	-11.2
45016	-0.905	0.141	0.193	-15.19	-23.1	-10.01
45038	-0.892	0.013	0.183	-18.27	-9.45	-6.23
45058	-0.841	-0.144	0.146	-11.06	6.72	4.13
45080	-0.935	-0.313	0.092	51.8	18.55	9.24
45097	-1.017	-0.153	0.082	69.86	28.77	17.36
45121	-1.03	0.226	0.06	95.83	32.13	25.83
45142	-0.949	0.505	0.152	33.6	35.07	23.17
45166	-0.887	0.367	0.145	-18.27	52.64	31.01
45186	-1.081	-0.228	-0.163	-5.53	69.58	26.53
45210	-1.1	0.3	-0.179	56.14	49.07	22.89
45231	-0.864	0.561	-0.086	20.23	45.22	17.78
45251	-0.905	0.204	-0.169	-13.51	44.1	11.62
45271	-0.934	0.31	-0.245	37.8	38.36	1.75
45295	-1.016	0.55	-0.176	26.11	25.34	-6.93
45314	-1.072	0.374	-0.237	-0.7	18.9	-21.07
45334	-1.05	0.273	-0.263	4.97	9.03	-27.09
45352	-0.981	0.492	-0.191	10.99	5.11	-31.5
45375	-0.958	0.263	-0.194	-0.07	2.31	-37.73
45395	-1.013	0.199	-0.24	0.98	-1.89	-44.59
45415	-1.027	0.278	-0.199	5.6	-7.49	-49.7
45434	-0.953	0.196	-0.199	-36.05	-17.08	-45.85
45454	-1.01	-0.164	-0.318	-27.44	-12.04	-46.27
45475	-0.931	0.132	-0.211	-9.73	-14.7	-41.79
45495	-0.931	0.163	-0.176	-13.16	-22.54	-44.03
45519	-0.998	0.052	-0.205	-4.48	-27.86	-46.13
45539	-0.999	0.015	-0.146	2.38	-31.36	-49.21
45559	-0.976	0.136	-0.121	-13.72	-27.44	-49.07
45576	-0.981	0.146	-0.049	-36.61	-24.22	-51.03
45595	-1.017	-0.043	-0.055	-27.79	-25.69	-47.74
45620	-0.986	-0.091	-0.063	-9.73	-23.38	-41.44
45640	-0.984	-0.062	-0.044	-8.19	-20.37	-36.89
45660	-0.977	-0.142	-0.014	-7.63	-14.7	-28.28
45679	-0.957	-0.19	-0.024	-4.55	-8.47	-20.72
45701	-0.964	-0.146	-0.029	-9.1	-4.97	-11.62
45720	-0.969	-0.096	-0.03	-13.65	0.98	-1.75
45745	-0.974	-0.111	-0.03	-12.25	4.55	5.25
45763	-0.961	-0.103	-0.033	-12.18	9.03	9.24
45783	-1.01	-0.123	-0.084	-8.75	11.9	12.39
45807	-1.023	-0.012	-0.149	2.52	7.84	10.99
45827	-1.018	0.098	-0.137	1.54	1.96	6.65
45847	-1.026	0.118	-0.099	-6.3	-1.61	3.43
45867	-1.006	0.032	-0.075	-8.4	-2.03	1.33
45887	-1.023	-0.08	-0.123	-3.99	-3.85	3.22
45907	-1.007	-0.032	-0.114	-4.55	-6.16	5.53
45924	-1.017	0.008	-0.107	-8.68	-7.42	5.74
45948	-1.024	0.05	-0.081	-12.95	-8.68	6.09
45966	-0.986	-0.018	-0.073	-15.68	-8.12	7.77
45989	-1.003	-0.114	-0.074	-12.95	-6.93	12.11
46010	-1.059	-0.123	-0.123	7.84	-14.91	18.41
46029	-1.022	-0.024	-0.102	-2.73	-7.49	17.64
46046	-1.001	0.003	-0.101	-0.14	-8.61	18.69
46069	-1.017	0.011	-0.07	-6.93	-9.17	19.88
46087	-0.992	0.003	-0.053	-5.95	-7.42	20.23
46106	-0.993	-0.008	-0.099	7.49	-8.54	21.21
46126	-1.016	0.077	-0.083	8.68	-10.43	21.21
46146	-1.067	0.021	-0.095	9.52	-10.71	21.49
46171	-1.085	-0.004	-0.059	19.32	-14.35	21.84
46186	-1.043	-0.012	-0.052	19.74	-13.16	22.26
46211	-1.048	0.005	-0.06	33.39	-11.06	22.68
46229	-1.017	0.135	-0.006	30.45	-8.12	22.54
46250	-1.004	0.085	-0.013	33.04	-7.35	22.12
46268	-1.02	0.16	-0.019	34.51	-6.16	23.17
46287	-1.056	0.134	-0.108	31.01	-12.04	20.58
46310	-0.994	0.194	-0.056	25.97	-12.74	21.42
46327	-0.997	0.21	-0.067	23.73	-16.17	21.7
46351	-0.963	0.208	-0.082	20.51	-17.92	20.37
46370	-0.97	0.177	-0.064	12.81	-17.71	18.69
46391	-1.025	0.177	-0.045	6.72	-18.55	15.4
46415	-1.062	0.183	0.001	3.08	-18.06	12.74
46435	-1.087	0.216	0.037	5.88	-17.85	11.34
46455	-1.066	0.252	0.055	10.36	-18.62	10.15
46475	-1.054	0.296	0.046	5.46	-19.04	7.91
46494	-1.029	0.267	-0.046	2.1	-18.69	6.37
46514	-0.99	0.218	-0.125	0.0	-16.52	6.44
46533	-0.901	0.147	-0.244	-2.45	-10.43	4.55
46556	-0.833	0.102	-0.539	-7.84	-5.39	-0.63
46579	-0.89	0.057	-0.846	-16.52	0.7	-11.83
46598	-0.794	0.265	-0.972	16.59	51.94	-4.9
46619	-0.895	0.588	-0.597	-17.08	54.88	4.13
46643	-0.876	0.323	-0.452	-59.08	65.87	10.43
46663	-0.906	0.023	-0.429	-55.44	79.03	10.92
46680	-0.9	0.169	-0.428	-31.29	73.92	9.52
46700	-0.896	0.3	-0.385	-47.95	85.33	2.59
46719	-0.979	0.378	-0.207	-70.49	83.93	-2.8
46744	-0.951	0.427	-0.08	-124.53	77.56	-2.73
46764	-0.942	0.272	-0.066	-130.2	75.04	5.6
46783	-0.973	0.089	-0.005	-110.25	67.41	12.04
46806	-0.966	0.008	0.007	-54.25	59.57	16.38
46826	-0.964	0.14	0.06	-16.87	49.07	15.61
46846	-0.988	0.21	0.114	5.53	38.29	14.49
46865	-0.969	0.212	0.131	13.09	25.62	10.99
46889	-0.964	0.205	0.095	21.28	13.72	3.5
46910	-0.989	0.219	0.05	15.89	-0.21	-6.16
46927	-1.053	0.183	0.063	6.58	-9.87	-14.14
46951	-1.122	0.228	0.013	-2.17	-24.01	-22.68
46971	-1.055	0.165	-0.022	-16.17	-30.1	-26.46
46995	-1.069	0.07	-0.06	-14.49	-30.17	-30.45
47015	-1.175	0.144	-0.101	0.56	-24.36	-27.86
47033	-1.122	0.135	-0.154	0.0	-22.61	-25.9
47057	-1.091	0.045	-0.224	10.57	-17.29	-25.13
47074	-1.027	0.133	-0.274	25.34	-14.0	-18.55
47092	-1.039	0.19	-0.218	26.04	-7.91	-12.81
47117	-0.996	0.13	-0.193	26.88	0.7	-7.07
47136	-0.91	0.195	-0.229	25.41	6.23	-4.2
47160	-0.942	0.169	-0.228	24.5	6.02	-1.47
47178	-0.882	0.164	-0.194	29.75	6.51	-0.84
47202	-0.91	0.153	-0.073	34.16	3.5	1.68
47221	-0.906	0.212	-0.354	66.85	-14.91	3.99
47242	-1.237	-0.006	-0.082	16.45	-26.81	-26.04
47266	-0.835	0.111	-0.56	16.31	-21.28	-18.2
47286	-1.165	0.427	-0.482	27.09	4.9	-9.59
47304	-1.075	0.404	-0.045	-41.37	-16.17	-26.39
47324	-0.799	0.303	-0.305	-70.98	-17.43	-32.97
47344	-1.037	0.194	-0.274	-62.72	-8.96	-27.09
47368	-1.032	0.049	-0.212	-33.04	-21.28	-26.46
47388	-0.891	0.001	-0.237	11.2	-25.83	-26.95
47407	-0.973	0.124	-0.196	17.78	-26.6	-26.74
47431	-0.976	0.138	-0.212	19.6	-24.57	-24.92
47451	-0.969	0.122	-0.14	2.1	-19.39	-22.96
47469	-1.09	0.06	-0.161	2.45	-21.0	-25.34
47493	-1.065	0.137	-0.12	-2.45	-19.46	-24.78
47513	-0.961	0.125	-0.142	-9.94	-16.03	-26.95
47532	-0.972	0.131	-0.156	-9.52	-19.39	-23.1
47556	-0.997	0.04	-0.205	0.28	-20.65	-26.04
47576	-1.06	0.175	-0.176	-13.02	-29.96	-34.09
47596	-0.994	0.119	-0.167	-30.17	-30.94	-37.38
47619	-0.962	0.044	-0.136	-17.78	-26.67	-37.59
47640	-0.983	0.079	-0.059	-6.65	-33.11	-38.85
47659	-0.929	0.047	-0.072	-16.03	-23.24	-38.71
47682	-1.023	-0.05	-0.122	-5.53	-21.84	-36.47
47701	-1.042	-0.13	-0.128	0.7	-21.56	-33.67
47721	-1.014	-0.045	-0.091	1.47	-21.21	-28.77
47745	-1.031	-0.041	-0.056	-10.64	-20.58	-22.75
47765	-0.994	-0.067	-0.023	-16.31	-16.59	-17.85
47789	-0.972	-0.179	-0.05	-18.34	-10.78	-9.94
47809	-0.922	-0.287	-0.013	-19.67	-4.9	-0.77
47828	-0.921	-0.331	-0.119	12.53	-1.19	8.47
47849	-0.985	-0.048	-0.086	-1.96	-1.61	15.47
47867	-0.994	-0.057	-0.061	-9.8	-1.26	18.13
47891	-0.957	-0.092	-0.039	-2.24	1.47	21.14
47911	-0.963	-0.091	-0.042	1.75	6.79	24.5
47931	-0.989	-0.084	-0.061	8.75	11.27	28.0
47951	-1.006	-0.039	-0.066	17.22	12.53	31.85
47968	-1.002	0.03	-0.045	12.11	16.17	35.63
47988	-0.924	-0.021	0.006	0.0	25.48	41.44
48011	-0.916	-0.203	-0.002	14.42	39.41	49.07
48035	-0.971	-0.016	-0.044	35.63	51.17	58.52
48055	-1.091	0.001	-0.022	26.67	56.98	59.43
48074	-1.219	0.067	-0.203	38.78	55.93	59.71
48095	-1.139	0.255	-0.194	2.8	61.95	55.58
48119	-1.441	0.21	0.177	-39.41	78.05	71.68
48139	-1.381	-0.188	0.131	-71.89	68.39	78.96
48163	-1.674	0.258	0.212	18.69	50.33	85.68
48180	-1.405	-0.206	-0.271	-64.75	40.39	76.86
48200	-0.707	-0.362	-0.652	79.31	26.39	84.28
48223	-0.591	0.211	-0.776	92.61	30.24	64.12
48244	-0.437	0.327	-0.951	86.87	13.37	38.08
48262	-0.413	0.305	-0.403	12.11	41.93	24.15
48282	-0.606	-0.366	-0.265	44.38	-11.9	-6.23
48306	-0.191	0.21	-0.139	26.11	-5.18	-26.04
48326	-0.511	0.005	-0.065	41.93	-50.75	-47.32
48344	-0.504	-0.051	-0.135	69.72	-67.2	-62.37
48365	-0.63	-0.07	-0.278	91.7	-77.77	-83.79
48389	-0.853	0.057	-0.372	119.98	-100.87	-100.59
48409	-1.099	0.336	-0.39	135.52	-113.89	-96.39
48425	-1.183	0.622	-0.407	79.17	-102.83	-94.43
48445	-1.739	-0.473	-1.448	18.97	-45.29	-184.94
48465	-1.288	2.024	-1.441	261.45	-29.96	-21.42
48484	-1.429	2.196	0.42	-155.82	-26.88	34.72
48509	-0.883	-1.152	-0.572	-254.87	-4.9	-65.38
48527	-0.87	-0.672	-0.272	164.01	-43.33	-17.36
48544	-1.098	0.819	-0.3	66.15	19.81	-5.95
48569	-1.08	0.075	-0.068	45.43	-20.3	2.31
48588	-0.786	0.08	-0.22	-33.18	-6.09	-4.41
48612	-1.031	-0.247	-0.312	-38.92	-5.6	-1.33
48632	-0.854	-0.255	-0.187	-10.36	-2.94	6.93
48652	-0.895	-0.158	-0.083	20.58	3.08	13.51
48669	-0.953	-0.13	-0.075	27.37	10.5	15.68
48689	-0.979	-0.228	-0.136	37.17	11.34	19.81
48709	-1.038	-0.204	-0.125	68.18	20.51	27.93
48732	-1.019	-0.014	-0.182	60.62	23.1	26.67
48756	-1.013	0.01	-0.357	54.25	33.25	36.12
48775	-0.982	0.12	-0.457	57.05	26.95	30.38
48796	-0.951	0.067	-0.258	44.17	33.88	26.18
48815	-0.954	0.07	-0.328	2.38	22.05	16.1
48835	-0.814	-0.102	-0.259	14.77	28.63	10.29
48859	-0.987	0.03	-0.091	44.17	26.67	-1.82
48879	-1.078	0.281	-0.058	106.05	17.36	4.69
48897	-1.054	0.597	-0.187	112.77	9.03	7.0
48918	-1.243	1.329	-0.159	60.2	0.07	-14.56
48935	-1.076	0.863	-0.159	-54.46	35.63	-31.01
48958	-0.983	0.565	-0.089	-42.77	28.0	-29.61
48979	-1.034	1.079	0.145	-128.45	42.07	-4.83
48998	-1.464	0.971	0.037	-145.81	-39.55	3.22
49017	-1.003	0.728	-0.055	-169.4	-9.59	7.07
49041	-1.042	0.547	0.045	-158.76	-8.89	19.6
49061	-1.106	0.99	0.148	-116.41	-33.11	40.32
49081	-0.976	0.679	0.081	-89.25	-47.04	56.98
49101	-0.917	0.403	-0.046	-67.83	-49.77	55.02
49120	-0.944	0.44	-0.115	-44.73	-60.62	59.78
49145	-0.998	0.262	-0.293	-43.96	-76.79	59.22
49163	-0.965	0.145	-0.389	-15.96	-87.85	58.31
49187	-0.921	0.111	-0.527	-31.29	-84.28	42.42
49207	-0.987	0.086	-0.488	-17.92	-87.01	37.45
49227	-0.956	0.022	-0.501	-30.03	-87.78	30.31
49246	-0.947	-0.153	-0.476	-31.78	-72.73	21.42
49265	-1.133	-0.31	-0.794	3.08	-81.83	6.79
49287	-0.86	-0.159	-0.667	2.66	-54.6	8.68
49311	-0.839	-0.275	-0.362	12.53	-21.14	14.35
49331	-1.067	-0.793	-0.733	81.34	-35.07	-3.01
49351	-0.557	-0.516	-1.723	137.9	-50.54	-10.08
49371	-1.054	1.64	2.666	147.49	191.66	94.64
49395	-0.583	-0.85	-0.367	11.2	-32.13	-27.23
49413	-0.02	0.063	-0.707	-429.87	105.84	-125.93
49437	-1.457	0.503	0.392	-502.39	-33.39	-164.15
49456	-1.472	-1.454	-0.199	-29.26	96.39	-20.79
49476	-0.889	-0.272	0.07	71.33	-38.5	-57.19
49496	-1.392	0.104	-0.062	64.68	-5.6	-64.05
49517	-1.227	0.685	0.132	40.88	-17.22	-75.81
49541	-0.862	0.07	-0.002	-8.05	-16.17	-78.82
49559	-0.897	-0.031	0.057	3.08	-13.44	-74.69
49578	-0.996	0.112	0.184	16.1	-13.23	-61.95
49603	-0.858	-0.051	0.215	-2.8	-6.02	-42.21
49623	-0.873	-0.451	0.054	23.38	19.25	-22.54
49641	-1.004	-0.044	0.079	33.32	28.91	-16.38
49662	-1.424	0.296	0.03	-7.0	8.12	-22.26
49686	-1.102	0.036	0.01	-30.52	-10.08	-23.31
49706	-0.9	-0.21	0.041	-6.79	0.07	-16.24
49724	-0.987	-0.14	0.06	21.42	4.48	-11.97
49745	-1.025	0.021	0.048	33.46	-0.63	-9.94
49769	-1.04	0.13	0.079	18.97	-0.84	-11.55
49784	-1.044	0.017	0.035	6.93	-4.55	-10.36
49807	-0.942	-0.031	0.042	13.58	-2.52	-8.05
49830	-0.989	0.059	0.067	13.09	-3.64	-6.79
49850	-0.996	0.013	0.038	12.74	-4.76	-6.23
49869	-0.98	-0.002	0.035	12.39	-6.16	-3.5
49893	-1.011	-0.002	0.046	6.3	-7.14	-1.05
49909	-1.032	-0.061	0.04	4.55	-9.03	-0.07
49933	-1.045	0.007	0.061	5.81	-12.81	1.89
49952	-1.008	0.009	0.098	2.87	-10.08	3.78
49971	-0.996	-0.013	0.084	4.41	-8.68	5.95
49991	-1.004	-0.011	0.065	5.25	-8.05	8.19
50011	-1.032	-0.011	0.037	6.58	-9.31	9.8
50032	-1.033	-0.01	0.052	3.5	-13.37	11.13
50056	-0.998	-0.031	0.058	6.51	-13.16	15.54
50076	-0.965	0.033	0.086	1.54	-11.34	16.94
50095	-1.017	0.017	0.055	-2.87	-10.57	20.79
50116	-1.013	0.034	0.092	1.47	-13.65	21.21
50136	-0.955	0.024	0.162	3.85	-10.99	24.57
50156	-0.979	-0.086	0.138	6.58	-2.94	32.34
50175	-1.047	-0.176	0.125	14.49	-0.98	38.64
50198	-1.108	-0.059	0.081	25.69	-2.66	47.74
50219	-1.177	0.092	0.1	7.91	-9.59	50.12
50236	-1.122	0.034	0.105	2.31	-11.13	51.38
50259	-1.116	0.084	0.148	1.26	-13.3	51.38
50277	-1.048	0.126	0.161	5.32	-12.6	52.08
50300	-1.206	0.102	0.203	13.51	-11.76	53.06
50320	-1.182	0.096	0.167	27.51	-11.97	51.66
50339	-1.139	0.133	0.136	27.51	-13.37	46.83
50364	-1.08	0.118	0.07	21.42	-12.88	38.85
50381	-1.049	0.165	-0.077	7.35	-11.62	29.96
50405	-0.887	0.22	-0.417	-46.83	-1.61	11.13
50425	-0.701	0.109	-0.8	-45.29	26.74	7.7
50444	-0.736	0.108	-0.568	-52.85	59.57	6.37
50463	-0.955	0.186	-0.764	-73.92	60.34	4.97
50487	-0.909	0.659	-0.587	-117.25	96.04	6.51
50505	-0.964	-0.626	-0.627	-51.24	77.84	10.01
50523	-0.784	-0.193	-0.394	4.13	83.72	1.4
50546	-0.92	-0.144	-0.33	44.8	99.82	-3.78
50567	-1.053	0.156	-0.23	63.77	97.37	-1.75
50586	-1.056	0.319	-0.239	43.19	90.44	-5.81
50605	-1.011	0.299	-0.227	11.34	95.06	-14.63
50629	-0.961	0.087	-0.142	-0.91	90.51	-25.55
50646	-0.96	0.249	-0.126	1.26	83.51	-33.11
50670	-1.027	0.256	-0.093	-5.39	66.85	-39.9
50690	-0.917	0.128	0.048	9.73	60.2	-43.96
50706	-0.934	0.18	0.129	22.89	47.18	-45.71
50727	-0.963	0.071	0.203	29.75	28.28	-54.18
50747	-0.945	0.066	0.331	50.33	6.51	-66.08
50771	-0.938	0.218	0.444	70.56	-30.31	-79.03
50791	-0.989	0.283	0.45	31.71	-48.16	-93.87
50809	-1.064	0.25	0.475	-24.29	-56.35	-104.51
50829	-1.83	2.961	0.202	575.82	-130.2	54.11
50849	-1.445	0.573	-1.121	-634.2	90.44	-0.63
50872	-1.468	0.107	-1.667	645.33	1.96	-7.77
50895	-0.456	2.825	-0.325	78.61	-156.87	-75.25
50918	-1.811	0.924	0.084	-80.78	46.62	1.96
50942	-1.15	0.255	-0.028	-168.28	-32.9	-4.83
50962	-1.021	-0.617	-0.32	-213.92	-33.67	-47.11
50980	-0.847	-0.25	0.056	-74.48	-22.4	-24.99
51004	-0.849	-0.679	-0.176	33.25	-5.18	-3.92
51021	-0.986	-0.328	-0.107	69.51	-7.28	-3.92
51044	-0.977	0.139	-0.133	99.26	-13.3	0.7
51063	-0.935	0.372	-0.021	-20.44	1.89	-1.96
51080	-0.976	-0.178	-0.11	-37.17	2.73	-1.4
51104	-0.976	-0.199	-0.155	-11.83	5.32	6.37
51123	-1.019	-0.013	-0.089	6.23	7.07	6.3
51141	-1.022	0.015	-0.163	29.26	4.55	5.32
51165	-1.014	0.112	-0.204	14.07	1.61	1.54
51189	-0.988	0.031	-0.192	-9.59	-2.38	1.12
51209	-0.969	-0.032	-0.154	-12.81	-3.29	1.12
51233	-0.982	-0.05	-0.125	-3.99	-1.68	2.94
51251	-0.976	-0.013	-0.121	1.75	0.98	3.92
51271	-0.969	-0.025	-0.142	4.48	3.15	4.62
51295	-0.999	-0.039	-0.135	6.09	4.55	7.28
51315	-0.994	-0.021	-0.116	2.94	7.0	10.36
51335	-0.966	-0.032	-0.102	3.92	11.27	14.28
51355	-0.973	-0.06	-0.109	6.02	20.44	18.13
51374	-0.977	-0.02	-0.117	19.88	28.07	19.67
51390	-1.029	0.09	-0.128	20.3	31.85	20.3
51413	-0.985	0.072	-0.156	7.0	31.29	17.71
51433	-0.991	0.115	-0.144	8.47	40.46	22.61
51456	-1.295	0.252	-0.127	-65.17	27.02	1.82
51480	-1.011	0.012	-0.264	-3.43	46.55	28.0
51499	-1.134	-0.131	-0.334	36.26	31.43	37.31
51517	-1.1	-0.372	-0.471	31.85	38.64	28.84
51539	-0.915	-0.159	-0.656	71.47	24.22	14.49
51558	-0.926	-0.071	-0.535	54.32	44.45	-11.97
51583	-0.868	0.043	-0.465	65.73	24.43	-32.2
51603	-0.801	0.432	-0.271	67.27	6.65	-19.25
51623	-0.915	0.636	-0.015	81.2	-3.57	-8.54
51638	-0.729	0.873	-0.007	61.39	-1.05	-2.94
51663	-0.815	0.996	-0.16	-15.75	-9.17	-10.92
51680	-0.881	0.953	-0.119	-44.87	-14.14	-12.74
51700	-1.028	0.987	0.037	-91.63	-12.95	-8.05
51724	-1.19	0.856	0.132	-147.91	-4.76	15.61
51743	-1.125	0.472	0.025	-142.73	-6.93	26.95
51766	-1.385	0.556	0.225	-69.37	-37.38	34.58
51785	-1.353	0.702	0.268	2.38	-14.07	56.63
51803	-1.216	0.975	0.324	-50.19	-39.62	62.58
51823	-1.222	0.42	0.198	-73.78	-49.35	60.13
51846	-1.233	0.351	0.095	-33.11	-65.8	61.53
51865	-1.205	0.418	-0.085	-27.44	-85.19	57.75
51887	-1.066	0.101	-0.142	-33.53	-83.58	53.76
51906	-1.066	-0.107	-0.188	4.69	-98.14	53.62
51926	-1.025	-0.168	-0.217	18.34	-94.71	52.5
51950	-1.048	-0.223	-0.307	38.99	-100.59	48.23
51970	-0.821	0.091	-0.452	45.99	-90.02	51.17
51990	-0.848	0.019	-0.584	-24.85	-86.1	41.72
52007	-0.822	-0.595	-0.859	-16.45	-65.1	28.63
52027	-0.473	-0.523	-0.803	22.96	-33.39	11.55
52051	-0.93	-0.556	-0.412	61.81	-27.65	-5.04
52071	-0.92	-0.453	-0.468	69.3	-32.06	-19.6
52091	-0.808	-0.414	-0.92	177.03	-57.12	-32.2
52111	-0.87	1.019	0.092	-84.84	60.34	-30.87
52130	-0.593	0.085	-1.058	-104.79	-3.22	-35.91
52155	-1.243	-0.475	-0.508	-103.6	45.01	-49.56
52175	-1.354	0.284	0.115	-163.73	-11.76	-81.55
52195	-1.637	0.125	-0.048	-39.34	-9.38	-73.08
52215	-1.292	0.546	0.295	-49.42	-10.99	-73.29
52235	-1.253	0.348	0.291	-21.91	-11.48	-81.27
52250	-1.107	0.3	0.128	-12.46	-16.52	-81.41
52273	-1.024	0.313	0.142	-14.07	-28.35	-86.8
52297	-0.887	-0.02	0.105	-39.27	-14.63	-73.43
52317	-0.611	-0.42	0.101	-0.77	7.63	-46.69
52337	-0.881	-0.321	0.037	38.57	28.42	-27.3
52356	-1.178	-0.09	0.08	39.41	28.0	-18.55
52377	-1.264	0.076	-0.018	48.51	17.15	-16.59
52396	-1.141	0.217	0.042	7.14	11.62	-17.01
52420	-0.927	-0.026	0.016	2.73	12.81	-12.53
52444	-1.051	-0.077	-0.031	18.2	16.1	-10.15
52461	-1.105	0.08	-0.032	24.01	6.72	-12.04
52485	-0.994	0.096	-0.03	6.93	4.69	-10.22
52500	-0.983	0.011	-0.026	0.98	3.71	-8.82
52521	-0.996	0.012	-0.026	6.79	1.47	-5.46
52543	-1.015	0.081	-0.043	5.88	-1.54	-4.27
52562	-1.029	0.05	-0.051	-3.92	-4.27	-4.76
52585	-1.027	0.053	-0.02	-7.63	-7.0	-5.18
52609	-0.97	0.051	0.013	-5.67	-6.65	-3.64
52625	-0.96	0.047	0.014	-2.73	-3.71	-2.24
52647	-1.035	-0.01	-0.014	1.26	-3.64	-2.1
52671	-1.032	0.013	-0.024	8.68	-7.07	-1.26
52691	-1.032	0.01	0.025	3.64	-5.88	-0.49
52711	-1.023	-0.047	0.006	3.22	-5.53	2.17
52731	-1.011	-0.038	0.004	4.83	-4.41	5.04
52754	-1.02	0.057	-0.0	1.33	-5.39	7.56
52775	-0.986	0.06	0.008	-7.77	-5.11	8.68
52798	-1.039	-0.033	-0.02	-5.39	-5.67	9.8
52816	-1.023	0.015	0.008	-0.77	-7.35	11.48
52837	-1.035	-0.024	-0.012	3.29	-6.86	13.58
52861	-1.03	0.045	0.002	1.05	-8.82	17.92
52878	-0.991	-0.016	-0.006	-0.98	-8.19	21.42
52897	-1.05	0.036	-0.018	2.03	-9.66	24.22
52922	-1.055	0.059	0.008	0.49	-12.18	26.53
52942	-0.994	0.09	0.027	-4.41	-11.83	29.82
52960	-0.97	0.026	0.042	-1.05	-10.01	32.34
52984	-1.032	0.096	0.026	10.71	-10.08	37.1
53000	-1.059	0.114	0.039	11.34	-13.72	37.59
53022	-1.043	0.118	0.084	11.55	-12.25	40.46
53042	-1.053	0.139	0.083	12.67	-12.11	41.93
53066	-1.06	0.096	0.065	17.5	-12.81	42.77
53085	-1.037	0.179	0.042	21.91	-13.86	44.1
53103	-1.061	0.216	0.027	19.11	-16.24	45.08
53126	-0.996	0.195	0.03	15.89	-16.17	43.54
53146	-1.044	0.217	0.055	12.53	-16.1	40.74
53165	-1.085	0.267	0.061	3.22	-19.81	37.59
53190	-0.992	0.346	0.085	-10.43	-15.12	35.63
53210	-0.918	0.244	-0.007	-24.36	-4.9	32.13
53230	-0.97	0.268	-0.048	-39.69	6.65	25.2
53249	-1.029	0.117	-0.022	-53.83	14.49	17.43
53270	-1.067	-0.067	-0.267	-56.21	10.85	9.03
53290	-1.03	-0.092	-0.238	-84.42	3.78	-5.46
53310	-0.555	-0.254	-0.632	-68.18	16.52	-5.81
53329	-0.896	-0.105	-0.526	-28.49	39.9	-6.79
53353	-0.869	0.297	-0.746	-31.64	42.91	1.89
53372	-1.034	0.412	-0.729	-77.14	92.47	-0.21
53393	-1.009	0.14	-0.335	-76.72	77.77	-10.29
53411	-0.797	-0.442	-0.323	-47.32	97.23	-24.29
53435	-0.809	-0.239	-0.204	0.84	92.54	-30.17
53459	-0.956	-0.095	-0.207	23.66	78.4	-36.33
53479	-0.971	-0.117	-0.205	36.54	67.27	-52.15
53495	-0.935	0.269	-0.109	41.23	60.55	-55.3
53519	-0.945	0.362	0.019	-9.31	52.43	-61.25
53539	-0.933	0.136	-0.024	-15.26	44.94	-66.71
53559	-0.952	0.147	-0.006	-3.99	35.14	-75.6
53576	-0.962	0.245	0.102	-2.94	20.16	-80.08
53596	-0.981	0.233	0.179	-7.35	9.17	-88.69
53617	-1.023	0.281	0.245	-6.79	-8.61	-91.77
53640	-0.936	-0.225	-0.079	31.71	68.95	-143.29
53659	-1.773	0.978	1.801	455.77	-34.09	-35.77
53682	-1.991	1.194	0.884	45.01	-67.2	30.8
53703	-1.434	0.479	-0.985	324.66	-95.69	15.26
53723	0.603	2.088	1.027	182.21	-28.56	-7.7
53739	-1.348	1.136	0.44	-184.31	116.41	36.75
53763	-0.776	-0.886	-0.551	2.45	-30.1	-4.13
53783	-1.088	-0.095	-0.334	-22.54	-22.4	-8.47
53802	-0.976	-0.09	-0.122	-30.45	-40.25	-14.28
53820	-0.891	-0.057	-0.088	-56.77	-11.69	-9.73
53839	-0.977	0.024	-0.057	-47.6	-11.41	-10.36
53859	-1.027	-0.078	-0.074	-39.48	-11.13	-9.59
53884	-0.978	-0.216	-0.048	-3.43	-10.99	-10.01
53904	-0.961	-0.072	-0.055	7.63	-5.18	-8.05
53922	-0.993	0.007	-0.078	1.05	-4.34	-6.09
53943	-0.968	-0.104	-0.061	-9.94	-1.47	-3.43
53967	-0.982	-0.125	-0.12	-0.21	-0.14	-0.14
53982	-1.027	-0.015	-0.08	3.5	-1.68	-0.42
54006	-1.008	-0.042	-0.09	-2.31	0.7	0.0
54026	-1.001	0.025	-0.083	-11.27	0.28	-1.33
54047	-0.985	-0.074	-0.088	-12.18	2.24	0.42
54067	-0.978	-0.053	-0.084	-5.81	4.13	2.52
54085	-0.968	-0.061	-0.093	-4.9	4.34	3.29
54109	-1.001	-0.067	-0.055	-5.32	7.14	5.04
54129	-1.017	-0.069	-0.136	0.42	8.82	5.74
54149	-1.017	0.012	-0.093	4.97	6.37	4.83
54168	-0.985	-0.0	-0.1	-0.28	8.12	4.27
54188	-0.942	-0.081	-0.078	5.11	13.72	6.65
54212	-1.016	-0.157	-0.102	19.25	18.69	10.29
54232	-1.037	0.038	-0.083	28.91	21.7	11.13
54250	-1.112	0.143	-0.035	11.13	23.31	-0.98
54272	-0.943	0.192	-0.07	-3.01	25.06	5.32
54292	-1.017	0.001	-0.122	-2.66	26.39	8.75
54312	-1.103	0.089	-0.103	-11.62	30.87	12.04
54332	-1.111	0.21	-0.019	-18.41	36.26	17.78
54350	-1.12	0.323	-0.02	-16.1	34.23	22.47
54371	-1.097	0.409	-0.113	-22.33	30.73	25.06
54391	-1.137	0.535	-0.101	-33.18	23.38	27.72
54415	-1.032	0.463	0.092	-15.19	6.58	34.23
54435	-1.135	0.641	0.203	-46.69	-12.46	22.26
54453	-0.982	0.423	0.292	-16.59	-16.03	29.89
54474	-1.064	0.834	0.346	-39.2	-36.89	37.31
54495	-1.009	0.562	0.204	-44.03	-50.19	43.61
54513	-1.0	0.382	0.184	-41.44	-46.69	45.08
54532	-1.022	0.14	0.104	-4.69	-55.51	47.46
54557	-1.002	0.204	-0.038	24.57	-63.98	45.01
54577	-1.04	0.2	-0.114	37.24	-75.04	43.19
54594	-0.985	0.12	-0.104	33.81	-77.77	41.44
54618	-1.027	-0.014	-0.198	27.09	-78.19	33.46
54637	-0.892	0.259	-0.032	19.6	-73.43	27.44
54657	-1.054	0.031	-0.231	14.42	-84.56	20.65
54681	-0.917	0.185	-0.343	-14.56	-65.45	22.75
54701	-0.892	0.014	-0.539	-27.09	-57.05	18.48
54718	-0.92	-0.108	-0.655	-7.7	-40.95	15.96
54742	-0.92	-0.263	-0.563	-7.35	-30.94	2.38
54762	-0.944	-0.307	-0.378	31.64	-25.9	-0.98
54777	-0.871	0.111	-0.446	68.67	-30.38	3.78
54799	-0.76	0.301	-0.914	-245.84	-32.62	-51.94
54819	-1.229	-1.131	-0.557	49.56	68.53	-39.76
54843	-1.05	0.501	0.131	-116.2	38.99	-112.07
54863	-1.372	-1.808	-0.256	46.76	-4.83	-53.76
54883	-1.583	0.9	0.644	326.48	-106.19	-21.07
54907	-0.931	2.356	0.708	-66.99	52.15	-50.82
54927	-0.847	0.406	0.111	-121.73	-27.79	-82.88
54947	-0.9	-0.524	-0.28	-75.67	40.81	-84.98
54967	-0.838	-0.294	-0.139	27.58	-0.7	-64.89
54987	-1.142	0.377	0.083	-16.66	-19.39	-66.43
55007	-0.907	-0.348	0.093	-27.65	-11.34	-64.12
55029	-0.762	-0.239	0.152	14.42	14.42	-42.77
55049	-1.038	-0.063	0.105	14.77	16.38	-34.16
55072	-1.111	-0.048	0.015	-2.24	6.86	-25.34
55093	-1.016	-0.028	0.138	-36.75	10.22	-15.75
55113	-0.936	-0.232	0.145	-31.43	22.68	-7.42
55133	-0.98	-0.239	0.062	-0.07	28.91	0.84
55157	-1.046	-0.128	0.007	22.12	22.54	2.66
55175	-1.012	0.006	0.003	17.01	18.48	4.06
55197	-0.983	-0.095	-0.033	11.83	15.61	4.76
55217	-1.014	-0.048	-0.05	18.48	9.73	3.5
55237	-1.051	0.041	-0.05	23.87	0.63	-0.91
55257	-1.027	0.06	-0.06	27.16	-2.59	-6.09
55276	-1.036	0.088	-0.038	24.85	-5.53	-9.8
55300	-1.036	-0.016	-0.022	30.66	-11.83	-12.53
55319	-0.972	-0.052	0.04	21.28	-10.43	-13.93
55340	-0.963	-0.105	0.041	15.12	-7.77	-8.96
55360	-1.005	-0.109	0.041	14.63	-6.93	-3.43
55384	-1.022	-0.091	0.03	5.04	-6.37	4.55
55404	-1.017	-0.071	0.005	-1.96	-7.91	9.24
55423	-0.988	-0.049	0.029	-5.18	-7.49	10.29
55441	-1.018	-0.027	0.033	-2.38	-7.98	9.87
55464	-0.988	-0.019	0.05	0.98	-7.7	7.21
55488	-1.015	-0.026	0.019	3.36	-6.79	3.99
55508	-0.974	-0.088	0.002	15.82	-5.74	2.73
55526	-1.021	0.008	0.041	14.0	-8.26	4.62
55548	-1.036	-0.038	0.008	12.18	-12.67	7.7
55572	-1.018	-0.037	0.008	2.59	-14.91	11.83
55592	-0.996	-0.087	0.043	1.12	-14.77	16.17
55609	-0.941	-0.061	0.079	2.73	-9.52	19.67
55630	-0.989	0.006	0.108	-0.42	-9.03	21.49
55654	-0.975	-0.109	0.069	10.99	-3.15	25.62
55673	-0.985	-0.069	0.063	17.08	-0.35	28.21
55694	-1.0	-0.045	0.036	25.55	-1.82	31.08
55709	-1.003	-0.011	0.078	26.74	-0.84	32.83
55734	-0.981	-0.038	0.076	25.83	2.45	39.76
55754	-1.005	-0.085	0.046	35.63	6.23	46.13
55773	-1.084	0.057	0.018	41.51	1.68	49.07
55797	-1.015	0.074	0.073	36.19	3.78	54.95
55818	-1.038	0.203	0.094	21.91	2.31	53.41
55834	-1.063	0.195	0.049	9.87	2.31	51.17
55854	-1.075	0.208	0.049	5.04	1.82	48.44
55878	-1.099	0.251	0.034	2.45	-0.63	43.82
55898	-1.035	0.327	0.066	-6.58	-5.04	39.97
55918	-1.088	0.272	0.107	-10.57	-2.24	38.08
55935	-1.076	0.224	0.083	-4.55	-4.62	36.89
55958	-1.057	0.243	0.067	7.91	-4.83	37.17
55977	-1.061	0.278	0.03	10.5	-4.97	34.86
55997	-1.106	0.232	-0.092	-27.86	-7.07	21.84
56016	-0.928	-0.021	-0.345	-40.04	9.87	18.41
56036	-0.845	-0.102	-0.65	-30.94	18.41	13.02
56059	-0.883	-0.172	-0.576	-23.45	31.43	-7.42
56080	-0.968	-0.242	-0.763	-33.67	34.23	-12.67
56099	-0.656	0.481	-0.349	-129.36	64.05	-18.83
56120	-1.158	-0.299	-0.406	-57.82	68.88	-7.14
56142	-1.128	-0.065	-0.11	-49.42	70.49	-23.94
56166	-0.864	-0.186	-0.344	-30.38	68.32	-31.57
56186	-0.935	-0.078	-0.48	-14.63	75.81	-45.15
56210	-1.015	0.009	-0.147	-22.61	70.21	-61.6
56230	-0.909	0.161	0.01	-15.54	59.71	-61.6
56249	-0.9	0.244	-0.112	-30.94	68.25	-60.55
56268	-0.83	0.019	-0.072	-17.64	54.67	-63.42
56292	-0.895	-0.019	0.182	44.59	35.77	-65.87
56312	-0.883	0.225	0.314	66.36	22.61	-64.89
56330	-0.869	0.272	0.395	86.03	-9.94	-64.75
56354	-0.919	0.102	0.494	106.47	-30.03	-67.06
56374	-0.998	-1.48	-0.207	425.46	-28.35	23.17
56392	-1.92	0.664	-0.17	368.69	-81.69	-15.96
56412	-0.313	3.001	-0.64	-141.61	-99.82	1.75
56436	-1.956	-0.732	0.215	85.75	-140.35	40.39
56451	-0.318	0.592	0.276	-0.21	-127.26	-75.74
56474	-0.93	0.006	-0.394	-97.02	36.26	-23.73
56496	-0.976	-0.36	-0.124	-22.96	-35.07	-18.48
56516	-0.823	0.062	-0.174	-57.19	6.23	-2.17
56534	-1.227	0.215	-0.198	-94.85	-22.96	-13.86
56553	-0.96	-0.24	-0.063	-70.07	-3.22	-8.89
56576	-0.983	-0.04	-0.109	-9.31	-11.69	-11.27
56595	-1.012	0.038	-0.148	-3.92	-18.76	-14.35
56618	-0.964	-0.008	-0.136	-16.73	-16.59	-12.88
56641	-0.905	-0.081	-0.056	-15.82	-14.77	-10.64
56665	-0.957	-0.12	-0.068	4.9	-10.08	-6.58
56684	-1.021	-0.027	-0.075	9.38	-11.34	-6.3
56704	-1.013	0.029	-0.067	6.16	-10.92	-5.39
56725	-0.991	-0.034	-0.053	-12.74	-7.7	-4.69
56745	-0.979	-0.115	-0.05	-13.51	-3.78	-1.68
56765	-0.957	-0.14	-0.077	-1.4	0.56	2.38
56789	-0.948	-0.082	-0.051	0.35	5.6	6.16
56804	-0.96	-0.104	-0.063	2.31	8.96	9.1
56829	-0.989	-0.098	-0.075	8.54	12.95	12.39
56849	-0.955	-0.073	-0.049	17.29	18.2	15.4
56868	-1.017	-0.182	-0.031	15.61	23.1	18.48
56888	-1.035	-0.097	-0.078	29.47	31.99	21.7
56908	-0.968	0.064	-0.035	24.64	35.56	27.58
56930	-1.038	0.073	-0.13	15.96	42.07	32.06
56953	-1.113	0.043	-0.137	2.45	49.28	25.97
56973	-1.132	0.03	-0.081	-15.89	54.46	27.44
56993	-1.292	-0.034	0.0	-31.64	59.85	26.53
57013	-1.255	0.188	-0.011	-26.88	37.59	16.45
57032	-1.16	0.379	-0.159	-42.84	15.47	14.0
57057	-0.997	0.435	-0.155	-54.74	49.77	27.51
57074	-0.984	0.356	-0.198	3.92	41.37	33.53
57097	-0.869	0.627	-0.413	19.6	20.86	30.94
57118	-0.872	0.8	0.117	34.79	17.43	35.0
57138	-1.004	1.37	0.066	-98.0	-16.45	14.42
57156	-0.995	0.848	0.219	-56.35	-10.92	24.78
57174	-0.952	0.68	0.289	-95.9	-39.83	29.33
57195	-0.952	0.499	0.02	-64.68	-61.95	33.18
57215	-0.953	0.452	0.003	-38.22	-71.89	41.65
57239	-0.817	0.206	-0.047	-48.79	-65.1	40.11
57257	-0.831	0.163	-0.131	28.77	-83.44	40.95
57281	-0.879	0.26	-0.281	32.62	-80.43	35.28
57299	-0.932	0.294	-0.383	13.86	-79.73	30.87
57323	-0.944	0.085	-0.403	-15.19	-73.85	19.46
57342	-0.964	-0.001	-0.436	-11.06	-77.91	14.0
57361	-0.917	-0.095	-0.402	-20.65	-70.14	7.0
57386	-1.109	-0.074	-0.415	-6.02	-69.86	-0.98
57404	-1.048	0.045	-0.358	-43.82	-64.4	-10.08
57424	-0.979	-0.15	-0.399	-57.4	-59.92	-18.41
