Millis	AccelX	AccelY	AccelZ	GyroX	GyroY	GyroZ
0	-0.956	-0.023	-0.184	-4.69	-4.2	-3.08
19	-0.977	-0.035	-0.161	-3.64	-4.97	-4.06
39	-0.989	-0.043	-0.146	-1.4	-7.56	-5.11
63	-0.987	-0.028	-0.172	-0.28	-7.77	-5.39
82	-0.995	-0.021	-0.203	0.42	-4.34	-5.95
105	-1.0	0.007	-0.195	2.45	1.05	-5.95
126	-1.004	0.015	-0.176	3.29	3.01	-4.97
146	-1.02	0.018	-0.163	3.36	3.15	-3.36
168	-1.042	0.001	-0.148	4.06	2.38	-2.59
188	-1.027	-0.011	-0.156	3.15	-0.77	-3.57
207	-0.99	-0.016	-0.212	0.91	-1.19	-4.9
232	-1.012	-0.019	-0.248	1.12	10.71	-7.84
251	-1.072	0.019	-0.175	-0.42	12.81	-6.79
267	-1.058	-0.036	-0.1	-0.21	6.23	-7.63
287	-0.984	-0.02	-0.092	2.17	-1.54	-7.56
312	-0.979	-0.014	-0.126	4.62	-8.75	-2.73
332	-0.983	-0.035	-0.179	5.88	-11.13	-0.98
351	-0.977	-0.047	-0.185	4.97	-11.48	-1.96
375	-0.938	-0.03	-0.176	3.57	-14.56	-2.94
394	-0.931	-0.015	-0.186	4.13	-15.4	-2.31
412	-0.965	-0.006	-0.196	4.76	-11.34	-1.05
432	-1.005	-0.026	-0.174	4.9	-7.28	-1.19
453	-0.999	-0.015	-0.144	4.13	-5.39	-2.52
471	-0.964	-0.01	-0.136	3.22	-6.51	-1.89
492	-0.95	-0.021	-0.14	3.08	-9.66	-2.17
512	-0.95	-0.012	-0.163	2.66	-8.54	-1.89
536	-0.996	-0.023	-0.155	2.73	-5.32	-1.33
556	-1.007	-0.032	-0.141	3.5	-3.5	-2.17
577	-0.989	-0.023	-0.131	3.99	-3.36	-2.59
594	-0.989	-0.011	-0.138	3.71	-2.8	-1.89
612	-0.995	-0.011	-0.151	3.71	-2.52	-1.47
635	-0.981	-0.006	-0.166	3.29	-0.77	-0.98
659	-0.963	-0.006	-0.165	3.29	2.24	-0.7
679	-0.976	-0.008	-0.147	3.64	4.2	-0.28
699	-0.99	-0.02	-0.118	3.92	2.31	0.07
719	-1.0	-0.022	-0.117	3.15	-1.33	-0.21
735	-0.996	-0.022	-0.135	2.52	-3.71	-0.84
759	-0.991	-0.013	-0.14	1.12	-5.04	-1.61
780	-0.997	-0.007	-0.114	1.05	-7.35	-1.68
799	-1.01	-0.006	-0.122	2.24	-10.08	-1.19
823	-1.004	-0.005	-0.142	4.06	-10.92	-0.7
843	-0.995	-0.012	-0.155	3.36	-12.32	-0.21
863	-0.986	-0.024	-0.143	2.52	-12.25	-0.14
884	-0.999	-0.017	-0.092	4.41	-13.16	-0.35
900	-1.012	-0.016	-0.105	5.11	-15.75	-0.28
920	-0.997	-0.019	-0.134	4.55	-15.96	-0.56
940	-1.006	-0.015	-0.155	3.85	-10.92	-0.49
963	-1.015	-0.015	-0.123	4.48	-8.47	-0.21
984	-1.017	-0.015	-0.108	4.48	-7.77	-0.35
1004	-1.023	-0.016	-0.114	2.87	-7.0	-0.56
1028	-1.01	-0.013	-0.125	2.66	-4.69	-1.26
1047	-0.998	-0.008	-0.122	3.5	-3.78	-1.19
1068	-0.992	-0.008	-0.107	4.27	-3.57	-1.12
1088	-0.998	-0.016	-0.108	4.34	-3.15	-1.19
1108	-0.999	-0.017	-0.118	3.85	-2.45	-1.4
1128	-0.995	-0.018	-0.115	2.59	-1.96	-1.54
1147	-0.989	-0.018	-0.112	2.31	-1.68	-1.75
1168	-1.002	-0.013	-0.1	2.52	-1.54	-1.54
1189	-1.006	-0.014	-0.096	2.73	-2.24	-0.98
1212	-1.0	-0.019	-0.101	2.94	-2.17	-0.63
1234	-0.993	-0.02	-0.1	2.24	-2.73	-0.56
1253	-0.987	-0.014	-0.098	1.82	-3.22	-0.42
1274	-0.985	-0.011	-0.101	1.05	-3.08	-0.07
1295	-0.997	-0.015	-0.101	0.35	-2.66	-0.14
1317	-1.008	-0.017	-0.098	0.56	-2.03	-0.28
1339	-1.014	-0.018	-0.091	1.33	-1.47	-0.28
1357	-1.01	-0.017	-0.087	0.98	-1.47	-0.56
1379	-1.009	-0.016	-0.085	0.21	-1.19	-0.49
1403	-1.007	-0.019	-0.089	0.14	-1.05	-0.49
1427	-1.006	-0.017	-0.096	-0.28	-0.49	-0.49
1447	-1.0	-0.017	-0.105	-0.07	1.33	-0.49
1467	-0.997	-0.006	-0.11	0.49	2.1	-0.35
1485	-0.995	-0.013	-0.108	-0.49	2.45	-0.14
1507	-1.006	-0.018	-0.073	-0.91	4.55	-0.14
1527	-1.018	-0.009	-0.065	0.0	1.96	0.07
1547	-1.004	-0.016	-0.103	0.77	-1.05	0.35
1567	-1.001	-0.019	-0.123	0.56	0.56	-0.21
1591	-1.001	-0.016	-0.117	1.33	3.71	-0.28
1611	-1.003	-0.013	-0.095	2.03	4.76	-0.14
1632	-1.006	-0.013	-0.084	1.75	3.71	-0.21
1650	-0.998	-0.021	-0.091	1.26	2.31	-0.56
1669	-0.997	-0.02	-0.104	0.63	1.19	-0.7
1689	-1.0	-0.017	-0.105	-0.21	-0.07	-1.19
1711	-1.0	-0.014	-0.109	0.14	-0.63	-1.33
1734	-0.996	-0.016	-0.1	2.03	-1.12	-1.05
1754	-0.999	-0.013	-0.093	1.61	-2.1	-0.42
1773	-0.989	-0.02	-0.096	0.77	-3.85	-1.12
1793	-1.025	-0.011	-0.103	0.28	-5.74	-2.52
1813	-1.057	-0.014	-0.094	-2.31	-10.29	-2.87
1839	-1.015	-0.001	-0.13	-4.83	-12.04	-3.22
1858	-1.012	0.023	-0.144	-5.11	-12.18	-3.5
1875	-1.041	0.047	-0.139	-5.46	-12.95	-2.24
1896	-1.06	0.037	-0.097	-3.43	-14.77	-0.28
1921	-1.043	0.016	-0.075	-0.84	-16.73	1.61
1940	-1.038	-0.012	-0.056	-0.98	-18.2	1.89
1960	-1.014	-0.051	-0.045	-3.08	-20.93	0.84
1977	-0.996	-0.035	-0.047	-4.13	-21.28	-0.35
2000	-0.966	-0.021	-0.051	-3.64	-20.23	-0.56
2021	-0.961	-0.007	-0.028	-2.31	-20.37	0.14
2041	-0.974	-0.016	-0.048	0.63	-17.71	0.0
2059	-1.011	-0.02	-0.045	2.73	-12.6	-0.28
2079	-1.053	-0.028	0.005	2.73	-8.82	0.56
2103	-1.072	-0.028	0.045	3.99	-9.1	1.82
2122	-1.059	-0.003	0.019	3.08	-10.15	3.29
2143	-1.035	0.006	-0.011	-0.28	-5.39	3.78
2163	-1.04	-0.001	0.064	-1.89	3.01	3.43
2186	-1.065	0.034	0.12	0.07	-1.19	3.57
2210	-1.022	0.055	0.063	0.56	-0.49	7.63
2231	-1.013	-0.034	0.086	-0.14	7.91	8.26
2249	-1.093	-0.003	0.145	-1.19	0.98	6.02
2268	-1.099	0.052	0.072	-2.1	-11.06	6.3
2288	-1.044	0.064	-0.008	-1.61	-11.41	7.49
2307	-1.031	0.114	-0.064	-0.77	-15.05	13.44
2332	-0.996	0.006	-0.157	2.8	-15.47	14.0
2353	-0.935	-0.075	-0.183	-1.96	-9.31	8.82
2369	-0.874	-0.057	-0.164	-4.69	-0.98	0.7
2393	-0.897	0.062	-0.069	-8.05	0.91	-8.68
2413	-0.946	0.104	-0.053	-12.18	-2.1	-11.34
2432	-0.953	0.124	-0.005	-17.36	-6.16	-10.08
2457	-0.965	0.04	-0.008	-18.69	-14.28	-9.24
2473	-0.968	0.043	-0.016	-16.17	-15.75	-6.09
2495	-1.005	-0.025	-0.031	-11.76	-14.0	0.42
2517	-1.036	-0.06	-0.062	-6.23	-9.87	3.85
2538	-1.035	-0.082	-0.009	-2.73	-4.41	3.78
2558	-1.073	-0.034	0.056	0.35	-3.78	1.96
2582	-1.098	0.001	0.047	3.99	-7.7	-0.49
2602	-1.057	0.03	0.038	3.99	-6.93	-1.68
2621	-1.014	0.047	0.043	1.82	-7.63	-2.66
2638	-1.003	0.058	0.017	-0.56	-9.17	-3.01
2658	-0.99	0.1	0.009	-2.45	-4.9	-1.89
2678	-1.013	0.081	0.032	-1.68	-2.94	0.84
2703	-1.01	-0.012	0.027	-1.68	-2.38	2.66
2721	-1.026	-0.039	0.045	-1.05	-2.03	2.1
2738	-1.025	-0.006	0.056	1.54	-3.71	0.84
2762	-0.99	0.027	0.026	3.15	-5.25	-0.35
2782	-0.964	0.013	0.009	-3.15	-4.2	-0.84
2800	-0.958	0.018	0.017	-6.37	-0.91	-1.12
2820	-1.002	0.059	0.026	-5.11	-1.33	-0.91
2844	-1.018	0.045	0.02	-2.45	-2.31	1.4
2868	-0.99	-0.013	0.015	-1.61	-0.91	1.54
2883	-0.989	-0.015	0.005	-1.54	1.61	0.63
2909	-1.013	0.007	0.005	-1.05	4.62	-0.42
2928	-1.037	0.022	0.008	-1.05	4.06	-0.63
2950	-1.03	0.025	-0.003	-0.21	3.5	-0.91
2974	-1.003	0.01	-0.012	0.42	6.02	-1.19
2992	-0.99	-0.003	-0.015	1.89	7.35	-1.89
3017	-0.997	0.026	-0.033	5.95	5.11	-2.45
3036	-0.98	0.039	-0.031	9.66	9.45	-1.12
3056	-0.996	0.012	0.002	11.2	12.67	-0.14
3076	-1.024	0.001	-0.043	8.96	13.93	-0.42
3096	-1.052	0.021	-0.03	6.65	14.77	-1.47
3114	-1.042	0.038	0.002	8.12	6.79	-2.52
3136	-0.987	0.035	-0.001	8.75	3.92	-2.17
3154	-0.974	0.022	0.024	11.48	6.09	-1.26
3174	-1.002	0.011	0.036	14.56	6.23	-0.91
3193	-0.989	-0.007	0.02	14.63	8.61	-1.68
3218	-0.969	-0.009	0.08	10.29	14.14	-3.78
3238	-0.965	-0.002	0.084	9.1	19.67	-5.11
3256	-1.003	0.003	0.081	8.61	19.67	-6.65
3280	-1.031	0.036	0.038	6.51	16.38	-8.89
3301	-0.972	0.075	-0.075	-1.33	25.9	-9.73
3318	-0.968	0.122	-0.084	-6.65	34.58	-11.2
3338	-0.96	0.163	-0.061	-7.56	43.12	-8.4
3359	-1.003	0.12	-0.039	-9.03	49.42	0.0
3378	-1.037	0.049	-0.054	-11.48	46.76	6.65
3398	-1.046	-0.061	-0.069	-7.7	44.38	7.91
3419	-1.093	-0.094	-0.087	-0.56	35.98	5.81
3440	-1.057	-0.126	-0.143	5.53	29.54	-0.28
3465	-1.055	-0.012	-0.16	6.58	27.3	-8.96
3484	-1.065	0.138	-0.198	-5.74	13.3	-8.4
3503	-1.05	0.13	-0.228	-11.55	7.28	-5.46
3523	-1.02	0.072	-0.206	-13.23	6.65	-4.06
3543	-0.994	-0.02	-0.186	-11.06	5.32	-4.48
3563	-0.992	-0.037	-0.171	-8.19	1.05	-5.32
3587	-1.019	-0.031	-0.196	-3.71	-7.56	-4.76
3611	-1.037	-0.009	-0.21	-2.73	-13.93	-2.94
3629	-0.999	-0.012	-0.213	-3.64	-15.19	-1.61
3647	-0.965	-0.043	-0.193	-3.15	-13.09	-1.19
3667	-0.965	-0.041	-0.166	0.7	-10.15	-2.45
3690	-0.949	-0.027	-0.178	5.67	-7.63	-2.73
3711	-0.939	-0.011	-0.189	8.96	-6.37	-3.15
3732	-0.931	0.026	-0.206	7.98	-4.62	-4.27
3751	-0.965	0.042	-0.214	4.69	-0.49	-4.06
3771	-0.986	0.017	-0.216	4.83	2.66	-2.87
3792	-0.988	-0.005	-0.212	6.37	5.95	-1.4
3812	-0.987	-0.015	-0.203	7.7	8.89	-0.77
3831	-0.972	-0.013	-0.187	7.49	10.01	-1.12
3856	-0.96	-0.012	-0.182	7.0	9.73	-0.98
3874	-0.949	0.002	-0.154	6.02	8.4	-0.28
3893	-0.958	-0.004	-0.158	3.57	4.27	-0.14
3918	-0.989	0.028	-0.208	2.45	4.97	0.14
3938	-1.093	0.051	-0.163	2.38	4.76	0.49
3958	-1.199	0.032	-0.119	1.61	-3.29	0.63
3978	-1.157	0.008	-0.113	1.05	-21.7	1.33
3997	-1.078	0.009	-0.143	-0.91	-29.89	0.42
4018	-1.023	0.014	-0.196	-5.04	-34.58	-1.19
4041	-0.984	-0.004	-0.224	-5.46	-32.97	-1.82
4062	-0.961	-0.059	-0.162	-4.27	-30.38	0.0
4083	-0.955	-0.088	-0.093	-0.56	-29.33	-0.28
4102	-0.969	-0.083	-0.061	3.99	-32.34	-1.19
4121	-0.977	-0.044	-0.081	5.11	-32.62	-0.91
4142	-1.007	-0.011	-0.066	6.37	-30.45	-0.84
4162	-1.027	0.019	-0.04	6.23	-26.74	-0.84
4187	-1.044	0.045	0.024	5.88	-26.46	0.7
4202	-1.028	0.048	0.05	3.99	-27.51	2.03
4226	-1.012	0.043	0.063	0.91	-26.6	3.78
4246	-0.982	0.033	0.043	-0.63	-20.51	4.9
4266	-0.984	0.027	0.076	-1.19	-12.04	4.55
4286	-1.018	0.029	0.109	-2.1	-12.74	2.73
4306	-1.006	0.035	0.066	-3.22	-13.02	1.4
4325	-0.997	0.051	0.004	-7.28	-11.13	0.91
4345	-1.009	0.041	-0.01	-12.25	-8.19	-0.35
4365	-1.0	0.043	-0.002	-13.3	-3.78	-0.35
4389	-0.974	0.022	-0.032	-13.3	2.66	0.49
4409	-1.002	0.012	-0.062	-10.29	6.44	1.61
4429	-1.01	0.0	-0.016	-3.01	10.92	4.06
4448	-0.997	-0.011	0.01	-1.47	11.41	5.88
4469	-1.015	-0.033	-0.015	1.33	9.24	3.78
4489	-1.036	-0.023	-0.035	1.19	6.93	-1.89
4509	-1.021	0.009	-0.036	0.0	0.49	-6.44
4529	-0.976	0.057	-0.08	-4.13	-4.13	-8.12
4548	-0.976	0.065	-0.128	-7.7	-8.82	-4.34
4572	-1.016	-0.007	-0.142	-7.77	-11.62	0.35
4589	-1.017	-0.031	-0.136	-6.02	-12.04	-0.98
4613	-0.992	-0.012	-0.101	-5.81	-14.49	-3.57
4633	-0.989	-0.012	-0.092	-7.07	-16.1	-4.41
4650	-0.976	0.02	-0.055	-5.95	-14.21	-5.32
4672	-1.01	0.05	-0.027	-3.71	-12.32	-4.34
4688	-1.015	0.046	0.025	-0.98	-11.41	-2.73
4708	-1.026	0.016	0.029	1.68	-12.25	-1.4
4733	-1.024	-0.001	0.021	2.24	-5.67	0.0
4753	-1.03	-0.028	0.017	4.27	-3.85	0.28
4773	-1.021	-0.022	0.04	8.68	0.0	1.05
4793	-1.037	-0.017	0.043	13.09	-0.91	3.29
4817	-1.041	0.004	-0.013	15.33	-0.63	4.9
4836	-1.008	0.044	0.006	15.54	2.66	4.27
4856	-0.987	0.08	0.044	11.83	1.47	0.49
4877	-0.988	0.095	-0.01	3.01	-1.96	-2.38
4897	-0.992	0.057	-0.049	-4.62	-2.66	-2.8
4921	-0.997	0.032	-0.056	-7.35	-2.38	-1.75
4936	-1.006	0.016	-0.023	-5.81	-1.82	-0.28
4961	-1.011	0.009	-0.005	-2.59	-3.29	0.91
4981	-1.006	0.017	-0.015	-2.31	-3.43	0.91
5006	-1.0	0.015	-0.02	-2.17	-1.82	0.49
5025	-0.985	0.007	-0.036	-1.26	0.7	0.63
5044	-0.987	-0.013	-0.04	2.1	2.8	1.4
5064	-1.009	-0.026	-0.039	5.81	3.29	1.4
5085	-1.061	-0.013	-0.046	6.44	2.1	0.14
5104	-1.086	0.016	-0.055	6.86	-2.73	-0.7
5129	-1.049	0.043	-0.072	8.54	-2.87	-1.96
5148	-0.967	0.023	-0.041	11.55	0.91	-2.45
5167	-0.934	-0.001	-0.012	14.28	5.95	-0.7
5192	-0.955	-0.026	-0.01	10.22	6.23	1.33
5212	-1.001	-0.016	-0.01	4.41	6.44	-0.49
5232	-1.026	0.02	-0.033	2.87	6.86	-2.66
5248	-1.012	0.052	-0.04	5.25	10.64	-4.34
5272	-0.976	0.092	0.003	9.8	9.73	-2.8
5290	-0.901	0.058	-0.009	6.86	12.46	-3.64
5314	-0.876	0.046	-0.02	6.09	21.35	-1.75
5334	-0.927	0.041	0.026	10.29	26.46	2.03
5350	-0.961	-0.032	0.034	10.5	29.26	3.99
5370	-1.003	-0.022	0.021	7.35	29.47	5.32
5393	-1.129	-0.011	0.011	5.25	29.26	0.0
5413	-1.186	0.06	0.037	6.3	25.13	-1.12
5433	-1.034	0.065	-0.006	8.33	22.19	-0.14
5457	-1.031	0.041	-0.021	8.61	21.42	0.56
5477	-1.086	0.031	-0.083	2.03	18.27	-0.07
5497	-0.951	0.091	-0.126	-2.03	25.69	0.0
5517	-0.94	0.151	-0.085	-1.89	35.28	2.24
5537	-0.987	0.076	-0.073	-1.33	36.26	3.29
5553	-0.989	0.037	-0.088	-4.83	37.1	0.91
5575	-1.013	0.043	-0.103	-11.13	38.78	-6.16
5597	-1.051	0.08	-0.122	-19.04	34.37	-9.31
5617	-1.052	0.04	-0.167	-20.16	23.45	-8.47
5637	-1.007	-0.023	-0.205	-16.73	19.39	-7.49
5657	-0.996	-0.05	-0.231	-8.61	12.74	-7.0
5674	-1.016	-0.046	-0.221	-4.48	8.47	-6.79
5694	-1.02	-0.009	-0.231	-3.5	1.26	-6.65
5714	-0.999	0.015	-0.275	-3.85	-2.03	-7.91
5738	-1.0	0.035	-0.273	-5.81	-4.48	-6.86
5758	-0.98	0.033	-0.288	-5.53	-2.66	-5.39
5778	-0.965	0.003	-0.287	-5.04	-0.56	-4.34
5793	-0.958	-0.042	-0.267	-3.78	-0.35	-4.41
5813	-0.969	-0.044	-0.226	-1.68	-3.36	-4.69
5833	-0.979	-0.014	-0.199	0.49	-8.05	-4.55
5858	-0.997	0.001	-0.192	2.73	-11.34	-3.36
5878	-0.967	-0.003	-0.236	7.63	-12.88	-1.96
5895	-0.95	-0.014	-0.239	10.36	-13.72	-0.77
5914	-0.946	-0.033	-0.241	13.23	-12.74	-0.98
5934	-0.943	-0.046	-0.27	17.43	-9.1	-1.54
5955	-0.967	-0.023	-0.282	17.85	-2.59	-0.77
5979	-1.005	-0.004	-0.261	12.04	-0.56	-3.71
5999	-1.041	0.025	-0.226	5.11	-4.55	-5.88
6019	-1.078	0.067	-0.201	3.15	-8.05	-4.27
6039	-1.053	0.028	-0.192	3.5	-9.38	-0.98
6059	-1.064	0.002	-0.166	1.82	-13.37	0.49
6080	-1.07	0.006	-0.152	2.31	-21.63	1.68
6099	-1.049	-0.011	-0.128	4.76	-26.74	4.06
6118	-1.029	-0.017	-0.128	6.65	-29.96	5.39
6137	-1.025	-0.013	-0.122	7.56	-28.98	5.74
6161	-1.014	0.023	-0.066	4.41	-25.2	4.41
6179	-1.026	0.055	-0.022	2.24	-27.02	4.13
6203	-1.03	0.055	-0.014	1.96	-30.38	4.97
6223	-1.022	0.051	0.014	-2.03	-30.45	5.32
6242	-1.007	0.032	0.038	-3.71	-30.03	6.37
6263	-0.992	-0.004	0.061	-2.59	-29.05	7.14
6287	-0.987	-0.044	0.082	3.29	-27.51	8.82
6307	-0.977	-0.041	0.033	6.37	-24.15	7.42
6325	-0.993	0.0	0.021	6.72	-18.76	5.18
6345	-1.002	0.035	0.046	5.39	-14.91	3.36
6369	-0.99	0.062	0.028	1.12	-16.45	1.82
6389	-0.96	0.069	-0.038	-5.32	-15.05	-1.4
6410	-0.975	0.089	-0.048	-10.36	-16.73	-6.3
6429	-0.968	0.106	-0.118	-16.31	-16.8	-8.96
6453	-0.945	0.086	-0.097	-20.23	-5.81	-10.5
6473	-0.958	0.028	-0.009	-24.29	-0.56	-11.41
6492	-0.992	0.002	0.016	-21.56	-1.33	-11.13
6509	-1.007	0.009	0.002	-19.67	-3.5	-7.77
6534	-1.012	-0.049	-0.057	-15.47	-3.71	-4.62
6553	-1.009	-0.015	-0.052	-3.78	-1.75	-2.87
6573	-1.015	-0.02	-0.052	-2.52	-8.12	-1.26
6590	-0.984	-0.033	-0.102	-1.19	-6.51	-2.66
6610	-0.996	-0.018	-0.083	2.03	-4.62	-2.59
6634	-1.015	-0.024	-0.094	3.78	-5.18	-0.63
6652	-1.024	-0.023	-0.081	3.78	-4.9	-0.14
6676	-1.007	-0.026	-0.104	4.69	-5.81	-0.63
6697	-1.024	-0.007	-0.063	8.47	-3.29	-0.07
6715	-1.052	0.004	-0.016	11.41	-4.34	0.0
6735	-1.019	-0.001	-0.001	11.13	-5.18	-0.63
6759	-1.014	0.005	-0.032	8.96	-5.25	-1.19
6779	-0.985	0.021	0.014	6.79	-0.42	-1.4
6796	-0.959	0.028	0.034	7.42	0.56	-2.87
6815	-0.942	0.048	0.017	6.86	3.22	-3.36
6840	-0.955	0.044	-0.016	4.34	7.56	-2.8
6861	-1.004	0.041	-0.004	1.4	9.17	-0.91
6880	-1.028	0.043	-0.002	0.77	10.57	1.19
6900	-1.037	0.039	-0.004	1.05	10.92	2.66
6919	-1.047	0.027	0.0	3.01	10.85	4.55
6939	-1.026	0.003	-0.016	4.41	13.3	6.23
6960	-1.039	-0.034	-0.034	4.62	12.11	5.04
6980	-1.045	-0.011	-0.078	4.9	10.43	3.29
7004	-1.045	0.017	-0.086	5.6	8.12	3.01
7024	-1.042	0.006	-0.1	4.55	5.88	1.82
7043	-1.019	0.006	-0.112	0.56	3.5	-0.49
7068	-0.983	0.056	-0.131	-4.13	3.15	-3.71
7087	-0.953	0.09	-0.127	-5.04	5.81	-4.62
7107	-0.944	0.11	-0.081	-0.14	6.09	-2.87
7127	-0.935	0.072	-0.089	6.23	10.29	-1.33
7150	-0.947	0.015	-0.057	8.82	15.61	-1.05
7169	-1.013	-0.014	-0.044	8.68	20.93	-1.61
7191	-1.065	0.008	-0.011	8.19	19.88	-3.43
7210	-1.019	0.012	-0.031	9.52	19.67	-0.28
7230	-0.981	-0.061	-0.042	10.5	24.29	3.92
7255	-1.015	-0.07	-0.009	11.2	26.88	3.36
7275	-1.014	-0.015	-0.022	10.08	25.2	0.49
7295	-1.005	-0.013	-0.005	9.52	25.83	-2.03
7314	-1.037	0.023	-0.005	10.57	21.42	-5.32
7335	-1.064	0.099	-0.061	6.44	13.93	-7.42
7355	-0.969	0.139	-0.12	1.96	15.75	-5.18
7379	-0.903	0.063	-0.098	-0.91	27.65	-1.05
7395	-0.948	0.006	-0.063	-1.12	36.26	0.77
7417	-0.969	-0.016	-0.059	-0.63	41.23	-0.07
7439	-0.975	-0.01	-0.062	-0.28	43.19	-5.67
7458	-1.033	0.004	-0.1	-1.68	37.24	-9.73
7483	-1.093	0.031	-0.18	-8.47	17.92	-10.01
7503	-1.095	0.007	-0.266	-14.98	6.93	-9.03
7523	-1.047	0.024	-0.309	-11.83	2.8	-6.51
7543	-0.967	0.046	-0.288	-11.13	0.42	-4.76
7562	-0.916	0.042	-0.297	-12.53	-2.38	-3.43
7587	-0.901	-0.001	-0.322	-13.79	-1.19	-4.13
7607	-0.937	-0.002	-0.318	-13.79	0.35	-1.4
7627	-0.995	-0.039	-0.307	-12.81	1.12	-1.26
7651	-1.012	-0.048	-0.306	-8.33	1.89	-2.45
7671	-1.011	-0.044	-0.316	-4.83	3.99	-4.2
7690	-1.01	-0.009	-0.274	-3.29	4.34	-5.04
7710	-0.982	0.04	-0.257	-3.22	3.01	-4.76
7730	-0.965	0.035	-0.245	-4.48	1.75	-3.85
7754	-0.963	0.022	-0.249	-5.32	-0.91	-3.08
7770	-0.97	0.01	-0.272	-3.92	-3.64	-3.36
7792	-0.969	0.011	-0.275	-2.1	-5.39	-3.5
7814	-0.959	0.017	-0.285	-1.68	-7.77	-2.17
7834	-0.971	0.02	-0.294	0.0	-8.47	-0.84
7858	-0.981	0.023	-0.278	-0.77	-9.66	0.35
7879	-0.952	-0.009	-0.252	0.56	-9.59	0.49
7898	-0.944	-0.02	-0.227	2.52	-8.68	0.98
7918	-0.994	-0.016	-0.205	3.08	-11.83	3.01
7942	-1.05	-0.04	-0.203	1.96	-22.4	3.92
7962	-1.055	-0.084	-0.236	2.1	-29.19	1.89
7982	-1.059	-0.069	-0.221	1.4	-31.08	-0.35
8001	-1.037	0.0	-0.177	0.35	-33.11	-3.29
8026	-1.029	0.092	-0.168	-0.28	-35.28	-3.85
8044	-1.057	0.11	-0.132	0.0	-36.19	-2.1
8065	-1.08	0.076	-0.089	1.68	-35.21	2.17
8085	-1.053	0.018	-0.051	0.98	-33.74	5.46
8105	-0.997	-0.026	-0.021	1.82	-31.15	6.44
8129	-0.971	-0.028	0.018	3.92	-29.26	5.95
8150	-0.978	-0.03	0.044	4.83	-29.96	5.67
8167	-0.995	-0.021	0.049	4.69	-30.38	5.67
8189	-0.996	-0.019	0.032	5.67	-30.8	5.53
8209	-0.984	-0.005	-0.011	2.52	-27.44	5.11
8233	-0.969	0.022	-0.033	-0.14	-19.11	4.13
8249	-0.972	0.064	-0.024	-0.56	-15.96	3.85
8273	-0.951	0.073	-0.004	-1.68	-14.07	4.41
8293	-0.937	0.067	-0.034	-5.11	-13.51	3.43
8318	-0.976	0.062	-0.042	-6.3	-13.02	1.61
8337	-1.002	0.053	-0.031	-6.58	-14.21	0.77
8357	-1.011	0.008	-0.046	-6.51	-14.42	-0.91
8376	-1.022	0.014	-0.06	-6.93	-12.18	-2.45
8398	-1.028	0.029	-0.05	-4.9	-9.31	-5.04
8419	-1.019	0.044	-0.036	-6.44	-9.45	-6.51
8437	-0.977	0.036	-0.059	-6.65	-7.63	-6.93
8456	-0.966	0.029	-0.065	-4.62	-4.41	-7.42
8481	-0.995	0.042	-0.052	-3.01	-4.69	-7.0
8501	-0.985	0.046	-0.076	-1.19	-3.5	-5.11
8519	-0.991	0.044	-0.054	-0.07	-2.03	-2.59
8538	-1.048	0.05	-0.074	1.47	-2.17	0.28
8558	-1.064	0.047	-0.048	2.73	-0.91	2.31
8582	-1.048	-0.029	-0.011	-0.28	-2.73	1.82
8602	-1.009	-0.044	-0.007	0.49	-1.54	0.77
8622	-0.994	-0.045	-0.024	5.18	-3.29	-0.7
8638	-0.966	-0.014	-0.038	6.3	-0.91	-1.61
8661	-0.986	0.038	-0.02	6.09	0.7	-1.47
8682	-0.988	0.086	0.016	7.21	7.0	-1.19
8701	-1.038	0.106	0.088	6.09	6.09	0.35
8724	-1.05	0.08	0.043	3.99	-3.36	0.98
8743	-1.004	0.048	-0.019	0.63	-0.7	1.05
8765	-0.995	0.039	-0.009	-0.84	1.82	0.35
8785	-0.989	0.038	-0.004	0.42	1.19	0.77
8805	-0.99	0.02	-0.039	1.82	-0.07	1.47
8820	-0.988	0.011	-0.057	1.54	1.26	1.96
8840	-0.996	0.006	-0.058	2.17	4.69	1.89
8861	-1.001	0.016	-0.054	3.36	7.07	1.12
8885	-1.001	0.018	-0.042	3.01	10.5	0.21
8905	-1.03	0.007	-0.025	1.47	10.64	-0.77
8921	-1.041	0.006	-0.057	1.54	7.56	-1.89
8940	-1.028	0.02	-0.098	5.39	8.61	-3.22
8960	-1.029	0.08	-0.086	8.12	9.1	-0.98
8980	-1.028	0.095	-0.055	5.53	9.17	1.47
9005	-1.007	0.079	-0.058	0.07	5.46	3.29
9023	-0.98	0.057	-0.067	-17.92	5.95	2.45
9043	-0.96	0.028	-0.043	-2.24	7.91	1.89
9063	-0.948	-0.006	-0.034	-3.78	10.43	0.56
9087	-0.986	-0.001	-0.014	-1.05	12.81	-3.15
9108	-1.032	0.04	-0.013	4.34	9.03	-4.13
9125	-1.014	0.035	-0.072	6.58	9.45	-4.27
9150	-1.001	-0.008	-0.034	4.48	18.97	-3.01
9169	-0.971	-0.005	0.006	3.29	18.34	-3.85
9189	-0.963	0.016	-0.032	6.79	17.08	-4.97
9209	-1.011	-0.02	-0.008	5.95	19.25	-3.71
9229	-1.006	-0.007	0.022	6.79	16.59	-4.06
9251	-1.001	0.037	-0.043	10.22	11.48	-6.65
9275	-1.006	0.064	-0.094	10.85	12.81	-8.05
9293	-1.025	0.112	-0.113	9.38	18.69	-5.67
9315	-1.014	0.077	-0.105	4.13	22.82	-2.59
9334	-1.002	0.03	-0.081	3.08	23.1	-2.73
9359	-1.012	0.005	-0.067	3.36	19.95	-5.95
9375	-0.996	0.027	-0.105	-0.84	17.85	-9.1
9398	-0.991	0.102	-0.119	-9.73	13.86	-12.67
9422	-1.016	0.138	-0.13	-23.17	5.11	-8.4
9443	-1.086	0.035	-0.187	-24.29	-1.89	-5.18
9462	-1.109	-0.055	-0.201	-18.48	-4.69	-3.15
9480	-1.078	-0.105	-0.191	-12.81	-7.0	-2.8
9502	-1.018	-0.103	-0.18	-7.42	-8.75	-4.62
9526	-0.962	-0.043	-0.186	-3.08	-10.78	-5.81
9546	-0.913	0.025	-0.25	-0.49	-9.8	-4.83
9565	-0.928	0.086	-0.259	-0.07	-4.9	-2.8
9584	-0.98	0.059	-0.245	-0.56	-2.17	-1.33
9608	-0.999	-0.001	-0.233	-1.4	-0.14	-1.96
9627	-1.005	-0.038	-0.21	-2.66	0.56	-2.45
9650	-0.978	-0.034	-0.19	-2.17	1.68	-2.52
9671	-0.962	-0.005	-0.154	0.63	2.17	-1.68
9690	-0.956	-0.02	-0.168	4.76	0.84	-1.12
9710	-0.953	-0.018	-0.2	7.77	-0.91	0.14
9730	-0.942	-0.018	-0.2	9.73	0.21	1.68
9750	-0.96	-0.019	-0.178	12.11	1.75	1.4
9774	-0.982	-0.005	-0.183	14.14	0.0	1.68
9794	-0.983	-0.0	-0.181	14.14	1.05	2.03
9814	-1.068	0.006	-0.172	15.05	0.49	2.1
9834	-1.155	0.006	-0.123	13.86	-10.5	1.61
9853	-1.168	0.042	-0.132	7.98	-18.13	-0.84
9874	-1.134	0.066	-0.153	-0.49	-25.48	-1.96
9893	-1.108	0.088	-0.172	-0.63	-30.17	-0.49
9913	-1.05	0.042	-0.137	1.68	-31.29	2.66
9936	-1.001	0.0	-0.083	1.75	-30.87	4.2
9957	-1.004	-0.051	-0.047	2.66	-31.22	4.97
9977	-1.007	-0.065	-0.071	1.89	-31.36	3.5
9996	-1.005	-0.047	-0.057	1.75	-28.35	-1.19
10013	-0.992	0.014	-0.001	3.99	-26.81	-3.43
10033	-0.996	0.037	0.045	4.76	-27.58	-1.75
10057	-0.997	0.069	0.083	1.96	-26.39	1.96
10077	-1.002	0.035	0.088	1.47	-28.14	4.13
10096	-0.987	0.024	0.075	2.73	-23.52	4.69
10116	-1.014	0.029	0.111	2.73	-20.51	5.6
10136	-0.985	0.036	0.09	-0.35	-18.97	5.25
10160	-0.976	0.025	0.047	-1.61	-15.19	6.51
10180	-0.964	-0.006	0.006	-4.34	-10.5	5.6
10200	-0.958	0.005	-0.022	-5.81	-4.27	3.78
10220	-0.974	0.019	0.009	-3.71	-0.07	1.75
10244	-0.99	0.028	0.017	0.21	-0.49	-0.63
10264	-0.977	0.04	-0.026	1.47	-1.75	-1.33
10284	-0.978	0.042	-0.076	0.28	1.4	-1.47
10304	-1.036	0.06	-0.056	-2.24	2.03	-0.84
10324	-1.074	0.071	-0.022	-3.85	-1.89	-0.42
10344	-1.043	0.065	-0.029	-5.53	-4.13	-1.19
10364	-0.995	0.041	-0.066	-9.31	-4.55	-2.73
10383	-0.976	-0.001	-0.07	-10.43	-4.55	-3.78
10404	-0.969	-0.008	-0.055	-8.26	-4.83	-3.71
10422	-0.976	-0.022	-0.026	-4.34	-4.76	-2.8
10444	-1.011	-0.022	-0.014	1.82	-9.17	-0.98
10464	-1.016	-0.009	-0.017	2.87	-12.18	0.07
10486	-1.004	0.003	-0.023	2.8	-8.54	-0.21
10510	-1.012	0.044	0.001	3.5	-3.5	-1.75
10529	-1.015	0.057	-0.009	3.15	-1.4	-1.82
10549	-1.012	0.055	0.02	3.5	3.43	-1.54
10569	-1.028	0.052	0.07	3.85	4.41	-0.28
10593	-1.029	0.029	0.047	3.5	1.33	1.05
10613	-0.984	0.016	-0.041	2.45	4.62	1.68
10630	-0.988	0.025	-0.028	2.38	7.14	2.17
10653	-0.98	0.037	-0.008	2.1	10.08	2.24
10672	-0.958	0.044	-0.009	1.61	12.25	1.82
10694	-0.965	0.061	-0.03	1.82	12.39	1.89
10715	-0.989	0.058	-0.05	-0.07	12.11	2.87
10740	-1.027	0.041	-0.061	0.14	13.16	3.29
10754	-1.049	0.029	-0.014	1.05	12.67	3.99
10779	-1.05	-0.0	-0.03	0.42	10.57	4.27
10798	-1.059	-0.012	-0.043	-0.7	12.39	1.96
10819	-1.081	0.029	-0.028	0.21	10.64	0.21
10839	-1.081	0.067	-0.016	0.98	8.75	-0.84
10858	-1.062	0.108	0.015	0.77	4.2	-0.49
10879	-1.042	0.072	-0.036	-0.56	-3.36	-1.19
10897	-0.992	0.041	-0.085	-2.31	-5.74	-2.24
10915	-0.94	0.024	-0.114	-1.75	-4.27	-2.8
10936	-0.902	-0.003	-0.118	1.75	4.34	-3.08
10960	-0.926	-0.024	-0.037	6.37	13.44	-2.1
10980	-0.984	-0.05	0.012	9.94	13.58	-2.17
11002	-0.989	-0.041	0.025	8.89	11.83	-3.29
11026	-0.949	0.007	-0.029	9.87	18.2	-3.99
11046	-1.121	0.048	0.007	9.66	22.33	-4.13
11066	-1.049	0.044	0.081	6.93	19.6	-4.2
11085	-0.974	0.057	0.015	7.21	19.95	-6.02
11106	-1.017	0.122	0.013	4.97	21.56	-8.19
11126	-1.069	0.147	-0.012	-5.95	20.58	-9.24
11146	-0.972	0.117	-0.035	-12.18	23.87	-9.24
11166	-0.962	0.08	-0.079	-11.76	26.81	-10.36
11185	-0.957	0.074	-0.095	-9.24	34.3	-9.24
11205	-0.945	0.036	-0.089	-11.13	39.83	-8.96
11229	-0.951	0.021	-0.127	-16.24	34.93	-10.57
11247	-0.992	0.02	-0.208	-18.2	28.91	-11.34
11266	-1.107	0.014	-0.239	-18.2	22.96	-10.99
11289	-1.138	-0.007	-0.238	-18.55	12.81	-8.82
11311	-1.108	-0.06	-0.237	-18.62	5.81	-8.89
11335	-1.046	-0.054	-0.234	-13.16	1.26	-8.68
11355	-0.957	-0.001	-0.244	-7.07	0.35	-6.23
11372	-0.909	0.0	-0.249	-5.6	1.19	-4.62
11392	-0.887	-0.005	-0.268	-6.44	0.98	-3.22
11412	-0.903	-0.022	-0.276	-1.82	1.47	-2.03
11432	-0.978	-0.025	-0.252	3.43	2.52	-0.28
11456	-1.039	-0.018	-0.214	8.12	0.77	0.91
11471	-1.045	-0.027	-0.211	10.22	-1.75	0.84
11494	-0.978	-0.049	-0.234	11.97	-2.59	-0.14
11513	-0.98	-0.043	-0.246	14.91	-4.34	-0.14
11535	-1.008	-0.038	-0.266	18.48	-7.91	-0.07
11554	-1.012	-0.018	-0.258	20.51	-10.08	-1.33
11578	-0.992	0.025	-0.241	22.54	-11.06	0.49
11594	-1.007	0.035	-0.193	21.35	-12.67	1.75
11617	-1.022	0.017	-0.194	16.8	-16.66	1.47
11634	-1.063	0.004	-0.222	12.95	-20.93	1.33
11653	-1.118	-0.011	-0.203	8.61	-25.76	1.19
11676	-1.144	-0.002	-0.124	6.65	-31.64	1.33
11700	-1.143	0.001	-0.086	7.84	-38.22	3.43
11720	-1.053	0.004	-0.085	9.66	-41.44	5.18
11740	-0.962	0.011	-0.08	8.12	-33.81	6.02
11760	-0.977	0.023	-0.006	5.18	-29.75	6.16
11775	-0.999	0.035	0.027	3.43	-29.12	5.04
11800	-1.003	0.057	0.055	1.75	-27.79	3.99
11815	-1.015	0.06	0.085	-0.56	-27.58	5.88
11835	-0.997	0.013	0.089	-2.87	-29.75	8.26
11856	-0.965	0.005	0.061	-4.13	-28.35	7.63
11880	-0.942	0.017	0.077	-2.1	-27.37	8.33
11900	-0.904	-0.01	0.049	0.21	-26.11	7.14
11919	-0.911	-0.005	0.002	0.91	-21.0	6.23
11940	-0.981	0.016	-0.001	1.96	-15.61	5.18
11956	-0.996	0.048	0.005	1.82	-14.49	4.97
11975	-0.974	0.063	-0.024	-2.73	-12.18	3.99
12000	-0.971	0.052	-0.051	-7.14	-5.6	2.38
12020	-0.996	0.067	-0.026	-7.63	-1.54	0.49
12040	-1.01	0.058	-0.007	-9.38	-4.69	-0.21
12060	-0.981	0.039	-0.038	-10.64	-1.96	-3.43
12084	-1.006	0.044	-0.013	-9.94	3.08	-6.86
12104	-1.042	0.026	0.014	-11.27	-3.01	-7.63
12124	-1.039	-0.004	-0.003	-12.46	-9.38	-6.65
12143	-1.04	-0.013	-0.041	-7.49	-13.51	-4.27
12162	-1.027	-0.015	-0.07	-2.31	-12.95	-3.08
12181	-1.011	-0.007	-0.085	-1.54	-10.71	-1.54
12201	-1.023	-0.02	-0.076	-2.73	-11.55	-2.31
12226	-1.023	0.015	-0.064	-2.03	-11.34	-5.46
12244	-0.998	0.059	-0.047	0.49	-7.14	-5.95
12266	-0.996	0.014	0.035	0.14	-4.76	-3.85
12287	-0.973	-0.019	0.012	1.33	-5.53	-2.45
12305	-0.968	-0.016	-0.0	3.71	-4.41	-1.96
12329	-0.977	0.016	0.004	7.35	0.42	-0.84
12353	-1.017	0.03	0.056	11.69	3.36	1.12
12371	-1.008	0.013	0.057	12.04	2.1	1.05
12390	-0.996	0.01	0.005	9.31	2.24	0.21
12414	-1.005	0.027	-0.015	4.9	4.83	-0.63
12434	-1.011	0.032	-0.004	3.71	7.49	-0.84
12458	-1.024	0.025	0.007	5.25	9.59	-0.63
12477	-1.054	0.012	0.02	7.7	8.89	0.0
12500	-1.072	-0.005	0.015	9.87	5.39	0.7
12521	-1.071	0.013	-0.006	10.78	-0.77	0.21
12541	-1.041	0.071	-0.037	9.87	-1.61	-0.07
12561	-1.012	0.104	-0.061	7.0	1.12	0.14
12581	-1.01	0.077	-0.032	3.92	2.31	1.47
12597	-1.002	0.038	-0.023	2.73	2.24	1.96
12616	-0.983	0.004	-0.02	0.42	2.94	1.26
12641	-0.964	-0.005	-0.009	-2.52	5.67	-0.63
12662	-1.004	0.003	0.03	-2.45	2.17	-2.17
12680	-1.008	0.018	-0.023	0.56	-1.4	-3.5
12701	-1.017	0.02	-0.017	6.65	2.1	-2.59
12719	-1.015	-0.007	0.039	11.13	3.57	-0.28
12743	-0.964	-0.028	0.081	12.46	5.11	-0.21
12766	-0.954	-0.017	0.047	14.49	5.04	-2.52
12784	-0.972	0.006	0.028	15.19	7.77	-2.66
12803	-0.965	0.043	0.017	15.47	14.21	-4.55
12825	-1.007	0.101	0.016	10.71	21.63	-6.86
12845	-1.02	0.112	0.038	3.64	27.58	-7.63
12865	-1.04	0.114	0.061	-0.42	29.54	-6.16
12889	-1.11	0.085	0.082	-2.73	23.38	-3.43
12909	-1.097	0.021	0.026	-8.19	11.69	-2.52
12929	-0.985	-0.016	-0.055	-14.28	13.37	-2.73
12945	-0.992	-0.025	-0.069	-12.6	17.15	-4.13
12969	-1.028	-0.005	-0.071	-3.29	15.82	-3.08
12988	-0.973	-0.005	-0.126	2.24	16.8	-2.17
13007	-0.956	0.005	-0.122	2.52	21.77	-2.94
13032	-0.981	0.013	-0.057	-0.77	17.5	-7.07
13052	-0.99	0.063	-0.089	-0.7	8.26	-6.23
13072	-0.991	0.083	-0.132	-1.33	1.26	-2.03
13089	-0.999	0.052	-0.186	-4.34	-0.49	-0.35
13109	-1.016	0.048	-0.178	-6.44	3.22	2.17
13133	-1.038	-0.051	-0.183	-2.38	6.51	1.4
13153	-1.003	-0.084	-0.185	0.14	8.68	0.98
13173	-1.01	-0.073	-0.161	1.33	10.43	-2.52
13197	-1.052	-0.009	-0.127	2.31	6.86	-2.45
13213	-1.069	0.023	-0.119	3.22	1.89	-1.33
13237	-1.05	0.036	-0.145	3.99	-2.66	-0.7
13257	-1.022	0.021	-0.149	4.62	-3.99	0.0
13274	-1.0	-0.002	-0.155	5.18	-3.36	0.21
13292	-0.976	-0.009	-0.164	5.11	-3.01	-0.28
13313	-0.965	0.007	-0.165	4.97	-2.94	-0.7
13333	-0.953	0.022	-0.164	6.09	-3.57	-0.7
13357	-0.956	0.018	-0.166	7.35	-3.36	-0.63
13376	-0.98	-0.006	-0.142	5.81	-5.04	-1.4
13400	-0.991	-0.004	-0.118	3.5	-9.8	-3.15
13419	-0.989	0.032	-0.109	3.5	-11.76	-4.06
13437	-1.044	0.009	-0.126	3.29	-13.72	-5.11
13461	-1.107	0.027	-0.158	-1.33	-16.87	-3.85
13482	-1.117	0.015	-0.153	-4.55	-15.05	-3.5
13501	-1.125	0.003	-0.059	-2.59	-19.46	-2.52
13521	-1.108	0.009	-0.018	-0.91	-26.25	-1.05
13540	-1.048	0.006	-0.024	-0.35	-29.68	0.28
13557	-1.022	0.003	-0.041	0.35	-29.26	1.75
13581	-1.018	0.006	-0.025	1.89	-26.95	3.92
13597	-1.007	0.006	0.016	1.61	-26.32	3.5
13616	-0.995	0.025	0.055	-0.21	-25.9	3.71
13639	-1.003	0.024	0.089	-1.75	-25.55	3.92
13662	-0.991	0.026	0.097	-4.83	-25.76	3.85
13677	-1.122	0.03	0.099	-5.74	-24.92	3.71
13702	-1.007	0.042	0.102	-6.23	-23.31	3.71
13721	-1.0	0.051	0.09	-6.86	-20.65	3.78
13741	-0.98	0.038	0.084	-11.41	-17.92	4.41
13761	-0.954	0.023	0.046	-13.58	-17.85	3.57
13781	-0.933	0.021	0.021	-12.6	-10.36	3.36
13805	-0.956	0.017	0.029	-12.46	-2.8	3.5
13825	-0.98	0.008	0.046	-11.76	0.28	1.89
13844	-1.028	0.009	0.042	-10.92	-0.49	0.98
13863	-1.049	-0.004	0.032	-9.1	-4.55	0.14
13886	-1.026	-0.001	-0.018	-6.79	-7.84	-1.68
13905	-0.988	0.023	-0.048	-6.86	-5.46	-3.64
13929	-0.996	0.035	-0.03	-7.98	-3.43	-4.2
13947	-1.005	0.014	-0.008	-7.21	-5.88	-4.34
13969	-0.988	-0.003	-0.042	-5.95	-7.63	-3.92
13989	-0.955	0.004	-0.061	-2.73	-3.5	-3.78
14009	-0.954	0.0	-0.047	0.21	-0.07	-2.87
14029	-0.995	-0.027	-0.018	3.36	-0.56	-1.96
14046	-1.033	-0.023	-0.025	5.04	-4.27	-2.17
14065	-1.047	0.021	-0.023	6.44	-2.8	-1.82
14088	-1.049	0.061	0.06	10.29	1.89	-0.98
14111	-1.05	0.028	0.119	13.16	0.14	0.7
14132	-0.995	-0.02	0.066	14.56	-3.36	0.21
14152	-0.976	0.005	0.005	11.62	-2.87	-1.26
14170	-0.955	0.038	0.017	9.1	5.39	-2.38
14191	-1.005	0.052	0.045	10.36	6.37	-3.01
14210	-1.028	0.051	0.027	9.38	3.29	-1.75
14230	-1.014	0.038	0.008	5.88	3.85	-0.56
14253	-1.019	0.04	0.02	2.87	6.02	-0.63
14273	-1.007	0.053	0.015	1.19	7.0	-0.84
14289	-0.996	0.053	0.015	-0.63	8.12	-0.28
14314	-0.985	0.021	0.025	-3.85	8.96	-1.05
14338	-0.986	0.0	0.018	-5.04	8.19	-2.59
14358	-1.009	-0.006	-0.005	-2.52	7.63	-2.73
14377	-1.054	0.009	-0.017	1.75	6.44	-1.75
14397	-1.063	0.026	-0.035	5.32	5.46	0.28
14421	-1.059	0.018	-0.026	7.49	4.9	1.82
14440	-1.061	0.024	0.012	5.25	2.03	1.12
14464	-1.029	0.032	-0.042	3.15	-5.32	-0.35
14484	-0.983	0.046	-0.081	0.28	-5.46	-0.84
14504	-0.952	0.034	-0.037	-2.45	-0.56	-0.21
14521	-0.97	0.019	0.009	-3.15	3.92	0.84
14544	-0.997	0.008	0.024	-2.17	5.53	1.33
14565	-1.023	0.017	0.002	-0.63	5.04	0.56
14583	-1.04	0.027	-0.01	-0.35	6.16	-0.21
14607	-1.029	0.049	-0.006	-0.42	7.0	1.26
14626	-1.014	0.022	-0.007	2.03	7.35	1.47
14650	-1.022	-0.007	0.023	4.83	5.04	-0.21
14666	-0.995	-0.02	0.042	6.65	3.99	-1.82
14689	-0.907	-0.004	0.018	4.55	8.05	-3.64
14713	-0.94	0.012	0.038	0.28	10.36	-7.84
14733	-0.991	0.039	0.056	-1.26	14.14	-8.68
14753	-1.0	0.049	0.1	-1.26	20.72	-7.63
14772	-1.037	0.047	0.111	0.35	21.14	-6.44
14796	-1.023	0.049	0.014	-1.89	15.82	-6.09
14814	-0.986	0.025	-0.049	-1.75	21.21	-5.53
14834	-0.977	0.002	-0.033	-0.7	29.05	-5.39
14858	-1.002	0.008	0.01	-0.56	28.84	-7.77
14877	-1.079	0.006	-0.005	3.92	17.5	-7.42
14896	-1.05	-0.009	-0.116	6.23	12.25	-7.42
14919	-0.961	-0.007	-0.147	4.27	15.89	-6.65
14940	-0.934	0.001	-0.126	0.56	22.68	-6.51
14960	-1.013	0.04	-0.076	-2.17	20.86	-6.16
14980	-1.057	0.027	-0.093	-5.88	13.93	-4.48
15004	-1.039	0.011	-0.144	-7.77	6.23	-4.2
15024	-1.032	0.012	-0.183	-7.56	6.51	-4.2
15041	-1.063	0.013	-0.158	-7.56	6.3	-2.38
15061	-1.078	-0.01	-0.132	-6.58	2.38	-0.35
15080	-1.029	-0.025	-0.149	-5.32	-1.26	1.05
15100	-0.982	-0.007	-0.191	-2.52	-0.91	1.19
15125	-0.988	0.003	-0.213	-1.05	1.96	0.63
15143	-1.018	-0.007	-0.182	-1.82	1.96	0.07
15166	-1.033	-0.019	-0.157	-2.31	-1.54	-0.56
15187	-1.033	-0.029	-0.147	-0.63	-4.06	-0.35
15207	-1.021	-0.027	-0.15	2.87	-4.13	-0.07
15226	-1.018	-0.021	-0.155	3.71	-2.45	-0.21
15245	-1.0	-0.016	-0.144	3.99	-3.5	-0.35
15269	-0.967	0.0	-0.15	4.69	-7.21	0.14
15284	-0.944	-0.002	-0.163	6.37	-7.35	0.84
15309	-0.955	-0.013	-0.158	8.26	-5.67	1.12
15329	-0.968	-0.023	-0.146	8.96	-3.71	0.7
15353	-0.974	-0.025	-0.144	10.29	-0.77	1.4
15372	-1.011	-0.029	-0.142	10.01	-0.35	1.61
15393	-1.078	-0.008	-0.143	7.14	-5.25	-0.35
15412	-1.076	0.015	-0.142	3.85	-10.5	-1.54
15433	-1.089	0.033	-0.09	1.12	-13.93	-2.31
15457	-1.1	0.053	-0.056	1.47	-21.21	-0.42
15477	-1.065	0.049	-0.09	3.99	-22.61	1.75
15495	-1.022	0.009	-0.095	3.08	-20.23	2.38
15517	-0.967	-0.027	-0.043	-0.28	-17.57	2.52
15534	-0.969	-0.042	-0.01	-0.35	-15.12	1.33
15558	-1.009	-0.041	-0.044	1.68	-16.66	-2.03
15578	-1.02	0.017	-0.037	2.52	-16.17	-2.52
15598	-1.012	0.016	-0.014	3.36	-11.06	-1.82
15617	-0.99	0.01	0.031	3.78	-12.04	1.26
15636	-0.982	-0.013	0.036	3.22	-13.58	2.59
15657	-1.007	0.0	0.045	1.4	-13.44	2.8
15676	-1.012	0.003	0.036	1.4	-13.72	3.92
15701	-1.017	0.011	0.041	2.31	-11.69	4.06
15721	-1.002	0.026	0.031	4.48	-10.15	4.97
15741	-0.985	0.032	0.008	4.9	-4.41	6.02
15760	-1.005	0.009	0.001	1.12	-3.36	5.67
15780	-1.036	0.02	0.0	-2.94	-5.67	3.36
15805	-1.022	0.041	-0.034	-2.31	-10.36	2.31
15824	-0.976	0.072	-0.089	-2.73	-7.49	2.24
15848	-0.964	0.018	-0.085	-3.36	-2.87	1.19
15867	-0.948	-0.004	-0.096	-5.04	-0.28	0.0
15888	-0.979	0.025	-0.114	-6.02	1.33	-0.77
15906	-0.976	0.049	-0.096	-4.62	2.03	-0.77
15925	-0.956	0.009	-0.087	-5.04	1.82	-0.07
15945	-0.955	-0.031	-0.113	-3.99	1.47	-1.89
15969	-1.005	0.008	-0.11	-2.17	2.45	-3.5
15989	-1.046	0.037	-0.082	1.61	4.76	-3.22
16012	-1.081	0.009	-0.039	2.73	-0.77	-2.1
16033	-1.063	0.057	-0.058	6.86	-3.57	-1.54
16052	-1.024	0.104	0.001	10.5	0.21	2.8
16072	-1.001	0.0	0.038	10.29	-3.99	6.23
16097	-0.942	-0.052	-0.046	8.47	-7.42	3.36
16115	-0.915	-0.006	-0.081	6.79	-0.07	0.28
16132	-0.969	0.025	-0.07	4.06	3.08	-0.56
16153	-1.004	0.041	-0.057	5.25	3.57	-0.91
16173	-0.999	0.037	-0.019	3.92	4.9	0.42
16198	-1.021	0.029	0.012	3.64	6.79	0.63
16216	-1.025	0.042	-0.03	4.97	4.83	-0.14
16237	-1.012	0.038	-0.104	3.71	3.29	-0.77
16261	-1.025	0.055	-0.093	4.83	8.54	0.84
16285	-1.061	0.028	-0.041	5.04	11.41	2.8
16305	-1.068	0.003	-0.01	5.74	8.47	3.29
16324	-1.048	-0.002	-0.026	7.91	3.29	2.52
16348	-1.03	0.0	-0.07	9.87	-4.41	0.77
16368	-1.012	0.006	-0.147	10.92	-8.75	-0.98
16387	-0.976	0.026	-0.142	9.45	-1.75	-2.24
16406	-0.944	0.061	-0.111	6.51	4.2	-2.03
16425	-0.925	0.07	-0.112	5.11	11.48	-2.38
16448	-0.949	0.071	-0.06	3.99	16.52	-1.12
16469	-0.969	0.025	-0.092	6.72	17.92	0.42
16489	-0.973	-0.015	-0.109	8.75	21.0	1.05
16508	-0.981	0.005	-0.072	9.52	24.22	-1.26
16530	-0.989	0.042	-0.021	4.76	21.56	-5.18
16555	-0.998	0.056	-0.056	2.45	22.26	-11.06
16573	-1.046	0.053	-0.009	2.87	27.44	-12.32
16593	-1.098	0.059	0.075	6.37	23.45	-9.8
16611	-1.071	0.001	0.049	1.75	18.13	-7.07
16635	-1.035	-0.041	-0.017	-7.63	12.67	-7.42
16659	-0.968	0.043	-0.093	-4.62	16.17	-10.57
16677	-0.942	0.097	-0.076	-2.1	20.44	-10.36
16698	-0.962	0.025	-0.072	-3.85	24.5	-10.01
16718	-0.957	0.009	-0.111	-7.07	29.12	-11.27
16741	-0.977	0.034	-0.13	-7.56	32.62	-9.94
16762	-1.011	-0.001	-0.136	-8.05	30.73	-5.67
16781	-1.002	-0.032	-0.137	-7.84	26.6	-3.36
16800	-0.992	-0.039	-0.159	-5.46	20.37	-3.01
16824	-0.986	-0.033	-0.214	-1.96	13.86	-2.03
16844	-0.993	-0.047	-0.231	-2.03	11.48	-2.1
16865	-1.019	0.009	-0.274	-4.06	2.38	-4.06
16889	-0.986	0.066	-0.346	-6.79	-2.38	-1.89
16908	-0.957	0.055	-0.346	-7.21	1.4	-0.14
16927	-0.942	0.022	-0.298	-6.23	3.43	2.03
16953	-0.961	-0.044	-0.299	-0.42	3.08	3.85
16972	-0.999	-0.091	-0.312	2.52	4.48	1.82
16991	-1.031	-0.06	-0.306	3.78	2.1	0.21
17012	-1.02	-0.015	-0.287	4.2	-0.84	0.21
17036	-0.999	0.017	-0.257	3.57	-4.83	-0.35
17054	-0.976	0.024	-0.257	2.31	-5.32	-1.19
17073	-1.004	0.027	-0.253	1.54	-5.6	-1.4
17093	-1.057	0.015	-0.239	-0.07	-8.19	-0.49
17116	-1.057	-0.001	-0.248	-0.28	-12.81	0.63
17137	-0.989	-0.02	-0.249	0.84	-16.94	0.77
17155	-0.912	-0.016	-0.268	1.68	-18.34	0.56
17176	-0.86	0.006	-0.282	3.01	-15.26	0.63
17198	-0.849	0.022	-0.25	3.01	-11.13	0.28
17218	-0.888	0.006	-0.211	-0.14	-13.16	-0.35
17240	-0.942	-0.026	-0.214	17.71	-18.69	-0.84
17259	-0.99	-0.027	-0.249	3.99	-21.07	-2.1
17276	-1.058	-0.013	-0.239	5.25	-20.51	-2.8
17298	-1.129	0.025	-0.194	5.18	-22.26	-1.75
17318	-1.166	0.031	-0.135	4.69	-27.72	0.0
17342	-1.141	0.012	-0.095	4.69	-31.78	1.96
17362	-1.082	-0.015	-0.096	4.62	-33.04	3.57
17382	-1.058	-0.025	-0.09	5.18	-29.4	4.83
17397	-1.047	-0.033	-0.04	6.86	-26.46	5.67
17421	-1.035	-0.028	-0.003	9.73	-26.6	5.95
17440	-1.006	-0.006	0.027	9.87	-30.45	4.9
17460	-0.95	0.022	0.046	7.35	-34.44	4.48
17479	-0.917	0.041	0.026	6.16	-34.93	3.92
17504	-0.985	0.053	-0.0	6.86	-33.32	4.55
17520	-0.989	0.057	-0.029	4.62	-31.08	4.69
17544	-0.971	0.049	-0.035	1.89	-20.44	3.71
17564	-0.995	0.035	0.014	-0.28	-16.8	2.94
17588	-1.007	0.038	0.017	-3.08	-17.15	2.1
17608	-0.974	0.047	0.0	-8.33	-16.73	1.12
17629	-0.944	0.053	-0.023	-9.45	-14.84	0.63
17646	-0.948	0.045	-0.041	-7.21	-10.43	-0.14
17671	-0.975	0.03	-0.022	-6.02	-9.52	0.14
17690	-0.985	0.014	-0.037	-7.49	-10.15	-0.14
17709	-0.988	0.025	-0.049	-9.45	-7.42	-0.49
17730	-1.004	0.014	-0.061	-11.97	-8.54	-2.17
17754	-1.011	0.032	-0.064	-10.78	-7.84	-4.62
17773	-1.041	0.055	-0.036	-8.4	-9.59	-4.76
17793	-1.009	0.036	-0.04	-7.14	-8.82	-2.87
17818	-0.995	0.007	-0.017	-5.81	-6.58	-1.33
17837	-1.007	-0.006	-0.017	-4.55	-6.65	-1.26
17856	-1.013	-0.012	-0.028	-3.85	-5.32	-1.75
17876	-1.028	0.01	-0.013	-2.45	-4.83	-3.01
17900	-1.06	0.0	-0.001	-0.91	-10.92	-3.08
17919	-1.029	-0.007	-0.041	-2.17	-12.74	-3.43
17939	-0.988	0.023	-0.035	-5.04	-6.37	-3.5
17963	-0.984	0.036	0.011	-3.92	-2.1	-3.15
17983	-0.986	0.025	0.02	1.96	-0.07	-1.89
18002	-0.988	0.002	0.036	5.04	2.31	-0.35
18027	-0.995	-0.007	0.048	4.76	2.66	0.28
18046	-1.002	0.008	0.016	5.95	2.52	0.07
18065	-1.013	0.025	0.014	5.46	3.01	-0.14
18085	-1.002	0.032	0.013	3.15	5.11	0.07
18109	-1.018	0.039	0.006	3.36	8.4	-0.07
18129	-1.002	0.026	-0.021	3.36	9.17	0.35
18149	-0.971	0.005	-0.022	4.62	14.42	0.21
18168	-0.976	0.013	-0.013	4.9	17.71	-0.42
18188	-0.995	0.026	-0.013	4.83	17.5	-0.42
18214	-1.022	0.037	-0.008	2.94	13.23	0.49
18233	-1.038	0.043	-0.03	1.19	9.8	1.12
18252	-1.079	0.039	-0.042	0.84	8.26	1.96
18273	-1.106	0.028	-0.04	3.22	5.46	2.87
18293	-1.095	0.014	-0.039	4.9	0.84	3.29
18313	-1.044	0.024	-0.054	5.39	-1.82	2.8
18337	-0.986	0.046	-0.077	5.88	0.49	2.8
18357	-0.941	0.03	-0.086	5.88	7.28	2.73
18377	-0.929	0.009	-0.048	5.18	12.81	1.05
18394	-0.941	0.013	-0.017	2.17	13.86	-1.12
18413	-0.951	0.044	-0.011	-0.98	13.44	-4.13
18434	-0.959	0.073	-0.013	-2.03	12.53	-6.58
18458	-0.94	0.048	-0.055	1.05	14.63	-6.65
18478	-0.969	0.004	-0.023	3.85	20.23	-4.41
18498	-1.035	-0.022	0.04	4.76	17.36	-2.38
18513	-1.016	-0.014	0.011	5.95	13.93	-1.4
18538	-0.986	-0.036	-0.037	9.87	17.71	-1.12
18558	-1.028	-0.054	-0.034	9.52	20.44	-3.43
18581	-1.048	0.04	-0.011	2.87	20.09	-8.47
18605	-1.01	0.101	-0.004	-1.12	21.21	-8.75
18625	-1.024	0.093	-0.002	-2.17	18.34	-5.32
18641	-1.037	0.09	-0.066	-4.13	15.96	-3.57
18665	-1.015	0.095	-0.135	-6.44	19.04	-1.75
18684	-0.982	0.038	-0.156	-7.91	25.13	0.21
18708	-1.002	-0.023	-0.118	-6.79	26.74	0.42
18727	-1.018	-0.034	-0.103	-6.37	21.14	-0.91
18751	-0.98	-0.008	-0.108	-5.81	17.71	-1.33
18768	-0.987	-0.016	-0.133	-2.38	16.52	-2.52
18788	-1.005	-0.009	-0.214	-1.82	15.54	-2.94
18808	-0.998	-0.007	-0.23	-1.54	15.68	-5.39
18832	-1.04	0.022	-0.233	-0.21	12.46	-6.93
18852	-1.075	0.052	-0.217	0.28	7.98	-7.0
18871	-1.032	0.054	-0.226	-0.84	1.61	-5.6
18890	-0.985	0.044	-0.265	-0.14	-0.77	-2.8
18915	-0.96	0.012	-0.271	0.14	0.21	-0.91
18935	-0.976	-0.02	-0.256	-0.14	0.63	-0.77
18955	-0.986	-0.03	-0.248	0.49	-0.35	-1.4
18975	-0.975	-0.019	-0.245	1.19	-1.12	-2.24
18999	-0.962	0.007	-0.246	0.98	0.21	-2.52
19019	-0.976	0.025	-0.244	0.14	2.31	-1.4
19038	-1.001	0.026	-0.22	0.91	2.73	-0.42
19059	-1.019	0.018	-0.199	2.8	-0.07	-0.21
19079	-1.001	0.0	-0.212	3.92	-4.41	-0.28
19099	-0.958	0.001	-0.237	6.09	-5.32	0.07
19116	-0.951	0.004	-0.241	7.56	-4.76	0.56
19136	-0.952	0.005	-0.236	8.96	-4.06	0.77
19155	-0.955	-0.003	-0.242	10.29	-3.01	1.05
19178	-0.989	-0.011	-0.266	11.55	-1.54	1.05
19202	-1.036	-0.025	-0.242	12.46	-2.66	0.98
19222	-1.047	-0.016	-0.221	12.18	-9.03	1.05
19240	-1.033	0.015	-0.209	11.41	-10.57	2.31
19262	-1.041	0.033	-0.167	10.08	-12.81	3.99
19282	-1.032	0.036	-0.15	6.79	-18.34	4.9
19303	-1.02	0.01	-0.132	1.47	-20.93	4.76
19322	-1.026	0.025	-0.112	-2.1	-23.45	3.29
19341	-1.009	0.031	-0.095	-2.87	-24.22	3.08
19361	-1.016	0.02	-0.072	-3.85	-25.48	2.87
19385	-1.017	0.042	-0.065	-4.41	-25.9	1.33
19403	-1.029	0.07	-0.036	-4.55	-27.86	2.24
19425	-1.018	0.063	-0.011	-6.51	-30.52	3.85
19446	-0.989	0.037	-0.01	-6.86	-29.61	3.92
19465	-0.984	0.038	-0.015	-7.07	-29.12	2.87
19486	-0.987	0.026	-0.024	-8.05	-27.23	2.73
19508	-0.999	-0.007	-0.01	-9.31	-20.79	0.42
19528	-1.002	0.002	0.005	-8.4	-18.34	-1.68
19548	-0.994	0.02	0.008	-5.88	-15.89	-1.96
19572	-1.002	0.023	0.01	-6.3	-16.1	-2.66
19592	-0.979	0.026	-0.033	-9.38	-15.12	-4.06
19612	-0.977	0.041	-0.054	-10.99	-11.69	-4.69
19633	-0.98	0.039	-0.04	-11.2	-9.52	-3.78
19651	-1.01	0.014	-0.018	-10.5	-11.34	-1.89
19671	-1.017	-0.004	-0.032	-10.92	-12.88	-1.12
19691	-1.028	0.009	-0.054	-9.45	-12.81	-3.64
19714	-1.013	0.046	-0.072	-8.47	-10.15	-5.11
19736	-1.001	0.037	-0.043	-11.48	-10.78	-5.74
19754	-1.015	0.032	-0.075	-14.42	-14.21	-7.42
19775	-1.018	0.028	-0.126	-12.11	-18.48	-8.19
19794	-0.998	0.028	-0.146	-7.77	-17.5	-6.86
19811	-0.959	0.008	-0.117	-3.64	-13.72	-5.18
19835	-0.965	-0.025	-0.092	-2.73	-13.09	-1.47
19855	-0.983	-0.007	-0.121	-0.84	-8.75	0.07
19872	-0.955	0.01	-0.096	1.75	-2.03	0.7
19891	-0.983	0.025	-0.014	5.25	2.8	1.4
19913	-1.038	-0.011	0.022	4.2	2.8	2.17
19933	-1.042	-0.027	0.01	-0.63	2.24	0.56
19952	-1.036	0.012	0.012	-1.33	2.87	-1.12
19977	-1.045	0.032	0.028	1.89	3.71	0.35
19992	-1.031	0.027	0.047	1.96	3.85	1.33
20016	-1.005	0.029	0.035	1.61	2.59	1.96
20036	-0.96	0.025	-0.007	0.63	4.76	1.96
20060	-0.97	0.036	-0.045	1.82	6.65	1.68
20081	-0.975	0.039	-0.041	0.14	6.3	1.4
20099	-0.962	0.047	-0.035	-0.56	9.8	1.05
20120	-1.033	0.036	-0.028	0.56	9.52	1.47
20139	-1.064	0.012	-0.078	1.33	5.95	1.89
20160	-1.058	0.013	-0.071	2.59	10.36	2.94
20180	-1.085	-0.001	-0.014	3.22	8.82	2.52
20200	-1.089	-0.024	-0.022	4.13	1.05	1.19
20220	-1.042	-0.018	-0.071	5.95	-2.45	-0.14
20240	-1.017	-0.003	-0.096	9.94	-2.45	-1.26
20261	-1.004	0.014	-0.083	13.44	-2.38	-0.63
20280	-0.976	0.011	-0.053	14.35	-1.82	0.07
20300	-0.938	0.017	-0.065	13.51	-0.49	1.12
20320	-0.945	0.02	-0.081	14.42	1.96	1.05
20340	-0.961	0.035	-0.064	12.88	2.87	0.35
20364	-0.977	0.06	-0.064	10.22	2.31	-2.1
20381	-0.979	0.079	-0.05	7.98	5.74	-3.01
20404	-0.996	0.065	-0.02	6.23	10.43	-3.43
20426	-1.016	0.015	0.001	5.32	11.27	-4.34
20445	-1.012	-0.009	0.001	4.9	11.83	-4.48
20465	-1.014	0.015	-0.01	3.78	16.1	-4.41
20484	-1.026	0.03	0.059	4.55	17.92	-4.55
20509	-1.024	0.001	0.086	7.42	11.62	-2.31
20529	-1.004	-0.031	-0.005	9.94	8.82	-1.26
20549	-1.015	0.0	-0.043	8.61	10.71	-2.66
20568	-0.951	0.07	-0.084	5.11	15.33	-3.85
20587	-0.903	0.108	-0.039	-2.8	28.77	-5.6
20611	-0.95	0.062	0.047	-9.1	33.6	-3.85
20631	-1.016	0.002	0.001	-10.01	29.82	-3.15
20653	-0.927	0.013	-0.157	-11.13	29.54	-0.7
20675	-0.888	-0.002	-0.228	-7.28	42.7	4.48
20696	-0.994	-0.021	-0.185	0.98	49.28	10.22
20715	-1.146	-0.127	-0.167	16.59	46.76	10.71
20739	-1.222	-0.163	-0.195	21.91	29.89	8.68
20759	-1.108	-0.11	-0.251	14.98	18.55	1.12
20778	-0.968	0.01	-0.291	9.66	17.29	-7.28
20803	-0.888	0.114	-0.272	3.15	17.29	-8.96
20823	-0.863	0.128	-0.269	0.28	13.72	-7.91
20843	-0.903	0.111	-0.302	-3.36	11.62	-6.72
20859	-0.957	0.113	-0.286	-8.05	7.91	-5.25
20884	-1.012	0.09	-0.269	-12.46	-0.63	-4.62
20904	-1.001	0.065	-0.264	-16.52	-5.95	-3.01
20923	-1.002	0.042	-0.239	-17.92	-7.7	-0.7
20942	-1.007	0.02	-0.221	-16.38	-9.94	-0.7
20962	-1.016	0.011	-0.204	-12.46	-13.51	-2.1
20986	-1.03	0.041	-0.17	-11.9	-15.4	-4.13
21006	-1.079	0.076	-0.123	-10.85	-18.9	-4.48
21030	-1.092	0.094	-0.114	-7.07	-23.03	-4.06
21050	-1.089	0.067	-0.095	-3.01	-25.06	-4.55
21068	-1.044	0.027	-0.097	-1.96	-26.25	-6.02
21088	-0.985	0.012	-0.118	0.07	-24.64	-9.03
21112	-0.958	0.021	-0.129	3.36	-19.67	-10.99
21137	-0.91	0.03	-0.115	6.65	-13.51	-12.32
21156	-0.918	0.029	-0.102	12.74	-12.67	-13.79
21174	-0.943	0.018	-0.094	20.86	-11.76	-13.51
21194	-0.983	0.069	-0.124	29.26	-8.82	-5.32
21217	-0.981	-0.057	-0.153	32.27	-8.68	-9.24
21238	-1.038	0.025	-0.192	41.93	3.78	-4.69
21259	-1.098	0.095	-0.159	33.53	3.22	-1.47
21278	-1.011	0.139	-0.116	22.82	14.42	-0.84
21296	-0.95	0.199	-0.086	14.56	22.82	-1.54
21319	-0.927	0.256	-0.083	13.44	24.43	-1.33
21340	-0.872	0.313	-0.107	19.39	21.98	2.52
21364	-0.822	0.212	-0.169	21.7	21.91	9.45
21383	-0.787	0.044	-0.222	17.22	29.82	8.82
21403	-0.828	-0.013	-0.238	12.95	45.71	6.65
21427	-0.873	-0.127	-0.245	13.3	50.05	-4.48
21447	-0.84	-0.129	-0.22	11.48	40.53	-6.09
21467	-0.816	-0.197	-0.264	13.93	37.59	-5.74
21485	-0.813	-0.279	-0.295	15.4	44.52	-5.53
21509	-0.89	-0.357	-0.281	13.09	48.37	-10.43
21529	-1.057	-0.32	-0.364	0.7	52.15	-17.01
21547	-1.183	-0.183	-0.365	-6.16	53.06	-22.54
21565	-1.153	-0.052	-0.295	-8.26	53.27	-23.24
21585	-1.042	0.009	-0.254	-7.63	48.51	-20.51
21607	-0.96	-0.08	-0.284	-12.32	41.65	-11.48
21627	-0.922	-0.251	-0.38	-14.14	39.83	-8.4
21650	-0.958	-0.303	-0.46	-17.08	47.25	-7.14
21670	-0.956	-0.305	-0.5	-21.07	56.84	-6.58
21690	-0.852	-0.225	-0.476	-26.04	61.6	-7.7
21710	-0.7	-0.159	-0.457	-37.52	68.53	-7.84
21734	-0.524	-0.111	-0.426	-50.19	75.04	-6.23
21754	-0.448	-0.113	-0.442	-54.04	77.28	-5.53
21774	-0.397	-0.112	-0.486	-55.51	80.22	-5.39
21794	-0.368	-0.054	-0.569	-53.62	94.01	-4.62
21814	-0.361	-0.031	-0.364	-41.51	104.58	2.73
21834	-0.384	-0.067	-0.245	-13.51	95.76	6.23
21858	-0.396	0.015	-0.382	9.59	82.39	7.63
21877	-0.41	0.075	-0.439	15.89	85.19	7.98
21901	-0.451	0.118	-0.394	11.76	86.73	10.08
21922	-0.457	0.156	-0.481	10.36	83.72	12.46
21941	-0.473	0.17	-0.536	10.78	84.7	16.24
21961	-0.529	0.155	-0.453	-0.28	81.62	18.13
21982	-0.553	0.148	-0.5	-3.08	71.19	16.59
21999	-0.479	0.17	-0.616	-5.32	59.85	12.81
22021	-0.39	0.21	-0.622	-7.0	52.15	7.77
22045	-0.386	0.242	-0.58	-11.69	48.44	8.61
22064	-0.46	0.125	-0.647	-8.82	39.34	13.02
22085	-0.604	-0.035	-0.643	8.96	2.1	20.72
22102	-0.663	-0.034	-0.696	13.58	-23.03	24.5
22121	-0.72	0.107	-0.577	7.28	-55.86	30.52
22143	-0.762	0.108	-0.701	-2.8	-67.76	34.23
22162	-0.81	0.084	-0.819	4.76	-64.75	24.15
22182	-0.849	0.183	-0.732	-2.87	-35.56	11.69
22206	-0.895	0.173	-0.66	-10.78	-34.65	-1.05
22225	-0.909	0.006	-0.679	-34.86	-58.03	-7.49
22249	-0.915	-0.063	-0.993	-2.1	-10.15	-0.28
22268	-0.619	0.072	-0.972	-12.39	56.84	13.51
22289	-0.695	0.058	-0.971	-16.45	65.24	-2.45
22311	-0.825	-0.07	-1.094	1.33	54.39	-24.01
22333	-0.754	0.059	-1.278	13.72	62.16	-14.98
22354	-0.778	0.325	-1.221	-4.62	63.7	-7.42
22373	-0.769	0.185	-1.104	16.1	68.18	-8.47
22393	-0.752	0.049	-1.278	25.48	62.44	-14.84
22413	-0.605	-0.034	-1.424	3.22	38.71	-15.26
22433	-0.63	0.003	-1.372	-6.23	17.78	-10.64
22454	-0.673	0.072	-1.329	9.17	22.75	-3.43
22478	-0.605	0.087	-1.38	1.61	14.07	-1.05
22497	-0.614	0.098	-1.369	-5.04	-4.55	-3.36
22517	-0.643	0.067	-1.246	-5.25	-15.12	-5.18
22541	-0.618	0.062	-1.321	-8.12	-15.96	-3.22
22561	-0.579	0.104	-1.403	-9.1	-16.38	-1.47
22581	-0.605	0.071	-1.339	-10.36	-23.87	-2.52
22602	-0.664	0.092	-1.305	-6.58	-29.96	-4.34
22625	-0.676	0.06	-1.299	-2.17	-37.45	-9.8
22650	-0.741	0.046	-1.228	1.33	-57.33	-12.95
22667	-0.785	0.103	-1.171	-12.39	-90.93	-1.33
22689	-0.983	0.208	-1.003	20.3	-58.59	7.77
22709	-0.847	0.685	-0.977	12.88	-100.66	-0.49
22733	-1.022	-0.016	-1.023	8.4	-134.4	-6.37
22753	-0.853	0.169	-0.998	1.4	-42.14	4.55
22770	-0.802	0.114	-0.956	-11.97	-4.2	4.83
22794	-0.858	0.039	-0.891	-13.58	19.6	-1.82
22814	-0.904	-0.072	-0.856	-4.83	37.17	-12.18
22837	-0.774	0.253	-0.664	-13.79	38.5	-23.87
22857	-0.796	0.325	-0.717	-18.97	0.98	-3.29
22880	-0.684	0.071	-0.832	-5.6	-28.98	1.4
22898	-0.682	0.001	-0.78	1.19	-27.65	0.28
22922	-0.717	0.011	-0.83	-1.19	-28.0	1.54
22943	-0.744	0.1	-0.754	-0.56	-29.47	3.22
22961	-0.854	0.016	-0.651	1.75	-30.73	3.29
22978	-0.844	-0.005	-0.598	4.55	-37.66	1.19
22997	-0.77	0.035	-0.555	5.11	-41.58	-1.05
23022	-0.721	0.075	-0.52	4.83	-52.22	-3.01
23042	-0.699	0.094	-0.538	5.46	-56.7	-1.82
23063	-0.671	0.097	-0.521	5.88	-60.55	-0.49
23081	-0.633	0.103	-0.514	4.69	-62.86	0.07
23101	-0.606	0.095	-0.513	3.85	-63.56	0.49
23121	-0.596	0.068	-0.508	4.2	-63.63	0.77
23145	-0.572	0.04	-0.449	7.35	-61.46	1.26
23165	-0.556	0.027	-0.395	10.85	-65.03	1.82
23185	-0.541	0.034	-0.407	16.73	-68.74	3.29
23209	-0.523	0.045	-0.375	21.7	-67.69	3.57
23225	-0.532	0.068	-0.346	23.24	-66.71	3.78
23246	-0.533	0.083	-0.298	22.19	-65.45	3.64
23265	-0.533	0.105	-0.274	16.45	-65.31	2.03
23289	-0.569	0.134	-0.272	8.75	-65.31	-0.63
23310	-0.675	0.109	-0.252	2.17	-71.26	-2.45
23329	-0.753	0.063	-0.296	0.77	-86.59	-2.38
23347	-0.731	0.009	-0.321	1.12	-95.13	-0.91
23371	-0.64	-0.026	-0.374	5.18	-101.57	-1.89
23391	-0.56	-0.021	-0.393	9.03	-92.05	-4.27
23412	-0.552	0.019	-0.305	9.59	-81.06	-4.13
23430	-0.589	0.062	-0.263	9.66	-79.8	-3.22
23454	-0.614	0.057	-0.307	7.21	-77.07	-2.94
23470	-0.702	0.035	-0.346	3.15	-59.92	-2.52
23490	-0.837	0.016	-0.302	-2.87	-46.27	-2.31
23514	-1.015	-0.019	-0.224	-6.79	-42.14	-7.14
23531	-1.057	-0.041	-0.218	-1.68	-45.71	-11.06
23554	-1.019	0.001	-0.22	-0.91	-39.2	-10.57
23577	-1.0	-0.007	-0.211	-3.5	-28.91	-9.24
23594	-1.022	-0.009	-0.188	-6.51	-25.76	-8.54
23617	-0.975	-0.009	-0.191	-6.93	-25.69	-7.56
23637	-0.948	-0.002	-0.171	-3.64	-22.05	-5.32
23661	-0.979	-0.023	-0.148	1.19	-14.98	-2.24
23681	-1.008	-0.047	-0.166	4.76	-8.89	-1.47
23701	-0.98	-0.048	-0.133	9.24	-5.11	-1.96
23719	-0.956	-0.007	-0.085	12.04	-5.04	0.07
23743	-0.937	-0.012	-0.085	12.11	-3.57	1.05
23763	-0.947	-0.001	-0.066	10.22	-3.15	0.77
23784	-0.956	0.013	-0.086	6.58	-3.08	0.42
23803	-0.972	0.025	-0.128	3.99	0.28	-0.49
23822	-0.992	0.03	-0.116	2.87	3.78	-0.63
23842	-1.018	0.016	-0.069	2.03	5.88	-0.35
23860	-1.048	0.009	-0.039	1.19	4.06	-0.84
23884	-1.062	0.027	-0.1	0.56	6.37	-0.21
23904	-1.013	0.028	-0.21	-0.91	17.29	0.98
23924	-0.926	-0.025	-0.279	-2.31	34.02	1.61
23943	-0.849	-0.053	-0.3	-3.15	50.68	2.59
23968	-0.786	-0.066	-0.306	1.61	71.89	3.92
23988	-0.771	-0.112	-0.245	6.09	85.68	2.1
24008	-0.745	-0.1	-0.164	9.03	90.09	-0.42
24029	-0.706	-0.039	-0.126	6.65	87.29	-0.98
24046	-0.685	-0.009	-0.168	3.5	86.45	-3.64
24067	-0.66	0.02	-0.255	-0.49	88.76	-6.65
24088	-0.605	0.039	-0.323	-3.92	95.41	-8.05
24105	-0.554	0.061	-0.345	-8.61	107.45	-7.35
24128	-0.534	0.072	-0.332	-10.36	114.73	-6.02
24148	-0.518	0.07	-0.299	-9.17	114.52	-3.64
24168	-0.477	0.024	-0.27	-7.28	108.43	-1.61
24188	-0.44	-0.012	-0.275	-6.58	96.88	-1.47
24212	-0.426	0.008	-0.341	-8.75	84.98	-2.03
24232	-0.38	0.037	-0.447	-10.5	87.15	-3.29
24252	-0.405	0.071	-0.417	-10.08	96.11	-3.85
24268	-0.513	0.049	-0.361	-5.88	92.47	-3.78
24291	-0.57	0.045	-0.415	-6.02	84.42	-2.66
24311	-0.64	0.011	-0.455	-5.11	77.63	-1.26
24335	-0.693	-0.008	-0.525	-3.08	67.34	0.49
24355	-0.694	-0.023	-0.584	-1.26	66.78	-0.21
24375	-0.681	0.001	-0.568	4.34	67.41	-0.42
24395	-0.712	0.029	-0.525	5.25	58.8	1.05
24414	-0.758	0.014	-0.534	8.47	48.65	-1.12
24438	-0.87	0.034	-0.45	8.68	28.56	-6.58
24460	-0.901	0.048	-0.467	7.21	-4.76	-10.57
24482	-0.744	0.031	-0.737	11.06	-26.74	-11.55
24502	-0.622	0.017	-0.903	11.06	-17.64	-10.01
24521	-0.632	0.051	-0.823	11.55	0.56	-10.5
24546	-0.771	0.027	-0.602	17.64	-65.8	-5.53
24565	-0.743	0.039	-0.614	7.56	-78.96	-4.2
24586	-0.848	0.011	-0.776	0.35	-86.87	18.06
24605	-0.937	-0.183	-0.755	-2.38	-54.39	25.62
24630	-0.987	0.292	-0.724	-31.43	-34.72	30.66
24650	-1.015	-0.651	-1.367	-46.06	34.37	50.96
24669	-0.842	0.499	-1.207	-31.29	71.12	42.7
24690	-0.982	0.202	-1.188	-28.0	99.61	35.42
24713	-1.022	-0.041	-1.204	-18.62	98.56	6.44
24734	-1.094	0.15	-1.223	-20.09	79.38	-6.37
24754	-1.008	0.001	-1.397	-12.95	47.74	-15.33
24774	-0.937	-0.026	-1.398	-7.28	17.85	-12.81
24792	-0.952	0.111	-1.442	-7.0	-1.82	-2.73
24815	-0.899	0.174	-1.42	-6.93	-14.49	1.05
24835	-0.851	0.077	-1.247	-3.5	-26.46	-5.04
24856	-0.785	0.029	-1.242	-0.56	-12.46	-2.73
24871	-0.731	0.101	-1.33	2.1	-4.69	0.42
24891	-0.707	0.118	-1.269	5.11	4.13	1.19
24917	-0.735	0.05	-1.159	11.13	1.68	-7.07
24936	-0.797	0.088	-1.134	7.21	-3.85	-6.37
24954	-0.859	0.176	-1.102	6.3	-13.16	-10.36
24974	-0.997	0.081	-1.166	7.84	-31.5	-22.26
24996	-0.897	0.239	-1.088	5.81	-60.06	-36.89
25020	-0.907	0.045	-1.089	14.28	-62.3	-28.21
25040	-0.914	0.067	-1.081	5.32	-52.64	-11.13
25060	-0.937	0.028	-1.05	-2.03	-24.01	1.75
25076	-0.922	0.103	-1.001	2.1	6.44	-3.01
25095	-0.838	-0.05	-0.942	-9.03	29.96	-9.59
25120	-0.878	0.0	-0.756	-3.78	36.26	-1.61
25138	-0.852	0.026	-0.739	-4.97	28.56	5.53
25158	-0.785	0.11	-0.692	5.39	10.64	10.85
25178	-0.723	-0.01	-0.73	8.96	-6.3	9.52
25202	-0.678	-0.068	-0.804	11.13	-13.58	3.78
25222	-0.669	-0.012	-0.759	10.64	-14.07	2.52
25242	-0.709	0.051	-0.747	9.03	-17.71	5.46
25262	-0.755	0.098	-0.725	7.7	-23.03	8.12
25286	-0.764	0.104	-0.705	7.21	-25.27	8.12
25306	-0.741	0.08	-0.592	4.97	-29.82	7.49
25325	-0.709	0.018	-0.539	4.69	-37.66	7.21
25345	-0.702	0.003	-0.535	5.32	-46.76	7.07
25365	-0.673	0.011	-0.538	8.05	-54.74	6.65
25388	-0.67	0.06	-0.544	11.2	-66.43	7.98
25409	-0.651	0.121	-0.602	16.87	-71.68	11.69
25428	-0.617	0.094	-0.584	16.24	-68.25	13.51
25451	-0.623	0.051	-0.452	17.22	-67.34	14.56
25469	-0.601	-0.009	-0.426	21.91	-74.2	12.46
25493	-0.575	-0.023	-0.417	27.44	-74.13	9.38
25513	-0.637	-0.005	-0.375	34.37	-73.01	12.39
25534	-0.666	-0.011	-0.333	41.44	-79.94	16.94
25553	-0.634	-0.066	-0.331	41.93	-86.87	18.97
25569	-0.515	-0.1	-0.343	42.7	-87.78	19.39
25589	-0.418	-0.093	-0.285	47.95	-81.62	17.5
25609	-0.35	-0.067	-0.23	58.45	-72.24	13.86
25633	-0.348	0.041	-0.226	62.51	-71.33	10.64
25653	-0.394	0.122	-0.329	51.94	-65.52	12.81
25671	-0.436	0.167	-0.369	43.26	-50.96	16.24
25695	-0.545	0.128	-0.305	38.92	-38.64	14.42
25714	-0.678	0.129	-0.263	36.82	-40.25	11.62
25733	-0.839	0.167	-0.263	32.13	-47.6	12.04
25758	-0.913	0.106	-0.323	27.44	-52.64	17.85
25778	-0.824	-0.042	-0.411	25.2	-51.94	20.02
25802	-0.824	-0.122	-0.407	23.94	-47.11	22.61
25817	-0.885	-0.168	-0.436	29.33	-44.17	20.37
25841	-0.981	-0.079	-0.31	40.25	-38.43	14.42
25857	-1.041	-0.03	-0.259	44.03	-39.41	12.25
25883	-1.034	-0.001	-0.229	40.74	-36.96	8.82
25902	-0.983	0.003	-0.23	36.19	-31.92	6.51
25922	-0.971	0.009	-0.211	35.14	-30.73	1.96
25938	-0.93	0.04	-0.265	35.63	-27.86	-2.52
25962	-0.865	0.101	-0.237	30.87	-13.02	-6.3
25982	-0.894	0.136	-0.163	24.22	-6.37	-6.51
26002	-0.973	0.116	-0.061	21.49	-7.35	-3.85
26022	-1.004	0.078	-0.073	18.55	-15.89	-0.07
26046	-0.989	0.02	-0.204	18.27	-16.87	1.33
26061	-0.992	0.052	-0.211	18.13	-10.5	2.52
26086	-0.977	0.066	-0.188	16.31	-8.54	3.78
26106	-0.976	0.093	-0.176	9.45	-7.35	3.57
26126	-0.99	0.089	-0.169	3.08	-4.13	2.73
26145	-1.018	0.06	-0.184	0.28	-5.39	3.08
26164	-0.991	0.038	-0.258	-2.17	-1.12	3.22
26189	-0.985	0.011	-0.195	-6.86	8.68	1.68
26207	-1.019	-0.015	-0.176	-6.02	7.56	0.21
26232	-1.006	-0.011	-0.163	-5.39	4.83	-1.47
26251	-0.958	-0.009	-0.189	-6.72	8.96	-2.03
26271	-0.98	0.007	-0.223	-6.3	8.05	-3.22
26291	-0.995	0.017	-0.186	-8.33	9.45	-5.6
26307	-1.011	0.018	-0.12	-9.1	8.61	-5.88
26329	-1.01	0.026	-0.096	-7.98	3.85	-4.41
26349	-1.021	0.008	-0.132	-4.62	0.14	-3.57
26374	-0.979	0.007	-0.195	-3.57	-0.07	-5.18
26392	-0.966	0.004	-0.183	-4.69	0.63	-5.95
26413	-0.959	0.037	-0.179	-4.13	0.28	-5.46
26437	-0.957	0.051	-0.186	-3.78	1.89	-4.34
26457	-0.951	0.062	-0.204	-4.62	7.28	-3.57
26477	-0.984	0.047	-0.206	-7.63	10.36	-3.57
26495	-0.994	0.02	-0.188	-10.43	10.64	-4.76
26517	-0.966	0.011	-0.187	-13.23	10.78	-6.44
26537	-0.944	0.03	-0.243	-14.21	14.07	-6.44
26561	-0.968	0.034	-0.224	-14.84	19.04	-4.27
26581	-0.984	-0.001	-0.191	-15.12	18.97	-4.83
26601	-0.955	-0.002	-0.201	-17.92	17.01	-7.42
26621	-0.921	0.02	-0.221	-22.4	16.24	-8.68
26638	-0.908	0.049	-0.252	-23.94	18.41	-7.84
26662	-0.908	0.033	-0.27	-25.06	22.68	-5.25
26682	-0.872	-0.004	-0.309	-27.51	31.5	-5.04
26702	-0.853	-0.018	-0.29	-30.24	39.48	-4.97
26722	-0.854	-0.022	-0.275	-28.42	44.38	-4.48
26741	-0.829	0.027	-0.335	-26.32	47.18	-4.83
26760	-0.752	0.041	-0.36	-27.65	57.4	-6.37
26784	-0.683	0.044	-0.356	-32.55	71.47	-9.87
26805	-0.658	0.057	-0.343	-37.73	80.78	-13.44
26821	-0.624	0.065	-0.326	-45.71	87.99	-16.1
26841	-0.572	0.061	-0.288	-52.71	83.51	-19.6
26860	-0.501	0.09	-0.372	-58.94	75.04	-23.66
26885	-0.45	0.14	-0.49	-61.32	82.32	-28.49
26900	-0.533	0.174	-0.445	-59.5	89.11	-29.96
26924	-0.596	0.079	-0.34	-50.89	83.51	-28.84
26947	-0.528	-0.05	-0.349	-47.74	74.41	-25.06
26966	-0.445	-0.159	-0.376	-42.7	73.36	-24.08
26986	-0.412	-0.171	-0.353	-36.47	76.37	-23.66
27006	-0.439	-0.106	-0.291	-27.72	71.68	-23.1
27027	-0.481	-0.044	-0.363	-16.17	53.69	-22.89
27050	-0.472	0.025	-0.528	-9.1	51.87	-23.52
27069	-0.502	0.057	-0.551	-6.09	63.35	-24.36
27085	-0.57	0.039	-0.591	-7.63	70.35	-19.32
27106	-0.654	0.019	-0.562	-11.2	66.85	-13.37
27130	-0.687	0.003	-0.568	-6.51	57.68	-9.31
27150	-0.727	0.074	-0.554	1.68	55.37	-2.31
27167	-0.816	0.153	-0.592	-0.63	47.67	7.35
27191	-0.837	0.104	-0.652	-10.71	43.12	15.89
27210	-0.809	0.126	-0.577	-16.31	33.46	9.1
27234	-0.822	0.128	-0.449	-7.7	4.97	7.98
27254	-0.864	0.073	-0.457	-2.1	-24.22	6.09
27270	-0.792	-0.027	-0.643	0.91	-34.02	-3.64
27293	-0.642	-0.099	-0.839	1.75	-26.74	-15.33
27312	-0.501	-0.014	-0.984	1.05	-12.04	-19.46
27336	-0.514	0.014	-0.93	-0.56	-3.57	-11.34
27355	-0.858	-0.018	-0.903	10.85	-98.14	16.59
27378	-0.794	-0.084	-0.931	2.24	-39.83	14.35
27398	-1.131	0.557	-0.823	-2.59	-47.32	19.88
27419	-1.221	-0.615	-1.469	-46.76	-51.45	3.36
27439	-1.092	0.291	-0.824	-18.76	-38.57	4.48
27459	-1.058	0.135	-0.817	-16.59	-66.43	0.21
27479	-0.976	0.005	-0.994	-18.13	-58.24	-13.65
27499	-0.956	0.107	-0.978	-23.59	-38.85	-33.25
27518	-0.922	0.212	-0.982	-33.6	-13.72	-16.45
27534	-1.035	-0.005	-1.034	-34.86	-24.78	-3.08
27559	-1.044	-0.186	-1.083	-31.64	-4.83	-0.63
27579	-1.032	0.126	-0.941	-22.19	-3.08	3.5
27599	-1.101	0.194	-0.983	-6.09	-7.35	4.27
27618	-1.099	0.171	-1.088	3.15	-7.14	1.68
27638	-1.047	0.136	-1.139	5.88	5.18	-1.89
27662	-1.047	0.106	-1.011	8.54	5.67	-4.76
27686	-1.08	0.104	-1.101	13.44	-4.83	-7.28
27706	-1.018	0.1	-1.123	15.68	-0.77	-11.97
27724	-0.996	0.104	-0.933	19.88	3.22	-13.23
27746	-1.097	0.136	-0.767	22.82	-5.39	-8.12
27762	-1.187	0.088	-0.725	26.11	-21.98	0.28
27783	-1.188	0.113	-0.939	28.14	-25.34	3.29
27801	-1.212	0.078	-0.946	36.54	-8.05	4.13
27826	-1.143	0.164	-0.895	20.65	12.32	0.49
27846	-1.026	0.498	-0.769	1.96	36.54	10.57
27864	-1.104	0.118	-0.833	13.79	52.57	4.76
27886	-1.017	0.141	-0.76	13.58	66.64	1.33
27904	-1.073	0.07	-0.716	8.61	52.08	-1.68
27924	-0.964	-0.025	-0.686	3.57	35.42	-10.29
27944	-0.91	-0.087	-0.739	-1.61	17.85	-30.59
27967	-0.715	0.262	-0.658	-8.33	-13.51	-3.85
27990	-0.698	0.055	-0.826	-6.65	-17.01	-1.05
28011	-0.66	0.186	-0.741	-5.25	-5.74	2.59
28031	-0.754	0.07	-0.744	-0.91	0.35	3.78
28051	-0.836	-0.002	-0.726	-1.19	-1.47	4.9
28071	-0.861	0.148	-0.729	-2.45	-2.94	10.85
28090	-0.854	-0.013	-0.638	0.35	2.59	7.28
28106	-0.792	-0.042	-0.609	1.05	-0.21	6.86
28132	-0.804	-0.026	-0.474	5.95	-19.53	2.1
28150	-0.818	0.006	-0.501	13.58	-36.47	0.28
28173	-0.776	0.021	-0.516	24.92	-48.37	2.03
28194	-0.679	0.039	-0.547	23.73	-50.26	3.92
28214	-0.671	0.044	-0.481	23.1	-52.78	5.39
28238	-0.733	0.017	-0.47	27.51	-62.37	8.89
28258	-0.763	0.022	-0.427	33.18	-67.13	12.39
28277	-0.703	0.031	-0.395	36.61	-72.24	13.58
28301	-0.617	0.017	-0.39	39.97	-75.04	10.57
28320	-0.573	0.025	-0.371	42.77	-74.48	10.22
28341	-0.508	0.019	-0.312	42.21	-75.11	10.99
28362	-0.486	0.035	-0.353	38.85	-76.02	13.09
28378	-0.427	0.079	-0.34	32.27	-74.69	12.6
28402	-0.36	0.055	-0.31	28.56	-76.72	14.63
28420	-0.373	0.013	-0.291	27.37	-79.8	17.92
28440	-0.432	-0.046	-0.293	30.66	-83.86	20.3
28459	-0.497	-0.057	-0.312	33.39	-79.52	19.6
28484	-0.57	-0.077	-0.305	39.13	-73.85	15.12
28504	-0.632	-0.062	-0.281	42.35	-70.14	7.84
28523	-0.663	0.037	-0.293	40.81	-67.69	5.04
28544	-0.681	0.092	-0.268	35.91	-63.56	6.37
28564	-0.714	0.101	-0.255	31.43	-56.7	8.54
28587	-0.751	0.063	-0.248	28.7	-52.43	6.65
28608	-0.79	0.062	-0.27	21.0	-45.36	5.46
28627	-0.905	0.033	-0.227	15.12	-39.9	6.51
28651	-1.014	0.066	-0.2	16.24	-38.01	7.98
28670	-1.086	0.058	-0.15	14.7	-40.18	10.36
28690	-1.123	0.02	-0.16	10.92	-41.02	10.64
28710	-1.088	-0.037	-0.222	9.52	-33.32	7.77
28730	-1.002	-0.033	-0.228	11.13	-18.13	4.97
28754	-0.967	-0.032	-0.182	14.84	-6.65	2.59
28770	-0.989	-0.099	-0.089	17.99	-5.53	-0.21
28789	-0.913	-0.09	-0.061	24.22	-9.94	-2.17
28814	-0.892	-0.035	-0.088	30.52	-5.11	-1.12
28834	-0.923	0.077	-0.067	30.94	-1.33	2.03
28854	-0.942	0.145	-0.118	25.69	3.57	6.02
28873	-0.961	0.136	-0.097	19.81	7.14	7.35
28890	-1.001	0.112	-0.063	13.51	3.64	6.93
28914	-1.06	0.09	-0.031	9.31	-4.55	4.97
28935	-1.089	0.037	-0.094	5.95	-11.55	2.1
28951	-1.07	0.038	-0.149	5.39	-10.22	-0.07
28972	-1.019	0.048	-0.133	5.39	-5.04	-0.98
28991	-1.018	0.044	-0.097	6.16	-3.36	-1.26
29016	-1.02	0.052	-0.046	6.65	-7.35	-2.03
29036	-0.984	0.048	-0.125	5.95	-8.75	-3.43
29060	-0.956	0.076	-0.133	3.71	-1.12	-4.55
29080	-0.958	0.081	-0.074	1.26	2.66	-4.62
29104	-0.99	0.08	-0.069	-0.63	4.9	-3.71
29123	-1.005	0.079	-0.085	-5.04	5.67	-3.43
29144	-0.99	0.047	-0.124	-10.36	9.03	-6.16
29164	-0.938	0.053	-0.241	-19.04	16.8	-9.59
29184	-0.811	0.057	-0.344	-28.77	27.51	-13.23
29202	-0.792	0.075	-0.269	-34.51	47.11	-14.49
29224	-0.901	0.069	-0.147	-38.36	61.32	-13.51
29241	-0.921	0.026	-0.147	-42.42	67.69	-13.16
29263	-0.861	-0.054	-0.141	-44.73	72.45	-15.47
29283	-0.811	-0.102	-0.156	-45.92	70.63	-17.71
29307	-0.773	-0.103	-0.22	-47.11	79.17	-18.27
29325	-0.743	-0.11	-0.237	-47.04	88.62	-17.99
29345	-0.686	-0.094	-0.26	-49.35	95.2	-19.81
29367	-0.595	-0.017	-0.318	-50.47	101.43	-20.51
29389	-0.51	0.058	-0.293	-55.16	105.84	-19.74
29409	-0.443	0.131	-0.184	-63.7	87.64	-19.46
29429	-0.308	0.121	-0.424	-59.85	89.39	-14.91
29453	-0.236	0.047	-0.385	-39.27	95.9	-11.69
29473	-0.351	-0.031	-0.157	-26.04	98.07	-6.37
29492	-0.49	-0.111	-0.179	-17.08	84.91	-3.08
29508	-0.564	-0.085	-0.314	-4.34	78.96	-1.54
29534	-0.618	-0.057	-0.402	7.42	79.52	-1.75
29553	-0.665	-0.047	-0.409	17.36	79.1	-8.96
29573	-0.6	0.05	-0.477	21.28	73.08	-16.52
29590	-0.519	0.101	-0.498	17.15	77.98	-24.36
29614	-0.494	0.162	-0.59	7.07	71.12	-29.12
29634	-0.532	0.211	-0.538	-5.18	76.23	-29.89
29653	-0.583	0.149	-0.561	-10.78	72.45	-26.25
29672	-0.709	0.169	-0.545	-14.49	54.11	-18.69
29698	-0.833	0.09	-0.544	-20.58	35.91	-16.45
29718	-0.87	0.041	-0.552	-23.8	26.81	-10.71
29737	-0.885	0.03	-0.557	-26.25	13.16	-6.86
29758	-0.894	0.06	-0.532	-18.9	-5.67	-2.52
29777	-0.907	-0.091	-0.708	-13.58	-23.66	7.56
29797	-0.95	-0.32	-0.737	3.43	-44.66	6.79
29815	-0.931	-0.295	-0.672	15.26	-71.47	-7.42
29838	-0.936	-0.137	-0.814	15.05	-72.24	-12.53
29859	-0.851	0.183	-0.949	9.73	-71.75	0.14
29878	-0.873	0.042	-1.364	-46.76	-65.17	14.21
29898	-1.034	0.23	-1.033	0.14	-30.1	11.2
29922	-0.966	0.168	-0.893	-17.36	-28.7	34.79
29943	-1.68	-0.223	-0.564	34.51	-238.42	-37.24
29962	-0.799	-0.015	-1.046	-47.11	17.36	-11.83
29982	-1.111	0.033	-0.902	-17.5	-48.16	13.65
29999	-1.045	-0.149	-1.071	-14.7	-19.67	4.06
30021	-1.009	-0.146	-0.844	-5.74	18.06	4.76
30045	-0.935	0.063	-0.771	-7.49	31.36	2.66
30064	-0.967	0.269	-0.733	-11.2	32.55	-7.63
30084	-0.979	0.194	-0.876	-3.71	22.47	-14.7
30105	-1.104	0.143	-0.803	-5.11	7.98	-12.95
30129	-1.272	-0.002	-1.119	-10.01	-8.19	-13.44
30150	-1.296	0.198	-1.164	-16.38	-22.19	-14.28
30167	-1.303	0.136	-1.152	-17.01	-39.9	-13.65
30189	-1.031	-0.012	-1.062	-22.12	-44.38	-7.42
30210	-1.009	-0.035	-1.013	-17.22	-44.73	2.17
30229	-1.006	0.006	-1.113	-5.04	-35.84	4.55
30246	-0.966	0.048	-1.047	7.77	-21.84	4.2
30270	-0.994	0.094	-0.9	12.53	-17.15	4.83
30290	-1.03	0.076	-0.865	11.06	-15.26	2.1
30309	-1.118	-0.01	-0.892	15.75	-19.67	-0.84
30329	-1.09	0.056	-0.974	10.57	-11.55	0.49
30348	-1.11	0.179	-0.935	7.35	-18.83	3.64
30371	-1.118	0.061	-0.784	9.24	-5.32	-0.14
30396	-1.157	0.025	-0.806	3.64	16.94	-0.77
30414	-1.18	0.179	-0.771	2.59	27.51	13.44
30434	-1.149	0.08	-0.749	0.49	50.12	8.12
30453	-1.092	0.052	-0.706	-1.05	72.52	12.53
30478	-1.003	0.006	-0.671	-2.03	69.58	9.59
30494	-1.01	-0.027	-0.632	1.47	38.5	9.45
30517	-0.892	-0.08	-0.678	-1.19	27.65	2.59
30537	-0.782	-0.118	-0.76	2.03	30.94	-13.93
30557	-0.774	-0.048	-0.716	5.6	45.85	-40.11
30581	-0.724	0.141	-0.482	2.59	11.48	-13.09
30601	-0.754	0.134	-0.637	4.55	-3.92	-5.32
30625	-0.842	0.095	-0.753	6.3	-4.69	-3.22
30644	-0.862	0.117	-0.693	3.36	-4.62	1.61
30663	-0.894	0.006	-0.653	-0.98	-2.24	-2.38
30687	-0.88	0.014	-0.573	-1.54	-8.68	-1.54
30705	-0.803	0.014	-0.503	-0.7	-14.0	-2.59
30726	-0.721	0.015	-0.475	2.59	-22.19	-4.97
30750	-0.657	0.012	-0.458	4.48	-28.49	-6.44
30769	-0.609	0.031	-0.429	5.18	-31.43	-5.32
30787	-0.615	0.026	-0.378	7.7	-34.16	-2.31
30807	-0.64	0.027	-0.374	11.06	-39.55	-0.42
30831	-0.674	0.029	-0.391	12.6	-44.45	-1.82
30851	-0.66	0.03	-0.332	9.59	-51.73	-3.29
30867	-0.587	0.033	-0.28	5.74	-58.94	-3.08
30887	-0.535	0.014	-0.275	5.88	-72.17	-3.29
30912	-0.446	0.033	-0.3	9.73	-76.44	-1.47
30931	-0.411	0.027	-0.261	9.1	-74.48	2.1
30949	-0.431	0.002	-0.215	4.41	-77.7	3.57
30973	-0.482	-0.008	-0.181	2.24	-98.77	5.25
30989	-0.481	0.024	-0.261	5.18	-109.97	6.16
31012	-0.445	0.08	-0.448	5.39	-93.66	3.36
31035	-0.494	0.104	-0.441	4.62	-71.82	0.56
31055	-0.55	0.115	-0.375	4.76	-62.16	1.33
31074	-0.635	0.062	-0.297	-0.98	-57.19	4.27
31094	-0.809	0.004	-0.262	-6.51	-56.42	2.87
31113	-0.895	0.037	-0.3	-11.48	-52.85	3.08
31133	-0.921	0.031	-0.351	-13.16	-44.1	-1.05
31153	-0.981	-0.011	-0.318	-12.04	-38.85	-3.29
31177	-1.0	-0.025	-0.282	-8.54	-41.44	-6.37
31194	-0.955	-0.031	-0.304	-4.83	-38.5	-4.83
31218	-0.887	0.012	-0.228	-2.24	-31.57	-1.12
31238	-0.841	0.062	-0.177	0.77	-33.32	0.42
31258	-0.787	0.143	-0.174	-0.21	-33.95	2.1
31278	-0.793	0.167	-0.186	-5.25	-35.56	5.11
31297	-0.871	0.064	-0.266	-8.12	-34.02	8.82
31321	-1.056	-0.059	-0.328	-13.93	-14.84	1.61
31341	-1.202	-0.093	-0.296	-17.43	4.83	-4.69
31362	-1.163	-0.022	-0.248	-4.2	-5.11	-4.13
31383	-1.025	0.038	-0.202	7.98	-6.44	-1.4
31402	-0.977	0.051	-0.16	10.43	-13.51	0.21
31423	-0.943	0.02	-0.173	8.68	-15.68	0.42
31443	-0.953	0.012	-0.154	6.44	-14.77	-0.35
31462	-0.935	0.034	-0.148	7.63	-13.79	-1.05
31486	-0.909	0.047	-0.165	9.94	-10.22	-0.14
31502	-0.896	0.034	-0.191	10.15	-5.11	0.63
31527	-0.924	0.009	-0.228	9.94	7.0	1.05
31547	-1.003	0.035	-0.21	10.43	15.33	0.98
31567	-1.049	0.059	-0.154	8.82	14.21	1.26
31585	-1.041	0.06	-0.13	7.91	10.43	1.26
31609	-1.035	0.039	-0.097	7.84	4.97	1.61
31629	-1.008	0.017	-0.104	8.4	0.07	0.91
31647	-0.998	0.027	-0.139	6.86	-1.47	0.35
31666	-0.976	0.039	-0.175	3.57	2.45	-1.12
31691	-0.957	0.074	-0.165	0.7	6.02	-2.38
31711	-0.917	0.079	-0.208	-1.54	10.5	-3.22
31731	-0.907	0.072	-0.2	-2.94	17.15	-3.78
31751	-0.939	0.067	-0.173	-4.06	25.2	-2.87
31771	-0.987	0.061	-0.174	-5.88	27.02	-1.82
31791	-0.996	0.042	-0.191	-8.05	27.58	-2.52
31811	-0.959	0.023	-0.223	-8.54	28.91	-3.71
31835	-0.901	0.021	-0.271	-8.47	33.88	-5.53
31854	-0.854	0.025	-0.294	-7.21	44.1	-4.69
31879	-0.83	0.008	-0.287	-4.62	54.95	-3.78
31898	-0.797	-0.003	-0.271	-3.22	58.38	-3.08
31922	-0.748	-0.001	-0.281	-3.15	60.76	-3.78
31942	-0.668	0.017	-0.3	-2.59	63.35	-4.06
31962	-0.598	0.02	-0.323	-1.26	67.9	-4.34
31981	-0.53	0.013	-0.331	0.63	71.96	-4.34
31997	-0.488	0.02	-0.351	0.28	79.31	-3.71
32017	-0.489	0.045	-0.333	-2.45	87.92	-2.73
32037	-0.497	0.064	-0.32	-9.45	91.91	-1.96
32061	-0.491	0.03	-0.304	-13.02	89.53	-2.45
32082	-0.493	0.064	-0.346	-12.95	87.78	-4.41
32100	-0.504	0.077	-0.363	-8.68	90.72	-4.41
32124	-0.523	0.037	-0.344	-4.2	86.17	-3.43
32144	-0.515	0.006	-0.352	0.42	77.28	-2.59
32164	-0.502	-0.001	-0.355	3.92	66.92	-0.28
32184	-0.512	-0.017	-0.337	5.81	54.46	-1.47
32202	-0.556	-0.001	-0.399	10.15	43.47	-1.82
32221	-0.565	0.031	-0.51	15.47	40.88	-0.28
32246	-0.599	0.051	-0.542	12.67	42.49	-0.63
32266	-0.669	0.076	-0.578	0.21	44.24	-2.52
32286	-0.724	0.038	-0.555	-4.9	45.15	-2.66
32306	-0.834	0.07	-0.464	-5.81	38.22	-1.33
32322	-0.827	0.075	-0.456	-4.13	27.3	-0.14
32345	-0.761	0.059	-0.624	-1.89	11.9	1.47
32364	-0.713	0.072	-0.699	0.77	9.03	3.08
32387	-0.688	0.051	-0.719	4.06	8.47	3.29
32408	-0.677	0.097	-0.563	0.07	4.76	5.88
32428	-0.693	0.08	-0.499	-7.35	-8.4	6.02
32452	-0.716	-0.069	-0.691	-9.1	-18.83	-1.19
32473	-0.739	-0.091	-0.897	-14.63	-11.9	-5.81
32492	-0.79	-0.051	-0.874	-13.86	-4.27	-7.7
32511	-0.778	0.074	-0.729	8.47	-58.17	-1.19
32532	-0.966	0.159	-0.721	-6.09	-60.41	18.34
32552	-1.084	0.277	-0.778	-24.08	-74.06	16.52
32569	-1.469	0.483	-1.032	9.24	-51.1	-26.18
32588	-1.031	0.258	-1.041	4.41	-12.53	-14.28
32613	-1.094	0.016	-1.025	-3.43	-48.02	-2.17
32631	-1.044	-0.063	-1.109	-15.54	-32.76	-21.35
32655	-1.207	0.178	-1.111	-5.25	-37.24	-5.95
32675	-1.418	0.118	-1.379	-12.67	-19.18	-3.36
32695	-1.468	0.054	-1.389	-7.49	-3.36	-3.43
32710	-1.452	0.047	-1.313	1.12	-4.69	0.07
32732	-1.343	0.06	-1.26	6.16	-11.06	0.49
32752	-1.226	0.085	-1.176	6.02	-6.65	1.19
32773	-1.149	0.147	-1.112	8.12	3.43	3.64
32793	-1.198	0.072	-1.098	9.87	10.85	0.35
32813	-1.154	0.053	-1.066	7.14	25.34	0.56
32837	-1.01	0.983	-0.765	41.02	26.18	20.02
32857	-1.172	0.02	-0.946	8.96	12.25	17.85
32877	-1.127	0.005	-0.958	10.64	13.37	15.47
32900	-1.09	-0.101	-0.944	16.31	23.45	3.64
32921	-1.004	-0.233	-0.873	14.63	42.35	-28.28
32939	-0.874	0.079	-0.582	2.59	3.85	-4.76
32963	-0.815	0.055	-0.776	8.4	-7.21	-1.33
32981	-0.759	0.112	-0.761	7.07	-4.9	-0.91
33000	-0.76	0.061	-0.729	2.59	-2.87	-1.75
33020	-0.776	0.088	-0.693	-2.24	-2.87	-5.46
33043	-0.774	0.088	-0.693	0.21	-10.43	-3.22
33065	-0.763	0.104	-0.643	4.9	-10.08	4.2
33090	-0.75	0.058	-0.641	5.88	-10.64	8.54
33109	-0.823	0.062	-0.708	10.22	-5.04	9.03
33129	-0.858	0.074	-0.647	13.65	-2.31	10.85
33149	-0.777	0.072	-0.542	17.08	-7.56	16.17
33168	-0.779	0.031	-0.517	19.18	-12.81	19.67
33188	-0.806	-0.033	-0.564	22.4	-17.36	24.71
33210	-0.837	-0.062	-0.506	31.15	-20.16	25.13
33230	-0.855	-0.022	-0.449	39.48	-38.15	24.71
33254	-0.752	-0.018	-0.472	45.43	-48.79	24.57
33274	-0.729	0.024	-0.483	50.33	-54.53	24.71
33292	-0.699	0.099	-0.489	51.03	-60.9	24.99
33314	-0.63	0.081	-0.445	46.76	-64.96	25.55
33331	-0.606	0.044	-0.396	45.22	-68.81	23.66
33355	-0.605	0.035	-0.386	41.44	-69.02	16.66
33374	-0.646	0.05	-0.362	38.08	-67.62	10.85
33395	-0.618	0.089	-0.325	35.91	-68.67	6.79
33414	-0.584	0.092	-0.285	35.91	-70.42	6.93
33435	-0.542	0.061	-0.287	35.7	-70.35	8.68
33451	-0.505	0.04	-0.242	33.18	-66.85	9.38
33473	-0.485	0.043	-0.266	34.23	-67.83	9.17
33495	-0.466	0.045	-0.238	31.99	-66.36	11.41
33514	-0.491	-0.005	-0.232	34.65	-68.81	14.84
33533	-0.498	-0.075	-0.245	39.34	-69.02	16.17
33552	-0.496	-0.115	-0.276	41.51	-63.49	13.58
33577	-0.617	-0.1	-0.195	44.52	-53.13	9.03
33596	-0.754	0.02	-0.171	49.98	-54.95	10.22
33617	-0.873	0.04	-0.224	50.26	-60.2	11.41
33637	-0.874	0.011	-0.265	48.02	-57.05	12.04
33657	-0.829	-0.023	-0.309	46.9	-45.64	11.41
33681	-0.844	-0.045	-0.276	48.79	-29.89	10.15
33699	-0.885	-0.028	-0.232	51.03	-29.61	9.38
33723	-0.948	0.01	-0.268	57.68	-25.62	11.48
33742	-1.006	0.042	-0.299	58.59	-25.2	14.42
33763	-1.059	-0.043	-0.224	60.13	-16.24	11.2
33783	-0.987	-0.019	-0.162	59.71	-12.11	6.44
33807	-0.963	0.032	-0.14	56.21	-10.29	3.08
33823	-0.964	0.068	-0.141	53.48	-13.09	3.01
33845	-0.997	0.036	-0.143	50.75	-13.3	3.85
33869	-0.994	-0.017	-0.132	51.45	-12.88	2.45
33889	-0.964	-0.019	-0.135	54.04	-14.35	2.1
33909	-0.936	0.036	-0.185	51.03	-12.39	2.52
33929	-0.957	0.104	-0.203	44.73	-0.49	5.81
33952	-1.025	0.065	-0.16	40.46	5.11	8.54
33973	-1.005	0.034	-0.218	34.93	10.29	6.79
33992	-0.992	0.037	-0.247	31.92	16.17	5.11
34012	-1.0	0.055	-0.265	27.65	25.48	3.5
34033	-1.008	0.055	-0.216	23.38	28.7	2.1
34053	-0.997	0.049	-0.136	17.57	30.45	-0.7
34070	-0.982	0.039	-0.1	9.73	26.67	-2.45
34090	-0.979	0.047	-0.04	0.42	17.08	-5.81
34110	-0.948	0.043	0.02	-12.53	-7.56	-10.36
34134	-0.793	0.063	-0.434	-17.29	-12.81	-11.9
34154	-0.777	0.073	-0.324	-21.63	8.33	-10.01
34172	-1.039	0.049	0.036	-21.0	0.35	-8.19
34191	-1.191	0.008	0.047	-25.62	-19.39	-9.38
34211	-1.193	0.014	-0.099	-31.29	-31.57	-12.25
34234	-1.028	0.014	-0.187	-42.49	-22.19	-14.14
34257	-0.98	-0.0	-0.209	-48.79	-13.51	-15.4
34278	-0.956	0.005	-0.142	-62.58	-6.02	-14.98
34295	-0.934	-0.016	-0.178	-76.37	3.08	-14.84
34319	-0.993	-0.052	-0.064	-90.72	12.25	-17.43
34343	-0.982	-0.041	-0.1	-97.02	12.46	-22.33
34363	-0.889	-0.02	-0.176	-100.73	17.57	-24.99
34383	-0.872	-0.047	-0.168	-110.53	21.56	-27.16
34403	-0.835	-0.03	-0.331	-117.32	12.04	-28.77
34423	-0.687	-0.033	-0.579	-123.34	37.66	-28.56
34439	-0.762	-0.035	-0.224	-131.88	53.9	-26.18
34463	-0.988	-0.087	-0.176	-135.45	50.33	-21.77
34483	-1.017	-0.113	-0.3	-129.78	47.6	-17.92
34502	-0.829	-0.092	-0.423	-129.22	56.42	-19.11
34522	-0.701	-0.037	-0.331	-122.57	72.73	-21.98
34546	-0.649	0.011	-0.316	-108.29	81.69	-21.49
34561	-0.555	0.018	-0.366	-94.22	90.09	-18.69
34586	-0.432	-0.022	-0.362	-70.77	92.54	-16.8
34606	-0.253	-0.085	-0.471	-44.73	107.24	-12.88
34626	-0.221	-0.145	-0.275	-19.81	126.63	-4.48
34646	-0.367	-0.21	-0.281	-7.91	122.57	-2.38
34670	-0.552	-0.152	-0.357	8.75	117.32	1.4
34685	-0.686	-0.088	-0.401	16.24	109.9	1.54
34709	-0.684	-0.017	-0.477	19.04	109.48	-4.69
34727	-0.669	0.13	-0.447	15.96	108.29	-9.45
34749	-0.659	0.21	-0.394	9.59	93.8	-14.07
34768	-0.575	0.248	-0.385	4.97	69.09	-12.74
34792	-0.437	0.21	-0.587	3.01	60.34	-5.32
34812	-0.448	0.118	-0.629	-1.33	63.35	-3.15
34832	-0.588	0.073	-0.497	-2.38	48.02	-4.34
34852	-0.749	0.166	-0.428	-2.66	30.38	-0.42
34872	-0.952	0.139	-0.45	-7.56	13.09	4.55
34891	-0.924	0.023	-0.556	-8.47	4.13	9.52
34915	-0.83	0.017	-0.513	0.77	6.37	15.4
34933	-0.691	-0.163	-0.546	4.13	0.35	13.72
34953	-0.662	-0.063	-0.558	3.29	-0.35	7.56
34972	-0.653	-0.032	-0.575	3.99	-2.73	2.38
34992	-0.689	0.012	-0.588	0.77	-4.48	-1.89
35016	-0.764	0.063	-0.632	7.0	-18.76	3.43
35037	-0.93	-0.057	-0.862	19.67	-34.37	9.94
35058	-0.926	0.091	-0.942	13.65	-38.36	19.46
35076	-0.84	-0.034	-1.029	-2.38	-35.91	12.46
35097	-0.871	-0.061	-1.027	1.68	-39.9	3.43
35117	-0.907	-0.009	-0.998	14.0	-45.01	-2.59
35137	-1.052	0.189	-1.149	-7.07	-56.35	-0.14
35157	-1.215	0.204	-1.325	-39.06	-63.98	-11.41
35174	-1.353	0.155	-1.509	-16.17	-32.62	-7.0
35193	-1.386	0.109	-1.392	-5.46	-24.78	-0.77
35219	-1.36	-0.117	-1.325	-6.72	-23.52	-9.1
35237	-1.322	-0.111	-1.447	0.0	-18.06	-9.03
35258	-1.275	0.085	-1.475	2.59	0.21	-1.4
35279	-1.247	0.113	-1.179	-2.66	3.01	6.58
35298	-1.223	0.108	-1.109	-5.18	-1.4	11.2
35318	-1.164	0.082	-1.157	-6.51	7.07	9.52
35339	-1.14	0.014	-1.096	-5.11	17.92	2.8
35357	-1.146	0.034	-0.969	-1.96	14.98	-2.87
35377	-1.122	0.073	-0.874	-8.19	2.31	-3.85
35401	-1.027	0.11	-0.905	-10.01	-2.31	-4.06
35426	-0.97	0.077	-0.879	-6.09	7.07	-13.44
35445	-0.912	-0.002	-0.859	-7.84	10.43	-22.82
35465	-0.822	0.133	-0.752	-9.31	-10.29	-2.45
35485	-0.756	0.115	-0.76	-10.22	-10.64	1.26
35504	-0.781	-0.0	-0.753	-5.25	-1.54	-1.75
35529	-0.758	0.076	-0.669	1.89	2.59	-0.14
35547	-0.788	0.05	-0.729	5.6	7.49	3.99
35566	-0.795	0.037	-0.782	6.16	20.09	3.78
35591	-0.796	0.014	-0.7	7.35	23.38	-16.87
35611	-0.752	0.061	-0.555	5.32	16.8	2.38
35628	-0.748	0.115	-0.468	5.32	2.31	1.89
35646	-0.839	0.132	-0.423	3.85	-13.51	-0.14
35671	-0.935	0.109	-0.397	5.67	-50.75	-3.08
35691	-0.883	0.102	-0.486	3.22	-68.95	-4.69
35711	-0.758	0.107	-0.568	-1.4	-70.49	-2.87
35730	-0.659	0.104	-0.561	-7.0	-67.41	-2.59
35756	-0.598	0.076	-0.47	-10.15	-64.12	-3.92
35775	-0.586	0.092	-0.359	-10.22	-56.49	-4.13
35795	-0.604	0.094	-0.273	-10.08	-56.98	-2.87
35815	-0.502	0.057	-0.284	-8.61	-64.68	-1.4
35831	-0.42	-0.01	-0.329	-6.86	-63.63	-0.07
35850	-0.372	-0.061	-0.315	-1.05	-58.38	-0.7
35874	-0.386	-0.095	-0.283	5.11	-59.15	-0.21
35895	-0.412	-0.089	-0.274	10.5	-61.6	-0.42
35910	-0.43	-0.058	-0.25	12.39	-61.95	-1.4
35935	-0.459	-0.017	-0.231	13.72	-66.92	-4.76
35955	-0.501	0.046	-0.214	14.14	-76.02	-8.19
35979	-0.519	0.109	-0.206	12.53	-79.66	-12.32
35998	-0.595	0.163	-0.119	9.73	-78.26	-11.27
36022	-0.729	0.198	-0.13	6.23	-84.0	-8.54
36037	-0.797	0.178	-0.279	0.56	-78.05	-5.81
36062	-0.995	0.07	-0.373	-3.43	-67.27	-2.87
36082	-1.142	-0.061	-0.431	-4.62	-64.05	-6.16
36101	-1.076	-0.055	-0.416	-2.24	-60.62	-9.03
36118	-0.994	-0.016	-0.347	-3.36	-53.69	-8.4
36140	-0.92	0.007	-0.298	-7.63	-44.03	-3.92
36157	-0.896	0.036	-0.285	-9.38	-33.74	-0.7
36178	-0.886	0.029	-0.28	-6.44	-26.25	-0.56
36198	-0.91	-0.031	-0.225	-1.96	-17.99	-3.08
36218	-0.962	-0.039	-0.161	3.22	-17.64	-6.09
36242	-0.965	0.021	-0.163	5.04	-21.28	-7.84
36259	-0.942	0.075	-0.164	3.36	-15.47	-6.23
36277	-0.956	0.085	-0.197	4.27	-11.97	-3.5
36300	-0.964	0.073	-0.215	5.11	-7.14	-1.4
36321	-0.999	0.054	-0.159	5.46	-5.53	-0.07
36341	-1.004	0.053	-0.154	4.55	-6.23	0.84
36364	-0.992	0.06	-0.165	2.87	-7.0	1.26
36383	-0.976	0.039	-0.175	0.35	-6.65	2.1
36404	-0.957	-0.012	-0.179	1.26	-3.43	2.8
36428	-0.961	-0.04	-0.18	5.04	3.92	1.75
36444	-0.978	-0.023	-0.176	4.97	9.59	0.07
36465	-0.969	-0.003	-0.175	-0.21	18.69	-1.68
36485	-0.94	-0.013	-0.168	-4.62	25.55	-2.38
36508	-0.884	-0.04	-0.203	-5.46	40.81	-2.03
36529	-0.822	-0.058	-0.239	-4.34	54.81	-1.75
36549	-0.784	-0.058	-0.207	-1.19	68.95	-1.54
36564	-0.749	-0.052	-0.19	-0.42	73.43	-1.54
36589	-0.712	-0.022	-0.192	-6.44	77.42	-2.8
36609	-0.692	0.011	-0.232	-15.05	80.64	-6.79
36628	-0.706	0.051	-0.261	-22.54	84.0	-9.73
36650	-0.732	0.101	-0.294	-26.46	84.77	-11.62
36668	-0.693	0.145	-0.361	-34.23	89.46	-11.13
36688	-0.654	0.163	-0.429	-38.36	102.69	-9.66
36712	-0.636	0.203	-0.412	-30.45	113.47	-7.63
36732	-0.614	0.226	-0.364	-14.63	113.54	-1.96
36749	-0.581	0.139	-0.314	1.54	116.13	4.62
36767	-0.613	0.044	-0.234	10.92	108.78	12.39
36791	-0.555	-0.012	-0.316	17.36	101.64	16.03
36813	-0.458	-0.021	-0.268	26.81	103.6	18.62
36832	-0.458	-0.09	-0.303	28.42	86.38	18.83
36857	-0.387	-0.012	-0.463	30.45	80.43	19.04
36873	-0.414	0.06	-0.381	33.18	84.14	14.77
36896	-0.541	0.016	-0.336	38.08	64.4	7.84
36913	-0.554	-0.002	-0.406	22.75	45.85	3.08
36933	-0.579	0.094	-0.435	7.21	36.19	-3.01
36953	-0.603	0.161	-0.449	3.64	32.62	-4.06
36978	-0.62	0.217	-0.439	-0.28	31.57	1.4
36997	-0.663	0.14	-0.489	-6.3	13.16	5.95
37013	-0.587	0.095	-0.673	-12.11	7.84	7.63
37033	-0.581	0.092	-0.785	-12.88	23.24	10.22
37057	-0.679	0.098	-0.699	-7.14	24.5	11.9
37077	-0.721	0.076	-0.616	-10.85	14.28	9.52
37097	-0.666	-0.01	-0.648	-23.1	0.35	3.5
37115	-0.712	-0.13	-0.645	-28.21	-10.22	-1.33
37137	-0.888	-0.139	-0.662	-26.04	-20.86	-6.44
37156	-0.91	-0.204	-0.891	-21.98	-32.41	-12.74
37181	-0.846	-0.072	-1.067	8.26	-83.93	-9.94
37201	-0.864	0.14	-0.91	15.68	-72.31	7.63
37220	-1.001	0.33	-1.009	11.76	-50.33	21.07
37241	-1.116	0.365	-1.104	2.66	-42.77	14.91
37260	-1.347	0.16	-1.113	-21.14	-38.71	10.5
37284	-1.274	0.154	-1.418	11.48	-27.44	-10.99
37303	-1.025	0.027	-1.426	8.54	-24.71	-4.41
37322	-1.082	0.051	-1.365	11.76	16.66	-3.08
37342	-1.233	-0.025	-1.261	3.71	9.94	-10.36
37365	-1.358	0.194	-1.455	-3.5	9.17	-8.26
37387	-1.229	0.128	-1.437	-6.23	8.96	-9.17
37406	-1.122	0.102	-1.324	0.56	13.23	-9.94
37431	-1.098	0.095	-1.202	-3.64	19.46	-10.15
37450	-1.064	0.103	-1.169	-12.25	25.69	-5.11
37466	-1.009	0.062	-1.066	-15.12	23.73	-7.84
37490	-0.961	0.12	-0.995	-4.34	21.91	8.96
37511	-0.929	0.144	-1.113	-4.41	35.49	7.28
37531	-0.956	-0.078	-1.132	-4.13	56.98	-6.51
37551	-0.993	0.041	-0.935	-4.62	75.46	-25.48
37568	-0.881	0.35	-0.704	-18.9	60.48	-7.77
37588	-0.944	0.161	-0.767	-8.05	45.57	-3.15
37612	-0.948	0.108	-0.804	-5.32	7.7	-5.46
37629	-0.809	0.061	-0.839	-2.24	-3.5	-8.47
37651	-0.734	0.025	-0.83	-2.31	-10.22	-7.56
37671	-0.724	0.01	-0.751	-3.99	-9.1	-12.46
37690	-0.707	0.055	-0.711	-4.55	-17.29	-10.43
37710	-0.693	0.053	-0.721	-3.64	-23.59	-11.83
37734	-0.687	0.075	-0.749	0.7	-22.96	-13.79
37755	-0.694	0.129	-0.704	7.21	-18.9	-12.32
37775	-0.776	0.173	-0.734	6.65	-18.83	-7.7
37793	-0.785	0.179	-0.674	4.2	-22.75	-3.85
37813	-0.763	0.123	-0.64	5.46	-31.78	-2.66
37837	-0.765	0.056	-0.599	6.37	-36.68	-0.42
37857	-0.826	-0.009	-0.537	4.34	-49.21	-3.08
37876	-0.836	-0.035	-0.557	4.06	-63.7	-7.07
37899	-0.711	0.01	-0.588	5.6	-70.77	-8.96
37920	-0.625	0.052	-0.557	10.64	-75.18	-8.19
37940	-0.561	0.068	-0.521	13.58	-74.2	-6.23
37960	-0.566	0.08	-0.464	10.36	-72.38	-6.51
37978	-0.598	0.109	-0.367	5.53	-70.21	-5.88
37998	-0.629	0.08	-0.26	3.78	-72.59	-4.41
38018	-0.611	0.08	-0.207	7.28	-84.63	1.19
38037	-0.541	-0.019	-0.293	12.81	-95.97	5.81
38062	-0.433	-0.074	-0.405	18.41	-84.77	5.18
38081	-0.437	-0.088	-0.293	24.43	-72.73	5.67
38100	-0.47	-0.081	-0.275	29.61	-75.39	4.13
38125	-0.46	-0.023	-0.26	34.23	-77.49	0.7
38143	-0.447	0.03	-0.202	34.3	-78.89	-0.84
38166	-0.455	0.104	-0.207	34.16	-77.28	0.56
38186	-0.52	0.132	-0.224	25.76	-63.77	1.82
38206	-0.604	0.171	-0.206	14.49	-58.1	3.85
38231	-0.62	0.178	-0.263	8.4	-54.39	4.83
38248	-0.724	0.186	-0.293	9.1	-62.16	5.6
38269	-0.938	0.133	-0.407	15.82	-70.21	12.18
38290	-1.105	0.061	-0.389	6.51	-47.04	6.37
38308	-1.257	-0.026	-0.288	-3.92	-56.49	8.89
38330	-1.046	-0.125	-0.402	-9.87	-48.51	1.12
38354	-0.9	-0.049	-0.384	-5.04	-32.41	-2.1
38374	-0.843	0.007	-0.313	2.52	-26.18	0.63
38393	-0.867	0.03	-0.275	5.39	-22.4	0.77
38416	-0.941	0.03	-0.238	-3.85	-18.83	-1.82
38438	-0.977	0.024	-0.2	-10.22	-20.44	-3.99
38456	-0.96	0.048	-0.228	-11.83	-20.44	-3.57
38476	-0.952	0.047	-0.244	-9.94	-15.19	-1.4
38500	-0.962	0.028	-0.189	-5.11	-10.71	-0.28
38519	-0.965	0.015	-0.178	-3.92	-12.39	0.21
38535	-0.948	0.0	-0.198	-4.9	-11.34	0.49
38560	-0.952	-0.008	-0.173	-3.36	-9.52	0.21
38580	-0.956	-0.007	-0.186	-0.56	-6.79	-0.28
38604	-0.957	-0.019	-0.18	1.61	0.98	-0.7
38622	-0.962	-0.014	-0.146	3.08	6.37	-1.12
38645	-0.953	0.012	-0.165	3.92	11.34	-1.4
38663	-0.907	0.036	-0.19	3.15	18.55	-1.33
38684	-0.84	0.038	-0.201	2.31	29.4	-0.7
38702	-0.832	0.031	-0.233	1.47	47.81	0.14
38727	-0.905	0.029	-0.198	-0.07	64.4	0.21
38743	-0.913	0.042	-0.213	-0.21	69.65	1.82
38767	-0.833	0.006	-0.305	-2.52	87.43	1.89
38787	-0.774	-0.004	-0.267	-3.15	107.87	0.91
38806	-0.696	-0.035	-0.21	-3.71	115.57	0.49
38831	-0.606	-0.018	-0.221	-5.95	116.41	-1.82
38852	-0.502	-0.012	-0.263	-6.37	115.36	-2.66
38870	-0.411	-0.002	-0.305	-5.67	115.5	-2.38
38893	-0.345	0.005	-0.353	-6.37	116.62	-0.91
38914	-0.311	0.02	-0.419	-8.4	122.99	0.91
38934	-0.314	0.011	-0.391	-7.91	126.21	0.63
38954	-0.361	0.027	-0.416	-4.27	118.79	1.47
38978	-0.356	0.022	-0.478	1.47	123.27	4.62
38998	-0.38	0.013	-0.369	4.55	129.43	5.46
39018	-0.468	0.005	-0.183	9.8	110.11	6.58
39036	-0.479	0.018	-0.229	14.7	85.75	8.75
39056	-0.48	0.023	-0.37	13.65	75.18	7.63
39076	-0.554	0.074	-0.419	13.23	63.91	6.86
39100	-0.553	0.095	-0.576	14.84	52.5	8.75
39118	-0.569	0.078	-0.583	11.06	46.06	9.45
39139	-0.608	0.068	-0.58	10.36	35.84	6.09
39159	-0.633	0.08	-0.561	4.2	27.79	-0.56
39180	-0.727	0.118	-0.592	1.96	11.2	-0.63
39199	-0.781	0.105	-0.677	3.99	4.27	0.84
39223	-0.772	0.102	-0.779	1.68	0.07	4.34
39240	-0.737	0.004	-0.791	-4.34	-2.87	3.57
39264	-0.733	-0.008	-0.775	-4.69	-27.09	2.59
39284	-0.74	-0.023	-1.064	-0.91	-37.17	7.91
39301	-0.773	-0.125	-1.186	17.43	-30.66	4.48
39319	-0.716	-0.161	-0.911	12.81	-84.7	16.59
39339	-0.766	0.279	-1.152	-3.43	-21.07	3.36
39363	-0.953	-0.794	-1.449	-27.23	8.26	-34.58
39384	-0.85	0.527	-0.755	-3.57	-26.74	2.38
39404	-0.984	0.066	-0.951	-22.68	-45.71	3.43
39421	-0.838	-0.163	-1.472	1.19	-53.48	-3.92
39440	-0.927	0.057	-1.606	-7.0	-7.21	-9.8
39465	-1.298	0.365	-1.054	-2.87	0.21	2.17
39480	-1.334	0.102	-1.316	5.6	-21.28	-10.5
39505	-1.254	-0.016	-1.532	-6.44	0.63	-14.63
39525	-1.28	0.09	-1.373	-15.12	0.21	-11.62
39545	-1.173	0.106	-1.377	-13.51	-9.94	-7.35
39565	-1.11	0.092	-1.403	-9.66	-12.88	-5.18
39589	-1.102	0.102	-1.371	-7.28	-2.66	-1.96
39609	-1.065	0.056	-1.238	-7.63	5.67	-3.22
39629	-0.985	0.07	-1.183	-7.21	12.39	-1.54
39649	-0.921	0.157	-1.123	-8.47	20.58	3.92
39668	-0.926	0.036	-1.079	-4.9	24.78	0.42
39685	-0.943	0.077	-1.053	-11.41	17.85	-10.29
39710	-0.861	0.047	-1.037	-13.72	22.05	18.2
39728	-0.85	0.045	-0.901	-10.92	26.18	10.71
39752	-0.89	0.049	-0.888	-1.96	27.79	6.16
39769	-0.873	-0.093	-0.892	1.96	33.81	-5.81
39788	-0.794	0.023	-0.705	0.56	27.58	-24.85
39812	-0.685	0.064	-0.726	-8.89	-7.42	-1.96
39830	-0.691	-0.032	-0.826	-3.29	-13.09	-6.51
39852	-0.63	0.002	-0.865	-3.64	-18.2	-4.55
39875	-0.562	0.038	-0.84	-1.26	-14.91	-5.04
39895	-0.571	0.066	-0.767	1.82	-10.29	-5.67
39914	-0.634	0.068	-0.72	10.22	-16.8	-3.29
39931	-0.729	0.074	-0.711	14.21	-21.28	-4.69
39956	-0.733	0.143	-0.753	17.43	-25.48	2.87
39972	-0.694	0.127	-0.716	19.25	-23.1	4.97
39993	-0.666	0.045	-0.668	19.39	-27.65	6.09
40016	-0.706	0.03	-0.583	21.63	-30.66	7.07
40038	-0.79	0.021	-0.519	23.24	-44.87	7.7
40057	-0.772	0.036	-0.581	22.26	-53.55	8.33
40076	-0.635	0.049	-0.642	15.54	-47.95	7.28
40096	-0.568	0.075	-0.532	10.5	-41.09	0.91
40116	-0.558	0.119	-0.373	8.33	-40.95	-4.13
40136	-0.562	0.155	-0.264	7.63	-53.76	-5.53
40160	-0.524	0.123	-0.277	8.75	-79.73	-3.85
40180	-0.479	0.057	-0.459	10.08	-101.57	-1.19
40201	-0.45	0.004	-0.548	5.88	-96.88	1.47
40224	-0.515	-0.038	-0.393	4.27	-83.23	4.34
40242	-0.596	-0.051	-0.301	12.25	-83.58	5.39
40266	-0.535	-0.037	-0.271	18.06	-92.89	4.9
40286	-0.388	0.018	-0.334	8.68	-91.77	1.82
40310	-0.352	0.082	-0.3	-1.96	-78.89	-3.01
40330	-0.427	0.11	-0.239	-7.7	-71.75	-5.04
40345	-0.505	0.068	-0.264	-9.45	-74.55	-4.69
40370	-0.61	-0.028	-0.351	-6.93	-77.56	-1.19
40389	-0.749	-0.106	-0.354	-3.64	-74.06	-0.21
40408	-0.86	-0.067	-0.317	-0.63	-72.1	-1.33
40432	-0.883	0.001	-0.334	-2.24	-76.09	-4.69
40452	-0.866	0.064	-0.423	-5.53	-72.66	-5.11
40470	-0.865	0.101	-0.467	-9.45	-57.47	-6.09
40491	-0.895	0.171	-0.424	-17.22	-31.01	-3.43
40510	-1.004	0.156	-0.309	-19.74	-21.91	-1.68
40530	-1.055	0.085	-0.264	-15.19	-27.02	-2.73
40554	-1.006	0.039	-0.236	-8.12	-25.62	-2.94
40574	-0.963	0.033	-0.249	-5.18	-20.16	-3.15
40593	-0.923	0.057	-0.244	-2.59	-15.05	-2.87
40614	-0.882	0.091	-0.224	-2.17	-14.0	-1.33
40634	-0.841	0.124	-0.218	-0.21	-6.79	-0.14
40652	-0.882	0.157	-0.208	1.26	-6.65	2.03
40672	-0.939	0.136	-0.248	3.64	-7.98	4.62
40696	-0.969	0.085	-0.257	4.83	-1.96	7.28
40716	-1.006	0.039	-0.187	4.55	1.61	6.65
40736	-1.012	0.003	-0.161	5.25	-3.43	4.76
40755	-0.999	0.017	-0.192	6.16	-5.32	3.08
40775	-0.987	0.05	-0.22	7.63	-1.19	3.01
40800	-0.976	0.031	-0.211	10.85	4.06	5.25
40819	-0.941	0.014	-0.201	12.67	6.37	6.09
40840	-0.902	0.011	-0.227	16.73	12.67	6.79
40860	-0.88	0.02	-0.241	18.9	22.19	8.33
40884	-0.886	0.029	-0.237	17.43	29.12	9.24
40904	-0.903	0.03	-0.244	14.63	32.2	9.45
40923	-0.927	0.023	-0.258	10.92	35.91	8.26
40948	-0.908	0.041	-0.263	4.9	42.63	4.48
40968	-0.854	0.064	-0.251	0.28	46.34	1.54
40986	-0.834	0.084	-0.261	-8.4	47.95	-0.14
41006	-0.807	0.1	-0.294	-18.2	51.66	-2.45
41030	-0.773	0.161	-0.337	-22.19	58.17	-5.53
41050	-0.728	0.238	-0.334	-19.18	62.65	-3.15
41069	-0.722	0.287	-0.344	-14.56	65.52	3.29
41090	-0.757	0.272	-0.342	-4.97	64.61	11.76
41109	-0.805	0.233	-0.31	12.67	61.81	18.97
41128	-0.75	0.146	-0.343	26.46	64.75	24.15
41152	-0.614	0.057	-0.266	33.11	74.13	25.2
41169	-0.508	0.014	-0.23	32.83	73.5	21.7
41192	-0.359	0.067	-0.28	28.14	73.57	14.14
41214	-0.273	0.15	-0.399	17.57	83.58	6.79
41233	-0.308	0.175	-0.508	12.95	91.21	-0.77
41258	-0.322	0.156	-0.541	14.84	113.61	-11.83
41277	-0.452	0.187	-0.23	3.22	104.72	-20.79
41296	-0.549	0.162	-0.336	-4.13	62.3	-26.39
41315	-0.534	0.064	-0.452	-6.44	58.73	-24.64
41340	-0.673	0.017	-0.372	-3.22	55.16	-20.44
41356	-0.764	0.046	-0.414	-3.71	45.99	-15.4
41375	-0.755	0.059	-0.37	-5.39	36.4	-8.05
41399	-0.62	0.071	-0.499	-9.1	17.85	-4.13
41418	-0.546	0.076	-0.621	-12.39	19.18	-7.14
41438	-0.551	0.084	-0.686	-17.08	26.46	-13.02
41461	-0.636	0.033	-0.613	-16.31	30.87	-16.38
41480	-0.712	-0.031	-0.575	-13.93	23.94	-20.72
41504	-0.754	-0.084	-0.581	-10.57	10.15	-25.83
41525	-0.758	-0.112	-0.66	-6.02	-3.71	-27.72
41544	-0.722	-0.061	-0.791	-4.83	-7.35	-27.02
41564	-0.742	0.02	-0.864	1.12	-4.76	-17.01
41580	-0.725	0.019	-0.869	2.17	0.21	-7.49
41603	-0.763	-0.044	-0.786	0.0	-5.74	-0.84
41624	-0.841	-0.085	-0.83	6.16	-6.58	-4.27
41644	-1.286	0.137	-0.81	57.96	-57.96	5.32
41663	-0.976	0.077	-0.834	19.32	-38.71	8.12
41682	-1.112	0.24	-0.671	-10.57	-61.32	15.82
41706	-0.947	-0.138	-1.013	-2.73	-21.49	-31.92
41726	-0.821	0.124	-0.913	-2.03	10.57	-13.79
41746	-0.993	-0.057	-0.85	-15.33	-31.01	-15.54
41770	-0.976	-0.188	-1.105	3.99	-31.43	-7.21
41789	-1.042	0.056	-1.269	15.19	12.67	-1.4
41812	-1.176	0.149	-1.083	7.56	14.0	1.61
41833	-1.279	0.007	-1.241	-8.61	16.52	-8.47
41853	-1.306	0.147	-1.158	-11.06	13.44	-7.0
41872	-1.318	0.163	-1.141	-16.17	-2.24	-7.28
41893	-1.218	0.003	-1.235	-19.04	-16.87	-9.31
41913	-1.122	0.019	-1.269	-16.24	-12.95	-6.16
41933	-1.123	-0.001	-1.085	-7.7	-10.08	-3.15
41957	-1.115	0.033	-1.093	-1.33	-13.44	-2.31
41974	-1.112	0.089	-1.101	-2.1	-14.07	1.19
41999	-1.121	0.114	-1.079	-3.78	-10.22	4.06
42016	-1.119	-0.006	-1.071	0.42	-0.91	3.29
42037	-1.153	-0.003	-1.041	-2.52	13.37	-3.01
42055	-1.014	0.573	-0.89	-35.91	14.91	20.72
42079	-1.104	0.041	-0.945	8.26	14.35	16.8
42099	-1.041	0.089	-0.864	11.48	18.41	19.6
42118	-0.969	0.037	-0.748	11.55	13.79	15.12
42139	-0.964	0.017	-0.688	8.61	3.15	15.19
42163	-0.899	0.007	-0.735	10.64	-2.8	12.25
42183	-0.815	0.02	-0.787	10.85	-3.85	8.75
42207	-0.712	-0.072	-0.784	8.82	1.61	-4.97
42226	-0.731	-0.202	-0.748	4.41	18.48	-31.78
42245	-0.686	0.129	-0.475	5.53	-10.08	-1.82
42270	-0.754	0.195	-0.59	7.7	-22.54	12.67
42290	-0.808	0.149	-0.622	9.38	-19.04	16.73
42310	-0.793	0.129	-0.563	7.35	-25.97	15.61
42330	-0.701	0.075	-0.511	3.22	-35.21	13.16
42354	-0.668	0.035	-0.516	0.63	-37.31	7.63
42374	-0.67	0.021	-0.504	0.0	-42.14	4.06
42394	-0.704	0.042	-0.513	1.47	-46.97	0.0
42413	-0.736	0.051	-0.467	2.73	-71.33	-2.38
42432	-0.731	0.073	-0.461	3.78	-61.67	-2.66
42452	-0.671	0.037	-0.436	4.9	-65.8	-2.1
42476	-0.632	0.026	-0.397	5.32	-69.58	-3.92
42493	-0.594	0.063	-0.38	5.81	-70.91	-6.02
42517	-0.551	0.137	-0.32	4.55	-67.69	-5.18
42537	-0.562	0.121	-0.289	1.89	-70.7	-7.49
42555	-0.578	0.114	-0.322	-3.08	-80.64	-6.58
42579	-0.549	0.041	-0.372	-6.86	-81.41	-7.14
42599	-0.506	0.059	-0.247	-5.95	-71.33	-6.16
42619	-0.478	0.042	-0.156	3.43	-70.56	-5.95
42638	-0.436	0.009	-0.137	9.17	-75.46	-5.95
42659	-0.399	0.018	-0.18	6.93	-79.94	-5.81
42682	-0.369	0.084	-0.283	4.97	-64.68	-4.62
42703	-0.434	0.141	-0.275	5.39	-41.79	-6.02
42722	-0.647	0.156	-0.2	-0.35	-40.53	-6.93
42741	-0.778	0.093	-0.185	-8.19	-52.64	-5.6
42761	-0.834	-0.015	-0.229	-11.13	-55.65	-4.55
42785	-0.91	-0.075	-0.265	-8.68	-49.07	-4.41
42805	-0.988	-0.084	-0.265	-1.61	-43.05	-6.37
42821	-1.002	0.0	-0.288	2.38	-38.43	-6.02
42840	-1.029	0.062	-0.275	0.84	-31.85	-1.89
42864	-1.042	0.036	-0.271	-3.5	-26.6	-2.17
42885	-1.028	-0.007	-0.241	-4.9	-16.8	-3.29
42903	-1.006	-0.063	-0.237	-2.1	-10.57	-3.99
42923	-0.983	-0.065	-0.2	1.75	-5.39	-4.69
42947	-0.961	-0.027	-0.174	6.23	-2.94	-3.99
42966	-0.941	0.019	-0.17	9.1	-1.75	-1.47
42990	-0.927	0.058	-0.155	7.77	-2.52	1.89
43010	-0.917	0.039	-0.168	4.69	-0.56	2.52
43030	-0.944	0.038	-0.205	1.4	0.98	2.24
43050	-0.971	0.019	-0.216	-1.96	5.18	1.19
43065	-0.988	-0.001	-0.202	-3.57	8.68	0.0
43090	-1.004	-0.027	-0.159	-4.62	11.27	-0.49
43111	-1.002	-0.057	-0.157	-6.93	10.57	-0.56
43130	-0.998	-0.067	-0.167	-6.93	10.01	-1.33
43149	-1.004	-0.083	-0.193	-2.52	11.13	-1.4
43170	-0.98	-0.089	-0.208	4.34	14.77	-2.31
43185	-0.932	-0.058	-0.22	7.56	16.73	-3.15
43210	-0.894	-0.021	-0.22	6.23	23.31	-4.13
43230	-0.874	0.021	-0.228	0.35	30.8	-4.83
43254	-0.838	0.032	-0.275	-4.97	39.97	-6.58
43274	-0.779	0.036	-0.302	-3.78	55.86	-7.35
43292	-0.718	0.04	-0.299	-1.4	72.03	-7.84
43314	-0.65	0.082	-0.319	-3.08	86.52	-8.12
43334	-0.596	0.122	-0.386	-7.0	105.98	-10.29
43358	-0.573	0.219	-0.346	-6.86	125.72	-10.57
43377	-0.595	0.29	-0.264	1.61	129.36	-6.65
43397	-0.601	0.258	-0.171	11.2	120.19	0.28
43418	-0.54	0.124	-0.142	19.39	104.86	6.3
43441	-0.471	-0.022	-0.222	21.14	93.38	12.46
43462	-0.416	-0.079	-0.4	15.54	98.56	14.28
43481	-0.41	-0.088	-0.39	21.7	106.75	13.23
43502	-0.362	-0.062	-0.411	28.42	112.49	11.41
43522	-0.318	-0.01	-0.361	25.34	106.54	6.23
43545	-0.305	-0.004	-0.418	13.79	101.92	-1.54
43561	-0.39	0.029	-0.395	8.12	99.54	-7.28
43586	-0.536	0.096	-0.339	-0.98	76.86	-12.25
43606	-0.603	0.126	-0.393	-7.28	55.23	-16.66
43626	-0.572	0.138	-0.436	-4.83	47.95	-13.37
43646	-0.641	0.13	-0.4	-6.37	34.16	-7.07
43670	-0.709	0.089	-0.542	-14.0	12.46	-5.32
43690	-0.731	0.049	-0.603	-15.89	2.24	-3.85
43710	-0.743	-0.04	-0.711	-9.73	-4.69	2.66
43730	-0.682	-0.017	-0.824	-2.73	-0.42	7.7
43753	-0.641	-0.051	-0.8	-3.22	8.82	1.26
43777	-0.718	-0.081	-0.719	-8.33	-1.96	-6.09
43797	-0.778	-0.021	-0.739	-17.57	-23.59	-5.25
43815	-0.767	-0.039	-0.834	-24.36	-36.75	2.66
43836	-0.664	-0.184	-1.02	-8.33	-125.16	19.81
43856	-0.631	0.03	-0.978	-6.51	-68.32	16.87
43880	-0.969	0.219	-0.75	-40.18	-77.84	12.46
43899	-1.058	0.124	-1.05	-4.62	-35.56	-44.17
43920	-1.06	0.355	-0.837	1.54	-55.16	4.34
43940	-1.018	0.141	-0.801	15.75	-62.02	-18.48
43960	-0.91	0.204	-0.803	4.48	-19.95	-47.32
43980	-0.921	0.18	-1.176	-1.12	-39.62	-9.8
44004	-0.989	0.066	-1.405	-16.73	-5.74	-7.0
44024	-1.162	-0.114	-1.181	-15.54	31.78	-8.75
44043	-1.301	0.106	-1.066	-11.34	25.97	1.47
44062	-1.277	0.169	-1.2	-3.5	22.26	-4.55
44086	-1.125	0.125	-1.056	-6.51	6.16	-10.43
44106	-1.032	0.001	-0.872	-5.25	-28.28	-7.84
44126	-0.993	0.003	-0.977	-5.11	-35.42	-6.44
44150	-0.958	-0.001	-1.073	-6.58	-35.07	-4.76
44169	-0.964	-0.039	-1.042	-1.12	-25.62	-4.76
44187	-1.008	0.014	-1.125	-3.5	-12.67	-8.47
44209	-0.999	0.018	-1.066	-1.54	-2.73	-8.68
44233	-1.087	0.042	-1.034	4.2	-9.17	-7.56
44253	-1.105	0.089	-1.032	6.23	-13.79	-5.95
44272	-1.084	0.12	-0.998	6.23	-17.22	-1.05
44297	-1.055	0.013	-1.101	14.07	-0.7	-2.24
44318	-0.993	0.063	-1.027	21.91	19.74	-5.18
44337	-1.036	0.08	-0.91	16.87	5.53	-9.1
44352	-1.035	-0.034	-0.84	13.72	5.25	-2.66
44372	-1.057	0.822	-0.686	-8.75	-10.92	35.63
44397	-1.079	-0.006	-0.823	14.21	24.57	17.36
44417	-1.048	0.014	-0.752	17.92	33.74	19.46
44437	-0.946	-0.067	-0.668	19.88	39.34	17.64
44457	-0.953	0.011	-0.567	9.94	35.91	18.55
44476	-0.991	-0.012	-0.619	8.12	28.91	13.79
44499	-0.947	0.016	-0.645	10.78	19.04	12.25
44520	-0.939	-0.018	-0.694	12.46	6.16	8.05
44540	-0.853	-0.353	-0.815	10.29	21.49	-28.0
44560	-0.612	0.323	-0.576	-0.7	-1.75	-0.28
44580	-0.685	-0.028	-0.589	5.18	-23.38	4.13
44600	-0.672	0.049	-0.662	9.17	-26.18	10.5
44620	-0.735	0.01	-0.711	10.92	-20.51	10.92
44637	-0.685	0.079	-0.635	8.68	-15.47	14.0
44656	-0.692	-0.006	-0.572	6.44	-18.76	12.04
44681	-0.691	-0.023	-0.494	6.16	-24.08	10.64
44699	-0.66	-0.015	-0.446	8.82	-26.95	9.66
44719	-0.648	0.03	-0.439	11.76	-31.57	8.26
44741	-0.655	0.046	-0.473	12.95	-39.2	7.14
44759	-0.667	0.03	-0.474	11.76	-41.72	9.73
44779	-0.695	-0.013	-0.45	11.13	-45.15	12.88
44803	-0.673	-0.034	-0.467	19.18	-52.71	17.01
44821	-0.644	-0.024	-0.433	25.2	-55.65	16.31
44839	-0.609	0.003	-0.387	24.64	-60.55	12.39
44863	-0.573	0.029	-0.406	22.61	-71.19	6.09
44883	-0.535	0.03	-0.485	22.33	-72.59	3.57
44899	-0.513	0.022	-0.439	23.8	-66.57	2.87
44924	-0.511	0.033	-0.254	27.65	-59.78	0.77
44941	-0.478	0.045	-0.142	27.3	-67.48	-2.03
44963	-0.405	0.051	-0.156	24.29	-78.68	-4.69
44983	-0.327	0.068	-0.228	20.58	-73.85	-5.11
45002	-0.325	0.099	-0.264	16.87	-65.8	-5.6
45018	-0.437	0.091	-0.242	16.17	-64.05	-6.23
45041	-0.583	0.035	-0.23	15.05	-68.11	-7.77
45060	-0.717	-0.043	-0.27	10.64	-70.63	-8.4
45085	-0.821	-0.035	-0.412	4.76	-63.91	-7.77
45102	-0.875	-0.037	-0.471	7.56	-54.67	-11.9
45121	-0.985	0.018	-0.576	12.11	-38.92	-16.8
45141	-1.055	0.126	-0.508	11.34	-20.79	-16.38
45166	-1.082	0.138	-0.393	2.87	-14.63	-12.11
45184	-1.051	0.115	-0.356	-4.9	-12.81	-8.47
45203	-0.953	0.047	-0.139	-9.8	-12.88	-6.72
45228	-0.838	0.014	-0.203	-12.39	-20.23	-7.42
45249	-0.755	0.004	-0.267	-14.63	-19.11	-8.54
45266	-0.73	-0.012	-0.303	-15.89	-14.42	-7.91
45287	-0.807	0.01	-0.227	-11.62	-16.31	-5.67
45308	-0.903	0.016	-0.273	-6.93	-20.3	-0.49
45326	-1.032	-0.003	-0.273	-2.03	-18.13	6.02
45348	-1.136	-0.045	-0.275	3.92	-20.16	11.2
45369	-1.109	-0.077	-0.363	7.91	-9.38	10.99
45388	-1.045	-0.11	-0.271	6.44	-4.76	11.13
45412	-0.962	-0.137	-0.275	8.89	-2.1	12.95
45436	-0.891	-0.121	-0.334	14.07	6.44	16.94
45456	-0.903	-0.127	-0.273	20.16	18.62	20.44
45476	-0.919	-0.112	-0.262	23.59	22.05	21.28
45499	-0.885	-0.045	-0.278	23.73	26.81	21.07
45519	-0.841	0.017	-0.293	20.51	30.94	21.35
45540	-0.837	0.054	-0.309	17.5	38.01	21.0
45559	-0.898	0.054	-0.24	14.91	36.19	20.86
45580	-0.938	0.03	-0.242	12.53	28.28	20.44
45600	-0.981	-0.012	-0.264	7.91	23.24	18.97
45620	-1.057	-0.063	-0.234	3.5	18.76	16.1
45644	-1.116	-0.088	-0.226	0.84	7.7	10.01
45663	-1.113	-0.083	-0.285	0.28	-0.77	3.5
45688	-1.064	-0.052	-0.338	0.21	-1.89	-2.52
45706	-1.04	-0.013	-0.312	-0.56	-1.05	-6.23
45730	-1.045	0.013	-0.247	-3.01	-5.18	-10.01
45749	-1.029	0.023	-0.264	-6.02	-12.11	-12.11
45770	-1.0	0.0	-0.292	-7.77	-12.11	-13.93
45786	-0.984	-0.041	-0.27	-9.38	-11.62	-16.24
45809	-0.935	-0.073	-0.242	-11.34	-14.56	-21.84
45830	-0.917	-0.102	-0.213	-14.91	-17.5	-26.04
45849	-0.909	-0.105	-0.224	-19.32	-18.83	-27.72
45874	-0.949	-0.131	-0.253	-20.23	-19.18	-29.82
45892	-0.986	-0.102	-0.25	-21.56	-14.21	-29.89
45911	-1.122	-0.078	-0.19	-22.68	-14.56	-28.77
45933	-0.989	-0.088	-0.198	-28.56	-16.1	-27.16
45957	-0.98	-0.125	-0.226	-34.51	-14.42	-24.92
45977	-1.014	-0.163	-0.222	-41.93	-9.73	-21.28
45993	-1.045	-0.192	-0.165	-45.22	-10.71	-17.57
46013	-1.035	-0.22	-0.15	-42.98	-17.99	-13.72
46033	-0.975	-0.236	-0.158	-34.02	-26.25	-12.18
46052	-0.914	-0.252	-0.197	-29.61	-31.64	-14.0
46072	-0.939	-0.283	-0.272	-30.24	-32.06	-17.15
46094	-0.972	-0.208	-0.271	-27.51	-25.76	-17.99
46116	-0.984	-0.13	-0.169	-22.26	-25.34	-16.17
46140	-0.96	-0.121	-0.1	-28.0	-30.31	-12.46
46156	-0.95	-0.223	-0.149	-29.12	-28.91	-12.39
46179	-0.958	-0.244	-0.167	-24.43	-33.74	-10.5
46202	-1.066	-0.09	-0.183	-21.98	-50.05	-3.5
46225	-1.066	-0.186	-0.328	-4.83	-42.14	-9.66
46245	-1.103	-0.113	-0.336	11.13	-27.93	-6.79
46266	-1.079	-0.037	-0.278	19.39	-12.18	-2.94
46290	-0.994	0.004	-0.262	17.64	-0.91	3.08
46309	-0.908	-0.035	-0.232	12.46	4.13	6.51
46330	-0.835	-0.038	-0.244	10.22	8.33	9.52
46350	-0.742	-0.121	-0.239	15.12	19.46	10.15
46370	-0.745	-0.141	-0.208	20.58	24.5	11.13
46390	-0.763	-0.17	-0.199	19.95	27.79	10.29
46405	-0.82	-0.16	-0.185	17.01	29.4	8.89
46430	-0.891	-0.122	-0.183	12.32	28.84	6.86
46448	-0.952	-0.081	-0.186	9.87	24.36	4.62
46470	-1.01	0.013	-0.226	7.56	20.86	3.92
46490	-1.05	0.064	-0.253	3.71	22.05	5.25
46510	-1.044	0.156	-0.237	-1.75	25.41	8.68
46527	-1.01	0.18	-0.244	-8.05	28.14	12.53
46547	-0.965	0.168	-0.24	-17.43	34.51	15.19
46571	-0.94	0.125	-0.209	-23.45	35.56	17.01
46590	-0.975	0.067	-0.166	-24.57	30.66	18.83
46607	-1.085	0.035	-0.146	-15.82	20.23	21.63
46627	-1.177	0.027	-0.158	-3.92	10.01	24.22
46649	-1.189	0.048	-0.19	5.6	1.54	25.83
46671	-1.113	0.05	-0.242	12.18	-0.98	26.46
46693	-0.999	0.089	-0.338	14.28	8.54	26.81
46714	-0.952	0.12	-0.358	12.53	35.28	26.46
46731	-0.916	0.135	-0.294	11.06	22.26	25.76
46750	-0.893	0.139	-0.199	12.25	21.07	24.15
46774	-0.891	0.157	-0.195	13.16	8.68	22.89
46791	-0.858	0.14	-0.207	10.29	6.44	23.52
46811	-0.905	0.138	-0.179	10.5	-1.4	23.24
46831	-0.913	0.154	-0.307	9.8	-7.63	22.47
46855	-0.96	0.179	-0.301	7.0	-6.72	20.51
46874	-0.996	0.2	-0.276	4.2	-7.35	20.02
46895	-1.043	0.203	-0.251	2.03	-9.8	20.3
46910	-1.033	0.208	-0.246	1.61	-10.22	20.09
46935	-1.01	0.169	-0.245	4.48	-12.74	20.51
46955	-0.934	0.072	-0.267	9.24	-15.75	19.95
46975	-0.908	0.035	-0.312	11.34	-14.14	16.24
46995	-0.92	0.019	-0.325	14.07	-9.59	11.9
47019	-0.975	0.062	-0.296	17.64	-9.45	8.4
47039	-0.979	0.094	-0.314	20.16	-10.15	4.9
47058	-0.959	0.122	-0.333	21.21	-7.84	2.24
47079	-0.951	0.156	-0.317	19.11	-5.53	0.07
47103	-0.938	0.173	-0.319	15.54	-5.04	-1.33
47124	-0.932	0.193	-0.334	12.67	-2.1	-0.98
47143	-0.918	0.197	-0.328	10.15	0.21	-0.7
47163	-0.89	0.202	-0.325	7.98	0.77	-1.05
47183	-0.892	0.2	-0.324	5.88	0.35	-1.54
47207	-0.93	0.207	-0.306	3.78	-3.29	-1.47
47223	-0.961	0.209	-0.296	4.41	-4.9	-1.75
47242	-1.0	0.225	-0.301	4.06	-9.59	-1.89
47263	-0.968	0.191	-0.25	-0.7	-12.32	-1.54
47286	-1.014	0.188	-0.169	0.84	-18.41	-2.52
47307	-1.057	0.155	-0.291	4.27	-28.98	-6.37
47326	-1.076	0.143	-0.291	2.24	-28.14	-8.54
47346	-1.049	0.119	-0.288	-1.19	-20.37	-10.08
47366	-1.021	0.079	-0.224	-6.79	-12.11	-11.97
47390	-0.981	0.076	-0.18	-10.85	-12.04	-14.7
47408	-0.916	0.107	-0.193	-12.04	-13.02	-16.31
47428	-0.877	0.134	-0.201	-13.51	-11.9	-16.31
47447	-0.874	0.127	-0.197	-15.54	-10.78	-15.54
47473	-0.893	0.115	-0.187	-17.22	-8.19	-15.33
47491	-0.937	0.111	-0.173	-18.48	-6.09	-14.7
47512	-0.984	0.08	-0.178	-18.76	-6.16	-14.98
47531	-1.001	0.043	-0.22	-18.27	-3.5	-16.45
47555	-0.972	0.024	-0.242	-18.83	4.13	-19.11
47575	-0.953	0.007	-0.212	-18.55	13.93	-20.02
47595	-0.933	-0.014	-0.178	-15.4	16.38	-20.58
47615	-0.909	-0.015	-0.161	-10.85	16.38	-20.93
47632	-0.903	-0.003	-0.166	-7.28	15.47	-20.3
47656	-0.882	0.001	-0.236	-2.03	17.92	-18.69
47676	-0.866	-0.015	-0.247	-0.07	23.59	-18.41
47695	-0.869	-0.047	-0.203	3.01	29.26	-19.95
47715	-0.924	-0.046	-0.111	6.51	24.92	-20.51
47739	-1.026	-0.022	-0.018	8.26	5.67	-18.2
47754	-1.17	0.041	-0.029	4.62	-5.25	-14.28
47778	-1.294	0.015	-0.175	-7.98	-7.21	-9.8
47802	-1.304	-0.015	-0.128	-16.03	-2.38	-11.69
47822	-1.226	0.003	-0.088	-16.38	-1.19	-11.34
47842	-1.13	-0.004	-0.082	-9.94	-2.24	-7.28
47861	-1.042	-0.041	-0.11	-3.29	-3.57	-3.5
47883	-0.99	-0.093	-0.15	-1.75	-4.2	-1.54
47907	-0.959	-0.136	-0.159	-1.82	-2.94	-3.29
47927	-0.913	-0.136	-0.127	1.19	0.21	-6.51
47947	-0.892	-0.11	-0.114	3.22	-0.35	-8.54
47966	-0.89	-0.095	-0.148	3.29	-0.07	-9.73
47982	-0.908	-0.066	-0.172	1.4	2.8	-8.89
48003	-0.943	-0.086	-0.196	0.56	6.72	-6.3
48022	-0.953	-0.11	-0.172	0.84	6.16	-2.59
48047	-0.949	-0.136	-0.174	4.41	-3.57	0.07
48067	-0.937	-0.1	-0.221	2.87	-6.44	1.26
48087	-0.979	-0.029	-0.205	0.7	-12.11	3.85
48107	-1.04	-0.007	-0.245	-2.31	-27.16	8.68
48123	-1.042	-0.025	-0.36	-3.85	-29.33	12.53
48143	-1.068	-0.042	-0.406	0.42	-19.53	16.94
48162	-1.116	-0.025	-0.352	12.74	-12.32	21.49
48186	-1.115	0.018	-0.386	22.19	-7.42	24.64
48207	-1.022	0.051	-0.323	17.85	-0.42	24.5
48226	-0.929	0.079	-0.214	9.73	-0.98	21.91
48243	-0.876	0.122	-0.208	3.85	-8.19	19.39
48268	-0.831	0.169	-0.206	1.61	-14.91	18.62
48287	-0.873	0.174	-0.203	4.41	-13.3	20.37
48311	-0.972	0.147	-0.198	10.01	-8.19	22.47
48331	-1.043	0.079	-0.174	14.21	-6.65	21.14
48350	-1.006	0.05	-0.183	14.21	-7.77	17.71
48372	-0.947	0.05	-0.221	13.16	-3.08	13.72
48392	-0.92	0.08	-0.222	13.86	4.41	10.78
48413	-0.889	0.109	-0.202	14.56	11.97	10.99
48433	-0.87	0.102	-0.156	17.36	15.47	12.67
48456	-0.924	0.068	-0.135	19.81	11.9	10.43
48476	-1.006	0.087	-0.14	17.22	3.08	5.04
48492	-1.059	0.145	-0.174	13.79	-6.86	0.98
48517	-1.08	0.192	-0.305	11.55	-10.64	-0.56
48533	-1.091	0.217	-0.325	8.61	-5.11	-0.91
48553	-1.051	0.185	-0.256	1.4	-1.26	-0.91
48577	-0.966	0.095	-0.204	-8.89	-0.98	-5.04
48596	-0.881	0.003	-0.266	-10.99	-0.98	-6.23
48617	-0.85	0.017	-0.323	-7.21	5.04	-8.05
48637	-0.869	0.066	-0.285	1.19	7.77	-7.91
48658	-0.909	0.134	-0.274	5.6	6.58	-8.47
48677	-0.909	0.181	-0.271	0.49	1.54	-5.6
48696	-0.892	0.166	-0.244	-0.07	3.15	-5.88
48716	-0.885	0.168	-0.291	-1.12	6.37	-6.3
48736	-0.866	0.163	-0.287	-2.17	12.81	-5.88
48760	-0.891	0.163	-0.255	-4.62	14.77	-4.97
48783	-0.963	0.181	-0.225	-8.4	12.74	-3.99
48807	-1.0	0.194	-0.198	-9.94	5.25	-2.17
48827	-0.988	0.159	-0.214	-8.19	-4.2	0.0
48845	-0.934	0.096	-0.269	-9.03	-4.76	1.54
48868	-0.911	0.044	-0.335	-6.58	1.96	1.33
48885	-0.923	0.042	-0.33	-4.13	7.56	2.1
48909	-0.981	0.045	-0.291	1.4	8.68	2.8
48930	-1.072	0.073	-0.235	8.26	2.52	2.38
48949	-1.206	0.103	-0.212	8.89	-8.12	1.89
48969	-1.292	0.148	-0.289	6.58	-13.09	3.01
48989	-1.304	0.131	-0.348	4.76	-6.58	4.2
49011	-1.188	0.116	-0.355	7.7	-2.87	4.41
49035	-1.08	0.13	-0.293	13.02	-4.69	4.27
49055	-0.92	0.152	-0.203	7.77	-9.8	2.94
49074	-0.862	0.175	-0.204	-5.88	-13.37	-0.77
49094	-0.868	0.262	-0.178	-15.26	-20.72	-2.59
49116	-0.874	0.331	-0.199	-12.53	-31.29	-1.75
49135	-0.85	0.304	-0.222	-10.22	-36.61	-1.61
49158	-0.838	0.204	-0.137	-20.16	-38.08	-3.01
49180	-0.848	0.163	-0.247	-32.83	-37.03	-11.34
49199	-0.917	0.207	-0.302	-38.64	-19.39	-20.02
49216	-0.976	0.297	-0.198	-39.97	-8.26	-24.01
49240	-1.107	0.282	-0.053	-39.48	-3.71	-23.24
49260	-1.185	0.296	0.041	-41.58	-12.11	-18.76
49275	-1.192	0.215	0.034	-33.46	-20.37	-16.17
49299	-1.141	0.152	0.026	-21.14	-29.4	-12.18
49318	-1.052	0.084	-0.059	-15.89	-32.76	-10.08
49342	-1.009	0.137	-0.117	-8.89	-29.05	-10.64
49362	-1.016	0.235	-0.032	-2.73	-32.13	-4.83
49378	-1.038	0.281	-0.111	-3.29	-41.58	5.67
49397	-0.906	0.244	-0.139	-5.04	-26.88	11.41
49422	-0.947	0.256	-0.082	1.26	-26.32	24.01
49442	-0.946	0.071	-0.084	8.82	-23.8	24.08
49461	-0.984	0.106	-0.078	11.41	-44.94	22.61
49477	-0.916	0.12	-0.321	22.68	-38.5	20.02
49498	-0.924	0.079	-0.132	17.78	-24.64	19.74
49517	-0.981	-0.05	-0.218	10.08	-18.83	19.6
49541	-1.034	-0.177	-0.111	3.15	-9.31	13.09
49560	-1.015	-0.157	-0.121	-1.75	-11.55	6.65
49582	-0.927	-0.104	-0.089	-5.53	-15.26	-2.17
49604	-0.931	0.038	-0.143	-14.56	-12.25	-11.2
49620	-0.826	0.044	-0.012	-20.09	-3.64	-10.36
49639	-0.85	0.078	-0.113	-19.95	-5.25	-9.31
49664	-0.956	-0.019	-0.081	-19.11	-0.42	-6.51
49685	-1.013	-0.09	0.034	-20.65	-1.82	-6.58
49703	-1.02	-0.081	-0.069	-19.32	-1.89	-6.09
49724	-1.062	-0.053	0.024	-15.96	5.32	-3.29
49744	-1.227	-0.092	0.038	-18.27	-3.43	-3.08
49764	-1.107	-0.171	0.06	-13.09	1.47	-6.86
49783	-1.034	-0.185	0.075	-7.91	4.9	-10.22
49809	-0.933	-0.163	0.046	-3.92	2.24	-16.03
49828	-0.867	-0.078	-0.029	-1.96	1.19	-17.99
49847	-0.895	0.006	-0.061	-0.56	7.98	-15.33
49866	-1.037	-0.015	-0.001	-0.14	12.11	-9.31
49887	-1.077	-0.073	0.035	0.28	9.1	-4.06
49911	-1.052	-0.137	0.023	-2.66	2.87	-4.76
49931	-1.038	-0.086	-0.039	-2.45	3.01	-7.35
49946	-1.049	-0.034	-0.034	-2.03	5.95	-8.05
49970	-1.068	-0.06	-0.029	-4.55	7.0	-4.83
49990	-1.088	-0.069	0.01	-5.46	6.72	-2.66
50011	-1.049	-0.044	-0.037	-3.43	3.92	-3.01
50035	-1.004	-0.041	-0.068	-4.55	4.2	-3.22
50055	-0.943	-0.046	-0.088	-7.63	10.15	-3.78
50075	-0.939	-0.021	-0.037	-8.75	14.07	-3.57
50099	-0.919	-0.068	-0.048	-5.81	14.14	-2.8
50119	-0.922	-0.093	-0.032	-3.15	18.2	17.71
50139	-0.917	-0.122	-0.111	-3.64	16.45	0.84
50158	-0.877	-0.117	-0.121	0.84	26.18	-1.05
50178	-0.959	-0.106	-0.064	3.5	31.92	-4.13
50202	-1.063	-0.004	-0.11	5.67	34.44	-8.82
50223	-1.11	-0.189	-0.196	7.42	30.1	-14.28
50242	-1.11	-0.119	-0.15	4.62	40.6	-13.23
50268	-1.106	-0.15	-0.106	8.33	34.09	-1.96
50287	-1.145	-0.234	-0.1	14.28	36.54	-0.84
50307	-1.08	-0.216	-0.134	16.1	33.04	-3.43
50327	-0.968	-0.136	-0.221	18.27	34.51	-7.28
50347	-0.911	-0.084	-0.262	18.97	40.53	-6.58
50367	-0.954	0.005	-0.116	16.31	43.61	-4.41
50387	-0.91	0.05	-0.157	14.35	36.12	-2.87
50409	-0.866	0.02	-0.199	12.88	39.34	-1.12
50431	-0.922	0.066	-0.185	12.18	47.67	0.84
50450	-0.967	0.192	-0.206	5.67	50.33	1.75
50470	-0.969	0.294	-0.191	2.66	52.36	2.52
50494	-1.004	0.283	-0.24	4.55	39.34	5.46
50514	-1.034	0.432	-0.393	2.1	29.82	10.29
50534	-1.169	0.367	-0.385	-0.7	32.9	15.47
50551	-1.196	0.277	-0.253	-0.7	28.28	19.46
50571	-1.06	0.02	-0.214	7.49	16.1	19.25
50590	-0.87	-0.002	-0.394	13.16	13.37	10.64
50611	-0.808	0.102	-0.433	22.05	24.99	-0.56
50636	-0.882	0.292	-0.362	26.88	35.77	-5.32
50655	-0.939	0.404	-0.275	20.86	20.23	-0.91
50673	-0.912	0.362	-0.322	12.95	7.42	5.18
50693	-0.871	0.241	-0.366	6.79	3.85	6.37
50718	-0.937	0.177	-0.347	4.62	-4.06	4.76
50736	-0.929	0.198	-0.339	0.98	-9.8	2.94
50756	-0.915	0.222	-0.341	-1.96	-14.7	1.47
50776	-0.955	0.244	-0.349	-6.02	-19.46	3.64
50798	-0.981	0.205	-0.362	-6.93	-23.03	6.37
50818	-0.976	0.144	-0.316	-3.92	-23.73	6.72
50837	-0.935	0.041	-0.292	-1.19	-22.4	3.99
50862	-0.911	0.034	-0.273	2.66	-22.05	-2.17
50882	-0.948	0.087	-0.299	6.93	-30.45	-4.76
50906	-0.94	0.126	-0.367	6.3	-32.06	-5.67
50926	-1.016	0.091	-0.319	6.51	-20.3	-3.01
50945	-0.995	0.029	-0.234	10.15	-12.67	-0.91
50966	-1.045	0.012	-0.273	17.57	-24.57	-2.24
50982	-0.941	0.047	-0.378	19.81	-23.31	-3.29
51001	-0.896	0.118	-0.305	19.81	-10.85	-3.57
51026	-0.905	0.153	-0.183	11.76	-13.3	-1.82
51046	-0.884	0.156	-0.254	4.48	-14.21	-2.03
51065	-0.87	0.179	-0.394	-0.14	-6.58	-2.24
51087	-0.871	0.191	-0.352	-4.06	7.77	-0.49
51105	-0.903	0.15	-0.286	-6.37	16.31	0.84
51125	-0.956	0.099	-0.216	-7.77	16.1	0.98
51145	-1.007	0.04	-0.208	-7.98	8.05	-0.84
51168	-1.01	0.007	-0.249	-7.49	-1.75	-3.43
51188	-0.996	-0.0	-0.305	-7.91	-4.69	-6.58
51212	-1.012	0.008	-0.3	-7.07	-3.5	-7.56
51232	-1.025	0.038	-0.276	-4.34	-2.03	-6.86
51250	-1.024	0.06	-0.272	-1.05	-4.9	-6.09
51272	-0.984	0.071	-0.316	2.1	-7.77	-6.23
51289	-0.942	0.077	-0.295	2.66	-10.5	-5.6
51309	-0.918	0.073	-0.282	2.1	-15.54	-3.78
51330	-0.897	0.075	-0.311	-0.84	-15.4	-3.29
51349	-0.898	0.093	-0.311	-4.27	-12.6	-2.1
51369	-0.936	0.092	-0.313	-6.93	-8.54	-0.49
51393	-0.958	0.058	-0.329	-7.07	-3.71	0.21
51412	-0.96	0.033	-0.308	-4.69	-0.35	-0.42
51433	-0.941	0.046	-0.279	-2.59	-0.84	-0.84
51449	-0.92	0.062	-0.266	-1.75	-1.61	-0.21
51470	-0.921	0.082	-0.275	1.26	-1.61	0.7
51490	-0.909	0.075	-0.266	2.17	-3.64	3.43
51510	-0.903	0.067	-0.279	3.36	-0.7	4.2
51534	-0.939	0.09	-0.333	9.45	2.59	5.18
51555	-0.966	0.131	-0.307	14.21	9.8	7.56
51574	-1.006	0.155	-0.264	12.53	15.33	9.59
51594	-1.049	0.161	-0.231	7.49	13.16	12.25
51614	-1.058	0.142	-0.293	1.75	7.63	16.03
51633	-1.013	0.121	-0.379	3.08	12.39	20.44
51654	-0.992	0.1	-0.345	9.8	20.23	21.42
51674	-0.924	0.135	-0.261	18.34	17.85	22.12
51697	-0.853	0.129	-0.246	23.1	8.68	24.01
51714	-0.855	0.097	-0.263	26.39	5.18	25.27
51734	-0.886	0.083	-0.297	29.96	4.97	25.48
51758	-0.922	0.105	-0.321	30.24	14.21	20.3
51779	-0.95	0.182	-0.273	28.07	19.81	12.53
51798	-0.969	0.24	-0.255	24.22	13.86	9.1
51815	-1.048	0.254	-0.254	16.31	5.46	5.67
51835	-1.115	0.224	-0.298	3.78	-7.21	-1.19
51859	-1.194	0.189	-0.434	-6.23	-20.3	-7.63
51878	-1.146	0.192	-0.569	-8.96	-15.26	-11.55
51902	-1.062	0.26	-0.364	-4.06	-8.96	-13.3
51922	-0.935	0.283	-0.251	-1.89	-23.94	-12.39
51940	-0.855	0.306	-0.325	-5.25	-36.26	-15.96
51960	-0.757	0.342	-0.298	-15.33	-39.13	-15.61
51980	-0.767	0.306	-0.333	-18.06	-38.71	-13.58
52000	-0.781	0.241	-0.345	-15.54	-32.69	-10.78
52024	-0.801	0.217	-0.243	-13.02	-23.87	-9.66
52044	-0.879	0.213	-0.192	-8.89	-22.68	-8.26
52061	-0.945	0.209	-0.187	-7.56	-23.1	-6.37
52085	-0.97	0.256	-0.081	-9.24	-25.41	-3.15
52106	-0.996	0.255	-0.16	1.12	-34.65	-1.75
52125	-1.018	0.239	-0.178	4.2	-31.36	-2.1
52144	-1.017	0.28	-0.134	3.78	-34.02	-4.76
52162	-0.97	0.321	-0.178	3.92	-37.66	-5.39
52186	-0.953	0.241	-0.161	-4.97	-47.95	-3.64
52205	-0.851	0.158	-0.277	-11.97	-44.52	-1.61
52229	-0.952	0.093	-0.25	-19.46	-33.74	-3.22
52249	-1.063	-0.007	-0.247	-21.7	-19.6	-6.79
52268	-1.182	-0.122	-0.154	-26.11	-15.33	-6.86
52288	-1.2	-0.2	-0.056	-26.25	-15.19	-6.23
52306	-1.11	-0.18	-0.015	-23.59	-17.78	-5.74
52325	-1.025	-0.164	-0.02	-17.36	-29.4	-4.06
52345	-0.905	-0.088	-0.068	-8.47	-30.45	-1.75
52369	-0.881	-0.123	-0.112	-6.65	-33.46	0.77
52388	-0.859	-0.012	-0.192	-7.63	-24.36	4.55
52409	-0.976	-0.036	-0.186	-13.72	-4.2	4.13
52434	-1.158	-0.094	0.095	-21.14	-9.03	13.02
52454	-1.205	-0.168	-0.026	-20.44	3.99	8.54
52471	-1.158	-0.201	-0.029	-18.97	1.33	-3.08
52495	-1.082	-0.124	0.042	-13.65	-0.35	-8.89
52515	-1.032	-0.08	-0.089	-7.63	-6.16	-9.31
52535	-0.948	-0.044	-0.073	-5.11	-6.79	-8.33
52550	-0.885	-0.028	-0.114	-5.18	-5.95	-5.46
52575	-0.832	-0.061	-0.129	-5.39	-2.38	-2.8
52595	-0.843	-0.065	-0.081	-2.03	2.52	-3.5
52615	-0.908	-0.043	-0.061	-0.91	2.17	-1.12
52638	-0.955	-0.015	-0.068	-3.15	-0.77	1.54
52659	-0.995	0.011	-0.071	0.28	-0.77	1.68
52675	-1.068	0.02	-0.047	1.19	-2.87	3.29
52695	-1.066	-0.02	-0.039	-0.77	-1.33	5.88
52715	-1.046	-0.042	-0.013	1.82	-0.14	4.2
52734	-1.078	-0.007	-0.011	3.5	-4.34	2.1
52758	-1.089	0.009	-0.053	3.85	-7.98	2.87
52779	-1.057	-0.002	-0.078	3.78	-5.53	3.85
52798	-1.043	-0.035	-0.057	2.87	-3.64	3.29
52821	-1.036	0.008	-0.101	0.98	-2.8	3.5
52842	-1.032	0.07	-0.108	-1.54	-3.15	4.48
52858	-1.02	0.045	-0.076	-3.01	-4.62	4.2
52882	-1.039	-0.008	-0.125	-2.87	-7.56	2.52
52903	-1.006	-0.042	-0.01	-6.58	-11.06	0.77
52922	-0.938	-0.015	-0.12	-7.77	-6.58	-3.01
52942	-0.941	-0.02	-0.131	-4.9	-0.07	-5.39
52960	-0.918	-0.074	-0.141	-1.61	12.95	-7.84
52980	-0.904	-0.117	-0.132	2.03	25.34	-11.9
53004	-0.92	-0.097	-0.081	5.25	35.21	-17.99
53024	-0.968	-0.061	-0.041	-1.12	30.24	-16.73
53043	-0.986	-0.055	-0.056	-0.28	27.86	-10.92
53068	-1.026	-0.08	-0.048	0.91	29.19	-9.66
53083	-1.085	-0.057	-0.054	3.01	24.08	-8.96
53107	-1.059	-0.047	-0.126	4.9	27.02	-7.0
53127	-1.025	-0.119	-0.164	4.62	34.51	-8.47
53147	-0.935	-0.108	-0.127	10.92	41.09	-7.0
53162	-0.846	-0.109	-0.124	14.28	44.59	-6.3
53186	-0.713	-0.085	-0.287	15.26	64.47	-5.46
53210	-0.94	0.001	-0.107	14.77	79.66	-4.34
53230	-1.095	0.146	-0.019	18.55	70.77	-3.15
53250	-1.023	0.269	-0.161	16.52	68.74	-3.5
53269	-1.078	0.281	-0.23	5.18	61.04	-8.12
53289	-1.037	0.346	-0.318	-2.45	41.09	-8.61
53308	-0.995	0.357	-0.429	-11.69	28.84	-5.39
53327	-0.971	0.351	-0.481	-15.61	29.47	0.84
53353	-1.076	0.215	-0.439	-14.14	33.6	9.24
53372	-1.183	0.118	-0.392	-8.19	23.03	10.5
53390	-1.117	0.063	-0.354	5.53	20.3	6.02
53411	-1.141	0.142	-0.293	12.32	14.49	5.67
53435	-1.119	0.23	-0.253	12.53	4.13	2.73
53456	-1.021	0.268	-0.282	5.88	0.21	1.68
53475	-0.9	0.27	-0.252	0.07	-3.57	3.78
53494	-0.802	0.231	-0.265	-2.1	-11.06	6.3
53513	-0.729	0.177	-0.305	-0.21	-17.57	7.7
53537	-0.734	0.146	-0.332	5.18	-15.68	7.84
53557	-0.808	0.159	-0.299	8.47	-10.99	7.28
53576	-0.896	0.178	-0.269	10.36	-10.36	6.79
53596	-0.97	0.199	-0.282	8.89	-13.02	6.16
53616	-1.014	0.198	-0.303	6.37	-11.13	3.15
53636	-1.052	0.182	-0.26	6.09	-11.06	0.28
53660	-1.047	0.157	-0.231	10.08	-15.75	0.21
53680	-1.004	0.107	-0.237	15.96	-21.56	0.7
53700	-0.966	0.08	-0.261	19.6	-28.07	-1.05
53723	-0.944	0.076	-0.312	20.93	-34.72	-4.9
53745	-0.883	0.114	-0.354	14.77	-22.68	-9.03
53764	-0.975	0.101	-0.227	9.94	-20.23	-10.01
53779	-1.018	0.02	-0.243	9.87	-26.25	-9.17
53805	-0.995	-0.009	-0.321	13.16	-23.59	-11.69
53824	-0.965	0.081	-0.3	18.34	-18.48	-11.2
53848	-0.916	0.158	-0.285	9.45	-8.68	-7.21
53867	-0.878	0.171	-0.328	-0.28	-1.33	-6.72
53888	-0.886	0.231	-0.291	3.92	1.33	-2.31
53906	-0.912	0.219	-0.244	5.95	0.07	2.52
53930	-0.966	0.168	-0.201	2.45	-2.03	9.24
53949	-1.021	0.052	-0.207	-1.75	-7.7	8.47
53970	-1.03	-0.034	-0.249	-7.21	-11.34	3.15
53990	-0.983	0.017	-0.278	-7.49	-10.71	-0.84
54011	-0.962	0.075	-0.296	-6.79	-8.12	-2.31
54029	-0.95	0.09	-0.3	-6.16	-5.53	-2.38
54050	-0.954	0.064	-0.266	-7.35	-4.13	-1.89
54073	-0.958	0.01	-0.26	-9.03	-4.83	-3.43
54093	-0.965	-0.016	-0.268	-5.46	-2.1	-5.67
54113	-0.962	0.011	-0.261	-0.28	-1.47	-5.67
54132	-0.945	0.044	-0.264	2.45	-0.14	-3.92
54155	-0.94	0.055	-0.243	2.38	-0.84	-2.52
54177	-0.932	0.064	-0.25	-0.63	-3.43	-1.54
54197	-0.925	0.082	-0.268	-3.71	-3.64	-0.07
54215	-0.929	0.07	-0.282	-3.29	-2.03	0.49
54234	-0.928	0.074	-0.284	-3.29	-0.63	1.33
54258	-0.92	0.078	-0.264	-4.69	1.61	2.45
54279	-0.918	0.082	-0.241	-4.55	4.2	3.57
54298	-0.954	0.105	-0.247	-9.73	6.37	5.25
54317	-0.942	0.116	-0.268	-15.82	8.33	6.58
54341	-0.933	0.138	-0.307	-18.69	11.27	8.82
54361	-0.908	0.157	-0.257	-16.52	14.28	11.55
54378	-0.934	0.142	-0.18	-11.62	11.2	14.84
54400	-0.995	0.106	-0.179	-3.64	7.91	18.76
54417	-1.057	0.052	-0.182	4.27	7.98	20.16
54436	-1.081	0.007	-0.16	9.1	3.01	16.66
54459	-1.094	0.114	-0.227	6.02	-9.73	10.57
54483	-1.206	0.22	-0.303	1.26	-19.32	-0.63
54507	-1.248	0.253	-0.24	2.1	-27.23	-3.08
54523	-1.111	0.201	-0.212	3.22	-30.45	0.21
54547	-1.0	0.067	-0.197	7.77	-29.61	-1.54
54567	-0.921	0.043	-0.205	15.54	-36.19	-6.37
54583	-0.884	0.094	-0.253	18.83	-39.48	-12.32
54607	-0.867	0.186	-0.273	18.83	-37.1	-17.29
54628	-0.889	0.226	-0.205	14.56	-34.09	-18.13
54643	-0.939	0.227	-0.147	12.95	-37.24	-17.92
54665	-0.979	0.304	-0.126	15.82	-42.28	-17.5
54684	-0.996	0.436	-0.122	17.36	-40.25	-15.05
54708	-0.994	0.456	-0.088	7.77	-37.87	-11.76
54726	-0.975	0.42	-0.071	-1.75	-37.52	-9.94
54746	-0.958	0.39	-0.047	-7.56	-35.35	-8.82
54770	-0.961	0.344	-0.04	-16.31	-36.96	-7.21
54785	-0.994	0.277	-0.084	-19.6	-29.75	-6.93
54806	-1.066	0.242	-0.091	-21.14	-17.57	-5.67
54826	-1.053	0.176	0.039	-22.47	-7.42	-2.03
54849	-1.032	0.135	0.086	-19.95	-13.65	0.21
54870	-0.961	0.121	-0.064	-11.48	-26.53	5.74
54888	-0.963	0.043	-0.125	-8.4	-18.76	9.8
54913	-1.017	0.009	-0.009	-13.72	-6.09	15.05
54928	-1.043	-0.041	-0.02	-16.8	-7.84	16.31
54952	-0.998	-0.112	-0.09	-18.06	-10.08	14.49
54972	-1.013	-0.205	-0.142	-17.85	-7.42	9.17
54992	-1.017	-0.23	-0.26	-15.96	8.68	1.33
55009	-0.957	-0.137	-0.187	-17.85	23.17	-6.65
55027	-0.934	-0.027	0.083	-14.42	22.26	-10.5
55051	-0.895	0.053	0.065	-10.43	-8.19	-3.08
55072	-0.862	0.013	-0.193	-6.16	-13.02	8.89
55091	-0.962	-0.051	-0.133	-5.53	-5.81	13.09
55114	-1.052	-0.014	-0.109	-3.15	-13.3	13.58
55134	-1.122	-0.033	-0.13	-1.33	-13.09	12.81
55154	-1.193	-0.09	-0.161	-1.89	-8.54	8.33
55176	-1.143	-0.072	-0.091	4.9	0.84	4.62
55199	-1.109	-0.094	0.061	10.57	1.47	2.1
55220	-1.091	-0.137	0.038	12.18	-9.66	1.19
55239	-0.976	-0.155	0.268	13.09	-13.16	-2.45
55263	-0.818	-0.114	-0.05	13.3	-17.01	-7.21
55288	-0.753	-0.103	-0.071	10.71	1.12	-12.32
55306	-0.853	-0.022	0.12	12.18	4.97	-11.83
55329	-0.973	0.027	0.072	10.64	0.28	-5.46
55349	-1.109	0.026	0.052	8.61	0.14	-0.63
55369	-1.119	0.022	0.02	3.64	-0.63	-1.12
55393	-1.094	0.068	0.05	-0.91	-1.89	-3.43
55413	-1.094	0.08	-0.009	-5.25	-4.27	-5.53
55434	-1.066	0.055	-0.162	-7.77	8.33	-4.27
55451	-1.057	0.061	-0.1	-6.93	16.73	-2.87
55471	-0.997	0.042	-0.018	-8.61	19.74	-0.07
55491	-0.981	-0.005	0.015	-8.82	14.63	-0.7
55512	-0.984	-0.012	0.011	-8.05	7.07	-2.52
55533	-0.975	-0.021	-0.09	-5.32	5.25	-2.45
55553	-0.998	-0.067	-0.078	-4.34	7.35	-2.03
55578	-0.946	-0.101	-0.092	0.28	6.86	-3.71
55597	-0.945	-0.061	-0.04	7.63	4.9	-6.3
55615	-0.937	-0.03	-0.124	10.15	0.7	-6.3
55635	-0.927	-0.027	-0.207	11.9	11.34	-4.9
55657	-0.996	-0.077	-0.135	16.59	28.91	-6.58
55678	-1.012	-0.058	-0.03	22.54	33.04	-11.34
55697	-1.03	-0.012	0.053	16.31	16.59	-7.77
55721	-0.982	-0.073	-0.157	16.52	10.36	-7.14
55741	-0.954	-0.075	-0.24	15.4	34.86	-9.24
55758	-0.996	0.0	-0.132	15.68	45.29	-10.5
55777	-0.996	0.03	-0.017	12.88	43.89	-9.59
55803	-1.017	-0.063	0.0	6.79	28.49	-13.37
55821	-1.005	-0.05	-0.151	5.95	29.05	-11.41
55837	-0.953	0.026	-0.215	9.45	39.62	-9.03
55863	-0.93	0.037	-0.16	11.34	47.6	-4.55
55881	-0.937	-0.1	-0.117	10.92	55.16	-0.21
55905	-0.981	-0.103	-0.159	12.6	51.38	2.87
55925	-1.038	-0.026	-0.252	14.42	50.54	4.55
55945	-0.995	-0.015	-0.284	16.03	54.39	0.28
55965	-0.924	-0.021	-0.328	14.7	48.72	-6.09
55985	-0.894	0.066	-0.347	10.29	43.05	-13.02
56009	-0.858	0.129	-0.421	-4.9	44.73	-12.6
56027	-0.96	0.202	-0.415	-10.08	50.12	-6.02
56051	-1.107	0.223	-0.363	-12.88	48.93	8.61
56071	-1.051	0.15	-0.403	-8.61	46.41	7.77
56090	-1.057	0.14	-0.399	-2.66	40.81	5.04
56115	-1.106	0.132	-0.369	2.73	26.67	1.82
56131	-1.082	0.203	-0.366	5.39	19.6	2.45
56155	-1.058	0.31	-0.343	8.47	12.95	6.23
56175	-0.95	0.339	-0.34	0.56	-0.35	13.86
56195	-0.854	0.269	-0.386	-1.89	-5.88	18.34
56215	-0.805	0.21	-0.436	-5.25	-1.54	20.3
56234	-0.803	0.163	-0.434	-7.14	2.73	19.67
56257	-0.886	0.14	-0.387	-6.16	4.76	16.24
56277	-0.942	0.15	-0.323	-6.09	1.82	13.58
56296	-0.946	0.148	-0.308	-4.83	-3.43	11.69
56321	-0.943	0.159	-0.323	0.84	-8.19	11.06
56340	-0.925	0.172	-0.359	6.44	-11.13	9.94
56359	-0.917	0.191	-0.339	7.63	-12.53	8.12
56383	-0.94	0.189	-0.28	8.89	-18.76	7.07
56403	-0.951	0.154	-0.273	12.32	-24.78	5.67
56427	-0.954	0.117	-0.277	18.76	-29.68	1.96
56447	-1.009	0.09	-0.282	25.41	-43.96	-1.47
56466	-0.991	0.079	-0.442	28.63	-46.48	-6.37
56486	-0.994	0.076	-0.471	21.91	-33.67	-10.43
56510	-1.001	0.025	-0.436	9.03	-17.71	-15.96
56530	-0.927	0.001	-0.409	-3.15	-5.18	-16.8
56550	-0.862	0.079	-0.36	-4.97	0.07	-13.79
56570	-0.832	0.109	-0.291	1.33	-0.21	-9.87
56589	-0.826	0.115	-0.264	8.68	-8.19	-4.55
56610	-0.857	0.097	-0.31	17.5	-12.6	0.35
56633	-0.92	0.123	-0.349	12.46	-16.03	3.29
56653	-0.933	0.141	-0.394	3.57	-8.61	3.78
56677	-0.936	0.144	-0.429	-3.78	5.74	1.96
56694	-0.951	0.122	-0.352	-6.16	9.87	0.84
56717	-0.944	0.083	-0.316	-8.47	9.94	1.19
56737	-0.969	0.004	-0.284	-10.36	4.55	0.28
56757	-0.95	-0.03	-0.33	-11.41	-0.28	-2.52
56781	-0.936	-0.012	-0.375	-10.71	-1.68	-5.67
56799	-0.9	0.043	-0.388	-10.57	0.07	-7.49
56823	-0.879	0.102	-0.333	-10.5	2.45	-5.81
56843	-0.907	0.119	-0.31	-11.48	0.49	-2.59
56860	-0.921	0.112	-0.347	-12.67	-0.42	-0.7
56880	-0.914	0.101	-0.363	-13.93	1.82	-0.14
56902	-0.911	0.1	-0.364	-16.1	4.27	-1.05
56925	-0.896	0.105	-0.371	-17.22	4.41	-1.61
56941	-0.887	0.104	-0.378	-18.62	4.97	-1.54
56965	-0.877	0.107	-0.362	-21.77	5.88	-1.19
56986	-0.88	0.109	-0.343	-24.71	6.58	-0.7
57003	-0.887	0.12	-0.331	-25.13	8.82	-0.35
57022	-0.878	0.121	-0.331	-27.23	10.29	0.7
57047	-0.865	0.119	-0.386	-30.24	12.18	1.96
57068	-0.905	0.124	-0.394	-26.39	17.22	4.34
57084	-0.945	0.131	-0.362	-21.0	18.06	6.3
