Timestamp,AccelX,AccelY,AccelZ,GyroX,GyroY,GyroZ
1743891619.63964,-0.04148000106215477,-0.05075199902057648,1.0516400337219238,0.7699999809265137,-2.5899999141693115,-0.7699999809265137
1743891619.65964,-0.03660000115633011,-0.05124000087380409,1.0550559759140015,0.8399999737739563,-2.5199999809265137,-0.7699999809265137
1743891619.67964,-0.03660000115633011,-0.05660799890756607,1.0516400337219238,0.8399999737739563,-2.450000047683716,-0.7699999809265137
1743891619.69964,-0.035624001175165176,-0.057096000760793686,1.0540800094604492,0.8399999737739563,-2.5199999809265137,-0.7699999809265137
1743891619.71964,-0.03513599932193756,-0.05807200074195862,1.0521279573440552,0.7699999809265137,-2.5199999809265137,-0.8399999737739563
1743891619.73964,-0.031231999397277832,-0.06002400070428848,1.052616000175476,0.8399999737739563,-2.450000047683716,-0.8399999737739563
1743891619.668454,-0.0302559994161129,-0.05904800072312355,1.0540800094604492,0.7699999809265137,-2.380000114440918,-0.8399999737739563
1743891619.688454,-0.02781599946320057,-0.05904800072312355,1.0516400337219238,0.9100000262260437,-2.5199999809265137,-0.8399999737739563
1743891619.708454,-0.03172000125050545,-0.057583998888731,1.0550559759140015,0.9800000190734863,-2.380000114440918,-0.7699999809265137
1743891619.7284539,-0.032207999378442764,-0.05514400079846382,1.0540800094604492,0.9800000190734863,-2.450000047683716,-0.7699999809265137
1743891619.7484539,-0.035624001175165176,-0.05075199902057648,1.0545680522918701,0.9800000190734863,-2.450000047683716,-0.7699999809265137
1743891619.7684538,-0.03611199930310249,-0.05075199902057648,1.0516400337219238,1.0499999523162842,-2.5199999809265137,-0.7699999809265137
1743891619.715328,-0.03660000115633011,-0.045871999114751816,1.0540800094604492,1.1200000047683716,-2.450000047683716,-0.8399999737739563
1743891619.735328,-0.04001599922776222,-0.04684799909591675,1.053104043006897,0.9100000262260437,-2.309999942779541,-0.7699999809265137
1743891619.755328,-0.03855200111865997,-0.043432001024484634,1.0521279573440552,1.0499999523162842,-2.380000114440918,-0.7699999809265137
1743891619.775328,-0.04148000106215477,-0.040991999208927155,1.0555440187454224,0.8399999737739563,-2.380000114440918,-0.7699999809265137
1743891619.795328,-0.039528001099824905,-0.03855200111865997,1.0550559759140015,0.8399999737739563,-2.450000047683716,-0.7699999809265137
1743891619.815328,-0.04196799919009209,-0.04148000106215477,1.0516400337219238,0.9100000262260437,-2.5899999141693115,-0.7699999809265137
1743891619.7903302,-0.0424560010433197,-0.045871999114751816,1.0540800094604492,0.9100000262260437,-2.450000047683716,-0.7699999809265137
1743891619.8103302,-0.039528001099824905,-0.0453840009868145,1.053104043006897,0.8399999737739563,-2.450000047683716,-0.8399999737739563
1743891619.8303301,-0.037087999284267426,-0.05319200083613396,1.0550559759140015,0.7699999809265137,-2.450000047683716,-0.8399999737739563
1743891619.85033,-0.035624001175165176,-0.05514400079846382,1.050663948059082,0.8399999737739563,-2.5899999141693115,-0.699999988079071
1743891619.87033,-0.034648001194000244,-0.05953599885106087,1.0540800094604492,0.7699999809265137,-2.5899999141693115,-0.8399999737739563
1743891619.89033,-0.03513599932193756,-0.058559998869895935,1.053104043006897,0.9100000262260437,-2.450000047683716,-0.7699999809265137
1743891619.8034923,-0.0302559994161129,-0.06002400070428848,1.0535919666290283,0.9800000190734863,-2.5199999809265137,-0.8399999737739563
1743891619.8234923,-0.029767999425530434,-0.05660799890756607,1.052616000175476,0.9800000190734863,-2.380000114440918,-0.7699999809265137
1743891619.8434923,-0.032207999378442764,-0.05514400079846382,1.0535919666290283,0.9100000262260437,-2.450000047683716,-0.7699999809265137
1743891619.8634923,-0.032207999378442764,-0.052216000854969025,1.0521279573440552,0.9100000262260437,-2.309999942779541,-0.7699999809265137
1743891619.8834922,-0.03367200121283531,-0.049775999039411545,1.052616000175476,0.9800000190734863,-2.5199999809265137,-0.699999988079071
1743891619.9034922,-0.03757600113749504,-0.048312000930309296,1.053104043006897,0.9100000262260437,-2.450000047683716,-0.699999988079071
1743891619.849518,-0.037087999284267426,-0.0453840009868145,1.051151990890503,1.0499999523162842,-2.380000114440918,-0.699999988079071
1743891619.869518,-0.04148000106215477,-0.04391999915242195,1.0540800094604492,0.9800000190734863,-2.380000114440918,-0.699999988079071
1743891619.889518,-0.039528001099824905,-0.043432001024484634,1.052616000175476,0.9100000262260437,-2.450000047683716,-0.699999988079071
1743891619.909518,-0.04148000106215477,-0.0424560010433197,1.052616000175476,0.9100000262260437,-2.450000047683716,-0.699999988079071
1743891619.929518,-0.040991999208927155,-0.04294399917125702,1.0540800094604492,0.9100000262260437,-2.380000114440918,-0.7699999809265137
1743891619.949518,-0.04148000106215477,-0.044895999133586884,1.0555440187454224,0.8399999737739563,-2.380000114440918,-0.699999988079071
1743891619.8933372,-0.039528001099824905,-0.04782399907708168,1.0516400337219238,0.7699999809265137,-2.5199999809265137,-0.7699999809265137
1743891619.9133372,-0.04001599922776222,-0.04684799909591675,1.0540800094604492,0.8399999737739563,-2.450000047683716,-0.7699999809265137
1743891619.9333372,-0.03855200111865997,-0.05026400089263916,1.0555440187454224,0.8399999737739563,-2.5199999809265137,-0.8399999737739563
1743891619.9533372,-0.034648001194000244,-0.05270399898290634,1.0535919666290283,0.8399999737739563,-2.5199999809265137,-0.7699999809265137
1743891619.9733372,-0.03513599932193756,-0.053679998964071274,1.052616000175476,0.8399999737739563,-2.450000047683716,-0.7699999809265137
1743891619.9933372,-0.03269600123167038,-0.05807200074195862,1.0535919666290283,0.8399999737739563,-2.5899999141693115,-0.9100000262260437
1743891619.9236262,-0.03269600123167038,-0.05953599885106087,1.0521279573440552,0.8399999737739563,-2.450000047683716,-0.7699999809265137
1743891619.9436262,-0.03269600123167038,-0.06002400070428848,1.0540800094604492,0.8399999737739563,-2.5899999141693115,-0.7699999809265137
1743891619.9636261,-0.03367200121283531,-0.05904800072312355,1.0545680522918701,0.9800000190734863,-2.5199999809265137,-0.8399999737739563
1743891619.9836261,-0.03415999934077263,-0.057096000760793686,1.0555440187454224,0.9100000262260437,-2.5199999809265137,-0.8399999737739563
1743891620.003626,-0.03367200121283531,-0.056120000779628754,1.0550559759140015,1.1200000047683716,-2.5199999809265137,-0.699999988079071
1743891620.023626,-0.035624001175165176,-0.054655998945236206,1.0545680522918701,0.9800000190734863,-2.450000047683716,-0.7699999809265137
1743891619.9846852,-0.03513599932193756,-0.049775999039411545,1.053104043006897,1.0499999523162842,-2.450000047683716,-0.6299999952316284
1743891620.0046852,-0.039528001099824905,-0.04879999905824661,1.0516400337219238,0.9800000190734863,-2.450000047683716,-0.7699999809265137
1743891620.0246851,-0.03757600113749504,-0.0453840009868145,1.0535919666290283,0.9800000190734863,-2.380000114440918,-0.7699999809265137
1743891620.0446851,-0.04050400108098984,-0.043432001024484634,1.0521279573440552,0.9800000190734863,-2.450000047683716,-0.7699999809265137
1743891620.064685,-0.04001599922776222,-0.04440800100564957,1.0521279573440552,0.9800000190734863,-2.450000047683716,-0.8399999737739563
1743891620.084685,-0.03806399926543236,-0.043432001024484634,1.0516400337219238,0.9100000262260437,-2.450000047683716,-0.7699999809265137
1743891620.0418272,-0.03855200111865997,-0.04196799919009209,1.050663948059082,0.9100000262260437,-2.5199999809265137,-0.7699999809265137
1743891620.0618272,-0.037087999284267426,-0.04636000096797943,1.0535919666290283,0.9100000262260437,-2.450000047683716,-0.7699999809265137
1743891620.0818272,-0.03611199930310249,-0.05075199902057648,1.0545680522918701,0.9100000262260437,-2.5199999809265137,-0.699999988079071
1743891620.1018271,-0.037087999284267426,-0.05319200083613396,1.053104043006897,0.9100000262260437,-2.5899999141693115,-0.699999988079071
1743891620.1218271,-0.034648001194000244,-0.052216000854969025,1.052616000175476,0.699999988079071,-2.5199999809265137,-0.7699999809265137
1743891620.141827,-0.035624001175165176,-0.056120000779628754,1.0545680522918701,0.8399999737739563,-2.5899999141693115,-0.7699999809265137
1743891620.074344,-0.03513599932193756,-0.05904800072312355,1.0545680522918701,0.9100000262260437,-2.5199999809265137,-0.699999988079071
1743891620.094344,-0.034648001194000244,-0.057096000760793686,1.0521279573440552,0.9800000190734863,-2.5199999809265137,-0.7699999809265137
1743891620.114344,-0.03660000115633011,-0.058559998869895935,1.0550559759140015,0.9100000262260437,-2.5199999809265137,-0.7699999809265137
1743891620.1343439,-0.037087999284267426,-0.05904800072312355,1.0560319423675537,1.0499999523162842,-2.5199999809265137,-0.8399999737739563
1743891620.1543438,-0.03513599932193756,-0.05660799890756607,1.0545680522918701,0.9800000190734863,-2.380000114440918,-0.7699999809265137
1743891620.1743438,-0.03660000115633011,-0.049775999039411545,1.0662800073623657,0.9100000262260437,-2.6600000858306885,-0.7699999809265137
1743891620.10324,-0.03513599932193756,-0.049775999039411545,1.0467599630355835,1.6100000143051147,-2.240000009536743,-0.8399999737739563
1743891620.12324,-0.035624001175165176,-0.04391999915242195,1.0555440187454224,0.5600000023841858,-2.5899999141693115,-0.7699999809265137
1743891620.14324,-0.035624001175165176,-0.04782399907708168,1.0623760223388672,1.1200000047683716,-2.380000114440918,-0.7699999809265137
1743891620.16324,-0.03757600113749504,-0.04294399917125702,1.0540800094604492,0.8399999737739563,-2.5199999809265137,-0.9100000262260437
1743891620.18324,-0.03660000115633011,-0.04391999915242195,1.0501760244369507,0.8399999737739563,-2.309999942779541,-0.7699999809265137
1743891620.20324,-0.040991999208927155,-0.045871999114751816,1.0574959516525269,1.0499999523162842,-2.5899999141693115,-0.699999988079071
1743891620.148818,-0.04001599922776222,-0.04782399907708168,1.0487120151519775,0.9100000262260437,-2.450000047683716,-0.699999988079071
1743891620.168818,-0.03757600113749504,-0.048312000930309296,1.052616000175476,0.7699999809265137,-2.5199999809265137,-0.7699999809265137
1743891620.188818,-0.039528001099824905,-0.05319200083613396,1.0540800094604492,0.9800000190734863,-2.380000114440918,-0.8399999737739563
1743891620.208818,-0.03903999924659729,-0.05319200083613396,1.050663948059082,0.8399999737739563,-2.450000047683716,-0.8399999737739563
1743891620.228818,-0.03757600113749504,-0.053679998964071274,1.0570080280303955,0.9800000190734863,-2.450000047683716,-0.7699999809265137
1743891620.248818,-0.03513599932193756,-0.05416800081729889,1.0487120151519775,0.7699999809265137,-2.5199999809265137,-0.7699999809265137
1743891620.195687,-0.035624001175165176,-0.054655998945236206,1.0487120151519775,0.9800000190734863,-2.5199999809265137,-0.699999988079071
1743891620.215687,-0.035624001175165176,-0.05563199892640114,1.0648159980773926,1.0499999523162842,-2.309999942779541,-0.699999988079071
1743891620.235687,-0.03367200121283531,-0.052216000854969025,1.0487120151519775,1.1200000047683716,-2.380000114440918,-0.7699999809265137
1743891620.255687,-0.03367200121283531,-0.05660799890756607,1.0560319423675537,0.9800000190734863,-2.380000114440918,-0.7699999809265137
1743891620.275687,-0.030743999406695366,-0.054655998945236206,1.051151990890503,0.9100000262260437,-2.5199999809265137,-0.7699999809265137
1743891620.295687,-0.034648001194000244,-0.05319200083613396,1.050663948059082,0.9800000190734863,-2.5199999809265137,-0.7699999809265137
1743891620.238737,-0.03415999934077263,-0.05319200083613396,1.0565199851989746,1.0499999523162842,-2.450000047683716,-0.7699999809265137
1743891620.258737,-0.037087999284267426,-0.05026400089263916,1.0516400337219238,1.1200000047683716,-2.380000114440918,-0.7699999809265137
1743891620.278737,-0.03415999934077263,-0.05026400089263916,1.0545680522918701,1.0499999523162842,-2.5199999809265137,-0.699999988079071
1743891620.298737,-0.03611199930310249,-0.048312000930309296,1.052616000175476,0.7699999809265137,-2.450000047683716,-0.9100000262260437
1743891620.318737,-0.03757600113749504,-0.04636000096797943,1.0521279573440552,1.0499999523162842,-2.380000114440918,-0.9100000262260437
1743891620.338737,-0.03757600113749504,-0.0424560010433197,1.0496879816055298,1.190000057220459,-2.5199999809265137,-0.8399999737739563
1743891620.284585,-0.03611199930310249,-0.0453840009868145,1.07750403881073,0.2800000011920929,-2.5199999809265137,-0.7699999809265137
1743891620.304585,-0.03611199930310249,-0.04879999905824661,1.0604239702224731,1.8200000524520874,-2.240000009536743,-0.7699999809265137
1743891620.324585,-0.03757600113749504,-0.04148000106215477,1.053104043006897,0.49000000953674316,-2.7300000190734863,-0.699999988079071
1743891620.344585,-0.037087999284267426,-0.05124000087380409,1.0535919666290283,1.2599999904632568,-2.309999942779541,-0.699999988079071
1743891620.364585,-0.03806399926543236,-0.04733600094914436,1.044808030128479,0.9800000190734863,-2.7300000190734863,-0.7699999809265137
1743891620.384585,-0.035624001175165176,-0.05319200083613396,1.0540800094604492,0.9100000262260437,-2.380000114440918,-0.699999988079071
1743891620.330332,-0.037087999284267426,-0.05319200083613396,1.0555440187454224,0.699999988079071,-2.5899999141693115,-0.699999988079071
1743891620.350332,-0.03415999934077263,-0.05270399898290634,1.0521279573440552,0.9800000190734863,-2.450000047683716,-0.7699999809265137
1743891620.370332,-0.035624001175165176,-0.05270399898290634,1.0565199851989746,1.190000057220459,-2.380000114440918,-0.7699999809265137
1743891620.390332,-0.035624001175165176,-0.056120000779628754,1.0413919687271118,0.8399999737739563,-2.5199999809265137,-0.8399999737739563
1743891620.410332,-0.034648001194000244,-0.06002400070428848,1.0643279552459717,1.190000057220459,-2.5899999141693115,-0.7699999809265137
1743891620.430332,-0.03757600113749504,-0.05075199902057648,1.0452959537506104,0.699999988079071,-2.6600000858306885,-0.699999988079071
1743891620.387659,-0.03757600113749504,-0.05563199892640114,1.061400055885315,0.699999988079071,-2.380000114440918,-0.7699999809265137
1743891620.407659,-0.034648001194000244,-0.05075199902057648,1.0540800094604492,0.9100000262260437,-2.5199999809265137,-0.7699999809265137
1743891620.427659,-0.03855200111865997,-0.049775999039411545,1.0545680522918701,0.9100000262260437,-2.380000114440918,-0.699999988079071
1743891620.447659,-0.03660000115633011,-0.043432001024484634,1.0516400337219238,1.1200000047683716,-2.309999942779541,-0.699999988079071
1743891620.467659,-0.034648001194000244,-0.04636000096797943,1.0574959516525269,1.190000057220459,-2.380000114440918,-0.699999988079071
1743891620.487659,-0.03513599932193756,-0.04196799919009209,1.0516400337219238,0.9100000262260437,-2.5199999809265137,-0.7699999809265137
1743891620.419462,-0.03660000115633011,-0.04148000106215477,1.0496879816055298,0.9800000190734863,-2.380000114440918,-0.7699999809265137
1743891620.439462,-0.03611199930310249,-0.04391999915242195,1.0516400337219238,0.9800000190734863,-2.380000114440918,-0.8399999737739563
1743891620.459462,-0.035624001175165176,-0.05075199902057648,1.0550559759140015,0.8399999737739563,-2.380000114440918,-0.9800000190734863
1743891620.479462,-0.03611199930310249,-0.05270399898290634,1.053104043006897,0.9800000190734863,-2.450000047683716,-0.699999988079071
1743891620.499462,-0.037087999284267426,-0.05172799900174141,1.0550559759140015,0.699999988079071,-2.5899999141693115,-0.9100000262260437
1743891620.5194619,-0.034648001194000244,-0.05416800081729889,1.0570080280303955,1.1200000047683716,-2.309999942779541,-0.9100000262260437
1743891620.462748,-0.03415999934077263,-0.05124000087380409,1.0657919645309448,0.7699999809265137,-2.5899999141693115,-0.9100000262260437
1743891620.482748,-0.0331839993596077,-0.056120000779628754,1.0501760244369507,1.0499999523162842,-2.450000047683716,-0.8399999737739563
1743891620.502748,-0.035624001175165176,-0.053679998964071274,1.0604239702224731,0.7699999809265137,-2.5199999809265137,-0.8399999737739563
1743891620.522748,-0.034648001194000244,-0.056120000779628754,1.052616000175476,0.9800000190734863,-2.450000047683716,-0.699999988079071
1743891620.542748,-0.03660000115633011,-0.05319200083613396,1.0496879816055298,0.9100000262260437,-2.450000047683716,-0.6299999952316284
1743891620.562748,-0.03660000115633011,-0.053679998964071274,1.0550559759140015,0.9100000262260437,-2.450000047683716,-0.6299999952316284
1743891620.4934652,-0.039528001099824905,-0.05026400089263916,1.0535919666290283,0.7699999809265137,-2.5199999809265137,-0.6299999952316284
1743891620.5134652,-0.03855200111865997,-0.05416800081729889,1.0535919666290283,1.1200000047683716,-2.450000047683716,-0.6299999952316284
1743891620.5334651,-0.04148000106215477,-0.04928800091147423,1.050663948059082,0.6299999952316284,-2.6600000858306885,-0.699999988079071
1743891620.5534651,-0.044895999133586884,-0.05270399898290634,1.085312008857727,0.699999988079071,-2.1700000762939453,-0.699999988079071
1743891620.573465,-0.039528001099824905,-0.04733600094914436,1.0326080322265625,1.0499999523162842,-2.240000009536743,-0.9100000262260437
1743891620.593465,-0.037087999284267426,-0.053679998964071274,1.0701839923858643,1.0499999523162842,-2.309999942779541,-0.8399999737739563
1743891620.538752,-0.03660000115633011,-0.04636000096797943,1.0394400358200073,0.7699999809265137,-2.5899999141693115,-0.9100000262260437
1743891620.558752,-0.03269600123167038,-0.045871999114751816,1.0623760223388672,0.9800000190734863,-2.450000047683716,-0.8399999737739563
1743891620.578752,-0.029279999434947968,-0.0453840009868145,1.0570080280303955,1.1200000047683716,-2.5899999141693115,-0.8399999737739563
1743891620.598752,-0.030743999406695366,-0.04733600094914436,1.051151990890503,0.8399999737739563,-2.450000047683716,-0.7699999809265137
1743891620.618752,-0.029767999425530434,-0.045871999114751816,1.0579839944839478,0.8399999737739563,-2.5199999809265137,-0.5600000023841858
1743891620.638752,-0.03367200121283531,-0.05075199902057648,1.0482239723205566,1.1200000047683716,-2.309999942779541,-0.6299999952316284
1743891620.597577,-0.0302559994161129,-0.05026400089263916,1.0574959516525269,0.9100000262260437,-2.6600000858306885,-0.699999988079071
1743891620.617577,-0.03269600123167038,-0.052216000854969025,1.0452959537506104,0.699999988079071,-2.450000047683716,-0.699999988079071
1743891620.637577,-0.03611199930310249,-0.053679998964071274,1.0565199851989746,0.49000000953674316,-2.5899999141693115,-0.7699999809265137
1743891620.657577,-0.03660000115633011,-0.057583998888731,1.0438319444656372,0.9100000262260437,-2.450000047683716,-0.6299999952316284
1743891620.677577,-0.03806399926543236,-0.06148799881339073,1.0535919666290283,1.190000057220459,-2.309999942779541,-0.699999988079071
1743891620.697577,-0.03513599932193756,-0.05563199892640114,1.0487120151519775,0.699999988079071,-2.5199999809265137,-0.7699999809265137
1743891620.6429381,-0.03757600113749504,-0.06002400070428848,1.1058080196380615,0.41999998688697815,-2.1700000762939453,-0.9100000262260437
1743891620.662938,-0.035624001175165176,-0.05026400089263916,1.02675199508667,1.4700000286102295,-2.240000009536743,-0.9100000262260437
1743891620.682938,-0.03806399926543236,-0.05563199892640114,1.0706720352172852,0.5600000023841858,-2.240000009536743,-0.7699999809265137
1743891620.702938,-0.035624001175165176,-0.04636000096797943,1.051151990890503,1.0499999523162842,-2.380000114440918,-0.8399999737739563
1743891620.722938,-0.03903999924659729,-0.044895999133586884,1.0423680543899536,0.9800000190734863,-2.380000114440918,-0.7699999809265137
1743891620.742938,-0.03855200111865997,-0.044895999133586884,1.0555440187454224,1.190000057220459,-2.380000114440918,-0.8399999737739563
1743891620.6731572,-0.04196799919009209,-0.044895999133586884,1.0496879816055298,0.9100000262260437,-2.380000114440918,-0.699999988079071
1743891620.6931572,-0.039528001099824905,-0.04294399917125702,1.0487120151519775,0.9800000190734863,-2.450000047683716,-0.699999988079071
1743891620.7131572,-0.04391999915242195,-0.0453840009868145,1.0897040367126465,0.14000000059604645,-2.940000057220459,-0.7699999809265137
1743891620.7331572,-0.03611199930310249,-0.058559998869895935,1.0555440187454224,1.399999976158142,-2.0999999046325684,-0.699999988079071
1743891620.7531571,-0.044895999133586884,-0.04928800091147423,1.0555440187454224,0.14000000059604645,-2.6600000858306885,-0.8399999737739563
1743891620.7731571,-0.03367200121283531,-0.0605119988322258,1.0589599609375,1.2599999904632568,-2.309999942779541,-0.7699999809265137
1743891620.721898,-0.03611199930310249,-0.05319200083613396,1.0599360466003418,0.07000000029802322,-2.869999885559082,-0.9800000190734863
1743891620.741898,-0.0331839993596077,-0.061000000685453415,1.051151990890503,1.5399999618530273,-2.1700000762939453,-0.8399999737739563
1743891620.761898,-0.032207999378442764,-0.05270399898290634,1.0638400316238403,1.1200000047683716,-2.380000114440918,-0.9100000262260437
1743891620.781898,-0.022935999557375908,-0.04928800091147423,1.0457839965820312,1.4700000286102295,-2.240000009536743,-0.8399999737739563
1743891620.801898,-0.022935999557375908,-0.049775999039411545,1.0589599609375,0.9800000190734863,-2.380000114440918,-0.8399999737739563
1743891620.821898,-0.028303999453783035,-0.04196799919009209,1.0482239723205566,0.9800000190734863,-2.380000114440918,-0.6299999952316284
1743891620.7645051,-0.02537599951028824,-0.0424560010433197,1.050663948059082,0.6299999952316284,-2.450000047683716,-0.7699999809265137
1743891620.7845051,-0.029767999425530434,-0.04733600094914436,1.0599360466003418,1.0499999523162842,-2.380000114440918,-0.6299999952316284
1743891620.804505,-0.032207999378442764,-0.045871999114751816,1.0589599609375,0.41999998688697815,-2.5899999141693115,-0.5600000023841858
1743891620.824505,-0.037087999284267426,-0.05026400089263916,1.0482239723205566,1.2599999904632568,-2.240000009536743,-0.5600000023841858
1743891620.844505,-0.04001599922776222,-0.05172799900174141,1.059448003768921,0.7699999809265137,-2.450000047683716,-0.6299999952316284
1743891620.864505,-0.040991999208927155,-0.05416800081729889,1.0482239723205566,0.9800000190734863,-2.450000047683716,-0.699999988079071
1743891620.823239,-0.05026400089263916,-0.05172799900174141,1.0462720394134521,0.7699999809265137,-2.450000047683716,-0.9100000262260437
1743891620.843239,-0.04391999915242195,-0.05514400079846382,1.059448003768921,0.9800000190734863,-2.5899999141693115,-0.8399999737739563
1743891620.863239,-0.04636000096797943,-0.054655998945236206,1.0379760265350342,1.0499999523162842,-2.1700000762939453,-0.8399999737739563
1743891620.883239,-0.043432001024484634,-0.05563199892640114,1.0989760160446167,0.9100000262260437,-2.6600000858306885,-0.9100000262260437
1743891620.903239,-0.037087999284267426,-0.049775999039411545,1.0433440208435059,0.07000000029802322,-2.869999885559082,-0.9100000262260437
1743891620.923239,-0.04196799919009209,-0.04782399907708168,1.0711599588394165,1.399999976158142,-2.240000009536743,-0.7699999809265137
1743891620.854706,-0.0331839993596077,-0.044895999133586884,1.0501760244369507,1.190000057220459,-2.309999942779541,-0.7699999809265137
1743891620.874706,-0.03269600123167038,-0.049775999039411545,1.0555440187454224,0.8399999737739563,-2.5899999141693115,-0.699999988079071
1743891620.894706,-0.032207999378442764,-0.05270399898290634,1.059448003768921,0.8399999737739563,-2.5899999141693115,-0.7699999809265137
1743891620.914706,-0.03269600123167038,-0.05319200083613396,1.0452959537506104,0.8399999737739563,-2.5899999141693115,-0.7699999809265137
1743891620.934706,-0.03172000125050545,-0.05563199892640114,1.0550559759140015,0.8399999737739563,-2.380000114440918,-0.699999988079071
1743891620.954706,-0.032207999378442764,-0.056120000779628754,1.0369999408721924,1.0499999523162842,-2.380000114440918,-0.9100000262260437
1743891620.8982663,-0.029279999434947968,-0.05953599885106087,1.0306559801101685,1.399999976158142,-2.240000009536743,-0.7699999809265137
1743891620.9182663,-0.04050400108098984,-0.049775999039411545,1.0736000537872314,0.3499999940395355,-2.869999885559082,-0.7699999809265137
1743891620.9382663,-0.03172000125050545,-0.057583998888731,1.052616000175476,1.3300000429153442,-2.309999942779541,-0.8399999737739563
1743891620.9582663,-0.04001599922776222,-0.0453840009868145,1.0482239723205566,0.9100000262260437,-2.450000047683716,-0.7699999809265137
1743891620.9782662,-0.03611199930310249,-0.0453840009868145,1.0570080280303955,0.9800000190734863,-2.380000114440918,-0.7699999809265137
1743891620.9982662,-0.04148000106215477,-0.043432001024484634,1.0521279573440552,1.0499999523162842,-2.380000114440918,-0.7699999809265137
1743891620.929203,-0.04196799919009209,-0.040991999208927155,1.044808030128479,0.7699999809265137,-2.450000047683716,-0.699999988079071
1743891620.949203,-0.039528001099824905,-0.04196799919009209,1.0555440187454224,1.6100000143051147,-2.1700000762939453,-0.5600000023841858
1743891620.969203,-0.04196799919009209,-0.04294399917125702,1.0311440229415894,-0.07000000029802322,-2.869999885559082,-0.699999988079071
1743891620.989203,-0.04001599922776222,-0.05514400079846382,1.0809199810028076,0.7699999809265137,-2.6600000858306885,-0.49000000953674316
1743891621.009203,-0.0453840009868145,-0.05124000087380409,1.0472480058670044,0.3499999940395355,-2.7300000190734863,-0.699999988079071
1743891621.029203,-0.043432001024484634,-0.061000000685453415,1.0565199851989746,0.8399999737739563,-2.5199999809265137,-0.8399999737739563
1743891621.0030982,-0.03611199930310249,-0.0605119988322258,1.0570080280303955,0.9100000262260437,-2.5199999809265137,-0.7699999809265137
1743891621.0230982,-0.035624001175165176,-0.057583998888731,1.0570080280303955,1.2599999904632568,-2.240000009536743,-0.8399999737739563
1743891621.0430982,-0.027327999472618103,-0.054655998945236206,1.0482239723205566,1.399999976158142,-2.380000114440918,-0.9800000190734863
1743891621.0630982,-0.03269600123167038,-0.05807200074195862,1.0716480016708374,0.49000000953674316,-2.5899999141693115,-0.9100000262260437
1743891621.0830982,-0.027327999472618103,-0.05319200083613396,1.0369999408721924,1.4700000286102295,-2.240000009536743,-0.8399999737739563
1743891621.1030982,-0.03806399926543236,-0.045871999114751816,1.0574959516525269,0.9100000262260437,-2.450000047683716,-0.7699999809265137
1743891621.0199602,-0.03269600123167038,-0.04928800091147423,1.0570080280303955,1.0499999523162842,-2.380000114440918,-0.7699999809265137
1743891621.0399601,-0.03757600113749504,-0.04391999915242195,1.0438319444656372,1.0499999523162842,-2.450000047683716,-0.699999988079071
1743891621.0599601,-0.03903999924659729,-0.04782399907708168,1.0560319423675537,0.7699999809265137,-2.5199999809265137,-0.5600000023841858
1743891621.07996,-0.03806399926543236,-0.0424560010433197,1.0330959558486938,1.0499999523162842,-2.309999942779541,-0.6299999952316284
1743891621.09996,-0.0453840009868145,-0.04294399917125702,1.0335839986801147,-0.07000000029802322,-2.869999885559082,-0.6299999952316284
1743891621.11996,-0.03513599932193756,-0.058559998869895935,1.0765279531478882,1.6799999475479126,-2.0999999046325684,-0.6299999952316284
1743891621.0793931,-0.043432001024484634,-0.045871999114751816,1.0438319444656372,-0.5600000023841858,-2.940000057220459,-0.8399999737739563
1743891621.0993931,-0.029279999434947968,-0.06295199692249298,1.0638400316238403,1.3300000429153442,-2.0999999046325684,-0.9100000262260437
1743891621.119393,-0.03269600123167038,-0.04782399907708168,1.0379760265350342,0.6299999952316284,-2.5199999809265137,-0.9800000190734863
1743891621.139393,-0.0302559994161129,-0.05172799900174141,1.0565199851989746,1.2599999904632568,-2.309999942779541,-1.0499999523162842
1743891621.159393,-0.025863999500870705,-0.04928800091147423,1.0589599609375,1.190000057220459,-2.6600000858306885,-0.9100000262260437
1743891621.179393,-0.023423999547958374,-0.04928800091147423,1.050663948059082,1.190000057220459,-2.380000114440918,-0.9100000262260437
1743891621.108195,-0.03269600123167038,-0.048312000930309296,1.061400055885315,0.8399999737739563,-2.5199999809265137,-0.7699999809265137
1743891621.128195,-0.034648001194000244,-0.05075199902057648,1.0521279573440552,0.8399999737739563,-2.5899999141693115,-0.6299999952316284
1743891621.148195,-0.03367200121283531,-0.05124000087380409,1.0487120151519775,1.0499999523162842,-2.450000047683716,-0.5600000023841858
1743891621.168195,-0.040991999208927155,-0.05319200083613396,1.0574959516525269,0.41999998688697815,-2.5899999141693115,-0.6299999952316284
1743891621.188195,-0.04148000106215477,-0.06148799881339073,1.0487120151519775,1.2599999904632568,-2.380000114440918,-0.7699999809265137
1743891621.208195,-0.04684799909591675,-0.05904800072312355,1.0565199851989746,0.49000000953674316,-2.5899999141693115,-0.699999988079071
1743891621.153341,-0.04294399917125702,-0.057583998888731,1.0389519929885864,1.3300000429153442,-2.1700000762939453,-0.7699999809265137
1743891621.173341,-0.05026400089263916,-0.053679998964071274,1.0496879816055298,1.3300000429153442,-2.309999942779541,-0.9100000262260437
1743891621.193341,-0.04050400108098984,-0.052216000854969025,1.034559965133667,1.9600000381469727,-1.9600000381469727,-1.1200000047683716
1743891621.213341,-0.0424560010433197,-0.043432001024484634,1.0623760223388672,0.5600000023841858,-2.6600000858306885,-1.0499999523162842
1743891621.233341,-0.03513599932193756,-0.037087999284267426,1.0535919666290283,1.190000057220459,-2.380000114440918,-0.8399999737739563
1743891621.253341,-0.0331839993596077,-0.030743999406695366,1.0492000579833984,0.9100000262260437,-2.5899999141693115,-0.8399999737739563
1743891621.21426,-0.026839999482035637,-0.03415999934077263,1.0565199851989746,1.1200000047683716,-2.5199999809265137,-0.699999988079071
1743891621.23426,-0.027327999472618103,-0.035624001175165176,1.052616000175476,0.699999988079071,-2.450000047683716,-0.699999988079071
1743891621.25426,-0.024887999519705772,-0.03757600113749504,1.0516400337219238,0.9100000262260437,-2.450000047683716,-0.6299999952316284
1743891621.27426,-0.030743999406695366,-0.04928800091147423,1.0545680522918701,0.9800000190734863,-2.450000047683716,-0.49000000953674316
1743891621.29426,-0.029279999434947968,-0.048312000930309296,1.044808030128479,0.699999988079071,-2.799999952316284,-0.699999988079071
1743891621.31426,-0.035624001175165176,-0.06197600066661835,1.0501760244369507,0.8399999737739563,-2.5199999809265137,-0.699999988079071
1743891621.2739782,-0.03903999924659729,-0.06392800062894821,1.051151990890503,0.699999988079071,-2.5899999141693115,-0.8399999737739563
1743891621.2939782,-0.040991999208927155,-0.0663679987192154,1.0535919666290283,1.2599999904632568,-2.309999942779541,-0.8399999737739563
1743891621.3139782,-0.04294399917125702,-0.06929600238800049,1.0565199851989746,0.9100000262260437,-2.309999942779541,-0.9100000262260437
1743891621.3339782,-0.039528001099824905,-0.0663679987192154,1.050663948059082,0.9100000262260437,-2.5199999809265137,-0.9100000262260437
1743891621.3539782,-0.04148000106215477,-0.05660799890756607,1.0492000579833984,0.9100000262260437,-2.380000114440918,-0.8399999737739563
1743891621.3739781,-0.03855200111865997,-0.04879999905824661,1.0545680522918701,0.8399999737739563,-2.450000047683716,-0.8399999737739563
1743891621.346389,-0.035624001175165176,-0.04148000106215477,1.051151990890503,0.9800000190734863,-2.5199999809265137,-0.5600000023841858
1743891621.366389,-0.034648001194000244,-0.04294399917125702,1.0574959516525269,1.0499999523162842,-2.450000047683716,-0.5600000023841858
1743891621.386389,-0.03611199930310249,-0.04148000106215477,1.0545680522918701,0.699999988079071,-2.7300000190734863,-0.6299999952316284
1743891621.406389,-0.03611199930310249,-0.04733600094914436,1.052616000175476,0.7699999809265137,-2.450000047683716,-0.699999988079071
1743891621.426389,-0.03757600113749504,-0.04782399907708168,1.0545680522918701,0.6299999952316284,-2.5199999809265137,-0.5600000023841858
1743891621.446389,-0.03611199930310249,-0.05075199902057648,1.053104043006897,1.1200000047683716,-2.380000114440918,-0.7699999809265137
1743891621.349149,-0.03757600113749504,-0.049775999039411545,1.051151990890503,0.699999988079071,-2.5899999141693115,-0.9800000190734863
1743891621.369149,-0.037087999284267426,-0.052216000854969025,1.053104043006897,1.190000057220459,-2.380000114440918,-0.9800000190734863
1743891621.389149,-0.03757600113749504,-0.04733600094914436,1.0540800094604492,0.9800000190734863,-2.5199999809265137,-0.9100000262260437
1743891621.409149,-0.03806399926543236,-0.05026400089263916,1.0404160022735596,1.6100000143051147,-2.240000009536743,-0.8399999737739563
1743891621.429149,-0.03855200111865997,-0.0453840009868145,1.0604239702224731,0.7699999809265137,-2.6600000858306885,-0.9100000262260437
1743891621.449149,-0.03611199930310249,-0.05026400089263916,1.0516400337219238,1.1200000047683716,-2.450000047683716,-0.8399999737739563
1743891621.3803892,-0.034648001194000244,-0.04636000096797943,1.0482239723205566,0.9800000190734863,-2.5899999141693115,-0.7699999809265137
1743891621.4003892,-0.03415999934077263,-0.05270399898290634,1.0545680522918701,0.7699999809265137,-2.309999942779541,-0.6299999952316284
1743891621.4203892,-0.034648001194000244,-0.054655998945236206,1.0540800094604492,0.6299999952316284,-2.5199999809265137,-0.5600000023841858
1743891621.4403892,-0.0302559994161129,-0.056120000779628754,1.0472480058670044,0.9100000262260437,-2.450000047683716,-0.6299999952316284
1743891621.4603891,-0.0302559994161129,-0.053679998964071274,1.0638400316238403,0.6299999952316284,-2.5899999141693115,-0.699999988079071
1743891621.480389,-0.035624001175165176,-0.05953599885106087,1.0574959516525269,1.1200000047683716,-2.450000047683716,-0.7699999809265137
1743891621.4230752,-0.03415999934077263,-0.05270399898290634,1.044319987297058,0.7699999809265137,-2.380000114440918,-0.7699999809265137
1743891621.4430752,-0.0331839993596077,-0.05660799890756607,1.0584720373153687,0.8399999737739563,-2.5199999809265137,-0.699999988079071
1743891621.4630752,-0.035624001175165176,-0.05124000087380409,1.0521279573440552,1.1200000047683716,-2.450000047683716,-0.8399999737739563
1743891621.4830751,-0.03513599932193756,-0.05075199902057648,1.0535919666290283,0.9100000262260437,-2.380000114440918,-0.9100000262260437
1743891621.5030751,-0.03903999924659729,-0.04879999905824661,1.0574959516525269,0.8399999737739563,-2.309999942779541,-0.9100000262260437
1743891621.523075,-0.03611199930310249,-0.044895999133586884,1.0550559759140015,1.3300000429153442,-2.380000114440918,-0.8399999737739563
1743891621.468211,-0.04050400108098984,-0.045871999114751816,1.052616000175476,0.9800000190734863,-2.450000047683716,-0.699999988079071
1743891621.488211,-0.04001599922776222,-0.045871999114751816,1.0550559759140015,1.0499999523162842,-2.5199999809265137,-0.699999988079071
1743891621.508211,-0.04391999915242195,-0.04636000096797943,1.0516400337219238,0.9100000262260437,-2.450000047683716,-0.699999988079071
1743891621.5282109,-0.0424560010433197,-0.04928800091147423,1.0516400337219238,0.699999988079071,-2.5199999809265137,-0.6299999952316284
1743891621.5482109,-0.04050400108098984,-0.04928800091147423,1.0545680522918701,0.8399999737739563,-2.450000047683716,-0.5600000023841858
1743891621.5682108,-0.03757600113749504,-0.05563199892640114,1.0521279573440552,0.8399999737739563,-2.450000047683716,-0.699999988079071
1743891621.542452,-0.03757600113749504,-0.05563199892640114,1.0560319423675537,0.7699999809265137,-2.5199999809265137,-0.7699999809265137
1743891621.562452,-0.03415999934077263,-0.054655998945236206,1.051151990890503,0.9100000262260437,-2.450000047683716,-0.9800000190734863
1743891621.582452,-0.030743999406695366,-0.05270399898290634,1.0545680522918701,0.9100000262260437,-2.450000047683716,-0.9100000262260437
1743891621.602452,-0.0287919994443655,-0.05172799900174141,1.0550559759140015,0.8399999737739563,-2.450000047683716,-0.9800000190734863
1743891621.622452,-0.028303999453783035,-0.04928800091147423,1.0535919666290283,1.1200000047683716,-2.309999942779541,-0.9100000262260437
1743891621.642452,-0.027327999472618103,-0.04733600094914436,1.0555440187454224,0.8399999737739563,-2.5199999809265137,-0.8399999737739563
1743891621.5715,-0.0287919994443655,-0.04636000096797943,1.0545680522918701,0.9800000190734863,-2.380000114440918,-0.699999988079071
1743891621.5915,-0.03415999934077263,-0.045871999114751816,1.051151990890503,0.9100000262260437,-2.380000114440918,-0.7699999809265137
1743891621.6115,-0.03367200121283531,-0.04782399907708168,1.0535919666290283,0.8399999737739563,-2.380000114440918,-0.699999988079071
1743891621.6315,-0.03903999924659729,-0.05075199902057648,1.0521279573440552,0.8399999737739563,-2.450000047683716,-0.699999988079071
1743891621.6515,-0.03903999924659729,-0.05124000087380409,1.0574959516525269,0.8399999737739563,-2.5899999141693115,-0.699999988079071
1743891621.6715,-0.04001599922776222,-0.054655998945236206,1.0521279573440552,0.7699999809265137,-2.450000047683716,-0.7699999809265137
1743891621.603241,-0.04196799919009209,-0.056120000779628754,1.0535919666290283,0.9100000262260437,-2.450000047683716,-0.699999988079071
1743891621.623241,-0.040991999208927155,-0.05514400079846382,1.051151990890503,1.0499999523162842,-2.450000047683716,-0.699999988079071
1743891621.643241,-0.0424560010433197,-0.05319200083613396,1.053104043006897,0.8399999737739563,-2.5199999809265137,-0.9100000262260437
1743891621.663241,-0.03903999924659729,-0.056120000779628754,1.0540800094604492,0.9800000190734863,-2.450000047683716,-0.8399999737739563
1743891621.683241,-0.03660000115633011,-0.05270399898290634,1.0501760244369507,0.9800000190734863,-2.450000047683716,-0.9100000262260437
1743891621.7032409,-0.034648001194000244,-0.05075199902057648,1.0540800094604492,1.0499999523162842,-2.5199999809265137,-0.7699999809265137
1743891621.6491992,-0.034648001194000244,-0.0453840009868145,1.0540800094604492,0.9800000190734863,-2.450000047683716,-0.7699999809265137
1743891621.6691992,-0.03367200121283531,-0.048312000930309296,1.052616000175476,0.9800000190734863,-2.5199999809265137,-0.699999988079071
1743891621.6891992,-0.031231999397277832,-0.04636000096797943,1.053104043006897,0.7699999809265137,-2.7300000190734863,-0.699999988079071
1743891621.7091992,-0.03367200121283531,-0.049775999039411545,1.0540800094604492,0.8399999737739563,-2.5199999809265137,-0.699999988079071
1743891621.7291992,-0.03660000115633011,-0.05075199902057648,1.0535919666290283,0.7699999809265137,-2.450000047683716,-0.699999988079071
1743891621.7491992,-0.03660000115633011,-0.05416800081729889,1.0492000579833984,0.7699999809265137,-2.5199999809265137,-0.699999988079071
1743891621.6944351,-0.03806399926543236,-0.05319200083613396,1.0296800136566162,0.7699999809265137,-2.240000009536743,-0.699999988079071
1743891621.714435,-0.03806399926543236,-0.057583998888731,1.10971200466156,1.5399999618530273,-1.9600000381469727,-0.699999988079071
1743891621.734435,-0.03903999924659729,-0.049775999039411545,1.0321199893951416,1.1200000047683716,-3.009999990463257,-0.9100000262260437
1743891621.754435,-0.03806399926543236,-0.05953599885106087,1.0677440166473389,0.8399999737739563,-2.5199999809265137,-0.8399999737739563
1743891621.774435,-0.039528001099824905,-0.04879999905824661,1.042855978012085,0.7699999809265137,-2.5899999141693115,-0.8399999737739563
1743891621.794435,-0.03513599932193756,-0.04879999905824661,1.0521279573440552,0.9800000190734863,-2.450000047683716,-0.8399999737739563
1743891621.7403352,-0.03513599932193756,-0.0453840009868145,1.0570080280303955,0.9100000262260437,-2.5199999809265137,-0.7699999809265137
1743891621.7603352,-0.03269600123167038,-0.045871999114751816,1.0477360486984253,0.9800000190734863,-2.450000047683716,-0.699999988079071
1743891621.7803352,-0.03269600123167038,-0.044895999133586884,1.0560319423675537,0.699999988079071,-2.5199999809265137,-0.699999988079071
1743891621.8003352,-0.03367200121283531,-0.04879999905824661,1.0545680522918701,1.2599999904632568,-2.309999942779541,-0.699999988079071
1743891621.8203351,-0.03269600123167038,-0.04440800100564957,1.0521279573440552,0.49000000953674316,-2.5199999809265137,-0.699999988079071
1743891621.8403351,-0.035624001175165176,-0.05416800081729889,1.0618879795074463,0.7699999809265137,-2.5199999809265137,-0.6299999952316284
1743891621.784776,-0.03806399926543236,-0.05563199892640114,1.0433440208435059,0.8399999737739563,-2.5199999809265137,-0.8399999737739563
1743891621.804776,-0.04148000106215477,-0.057583998888731,1.0565199851989746,0.699999988079071,-2.450000047683716,-0.9100000262260437
1743891621.824776,-0.03611199930310249,-0.05563199892640114,1.0496879816055298,1.3300000429153442,-2.309999942779541,-0.8399999737739563
1743891621.844776,-0.043432001024484634,-0.053679998964071274,1.053104043006897,0.9100000262260437,-2.380000114440918,-0.8399999737739563
1743891621.864776,-0.04001599922776222,-0.053679998964071274,1.0560319423675537,1.1200000047683716,-2.5199999809265137,-0.8399999737739563
1743891621.8847759,-0.040991999208927155,-0.05026400089263916,1.0501760244369507,0.9100000262260437,-2.5199999809265137,-0.8399999737739563
1743891621.8456352,-0.03660000115633011,-0.05026400089263916,1.0535919666290283,0.9800000190734863,-2.450000047683716,-0.7699999809265137
1743891621.8656352,-0.03855200111865997,-0.044895999133586884,1.0516400337219238,0.7699999809265137,-2.5199999809265137,-0.7699999809265137
1743891621.8856351,-0.034648001194000244,-0.0453840009868145,1.0501760244369507,1.1200000047683716,-2.380000114440918,-0.7699999809265137
1743891621.905635,-0.031231999397277832,-0.04733600094914436,1.0545680522918701,1.1200000047683716,-2.5899999141693115,-0.699999988079071
1743891621.925635,-0.03415999934077263,-0.05075199902057648,1.0492000579833984,0.9100000262260437,-2.5199999809265137,-0.6299999952316284
1743891621.945635,-0.03172000125050545,-0.049775999039411545,1.0545680522918701,0.9100000262260437,-2.5899999141693115,-0.699999988079071
1743891621.859054,-0.03367200121283531,-0.05026400089263916,1.0521279573440552,0.9100000262260437,-2.5199999809265137,-0.6299999952316284
1743891621.879054,-0.03367200121283531,-0.049775999039411545,1.051151990890503,0.7699999809265137,-2.5199999809265137,-0.8399999737739563
1743891621.899054,-0.03367200121283531,-0.05319200083613396,1.0623760223388672,1.1200000047683716,-2.7300000190734863,-0.9100000262260437
1743891621.919054,-0.0302559994161129,-0.05563199892640114,1.0389519929885864,0.9800000190734863,-2.0299999713897705,-0.8399999737739563
1743891621.939054,-0.039528001099824905,-0.05270399898290634,1.0682320594787598,0.07000000029802322,-2.7300000190734863,-0.9100000262260437
1743891621.959054,-0.03367200121283531,-0.054655998945236206,1.0521279573440552,1.4700000286102295,-2.309999942779541,-0.7699999809265137
1743891621.918834,-0.037087999284267426,-0.05124000087380409,1.0487120151519775,1.0499999523162842,-2.5199999809265137,-0.7699999809265137
1743891621.938834,-0.03757600113749504,-0.052216000854969025,1.0521279573440552,1.0499999523162842,-2.5199999809265137,-0.7699999809265137
1743891621.958834,-0.039528001099824905,-0.053679998964071274,1.060912013053894,1.1200000047683716,-2.380000114440918,-0.7699999809265137
1743891621.978834,-0.035624001175165176,-0.04879999905824661,1.0438319444656372,0.9800000190734863,-2.450000047683716,-0.7699999809265137
1743891621.998834,-0.03806399926543236,-0.05514400079846382,1.0667680501937866,0.9800000190734863,-2.5199999809265137,-0.5600000023841858
1743891622.0188339,-0.03903999924659729,-0.05172799900174141,1.0423680543899536,0.8399999737739563,-2.5199999809265137,-0.7699999809265137
1743891621.9489732,-0.03757600113749504,-0.04733600094914436,1.0462720394134521,0.699999988079071,-2.5199999809265137,-0.6299999952316284
1743891621.9689732,-0.03806399926543236,-0.05172799900174141,1.060912013053894,0.9800000190734863,-2.450000047683716,-0.7699999809265137
1743891621.9889731,-0.037087999284267426,-0.04928800091147423,1.0487120151519775,0.9800000190734863,-2.5199999809265137,-0.8399999737739563
1743891622.0089731,-0.03757600113749504,-0.05026400089263916,1.0535919666290283,0.8399999737739563,-2.450000047683716,-0.8399999737739563
1743891622.028973,-0.03855200111865997,-0.049775999039411545,1.0584720373153687,1.0499999523162842,-2.450000047683716,-0.8399999737739563
1743891622.048973,-0.03269600123167038,-0.04733600094914436,1.0423680543899536,0.9800000190734863,-2.7300000190734863,-0.7699999809265137
1743891621.992883,-0.037087999284267426,-0.052216000854969025,1.061400055885315,0.6299999952316284,-2.380000114440918,-0.9800000190734863
1743891622.012883,-0.03806399926543236,-0.04928800091147423,1.0550559759140015,0.7699999809265137,-2.5199999809265137,-0.9100000262260437
1743891622.032883,-0.03757600113749504,-0.05124000087380409,1.052616000175476,0.9800000190734863,-2.5199999809265137,-0.8399999737739563
1743891622.052883,-0.03757600113749504,-0.05026400089263916,1.0574959516525269,1.0499999523162842,-2.450000047683716,-0.699999988079071
1743891622.072883,-0.03660000115633011,-0.052216000854969025,1.0540800094604492,0.9800000190734863,-2.380000114440918,-0.8399999737739563
1743891622.0928829,-0.03269600123167038,-0.05319200083613396,1.053104043006897,0.9100000262260437,-2.450000047683716,-0.7699999809265137
1743891622.051413,-0.037087999284267426,-0.05270399898290634,1.0574959516525269,0.9100000262260437,-2.5899999141693115,-0.7699999809265137
1743891622.071413,-0.03660000115633011,-0.05416800081729889,1.0409040451049805,1.190000057220459,-2.5199999809265137,-0.699999988079071
1743891622.091413,-0.035624001175165176,-0.05172799900174141,1.0716480016708374,0.6299999952316284,-2.309999942779541,-0.699999988079071
1743891622.111413,-0.03513599932193756,-0.05124000087380409,1.042855978012085,1.2599999904632568,-2.240000009536743,-0.7699999809265137
1743891622.131413,-0.03415999934077263,-0.052216000854969025,1.0570080280303955,0.9100000262260437,-2.380000114440918,-0.7699999809265137
1743891622.151413,-0.035624001175165176,-0.044895999133586884,1.0516400337219238,0.9800000190734863,-2.380000114440918,-0.8399999737739563
1743891622.084005,-0.03757600113749504,-0.04879999905824661,1.0516400337219238,1.3300000429153442,-2.309999942779541,-0.699999988079071
1743891622.104005,-0.03806399926543236,-0.0453840009868145,1.0477360486984253,1.2599999904632568,-2.450000047683716,-0.8399999737739563
1743891622.124005,-0.03903999924659729,-0.04440800100564957,1.050663948059082,0.49000000953674316,-2.5199999809265137,-0.9100000262260437
1743891622.144005,-0.039528001099824905,-0.04684799909591675,1.050663948059082,1.190000057220459,-2.450000047683716,-0.7699999809265137
1743891622.164005,-0.04050400108098984,-0.049775999039411545,1.0516400337219238,0.7699999809265137,-2.5199999809265137,-0.6299999952316284
1743891622.184005,-0.03757600113749504,-0.049775999039411545,1.0545680522918701,1.1200000047683716,-2.380000114440918,-0.8399999737739563
1743891622.1290011,-0.03855200111865997,-0.05026400089263916,1.0457839965820312,0.8399999737739563,-2.380000114440918,-0.699999988079071
1743891622.1490011,-0.03855200111865997,-0.05124000087380409,1.0516400337219238,0.699999988079071,-2.6600000858306885,-0.699999988079071
1743891622.169001,-0.03415999934077263,-0.05319200083613396,1.050663948059082,1.2599999904632568,-2.380000114440918,-0.699999988079071
1743891622.189001,-0.03611199930310249,-0.05270399898290634,1.0560319423675537,0.6299999952316284,-2.6600000858306885,-0.699999988079071
1743891622.209001,-0.03269600123167038,-0.056120000779628754,1.0555440187454224,1.1200000047683716,-2.380000114440918,-0.699999988079071
1743891622.229001,-0.034648001194000244,-0.05319200083613396,1.051151990890503,0.9100000262260437,-2.5899999141693115,-0.9100000262260437
1743891622.158869,-0.034648001194000244,-0.05514400079846382,1.0535919666290283,0.9100000262260437,-2.450000047683716,-0.699999988079071
1743891622.178869,-0.03269600123167038,-0.052216000854969025,1.052616000175476,1.1200000047683716,-2.450000047683716,-0.9100000262260437
1743891622.198869,-0.03415999934077263,-0.049775999039411545,1.0540800094604492,0.8399999737739563,-2.380000114440918,-0.7699999809265137
1743891622.218869,-0.03415999934077263,-0.05319200083613396,1.0550559759140015,1.190000057220459,-2.450000047683716,-0.9100000262260437
1743891622.238869,-0.03415999934077263,-0.05026400089263916,1.0501760244369507,1.190000057220459,-2.5199999809265137,-0.699999988079071
1743891622.258869,-0.03513599932193756,-0.04928800091147423,1.0535919666290283,1.0499999523162842,-2.450000047683716,-0.7699999809265137
1743891622.202843,-0.037087999284267426,-0.049775999039411545,1.0467599630355835,1.1200000047683716,-2.309999942779541,-0.7699999809265137
1743891622.222843,-0.03806399926543236,-0.04879999905824661,1.0599360466003418,0.6299999952316284,-2.5899999141693115,-0.6299999952316284
1743891622.242843,-0.04148000106215477,-0.05563199892640114,1.0731120109558105,1.3300000429153442,-2.450000047683716,-0.7699999809265137
1743891622.262843,-0.04148000106215477,-0.04733600094914436,1.050663948059082,0.49000000953674316,-2.5899999141693115,-0.7699999809265137
1743891622.2828429,-0.03757600113749504,-0.05270399898290634,1.0560319423675537,1.5399999618530273,-2.240000009536743,-0.7699999809265137
1743891622.3028429,-0.040991999208927155,-0.04782399907708168,1.0492000579833984,0.699999988079071,-2.5199999809265137,-0.7699999809265137
1743891622.2614312,-0.03903999924659729,-0.05124000087380409,1.0545680522918701,0.7699999809265137,-2.450000047683716,-0.8399999737739563
1743891622.2814312,-0.035624001175165176,-0.05075199902057648,1.0565199851989746,0.8399999737739563,-2.5199999809265137,-0.7699999809265137
1743891622.3014312,-0.03855200111865997,-0.048312000930309296,1.0643279552459717,0.2800000011920929,-2.799999952316284,-0.7699999809265137
1743891622.3214312,-0.031231999397277832,-0.05563199892640114,1.051151990890503,1.75,-2.0999999046325684,-0.6299999952316284
1743891622.3414311,-0.03757600113749504,-0.04928800091147423,1.0516400337219238,0.20999999344348907,-2.799999952316284,-0.7699999809265137
1743891622.3614311,-0.0287919994443655,-0.05416800081729889,1.0570080280303955,1.399999976158142,-2.309999942779541,-0.699999988079071
1743891622.2950652,-0.03611199930310249,-0.04879999905824661,1.0570080280303955,0.9100000262260437,-2.5199999809265137,-0.7699999809265137
1743891622.3150651,-0.03415999934077263,-0.04928800091147423,1.0472480058670044,0.8399999737739563,-2.5899999141693115,-0.7699999809265137
1743891622.3350651,-0.031231999397277832,-0.05270399898290634,1.0599360466003418,1.3300000429153442,-2.309999942779541,-0.699999988079071
1743891622.355065,-0.03855200111865997,-0.05124000087380409,1.0545680522918701,0.6299999952316284,-2.6600000858306885,-0.6299999952316284
1743891622.375065,-0.034648001194000244,-0.05026400089263916,1.052616000175476,1.1200000047683716,-2.309999942779541,-0.8399999737739563
1743891622.395065,-0.040991999208927155,-0.05124000087380409,1.052616000175476,0.8399999737739563,-2.380000114440918,-0.7699999809265137
1743891622.338365,-0.03757600113749504,-0.05124000087380409,1.0496879816055298,0.9800000190734863,-2.309999942779541,-0.7699999809265137
1743891622.358365,-0.03903999924659729,-0.04782399907708168,1.0472480058670044,0.9100000262260437,-2.450000047683716,-0.7699999809265137
1743891622.378365,-0.03415999934077263,-0.049775999039411545,1.0501760244369507,1.0499999523162842,-2.380000114440918,-0.8399999737739563
1743891622.398365,-0.0331839993596077,-0.04636000096797943,1.0570080280303955,0.8399999737739563,-2.450000047683716,-0.7699999809265137
1743891622.418365,-0.03757600113749504,-0.05026400089263916,1.0550559759140015,0.9100000262260437,-2.5199999809265137,-0.7699999809265137
1743891622.438365,-0.0287919994443655,-0.04879999905824661,1.0516400337219238,0.9800000190734863,-2.380000114440918,-0.8399999737739563
1743891622.383166,-0.039528001099824905,-0.053679998964071274,1.1204479932785034,0.3499999940395355,-2.869999885559082,-0.9800000190734863
1743891622.403166,-0.024399999529123306,-0.05172799900174141,1.035048007965088,2.380000114440918,-1.8899999856948853,-0.7699999809265137
1743891622.423166,-0.03903999924659729,-0.05124000087380409,1.0657919645309448,0.3499999940395355,-2.6600000858306885,-0.8399999737739563
1743891622.443166,-0.03513599932193756,-0.058559998869895935,1.0731120109558105,1.1200000047683716,-2.450000047683716,-0.8399999737739563
1743891622.463166,-0.04294399917125702,-0.05124000087380409,1.035048007965088,0.9800000190734863,-2.380000114440918,-0.7699999809265137
1743891622.483166,-0.040991999208927155,-0.05026400089263916,1.0482239723205566,0.7699999809265137,-2.450000047683716,-0.699999988079071
1743891622.4272263,-0.04440800100564957,-0.05904800072312355,1.075551986694336,0.8399999737739563,-2.450000047683716,-0.699999988079071
1743891622.4472263,-0.04050400108098984,-0.05075199902057648,1.0438319444656372,0.6299999952316284,-2.869999885559082,-0.7699999809265137
1743891622.4672263,-0.04294399917125702,-0.06148799881339073,1.0779919624328613,0.9800000190734863,-2.240000009536743,-0.8399999737739563
1743891622.4872262,-0.04001599922776222,-0.053679998964071274,1.050663948059082,1.4700000286102295,-2.6600000858306885,-0.8399999737739563
1743891622.5072262,-0.03806399926543236,-0.05416800081729889,1.052616000175476,0.49000000953674316,-2.5899999141693115,-0.7699999809265137
1743891622.5272262,-0.035624001175165176,-0.049775999039411545,1.0648159980773926,0.9100000262260437,-2.450000047683716,-0.8399999737739563
1743891622.4608772,-0.03415999934077263,-0.048312000930309296,1.0452959537506104,0.7699999809265137,-2.5899999141693115,-0.9100000262260437
1743891622.4808772,-0.03172000125050545,-0.052216000854969025,1.042855978012085,0.7699999809265137,-2.5199999809265137,-0.8399999737739563
1743891622.5008771,-0.029279999434947968,-0.045871999114751816,1.0633519887924194,0.7699999809265137,-2.380000114440918,-0.9100000262260437
1743891622.5208771,-0.0302559994161129,-0.04196799919009209,1.0433440208435059,1.190000057220459,-2.380000114440918,-0.8399999737739563
1743891622.540877,-0.029279999434947968,-0.04294399917125702,1.051151990890503,0.9100000262260437,-2.450000047683716,-0.699999988079071
1743891622.560877,-0.027327999472618103,-0.04391999915242195,1.044808030128479,0.8399999737739563,-2.5899999141693115,-0.699999988079071
1743891622.5060532,-0.03757600113749504,-0.054655998945236206,1.0814080238342285,0.3499999940395355,-2.240000009536743,-0.699999988079071
1743891622.5260532,-0.03269600123167038,-0.054655998945236206,1.044808030128479,1.2599999904632568,-2.450000047683716,-0.7699999809265137
1743891622.5460532,-0.03660000115633011,-0.054655998945236206,1.0565199851989746,0.7699999809265137,-2.5899999141693115,-0.5600000023841858
1743891622.5660532,-0.03415999934077263,-0.05416800081729889,1.0535919666290283,1.0499999523162842,-2.380000114440918,-0.7699999809265137
1743891622.5860531,-0.04050400108098984,-0.05270399898290634,1.051151990890503,0.9100000262260437,-2.450000047683716,-0.9100000262260437
1743891622.606053,-0.03903999924659729,-0.054655998945236206,1.0521279573440552,0.9100000262260437,-2.5199999809265137,-0.8399999737739563
1743891622.552653,-0.040991999208927155,-0.052216000854969025,1.0555440187454224,1.1200000047683716,-2.5899999141693115,-0.7699999809265137
1743891622.572653,-0.03757600113749504,-0.045871999114751816,1.0521279573440552,0.9100000262260437,-2.450000047683716,-0.8399999737739563
1743891622.592653,-0.039528001099824905,-0.04879999905824661,1.0565199851989746,1.0499999523162842,-2.380000114440918,-0.699999988079071
1743891622.612653,-0.03660000115633011,-0.044895999133586884,1.052616000175476,0.6299999952316284,-2.7300000190734863,-0.699999988079071
1743891622.632653,-0.032207999378442764,-0.04636000096797943,1.0482239723205566,0.6299999952316284,-2.5899999141693115,-0.6299999952316284
1743891622.652653,-0.035624001175165176,-0.05026400089263916,1.0716480016708374,0.6299999952316284,-2.380000114440918,-0.7699999809265137
1743891622.593703,-0.03757600113749504,-0.04391999915242195,1.0291919708251953,0.41999998688697815,-2.5899999141693115,-0.7699999809265137
1743891622.613703,-0.03757600113749504,-0.05319200083613396,1.0736000537872314,0.3499999940395355,-2.7300000190734863,-0.7699999809265137
1743891622.633703,-0.0331839993596077,-0.05807200074195862,1.0623760223388672,0.9100000262260437,-2.450000047683716,-0.8399999737739563
1743891622.653703,-0.04148000106215477,-0.05319200083613396,1.0433440208435059,0.699999988079071,-2.380000114440918,-0.7699999809265137
1743891622.673703,-0.04001599922776222,-0.05563199892640114,1.0604239702224731,0.9800000190734863,-2.380000114440918,-0.9100000262260437
1743891622.693703,-0.0424560010433197,-0.05270399898290634,1.0462720394134521,1.1200000047683716,-2.240000009536743,-0.8399999737739563
1743891622.641522,-0.03855200111865997,-0.05172799900174141,1.0574959516525269,0.8399999737739563,-2.380000114440918,-0.7699999809265137
1743891622.661522,-0.03903999924659729,-0.05319200083613396,1.0555440187454224,0.9800000190734863,-2.450000047683716,-0.7699999809265137
1743891622.681522,-0.034648001194000244,-0.04782399907708168,1.0433440208435059,0.7699999809265137,-2.380000114440918,-0.7699999809265137
1743891622.7015219,-0.035624001175165176,-0.04636000096797943,1.061400055885315,0.8399999737739563,-2.5199999809265137,-0.6299999952316284
1743891622.7215219,-0.028303999453783035,-0.05026400089263916,1.0384639501571655,1.190000057220459,-2.309999942779541,-0.699999988079071
1743891622.7415218,-0.03172000125050545,-0.049775999039411545,1.0467599630355835,0.6299999952316284,-2.5899999141693115,-0.699999988079071
1743891622.685321,-0.029767999425530434,-0.05563199892640114,1.0799440145492554,1.3300000429153442,-2.309999942779541,-0.699999988079071
1743891622.705321,-0.0287919994443655,-0.05026400089263916,1.0404160022735596,1.0499999523162842,-2.6600000858306885,-0.8399999737739563
1743891622.725321,-0.02781599946320057,-0.054655998945236206,1.0545680522918701,0.9800000190734863,-2.380000114440918,-0.699999988079071
1743891622.745321,-0.03367200121283531,-0.05172799900174141,1.0574959516525269,1.1200000047683716,-2.380000114440918,-0.7699999809265137
1743891622.765321,-0.03513599932193756,-0.052216000854969025,1.051151990890503,0.8399999737739563,-2.5199999809265137,-0.8399999737739563
1743891622.785321,-0.03367200121283531,-0.05026400089263916,1.0570080280303955,1.1200000047683716,-2.380000114440918,-0.7699999809265137
1743891622.7414312,-0.03903999924659729,-0.04684799909591675,1.0389519929885864,1.1200000047683716,-2.309999942779541,-0.7699999809265137
1743891622.7614312,-0.044895999133586884,-0.05270399898290634,1.0989760160446167,0.2800000011920929,-2.869999885559082,-0.7699999809265137
1743891622.7814312,-0.04294399917125702,-0.05270399898290634,1.0340720415115356,1.75,-2.1700000762939453,-0.8399999737739563
1743891622.8014312,-0.04196799919009209,-0.0453840009868145,1.0574959516525269,1.0499999523162842,-2.450000047683716,-0.6299999952316284
1743891622.8214312,-0.043432001024484634,-0.05270399898290634,1.0482239723205566,0.3499999940395355,-2.799999952316284,-0.699999988079071
1743891622.8414311,-0.039528001099824905,-0.05319200083613396,1.0462720394134521,0.5600000023841858,-2.309999942779541,-0.7699999809265137
1743891622.76071,-0.04391999915242195,-0.04928800091147423,1.0584720373153687,0.8399999737739563,-2.5199999809265137,-0.8399999737739563
1743891622.78071,-0.04294399917125702,-0.05075199902057648,1.0584720373153687,0.41999998688697815,-2.6600000858306885,-0.7699999809265137
1743891622.80071,-0.035624001175165176,-0.05270399898290634,1.0492000579833984,1.2599999904632568,-2.380000114440918,-0.699999988079071
1743891622.82071,-0.03269600123167038,-0.048312000930309296,1.051151990890503,1.1200000047683716,-2.5899999141693115,-0.7699999809265137
1743891622.84071,-0.02781599946320057,-0.052216000854969025,1.059448003768921,1.1200000047683716,-2.309999942779541,-0.8399999737739563
1743891622.86071,-0.029279999434947968,-0.04684799909591675,1.0472480058670044,0.9100000262260437,-2.5199999809265137,-0.7699999809265137
1743891622.803451,-0.028303999453783035,-0.05124000087380409,1.0545680522918701,0.5600000023841858,-2.5199999809265137,-0.9800000190734863
1743891622.823451,-0.02537599951028824,-0.05075199902057648,1.0555440187454224,1.0499999523162842,-2.380000114440918,-0.9800000190734863
1743891622.843451,-0.02781599946320057,-0.04928800091147423,1.0540800094604492,0.7699999809265137,-2.5199999809265137,-0.9100000262260437
1743891622.863451,-0.031231999397277832,-0.05514400079846382,1.0633519887924194,0.699999988079071,-2.5899999141693115,-0.7699999809265137
1743891622.883451,-0.03415999934077263,-0.05026400089263916,1.0477360486984253,1.3300000429153442,-2.240000009536743,-0.699999988079071
1743891622.903451,-0.03903999924659729,-0.052216000854969025,1.0521279573440552,0.699999988079071,-2.450000047683716,-0.8399999737739563
1743891622.85136,-0.04001599922776222,-0.056120000779628754,1.051151990890503,0.9800000190734863,-2.450000047683716,-0.699999988079071
1743891622.87136,-0.04391999915242195,-0.05270399898290634,1.0492000579833984,0.7699999809265137,-2.450000047683716,-0.699999988079071
1743891622.89136,-0.04050400108098984,-0.05270399898290634,1.0555440187454224,0.7699999809265137,-2.450000047683716,-0.8399999737739563
1743891622.91136,-0.04294399917125702,-0.05319200083613396,1.0482239723205566,0.9800000190734863,-2.5199999809265137,-0.7699999809265137
1743891622.93136,-0.040991999208927155,-0.053679998964071274,1.07750403881073,0.8399999737739563,-2.5199999809265137,-0.7699999809265137
1743891622.95136,-0.03855200111865997,-0.056120000779628754,1.0326080322265625,1.190000057220459,-2.1700000762939453,-0.7699999809265137
1743891622.895379,-0.03855200111865997,-0.04391999915242195,1.0379760265350342,0.0,-2.380000114440918,-0.8399999737739563
1743891622.915379,-0.03513599932193756,-0.05270399898290634,1.061400055885315,1.4700000286102295,-2.380000114440918,-0.7699999809265137
1743891622.935379,-0.03415999934077263,-0.04391999915242195,1.0452959537506104,0.7699999809265137,-2.5199999809265137,-0.9100000262260437
1743891622.955379,-0.03415999934077263,-0.04733600094914436,1.0701839923858643,0.8399999737739563,-2.5199999809265137,-0.7699999809265137
1743891622.975379,-0.034648001194000244,-0.04782399907708168,1.0550559759140015,0.9100000262260437,-2.5899999141693115,-0.699999988079071
1743891622.995379,-0.03513599932193756,-0.04879999905824661,1.0394400358200073,1.190000057220459,-2.380000114440918,-0.699999988079071
1743891622.938841,-0.03513599932193756,-0.04782399907708168,1.053104043006897,0.699999988079071,-2.7300000190734863,-0.6299999952316284
1743891622.958841,-0.03611199930310249,-0.052216000854969025,1.060912013053894,1.1200000047683716,-2.450000047683716,-0.7699999809265137
1743891622.978841,-0.03757600113749504,-0.04928800091147423,1.0462720394134521,1.1200000047683716,-2.450000047683716,-0.699999988079071
1743891622.998841,-0.037087999284267426,-0.05270399898290634,1.0482239723205566,0.7699999809265137,-2.5199999809265137,-0.7699999809265137
1743891623.018841,-0.03806399926543236,-0.057583998888731,1.0662800073623657,1.0499999523162842,-2.450000047683716,-0.699999988079071
1743891623.038841,-0.03757600113749504,-0.05563199892640114,1.0394400358200073,0.9800000190734863,-2.380000114440918,-0.8399999737739563
1743891622.983935,-0.03513599932193756,-0.05807200074195862,1.0638400316238403,1.1200000047683716,-2.309999942779541,-0.8399999737739563
1743891623.003935,-0.03415999934077263,-0.053679998964071274,1.0492000579833984,0.9100000262260437,-2.5899999141693115,-0.9100000262260437
1743891623.023935,-0.03660000115633011,-0.05319200083613396,1.0550559759140015,1.2599999904632568,-2.240000009536743,-0.8399999737739563
1743891623.043935,-0.03415999934077263,-0.04684799909591675,1.0540800094604492,1.1200000047683716,-2.309999942779541,-0.8399999737739563
1743891623.063935,-0.029767999425530434,-0.04636000096797943,1.0496879816055298,0.9800000190734863,-2.450000047683716,-0.6299999952316284
1743891623.083935,-0.030743999406695366,-0.043432001024484634,1.0560319423675537,1.190000057220459,-2.309999942779541,-0.699999988079071
1743891623.043966,-0.032207999378442764,-0.0424560010433197,1.0516400337219238,0.5600000023841858,-2.5199999809265137,-0.5600000023841858
1743891623.063966,-0.029767999425530434,-0.04440800100564957,1.050663948059082,1.0499999523162842,-2.450000047683716,-0.699999988079071
1743891623.083966,-0.03903999924659729,-0.04391999915242195,1.051151990890503,0.699999988079071,-2.6600000858306885,-0.699999988079071
1743891623.103966,-0.03660000115633011,-0.04733600094914436,1.0472480058670044,1.1200000047683716,-2.450000047683716,-0.699999988079071
1743891623.123966,-0.04148000106215477,-0.0605119988322258,1.0687199831008911,0.699999988079071,-2.5899999141693115,-0.5600000023841858
1743891623.143966,-0.04001599922776222,-0.061000000685453415,1.0384639501571655,0.6299999952316284,-2.5899999141693115,-0.8399999737739563
1743891623.0738142,-0.04148000106215477,-0.05807200074195862,1.0560319423675537,0.699999988079071,-2.309999942779541,-0.9800000190734863
1743891623.0938141,-0.04196799919009209,-0.057583998888731,1.0545680522918701,0.9800000190734863,-2.380000114440918,-0.9800000190734863
1743891623.113814,-0.03757600113749504,-0.05563199892640114,1.044319987297058,0.9100000262260437,-2.450000047683716,-0.9100000262260437
1743891623.133814,-0.039528001099824905,-0.053679998964071274,1.0574959516525269,0.9100000262260437,-2.450000047683716,-0.9100000262260437
1743891623.153814,-0.03611199930310249,-0.05172799900174141,1.0555440187454224,1.1200000047683716,-2.380000114440918,-0.7699999809265137
1743891623.173814,-0.030743999406695366,-0.04928800091147423,1.050663948059082,0.9100000262260437,-2.5199999809265137,-0.699999988079071
1743891623.118192,-0.032207999378442764,-0.04636000096797943,1.0584720373153687,1.1200000047683716,-2.380000114440918,-0.699999988079071
1743891623.138192,-0.029279999434947968,-0.0424560010433197,1.0487120151519775,0.8399999737739563,-2.380000114440918,-0.6299999952316284
1743891623.158192,-0.03172000125050545,-0.05172799900174141,1.0696959495544434,0.9100000262260437,-2.380000114440918,-0.699999988079071
1743891623.178192,-0.032207999378442764,-0.04928800091147423,1.0501760244369507,0.8399999737739563,-2.6600000858306885,-0.7699999809265137
1743891623.198192,-0.031231999397277832,-0.05319200083613396,1.053104043006897,0.699999988079071,-2.6600000858306885,-0.699999988079071
1743891623.2181919,-0.03513599932193756,-0.05319200083613396,1.0550559759140015,0.7699999809265137,-2.450000047683716,-0.7699999809265137
1743891623.164307,-0.034648001194000244,-0.05172799900174141,1.0462720394134521,1.1200000047683716,-2.380000114440918,-0.8399999737739563
1743891623.184307,-0.039528001099824905,-0.05172799900174141,1.0521279573440552,0.9800000190734863,-2.5899999141693115,-0.9800000190734863
1743891623.204307,-0.03903999924659729,-0.05172799900174141,1.0628639459609985,1.1200000047683716,-2.380000114440918,-0.9100000262260437
1743891623.224307,-0.03855200111865997,-0.049775999039411545,1.0477360486984253,1.0499999523162842,-2.309999942779541,-0.7699999809265137
1743891623.244307,-0.04050400108098984,-0.04928800091147423,1.0560319423675537,0.9100000262260437,-2.380000114440918,-0.699999988079071
1743891623.264307,-0.040991999208927155,-0.04879999905824661,1.0516400337219238,0.9100000262260437,-2.450000047683716,-0.7699999809265137
1743891623.236504,-0.0424560010433197,-0.048312000930309296,1.0540800094604492,0.9100000262260437,-2.450000047683716,-0.6299999952316284
1743891623.256504,-0.03806399926543236,-0.05075199902057648,1.053104043006897,0.8399999737739563,-2.450000047683716,-0.6299999952316284
1743891623.276504,-0.04001599922776222,-0.05416800081729889,1.053104043006897,0.8399999737739563,-2.450000047683716,-0.6299999952316284
1743891623.296504,-0.03757600113749504,-0.053679998964071274,1.0545680522918701,0.699999988079071,-2.5199999809265137,-0.6299999952316284
1743891623.316504,-0.035624001175165176,-0.05563199892640114,1.0482239723205566,1.2599999904632568,-2.380000114440918,-0.699999988079071
1743891623.336504,-0.034648001194000244,-0.05416800081729889,1.0560319423675537,0.9100000262260437,-2.380000114440918,-0.8399999737739563
1743891623.2539442,-0.03415999934077263,-0.053679998964071274,1.052616000175476,1.1200000047683716,-2.5199999809265137,-0.7699999809265137
1743891623.2739441,-0.03513599932193756,-0.049775999039411545,1.0516400337219238,0.9100000262260437,-2.380000114440918,-1.0499999523162842
1743891623.2939441,-0.03172000125050545,-0.04684799909591675,1.0521279573440552,1.0499999523162842,-2.450000047683716,-0.8399999737739563
1743891623.313944,-0.03415999934077263,-0.04879999905824661,1.0535919666290283,1.1200000047683716,-2.380000114440918,-0.8399999737739563
1743891623.333944,-0.03513599932193756,-0.04733600094914436,1.0540800094604492,0.9800000190734863,-2.5199999809265137,-0.8399999737739563
1743891623.353944,-0.03611199930310249,-0.048312000930309296,1.052616000175476,0.9100000262260437,-2.5899999141693115,-0.7699999809265137
1743891623.2990773,-0.03513599932193756,-0.05124000087380409,1.053104043006897,1.0499999523162842,-2.380000114440918,-0.8399999737739563
1743891623.3190773,-0.03660000115633011,-0.049775999039411545,1.0477360486984253,0.9100000262260437,-2.5199999809265137,-0.7699999809265137
1743891623.3390772,-0.03660000115633011,-0.054655998945236206,1.0779919624328613,0.6299999952316284,-2.450000047683716,-0.7699999809265137
1743891623.3590772,-0.035624001175165176,-0.05416800081729889,1.0394400358200073,1.1200000047683716,-2.240000009536743,-0.699999988079071
1743891623.3790772,-0.03903999924659729,-0.04928800091147423,1.0452959537506104,0.41999998688697815,-2.380000114440918,-0.699999988079071
1743891623.3990772,-0.035624001175165176,-0.053679998964071274,1.0599360466003418,1.1200000047683716,-2.450000047683716,-0.699999988079071
1743891623.328937,-0.03757600113749504,-0.05124000087380409,1.044808030128479,0.9800000190734863,-2.450000047683716,-0.7699999809265137
1743891623.348937,-0.037087999284267426,-0.049775999039411545,1.053104043006897,0.9100000262260437,-2.5199999809265137,-0.699999988079071
1743891623.368937,-0.03513599932193756,-0.05124000087380409,1.0579839944839478,0.9100000262260437,-2.450000047683716,-0.699999988079071
1743891623.388937,-0.03415999934077263,-0.04684799909591675,1.051151990890503,0.8399999737739563,-2.450000047683716,-0.7699999809265137
1743891623.408937,-0.034648001194000244,-0.04928800091147423,1.0472480058670044,0.7699999809265137,-2.450000047683716,-0.8399999737739563
1743891623.428937,-0.03903999924659729,-0.05270399898290634,1.0579839944839478,0.9100000262260437,-2.380000114440918,-0.7699999809265137
1743891623.402601,-0.03513599932193756,-0.05124000087380409,1.0487120151519775,0.7699999809265137,-2.5899999141693115,-0.7699999809265137
1743891623.422601,-0.03660000115633011,-0.053679998964071274,1.0604239702224731,1.0499999523162842,-2.450000047683716,-0.7699999809265137
1743891623.442601,-0.03367200121283531,-0.05270399898290634,1.0535919666290283,1.0499999523162842,-2.450000047683716,-0.8399999737739563
1743891623.462601,-0.03757600113749504,-0.05124000087380409,1.0545680522918701,0.8399999737739563,-2.380000114440918,-0.8399999737739563
1743891623.482601,-0.03855200111865997,-0.05026400089263916,1.0565199851989746,1.190000057220459,-2.450000047683716,-0.8399999737739563
1743891623.502601,-0.03855200111865997,-0.04782399907708168,1.0482239723205566,0.9800000190734863,-2.5199999809265137,-0.7699999809265137
1743891623.4190612,-0.04050400108098984,-0.04684799909591675,1.0560319423675537,0.9800000190734863,-2.5899999141693115,-0.699999988079071
1743891623.4390612,-0.03806399926543236,-0.04928800091147423,1.0579839944839478,1.0499999523162842,-2.5199999809265137,-0.699999988079071
1743891623.4590611,-0.04001599922776222,-0.04684799909591675,1.0521279573440552,1.1200000047683716,-2.5199999809265137,-0.699999988079071
1743891623.4790611,-0.040991999208927155,-0.04733600094914436,1.0516400337219238,0.699999988079071,-2.5199999809265137,-0.6299999952316284
1743891623.499061,-0.03660000115633011,-0.04879999905824661,1.0545680522918701,0.9800000190734863,-2.450000047683716,-0.699999988079071
1743891623.519061,-0.034648001194000244,-0.04928800091147423,1.0516400337219238,0.699999988079071,-2.5199999809265137,-0.7699999809265137
1743891623.447947,-0.034648001194000244,-0.05075199902057648,1.0492000579833984,0.9100000262260437,-2.450000047683716,-0.8399999737739563
1743891623.467947,-0.03172000125050545,-0.04879999905824661,1.0501760244369507,0.699999988079071,-2.5199999809265137,-0.8399999737739563
1743891623.487947,-0.0331839993596077,-0.053679998964071274,1.061400055885315,0.8399999737739563,-2.5899999141693115,-0.8399999737739563
1743891623.507947,-0.02781599946320057,-0.04928800091147423,1.0384639501571655,0.9800000190734863,-2.450000047683716,-0.7699999809265137
1743891623.527947,-0.0331839993596077,-0.048312000930309296,1.0565199851989746,0.7699999809265137,-2.5199999809265137,-0.8399999737739563
1743891623.547947,-0.029767999425530434,-0.053679998964071274,1.061400055885315,1.0499999523162842,-2.5199999809265137,-0.8399999737739563
1743891623.4954603,-0.03172000125050545,-0.05319200083613396,1.0467599630355835,0.8399999737739563,-2.450000047683716,-0.8399999737739563
1743891623.5154603,-0.03611199930310249,-0.05660799890756607,1.0560319423675537,0.8399999737739563,-2.450000047683716,-0.7699999809265137
1743891623.5354602,-0.03660000115633011,-0.056120000779628754,1.0540800094604492,0.8399999737739563,-2.450000047683716,-0.8399999737739563
1743891623.5554602,-0.03855200111865997,-0.05904800072312355,1.0492000579833984,0.9800000190734863,-2.5199999809265137,-0.699999988079071
1743891623.5754602,-0.03806399926543236,-0.05904800072312355,1.0584720373153687,0.7699999809265137,-2.5199999809265137,-0.699999988079071
1743891623.5954602,-0.04001599922776222,-0.05904800072312355,1.0496879816055298,1.1200000047683716,-2.5199999809265137,-0.699999988079071
1743891623.5377092,-0.039528001099824905,-0.058559998869895935,1.0482239723205566,0.8399999737739563,-2.450000047683716,-0.7699999809265137
1743891623.5577092,-0.040991999208927155,-0.05953599885106087,1.0633519887924194,1.190000057220459,-2.380000114440918,-0.7699999809265137
1743891623.5777092,-0.040991999208927155,-0.05172799900174141,1.059448003768921,0.7699999809265137,-2.380000114440918,-0.699999988079071
1743891623.5977092,-0.04050400108098984,-0.04733600094914436,1.0482239723205566,1.1200000047683716,-2.450000047683716,-0.8399999737739563
1743891623.6177092,-0.03611199930310249,-0.045871999114751816,1.0570080280303955,0.9800000190734863,-2.309999942779541,-0.8399999737739563
1743891623.6377091,-0.03611199930310249,-0.04196799919009209,1.0501760244369507,0.9100000262260437,-2.5199999809265137,-0.7699999809265137
1743891623.588411,-0.03611199930310249,-0.040991999208927155,1.0535919666290283,1.1200000047683716,-2.450000047683716,-0.699999988079071
1743891623.608411,-0.034648001194000244,-0.04050400108098984,1.0545680522918701,0.9100000262260437,-2.450000047683716,-0.8399999737739563
1743891623.628411,-0.03415999934077263,-0.04294399917125702,1.0516400337219238,0.699999988079071,-2.5199999809265137,-0.8399999737739563
1743891623.648411,-0.032207999378442764,-0.043432001024484634,1.0565199851989746,0.8399999737739563,-2.5199999809265137,-0.699999988079071
1743891623.668411,-0.03513599932193756,-0.04782399907708168,1.0555440187454224,0.9100000262260437,-2.5199999809265137,-0.7699999809265137
1743891623.688411,-0.03415999934077263,-0.04879999905824661,1.0516400337219238,0.9100000262260437,-2.380000114440918,-0.8399999737739563
1743891623.6285892,-0.03660000115633011,-0.053679998964071274,1.0550559759140015,0.9100000262260437,-2.5899999141693115,-0.699999988079071
1743891623.6485891,-0.03660000115633011,-0.054655998945236206,1.0550559759140015,0.7699999809265137,-2.450000047683716,-0.8399999737739563
1743891623.668589,-0.03611199930310249,-0.057096000760793686,1.052616000175476,0.9800000190734863,-2.450000047683716,-0.9100000262260437
1743891623.688589,-0.03660000115633011,-0.05904800072312355,1.0643279552459717,0.7699999809265137,-2.380000114440918,-0.7699999809265137
1743891623.708589,-0.04001599922776222,-0.0634400025010109,1.1199599504470825,2.1700000762939453,-1.8200000524520874,-0.699999988079071
1743891623.728589,-0.04196799919009209,-0.04879999905824661,1.0311440229415894,1.399999976158142,-2.7300000190734863,-0.7699999809265137
1743891623.659006,-0.03513599932193756,-0.058559998869895935,1.0716480016708374,1.399999976158142,-2.1700000762939453,-0.699999988079071
1743891623.679006,-0.03855200111865997,-0.054655998945236206,1.0550559759140015,1.6100000143051147,-2.240000009536743,-0.7699999809265137
1743891623.699006,-0.03855200111865997,-0.048312000930309296,1.051151990890503,0.9100000262260437,-2.450000047683716,-0.699999988079071
1743891623.719006,-0.03660000115633011,-0.0453840009868145,1.052616000175476,0.9100000262260437,-2.5899999141693115,-0.7699999809265137
1743891623.739006,-0.03903999924659729,-0.04636000096797943,1.0540800094604492,0.9100000262260437,-2.309999942779541,-0.8399999737739563
1743891623.759006,-0.03855200111865997,-0.040991999208927155,1.0555440187454224,0.5600000023841858,-2.5899999141693115,-0.699999988079071
1743891623.7189012,-0.04001599922776222,-0.049775999039411545,1.075551986694336,0.5600000023841858,-2.5199999809265137,-0.699999988079071
1743891623.7389011,-0.03903999924659729,-0.049775999039411545,1.0399279594421387,1.0499999523162842,-2.450000047683716,-0.8399999737739563
1743891623.7589011,-0.03660000115633011,-0.04879999905824661,1.0423680543899536,0.7699999809265137,-2.5899999141693115,-0.699999988079071
1743891623.778901,-0.03806399926543236,-0.05270399898290634,1.0648159980773926,0.9100000262260437,-2.450000047683716,-0.9100000262260437
1743891623.798901,-0.03611199930310249,-0.05416800081729889,1.0452959537506104,0.9800000190734863,-2.450000047683716,-0.8399999737739563
1743891623.818901,-0.03855200111865997,-0.05660799890756607,1.0599360466003418,0.6299999952316284,-2.7300000190734863,-0.9800000190734863
1743891623.7505522,-0.03415999934077263,-0.05953599885106087,1.0565199851989746,0.7699999809265137,-2.450000047683716,-1.0499999523162842
1743891623.7705522,-0.03269600123167038,-0.056120000779628754,1.0472480058670044,1.399999976158142,-2.5199999809265137,-0.8399999737739563
1743891623.7905521,-0.035624001175165176,-0.054655998945236206,1.060912013053894,0.6299999952316284,-2.450000047683716,-0.7699999809265137
1743891623.8105521,-0.032207999378442764,-0.04928800091147423,1.0516400337219238,0.9100000262260437,-2.450000047683716,-0.7699999809265137
1743891623.830552,-0.03367200121283531,-0.04733600094914436,1.0521279573440552,0.7699999809265137,-2.450000047683716,-0.699999988079071
1743891623.850552,-0.0302559994161129,-0.04733600094914436,1.059448003768921,1.1200000047683716,-2.450000047683716,-0.699999988079071
1743891623.79557,-0.03513599932193756,-0.04391999915242195,1.0487120151519775,0.6299999952316284,-2.5199999809265137,-0.5600000023841858
1743891623.8155699,-0.03415999934077263,-0.045871999114751816,1.0589599609375,1.190000057220459,-2.380000114440918,-0.5600000023841858
1743891623.8355699,-0.03806399926543236,-0.04391999915242195,1.0521279573440552,0.8399999737739563,-2.5199999809265137,-0.5600000023841858
1743891623.8555698,-0.03513599932193756,-0.05026400089263916,1.0555440187454224,1.1200000047683716,-2.309999942779541,-0.699999988079071
1743891623.8755698,-0.03855200111865997,-0.04879999905824661,1.0545680522918701,0.6299999952316284,-2.6600000858306885,-0.7699999809265137
1743891623.8955698,-0.03513599932193756,-0.05026400089263916,1.0482239723205566,0.8399999737739563,-2.450000047683716,-0.9800000190734863
1743891623.840987,-0.03855200111865997,-0.04928800091147423,1.0565199851989746,0.9100000262260437,-2.450000047683716,-0.8399999737739563
1743891623.860987,-0.03611199930310249,-0.05026400089263916,1.0535919666290283,0.9800000190734863,-2.450000047683716,-0.9100000262260437
1743891623.880987,-0.03757600113749504,-0.05124000087380409,1.051151990890503,0.9800000190734863,-2.450000047683716,-0.8399999737739563
1743891623.900987,-0.04050400108098984,-0.05075199902057648,1.0540800094604492,1.1200000047683716,-2.450000047683716,-0.699999988079071
1743891623.920987,-0.040991999208927155,-0.049775999039411545,1.0545680522918701,1.0499999523162842,-2.450000047683716,-0.6299999952316284
1743891623.9409869,-0.03757600113749504,-0.05904800072312355,1.0604239702224731,1.2599999904632568,-2.240000009536743,-0.49000000953674316
1743891623.885646,-0.03903999924659729,-0.057583998888731,1.050663948059082,0.49000000953674316,-2.5899999141693115,-0.6299999952316284
1743891623.905646,-0.039528001099824905,-0.0605119988322258,1.0570080280303955,0.9100000262260437,-2.450000047683716,-0.7699999809265137
1743891623.925646,-0.035624001175165176,-0.06148799881339073,1.0550559759140015,0.8399999737739563,-2.5199999809265137,-0.7699999809265137
1743891623.945646,-0.03269600123167038,-0.06197600066661835,1.0492000579833984,0.8399999737739563,-2.5199999809265137,-0.7699999809265137
1743891623.965646,-0.03172000125050545,-0.0605119988322258,1.061400055885315,0.9100000262260437,-2.5199999809265137,-0.9100000262260437
1743891623.985646,-0.029767999425530434,-0.054655998945236206,1.0487120151519775,1.0499999523162842,-2.309999942779541,-0.9800000190734863
1743891623.9305623,-0.030743999406695366,-0.04879999905824661,1.0579839944839478,1.0499999523162842,-2.309999942779541,-0.9800000190734863
1743891623.9505622,-0.031231999397277832,-0.04636000096797943,1.0570080280303955,1.190000057220459,-2.5199999809265137,-0.9100000262260437
1743891623.9705622,-0.034648001194000244,-0.04001599922776222,1.0545680522918701,1.0499999523162842,-2.450000047683716,-0.7699999809265137
1743891623.9905622,-0.0331839993596077,-0.032207999378442764,1.051151990890503,1.1200000047683716,-2.380000114440918,-0.7699999809265137
1743891624.0105622,-0.034648001194000244,-0.037087999284267426,1.052616000175476,0.8399999737739563,-2.380000114440918,-0.5600000023841858
1743891624.0305622,-0.03806399926543236,-0.039528001099824905,1.0545680522918701,0.9100000262260437,-2.5899999141693115,-0.6299999952316284
1743891623.989599,-0.04050400108098984,-0.05026400089263916,1.053104043006897,0.699999988079071,-2.5899999141693115,-0.5600000023841858
1743891624.009599,-0.044895999133586884,-0.057096000760793686,1.0555440187454224,0.6299999952316284,-2.5199999809265137,-0.699999988079071
1743891624.029599,-0.0424560010433197,-0.062463998794555664,1.052616000175476,0.8399999737739563,-2.5899999141693115,-0.7699999809265137
1743891624.049599,-0.043432001024484634,-0.06148799881339073,1.050663948059082,0.8399999737739563,-2.5199999809265137,-0.8399999737739563
1743891624.069599,-0.037087999284267426,-0.06392800062894821,1.0550559759140015,0.9800000190734863,-2.450000047683716,-0.9800000190734863
1743891624.089599,-0.037087999284267426,-0.06002400070428848,1.0487120151519775,1.0499999523162842,-2.5199999809265137,-0.9100000262260437
1743891624.0487623,-0.03367200121283531,-0.05660799890756607,1.0535919666290283,1.0499999523162842,-2.450000047683716,-0.9100000262260437
1743891624.0687623,-0.03269600123167038,-0.05026400089263916,1.0521279573440552,0.9100000262260437,-2.380000114440918,-0.7699999809265137
1743891624.0887623,-0.031231999397277832,-0.044895999133586884,1.0550559759140015,1.0499999523162842,-2.380000114440918,-0.7699999809265137
1743891624.1087623,-0.03367200121283531,-0.04050400108098984,1.052616000175476,0.9800000190734863,-2.5199999809265137,-0.6299999952316284
1743891624.1287622,-0.03415999934077263,-0.04050400108098984,1.0638400316238403,0.699999988079071,-2.6600000858306885,-0.5600000023841858
1743891624.1487622,-0.03611199930310249,-0.04196799919009209,1.0487120151519775,1.3300000429153442,-2.380000114440918,-0.49000000953674316
1743891624.055061,-0.039528001099824905,-0.04391999915242195,1.0599360466003418,0.699999988079071,-2.450000047683716,-0.49000000953674316
1743891624.075061,-0.039528001099824905,-0.04928800091147423,1.060912013053894,0.9100000262260437,-2.309999942779541,-0.699999988079071
1743891624.095061,-0.04148000106215477,-0.04879999905824661,1.0516400337219238,0.8399999737739563,-2.5899999141693115,-0.699999988079071
1743891624.115061,-0.04001599922776222,-0.04684799909591675,1.0423680543899536,0.5600000023841858,-2.5899999141693115,-0.7699999809265137
1743891624.135061,-0.040991999208927155,-0.05319200083613396,1.061400055885315,0.699999988079071,-2.5199999809265137,-0.7699999809265137
1743891624.155061,-0.03903999924659729,-0.05319200083613396,1.0472480058670044,1.1200000047683716,-2.380000114440918,-0.9100000262260437
1743891624.1088471,-0.03660000115633011,-0.05172799900174141,1.050663948059082,0.8399999737739563,-2.5899999141693115,-0.9800000190734863
1743891624.1288471,-0.03660000115633011,-0.054655998945236206,1.059448003768921,0.9800000190734863,-2.380000114440918,-0.9100000262260437
1743891624.148847,-0.0331839993596077,-0.05124000087380409,1.0535919666290283,1.0499999523162842,-2.5199999809265137,-0.9100000262260437
1743891624.168847,-0.029279999434947968,-0.053679998964071274,1.0501760244369507,0.8399999737739563,-2.450000047683716,-0.9100000262260437
1743891624.188847,-0.029279999434947968,-0.05172799900174141,1.0589599609375,0.7699999809265137,-2.450000047683716,-0.7699999809265137
1743891624.208847,-0.026839999482035637,-0.05026400089263916,1.0487120151519775,0.9100000262260437,-2.450000047683716,-0.6299999952316284
1743891624.168256,-0.031231999397277832,-0.05075199902057648,1.0560319423675537,0.8399999737739563,-2.5199999809265137,-0.5600000023841858
1743891624.188256,-0.03172000125050545,-0.057096000760793686,1.0570080280303955,0.9800000190734863,-2.450000047683716,-0.699999988079071
1743891624.208256,-0.035624001175165176,-0.054655998945236206,1.050663948059082,0.9100000262260437,-2.5199999809265137,-0.5600000023841858
1743891624.228256,-0.037087999284267426,-0.05660799890756607,1.059448003768921,1.0499999523162842,-2.309999942779541,-0.6299999952316284
1743891624.248256,-0.04001599922776222,-0.054655998945236206,1.0482239723205566,1.0499999523162842,-2.380000114440918,-0.7699999809265137
1743891624.268256,-0.043432001024484634,-0.05514400079846382,1.0550559759140015,1.0499999523162842,-2.380000114440918,-0.9100000262260437
1743891624.200541,-0.04440800100564957,-0.05124000087380409,1.0574959516525269,1.0499999523162842,-2.450000047683716,-0.8399999737739563
1743891624.220541,-0.044895999133586884,-0.04684799909591675,1.0516400337219238,0.9800000190734863,-2.450000047683716,-0.9800000190734863
1743891624.240541,-0.04294399917125702,-0.04148000106215477,1.0560319423675537,1.0499999523162842,-2.380000114440918,-0.8399999737739563
1743891624.260541,-0.040991999208927155,-0.04196799919009209,1.0535919666290283,0.8399999737739563,-2.5899999141693115,-0.7699999809265137
1743891624.280541,-0.039528001099824905,-0.0424560010433197,1.053104043006897,0.8399999737739563,-2.380000114440918,-0.7699999809265137
1743891624.300541,-0.03660000115633011,-0.0424560010433197,1.0555440187454224,0.8399999737739563,-2.450000047683716,-0.699999988079071
1743891624.2453911,-0.03269600123167038,-0.048312000930309296,1.044808030128479,0.8399999737739563,-2.6600000858306885,-0.6299999952316284
1743891624.265391,-0.0287919994443655,-0.052216000854969025,1.0545680522918701,1.1200000047683716,-2.380000114440918,-0.699999988079071
1743891624.285391,-0.028303999453783035,-0.052216000854969025,1.0584720373153687,0.5600000023841858,-2.5899999141693115,-0.6299999952316284
1743891624.305391,-0.0287919994443655,-0.05660799890756607,1.0550559759140015,0.8399999737739563,-2.5199999809265137,-0.7699999809265137
1743891624.325391,-0.03172000125050545,-0.058559998869895935,1.052616000175476,0.699999988079071,-2.450000047683716,-0.8399999737739563
1743891624.345391,-0.031231999397277832,-0.06148799881339073,1.051151990890503,0.9800000190734863,-2.380000114440918,-0.7699999809265137
1743891624.290524,-0.034648001194000244,-0.057096000760793686,1.0565199851989746,0.8399999737739563,-2.5199999809265137,-0.8399999737739563
1743891624.310524,-0.03367200121283531,-0.057583998888731,1.052616000175476,0.9800000190734863,-2.309999942779541,-0.8399999737739563
1743891624.330524,-0.03757600113749504,-0.05026400089263916,1.0535919666290283,0.9800000190734863,-2.380000114440918,-0.7699999809265137
1743891624.350524,-0.039528001099824905,-0.04391999915242195,1.0545680522918701,0.49000000953674316,-2.6600000858306885,-0.9100000262260437
1743891624.370524,-0.03855200111865997,-0.045871999114751816,1.0306559801101685,1.75,-2.0999999046325684,-0.7699999809265137
1743891624.390524,-0.043432001024484634,-0.0453840009868145,1.0740879774093628,0.41999998688697815,-2.7300000190734863,-0.6299999952316284
1743891624.333051,-0.03855200111865997,-0.04636000096797943,1.0599360466003418,1.2599999904632568,-2.380000114440918,-0.699999988079071
1743891624.353051,-0.04196799919009209,-0.040991999208927155,1.0482239723205566,0.41999998688697815,-2.5899999141693115,-0.6299999952316284
1743891624.373051,-0.039528001099824905,-0.048312000930309296,1.059448003768921,0.7699999809265137,-2.450000047683716,-0.699999988079071
1743891624.393051,-0.04391999915242195,-0.04684799909591675,1.052616000175476,0.3499999940395355,-2.6600000858306885,-0.7699999809265137
1743891624.413051,-0.039528001099824905,-0.05319200083613396,1.0477360486984253,1.1200000047683716,-2.450000047683716,-0.8399999737739563
1743891624.4330509,-0.03660000115633011,-0.05075199902057648,1.0560319423675537,0.9100000262260437,-2.5199999809265137,-0.9100000262260437
1743891624.386094,-0.03611199930310249,-0.05075199902057648,1.0540800094604492,1.1200000047683716,-2.450000047683716,-0.9100000262260437
1743891624.406094,-0.034648001194000244,-0.04879999905824661,1.0462720394134521,0.9100000262260437,-2.380000114440918,-0.7699999809265137
1743891624.426094,-0.035624001175165176,-0.05270399898290634,1.0555440187454224,0.9100000262260437,-2.5199999809265137,-0.7699999809265137
1743891624.446094,-0.032207999378442764,-0.05124000087380409,1.0438319444656372,1.0499999523162842,-2.380000114440918,-0.699999988079071
1743891624.466094,-0.034648001194000244,-0.04879999905824661,1.0482239723205566,0.6299999952316284,-2.5199999809265137,-0.8399999737739563
1743891624.486094,-0.03269600123167038,-0.05026400089263916,1.0589599609375,0.9800000190734863,-2.380000114440918,-0.7699999809265137
1743891624.408569,-0.03415999934077263,-0.05026400089263916,1.0516400337219238,0.699999988079071,-2.5899999141693115,-0.6299999952316284
1743891624.428569,-0.035624001175165176,-0.054655998945236206,1.0570080280303955,0.8399999737739563,-2.5199999809265137,-0.699999988079071
1743891624.448569,-0.035624001175165176,-0.05514400079846382,1.051151990890503,0.9800000190734863,-2.380000114440918,-0.699999988079071
1743891624.468569,-0.03611199930310249,-0.05563199892640114,1.052616000175476,0.5600000023841858,-2.380000114440918,-0.7699999809265137
1743891624.488569,-0.03611199930310249,-0.05660799890756607,1.0521279573440552,1.2599999904632568,-2.380000114440918,-0.8399999737739563
1743891624.508569,-0.03611199930310249,-0.05563199892640114,1.0555440187454224,0.9800000190734863,-2.5899999141693115,-0.8399999737739563
1743891624.4529922,-0.034648001194000244,-0.05563199892640114,1.0565199851989746,1.190000057220459,-2.309999942779541,-0.8399999737739563
1743891624.4729922,-0.03513599932193756,-0.05319200083613396,1.050663948059082,0.9100000262260437,-2.5199999809265137,-0.7699999809265137
1743891624.4929922,-0.03757600113749504,-0.04879999905824661,1.0560319423675537,0.8399999737739563,-2.450000047683716,-0.9100000262260437
1743891624.5129921,-0.035624001175165176,-0.045871999114751816,1.0521279573440552,1.1200000047683716,-2.309999942779541,-0.699999988079071
1743891624.5329921,-0.03806399926543236,-0.045871999114751816,1.053104043006897,0.9100000262260437,-2.5899999141693115,-0.699999988079071
1743891624.552992,-0.037087999284267426,-0.04733600094914436,1.0516400337219238,0.9800000190734863,-2.5199999809265137,-0.699999988079071
1743891624.501152,-0.04294399917125702,-0.045871999114751816,1.0545680522918701,0.6299999952316284,-2.5199999809265137,-0.5600000023841858
1743891624.521152,-0.037087999284267426,-0.05563199892640114,1.044319987297058,1.0499999523162842,-2.450000047683716,-0.5600000023841858
1743891624.541152,-0.04148000106215477,-0.05514400079846382,1.061400055885315,0.699999988079071,-2.6600000858306885,-0.8399999737739563
1743891624.561152,-0.03806399926543236,-0.054655998945236206,1.0516400337219238,1.0499999523162842,-2.309999942779541,-0.699999988079071
1743891624.581152,-0.04001599922776222,-0.04928800091147423,1.0496879816055298,0.8399999737739563,-2.5199999809265137,-0.699999988079071
1743891624.601152,-0.040991999208927155,-0.05172799900174141,1.0550559759140015,0.9800000190734863,-2.450000047683716,-0.7699999809265137
1743891624.5589693,-0.037087999284267426,-0.04733600094914436,1.0521279573440552,1.0499999523162842,-2.380000114440918,-0.8399999737739563
1743891624.5789692,-0.035624001175165176,-0.04636000096797943,1.053104043006897,0.9100000262260437,-2.450000047683716,-0.8399999737739563
1743891624.5989692,-0.03513599932193756,-0.04391999915242195,1.0555440187454224,1.1200000047683716,-2.380000114440918,-0.9100000262260437
1743891624.6189692,-0.03415999934077263,-0.04196799919009209,1.050663948059082,0.7699999809265137,-2.5199999809265137,-0.8399999737739563
1743891624.6389692,-0.03415999934077263,-0.04391999915242195,1.052616000175476,0.9800000190734863,-2.309999942779541,-0.699999988079071
1743891624.6589692,-0.03367200121283531,-0.043432001024484634,1.0501760244369507,0.8399999737739563,-2.380000114440918,-0.699999988079071
1743891624.5902343,-0.03611199930310249,-0.049775999039411545,1.0516400337219238,1.0499999523162842,-2.380000114440918,-0.6299999952316284
1743891624.6102343,-0.03611199930310249,-0.05124000087380409,1.0521279573440552,0.699999988079071,-2.5199999809265137,-0.699999988079071
1743891624.6302342,-0.03513599932193756,-0.054655998945236206,1.053104043006897,0.7699999809265137,-2.380000114440918,-0.8399999737739563
1743891624.6502342,-0.037087999284267426,-0.05660799890756607,1.0540800094604492,0.8399999737739563,-2.6600000858306885,-0.7699999809265137
1743891624.6702342,-0.03660000115633011,-0.061000000685453415,1.0540800094604492,0.7699999809265137,-2.450000047683716,-0.7699999809265137
1743891624.6902342,-0.03513599932193756,-0.058559998869895935,1.0545680522918701,0.9100000262260437,-2.450000047683716,-0.7699999809265137
1743891624.648472,-0.035624001175165176,-0.06002400070428848,1.0555440187454224,0.699999988079071,-2.6600000858306885,-0.8399999737739563
1743891624.668472,-0.03757600113749504,-0.06148799881339073,1.0501760244369507,1.1200000047683716,-2.309999942779541,-0.8399999737739563
1743891624.688472,-0.03415999934077263,-0.05416800081729889,1.0467599630355835,0.8399999737739563,-2.309999942779541,-0.9100000262260437
1743891624.708472,-0.034648001194000244,-0.05416800081729889,1.0535919666290283,1.190000057220459,-2.450000047683716,-0.7699999809265137
1743891624.728472,-0.03611199930310249,-0.04879999905824661,1.0501760244369507,1.190000057220459,-2.380000114440918,-0.699999988079071
1743891624.748472,-0.03806399926543236,-0.04684799909591675,1.0550559759140015,1.1200000047683716,-2.5199999809265137,-0.699999988079071
1743891624.6953812,-0.03806399926543236,-0.044895999133586884,1.0555440187454224,1.0499999523162842,-2.380000114440918,-0.6299999952316284
1743891624.7153811,-0.03855200111865997,-0.0453840009868145,1.050663948059082,1.190000057220459,-2.5199999809265137,-0.699999988079071
1743891624.7353811,-0.03903999924659729,-0.045871999114751816,1.0565199851989746,0.9800000190734863,-2.450000047683716,-0.6299999952316284
1743891624.755381,-0.04050400108098984,-0.04733600094914436,1.0516400337219238,0.9100000262260437,-2.450000047683716,-0.8399999737739563
1743891624.775381,-0.04001599922776222,-0.045871999114751816,1.0550559759140015,0.9800000190734863,-2.5199999809265137,-0.8399999737739563
1743891624.795381,-0.040991999208927155,-0.04782399907708168,1.053104043006897,0.9800000190734863,-2.5199999809265137,-0.8399999737739563
1743891624.752489,-0.03903999924659729,-0.04782399907708168,1.052616000175476,0.9100000262260437,-2.5899999141693115,-0.8399999737739563
1743891624.772489,-0.03611199930310249,-0.05026400089263916,1.0521279573440552,0.8399999737739563,-2.450000047683716,-0.8399999737739563
1743891624.792489,-0.03513599932193756,-0.04879999905824661,1.0550559759140015,0.6299999952316284,-2.5199999809265137,-0.9100000262260437
1743891624.812489,-0.0331839993596077,-0.049775999039411545,1.044808030128479,0.9800000190734863,-2.450000047683716,-0.7699999809265137
1743891624.832489,-0.029279999434947968,-0.05075199902057648,1.0492000579833984,0.9100000262260437,-2.450000047683716,-0.8399999737739563
1743891624.852489,-0.03172000125050545,-0.05514400079846382,1.052616000175476,0.9800000190734863,-2.380000114440918,-0.699999988079071
1743891624.769585,-0.03172000125050545,-0.05172799900174141,1.052616000175476,0.7699999809265137,-2.5899999141693115,-0.699999988079071
1743891624.7895849,-0.03269600123167038,-0.053679998964071274,1.0521279573440552,1.1200000047683716,-2.450000047683716,-0.699999988079071
1743891624.8095849,-0.0331839993596077,-0.05660799890756607,1.050663948059082,1.0499999523162842,-2.450000047683716,-0.699999988079071
1743891624.8295848,-0.034648001194000244,-0.054655998945236206,1.052616000175476,1.0499999523162842,-2.450000047683716,-0.7699999809265137
1743891624.8495848,-0.03855200111865997,-0.053679998964071274,1.0521279573440552,1.0499999523162842,-2.380000114440918,-0.7699999809265137
1743891624.8695848,-0.04148000106215477,-0.05124000087380409,1.053104043006897,0.5600000023841858,-2.5199999809265137,-0.699999988079071
1743891624.8133492,-0.045871999114751816,-0.06197600066661835,1.035048007965088,1.75,-2.240000009536743,-0.7699999809265137
1743891624.8333492,-0.043432001024484634,-0.05124000087380409,1.0326080322265625,-0.07000000029802322,-2.869999885559082,-0.8399999737739563
1743891624.8533492,-0.043432001024484634,-0.056120000779628754,1.085800051689148,0.2800000011920929,-2.0999999046325684,-0.8399999737739563
1743891624.8733492,-0.0424560010433197,-0.04148000106215477,1.0399279594421387,1.0499999523162842,-2.6600000858306885,-0.9100000262260437
1743891624.8933492,-0.04001599922776222,-0.05124000087380409,1.0570080280303955,0.9800000190734863,-2.309999942779541,-0.9100000262260437
1743891624.9133492,-0.03903999924659729,-0.04440800100564957,1.0589599609375,0.9100000262260437,-2.5199999809265137,-0.8399999737739563
1743891624.903731,-0.03660000115633011,-0.044895999133586884,1.0472480058670044,1.0499999523162842,-2.309999942779541,-0.7699999809265137
1743891624.923731,-0.03415999934077263,-0.04294399917125702,1.0472480058670044,1.0499999523162842,-2.6600000858306885,-0.6299999952316284
1743891624.943731,-0.032207999378442764,-0.05319200083613396,1.0653040409088135,0.9100000262260437,-2.5899999141693115,-0.8399999737739563
1743891624.963731,-0.0302559994161129,-0.04733600094914436,1.0413919687271118,0.5600000023841858,-2.5199999809265137,-0.7699999809265137
1743891624.983731,-0.032207999378442764,-0.057096000760793686,1.0628639459609985,1.0499999523162842,-2.5199999809265137,-0.699999988079071
1743891625.003731,-0.028303999453783035,-0.057583998888731,1.044319987297058,0.8399999737739563,-2.5899999141693115,-0.8399999737739563
1743891624.9205682,-0.030743999406695366,-0.057583998888731,1.0555440187454224,0.699999988079071,-2.450000047683716,-0.9100000262260437
1743891624.9405682,-0.0302559994161129,-0.05807200074195862,1.0579839944839478,1.2599999904632568,-2.240000009536743,-0.6299999952316284
1743891624.9605682,-0.03806399926543236,-0.05026400089263916,1.0462720394134521,0.8399999737739563,-2.5199999809265137,-0.9100000262260437
1743891624.9805682,-0.03806399926543236,-0.05319200083613396,1.0565199851989746,1.0499999523162842,-2.380000114440918,-0.8399999737739563
1743891625.0005682,-0.032207999378442764,-0.05026400089263916,1.0560319423675537,1.0499999523162842,-2.309999942779541,-0.7699999809265137
1743891625.0205681,-0.03806399926543236,-0.04440800100564957,1.0330959558486938,0.9800000190734863,-2.380000114440918,-0.7699999809265137
1743891624.964415,-0.04148000106215477,-0.054655998945236206,1.0887279510498047,0.49000000953674316,-2.1700000762939453,-0.699999988079071
1743891624.984415,-0.03855200111865997,-0.04294399917125702,1.0238239765167236,1.399999976158142,-2.1700000762939453,-0.699999988079071
1743891625.004415,-0.04294399917125702,-0.03806399926543236,1.0799440145492554,0.41999998688697815,-2.309999942779541,-0.6299999952316284
1743891625.024415,-0.037087999284267426,-0.04733600094914436,1.0560319423675537,0.9800000190734863,-2.5199999809265137,-0.5600000023841858
1743891625.044415,-0.04001599922776222,-0.0453840009868145,1.0482239723205566,0.3499999940395355,-2.5899999141693115,-0.7699999809265137
1743891625.064415,-0.037087999284267426,-0.052216000854969025,1.0570080280303955,1.3300000429153442,-2.380000114440918,-0.7699999809265137
1743891624.993886,-0.037087999284267426,-0.05319200083613396,1.050663948059082,0.49000000953674316,-2.5899999141693115,-0.699999988079071
1743891625.013886,-0.032207999378442764,-0.05660799890756607,1.052616000175476,0.8399999737739563,-2.5899999141693115,-0.9100000262260437
1743891625.033886,-0.03513599932193756,-0.053679998964071274,1.0555440187454224,0.7699999809265137,-2.5199999809265137,-0.8399999737739563
1743891625.053886,-0.03513599932193756,-0.05807200074195862,1.0550559759140015,0.9800000190734863,-2.309999942779541,-0.8399999737739563
1743891625.073886,-0.037087999284267426,-0.05416800081729889,1.0560319423675537,0.5600000023841858,-2.5899999141693115,-0.7699999809265137
1743891625.093886,-0.03513599932193756,-0.05514400079846382,1.0565199851989746,1.3300000429153442,-2.380000114440918,-0.7699999809265137
1743891625.03954,-0.035624001175165176,-0.05075199902057648,1.0501760244369507,0.9100000262260437,-2.5899999141693115,-0.8399999737739563
1743891625.05954,-0.037087999284267426,-0.05319200083613396,1.0628639459609985,1.2599999904632568,-2.380000114440918,-0.699999988079071
1743891625.07954,-0.037087999284267426,-0.04733600094914436,1.0462720394134521,1.2599999904632568,-2.380000114440918,-0.699999988079071
1743891625.09954,-0.03660000115633011,-0.049775999039411545,1.0545680522918701,0.6299999952316284,-2.6600000858306885,-0.7699999809265137
1743891625.11954,-0.03513599932193756,-0.048312000930309296,1.051151990890503,1.0499999523162842,-2.380000114440918,-0.6299999952316284
1743891625.13954,-0.03757600113749504,-0.04733600094914436,1.0535919666290283,0.7699999809265137,-2.5899999141693115,-0.7699999809265137
1743891625.096411,-0.032207999378442764,-0.05026400089263916,1.0555440187454224,1.1200000047683716,-2.450000047683716,-0.699999988079071
1743891625.116411,-0.03367200121283531,-0.048312000930309296,1.0457839965820312,1.2599999904632568,-2.240000009536743,-0.8399999737739563
1743891625.136411,-0.04001599922776222,-0.04636000096797943,1.0716480016708374,-0.41999998688697815,-3.0799999237060547,-0.9800000190734863
1743891625.156411,-0.03660000115633011,-0.04148000106215477,1.0218720436096191,2.5199999809265137,-2.0999999046325684,-0.7699999809265137
1743891625.176411,-0.04294399917125702,-0.04294399917125702,1.0789680480957031,0.3499999940395355,-2.1700000762939453,-0.8399999737739563
1743891625.196411,-0.03367200121283531,-0.05026400089263916,1.0516400337219238,2.0999999046325684,-2.5899999141693115,-0.9100000262260437
1743891625.1454773,-0.040991999208927155,-0.048312000930309296,1.0521279573440552,0.0,-2.7300000190734863,-0.8399999737739563
1743891625.1654773,-0.04050400108098984,-0.054655998945236206,1.0589599609375,1.399999976158142,-2.309999942779541,-0.8399999737739563
1743891625.1854773,-0.04050400108098984,-0.05953599885106087,1.0496879816055298,0.699999988079071,-2.5199999809265137,-0.7699999809265137
1743891625.2054772,-0.03757600113749504,-0.058559998869895935,1.0516400337219238,0.9800000190734863,-2.5199999809265137,-0.6299999952316284
1743891625.2254772,-0.039528001099824905,-0.057583998888731,1.061400055885315,0.7699999809265137,-2.5199999809265137,-0.699999988079071
1743891625.2454772,-0.03660000115633011,-0.058559998869895935,1.0462720394134521,0.9100000262260437,-2.450000047683716,-0.699999988079071
1743891625.17406,-0.04294399917125702,-0.057096000760793686,1.1136159896850586,0.699999988079071,-2.5899999141693115,-0.7699999809265137
1743891625.19406,-0.03513599932193756,-0.054655998945236206,1.0233360528945923,1.75,-1.9600000381469727,-0.699999988079071
1743891625.21406,-0.03806399926543236,-0.04636000096797943,1.0467599630355835,1.0499999523162842,-2.380000114440918,-0.7699999809265137
1743891625.23406,-0.03172000125050545,-0.05026400089263916,1.0677440166473389,1.3300000429153442,-2.380000114440918,-0.7699999809265137
1743891625.25406,-0.035624001175165176,-0.04733600094914436,1.042855978012085,1.0499999523162842,-2.450000047683716,-0.7699999809265137
1743891625.27406,-0.0331839993596077,-0.04636000096797943,1.0653040409088135,0.7699999809265137,-2.380000114440918,-0.7699999809265137
1743891625.2182763,-0.03415999934077263,-0.040991999208927155,1.044808030128479,0.9100000262260437,-2.5199999809265137,-0.7699999809265137
1743891625.2382762,-0.0331839993596077,-0.04294399917125702,1.0521279573440552,0.6299999952316284,-2.6600000858306885,-0.9100000262260437
1743891625.2582762,-0.0331839993596077,-0.05124000087380409,1.0599360466003418,0.9100000262260437,-2.240000009536743,-0.699999988079071
1743891625.2782762,-0.03660000115633011,-0.04294399917125702,1.0472480058670044,0.3499999940395355,-2.6600000858306885,-0.7699999809265137
1743891625.2982762,-0.037087999284267426,-0.052216000854969025,1.0579839944839478,1.1200000047683716,-2.309999942779541,-0.8399999737739563
1743891625.3182762,-0.03757600113749504,-0.04684799909591675,1.0540800094604492,0.7699999809265137,-2.5899999141693115,-0.7699999809265137
1743891625.276434,-0.035624001175165176,-0.05124000087380409,1.0492000579833984,0.9100000262260437,-2.380000114440918,-0.699999988079071
1743891625.296434,-0.03757600113749504,-0.05270399898290634,1.0521279573440552,0.9800000190734863,-2.380000114440918,-0.7699999809265137
1743891625.316434,-0.03415999934077263,-0.05172799900174141,1.0535919666290283,0.8399999737739563,-2.5199999809265137,-0.699999988079071
1743891625.336434,-0.03855200111865997,-0.05124000087380409,1.0487120151519775,0.9100000262260437,-2.380000114440918,-0.699999988079071
1743891625.3564339,-0.03660000115633011,-0.05124000087380409,1.0550559759140015,0.9800000190734863,-2.450000047683716,-0.7699999809265137
1743891625.3764338,-0.03806399926543236,-0.05124000087380409,1.050663948059082,1.0499999523162842,-2.5199999809265137,-0.7699999809265137
1743891625.3234053,-0.03855200111865997,-0.05270399898290634,1.0535919666290283,0.8399999737739563,-2.5899999141693115,-0.7699999809265137
1743891625.3434052,-0.03903999924659729,-0.05563199892640114,1.0540800094604492,1.0499999523162842,-2.450000047683716,-0.6299999952316284
1743891625.3634052,-0.039528001099824905,-0.054655998945236206,1.0516400337219238,0.8399999737739563,-2.5199999809265137,-0.8399999737739563
1743891625.3834052,-0.03806399926543236,-0.053679998964071274,1.0574959516525269,0.9800000190734863,-2.450000047683716,-0.8399999737739563
1743891625.4034052,-0.04001599922776222,-0.054655998945236206,1.050663948059082,1.0499999523162842,-2.450000047683716,-0.7699999809265137
1743891625.4234052,-0.03855200111865997,-0.05075199902057648,1.0574959516525269,0.9100000262260437,-2.5199999809265137,-0.7699999809265137
1743891625.3688312,-0.03903999924659729,-0.05026400089263916,1.0521279573440552,1.0499999523162842,-2.309999942779541,-0.9100000262260437
1743891625.3888311,-0.03903999924659729,-0.04928800091147423,1.053104043006897,0.9100000262260437,-2.380000114440918,-0.7699999809265137
1743891625.4088311,-0.03660000115633011,-0.04782399907708168,1.0540800094604492,0.8399999737739563,-2.450000047683716,-0.7699999809265137
1743891625.428831,-0.0331839993596077,-0.04684799909591675,1.0540800094604492,0.9100000262260437,-2.5199999809265137,-0.7699999809265137
1743891625.448831,-0.03611199930310249,-0.04684799909591675,1.052616000175476,0.8399999737739563,-2.5199999809265137,-0.7699999809265137
1743891625.468831,-0.03172000125050545,-0.04879999905824661,1.0565199851989746,0.8399999737739563,-2.450000047683716,-0.7699999809265137
1743891625.397404,-0.03367200121283531,-0.05075199902057648,1.050663948059082,0.9800000190734863,-2.5199999809265137,-0.7699999809265137
1743891625.417404,-0.03172000125050545,-0.05172799900174141,1.0535919666290283,0.8399999737739563,-2.5199999809265137,-0.699999988079071
1743891625.437404,-0.03269600123167038,-0.05416800081729889,1.0535919666290283,0.9100000262260437,-2.450000047683716,-0.7699999809265137
1743891625.457404,-0.03513599932193756,-0.053679998964071274,1.0535919666290283,0.8399999737739563,-2.450000047683716,-0.8399999737739563
1743891625.4774039,-0.03367200121283531,-0.052216000854969025,1.0555440187454224,0.9800000190734863,-2.450000047683716,-0.9100000262260437
1743891625.4974039,-0.034648001194000244,-0.053679998964071274,1.0516400337219238,0.9100000262260437,-2.450000047683716,-0.7699999809265137
1743891625.4708612,-0.03660000115633011,-0.05319200083613396,1.0535919666290283,0.9800000190734863,-2.5899999141693115,-0.9100000262260437
1743891625.4908612,-0.037087999284267426,-0.052216000854969025,1.0516400337219238,1.1200000047683716,-2.450000047683716,-0.8399999737739563
1743891625.5108612,-0.03757600113749504,-0.05124000087380409,1.053104043006897,0.8399999737739563,-2.5199999809265137,-0.8399999737739563
1743891625.5308611,-0.039528001099824905,-0.052216000854969025,1.0545680522918701,0.9100000262260437,-2.5199999809265137,-0.7699999809265137
1743891625.5508611,-0.04050400108098984,-0.05124000087380409,1.050663948059082,0.9800000190734863,-2.450000047683716,-0.699999988079071
1743891625.570861,-0.03903999924659729,-0.05026400089263916,1.053104043006897,0.9100000262260437,-2.450000047683716,-0.7699999809265137
1743891625.51809,-0.03855200111865997,-0.05026400089263916,1.0535919666290283,0.7699999809265137,-2.5199999809265137,-0.6299999952316284
1743891625.53809,-0.040991999208927155,-0.049775999039411545,1.0535919666290283,0.699999988079071,-2.450000047683716,-0.699999988079071
1743891625.55809,-0.03806399926543236,-0.04928800091147423,1.0565199851989746,0.8399999737739563,-2.450000047683716,-0.7699999809265137
1743891625.57809,-0.03757600113749504,-0.04928800091147423,1.0535919666290283,0.9800000190734863,-2.450000047683716,-0.7699999809265137
1743891625.59809,-0.03806399926543236,-0.04928800091147423,1.0521279573440552,0.9800000190734863,-2.5199999809265137,-0.7699999809265137
1743891625.61809,-0.034648001194000244,-0.04928800091147423,1.0550559759140015,0.9800000190734863,-2.5199999809265137,-0.8399999737739563
1743891625.5473962,-0.03513599932193756,-0.04879999905824661,1.0540800094604492,0.699999988079071,-2.380000114440918,-0.9100000262260437
1743891625.5673962,-0.03367200121283531,-0.05124000087380409,1.0540800094604492,0.9100000262260437,-2.5199999809265137,-0.7699999809265137
1743891625.5873961,-0.03172000125050545,-0.05026400089263916,1.0550559759140015,0.8399999737739563,-2.450000047683716,-0.8399999737739563
1743891625.6073961,-0.032207999378442764,-0.04928800091147423,1.0540800094604492,0.9100000262260437,-2.450000047683716,-0.7699999809265137
1743891625.627396,-0.03367200121283531,-0.05026400089263916,1.0521279573440552,0.9100000262260437,-2.5199999809265137,-0.8399999737739563
1743891625.647396,-0.03513599932193756,-0.04879999905824661,1.0535919666290283,0.7699999809265137,-2.380000114440918,-0.7699999809265137
1743891625.579255,-0.03269600123167038,-0.052216000854969025,1.053104043006897,0.9800000190734863,-2.450000047683716,-0.699999988079071
1743891625.599255,-0.03415999934077263,-0.05172799900174141,1.052616000175476,0.8399999737739563,-2.450000047683716,-0.699999988079071
1743891625.619255,-0.03513599932193756,-0.052216000854969025,1.050663948059082,0.8399999737739563,-2.5199999809265137,-0.699999988079071
1743891625.639255,-0.03660000115633011,-0.054655998945236206,1.0550559759140015,0.9800000190734863,-2.380000114440918,-0.7699999809265137
1743891625.659255,-0.03855200111865997,-0.05416800081729889,1.0535919666290283,0.9800000190734863,-2.380000114440918,-0.7699999809265137
1743891625.679255,-0.03757600113749504,-0.05172799900174141,1.0555440187454224,0.9800000190734863,-2.309999942779541,-0.7699999809265137
1743891625.6254983,-0.03757600113749504,-0.052216000854969025,1.0545680522918701,0.9800000190734863,-2.450000047683716,-0.7699999809265137
1743891625.6454983,-0.040991999208927155,-0.048312000930309296,1.052616000175476,0.8399999737739563,-2.450000047683716,-0.7699999809265137
1743891625.6654983,-0.039528001099824905,-0.05075199902057648,1.0570080280303955,0.8399999737739563,-2.380000114440918,-0.8399999737739563
1743891625.6854982,-0.039528001099824905,-0.048312000930309296,1.0516400337219238,0.9800000190734863,-2.450000047683716,-0.699999988079071
1743891625.7054982,-0.0424560010433197,-0.05075199902057648,1.0550559759140015,0.9800000190734863,-2.450000047683716,-0.7699999809265137
1743891625.7254982,-0.04001599922776222,-0.05075199902057648,1.0545680522918701,0.9800000190734863,-2.450000047683716,-0.8399999737739563
1743891625.6810281,-0.03757600113749504,-0.04928800091147423,1.0540800094604492,0.8399999737739563,-2.450000047683716,-0.7699999809265137
1743891625.701028,-0.03611199930310249,-0.04733600094914436,1.053104043006897,0.8399999737739563,-2.5199999809265137,-0.7699999809265137
1743891625.721028,-0.035624001175165176,-0.04684799909591675,1.0535919666290283,0.8399999737739563,-2.450000047683716,-0.699999988079071
1743891625.741028,-0.03415999934077263,-0.04928800091147423,1.0535919666290283,0.8399999737739563,-2.450000047683716,-0.7699999809265137
1743891625.761028,-0.03415999934077263,-0.049775999039411545,1.053104043006897,0.8399999737739563,-2.380000114440918,-0.699999988079071
1743891625.781028,-0.035624001175165176,-0.05026400089263916,1.0535919666290283,0.7699999809265137,-2.5199999809265137,-0.8399999737739563
1743891625.7135692,-0.0331839993596077,-0.05124000087380409,1.0521279573440552,0.8399999737739563,-2.450000047683716,-0.8399999737739563
1743891625.7335691,-0.03513599932193756,-0.05075199902057648,1.0540800094604492,0.9800000190734863,-2.450000047683716,-0.6299999952316284
1743891625.7535691,-0.035624001175165176,-0.05124000087380409,1.0550559759140015,0.9800000190734863,-2.450000047683716,-0.9100000262260437
1743891625.773569,-0.03415999934077263,-0.05172799900174141,1.0550559759140015,0.9800000190734863,-2.380000114440918,-0.9100000262260437
1743891625.793569,-0.0331839993596077,-0.05124000087380409,1.053104043006897,0.9800000190734863,-2.380000114440918,-0.8399999737739563
1743891625.813569,-0.03611199930310249,-0.05124000087380409,1.0540800094604492,0.9800000190734863,-2.380000114440918,-0.8399999737739563
1743891625.757681,-0.035624001175165176,-0.049775999039411545,1.0540800094604492,1.0499999523162842,-2.309999942779541,-0.7699999809265137
1743891625.7776809,-0.03611199930310249,-0.05124000087380409,1.0570080280303955,0.9800000190734863,-2.5199999809265137,-0.699999988079071
1743891625.7976809,-0.03855200111865997,-0.05319200083613396,1.0535919666290283,0.8399999737739563,-2.450000047683716,-0.7699999809265137
1743891625.8176808,-0.03855200111865997,-0.04928800091147423,1.0540800094604492,0.9100000262260437,-2.450000047683716,-0.7699999809265137
1743891625.8376808,-0.03855200111865997,-0.05124000087380409,1.0550559759140015,0.9100000262260437,-2.380000114440918,-0.7699999809265137
1743891625.8576808,-0.04001599922776222,-0.05124000087380409,1.0516400337219238,0.9100000262260437,-2.450000047683716,-0.5600000023841858
1743891625.803529,-0.039528001099824905,-0.053679998964071274,1.0550559759140015,0.9100000262260437,-2.450000047683716,-0.699999988079071
1743891625.823529,-0.04148000106215477,-0.05075199902057648,1.0560319423675537,0.9800000190734863,-2.450000047683716,-0.7699999809265137
1743891625.843529,-0.03611199930310249,-0.05124000087380409,1.0540800094604492,0.9100000262260437,-2.5199999809265137,-0.9100000262260437
1743891625.863529,-0.03806399926543236,-0.05124000087380409,1.050663948059082,0.8399999737739563,-2.380000114440918,-0.8399999737739563
1743891625.883529,-0.03660000115633011,-0.052216000854969025,1.0545680522918701,0.9100000262260437,-2.450000047683716,-0.699999988079071
1743891625.903529,-0.035624001175165176,-0.05124000087380409,1.053104043006897,0.9800000190734863,-2.450000047683716,-0.7699999809265137
1743891625.85623,-0.03269600123167038,-0.05026400089263916,1.052616000175476,0.9100000262260437,-2.450000047683716,-0.7699999809265137
1743891625.87623,-0.034648001194000244,-0.04928800091147423,1.0521279573440552,0.8399999737739563,-2.380000114440918,-0.7699999809265137
1743891625.89623,-0.034648001194000244,-0.05124000087380409,1.0555440187454224,1.0499999523162842,-2.380000114440918,-0.699999988079071
1743891625.91623,-0.035624001175165176,-0.05075199902057648,1.0535919666290283,0.9800000190734863,-2.450000047683716,-0.699999988079071
1743891625.93623,-0.03172000125050545,-0.05075199902057648,1.052616000175476,0.9800000190734863,-2.450000047683716,-0.7699999809265137
1743891625.95623,-0.034648001194000244,-0.048312000930309296,1.0521279573440552,0.9800000190734863,-2.450000047683716,-0.6299999952316284
1743891625.893888,-0.03415999934077263,-0.04928800091147423,1.051151990890503,0.9100000262260437,-2.5899999141693115,-0.7699999809265137
1743891625.913888,-0.03660000115633011,-0.04733600094914436,1.052616000175476,0.8399999737739563,-2.380000114440918,-0.8399999737739563
1743891625.933888,-0.03513599932193756,-0.04879999905824661,1.0540800094604492,0.9100000262260437,-2.450000047683716,-0.7699999809265137
1743891625.953888,-0.03757600113749504,-0.04928800091147423,1.0545680522918701,0.9100000262260437,-2.450000047683716,-0.699999988079071
1743891625.973888,-0.03806399926543236,-0.048312000930309296,1.0550559759140015,0.9100000262260437,-2.450000047683716,-0.7699999809265137
1743891625.993888,-0.03757600113749504,-0.049775999039411545,1.0550559759140015,0.9100000262260437,-2.450000047683716,-0.699999988079071
1743891625.9249732,-0.03757600113749504,-0.05270399898290634,1.0540800094604492,0.8399999737739563,-2.450000047683716,-0.699999988079071
1743891625.9449732,-0.03806399926543236,-0.05319200083613396,1.0535919666290283,0.9800000190734863,-2.5199999809265137,-0.8399999737739563
