Millis	AccelX	AccelY	AccelZ	GyroX	GyroY	GyroZ
0	-0.986	-0.146	0.073	-5.46	-5.53	-0.84
18	-0.996	-0.144	0.064	-7.77	-6.3	-1.19
38	-0.988	-0.169	0.068	-5.6	-5.11	-1.19
62	-0.985	-0.163	0.07	-3.57	-4.41	-1.12
80	-0.987	-0.157	0.073	-3.15	-3.5	-1.12
100	-0.999	-0.141	0.072	-3.64	-3.85	-1.4
121	-1.002	-0.133	0.07	-5.6	-4.13	-2.03
145	-0.984	-0.184	0.07	-6.86	-4.34	-1.4
165	-0.988	-0.165	0.079	-0.35	-3.15	-1.33
180	-0.988	-0.153	0.077	-0.56	-2.66	-1.54
203	-0.988	-0.149	0.071	0.14	-2.1	-1.47
223	-0.995	-0.146	0.068	-0.14	-2.1	-1.89
242	-1.002	-0.137	0.068	-0.56	-2.87	-1.75
262	-0.987	-0.154	0.072	-2.24	-3.22	-1.75
286	-0.998	-0.16	0.069	-1.82	-3.29	-1.47
306	-0.983	-0.156	0.073	-0.98	-2.45	-1.47
326	-0.99	-0.154	0.072	-0.7	-2.03	-1.26
344	-0.982	-0.155	0.073	-0.49	-1.05	-0.91
361	-1.0	-0.155	0.071	-0.14	-1.26	-0.84
385	-0.993	-0.151	0.068	-0.21	-0.77	-0.98
403	-0.996	-0.15	0.069	-0.21	-0.91	-1.05
423	-0.988	-0.151	0.074	-0.14	-1.4	-1.19
443	-0.994	-0.148	0.068	0.0	-0.98	-1.47
467	-0.986	-0.152	0.068	0.28	-0.14	-1.26
484	-0.998	-0.148	0.067	0.28	-0.56	-1.61
503	-0.993	-0.149	0.065	0.28	0.14	-1.75
522	-0.985	-0.151	0.064	0.49	0.77	-1.61
547	-0.995	-0.152	0.061	0.98	1.05	-1.54
566	-0.989	-0.154	0.059	1.19	2.38	-1.54
587	-0.991	-0.148	0.059	2.03	2.94	-1.47
607	-0.994	-0.147	0.055	2.03	3.57	-1.61
627	-0.985	-0.154	0.051	2.73	4.55	-1.61
647	-0.988	-0.145	0.047	4.76	6.93	-1.68
664	-1.004	-0.142	0.047	4.34	6.93	-1.82
683	-0.994	-0.139	0.051	3.71	5.74	-1.96
702	-0.987	-0.149	0.048	4.83	7.7	-1.89
727	-1.014	-0.16	0.05	0.7	2.03	-2.38
746	-0.977	-0.166	0.048	3.15	3.29	-2.1
768	-1.002	-0.158	0.044	2.31	2.87	-2.03
788	-0.986	-0.155	0.04	4.06	3.64	-1.47
811	-0.996	-0.151	0.036	5.74	4.9	-1.12
831	-0.989	-0.158	0.029	7.14	4.97	-0.84
851	-0.989	-0.144	0.03	7.98	6.51	-0.63
872	-0.999	-0.145	0.026	8.33	6.3	-0.28
890	-1.001	-0.142	0.024	7.84	4.83	-1.05
914	-0.995	-0.154	0.023	7.63	4.69	-1.33
934	-1.001	-0.159	0.021	6.51	2.73	-1.26
953	-1.001	-0.15	0.023	5.46	1.68	-1.47
973	-0.991	-0.153	0.025	4.62	1.47	-1.75
994	-1.005	-0.147	0.016	4.2	1.75	-2.1
1012	-1.0	-0.154	0.013	3.5	0.56	-1.96
1036	-0.993	-0.152	0.015	2.94	0.28	-1.89
1056	-0.994	-0.153	0.014	2.03	-0.07	-1.82
1075	-0.995	-0.152	0.013	2.1	-0.28	-1.82
1094	-0.997	-0.14	0.019	1.26	-0.21	-2.38
1113	-1.002	-0.148	0.009	1.68	-0.84	-1.96
1136	-0.997	-0.148	0.008	1.33	-1.54	-2.03
1160	-0.996	-0.147	0.006	0.63	-2.1	-2.24
1178	-0.996	-0.148	0.007	0.49	-2.66	-2.31
1200	-0.995	-0.151	0.009	0.07	-2.94	-2.52
1215	-0.994	-0.15	0.01	0.0	-2.94	-2.73
1239	-0.995	-0.15	0.01	-0.14	-3.15	-2.52
1257	-0.996	-0.153	0.008	-0.42	-3.29	-2.45
1279	-0.995	-0.151	0.012	-0.56	-3.36	-2.24
1300	-0.994	-0.153	0.012	-1.05	-3.57	-2.03
1320	-0.991	-0.156	0.011	-0.77	-3.43	-1.82
1344	-0.994	-0.152	0.011	-0.63	-3.15	-1.68
1362	-0.994	-0.155	0.01	-0.84	-3.43	-1.68
1386	-0.999	-0.152	0.008	-2.31	-3.78	-1.68
1406	-1.008	-0.163	0.014	-5.88	-7.77	-2.31
1426	-0.976	-0.145	0.015	-5.39	-5.39	-2.24
1444	-1.019	-0.168	0.013	-7.07	-8.12	-2.73
1466	-0.983	-0.144	0.017	-4.83	-6.72	-2.31
1486	-1.005	-0.165	0.018	-6.3	-7.63	-2.31
1506	-0.983	-0.153	0.019	-4.13	-7.07	-2.38
1526	-0.995	-0.16	0.017	-3.85	-6.86	-2.31
1543	-0.986	-0.154	0.017	-1.96	-5.53	-2.24
1562	-0.987	-0.154	0.018	-0.49	-4.06	-1.47
1587	-1.016	-0.155	0.024	-3.57	-7.0	-2.03
1607	-0.988	-0.158	0.023	-2.59	-6.58	-1.89
1625	-0.99	-0.154	0.026	-2.66	-5.18	-1.75
1646	-0.986	-0.157	0.022	-0.7	-5.32	-1.54
1671	-0.988	-0.154	0.023	0.07	-2.94	-1.26
1690	-1.007	-0.157	0.025	0.28	-4.06	-1.4
1705	-0.98	-0.158	0.025	0.7	-2.94	-1.19
1730	-0.997	-0.16	0.02	1.4	-3.22	-0.56
1750	-0.998	-0.153	0.015	1.47	-3.15	0.21
1769	-0.995	-0.153	0.021	1.54	-3.64	0.91
1793	-0.99	-0.154	0.023	1.4	-2.8	1.26
1813	-0.996	-0.146	0.022	2.1	-2.52	0.63
1828	-0.996	-0.142	0.023	2.52	-2.38	-0.14
1848	-0.991	-0.137	0.02	3.43	-1.26	-0.77
1872	-0.995	-0.142	0.022	5.04	0.49	-1.61
1896	-0.991	-0.148	0.028	5.6	1.19	-2.03
1916	-1.001	-0.153	0.024	5.32	0.63	-2.59
1936	-0.996	-0.162	0.028	5.25	-0.07	-2.24
1953	-0.992	-0.164	0.03	5.11	0.14	-1.96
1975	-0.995	-0.166	0.029	4.76	-0.42	-1.47
1995	-0.995	-0.159	0.025	4.76	-0.28	-0.91
2015	-0.992	-0.153	0.024	3.78	-0.77	-0.7
2039	-0.995	-0.15	0.022	3.15	-0.77	-0.77
2059	-0.998	-0.152	0.019	2.66	-0.98	-0.98
2083	-0.995	-0.145	0.018	2.17	-1.05	-1.12
2099	-0.998	-0.145	0.02	1.75	-1.4	-1.47
2120	-0.996	-0.143	0.016	0.56	-1.54	-1.75
2144	-1.002	-0.153	0.021	-1.47	-2.8	-2.73
2164	-1.004	-0.154	0.02	-4.2	-4.9	-3.22
2188	-1.01	-0.153	0.02	-7.7	-7.0	-4.27
2207	-0.985	-0.146	0.015	-4.34	-7.77	-3.71
2226	-0.99	-0.153	0.015	-3.57	-5.53	-3.01
2246	-1.0	-0.155	0.016	-3.43	-7.21	-3.15
2270	-0.996	-0.154	0.019	-3.99	-7.35	-2.45
2290	-1.005	-0.15	0.023	-5.18	-8.05	-2.8
2310	-0.98	-0.161	0.019	-2.66	-6.72	-2.59
2327	-0.996	-0.153	0.024	-2.1	-5.46	-2.52
2350	-0.996	-0.152	0.029	-2.66	-5.67	-2.73
2370	-0.987	-0.154	0.027	-1.47	-4.69	-2.52
2387	-0.999	-0.149	0.029	-2.24	-4.34	-2.59
2406	-0.991	-0.157	0.031	-1.82	-5.39	-2.52
2430	-0.989	-0.163	0.03	-2.45	-5.95	-2.59
2445	-0.982	-0.162	0.031	-0.35	-2.45	-2.52
2470	-0.992	-0.161	0.032	0.84	-1.89	-2.24
2487	-1.002	-0.155	0.034	-0.07	-1.75	-2.24
2511	-0.987	-0.161	0.032	0.49	-2.1	-2.17
2531	-0.989	-0.161	0.028	0.98	-0.84	-1.82
2549	-0.997	-0.158	0.026	1.47	-0.84	-1.68
2573	-0.989	-0.154	0.028	1.33	0.14	-1.68
2593	-0.987	-0.156	0.025	1.61	1.05	-1.82
2617	-0.991	-0.157	0.027	2.38	1.68	-2.31
2637	-0.99	-0.154	0.022	3.71	2.87	-2.45
2657	-0.981	-0.158	0.02	5.81	4.69	-2.24
2677	-0.988	-0.154	0.02	7.63	7.14	-2.03
2698	-0.997	-0.16	0.018	8.47	6.16	-1.96
2717	-0.992	-0.159	0.018	7.98	6.02	-2.03
2733	-0.999	-0.16	0.015	7.56	5.39	-1.96
2753	-1.001	-0.167	0.012	7.56	4.27	-1.82
2772	-0.994	-0.17	0.01	6.79	3.22	-1.12
2797	-1.001	-0.155	0.007	4.76	2.03	-1.26
2817	-0.996	-0.159	0.004	3.64	0.49	-1.54
2836	-0.994	-0.159	0.003	3.08	0.14	-1.89
2853	-0.999	-0.159	0.003	2.38	-0.28	-2.03
2876	-0.997	-0.16	0.003	2.38	-0.91	-2.24
2897	-0.997	-0.161	0.0	1.82	-0.91	-2.24
2921	-0.995	-0.162	0.001	1.19	-1.4	-2.45
2939	-0.992	-0.163	0.001	1.19	-1.61	-2.17
2961	-0.993	-0.164	-0.003	1.05	-1.89	-1.96
2979	-1.011	-0.164	0.002	-2.8	-3.43	-2.17
2998	-1.023	-0.17	0.009	-8.61	-9.52	-3.29
3023	-0.962	-0.154	0.001	-5.04	-6.58	-2.94
3043	-1.008	-0.164	0.005	-5.88	-6.58	-3.01
3067	-0.978	-0.162	0.005	-5.04	-11.2	-3.5
3084	-0.966	-0.15	0.012	-4.76	-5.74	-3.08
3107	-1.016	-0.165	0.005	-5.18	-8.4	-3.43
3126	-0.982	-0.173	0.006	-4.62	-9.94	-3.36
3146	-0.994	-0.171	0.008	-4.55	-7.84	-3.15
3168	-0.995	-0.166	0.011	-2.87	-7.84	-2.52
3192	-0.983	-0.164	0.012	-1.19	-5.95	-1.75
3209	-0.987	-0.169	0.008	-0.35	-5.11	-1.26
3229	-0.993	-0.163	0.011	-0.63	-6.16	-1.12
3253	-0.995	-0.156	0.012	-0.98	-6.44	-1.54
3272	-0.996	-0.157	0.01	-0.49	-5.95	-1.89
3296	-1.001	-0.167	0.014	-0.98	-7.35	-1.96
3313	-0.985	-0.16	0.02	-1.12	-7.21	-1.54
3334	-0.99	-0.157	0.02	-1.61	-6.16	-1.68
3356	-0.98	-0.168	0.022	0.0	-3.99	-1.68
3378	-0.976	-0.169	0.027	4.13	-1.19	-0.98
3396	-0.99	-0.162	0.029	4.48	-0.35	-0.91
3415	-0.995	-0.166	0.03	5.88	-0.98	-0.91
3440	-0.988	-0.174	0.033	5.39	-0.07	-0.98
3456	-0.999	-0.181	0.031	5.46	-0.77	-0.7
3475	-0.99	-0.177	0.027	6.44	-1.68	-0.28
3499	-0.992	-0.165	0.03	4.76	-1.75	0.0
3518	-0.996	-0.171	0.027	2.73	-2.59	-0.28
3543	-0.99	-0.167	0.025	2.87	-2.87	-0.21
3559	-1.005	-0.171	0.026	-0.28	-4.76	-0.63
3579	-0.985	-0.158	0.027	-0.14	-5.32	-0.49
3601	-0.993	-0.162	0.024	-0.35	-4.34	-0.42
3620	-1.017	-0.172	0.035	-4.27	-7.42	-1.26
3644	-0.996	-0.162	0.03	-4.76	-8.75	-1.54
3664	-0.987	-0.153	0.03	-5.46	-6.58	-1.82
3684	-1.011	-0.158	0.031	-5.74	-8.89	-2.03
3703	-0.962	-0.161	0.03	-2.45	-5.39	-1.4
3721	-0.99	-0.154	0.035	-2.73	-3.36	-1.4
3741	-0.993	-0.166	0.031	-2.59	-7.35	-1.54
3765	-0.978	-0.155	0.035	-2.38	-4.41	-1.4
3784	-0.991	-0.158	0.033	-0.28	-3.22	-1.05
3803	-0.986	-0.157	0.034	0.21	-1.96	-0.91
3823	-0.993	-0.161	0.036	0.35	-1.4	-0.98
3845	-0.991	-0.159	0.03	1.33	-0.77	-0.91
3864	-0.991	-0.164	0.028	2.1	-0.77	-0.77
3888	-0.995	-0.154	0.027	2.52	-0.35	-0.56
3908	-0.989	-0.16	0.033	3.15	0.14	-0.49
3925	-0.989	-0.154	0.034	3.92	1.26	-0.56
3944	-0.99	-0.158	0.032	5.74	1.68	-0.77
3969	-0.994	-0.153	0.031	5.74	2.24	-1.47
3990	-0.999	-0.153	0.028	4.97	1.19	-2.1
4008	-0.996	-0.162	0.024	4.69	0.84	-2.38
4028	-0.996	-0.16	0.026	3.5	0.14	-2.8
4052	-0.991	-0.161	0.028	3.43	-0.07	-3.01
4071	-0.996	-0.16	0.023	2.59	-0.63	-3.15
4090	-0.994	-0.165	0.021	2.17	-1.12	-3.22
4114	-0.996	-0.161	0.02	1.4	-1.33	-3.01
4134	-0.996	-0.161	0.021	0.63	-1.96	-2.87
4154	-0.992	-0.168	0.02	0.49	-2.31	-2.45
4174	-0.992	-0.168	0.023	0.49	-2.24	-2.17
4193	-0.991	-0.167	0.021	0.84	-2.03	-1.75
4215	-0.989	-0.169	0.021	1.33	-1.89	-1.19
4234	-0.993	-0.164	0.018	0.98	-1.96	-0.91
4254	-0.995	-0.162	0.017	0.77	-2.24	-0.98
4277	-0.991	-0.163	0.018	0.91	-2.31	-0.98
4298	-0.995	-0.163	0.018	1.12	-2.52	-0.98
4318	-0.993	-0.16	0.02	0.84	-2.73	-1.05
4340	-0.994	-0.161	0.022	0.63	-2.8	-0.84
4364	-0.991	-0.165	0.02	0.7	-2.45	-0.91
4384	-0.991	-0.162	0.021	0.91	-2.31	-0.77
4402	-0.993	-0.161	0.02	1.05	-2.03	-0.84
4424	-0.995	-0.161	0.02	0.98	-2.17	-0.98
4441	-0.99	-0.162	0.021	1.19	-1.96	-0.77
4465	-0.993	-0.158	0.019	1.26	-1.68	-1.05
4482	-0.993	-0.157	0.019	1.47	-1.68	-1.33
4505	-0.999	-0.158	0.017	0.91	-2.03	-1.4
4529	-0.995	-0.162	0.018	0.91	-3.08	-1.4
4547	-0.996	-0.158	0.016	0.77	-3.29	-1.12
4571	-0.999	-0.155	0.014	0.28	-4.06	-1.26
4591	-0.998	-0.156	0.017	-0.07	-4.62	-1.47
4606	-0.996	-0.156	0.017	-0.49	-4.83	-1.61
4626	-0.996	-0.157	0.019	-0.63	-5.04	-1.82
4651	-0.996	-0.16	0.02	-0.7	-4.97	-2.17
4667	-0.99	-0.157	0.023	-1.05	-4.97	-2.24
4686	-0.992	-0.159	0.024	-1.12	-4.41	-1.89
4711	-0.992	-0.166	0.026	-0.42	-4.55	-1.68
4731	-0.994	-0.163	0.027	-0.77	-4.2	-1.68
4749	-0.989	-0.163	0.027	-0.14	-3.57	-1.54
4771	-0.994	-0.16	0.028	-0.07	-3.29	-1.82
4795	-0.988	-0.16	0.027	0.35	-2.8	-1.61
4815	-0.995	-0.163	0.029	0.63	-2.38	-1.61
4839	-0.986	-0.163	0.027	0.77	-1.82	-1.47
4858	-0.989	-0.16	0.027	0.98	-0.84	-1.68
4879	-0.994	-0.16	0.028	1.12	-0.84	-1.82
4899	-0.987	-0.163	0.027	1.05	0.14	-1.89
4920	-0.991	-0.162	0.024	1.54	0.84	-1.96
4939	-0.992	-0.159	0.022	0.91	1.05	-1.89
4964	-0.994	-0.165	0.02	0.84	0.63	-2.24
4984	-0.989	-0.157	0.017	1.05	1.75	-2.31
5006	-0.998	-0.163	0.016	-0.07	0.98	-2.17
5030	-0.988	-0.164	0.01	-0.14	-1.33	-2.38
5049	-0.987	-0.157	0.01	-0.07	0.42	-2.1
5070	-1.002	-0.164	0.011	-0.56	-0.77	-1.82
5094	-0.996	-0.162	0.014	-1.75	-1.19	-1.96
5114	-0.992	-0.158	0.008	-0.98	-0.84	-1.96
5133	-0.999	-0.162	0.006	0.07	-1.68	-2.1
5153	-0.992	-0.161	0.003	1.4	-1.26	-1.82
5174	-0.997	-0.158	0.002	1.4	-1.33	-1.54
5198	-0.996	-0.161	0.007	1.47	-1.75	-1.4
5219	-0.993	-0.155	0.006	0.98	-1.82	-1.68
5238	-0.997	-0.162	0.005	1.4	-2.31	-1.89
5256	-0.988	-0.158	0.006	1.82	-1.54	-2.1
5278	-0.993	-0.166	0.005	2.45	-1.75	-2.03
5302	-0.994	-0.166	-0.001	2.52	-1.89	-1.82
5321	-0.997	-0.164	0.01	2.66	-2.66	-1.61
5340	-0.988	-0.162	0.009	2.45	-2.1	-1.4
5365	-1.004	-0.169	0.008	2.45	-2.52	-1.26
5385	-0.993	-0.17	0.013	2.24	-3.29	-0.98
5405	-0.984	-0.169	0.01	1.75	-1.96	-0.77
5423	-1.006	-0.16	0.011	0.91	-2.73	-1.05
5443	-0.987	-0.162	0.01	1.68	-2.94	-0.98
5464	-0.989	-0.162	0.011	0.98	-1.68	-1.12
5485	-0.994	-0.161	0.015	1.12	-2.17	-1.12
5509	-0.984	-0.155	0.011	0.77	-1.4	-1.4
5529	-0.995	-0.161	0.011	0.84	-1.26	-1.47
5544	-0.988	-0.158	0.008	0.98	-0.84	-1.54
5568	-0.994	-0.161	0.004	1.05	-0.49	-1.61
5589	-0.991	-0.16	0.005	1.05	-0.84	-1.54
5607	-0.993	-0.156	0.003	1.05	-0.35	-1.54
5629	-0.994	-0.161	0.002	0.91	-0.84	-1.75
5646	-0.993	-0.16	0.001	0.98	-0.77	-1.75
5668	-0.995	-0.163	-0.0	0.63	-1.05	-1.96
5692	-0.994	-0.162	-0.0	0.56	-1.47	-2.17
5709	-0.994	-0.163	0.0	0.7	-1.61	-2.17
5732	-0.992	-0.162	0.001	0.56	-1.75	-1.96
5753	-0.994	-0.163	0.0	0.7	-1.75	-1.96
5772	-0.99	-0.16	-0.001	0.77	-1.75	-1.68
5793	-0.995	-0.161	-0.001	0.56	-1.89	-1.68
5817	-0.993	-0.163	-0.001	0.7	-2.17	-1.47
5837	-0.994	-0.163	-0.002	0.56	-2.24	-1.4
5852	-0.996	-0.164	-0.003	0.63	-2.59	-1.4
5877	-0.99	-0.161	-0.001	0.63	-2.52	-1.33
5897	-0.994	-0.161	0.0	0.77	-2.45	-1.19
5921	-0.993	-0.166	-0.002	0.84	-2.66	-0.98
5941	-0.994	-0.162	-0.001	0.84	-2.38	-0.91
5960	-0.996	-0.162	-0.005	0.98	-2.73	-0.84
5981	-0.992	-0.16	0.001	0.98	-2.94	-0.7
6001	-0.995	-0.16	-0.0	0.63	-3.01	-0.7
6025	-0.992	-0.163	-0.001	0.98	-2.87	-0.56
6043	-0.991	-0.161	-0.003	0.7	-2.94	-0.56
6063	-1.0	-0.155	-0.004	0.7	-3.36	-0.56
6087	-0.999	-0.156	-0.005	0.28	-4.2	-0.7
6104	-0.992	-0.159	-0.002	0.35	-4.48	-0.56
6124	-1.003	-0.153	-0.004	-0.49	-5.04	-0.56
6146	-0.996	-0.157	0.0	-0.91	-6.23	-0.49
6170	-0.992	-0.157	0.002	-0.84	-5.6	-1.05
6188	-0.999	-0.159	0.003	-0.7	-5.81	-1.33
6212	-0.991	-0.156	0.005	-0.49	-5.74	-1.47
6231	-0.988	-0.156	0.009	-0.42	-4.97	-1.61
6250	-0.992	-0.156	0.015	-0.14	-4.34	-1.89
6267	-0.989	-0.16	0.014	0.28	-3.43	-1.89
6292	-0.992	-0.164	0.008	0.63	-3.15	-1.82
6311	-0.993	-0.158	0.011	0.7	-3.29	-1.47
6333	-0.988	-0.161	0.013	0.7	-2.73	-1.19
6355	-0.996	-0.16	0.01	1.05	-2.1	-1.26
6375	-0.991	-0.163	0.007	1.26	-2.45	-1.05
6399	-0.996	-0.157	0.003	0.91	-2.17	-0.98
6418	-0.994	-0.159	0.009	0.7	-2.38	-0.98
6442	-0.991	-0.159	0.011	1.05	-1.89	-1.05
6462	-0.996	-0.162	0.01	1.33	-1.89	-0.77
6481	-0.993	-0.159	0.01	1.19	-1.61	-0.35
6500	-0.991	-0.157	0.006	1.26	-1.26	-0.35
6519	-0.999	-0.155	0.006	1.05	-1.68	-0.21
6544	-0.995	-0.155	0.008	0.91	-1.75	-0.21
6564	-0.993	-0.155	0.002	1.26	-1.61	0.07
6582	-0.998	-0.151	0.003	0.98	-2.03	0.07
6602	-0.998	-0.15	0.002	0.56	-2.59	0.14
6626	-0.996	-0.15	0.001	0.0	-3.08	0.07
6644	-0.995	-0.147	0.0	-0.56	-3.5	-0.07
6664	-1.0	-0.145	0.005	-0.77	-3.92	-0.63
6683	-0.993	-0.155	0.003	-0.7	-4.06	-0.84
6707	-0.998	-0.143	0.006	-0.28	-4.06	-1.61
6728	-0.995	-0.148	0.011	-0.28	-3.92	-1.82
6748	-0.991	-0.15	0.013	0.0	-3.36	-2.03
6767	-0.99	-0.151	0.012	0.21	-2.8	-2.31
6791	-0.987	-0.151	0.012	0.49	-1.75	-2.45
6811	-0.993	-0.15	0.01	0.63	-1.61	-2.94
6831	-0.99	-0.152	0.006	1.26	-1.19	-3.08
6850	-0.994	-0.153	0.006	1.05	-1.05	-3.22
6870	-0.994	-0.154	0.006	0.98	-0.98	-3.29
6894	-0.992	-0.157	0.006	1.54	-0.49	-3.15
6913	-0.995	-0.16	0.002	2.17	-0.63	-2.87
6934	-0.993	-0.16	0.001	2.03	-0.77	-2.59
6954	-0.997	-0.158	-0.002	1.82	-1.05	-2.31
6973	-0.998	-0.15	0.0	1.26	-2.24	-1.96
6997	-0.991	-0.154	0.001	0.63	-2.17	-1.96
7017	-0.999	-0.154	-0.0	0.42	-2.87	-1.75
7037	-0.993	-0.155	0.001	0.35	-2.59	-1.82
7055	-0.998	-0.155	0.001	0.49	-2.8	-1.61
7074	-0.993	-0.157	0.0	0.28	-2.87	-1.54
7094	-0.996	-0.156	-0.002	0.14	-3.29	-1.26
7118	-0.994	-0.153	0.0	-0.14	-3.29	-1.19
7138	-0.997	-0.158	-0.001	-0.07	-3.43	-1.33
7153	-0.995	-0.156	0.003	-0.07	-3.64	-1.33
7173	-0.992	-0.16	0.003	0.07	-3.43	-0.84
7197	-0.993	-0.155	0.003	0.0	-3.15	-0.98
7218	-0.995	-0.158	0.004	0.14	-3.15	-0.91
7240	-0.989	-0.155	0.004	0.56	-2.66	-1.05
7261	-0.994	-0.151	-0.0	0.56	-2.8	-1.26
7280	-0.992	-0.148	-0.0	0.42	-3.29	-1.33
7300	-0.999	-0.15	0.002	0.0	-3.29	-1.75
7320	-1.0	-0.153	-0.0	-0.14	-4.13	-2.1
7344	-0.992	-0.151	0.002	-0.07	-4.2	-2.31
7361	-0.998	-0.154	0.002	-0.35	-4.55	-2.45
7381	-0.996	-0.153	0.0	-0.56	-4.97	-2.38
7405	-0.996	-0.154	0.004	-0.98	-5.25	-2.31
7424	-0.992	-0.159	0.008	-0.91	-5.32	-2.1
7447	-0.994	-0.157	0.01	-0.77	-4.9	-1.89
7471	-0.992	-0.158	0.01	-0.7	-4.55	-2.03
7491	-0.996	-0.158	0.011	-0.49	-4.62	-1.89
7510	-0.984	-0.158	0.013	-0.07	-3.5	-1.82
7531	-0.993	-0.156	0.014	0.28	-2.94	-1.89
7551	-0.991	-0.157	0.016	0.56	-2.45	-1.75
7571	-0.99	-0.156	0.013	0.84	-1.68	-1.89
7591	-0.995	-0.157	0.013	0.98	-1.61	-2.1
7615	-0.988	-0.157	0.013	1.05	-0.42	-2.24
7635	-0.993	-0.154	0.008	1.33	-0.28	-2.31
7651	-0.992	-0.155	0.01	1.19	-0.14	-2.1
7671	-0.989	-0.161	0.007	0.77	0.07	-2.03
7695	-0.994	-0.153	0.003	0.91	0.07	-2.38
7715	-0.996	-0.163	-0.003	1.54	0.07	-2.38
7733	-0.999	-0.155	0.0	0.98	-0.84	-2.52
7751	-0.989	-0.157	-0.002	1.12	-0.7	-2.45
7770	-0.997	-0.164	-0.004	0.91	-1.4	-2.38
7795	-0.991	-0.16	-0.002	0.91	-1.61	-2.03
7814	-0.999	-0.163	-0.001	0.84	-1.96	-1.82
7835	-0.997	-0.166	0.0	0.63	-2.73	-1.75
7855	-0.993	-0.155	0.001	0.98	-2.24	-1.82
7875	-0.996	-0.157	0.0	0.84	-2.52	-1.89
7898	-0.993	-0.162	0.001	0.63	-3.08	-2.03
7917	-0.99	-0.161	0.002	1.05	-2.1	-1.82
7941	-0.996	-0.159	0.002	0.98	-2.38	-1.96
7962	-0.992	-0.16	0.0	0.91	-2.03	-1.82
7981	-0.996	-0.162	0.001	0.91	-2.03	-1.82
8002	-0.994	-0.161	-0.001	1.05	-2.17	-1.75
8025	-0.993	-0.159	-0.001	0.98	-1.96	-1.68
8046	-0.999	-0.158	-0.003	0.56	-2.52	-1.82
8065	-0.99	-0.16	-0.002	0.49	-2.66	-1.75
8084	-0.991	-0.161	-0.0	0.49	-2.38	-1.68
8108	-1.001	-0.162	-0.002	0.21	-3.43	-1.75
8128	-0.992	-0.157	0.002	0.14	-2.87	-1.82
8145	-0.993	-0.16	-0.0	0.21	-3.01	-1.75
8165	-0.993	-0.159	-0.003	0.14	-2.8	-1.82
8189	-0.993	-0.159	0.0	0.14	-2.87	-1.82
8207	-0.993	-0.159	0.001	0.0	-2.8	-1.75
8230	-0.991	-0.162	-0.001	0.07	-2.73	-1.61
8251	-0.996	-0.162	0.0	0.0	-2.73	-1.75
8271	-0.991	-0.16	0.001	0.07	-2.59	-1.75
8289	-0.991	-0.16	-0.001	0.07	-2.45	-1.47
8313	-0.995	-0.159	-0.003	0.21	-2.45	-1.89
8333	-0.994	-0.162	-0.003	0.21	-2.45	-1.82
8351	-0.993	-0.162	-0.003	0.42	-2.52	-1.54
8370	-0.994	-0.163	-0.004	0.49	-2.59	-1.61
8390	-0.997	-0.159	-0.002	0.7	-2.66	-1.47
8415	-0.993	-0.163	-0.003	0.77	-2.87	-1.33
8435	-0.99	-0.163	0.0	1.19	-2.73	-1.4
8451	-0.995	-0.164	0.001	0.77	-3.22	-1.47
8471	-0.992	-0.158	-0.002	0.91	-2.94	-1.61
8491	-0.997	-0.161	-0.003	1.05	-3.36	-1.47
8512	-0.992	-0.16	0.0	1.05	-3.22	-1.61
8532	-0.994	-0.158	-0.002	0.91	-3.15	-1.61
8553	-0.991	-0.159	-0.001	1.19	-3.22	-1.54
8575	-0.995	-0.162	0.0	0.91	-3.15	-1.47
8595	-0.994	-0.161	0.0	0.98	-3.22	-1.4
8619	-0.993	-0.159	-0.001	0.77	-3.29	-1.26
8634	-0.991	-0.161	0.0	0.98	-3.36	-1.19
8659	-0.996	-0.16	0.003	0.7	-3.36	-1.33
8678	-0.994	-0.16	0.001	0.42	-3.64	-1.4
8699	-0.994	-0.158	0.001	0.63	-3.36	-1.4
8722	-0.996	-0.161	0.001	0.35	-3.92	-1.26
8743	-0.99	-0.162	0.001	0.42	-3.71	-1.4
8763	-0.995	-0.16	0.001	0.28	-3.92	-1.4
8779	-0.996	-0.161	0.003	0.0	-4.13	-1.54
8799	-0.996	-0.157	0.0	0.21	-4.06	-1.54
8823	-0.998	-0.158	0.002	0.07	-4.55	-1.75
8843	-0.997	-0.159	0.003	-0.21	-4.76	-1.75
8860	-0.991	-0.16	0.004	-0.14	-4.83	-1.68
8884	-0.993	-0.161	0.005	-0.35	-4.9	-1.26
8903	-0.996	-0.159	0.007	-0.49	-5.04	-1.4
8927	-0.993	-0.158	0.009	-0.56	-4.97	-1.54
8947	-0.996	-0.154	0.006	-0.49	-4.97	-1.89
8967	-0.985	-0.166	0.01	0.0	-4.55	-1.68
8991	-0.996	-0.16	0.011	-0.14	-4.69	-1.68
9009	-0.986	-0.159	0.015	0.21	-3.92	-1.68
9030	-0.993	-0.159	0.013	0.28	-3.36	-1.82
9053	-0.992	-0.158	0.014	0.56	-3.43	-1.68
9075	-0.986	-0.164	0.013	0.56	-3.01	-1.75
9094	-0.989	-0.159	0.012	0.63	-2.52	-1.75
9118	-0.999	-0.158	0.013	0.28	-3.08	-1.89
9142	-0.988	-0.157	0.01	0.21	-2.38	-2.24
9162	-0.995	-0.16	0.012	0.35	-2.66	-2.24
9179	-0.988	-0.161	0.012	0.21	-2.52	-2.1
9202	-0.995	-0.159	0.011	0.14	-2.52	-2.1
9223	-0.995	-0.162	0.01	0.35	-2.66	-1.89
9240	-0.992	-0.161	0.012	0.14	-2.52	-1.68
9259	-0.988	-0.164	0.016	0.35	-2.73	-1.61
9282	-0.986	-0.162	0.013	0.28	-1.68	-1.68
9303	-1.003	-0.159	0.01	0.42	-1.89	-2.1
9322	-0.995	-0.163	0.005	0.56	-2.52	-1.82
9343	-0.991	-0.16	0.01	0.21	-2.73	-1.68
9364	-0.991	-0.163	0.012	0.21	-2.1	-1.68
9387	-0.988	-0.16	0.011	0.49	-1.82	-1.75
9408	-0.993	-0.163	0.008	0.56	-1.82	-2.1
9424	-0.995	-0.161	0.01	0.63	-1.89	-1.96
9444	-0.996	-0.163	0.01	0.28	-1.96	-2.03
9468	-0.992	-0.163	0.008	0.56	-1.68	-1.96
9488	-0.993	-0.163	0.011	0.63	-1.61	-2.1
9503	-0.993	-0.162	0.006	0.63	-1.47	-2.03
9523	-0.997	-0.159	0.006	0.63	-1.82	-2.1
9547	-0.996	-0.161	0.002	0.0	-2.52	-2.31
9568	-0.996	-0.165	0.003	0.07	-2.73	-2.24
9588	-0.995	-0.159	0.009	0.0	-2.73	-2.1
9607	-0.992	-0.165	0.003	-0.07	-3.36	-2.17
9624	-0.994	-0.162	0.004	-0.28	-3.08	-2.1
9648	-0.991	-0.165	0.01	-0.14	-3.08	-2.17
9664	-0.99	-0.163	0.009	-0.14	-2.73	-2.03
9683	-0.992	-0.165	0.009	0.0	-2.59	-2.03
9708	-0.993	-0.163	0.008	-0.21	-2.45	-2.03
9728	-0.99	-0.165	0.007	0.21	-2.24	-1.89
9746	-0.991	-0.163	0.005	0.07	-2.24	-1.89
9766	-0.993	-0.162	0.004	0.21	-2.17	-1.75
9790	-0.993	-0.164	0.005	0.07	-2.31	-1.61
9810	-0.994	-0.166	0.003	0.28	-2.38	-1.61
9830	-0.995	-0.163	0.006	0.14	-2.59	-1.47
9850	-0.993	-0.164	0.003	0.21	-2.66	-1.54
9869	-0.994	-0.165	0.004	0.42	-2.73	-1.68
9894	-0.993	-0.168	0.005	0.63	-2.87	-1.68
9914	-0.991	-0.165	0.007	0.91	-2.66	-1.61
9934	-0.994	-0.163	0.005	0.7	-2.45	-1.54
9954	-0.993	-0.166	0.006	0.84	-2.66	-1.47
9974	-0.992	-0.165	0.005	1.19	-2.52	-1.47
9998	-0.99	-0.162	0.006	1.19	-2.31	-1.54
10018	-0.994	-0.163	0.005	1.26	-2.31	-1.54
10038	-0.991	-0.163	0.005	1.26	-2.17	-1.33
10062	-0.993	-0.162	0.006	1.26	-2.31	-1.4
10082	-0.993	-0.163	0.006	1.33	-2.17	-1.26
10100	-0.996	-0.162	0.004	1.26	-2.45	-1.26
10122	-0.992	-0.164	0.004	1.12	-2.52	-1.26
10142	-0.995	-0.162	0.003	1.12	-2.66	-1.12
10161	-0.993	-0.164	0.003	1.26	-2.8	-0.98
10182	-0.991	-0.163	0.009	0.98	-2.52	-0.98
10206	-0.996	-0.163	0.002	0.91	-2.66	-0.91
10224	-0.991	-0.163	0.008	0.84	-2.87	-0.84
10246	-0.993	-0.162	0.005	0.7	-2.87	-1.05
10262	-0.993	-0.159	0.004	0.98	-2.73	-1.12
10283	-0.996	-0.163	0.003	0.91	-2.94	-1.12
10307	-0.991	-0.161	0.004	0.63	-2.94	-0.98
10327	-0.996	-0.161	0.006	0.49	-3.22	-1.12
10347	-0.992	-0.165	0.009	0.7	-3.15	-0.91
10367	-0.994	-0.162	0.005	0.63	-3.08	-0.77
10383	-0.991	-0.162	0.005	0.49	-3.36	-0.63
10404	-0.993	-0.161	0.008	0.35	-3.57	-0.56
10428	-0.991	-0.157	0.005	0.28	-3.36	-0.7
10447	-0.994	-0.158	0.007	0.56	-3.36	-0.98
10468	-0.996	-0.157	0.008	0.21	-3.64	-1.4
10483	-0.992	-0.156	0.005	0.42	-3.43	-1.47
10504	-0.994	-0.161	0.005	0.35	-3.43	-1.75
10528	-0.995	-0.158	0.006	0.42	-3.57	-1.75
10548	-0.993	-0.157	0.01	0.28	-3.36	-1.75
10568	-0.993	-0.16	0.007	0.28	-3.5	-1.82
10592	-0.991	-0.16	0.007	0.35	-3.22	-1.89
10609	-0.996	-0.158	0.008	0.0	-3.36	-1.82
10631	-0.993	-0.158	0.007	0.21	-3.43	-1.82
10652	-0.993	-0.16	0.006	0.21	-3.5	-1.75
10674	-0.996	-0.163	0.007	0.07	-3.78	-1.75
10694	-0.996	-0.162	0.008	-0.07	-4.13	-1.75
10718	-0.992	-0.161	0.01	-0.07	-4.06	-1.54
10737	-0.994	-0.161	0.011	0.0	-3.85	-1.54
10756	-0.991	-0.161	0.013	0.21	-3.71	-1.47
10775	-0.988	-0.161	0.013	0.42	-3.29	-1.4
10800	-0.994	-0.161	0.014	0.63	-2.87	-1.26
10820	-0.991	-0.16	0.014	0.7	-2.45	-1.19
10839	-0.992	-0.16	0.014	0.84	-2.31	-1.26
10864	-0.989	-0.159	0.013	1.12	-1.4	-1.4
10883	-0.991	-0.16	0.011	1.19	-1.19	-1.4
10902	-0.991	-0.157	0.013	1.26	-0.91	-1.54
10926	-0.99	-0.157	0.007	1.33	-0.35	-1.61
10946	-0.993	-0.158	0.009	1.54	-0.14	-1.68
10966	-0.988	-0.16	0.012	1.82	0.28	-1.82
10981	-0.99	-0.163	0.009	2.1	0.7	-1.68
11001	-0.995	-0.156	0.006	2.31	0.77	-1.82
11021	-0.994	-0.161	0.002	2.1	0.98	-1.82
11046	-1.001	-0.163	0.0	1.89	0.0	-1.61
11066	-0.993	-0.16	0.001	2.03	-0.21	-1.54
11084	-1.009	-0.156	-0.011	1.33	-0.63	-1.75
11108	-1.0	-0.154	-0.002	0.56	-2.87	-1.96
11126	-0.987	-0.158	-0.004	0.21	-2.45	-2.17
11144	-1.003	-0.161	0.002	0.0	-3.08	-2.38
11168	-0.992	-0.161	0.003	0.35	-3.01	-2.59
11186	-0.994	-0.168	-0.003	0.49	-3.22	-2.31
11206	-0.995	-0.162	0.001	0.07	-3.78	-2.03
11229	-0.991	-0.164	0.004	-0.21	-3.36	-1.75
11249	-0.993	-0.163	0.0	0.07	-3.57	-1.47
11269	-0.992	-0.164	0.003	0.35	-3.5	-1.12
11293	-0.991	-0.16	0.004	0.42	-2.94	-0.91
11310	-0.994	-0.161	0.003	0.7	-2.94	-1.05
11330	-0.997	-0.157	0.004	0.7	-2.73	-1.33
11352	-0.993	-0.163	0.001	0.56	-3.01	-1.33
11373	-0.992	-0.161	0.003	0.63	-2.66	-1.33
11396	-0.994	-0.157	0.001	0.49	-2.73	-1.26
11417	-0.992	-0.16	0.002	0.42	-2.73	-1.19
11437	-0.994	-0.159	0.0	0.49	-2.73	-1.33
11455	-0.996	-0.157	0.001	0.07	-3.08	-1.4
11479	-0.994	-0.159	0.001	0.07	-3.01	-1.4
11499	-0.992	-0.157	0.003	0.07	-3.15	-1.47
11519	-0.987	-0.161	0.002	0.07	-2.94	-1.47
11539	-0.994	-0.158	0.004	0.14	-2.59	-1.61
11559	-0.992	-0.158	0.004	0.21	-2.59	-1.68
11579	-0.995	-0.16	0.005	0.14	-2.59	-1.82
11599	-0.993	-0.161	0.002	0.63	-2.03	-1.82
11623	-0.996	-0.161	0.002	0.7	-2.66	-1.61
11645	-0.993	-0.16	0.003	0.91	-2.38	-1.4
11669	-0.996	-0.158	0.003	0.56	-2.73	-1.54
11689	-0.992	-0.163	0.001	0.98	-2.45	-1.61
11708	-0.995	-0.157	0.001	1.05	-2.52	-1.61
11729	-0.994	-0.158	0.001	0.91	-2.52	-1.68
11752	-0.994	-0.156	0.002	0.63	-2.87	-1.47
11771	-0.994	-0.161	0.004	0.77	-2.8	-1.54
11793	-0.993	-0.162	0.002	0.91	-2.59	-1.4
11812	-0.992	-0.161	0.004	0.98	-2.66	-1.26
11837	-0.996	-0.16	0.0	0.98	-2.8	-1.12
11854	-0.994	-0.16	-0.001	0.98	-3.15	-0.84
11877	-0.994	-0.157	-0.001	0.91	-3.29	-0.7
11896	-0.996	-0.155	0.003	0.7	-3.5	-0.84
11921	-0.994	-0.159	0.004	0.77	-3.64	-0.91
11939	-0.991	-0.158	0.005	0.98	-3.29	-0.84
11959	-0.995	-0.156	0.003	0.84	-3.5	-0.91
11982	-0.997	-0.16	0.003	0.98	-3.29	-0.91
12001	-0.997	-0.158	0.003	0.91	-3.78	-0.63
12020	-0.991	-0.156	0.005	0.77	-3.71	-0.56
12045	-0.998	-0.161	0.004	0.63	-4.13	-0.77
12065	-0.993	-0.153	0.003	0.7	-4.13	-0.91
12084	-0.998	-0.151	0.005	0.28	-4.41	-1.12
12105	-0.994	-0.157	0.007	0.0	-4.69	-1.19
12129	-0.996	-0.157	0.009	0.21	-4.83	-1.12
12149	-0.994	-0.152	0.007	-0.14	-4.76	-1.12
12167	-0.996	-0.156	0.012	-0.42	-5.25	-1.12
12186	-0.995	-0.153	0.012	-0.28	-4.55	-1.26
12205	-0.991	-0.159	0.011	0.0	-4.83	-1.33
12228	-0.992	-0.157	0.012	0.21	-4.27	-1.33
12252	-0.995	-0.154	0.011	0.49	-4.48	-1.26
12270	-0.994	-0.151	0.014	0.07	-3.99	-1.12
12294	-0.998	-0.154	0.018	-0.35	-4.13	-1.26
12314	-0.991	-0.156	0.015	0.49	-3.85	-1.26
12334	-0.988	-0.156	0.013	0.84	-3.57	-0.98
12353	-1.005	-0.152	0.014	0.14	-4.06	-1.19
12377	-0.994	-0.154	0.011	-0.07	-4.48	-1.12
12393	-0.987	-0.154	0.015	0.07	-4.06	-1.19
12413	-0.998	-0.15	0.015	-0.21	-4.27	-1.12
12437	-0.994	-0.152	0.015	-0.21	-4.48	-1.33
12453	-0.995	-0.152	0.016	-0.42	-4.27	-1.61
12475	-0.996	-0.153	0.016	-0.14	-4.34	-1.89
12496	-0.993	-0.154	0.02	0.07	-4.06	-2.24
12520	-0.995	-0.153	0.021	0.07	-3.78	-2.1
12540	-0.991	-0.161	0.021	0.35	-3.64	-1.96
12559	-0.992	-0.154	0.021	0.49	-3.15	-2.03
12579	-0.997	-0.153	0.02	0.14	-3.5	-2.1
12598	-0.99	-0.154	0.02	0.14	-3.01	-2.24
12623	-0.99	-0.154	0.023	0.21	-2.38	-2.45
12643	-0.994	-0.155	0.02	0.28	-2.38	-2.52
12663	-0.993	-0.158	0.017	0.21	-2.66	-2.38
12683	-0.991	-0.156	0.02	0.21	-2.45	-2.31
12700	-0.993	-0.156	0.021	0.07	-2.24	-2.38
12719	-0.994	-0.156	0.02	0.0	-2.1	-2.38
12740	-0.996	-0.159	0.019	0.07	-2.24	-2.24
12762	-0.99	-0.155	0.016	0.28	-2.1	-2.1
12786	-0.995	-0.155	0.019	0.07	-2.03	-2.31
12806	-0.995	-0.157	0.02	0.14	-1.75	-2.45
12823	-0.993	-0.161	0.018	0.28	-1.54	-2.1
12845	-0.994	-0.158	0.014	0.35	-1.75	-1.82
12865	-0.991	-0.157	0.018	-0.07	-2.17	-1.82
12889	-0.992	-0.159	0.017	0.07	-1.47	-1.96
12909	-0.994	-0.16	0.013	0.91	-1.33	-2.17
12927	-0.996	-0.156	0.014	0.98	-1.4	-2.1
12949	-0.99	-0.159	0.015	0.49	-1.61	-2.17
12967	-0.996	-0.157	0.012	0.21	-1.61	-2.1
12991	-0.992	-0.161	0.014	0.49	-1.82	-1.96
13011	-0.992	-0.158	0.014	0.56	-1.47	-1.89
13029	-0.994	-0.159	0.014	0.77	-1.54	-1.96
13048	-0.991	-0.159	0.011	0.84	-1.33	-1.82
13068	-0.993	-0.157	0.011	0.63	-1.47	-2.1
13092	-0.995	-0.157	0.011	0.49	-1.4	-2.03
13112	-0.997	-0.158	0.013	0.35	-1.61	-2.03
13132	-0.992	-0.161	0.011	0.35	-1.68	-1.75
13152	-0.997	-0.16	0.009	0.28	-1.68	-1.75
13171	-0.995	-0.159	0.007	0.49	-2.03	-1.96
13196	-0.994	-0.161	0.006	0.49	-2.17	-1.75
13215	-0.994	-0.16	0.007	0.7	-2.24	-1.82
13235	-0.992	-0.162	0.01	0.77	-2.45	-1.75
13259	-0.995	-0.16	0.011	0.63	-2.38	-1.89
13278	-0.992	-0.162	0.009	0.91	-2.31	-1.75
13297	-0.994	-0.16	0.009	0.7	-2.45	-1.89
13321	-0.99	-0.16	0.01	0.63	-2.31	-1.89
13338	-0.995	-0.16	0.01	0.7	-2.17	-1.82
13361	-0.991	-0.162	0.01	0.98	-2.17	-1.82
13384	-0.995	-0.16	0.01	1.12	-2.17	-1.68
13404	-0.99	-0.162	0.008	0.98	-2.03	-1.61
13424	-0.991	-0.16	0.007	1.05	-2.1	-1.33
13444	-0.994	-0.161	0.006	0.91	-2.03	-1.47
13468	-0.994	-0.161	0.007	0.98	-2.31	-1.26
13488	-0.992	-0.159	0.008	0.91	-2.17	-1.05
13508	-0.995	-0.161	0.007	0.91	-2.38	-1.26
13528	-0.992	-0.159	0.006	0.84	-2.52	-1.19
13552	-0.995	-0.16	0.007	0.84	-2.52	-1.05
13571	-0.996	-0.16	0.006	0.63	-2.73	-1.19
13596	-0.994	-0.16	0.007	0.63	-3.01	-0.98
13616	-0.992	-0.162	0.005	0.56	-2.87	-1.05
13636	-0.995	-0.159	0.007	0.42	-3.08	-1.12
13656	-0.992	-0.159	0.007	0.49	-2.87	-1.12
13676	-0.994	-0.16	0.005	0.49	-3.01	-1.12
13696	-0.994	-0.158	0.008	0.42	-2.87	-1.19
13715	-0.995	-0.158	0.008	0.49	-2.73	-1.19
13739	-0.992	-0.16	0.006	0.56	-2.73	-1.12
13758	-0.993	-0.159	0.008	0.63	-2.73	-1.26
13777	-0.995	-0.157	0.004	0.56	-2.8	-1.26
13797	-0.993	-0.162	0.007	0.49	-2.94	-1.12
13818	-0.991	-0.158	0.007	0.63	-2.73	-1.26
13841	-0.995	-0.158	0.008	0.84	-3.01	-1.26
13861	-0.995	-0.158	0.001	0.42	-3.15	-1.4
13885	-0.995	-0.157	0.006	0.28	-3.5	-1.47
13904	-0.991	-0.159	0.009	0.28	-3.29	-1.61
13925	-0.994	-0.159	0.007	0.42	-3.29	-1.61
13949	-0.994	-0.157	0.007	0.42	-3.57	-1.61
13964	-0.993	-0.156	0.005	0.42	-3.5	-1.54
13986	-0.998	-0.153	0.011	-0.14	-3.85	-1.75
14004	-0.991	-0.159	0.012	-0.21	-3.64	-1.96
14026	-0.992	-0.157	0.01	0.21	-3.15	-1.96
14046	-1.001	-0.157	0.009	0.0	-3.57	-1.96
14070	-0.992	-0.156	0.011	-0.14	-3.5	-2.17
14094	-0.994	-0.161	0.012	0.07	-3.36	-2.03
14114	-0.995	-0.162	0.012	0.21	-3.15	-1.89
14131	-0.99	-0.161	0.013	0.35	-3.15	-1.61
14151	-0.992	-0.16	0.013	0.42	-3.01	-1.4
14175	-0.994	-0.161	0.013	0.56	-2.8	-1.19
14191	-0.991	-0.16	0.011	0.7	-2.59	-1.05
14215	-0.991	-0.158	0.012	0.91	-2.45	-0.91
14234	-0.993	-0.157	0.012	0.91	-2.59	-1.05
14251	-0.991	-0.159	0.014	0.84	-2.45	-0.84
14271	-0.994	-0.156	0.01	0.84	-2.1	-0.91
14295	-0.996	-0.16	0.009	1.12	-2.17	-0.98
14315	-0.99	-0.155	0.011	1.19	-1.82	-0.91
14330	-0.996	-0.153	0.013	1.26	-1.89	-1.12
14350	-0.993	-0.156	0.011	1.4	-1.89	-1.33
14370	-0.993	-0.157	0.009	1.54	-1.61	-1.4
14394	-0.994	-0.155	0.009	1.33	-2.1	-1.54
14413	-0.997	-0.153	0.008	1.19	-2.31	-1.61
14433	-0.999	-0.153	0.005	0.77	-2.8	-1.75
14456	-0.99	-0.156	0.008	0.98	-2.94	-1.61
14476	-0.996	-0.157	0.008	0.84	-2.94	-1.61
14499	-0.995	-0.156	0.009	0.77	-3.01	-1.75
14518	-0.992	-0.16	0.01	0.98	-2.52	-1.75
14538	-0.997	-0.156	0.009	0.98	-2.73	-1.68
14558	-0.992	-0.157	0.012	0.42	-2.73	-1.54
14579	-0.989	-0.16	0.012	0.63	-2.45	-1.54
14603	-0.994	-0.157	0.011	0.98	-2.24	-1.47
14622	-0.989	-0.157	0.008	0.56	-1.96	-1.68
14643	-0.999	-0.156	0.009	0.63	-1.82	-1.33
14663	-0.992	-0.154	0.007	0.56	-2.24	-1.26
14683	-0.995	-0.153	0.008	0.49	-2.03	-1.05
14707	-0.992	-0.16	0.007	0.63	-2.59	-1.12
14725	-0.992	-0.155	0.008	0.7	-2.17	-1.19
14743	-0.997	-0.153	0.008	0.7	-2.38	-1.26
14767	-0.994	-0.157	0.006	0.56	-2.66	-1.12
14787	-0.998	-0.151	0.006	0.35	-2.73	-1.12
14805	-1.0	-0.152	0.004	0.14	-3.36	-1.33
14829	-0.988	-0.157	0.008	0.14	-3.29	-1.19
14849	-0.997	-0.153	0.007	0.14	-3.08	-1.54
14869	-0.994	-0.154	0.012	0.21	-3.36	-1.54
14887	-0.991	-0.157	0.01	-0.07	-3.01	-1.4
14911	-0.993	-0.154	0.008	0.21	-2.8	-1.61
14930	-0.995	-0.154	0.01	-0.14	-3.08	-1.61
14948	-0.994	-0.154	0.009	0.0	-2.8	-1.54
14971	-0.995	-0.153	0.01	0.0	-3.01	-1.68
14995	-0.989	-0.155	0.008	0.35	-2.31	-1.61
15015	-0.995	-0.154	0.008	0.35	-2.45	-1.54
15033	-0.995	-0.156	0.011	0.35	-2.45	-1.61
15052	-0.993	-0.155	0.007	0.28	-2.1	-1.68
15077	-0.994	-0.151	0.005	0.56	-2.24	-1.82
15097	-0.996	-0.153	0.007	0.49	-2.31	-1.82
15117	-0.993	-0.157	0.01	0.56	-2.1	-1.89
15137	-0.995	-0.154	0.011	0.77	-1.96	-1.96
15157	-0.995	-0.155	0.008	0.77	-2.1	-1.82
15176	-0.995	-0.154	0.007	0.7	-2.17	-1.82
15201	-0.996	-0.155	0.005	0.84	-2.31	-1.89
15221	-0.994	-0.153	0.006	0.84	-2.38	-1.89
15241	-0.996	-0.157	0.005	0.77	-2.59	-1.75
15265	-0.996	-0.155	0.004	0.63	-3.01	-1.54
15283	-0.994	-0.155	0.004	0.49	-3.01	-1.68
15303	-0.992	-0.157	0.01	0.63	-3.22	-1.47
15327	-1.0	-0.157	0.008	0.77	-3.5	-1.47
15347	-0.994	-0.153	0.007	0.35	-3.43	-1.54
15363	-0.995	-0.155	0.007	0.56	-3.57	-1.68
15387	-0.996	-0.156	0.007	0.49	-3.85	-1.68
15406	-0.997	-0.155	0.008	0.28	-3.92	-1.47
15427	-0.995	-0.154	0.01	0.28	-3.92	-1.54
15447	-0.995	-0.155	0.007	0.35	-3.85	-1.68
15467	-0.995	-0.154	0.01	0.28	-3.85	-1.4
15483	-0.995	-0.154	0.009	0.28	-3.92	-1.47
15507	-0.993	-0.153	0.01	0.21	-3.71	-1.54
15525	-0.995	-0.154	0.012	0.14	-3.92	-1.47
15547	-0.991	-0.156	0.01	0.28	-3.78	-1.47
15567	-0.996	-0.154	0.009	0.14	-3.85	-1.68
15586	-0.996	-0.152	0.01	0.0	-3.99	-1.82
15606	-0.994	-0.158	0.015	0.14	-3.85	-1.68
15626	-0.992	-0.158	0.01	0.35	-3.99	-1.61
15646	-0.996	-0.155	0.009	0.42	-3.85	-1.68
15669	-0.996	-0.154	0.013	-0.21	-4.27	-1.75
15691	-0.993	-0.156	0.015	0.0	-4.27	-1.82
15715	-0.992	-0.154	0.015	0.21	-3.78	-1.82
15735	-1.0	-0.156	0.016	-0.14	-4.34	-1.96
15752	-0.988	-0.156	0.014	0.14	-4.06	-1.68
15772	-0.997	-0.152	0.015	-0.35	-4.2	-1.82
15796	-0.991	-0.156	0.019	-0.28	-3.92	-2.24
15812	-0.991	-0.155	0.02	-0.28	-3.29	-2.24
15835	-0.995	-0.16	0.02	0.0	-3.57	-2.24
15857	-0.991	-0.154	0.017	-0.07	-3.43	-2.17
15879	-0.996	-0.152	0.018	-0.28	-3.43	-2.03
15898	-0.991	-0.155	0.019	-0.35	-3.22	-2.38
15922	-0.994	-0.158	0.018	-0.21	-3.08	-2.59
15943	-0.992	-0.154	0.018	-0.14	-2.66	-2.45
15963	-0.993	-0.154	0.019	-0.42	-2.52	-2.73
15983	-0.997	-0.159	0.02	-0.35	-2.87	-3.08
16006	-0.988	-0.161	0.019	-0.07	-2.45	-2.8
16025	-0.99	-0.16	0.012	0.07	-2.1	-2.73
16046	-0.996	-0.161	0.016	-0.21	-2.66	-2.87
16070	-0.995	-0.162	0.018	-0.14	-2.66	-2.66
16089	-0.988	-0.163	0.02	-0.14	-2.45	-2.45
16114	-0.991	-0.161	0.016	0.07	-2.03	-2.31
16134	-0.996	-0.16	0.014	-0.07	-2.24	-2.31
16153	-0.99	-0.161	0.018	0.0	-2.24	-2.17
16173	-0.991	-0.165	0.019	0.14	-2.24	-1.96
16197	-0.99	-0.162	0.013	0.28	-1.54	-1.89
16217	-0.992	-0.161	0.012	0.63	-1.96	-1.82
16236	-0.992	-0.163	0.015	0.49	-1.96	-1.75
16256	-0.991	-0.166	0.014	0.56	-1.75	-1.54
16279	-0.993	-0.162	0.01	0.84	-1.61	-1.75
16298	-0.996	-0.161	0.013	0.7	-2.38	-1.54
16320	-0.992	-0.163	0.016	0.42	-1.96	-1.54
16340	-0.993	-0.16	0.014	0.56	-1.89	-1.54
16360	-0.992	-0.162	0.014	0.77	-1.96	-1.47
16384	-0.989	-0.163	0.013	1.12	-1.19	-1.61
16404	-0.992	-0.161	0.013	1.05	-1.26	-1.68
16424	-0.991	-0.162	0.012	0.91	-1.33	-1.47
16444	-0.989	-0.162	0.011	0.91	-0.98	-1.4
16464	-0.994	-0.163	0.011	0.98	-1.19	-1.4
16483	-0.994	-0.161	0.011	1.12	-0.98	-1.4
16501	-0.995	-0.159	0.007	0.98	-1.33	-1.61
16520	-0.996	-0.159	0.008	0.7	-1.61	-1.75
16545	-0.994	-0.162	0.009	0.63	-1.75	-1.82
16560	-0.996	-0.162	0.006	0.49	-1.96	-1.61
16585	-0.996	-0.162	0.007	0.42	-2.31	-1.54
16604	-0.993	-0.161	0.006	0.21	-2.52	-1.54
16629	-0.992	-0.162	0.007	0.28	-2.59	-1.4
16649	-0.993	-0.162	0.004	0.28	-2.73	-1.4
16669	-0.993	-0.163	0.008	0.35	-2.94	-1.4
16685	-0.994	-0.162	0.006	0.35	-2.87	-1.47
16705	-0.993	-0.165	0.005	0.7	-3.08	-1.47
16724	-0.993	-0.163	0.007	0.56	-2.87	-1.47
16748	-0.994	-0.164	0.011	0.49	-2.87	-1.33
16768	-0.993	-0.162	0.009	0.91	-2.59	-1.4
16788	-0.993	-0.16	0.009	0.98	-2.45	-1.33
16812	-0.992	-0.159	0.007	0.98	-2.31	-1.33
16832	-0.995	-0.161	0.007	0.98	-2.45	-1.33
16852	-0.993	-0.158	0.009	0.91	-2.45	-1.4
16869	-0.993	-0.16	0.005	0.77	-2.38	-1.33
16893	-0.995	-0.16	0.007	0.84	-2.52	-1.19
16913	-0.994	-0.16	0.009	0.77	-2.59	-1.05
16932	-0.993	-0.16	0.008	0.63	-2.45	-1.12
16950	-0.993	-0.163	0.008	0.77	-2.66	-1.26
16974	-0.992	-0.158	0.007	0.63	-2.73	-1.05
16994	-0.992	-0.16	0.007	0.7	-2.73	-1.19
17018	-0.994	-0.159	0.009	0.77	-2.73	-1.4
17038	-0.995	-0.16	0.005	0.56	-2.87	-1.19
17058	-0.993	-0.162	0.007	0.63	-2.73	-1.33
17082	-0.996	-0.158	0.007	0.49	-2.87	-1.26
17102	-0.993	-0.16	0.01	0.63	-2.87	-1.19
17122	-0.991	-0.162	0.009	0.56	-2.94	-1.12
17142	-0.993	-0.158	0.01	0.42	-2.87	-1.19
17162	-0.994	-0.16	0.008	0.56	-2.94	-0.91
17186	-0.994	-0.156	0.007	0.56	-2.52	-1.05
17204	-0.996	-0.156	0.005	0.77	-2.8	-0.98
17224	-0.993	-0.159	0.007	0.63	-3.01	-0.77
17243	-0.994	-0.155	0.005	0.56	-3.08	-1.05
17265	-0.996	-0.156	0.005	0.42	-3.64	-1.05
17288	-0.996	-0.157	0.004	0.35	-3.85	-1.33
17312	-0.998	-0.154	0.007	0.21	-4.48	-1.61
17329	-0.994	-0.152	0.008	-0.07	-4.62	-1.47
17348	-0.996	-0.16	0.01	-0.42	-5.39	-1.75
17371	-0.991	-0.156	0.012	-0.14	-4.97	-1.82
17392	-0.993	-0.158	0.016	-0.14	-4.97	-1.89
17412	-0.993	-0.16	0.013	-0.07	-4.55	-1.82
17432	-0.989	-0.158	0.016	0.21	-3.99	-1.54
17453	-0.993	-0.159	0.016	0.14	-4.13	-1.75
17476	-0.992	-0.161	0.019	0.28	-3.78	-1.68
17497	-0.991	-0.158	0.016	0.49	-3.43	-1.47
17516	-0.991	-0.157	0.016	0.84	-2.73	-1.47
17537	-0.99	-0.16	0.017	0.7	-2.8	-1.26
17561	-0.992	-0.161	0.018	0.84	-2.17	-1.33
17579	-0.991	-0.157	0.018	0.77	-2.1	-1.33
17599	-0.995	-0.156	0.016	0.77	-1.96	-1.4
17623	-0.989	-0.156	0.015	0.77	-1.89	-1.33
17642	-0.993	-0.156	0.015	0.7	-1.61	-1.47
17659	-0.995	-0.154	0.015	0.77	-1.61	-1.47
17683	-0.993	-0.16	0.014	0.91	-1.4	-1.47
17702	-0.99	-0.157	0.011	1.05	-1.26	-1.47
17723	-0.997	-0.158	0.012	0.91	-1.26	-1.47
17741	-0.988	-0.156	0.012	1.19	-1.05	-1.4
17761	-0.997	-0.159	0.013	0.84	-0.98	-1.33
17785	-0.992	-0.154	0.011	0.91	-1.05	-1.4
17802	-0.995	-0.159	0.01	1.26	-0.98	-1.4
17822	-0.991	-0.157	0.008	1.26	-0.84	-1.33
17846	-0.995	-0.157	0.006	1.33	-0.42	-1.4
17866	-0.996	-0.154	0.009	1.19	-0.98	-1.54
17886	-0.991	-0.155	0.005	1.12	-0.84	-1.68
17906	-0.998	-0.155	0.004	1.05	-0.91	-1.68
17922	-0.996	-0.158	0.005	0.98	-1.26	-1.82
17946	-0.991	-0.154	0.004	0.98	-1.12	-1.47
17966	-0.994	-0.158	0.003	0.98	-0.98	-1.33
17983	-0.999	-0.158	0.003	0.84	-1.47	-1.05
18002	-0.994	-0.162	0.001	1.05	-1.54	-0.91
18026	-1.0	-0.15	0.003	0.63	-1.68	-1.19
18047	-0.995	-0.159	0.004	0.21	-2.24	-1.47
18067	-0.994	-0.15	0.003	1.05	-1.33	-1.75
18091	-0.998	-0.155	0.0	0.91	-2.24	-1.82
18111	-0.992	-0.157	0.002	0.91	-1.89	-1.82
18128	-0.994	-0.156	0.005	0.84	-1.96	-1.82
18148	-0.992	-0.157	0.003	0.91	-1.89	-1.68
18168	-0.995	-0.16	0.003	0.91	-1.68	-1.54
18192	-0.99	-0.156	0.004	1.05	-1.4	-1.61
18210	-0.996	-0.159	0.002	1.12	-1.33	-1.4
18230	-0.998	-0.159	-0.002	0.98	-1.61	-1.4
18250	-0.995	-0.156	-0.003	0.7	-1.89	-1.33
18270	-0.993	-0.155	-0.001	0.84	-1.61	-1.33
18294	-1.001	-0.154	-0.003	0.42	-2.52	-1.4
18314	-0.992	-0.155	-0.003	0.28	-2.38	-1.47
18334	-0.996	-0.155	-0.002	0.21	-2.59	-1.47
18354	-0.993	-0.155	-0.001	0.14	-2.66	-1.54
18374	-0.994	-0.156	-0.0	0.0	-2.66	-1.61
18394	-0.996	-0.158	-0.004	0.0	-2.87	-1.61
18411	-0.993	-0.156	-0.0	0.0	-2.94	-1.75
18435	-0.993	-0.158	-0.003	0.07	-2.8	-1.75
18450	-0.994	-0.158	0.0	0.14	-2.87	-1.89
18475	-0.996	-0.157	-0.002	0.42	-2.87	-2.03
18494	-0.994	-0.158	-0.002	0.49	-2.8	-1.89
18515	-0.997	-0.156	-0.002	0.28	-3.15	-1.89
18533	-0.994	-0.155	-0.002	0.35	-3.15	-1.75
18553	-0.996	-0.159	-0.002	0.42	-3.29	-1.96
18577	-0.992	-0.161	-0.004	0.35	-3.57	-1.82
18597	-0.994	-0.159	0.0	0.49	-3.36	-1.68
18616	-0.993	-0.158	0.001	0.28	-3.22	-1.68
18635	-0.994	-0.156	-0.001	0.35	-3.01	-1.75
18660	-0.993	-0.156	-0.001	0.07	-3.22	-1.82
18676	-0.994	-0.156	0.002	0.21	-3.08	-1.89
18695	-0.991	-0.157	0.001	0.14	-3.01	-1.75
18720	-0.995	-0.156	0.002	0.07	-3.01	-1.68
18736	-0.994	-0.158	-0.002	0.14	-2.94	-1.68
18756	-0.995	-0.156	-0.0	0.0	-2.94	-1.75
18779	-0.992	-0.157	0.0	0.07	-2.87	-1.75
18796	-0.993	-0.158	0.004	0.07	-2.87	-1.61
18820	-0.997	-0.157	0.0	0.21	-2.94	-1.75
18840	-0.99	-0.159	-0.001	0.21	-2.87	-1.47
18858	-0.994	-0.156	-0.001	0.21	-2.94	-1.61
18877	-0.994	-0.158	0.001	0.14	-3.22	-1.61
18898	-0.993	-0.157	-0.001	0.21	-3.15	-1.68
18918	-0.995	-0.158	0.0	0.35	-3.15	-1.61
18942	-0.997	-0.157	-0.0	0.35	-3.29	-1.61
18960	-0.996	-0.158	0.001	0.14	-3.43	-1.54
18984	-0.995	-0.158	0.002	0.35	-3.57	-1.47
19003	-0.993	-0.156	0.002	0.28	-3.71	-1.54
19019	-0.996	-0.158	0.004	0.28	-3.64	-1.47
19039	-0.992	-0.157	0.004	0.28	-3.78	-1.4
19059	-0.997	-0.157	0.004	0.07	-3.57	-1.4
19084	-0.991	-0.156	0.001	0.42	-3.78	-1.26
19103	-0.995	-0.152	0.001	0.21	-3.57	-1.4
19124	-0.992	-0.156	0.003	0.21	-4.34	-1.47
19141	-0.995	-0.157	0.003	0.0	-3.57	-1.47
19160	-0.993	-0.155	0.006	0.28	-3.99	-1.47
19185	-0.996	-0.157	0.008	0.07	-4.41	-1.68
19200	-0.986	-0.155	0.008	0.0	-3.85	-1.75
19225	-0.994	-0.154	0.005	0.07	-3.64	-2.03
19245	-0.996	-0.153	0.006	0.0	-4.06	-2.1
19265	-0.989	-0.157	0.007	0.0	-3.64	-2.24
19285	-0.992	-0.155	0.012	-0.07	-3.5	-2.45
19304	-0.989	-0.155	0.008	-0.14	-2.59	-2.66
19321	-0.996	-0.157	0.01	-0.28	-2.66	-2.66
19341	-0.993	-0.161	0.008	-0.28	-2.8	-2.66
19365	-0.989	-0.16	0.01	-0.07	-2.03	-2.73
19385	-0.994	-0.158	0.008	0.07	-2.24	-2.87
19405	-0.991	-0.162	0.007	0.49	-1.68	-2.94
19424	-0.993	-0.162	0.005	0.7	-1.82	-2.73
19441	-0.995	-0.163	0.006	0.56	-2.38	-2.59
19465	-0.993	-0.16	0.004	-0.07	-2.59	-2.45
19485	-0.992	-0.163	0.004	0.07	-2.59	-2.31
19505	-0.993	-0.163	0.006	0.28	-2.45	-2.38
19528	-0.993	-0.162	0.004	0.63	-2.17	-2.17
19549	-0.996	-0.165	0.004	0.49	-2.59	-1.96
19573	-0.994	-0.164	0.002	0.42	-2.66	-1.54
19592	-0.993	-0.164	0.004	0.21	-2.59	-1.54
19616	-0.991	-0.165	0.006	0.63	-2.45	-1.33
19633	-0.995	-0.161	0.006	0.63	-2.38	-1.33
19653	-0.996	-0.162	0.003	0.28	-3.01	-1.12
19677	-0.994	-0.159	0.005	0.21	-2.94	-1.26
19697	-0.991	-0.162	0.003	0.14	-2.94	-1.12
19716	-0.995	-0.161	0.004	0.49	-2.87	-1.26
19735	-0.996	-0.16	0.003	0.42	-2.94	-1.26
19758	-0.994	-0.161	0.006	0.28	-3.36	-1.26
19779	-0.992	-0.163	0.004	0.14	-3.29	-0.98
19799	-0.992	-0.161	0.005	0.14	-3.22	-1.05
19818	-0.993	-0.161	0.006	0.42	-3.08	-0.91
19843	-0.992	-0.159	0.006	0.56	-2.87	-0.84
19863	-0.996	-0.157	0.004	0.63	-3.22	-0.98
19880	-0.993	-0.16	0.006	0.35	-3.15	-1.05
19902	-0.991	-0.16	0.007	0.49	-3.08	-1.26
19926	-0.993	-0.158	0.01	0.49	-3.08	-1.33
19946	-0.992	-0.156	0.007	0.7	-2.59	-1.47
19966	-0.992	-0.158	0.006	0.7	-2.52	-1.82
19986	-0.992	-0.159	0.006	0.63	-2.38	-1.89
20010	-0.994	-0.159	0.007	0.77	-2.17	-1.96
20030	-0.993	-0.16	0.004	0.98	-2.03	-1.96
20047	-0.995	-0.158	0.006	0.84	-2.31	-2.03
20071	-0.995	-0.163	0.003	0.77	-2.45	-1.89
20088	-0.994	-0.16	0.004	0.7	-2.66	-1.89
20110	-0.993	-0.16	0.003	0.63	-2.8	-2.03
20134	-0.993	-0.163	0.006	0.7	-2.8	-1.75
20152	-0.995	-0.161	0.006	0.7	-2.73	-1.61
20172	-0.996	-0.162	0.005	0.63	-2.8	-1.54
20192	-0.992	-0.161	0.007	0.7	-2.66	-1.68
20216	-0.994	-0.161	0.009	0.77	-2.66	-1.47
20235	-0.993	-0.16	0.005	0.98	-2.52	-1.4
20255	-0.995	-0.159	0.003	0.63	-2.66	-1.68
20274	-0.996	-0.161	0.003	0.35	-2.94	-1.61
20294	-0.991	-0.161	0.006	0.28	-2.73	-1.61
20314	-0.994	-0.16	0.006	0.42	-2.94	-1.68
20334	-0.992	-0.16	0.006	0.56	-2.87	-1.47
20356	-0.994	-0.16	0.008	0.35	-2.8	-1.61
20376	-0.993	-0.161	0.008	0.35	-2.87	-1.54
20400	-0.995	-0.161	0.003	0.49	-2.8	-1.4
20420	-0.994	-0.159	0.005	0.42	-2.94	-1.33
20439	-0.993	-0.16	0.006	0.28	-3.08	-1.47
20463	-0.995	-0.16	0.006	0.14	-3.08	-1.26
20483	-0.992	-0.163	0.007	0.42	-3.08	-1.26
20502	-0.995	-0.162	0.007	0.42	-2.94	-1.05
20525	-0.995	-0.161	0.008	0.56	-2.8	-1.05
20548	-0.993	-0.159	0.006	0.42	-2.73	-1.26
20568	-0.995	-0.158	0.007	0.56	-2.59	-1.33
20589	-0.993	-0.158	0.008	0.84	-2.24	-1.33
20610	-0.994	-0.159	0.005	0.63	-2.38	-1.47
20633	-0.991	-0.159	0.005	0.77	-2.31	-1.33
20652	-0.994	-0.154	0.003	0.49	-2.31	-1.54
20668	-0.996	-0.157	0.005	0.42	-2.66	-1.75
20693	-0.994	-0.156	0.004	0.49	-2.94	-1.89
20711	-0.994	-0.157	0.002	0.28	-3.15	-1.75
20735	-0.996	-0.16	0.004	0.07	-3.71	-1.82
20754	-0.994	-0.157	0.007	0.07	-3.85	-1.75
20778	-0.999	-0.156	0.005	0.14	-4.06	-1.89
20798	-0.989	-0.157	0.009	0.14	-4.06	-1.89
20818	-0.996	-0.161	0.007	0.07	-4.27	-2.03
20839	-0.992	-0.163	0.009	0.07	-4.13	-1.89
20860	-0.993	-0.159	0.01	0.07	-4.2	-1.54
20882	-0.995	-0.16	0.011	0.14	-4.2	-1.61
20901	-0.991	-0.161	0.01	0.07	-4.13	-1.4
20920	-0.992	-0.161	0.014	0.21	-3.71	-1.26
20942	-0.991	-0.159	0.012	0.28	-3.78	-1.19
20965	-0.992	-0.162	0.014	0.56	-3.5	-1.26
20986	-0.991	-0.163	0.014	0.63	-2.94	-1.12
21009	-0.99	-0.162	0.014	0.98	-2.73	-1.05
21027	-0.99	-0.159	0.013	0.84	-2.38	-0.91
21048	-0.991	-0.156	0.01	1.12	-1.82	-1.05
21068	-0.994	-0.157	0.013	1.12	-1.82	-1.19
21091	-0.99	-0.159	0.011	1.4	-1.61	-1.26
21111	-0.993	-0.16	0.01	1.4	-1.19	-1.12
21131	-0.994	-0.159	0.01	1.33	-1.68	-1.19
21155	-0.989	-0.157	0.01	1.4	-0.91	-1.33
21173	-0.996	-0.156	0.008	1.33	-1.26	-1.47
21194	-0.99	-0.158	0.007	1.61	-0.98	-1.47
21214	-0.998	-0.161	0.009	1.4	-1.19	-1.33
21235	-0.992	-0.16	0.006	1.54	-1.05	-1.19
21259	-0.993	-0.16	0.008	1.19	-1.12	-1.12
21283	-0.993	-0.157	0.009	1.33	-0.91	-0.98
21307	-0.996	-0.16	0.004	1.54	-0.98	-0.98
21327	-0.989	-0.155	0.002	1.12	-0.91	-1.05
21347	-0.998	-0.151	0.002	0.98	-1.05	-1.12
21364	-0.996	-0.153	0.003	0.7	-1.54	-1.33
21382	-0.991	-0.153	0.001	0.42	-1.33	-1.68
21406	-0.998	-0.157	0.001	0.56	-1.61	-1.4
21426	-0.992	-0.157	0.002	0.77	-1.75	-1.19
21449	-0.997	-0.156	0.0	0.35	-1.61	-1.05
21467	-0.993	-0.156	0.001	0.28	-1.96	-1.33
21486	-0.993	-0.157	0.001	0.28	-1.54	-1.33
21508	-0.996	-0.157	0.0	0.56	-1.61	-1.33
21531	-0.99	-0.155	-0.0	0.7	-1.4	-1.33
21554	-0.996	-0.154	0.0	0.42	-1.4	-1.54
21574	-0.997	-0.155	-0.0	0.28	-1.75	-1.19
21597	-0.989	-0.155	0.002	0.63	-1.26	-1.26
21616	-0.994	-0.156	0.0	0.7	-1.12	-1.19
21638	-0.997	-0.156	-0.001	0.63	-1.12	-1.19
21656	-0.991	-0.156	-0.005	0.77	-1.4	-1.05
21680	-0.997	-0.155	-0.003	0.7	-1.33	-1.19
21699	-0.996	-0.156	-0.006	0.63	-1.82	-1.05
21720	-0.991	-0.155	-0.003	0.77	-1.61	-1.19
21740	-0.993	-0.153	-0.003	0.91	-1.68	-1.33
21759	-0.996	-0.153	-0.003	0.84	-1.75	-1.05
21779	-0.993	-0.155	-0.006	0.91	-1.82	-1.05
21796	-0.994	-0.154	-0.004	0.77	-2.03	-0.77
21820	-0.994	-0.151	-0.007	0.63	-2.17	-0.7
21840	-0.995	-0.154	-0.01	0.91	-2.38	-0.77
21859	-0.997	-0.149	-0.01	0.84	-2.59	-0.91
21880	-0.998	-0.153	-0.008	0.91	-3.01	-1.05
21897	-0.995	-0.149	-0.007	0.84	-2.94	-1.12
21921	-0.995	-0.152	-0.008	0.84	-3.36	-1.19
21939	-0.993	-0.151	-0.008	0.77	-3.08	-1.26
21960	-0.993	-0.154	-0.002	0.84	-3.15	-1.4
21981	-0.996	-0.152	-0.005	1.05	-3.15	-1.47
22002	-0.995	-0.152	-0.002	0.98	-3.08	-1.54
22022	-0.995	-0.151	-0.004	1.12	-3.15	-1.47
22046	-0.996	-0.151	-0.003	0.84	-3.22	-1.54
22066	-0.994	-0.15	-0.002	0.77	-3.15	-1.47
22086	-0.996	-0.152	-0.004	0.84	-3.29	-1.47
22106	-0.994	-0.151	-0.002	0.7	-3.08	-1.33
22129	-0.996	-0.151	-0.001	0.56	-3.15	-1.47
22153	-0.994	-0.149	-0.002	0.56	-3.08	-1.47
22169	-0.994	-0.151	-0.003	0.56	-3.08	-1.47
22188	-0.996	-0.149	-0.003	0.49	-2.94	-1.47
22208	-0.994	-0.151	-0.003	0.56	-3.08	-1.47
22233	-0.996	-0.153	-0.004	0.63	-3.01	-1.47
22253	-0.994	-0.152	-0.001	0.63	-3.01	-1.47
22272	-0.994	-0.154	-0.004	0.49	-3.15	-1.12
22296	-0.996	-0.151	-0.003	0.49	-3.01	-1.19
22320	-0.996	-0.147	-0.005	0.35	-3.43	-1.33
22337	-0.997	-0.152	-0.004	0.35	-3.43	-1.19
22355	-0.993	-0.152	-0.003	0.35	-3.78	-1.26
22377	-0.996	-0.148	-0.004	0.35	-3.99	-1.26
22401	-0.998	-0.15	-0.003	0.0	-4.62	-1.4
22420	-0.997	-0.149	-0.003	-0.35	-4.97	-1.4
22439	-0.999	-0.145	-0.004	-0.56	-5.18	-1.4
22460	-0.993	-0.152	0.0	-0.42	-5.53	-1.47
22480	-0.996	-0.152	0.001	-0.21	-5.18	-1.33
22502	-0.994	-0.146	0.003	-0.14	-5.25	-1.33
22525	-0.996	-0.149	0.004	-0.42	-5.74	-1.19
22546	-0.986	-0.151	0.006	-0.28	-4.62	-1.47
22566	-0.994	-0.145	0.01	-0.07	-4.76	-2.03
22581	-0.992	-0.148	0.009	-0.21	-4.2	-2.17
22606	-0.995	-0.152	0.01	0.49	-3.85	-2.1
22625	-0.994	-0.153	0.008	0.35	-4.06	-1.96
22646	-0.993	-0.153	0.01	-0.21	-3.85	-1.54
22666	-0.992	-0.152	0.007	0.35	-3.22	-1.61
22684	-1.0	-0.151	0.006	0.7	-3.57	-1.54
22704	-0.993	-0.15	0.007	0.77	-3.85	-1.61
22724	-0.993	-0.151	0.006	0.49	-3.57	-1.54
22748	-0.998	-0.145	0.005	0.21	-4.06	-1.68
22769	-0.996	-0.146	0.01	-0.14	-3.99	-1.82
22788	-0.991	-0.157	0.012	0.35	-3.57	-1.82
22808	-0.993	-0.151	0.014	0.56	-3.22	-1.61
22828	-0.992	-0.151	0.01	0.7	-3.15	-1.47
22848	-0.992	-0.146	0.012	0.77	-2.73	-1.47
22868	-1.001	-0.152	0.01	0.7	-3.29	-1.47
22888	-0.988	-0.151	0.011	0.77	-3.01	-1.47
22908	-0.997	-0.147	0.012	0.63	-2.73	-1.4
22928	-0.997	-0.15	0.013	0.42	-3.01	-1.47
22947	-0.992	-0.152	0.012	0.42	-2.73	-1.4
22968	-0.997	-0.15	0.014	0.35	-2.59	-1.54
22991	-0.993	-0.147	0.013	0.35	-2.24	-1.68
23010	-0.993	-0.15	0.012	0.35	-1.89	-1.75
23035	-0.997	-0.153	0.012	0.42	-1.68	-1.89
23053	-0.992	-0.155	0.014	0.49	-1.54	-1.89
23077	-0.992	-0.15	0.009	0.84	-0.98	-1.75
23095	-0.995	-0.151	0.011	0.77	-1.26	-1.89
23115	-0.993	-0.148	0.009	0.98	-0.91	-2.17
23137	-0.995	-0.146	0.007	1.05	-0.98	-2.24
23161	-0.995	-0.151	0.005	1.05	-1.19	-2.38
23181	-0.996	-0.152	0.005	0.91	-1.26	-2.31
23199	-0.996	-0.148	0.004	0.77	-1.47	-2.31
23220	-0.996	-0.151	0.005	0.35	-1.75	-2.24
23243	-0.998	-0.152	0.002	0.7	-1.89	-2.03
23263	-0.998	-0.153	0.002	0.42	-3.15	-2.45
23283	-0.993	-0.153	0.002	0.14	-2.8	-2.52
23303	-0.996	-0.154	0.001	0.35	-3.29	-2.38
23323	-0.995	-0.152	0.006	0.14	-2.94	-2.38
23343	-0.994	-0.155	0.005	0.07	-3.01	-2.24
23367	-0.993	-0.156	0.007	0.35	-2.66	-2.24
23387	-0.993	-0.155	0.008	0.42	-2.45	-2.17
23411	-0.996	-0.155	0.005	0.0	-2.52	-2.1
23430	-0.994	-0.153	0.007	0.21	-2.52	-2.1
23450	-0.993	-0.155	0.005	0.14	-2.59	-1.89
23474	-0.995	-0.154	0.006	0.21	-2.59	-1.82
23491	-0.997	-0.152	0.005	-0.07	-2.8	-1.89
23515	-0.993	-0.157	0.005	-0.07	-3.01	-1.75
23535	-0.995	-0.154	0.004	0.07	-2.73	-1.61
23553	-0.996	-0.153	0.003	0.21	-3.22	-1.54
23575	-0.993	-0.154	0.006	0.28	-2.94	-1.4
23595	-0.996	-0.158	0.005	0.35	-3.08	-1.33
23619	-0.995	-0.157	0.007	0.21	-3.08	-1.05
23638	-0.996	-0.153	0.004	0.42	-3.01	-0.98
23658	-0.992	-0.158	0.003	0.49	-3.15	-0.84
23678	-0.992	-0.157	0.007	0.42	-3.01	-0.84
23702	-0.993	-0.151	0.008	0.49	-2.73	-1.05
23718	-0.994	-0.156	0.005	0.56	-2.52	-1.05
23738	-0.991	-0.154	0.007	0.7	-2.31	-0.98
23759	-0.991	-0.156	0.004	1.12	-2.03	-0.84
23781	-1.0	-0.15	0.004	0.63	-2.59	-0.98
23805	-0.996	-0.15	0.005	0.63	-2.73	-1.19
23825	-0.998	-0.151	0.002	0.91	-2.87	-1.26
23845	-0.998	-0.149	0.001	0.7	-3.36	-1.47
23865	-0.999	-0.15	0.004	0.56	-3.78	-1.54
23885	-0.996	-0.151	0.003	0.63	-3.92	-1.68
23903	-1.001	-0.149	0.007	0.0	-4.76	-1.75
23922	-0.996	-0.147	0.006	0.28	-4.76	-1.68
23946	-0.998	-0.157	0.008	0.07	-5.04	-1.47
23966	-0.993	-0.155	0.009	0.35	-5.04	-1.12
23986	-0.991	-0.156	0.009	0.56	-4.83	-0.98
24006	-0.993	-0.153	0.011	0.56	-4.76	-0.77
24025	-0.996	-0.153	0.01	0.35	-4.76	-0.63
24042	-0.991	-0.154	0.017	0.35	-4.41	-0.28
24066	-0.994	-0.153	0.015	0.84	-3.92	-0.28
24086	-0.994	-0.153	0.016	0.98	-3.92	-0.28
24105	-0.993	-0.147	0.016	1.12	-2.94	-0.35
24129	-0.997	-0.152	0.014	1.19	-3.08	-0.42
24148	-0.993	-0.149	0.017	1.19	-2.52	-0.56
24169	-0.989	-0.152	0.017	1.26	-2.03	-0.35
24184	-0.995	-0.148	0.017	1.05	-1.75	-0.56
24209	-0.996	-0.146	0.016	0.77	-1.75	-0.63
24225	-0.99	-0.147	0.014	0.77	-1.33	-0.98
24248	-0.993	-0.145	0.012	0.56	-1.05	-0.84
24269	-0.992	-0.149	0.013	0.91	-0.84	-1.4
24289	-0.999	-0.145	0.009	0.91	-0.35	-1.75
24309	-0.996	-0.145	0.008	0.91	-1.05	-1.75
24328	-0.997	-0.144	0.005	0.84	-0.49	-1.82
24348	-0.999	-0.148	0.006	0.63	-1.33	-1.82
24373	-0.995	-0.149	0.007	0.49	-1.12	-1.68
24393	-0.996	-0.148	0.007	0.42	-1.19	-1.89
24417	-0.996	-0.147	0.009	0.84	-0.91	-1.75
24437	-0.996	-0.148	0.008	1.05	-1.05	-1.68
24457	-0.993	-0.148	0.005	1.19	-0.63	-1.54
24477	-0.997	-0.148	0.007	0.84	-0.7	-1.75
24497	-0.99	-0.148	0.005	1.12	-0.49	-1.54
24517	-0.995	-0.148	0.004	1.26	-0.49	-1.54
24536	-0.993	-0.155	0.001	1.19	0.0	-1.12
24555	-0.995	-0.146	-0.0	1.4	-0.21	-1.26
24575	-1.0	-0.146	-0.0	1.26	-0.14	-1.19
24598	-0.999	-0.142	-0.002	1.12	-0.77	-1.26
24617	-0.999	-0.147	-0.005	0.84	-1.12	-1.47
24642	-0.996	-0.149	-0.002	0.77	-1.26	-1.68
24666	-0.999	-0.145	-0.004	0.7	-1.61	-1.68
24686	-1.0	-0.147	-0.01	0.49	-2.24	-1.68
24705	-0.993	-0.145	-0.003	0.42	-2.38	-1.68
24726	-0.996	-0.148	-0.005	-0.14	-2.59	-1.82
24746	-0.997	-0.149	-0.001	-0.14	-2.73	-1.68
24766	-0.995	-0.151	-0.005	0.0	-2.66	-1.68
24786	-0.995	-0.148	-0.006	0.07	-2.73	-1.54
24805	-0.999	-0.147	-0.004	-0.14	-2.87	-1.54
24825	-0.993	-0.15	-0.006	-0.07	-3.01	-1.4
24849	-0.996	-0.148	-0.005	0.07	-3.01	-1.47
24870	-0.995	-0.148	-0.004	0.28	-3.15	-1.47
24889	-0.996	-0.15	-0.001	0.28	-3.15	-1.4
24904	-0.995	-0.149	-0.0	0.42	-3.01	-1.4
24924	-0.992	-0.151	0.0	0.63	-2.73	-1.26
24949	-0.995	-0.149	-0.002	0.91	-2.52	-1.19
24969	-0.996	-0.151	-0.004	1.05	-2.52	-1.05
24985	-0.996	-0.147	-0.002	0.84	-2.45	-0.98
25009	-0.996	-0.147	-0.002	0.84	-2.59	-0.98
25029	-0.996	-0.147	-0.004	0.98	-2.73	-0.91
25048	-0.996	-0.146	-0.005	1.05	-2.87	-0.91
25072	-0.997	-0.145	-0.005	0.91	-3.15	-1.05
25091	-0.998	-0.144	-0.003	0.84	-3.29	-1.05
25110	-0.995	-0.143	-0.003	0.84	-3.5	-1.19
25135	-0.995	-0.144	-0.005	0.63	-3.57	-1.33
25154	-0.996	-0.145	-0.003	0.7	-3.64	-1.26
25174	-0.996	-0.146	-0.005	0.7	-3.64	-1.26
25194	-0.997	-0.144	-0.001	0.56	-3.92	-1.47
25218	-0.997	-0.145	-0.001	0.35	-4.34	-1.19
25233	-0.993	-0.147	0.0	0.21	-4.27	-1.19
25253	-0.996	-0.144	-0.002	0.21	-4.06	-1.12
25278	-0.999	-0.141	0.001	0.0	-4.2	-1.4
25294	-0.996	-0.144	0.0	0.07	-4.41	-1.33
25318	-0.993	-0.148	0.001	0.56	-4.13	-1.33
25338	-0.997	-0.142	0.004	0.14	-4.13	-1.4
25356	-0.997	-0.149	0.005	0.0	-4.13	-1.33
25376	-0.994	-0.145	0.006	0.28	-3.92	-1.33
25396	-0.996	-0.142	0.003	0.35	-4.06	-1.61
25420	-0.999	-0.142	0.004	0.0	-3.99	-1.82
25440	-0.995	-0.146	0.007	0.14	-3.85	-1.82
25456	-0.995	-0.143	0.005	0.07	-3.85	-2.1
25480	-0.997	-0.143	0.003	-0.07	-3.64	-2.03
25497	-0.996	-0.145	0.009	-0.07	-3.78	-2.1
25521	-0.995	-0.145	0.006	0.0	-3.64	-2.17
25541	-1.0	-0.146	0.003	-0.07	-3.78	-2.1
25559	-0.994	-0.146	0.01	-0.07	-3.85	-2.03
25580	-0.998	-0.149	0.007	0.0	-3.64	-2.03
25600	-0.995	-0.146	0.007	0.07	-3.43	-1.96
25620	-0.994	-0.143	0.008	0.07	-3.43	-2.24
25644	-0.999	-0.146	0.009	0.28	-3.22	-2.31
25664	-0.994	-0.145	0.01	0.28	-3.15	-2.31
25684	-0.993	-0.15	0.011	0.49	-3.08	-2.31
25703	-0.99	-0.144	0.009	0.56	-2.24	-2.24
25724	-0.998	-0.147	0.006	0.7	-2.73	-2.03
25743	-0.995	-0.146	0.01	0.42	-2.87	-2.1
25762	-0.991	-0.149	0.011	0.56	-2.38	-2.1
25787	-0.995	-0.152	0.009	1.12	-2.03	-2.03
25807	-0.997	-0.145	0.004	0.63	-2.52	-1.89
25827	-0.994	-0.148	0.007	0.35	-2.45	-1.75
25845	-1.003	-0.145	0.008	0.35	-2.87	-1.61
25869	-0.992	-0.146	0.009	0.28	-2.66	-1.82
25887	-0.995	-0.145	0.004	0.35	-2.52	-1.96
25907	-0.998	-0.144	0.002	0.28	-3.36	-1.82
25930	-0.996	-0.148	0.004	-0.49	-3.43	-1.96
25951	-0.998	-0.146	0.006	-0.42	-3.71	-2.1
25971	-0.997	-0.147	0.007	-0.63	-3.99	-2.24
25991	-0.991	-0.146	0.01	-0.7	-3.92	-2.24
26015	-0.995	-0.148	0.011	-0.14	-4.13	-2.17
26033	-0.99	-0.15	0.01	-0.14	-3.78	-1.96
26053	-0.992	-0.15	0.01	-0.14	-3.57	-1.82
26075	-0.995	-0.148	0.009	0.07	-3.36	-1.61
26095	-0.995	-0.148	0.011	0.14	-3.36	-1.61
26115	-0.993	-0.148	0.008	0.28	-3.36	-1.47
26139	-0.995	-0.149	0.009	0.28	-3.36	-1.33
26159	-0.993	-0.143	0.01	0.0	-3.43	-1.33
26178	-0.99	-0.147	0.012	0.14	-3.08	-1.47
26195	-0.993	-0.148	0.013	0.14	-3.01	-1.61
26219	-0.995	-0.15	0.011	0.14	-2.73	-1.89
26239	-0.993	-0.147	0.011	0.21	-2.52	-2.17
26259	-0.994	-0.147	0.012	0.35	-2.24	-2.17
26274	-0.995	-0.15	0.014	0.49	-2.17	-2.31
26294	-0.993	-0.151	0.011	0.49	-1.96	-2.38
26316	-0.993	-0.151	0.011	0.56	-1.82	-2.38
26335	-0.997	-0.148	0.01	0.49	-1.96	-2.59
26360	-0.995	-0.148	0.006	0.49	-2.24	-2.73
26378	-0.996	-0.15	0.009	0.14	-2.45	-2.8
26397	-0.994	-0.151	0.009	0.42	-2.38	-2.66
26417	-0.996	-0.153	0.007	0.28	-2.8	-2.52
26441	-0.994	-0.151	0.007	0.14	-3.01	-2.17
26459	-0.996	-0.155	0.01	0.07	-3.15	-1.89
26480	-0.992	-0.152	0.013	0.14	-3.01	-1.68
26502	-0.997	-0.154	0.01	0.91	-2.73	-1.68
26526	-0.995	-0.153	0.009	0.7	-2.87	-1.61
26546	-0.997	-0.153	0.006	0.56	-2.87	-1.75
26564	-0.997	-0.151	0.01	0.14	-3.22	-1.89
26583	-0.992	-0.153	0.012	0.28	-2.87	-1.75
26608	-0.995	-0.156	0.012	0.35	-2.8	-1.75
26626	-0.996	-0.149	0.01	0.35	-2.45	-2.03
26648	-0.997	-0.155	0.009	0.49	-2.73	-1.96
26668	-0.991	-0.153	0.012	0.49	-2.59	-1.96
26688	-0.996	-0.156	0.01	0.56	-2.66	-1.54
26708	-0.993	-0.157	0.011	0.49	-2.59	-1.4
26732	-0.993	-0.154	0.011	0.63	-2.59	-1.26
26752	-0.995	-0.151	0.008	0.7	-2.59	-0.98
26771	-0.993	-0.151	0.008	0.7	-2.52	-1.12
26792	-0.996	-0.15	0.008	0.77	-2.52	-1.12
26812	-0.996	-0.151	0.009	0.7	-2.87	-0.91
26832	-0.994	-0.153	0.009	0.63	-3.08	-0.77
26850	-0.997	-0.147	0.008	0.84	-3.08	-0.77
26873	-1.001	-0.151	0.005	0.49	-3.5	-0.91
26894	-0.998	-0.15	0.009	0.56	-3.78	-1.26
26914	-0.996	-0.149	0.007	0.56	-3.92	-1.33
26931	-0.996	-0.147	0.009	0.49	-4.13	-1.4
26950	-0.995	-0.149	0.011	0.21	-4.62	-1.47
26970	-0.998	-0.149	0.01	0.14	-4.41	-1.54
26994	-0.996	-0.151	0.013	0.21	-4.69	-1.96
27015	-0.993	-0.152	0.014	0.42	-4.2	-1.68
27035	-0.996	-0.153	0.017	0.49	-4.2	-1.68
27050	-0.992	-0.154	0.019	0.42	-3.92	-1.61
27075	-0.994	-0.153	0.019	0.63	-3.64	-1.33
27095	-0.99	-0.15	0.018	0.77	-3.15	-1.19
27119	-0.995	-0.15	0.017	0.98	-2.66	-1.19
27138	-0.994	-0.15	0.018	0.98	-2.52	-1.33
27158	-0.996	-0.151	0.017	1.05	-2.31	-1.26
27180	-0.993	-0.151	0.016	1.05	-2.38	-1.05
27200	-0.996	-0.15	0.018	0.84	-2.1	-1.12
27219	-0.992	-0.15	0.016	0.91	-2.03	-1.12
27244	-0.993	-0.152	0.016	0.84	-1.68	-0.98
27264	-0.995	-0.149	0.014	0.7	-1.68	-0.98
27283	-0.992	-0.15	0.016	0.63	-1.68	-0.91
27304	-0.992	-0.147	0.016	0.7	-0.98	-0.84
27320	-0.998	-0.146	0.014	0.7	-1.26	-1.05
27340	-0.992	-0.149	0.015	0.63	-0.91	-1.12
27364	-0.995	-0.146	0.013	0.98	-0.56	-1.19
27384	-0.991	-0.147	0.013	1.12	-0.07	-1.4
27402	-0.992	-0.148	0.01	1.19	0.21	-1.4
27420	-0.994	-0.15	0.008	1.26	-0.21	-1.61
27444	-0.999	-0.142	0.006	1.12	0.28	-1.61
27464	-1.007	-0.143	0.004	0.7	-1.75	-1.75
27488	-0.983	-0.149	0.005	0.56	-0.63	-1.75
27508	-1.002	-0.153	0.009	0.7	-1.4	-2.1
27528	-0.992	-0.149	0.006	0.84	-1.12	-1.96
27548	-0.995	-0.152	0.004	1.12	-1.05	-1.89
27568	-0.997	-0.146	0.002	1.19	-1.05	-1.68
27586	-0.998	-0.147	0.004	0.84	-1.4	-1.68
27610	-0.989	-0.148	0.004	0.77	-1.19	-1.4
27634	-0.996	-0.15	0.003	1.19	-1.05	-1.19
27654	-0.996	-0.148	0.002	1.05	-0.98	-0.98
27674	-0.991	-0.151	-0.0	1.12	-0.56	-0.77
27693	-1.001	-0.144	-0.003	0.98	-0.91	-0.98
27717	-1.0	-0.143	-0.003	0.7	-1.68	-1.33
27737	-0.997	-0.143	-0.002	0.7	-1.75	-1.4
27756	-0.998	-0.144	-0.002	0.35	-2.31	-1.82
27776	-0.995	-0.146	-0.001	0.07	-2.24	-1.82
27795	-0.994	-0.146	-0.0	0.21	-2.45	-2.03
27820	-0.996	-0.15	0.003	0.14	-2.17	-2.03
27840	-0.995	-0.148	0.0	0.28	-2.1	-2.1
27858	-0.992	-0.146	-0.0	0.49	-1.96	-2.1
27881	-0.998	-0.149	0.001	0.42	-2.03	-2.24
27900	-0.994	-0.149	-0.002	0.28	-1.96	-2.1
27924	-0.994	-0.149	-0.003	0.49	-1.96	-2.1
27944	-0.999	-0.147	-0.004	0.21	-2.45	-2.17
27968	-0.996	-0.152	-0.002	0.42	-2.59	-2.24
27988	-0.996	-0.149	-0.002	0.21	-2.73	-2.38
28008	-0.995	-0.15	-0.002	0.49	-2.87	-2.17
28027	-0.994	-0.151	-0.002	0.63	-2.73	-2.17
28044	-0.994	-0.152	-0.003	0.49	-2.8	-2.03
28064	-0.995	-0.152	0.0	0.49	-2.73	-2.1
28088	-0.994	-0.15	-0.003	0.7	-2.8	-2.03
28108	-0.994	-0.153	-0.004	0.7	-2.94	-1.96
28128	-0.994	-0.149	-0.002	0.77	-2.59	-1.82
28143	-0.994	-0.153	-0.002	0.63	-2.59	-1.68
28168	-0.996	-0.15	-0.004	0.49	-2.66	-1.75
28188	-0.995	-0.15	-0.002	0.63	-2.73	-1.75
28212	-0.996	-0.153	-0.002	0.63	-2.73	-1.68
28231	-0.997	-0.149	-0.004	0.56	-2.87	-1.68
28250	-0.995	-0.152	-0.003	0.28	-3.15	-2.03
28272	-0.995	-0.15	0.0	0.35	-2.94	-1.82
28295	-0.997	-0.152	-0.001	0.21	-2.94	-1.82
28313	-0.996	-0.153	-0.003	0.28	-3.08	-1.61
28337	-0.995	-0.15	-0.002	0.07	-3.22	-1.61
28355	-0.995	-0.151	-0.002	0.21	-3.15	-1.4
28376	-0.993	-0.154	-0.0	0.07	-3.29	-1.61
28394	-0.995	-0.155	-0.003	0.07	-3.29	-1.61
28416	-0.996	-0.15	-0.003	0.07	-3.43	-1.4
28440	-0.994	-0.153	-0.003	0.21	-3.36	-1.61
28460	-0.991	-0.152	-0.002	0.28	-3.43	-1.54
28480	-0.993	-0.148	-0.002	0.21	-3.36	-1.82
28499	-1.002	-0.149	-0.001	-0.14	-3.78	-1.89
28519	-0.993	-0.153	0.0	-0.07	-4.06	-1.89
28544	-0.994	-0.154	-0.0	0.07	-4.06	-1.89
28563	-1.001	-0.152	-0.002	-0.21	-4.34	-1.82
28588	-0.985	-0.151	0.0	0.0	-4.41	-1.82
28607	-1.003	-0.153	0.001	0.0	-4.83	-2.03
28628	-0.995	-0.156	-0.0	-0.07	-5.32	-1.61
28646	-0.989	-0.156	0.002	0.0	-4.97	-1.47
28664	-0.997	-0.148	0.002	-0.35	-5.18	-1.47
28683	-0.996	-0.151	0.005	-0.56	-5.74	-1.82
28708	-0.991	-0.157	0.008	-0.21	-5.32	-1.68
28727	-0.992	-0.155	0.007	0.0	-5.11	-1.68
28747	-0.991	-0.149	0.011	-0.07	-4.83	-1.82
28771	-0.995	-0.156	0.016	0.0	-4.27	-2.17
28787	-0.994	-0.158	0.012	0.63	-3.99	-2.03
28807	-0.985	-0.158	0.013	0.84	-2.8	-2.03
28831	-0.993	-0.154	0.011	1.05	-2.52	-2.03
28850	-0.991	-0.148	0.01	1.12	-1.96	-2.1
28871	-0.995	-0.157	0.011	0.98	-2.38	-2.03
28891	-0.991	-0.15	0.009	1.19	-1.96	-1.89
28915	-0.997	-0.151	0.007	0.84	-1.96	-2.03
28934	-0.995	-0.154	0.01	0.56	-2.66	-1.96
28953	-0.988	-0.154	0.007	0.56	-1.96	-2.1
28977	-0.999	-0.153	0.007	0.14	-2.66	-1.82
28998	-0.993	-0.152	0.008	-0.07	-2.66	-1.82
29014	-0.993	-0.153	0.008	-0.21	-2.66	-2.03
29038	-0.995	-0.154	0.009	0.0	-2.66	-2.1
29054	-0.994	-0.154	0.01	-0.07	-2.38	-2.17
29078	-0.99	-0.156	0.01	-0.21	-2.24	-1.96
29098	-0.994	-0.154	0.008	-0.28	-1.96	-2.1
29118	-0.995	-0.159	0.007	-0.14	-1.96	-1.96
29138	-0.993	-0.156	0.007	0.0	-1.61	-1.89
29157	-0.996	-0.157	0.004	0.28	-1.54	-2.03
29181	-0.995	-0.155	0.004	0.49	-1.61	-1.96
29201	-0.993	-0.153	0.005	0.42	-1.61	-2.1
29221	-0.996	-0.154	0.003	0.28	-1.89	-2.1
29240	-0.994	-0.156	0.003	0.14	-1.68	-2.1
29261	-0.994	-0.153	0.001	0.35	-1.89	-2.1
29282	-0.996	-0.156	0.002	0.21	-2.1	-2.1
29306	-0.996	-0.154	0.003	0.07	-2.31	-2.17
29325	-0.988	-0.159	0.004	0.42	-2.1	-2.38
29346	-0.995	-0.154	0.003	0.49	-2.1	-2.45
29364	-0.995	-0.151	0.004	-0.21	-2.24	-2.59
29385	-0.995	-0.164	0.005	0.21	-2.03	-2.59
29407	-0.992	-0.166	0.004	0.7	-2.03	-2.17
29426	-0.996	-0.156	0.004	0.7	-2.17	-2.31
29451	-0.992	-0.158	0.0	0.7	-2.24	-2.24
29471	-0.993	-0.16	0.0	0.56	-2.38	-2.24
29491	-0.995	-0.161	-0.0	0.49	-2.73	-2.31
29511	-0.991	-0.158	0.003	0.28	-2.66	-2.31
29528	-0.994	-0.163	0.0	0.28	-2.66	-2.31
29548	-0.994	-0.161	0.0	0.35	-3.01	-2.1
29568	-0.992	-0.162	0.003	0.21	-2.87	-1.75
29592	-0.994	-0.16	0.001	0.21	-3.01	-1.82
29612	-0.993	-0.161	0.001	0.21	-3.01	-1.61
29632	-0.994	-0.162	0.0	0.28	-3.08	-1.4
29649	-0.995	-0.16	0.002	0.21	-3.08	-1.4
29669	-0.993	-0.16	0.0	0.21	-3.22	-1.19
29688	-0.991	-0.163	0.002	0.35	-3.15	-1.12
29713	-0.991	-0.159	0.004	0.42	-2.87	-1.05
29733	-0.994	-0.16	0.002	0.56	-3.01	-1.12
29753	-0.993	-0.159	0.002	0.42	-2.94	-0.98
29768	-0.996	-0.159	0.001	0.42	-2.94	-0.91
29792	-0.993	-0.157	0.002	0.21	-3.15	-0.91
29813	-0.994	-0.158	0.001	0.56	-2.94	-0.98
29837	-0.995	-0.157	0.001	0.63	-3.22	-1.19
29857	-0.996	-0.159	0.002	0.42	-3.57	-1.19
29876	-0.994	-0.156	0.001	0.42	-3.64	-1.33
29893	-0.992	-0.157	0.006	0.21	-3.57	-1.4
29917	-0.995	-0.157	0.002	0.42	-3.71	-1.61
29937	-0.995	-0.158	0.003	0.42	-3.57	-1.47
29956	-0.992	-0.161	0.003	0.7	-3.78	-1.33
29975	-0.994	-0.155	0.006	0.56	-3.78	-1.4
29999	-0.997	-0.157	0.005	0.49	-3.92	-1.4
30018	-0.995	-0.159	0.007	0.63	-4.06	-1.4
30038	-0.993	-0.157	0.008	0.56	-3.57	-1.33
30057	-0.997	-0.155	0.007	0.63	-3.92	-1.33
30082	-0.992	-0.16	0.007	0.63	-3.92	-1.33
30100	-0.995	-0.155	0.011	0.49	-3.5	-1.33
30121	-0.994	-0.16	0.008	0.7	-3.36	-1.33
30144	-0.995	-0.156	0.009	0.77	-3.08	-1.19
30163	-0.994	-0.159	0.011	0.7	-2.94	-1.33
30187	-0.991	-0.158	0.01	0.77	-2.52	-1.19
30207	-0.993	-0.156	0.011	0.84	-2.31	-1.26
30227	-0.993	-0.156	0.01	0.84	-2.1	-1.19
30243	-0.996	-0.156	0.01	0.77	-1.89	-1.26
30266	-0.989	-0.156	0.008	0.7	-1.82	-1.19
30284	-0.995	-0.155	0.009	0.63	-1.68	-1.33
30303	-0.995	-0.155	0.006	0.77	-1.68	-1.33
30323	-0.996	-0.154	0.007	0.7	-1.68	-1.4
30346	-0.99	-0.157	0.007	1.12	-1.26	-1.4
30366	-0.995	-0.161	0.003	1.33	-0.91	-1.26
30389	-0.996	-0.156	0.005	1.19	-1.4	-1.12
30408	-0.993	-0.155	0.005	0.84	-0.98	-1.19
30428	-0.991	-0.16	0.006	1.33	-0.91	-1.12
30448	-0.994	-0.16	0.004	1.68	-0.49	-1.12
30471	-0.992	-0.156	0.004	1.68	-0.35	-1.05
30490	-0.993	-0.154	0.002	1.75	-0.07	-1.26
30511	-0.996	-0.152	0.001	1.61	0.07	-1.33
30535	-0.996	-0.158	-0.0	1.4	-0.28	-1.19
30554	-0.994	-0.156	0.0	1.4	0.0	-1.12
30573	-0.996	-0.15	-0.002	1.68	-0.14	-1.05
30598	-0.996	-0.151	-0.005	1.05	-0.7	-1.19
30618	-0.994	-0.154	-0.007	0.91	-0.63	-1.26
30637	-0.999	-0.151	-0.004	0.7	-1.47	-1.4
30657	-0.992	-0.152	-0.005	0.56	-1.26	-1.54
30677	-0.996	-0.155	-0.003	0.42	-1.68	-1.4
30701	-0.993	-0.157	-0.006	0.63	-1.47	-1.47
30721	-0.996	-0.156	-0.004	0.63	-1.61	-1.4
30738	-0.996	-0.153	-0.006	0.7	-1.47	-1.33
30760	-0.997	-0.154	-0.006	0.7	-1.96	-1.19
30782	-0.993	-0.154	-0.008	0.91	-1.96	-1.33
30801	-0.997	-0.152	-0.01	0.77	-2.38	-1.26
30825	-0.996	-0.154	-0.011	0.49	-3.08	-1.33
30845	-0.996	-0.152	-0.009	0.28	-2.8	-1.47
30864	-0.994	-0.155	-0.005	0.56	-3.01	-1.4
30888	-0.994	-0.153	-0.005	0.49	-2.8	-1.33
30908	-0.995	-0.153	-0.007	0.49	-2.87	-1.47
30927	-0.993	-0.155	-0.007	0.63	-2.73	-1.26
30947	-0.995	-0.152	-0.007	0.63	-2.73	-1.26
30972	-0.996	-0.153	-0.008	0.77	-2.73	-1.26
30992	-0.994	-0.154	-0.007	0.77	-2.87	-1.33
31012	-0.994	-0.151	-0.009	0.77	-3.01	-1.4
31031	-0.997	-0.151	-0.006	0.7	-3.08	-1.54
31052	-0.992	-0.151	-0.008	0.77	-3.08	-1.54
31072	-0.995	-0.151	-0.007	0.7	-3.22	-1.61
31090	-0.993	-0.151	-0.004	0.7	-3.01	-1.68
31110	-0.997	-0.153	-0.005	0.84	-3.01	-1.61
31133	-0.995	-0.155	-0.008	0.84	-3.01	-1.54
31153	-0.996	-0.154	-0.004	0.42	-3.15	-1.61
31173	-0.996	-0.15	-0.004	0.42	-3.36	-1.82
31193	-0.995	-0.153	-0.006	0.49	-3.5	-1.68
31217	-0.995	-0.153	-0.005	0.35	-3.5	-1.61
31233	-0.994	-0.151	-0.002	0.21	-3.57	-1.75
31255	-0.995	-0.154	-0.002	0.14	-3.5	-1.82
31274	-0.995	-0.154	-0.004	0.14	-3.5	-1.89
31298	-0.993	-0.151	-0.004	0.14	-3.43	-1.89
31322	-0.996	-0.154	-0.004	0.14	-3.78	-1.96
31345	-0.996	-0.153	-0.004	0.14	-3.99	-1.89
31361	-0.994	-0.156	-0.005	-0.07	-4.06	-1.89
31386	-0.994	-0.15	-0.002	0.0	-4.06	-1.96
31406	-0.994	-0.154	-0.001	0.0	-3.92	-1.96
31425	-0.996	-0.153	0.001	0.07	-3.92	-1.75
31444	-0.995	-0.157	0.0	0.0	-4.06	-1.75
31469	-0.99	-0.154	-0.002	0.14	-3.85	-1.61
31489	-0.996	-0.152	0.001	-0.07	-4.2	-1.82
31508	-0.996	-0.154	-0.003	-0.21	-4.13	-1.68
31528	-0.995	-0.155	0.002	-0.07	-4.34	-1.89
31552	-0.994	-0.152	0.001	-0.07	-4.13	-1.96
31572	-0.998	-0.155	0.002	-0.14	-4.69	-2.03
31587	-0.986	-0.154	0.004	-0.28	-4.06	-1.96
31611	-0.999	-0.154	0.002	-0.21	-3.99	-2.17
31635	-0.988	-0.155	0.004	0.07	-3.57	-2.17
31652	-0.992	-0.154	0.005	0.28	-3.22	-1.96
31670	-0.99	-0.155	0.007	0.28	-3.36	-2.1
31695	-0.993	-0.157	0.005	0.21	-2.59	-2.1
31715	-0.996	-0.157	0.002	0.42	-3.08	-2.24
31735	-0.991	-0.156	0.004	0.28	-2.59	-2.03
31751	-0.995	-0.157	0.005	0.56	-2.73	-2.31
31772	-0.994	-0.157	0.002	0.77	-2.59	-2.24
31792	-0.99	-0.157	0.001	0.7	-2.73	-2.31
31816	-1.003	-0.158	0.003	0.56	-2.87	-1.89
31833	-0.99	-0.161	0.002	0.49	-3.43	-1.75
31855	-0.991	-0.161	0.005	0.56	-2.73	-1.47
31876	-0.993	-0.159	0.007	0.63	-3.01	-1.4
31900	-0.99	-0.153	0.005	0.77	-2.66	-1.54
31920	-0.996	-0.155	0.005	0.7	-2.31	-1.75
31943	-0.996	-0.152	0.001	0.77	-2.94	-1.75
31964	-0.995	-0.154	0.001	0.63	-2.87	-1.54
31984	-0.996	-0.156	0.004	0.35	-3.43	-1.47
32004	-0.992	-0.154	0.005	0.07	-3.15	-1.54
32023	-0.995	-0.159	0.006	0.35	-2.94	-1.68
32043	-0.991	-0.158	0.007	0.42	-2.8	-1.68
32067	-0.989	-0.156	0.007	0.21	-2.45	-1.89
32086	-0.992	-0.155	0.006	0.28	-1.96	-1.89
32106	-0.994	-0.161	0.005	0.14	-2.03	-1.96
32129	-0.994	-0.156	0.002	0.56	-1.89	-1.89
32147	-0.994	-0.156	0.004	0.35	-1.82	-1.82
32171	-0.996	-0.155	0.0	0.14	-2.03	-2.03
32191	-0.996	-0.157	0.003	0.14	-2.1	-2.24
32211	-0.996	-0.157	0.003	0.07	-2.38	-2.24
32229	-0.993	-0.159	-0.0	0.14	-2.03	-2.1
32250	-1.0	-0.16	0.0	0.14	-2.59	-2.31
32274	-0.991	-0.154	-0.002	0.21	-2.52	-2.31
32294	-0.996	-0.159	-0.0	0.14	-2.87	-2.24
32313	-0.988	-0.159	0.002	0.42	-2.73	-2.31
32337	-0.993	-0.16	0.0	0.35	-2.59	-2.31
32357	-0.993	-0.16	0.0	0.28	-3.15	-2.17
32377	-0.996	-0.157	-0.002	0.07	-3.43	-2.17
32397	-0.998	-0.156	-0.0	0.0	-3.85	-2.1
32421	-0.992	-0.157	0.0	-0.21	-3.99	-2.17
32441	-0.998	-0.161	0.001	0.35	-4.55	-2.24
32461	-0.991	-0.157	0.006	0.21	-4.06	-2.17
32480	-0.994	-0.156	0.006	0.0	-4.55	-2.1
32500	-0.988	-0.162	0.005	0.07	-4.06	-2.1
32521	-0.995	-0.163	0.005	0.0	-4.13	-1.96
32545	-0.988	-0.165	0.009	0.42	-3.85	-1.61
32565	-0.994	-0.159	0.006	0.56	-3.57	-1.61
32584	-0.992	-0.162	0.008	0.35	-3.43	-1.61
32604	-0.992	-0.165	0.008	0.14	-3.29	-1.33
32627	-0.992	-0.164	0.007	0.21	-3.15	-1.33
32648	-0.99	-0.161	0.009	0.49	-2.52	-1.47
32668	-0.996	-0.163	0.006	0.42	-2.66	-1.75
32688	-0.995	-0.155	0.009	0.49	-3.01	-1.96
32712	-0.99	-0.164	0.005	0.63	-2.8	-1.68
32732	-0.993	-0.162	0.009	0.63	-2.8	-1.68
32747	-0.992	-0.158	0.007	0.63	-2.38	-1.82
32772	-0.992	-0.159	0.005	0.77	-2.59	-1.75
32789	-0.993	-0.162	0.006	0.56	-2.38	-1.68
32808	-0.994	-0.162	0.005	0.56	-2.52	-1.68
32828	-0.995	-0.158	0.004	0.28	-2.87	-1.68
32851	-0.994	-0.159	0.007	0.49	-2.94	-1.47
32875	-0.991	-0.165	0.006	0.63	-3.08	-1.4
32896	-0.989	-0.162	0.006	0.56	-2.87	-1.4
32914	-0.995	-0.161	0.006	0.77	-2.87	-1.47
32937	-0.994	-0.161	0.006	0.56	-2.8	-1.26
32958	-0.991	-0.161	0.007	0.77	-2.8	-1.19
32978	-0.994	-0.159	0.003	0.7	-2.73	-1.12
32998	-0.994	-0.16	0.002	0.7	-2.8	-1.05
33021	-0.993	-0.159	0.006	0.7	-2.73	-1.12
33044	-0.991	-0.161	0.004	0.7	-2.73	-1.19
33063	-0.993	-0.16	0.004	0.7	-2.8	-1.05
33088	-0.996	-0.157	0.007	0.56	-2.94	-1.19
33108	-0.992	-0.16	0.008	0.56	-2.73	-1.26
33125	-0.994	-0.159	0.005	0.56	-2.66	-1.33
33144	-0.999	-0.158	0.006	0.77	-2.66	-1.19
33168	-0.994	-0.159	0.008	0.63	-2.87	-1.47
33187	-0.993	-0.159	0.007	0.77	-2.59	-1.33
33212	-0.995	-0.16	0.006	0.91	-2.59	-1.26
33232	-0.994	-0.159	0.006	0.7	-2.66	-1.4
33251	-0.991	-0.16	0.008	0.63	-2.73	-1.4
33272	-0.996	-0.158	0.006	0.28	-2.8	-1.54
33292	-0.992	-0.16	0.007	0.63	-2.73	-1.19
33315	-0.994	-0.154	0.007	0.7	-2.59	-1.47
33336	-0.992	-0.158	0.011	0.77	-2.45	-1.61
33355	-0.992	-0.157	0.007	0.63	-2.31	-1.68
33371	-0.996	-0.162	0.009	0.35	-2.38	-1.61
33391	-0.992	-0.154	0.006	0.35	-2.52	-1.54
33416	-0.992	-0.159	0.004	0.35	-2.66	-1.68
33436	-0.994	-0.158	0.007	0.49	-2.73	-1.75
33454	-0.992	-0.155	0.006	0.35	-2.59	-1.68
33476	-0.996	-0.155	0.006	0.14	-2.94	-1.82
33496	-0.994	-0.159	0.007	0.14	-2.87	-1.82
33516	-0.993	-0.157	0.006	0.21	-2.87	-1.96
33536	-0.993	-0.161	0.004	0.14	-2.8	-1.89
33555	-0.996	-0.157	0.006	0.07	-2.94	-2.03
33573	-0.995	-0.157	0.008	-0.14	-3.01	-2.31
33596	-0.995	-0.16	0.007	0.21	-2.73	-2.1
33620	-0.993	-0.16	0.007	0.21	-2.59	-2.03
33643	-0.994	-0.161	0.004	0.42	-2.59	-1.89
33663	-0.991	-0.158	0.005	0.21	-2.59	-1.89
33682	-0.993	-0.16	0.007	0.35	-2.24	-1.82
33707	-0.994	-0.161	0.005	0.56	-2.1	-1.61
33727	-0.993	-0.161	0.006	0.42	-2.24	-1.68
33747	-0.99	-0.158	0.008	0.49	-1.68	-1.68
33767	-0.996	-0.162	0.005	0.49	-1.89	-1.68
33791	-0.992	-0.161	0.005	0.49	-1.89	-1.54
33811	-0.993	-0.159	0.003	0.77	-1.68	-1.4
33830	-0.997	-0.159	0.005	0.7	-1.89	-1.26
33850	-0.992	-0.158	0.002	0.77	-1.75	-1.19
33873	-0.996	-0.159	0.002	0.77	-1.89	-1.26
33893	-0.993	-0.16	0.003	0.56	-1.96	-1.12
33912	-0.994	-0.159	0.0	0.91	-1.82	-1.12
33934	-0.994	-0.16	0.003	0.91	-1.96	-1.05
33954	-0.99	-0.159	0.004	1.05	-1.82	-0.91
33974	-0.99	-0.161	0.003	1.12	-1.61	-0.77
33995	-0.996	-0.157	0.001	1.26	-1.75	-0.91
34018	-0.996	-0.158	-0.0	1.33	-1.68	-0.91
34037	-0.993	-0.159	0.002	1.4	-1.75	-0.98
34062	-0.995	-0.159	-0.001	1.33	-1.96	-0.91
34082	-0.994	-0.155	0.0	1.05	-2.03	-0.98
34100	-0.993	-0.16	0.003	1.05	-2.17	-1.05
34122	-0.994	-0.155	0.0	1.19	-1.82	-1.19
34142	-0.993	-0.155	0.001	0.98	-2.03	-1.33
34161	-0.991	-0.157	0.0	0.84	-2.03	-1.33
34179	-0.997	-0.156	-0.0	0.84	-1.96	-1.33
34199	-0.995	-0.154	0.001	0.91	-1.75	-1.47
34218	-0.995	-0.158	-0.0	0.7	-1.82	-1.47
34243	-0.993	-0.157	-0.003	0.91	-1.61	-1.4
34263	-0.994	-0.155	-0.003	0.77	-1.54	-1.68
34280	-0.994	-0.154	-0.002	0.84	-1.61	-1.68
34302	-0.994	-0.157	-0.004	0.56	-1.68	-1.68
34322	-0.996	-0.158	-0.005	0.42	-1.68	-1.82
34346	-0.997	-0.154	-0.004	0.21	-1.96	-1.82
34366	-0.995	-0.154	-0.004	0.35	-1.96	-2.03
34386	-0.994	-0.157	-0.004	0.21	-1.96	-1.89
34406	-0.996	-0.156	-0.004	0.14	-2.1	-1.96
34424	-0.994	-0.155	-0.01	0.28	-2.03	-2.03
34444	-0.997	-0.156	-0.006	-0.07	-2.31	-2.24
34468	-0.996	-0.159	-0.007	0.21	-2.52	-2.1
34485	-0.993	-0.16	-0.004	0.14	-2.59	-2.1
34504	-0.994	-0.162	-0.005	0.49	-2.45	-1.68
34529	-0.994	-0.166	-0.003	0.63	-2.38	-1.12
34549	-0.996	-0.156	-0.004	0.49	-2.38	-0.84
34565	-0.994	-0.159	-0.006	0.63	-2.45	-0.63
34589	-0.991	-0.158	-0.005	0.63	-2.24	-0.42
34605	-0.994	-0.158	-0.006	0.84	-2.17	-0.28
34628	-0.992	-0.154	-0.007	0.91	-2.52	-0.7
34648	-0.995	-0.153	-0.006	0.91	-2.31	-0.84
34672	-0.995	-0.155	-0.008	1.19	-2.52	-1.05
34692	-0.996	-0.156	-0.006	1.05	-2.73	-1.12
34712	-0.997	-0.155	-0.005	0.91	-2.52	-1.33
34728	-0.997	-0.155	-0.005	0.98	-2.59	-1.33
34752	-0.994	-0.157	-0.007	1.12	-2.59	-1.19
34771	-0.992	-0.156	-0.007	0.98	-2.38	-1.26
34792	-0.994	-0.153	-0.008	0.84	-2.45	-1.33
34811	-0.996	-0.154	-0.009	0.77	-2.52	-1.54
34832	-0.991	-0.156	-0.006	0.84	-2.66	-1.47
34854	-0.994	-0.154	-0.007	0.7	-2.8	-1.47
34876	-0.994	-0.153	-0.006	0.63	-2.87	-1.47
34894	-0.994	-0.155	-0.007	0.56	-2.73	-1.54
34913	-0.995	-0.154	-0.009	0.42	-3.08	-1.54
34937	-0.995	-0.153	-0.007	0.42	-3.15	-1.54
34957	-0.995	-0.155	-0.007	0.56	-3.29	-1.47
34975	-0.995	-0.153	-0.006	0.35	-3.22	-1.19
34999	-0.994	-0.154	-0.005	0.49	-3.29	-1.54
35017	-0.994	-0.155	-0.004	0.56	-3.15	-1.47
35041	-0.993	-0.154	-0.008	0.49	-3.15	-1.54
35057	-0.995	-0.154	-0.007	0.35	-3.36	-1.61
35079	-0.994	-0.155	-0.005	0.35	-3.29	-1.75
35102	-0.996	-0.155	-0.006	0.35	-3.36	-1.54
35121	-0.993	-0.153	-0.005	0.42	-3.29	-1.4
35140	-0.997	-0.154	-0.004	0.42	-3.29	-1.54
35161	-0.995	-0.155	-0.004	0.21	-3.57	-1.4
35183	-0.996	-0.153	-0.005	0.14	-3.64	-1.61
35203	-0.995	-0.152	-0.004	0.14	-3.71	-1.75
35227	-0.994	-0.153	-0.003	0.0	-3.85	-1.82
35246	-0.993	-0.153	-0.002	0.07	-4.06	-1.96
35270	-0.996	-0.156	-0.005	-0.14	-3.99	-2.1
35290	-0.995	-0.151	-0.0	-0.35	-4.2	-2.17
35310	-0.994	-0.156	-0.001	0.21	-3.85	-2.1
35329	-0.995	-0.159	-0.001	0.35	-4.13	-1.89
35349	-0.989	-0.154	0.001	0.28	-3.57	-1.96
35370	-0.996	-0.157	0.001	0.35	-3.71	-1.96
35389	-0.993	-0.156	0.001	0.28	-3.64	-1.82
35411	-0.99	-0.159	0.002	0.49	-3.43	-1.61
35433	-0.993	-0.153	-0.0	0.63	-3.08	-1.75
35453	-0.993	-0.153	0.0	0.42	-3.22	-1.96
35472	-0.992	-0.158	0.0	0.35	-3.15	-1.96
35496	-0.992	-0.159	0.002	0.42	-3.08	-1.75
35516	-0.993	-0.156	0.002	0.28	-2.8	-1.82
35540	-0.996	-0.157	0.0	0.42	-2.8	-1.82
35560	-0.995	-0.158	0.001	0.42	-2.8	-1.82
35580	-0.995	-0.157	0.004	0.42	-2.8	-1.82
35604	-0.993	-0.157	-0.001	0.35	-2.59	-1.82
35622	-0.997	-0.156	-0.0	0.28	-2.73	-1.82
35642	-0.993	-0.158	0.001	0.21	-3.08	-1.75
35666	-0.994	-0.156	0.003	0.14	-2.8	-1.68
35686	-0.997	-0.156	-0.001	0.21	-2.94	-1.96
35704	-0.994	-0.156	0.0	-0.07	-2.94	-1.82
35725	-0.995	-0.158	-0.001	-0.07	-2.94	-2.03
35746	-0.991	-0.158	0.003	-0.07	-3.01	-1.82
35766	-0.996	-0.159	0.0	-0.07	-3.01	-1.61
35789	-0.992	-0.16	0.001	-0.07	-3.15	-1.75
35813	-0.993	-0.157	0.0	0.14	-3.15	-1.61
35832	-0.992	-0.16	-0.0	0.35	-3.15	-1.54
35853	-0.991	-0.16	0.004	0.56	-2.94	-1.54
35872	-0.993	-0.156	0.001	0.63	-2.87	-1.54
35893	-0.994	-0.156	0.001	0.7	-2.73	-1.47
35913	-0.994	-0.159	0.001	0.77	-2.73	-1.4
35933	-0.994	-0.156	0.002	0.91	-2.59	-1.26
35953	-0.995	-0.159	0.003	0.98	-2.66	-1.12
35977	-0.994	-0.157	-0.0	1.19	-2.87	-0.98
35997	-0.995	-0.157	-0.0	1.12	-2.87	-0.84
36017	-0.994	-0.156	0.003	0.91	-3.01	-0.91
36037	-0.994	-0.154	-0.0	0.84	-2.94	-1.12
36057	-0.996	-0.152	0.001	0.98	-2.87	-1.4
36077	-0.994	-0.154	0.002	1.05	-3.01	-1.61
36101	-0.993	-0.153	0.001	0.91	-2.66	-1.82
36121	-0.996	-0.156	0.002	0.77	-2.8	-1.82
36140	-0.993	-0.158	0.003	0.7	-2.52	-1.61
36164	-0.995	-0.154	0.0	0.91	-2.52	-1.75
36184	-0.996	-0.155	0.002	0.42	-2.66	-1.75
36202	-0.997	-0.156	0.003	0.28	-3.15	-1.75
36222	-0.995	-0.154	0.002	0.21	-3.22	-1.89
36246	-0.993	-0.159	0.001	0.07	-3.08	-1.75
36266	-0.996	-0.155	0.001	-0.28	-3.5	-1.96
36287	-0.996	-0.153	0.004	-0.21	-3.64	-1.96
36307	-0.995	-0.155	0.003	-0.14	-3.99	-1.82
36331	-0.995	-0.157	0.006	-0.28	-3.92	-1.61
36346	-0.996	-0.156	0.004	-0.14	-3.85	-1.61
36370	-0.995	-0.154	0.004	0.0	-3.85	-1.61
36391	-0.995	-0.156	0.003	-0.21	-3.99	-1.75
36415	-0.992	-0.156	0.006	-0.14	-3.78	-1.89
36435	-0.993	-0.159	0.006	0.0	-3.64	-1.96
36454	-0.994	-0.158	0.005	0.07	-3.5	-1.82
36475	-0.993	-0.158	0.003	0.28	-3.5	-1.89
36490	-0.995	-0.156	0.007	0.07	-3.5	-1.82
36515	-0.994	-0.155	0.004	0.21	-3.57	-1.82
36535	-0.99	-0.159	0.01	0.49	-3.43	-1.68
36553	-0.994	-0.154	0.007	0.42	-3.08	-1.54
36573	-0.993	-0.156	0.008	0.77	-3.36	-1.4
36596	-0.988	-0.165	0.002	0.56	-2.8	-1.26
36616	-0.994	-0.156	0.005	0.49	-2.87	-1.12
36640	-0.996	-0.155	0.008	0.91	-2.38	-1.47
36660	-0.997	-0.157	0.002	0.7	-2.94	-1.54
36680	-0.993	-0.161	0.006	0.56	-3.08	-1.47
36699	-0.992	-0.155	0.007	0.28	-2.8	-1.61
36720	-0.996	-0.157	0.006	0.42	-2.94	-1.82
36736	-0.995	-0.154	0.007	0.56	-2.8	-1.82
36760	-0.995	-0.16	0.007	0.49	-3.01	-1.61
36778	-0.996	-0.153	0.006	0.35	-3.01	-1.68
36798	-0.997	-0.155	0.003	0.28	-3.5	-1.89
36822	-0.993	-0.156	0.01	0.14	-3.36	-1.75
36837	-0.991	-0.159	0.009	0.28	-3.22	-1.68
36862	-0.992	-0.159	0.01	0.21	-2.94	-1.82
36882	-0.995	-0.157	0.005	0.56	-3.01	-1.68
36901	-0.993	-0.162	0.009	0.42	-3.08	-1.75
36921	-0.994	-0.157	0.011	0.63	-2.73	-1.54
36946	-0.993	-0.158	0.01	0.63	-2.87	-1.47
36962	-0.993	-0.158	0.009	0.7	-2.45	-1.4
36986	-0.994	-0.158	0.008	0.7	-2.66	-1.4
37006	-0.992	-0.156	0.007	0.63	-2.38	-1.54
37030	-0.995	-0.158	0.01	0.56	-2.8	-1.33
37048	-0.993	-0.157	0.008	0.49	-2.45	-1.19
37072	-0.995	-0.155	0.007	0.7	-2.66	-1.33
37092	-0.989	-0.157	0.009	0.42	-2.66	-1.19
37111	-0.995	-0.156	0.008	0.63	-2.38	-1.26
37131	-0.993	-0.157	0.009	0.49	-2.45	-1.4
37151	-0.996	-0.157	0.009	0.63	-2.38	-1.33
37171	-0.995	-0.158	0.008	0.63	-2.17	-1.4
37195	-0.993	-0.155	0.009	0.63	-2.17	-1.61
37210	-0.99	-0.156	0.009	0.56	-1.89	-1.61
37235	-0.994	-0.156	0.007	0.77	-1.82	-1.61
37255	-0.991	-0.157	0.006	1.05	-1.75	-1.54
37273	-0.991	-0.158	0.007	0.84	-1.68	-1.68
37297	-0.996	-0.156	0.005	0.98	-1.89	-1.61
37317	-0.996	-0.157	0.003	0.91	-1.96	-1.4
37332	-0.993	-0.157	0.005	0.91	-1.89	-1.26
37355	-0.993	-0.156	0.007	0.91	-2.1	-1.33
37375	-0.996	-0.154	0.002	0.91	-2.17	-1.4
37394	-0.996	-0.157	0.004	0.56	-2.38	-1.47
37414	-0.997	-0.156	0.006	0.49	-2.73	-1.47
37439	-0.99	-0.156	0.004	0.42	-2.66	-1.61
37456	-0.996	-0.157	0.007	0.56	-2.8	-1.61
37480	-0.992	-0.153	0.006	0.63	-2.59	-1.47
37500	-0.996	-0.159	0.005	0.84	-2.66	-1.4
37520	-0.992	-0.157	0.005	0.84	-2.31	-1.26
37539	-0.996	-0.153	0.006	0.77	-2.31	-1.05
37563	-0.996	-0.153	0.004	0.77	-2.17	-1.4
37583	-0.994	-0.154	0.001	0.77	-2.45	-1.4
37601	-0.991	-0.153	0.006	0.56	-2.1	-1.47
37625	-0.996	-0.155	0.004	0.63	-2.31	-1.47
37645	-0.996	-0.151	0.003	0.49	-2.03	-1.61
37664	-0.996	-0.155	0.005	0.49	-2.03	-1.61
37684	-0.993	-0.157	0.006	0.42	-1.82	-1.61
37706	-0.995	-0.157	0.004	0.91	-1.33	-1.26
37730	-0.996	-0.156	0.0	0.77	-1.61	-1.12
37749	-0.992	-0.156	0.001	0.77	-1.89	-0.98
37770	-0.996	-0.157	-0.002	0.77	-1.82	-0.91
37790	-0.996	-0.156	-0.001	0.91	-2.45	-1.12
37809	-0.994	-0.152	-0.003	0.84	-2.38	-1.05
37833	-0.998	-0.152	-0.001	0.7	-3.15	-1.12
37853	-0.993	-0.152	0.001	0.49	-3.22	-1.12
37871	-0.992	-0.151	0.001	0.56	-3.08	-1.33
37891	-0.998	-0.154	0.0	0.7	-3.29	-1.4
37915	-0.993	-0.154	0.002	0.63	-3.15	-1.47
37935	-0.996	-0.151	0.001	0.56	-3.08	-1.54
37953	-0.993	-0.152	0.001	0.56	-3.08	-1.47
37977	-0.994	-0.153	0.003	0.42	-3.01	-1.54
37994	-0.994	-0.154	0.004	0.63	-2.87	-1.54
38018	-0.994	-0.156	0.004	0.56	-2.8	-1.61
38037	-0.991	-0.153	0.004	0.49	-2.66	-1.68
38057	-0.992	-0.153	0.002	0.77	-2.52	-1.47
38075	-0.994	-0.153	0.002	0.63	-2.45	-1.47
38094	-0.996	-0.153	0.001	0.7	-2.66	-1.47
38118	-0.995	-0.156	0.002	0.7	-2.73	-1.26
38142	-0.996	-0.154	0.003	0.77	-2.73	-1.4
38162	-0.993	-0.151	0.002	0.84	-2.73	-1.4
38182	-0.996	-0.153	0.0	0.63	-2.87	-1.33
38205	-0.994	-0.155	0.003	0.7	-2.8	-1.4
38225	-0.995	-0.152	0.002	0.7	-2.87	-1.4
38248	-0.996	-0.148	0.002	0.49	-3.15	-1.54
38269	-0.993	-0.148	0.004	0.28	-3.29	-1.75
38285	-0.995	-0.151	0.001	0.28	-3.22	-1.75
38304	-0.996	-0.154	0.002	0.28	-3.22	-1.89
38325	-0.998	-0.151	0.001	0.0	-3.36	-2.03
38346	-0.993	-0.153	0.002	-0.07	-3.71	-2.1
38370	-0.991	-0.152	0.004	-0.28	-3.5	-2.03
38389	-0.996	-0.152	0.008	-0.28	-3.64	-2.1
38413	-0.995	-0.156	0.002	-0.14	-3.5	-2.17
38433	-0.995	-0.153	0.006	0.07	-3.57	-2.31
38453	-0.992	-0.15	0.007	-0.14	-3.57	-2.17
38473	-0.993	-0.156	0.007	-0.07	-3.29	-2.24
38493	-0.992	-0.159	0.009	0.21	-3.22	-1.96
38509	-0.995	-0.153	0.006	0.42	-2.94	-1.96
38533	-0.991	-0.155	0.007	0.35	-2.8	-1.82
38552	-0.997	-0.153	0.004	0.28	-2.8	-1.75
38577	-0.995	-0.155	0.008	0.42	-2.66	-1.96
38592	-0.993	-0.153	0.007	0.35	-2.52	-1.89
38617	-0.995	-0.154	0.005	0.21	-2.52	-1.75
38637	-0.996	-0.155	0.005	0.14	-2.52	-1.75
38656	-0.992	-0.154	0.007	0.0	-2.66	-1.75
38677	-0.991	-0.155	0.005	0.07	-2.24	-1.68
38695	-0.997	-0.154	0.004	0.14	-2.03	-1.68
38714	-0.993	-0.156	0.007	0.14	-2.03	-1.4
38739	-0.987	-0.155	0.009	0.28	-1.4	-1.4
38757	-0.991	-0.16	0.005	0.35	-0.91	-1.4
38781	-0.996	-0.151	0.004	0.98	-0.7	-1.61
38801	-0.998	-0.155	0.001	0.63	-1.12	-1.82
38821	-0.992	-0.162	0.002	0.77	-1.05	-1.47
38837	-0.992	-0.163	0.002	1.54	-0.98	-1.33
38860	-0.996	-0.155	0.0	1.68	-1.26	-0.84
38881	-0.998	-0.15	-0.009	1.54	-1.89	-0.7
38899	-1.003	-0.154	-0.006	1.05	-3.01	-1.12
38924	-0.999	-0.148	-0.006	0.7	-3.43	-1.68
38942	-1.0	-0.153	-0.003	0.77	-4.27	-1.96
38964	-0.996	-0.154	0.001	0.14	-4.69	-1.82
38982	-0.992	-0.155	0.003	0.28	-4.69	-1.61
39001	-0.991	-0.157	0.006	0.49	-4.41	-1.47
39021	-0.991	-0.159	0.004	0.84	-3.99	-1.33
39046	-0.994	-0.156	0.007	0.84	-3.71	-0.98
39066	-0.993	-0.158	0.004	0.91	-3.36	-0.84
39086	-0.988	-0.153	0.003	0.98	-2.87	-0.77
39106	-0.995	-0.155	0.008	0.91	-2.87	-0.91
39126	-0.993	-0.152	0.006	1.05	-2.73	-0.63
39146	-0.994	-0.155	0.007	0.7	-2.87	-0.77
39167	-0.994	-0.151	0.006	0.56	-2.59	-0.91
39190	-0.991	-0.151	0.005	0.63	-2.45	-0.98
39214	-0.994	-0.151	0.001	0.63	-2.24	-0.98
39233	-0.997	-0.148	0.005	0.28	-2.24	-1.05
39253	-0.994	-0.153	0.004	0.14	-2.24	-1.4
39270	-0.996	-0.155	0.004	0.56	-2.1	-1.26
39293	-0.994	-0.15	0.004	0.84	-2.03	-1.26
39317	-0.995	-0.147	0.001	0.63	-1.75	-1.19
39337	-0.999	-0.155	0.0	0.7	-2.1	-1.19
39361	-0.994	-0.15	-0.001	1.12	-2.31	-1.12
39381	-0.996	-0.148	-0.002	0.7	-2.8	-1.12
39401	-0.993	-0.146	0.0	0.63	-3.01	-1.33
39421	-0.997	-0.143	0.001	0.07	-2.94	-1.89
39440	-1.0	-0.153	0.003	0.21	-3.57	-1.89
39460	-0.996	-0.155	0.003	0.42	-3.71	-1.61
39481	-0.988	-0.149	0.002	0.7	-3.64	-1.33
39502	-0.996	-0.145	0.004	0.21	-3.22	-1.82
39522	-1.0	-0.155	0.003	0.42	-3.64	-1.89
39546	-0.995	-0.157	0.005	0.56	-3.57	-1.75
39570	-0.989	-0.153	0.006	0.49	-3.15	-1.54
39589	-0.995	-0.153	0.002	0.84	-2.8	-1.12
39613	-0.997	-0.155	0.004	0.7	-3.36	-1.12
39630	-0.996	-0.15	0.002	0.77	-3.29	-1.19
39651	-0.995	-0.148	0.005	0.56	-3.5	-1.33
39670	-0.996	-0.151	0.007	0.56	-3.29	-1.33
39695	-0.991	-0.148	0.004	0.77	-3.15	-1.4
39715	-0.997	-0.15	0.005	0.63	-2.87	-1.54
39736	-0.996	-0.149	0.007	0.7	-2.94	-1.54
39757	-0.995	-0.149	0.007	0.91	-2.66	-1.68
39776	-0.995	-0.149	0.007	0.7	-2.87	-1.75
39796	-0.996	-0.148	0.006	0.56	-2.73	-1.82
39821	-0.996	-0.152	0.008	0.49	-2.52	-1.82
39841	-0.992	-0.151	0.008	0.56	-2.45	-1.82
39861	-0.995	-0.15	0.007	0.49	-2.24	-1.68
39880	-0.996	-0.15	0.007	0.35	-2.24	-1.75
39898	-0.992	-0.15	0.007	0.63	-2.1	-1.61
39917	-0.993	-0.151	0.005	0.7	-1.75	-1.47
39942	-0.999	-0.148	0.001	0.7	-2.03	-1.47
39966	-0.997	-0.149	0.002	0.49	-2.59	-1.75
39986	-0.993	-0.151	0.004	0.56	-2.38	-1.54
40006	-0.998	-0.146	0.004	0.56	-2.66	-1.82
40026	-0.997	-0.149	0.005	0.35	-3.01	-2.03
40046	-0.997	-0.153	0.002	0.35	-2.66	-2.1
40065	-0.995	-0.152	0.006	0.28	-2.94	-2.38
40085	-0.99	-0.148	0.008	-0.07	-2.52	-2.24
40105	-0.991	-0.152	0.009	0.07	-2.45	-2.17
40125	-0.994	-0.152	0.009	-0.28	-1.75	-2.31
40149	-0.996	-0.149	0.005	0.42	-1.4	-2.59
40169	-0.993	-0.151	0.002	0.35	-1.82	-2.8
40189	-0.994	-0.154	0.006	0.14	-1.33	-2.59
40209	-0.991	-0.156	0.011	0.7	-1.4	-2.31
40226	-0.993	-0.159	0.001	1.4	-0.49	-1.82
40246	-1.002	-0.159	-0.003	0.98	-1.4	-1.61
40266	-0.994	-0.152	-0.006	0.98	-1.75	-1.26
40290	-1.005	-0.15	-0.006	0.42	-2.94	-1.4
40307	-0.996	-0.15	-0.006	0.56	-3.01	-1.33
40328	-0.995	-0.152	-0.0	0.49	-3.22	-1.61
40352	-0.994	-0.158	-0.0	0.63	-3.36	-1.54
40372	-0.993	-0.154	0.001	0.49	-3.22	-1.26
40391	-0.996	-0.153	0.004	0.77	-3.36	-1.19
40408	-0.99	-0.155	0.001	0.35	-3.22	-1.05
40431	-0.992	-0.152	0.003	0.49	-2.87	-1.19
40452	-0.995	-0.152	0.003	0.98	-2.59	-1.12
40472	-0.996	-0.149	0.0	0.98	-2.52	-1.12
40492	-0.993	-0.15	0.002	0.63	-2.66	-1.33
40516	-0.996	-0.15	-0.001	0.77	-2.52	-1.54
40536	-0.993	-0.153	0.0	0.63	-2.87	-1.75
40551	-0.994	-0.15	-0.0	0.7	-2.94	-1.75
40574	-0.998	-0.151	-0.001	0.63	-3.22	-1.89
40593	-0.996	-0.152	0.0	0.28	-3.15	-1.96
40617	-0.995	-0.153	0.002	0.49	-3.29	-2.03
40632	-0.992	-0.153	0.005	0.49	-3.29	-1.89
40652	-0.993	-0.151	0.003	0.49	-3.01	-1.82
40677	-0.996	-0.153	0.002	0.49	-3.15	-1.89
40697	-0.996	-0.152	0.001	0.42	-3.15	-1.75
40713	-0.994	-0.153	0.002	0.42	-3.22	-1.68
40732	-0.99	-0.149	0.003	0.35	-3.15	-1.61
40752	-0.994	-0.153	0.001	0.49	-3.01	-1.82
40774	-0.997	-0.156	0.005	0.42	-3.5	-1.75
40798	-0.994	-0.151	0.004	0.21	-3.43	-1.68
40818	-0.993	-0.154	0.002	0.49	-3.43	-1.61
40840	-0.995	-0.153	0.003	0.35	-3.43	-1.61
40861	-0.996	-0.152	0.003	0.35	-3.36	-1.61
40879	-0.993	-0.153	0.003	0.35	-3.5	-1.47
40904	-0.993	-0.153	0.004	0.42	-3.43	-1.68
40922	-0.998	-0.151	0.001	0.28	-3.78	-1.68
40942	-1.002	-0.15	0.003	-0.07	-4.48	-1.82
40965	-0.991	-0.159	0.006	-0.14	-4.76	-1.89
40984	-0.996	-0.152	0.007	-0.14	-4.27	-2.03
41009	-0.996	-0.152	0.007	-0.07	-4.69	-2.24
41029	-0.997	-0.152	0.006	-0.14	-4.69	-2.31
41045	-0.995	-0.156	0.006	-0.21	-4.83	-2.17
41064	-0.996	-0.156	0.008	-0.21	-4.69	-2.1
41086	-0.993	-0.157	0.013	-0.35	-4.55	-2.1
41107	-0.996	-0.156	0.011	-0.28	-4.34	-2.17
41126	-0.993	-0.157	0.013	-0.21	-4.13	-2.17
41146	-0.994	-0.157	0.013	-0.14	-3.85	-2.17
41170	-0.995	-0.154	0.013	-0.07	-3.99	-2.03
41191	-0.994	-0.16	0.017	-0.14	-3.5	-1.96
41210	-0.993	-0.159	0.013	0.14	-3.36	-1.96
41230	-0.995	-0.158	0.015	0.07	-3.08	-1.89
41249	-0.992	-0.155	0.016	0.35	-2.66	-1.75
41274	-0.993	-0.155	0.013	0.56	-2.24	-1.75
41294	-0.994	-0.157	0.013	0.56	-2.38	-1.82
41314	-0.993	-0.157	0.011	0.63	-2.03	-1.68
41334	-0.991	-0.158	0.012	0.84	-1.96	-1.82
41354	-0.994	-0.156	0.013	0.91	-1.61	-1.68
41372	-0.995	-0.158	0.013	1.05	-1.61	-1.54
41396	-0.992	-0.154	0.012	1.12	-1.26	-1.61
41414	-0.995	-0.155	0.011	1.26	-1.4	-1.61
41434	-0.996	-0.155	0.011	1.26	-1.47	-1.54
41458	-0.992	-0.156	0.01	1.05	-1.4	-1.47
41478	-0.997	-0.155	0.006	0.91	-1.47	-1.54
41497	-0.997	-0.153	0.007	0.7	-1.89	-1.61
41518	-0.993	-0.156	0.006	0.77	-2.1	-1.68
41538	-0.998	-0.157	0.006	0.56	-2.24	-1.61
41558	-0.993	-0.155	0.006	0.91	-2.45	-1.54
41580	-0.998	-0.157	0.008	0.56	-2.31	-1.19
41602	-0.99	-0.157	0.009	0.98	-2.45	-1.05
41620	-0.996	-0.156	0.009	0.91	-2.1	-1.12
41644	-0.996	-0.152	0.007	1.05	-2.59	-1.26
41662	-0.991	-0.155	0.007	0.77	-2.45	-1.19
41686	-0.995	-0.156	0.007	0.7	-2.59	-0.98
41706	-0.995	-0.156	0.009	0.77	-2.45	-0.91
41724	-0.994	-0.156	0.007	0.84	-2.24	-0.7
41745	-1.0	-0.154	0.005	0.56	-2.59	-0.84
41769	-0.993	-0.154	0.006	0.7	-2.66	-0.98
41789	-0.992	-0.152	0.007	0.63	-2.66	-1.12
41809	-0.994	-0.151	0.008	0.42	-2.87	-1.26
41828	-0.991	-0.154	0.01	0.42	-2.31	-1.26
41847	-0.997	-0.156	0.008	0.56	-2.17	-1.26
41867	-0.994	-0.15	0.004	0.49	-2.45	-1.47
41887	-1.0	-0.157	0.002	0.42	-2.38	-1.4
41910	-0.998	-0.151	0.003	0.14	-2.8	-1.26
41932	-0.997	-0.151	0.0	0.21	-3.5	-1.4
41953	-1.0	-0.151	0.006	-0.49	-4.34	-1.4
41972	-0.991	-0.154	0.007	17.85	-3.5	-1.33
41991	-0.999	-0.148	0.007	-0.14	-3.78	-1.54
42011	-0.989	-0.151	0.009	0.07	-3.78	-1.61
42032	-0.993	-0.154	0.011	0.07	-3.29	-1.68
42051	-0.995	-0.155	0.008	0.49	-3.29	-1.47
42075	-0.992	-0.156	0.007	0.63	-3.43	-1.54
42099	-0.995	-0.154	0.007	0.49	-3.43	-1.12
42119	-0.997	-0.154	0.007	0.56	-3.71	-1.19
42139	-0.994	-0.151	0.008	0.63	-3.5	-1.12
42159	-0.997	-0.153	0.01	0.56	-3.78	-1.12
42178	-0.99	-0.152	0.01	0.63	-3.64	-1.19
42202	-0.992	-0.152	0.012	0.56	-3.22	-1.12
42222	-0.993	-0.15	0.013	0.42	-3.22	-1.05
42242	-0.993	-0.154	0.011	0.7	-2.94	-1.05
42261	-0.99	-0.151	0.013	0.56	-2.45	-0.91
42285	-0.995	-0.151	0.012	0.49	-2.38	-0.91
42305	-0.993	-0.148	0.015	0.49	-2.03	-1.12
42325	-0.99	-0.155	0.011	0.49	-1.89	-1.12
42345	-0.996	-0.15	0.014	0.63	-1.68	-1.19
42364	-0.996	-0.15	0.011	0.77	-1.54	-1.19
42389	-0.996	-0.152	0.008	0.7	-1.47	-1.12
42408	-0.995	-0.148	0.01	0.77	-1.4	-1.26
42427	-0.994	-0.152	0.007	0.77	-1.33	-1.47
42452	-0.995	-0.151	0.01	0.84	-1.26	-1.4
42472	-0.993	-0.148	0.007	0.91	-0.91	-1.47
42496	-0.994	-0.152	0.003	1.12	-0.98	-1.4
42516	-0.997	-0.147	0.003	0.42	-1.61	-1.47
42532	-0.995	-0.148	0.005	0.28	-1.75	-1.47
42552	-0.996	-0.151	0.002	0.63	-1.61	-1.4
42576	-0.997	-0.152	0.004	0.49	-1.75	-1.47
42595	-0.993	-0.15	0.004	0.56	-1.61	-1.33
42620	-0.995	-0.148	0.003	0.49	-1.82	-1.47
42640	-0.992	-0.151	0.002	0.49	-1.82	-1.4
42660	-0.995	-0.146	0.005	0.28	-1.89	-1.68
42680	-0.992	-0.15	0.004	0.63	-1.61	-1.82
42699	-0.996	-0.149	0.003	0.7	-1.4	-1.96
42720	-0.996	-0.15	0.004	0.7	-1.4	-1.96
42736	-0.996	-0.147	0.003	0.49	-1.19	-2.03
42760	-0.992	-0.155	0.002	0.63	-1.05	-1.75
42778	-0.996	-0.154	0.002	0.98	-0.77	-1.54
42797	-0.995	-0.152	-0.002	0.84	-1.12	-1.4
42817	-0.995	-0.148	-0.002	0.77	-1.12	-1.4
42841	-1.002	-0.148	-0.007	0.63	-1.61	-1.54
42861	-0.996	-0.149	-0.005	0.56	-2.17	-1.75
42881	-0.997	-0.146	-0.006	0.42	-2.45	-1.75
42905	-0.993	-0.149	-0.003	0.42	-2.45	-1.75
42925	-0.992	-0.148	-0.002	0.28	-2.66	-1.82
42945	-0.996	-0.152	-0.002	0.56	-2.66	-1.75
42960	-0.992	-0.151	-0.0	0.56	-2.59	-1.82
42984	-0.996	-0.152	-0.125	0.56	-2.38	-1.68
43003	-0.995	-0.148	-0.003	0.56	-2.31	-1.75
43027	-0.994	-0.15	-0.003	0.42	-2.52	-1.82
43046	-0.996	-0.149	-0.004	0.56	-2.59	-1.89
43067	-0.996	-0.147	-0.005	0.42	-2.94	-1.96
43087	-0.996	-0.151	-0.001	0.42	-3.01	-2.03
43105	-0.996	-0.154	-0.001	0.56	-2.94	-1.82
43127	-0.992	-0.154	-0.0	0.56	-2.8	-1.96
43150	-0.996	-0.153	-0.001	0.49	-2.73	-1.96
43171	-0.996	-0.154	-0.002	0.42	-2.66	-1.89
43191	-0.996	-0.151	-0.003	0.56	-2.66	-1.82
43206	-0.995	-0.15	-0.001	0.49	-2.87	-1.89
43226	-0.997	-0.152	-0.002	0.28	-2.94	-1.75
43248	-0.995	-0.153	-0.003	0.35	-2.87	-1.75
43272	-0.994	-0.151	-0.003	0.35	-2.87	-1.68
43292	-0.995	-0.15	-0.004	0.28	-2.87	-1.75
43312	-0.993	-0.15	-0.003	0.28	-2.94	-1.75
43336	-0.996	-0.151	-0.003	0.28	-3.01	-1.68
43356	-0.996	-0.149	-0.003	0.21	-3.08	-1.75
43374	-0.993	-0.155	-0.0	0.35	-3.15	-1.47
43393	-0.996	-0.153	-0.0	0.42	-3.08	-1.47
43413	-0.996	-0.151	-0.002	0.56	-3.36	-1.4
43433	-0.996	-0.15	-0.004	0.42	-3.57	-1.47
43453	-0.996	-0.149	-0.006	0.21	-3.85	-1.47
43472	-0.998	-0.147	-0.002	0.07	-4.27	-1.61
43497	-0.996	-0.151	-0.004	-0.56	-4.34	-1.68
43516	-0.995	-0.15	0.001	-0.49	-4.97	-2.03
43540	-0.996	-0.151	0.005	-0.28	-4.48	-2.1
43560	-0.994	-0.154	0.004	-0.07	-4.62	-2.1
43580	-0.993	-0.152	0.002	-0.07	-4.34	-2.17
43598	-0.991	-0.154	0.004	0.07	-4.41	-2.1
43616	-0.994	-0.157	0.003	0.14	-4.2	-2.17
43636	-0.998	-0.151	0.002	0.21	-4.34	-2.17
43660	-0.993	-0.155	0.001	0.14	-4.55	-2.1
43679	-0.993	-0.148	0.004	-0.07	-4.13	-2.24
43703	-0.995	-0.154	0.008	-0.07	-4.41	-2.24
43723	-0.99	-0.158	0.006	0.35	-3.99	-2.1
43741	-0.995	-0.156	0.006	0.49	-3.85	-1.89
43765	-0.993	-0.153	0.006	0.35	-3.71	-1.68
43785	-0.997	-0.157	0.009	0.21	-3.78	-1.68
43805	-0.994	-0.155	0.011	0.49	-3.57	-1.47
43824	-0.991	-0.157	0.01	0.63	-3.29	-1.4
43845	-0.996	-0.153	0.009	0.49	-3.29	-1.61
43869	-0.997	-0.151	0.007	0.42	-3.57	-1.75
43889	-0.993	-0.157	0.01	0.21	-3.71	-1.75
43909	-0.993	-0.152	0.011	0.07	-3.64	-1.82
43927	-0.996	-0.152	0.011	0.0	-3.85	-1.89
43947	-0.994	-0.151	0.012	0.0	-3.78	-2.03
43968	-0.992	-0.156	0.013	-0.14	-3.71	-2.03
43986	-0.994	-0.157	0.01	-0.07	-3.43	-2.03
44008	-0.994	-0.157	0.011	0.14	-3.29	-2.1
44028	-0.992	-0.156	0.012	0.35	-3.01	-1.89
44052	-0.991	-0.155	0.013	0.56	-2.73	-1.96
44071	-0.991	-0.158	0.013	0.84	-2.38	-2.03
44090	-0.992	-0.158	0.01	0.84	-2.03	-1.96
44115	-0.998	-0.154	0.009	0.7	-2.45	-2.03
44135	-0.991	-0.158	0.009	0.98	-2.1	-2.03
44154	-0.999	-0.153	0.01	0.7	-2.59	-1.96
44174	-0.993	-0.154	0.009	0.63	-2.45	-2.1
44190	-0.996	-0.156	0.012	0.35	-2.59	-2.03
44210	-0.994	-0.158	0.012	0.35	-2.31	-2.03
44235	-0.99	-0.158	0.012	0.7	-2.03	-1.96
44254	-0.997	-0.155	0.005	0.91	-2.24	-2.03
44278	-0.996	-0.157	0.004	0.56	-2.52	-1.75
44298	-0.997	-0.153	0.006	0.14	-3.08	-1.47
44314	-0.993	-0.159	0.005	0.0	-3.43	-1.47
44335	-0.994	-0.156	0.01	0.14	-3.43	-1.61
44354	-0.996	-0.154	0.006	0.07	-3.92	-1.47
44375	-0.994	-0.155	0.007	-0.14	-3.99	-1.47
44397	-0.996	-0.155	0.011	-0.35	-4.62	-1.33
44417	-0.995	-0.154	0.013	-0.42	-4.55	-1.33
44436	-0.996	-0.158	0.014	-0.07	-4.41	-1.33
44460	-0.991	-0.159	0.015	0.14	-3.99	-1.19
44484	-0.99	-0.157	0.016	0.21	-3.64	-1.19
44499	-0.993	-0.154	0.014	0.42	-3.15	-1.12
44524	-0.993	-0.157	0.016	0.42	-3.08	-1.26
44540	-0.989	-0.156	0.02	0.77	-2.45	-1.4
44564	-0.991	-0.153	0.018	0.77	-2.1	-1.47
44583	-0.99	-0.155	0.015	0.56	-1.89	-1.61
44603	-0.994	-0.154	0.016	0.56	-1.54	-1.75
44622	-0.99	-0.156	0.012	0.91	-1.19	-1.82
44646	-0.994	-0.156	0.014	0.91	-1.12	-2.03
44666	-0.996	-0.152	0.009	0.77	-0.7	-2.17
44685	-1.0	-0.156	0.006	0.7	-1.26	-2.31
44706	-0.996	-0.154	0.01	0.35	-1.54	-2.1
44724	-0.989	-0.157	0.01	0.7	-1.19	-2.17
44746	-0.997	-0.151	0.007	0.56	-1.05	-2.38
44763	-0.998	-0.16	0.009	0.35	-1.47	-2.59
44786	-0.993	-0.16	0.008	0.35	-1.47	-2.31
44805	-0.992	-0.158	0.009	0.49	-1.61	-2.17
44824	-0.993	-0.159	0.009	0.35	-1.33	-2.17
44849	-0.997	-0.158	0.006	0.42	-1.89	-1.89
44866	-0.993	-0.161	0.002	0.42	-1.89	-1.82
44886	-0.997	-0.157	0.002	0.42	-2.45	-1.4
44910	-0.994	-0.158	0.007	0.21	-2.94	-1.33
44930	-0.996	-0.154	0.006	0.14	-2.59	-1.54
44949	-0.992	-0.158	0.004	0.42	-3.15	-1.54
44970	-0.995	-0.161	0.008	0.21	-3.01	-1.26
44991	-0.989	-0.16	0.005	0.14	-3.15	-1.4
45011	-0.998	-0.158	0.008	0.14	-3.15	-1.26
45035	-0.992	-0.157	0.008	0.35	-3.01	-1.19
45053	-0.991	-0.161	0.012	0.63	-2.59	-1.12
45074	-0.995	-0.156	0.007	0.91	-2.24	-1.26
45094	-0.99	-0.158	0.006	0.84	-2.03	-1.19
45117	-0.995	-0.156	0.004	0.77	-1.82	-1.26
45137	-0.992	-0.156	0.006	0.98	-1.82	-1.33
45158	-0.996	-0.159	0.005	1.05	-1.82	-1.47
45182	-0.995	-0.158	0.004	1.12	-1.96	-1.4
45202	-0.993	-0.156	0.005	1.26	-2.03	-1.4
45222	-0.993	-0.16	0.004	1.19	-1.89	-1.19
45241	-0.996	-0.154	0.002	1.12	-2.1	-1.33
45265	-0.992	-0.156	0.003	1.19	-2.31	-1.19
45285	-0.996	-0.155	0.001	0.84	-2.38	-1.33
45305	-0.995	-0.156	0.003	0.91	-2.66	-1.47
45325	-0.993	-0.156	0.007	0.7	-2.59	-1.54
45344	-0.994	-0.155	0.003	0.63	-2.8	-1.68
45366	-0.993	-0.159	0.004	0.63	-2.73	-1.68
45390	-0.993	-0.156	0.006	0.84	-2.8	-1.61
45410	-0.992	-0.157	0.006	0.91	-2.66	-1.54
45429	-0.996	-0.155	0.003	0.98	-2.52	-1.47
45449	-0.993	-0.16	0.004	1.05	-2.73	-1.19
45465	-0.993	-0.157	0.002	0.77	-2.66	-1.12
45487	-0.995	-0.156	0.002	0.84	-2.8	-1.12
45510	-0.995	-0.156	0.005	0.63	-3.15	-0.91
45531	-0.993	-0.156	0.006	0.77	-3.29	-0.91
45551	-0.998	-0.157	-0.0	0.77	-3.29	-0.84
45570	-0.996	-0.153	0.001	0.56	-3.78	-0.77
45594	-0.992	-0.155	0.002	0.42	-3.92	-0.91
45618	-0.996	-0.154	0.002	0.35	-4.2	-0.91
45638	-0.995	-0.156	0.005	0.35	-4.2	-0.77
45657	-0.993	-0.151	0.008	0.28	-3.92	-1.19
45682	-0.997	-0.152	0.004	0.0	-4.48	-1.47
45701	-0.991	-0.152	0.008	0.07	-4.48	-1.47
45720	-0.997	-0.151	0.006	-0.28	-4.2	-1.54
45740	-1.0	-0.154	0.01	-0.63	-5.25	-1.75
45760	-0.989	-0.16	0.011	-0.35	-4.97	-0.98
45782	-0.995	-0.157	0.008	-0.63	-4.83	-0.77
45804	-0.994	-0.151	0.01	-0.77	-4.41	-0.84
45828	-0.996	-0.156	0.014	0.07	-4.9	-0.84
45848	-0.991	-0.151	0.011	0.07	-4.41	-0.91
45866	-0.996	-0.153	0.013	-0.21	-4.76	-1.05
45890	-0.991	-0.153	0.017	0.07	-4.13	-0.91
45910	-0.995	-0.158	0.018	0.49	-3.78	-0.84
45928	-0.991	-0.156	0.016	0.84	-3.57	-0.84
45947	-0.994	-0.152	0.016	0.77	-3.22	-0.84
45971	-0.994	-0.153	0.016	0.91	-2.94	-0.7
45991	-0.996	-0.152	0.016	1.05	-2.73	-0.7
46011	-0.996	-0.152	0.016	1.19	-2.52	-0.63
46031	-0.995	-0.15	0.016	1.19	-2.31	-0.7
46051	-0.993	-0.147	0.019	1.19	-1.96	-0.84
46071	-0.994	-0.149	0.019	1.26	-1.75	-0.98
46090	-0.996	-0.151	0.014	1.4	-1.61	-0.98
46114	-0.998	-0.147	0.01	1.19	-1.75	-1.12
46134	-0.998	-0.148	0.011	1.19	-2.24	-1.19
46153	-0.995	-0.146	0.011	0.84	-2.24	-1.26
46173	-0.995	-0.151	0.013	0.7	-2.38	-1.12
46193	-0.996	-0.149	0.014	1.05	-2.45	-1.12
46215	-0.995	-0.147	0.013	0.91	-2.73	-1.19
46238	-0.996	-0.148	0.012	0.7	-2.8	-1.26
46255	-0.995	-0.148	0.013	0.7	-3.15	-1.26
46279	-0.995	-0.146	0.014	0.63	-2.87	-1.33
46299	-0.995	-0.149	0.013	0.63	-3.01	-1.47
46319	-0.997	-0.147	0.014	0.63	-2.59	-1.75
46338	-0.995	-0.15	0.013	0.7	-2.8	-1.54
46361	-0.993	-0.148	0.016	0.84	-2.45	-1.68
46384	-0.996	-0.148	0.013	0.91	-2.52	-1.61
46403	-0.993	-0.146	0.012	0.77	-2.45	-1.68
46423	-0.996	-0.147	0.012	0.42	-2.52	-1.75
46442	-0.997	-0.149	0.016	0.49	-2.73	-1.75
46466	-0.994	-0.149	0.015	0.56	-2.45	-1.4
46486	-0.993	-0.152	0.012	0.56	-2.1	-1.33
46510	-0.997	-0.15	0.014	0.56	-2.24	-1.19
46529	-0.997	-0.145	0.012	0.42	-2.45	-1.12
46548	-0.997	-0.144	0.011	0.63	-2.31	-1.26
46567	-0.998	-0.148	0.008	0.77	-2.94	-1.4
46591	-0.997	-0.15	0.008	0.7	-3.36	-1.19
46611	-0.999	-0.143	0.005	0.35	-3.64	-1.33
46631	-0.999	-0.143	0.014	-0.14	-4.41	-1.54
46651	-0.993	-0.149	0.014	0.14	-3.92	-1.61
46671	-0.996	-0.149	0.017	0.21	-3.78	-1.54
46686	-0.993	-0.145	0.016	0.28	-3.5	-1.47
46711	-0.994	-0.149	0.018	0.49	-3.08	-1.47
46728	-0.995	-0.15	0.02	0.56	-2.66	-1.54
46747	-0.993	-0.148	0.018	0.63	-2.45	-1.61
46768	-0.995	-0.146	0.018	0.49	-2.1	-1.61
46791	-0.995	-0.148	0.013	0.63	-2.1	-1.61
46815	-0.995	-0.146	0.011	0.63	-1.82	-1.54
46831	-0.999	-0.148	0.012	0.42	-2.24	-1.68
46850	-0.992	-0.146	0.011	0.35	-2.17	-1.75
46875	-0.998	-0.147	0.011	0.28	-2.17	-1.82
46891	-0.995	-0.147	0.013	0.28	-2.17	-1.75
46910	-0.994	-0.146	0.015	0.35	-1.68	-1.96
46935	-0.996	-0.148	0.012	0.7	-1.4	-1.89
46955	-0.996	-0.147	0.015	0.63	-1.61	-2.03
46970	-0.991	-0.149	0.014	0.77	-1.05	-1.82
46995	-0.996	-0.149	0.013	0.84	-1.19	-1.89
47010	-0.992	-0.148	0.012	0.84	-0.98	-1.82
47035	-0.996	-0.152	0.011	0.84	-0.91	-1.61
47055	-0.996	-0.149	0.008	1.12	-0.56	-1.75
47074	-1.0	-0.146	0.008	0.98	-0.84	-1.68
47095	-0.994	-0.151	0.006	1.05	-0.98	-1.33
47119	-0.996	-0.146	0.005	0.77	-1.12	-1.19
47138	-0.999	-0.147	0.002	0.42	-1.75	-1.26
47157	-0.999	-0.146	0.003	0.35	-2.31	-1.47
47181	-0.996	-0.146	0.005	0.28	-2.52	-1.54
47199	-0.995	-0.144	0.007	0.42	-2.59	-1.75
47221	-0.996	-0.147	0.007	0.28	-2.45	-1.61
47237	-0.992	-0.149	0.007	0.42	-2.59	-1.96
47256	-0.994	-0.148	0.004	0.28	-2.24	-1.89
47281	-0.997	-0.145	0.006	0.07	-2.31	-2.1
47301	-0.996	-0.145	0.006	0.14	-2.1	-2.31
47321	-0.993	-0.148	0.005	0.28	-2.03	-2.24
47340	-0.995	-0.151	0.007	0.49	-1.82	-2.24
47364	-0.997	-0.149	0.005	0.14	-2.03	-2.24
47384	-0.997	-0.152	0.003	0.35	-1.89	-2.17
47401	-0.995	-0.147	0.003	0.56	-1.96	-2.03
47423	-0.996	-0.149	0.001	0.28	-2.17	-2.03
47443	-0.997	-0.149	0.003	0.14	-2.52	-2.24
47467	-0.996	-0.148	0.002	0.21	-2.8	-2.17
47487	-0.992	-0.152	0.002	0.28	-2.66	-2.17
47505	-0.994	-0.152	0.003	0.35	-2.8	-2.1
47522	-0.994	-0.152	0.002	0.21	-2.87	-2.1
47542	-0.998	-0.152	0.006	0.14	-2.87	-1.96
47567	-0.993	-0.152	0.005	0.21	-2.87	-1.68
47583	-0.995	-0.153	0.005	0.28	-2.8	-1.75
47607	-0.995	-0.154	0.004	0.49	-2.73	-1.61
47625	-0.994	-0.152	0.003	0.35	-2.87	-1.54
47647	-0.993	-0.151	0.004	0.35	-2.87	-1.54
47668	-0.996	-0.151	0.005	0.56	-2.94	-1.54
47687	-0.993	-0.152	0.003	0.49	-3.01	-1.33
47707	-0.995	-0.152	0.002	0.56	-3.01	-1.26
47725	-0.992	-0.153	0.006	0.56	-2.94	-1.19
47747	-0.999	-0.151	0.003	0.63	-3.15	-1.26
47770	-0.993	-0.154	0.005	0.84	-3.29	-1.12
47789	-1.0	-0.15	0.001	0.77	-3.71	-0.98
47808	-0.998	-0.145	-0.002	0.91	-4.2	-1.12
47829	-0.998	-0.147	0.0	0.07	-5.25	-1.26
47849	-1.007	-0.141	0.007	0.21	-5.53	-1.19
47873	-0.995	-0.152	0.004	-0.21	-6.23	-1.33
47890	-0.994	-0.148	0.009	-0.28	-6.09	-1.33
47911	-0.993	-0.146	0.011	-0.49	-6.02	-1.4
47930	-0.997	-0.151	0.013	-0.28	-5.81	-1.47
47954	-0.992	-0.153	0.017	0.0	-5.6	-1.4
47973	-0.99	-0.147	0.014	0.07	-4.83	-1.12
47997	-0.993	-0.146	0.019	0.14	-4.48	-1.61
48017	-0.995	-0.15	0.017	0.0	-4.34	-1.61
48034	-0.992	-0.149	0.017	0.42	-3.99	-1.68
48053	-0.992	-0.15	0.017	0.28	-3.64	-1.61
48073	-0.996	-0.15	0.017	0.21	-3.36	-1.75
48096	-0.994	-0.154	0.021	0.07	-3.01	-1.68
48116	-0.99	-0.149	0.021	0.35	-2.45	-1.75
48137	-0.991	-0.15	0.019	0.56	-1.82	-1.89
48156	-0.993	-0.153	0.019	0.49	-1.54	-1.68
48180	-0.992	-0.15	0.018	0.7	-1.4	-1.47
48202	-0.996	-0.147	0.016	0.63	-0.84	-1.47
48223	-0.991	-0.152	0.015	0.28	-0.98	-1.61
48247	-0.996	-0.147	0.017	0.84	-0.35	-1.75
48267	-0.993	-0.149	0.013	1.05	-0.14	-1.82
48287	-0.998	-0.149	0.011	1.05	-0.07	-1.75
48307	-0.993	-0.151	0.01	1.26	-0.07	-1.68
48327	-0.994	-0.149	0.012	1.19	0.14	-1.75
48347	-0.991	-0.151	0.009	1.54	0.42	-1.96
48367	-0.997	-0.151	0.006	1.4	0.21	-1.75
48387	-0.995	-0.148	0.004	0.98	-0.14	-1.89
48410	-0.996	-0.151	0.006	0.91	-0.14	-2.03
48431	-0.994	-0.15	0.002	1.26	-0.07	-2.03
48449	-0.997	-0.153	-0.003	1.19	-0.91	-1.96
48468	-0.997	-0.146	-0.001	0.98	-1.33	-1.96
48493	-1.0	-0.147	-0.003	0.49	-2.24	-2.03
48511	-0.998	-0.149	-0.001	0.28	-2.73	-2.31
48530	-0.995	-0.154	0.001	0.28	-3.01	-2.38
48555	-0.997	-0.153	0.0	0.56	-3.29	-2.24
48573	-0.998	-0.152	0.003	0.35	-3.64	-2.24
48598	-0.992	-0.153	0.003	0.28	-3.29	-1.96
48616	-0.993	-0.154	0.004	0.42	-3.29	-1.82
48633	-0.996	-0.151	0.005	0.35	-3.36	-1.89
48656	-0.992	-0.154	0.002	0.28	-3.15	-1.75
48674	-0.996	-0.153	0.004	0.14	-3.36	-1.68
48697	-0.997	-0.152	-0.0	0.42	-3.57	-1.75
48716	-0.998	-0.152	0.004	0.0	-3.92	-1.68
48735	-0.994	-0.153	0.003	0.21	-3.85	-1.61
48760	-0.994	-0.152	0.003	0.21	-3.92	-1.47
48779	-0.992	-0.156	0.005	0.14	-4.06	-1.54
48799	-0.993	-0.153	0.005	0.35	-4.06	-1.26
48823	-0.995	-0.156	0.009	0.28	-3.99	-1.19
48843	-0.996	-0.154	0.009	0.28	-3.64	-1.26
48867	-0.992	-0.154	0.008	0.35	-3.64	-1.12
48887	-0.996	-0.151	0.007	0.49	-3.08	-1.19
48907	-0.995	-0.151	0.009	0.56	-3.36	-1.26
48924	-0.994	-0.152	0.009	0.56	-3.01	-1.12
48947	-0.996	-0.154	0.008	0.42	-3.08	-1.26
48968	-0.992	-0.15	0.009	0.63	-2.87	-1.19
48986	-0.993	-0.152	0.006	0.49	-2.73	-1.19
49006	-0.993	-0.151	0.009	0.63	-2.45	-1.33
49029	-0.994	-0.152	0.011	0.84	-2.45	-1.4
49049	-0.996	-0.154	0.009	0.7	-2.1	-1.33
49068	-0.995	-0.15	0.009	0.77	-1.82	-1.61
49093	-0.992	-0.149	0.008	0.91	-1.47	-1.68
49113	-0.995	-0.15	0.007	0.91	-1.33	-1.75
49137	-0.995	-0.153	0.008	0.91	-0.91	-1.75
49157	-0.991	-0.15	0.008	1.19	-0.56	-1.82
49176	-0.992	-0.152	0.005	1.61	0.21	-1.4
49196	-0.998	-0.152	0.007	1.4	-0.21	-1.47
49217	-0.993	-0.15	-0.0	1.33	0.07	-1.26
49241	-0.998	-0.148	0.0	0.98	-0.28	-1.05
49261	-0.995	-0.147	-0.003	0.84	-0.28	-1.12
49279	-0.997	-0.151	-0.004	0.84	-0.56	-1.05
49299	-0.995	-0.147	-0.005	0.98	-0.91	-1.19
49323	-0.998	-0.149	-0.003	0.63	-1.4	-1.33
49341	-0.997	-0.148	-0.003	0.49	-1.82	-1.47
49365	-0.996	-0.148	-0.003	0.42	-2.31	-1.47
49385	-0.996	-0.15	-0.003	0.35	-2.38	-1.61
49405	-0.995	-0.151	-0.002	0.35	-2.45	-1.47
49423	-0.995	-0.153	-0.001	0.42	-2.38	-1.26
49445	-0.997	-0.152	-0.002	0.7	-2.59	-0.98
49463	-0.994	-0.151	-0.004	0.77	-2.59	-0.98
49487	-1.0	-0.15	-0.007	0.77	-3.08	-0.98
49507	-1.0	-0.146	-0.005	0.42	-3.85	-1.19
49525	-0.993	-0.146	-0.003	0.35	-3.71	-1.33
49544	-0.997	-0.145	-0.004	0.49	-3.85	-1.61
49568	-0.997	-0.148	-0.002	0.21	-4.34	-1.75
49589	-0.993	-0.15	0.0	0.07	-4.13	-1.68
49606	-0.994	-0.15	0.002	0.35	-4.13	-1.68
49626	-0.995	-0.147	0.003	0.21	-3.78	-1.75
49646	-0.994	-0.153	0.001	0.28	-3.71	-1.61
49665	-0.995	-0.149	0.001	0.35	-3.57	-1.4
49690	-0.993	-0.15	0.001	0.42	-3.64	-1.33
49710	-0.996	-0.149	-0.0	0.56	-3.5	-1.4
49728	-0.994	-0.147	0.001	0.63	-3.78	-1.33
49752	-0.995	-0.149	0.002	0.63	-3.71	-1.4
49768	-0.992	-0.148	0.002	0.63	-3.57	-1.33
49787	-0.994	-0.151	0.004	0.7	-3.36	-1.19
49812	-0.997	-0.15	0.002	0.7	-3.43	-1.05
49832	-0.994	-0.15	0.003	0.84	-3.43	-0.91
49850	-0.994	-0.147	0.002	0.56	-3.5	-0.98
49872	-0.995	-0.148	0.003	0.7	-3.29	-0.91
49892	-0.998	-0.149	0.0	0.7	-3.64	-0.84
49916	-0.997	-0.146	0.001	0.84	-3.71	-0.84
49936	-1.002	-0.142	-0.001	0.56	-4.34	-1.12
49956	-1.0	-0.141	-0.0	0.14	-5.04	-1.47
49974	-1.0	-0.142	0.0	-0.28	-6.09	-1.61
49994	-0.993	-0.147	0.004	-0.63	-6.37	-1.33
50016	-1.002	-0.144	0.008	-0.7	-6.93	-1.33
50040	-0.995	-0.149	0.015	-0.84	-7.21	-1.19
50056	-0.991	-0.15	0.015	-0.84	-6.86	-1.05
50075	-0.996	-0.145	0.016	-0.7	-6.23	-1.12
50100	-0.994	-0.147	0.017	-0.42	-6.09	-1.05
50120	-0.99	-0.144	0.017	-0.28	-5.39	-1.33
50140	-0.994	-0.145	0.02	-0.35	-5.04	-1.61
50164	-0.994	-0.144	0.02	-0.14	-4.55	-1.61
50183	-0.992	-0.148	0.021	0.14	-4.06	-1.82
50207	-0.993	-0.147	0.023	0.21	-3.78	-1.82
50226	-0.992	-0.147	0.022	0.28	-3.22	-2.03
50245	-0.994	-0.148	0.023	0.28	-2.45	-2.1
50263	-0.994	-0.144	0.021	0.49	-2.1	-2.31
50283	-0.99	-0.149	0.022	0.56	-1.75	-2.31
50306	-0.995	-0.143	0.021	0.56	-1.4	-2.38
50327	-0.995	-0.148	0.019	0.84	-1.12	-2.59
50347	-0.994	-0.149	0.017	0.84	-0.49	-2.73
50367	-0.994	-0.145	0.015	1.26	-0.49	-2.8
50384	-0.998	-0.148	0.014	1.26	-0.49	-2.87
50407	-0.993	-0.15	0.014	1.4	-0.7	-2.8
50431	-0.996	-0.149	0.012	1.26	-0.84	-2.8
50451	-0.999	-0.145	0.009	0.63	-1.54	-2.66
50469	-0.998	-0.15	0.01	0.42	-1.89	-2.52
50490	-0.999	-0.146	0.009	-0.07	-2.52	-2.45
50510	-0.994	-0.148	0.01	-0.14	-2.73	-2.17
50534	-0.996	-0.154	0.009	-0.14	-3.15	-2.24
50554	-0.996	-0.151	0.011	-0.35	-3.5	-2.03
50574	-0.994	-0.152	0.01	-0.07	-3.71	-1.75
50594	-0.996	-0.153	0.012	-0.07	-3.78	-1.82
50614	-0.995	-0.151	0.012	-0.21	-3.92	-1.82
50637	-0.996	-0.154	0.015	0.21	-3.71	-1.89
50657	-0.993	-0.155	0.016	0.49	-3.57	-2.1
50681	-0.991	-0.15	0.019	-0.14	-3.01	-2.52
50701	-0.996	-0.151	0.015	0.49	-2.73	-2.52
50721	-0.996	-0.151	0.015	0.56	-3.01	-2.45
50740	-0.992	-0.159	0.02	0.84	-2.59	-2.17
50756	-0.998	-0.149	0.012	0.14	-2.45	-2.38
50781	-0.994	-0.155	0.012	0.7	-3.01	-2.03
50796	-0.992	-0.152	0.012	0.21	-2.87	-2.03
50821	-1.002	-0.152	0.014	0.14	-4.13	-1.82
50841	-0.991	-0.151	0.017	-0.28	-3.85	-1.75
50861	-0.996	-0.152	0.012	-0.21	-3.92	-1.54
50885	-0.996	-0.153	0.014	-0.07	-4.41	-1.54
50905	-0.992	-0.157	0.013	0.28	-4.34	-1.54
50920	-0.993	-0.153	0.014	0.56	-4.27	-1.4
50940	-1.003	-0.153	0.012	0.63	-5.11	-1.12
50960	-0.995	-0.158	0.018	0.21	-5.88	-0.56
50985	-0.989	-0.154	0.022	0.28	-5.32	-0.07
51004	-0.996	-0.154	0.025	0.42	-5.53	0.0
51025	-0.99	-0.155	0.028	0.63	-5.04	0.07
51045	-0.991	-0.152	0.023	0.91	-4.41	-0.07
51065	-0.992	-0.148	0.024	0.7	-4.2	-0.28
51081	-0.993	-0.149	0.026	0.63	-3.92	-0.56
51101	-0.993	-0.15	0.027	0.84	-3.36	-0.63
51121	-0.994	-0.148	0.027	0.77	-3.08	-0.77
51141	-0.993	-0.144	0.025	0.7	-2.87	-1.12
51165	-0.993	-0.148	0.028	0.49	-2.66	-1.33
51184	-0.993	-0.147	0.027	0.42	-2.31	-1.75
51204	-0.996	-0.147	0.026	0.49	-2.03	-1.96
51228	-0.994	-0.151	0.026	0.35	-1.68	-2.17
51248	-0.99	-0.149	0.028	0.14	-1.19	-2.45
51268	-0.996	-0.147	0.022	0.28	-1.12	-2.66
51284	-0.995	-0.151	0.02	0.35	-1.26	-2.73
51308	-0.994	-0.154	0.024	0.28	-0.84	-2.52
51327	-0.993	-0.152	0.022	0.49	-0.98	-2.59
51348	-0.995	-0.15	0.02	0.63	-0.77	-2.38
51363	-0.995	-0.156	0.023	0.35	-0.84	-2.38
51388	-0.995	-0.152	0.021	0.77	-0.63	-2.24
51408	-0.992	-0.152	0.013	1.05	-0.28	-2.03
51428	-1.003	-0.148	0.013	0.7	-1.19	-1.96
51447	-0.992	-0.157	0.014	0.56	-1.26	-2.03
51472	-0.996	-0.154	0.013	1.05	-0.98	-1.89
51492	-0.996	-0.151	0.012	1.26	-1.26	-1.96
51512	-0.997	-0.151	0.012	1.05	-1.26	-1.96
51532	-0.995	-0.158	0.014	0.98	-1.4	-1.68
51552	-0.995	-0.157	0.015	0.98	-1.19	-1.54
51571	-0.992	-0.156	0.015	1.33	-1.19	-1.33
51589	-0.999	-0.151	0.013	1.19	-1.05	-1.33
51613	-0.995	-0.149	0.013	1.19	-1.19	-1.47
51633	-0.996	-0.152	0.011	1.05	-0.98	-1.33
51652	-0.998	-0.151	0.009	0.91	-1.4	-1.4
51672	-0.992	-0.15	0.009	0.56	-1.47	-1.4
51692	-0.996	-0.15	0.011	0.49	-1.47	-1.4
51716	-0.997	-0.153	0.012	0.63	-1.61	-1.47
51732	-0.995	-0.153	0.008	0.77	-1.54	-1.68
51756	-0.995	-0.152	0.011	0.7	-1.75	-1.47
51780	-0.996	-0.154	0.007	0.42	-2.03	-1.68
51800	-0.996	-0.149	0.01	0.56	-1.96	-1.68
51820	-0.995	-0.149	0.007	0.42	-2.03	-1.61
51840	-0.995	-0.153	0.008	0.63	-2.17	-1.47
51860	-0.996	-0.152	0.007	0.49	-2.24	-1.4
51880	-0.996	-0.148	0.005	0.56	-2.52	-1.33
51902	-0.995	-0.154	0.005	0.35	-2.66	-1.4
51920	-0.993	-0.152	0.004	0.49	-2.59	-1.26
51944	-0.997	-0.154	0.009	0.28	-2.73	-1.05
51964	-0.997	-0.15	0.006	0.28	-2.8	-1.12
51984	-0.996	-0.152	0.007	0.28	-3.15	-1.26
52003	-0.996	-0.15	0.007	0.21	-3.15	-1.26
52020	-0.996	-0.15	0.006	0.35	-3.29	-1.61
52044	-0.996	-0.151	0.006	0.28	-3.43	-1.4
52064	-0.995	-0.149	0.005	0.14	-3.43	-1.4
52083	-0.994	-0.149	0.006	0.0	-3.78	-1.47
52103	-0.997	-0.149	0.007	-0.21	-3.92	-1.68
52127	-0.998	-0.149	0.009	-0.14	-4.27	-1.96
52146	-0.995	-0.151	0.011	-0.21	-4.55	-1.61
52171	-0.992	-0.154	0.011	-0.14	-4.13	-1.47
52191	-0.997	-0.152	0.013	-0.28	-4.34	-1.68
52210	-0.996	-0.152	0.01	-0.07	-3.99	-1.68
52229	-0.997	-0.152	0.013	-0.07	-4.2	-1.82
52254	-0.994	-0.152	0.016	-0.07	-4.06	-1.68
52274	-0.993	-0.152	0.015	0.0	-3.78	-1.75
52294	-0.994	-0.151	0.014	0.21	-3.36	-1.68
52314	-0.995	-0.152	0.014	0.28	-3.57	-1.61
52331	-0.992	-0.151	0.012	0.14	-3.36	-1.68
52350	-0.99	-0.151	0.016	0.07	-3.22	-1.75
52370	-0.992	-0.15	0.017	0.07	-2.45	-2.1
52395	-0.997	-0.153	0.016	0.28	-2.52	-2.24
52415	-0.989	-0.155	0.015	0.42	-2.38	-1.89
52434	-0.993	-0.149	0.014	0.42	-1.75	-1.82
52458	-0.994	-0.149	0.015	0.35	-1.89	-1.96
52475	-0.992	-0.155	0.016	0.63	-1.33	-2.1
52497	-0.994	-0.154	0.014	0.84	-1.12	-1.96
52521	-0.997	-0.151	0.01	0.56	-1.4	-1.82
52541	-0.996	-0.154	0.011	0.35	-1.75	-1.89
52565	-0.994	-0.151	0.009	0.35	-1.75	-1.89
52583	-0.996	-0.153	0.011	0.56	-1.75	-2.03
52605	-0.998	-0.152	0.008	0.49	-1.96	-2.17
52623	-0.995	-0.151	0.006	0.21	-2.24	-2.1
52646	-0.999	-0.152	0.009	0.14	-2.59	-2.03
52662	-0.994	-0.154	0.007	0.07	-2.66	-2.03
52687	-0.994	-0.155	0.01	0.07	-2.38	-2.03
52706	-0.996	-0.155	0.009	0.28	-2.59	-2.1
52725	-0.994	-0.154	0.01	0.56	-2.52	-2.17
52745	-0.992	-0.157	0.009	0.42	-2.31	-2.1
52768	-0.996	-0.154	0.01	0.7	-2.17	-2.17
52792	-0.994	-0.155	0.007	0.91	-2.03	-2.1
52809	-0.995	-0.155	0.005	0.7	-2.17	-2.24
52829	-0.994	-0.152	0.01	0.56	-2.17	-2.17
52848	-0.995	-0.157	0.008	0.49	-2.31	-2.17
52873	-0.995	-0.157	0.008	0.49	-2.38	-2.03
52891	-0.99	-0.156	0.007	0.49	-2.31	-1.82
52915	-0.994	-0.156	0.009	0.35	-2.31	-1.68
52935	-0.997	-0.155	0.006	0.35	-2.59	-1.54
52955	-0.999	-0.157	0.004	0.28	-3.5	-1.33
52974	-0.991	-0.154	0.006	0.07	-3.5	-1.12
52995	-0.999	-0.15	0.003	-0.14	-3.92	-1.33
53019	-0.995	-0.154	0.01	-0.28	-4.48	-1.68
53039	-0.992	-0.154	0.011	-0.28	-4.2	-1.4
53059	-0.994	-0.156	0.011	-0.49	-4.34	-1.54
53079	-0.99	-0.158	0.015	-0.28	-3.85	-1.47
53098	-0.991	-0.159	0.014	0.28	-3.43	-1.26
53122	-0.991	-0.16	0.01	0.28	-2.94	-1.4
53144	-0.995	-0.154	0.013	0.14	-2.8	-1.47
53165	-0.995	-0.153	0.011	0.49	-2.17	-1.33
53189	-0.993	-0.154	0.013	0.35	-2.38	-1.47
53209	-0.995	-0.151	0.012	0.42	-1.75	-1.68
53228	-0.992	-0.156	0.011	0.42	-1.54	-1.54
53247	-0.991	-0.156	0.01	0.56	-1.05	-1.68
53266	-0.993	-0.155	0.011	0.77	-0.7	-1.75
53291	-0.992	-0.154	0.011	0.77	-0.56	-1.54
53311	-0.99	-0.158	0.01	1.05	0.21	-1.47
53331	-0.993	-0.156	0.009	1.61	0.49	-1.54
53349	-0.993	-0.156	0.007	1.68	0.49	-1.47
53370	-0.991	-0.155	0.004	2.1	0.91	-1.54
53394	-0.996	-0.153	-0.0	2.03	0.91	-1.61
53411	-0.995	-0.153	-0.0	2.17	0.56	-1.82
53435	-0.992	-0.157	-0.0	2.17	0.35	-1.75
53453	-0.996	-0.154	-0.002	2.1	0.35	-1.61
53475	-0.993	-0.156	-0.003	1.96	0.07	-1.61
53494	-0.997	-0.155	-0.003	1.89	-0.07	-1.4
53515	-0.996	-0.155	-0.004	1.68	-0.28	-1.19
53535	-0.995	-0.154	-0.006	1.19	-0.77	-1.26
53554	-0.993	-0.155	-0.008	1.19	-0.77	-1.19
53575	-0.998	-0.152	-0.007	0.84	-1.33	-1.26
53595	-0.994	-0.152	-0.006	0.84	-1.47	-1.26
53619	-0.994	-0.153	-0.008	0.7	-1.75	-1.4
53639	-0.994	-0.155	-0.007	0.84	-1.75	-1.47
53659	-0.993	-0.156	-0.009	0.84	-1.68	-1.47
53678	-0.994	-0.154	-0.01	0.91	-1.68	-1.33
53697	-0.994	-0.155	-0.008	0.63	-2.03	-1.47
53717	-0.993	-0.15	-0.009	0.63	-1.96	-1.4
53737	-0.998	-0.154	-0.008	0.35	-2.38	-1.61
53761	-0.995	-0.152	-0.009	0.42	-2.24	-1.75
53780	-0.997	-0.154	-0.009	0.21	-2.52	-1.68
53802	-0.996	-0.156	-0.009	0.35	-2.59	-1.4
53824	-0.994	-0.154	-0.01	0.35	-2.94	-1.33
53844	-0.994	-0.154	-0.009	0.28	-2.73	-1.26
53863	-0.994	-0.156	-0.009	0.28	-2.8	-1.12
53888	-0.996	-0.158	-0.008	0.35	-2.87	-0.84
53906	-0.993	-0.153	-0.009	0.35	-2.8	-0.84
53930	-0.996	-0.152	-0.01	0.49	-2.73	-0.98
53950	-0.995	-0.153	-0.008	0.7	-2.87	-0.91
53970	-0.994	-0.154	-0.009	0.63	-2.8	-0.91
53990	-0.996	-0.152	-0.008	0.77	-2.94	-1.05
54010	-0.995	-0.151	-0.008	0.84	-2.87	-1.05
54027	-0.995	-0.155	-0.009	0.91	-2.87	-0.98
54050	-0.997	-0.151	-0.009	0.84	-3.08	-1.12
54071	-0.997	-0.153	-0.01	0.84	-3.08	-1.05
54090	-0.995	-0.149	-0.008	0.77	-3.15	-1.19
54111	-0.996	-0.15	-0.008	0.84	-3.22	-1.12
54131	-0.995	-0.152	-0.01	0.91	-3.22	-1.26
54151	-0.994	-0.15	-0.008	0.77	-3.29	-1.4
54171	-0.996	-0.149	-0.009	0.49	-3.64	-1.33
54191	-0.996	-0.151	-0.006	0.42	-3.71	-1.33
54210	-0.995	-0.152	-0.006	0.63	-3.85	-1.26
54226	-0.995	-0.149	-0.008	0.49	-3.78	-1.4
54249	-0.995	-0.15	-0.006	0.42	-3.99	-1.4
54273	-0.996	-0.15	-0.008	0.28	-4.27	-1.61
54289	-0.995	-0.149	-0.006	0.07	-4.34	-1.75
54312	-0.995	-0.149	-0.006	-0.07	-4.9	-1.89
54330	-0.992	-0.145	-0.003	-0.35	-4.83	-2.03
54354	-1.001	-0.151	-0.005	-0.49	-5.11	-2.31
54369	-0.996	-0.148	-0.002	-0.49	-5.39	-2.45
54393	-0.998	-0.151	-0.004	-0.7	-5.67	-2.38
54413	-0.994	-0.153	-0.001	-0.84	-6.09	-2.17
54436	-0.994	-0.15	0.002	-1.05	-5.88	-2.17
54457	-0.997	-0.15	0.002	-0.84	-5.67	-2.38
54475	-0.994	-0.152	0.004	-0.63	-5.67	-2.73
54496	-0.997	-0.151	0.008	-0.56	-5.67	-2.87
54517	-0.99	-0.159	0.007	-0.28	-5.18	-2.73
54537	-0.993	-0.156	0.01	-0.07	-4.76	-2.45
54561	-0.993	-0.154	0.007	0.0	-4.2	-2.59
54579	-0.995	-0.152	0.007	-0.07	-4.2	-2.52
54601	-0.989	-0.156	0.01	0.21	-4.06	-2.66
54624	-0.989	-0.155	0.009	0.42	-2.94	-2.52
54645	-0.996	-0.157	0.008	0.35	-3.01	-2.52
54669	-0.992	-0.157	0.008	0.49	-2.87	-2.31
54689	-0.993	-0.159	0.01	0.35	-2.66	-2.38
54709	-0.995	-0.158	0.01	0.21	-2.31	-2.38
54728	-0.994	-0.158	0.008	0.35	-2.17	-2.24
54747	-0.997	-0.159	0.006	0.28	-2.45	-2.1
54771	-0.991	-0.159	0.006	0.42	-2.45	-1.89
54789	-0.994	-0.158	0.009	0.35	-2.52	-1.75
54809	-0.993	-0.158	0.006	0.35	-2.73	-1.89
54828	-0.993	-0.158	0.004	0.49	-2.45	-1.75
54852	-0.995	-0.158	0.007	0.35	-2.45	-1.89
54873	-0.994	-0.156	0.007	0.28	-2.52	-1.96
54888	-0.994	-0.156	0.007	0.28	-2.59	-2.03
54908	-0.991	-0.157	0.007	0.21	-2.17	-2.17
54928	-0.995	-0.159	0.008	0.21	-2.17	-2.24
54953	-0.995	-0.159	0.006	0.35	-2.31	-2.24
54973	-0.997	-0.159	0.008	0.21	-2.24	-2.24
54992	-0.993	-0.159	0.006	0.56	-2.31	-2.31
55016	-0.991	-0.157	0.004	0.42	-2.1	-2.24
55035	-0.993	-0.158	0.004	0.42	-2.38	-2.17
55054	-0.994	-0.161	0.005	0.07	-2.45	-2.03
55074	-0.993	-0.163	0.006	0.28	-2.59	-1.96
55099	-0.993	-0.159	0.004	0.28	-2.52	-1.82
55114	-0.996	-0.157	0.006	0.0	-2.73	-1.75
55139	-0.994	-0.162	0.003	0.07	-2.87	-1.82
55159	-0.995	-0.162	0.007	0.35	-3.08	-1.75
55178	-0.993	-0.161	0.003	0.35	-2.52	-1.61
55198	-0.999	-0.163	-0.006	1.12	-3.15	-1.4
55218	-0.993	-0.156	-0.003	0.14	-3.64	-0.98
55242	-0.992	-0.167	0.003	0.42	-4.27	-0.56
55266	-0.994	-0.156	0.003	0.0	-3.71	-0.56
55285	-0.997	-0.154	0.007	0.07	-4.2	-0.91
55304	-0.99	-0.156	0.009	0.42	-3.92	-0.91
55324	-0.991	-0.158	0.008	0.42	-3.85	-0.91
55349	-0.993	-0.158	0.008	0.49	-3.64	-1.05
55366	-0.991	-0.161	0.013	0.7	-3.08	-0.91
55390	-0.992	-0.158	0.012	0.91	-2.66	-1.05
55409	-0.989	-0.157	0.014	1.12	-1.75	-1.33
55428	-0.995	-0.153	0.01	1.19	-1.47	-1.4
55453	-0.995	-0.159	0.009	1.33	-1.12	-1.61
55472	-0.995	-0.156	0.01	1.47	-0.84	-1.47
55496	-0.996	-0.155	0.003	1.19	-0.84	-1.61
55516	-0.991	-0.156	0.006	1.12	-0.7	-1.68
55531	-0.993	-0.152	0.007	0.84	-0.42	-1.89
55551	-0.997	-0.154	0.003	0.84	-0.63	-2.24
55575	-0.989	-0.156	0.002	0.84	-0.49	-2.24
55599	-0.996	-0.158	0.003	0.42	-0.77	-2.17
55615	-0.991	-0.162	0.002	0.49	-0.77	-1.89
55639	-0.992	-0.162	0.001	0.49	-0.49	-2.17
55659	-0.995	-0.161	-0.0	0.77	-0.7	-2.03
55677	-0.994	-0.156	0.001	0.56	-0.56	-2.03
55698	-0.996	-0.157	-0.002	0.56	-0.91	-1.82
55722	-0.999	-0.161	-0.004	0.49	-1.19	-1.96
55737	-0.993	-0.159	-0.006	0.77	-1.33	-1.68
55759	-0.996	-0.159	-0.006	0.49	-1.54	-1.68
55779	-0.994	-0.16	-0.003	0.35	-1.75	-1.68
55799	-0.993	-0.159	-0.003	0.56	-1.61	-1.54
55818	-0.996	-0.159	-0.004	0.35	-1.96	-1.4
55843	-0.992	-0.16	-0.003	0.35	-1.82	-1.4
55862	-0.996	-0.155	-0.005	0.28	-1.75	-1.47
55886	-0.994	-0.159	-0.004	0.35	-1.89	-1.47
55904	-0.994	-0.159	-0.001	0.35	-1.82	-1.4
55923	-0.992	-0.162	-0.006	0.77	-1.68	-1.4
55948	-0.995	-0.16	-0.006	0.77	-1.89	-1.26
55966	-0.993	-0.159	-0.008	0.7	-1.82	-1.19
55985	-0.997	-0.158	-0.008	0.98	-1.89	-1.47
56009	-0.996	-0.158	-0.008	1.05	-2.24	-1.4
56029	-0.993	-0.159	-0.009	1.19	-2.38	-1.47
56047	-0.997	-0.155	-0.008	1.05	-3.01	-1.54
56069	-0.992	-0.156	-0.01	1.05	-2.94	-1.68
56089	-0.997	-0.157	-0.008	0.77	-3.64	-1.68
56114	-0.993	-0.16	-0.007	0.63	-3.64	-1.54
56132	-0.994	-0.157	-0.003	0.63	-3.78	-1.54
56153	-0.993	-0.158	-0.005	0.63	-3.85	-1.54
56173	-0.996	-0.156	-0.006	0.63	-3.99	-1.26
56197	-0.995	-0.16	-0.004	0.63	-4.13	-1.19
56217	-0.993	-0.158	-0.002	0.63	-3.99	-1.12
56235	-0.993	-0.155	-0.003	0.91	-3.78	-1.12
56254	-0.994	-0.16	-0.002	0.7	-4.27	-1.19
56279	-0.994	-0.154	-0.005	0.49	-3.99	-1.12
56298	-0.993	-0.16	-0.001	0.49	-4.06	-0.98
56322	-0.992	-0.156	-0.0	0.56	-3.78	-0.7
56340	-0.992	-0.163	0.001	0.77	-3.5	-0.42
56362	-0.987	-0.163	0.004	1.54	-2.59	0.21
56380	-0.989	-0.16	0.006	2.31	-2.17	0.63
56401	-0.985	-0.171	0.006	3.29	-0.84	2.17
56422	-0.978	-0.17	0.007	5.04	0.91	3.99
56441	-0.989	-0.152	0.005	3.92	1.75	5.04
56466	-0.992	-0.145	0.001	2.52	2.45	5.39
56486	-0.991	-0.149	-0.004	2.73	3.01	5.32
56506	-0.994	-0.144	-0.006	3.36	3.36	5.11
56525	-0.999	-0.146	-0.01	3.15	3.01	4.2
56546	-1.008	-0.129	-0.026	3.5	1.96	3.22
56566	-1.015	-0.124	-0.036	2.17	-0.63	1.54
56586	-1.011	-0.114	-0.029	0.91	-2.66	0.63
56605	-1.017	-0.117	-0.03	-0.35	-4.62	-1.68
56630	-1.01	-0.105	-0.031	-2.03	-7.0	-4.27
56649	-1.012	-0.138	-0.027	-1.54	-9.17	-5.53
56669	-1.003	-0.121	-0.022	-1.12	-10.43	-6.51
56689	-1.01	-0.127	-0.02	-3.29	-12.95	-7.07
56709	-0.969	-0.17	-0.024	-6.51	-13.23	-5.6
56733	-1.102	-0.109	-0.014	-7.0	-20.93	-5.67
56751	-0.903	-0.237	0.029	3.64	-13.93	-2.03
56773	-0.96	-0.112	0.042	-1.4	-4.55	-1.05
56797	-1.016	-0.166	0.034	0.28	-4.83	-0.56
56817	-0.967	-0.153	0.002	0.98	-1.26	-0.42
56836	-1.004	-0.165	0.02	4.34	-1.82	0.7
56855	-0.997	-0.125	0.024	1.96	-2.03	1.19
56875	-0.976	-0.142	0.034	-0.7	0.77	2.03
56899	-0.963	-0.164	0.032	-0.35	5.95	2.87
56918	-0.971	-0.19	0.02	6.3	9.8	3.99
56939	-0.989	-0.132	0.017	8.33	11.97	4.48
56959	-1.0	-0.11	0.013	4.62	12.81	4.13
56978	-0.996	-0.109	0.005	2.24	13.23	2.66
56999	-0.983	-0.131	-0.004	1.19	15.33	2.52
57019	-0.989	-0.143	-0.012	0.98	17.29	3.43
57043	-0.983	-0.126	-0.003	0.98	19.88	4.06
57060	-0.986	-0.098	-0.041	-0.77	21.28	3.36
57080	-0.998	-0.147	-0.076	-2.24	19.88	2.17
57104	-0.985	-0.145	-0.095	7.91	18.2	1.89
57122	-1.032	-0.065	-0.082	6.23	15.54	0.07
57142	-1.027	-0.084	-0.094	2.45	10.43	-3.36
57165	-0.995	-0.113	-0.093	2.17	7.28	-6.37
57186	-1.004	-0.122	-0.081	2.38	6.3	-8.26
57204	-1.004	-0.125	-0.078	2.38	4.9	-7.77
57221	-0.983	-0.14	-0.067	1.82	5.32	-6.86
57246	-1.002	-0.164	-0.093	3.15	7.35	-4.76
57263	-1.011	-0.162	-0.091	4.55	5.81	-3.5
57282	-0.998	-0.157	-0.099	4.48	5.81	-2.87
57307	-1.015	-0.126	-0.113	7.63	3.43	-2.52
57327	-1.008	-0.129	-0.113	5.53	-0.07	-2.66
57347	-1.009	-0.121	-0.112	5.53	-1.33	-3.85
57367	-1.005	-0.135	-0.111	4.83	-4.62	-3.57
57386	-0.998	-0.125	-0.101	4.41	-6.16	-3.36
57410	-1.003	-0.126	-0.101	2.52	-7.98	-4.13
57429	-0.989	-0.148	-0.093	2.1	-9.03	-3.57
57448	-0.985	-0.144	-0.09	2.8	-7.77	-2.45
57471	-0.993	-0.14	-0.083	2.1	-8.61	-1.61
57492	-0.981	-0.162	-0.077	2.03	-7.77	0.0
57512	-0.982	-0.149	-0.076	3.15	-6.44	1.19
57531	-0.987	-0.142	-0.07	2.73	-6.37	2.24
57549	-0.987	-0.145	-0.071	2.73	-5.39	3.22
57569	-0.988	-0.146	-0.077	2.8	-5.04	4.41
57593	-0.993	-0.123	-0.074	3.85	-5.11	5.46
57617	-0.993	-0.149	-0.082	0.7	-5.25	6.72
57636	-0.987	-0.147	-0.075	2.87	-5.46	8.19
57660	-0.997	-0.139	-0.072	3.92	-5.25	10.64
57681	-0.994	-0.142	-0.086	5.53	-6.23	12.18
57701	-1.008	-0.121	-0.086	6.02	-8.12	12.95
57717	-1.011	-0.13	-0.083	5.32	-9.87	12.46
57741	-0.996	-0.119	-0.069	7.56	-10.5	14.49
57761	-0.997	-0.11	-0.062	9.59	-10.78	16.31
57780	-1.006	-0.111	-0.06	8.89	-10.99	19.6
57798	-0.987	-0.11	-0.048	8.68	-11.13	19.46
57818	-1.005	-0.056	-0.04	5.6	-9.52	23.17
57842	-1.023	-0.061	-0.054	-0.49	-9.94	25.06
57859	-1.022	-0.055	-0.031	0.63	-12.11	28.42
57879	-1.009	-0.059	-0.037	-2.52	-11.97	30.38
57900	-0.99	-0.011	-0.004	-8.12	-11.76	32.13
57923	-0.997	-0.01	0.001	-16.03	-6.58	31.29
57947	-1.023	-0.022	0.012	-18.76	-3.36	31.36
57966	-1.014	-0.035	0.008	-16.24	1.75	29.05
57990	-1.047	-0.01	0.015	-20.86	8.89	27.58
58009	-1.102	-0.026	-0.019	-21.07	11.48	22.75
58029	-1.267	0.036	0.019	-41.23	2.45	21.0
58048	-1.39	0.154	-0.016	-52.36	-43.33	6.44
58068	-0.996	0.149	-0.016	-59.92	-76.16	-4.9
58092	-0.719	0.352	-0.043	-35.56	-11.13	3.64
58112	-0.934	0.088	-0.062	-25.55	-16.87	-3.01
58128	-0.916	0.172	-0.006	-20.3	-5.46	0.28
58148	-0.958	0.118	-0.021	-19.11	-5.67	-2.17
58168	-0.973	0.515	-0.011	-33.46	-18.34	1.75
