Millis	AccelX	AccelY	AccelZ	GyroX	GyroY	GyroZ
0	-0.948	0.318	-0.112	6.65	-3.5	-1.75
18	-0.95	0.324	-0.113	6.79	-3.29	-1.33
40	-0.952	0.325	-0.111	6.72	-3.57	-0.7
55	-0.948	0.323	-0.107	6.93	-3.5	-0.21
75	-0.951	0.32	-0.102	7.35	-3.5	0.49
95	-0.948	0.324	-0.097	7.14	-3.64	0.84
120	-0.942	0.322	-0.096	6.58	-3.57	0.49
139	-0.941	0.322	-0.095	6.16	-3.36	-0.07
159	-0.946	0.33	-0.091	5.46	-2.66	-0.98
183	-0.95	0.333	-0.09	2.87	-2.38	-2.38
203	-0.943	0.339	-0.09	0.7	-1.54	-3.01
221	-0.946	0.341	-0.088	-0.56	-1.05	-3.5
243	-0.943	0.335	-0.085	-1.75	-0.84	-2.94
263	-0.949	0.346	-0.088	-2.94	-0.84	-2.59
283	-0.948	0.348	-0.095	-5.88	-0.91	-2.38
307	-0.945	0.329	-0.1	-8.4	-1.4	-1.54
327	-0.945	0.316	-0.106	-7.91	-1.12	-0.63
346	-0.946	0.306	-0.108	-7.14	-0.91	-0.14
367	-0.948	0.307	-0.112	-6.86	-0.91	0.21
387	-0.952	0.301	-0.115	-6.37	-1.05	0.49
411	-0.947	0.295	-0.114	-5.6	-1.26	0.91
431	-0.951	0.295	-0.118	-4.62	-1.4	0.84
451	-0.948	0.292	-0.116	-4.2	-1.12	0.42
475	-0.948	0.287	-0.118	-3.57	-0.98	0.07
495	-0.956	0.3	-0.12	-4.27	-1.19	-0.42
515	-0.954	0.29	-0.12	-3.15	-0.49	-0.91
535	-0.956	0.289	-0.117	-2.1	-0.84	-0.77
553	-0.959	0.294	-0.119	-2.31	-0.98	-0.56
577	-0.959	0.293	-0.12	-1.96	-0.91	-0.63
595	-0.961	0.287	-0.12	-1.47	-0.91	-0.49
616	-0.961	0.291	-0.123	-1.26	-1.68	-0.49
634	-0.956	0.278	-0.119	0.0	-1.75	-0.56
653	-0.96	0.272	-0.119	1.96	-2.31	0.21
678	-0.961	0.281	-0.113	5.18	-2.87	0.7
697	-0.957	0.296	-0.109	5.88	-3.29	0.63
717	-0.956	0.304	-0.111	4.69	-3.22	0.0
741	-0.955	0.307	-0.113	3.15	-2.66	-0.91
765	-0.953	0.306	-0.117	2.1	-2.03	-1.47
785	-0.95	0.309	-0.119	1.33	-1.68	-1.68
805	-0.95	0.307	-0.118	0.77	-1.47	-1.68
825	-0.949	0.302	-0.12	0.84	-1.33	-1.54
846	-0.952	0.3	-0.119	0.91	-1.68	-1.33
864	-0.953	0.294	-0.117	1.61	-2.24	-0.98
889	-0.947	0.293	-0.111	2.94	-2.66	-0.49
909	-0.958	0.31	-0.104	3.5	-3.08	-0.21
929	-0.958	0.316	-0.103	2.8	-3.71	0.35
953	-0.963	0.321	-0.103	1.26	-5.04	1.89
971	-0.964	0.311	-0.104	1.4	-6.02	3.43
993	-0.952	0.305	-0.113	1.4	-6.72	4.76
1017	-0.949	0.295	-0.119	1.4	-6.44	5.39
1037	-0.945	0.289	-0.125	1.89	-5.11	4.55
1056	-0.946	0.286	-0.127	2.38	-4.06	3.08
1075	-0.95	0.286	-0.122	2.8	-2.73	1.12
1095	-0.95	0.294	-0.118	3.01	-1.82	-0.98
1118	-0.95	0.306	-0.11	2.8	-1.12	-2.52
1137	-0.948	0.307	-0.106	2.45	-0.91	-3.29
1162	-0.947	0.315	-0.107	2.31	-0.56	-3.64
1181	-0.949	0.324	-0.102	1.33	-0.42	-3.71
1201	-0.95	0.33	-0.103	-0.14	-0.42	-3.92
1222	-0.951	0.331	-0.105	-1.96	-0.21	-3.78
1239	-0.954	0.324	-0.106	-3.43	-0.14	-3.29
1262	-0.959	0.315	-0.109	-4.62	-0.42	-2.31
1280	-0.955	0.307	-0.109	-5.67	-0.56	-2.1
1303	-0.957	0.298	-0.111	-5.95	-0.49	-2.03
1324	-0.954	0.29	-0.113	-5.81	-0.63	-2.59
1343	-0.954	0.283	-0.115	-5.74	-0.7	-2.94
1367	-0.949	0.269	-0.119	-4.41	-1.19	-3.08
1386	-0.951	0.27	-0.12	-2.1	-0.7	-3.22
1410	-0.938	0.267	-0.121	-0.28	-0.56	-3.99
1430	-0.953	0.283	-0.117	1.47	0.07	-4.97
1449	-0.939	0.277	-0.114	-1.96	0.0	-6.86
1469	-0.946	0.274	-0.114	-1.96	1.05	-8.82
1491	-0.947	0.272	-0.117	-2.73	1.4	-10.57
1515	-0.951	0.273	-0.108	-3.85	1.61	-12.6
1534	-0.948	0.271	-0.1	-5.25	2.17	-14.56
1554	-0.954	0.271	-0.1	-7.0	2.38	-16.59
1578	-0.974	0.265	-0.081	-8.05	0.56	-17.5
1596	-0.977	0.251	-0.049	-6.72	-1.26	-17.01
1617	-0.996	0.258	-0.04	-0.7	-0.77	-16.87
1638	-1.01	0.362	0.091	-2.38	6.16	-21.7
1658	-1.032	0.469	0.375	-30.24	7.42	-25.9
1678	-1.261	0.479	0.615	-54.32	5.88	-27.51
1697	-1.453	0.431	0.646	-51.94	-11.41	-22.82
1717	-1.516	0.443	0.691	-30.66	-36.26	-11.83
1740	-1.463	0.574	0.713	-15.05	-57.47	7.21
1761	-1.551	0.79	0.692	-25.2	-88.9	26.67
1780	-1.731	0.795	0.557	-36.61	-138.18	44.1
1799	-1.646	0.8	0.488	-53.06	-164.15	58.24
1820	-1.697	0.768	0.416	-61.53	-184.66	70.21
1843	-1.74	0.666	0.326	-55.58	-208.04	85.82
1867	-1.679	0.685	0.268	-43.12	-217.0	105.28
1890	-1.715	0.696	0.244	-40.32	-222.39	115.08
1911	-1.67	0.715	0.237	-51.1	-225.4	120.47
1930	-1.585	0.724	0.218	-64.68	-222.25	118.65
1950	-1.505	0.717	0.269	-83.72	-219.73	111.58
1974	-1.444	0.672	0.268	-101.57	-216.51	97.72
1992	-1.357	0.599	0.311	-106.82	-213.99	87.36
2016	-1.319	0.499	0.369	-105.14	-221.06	79.31
2036	-1.207	0.385	0.369	-80.22	-225.61	80.01
2055	-1.05	0.359	0.358	-56.14	-223.51	81.41
2079	-0.963	0.363	0.331	-35.14	-231.35	88.69
2099	-0.752	0.418	0.373	-29.96	-225.75	93.66
2118	-0.645	0.401	0.481	-31.43	-211.47	92.82
2142	-0.573	0.392	0.465	-38.08	-204.12	89.88
2162	-0.458	0.377	0.478	-49.21	-208.25	92.82
2182	-0.311	0.318	0.488	-51.31	-197.54	92.12
2201	-0.238	0.289	0.537	-53.06	-197.61	85.61
2222	-0.004	0.227	0.501	-65.59	-199.57	97.02
2245	-0.078	0.189	0.497	-50.61	-185.5	82.39
2264	0.049	0.144	0.471	-41.58	-178.01	77.0
2283	0.122	0.055	0.388	-30.45	-185.5	85.61
2306	0.272	0.169	0.454	-20.3	-159.81	69.79
2330	0.307	0.092	0.404	-25.83	-165.62	67.2
2348	0.404	0.027	0.348	-30.87	-160.23	73.01
2370	0.581	0.046	0.35	-21.14	-145.04	63.84
2389	0.62	0.072	0.39	-15.96	-127.82	58.03
2409	0.61	0.068	0.43	-15.82	-114.24	49.84
2429	0.595	-0.004	0.354	-18.55	-123.41	60.13
2453	0.737	0.06	0.428	-17.57	-104.02	48.58
2473	0.72	-0.052	0.317	-22.26	-92.19	46.69
2492	0.655	-0.074	0.313	-1.12	-91.84	50.26
2513	0.753	-0.106	0.288	-12.95	-73.15	55.79
2533	0.813	-0.09	0.307	-20.23	-74.55	44.66
2557	0.719	-0.141	0.205	-9.38	-84.77	40.25
2577	0.821	-0.329	0.264	-9.1	-52.29	45.5
2595	0.88	-0.209	0.273	-5.81	-48.93	33.04
2614	0.816	-0.27	0.252	-8.89	-39.48	29.19
2633	0.889	-0.241	0.253	-8.96	-34.51	17.71
2653	0.908	-0.257	0.242	-4.27	-28.49	13.51
2678	0.904	-0.218	0.27	0.49	-19.6	9.52
2697	0.9	-0.187	0.3	1.19	-15.19	7.63
2716	0.906	-0.137	0.309	-0.84	-12.39	7.28
2735	0.916	-0.134	0.319	-1.89	-8.12	7.07
2760	0.931	-0.14	0.308	-2.1	-4.41	6.16
2780	0.941	-0.157	0.321	1.75	-1.96	4.06
2798	0.95	-0.13	0.33	0.28	1.4	1.19
2818	0.956	-0.144	0.334	-0.63	5.11	-1.26
2838	0.942	-0.146	0.327	-2.38	10.99	-4.9
2862	0.93	-0.178	0.309	-3.15	16.45	-8.4
2882	0.895	-0.173	0.291	-5.04	21.49	-10.64
2899	0.86	-0.189	0.261	-6.09	26.18	-12.11
2923	0.822	-0.222	0.196	-6.23	33.39	-12.81
2943	0.826	-0.252	0.178	-5.32	39.9	-13.37
2961	0.851	-0.269	0.158	-4.41	51.73	-14.98
2978	0.763	-0.283	0.125	-1.26	60.62	-16.52
3002	0.702	-0.298	0.105	5.81	72.03	-20.09
3019	0.732	-0.265	0.136	12.18	82.67	-24.64
3043	0.694	-0.219	0.138	9.59	98.28	-30.45
3063	0.631	-0.236	0.142	8.89	106.82	-33.88
3083	0.639	-0.21	0.2	10.15	116.83	-38.64
3101	0.6	-0.143	0.227	9.45	128.31	-42.0
3125	0.491	-0.104	0.256	10.92	141.05	-46.2
3144	0.423	-0.061	0.329	15.4	146.16	-52.15
3165	0.276	-0.023	0.328	25.41	148.19	-50.75
3184	0.232	-0.02	0.331	36.47	148.82	-51.73
3209	0.294	0.037	0.442	52.64	162.82	-52.43
3225	0.172	0.078	0.475	58.45	178.64	-60.2
3249	0.043	0.156	0.514	70.07	183.96	-63.0
3267	-0.055	0.147	0.488	90.09	186.27	-65.17
3289	0.021	0.45	0.66	99.61	215.46	-95.41
3309	-0.167	0.422	0.632	90.93	209.65	-89.67
3333	-0.449	0.498	0.639	92.33	249.27	-123.97
3349	-0.583	0.438	0.689	75.39	215.53	-99.61
3371	-0.39	0.603	0.73	94.22	217.98	-109.9
3393	-0.637	0.616	0.753	96.67	234.85	-113.05
3411	-0.873	0.677	0.706	99.54	237.23	-114.45
3435	-0.918	0.76	0.719	83.72	233.8	-122.01
3455	-1.001	0.707	0.793	88.69	240.1	-148.47
3472	-1.132	0.668	0.689	72.73	224.14	-112.42
3491	-1.156	0.767	0.573	81.55	221.41	-104.79
3516	-1.183	0.863	0.683	52.57	222.6	-106.82
3536	-1.298	0.918	0.799	10.36	229.39	-107.8
3556	-1.522	0.748	0.851	-26.39	214.83	-106.47
3575	-1.065	0.81	0.437	-50.54	258.93	-105.91
3600	-1.512	0.123	0.04	9.66	184.38	-66.92
3619	-1.26	0.429	0.463	45.64	174.44	-47.11
3640	-1.463	0.558	0.725	21.42	163.94	-39.97
3663	-1.429	0.373	0.646	-0.28	142.8	-35.56
3684	-1.452	0.189	0.381	28.14	123.48	-23.1
3708	-1.479	0.156	0.401	73.5	102.27	-12.39
3728	-1.351	0.233	0.181	107.03	85.26	2.1
3747	-1.229	0.368	0.116	125.86	74.34	11.83
3768	-1.19	0.413	0.136	134.05	69.72	18.9
3788	-1.179	0.472	0.158	128.66	65.17	25.41
3812	-1.152	0.546	0.17	102.27	64.05	23.52
3831	-1.11	0.555	0.195	78.33	61.04	19.32
3855	-1.085	0.555	0.187	37.45	67.55	8.68
3875	-1.096	0.511	0.225	18.34	62.79	0.35
3894	-1.087	0.521	0.302	3.78	61.46	-10.43
3915	-1.139	0.5	0.325	-7.49	54.46	-17.08
3935	-1.218	0.331	0.366	9.17	46.2	1.96
3959	-1.242	0.438	0.367	51.66	12.6	17.29
3975	-1.24	0.687	0.199	16.94	-25.62	11.83
3999	-0.988	0.581	-0.023	-39.83	-31.22	-0.98
4018	-0.938	0.427	-0.119	-52.85	-21.21	-4.55
4039	-0.939	0.315	-0.197	-67.62	-17.08	-6.72
4059	-0.855	0.247	-0.185	-56.56	-11.62	-4.27
4083	-0.904	0.189	-0.264	-32.48	-10.64	-3.01
4102	-0.889	0.247	-0.284	-12.88	-12.88	-1.96
4121	-0.867	0.294	-0.31	-9.8	-5.6	-4.41
4140	-0.867	0.277	-0.33	-8.4	-2.24	-5.67
4164	-0.87	0.306	-0.312	-10.57	1.33	-8.19
4184	-0.883	0.284	-0.291	-14.98	4.2	-8.75
4204	-0.879	0.261	-0.275	-9.94	7.98	-6.58
4219	-0.89	0.269	-0.25	-6.86	10.64	-5.18
4243	-0.915	0.281	-0.22	-3.64	12.32	-3.15
4263	-0.929	0.264	-0.189	-0.98	13.79	-2.73
4286	-0.939	0.259	-0.156	4.2	13.86	-3.22
4307	-0.968	0.299	-0.122	8.96	14.49	-4.83
4327	-0.988	0.319	-0.09	7.84	13.09	-5.25
4342	-1.007	0.356	-0.045	4.83	11.2	-7.14
4366	-1.049	0.371	-0.007	-1.4	8.05	-9.17
4387	-1.073	0.428	0.11	-9.31	3.57	-12.74
4407	-1.086	0.494	0.172	-28.49	-1.4	-20.93
4425	-1.098	0.592	0.301	-65.24	-5.11	-35.0
4447	-1.18	0.55	0.482	-101.85	-8.47	-50.54
4468	-1.327	0.456	0.574	-103.95	-14.98	-50.68
4488	-1.481	0.427	0.61	-78.26	-37.52	-41.02
4508	-1.606	0.478	0.569	-47.81	-70.28	-24.36
4532	-1.693	0.658	0.535	-36.05	-108.36	4.2
4548	-1.755	0.702	0.555	-46.62	-142.38	17.43
4572	-1.808	0.719	0.559	-59.5	-172.2	38.08
4592	-1.893	0.686	0.523	-67.13	-198.94	50.54
4612	-1.946	0.65	0.459	-64.82	-218.75	63.42
4636	-1.92	0.655	0.391	-60.76	-233.03	72.87
4656	-1.902	0.696	0.353	-64.75	-243.95	74.27
4673	-1.875	0.716	0.318	-76.65	-253.96	73.01
4697	-1.811	0.72	0.279	-89.11	-261.52	68.46
4715	-1.752	0.702	0.26	-97.93	-264.74	65.45
4739	-1.666	0.676	0.279	-102.9	-268.03	62.51
4759	-1.574	0.635	0.238	-101.71	-269.85	63.63
4779	-1.479	0.517	0.255	-94.15	-278.95	72.17
4798	-1.38	0.538	0.238	-81.2	-279.23	74.83
4815	-1.233	0.494	0.265	-78.12	-285.53	82.04
4834	-1.04	0.392	0.27	-62.79	-280.0	92.68
4859	-0.945	0.444	0.224	-64.82	-282.87	95.83
4879	-0.727	0.36	0.235	-70.0	-284.34	98.0
4894	-0.622	0.234	0.246	-61.6	-279.23	87.22
4914	-0.468	0.219	0.311	-73.99	-256.83	78.47
4939	-0.246	0.251	0.431	-64.47	-245.56	58.94
4956	-0.214	0.17	0.343	-72.38	-220.85	55.16
4980	-0.125	0.057	0.297	-65.73	-215.25	56.28
4995	-0.004	0.023	0.254	-57.12	-201.11	48.72
5019	0.129	-0.008	0.252	-54.74	-195.37	48.44
5040	0.204	-0.08	0.227	-49.07	-183.47	45.01
5060	0.329	-0.139	0.144	-46.76	-176.89	42.7
5084	0.471	-0.17	0.17	-40.46	-155.68	40.39
5104	0.517	-0.205	0.165	-38.92	-148.12	39.2
5124	0.618	-0.308	0.143	-30.24	-125.51	44.87
5140	0.685	-0.226	0.132	-33.81	-139.44	24.15
5163	0.705	-0.4	0.114	-22.4	-101.57	30.24
5184	0.711	-0.354	0.18	-13.3	-93.52	25.76
5204	1.171	-0.264	0.31	-26.46	-97.09	18.13
5222	0.761	-0.378	0.19	3.08	-68.74	14.28
5242	0.822	-0.073	0.195	-14.84	-73.78	8.47
5266	0.836	-0.297	0.216	-11.34	-50.19	8.61
5286	0.896	-0.249	0.238	-17.57	-47.11	5.25
5301	0.903	-0.286	0.253	-10.5	-39.06	4.62
5322	0.958	-0.257	0.286	-2.87	-28.0	-2.66
5342	0.924	-0.191	0.297	1.05	-22.75	-6.3
5361	0.91	-0.151	0.331	2.8	-19.18	-8.19
5386	0.939	-0.153	0.337	2.73	-13.86	-8.05
5406	0.931	-0.136	0.322	4.76	-8.47	-7.07
5426	0.94	-0.099	0.325	3.71	-4.34	-6.51
5443	0.944	-0.094	0.334	1.82	17.85	-5.67
5467	0.931	-0.077	0.36	-2.1	3.43	-5.39
5487	0.939	-0.105	0.382	-5.6	6.93	-5.67
5507	0.923	-0.098	0.414	-4.69	9.38	-5.74
5527	0.93	-0.094	0.445	-4.69	10.29	-5.25
5546	0.908	-0.1	0.454	-2.87	10.43	-3.71
5567	0.899	-0.1	0.467	-3.43	9.73	-2.52
5587	0.894	-0.119	0.469	-3.01	10.43	-1.89
5607	0.907	-0.127	0.463	-0.21	11.2	-1.05
5631	0.884	-0.12	0.474	0.07	11.06	-0.84
5651	0.882	-0.151	0.458	1.89	12.67	-1.19
5669	0.878	-0.151	0.432	2.31	13.37	-1.89
5688	0.883	-0.177	0.403	5.18	15.68	-2.24
5712	0.901	-0.172	0.379	7.0	19.95	-5.04
5731	0.888	-0.163	0.339	5.95	26.25	-7.49
5748	0.882	-0.162	0.321	4.06	31.78	-10.01
5768	0.852	-0.169	0.301	1.26	38.99	-13.09
5788	0.846	-0.192	0.274	2.45	45.5	-15.68
5812	0.813	-0.177	0.205	5.81	54.88	-17.22
5832	0.775	-0.195	0.187	9.03	61.81	-17.15
5851	0.76	-0.186	0.185	11.55	71.26	-17.5
5876	0.707	-0.172	0.179	10.64	85.26	-17.43
5896	0.64	-0.183	0.163	11.83	95.9	-17.22
5914	0.62	-0.208	0.139	16.87	104.44	-17.15
5934	0.602	-0.195	0.161	24.5	119.35	-19.39
5958	0.519	-0.164	0.173	32.76	133.91	-22.4
5978	0.415	-0.12	0.224	40.39	146.44	-25.41
5997	0.293	-0.081	0.251	48.02	154.0	-25.97
6018	0.271	-0.016	0.323	54.46	161.84	-27.58
6042	0.192	0.044	0.53	55.86	175.14	-33.6
6062	-0.051	0.057	0.486	63.98	176.33	-36.12
6081	-0.003	0.008	0.452	75.46	163.45	-29.47
6106	-0.008	0.159	0.511	93.87	189.35	-29.47
6126	-0.219	0.303	0.634	94.57	192.85	-33.88
6144	-0.281	0.369	0.742	90.37	197.89	-37.24
6164	-0.417	0.361	0.746	91.42	200.27	-51.94
6188	-0.3	0.442	0.703	93.45	202.79	-56.0
6208	-0.441	0.524	0.793	92.96	216.51	-69.86
6228	-0.66	0.599	0.864	81.41	228.13	-78.68
6248	-0.766	0.54	0.736	85.19	223.58	-78.54
6268	-0.867	0.621	0.65	100.38	220.36	-75.39
6288	-0.948	0.714	0.808	105.14	221.62	-79.66
6310	-1.078	0.692	0.87	118.37	228.2	-89.81
6331	-1.156	0.661	0.604	118.44	179.41	-68.53
6355	-1.065	0.678	0.492	136.71	171.36	-57.4
6375	-1.119	0.837	0.733	126.7	174.93	-64.33
6394	-1.256	0.855	0.772	98.35	164.08	-71.96
6414	-1.214	0.705	0.647	85.54	156.52	-79.38
6438	-1.201	0.638	0.398	93.73	148.61	-73.57
6462	-1.151	0.803	0.569	72.94	158.55	-79.1
6482	-1.324	0.838	0.724	28.63	156.66	-85.89
6502	-1.325	0.653	0.541	4.62	148.75	-86.87
6522	-1.358	0.706	0.512	24.85	164.71	-93.66
6540	-1.343	0.459	0.287	28.84	128.45	-69.16
6564	-1.256	0.58	0.341	38.43	116.76	-55.58
6583	-1.218	0.617	0.409	25.97	112.91	-50.47
6607	-1.249	0.629	0.419	-4.83	107.45	-47.6
6627	-1.259	0.531	0.346	-21.84	97.51	-44.52
6647	-1.238	0.398	0.28	-16.45	89.46	-36.89
6671	-1.223	0.357	0.26	4.55	76.58	-23.03
6690	-1.181	0.366	0.252	19.53	60.06	-11.9
6711	-1.129	0.37	0.242	38.92	48.3	-4.06
6731	-1.113	0.404	0.232	45.08	36.82	3.15
6750	-1.092	0.44	0.192	44.24	29.96	6.86
6769	-1.067	0.449	0.161	39.13	22.82	9.52
6788	-1.037	0.468	0.131	28.7	14.56	9.8
6814	-1.012	0.444	0.037	12.25	8.54	8.68
6831	-1.008	0.453	-0.031	0.7	7.07	6.93
6855	-0.981	0.431	-0.068	-11.9	3.78	6.09
6875	-0.942	0.386	-0.102	-21.56	0.91	4.83
6894	-0.913	0.324	-0.122	-21.49	0.98	3.36
6915	-0.911	0.329	-0.151	-17.43	1.4	2.59
6935	-0.922	0.342	-0.168	-18.9	0.91	0.56
6959	-0.92	0.325	-0.183	-24.43	-0.7	-0.49
6979	-0.926	0.263	-0.197	-22.61	-0.84	0.28
6994	-0.928	0.238	-0.197	-16.66	-0.14	1.61
7017	-0.936	0.229	-0.184	-6.86	0.77	4.06
7039	-0.95	0.248	-0.172	1.26	0.42	4.76
7056	-0.962	0.249	-0.159	3.22	-0.14	4.06
7080	-0.97	0.252	-0.13	5.39	-0.42	0.35
7100	-0.991	0.273	-0.094	5.11	-1.33	-4.41
7118	-1.017	0.3	-0.039	3.71	-2.94	-8.54
7139	-1.019	0.364	0.03	-3.15	-2.17	-15.19
7158	-1.067	0.448	0.175	-19.6	-1.12	-25.83
7181	-1.187	0.479	0.414	-50.89	-13.3	-36.33
7200	-1.209	0.416	0.494	-59.64	-22.68	-37.66
7222	-1.368	0.43	0.554	-45.43	-32.76	-35.77
7242	-1.444	0.575	0.611	-43.4	-55.16	-27.72
7262	-1.491	0.578	0.63	-43.61	-82.6	-15.26
7286	-1.578	0.615	0.658	-41.51	-109.27	3.5
7304	-1.647	0.656	0.695	-50.05	-134.82	12.18
7328	-1.749	0.663	0.676	-56.14	-155.12	24.22
7346	-1.81	0.655	0.569	-56.91	-181.3	31.85
7367	-1.835	0.671	0.468	-55.93	-198.31	39.13
7387	-1.853	0.675	0.396	-60.55	-220.85	47.46
7411	-1.816	0.646	0.325	-61.25	-238.56	59.92
7431	-1.77	0.65	0.322	-63.7	-244.44	67.06
7451	-1.746	0.647	0.3	-66.85	-250.81	71.19
7470	-1.642	0.63	0.322	-78.12	-255.5	71.75
7491	-1.594	0.604	0.301	-81.2	-253.68	69.86
7509	-1.498	0.568	0.285	-85.54	-257.25	69.44
7529	-1.373	0.535	0.304	-88.2	-255.22	67.97
7550	-1.284	0.468	0.315	-86.24	-256.55	69.51
7570	-1.145	0.385	0.307	-75.53	-256.9	71.75
7589	-0.991	0.349	0.251	-65.03	-254.59	74.2
7614	-0.829	0.326	0.3	-55.09	-250.39	72.1
7634	-0.691	0.276	0.307	-52.36	-241.01	78.12
7654	-0.497	0.247	0.312	-46.34	-223.3	66.71
7673	-0.496	0.172	0.273	-46.62	-231.35	61.74
7694	-0.321	0.174	0.369	-50.47	-216.09	55.79
7714	-0.127	0.109	0.345	-41.79	-205.59	54.74
7733	-0.043	0.132	0.38	-41.86	-185.29	52.22
7757	0.024	0.091	0.375	-51.52	-179.9	53.06
7777	0.116	-0.005	0.372	-48.51	-167.44	51.59
7797	0.22	-0.03	0.356	-42.49	-158.69	54.46
7815	0.309	-0.069	0.356	-38.01	-150.71	54.46
7832	0.422	-0.054	0.394	-38.36	-139.65	56.14
7856	0.47	-0.118	0.447	-41.58	-125.51	51.59
7880	0.462	-0.132	0.489	-33.95	-112.42	46.06
7900	0.504	-0.108	0.471	-39.48	-108.71	46.69
7919	0.261	0.067	0.771	-40.39	-110.39	27.93
7939	0.807	-0.055	0.424	-36.33	-116.97	38.71
7959	0.569	-0.18	0.463	-36.75	-94.36	38.92
7983	0.714	-0.272	0.481	-32.76	-87.36	32.27
8003	0.774	-0.269	0.461	-15.4	-79.1	28.49
8020	0.757	-0.223	0.465	-11.97	-73.64	23.31
8044	0.747	-0.14	0.457	-16.38	-69.16	17.99
8063	0.807	-0.184	0.409	-25.34	-66.64	13.65
8088	0.864	-0.24	0.398	-20.86	-53.76	8.96
8108	0.851	-0.212	0.419	-18.41	-46.76	6.72
8128	0.828	-0.208	0.401	-16.87	-43.89	6.37
8152	0.844	-0.232	0.358	-14.21	-40.39	7.7
8172	0.862	-0.242	0.338	-7.7	-34.79	7.77
8190	0.859	-0.257	0.337	-4.9	-31.78	7.77
8212	0.875	-0.252	0.332	0.56	-27.65	7.49
8236	0.878	-0.234	0.303	3.36	-21.91	5.95
8255	0.901	-0.227	0.309	3.99	-16.24	5.11
8279	0.913	-0.222	0.312	0.77	-7.91	3.71
8295	0.918	-0.225	0.342	-0.91	-1.82	2.1
8319	0.898	-0.211	0.347	-3.29	2.17	0.14
8342	0.907	-0.225	0.376	-4.62	6.3	-1.05
8362	0.898	-0.247	0.388	-2.59	9.66	-0.98
8386	0.895	-0.248	0.412	1.19	14.14	-2.52
8406	0.879	-0.226	0.443	2.38	15.96	-4.55
8425	0.863	-0.231	0.443	3.36	16.87	-6.3
8445	0.855	-0.241	0.435	3.29	16.87	-7.98
8468	0.868	-0.262	0.44	7.07	19.46	-9.8
8490	0.832	-0.256	0.398	12.81	22.54	-11.48
8509	0.83	-0.244	0.362	18.83	25.76	-12.11
8529	0.848	-0.19	0.372	17.22	32.97	-13.86
8553	0.811	-0.178	0.374	10.01	41.65	-15.19
8572	0.791	-0.206	0.341	8.61	46.34	-14.56
8593	0.782	-0.22	0.341	13.86	50.96	-13.58
8613	0.782	-0.195	0.357	17.92	57.12	-13.72
8637	0.749	-0.173	0.383	18.9	63.98	-14.63
8657	0.738	-0.159	0.442	18.69	67.48	-15.89
8677	0.748	-0.14	0.457	19.46	71.61	-16.17
8697	0.698	-0.119	0.456	23.03	77.28	-16.45
8717	0.664	-0.096	0.502	27.3	81.34	-15.89
8737	0.649	-0.087	0.537	33.11	82.11	-13.86
8757	0.693	-0.024	0.604	33.46	91.28	-13.79
8781	0.582	0.003	0.625	30.59	97.51	-11.27
8801	0.468	-0.02	0.612	33.53	98.28	-7.63
8820	0.432	0.124	0.561	40.53	97.79	-5.81
8841	0.446	0.047	0.625	37.45	102.9	-1.82
8861	0.398	0.106	0.734	28.28	109.34	-0.42
8885	0.325	0.075	0.783	16.17	111.51	-1.61
8904	0.184	-0.065	0.656	24.64	111.09	-5.67
8928	0.25	-0.062	0.705	44.45	98.77	-2.03
8948	0.323	0.028	0.722	59.64	117.53	-6.72
8967	0.132	0.062	0.795	59.71	119.14	-7.56
8988	0.109	0.074	0.806	61.67	117.74	-9.1
9011	0.126	0.138	0.811	65.1	132.09	-19.18
9032	-0.023	0.187	0.87	52.43	138.95	-25.48
9052	-0.119	0.165	0.847	53.06	133.98	-27.93
9071	-0.092	0.164	0.791	62.79	129.22	-25.41
9090	-0.07	0.244	0.818	68.88	140.14	-27.23
9110	-0.203	0.324	0.884	65.03	147.56	-29.47
9134	-0.317	0.339	0.861	60.13	150.71	-29.89
9153	-0.356	0.339	0.823	59.29	153.51	-41.23
9170	-0.332	0.393	0.766	62.79	153.37	-36.33
9191	-0.406	0.481	0.874	58.66	169.19	-38.08
9215	-0.653	0.486	0.963	49.14	167.51	-42.21
9234	-0.675	0.383	0.83	55.09	147.28	-33.46
9258	-0.589	0.356	0.629	89.95	140.35	-22.12
9278	-0.628	0.494	0.699	112.49	153.51	-20.23
9300	-0.89	0.611	0.939	114.17	149.38	-25.97
9319	-0.895	0.63	0.88	90.79	127.4	-30.87
9344	-0.805	0.566	0.644	88.62	126.91	-28.0
9364	-0.776	0.54	0.58	105.63	122.22	-26.46
9384	-0.873	0.674	0.705	103.6	128.87	-28.14
9404	-1.037	0.705	0.848	82.95	127.75	-33.88
9427	-1.03	0.627	0.702	55.09	117.25	-36.75
9448	-0.975	0.55	0.536	70.42	114.52	-37.59
9467	-0.995	0.619	0.465	76.93	114.66	-39.13
9487	-1.039	0.671	0.557	83.23	111.51	-41.72
9511	-1.08	0.732	0.595	65.1	108.29	-49.07
9531	-1.086	0.712	0.49	46.06	96.46	-48.02
9551	-1.092	0.668	0.369	37.94	89.81	-47.88
9570	-1.0	0.649	0.38	31.36	85.19	-43.61
9591	-0.987	0.662	0.405	15.54	87.57	-41.09
9611	-1.054	0.609	0.374	-1.4	86.24	-38.36
9635	-1.059	0.495	0.288	-3.57	76.79	-32.9
9654	-1.079	0.407	0.224	10.92	68.88	-27.44
9676	-1.041	0.403	0.201	31.43	60.34	-19.46
9696	-1.028	0.394	0.175	47.74	53.48	-14.07
9715	-1.012	0.425	0.154	58.31	50.68	-11.06
9740	-1.011	0.455	0.147	59.99	48.72	-11.55
9755	-1.013	0.499	0.151	53.13	47.88	-14.28
9780	-1.012	0.531	0.146	33.25	47.04	-20.93
9795	-1.01	0.54	0.144	16.24	47.39	-25.27
9820	-1.035	0.507	0.108	-8.05	41.51	-29.4
9836	-1.015	0.452	0.105	-12.74	40.18	-28.91
9856	-1.024	0.411	0.092	-12.11	37.17	-27.86
9880	-1.039	0.376	0.06	-6.16	30.59	-21.49
9900	-1.016	0.379	0.035	3.08	24.78	-16.38
9918	-0.995	0.387	0.0	7.35	20.44	-11.69
9938	-0.996	0.378	-0.013	10.99	17.08	-5.74
9962	-0.986	0.367	-0.019	20.51	10.57	2.03
9982	-0.975	0.409	-0.045	21.84	3.15	6.65
10006	-0.954	0.425	-0.05	15.54	-0.49	7.35
10026	-0.939	0.445	-0.074	4.13	-3.01	5.18
10046	-0.934	0.431	-0.084	-4.41	-3.5	2.38
10065	-0.927	0.398	-0.109	-11.76	-3.64	0.7
10086	-0.923	0.371	-0.134	-13.44	-1.4	-0.42
10103	-0.934	0.366	-0.14	-14.07	-0.98	-0.35
10126	-0.918	0.349	-0.133	-14.35	-0.91	0.91
10146	-0.919	0.327	-0.138	-10.57	-0.21	1.96
10167	-0.929	0.322	-0.125	-7.28	-0.7	2.31
10187	-0.933	0.318	-0.108	-4.62	-1.12	1.68
10207	-0.937	0.315	-0.104	-1.82	-1.4	0.35
10226	-0.951	0.324	-0.091	-0.84	-1.96	-1.54
10246	-0.956	0.323	-0.087	0.56	-2.73	-3.36
10269	-0.968	0.339	-0.077	3.08	-1.47	-5.18
10293	-0.986	0.372	-0.021	0.63	-2.66	-7.56
10310	-1.007	0.376	0.027	-2.94	-4.06	-9.45
10330	-1.046	0.373	0.075	-7.35	-8.33	-12.25
10354	-1.055	0.39	0.163	-17.22	-11.13	-19.67
10374	-1.126	0.433	0.375	-32.2	-18.76	-25.9
10393	-1.219	0.418	0.481	-45.71	-27.16	-31.71
10413	-1.278	0.408	0.498	-47.81	-37.87	-32.27
10436	-1.309	0.37	0.419	-39.9	-65.1	-26.32
10456	-1.372	0.411	0.417	-23.31	-85.89	-19.53
10473	-1.436	0.452	0.454	-17.92	-104.09	-11.27
10493	-1.471	0.485	0.463	-14.84	-121.45	0.63
10512	-1.464	0.508	0.419	-10.29	-137.55	16.31
10535	-1.455	0.528	0.373	-5.81	-149.8	34.37
10557	-1.463	0.552	0.396	1.96	-161.63	48.93
10576	-1.439	0.648	0.447	-2.38	-169.05	57.89
10596	-1.444	0.654	0.428	-5.32	-179.13	64.05
10616	-1.42	0.7	0.451	-13.58	-185.5	65.52
10639	-1.445	0.794	0.483	-42.91	-187.11	58.52
10663	-1.445	0.757	0.468	-68.18	-198.24	53.62
10683	-1.397	0.707	0.432	-78.47	-204.33	52.01
10703	-1.333	0.664	0.424	-82.53	-205.45	51.45
10721	-1.281	0.635	0.441	-84.63	-209.58	53.76
10741	-1.23	0.624	0.494	-87.99	-210.63	53.9
10764	-1.151	0.589	0.481	-93.45	-212.59	53.41
10783	-1.062	0.555	0.48	-98.77	-214.69	52.01
10808	-0.994	0.491	0.515	-100.52	-216.16	50.75
10828	-0.891	0.394	0.461	-92.19	-219.59	52.15
10848	-0.714	0.307	0.452	-75.25	-212.45	53.62
10868	-0.609	0.288	0.475	-63.07	-209.93	53.97
10887	-0.475	0.28	0.49	-59.15	-204.61	58.03
10910	-0.369	0.309	0.523	-58.87	-191.52	53.76
10931	-0.368	0.127	0.46	-75.25	-201.74	55.37
10955	-0.204	0.199	0.525	-76.23	-182.0	41.16
10974	-0.108	0.009	0.546	-59.57	-187.53	45.92
10994	-0.01	0.032	0.462	-44.17	-173.32	49.07
11014	0.104	0.025	0.462	-26.95	-164.99	50.26
11037	0.192	0.097	0.509	-34.44	-156.87	46.2
11058	0.24	0.026	0.507	-48.86	-158.2	56.63
11078	0.346	-0.034	0.522	-41.93	-139.51	43.54
11098	0.407	-0.092	0.544	-36.68	-132.58	42.21
11118	0.423	-0.105	0.541	-32.41	-123.76	45.22
11141	0.45	-0.153	0.497	-29.82	-120.4	40.39
11162	0.605	-0.122	0.572	-28.63	-109.76	34.37
11182	0.553	-0.212	0.472	-22.33	-108.01	33.25
11200	0.618	-0.148	0.515	-15.4	-103.88	29.05
11220	0.629	-0.151	0.515	-12.53	-91.56	25.9
11239	0.669	-0.106	0.478	-12.67	-85.96	24.92
11264	0.652	-0.087	0.477	-27.58	-81.06	22.4
11284	0.714	-0.151	0.464	-32.41	-79.8	21.63
11304	0.775	-0.229	0.41	-28.77	-71.26	20.09
11323	0.794	-0.236	0.399	-20.93	-64.19	19.88
11342	0.805	-0.232	0.417	-19.39	-60.34	17.36
11362	0.81	-0.233	0.442	-13.93	-62.23	18.62
11386	0.804	-0.188	0.406	-15.33	-49.98	10.92
11406	0.825	-0.215	0.369	-14.91	-47.95	12.18
11426	0.837	-0.213	0.359	-10.36	-42.7	13.93
11444	0.858	-0.243	0.354	-10.15	-35.63	14.98
11466	0.893	-0.258	0.369	-3.92	-25.69	14.21
11486	0.868	-0.248	0.386	-3.92	-21.91	12.11
11510	0.889	-0.251	0.391	-3.43	-18.2	7.56
11525	0.908	-0.24	0.4	-2.17	-14.42	5.81
11549	0.904	-0.245	0.399	-2.31	-8.33	3.01
11573	0.908	-0.242	0.416	-0.21	-2.73	0.07
11592	0.895	-0.21	0.422	-1.19	-0.14	-1.54
11611	0.874	-0.208	0.431	-2.03	0.98	-1.54
11635	0.858	-0.212	0.419	-0.7	2.73	0.84
11651	0.858	-0.258	0.397	1.96	4.69	1.96
11670	0.859	-0.25	0.405	7.42	10.01	2.17
11694	0.838	-0.23	0.425	6.51	12.6	0.63
11715	0.846	-0.253	0.398	2.38	15.4	-1.75
11735	0.835	-0.295	0.372	3.5	19.95	-4.06
11753	0.818	-0.303	0.344	4.62	23.94	-6.23
11777	0.81	-0.306	0.324	7.77	30.52	-8.96
11797	0.79	-0.269	0.318	7.28	40.32	-11.41
11817	0.738	-0.238	0.314	1.33	50.89	-13.23
11837	0.697	-0.251	0.323	-4.55	57.47	-13.58
11857	0.74	-0.289	0.34	-2.8	62.72	-11.41
11876	0.728	-0.297	0.336	5.67	70.21	-8.33
11893	0.705	-0.303	0.361	14.28	72.59	-6.79
11913	0.718	-0.252	0.424	26.6	76.3	-7.07
11932	0.688	-0.163	0.481	25.34	78.54	-8.96
11956	0.656	-0.136	0.501	24.29	80.29	-9.87
11977	0.636	-0.123	0.507	26.6	81.13	-11.06
12001	0.655	-0.096	0.543	32.55	92.26	-13.3
12018	0.575	-0.041	0.544	36.68	97.44	-12.32
12042	0.534	-0.015	0.605	37.03	97.72	-11.83
12062	0.533	0.013	0.662	36.05	105.63	-12.25
12081	0.437	0.023	0.685	35.28	111.65	-14.63
12105	0.407	0.027	0.673	39.69	116.69	-14.84
12123	0.35	0.034	0.687	47.39	117.53	-11.9
12146	0.338	0.076	0.728	48.58	124.32	-9.38
12165	0.275	0.11	0.788	45.22	130.76	-8.54
12184	0.163	0.104	0.828	40.6	130.69	-8.47
12209	0.08	0.081	0.773	42.28	130.2	-8.61
12228	0.096	0.096	0.729	48.02	124.81	-6.93
12248	0.119	0.106	0.825	56.63	132.23	-4.06
12271	-0.02	0.18	1.152	46.48	148.33	-16.52
12292	-0.124	0.043	0.895	75.46	109.83	-5.6
12311	-0.008	0.113	0.873	94.71	119.91	-15.19
12331	-0.159	0.208	0.918	104.09	125.51	-17.99
12355	-0.249	0.26	0.895	112.7	119.84	-20.02
12375	-0.211	0.362	0.892	106.05	128.52	-25.06
12394	-0.327	0.48	0.976	86.31	133.77	-34.16
12414	-0.436	0.459	1.037	63.28	137.34	-40.04
12434	-0.51	0.393	0.925	54.81	133.7	-41.16
12458	-0.458	0.24	0.842	54.46	126.49	-31.08
12478	-0.482	0.336	0.789	121.1	229.39	-86.94
12498	-0.7	0.423	0.86	84.98	140.14	-33.11
12520	-0.787	0.536	0.911	67.41	126.35	-37.31
12540	-0.73	0.569	0.772	52.15	125.86	-43.75
12559	-0.65	0.442	0.77	55.51	116.27	-36.75
12579	-0.683	0.505	0.739	70.84	127.12	-33.95
12604	-0.842	0.569	0.794	62.72	127.54	-34.37
12624	-0.911	0.536	0.722	58.94	115.64	-31.71
12641	-0.857	0.527	0.66	60.69	108.43	-29.82
12665	-0.78	0.483	0.614	72.66	115.01	-29.75
12685	-0.931	0.599	0.538	78.82	116.06	-30.66
12705	-1.031	0.671	0.629	64.47	110.04	-37.03
12726	-0.981	0.649	0.656	42.35	96.88	-39.41
12747	-0.914	0.603	0.585	31.5	101.22	-40.6
12771	-1.02	0.565	0.516	31.36	100.45	-42.21
12791	-1.062	0.514	0.411	40.81	91.42	-36.82
12811	-0.962	0.561	0.358	51.8	86.17	-31.43
12835	-0.982	0.662	0.543	23.8	91.98	-38.08
12855	-1.031	0.598	0.568	-10.22	91.84	-43.12
12873	-1.016	0.508	0.488	-23.31	91.63	-47.6
12893	-1.089	0.371	0.363	-17.99	82.95	-46.13
12917	-1.065	0.305	0.328	15.82	66.22	-36.82
12937	-1.08	0.304	0.281	53.83	51.24	-27.79
12957	-1.052	0.357	0.252	69.65	42.07	-20.3
12977	-1.04	0.429	0.225	72.8	34.86	-17.15
12994	-1.013	0.491	0.184	60.48	31.71	-16.24
13018	-0.973	0.502	0.178	40.32	37.38	-16.66
13038	-0.986	0.489	0.181	18.76	42.84	-17.78
13058	-0.995	0.414	0.165	4.41	46.9	-18.76
13078	-1.0	0.368	0.132	1.05	49.91	-19.74
13097	-0.991	0.333	0.139	4.97	51.24	-18.97
13116	-0.999	0.331	0.13	17.5	49.63	-16.45
13141	-1.013	0.354	0.138	25.69	45.5	-14.91
13161	-1.02	0.384	0.142	25.48	45.57	-13.51
13179	-1.042	0.426	0.118	20.16	32.55	-13.23
13203	-1.024	0.421	0.104	11.34	23.87	-10.99
13220	-1.015	0.394	0.083	9.03	19.46	-8.68
13243	-1.001	0.393	0.072	8.12	11.62	-4.62
13267	-1.006	0.392	0.049	6.93	3.43	0.56
13287	-0.994	0.405	0.024	5.39	-2.17	2.87
13307	-0.977	0.428	-0.001	-1.54	-5.25	3.22
13327	-0.968	0.419	-0.026	-11.62	-6.51	4.13
13346	-0.968	0.378	-0.046	-15.75	-5.53	5.39
13366	-0.973	0.348	-0.057	-16.45	-7.0	7.35
13387	-0.946	0.33	-0.073	-15.47	-7.49	8.96
13407	-0.936	0.314	-0.088	-12.11	-6.93	10.01
13426	-0.939	0.296	-0.099	-10.36	-5.95	9.59
13446	-0.936	0.281	-0.099	-6.23	-5.25	8.26
13465	-0.927	0.29	-0.092	-3.01	-4.13	6.58
13490	-0.936	0.301	-0.1	-3.5	-3.92	3.92
13506	-0.938	0.29	-0.098	-3.85	-2.87	2.87
13530	-0.947	0.282	-0.089	-2.31	-1.68	2.17
13549	-0.964	0.286	-0.075	0.07	-1.05	1.47
13569	-0.968	0.3	-0.059	1.54	-0.91	0.0
13592	-0.97	0.313	-0.04	2.45	0.14	-2.45
13613	-0.975	0.332	-0.008	0.56	-0.56	-4.55
13638	-0.976	0.333	0.027	-0.56	-1.19	-7.0
13657	-0.992	0.348	0.041	-1.75	-2.94	-8.05
13676	-0.991	0.35	0.049	-2.1	-5.95	-7.98
13696	-0.987	0.354	0.068	-3.36	-8.96	-7.07
13720	-1.014	0.366	0.124	-4.13	-14.56	-6.23
13740	-1.043	0.37	0.148	-3.22	-19.67	-4.55
13760	-1.059	0.399	0.181	-3.36	-21.98	-4.48
13780	-1.118	0.459	0.259	-11.34	-26.39	-4.13
13798	-1.13	0.461	0.282	-22.54	-34.3	-3.01
13820	-1.14	0.432	0.273	-27.65	-44.45	0.7
13841	-1.153	0.412	0.322	-27.58	-52.08	3.64
13861	-1.221	0.438	0.445	-26.74	-57.75	3.78
13884	-1.337	0.46	0.598	-30.52	-70.35	4.27
13904	-1.437	0.51	0.648	-33.46	-86.24	8.12
13925	-1.464	0.516	0.586	-36.89	-112.63	20.79
13947	-1.474	0.552	0.525	-35.14	-140.84	33.88
13967	-1.479	0.55	0.556	-28.07	-159.11	44.17
13991	-1.52	0.613	0.637	-22.05	-180.88	54.32
14015	-1.526	0.648	0.614	-23.66	-196.77	60.83
14035	-1.461	0.729	0.548	-38.64	-201.32	59.92
14055	-1.379	0.802	0.445	-62.44	-205.45	56.56
14079	-1.321	0.75	0.428	-87.22	-203.56	49.77
14098	-1.293	0.684	0.397	-96.88	-207.69	48.51
14116	-1.169	0.619	0.407	-102.2	-202.37	44.66
14139	-1.106	0.564	0.467	-101.36	-197.68	41.86
14158	-1.049	0.541	0.51	-102.48	-196.84	38.5
14180	-0.964	0.481	0.518	-101.64	-195.86	33.18
14201	-0.882	0.44	0.536	-96.18	-193.76	29.26
14220	-0.819	0.395	0.564	-91.63	-193.76	27.37
14240	-0.72	0.331	0.566	-84.49	-193.55	27.3
14264	-0.639	0.291	0.598	-73.43	-188.65	25.83
14288	-0.537	0.283	0.59	-66.85	-191.1	26.81
14308	-0.398	0.238	0.622	-65.1	-184.94	27.58
14327	-0.319	0.209	0.655	-65.73	-180.95	29.54
14346	-0.259	0.15	0.659	-63.91	-180.95	31.71
14370	-0.215	0.164	0.643	-63.98	-166.67	22.19
14388	-0.113	0.122	0.626	-66.15	-169.89	24.43
14412	-0.049	0.013	0.613	-53.62	-167.37	22.61
14430	0.051	0.008	0.578	-46.83	-163.31	24.85
14454	0.182	-0.005	0.588	-34.51	-153.93	26.95
14473	0.24	-0.065	0.583	-23.66	-143.99	29.26
14491	0.224	0.022	0.562	-29.4	-141.82	32.13
14512	0.309	-0.063	0.5	-30.94	-147.35	39.76
14530	0.4	0.007	0.516	-32.62	-126.7	25.83
14555	0.456	-0.053	0.525	-36.33	-118.3	27.16
14573	0.462	-0.057	0.592	-43.75	-115.36	24.92
14592	0.714	-0.162	0.62	-34.79	-112.07	33.74
14615	0.618	-0.119	0.543	-20.37	-104.72	21.49
14637	0.591	-0.163	0.492	-14.7	-96.04	25.69
14655	0.596	-0.16	0.481	-10.78	-91.07	23.45
14679	0.659	-0.164	0.459	-9.31	-90.44	26.74
14698	0.711	-0.154	0.473	-12.25	-86.8	27.3
14719	0.693	-0.172	0.464	-16.73	-77.84	24.5
14742	0.718	-0.204	0.454	-21.35	-73.71	24.29
14763	0.752	-0.255	0.46	-23.03	-69.37	23.87
14780	0.782	-0.284	0.438	-23.45	-68.25	24.15
14803	0.848	-0.34	0.458	-16.45	-61.04	22.26
14824	0.899	-0.303	0.484	-11.2	-47.04	15.05
14844	0.858	-0.289	0.483	-12.25	-43.54	8.96
14863	0.858	-0.28	0.47	-12.95	-42.07	2.38
14882	0.904	-0.275	0.456	-12.11	-39.34	-1.4
14906	0.893	-0.259	0.441	-8.54	-33.95	-3.36
14926	0.884	-0.244	0.397	-6.51	-32.2	-3.01
14941	0.884	-0.224	0.38	-3.99	-27.86	-2.31
14961	0.872	-0.234	0.365	-3.43	-24.64	-2.31
14981	0.891	-0.234	0.346	1.19	-19.95	-1.82
15006	0.87	-0.197	0.313	0.7	-13.16	-0.7
15026	0.858	-0.224	0.351	-1.96	-8.19	0.49
15045	0.87	-0.231	0.357	-3.85	-5.25	2.17
15069	0.885	-0.251	0.337	-2.31	-1.68	4.2
15089	0.852	-0.255	0.349	-0.91	2.31	5.53
15109	0.85	-0.275	0.37	-1.4	3.92	6.02
15126	0.851	-0.286	0.376	-1.54	4.97	5.46
15148	0.872	-0.318	0.399	1.61	8.82	3.78
15172	0.863	-0.317	0.411	3.15	11.34	0.98
15191	0.861	-0.324	0.413	3.71	13.79	-2.1
15213	0.859	-0.311	0.415	3.64	17.85	-5.53
15232	0.853	-0.315	0.416	3.43	19.81	-7.77
15251	0.858	-0.302	0.421	5.88	22.61	-8.96
15269	0.859	-0.271	0.436	5.6	25.83	-9.66
15289	0.86	-0.264	0.429	3.5	29.33	-10.92
15313	0.846	-0.269	0.431	4.9	32.34	-13.3
15332	0.825	-0.261	0.435	9.31	33.25	-15.26
15352	0.827	-0.227	0.443	14.14	34.16	-16.45
15374	0.823	-0.212	0.442	17.99	35.49	-16.17
15393	0.825	-0.182	0.444	19.46	38.85	-14.84
15413	0.79	-0.166	0.45	19.53	42.56	-14.35
15438	0.767	-0.166	0.426	21.56	44.87	-12.18
15456	0.751	-0.169	0.426	25.41	46.9	-10.36
15480	0.773	-0.14	0.446	28.21	54.32	-7.98
15497	0.72	-0.127	0.46	28.07	60.27	-6.65
15516	0.662	-0.135	0.452	26.74	62.37	-5.25
15541	0.621	-0.174	0.438	34.37	62.09	-3.22
15561	0.653	-0.179	0.448	44.31	65.52	-3.08
15580	0.647	-0.129	0.507	46.62	75.74	-4.62
15604	0.535	-0.155	0.565	44.66	79.1	-8.33
15624	0.455	-0.213	0.594	60.76	69.09	-9.73
15642	0.492	-0.239	0.582	83.72	65.38	-7.98
15664	0.57	-0.109	0.641	95.34	72.66	-10.43
15683	0.489	-0.028	0.756	89.32	91.21	-17.36
15708	0.3	-0.003	0.733	92.33	84.35	-22.05
15728	0.391	-0.022	0.77	105.21	83.02	-31.5
15750	0.405	0.049	0.687	95.34	86.45	-40.04
15773	0.423	0.184	0.649	85.05	101.43	-48.44
15793	0.266	0.278	0.74	61.74	115.71	-57.4
15814	0.169	0.27	0.818	46.9	118.51	-59.71
15837	0.183	0.278	0.784	41.02	120.75	-62.3
15857	0.162	0.308	0.74	43.61	132.37	-64.68
15879	0.025	0.333	0.792	46.83	139.51	-65.8
15899	-0.047	0.414	0.825	43.12	140.42	-67.83
15923	-0.032	0.464	0.778	38.08	145.39	-62.79
15942	-0.069	0.565	0.727	27.86	167.16	-60.13
15963	-0.218	0.49	0.829	24.08	169.12	-50.33
15981	-0.374	0.38	0.752	44.73	142.59	-38.5
16004	-0.273	0.464	0.617	67.76	151.34	-29.54
16020	-0.338	0.54	0.667	74.55	163.73	-25.83
16040	-0.578	0.58	0.896	62.51	157.15	-30.73
16064	-0.576	0.518	0.834	51.17	142.03	-31.71
16085	-0.407	0.561	0.559	71.12	179.97	-35.14
16100	-0.518	0.471	0.55	83.3	158.48	-37.8
16125	-0.691	0.588	0.705	86.66	160.51	-37.73
16144	-0.897	0.619	0.779	80.85	148.05	-43.61
16160	-0.813	0.57	0.675	80.92	135.87	-44.45
16185	-0.753	0.587	0.598	88.2	137.41	-49.21
16205	-0.845	0.612	0.651	88.9	147.07	-51.73
16225	-1.013	0.606	0.688	89.39	142.17	-53.76
16244	-1.041	0.562	0.599	96.32	136.29	-56.91
16264	-1.02	0.642	0.568	100.31	136.85	-64.82
16289	-1.15	0.762	0.583	90.65	137.48	-74.55
16313	-1.199	0.774	0.498	66.5	122.71	-80.64
16331	-1.149	0.763	0.47	43.75	117.95	-80.78
16351	-1.127	0.732	0.456	24.36	119.91	-77.07
16373	-1.223	0.615	0.546	1.61	115.85	-72.45
16397	-1.155	0.446	0.478	12.81	98.42	-61.88
16413	-1.145	0.419	0.384	32.13	94.99	-56.91
16433	-1.191	0.443	0.344	56.56	84.21	-49.21
16457	-1.146	0.489	0.338	69.02	71.68	-39.34
16475	-1.143	0.528	0.318	71.89	64.05	-32.83
16495	-1.124	0.574	0.295	64.75	55.23	-27.02
16514	-1.102	0.599	0.264	48.09	48.44	-23.66
16534	-1.07	0.584	0.23	29.75	41.37	-21.0
16558	-1.046	0.552	0.178	11.48	34.09	-16.73
16576	-1.02	0.523	0.136	1.19	29.75	-13.44
16597	-0.998	0.49	0.101	-4.76	26.6	-9.8
16620	-0.986	0.468	0.069	-8.75	23.66	-5.53
16638	-0.975	0.447	0.045	-11.13	22.61	-2.31
16658	-0.96	0.437	0.014	-13.65	21.14	1.26
16683	-0.94	0.42	-0.022	-13.65	20.09	3.64
16702	-0.942	0.412	-0.03	-14.21	18.97	4.83
16720	-0.937	0.401	-0.048	-13.72	16.45	5.32
16742	-0.939	0.385	-0.055	-12.18	13.44	5.46
16762	-0.935	0.368	-0.059	-7.07	9.66	6.37
16782	-0.932	0.368	-0.059	-2.73	7.91	6.72
16800	-0.93	0.377	-0.053	-1.75	8.12	5.95
16819	-0.953	0.389	-0.058	-3.92	7.28	4.83
16844	-0.96	0.388	-0.068	-9.1	5.67	4.06
16862	-0.973	0.373	-0.069	-11.34	4.34	4.2
16886	-0.961	0.354	-0.071	-11.9	3.36	5.11
16906	-0.958	0.348	-0.075	-11.2	3.43	5.53
16925	-0.965	0.344	-0.074	-10.92	2.17	5.46
16945	-0.955	0.329	-0.076	-9.8	-0.42	5.25
16965	-0.94	0.319	-0.081	-5.81	-1.89	4.69
16988	-0.935	0.317	-0.086	-1.4	-3.99	3.5
17007	-0.936	0.328	-0.084	1.82	-4.27	1.75
17032	-0.94	0.335	-0.081	4.62	-5.6	-0.21
17052	-0.942	0.346	-0.084	6.02	-6.23	-2.1
17070	-0.946	0.351	-0.074	7.07	-5.81	-3.43
17091	-0.956	0.364	-0.044	8.47	-4.69	-4.13
17114	-0.981	0.369	0.022	10.5	-5.32	-5.11
17135	-1.045	0.499	0.1	15.89	-9.87	-4.2
17155	-1.041	0.45	0.198	15.26	-11.41	-7.21
17174	-1.124	0.586	0.418	-2.17	-13.16	-16.1
17199	-1.248	0.612	0.529	-34.37	-30.73	-20.3
17219	-1.277	0.592	0.529	-45.5	-46.27	-17.08
17239	-1.384	0.679	0.563	-46.69	-60.41	-11.55
17259	-1.515	0.72	0.588	-52.15	-87.57	0.35
17278	-1.5	0.707	0.612	-52.22	-113.89	16.8
17303	-1.553	0.767	0.634	-50.12	-139.65	53.48
17322	-1.641	0.842	0.604	-65.03	-162.89	46.2
17341	-1.625	0.823	0.543	-74.2	-180.25	54.6
17360	-1.646	0.776	0.508	-78.68	-191.8	60.41
17384	-1.629	0.774	0.472	-75.67	-207.06	68.11
17403	-1.603	0.822	0.464	-76.44	-217.7	71.96
17424	-1.568	0.797	0.355	-83.65	-228.83	75.67
17444	-1.494	0.788	0.3	-90.79	-236.39	77.7
17464	-1.376	0.788	0.294	-101.22	-238.84	78.12
17488	-1.287	0.759	0.312	-117.04	-235.34	71.75
17508	-1.2	0.712	0.352	-130.55	-232.89	62.44
17528	-1.106	0.608	0.318	-134.26	-227.92	56.56
17547	-1.015	0.522	0.332	-133.28	-226.59	50.82
17568	-0.859	0.399	0.346	-119.21	-225.33	48.58
17588	-0.696	0.316	0.382	-105.77	-217.56	45.15
17612	-0.608	0.243	0.425	-84.77	-211.47	44.24
17629	-0.497	0.224	0.472	-73.64	-201.95	39.83
17649	-0.447	0.204	0.429	-64.05	-199.64	37.38
17673	-0.261	0.194	0.438	-63.91	-195.16	35.49
17690	-0.154	0.15	0.493	-61.81	-179.13	30.17
17712	-0.139	0.074	0.58	-64.54	-196.77	43.12
17736	-0.0	0.067	0.478	-44.87	-164.85	30.31
17756	0.116	0.06	0.517	-42.63	-158.55	27.72
17780	0.163	0.038	0.548	-38.99	-144.76	28.91
17799	0.212	0.063	0.607	-46.13	-136.64	27.09
17820	0.251	0.017	0.609	-51.45	-128.87	28.42
17840	0.291	-0.059	0.582	-51.03	-126.63	31.99
17860	0.367	-0.082	0.549	-46.9	-126.49	32.76
17880	0.461	-0.104	0.537	-35.0	-114.87	39.13
17900	0.58	-0.117	0.578	-32.9	-109.27	39.2
17918	0.598	-0.145	0.608	-24.57	-140.77	50.33
17937	0.597	-0.085	0.547	-28.35	-90.09	25.9
17962	0.744	-0.14	0.53	-27.37	-89.11	22.05
17981	0.701	-0.182	0.529	-26.25	-79.52	20.16
18005	0.677	-0.17	0.517	-22.54	-76.44	16.24
18025	0.693	-0.153	0.529	-23.17	-71.47	14.28
18045	0.729	-0.157	0.521	-23.17	-66.29	13.23
18060	0.727	-0.157	0.514	-24.64	-61.39	12.95
18083	0.73	-0.186	0.52	-28.56	-59.64	12.74
18105	0.747	-0.22	0.486	-25.83	-56.42	12.67
18124	0.772	-0.216	0.472	-24.08	-55.58	13.16
18145	0.79	-0.236	0.464	-20.86	-51.31	13.3
18169	0.771	-0.313	0.392	-14.91	-65.59	23.73
18188	0.843	-0.231	0.383	-12.04	-45.08	13.86
18213	0.878	-0.273	0.357	-7.42	-42.14	10.08
18228	0.877	-0.266	0.352	-4.2	-38.5	7.77
18249	0.871	-0.248	0.337	-2.52	-34.02	6.23
18272	0.906	-0.248	0.357	-2.66	-28.91	5.32
18293	0.902	-0.256	0.346	-1.19	-22.89	4.34
18314	0.89	-0.269	0.332	2.66	-19.53	5.32
18334	0.865	-0.262	0.4	11.06	-24.5	5.53
18354	0.851	-0.234	0.378	-2.73	-8.54	2.03
18378	0.902	-0.278	0.379	0.56	-3.43	2.94
18398	0.89	-0.264	0.397	0.91	-1.89	2.52
18414	0.89	-0.304	0.407	5.6	0.42	1.75
18438	0.88	-0.275	0.43	8.4	3.22	-0.49
18458	0.861	-0.248	0.457	4.97	3.01	-2.1
18473	0.859	-0.249	0.472	3.85	3.64	-2.8
18496	0.854	-0.242	0.488	2.94	4.62	-2.94
18518	0.852	-0.247	0.511	0.14	5.74	-3.71
18534	0.845	-0.248	0.514	1.05	6.3	-4.13
18554	0.842	-0.238	0.54	-1.47	5.18	-4.76
18578	0.839	-0.258	0.546	-1.05	3.71	-5.39
18593	0.835	-0.26	0.51	3.43	1.75	-5.32
18618	0.848	-0.27	0.483	10.01	2.73	-5.81
18638	0.852	-0.251	0.478	16.03	3.92	-6.23
18658	0.854	-0.219	0.452	17.01	4.41	-6.58
18681	0.856	-0.213	0.42	16.38	7.07	-6.86
18702	0.855	-0.221	0.366	17.43	11.48	-6.23
18721	0.843	-0.209	0.337	19.53	16.8	-4.83
18738	0.828	-0.203	0.318	19.95	20.72	-3.64
18762	0.82	-0.207	0.29	23.59	29.05	-1.12
18782	0.801	-0.191	0.279	26.32	37.1	0.49
18802	0.789	-0.213	0.28	29.82	42.42	2.31
18820	0.843	-0.221	0.315	34.65	50.82	2.24
18837	0.842	-0.206	0.345	36.96	62.93	1.47
18858	0.783	-0.185	0.386	37.1	68.04	-2.38
18882	0.735	-0.174	0.426	35.07	72.1	-7.7
18903	0.675	-0.159	0.455	32.69	72.8	-11.27
18921	0.639	-0.184	0.478	36.26	73.08	-12.53
18939	0.614	-0.178	0.481	46.27	76.51	-11.62
18962	0.577	-0.124	0.5	54.32	80.5	-11.83
18986	0.572	-0.083	0.537	56.14	86.1	-13.02
19006	0.529	-0.053	0.56	55.79	92.26	-15.05
19024	0.357	-0.096	0.622	61.04	92.4	-16.52
19047	0.337	-0.107	0.567	81.69	77.49	-15.61
19068	0.52	0.015	0.584	86.66	94.99	-19.67
19087	0.393	0.102	0.704	76.02	102.41	-22.75
19107	0.313	0.134	0.711	60.76	104.93	-25.76
19128	0.297	0.135	0.64	55.23	113.33	-32.83
19148	0.279	0.172	0.608	54.53	125.93	-34.23
19173	0.181	0.253	0.66	41.65	138.81	-33.18
19191	0.047	0.291	0.768	31.08	148.05	-36.96
19212	0.084	0.193	0.727	22.26	141.19	-26.95
19232	0.07	0.201	0.62	49.42	155.68	-25.48
19252	-0.066	0.247	0.672	64.61	157.15	-26.32
19270	-0.069	0.278	0.69	73.15	160.23	-26.39
19289	-0.147	0.38	0.702	82.39	169.89	-31.43
19309	-0.275	0.416	0.824	73.08	179.55	-40.81
19333	-0.334	0.426	0.827	67.83	170.38	-48.23
19353	-0.382	0.405	0.735	75.04	168.63	-52.5
19373	-0.451	0.35	0.672	100.66	177.73	-50.12
19397	-0.604	0.461	0.679	127.19	187.11	-50.33
19415	-0.763	0.59	0.793	132.44	173.74	-53.34
19437	-0.788	0.657	0.789	119.28	165.13	-57.75
19460	-0.803	0.68	0.652	111.93	162.68	-60.27
19479	-0.841	0.684	0.623	111.02	170.66	-63.49
19504	-1.114	0.741	0.725	102.76	169.89	-92.96
19524	-1.132	0.689	0.619	87.99	163.8	-63.0
19543	-1.067	0.726	0.585	88.2	157.15	-61.39
19564	-1.131	0.729	0.603	77.91	155.47	-63.07
19582	-1.2	0.724	0.577	70.84	153.3	-66.36
19602	-1.282	0.656	0.551	68.95	140.77	-68.46
19622	-1.235	0.598	0.529	76.51	124.18	-67.2
19642	-1.18	0.624	0.515	90.86	119.84	-64.26
19666	-1.245	0.697	0.51	92.54	115.08	-61.81
19686	-1.245	0.745	0.489	76.86	106.75	-59.71
19701	-1.238	0.745	0.425	65.38	98.07	-56.28
19726	-1.214	0.723	0.375	46.76	88.13	-49.14
19746	-1.155	0.655	0.357	35.56	76.72	-40.11
19765	-1.121	0.618	0.334	30.31	70.14	-31.78
19786	-1.085	0.573	0.306	24.71	61.46	-25.62
19806	-1.062	0.537	0.289	23.87	53.62	-22.61
19829	-1.04	0.523	0.259	22.96	44.03	-20.79
19848	-1.03	0.52	0.265	21.35	36.4	-19.95
19868	-1.014	0.502	0.244	21.84	30.31	-18.2
19892	-1.02	0.515	0.187	24.92	23.94	-14.91
19912	-1.011	0.526	0.141	21.35	19.46	-10.15
19932	-1.002	0.538	0.112	14.07	15.75	-6.02
19950	-0.994	0.517	0.08	4.62	10.92	-2.17
19974	-0.961	0.487	0.008	-2.45	5.18	3.43
19997	-0.929	0.465	-0.027	-4.83	3.99	6.51
20018	-0.929	0.451	-0.061	-7.35	3.43	8.05
20035	-0.915	0.441	-0.079	-10.01	4.41	8.61
20055	-0.909	0.438	-0.097	-14.91	4.55	8.89
20076	-0.902	0.397	-0.112	-14.21	4.55	8.4
20095	-0.888	0.387	-0.12	-13.3	5.88	7.77
20119	-0.9	0.369	-0.117	-11.27	5.88	5.81
20139	-0.901	0.372	-0.108	-10.85	5.88	4.48
20159	-0.906	0.372	-0.096	-10.43	8.82	2.52
20176	-0.923	0.367	-0.103	-9.94	8.47	2.03
20200	-0.933	0.353	-0.095	-7.84	8.75	0.77
20215	-0.931	0.353	-0.09	-6.02	8.26	0.7
20240	-0.936	0.357	-0.087	-2.73	8.4	0.35
20260	-0.938	0.357	-0.081	0.56	7.49	0.07
20280	-0.934	0.37	-0.077	1.19	7.56	-0.91
20299	-0.941	0.373	-0.079	1.89	6.51	-1.96
20323	-0.938	0.367	-0.08	4.27	3.15	-1.68
20341	-0.93	0.379	-0.074	8.82	1.47	-1.05
20361	-0.92	0.408	-0.084	9.03	0.35	-0.84
20385	-0.927	0.444	-0.09	3.78	1.05	-1.47
20405	-0.933	0.458	-0.097	-6.58	0.56	-2.03
20423	-0.915	0.428	-0.111	-13.3	1.19	-3.36
20445	-0.927	0.39	-0.119	-13.86	2.38	-3.99
20466	-0.954	0.373	-0.099	-9.24	2.38	-4.69
20489	-0.98	0.397	-0.022	-7.35	-1.12	-5.88
20510	-0.979	0.422	0.072	-11.62	-4.9	-9.1
20534	-0.999	0.435	0.142	-19.32	-6.86	-15.68
20555	-1.014	0.479	0.274	-38.5	-6.51	-22.54
20570	-1.161	0.49	0.314	-50.61	-20.09	-28.56
20589	-1.171	0.443	0.379	-62.02	-29.75	-30.8
20614	-1.268	0.449	0.452	-59.92	-45.36	-30.52
20634	-1.359	0.448	0.489	-56.21	-58.59	-25.9
20654	-1.398	0.44	0.514	-47.11	-77.63	-19.6
20674	-1.458	0.476	0.55	-38.99	-93.59	-11.48
20697	-1.521	0.491	0.534	-35.07	-118.16	-0.21
20716	-1.564	0.549	0.526	-31.92	-138.32	7.77
20736	-1.576	0.58	0.498	-31.64	-157.64	17.36
20760	-1.541	0.621	0.454	-34.86	-174.37	24.92
20780	-1.526	0.683	0.458	-42.28	-187.95	28.98
20800	-1.557	0.662	0.489	-54.81	-202.65	30.17
20824	-1.522	0.651	0.45	-55.37	-216.51	33.95
20844	-1.437	0.655	0.431	-52.08	-220.92	36.61
20863	-1.393	0.683	0.433	-55.72	-226.87	38.71
20883	-1.328	0.69	0.43	-65.66	-228.27	38.99
20904	-1.261	0.673	0.412	-72.8	-231.42	39.9
20925	-1.153	0.669	0.445	-85.4	-226.59	37.17
20949	-1.126	0.592	0.49	-93.17	-227.22	33.04
20969	-1.008	0.52	0.411	-88.2	-224.14	35.0
20989	-0.845	0.454	0.439	-81.13	-218.54	35.91
21013	-0.77	0.398	0.498	-76.86	-218.54	35.49
21033	-0.702	0.354	0.512	-70.35	-214.41	34.23
21053	-0.602	0.303	0.48	-69.93	-213.92	36.89
21073	-0.494	0.246	0.484	-59.15	-202.51	35.21
21093	-0.366	0.205	0.461	-51.8	-199.71	41.16
21109	-0.278	0.21	0.528	-47.11	-194.39	38.57
21133	-0.208	0.106	0.48	-45.57	-184.94	38.85
21153	-0.077	0.128	0.504	-53.97	-181.3	40.95
21177	0.031	0.022	0.461	-47.95	-173.95	38.08
21196	0.141	0.042	0.521	-48.65	-158.55	38.01
21215	0.224	-0.03	0.508	-43.26	-148.82	35.49
21235	0.292	-0.019	0.532	-37.87	-140.21	36.26
21260	0.346	-0.008	0.576	-43.82	-125.02	31.99
21279	0.386	-0.049	0.557	-45.99	-115.92	32.27
21298	0.426	-0.077	0.577	-38.99	-112.21	29.54
21321	0.362	0.0	0.612	-46.76	-109.13	24.29
21342	0.353	-0.112	0.645	-44.31	-117.95	30.17
21357	0.602	-0.099	0.629	-41.58	-108.01	34.51
21382	0.514	-0.141	0.577	-33.11	-96.88	30.31
21402	0.55	-0.194	0.569	-24.64	-90.37	31.57
21421	0.611	-0.204	0.565	-17.99	-91.21	35.0
21438	0.623	-0.17	0.558	-15.96	-89.6	33.25
21458	0.645	-0.194	0.56	-19.53	-86.73	35.0
21481	0.679	-0.217	0.523	-21.0	-84.35	33.18
21505	0.714	-0.261	0.474	-21.7	-83.16	31.29
21525	0.794	-0.334	0.421	-8.96	-77.49	29.82
21543	0.829	-0.313	0.408	-2.87	-68.18	28.77
21565	0.808	-0.257	0.404	-5.46	-61.04	22.19
21585	0.849	-0.274	0.381	-10.22	-57.96	17.01
21601	0.867	-0.299	0.352	-10.5	-50.47	13.02
21621	0.885	-0.318	0.35	-9.38	-40.81	8.26
21645	0.866	-0.308	0.349	-5.95	-35.63	6.44
21663	0.884	-0.314	0.334	-2.45	-29.26	5.6
21685	0.873	-0.33	0.316	4.83	-24.29	4.83
21704	0.901	-0.292	0.339	10.99	-17.5	3.15
21724	0.91	-0.248	0.374	6.72	-11.76	0.49
21745	0.876	-0.257	0.381	2.52	-7.84	-2.17
21767	0.874	-0.25	0.388	1.33	-3.43	-3.78
21789	0.855	-0.245	0.4	2.1	0.21	-4.06
21812	0.84	-0.225	0.421	0.49	2.38	-3.01
21829	0.839	-0.246	0.433	-2.8	2.87	-1.61
21853	0.873	-0.291	0.445	-0.28	6.16	-1.12
21871	0.851	-0.28	0.465	2.03	8.05	-1.82
21894	0.851	-0.279	0.484	3.29	8.19	-3.36
21915	0.848	-0.241	0.509	-0.98	9.17	-5.04
21935	0.838	-0.249	0.508	-4.83	7.35	-5.32
21959	0.847	-0.273	0.5	-4.27	8.19	-5.6
21979	0.846	-0.282	0.501	0.56	8.96	-6.02
21994	0.844	-0.292	0.51	5.53	10.15	-6.58
22015	0.839	-0.258	0.503	7.21	9.94	-7.56
22038	0.835	-0.252	0.497	6.72	10.64	-9.45
22055	0.83	-0.241	0.471	6.09	11.55	-9.59
22079	0.83	-0.259	0.453	7.7	13.79	-9.8
22099	0.818	-0.24	0.432	10.01	18.13	-9.38
22117	0.808	-0.253	0.389	12.32	21.07	-8.96
22141	0.808	-0.244	0.352	15.75	26.25	-8.89
22161	0.8	-0.234	0.322	16.17	31.22	-8.54
22177	0.79	-0.227	0.32	17.22	36.12	-8.68
22201	0.776	-0.229	0.311	18.2	41.86	-7.98
22220	0.756	-0.239	0.294	22.89	49.49	-7.07
22241	0.716	-0.254	0.304	32.9	55.09	-6.79
22260	0.664	-0.276	0.321	44.1	56.0	-7.21
22279	0.707	-0.228	0.357	53.97	57.19	-9.52
22303	0.689	-0.201	0.403	59.71	65.45	-13.65
22322	0.616	-0.166	0.43	65.03	68.53	-16.38
22342	0.587	-0.137	0.459	70.28	73.64	-18.13
22366	0.572	-0.112	0.449	80.22	82.67	-21.35
22389	0.504	-0.032	0.525	85.82	91.84	-22.75
22412	0.43	0.001	0.488	89.04	95.97	-26.11
22433	0.443	0.076	0.523	88.62	98.35	-26.67
22453	0.379	0.149	0.473	84.91	120.75	-28.98
22471	0.285	0.214	0.435	77.49	131.67	-30.59
22494	0.226	0.239	0.471	61.39	137.76	-34.37
22514	0.232	0.202	0.521	51.1	154.49	-36.47
22530	0.192	0.187	0.56	51.31	170.59	-41.86
22550	0.101	0.218	0.511	58.45	187.53	-46.76
22574	-0.046	0.272	0.506	61.32	198.87	-53.97
22594	-0.118	0.344	0.578	63.84	207.76	-55.65
22614	-0.281	0.481	0.708	54.53	222.95	-73.71
22637	-0.323	0.344	0.688	57.89	207.97	-63.28
22658	-0.403	0.459	0.594	77.14	230.44	-65.94
22676	-0.622	0.508	0.685	80.71	235.97	-70.14
22696	-0.792	0.571	0.799	78.75	223.37	-67.41
22717	-0.74	0.58	0.843	69.02	219.38	-69.65
22741	-0.898	0.512	0.756	95.69	220.85	-85.54
22761	-1.059	0.519	0.67	101.15	206.15	-66.5
22778	-1.112	0.585	0.684	105.84	193.9	-62.3
22800	-1.096	0.647	0.712	106.68	187.04	-58.73
22824	-1.185	0.68	0.588	99.96	191.59	-60.97
22843	-1.328	0.707	0.682	87.15	195.23	-66.08
22861	-1.403	0.697	0.677	64.12	175.49	-67.62
22880	-1.329	0.603	0.624	60.34	167.51	-70.63
22905	-1.362	0.473	0.526	59.08	160.09	-61.46
22925	-1.406	0.623	0.513	57.96	154.14	-55.16
22945	-1.397	0.617	0.558	47.88	143.43	-47.46
22965	-1.36	0.566	0.574	41.37	129.22	-40.46
22985	-1.306	0.502	0.493	44.1	115.78	-31.22
23002	-1.271	0.482	0.443	49.84	107.24	-25.13
23024	-1.264	0.459	0.385	61.04	87.57	-13.93
23048	-1.189	0.46	0.37	78.89	74.13	-3.71
23068	-1.136	0.508	0.352	83.72	67.27	2.52
23086	-1.118	0.551	0.34	76.86	60.48	2.17
23110	-1.104	0.574	0.32	58.24	47.25	1.4
23130	-1.063	0.569	0.288	41.02	40.6	-3.15
23148	-1.05	0.558	0.257	26.39	33.46	-5.46
23165	-1.047	0.521	0.224	16.73	26.11	-7.0
23189	-1.029	0.489	0.177	9.1	17.85	-7.21
23209	-1.002	0.469	0.152	5.95	12.32	-6.16
23233	-0.991	0.459	0.115	4.13	5.67	-3.71
23253	-0.979	0.46	0.052	2.73	2.24	-2.87
23273	-0.962	0.456	0.019	-0.91	-1.26	-1.68
23296	-0.945	0.436	-0.02	-3.29	-4.48	-0.56
23315	-0.928	0.427	-0.037	-3.78	-6.02	0.98
23335	-0.909	0.408	-0.074	-2.94	-6.72	3.22
23359	-0.899	0.406	-0.103	-0.63	-5.32	5.25
23379	-0.892	0.403	-0.12	0.35	-3.36	6.23
23399	-0.895	0.406	-0.116	0.63	-1.4	5.95
23423	-0.891	0.4	-0.102	-3.99	2.31	5.18
23442	-0.898	0.401	-0.112	-3.99	3.85	3.78
23461	-0.911	0.393	-0.105	-6.23	5.25	2.94
23483	-0.927	0.371	-0.089	-6.16	6.37	2.8
23502	-0.936	0.368	-0.074	-4.9	6.58	3.08
23527	-0.944	0.365	-0.053	-4.48	5.46	2.45
23547	-0.951	0.36	-0.04	-4.76	3.99	1.68
23568	-0.964	0.365	-0.026	-6.09	1.4	-0.49
23586	-0.971	0.359	-0.007	-4.83	-0.14	-2.59
23607	-0.987	0.372	0.04	-4.41	-1.54	-5.88
23626	-1.012	0.378	0.101	-3.36	-5.53	-7.63
23645	-1.02	0.389	0.121	-2.94	-8.82	-9.24
23669	-1.068	0.457	0.247	-7.21	-14.7	-11.97
23689	-1.139	0.552	0.4	-25.83	-22.96	-16.38
23709	-1.211	0.573	0.462	-44.52	-34.3	-18.69
23727	-1.273	0.601	0.508	-60.83	-46.69	-20.44
23746	-1.34	0.618	0.605	-75.18	-61.74	-21.77
23770	-1.406	0.587	0.702	-82.88	-77.91	-18.13
23790	-1.493	0.574	0.753	-81.41	-98.7	-9.03
23811	-1.567	0.571	0.764	-73.71	-121.66	1.54
23830	-1.648	0.62	0.689	-66.99	-147.28	10.01
23854	-1.663	0.668	0.633	-60.69	-173.18	16.59
23874	-1.67	0.73	0.598	-64.26	-194.81	21.0
23894	-1.711	0.737	0.58	-73.01	-215.81	25.41
23915	-1.681	0.658	0.522	-67.27	-229.11	32.76
23933	-1.667	0.626	0.466	-51.38	-238.63	43.61
23956	-1.556	0.693	0.404	-45.22	-248.08	57.26
23976	-1.48	0.736	0.41	-54.11	-250.39	62.02
24000	-1.411	0.739	0.421	-81.48	-249.06	60.2
24018	-1.303	0.71	0.42	-103.81	-244.86	55.58
24036	-1.185	0.646	0.469	-118.65	-236.81	46.34
24059	-1.104	0.622	0.469	-138.53	-229.53	36.75
24083	-1.009	0.511	0.464	-152.11	-223.23	27.09
24103	-0.958	0.409	0.482	-152.25	-225.12	23.1
24122	-0.841	0.251	0.443	-136.5	-226.1	21.49
24143	-0.655	0.128	0.358	-99.33	-226.31	25.97
24161	-0.597	0.142	0.348	-77.98	-227.92	28.0
24180	-0.464	0.163	0.365	-68.46	-232.82	28.28
24204	-0.251	0.094	0.386	-57.26	-222.6	27.16
24224	-0.125	0.093	0.417	-49.91	-213.92	23.31
24242	-0.042	0.046	0.398	-50.82	-207.55	35.98
24266	0.103	0.057	0.425	-38.78	-187.46	28.07
24285	0.153	-0.007	0.385	-42.35	-183.33	27.65
24305	0.268	-0.033	0.387	-41.44	-172.13	24.15
24329	0.364	-0.085	0.343	-42.21	-162.12	33.18
24349	0.421	-0.077	0.378	-39.06	-140.07	28.56
24367	0.427	-0.122	0.359	-39.2	-131.88	29.89
24387	0.485	-0.18	0.355	-37.03	-125.51	30.87
24410	0.551	-0.224	0.342	-30.45	-115.57	34.79
24434	0.598	-0.33	0.401	-29.96	-123.06	32.41
24454	0.73	-0.323	0.289	-11.41	-100.38	42.21
24471	0.66	-0.21	0.306	-14.98	-87.57	34.02
24495	0.72	-0.309	0.308	-22.4	-80.78	31.85
24515	0.771	-0.329	0.334	-21.56	-68.74	29.54
24535	0.758	-0.33	0.334	-18.69	-61.25	26.53
24554	0.774	-0.379	0.319	-21.0	-56.42	23.31
24573	0.838	-0.409	0.359	-17.5	-50.26	19.39
24591	0.841	-0.435	0.366	-13.09	-44.45	14.91
24610	0.863	-0.429	0.383	-6.3	-37.38	9.31
24635	0.874	-0.386	0.394	-4.62	-29.33	1.82
24655	0.865	-0.363	0.417	-6.09	-25.9	-3.85
24674	0.852	-0.361	0.435	-10.15	-23.31	-8.05
24695	0.888	-0.366	0.428	-6.02	-17.99	-11.48
24713	0.882	-0.337	0.428	-0.84	-12.88	-12.88
24737	0.845	-0.286	0.448	2.8	-10.22	-12.25
24757	0.848	-0.251	0.447	1.12	-7.7	-10.22
24776	0.834	-0.271	0.429	2.03	-6.02	-7.84
24800	0.846	-0.274	0.427	6.79	-4.48	-3.57
24819	0.861	-0.253	0.431	11.06	-0.63	-0.77
24839	0.86	-0.243	0.447	10.71	2.87	0.49
24858	0.846	-0.21	0.456	2.73	1.82	0.21
24879	0.867	-0.28	0.447	-3.64	1.75	-0.28
24901	0.871	-0.293	0.452	-0.14	5.25	-1.33
24922	0.864	-0.292	0.454	2.45	7.56	-1.12
24943	0.859	-0.281	0.46	3.5	10.43	-1.54
24962	0.839	-0.288	0.451	2.52	11.55	-2.38
24981	0.833	-0.307	0.448	3.57	13.79	-3.43
25006	0.821	-0.31	0.418	7.63	15.89	-4.48
25023	0.821	-0.305	0.413	10.08	18.41	-4.62
25047	0.815	-0.286	0.412	10.78	23.31	-4.69
25067	0.809	-0.291	0.402	10.92	27.72	-4.41
25087	0.813	-0.307	0.402	15.19	31.85	-5.18
25107	0.8	-0.286	0.399	16.87	36.75	-6.37
25126	0.789	-0.275	0.423	15.75	40.32	-8.68
25143	0.786	-0.273	0.419	14.84	44.94	-10.08
25162	0.78	-0.265	0.426	15.4	49.91	-11.27
25187	0.735	-0.254	0.436	18.9	56.56	-11.83
25202	0.711	-0.246	0.451	22.05	58.52	-11.83
25226	0.683	-0.234	0.495	25.97	61.25	-11.76
25245	0.63	-0.252	0.488	35.63	60.27	-9.8
25270	0.602	-0.245	0.475	50.47	56.84	-7.35
25288	0.599	-0.222	0.477	64.12	56.7	-6.16
25310	0.602	-0.16	0.512	72.24	60.83	-6.51
25329	0.554	-0.118	0.544	71.61	65.94	-7.56
25349	0.521	-0.094	0.57	70.49	69.16	-10.22
25367	0.507	-0.086	0.552	71.05	72.8	-13.16
25391	0.508	-0.042	0.548	74.83	83.58	-14.21
25410	0.406	-0.043	0.615	73.71	94.22	-16.17
25429	0.352	0.016	0.608	75.74	91.07	-19.18
25454	0.453	0.084	0.644	67.69	100.52	-26.04
25472	0.354	0.12	0.709	51.45	115.64	-30.52
25495	0.226	0.113	0.659	47.95	119.7	-28.21
25511	0.276	0.091	0.661	52.5	128.66	-26.81
25536	0.205	0.165	0.746	55.3	142.52	-29.05
25554	0.06	0.22	0.823	49.98	145.25	-31.29
25578	-0.006	0.157	0.808	53.62	145.6	-42.56
25597	0.067	0.228	0.741	59.85	137.48	-31.36
25617	-0.031	0.28	0.833	59.57	157.29	-39.62
25638	-0.181	0.307	0.868	61.32	158.06	-35.56
25658	-0.259	0.294	0.828	65.87	157.92	-42.98
25682	-0.304	0.25	0.598	80.99	161.56	-31.29
25702	-0.314	0.424	0.74	97.44	166.32	-39.06
25720	-0.465	0.511	0.92	83.44	165.83	-42.56
25742	-0.606	0.49	0.894	67.97	163.73	-47.11
25760	-0.544	0.471	0.798	72.94	180.39	-51.59
25781	-0.585	0.453	0.677	94.08	150.85	-34.51
25805	-0.672	0.546	0.756	103.6	157.85	-40.53
25825	-0.842	0.571	0.819	99.05	158.9	-44.17
25844	-0.945	0.52	0.731	103.81	148.05	-49.63
25868	-0.915	0.526	0.552	125.72	132.37	-48.09
25892	-0.895	0.601	0.577	142.45	125.37	-48.93
25912	-0.957	0.715	0.675	138.11	128.38	-58.03
25930	-1.072	0.773	0.702	123.55	126.35	-66.78
25950	-1.072	0.774	0.635	103.04	117.39	-74.9
25969	-0.994	0.757	0.585	92.26	123.34	-77.7
25992	-1.043	0.721	0.559	80.29	122.85	-77.91
26013	-1.105	0.745	0.539	71.68	124.46	-75.81
26034	-1.2	0.752	0.577	55.86	123.97	-76.23
26054	-1.164	0.671	0.558	42.0	109.34	-73.43
26075	-1.127	0.609	0.474	41.58	104.37	-69.51
26098	-1.156	0.576	0.407	44.17	88.69	-64.19
26118	-1.123	0.543	0.385	52.64	77.0	-55.79
26141	-1.1	0.543	0.354	60.83	68.74	-47.11
26163	-1.082	0.552	0.317	66.08	60.34	-40.53
26181	-1.065	0.576	0.293	63.21	54.74	-36.26
26205	-1.048	0.603	0.249	52.08	50.05	-32.69
26225	-1.041	0.613	0.201	29.19	43.68	-31.15
26245	-1.029	0.591	0.161	11.83	39.97	-28.7
26263	-1.017	0.551	0.121	-2.59	36.4	-25.76
26283	-0.99	0.515	0.068	-10.71	35.14	-20.93
26305	-0.991	0.47	0.026	-16.45	32.2	-16.45
26329	-0.976	0.435	-0.01	-16.94	29.05	-8.19
26349	-0.955	0.431	-0.026	-14.91	29.19	-3.71
26369	-0.947	0.42	-0.054	-15.4	28.0	0.49
26389	-0.919	0.369	-0.067	-16.59	26.74	3.5
26409	-0.912	0.373	-0.081	-9.17	24.08	6.16
26429	-0.927	0.349	-0.07	-4.55	20.44	7.7
26450	-0.929	0.335	-0.051	3.15	17.43	7.91
26470	-0.95	0.319	-0.014	15.54	14.49	8.12
26494	-0.978	0.333	0.011	24.08	9.45	8.12
26513	-1.011	0.358	0.024	25.76	5.46	7.21
26532	-1.026	0.396	0.007	17.85	1.05	4.13
26556	-1.032	0.423	-0.01	-0.35	-3.78	-0.77
26580	-0.994	0.37	-0.05	-16.45	-8.12	-2.94
26604	-0.957	0.352	-0.078	-19.95	-5.46	-6.37
26624	-0.954	0.362	-0.067	-22.26	-4.34	-9.45
26639	-0.942	0.355	-0.057	-23.24	-4.9	-11.69
26664	-0.93	0.349	-0.041	-21.7	-6.09	-13.65
26680	-0.938	0.329	-0.024	-15.96	-8.54	-13.23
26704	-0.966	0.322	-0.0	-7.14	-12.67	-10.36
26723	-0.999	0.324	0.05	5.39	-16.73	-8.47
26742	-1.022	0.352	0.095	16.38	-20.44	-6.51
26766	-1.045	0.446	0.178	16.87	-23.45	-5.39
26790	-1.133	0.536	0.305	3.78	-27.44	-7.84
26810	-1.192	0.568	0.378	-24.43	-38.57	-8.54
26830	-1.296	0.586	0.485	-40.25	-45.43	-7.84
26854	-1.41	0.598	0.565	-49.77	-55.58	-2.8
26874	-1.484	0.555	0.596	-52.01	-75.81	5.04
26894	-1.5	0.592	0.589	-51.87	-92.61	14.28
26913	-1.604	0.634	0.567	-53.76	-120.96	22.89
26934	-1.625	0.7	0.549	-55.65	-147.42	29.89
26954	-1.666	0.719	0.538	-62.93	-167.79	34.65
26971	-1.671	0.691	0.511	-60.27	-190.05	39.06
26991	-1.644	0.698	0.452	-52.01	-207.69	47.18
27012	-1.609	0.778	0.376	-46.97	-220.01	57.26
27036	-1.577	0.795	0.346	-55.86	-229.95	67.48
27056	-1.538	0.795	0.303	-68.88	-236.32	75.18
27076	-1.453	0.738	0.327	-83.3	-236.74	78.26
27098	-1.377	0.665	0.358	-94.85	-236.04	82.32
27117	-1.31	0.64	0.426	-103.74	-229.39	80.92
27142	-1.209	0.549	0.329	-100.31	-225.82	80.36
27162	-1.097	0.543	0.362	-105.35	-224.91	77.91
27180	-1.014	0.466	0.432	-108.78	-224.35	75.32
27204	-0.932	0.375	0.425	-105.63	-223.93	76.44
27223	-0.771	0.289	0.412	-93.87	-218.68	74.83
27242	-0.605	0.251	0.434	-81.97	-212.24	78.19
27266	-0.511	0.373	0.509	-95.06	-204.33	63.21
27281	-0.428	0.332	0.499	-114.17	-204.61	53.76
27305	-0.258	0.168	0.557	-105.07	-187.67	41.37
27328	-0.251	0.023	0.443	-86.03	-195.3	43.96
27352	-0.081	0.029	0.458	-62.79	-193.48	51.38
27371	0.022	0.107	0.444	-59.43	-183.19	49.7
27391	0.098	0.077	0.47	-68.18	-176.82	44.52
27415	0.186	-0.067	0.446	-64.68	-171.71	48.58
27435	0.294	-0.125	0.399	-46.48	-163.31	45.22
27455	0.437	-0.033	0.47	-50.05	-150.99	39.2
27474	0.415	-0.111	0.442	-57.75	-134.54	42.28
27493	0.497	-0.232	0.409	-52.99	-141.82	41.09
27517	0.501	-0.186	0.398	-51.24	-123.2	32.55
27538	0.636	-0.296	0.392	-39.69	-110.18	27.65
27558	0.61	-0.244	0.35	-31.15	-96.32	20.86
27578	0.633	-0.226	0.391	-34.93	-94.5	18.97
27598	0.703	-0.247	0.358	-28.42	-87.43	16.94
27618	0.694	-0.261	0.324	-28.49	-80.99	17.57
27641	0.772	-0.286	0.319	-28.07	-72.66	16.66
27662	0.76	-0.323	0.336	-22.96	-66.78	17.57
27682	0.807	-0.359	0.328	-16.45	-62.79	16.73
27706	0.835	-0.347	0.319	-10.29	-54.53	15.68
27726	0.861	-0.338	0.313	-11.97	-46.41	12.04
27742	0.85	-0.341	0.316	-12.04	-40.18	8.89
27766	0.868	-0.349	0.323	-9.38	-34.65	5.39
27785	0.89	-0.339	0.32	-2.73	-27.44	4.83
27809	0.875	-0.316	0.312	0.7	-22.26	4.48
27829	0.895	-0.316	0.347	3.92	-15.47	3.71
27846	0.917	-0.327	0.355	6.02	-10.92	2.17
27868	0.934	-0.289	0.353	9.38	-4.55	0.42
27892	0.916	-0.24	0.407	3.57	1.19	-3.22
27912	0.891	-0.246	0.43	-0.91	4.13	-4.83
27931	0.862	-0.242	0.438	-2.17	5.67	-4.41
27950	0.86	-0.259	0.452	-3.64	7.91	-3.92
27975	0.848	-0.263	0.453	-0.35	9.17	-2.31
27995	0.844	-0.267	0.468	-0.35	10.78	-1.89
28012	0.834	-0.277	0.461	0.28	10.92	-2.1
28036	0.834	-0.291	0.454	1.12	11.06	-2.8
28056	0.838	-0.3	0.437	5.74	12.95	-3.57
28076	0.829	-0.287	0.409	5.88	13.23	-4.06
28095	0.841	-0.299	0.396	5.88	16.31	-5.04
28116	0.84	-0.292	0.379	6.86	23.03	-6.44
28132	0.835	-0.285	0.365	5.95	27.65	-7.42
28156	0.831	-0.292	0.346	6.93	34.51	-9.03
28176	0.82	-0.281	0.337	8.68	41.23	-10.5
28196	0.803	-0.257	0.313	8.33	48.09	-10.43
28216	0.811	-0.247	0.321	8.33	56.63	-9.73
28236	0.789	-0.235	0.351	8.82	67.27	-7.84
28258	0.744	-0.227	0.382	9.52	75.67	-5.67
28278	0.692	-0.232	0.388	15.61	80.15	-4.83
28302	0.649	-0.209	0.401	24.5	83.16	-3.85
28322	0.624	-0.212	0.423	30.52	85.89	-2.03
28342	0.562	-0.191	0.441	38.36	88.69	0.28
28366	0.53	-0.167	0.44	47.67	92.33	2.31
28383	0.508	-0.141	0.455	52.08	97.93	2.87
28403	0.467	-0.1	0.46	53.55	105.91	2.94
28427	0.369	-0.085	0.517	52.15	111.93	3.36
28446	0.304	-0.078	0.513	53.55	113.12	3.99
28467	0.341	-0.05	0.567	54.6	124.53	7.21
28487	0.242	0.002	0.65	50.4	131.6	6.3
28502	0.132	0.0	0.675	44.38	133.49	5.67
28527	0.025	-0.163	0.62	70.21	123.62	7.07
28546	0.2	-0.086	0.737	85.54	119.35	2.03
28567	0.26	-0.009	0.801	89.6	150.43	-10.92
28587	0.0	0.031	0.821	96.95	154.49	-21.28
28607	-0.06	0.015	0.71	100.73	152.46	-31.22
28624	-0.088	0.104	0.706	116.69	155.47	-38.01
28647	-0.094	0.291	0.727	119.28	165.2	-48.3
28665	-0.271	0.367	0.83	106.12	183.82	-57.75
28684	-0.469	0.337	0.822	97.16	181.37	-59.5
28708	-0.454	0.381	0.727	99.54	175.14	-65.94
28729	-0.44	0.501	0.723	89.53	193.06	-72.87
28744	-0.568	0.498	0.77	76.58	201.6	-70.84
28767	-0.82	0.433	0.808	75.81	197.05	-69.37
28790	-0.861	0.424	0.696	87.85	181.3	-62.58
28814	-0.856	0.473	0.677	98.28	185.57	-57.89
28834	-0.977	0.578	0.702	107.94	197.4	-57.33
28853	-1.189	0.604	0.736	89.74	169.19	-54.39
28876	-1.077	0.533	0.677	91.7	157.71	-48.93
28895	-1.124	0.616	0.607	102.27	184.24	-75.81
28919	-1.167	0.464	0.58	88.9	164.22	-46.62
28939	-1.288	0.692	0.641	72.1	146.09	-52.29
28959	-1.206	0.583	0.569	62.16	138.6	-53.34
28983	-1.209	0.545	0.479	65.94	134.54	-53.27
28998	-1.242	0.543	0.411	72.45	126.77	-50.12
29023	-1.2	0.58	0.402	78.33	118.02	-46.9
29042	-1.157	0.644	0.51	63.14	114.94	-49.42
29067	-1.196	0.615	0.481	46.06	111.23	-47.11
29087	-1.211	0.575	0.426	32.13	104.51	-46.34
29107	-1.25	0.499	0.349	30.66	87.29	-37.03
29122	-1.202	0.425	0.319	41.16	75.32	-28.35
29143	-1.191	0.38	0.243	54.32	63.7	-15.47
29163	-1.154	0.431	0.267	63.91	54.46	-2.8
29187	-1.117	0.456	0.262	66.5	46.76	6.51
29207	-1.099	0.483	0.251	59.92	40.18	9.73
29227	-1.076	0.502	0.234	46.83	36.33	8.61
29251	-1.065	0.495	0.206	28.7	31.22	5.46
29269	-1.044	0.489	0.178	15.96	27.93	2.66
29293	-1.035	0.47	0.157	2.24	23.52	0.56
29313	-1.021	0.442	0.122	-8.26	18.27	0.21
29332	-1.005	0.418	0.096	-12.95	14.35	0.77
29356	-1.004	0.388	0.057	-14.42	7.42	3.29
29373	-0.987	0.372	0.016	-10.5	1.89	5.32
29393	-0.979	0.37	-0.001	-5.81	-2.38	7.91
29415	-0.967	0.376	-0.029	-3.01	-5.53	10.85
29434	-0.947	0.377	-0.05	-2.8	-6.3	12.11
29458	-0.93	0.373	-0.077	-2.73	-5.18	12.32
29479	-0.924	0.374	-0.091	-5.32	-3.92	11.27
29495	-0.919	0.375	-0.098	-7.07	-2.87	9.52
29518	-0.914	0.375	-0.122	-10.29	-0.63	6.09
29538	-0.92	0.381	-0.125	-14.42	1.47	3.22
29562	-0.913	0.368	-0.125	-18.69	2.73	1.19
29582	-0.92	0.344	-0.112	-19.81	3.36	0.63
29602	-0.922	0.308	-0.1	-14.63	3.01	1.33
29626	-0.931	0.299	-0.081	-4.83	2.31	1.82
29643	-0.946	0.309	-0.055	0.35	0.63	1.47
29667	-0.963	0.315	-0.004	6.79	-0.98	-0.35
29687	-0.985	0.337	0.039	11.2	-3.22	-2.87
29706	-1.011	0.359	0.065	11.62	-5.18	-5.11
29725	-1.047	0.391	0.143	10.64	-8.75	-7.77
29747	-1.078	0.434	0.235	3.64	-16.38	-9.17
29767	-1.106	0.471	0.298	-3.71	-23.59	-9.73
29787	-1.157	0.522	0.349	-13.37	-30.31	-10.57
29811	-1.223	0.565	0.407	-26.6	-37.31	-12.04
29831	-1.256	0.573	0.412	-39.69	-50.68	-8.89
29849	-1.304	0.581	0.423	-50.89	-67.06	-5.95
29873	-1.355	0.558	0.463	-52.43	-83.65	3.15
29892	-1.43	0.541	0.537	-47.39	-96.25	14.84
29916	-1.496	0.584	0.527	-37.03	-115.92	33.25
29937	-1.509	0.698	0.544	-40.46	-137.9	45.71
29956	-1.553	0.757	0.547	-53.13	-152.18	52.57
29977	-1.588	0.775	0.556	-71.26	-172.69	55.58
29996	-1.556	0.733	0.543	-79.94	-186.69	56.07
30020	-1.559	0.718	0.533	-77.21	-199.78	56.7
30040	-1.516	0.722	0.509	-72.17	-212.52	58.45
30064	-1.457	0.791	0.462	-73.78	-219.52	58.38
30083	-1.422	0.811	0.462	-84.84	-226.94	58.45
30103	-1.35	0.781	0.421	-94.99	-233.03	58.59
30125	-1.23	0.772	0.438	-106.61	-230.09	58.03
30144	-1.165	0.72	0.452	-117.32	-230.72	55.44
30164	-1.101	0.641	0.46	-126.49	-231.21	52.64
30189	-0.972	0.534	0.411	-126.07	-230.37	50.96
30213	-0.889	0.495	0.431	-114.73	-227.57	50.68
30228	-0.767	0.39	0.471	-114.17	-229.32	50.82
30248	-0.625	0.369	0.464	-113.05	-220.99	47.25
30268	-0.495	0.314	0.498	-106.75	-209.79	44.8
30290	-0.411	0.231	0.428	-110.04	-211.61	42.84
30314	-0.265	0.209	0.454	-99.61	-195.86	35.56
30334	-0.222	0.109	0.464	-104.16	-198.59	28.84
30354	-0.124	0.061	0.356	-99.54	-209.09	36.4
30371	0.033	-0.02	0.32	-88.9	-196.56	26.04
30395	0.166	-0.076	0.358	-62.02	-192.08	26.18
30415	0.233	-0.122	0.33	-48.3	-184.38	28.21
30434	0.346	-0.074	0.342	-40.32	-158.48	32.13
30455	0.428	-0.026	0.398	-43.68	-141.54	28.14
30473	0.449	-0.126	0.328	-56.14	-138.88	25.41
30494	0.54	-0.222	0.325	-49.28	-128.66	41.86
30513	0.546	-0.215	0.274	-36.12	-113.05	30.8
30533	0.569	-0.331	0.03	-36.19	-118.3	33.46
30557	0.775	-0.34	0.347	-25.41	-94.57	25.41
30577	0.666	-0.226	0.303	-27.16	-85.33	29.4
30595	0.76	-0.353	0.348	-24.08	-74.9	27.79
30617	0.748	-0.381	0.363	-20.86	-67.2	23.45
30637	0.814	-0.398	0.402	-17.08	-52.57	19.46
30661	0.809	-0.346	0.421	-18.55	-44.03	11.62
30680	0.817	-0.363	0.446	-21.56	-38.08	6.3
30704	0.832	-0.364	0.446	-20.37	-32.69	0.98
30724	0.82	-0.348	0.453	-16.94	-27.65	-2.1
30744	0.805	-0.347	0.448	-12.67	-28.0	-3.22
30763	0.821	-0.33	0.431	-7.07	-25.2	-3.78
30786	0.793	-0.316	0.411	-3.5	-23.45	-2.94
30806	0.815	-0.313	0.411	3.5	-19.46	-1.47
30825	0.81	-0.292	0.4	6.09	-15.89	0.14
30845	0.842	-0.29	0.422	6.02	-12.25	0.14
30869	0.861	-0.274	0.434	2.03	-5.95	-0.7
30888	0.852	-0.299	0.44	-2.24	-2.8	-1.75
30906	0.869	-0.308	0.447	-1.96	0.77	-2.31
30926	0.869	-0.309	0.479	-1.68	4.69	-4.06
30946	0.845	-0.293	0.504	-0.84	6.02	-5.32
30969	0.838	-0.283	0.505	-1.26	5.18	-6.51
30990	0.826	-0.29	0.521	0.49	4.06	-6.23
31010	0.81	-0.276	0.511	4.48	3.22	-4.34
31029	0.818	-0.277	0.509	7.0	4.06	-2.31
31046	0.819	-0.262	0.508	8.89	5.81	-0.49
31070	0.822	-0.248	0.506	5.53	7.98	1.05
31090	0.83	-0.281	0.496	5.04	10.29	0.91
31105	0.822	-0.292	0.486	5.6	12.18	0.42
31130	0.826	-0.303	0.476	7.56	15.68	-1.33
31149	0.807	-0.303	0.466	8.33	17.57	-2.94
31173	0.804	-0.307	0.447	11.41	20.3	-4.69
31191	0.792	-0.312	0.423	14.84	23.31	-5.95
31212	0.784	-0.294	0.405	18.69	27.3	-6.37
31236	0.774	-0.273	0.404	19.18	33.32	-7.21
31256	0.76	-0.265	0.401	19.39	38.43	-7.35
31280	0.76	-0.261	0.42	18.2	45.71	-8.05
31298	0.754	-0.262	0.434	18.55	51.24	-8.47
31320	0.718	-0.268	0.445	21.07	57.4	-8.96
31335	0.703	-0.269	0.455	24.08	59.92	-8.89
31358	0.704	-0.246	0.477	29.89	66.08	-8.68
31378	0.635	-0.246	0.476	35.91	71.47	-8.05
31397	0.597	-0.236	0.47	46.62	73.01	-8.26
31420	0.569	-0.193	0.509	56.91	77.07	-10.85
31444	0.561	-0.15	0.521	59.92	79.52	-15.19
31464	0.542	-0.113	0.542	61.6	87.78	-17.36
31479	0.484	-0.079	0.557	60.55	93.66	-19.25
31504	0.441	-0.071	0.58	60.34	98.49	-21.07
31523	0.455	-0.041	0.597	60.34	107.8	-23.8
31543	0.319	-0.084	0.558	78.54	104.86	-22.61
31564	0.406	0.034	0.591	79.17	113.26	-26.6
31584	0.304	0.12	0.603	68.95	131.18	-28.98
31608	0.212	0.132	0.59	50.61	139.86	-32.41
31628	0.182	0.089	0.608	44.59	152.32	-34.79
31651	0.064	0.082	0.601	52.01	162.26	-36.47
31672	-0.067	0.087	0.539	69.37	159.95	-36.12
31690	-0.086	0.159	0.545	87.36	170.1	-41.58
31710	-0.192	0.276	0.664	88.97	176.33	-46.13
31733	-0.384	0.322	0.724	85.89	185.92	-54.95
31752	-0.421	0.329	0.666	80.15	189.21	-56.14
31777	-0.447	0.34	0.567	107.31	178.99	-50.19
31797	-0.547	0.477	0.682	111.37	200.13	-56.21
31815	-0.767	0.575	0.822	96.11	199.57	-59.99
31832	-0.859	0.59	0.856	74.06	191.03	-63.84
31857	-0.849	0.489	0.678	78.33	187.88	-65.66
31875	-0.921	0.467	0.551	89.46	188.37	-59.36
31898	-1.103	0.606	0.642	106.26	198.31	-60.27
31917	-1.273	0.705	0.752	86.66	178.85	-61.18
31939	-1.198	0.576	0.697	66.5	162.19	-57.75
31963	-1.138	0.572	0.602	83.51	162.33	-56.49
31982	-1.233	0.623	0.587	74.9	150.29	-51.66
32006	-1.22	0.659	0.62	70.35	145.95	-49.14
32026	-1.248	0.666	0.664	51.73	134.75	-47.18
32045	-1.134	0.75	0.612	24.85	122.01	-48.23
32066	-1.235	0.552	0.551	53.55	124.39	-41.58
32090	-1.299	0.47	0.462	63.0	106.12	-31.08
32106	-1.228	0.508	0.389	80.71	92.61	-20.79
32130	-1.137	0.572	0.328	90.16	84.98	-11.55
32150	-1.114	0.604	0.306	85.96	82.39	-6.09
32169	-1.104	0.628	0.299	72.94	81.27	-6.58
32189	-1.103	0.593	0.251	57.33	74.06	-6.58
32213	-1.067	0.536	0.209	47.67	68.39	-7.28
32236	-1.056	0.504	0.191	45.08	63.77	-7.14
32257	-1.04	0.377	0.197	43.19	61.74	-7.63
32281	-1.047	0.489	0.195	41.86	58.03	-8.05
32301	-1.062	0.499	0.169	37.94	53.48	-9.38
32321	-1.05	0.503	0.166	34.23	48.23	-10.01
32340	-1.035	0.5	0.193	31.5	45.5	-10.71
32361	-1.061	0.448	0.187	35.07	34.93	-6.51
32384	-1.081	0.244	0.192	84.14	24.64	11.55
32403	-1.074	0.472	0.13	115.5	16.17	22.12
32428	-1.047	0.736	0.05	83.65	-2.66	17.85
32448	-0.991	0.786	0.021	37.59	-12.39	7.21
32467	-0.929	0.712	-0.054	-13.37	-13.72	-6.02
32488	-0.88	0.565	-0.136	-49.91	-11.41	-14.7
32508	-0.851	0.44	-0.175	-56.14	-5.25	-16.38
32526	-0.854	0.369	-0.195	-47.67	-3.57	-13.79
32546	-0.849	0.326	-0.212	-31.36	-1.19	-9.24
32565	-0.854	0.333	-0.212	-13.72	1.19	-3.64
32585	-0.865	0.378	-0.214	-3.71	2.24	-0.63
32606	-0.877	0.382	-0.206	-1.82	2.8	0.91
32630	-0.896	0.369	-0.2	-0.84	2.38	3.57
32650	-0.92	0.348	-0.17	2.38	1.89	5.46
32668	-0.942	0.324	-0.133	8.19	0.98	7.56
32685	-0.964	0.319	-0.096	13.44	-0.56	8.61
32705	-0.976	0.325	-0.077	17.08	-2.8	8.19
32729	-0.977	0.353	-0.073	18.34	-4.97	5.95
32753	-0.963	0.373	-0.083	15.68	-8.05	2.52
32772	-0.933	0.396	-0.125	11.2	-7.91	-0.21
32793	-0.911	0.419	-0.162	6.44	-7.28	-2.52
32811	-0.897	0.42	-0.171	2.59	-5.6	-4.41
32830	-0.891	0.415	-0.175	0.14	-4.48	-4.97
32853	-0.887	0.405	-0.18	-0.14	-2.8	-4.62
32876	-0.899	0.408	-0.176	0.7	-1.89	-3.08
32897	-0.907	0.404	-0.164	0.35	-1.61	-1.47
32915	-0.92	0.402	-0.151	0.14	-2.03	0.07
32934	-0.923	0.388	-0.14	-0.28	-2.66	1.19
32958	-0.93	0.384	-0.147	-0.63	-3.29	1.47
32978	-0.933	0.375	-0.145	-1.12	-3.92	1.4
33001	-0.928	0.365	-0.142	-0.63	-4.62	1.19
33022	-0.916	0.363	-0.158	1.47	-3.78	0.91
33042	-0.922	0.37	-0.163	2.31	-3.22	0.49
33062	-0.92	0.374	-0.161	3.43	-3.01	0.42
33082	-0.913	0.377	-0.158	4.62	-2.52	0.35
33105	-0.91	0.385	-0.152	5.11	-2.24	0.42
33126	-0.914	0.389	-0.142	4.62	-2.73	0.35
33146	-0.909	0.394	-0.138	4.27	-2.94	0.14
33164	-0.92	0.399	-0.134	3.78	-3.22	-0.14
33188	-0.923	0.394	-0.131	3.15	-4.69	-0.35
33208	-0.935	0.392	-0.123	2.8	-5.25	-0.63
33223	-0.965	0.393	-0.106	2.1	-6.09	-0.7
33243	-1.004	0.396	-0.062	-1.89	-10.43	-1.26
33263	-1.028	0.387	-0.02	-8.4	-19.39	-3.92
33287	-1.041	0.361	0.061	-17.85	-31.5	-9.73
33308	-1.005	0.329	0.122	-25.48	-35.07	-16.31
33323	-1.012	0.306	0.189	-26.74	-32.48	-19.32
33346	-1.176	0.276	0.326	-23.66	-35.91	-22.96
33366	-1.242	0.237	0.368	-12.11	-48.72	-19.32
33385	-1.263	0.28	0.333	6.09	-62.23	-15.05
33410	-1.267	0.407	0.378	15.82	-78.33	-10.29
33434	-1.338	0.437	0.407	12.53	-96.04	-6.02
33454	-1.365	0.432	0.376	11.34	-121.66	1.54
33474	-1.319	0.479	0.324	14.98	-136.71	12.53
33492	-1.309	0.502	0.351	19.32	-145.81	23.31
33515	-1.345	0.593	0.365	19.11	-156.8	36.05
33535	-1.363	0.686	0.361	-3.08	-177.87	44.45
33555	-1.343	0.609	0.381	-5.67	-189.49	54.46
33579	-1.274	0.596	0.371	3.57	-197.82	71.89
33599	-1.276	0.652	0.396	14.98	-208.46	85.75
33617	-1.246	0.79	0.401	9.31	-217.0	96.95
33634	-1.218	0.824	0.39	-3.99	-224.28	104.79
33659	-1.16	0.859	0.38	-27.86	-230.09	114.52
33679	-1.078	0.835	0.407	-42.07	-231.84	123.97
33699	-1.002	0.812	0.455	-59.57	-225.82	128.8
33722	-0.945	0.743	0.467	-68.6	-221.76	133.77
33742	-0.856	0.738	0.486	-78.33	-218.75	134.12
33763	-0.698	0.664	0.524	-92.05	-214.97	130.62
33787	-0.632	0.626	0.538	-97.72	-210.98	128.31
33804	-0.513	0.513	0.577	-96.46	-209.16	124.95
33828	-0.404	0.486	0.588	-87.08	-203.35	121.1
33848	-0.344	0.473	0.585	-86.87	-199.57	115.64
33866	-0.244	0.464	0.58	-97.86	-197.12	106.4
33888	-0.138	0.4	0.569	-104.37	-195.23	95.41
33905	-0.098	0.343	0.538	-111.58	-193.48	89.81
33925	-0.009	0.184	0.507	-105.28	-190.89	83.09
33945	0.084	0.145	0.498	-88.13	-188.3	79.8
33969	0.187	0.134	0.444	-74.41	-179.76	78.33
33989	0.27	0.154	0.44	-67.2	-167.58	77.35
34009	0.305	0.137	0.475	-65.52	-155.4	77.63
34028	0.331	0.099	0.479	-66.64	-150.78	74.9
34053	0.414	0.055	0.452	-61.46	-143.15	75.53
34070	0.414	-0.016	0.45	-55.93	-137.41	80.01
34091	0.57	-0.032	0.427	-51.87	-134.54	73.5
34115	0.55	-0.065	0.397	-34.79	-125.58	69.16
34135	0.571	-0.031	0.355	-34.65	-118.16	71.26
34151	0.631	-0.086	0.352	-44.66	-115.22	68.32
34170	0.655	-0.138	0.312	-42.35	-107.66	64.33
34194	0.652	-0.169	0.308	-37.38	-101.78	60.41
34214	0.665	-0.158	0.275	-35.28	-100.1	59.15
34233	0.771	-0.2	0.256	-33.04	-95.97	59.22
34252	0.843	-0.215	0.282	-29.05	-86.94	59.01
34277	0.833	-0.237	0.262	-32.83	-82.53	57.96
34296	0.895	-0.296	0.243	-30.73	-74.2	55.86
34316	0.907	-0.3	0.208	-28.0	-68.95	53.97
34340	0.931	-0.317	0.189	-27.09	-60.48	52.08
34360	0.935	-0.362	0.165	-27.65	-54.53	50.47
34378	0.923	-0.401	0.165	-25.27	-46.13	47.88
34402	0.935	-0.441	0.173	-24.36	-42.63	45.43
34422	0.989	-0.526	0.143	-22.96	-37.8	41.93
34440	1.037	-0.62	0.122	-17.5	-33.67	35.98
34457	1.082	-0.678	0.124	-12.11	-30.03	30.52
34482	1.116	-0.702	0.108	-1.89	-25.27	22.47
34501	1.117	-0.667	0.102	5.46	-18.69	14.63
34521	1.079	-0.621	0.09	2.1	-15.82	6.58
34537	1.039	-0.617	0.081	3.36	-12.39	0.28
34562	1.012	-0.557	0.085	5.32	-6.37	-6.3
34581	0.963	-0.498	0.097	9.17	-1.54	-8.68
34605	0.95	-0.451	0.122	11.34	3.5	-10.29
34625	0.915	-0.417	0.15	11.48	9.24	-10.99
34644	0.89	-0.384	0.181	9.52	11.83	-10.29
34665	0.888	-0.371	0.22	8.47	12.67	-8.47
34681	0.903	-0.369	0.236	8.4	13.65	-6.58
34704	0.889	-0.366	0.241	9.38	14.21	-3.01
34725	0.882	-0.361	0.254	8.96	12.81	-1.54
34744	0.889	-0.366	0.26	7.7	11.83	-0.21
34767	0.875	-0.361	0.263	6.44	8.96	1.12
34784	0.869	-0.362	0.265	6.09	6.37	1.47
34809	0.868	-0.364	0.26	6.09	3.71	2.03
34829	0.857	-0.371	0.252	7.98	2.03	1.75
34848	0.856	-0.377	0.248	9.24	0.21	1.96
34866	0.874	-0.382	0.245	10.5	0.0	2.03
34889	0.875	-0.404	0.225	11.2	1.54	1.05
34908	0.875	-0.427	0.209	11.2	3.29	-1.54
34933	0.881	-0.461	0.191	14.07	6.79	-4.76
34950	0.887	-0.481	0.174	17.08	10.64	-8.54
34970	0.887	-0.506	0.16	22.61	16.87	-13.02
34993	0.878	-0.489	0.142	27.51	23.59	-20.09
35014	0.845	-0.47	0.13	31.64	33.39	-28.21
35031	0.823	-0.464	0.125	34.51	39.83	-36.12
35055	0.79	-0.443	0.117	39.27	49.63	-46.83
35070	0.762	-0.413	0.117	43.26	58.17	-53.9
35090	0.76	-0.391	0.122	48.79	69.44	-61.46
35115	0.748	-0.352	0.127	53.55	86.73	-71.96
35135	0.711	-0.325	0.131	60.06	99.4	-80.01
35154	0.671	-0.274	0.164	67.62	113.33	-87.5
35174	0.638	-0.231	0.219	73.43	125.58	-96.04
35196	0.591	-0.179	0.267	79.17	138.04	-107.52
35216	0.531	-0.078	0.311	84.49	148.61	-115.57
35240	0.472	0.08	0.389	82.11	159.95	-127.4
35260	0.399	0.197	0.458	59.57	175.91	-135.31
35280	0.314	0.206	0.468	42.14	189.35	-136.64
35301	0.221	0.143	0.46	51.94	190.05	-130.27
35325	0.172	0.219	0.546	71.61	193.76	-127.82
35342	0.124	0.355	0.655	91.56	202.3	-127.54
35361	0.074	0.418	0.607	87.36	208.11	-129.01
35386	-0.03	0.447	0.749	75.18	205.52	-132.3
35406	-0.066	0.421	0.785	69.16	213.01	-137.34
35425	-0.121	0.409	0.761	84.77	204.61	-135.87
35449	-0.221	0.618	0.866	97.86	223.37	-143.5
35469	-0.459	0.597	0.898	72.73	220.85	-149.66
35491	-0.614	0.481	0.852	57.26	219.52	-151.41
35510	-0.664	0.391	0.802	59.85	206.99	-141.26
35535	-0.566	0.534	0.733	82.53	215.39	-134.61
35555	-0.771	0.615	0.718	103.88	211.75	-127.05
35573	-0.865	0.734	0.793	101.78	213.99	-124.81
35594	-0.975	0.851	0.773	79.8	205.59	-122.71
35613	-1.014	0.828	0.756	47.67	199.78	-117.39
35637	-1.031	0.626	0.661	24.57	190.4	-110.53
35655	-1.028	0.596	0.62	28.63	186.62	-101.85
35679	-1.091	0.551	0.559	27.72	178.92	-96.11
35699	-1.119	0.549	0.523	22.26	173.04	-92.4
35719	-1.18	0.523	0.473	15.33	166.04	-90.16
35736	-1.192	0.511	0.427	6.79	158.55	-87.57
35760	-1.205	0.49	0.408	3.08	153.44	-78.96
35780	-1.253	0.476	0.35	-7.91	133.42	-71.26
35799	-1.22	0.47	0.32	-18.2	121.24	-60.76
35823	-1.218	0.443	0.296	-25.06	105.14	-43.33
35843	-1.177	0.434	0.292	-32.76	94.43	-31.99
35863	-1.191	0.435	0.283	-46.13	83.86	-22.19
35883	-1.135	0.405	0.267	-58.73	70.84	-13.72
35906	-1.132	0.285	0.251	-63.7	57.96	-2.66
35930	-1.022	0.272	0.285	-47.53	63.42	5.95
35946	-1.272	-0.035	0.112	-43.33	53.9	16.52
35965	-1.078	0.179	0.312	-9.1	42.91	22.19
35990	-1.155	0.14	0.326	-0.63	28.63	11.2
36010	-1.164	0.235	0.232	-25.34	14.7	3.15
36028	-1.121	0.193	0.165	-38.22	2.03	-3.57
36051	-1.059	0.201	0.061	-48.23	-8.96	-8.33
36071	-0.986	0.161	-0.006	-44.8	-8.12	-9.8
36090	-0.96	0.137	-0.075	-29.75	-8.05	-4.06
36111	-0.915	0.184	-0.125	-12.11	-3.36	0.49
36135	-0.913	0.242	-0.152	-2.52	-2.45	3.71
36155	-0.93	0.295	-0.165	-3.5	-4.41	2.87
36174	-0.897	0.251	-0.166	-4.41	-4.27	1.61
36199	-0.892	0.23	-0.155	5.25	1.75	2.38
36219	-0.912	0.251	-0.142	9.73	6.02	3.92
36238	-0.927	0.258	-0.119	10.64	9.17	4.83
36262	-0.97	0.246	-0.071	9.38	10.15	3.57
36282	-0.985	0.233	-0.032	9.1	7.91	3.85
36302	-0.998	0.198	-0.005	15.19	6.3	4.48
36320	-1.026	0.232	0.003	16.03	4.2	4.34
36342	-1.034	0.241	0.014	12.32	1.19	3.78
36362	-1.023	0.241	-0.005	7.07	-1.47	1.96
36386	-1.01	0.244	-0.032	4.2	-3.15	-0.28
36403	-0.978	0.255	-0.045	2.31	-3.92	-1.4
36427	-0.967	0.262	-0.069	0.63	-4.06	-2.24
36447	-0.952	0.259	-0.085	1.47	-2.8	-2.1
36466	-0.956	0.267	-0.098	1.05	-2.66	-1.96
36487	-0.953	0.268	-0.095	0.91	-1.61	-2.03
36507	-0.952	0.251	-0.09	1.54	-1.12	-1.47
36530	-0.976	0.241	-0.061	4.27	-0.49	-1.26
36550	-1.011	0.2	-0.013	9.73	-3.85	-0.21
36566	-1.032	0.134	0.018	21.07	-7.7	2.03
36586	-1.04	0.15	0.065	36.75	-11.62	3.92
36606	-1.071	0.244	0.144	38.71	-14.63	0.98
36631	-1.123	0.324	0.317	17.08	-20.16	-6.51
36649	-1.241	0.235	0.451	-1.68	-32.13	-8.33
36672	-1.293	0.123	0.466	14.42	-51.87	-0.63
36689	-1.334	0.199	0.475	30.31	-60.13	4.55
36712	-1.408	0.345	0.568	28.56	-90.37	13.02
36736	-1.413	0.4	0.603	20.3	-119.98	21.91
36756	-1.449	0.425	0.565	10.36	-137.55	31.29
36773	-1.469	0.464	0.544	13.72	-151.2	39.13
36792	-1.476	0.458	0.522	6.37	-172.27	46.9
36813	-1.442	0.503	0.488	5.32	-189.28	55.58
36837	-1.448	0.522	0.472	3.5	-201.67	67.55
36857	-1.442	0.584	0.48	-2.8	-215.67	73.15
36874	-1.448	0.608	0.477	-8.12	-223.65	79.17
36898	-1.395	0.646	0.451	-12.18	-237.09	91.28
36917	-1.347	0.67	0.48	-21.21	-241.29	98.56
36939	-1.3	0.682	0.49	-27.58	-248.36	107.38
36963	-1.207	0.712	0.49	-38.92	-252.7	116.27
36983	-1.116	0.75	0.51	-54.53	-249.27	119.42
37002	-1.047	0.696	0.547	-69.23	-249.06	121.03
37026	-0.951	0.631	0.567	-77.98	-246.12	121.03
37045	-0.853	0.602	0.506	-78.26	-246.19	121.94
37066	-0.73	0.535	0.523	-82.11	-244.79	118.44
37086	-0.638	0.44	0.503	-79.73	-250.39	116.97
37103	-0.461	0.409	0.477	-80.15	-245.84	114.8
37126	-0.355	0.357	0.447	-73.29	-234.5	106.47
37146	-0.275	0.263	0.423	-66.64	-233.52	102.76
37167	-0.095	0.21	0.392	-60.97	-223.02	97.44
37186	-0.004	0.177	0.375	-49.84	-211.68	95.41
37210	0.018	0.122	0.345	-37.03	-211.19	99.61
37228	0.181	0.154	0.419	-41.72	-187.39	93.24
37247	0.261	0.136	0.417	-53.97	-172.76	86.59
37272	0.332	0.108	0.421	-56.56	-162.68	83.16
37292	0.375	0.058	0.452	-55.23	-150.15	78.68
37310	0.38	0.041	0.428	-55.3	-148.33	75.11
37332	0.505	0.016	0.383	-52.71	-142.38	72.8
37351	0.532	0.002	0.364	-44.45	-150.43	75.74
37376	0.61	-0.033	0.386	-54.53	-117.25	72.87
37395	0.655	-0.04	0.367	-55.58	-117.25	70.35
37415	0.691	-0.043	0.293	-56.07	-109.34	69.72
37431	0.737	-0.096	0.28	-55.86	-104.65	66.57
37456	0.739	-0.153	0.264	-49.56	-91.98	65.24
37476	0.725	-0.163	0.221	-48.86	-90.3	62.02
37493	0.745	-0.177	0.19	-45.29	-87.15	61.32
37512	0.767	-0.197	0.148	-41.93	-84.07	60.55
37536	0.775	-0.218	0.107	-36.75	-79.66	59.64
37553	0.818	-0.261	0.084	-35.42	-75.04	59.08
37572	0.87	-0.38	0.036	-32.13	-68.46	58.31
37594	0.927	-0.51	-0.004	-15.82	-58.38	57.26
37617	1.008	-0.609	-0.015	6.02	-50.19	54.95
37634	1.129	-0.615	0.001	16.52	-35.28	48.02
37653	1.147	-0.566	0.049	21.28	-18.06	40.39
37676	1.154	-0.593	0.091	15.96	-6.37	27.44
37696	1.147	-0.63	0.138	16.73	4.69	19.53
37719	1.129	-0.626	0.171	18.41	10.57	12.67
37740	1.102	-0.583	0.222	21.98	18.27	6.79
37760	1.023	-0.513	0.25	19.74	19.81	1.96
37780	0.968	-0.459	0.265	18.2	21.63	-1.82
37797	0.891	-0.407	0.283	15.47	21.35	-3.85
37819	0.847	-0.385	0.292	11.34	20.3	-6.93
37841	0.814	-0.36	0.312	9.45	18.41	-8.12
37861	0.805	-0.349	0.318	8.12	16.03	-8.33
37883	0.822	-0.365	0.31	9.45	13.23	-8.26
37902	0.829	-0.375	0.319	12.39	11.27	-8.4
37926	0.852	-0.378	0.31	14.63	9.31	-9.38
37947	0.867	-0.388	0.306	15.68	9.73	-11.76
37967	0.892	-0.408	0.281	15.61	11.62	-14.49
37987	0.906	-0.426	0.25	17.43	16.73	-17.57
38007	0.915	-0.436	0.216	19.53	23.24	-21.56
38030	0.919	-0.429	0.188	23.1	33.04	-25.76
38051	0.918	-0.423	0.157	25.55	44.1	-32.06
38069	0.883	-0.418	0.125	29.89	59.85	-37.94
38091	0.814	-0.405	0.082	40.81	76.79	-45.43
38111	0.758	-0.369	0.084	49.21	88.83	-52.71
38133	0.73	-0.318	0.083	54.32	104.79	-61.18
38150	0.68	-0.269	0.074	60.41	117.81	-66.99
38173	0.584	-0.226	0.075	65.59	136.43	-74.2
38196	0.538	-0.184	0.079	73.15	149.94	-81.2
38217	0.459	-0.14	0.156	82.6	173.18	-89.11
38237	0.357	-0.05	0.188	87.29	185.43	-95.69
38257	0.31	0.008	0.216	91.91	194.6	-102.83
38277	0.222	0.108	0.309	89.74	212.73	-110.67
38295	0.122	0.21	0.338	84.0	228.55	-116.27
38319	-0.018	0.269	0.355	81.34	241.64	-118.02
38339	-0.108	0.365	0.452	74.13	265.37	-122.43
38358	-0.247	0.358	0.528	69.02	256.27	-119.0
38382	-0.25	0.389	0.572	72.45	271.25	-115.08
38402	-0.499	0.341	0.668	95.48	287.63	-112.42
38418	-0.68	0.432	0.74	109.34	289.1	-114.52
38442	-0.894	0.55	0.687	98.35	278.18	-122.5
38462	-0.892	0.56	0.661	106.68	260.68	-118.93
38482	-0.914	0.696	0.638	91.42	269.01	-114.38
38501	-1.101	0.569	0.739	97.09	248.71	-116.2
38520	-1.187	0.6	0.715	93.66	247.17	-113.61
38543	-1.259	0.582	0.66	89.95	240.03	-110.88
38562	-1.344	0.582	0.603	84.84	231.7	-107.1
38585	-1.372	0.569	0.564	84.49	217.07	-99.89
38606	-1.366	0.634	0.567	67.9	204.96	-94.85
38630	-1.387	0.617	0.554	44.38	202.72	-89.18
38650	-1.472	0.514	0.617	27.72	195.65	-86.31
38669	-1.488	0.38	0.516	32.2	184.94	-81.48
38688	-1.376	0.396	0.492	39.2	161.21	-76.23
38712	-1.363	0.416	0.471	41.16	144.76	-69.58
38732	-1.348	0.456	0.474	32.69	127.61	-61.18
38752	-1.339	0.473	0.45	18.83	114.73	-52.01
38772	-1.313	0.477	0.44	3.29	100.1	-43.54
38792	-1.291	0.447	0.43	-13.51	80.85	-32.76
38812	-1.203	0.408	0.396	-25.2	66.15	-22.19
38836	-1.203	0.337	0.357	-27.37	46.83	-8.12
38856	-1.164	0.294	0.34	-22.89	33.04	17.5
38874	-1.144	0.27	0.319	-16.8	23.8	5.53
38894	-1.166	0.225	0.297	-2.17	9.94	10.92
38917	-1.125	0.289	0.25	1.4	-2.52	11.41
38938	-1.101	0.363	0.187	-18.83	-10.01	2.8
38957	-1.008	0.328	0.096	-39.34	-10.99	-1.26
38976	-0.989	0.245	-0.119	-45.64	-8.61	-4.69
39000	-0.945	0.18	-0.061	-32.9	-6.3	-1.47
39020	-0.931	0.198	-0.108	-30.03	-1.61	-1.05
39040	-0.919	0.202	-0.113	-24.22	-0.63	-1.54
39061	-0.932	0.22	-0.142	-22.68	1.54	-3.29
39081	-0.925	0.211	-0.147	-26.95	2.24	-4.55
39105	-0.932	0.161	-0.139	-26.67	4.69	-6.09
39125	-0.939	0.139	-0.121	-21.7	6.09	-6.65
39142	-0.964	0.081	-0.096	-12.04	5.46	-4.9
39165	-0.994	0.051	-0.047	3.92	2.52	-3.36
39181	-1.012	0.04	-0.021	16.94	-0.98	-1.19
39206	-1.043	0.058	0.015	29.96	-4.76	-1.47
39225	-1.062	0.158	0.041	36.47	-10.15	-0.91
39246	-1.084	0.266	0.1	24.5	-12.32	-4.34
39262	-1.129	0.237	0.148	14.07	-14.84	-4.76
39284	-1.175	0.155	0.261	18.83	-23.8	-0.63
39306	-1.214	0.179	0.436	21.7	-31.99	5.6
39329	-1.28	0.169	0.505	27.65	-54.39	10.22
39350	-1.254	0.256	0.523	32.2	-69.65	14.77
39367	-1.362	0.338	0.57	26.67	-86.87	18.62
39388	-1.466	0.347	0.671	18.62	-110.6	23.66
39411	-1.509	0.354	0.705	16.73	-135.73	34.16
39430	-1.571	0.397	0.678	22.61	-155.75	45.01
39450	-1.586	0.462	0.614	22.05	-179.83	58.24
39473	-1.6	0.594	0.614	11.27	-204.33	70.84
39492	-1.622	0.664	0.581	-8.19	-227.29	81.83
39511	-1.589	0.642	0.514	-18.41	-242.9	92.75
39536	-1.539	0.686	0.473	-24.99	-256.9	107.94
39556	-1.496	0.723	0.475	-37.45	-265.72	115.71
39575	-1.395	0.708	0.459	-45.78	-270.06	121.66
39599	-1.286	0.698	0.447	-56.49	-269.57	125.3
39618	-1.192	0.672	0.433	-62.3	-269.71	128.24
39638	-1.062	0.658	0.447	-69.02	-269.01	129.85
39662	-0.944	0.602	0.47	-80.29	-262.57	127.89
39685	-0.794	0.53	0.493	-84.49	-258.02	128.17
39709	-0.7	0.459	0.535	-79.66	-251.3	121.31
39729	-0.572	0.398	0.469	-72.03	-250.67	120.12
39749	-0.464	0.338	0.49	-67.9	-248.29	114.66
39768	-0.363	0.293	0.622	-61.25	-246.75	109.34
39790	-0.263	0.242	0.465	-56.77	-239.82	103.53
39811	-0.146	0.198	0.373	-48.79	-237.58	102.9
39830	0.025	0.186	0.351	-41.44	-228.62	104.02
39855	0.043	0.163	0.445	-45.5	-207.62	97.72
39875	0.1	0.115	0.391	-54.32	-204.4	97.37
39894	0.225	0.041	0.39	-51.1	-190.75	93.59
39915	0.23	0.0	0.348	-51.24	-190.82	94.29
39935	0.429	-0.009	0.315	-51.31	-167.51	89.6
39953	0.414	-0.071	0.298	-49.84	-158.34	87.08
39976	0.453	-0.052	0.287	-50.19	-144.48	83.44
39995	0.412	-0.061	0.167	-62.44	-148.19	77.84
40014	0.644	-0.14	0.14	-57.54	-149.38	67.69
40033	0.533	-0.2	0.134	-51.31	-112.77	65.87
40056	0.59	-0.171	0.093	-47.67	-109.34	61.81
40075	0.703	-0.18	0.056	-47.53	-98.07	55.72
40099	0.754	-0.201	0.089	-44.8	-83.23	50.89
40118	0.869	-0.283	0.097	-46.83	-73.29	47.32
40136	0.985	-0.352	0.095	-42.77	-65.1	44.52
40158	1.087	-0.399	0.09	-32.48	-55.93	40.18
40182	1.172	-0.432	0.085	-26.04	-45.15	33.95
40202	1.235	-0.453	0.118	-17.22	-36.47	29.33
40221	1.254	-0.452	0.139	-10.64	-29.26	24.08
40245	1.246	-0.461	0.134	-9.31	-24.57	17.36
40264	1.234	-0.474	0.12	-4.2	-20.23	13.65
40281	1.189	-0.466	0.109	0.21	-15.54	11.06
40300	1.113	-0.43	0.116	5.6	-9.87	7.91
40320	1.044	-0.385	0.122	7.56	-5.11	4.97
40345	0.979	-0.361	0.131	10.08	1.82	2.59
40365	0.94	-0.318	0.146	8.47	6.79	0.7
40384	0.893	-0.314	0.168	7.07	11.2	-0.7
40408	0.865	-0.325	0.193	8.12	14.49	-1.33
40423	0.856	-0.319	0.195	10.5	16.17	-1.4
40448	0.857	-0.311	0.219	11.69	17.01	-3.15
40467	0.86	-0.312	0.224	10.29	16.52	-4.69
40488	0.873	-0.332	0.248	11.48	15.4	-7.07
40507	0.891	-0.336	0.26	12.67	14.07	-8.47
40531	0.915	-0.334	0.248	15.47	15.82	-10.71
40551	0.924	-0.339	0.232	16.52	17.71	-12.6
40570	0.932	-0.333	0.219	18.55	21.42	-13.79
40590	0.931	-0.316	0.201	18.13	27.02	-16.31
40613	0.935	-0.319	0.173	17.08	35.28	-19.32
40637	0.924	-0.327	0.142	19.74	47.25	-23.17
40654	0.897	-0.319	0.123	22.47	55.93	-26.53
40678	0.85	-0.322	0.105	29.4	71.33	-32.27
40697	0.801	-0.3	0.099	36.33	81.62	-37.1
40718	0.776	-0.274	0.1	40.6	91.98	-42.07
40738	0.732	-0.235	0.097	46.2	113.75	-47.74
40753	0.664	-0.216	0.081	50.47	122.15	-50.26
40775	0.582	-0.194	0.098	59.71	140.56	-55.51
40795	0.513	-0.158	0.105	72.31	155.33	-59.78
40814	0.427	-0.125	0.15	81.97	168.77	-67.2
40836	0.388	-0.065	0.154	91.77	181.37	-76.16
40859	0.323	-0.005	0.163	99.4	196.28	-85.4
40879	0.232	0.067	0.245	105.7	215.04	-94.99
40896	0.127	0.175	0.33	105.7	224.98	-101.08
40919	0.02	0.295	0.371	106.12	241.22	-109.41
40939	-0.061	0.352	0.394	102.83	249.69	-118.58
40962	-0.204	0.352	0.549	94.78	267.26	-127.19
40981	-0.365	0.361	0.633	104.37	267.68	-126.42
41006	-0.466	0.445	0.591	117.46	280.49	-130.9
41021	-0.512	0.516	0.677	124.25	280.56	-138.81
41045	-0.657	0.527	0.749	109.41	276.99	-146.51
41066	-0.779	0.497	0.812	92.26	276.78	-148.05
41086	-0.951	0.554	0.835	96.39	275.31	-153.51
41110	-1.077	0.644	0.779	95.2	271.46	-156.59
41130	-1.239	0.66	0.667	96.67	264.95	-149.87
41145	-1.417	0.644	0.61	98.35	245.42	-140.49
41170	-1.45	0.722	0.598	89.46	224.63	-127.82
41188	-1.471	0.696	0.668	75.67	208.11	-118.58
41209	-1.435	0.672	0.615	66.78	191.45	-112.63
41230	-1.4	0.641	0.523	58.03	179.55	-105.07
41249	-1.414	0.626	0.473	49.14	163.38	-97.02
41273	-1.384	0.618	0.44	31.29	142.17	-84.14
41292	-1.304	0.59	0.412	13.65	128.03	-71.26
41315	-1.297	0.548	0.382	-1.82	115.22	-54.11
41336	-1.21	0.512	0.357	-19.95	105.49	-41.02
41356	-1.191	0.474	0.333	-31.85	95.34	-30.59
41378	-1.206	0.291	0.345	-31.08	79.17	-21.14
41401	-1.138	0.202	0.31	-1.96	63.28	-10.22
41421	-1.063	0.229	0.285	19.6	55.79	-4.97
41440	-1.064	0.22	0.347	36.12	47.46	-2.03
41464	-1.086	0.33	0.388	45.43	44.1	-6.23
41484	-1.162	0.301	0.382	26.11	37.17	-4.62
41503	-1.174	0.335	0.35	29.54	33.88	-2.94
41527	-1.247	0.363	0.254	21.0	13.51	3.92
41547	-1.158	0.381	0.199	-10.29	11.97	-2.31
41566	-1.104	0.34	0.076	-43.68	-7.77	-7.42
41587	-0.98	0.242	-0.009	-49.07	-8.26	-10.22
41610	-0.968	0.222	-0.075	-40.88	-7.07	-10.78
41634	-0.918	0.231	-0.113	-37.31	-6.93	-9.24
41652	-0.892	0.192	-0.139	-29.4	-3.71	-7.91
41676	-0.907	0.21	-0.157	-20.58	-0.91	-6.65
41695	-0.94	0.223	-0.16	-15.82	-0.49	-5.46
41714	-0.962	0.228	-0.13	-11.13	-0.28	-4.06
41734	-0.99	0.169	-0.1	-5.88	-0.49	-2.17
41758	-1.013	0.114	-0.051	15.05	-2.94	3.92
41778	-1.061	0.163	0.037	27.3	-4.27	6.79
41802	-1.097	0.206	0.171	21.77	-10.36	6.09
41822	-1.148	0.187	0.284	16.59	-18.34	5.46
41838	-1.196	0.212	0.349	10.43	-27.09	4.27
41862	-1.225	0.222	0.436	4.2	-35.56	4.34
41881	-1.257	0.272	0.501	2.45	-49.98	3.85
41901	-1.347	0.277	0.563	3.92	-69.37	6.58
41922	-1.375	0.297	0.565	11.41	-94.92	14.21
41940	-1.424	0.405	0.6	16.94	-110.39	23.87
41962	-1.506	0.535	0.612	8.61	-133.91	38.57
41982	-1.567	0.559	0.556	-3.92	-158.48	55.79
42001	-1.581	0.487	0.514	0.07	-180.67	77.98
42017	-1.594	0.523	0.489	9.31	-198.87	95.69
42042	-1.571	0.671	0.481	1.75	-222.88	112.91
42062	-1.56	0.762	0.469	-23.24	-239.54	120.68
42081	-1.511	0.758	0.443	-39.41	-253.54	128.31
42105	-1.427	0.743	0.419	-51.31	-261.66	137.9
42125	-1.347	0.752	0.433	-62.51	-263.83	141.4
42145	-1.246	0.752	0.461	-72.52	-265.93	144.55
42165	-1.13	0.72	0.463	-82.67	-264.04	145.04
42184	-1.041	0.681	0.46	-86.38	-261.73	144.9
42206	-0.924	0.682	0.484	-94.22	-256.2	143.08
42230	-0.851	0.617	0.475	-101.29	-256.97	141.05
42250	-0.688	0.538	0.534	-101.92	-250.88	136.36
42269	-0.608	0.473	0.509	-99.4	-248.92	132.02
42290	-0.457	0.395	0.447	-94.99	-249.2	126.49
42310	-0.321	0.328	0.468	-86.73	-242.62	119.63
42334	-0.276	0.251	0.483	-79.59	-241.08	112.28
42352	-0.139	0.223	0.417	-70.0	-237.65	109.83
42371	-0.028	0.214	0.333	-69.44	-233.59	107.45
42392	0.111	0.152	0.311	-69.51	-218.96	104.65
42415	0.16	0.049	0.361	-70.21	-202.3	99.68
42435	0.235	-0.029	0.362	-67.97	-191.45	94.22
42459	0.329	-0.07	0.283	-62.23	-173.25	88.06
42479	0.41	-0.108	0.246	-54.81	-157.22	84.98
42499	0.448	-0.122	0.23	-51.59	-146.79	78.4
42516	0.389	-0.163	0.205	-43.26	-151.13	82.74
42540	0.494	-0.029	0.196	-48.16	-122.71	75.67
42560	0.757	-0.086	0.195	-54.6	-109.48	69.79
42580	0.512	-0.055	0.175	-53.62	-101.71	69.65
42598	0.581	-0.111	0.183	-54.46	-97.16	67.9
42618	0.684	-0.186	0.163	-50.19	-91.21	67.55
42640	0.792	-0.262	0.137	-53.62	-81.9	66.71
42659	0.855	-0.402	0.126	-51.73	-76.72	64.12
42679	0.968	-0.575	0.093	-41.37	-75.11	58.87
42698	1.138	-0.594	0.112	-19.81	-64.05	52.5
42721	1.205	-0.598	0.089	-5.74	-52.71	45.57
42745	1.249	-0.577	0.102	-6.93	-33.46	31.85
42765	1.231	-0.603	0.097	-7.28	-22.47	20.44
42785	1.178	-0.61	0.093	0.98	-14.49	13.16
42804	1.117	-0.544	0.107	2.52	-8.54	6.09
42828	1.051	-0.508	0.123	6.86	-0.35	-0.63
42846	0.983	-0.447	0.149	8.12	5.95	-4.06
42868	0.912	-0.388	0.181	8.89	10.43	-6.93
42892	0.879	-0.363	0.209	8.05	14.84	-9.24
42911	0.849	-0.355	0.223	8.54	16.1	-9.73
42929	0.849	-0.333	0.243	9.38	16.45	-10.36
42953	0.852	-0.326	0.276	7.77	16.66	-11.2
42971	0.848	-0.337	0.298	8.19	15.19	-11.06
42993	0.88	-0.35	0.314	9.87	13.93	-11.76
43013	0.895	-0.348	0.319	10.08	13.79	-12.32
43037	0.9	-0.353	0.332	10.57	11.9	-13.72
43057	0.915	-0.343	0.336	9.8	11.41	-14.7
43077	0.921	-0.322	0.329	7.7	11.97	-15.61
43097	0.925	-0.327	0.302	7.0	12.74	-15.75
43116	0.94	-0.335	0.28	9.24	15.33	-15.75
43141	0.94	-0.324	0.244	11.76	21.42	-15.89
43161	0.929	-0.325	0.2	12.39	26.95	-17.64
43179	0.937	-0.339	0.162	15.26	35.0	-19.81
43203	0.922	-0.329	0.131	19.18	44.52	-22.75
43221	0.91	-0.319	0.109	23.66	58.38	-25.2
43243	0.876	-0.316	0.083	32.2	73.57	-28.77
43265	0.83	-0.296	0.078	39.76	87.99	-32.76
43287	0.798	-0.272	0.07	49.84	105.0	-37.24
43305	0.759	-0.234	0.061	57.19	120.54	-40.74
43329	0.683	-0.192	0.087	62.3	141.26	-48.44
43349	0.617	-0.152	0.092	64.68	155.61	-54.88
43368	0.532	-0.145	0.165	65.38	171.29	-62.02
43391	0.46	-0.145	0.154	72.66	186.2	-68.18
43412	0.358	-0.11	0.123	88.55	208.46	-77.35
43431	0.216	-0.043	0.154	97.79	223.02	-88.48
43455	0.067	0.056	0.216	98.91	232.4	-101.92
43475	-0.024	0.156	0.284	93.24	248.78	-112.56
43494	-0.116	0.218	0.275	92.19	266.91	-116.9
43515	-0.256	0.259	0.307	89.25	286.93	-120.4
43530	-0.463	0.331	0.375	90.58	294.42	-123.41
43550	-0.561	0.455	0.518	92.96	311.85	-120.96
43574	-0.884	0.359	0.456	101.57	309.96	-116.97
43598	-0.899	0.482	0.51	112.42	313.95	-117.67
43618	-1.123	0.395	0.527	102.13	302.12	-115.99
43638	-1.284	0.394	0.661	119.28	291.62	-117.39
43658	-1.404	0.447	0.586	134.05	277.69	-122.29
43683	-1.443	0.613	0.514	136.08	267.33	-130.34
43702	-1.575	0.693	0.531	112.98	254.1	-134.96
43720	-1.667	0.645	0.616	86.52	240.73	-133.28
43739	-1.662	0.598	0.635	66.22	233.1	-129.22
43761	-1.661	0.586	0.582	47.39	221.76	-123.55
43780	-1.649	0.549	0.598	26.46	207.83	-118.58
43805	-1.649	0.505	0.587	14.7	187.46	-103.11
43824	-1.59	0.485	0.591	-3.08	164.15	-88.9
43845	-1.525	0.328	0.572	-3.92	131.18	-65.17
43863	-1.421	0.285	0.498	14.42	109.9	-46.9
43885	-1.344	0.358	0.468	22.26	92.54	-27.44
43905	-1.289	0.388	0.478	21.28	70.77	-14.91
43929	-1.239	0.41	0.457	9.94	53.48	-7.0
43949	-1.183	0.392	0.399	-1.75	41.37	-2.73
43969	-1.132	0.334	0.337	-7.07	31.29	1.05
43988	-1.088	0.297	0.291	-5.18	24.15	4.55
44012	-1.052	0.268	0.26	-0.7	18.27	8.47
44036	-1.04	0.248	0.247	6.02	14.0	10.99
44056	-1.045	0.29	0.225	6.93	10.57	8.19
44074	-1.043	0.344	0.189	-5.32	7.91	4.27
44094	-1.064	0.29	0.171	-22.26	2.1	1.47
44118	-1.09	0.136	0.139	-16.66	-9.94	4.97
44139	-1.078	0.09	0.12	9.24	-19.88	13.44
44158	-1.107	0.184	0.152	23.52	-25.27	20.58
44181	-1.135	0.244	0.223	19.11	-35.0	25.34
44201	-1.171	0.204	0.35	14.7	-45.15	28.42
44220	-1.239	0.23	0.476	13.09	-53.9	30.66
44242	-1.331	0.21	0.589	7.07	-65.45	30.38
44261	-1.394	0.247	0.695	5.88	-82.25	30.24
44286	-1.478	0.317	0.835	1.33	-108.08	32.34
44306	-1.594	0.343	0.833	3.01	-128.66	37.24
44326	-1.666	0.415	0.798	-1.82	-163.03	45.71
44349	-1.688	0.505	0.77	-1.47	-188.51	63.35
44370	-1.749	0.554	0.741	-2.66	-216.37	80.15
44387	-1.753	0.573	0.626	4.2	-231.49	100.24
44411	-1.745	0.715	0.565	-2.31	-254.87	128.03
44431	-1.684	0.794	0.418	-14.98	-265.02	140.63
44450	-1.606	0.854	0.471	-17.99	-284.41	150.92
44469	-1.547	0.844	0.232	-47.53	-297.29	159.04
44491	-1.318	0.956	0.354	-81.55	-273.56	149.31
44512	-1.182	0.828	0.334	-104.79	-263.76	144.13
44536	-1.076	0.763	0.37	-127.05	-258.09	133.56
44556	-0.955	0.627	0.412	-131.18	-249.62	121.59
44572	-0.881	0.589	0.432	-131.74	-248.43	112.91
44596	-0.797	0.536	0.377	-132.02	-254.59	102.48
44616	-0.694	0.423	0.384	-120.75	-262.5	94.85
44636	-0.572	0.33	0.259	-110.18	-269.71	92.82
44656	-0.372	0.2	0.323	-57.19	-260.68	100.03
44675	-0.325	0.216	0.325	-48.37	-253.96	107.17
44699	-0.265	0.258	0.326	-46.27	-257.6	109.34
44718	-0.075	0.23	0.311	-70.28	-253.19	106.12
44738	0.148	0.057	0.236	-81.34	-235.48	102.06
44763	0.275	-0.127	0.234	-67.34	-205.8	96.95
44782	0.335	-0.119	0.266	-57.68	-187.11	92.75
44800	0.391	-0.1	0.26	-60.83	-171.36	85.4
44820	0.428	-0.146	0.221	-69.02	-157.29	74.55
44844	0.496	-0.222	0.176	-68.18	-143.15	69.58
44864	0.462	-0.301	0.134	-54.6	-139.37	65.17
44880	0.632	-0.22	0.139	-45.43	-116.9	52.43
44904	0.542	-0.143	0.085	-50.82	-104.51	48.09
44924	0.631	-0.242	0.028	-59.71	-105.07	47.39
44943	0.802	-0.35	0.004	-74.48	-84.07	21.91
44967	0.649	-0.344	-0.01	-49.84	-69.3	26.67
44987	0.867	-0.332	0.012	-41.58	-65.38	17.85
45003	0.868	-0.29	0.001	-33.46	-58.59	15.33
45026	0.979	-0.31	0.038	-29.96	-49.42	9.45
45046	1.029	-0.303	0.046	-24.29	-41.44	7.42
45066	1.057	-0.332	0.065	-24.15	-36.12	2.66
45090	1.155	-0.354	0.098	-16.94	-29.19	1.05
45114	1.21	-0.342	0.123	-11.34	-21.49	1.89
45134	1.309	-0.301	0.142	-6.51	-16.94	-1.33
45154	1.217	-0.475	0.197	31.57	-70.91	5.53
45174	1.105	-0.35	0.161	1.4	-11.2	-1.47
45194	1.2	-0.29	0.153	6.51	1.96	1.68
45213	1.139	-0.288	0.146	5.95	4.34	1.47
45234	1.082	-0.27	0.161	5.46	8.19	2.17
45258	1.041	-0.28	0.161	8.82	13.44	3.99
45277	1.007	-0.288	0.163	12.32	17.08	5.18
45302	0.996	-0.29	0.157	16.03	21.49	7.28
45320	0.992	-0.298	0.129	19.04	26.18	7.35
45340	0.969	-0.318	0.094	21.91	31.64	5.53
45364	0.949	-0.335	0.05	27.3	36.54	2.66
45382	0.943	-0.351	0.007	35.42	45.5	-0.21
45406	0.932	-0.338	-0.019	46.83	58.73	-6.09
45426	0.894	-0.297	-0.043	53.76	69.44	-10.85
45445	0.854	-0.275	-0.079	62.09	85.05	-14.7
45465	0.801	-0.229	-0.081	69.93	102.2	-18.34
45489	0.736	-0.188	-0.071	74.62	118.44	-23.8
45509	0.68	-0.157	-0.046	80.01	137.69	-28.0
45529	0.593	-0.127	-0.055	87.01	157.71	-31.36
45550	0.499	-0.125	0.018	96.67	172.69	-35.28
45568	0.431	-0.092	0.065	104.02	184.1	-39.9
45589	0.387	-0.063	0.076	113.47	200.62	-46.2
45609	0.257	-0.013	0.247	122.08	216.79	-53.83
45633	0.154	0.105	0.248	129.15	243.88	-72.87
45652	-0.015	0.218	0.337	122.85	241.99	-81.97
45672	-0.091	0.303	0.411	109.97	244.72	-91.77
45691	-0.194	0.391	0.364	104.16	253.54	-99.05
45712	-0.338	0.491	0.427	91.63	272.86	-105.77
45736	-0.518	0.461	0.559	65.1	276.36	-112.0
45752	-0.532	0.348	0.535	65.87	279.65	-115.78
45776	-0.674	0.308	0.52	96.53	292.88	-116.27
45794	-0.815	0.419	0.624	111.02	333.97	-124.32
45814	-0.951	0.443	0.738	90.37	308.56	-122.5
45837	-1.253	0.387	0.672	95.62	296.03	-122.78
45857	-1.373	0.456	0.476	98.35	292.95	-129.15
45880	-1.55	0.465	0.461	110.74	278.18	-129.57
45898	-1.702	0.55	0.593	97.37	263.2	-126.49
45922	-1.772	0.526	0.636	87.01	238.98	-120.26
45942	-1.749	0.488	0.491	85.54	226.87	-113.54
45962	-1.63	0.521	0.444	76.93	203.84	-102.13
45978	-1.602	0.531	0.474	69.65	194.04	-94.01
46002	-1.569	0.613	0.548	22.4	178.64	-85.47
46017	-1.622	0.347	0.595	-3.01	166.95	-76.65
46037	-1.51	0.234	0.494	22.19	147.49	-61.04
46062	-1.462	0.349	0.432	41.37	130.83	-46.9
46082	-1.4	0.435	0.461	36.26	111.44	-38.43
46102	-1.342	0.475	0.503	12.25	98.84	-34.58
46122	-1.299	0.442	0.492	-1.26	87.92	-28.63
46141	-1.256	0.394	0.443	-13.02	71.75	-22.33
46162	-1.192	0.317	0.393	-9.87	56.28	-13.93
46178	-1.161	0.305	0.376	-6.65	45.43	-5.46
46203	-1.157	0.283	0.379	3.5	30.8	5.32
46222	-1.123	0.266	0.366	14.49	17.71	9.03
46242	-1.142	0.311	0.348	14.0	9.66	13.16
46261	-1.173	0.368	0.293	2.8	-6.79	11.34
46281	-1.115	0.385	0.236	-25.76	-15.68	6.58
46305	-1.038	0.262	0.134	-50.61	-24.36	-0.42
46322	-0.997	0.15	0.067	-51.87	-22.47	-4.13
46342	-1.006	0.025	0.023	-29.75	-23.38	0.0
46366	-0.988	0.153	0.053	2.59	-19.32	3.15
46390	-1.042	0.187	0.084	8.96	-25.06	6.58
46410	-1.078	0.189	0.161	6.51	-33.11	7.7
46430	-1.093	0.149	0.231	10.78	-37.94	9.94
46449	-1.187	0.152	0.376	13.72	-40.46	11.83
46466	-1.27	0.154	0.476	19.39	-50.05	15.61
46489	-1.387	0.205	0.548	26.46	-69.58	22.05
46513	-1.435	0.278	0.627	26.32	-94.85	30.73
46533	-1.511	0.4	0.755	11.13	-123.27	38.22
46553	-1.732	0.434	0.804	-2.1	-146.58	44.17
46570	-1.693	0.433	0.776	-10.78	-167.37	50.89
46590	-1.727	0.451	0.732	-14.7	-186.2	58.38
46614	-1.748	0.532	0.672	-21.28	-220.92	73.15
46633	-1.766	0.639	0.587	-30.45	-245.14	81.69
46654	-1.715	0.723	0.54	-48.23	-255.78	87.43
46678	-1.713	0.652	0.456	-52.99	-274.19	97.23
46698	-1.564	0.669	0.46	-64.19	-276.78	105.91
46717	-1.484	0.699	0.45	-76.44	-283.15	109.34
46740	-1.362	0.657	0.435	-92.54	-284.2	112.14
46764	-1.244	0.596	0.424	-95.13	-286.37	114.17
46784	-1.066	0.623	0.395	-97.37	-279.58	116.27
46804	-1.004	0.584	0.451	-106.12	-274.89	115.78
46820	-0.881	0.56	0.448	-111.79	-276.78	116.9
46844	-0.763	0.451	0.457	-115.57	-273.49	113.54
46864	-0.612	0.362	0.411	-109.13	-273.91	114.17
46884	-0.39	0.26	0.447	-97.86	-278.25	109.83
46904	-0.377	0.211	0.418	-86.66	-272.44	102.97
46924	-0.219	0.206	0.304	-83.16	-273.84	98.28
46948	-0.057	0.174	0.225	-83.37	-266.28	94.01
46967	0.077	0.081	0.282	-98.14	-251.44	88.97
46990	0.127	-0.112	0.266	-92.33	-237.02	78.61
47011	0.27	-0.102	0.169	-85.05	-207.13	73.5
47031	0.366	-0.102	0.076	-78.96	-187.39	69.79
47055	0.394	-0.142	0.111	-75.74	-161.91	62.79
47073	0.396	-0.196	0.141	-79.87	-151.2	57.12
47095	0.449	-0.266	0.081	-83.51	-135.31	59.15
47118	0.56	-0.298	0.039	-78.12	-115.85	43.05
47137	0.51	-0.321	0.004	-69.65	-108.15	43.12
47162	0.576	-0.325	0.04	-59.01	-99.68	41.72
47181	0.578	-0.235	0.068	-62.3	-108.22	28.91
47205	0.737	-0.419	0.015	-59.22	-76.51	27.23
47225	0.742	-0.457	-0.016	-52.01	-77.42	20.58
47242	0.902	-0.493	-0.017	-40.18	-69.02	35.77
47265	0.991	-0.486	0.004	-33.11	-59.99	12.46
47284	1.063	-0.517	0.002	-28.49	-47.11	6.02
47309	1.112	-0.52	-0.007	-23.31	-39.06	-0.7
47327	1.202	-0.542	0.012	-16.45	-30.8	-3.92
47347	1.221	-0.528	0.036	-7.77	-21.63	-7.56
47370	1.226	-0.486	0.048	1.05	-13.44	-8.54
47389	1.205	-0.457	0.065	5.95	-5.67	-10.01
47409	1.156	-0.422	0.081	8.68	-1.54	-10.08
47429	1.107	-0.402	0.098	13.37	3.08	-8.89
47452	1.06	-0.375	0.102	17.78	8.54	-5.88
47471	1.015	-0.354	0.093	21.0	14.0	-2.94
47493	0.979	-0.353	0.077	23.52	20.3	-0.42
47512	0.975	-0.372	0.04	28.63	26.88	0.77
47537	0.956	-0.357	0.019	32.69	37.66	-0.28
47557	0.947	-0.383	-0.034	36.26	47.95	-2.31
47576	0.945	-0.401	-0.074	42.21	61.39	-5.67
47596	0.909	-0.396	-0.074	49.91	77.56	-10.08
47619	0.751	-0.371	-0.072	57.33	95.55	-14.98
47639	0.814	-0.336	-0.04	65.1	115.64	-19.81
47659	0.748	-0.301	0.002	67.9	130.13	-23.45
47679	0.703	-0.285	0.047	74.2	145.18	-25.34
47703	0.651	-0.227	0.099	80.99	158.9	-28.91
47721	0.601	-0.223	0.147	85.82	167.09	-31.43
47741	0.527	-0.205	0.241	92.96	176.19	-38.15
47763	0.45	-0.142	0.304	99.61	182.77	-45.36
47787	0.402	-0.075	0.324	101.22	192.99	-53.83
47807	0.311	-0.015	0.391	98.91	198.1	-59.57
47827	0.214	0.087	0.473	92.82	206.43	-64.19
47846	0.076	0.182	0.526	78.89	209.09	-68.88
47866	0.042	0.163	0.524	71.47	217.84	-72.17
47890	-0.046	0.177	0.492	75.74	223.3	-72.03
47910	-0.122	0.139	0.52	86.87	235.62	-72.8
47930	-0.311	0.201	0.622	98.14	238.07	-74.48
47948	-0.389	0.277	0.631	99.4	239.12	-75.46
47967	-0.483	0.405	0.667	92.47	250.6	-87.64
47990	-0.623	0.463	0.658	47.25	241.71	-95.55
48012	-0.672	0.245	0.625	10.22	258.72	-96.6
48029	-0.786	0.1	0.582	51.1	253.75	-88.34
48053	-0.886	0.187	0.505	87.64	270.34	-77.07
48072	-1.131	0.26	0.481	124.88	256.62	-75.11
48091	-1.179	0.436	0.498	119.21	249.34	-79.24
48108	-1.238	0.495	0.511	101.85	247.38	-88.06
48128	-1.307	0.435	0.528	84.21	253.05	-93.45
48148	-1.479	0.323	0.505	82.88	235.76	-99.26
48173	-1.561	0.325	0.419	99.54	224.07	-94.36
48193	-1.572	0.423	0.442	102.97	211.61	-88.9
48213	-1.655	0.593	0.491	75.04	203.98	-87.01
48232	-1.721	0.541	0.491	41.65	184.87	-81.06
48257	-1.561	0.476	0.575	18.97	166.81	-65.59
48277	-1.529	0.294	0.564	11.83	152.67	-47.11
48296	-1.479	0.323	0.54	13.16	138.53	-34.93
48316	-1.471	0.321	0.507	13.16	116.83	-23.1
48340	-1.381	0.317	0.549	3.15	88.97	-10.15
48356	-1.329	0.24	0.552	4.13	79.52	-8.54
48380	-1.271	0.237	0.586	3.43	62.72	-6.02
48400	-1.232	0.208	0.572	8.54	45.29	-3.92
48418	-1.21	0.208	0.579	10.15	32.2	-4.69
48437	-1.237	0.186	0.596	11.83	18.13	-6.09
48457	-1.244	0.192	0.588	12.18	4.97	-8.4
48481	-1.249	0.24	0.534	9.24	-13.02	-10.01
48500	-1.245	0.229	0.492	0.7	-23.8	-9.59
48516	-1.259	0.188	0.469	-1.33	-39.13	-5.67
48539	-1.24	0.156	0.44	7.98	-56.14	3.43
48561	-1.271	0.18	0.452	15.75	-68.95	11.2
48585	-1.285	0.219	0.475	15.68	-83.65	17.71
48605	-1.319	0.228	0.514	11.97	-93.66	21.07
48625	-1.383	0.241	0.583	10.08	-112.56	26.88
48643	-1.438	0.318	0.633	6.3	-125.65	30.8
48663	-1.514	0.324	0.645	-1.96	-146.23	39.34
48687	-1.557	0.316	0.626	2.24	-164.43	52.64
48707	-1.583	0.37	0.651	2.73	-192.36	62.51
48722	-1.6	0.401	0.651	2.59	-209.02	71.89
48742	-1.577	0.457	0.647	0.35	-222.88	79.94
48768	-1.553	0.562	0.646	-15.68	-235.41	85.4
48787	-1.558	0.569	0.604	-27.79	-247.38	89.39
48803	-1.471	0.651	0.549	-40.53	-256.62	96.25
48828	-1.422	0.639	0.569	-59.43	-266.28	99.4
48845	-1.319	0.657	0.579	-72.87	-264.25	101.5
48864	-1.282	0.591	0.628	-81.13	-266.07	104.93
48885	-1.185	0.549	0.572	-75.39	-271.6	110.95
48905	-1.045	0.575	0.531	-72.24	-274.82	116.34
48925	-0.955	0.528	0.597	-79.66	-275.03	115.15
48945	-0.902	0.477	0.603	-84.07	-279.65	112.42
48964	-0.758	0.413	0.528	-83.79	-284.13	111.79
48989	-0.59	0.329	0.422	-75.04	-281.05	109.48
49009	-0.487	0.336	0.341	-70.84	-276.99	109.27
49024	-0.389	0.303	0.329	-80.15	-278.95	107.38
49049	-0.147	0.171	0.304	-92.12	-265.72	100.52
49066	-0.051	0.06	0.255	-97.09	-254.87	97.02
49089	0.095	-0.07	0.204	-85.61	-230.51	91.07
49107	0.183	-0.126	0.154	-70.49	-215.67	88.41
49131	0.311	-0.091	0.157	-64.33	-192.29	79.45
49151	0.389	-0.127	0.199	-73.08	-164.64	68.88
49169	0.397	-0.176	0.206	-75.88	-147.35	59.71
49191	0.435	-0.241	0.142	-73.36	-135.03	54.04
49210	0.432	-0.277	0.106	-63.91	-128.24	46.9
49235	0.461	-0.239	0.067	-55.79	-122.64	38.15
49251	0.502	-0.218	0.068	-55.86	-111.16	39.97
49275	0.562	-0.209	0.05	-60.48	-103.11	35.49
49293	0.641	-0.302	-0.02	-57.89	-104.58	33.18
49310	0.734	-0.338	0.038	-49.77	-103.67	32.76
49330	0.854	-0.4	0.012	-35.56	-78.82	26.32
49355	0.932	-0.339	0.033	-26.74	-74.55	22.05
49375	0.963	-0.368	0.022	-31.08	-72.94	16.17
49393	1.151	-0.421	0.052	-25.27	-53.55	10.99
49415	1.128	-0.427	0.058	-14.98	-40.53	8.47
49438	1.149	-0.402	0.058	-12.88	-35.56	5.88
49456	1.141	-0.423	0.084	-6.23	-26.46	5.25
49477	1.1	-0.408	0.11	-0.49	-20.37	4.06
49497	1.096	-0.401	0.116	3.5	-15.89	3.22
49517	1.09	-0.414	0.135	6.02	-9.31	1.96
49540	1.064	-0.421	0.153	11.13	-3.99	0.63
49559	1.052	-0.405	0.156	14.0	-0.42	-0.49
49576	1.047	-0.404	0.16	15.19	3.92	-2.1
49601	1.035	-0.392	0.13	16.59	10.99	-3.92
49620	1.019	-0.385	0.102	18.76	16.8	-4.97
49638	1.009	-0.374	0.076	22.47	23.8	-5.95
49662	0.994	-0.37	0.039	28.77	32.69	-5.67
49682	0.991	-0.366	-0.005	39.83	50.54	-6.51
49702	0.956	-0.315	-0.038	42.98	63.07	-8.96
49722	0.911	-0.312	-0.046	49.56	82.95	-12.18
49742	0.795	-0.303	0.12	55.65	99.89	-17.85
49762	0.739	-0.31	0.012	60.41	111.51	-24.01
49782	0.663	-0.273	0.02	74.76	123.83	-27.93
49802	0.602	-0.197	0.073	77.49	135.31	-33.32
49822	0.569	-0.18	0.103	75.6	142.1	-38.43
49842	0.508	-0.182	0.165	76.37	155.12	-44.1
49862	0.427	-0.183	0.226	85.47	165.76	-50.4
49882	0.392	-0.132	0.236	95.27	172.76	-56.14
49906	0.318	-0.053	0.324	98.42	189.49	-65.94
49926	0.235	0.013	0.412	90.72	194.18	-73.08
49945	0.188	0.091	0.46	80.85	206.78	-76.79
49966	0.152	0.136	0.435	79.24	223.37	-80.22
49988	0.021	0.185	0.441	83.93	249.06	-81.13
50013	-0.225	0.221	0.561	86.45	257.18	-84.63
50030	-0.269	0.323	0.575	82.39	261.8	-86.45
50050	-0.355	0.354	0.543	76.58	279.79	-90.44
50072	-0.588	0.395	0.61	73.5	286.93	-92.26
50092	-0.732	0.332	0.718	70.91	278.11	-91.91
50115	-0.767	0.305	0.708	84.7	273.21	-91.49
50136	-0.863	0.277	0.566	119.14	277.48	-89.74
50151	-1.019	0.414	0.552	120.05	267.05	-96.53
50176	-1.083	0.543	0.646	110.25	268.24	-102.2
50194	-1.235	0.481	0.697	93.24	267.68	-105.42
50213	-1.335	0.378	0.622	84.21	262.64	-113.61
50237	-1.373	0.295	0.531	89.32	255.57	-121.59
50253	-1.462	0.285	0.469	101.5	252.21	-127.54
50277	-1.606	0.378	0.419	104.72	246.61	-134.68
50297	-1.756	0.475	0.432	88.83	241.57	-139.65
50318	-1.85	0.596	0.507	65.03	220.64	-138.11
50338	-1.78	0.607	0.532	20.72	204.68	-122.78
50358	-1.646	0.518	0.616	-23.17	178.01	-102.76
50378	-1.549	0.308	0.568	-41.02	154.35	-67.27
50397	-1.568	0.187	0.508	-21.7	116.62	-40.04
50418	-1.524	0.212	0.46	-19.39	89.53	-18.41
50437	-1.351	0.289	0.444	-17.5	55.09	-1.68
50460	-1.238	0.229	0.42	-19.32	39.62	11.62
50484	-1.185	0.18	0.376	-10.71	29.19	20.65
50503	-1.118	0.148	0.296	-1.61	22.26	22.4
50522	-1.068	0.126	0.236	7.56	20.86	19.25
50547	-1.047	0.132	0.222	18.62	19.81	11.13
50565	-1.034	0.214	0.222	17.99	19.46	3.5
50585	-1.047	0.238	0.215	8.89	15.82	-3.71
50609	-1.063	0.251	0.174	-4.34	14.7	-10.15
50629	-1.097	0.194	0.137	-21.21	4.55	-8.75
50648	-1.122	0.081	0.157	-18.27	-5.25	-2.73
50669	-1.156	-0.037	0.183	8.4	-19.04	10.64
50687	-1.18	0.028	0.212	30.45	-31.01	18.62
50707	-1.207	0.134	0.3	30.38	-43.96	25.48
50731	-1.276	0.125	0.418	19.46	-54.11	27.51
50751	-1.348	0.144	0.524	16.17	-67.2	28.35
50770	-1.427	0.201	0.621	16.45	-80.36	25.06
50789	-1.475	0.276	0.673	2.52	-99.61	20.37
50812	-1.452	0.366	0.675	-11.13	-117.04	14.07
50836	-1.5	0.38	0.687	-20.23	-129.92	18.13
50856	-1.559	0.337	0.665	3.71	-144.41	34.09
50875	-1.748	0.387	0.619	27.58	-162.4	53.13
50895	-1.677	0.673	0.59	4.69	-188.86	62.23
50913	-1.721	0.612	0.59	-23.87	-204.12	68.46
50936	-1.695	0.546	0.478	-26.67	-227.08	75.46
50956	-1.671	0.547	0.409	-33.04	-238.07	85.33
50972	-1.663	0.571	0.394	-35.42	-250.95	93.73
50992	-1.632	0.57	0.373	-44.66	-262.57	104.09
51015	-1.585	0.604	0.325	-52.64	-272.72	119.77
51036	-1.489	0.593	0.353	-71.12	-281.19	124.74
51052	-1.443	0.512	0.353	-76.44	-304.01	129.71
51076	-1.351	0.435	0.362	-76.3	-294.77	136.64
51095	-1.187	0.398	0.35	-74.76	-297.22	136.78
51116	-1.065	0.379	0.369	-78.82	-302.68	134.12
51136	-0.918	0.321	0.356	-84.42	-306.39	127.4
51156	-0.735	0.399	0.301	-98.42	-299.18	122.08
51173	-0.526	0.286	0.29	-114.24	-291.69	114.94
51197	-0.423	0.111	0.355	-118.09	-280.91	102.41
51216	-0.245	-0.019	0.262	-107.45	-276.5	96.67
51240	0.005	-0.01	0.212	-88.2	-253.12	92.89
51260	0.114	-0.034	0.208	-83.09	-229.81	84.14
51278	0.185	-0.053	0.188	-86.73	-215.46	74.9
51300	0.259	-0.127	0.118	-86.8	-194.81	66.36
51319	0.343	-0.112	0.109	-76.58	-175.56	63.14
51344	0.369	-0.096	0.136	-68.74	-153.93	60.41
51364	0.43	-0.099	0.187	-77.0	-142.24	54.74
51379	0.511	-0.178	0.17	-83.37	-128.59	55.79
51404	0.711	-0.292	0.129	-83.02	-124.53	39.9
51421	0.701	-0.318	0.124	-69.93	-105.56	36.12
51445	0.746	-0.298	0.158	-66.15	-94.85	30.73
51464	0.834	-0.349	0.092	-67.2	-95.27	24.43
51485	1.069	-0.454	0.165	-54.25	-68.67	16.31
51504	0.967	-0.407	0.128	-39.76	-68.39	11.76
51523	1.039	-0.373	0.101	-27.79	-61.32	6.37
51545	1.083	-0.34	0.104	-26.67	-51.94	0.35
51568	1.092	-0.354	0.102	-28.98	-38.22	-4.62
51587	1.081	-0.393	0.117	-21.28	-30.38	-6.02
51606	1.077	-0.386	0.128	-12.39	-21.84	-6.58
51631	1.067	-0.367	0.138	-4.97	-11.76	-6.79
51651	1.046	-0.338	0.154	-0.21	-6.3	-7.07
51668	1.027	-0.312	0.157	1.89	-2.1	-6.3
51691	1.015	-0.32	0.192	3.85	4.9	-5.39
51712	0.996	-0.336	0.195	9.8	8.75	-3.85
51736	0.989	-0.332	0.19	17.99	15.89	-3.01
51755	0.976	-0.343	0.181	21.91	20.72	-3.78
51779	0.985	-0.334	0.165	27.58	27.51	-4.83
51794	0.967	-0.324	0.116	29.12	35.84	-6.02
51819	0.956	-0.3	0.079	33.95	48.16	-7.91
51838	0.927	-0.276	0.06	33.6	61.67	-10.57
51859	0.882	-0.26	0.063	36.4	80.5	-12.67
51875	0.852	-0.247	0.063	41.09	94.22	-14.21
51897	0.792	-0.216	0.061	46.62	112.56	-15.47
51918	0.733	-0.197	0.111	53.27	126.21	-16.73
51941	0.698	-0.183	0.164	59.22	140.35	-17.08
51962	0.6	-0.182	0.243	69.3	158.13	-20.09
51981	0.52	-0.136	0.283	78.4	162.4	-21.14
52005	0.463	-0.067	0.284	86.38	170.52	-25.9
52025	0.409	0.022	0.304	82.32	182.14	-30.73
52041	0.314	0.024	0.405	76.09	188.23	-35.14
52064	0.23	0.014	0.465	76.16	193.34	-36.68
52085	0.156	0.053	0.459	84.14	201.81	-38.08
52105	0.058	0.104	0.42	94.64	210.77	-40.04
52124	-0.041	0.181	0.455	93.73	221.34	-43.47
52144	-0.125	0.194	0.533	94.43	226.73	-45.36
52169	-0.236	0.284	0.555	92.33	240.1	-48.79
52188	-0.369	0.286	0.563	87.08	252.98	-54.53
52208	-0.508	0.256	0.588	84.49	255.64	-57.82
52233	-0.61	0.258	0.611	94.29	250.32	-62.44
52250	-0.61	0.296	0.609	99.61	257.81	-66.71
52272	-0.76	0.304	0.579	101.08	265.79	-75.32
52295	-0.885	0.298	0.592	106.47	272.09	-87.57
52316	-1.06	0.341	0.54	117.74	271.53	-96.32
52334	-1.254	0.454	0.455	120.96	283.78	-105.98
52353	-1.457	0.539	0.4	114.8	270.06	-110.53
52373	-1.634	0.539	0.468	100.59	255.99	-109.9
52397	-1.597	0.539	0.525	85.75	233.87	-105.28
52413	-1.581	0.461	0.544	67.13	235.76	-100.52
52437	-1.643	0.47	0.497	55.09	232.12	-93.73
52458	-1.691	0.446	0.54	34.23	211.96	-84.0
52478	-1.715	0.318	0.521	32.34	176.54	-73.78
52497	-1.564	0.316	0.531	42.42	164.5	-57.96
52517	-1.575	0.357	0.539	39.27	141.89	-49.28
52540	-1.518	0.422	0.549	22.26	111.72	-38.08
52560	-1.429	0.382	0.526	4.41	92.82	-29.26
52580	-1.381	0.356	0.506	-6.44	73.43	-18.69
52604	-1.276	0.3	0.477	-9.45	55.93	-7.21
52624	-1.239	0.28	0.444	-14.56	44.87	0.98
52644	-1.202	0.251	0.391	-16.94	29.12	5.53
52659	-1.164	0.228	0.359	-12.25	19.25	5.88
52684	-1.144	0.206	0.344	-8.19	6.23	7.56
52701	-1.097	0.122	0.348	19.81	-2.17	10.15
52721	-1.11	0.244	0.299	30.52	-14.77	11.27
52740	-1.05	0.339	0.243	18.48	-23.52	8.47
52765	-1.055	0.349	0.226	3.85	-26.67	5.46
52785	-1.098	0.215	0.203	-0.35	-36.19	8.54
52805	-1.078	0.131	0.177	20.37	-40.32	14.7
52824	-1.124	0.2	0.242	39.06	-46.83	23.38
52842	-1.172	0.266	0.346	39.83	-52.85	28.42
52866	-1.238	0.313	0.46	20.16	-58.52	29.68
52886	-1.355	0.259	0.593	3.57	-70.0	29.54
52901	-1.389	0.237	0.656	-0.35	-78.33	27.51
52926	-1.442	0.343	0.682	0.14	-102.27	31.29
52945	-1.496	0.452	0.7	-8.19	-122.71	35.77
52965	-1.574	0.446	0.706	-12.88	-154.0	45.78
52986	-1.633	0.47	0.744	-14.28	-184.1	59.57
53010	-1.645	0.506	0.74	-8.05	-205.1	77.0
53029	-1.672	0.598	0.671	-6.02	-230.72	85.75
53053	-1.586	0.729	0.61	-16.45	-251.16	96.11
53072	-1.557	0.778	0.6	-43.89	-260.54	97.72
53090	-1.576	0.744	0.575	-67.69	-266.42	97.86
53113	-1.495	0.723	0.486	-77.56	-274.05	100.17
53133	-1.345	0.722	0.415	-85.68	-276.92	104.23
53157	-1.239	0.694	0.417	-99.33	-275.52	103.81
53177	-1.101	0.65	0.471	-109.55	-271.18	102.27
53197	-0.972	0.492	0.458	-109.27	-267.47	99.47
53216	-0.821	0.448	0.425	-106.33	-264.88	95.83
53240	-0.675	0.41	0.434	-108.5	-257.81	85.82
53260	-0.583	0.291	0.445	-106.26	-246.89	73.99
53280	-0.46	0.257	0.393	-103.04	-245.07	70.77
53300	-0.349	0.234	0.407	-99.33	-229.95	63.0
53320	-0.332	0.164	0.393	-96.11	-225.47	62.44
53340	-0.226	0.173	0.373	-104.37	-221.55	63.7
53360	-0.057	0.101	0.342	-109.2	-207.13	61.11
53379	0.014	-0.038	0.361	-107.03	-193.2	58.8
53402	0.041	-0.131	0.352	-88.06	-186.55	59.57
53423	0.113	-0.171	0.305	-73.64	-187.32	60.2
53440	0.251	-0.111	0.319	-74.2	-176.19	53.62
53460	0.341	-0.146	0.319	-69.44	-166.67	49.07
53484	0.406	-0.071	0.289	-89.39	-159.74	46.13
53504	0.483	-0.12	0.302	-78.05	-151.06	48.44
53519	0.445	-0.126	0.275	-82.18	-153.58	38.71
53539	0.577	-0.154	0.188	-77.77	-149.52	34.93
53563	0.711	-0.248	0.093	-67.41	-130.55	28.35
53584	0.854	-0.392	0.129	-50.26	-122.57	34.02
53602	0.754	-0.336	0.142	-46.9	-114.38	26.6
53620	0.823	-0.364	0.108	-37.8	-102.41	24.36
53643	0.804	-0.32	0.108	-34.3	-95.55	17.78
53663	0.831	-0.33	0.094	-33.53	-92.68	13.37
53687	0.938	-0.313	0.097	-39.9	-87.22	11.06
53706	0.944	-0.404	0.061	-40.67	-77.98	9.52
53730	0.995	-0.488	0.02	-35.21	-71.75	8.61
53751	1.083	-0.482	0.008	-25.48	-57.96	8.19
53767	1.088	-0.474	0.003	-22.54	-48.58	5.39
53791	1.073	-0.504	-0.078	-15.61	-41.86	-1.05
53810	1.165	-0.468	-0.028	-19.18	-18.48	-5.18
53831	1.14	-0.459	-0.061	-10.92	-8.26	-5.67
53855	1.124	-0.429	-0.044	-6.51	2.52	-8.26
53874	1.088	-0.398	-0.02	0.84	10.57	-8.96
53891	1.057	-0.356	0.003	5.39	14.35	-9.1
53915	1.028	-0.335	0.022	9.38	18.48	-8.12
53935	0.985	-0.343	0.04	12.95	21.0	-6.37
53954	0.986	-0.351	0.05	19.53	23.38	-4.62
53972	0.987	-0.34	0.058	24.99	26.32	-2.87
53995	0.988	-0.347	0.046	30.73	33.53	-2.31
54013	0.969	-0.356	0.028	35.42	38.85	-2.17
54035	0.966	-0.32	0.001	38.01	49.07	-2.17
54055	0.952	-0.305	-0.025	38.5	61.04	-2.59
54079	0.912	-0.322	-0.041	41.09	79.87	-2.8
54099	0.863	-0.335	-0.044	52.71	93.94	-3.36
54117	0.815	-0.294	-0.067	61.11	109.27	-5.46
54134	0.742	-0.255	-0.065	67.13	122.85	-7.35
54159	0.686	-0.218	-0.071	74.34	136.92	-10.36
54178	0.611	-0.196	0.002	80.08	157.64	-13.58
54199	0.537	-0.193	0.072	82.25	169.26	-16.45
54218	0.496	-0.189	0.104	88.55	185.08	-18.97
54238	0.417	-0.16	0.113	97.79	198.1	-23.17
54261	0.316	-0.104	0.213	103.81	213.01	-29.47
54285	0.204	-0.042	0.298	101.57	220.92	-37.45
54305	0.133	-0.005	0.349	103.53	231.63	-41.72
54322	0.053	0.062	0.344	107.24	249.34	-44.94
54340	-0.05	0.084	0.364	110.11	260.82	-49.14
54365	-0.201	0.144	0.497	119.91	273.35	-58.45
54383	-0.346	0.281	0.557	124.32	278.95	-61.11
54402	-0.455	0.494	0.515	126.7	289.17	-66.08
54427	-0.649	0.447	0.609	106.54	291.83	-71.47
54445	-0.821	0.376	0.673	103.32	281.12	-72.66
54466	-0.913	0.409	0.699	109.2	280.56	-68.81
54490	-0.998	0.423	0.636	114.94	273.07	-79.31
54509	-1.06	0.395	0.555	120.68	264.6	-82.88
54528	-1.152	0.47	0.545	121.1	261.31	-83.72
54552	-1.299	0.556	0.574	109.41	255.92	-87.64
54572	-1.423	0.52	0.55	99.61	251.37	-86.38
54588	-1.485	0.5	0.472	97.58	243.81	-86.66
54613	-1.528	0.585	0.417	85.19	233.24	-83.79
54633	-1.456	0.585	0.522	53.41	232.54	-83.09
54650	-1.578	0.514	0.567	30.03	230.65	-78.4
54669	-1.626	0.377	0.532	25.9	213.78	-72.38
54689	-1.627	0.397	0.427	23.03	204.33	-68.18
54709	-1.713	0.317	0.401	8.54	184.17	-59.36
54733	-1.565	0.399	0.548	2.38	159.11	-50.05
54757	-1.563	0.282	0.549	-8.68	133.07	-33.53
54781	-1.485	0.239	0.508	-1.96	105.28	-18.69
54800	-1.386	0.246	0.504	7.49	82.6	-6.86
54824	-1.483	0.161	0.463	7.35	63.35	1.33
54843	-1.298	0.244	0.485	6.65	36.75	9.66
54859	-1.264	0.029	0.516	37.24	18.41	18.69
54879	-1.295	0.165	0.518	65.8	-3.71	29.05
54899	-1.195	0.45	0.505	44.73	-24.99	22.33
54924	-1.15	0.488	0.361	-16.24	-36.33	2.1
54941	-1.049	0.392	0.304	-43.54	-35.28	-4.34
54960	-1.056	0.196	0.229	-44.03	-36.89	-6.02
54984	-1.062	0.032	0.23	-7.42	-40.95	3.29
55005	-1.248	0.112	0.238	19.67	-47.53	10.99
55025	-1.205	0.201	0.348	28.0	-57.4	15.82
55043	-1.294	0.248	0.465	18.48	-68.11	15.75
55062	-1.37	0.231	0.526	8.61	-82.39	16.66
55086	-1.452	0.248	0.594	2.94	-97.79	17.5
55106	-1.573	0.336	0.672	-5.74	-121.52	20.72
55126	-1.599	0.419	0.719	-18.41	-147.98	29.19
55150	-1.618	0.46	0.732	-27.44	-174.72	41.23
55168	-1.661	0.543	0.696	-33.11	-193.62	49.0
55190	-1.697	0.643	0.707	-52.43	-214.97	54.18
55209	-1.649	0.599	0.709	-68.32	-240.1	59.71
55234	-1.603	0.554	0.703	-70.7	-253.96	60.97
55253	-1.569	0.538	0.657	-69.23	-263.97	60.83
55272	-1.483	0.624	0.559	-75.18	-274.68	58.8
55294	-1.379	0.671	0.546	-90.58	-276.43	53.55
55318	-1.338	0.6	0.543	-101.36	-279.65	54.25
55338	-1.218	0.605	0.463	-111.37	-274.75	58.1
55358	-1.008	0.517	0.503	-125.44	-265.09	56.21
55382	-0.902	0.431	0.542	-142.38	-251.72	45.36
55406	-0.79	0.281	0.55	-144.27	-241.36	34.3
55425	-0.687	0.159	0.497	-130.34	-237.65	27.93
55444	-0.594	0.132	0.493	-108.71	-233.59	23.31
55468	-0.508	0.148	0.396	-89.74	-239.47	19.39
55487	-0.385	0.23	0.372	-82.18	-237.23	21.7
55510	-0.311	0.181	0.342	-81.55	-236.04	25.27
55528	-0.307	0.104	0.328	-78.68	-242.48	27.23
55552	-0.103	0.024	0.27	-70.63	-241.71	37.73
55572	0.09	0.04	0.286	-62.09	-218.96	34.58
55592	0.139	-0.026	0.181	-60.76	-223.86	38.01
55607	0.271	-0.044	0.193	-67.34	-201.81	34.58
55632	0.327	-0.102	0.207	-71.33	-191.24	34.86
55652	0.418	-0.191	0.202	-73.99	-171.01	32.69
55671	0.527	-0.262	0.191	-74.76	-155.61	33.53
55691	0.591	-0.292	0.154	-74.55	-134.68	34.65
55711	0.694	-0.327	0.126	-73.57	-129.08	28.63
55735	0.729	-0.33	0.121	-67.06	-103.67	20.51
55755	0.723	-0.366	0.088	-65.8	-80.57	23.52
55773	0.871	-0.402	0.046	-67.76	-84.91	11.06
55790	0.853	-0.455	0.029	-56.84	-66.22	7.35
55815	0.951	-0.493	0.003	-42.98	-56.63	3.22
55835	1.016	-0.473	0.029	-24.71	-45.29	0.0
55858	1.043	-0.429	0.065	-17.78	-35.63	-2.94
55879	1.092	-0.398	0.101	-12.81	-26.53	-3.5
55899	1.113	-0.4	0.138	-10.92	-16.73	-4.2
55918	1.103	-0.407	0.161	-5.39	-9.94	-1.89
55938	1.1	-0.409	0.183	1.12	-3.5	0.56
55962	1.084	-0.404	0.196	9.45	6.72	4.76
55982	1.041	-0.373	0.211	14.14	13.65	7.7
55999	1.009	-0.369	0.229	13.86	18.55	8.19
56018	0.956	-0.375	0.234	13.3	22.68	9.38
56043	0.898	-0.39	0.238	16.45	27.16	11.06
56063	0.854	-0.381	0.222	21.84	32.2	12.46
56079	0.824	-0.376	0.201	27.3	36.54	14.28
56099	0.783	-0.353	0.179	35.0	43.54	16.66
56123	0.735	-0.336	0.124	45.36	52.29	20.37
56142	0.691	-0.328	0.07	59.22	62.51	24.29
56162	0.621	-0.32	0.02	82.18	73.29	28.28
56186	0.587	-0.308	-0.025	108.71	87.29	36.33
56206	0.564	-0.285	-0.052	145.11	102.27	43.89
56226	0.533	-0.244	-0.034	178.15	127.75	49.0
56243	0.472	-0.231	-0.016	194.74	145.88	49.07
56262	0.423	-0.195	0.069	206.85	169.26	43.82
56286	0.313	-0.13	0.098	211.82	185.64	29.26
56305	0.287	-0.027	0.101	214.48	209.37	14.56
56329	0.194	0.022	0.044	228.41	231.07	-3.92
56348	0.001	0.16	0.172	255.08	247.66	-23.03
56367	-0.24	0.428	0.339	265.37	257.95	-44.8
56388	-0.327	0.657	0.362	259.49	261.73	-62.86
56408	-0.305	0.759	0.213	244.16	269.29	-75.25
56432	-0.571	0.733	0.315	247.52	274.19	-103.11
56452	-0.768	0.789	0.514	214.48	269.92	-128.17
56470	-0.914	0.751	0.479	203.21	258.65	-128.52
56492	-0.99	0.991	0.163	206.08	267.61	-136.36
56516	-1.293	1.312	0.093	167.79	267.26	-139.51
56536	-1.545	1.279	0.258	131.04	255.08	-127.05
56556	-1.715	0.907	0.504	141.54	237.72	-101.57
56580	-1.653	0.721	0.509	190.96	221.97	-65.66
56600	-1.592	0.859	0.327	248.01	202.23	-56.98
56618	-1.584	1.121	0.267	262.29	182.84	-59.78
56639	-1.535	1.337	0.292	238.35	166.53	-68.39
56659	-1.512	1.118	0.398	219.1	170.03	-67.41
56678	-1.415	1.094	0.511	215.67	182.28	-52.5
56701	-1.305	0.896	1.403	246.33	107.24	16.73
56720	-3.716	1.71	2.049	493.92	150.43	102.41
56743	-1.468	2.016	0.149	101.43	-85.89	27.3
56763	-0.517	1.369	0.049	-57.82	-23.03	-55.79
56785	-0.578	1.287	-0.028	-159.67	-7.56	-102.9
56808	-0.738	0.914	-0.181	-266.28	7.91	-133.56
