Millis	AccelX	AccelY	AccelZ	GyroX	GyroY	GyroZ
0	-0.996	0.114	0.224	-1.47	-4.27	5.11
17	-0.995	0.121	0.227	-3.15	-3.57	5.25
37	-0.995	0.122	0.229	-3.78	-3.5	4.83
61	-0.98	0.123	0.231	-4.76	-1.89	3.78
81	-0.983	0.147	0.192	-0.91	3.36	-1.26
100	-1.007	0.109	0.214	-2.59	-2.94	1.82
121	-0.991	0.122	0.235	-3.92	-0.14	0.77
145	-1.006	0.115	0.234	-3.36	-0.56	0.28
165	-0.99	0.103	0.224	-5.46	-0.21	0.28
182	-0.981	0.105	0.217	-3.92	-0.07	-0.56
206	-1.028	0.117	0.23	-4.48	-2.03	0.21
226	-0.99	0.101	0.234	-4.55	0.28	1.19
242	-0.998	0.107	0.225	-4.2	-1.12	1.33
262	-1.002	0.104	0.23	-2.73	-0.7	1.54
282	-0.989	0.105	0.229	-2.8	-1.12	1.33
306	-0.999	0.112	0.229	-2.73	-1.47	1.4
324	-0.995	0.11	0.224	-2.03	-1.4	1.33
348	-0.995	0.109	0.226	-0.63	-1.82	1.12
366	-0.994	0.11	0.227	0.35	-1.89	0.98
390	-0.994	0.113	0.225	-0.14	-1.82	0.63
410	-1.007	0.109	0.227	0.35	-2.52	0.7
430	-0.988	0.111	0.221	-1.4	-3.15	-0.98
453	-1.045	0.123	0.233	-0.14	-3.08	1.26
474	-0.99	0.1	0.221	-2.31	-1.75	0.35
493	-1.008	0.097	0.223	-0.42	-3.78	2.94
517	-0.996	0.107	0.218	0.07	-3.57	3.43
537	-0.994	0.112	0.219	1.19	-4.48	4.06
557	-0.997	0.111	0.219	0.56	-3.92	4.76
574	-0.996	0.122	0.223	0.56	-4.55	4.69
594	-0.995	0.126	0.226	-1.47	-3.71	4.9
617	-0.986	0.119	0.229	-1.47	-3.57	3.92
637	-0.985	0.122	0.232	-1.82	-2.38	3.36
661	-0.993	0.133	0.239	-3.64	-2.1	1.82
679	-0.991	0.125	0.23	-5.67	-0.98	0.91
699	-0.994	0.12	0.229	-7.0	-1.47	0.35
722	-0.998	0.124	0.232	-8.19	-1.19	-0.14
743	-0.997	0.114	0.228	-8.05	-1.19	-0.07
762	-1.008	0.116	0.231	-7.63	-2.03	-0.07
786	-0.988	0.111	0.224	-5.39	-1.26	0.35
806	-0.993	0.114	0.228	-5.53	-2.03	0.14
825	-1.0	0.106	0.223	-3.29	-2.52	0.42
845	-1.007	0.116	0.228	-2.94	-2.73	-0.07
865	-0.996	0.12	0.228	-2.73	-1.82	0.07
885	-0.998	0.119	0.228	-2.52	-2.38	-0.07
909	-0.997	0.1	0.221	-0.49	-1.75	0.0
927	-0.989	0.114	0.227	-0.98	-1.96	0.07
949	-0.996	0.113	0.227	-0.63	-2.87	0.07
969	-0.996	0.113	0.229	0.0	-2.24	0.28
990	-0.986	0.103	0.224	-0.14	-2.1	0.63
1009	-0.986	0.112	0.228	-0.42	-1.89	0.28
1027	-0.997	0.113	0.23	-0.42	-2.1	-0.07
1047	-0.996	0.112	0.23	-0.35	-1.54	-0.21
1071	-0.996	0.11	0.228	-0.21	-1.47	-0.49
1091	-0.992	0.108	0.229	-0.14	-1.47	-0.56
1106	-0.996	0.109	0.227	-0.21	-1.19	-0.7
1126	-0.995	0.108	0.224	-0.28	-1.19	-0.7
1146	-0.997	0.107	0.224	-0.56	-0.98	-0.7
1171	-0.996	0.106	0.227	-0.49	-1.12	-0.63
1191	-1.001	0.101	0.224	0.0	-1.82	-0.49
1210	-0.997	0.1	0.223	0.14	-1.82	-0.35
1229	-0.999	0.103	0.221	0.56	-2.38	0.0
1249	-0.998	0.104	0.222	0.63	-2.59	0.28
1270	-1.009	0.109	0.228	0.98	-2.31	0.63
1289	-0.99	0.1	0.223	1.12	-2.52	0.42
1314	-1.007	0.109	0.233	0.49	-3.78	0.56
1334	-0.995	0.099	0.224	0.84	-2.45	0.56
1351	-0.994	0.107	0.227	0.21	-3.01	0.35
1375	-0.999	0.102	0.226	0.35	-2.87	0.35
1395	-0.997	0.101	0.224	0.0	-2.66	0.35
1415	-0.996	0.105	0.226	-0.07	-2.59	0.28
1434	-0.996	0.099	0.224	0.0	-2.52	0.35
1453	-0.998	0.099	0.225	0.14	-2.66	0.63
1476	-0.997	0.103	0.224	2.03	-2.45	1.12
1496	-0.996	0.096	0.222	3.29	-2.66	0.91
1516	-0.994	0.101	0.224	4.13	-2.87	0.91
1540	-0.996	0.101	0.224	3.99	-2.66	0.98
1564	-0.996	0.105	0.229	4.83	-2.73	1.12
1584	-1.0	0.092	0.221	6.58	-2.94	1.47
1600	-0.992	0.122	0.23	7.28	-3.36	1.47
1621	-0.997	0.101	0.23	4.83	-2.66	1.33
1641	-0.994	0.1	0.227	3.71	-2.8	1.4
1665	-0.996	0.101	0.228	2.24	-2.66	1.33
1685	-0.996	0.105	0.227	1.4	-2.73	1.4
1704	-0.997	0.105	0.228	1.26	-2.59	1.54
1722	-0.998	0.108	0.229	3.5	-2.94	1.61
1746	-0.996	0.103	0.229	1.89	-2.52	1.75
1766	-1.0	0.106	0.226	2.38	-2.8	1.61
1786	-0.996	0.107	0.225	2.87	-2.87	1.54
1805	-0.996	0.105	0.222	0.91	-3.15	1.68
1824	-1.001	0.102	0.222	0.21	-3.85	2.1
1848	-1.001	0.107	0.224	0.21	-4.34	2.24
1868	-0.993	0.103	0.231	-0.14	-4.13	2.45
1887	-0.996	0.107	0.229	-0.35	-4.27	2.8
1906	-0.999	0.106	0.231	-2.38	-4.2	2.73
1930	-0.99	0.104	0.228	-1.54	-3.78	3.29
1949	-0.994	0.113	0.229	-3.71	-3.99	3.29
1970	-0.995	0.109	0.236	-5.6	-3.64	2.45
1990	-1.001	0.117	0.24	-5.67	-2.94	2.66
2010	-0.99	0.116	0.236	-5.32	-2.73	2.17
2029	-1.002	0.12	0.24	-4.97	-2.38	1.75
2049	-0.986	0.112	0.234	-4.13	-2.31	1.47
2072	-0.995	0.11	0.236	-3.64	-1.68	1.33
2093	-0.99	0.105	0.234	-2.45	-2.03	1.19
2112	-0.991	0.111	0.234	-0.98	-2.17	1.4
2136	-0.993	0.104	0.234	0.14	-2.03	1.54
2156	-0.995	0.105	0.229	2.24	-1.89	1.82
2176	-0.99	0.108	0.236	3.71	-1.61	1.96
2196	-0.992	0.11	0.231	5.04	-1.68	2.17
2216	-0.994	0.117	0.237	9.66	-1.61	2.24
2235	-0.997	0.112	0.239	13.16	-2.17	2.45
2255	-0.997	0.12	0.235	10.36	-1.75	2.66
2278	-0.989	0.118	0.232	7.28	-2.8	2.24
2297	-0.997	0.118	0.232	3.29	-2.17	1.82
2317	-0.988	0.119	0.232	4.27	-2.24	1.96
2342	-0.998	0.113	0.231	3.43	-2.45	1.61
2361	-0.989	0.124	0.232	3.29	-2.31	1.05
2380	-0.99	0.123	0.235	3.01	-2.38	0.84
2405	-0.992	0.113	0.231	0.84	-1.89	0.77
2423	-0.993	0.116	0.228	0.77	-2.03	0.84
2444	-0.989	0.121	0.228	-1.19	-1.12	0.63
2467	-0.994	0.113	0.231	0.21	-2.1	0.7
2491	-0.996	0.119	0.236	-1.12	-2.24	0.35
2511	-0.995	0.123	0.233	-0.28	-1.26	0.07
2531	-0.988	0.116	0.232	-1.68	-0.84	-0.21
2548	-0.997	0.118	0.228	-2.17	-0.98	-0.21
2568	-0.995	0.114	0.227	-2.03	-0.98	-0.28
2592	-0.994	0.11	0.23	-2.24	-0.84	-0.28
2610	-0.993	0.115	0.224	-2.24	-1.12	-0.28
2630	-0.999	0.109	0.224	-2.73	-1.47	0.14
2654	-0.996	0.108	0.228	-3.15	-0.7	0.42
2673	-0.991	0.113	0.228	-4.48	-0.63	0.42
2694	-0.996	0.113	0.23	-6.3	-0.49	0.35
2709	-0.992	0.113	0.23	-7.91	0.07	0.28
2734	-0.996	0.117	0.232	-10.08	0.42	0.14
2754	-0.98	0.114	0.228	-11.48	1.54	-0.49
2774	-0.999	0.112	0.226	-12.6	1.54	-0.84
2794	-0.997	0.116	0.229	-11.76	2.1	-1.47
2814	-1.0	0.11	0.225	-11.48	1.19	-2.38
2831	-1.006	0.108	0.221	-10.01	1.05	-2.03
2853	-1.008	0.102	0.216	-7.77	0.21	-1.75
2871	-0.988	0.091	0.213	-6.3	0.98	-1.96
2895	-1.011	0.093	0.214	-4.62	-1.26	-1.05
2915	-1.004	0.092	0.214	-2.03	-1.89	-0.56
2935	-1.0	0.093	0.214	-1.26	-2.31	-0.35
2951	-1.016	0.105	0.222	-0.07	-2.03	0.14
2970	-0.989	0.089	0.218	-0.14	-2.31	0.0
2995	-0.998	0.097	0.22	0.07	-2.8	0.0
3015	-1.0	0.092	0.218	0.7	-2.87	-0.07
3034	-0.998	0.099	0.218	0.98	-3.15	0.0
3053	-0.997	0.088	0.219	1.61	-3.15	0.07
3078	-1.003	0.088	0.221	7.28	-4.34	0.84
3098	-1.0	0.066	0.228	15.12	-4.2	1.19
3117	-0.992	0.094	0.219	7.35	-3.15	1.12
3136	-0.997	0.102	0.216	15.68	-3.71	1.19
3161	-0.994	0.091	0.222	7.63	-3.57	1.05
3181	-0.994	0.098	0.221	4.27	-3.43	1.26
3197	-0.997	0.1	0.224	4.97	-3.57	1.05
3221	-0.997	0.096	0.222	2.73	-3.15	1.26
3237	-0.994	0.103	0.221	2.17	-3.71	1.19
3256	-0.998	0.102	0.224	2.38	-3.78	1.05
3276	-0.996	0.097	0.221	0.42	-3.57	1.12
3300	-1.002	0.097	0.222	-0.7	-4.13	1.54
3321	-1.001	0.091	0.217	-1.33	-4.62	2.38
3341	-1.001	0.093	0.219	-1.82	-5.04	3.08
3359	-1.003	0.096	0.22	-1.12	-6.02	3.78
3379	-0.993	0.102	0.223	-0.14	-6.3	3.99
3402	-1.003	0.087	0.218	-0.35	-7.28	4.48
3422	-1.001	0.094	0.227	0.7	-8.05	4.97
3446	-0.978	0.104	0.231	-1.05	-6.58	4.06
3470	-0.997	0.115	0.247	-3.43	-5.81	5.53
3486	-0.973	0.109	0.236	-3.78	-5.81	3.22
3510	-0.877	0.118	0.234	-4.27	-6.16	2.24
3530	-0.983	0.106	0.244	-1.26	-4.41	3.22
3548	-0.99	0.106	0.246	-1.89	-4.97	2.87
3572	-0.993	0.12	0.246	-1.54	-4.48	2.03
3590	-0.992	0.112	0.246	-2.73	-3.71	1.96
3610	-0.994	0.102	0.244	-1.82	-4.83	2.38
3631	-0.995	0.103	0.244	0.7	-4.06	2.59
3650	-0.989	0.11	0.242	1.05	-3.57	2.66
3674	-0.99	0.111	0.244	1.54	-2.94	2.66
3690	-0.992	0.113	0.24	2.38	-2.94	2.52
3715	-0.986	0.116	0.245	8.96	-3.36	1.96
3735	-0.993	0.12	0.251	5.6	-3.08	1.96
3759	-0.991	0.114	0.251	2.45	-2.45	1.89
3779	-0.989	0.115	0.245	0.98	-2.1	1.61
3798	-0.992	0.112	0.244	0.0	-2.38	1.4
3819	-0.991	0.112	0.241	1.12	-2.24	1.4
3839	-0.988	0.117	0.248	1.12	-1.26	1.12
3857	-0.985	0.121	0.248	-0.7	-0.21	0.7
3876	-0.993	0.116	0.248	-2.45	0.0	0.42
3895	-0.998	0.116	0.241	-3.22	-0.28	0.56
3920	-0.995	0.114	0.244	-3.22	-0.28	0.63
3940	-0.989	0.108	0.24	-2.94	0.0	0.49
3960	-0.992	0.117	0.244	-3.57	0.0	0.42
3978	-0.992	0.117	0.242	-4.48	0.21	0.56
3999	-0.995	0.11	0.24	-4.55	0.42	0.63
4015	-0.997	0.113	0.237	-4.83	-0.21	0.56
4040	-1.001	0.11	0.233	-2.8	-0.98	0.35
4057	-1.0	0.104	0.23	-3.01	-1.61	0.35
4080	-0.999	0.111	0.233	-1.4	-2.38	0.14
4100	-0.996	0.102	0.236	-0.63	-2.59	0.49
4123	-0.991	0.112	0.24	0.0	-2.73	0.49
4144	-0.992	0.11	0.239	-0.84	-2.17	0.35
4164	-0.997	0.102	0.239	-1.05	-3.22	0.91
4187	-0.993	0.11	0.237	1.05	-3.29	0.56
4208	-0.99	0.11	0.241	0.21	-2.73	0.28
4227	-0.992	0.103	0.242	1.54	-2.03	0.21
4247	-0.992	0.107	0.241	1.19	-2.17	0.21
4270	-0.994	0.11	0.245	0.14	-1.96	0.7
4294	-0.99	0.106	0.24	-0.07	-1.47	0.98
4310	-0.993	0.108	0.24	-0.56	-1.75	1.12
4334	-0.993	0.107	0.24	-1.19	-1.75	1.33
4353	-0.992	0.109	0.241	-1.05	-1.47	1.33
4371	-0.994	0.106	0.237	-0.84	-1.54	1.33
4391	-0.994	0.108	0.237	-0.77	-1.75	1.26
4415	-0.992	0.11	0.235	-0.49	-1.75	1.05
4434	-0.995	0.109	0.235	-0.63	-1.68	0.77
4455	-0.995	0.103	0.237	-0.28	-1.75	0.7
4475	-0.995	0.106	0.238	-0.21	-2.1	0.84
4494	-0.996	0.105	0.236	-0.21	-2.1	0.84
4519	-0.994	0.11	0.236	-0.14	-2.31	0.63
4538	-0.995	0.105	0.235	-0.14	-2.17	0.42
4562	-0.994	0.106	0.235	-0.14	-2.38	0.77
4582	-1.0	0.103	0.236	0.28	-3.57	1.05
4602	-0.996	0.107	0.237	0.49	-3.43	0.91
4621	-0.995	0.109	0.24	0.56	-3.5	1.05
4645	-0.995	0.104	0.242	0.56	-3.5	1.05
4661	-0.993	0.107	0.236	0.21	-3.64	1.19
4684	-0.994	0.105	0.241	0.63	-3.78	1.33
4707	-0.994	0.1	0.238	1.4	-3.5	1.47
4726	-0.989	0.113	0.245	0.56	-3.5	1.47
4746	-0.994	0.111	0.244	0.21	-3.08	1.47
4765	-0.994	0.104	0.244	-0.63	-2.52	1.47
4790	-0.998	0.118	0.248	-0.77	-2.66	1.33
4807	-0.987	0.11	0.244	-0.56	-1.82	0.98
4831	-0.994	0.109	0.243	-0.7	-1.89	0.84
4849	-0.992	0.107	0.246	-0.56	-1.82	0.77
4871	-0.992	0.106	0.241	-0.28	-1.75	0.7
4887	-0.991	0.108	0.243	-0.49	-1.75	0.77
4911	-0.992	0.105	0.243	0.0	-1.61	0.49
4928	-0.994	0.105	0.243	0.07	-1.61	0.49
4947	-0.992	0.105	0.245	0.35	-1.47	0.35
4972	-0.991	0.107	0.243	0.14	-0.98	0.14
4996	-0.986	0.107	0.247	-0.28	-0.63	0.0
5015	-0.993	0.11	0.244	-0.77	-0.14	-0.07
5035	-0.989	0.108	0.241	-1.61	0.35	0.0
5056	-0.986	0.108	0.243	-3.22	1.47	0.07
5075	-0.992	0.109	0.236	-3.43	1.61	0.07
5096	-1.001	0.11	0.237	-5.11	1.47	-0.21
5115	-0.991	0.095	0.228	-4.34	1.89	-0.14
5139	-1.002	0.098	0.228	-3.71	0.56	0.0
5159	-0.994	0.096	0.226	-2.94	0.98	-0.07
5179	-0.999	0.098	0.224	-2.38	0.07	0.07
5199	-1.001	0.086	0.223	1.26	-0.21	0.14
5218	-0.996	0.1	0.225	1.05	-0.49	0.21
5243	-0.998	0.085	0.228	1.61	-1.47	0.7
5262	-0.998	0.097	0.224	1.33	-1.96	1.12
5283	-0.996	0.092	0.226	0.14	-2.24	1.54
5307	-0.998	0.102	0.227	0.0	-2.38	1.68
5327	-0.994	0.094	0.224	0.14	-2.66	1.75
5347	-0.998	0.096	0.228	0.49	-3.22	2.03
5371	-0.999	0.098	0.228	0.49	-3.29	2.31
5391	-0.996	0.1	0.225	0.49	-3.92	3.71
5410	-1.002	0.101	0.23	-0.28	-3.43	2.17
5432	-0.999	0.112	0.231	0.14	-2.66	1.82
5453	-0.995	0.103	0.233	0.28	-2.1	1.47
5473	-0.991	0.108	0.232	-0.84	-1.47	0.77
5492	-1.0	0.099	0.233	-0.42	-1.75	0.49
5517	-0.991	0.099	0.231	0.7	-1.47	0.35
5537	-0.996	0.102	0.231	-0.14	-0.98	0.0
5552	-0.996	0.094	0.233	0.07	-0.98	0.0
5577	-0.994	0.104	0.23	-0.63	-0.63	-0.07
5593	-0.995	0.096	0.226	-0.42	-0.7	-0.14
5617	-1.004	0.106	0.228	-0.42	-0.56	-0.07
5637	-0.994	0.097	0.226	-0.21	-0.7	-0.14
5656	-0.994	0.098	0.224	-0.42	-0.84	-0.35
5677	-0.996	0.1	0.222	-0.42	-1.05	-0.28
5697	-0.999	0.092	0.224	-0.07	-1.19	-0.21
5720	-0.996	0.094	0.224	0.0	-1.19	0.07
5740	-0.997	0.093	0.224	0.07	-1.4	0.21
5764	-0.996	0.097	0.224	0.0	-1.47	0.28
5783	-0.998	0.095	0.223	-0.07	-1.47	0.28
5803	-0.998	0.096	0.223	0.07	-1.47	0.14
5823	-0.999	0.096	0.224	-0.21	-1.47	0.42
5841	-0.998	0.095	0.225	-0.21	-1.26	0.35
5861	-0.996	0.095	0.223	-0.49	-1.26	0.42
5880	-0.998	0.094	0.224	-0.42	-1.26	0.49
5905	-1.0	0.095	0.224	-0.42	-1.33	0.56
5925	-0.997	0.095	0.219	-0.28	-1.47	0.63
5945	-0.997	0.091	0.219	-0.14	-1.68	0.84
5965	-0.999	0.095	0.221	-0.14	-1.75	0.91
5983	-0.999	0.091	0.219	-0.21	-1.82	1.05
6007	-0.997	0.09	0.22	0.21	-2.03	1.33
6026	-0.998	0.095	0.221	0.14	-2.1	1.61
6047	-0.997	0.092	0.224	0.07	-2.03	1.61
6067	-1.0	0.096	0.222	0.0	-1.82	1.47
6086	-0.997	0.098	0.221	-0.28	-1.75	1.26
6105	-0.997	0.097	0.221	-0.35	-1.82	1.12
6126	-1.0	0.091	0.218	-0.35	-1.96	1.33
6145	-0.999	0.092	0.219	-0.35	-2.1	1.47
6169	-1.0	0.095	0.216	-0.84	-2.59	1.54
6188	-1.003	0.087	0.214	-0.56	-3.01	2.03
6213	-1.002	0.092	0.22	0.14	-3.5	2.31
6232	-1.002	0.092	0.216	0.56	-3.99	2.24
6252	-0.997	0.098	0.22	0.49	-3.85	2.17
6272	-1.0	0.095	0.222	0.42	-3.99	2.31
6296	-0.994	0.098	0.225	1.19	-4.06	2.17
6313	-0.999	0.097	0.224	1.19	-3.92	1.89
6332	-0.996	0.099	0.224	1.05	-3.92	1.89
6356	-0.994	0.1	0.228	0.49	-3.71	2.03
6375	-0.998	0.1	0.23	0.42	-3.5	2.03
6397	-0.997	0.1	0.226	0.84	-2.66	1.61
6421	-0.993	0.102	0.224	0.28	-2.38	1.05
6440	-0.998	0.097	0.226	0.7	-2.8	1.12
6460	-0.996	0.1	0.227	0.35	-2.03	1.26
6479	-0.996	0.102	0.229	0.0	-2.17	1.47
6504	-0.999	0.098	0.224	-0.07	-1.96	1.75
6524	-0.996	0.099	0.227	0.28	-1.89	2.1
6543	-0.997	0.102	0.226	0.91	-1.96	2.03
6567	-0.994	0.105	0.228	0.35	-1.75	1.96
6587	-0.996	0.102	0.225	-0.28	-1.19	1.82
6607	-0.994	0.102	0.225	-0.56	-0.91	1.82
6627	-0.997	0.104	0.224	-0.21	-1.19	1.68
6647	-0.996	0.101	0.221	-0.63	-1.12	1.68
6671	-0.995	0.104	0.224	-0.77	-0.91	1.47
6689	-0.999	0.103	0.22	-1.12	-0.84	1.47
6709	-0.996	0.102	0.22	-1.26	-1.05	1.61
6733	-0.999	0.1	0.219	-1.26	-1.19	1.68
6753	-0.998	0.103	0.22	-1.12	-1.47	1.54
6773	-1.0	0.103	0.22	-1.26	-1.61	1.26
6789	-0.998	0.102	0.22	-1.33	-1.47	1.12
6809	-0.998	0.1	0.218	-1.19	-1.75	0.77
6829	-0.999	0.101	0.218	-0.56	-2.24	0.63
6853	-0.998	0.099	0.217	0.07	-2.59	0.63
6873	-0.998	0.101	0.218	0.42	-3.01	0.56
6893	-0.999	0.102	0.219	0.7	-3.22	0.49
6913	-0.997	0.099	0.222	1.12	-3.29	0.49
6932	-0.999	0.101	0.222	0.91	-3.29	0.63
6953	-0.998	0.106	0.224	0.91	-3.08	0.63
6973	-0.996	0.102	0.225	0.56	-2.59	0.63
6992	-0.996	0.102	0.225	0.42	-2.38	0.84
7016	-0.995	0.102	0.224	0.21	-2.17	0.98
7032	-0.996	0.102	0.22	0.07	-2.1	0.98
7052	-0.997	0.101	0.221	0.0	-2.1	1.33
7075	-0.996	0.101	0.221	-0.14	-1.89	1.12
7095	-0.995	0.103	0.224	-0.35	-2.03	1.12
7119	-0.999	0.1	0.223	-0.42	-2.1	1.05
7138	-1.001	0.101	0.223	-0.21	-2.03	1.19
7156	-0.998	0.1	0.221	-0.28	-1.89	1.05
7180	-0.996	0.102	0.222	-0.21	-2.1	0.98
7199	-1.0	0.099	0.217	-0.21	-2.45	0.98
7220	-0.999	0.101	0.22	-0.07	-2.38	1.12
7237	-1.0	0.1	0.221	-0.07	-2.73	0.98
7256	-0.998	0.104	0.224	0.14	-2.73	0.91
7280	-0.999	0.102	0.222	0.14	-2.66	0.49
7300	-0.996	0.101	0.221	0.14	-2.59	0.28
7320	-1.0	0.099	0.219	0.07	-2.87	0.49
7344	-0.999	0.095	0.22	0.42	-3.29	0.77
7364	-1.001	0.096	0.221	0.28	-3.29	1.05
7383	-0.997	0.098	0.225	0.14	-3.43	1.33
7404	-0.999	0.1	0.224	-0.07	-3.29	1.33
7424	-0.995	0.102	0.223	0.0	-3.43	1.4
7444	-0.999	0.098	0.221	0.07	-3.71	1.4
7462	-0.999	0.1	0.226	-0.07	-3.64	1.61
7483	-0.997	0.102	0.224	-0.35	-3.22	1.4
7501	-0.996	0.102	0.227	-0.35	-3.01	1.33
7525	-0.993	0.1	0.227	-0.42	-2.87	1.12
7545	-0.998	0.098	0.228	-0.42	-2.73	1.26
7565	-0.996	0.1	0.229	-0.49	-2.45	1.19
7585	-0.995	0.101	0.226	-0.49	-2.45	0.98
7605	-0.997	0.1	0.227	-0.63	-2.38	0.98
7629	-0.997	0.099	0.224	0.0	-2.52	0.77
7645	-0.999	0.098	0.224	0.21	-2.31	0.56
7667	-0.994	0.099	0.226	0.35	-2.52	0.35
7689	-0.996	0.1	0.227	0.63	-2.24	0.14
7709	-0.994	0.101	0.231	0.42	-1.89	0.14
7729	-0.996	0.098	0.226	-0.07	-1.61	0.0
7753	-0.994	0.099	0.225	-0.42	-1.4	-0.07
7773	-0.996	0.1	0.227	-0.84	-0.91	0.07
7793	-0.997	0.095	0.226	-0.7	-0.98	0.21
7813	-0.994	0.099	0.228	-0.84	-0.63	0.21
7837	-0.997	0.096	0.227	-1.33	-0.28	0.28
7855	-0.995	0.097	0.225	-1.75	-0.21	0.42
7876	-1.001	0.092	0.219	-1.54	-0.49	0.63
7897	-1.001	0.09	0.217	-1.19	-1.05	0.91
7917	-1.0	0.091	0.219	-0.56	-1.4	1.4
7936	-0.998	0.094	0.221	-0.77	-1.82	1.54
7957	-1.001	0.096	0.222	-0.56	-1.96	1.61
7977	-0.999	0.095	0.219	-0.35	-2.1	1.47
7997	-0.997	0.094	0.217	0.0	-2.24	1.54
8021	-0.996	0.094	0.219	0.35	-2.52	1.54
8039	-0.998	0.099	0.221	0.21	-2.73	1.4
8058	-1.002	0.096	0.222	0.07	-2.87	1.4
8082	-0.999	0.101	0.223	0.28	-2.45	1.19
8103	-0.996	0.096	0.221	0.28	-2.59	1.19
8121	-1.001	0.098	0.221	0.0	-2.59	1.12
8145	-0.993	0.1	0.222	0.0	-2.31	1.26
8163	-0.996	0.094	0.221	-0.42	-2.45	1.05
8184	-0.998	0.095	0.225	-0.42	-2.59	1.33
8204	-0.997	0.098	0.224	-0.35	-2.45	1.19
8224	-0.997	0.097	0.223	-0.42	-2.45	1.05
8248	-0.998	0.098	0.224	-0.35	-2.24	0.84
8267	-0.997	0.099	0.226	-0.49	-1.82	0.7
8291	-0.995	0.097	0.224	-0.7	-1.4	0.42
8311	-0.996	0.095	0.224	-0.77	-1.54	0.35
8330	-0.999	0.095	0.221	-0.49	-1.54	0.28
8350	-0.999	0.096	0.222	-0.42	-1.26	0.07
8374	-0.997	0.095	0.223	-0.7	-1.19	-0.14
8393	-0.997	0.094	0.22	-0.91	-1.19	0.0
8414	-0.999	0.091	0.217	-1.05	-1.19	0.35
8434	-1.0	0.092	0.217	-0.77	-1.61	0.7
8452	-0.999	0.089	0.217	-0.84	-1.89	0.84
8471	-0.997	0.091	0.215	-0.63	-2.1	0.98
8496	-1.003	0.09	0.219	0.0	-2.8	1.54
8513	-1.0	0.091	0.216	0.49	-3.22	1.68
8533	-1.001	0.089	0.217	0.63	-3.36	1.89
8552	-0.997	0.094	0.219	0.84	-3.57	1.96
8572	-0.999	0.092	0.226	0.98	-3.78	1.89
8597	-0.998	0.096	0.224	0.91	-3.64	1.96
8617	-0.996	0.095	0.225	0.84	-3.64	1.96
8637	-0.995	0.098	0.224	0.56	-3.08	1.68
8661	-0.997	0.096	0.225	0.21	-2.87	1.47
8681	-0.996	0.097	0.223	0.0	-2.8	1.26
8699	-0.995	0.097	0.225	-0.28	-2.45	1.19
8720	-0.999	0.1	0.225	-0.35	-2.59	1.19
8740	-0.997	0.098	0.225	-0.28	-2.38	1.47
8764	-0.997	0.095	0.223	-0.21	-2.45	1.68
8783	-1.001	0.094	0.224	-0.14	-2.73	1.96
8803	-0.996	0.096	0.224	-0.07	-2.59	2.03
8823	-0.994	0.099	0.224	-0.28	-2.59	1.89
8843	-0.997	0.099	0.224	-0.42	-2.73	1.82
8867	-0.997	0.096	0.221	-0.28	-2.94	1.75
8882	-1.0	0.098	0.226	-0.07	-2.8	1.68
8902	-0.997	0.098	0.223	0.14	-3.22	1.61
8927	-0.996	0.099	0.226	0.07	-3.43	1.61
8947	-0.995	0.097	0.225	0.42	-3.57	1.54
8966	-0.999	0.099	0.225	0.7	-3.57	1.75
8985	-0.997	0.096	0.228	0.63	-3.99	1.75
9010	-0.995	0.099	0.226	0.56	-3.85	1.96
9030	-0.999	0.098	0.228	0.98	-3.99	1.75
9045	-0.994	0.1	0.23	0.98	-3.71	1.89
9070	-0.998	0.097	0.227	0.98	-4.27	1.68
9086	-0.992	0.105	0.23	1.26	-4.13	2.03
9105	-0.997	0.102	0.231	0.63	-3.85	1.75
9126	-0.996	0.102	0.234	0.98	-3.64	1.33
9146	-0.993	0.106	0.231	0.7	-3.43	1.05
9170	-0.995	0.101	0.229	0.63	-3.5	0.98
9190	-0.996	0.099	0.233	0.77	-3.5	1.12
9210	-0.994	0.102	0.236	0.56	-3.08	0.91
9230	-0.996	0.103	0.234	0.0	-2.8	0.56
9251	-0.996	0.101	0.233	0.07	-2.87	0.63
9275	-0.995	0.099	0.233	0.42	-2.8	0.84
9295	-0.995	0.099	0.235	0.07	-2.52	0.91
9315	-0.996	0.105	0.234	-0.42	-2.24	0.49
9335	-0.995	0.098	0.228	-0.28	-2.17	0.42
9355	-0.992	0.096	0.233	0.0	-2.31	0.42
9379	-0.996	0.098	0.238	0.28	-2.59	0.84
9398	-0.999	0.097	0.236	0.07	-2.1	0.98
9417	-0.994	0.101	0.234	-0.28	-1.89	0.7
9442	-1.0	0.097	0.23	-0.07	-1.82	0.56
9458	-0.994	0.095	0.229	0.35	-1.82	0.84
9478	-0.997	0.095	0.234	0.28	-2.1	1.05
9502	-0.996	0.101	0.234	-0.28	-1.68	0.77
9520	-0.996	0.101	0.233	-0.49	-1.61	0.63
9544	-0.995	0.1	0.235	-0.35	-1.47	0.56
9561	-0.997	0.098	0.234	-0.28	-1.68	0.49
9583	-0.996	0.102	0.233	-0.21	-1.82	0.42
9602	-0.997	0.096	0.228	-0.28	-1.75	0.35
9626	-0.998	0.101	0.23	-0.63	-1.75	0.49
9646	-0.997	0.092	0.226	-0.14	-1.89	0.63
9665	-0.997	0.094	0.227	-0.35	-1.89	0.77
9690	-0.997	0.099	0.234	-0.42	-1.82	0.7
9710	-0.996	0.095	0.229	-0.07	-2.1	0.91
9729	-0.995	0.095	0.231	-0.28	-1.96	0.84
9750	-0.995	0.1	0.232	-0.42	-1.89	0.7
9770	-0.997	0.097	0.231	-0.56	-1.82	0.56
9788	-0.996	0.096	0.229	-0.49	-1.75	0.35
9811	-0.995	0.098	0.235	-0.77	-1.68	0.07
9831	-0.995	0.098	0.231	-0.42	-1.4	0.07
9848	-0.993	0.096	0.231	-0.77	-1.12	0.07
9872	-0.996	0.096	0.23	-0.84	-0.98	0.14
9892	-0.997	0.095	0.229	-1.05	-1.05	0.35
9909	-0.995	0.091	0.227	-1.19	-0.91	0.49
9929	-0.998	0.09	0.225	-1.05	-1.05	0.7
9949	-0.999	0.091	0.227	-0.98	-1.19	1.05
9969	-0.998	0.092	0.224	-0.77	-1.4	1.19
9991	-0.998	0.091	0.225	-0.56	-1.61	1.33
10011	-0.999	0.091	0.226	-0.42	-1.89	1.4
10031	-0.999	0.09	0.221	0.14	-2.1	1.47
10055	-0.998	0.09	0.223	0.35	-2.59	1.54
10075	-0.995	0.094	0.223	0.77	-2.8	1.47
10095	-0.999	0.092	0.225	0.77	-3.01	1.75
10119	-0.996	0.094	0.225	0.98	-3.01	1.68
10143	-0.997	0.094	0.23	0.7	-3.01	1.68
10163	-0.998	0.093	0.227	0.35	-2.8	1.82
10182	-0.997	0.094	0.23	0.14	-2.8	1.82
10203	-0.998	0.096	0.229	-0.07	-2.59	2.03
10223	-0.997	0.095	0.229	-0.07	-2.45	2.03
10246	-0.996	0.096	0.227	0.07	-2.52	2.03
10267	-0.995	0.097	0.229	0.0	-2.38	1.96
10285	-0.996	0.096	0.228	-0.07	-2.38	2.03
10310	-0.995	0.098	0.227	0.07	-2.24	1.82
10330	-0.996	0.101	0.229	-0.07	-2.24	1.75
10350	-0.998	0.095	0.228	-0.21	-2.17	1.75
10373	-0.996	0.097	0.226	-0.14	-2.17	1.68
10392	-0.996	0.098	0.227	-0.21	-2.17	1.54
10412	-0.997	0.102	0.227	-0.49	-2.31	1.61
10433	-0.996	0.098	0.229	-0.35	-2.17	1.4
10454	-0.998	0.097	0.229	-0.35	-2.17	1.54
10473	-0.999	0.099	0.229	-0.28	-2.45	1.47
10498	-0.995	0.099	0.226	0.07	-2.24	1.33
10518	-0.996	0.097	0.226	0.07	-2.73	1.54
10537	-0.997	0.098	0.228	0.14	-2.73	1.75
10557	-0.995	0.099	0.227	-0.07	-2.73	1.82
10581	-0.997	0.097	0.229	-0.07	-2.73	1.82
10602	-0.998	0.101	0.232	0.14	-3.01	1.61
10618	-0.996	0.104	0.231	0.07	-3.08	1.54
10637	-0.995	0.099	0.23	0.0	-3.08	1.4
10661	-0.994	0.1	0.228	0.07	-3.01	1.33
10682	-0.995	0.102	0.23	-0.07	-3.15	1.26
10699	-0.997	0.098	0.23	0.0	-3.08	1.26
10719	-0.995	0.1	0.231	0.35	-3.15	1.33
10743	-0.994	0.102	0.232	0.14	-3.22	1.47
10763	-0.997	0.098	0.234	-0.07	-2.8	1.47
10783	-0.993	0.1	0.233	-0.28	-2.8	1.4
10803	-0.996	0.099	0.235	-0.42	-2.59	1.4
10827	-0.998	0.101	0.234	-0.35	-2.52	1.4
10847	-0.995	0.1	0.234	-0.28	-2.45	1.19
10865	-0.995	0.1	0.235	-0.35	-2.24	1.12
10886	-0.994	0.101	0.234	-0.21	-1.89	1.05
10907	-0.996	0.102	0.234	-0.42	-1.96	0.91
10931	-0.993	0.103	0.234	-0.28	-1.68	0.56
10951	-0.995	0.1	0.231	-0.28	-1.61	0.42
10971	-0.996	0.1	0.232	-0.21	-1.61	0.0
10987	-0.993	0.105	0.234	-0.35	-1.33	-0.07
11007	-0.996	0.099	0.23	-0.28	-1.12	-0.21
11027	-0.994	0.099	0.234	-0.35	-0.98	-0.07
11047	-0.991	0.097	0.233	-0.98	-0.49	0.07
11066	-0.997	0.099	0.233	-1.47	-0.35	0.28
11091	-0.993	0.101	0.228	-1.96	-0.35	0.0
11107	-0.998	0.1	0.229	-2.17	-0.35	-0.35
11131	-0.996	0.096	0.226	-1.96	-0.14	-0.21
11150	-0.996	0.089	0.221	-0.84	-0.91	0.21
11174	-1.006	0.089	0.222	0.42	-2.24	1.4
11194	-0.998	0.098	0.225	0.42	-2.38	1.75
11214	-0.996	0.095	0.228	-0.21	-2.24	1.96
11232	-0.996	0.096	0.225	-0.35	-2.1	2.1
11255	-1.0	0.1	0.225	-0.14	-2.45	2.24
11274	-0.996	0.094	0.225	0.28	-2.38	2.31
11297	-0.995	0.101	0.223	-0.14	-2.24	2.17
11318	-0.994	0.098	0.225	-0.21	-2.38	2.17
11336	-0.996	0.102	0.229	0.28	-2.52	2.03
11356	-0.997	0.101	0.226	0.07	-2.31	1.75
11376	-0.998	0.096	0.225	-0.07	-2.45	1.75
11395	-0.997	0.1	0.227	0.07	-2.31	1.82
11421	-0.996	0.098	0.226	0.21	-2.45	1.89
11440	-0.993	0.102	0.23	-0.07	-2.17	1.96
11459	-0.994	0.106	0.228	-0.28	-2.03	1.68
11481	-0.998	0.102	0.227	-0.35	-2.1	1.47
11500	-0.995	0.101	0.226	-0.42	-1.89	1.33
11525	-0.996	0.104	0.228	-0.56	-1.82	1.19
11545	-0.996	0.102	0.227	-0.77	-1.54	1.12
11565	-0.996	0.101	0.23	-0.98	-1.54	1.12
11588	-0.997	0.101	0.228	-1.05	-1.33	0.91
11609	-0.996	0.098	0.227	-0.98	-1.26	0.77
11630	-0.996	0.102	0.223	-0.77	-1.19	0.7
11649	-0.998	0.098	0.221	-0.56	-1.47	0.63
11668	-0.999	0.097	0.223	-0.35	-1.68	0.63
11688	-0.997	0.097	0.223	0.07	-1.96	0.91
11712	-0.997	0.099	0.223	0.14	-2.1	1.05
11727	-0.998	0.096	0.222	0.42	-2.38	1.33
11751	-0.997	0.098	0.227	0.63	-2.52	1.33
11771	-0.996	0.1	0.225	0.56	-2.52	1.33
11792	-0.997	0.096	0.226	0.7	-2.59	1.54
11812	-0.997	0.098	0.224	0.77	-2.59	1.54
11832	-0.997	0.098	0.224	0.7	-2.38	1.47
11851	-0.996	0.1	0.228	0.77	-2.38	1.47
11871	-0.996	0.102	0.226	0.21	-2.17	1.33
11887	-0.997	0.102	0.225	0.14	-2.1	1.4
11911	-0.998	0.1	0.222	0.0	-2.03	1.61
11931	-0.996	0.099	0.224	-0.14	-2.24	1.89
11949	-0.996	0.097	0.224	0.07	-2.52	2.17
11968	-0.996	0.098	0.224	0.0	-2.52	2.38
11992	-0.993	0.101	0.226	-0.07	-2.87	2.38
12013	-0.996	0.102	0.226	-0.21	-2.94	2.24
12031	-0.998	0.104	0.224	-0.28	-2.8	2.03
12055	-0.996	0.104	0.228	-0.42	-2.59	1.89
12075	-0.996	0.105	0.227	-0.28	-2.73	1.89
12095	-0.994	0.104	0.224	-0.14	-2.52	1.75
12115	-0.998	0.104	0.228	-0.49	-2.66	1.82
12131	-0.998	0.105	0.224	-0.49	-2.87	1.75
12152	-0.999	0.106	0.226	-0.42	-3.15	1.89
12172	-1.0	0.096	0.226	0.28	-3.15	2.31
12195	-1.0	0.107	0.225	0.28	-3.29	2.17
12216	-0.995	0.107	0.231	0.14	-3.22	2.1
12236	-0.996	0.106	0.228	0.28	-3.29	2.17
12255	-0.997	0.105	0.23	0.49	-3.29	2.17
12276	-0.997	0.105	0.227	0.49	-3.29	2.17
12296	-0.996	0.109	0.23	0.42	-3.22	2.1
12320	-0.994	0.11	0.232	0.07	-3.43	2.1
12339	-0.997	0.107	0.23	-0.07	-3.08	1.89
12359	-0.995	0.107	0.233	0.28	-3.29	1.82
12383	-0.994	0.107	0.233	0.49	-3.15	1.75
12403	-0.993	0.113	0.23	0.14	-3.29	1.68
12422	-0.998	0.106	0.232	0.07	-3.5	1.96
12443	-0.993	0.11	0.233	0.28	-3.15	1.82
12463	-0.995	0.114	0.232	0.07	-3.29	1.54
12482	-0.997	0.108	0.232	-0.07	-3.5	1.61
12506	-0.995	0.106	0.233	0.49	-3.5	1.61
12526	-0.991	0.112	0.233	0.14	-3.57	1.61
12546	-0.997	0.109	0.235	0.21	-3.71	1.54
12565	-0.994	0.11	0.233	0.49	-3.71	1.61
12587	-0.995	0.113	0.237	0.42	-3.36	1.47
12611	-0.994	0.107	0.233	0.63	-3.43	1.26
12631	-0.992	0.114	0.235	0.07	-3.08	1.05
12647	-0.994	0.11	0.234	0.42	-3.22	0.98
12671	-0.994	0.11	0.237	0.35	-3.5	0.7
12691	-0.994	0.112	0.238	0.56	-3.29	0.56
12709	-0.993	0.109	0.24	0.28	-2.94	0.49
12732	-0.993	0.11	0.24	0.14	-2.66	0.35
12753	-0.992	0.111	0.241	-0.21	-2.31	0.35
12772	-0.992	0.114	0.243	0.07	-2.52	0.42
12793	-0.993	0.107	0.238	0.14	-2.17	0.42
12813	-0.994	0.109	0.242	-0.35	-1.89	0.49
12829	-0.992	0.11	0.238	-0.42	-1.61	0.42
12853	-0.996	0.108	0.237	-0.77	-1.61	0.14
12873	-0.993	0.107	0.237	-0.14	-1.61	0.14
12893	-0.993	0.109	0.237	0.0	-1.75	0.14
12913	-0.991	0.11	0.24	-0.77	-1.26	0.0
12937	-0.995	0.11	0.24	-1.33	-0.98	-0.07
12953	-0.996	0.105	0.236	-1.12	-1.19	0.0
12972	-0.996	0.104	0.232	-0.49	-1.26	0.07
12996	-0.994	0.105	0.233	0.14	-1.54	0.42
13020	-0.993	0.11	0.237	0.14	-1.54	0.42
13038	-0.995	0.106	0.235	-0.35	-1.4	0.35
13060	-0.993	0.102	0.234	-0.42	-1.4	0.42
13084	-0.994	0.102	0.233	-0.35	-1.54	0.56
13100	-0.995	0.106	0.233	-0.21	-1.54	0.56
13123	-0.995	0.107	0.233	-0.14	-1.47	0.42
13147	-0.994	0.107	0.235	-0.42	-1.26	0.21
13163	-0.995	0.102	0.234	-0.35	-1.33	0.14
13186	-0.996	0.107	0.231	-0.7	-1.05	0.0
13207	-0.995	0.1	0.232	-0.63	-1.12	0.14
13227	-0.996	0.102	0.23	-0.7	-1.4	0.35
13247	-1.001	0.098	0.231	-0.49	-1.4	0.56
13267	-0.997	0.099	0.231	-0.35	-1.47	0.7
13286	-0.996	0.099	0.227	-0.35	-1.75	0.84
13307	-0.997	0.099	0.23	-0.07	-1.82	1.05
13327	-0.996	0.099	0.228	0.14	-2.24	1.12
13347	-0.997	0.098	0.229	0.28	-2.31	1.4
13367	-0.997	0.101	0.229	0.49	-2.38	1.33
13386	-0.996	0.101	0.23	0.42	-2.45	1.33
13408	-0.997	0.096	0.23	0.35	-2.38	1.47
13428	-0.995	0.102	0.232	0.35	-2.45	1.47
13449	-0.997	0.105	0.23	0.28	-2.52	1.47
13473	-0.995	0.103	0.229	0.28	-2.52	1.4
13493	-0.996	0.104	0.231	0.07	-2.45	1.4
13513	-0.994	0.1	0.23	0.14	-2.38	1.26
13531	-0.996	0.102	0.232	0.14	-2.31	1.33
13549	-0.996	0.102	0.231	0.0	-2.17	1.33
13568	-0.996	0.103	0.23	0.0	-2.1	1.4
13593	-0.997	0.101	0.232	0.07	-2.1	1.4
13613	-0.996	0.102	0.23	-0.14	-1.89	1.4
13633	-0.994	0.101	0.229	-0.28	-2.1	1.47
13652	-0.996	0.103	0.232	-0.21	-2.03	1.47
13669	-0.993	0.102	0.231	-0.35	-1.96	1.4
13690	-0.995	0.103	0.232	-0.56	-1.75	1.26
13710	-0.996	0.104	0.229	-0.56	-1.82	1.26
13734	-0.996	0.103	0.23	-0.63	-1.96	1.19
13753	-0.996	0.103	0.229	-0.49	-1.82	1.19
13773	-0.996	0.102	0.233	-0.28	-2.03	1.26
13796	-0.996	0.103	0.232	-0.28	-1.89	1.19
13816	-0.996	0.103	0.231	-0.49	-2.1	1.19
13837	-0.998	0.103	0.228	-0.42	-2.1	1.33
13857	-0.997	0.103	0.228	-0.35	-2.03	1.26
13876	-0.996	0.104	0.23	-0.28	-2.17	1.33
13896	-0.999	0.102	0.227	-0.42	-2.03	1.12
13920	-0.995	0.101	0.228	-0.14	-2.45	1.19
13940	-0.996	0.101	0.227	-0.14	-2.59	1.47
13960	-0.996	0.104	0.228	-0.07	-2.73	1.61
13978	-0.997	0.103	0.228	0.0	-2.8	1.61
13999	-0.996	0.103	0.227	0.21	-2.87	1.47
14020	-0.996	0.104	0.228	0.14	-3.08	1.54
14037	-0.993	0.104	0.23	0.28	-3.08	1.47
14059	-0.996	0.104	0.231	0.0	-2.94	1.33
14083	-0.996	0.103	0.231	-0.07	-2.87	1.19
14105	-0.995	0.102	0.228	-0.14	-2.87	1.26
14122	-0.996	0.102	0.229	0.14	-3.08	1.4
14147	-0.995	0.106	0.232	0.14	-3.08	1.26
14167	-0.995	0.106	0.234	0.0	-3.22	1.26
14182	-0.994	0.108	0.238	0.42	-2.87	1.33
14206	-0.993	0.105	0.238	-0.28	-2.38	1.05
14226	-0.993	0.103	0.235	-0.35	-2.31	0.91
14250	-0.996	0.103	0.233	-0.35	-1.96	0.98
14270	-0.996	0.103	0.236	-0.42	-1.75	0.98
14288	-0.993	0.103	0.234	-0.49	-1.47	0.98
14308	-0.992	0.104	0.232	-0.42	-1.47	1.05
14328	-0.996	0.102	0.232	-0.63	-1.33	0.98
14348	-0.995	0.103	0.232	-0.77	-1.4	1.12
14367	-0.997	0.105	0.229	-0.7	-1.12	1.26
14392	-0.996	0.104	0.228	-0.63	-1.4	1.4
14412	-0.997	0.104	0.23	-0.42	-1.61	1.75
14427	-0.996	0.103	0.229	-0.49	-1.68	1.82
14452	-0.996	0.104	0.229	-0.49	-1.68	1.82
14471	-0.996	0.105	0.23	-0.42	-1.61	1.75
14492	-0.996	0.102	0.228	-0.21	-1.96	1.75
14511	-0.997	0.102	0.228	0.35	-2.24	1.89
14535	-0.994	0.107	0.228	0.07	-1.96	1.96
14553	-0.997	0.105	0.231	-0.42	-2.1	1.96
14572	-0.998	0.105	0.231	-0.07	-2.24	2.03
14597	-0.995	0.107	0.23	-0.21	-2.1	1.96
14617	-0.994	0.109	0.229	-0.35	-2.03	1.89
14635	-0.995	0.102	0.231	-0.35	-2.17	1.82
14656	-0.996	0.11	0.234	-0.07	-1.82	1.61
14680	-0.993	0.107	0.229	0.07	-1.89	1.47
14700	-0.996	0.109	0.229	0.0	-1.89	1.33
14719	-0.994	0.11	0.23	-0.28	-1.75	1.47
14740	-0.993	0.11	0.227	-0.56	-1.68	1.47
14760	-0.998	0.106	0.23	-0.49	-1.68	1.33
14777	-0.997	0.109	0.229	-0.21	-1.54	1.47
14801	-0.994	0.108	0.228	-0.56	-1.4	1.33
14821	-0.995	0.105	0.227	-0.49	-1.68	1.47
14840	-0.995	0.111	0.225	-0.63	-1.47	1.33
14861	-0.996	0.107	0.224	-0.14	-1.96	1.68
14881	-0.999	0.107	0.226	0.07	-2.24	2.03
14901	-0.993	0.107	0.23	-0.21	-2.17	2.03
14925	-0.994	0.111	0.229	-0.7	-1.82	1.75
14945	-0.993	0.115	0.231	-1.19	-1.82	1.47
14965	-0.991	0.108	0.231	-0.21	-1.33	1.05
14985	-0.986	0.112	0.231	-0.28	-0.91	1.33
15002	-0.993	0.109	0.229	-1.47	-1.54	0.98
15021	-1.003	0.109	0.227	-1.19	-1.33	0.77
15041	-0.997	0.107	0.226	-1.05	-0.98	0.49
15066	-0.991	0.11	0.227	-0.84	-1.12	0.21
15086	-0.996	0.105	0.225	-0.63	-1.19	0.35
15106	-0.998	0.107	0.224	-0.49	-1.19	0.28
15126	-0.994	0.104	0.223	-0.63	-1.19	0.35
15145	-0.997	0.105	0.221	-0.42	-1.47	0.35
15170	-0.998	0.105	0.223	-0.07	-1.96	0.84
15190	-0.998	0.105	0.224	0.21	-2.31	0.77
15210	-0.996	0.105	0.223	0.14	-2.38	0.7
15228	-0.995	0.104	0.224	0.14	-2.45	0.77
15252	-0.998	0.107	0.224	0.42	-2.66	0.84
15271	-0.997	0.105	0.226	0.42	-2.52	0.7
15292	-0.996	0.104	0.225	0.28	-2.73	0.84
15312	-0.996	0.107	0.224	0.21	-2.73	0.91
15332	-0.996	0.108	0.223	0.07	-2.94	0.98
15351	-0.998	0.107	0.224	0.14	-3.01	1.12
15371	-0.996	0.106	0.227	0.21	-2.87	1.12
15390	-0.998	0.104	0.221	0.0	-2.87	1.33
15415	-0.997	0.105	0.224	0.14	-3.08	1.54
15439	-0.998	0.108	0.226	0.21	-3.29	1.68
15459	-0.995	0.106	0.224	0.28	-3.15	1.75
15478	-0.994	0.107	0.226	0.35	-3.29	1.89
15498	-0.996	0.11	0.227	0.07	-3.08	1.82
15522	-0.995	0.109	0.227	0.14	-3.01	1.75
15538	-0.993	0.108	0.228	0.14	-2.94	1.61
15558	-0.993	0.109	0.228	0.14	-3.01	1.61
15578	-0.994	0.106	0.229	-0.14	-2.8	1.61
15602	-0.996	0.109	0.227	0.0	-2.94	1.54
15622	-0.995	0.107	0.227	0.07	-2.94	1.54
15642	-0.996	0.109	0.227	-0.14	-3.01	1.61
15657	-0.996	0.108	0.232	0.14	-3.22	1.61
15682	-0.996	0.11	0.231	0.14	-3.22	1.54
15701	-0.994	0.108	0.229	0.42	-3.08	1.61
15717	-0.996	0.108	0.227	0.07	-3.29	1.54
15742	-0.997	0.108	0.228	0.35	-3.5	1.54
15762	-1.0	0.113	0.231	0.56	-3.43	1.05
15778	-0.993	0.112	0.231	0.77	-3.29	1.19
15797	-0.996	0.112	0.231	0.56	-3.64	1.12
15818	-0.995	0.109	0.233	0.98	-3.92	0.98
15837	-0.999	0.109	0.23	0.84	-3.5	1.26
15862	-0.991	0.11	0.233	0.42	-3.57	1.05
15880	-0.993	0.111	0.232	0.49	-3.64	0.91
15901	-0.992	0.11	0.234	0.49	-3.29	0.63
15922	-0.994	0.113	0.237	0.0	-3.43	0.77
15940	-0.99	0.112	0.236	0.28	-3.01	0.49
15960	-0.996	0.111	0.236	-0.21	-3.36	0.28
15980	-0.993	0.11	0.237	-0.21	-3.22	0.07
16000	-0.994	0.11	0.236	-0.28	-3.29	0.07
16023	-0.996	0.107	0.236	-0.21	-3.08	-0.28
16047	-0.995	0.105	0.236	0.21	-3.29	-0.28
16066	-0.994	0.106	0.238	0.28	-3.15	-0.21
16086	-0.989	0.106	0.239	0.35	-2.87	0.07
16107	-0.994	0.105	0.236	0.28	-2.87	0.21
16127	-0.993	0.102	0.239	0.49	-2.66	0.21
16142	-0.995	0.107	0.242	0.07	-2.8	0.35
16162	-0.991	0.105	0.24	0.14	-2.17	0.07
16187	-0.993	0.104	0.239	0.0	-2.24	0.21
16207	-0.994	0.103	0.238	-0.21	-1.96	0.35
16226	-0.991	0.108	0.24	-0.42	-1.68	0.07
16243	-0.993	0.107	0.237	-0.42	-1.61	0.0
16267	-0.994	0.101	0.239	-0.77	-1.05	0.0
16287	-0.993	0.099	0.238	-0.35	-1.26	0.35
16307	-0.993	0.102	0.236	-0.56	-1.19	0.35
16327	-0.994	0.102	0.235	-0.35	-1.47	0.56
16346	-0.994	0.101	0.237	-0.14	-1.05	0.7
16365	-0.994	0.1	0.234	-0.21	-1.4	0.84
16390	-0.995	0.103	0.232	-0.49	-1.26	0.63
16409	-0.998	0.098	0.231	-0.49	-1.47	0.7
16429	-0.994	0.102	0.234	0.42	-1.89	0.7
16452	-0.995	0.103	0.233	0.28	-1.61	0.56
16473	-0.993	0.102	0.236	0.0	-1.47	0.49
16492	-0.993	0.102	0.237	0.0	-1.33	0.42
16511	-0.992	0.102	0.236	-0.07	-1.33	0.35
16533	-0.993	0.1	0.237	-0.21	-1.33	0.49
16556	-0.996	0.101	0.233	-0.07	-1.4	0.42
16577	-0.995	0.101	0.234	-0.49	-0.84	0.21
16597	-0.995	0.101	0.233	-0.77	-0.84	0.42
16617	-0.995	0.098	0.23	-0.98	-0.84	0.56
16632	-0.996	0.098	0.228	-1.05	-0.98	0.56
16657	-0.996	0.101	0.228	-0.91	-1.26	0.63
16677	-0.998	0.099	0.226	-0.63	-1.26	0.77
16697	-0.995	0.099	0.231	-0.56	-1.4	0.91
16717	-0.995	0.099	0.23	-0.63	-1.4	0.98
16736	-0.997	0.1	0.229	-0.56	-1.4	1.05
16758	-0.996	0.094	0.226	-0.63	-1.33	1.19
16778	-0.998	0.095	0.227	-0.56	-1.68	1.4
16798	-0.999	0.099	0.227	-0.21	-2.03	1.4
16822	-0.998	0.098	0.229	0.21	-2.24	1.47
16841	-0.995	0.096	0.226	0.35	-2.38	1.47
16865	-0.995	0.1	0.227	0.49	-2.31	1.61
16881	-0.997	0.102	0.227	0.28	-2.38	1.54
16901	-0.997	0.099	0.228	0.42	-2.38	1.54
16925	-0.996	0.102	0.228	0.35	-2.31	1.4
16945	-0.996	0.102	0.23	0.35	-2.31	1.4
16965	-0.996	0.102	0.227	0.35	-2.31	1.47
16984	-0.996	0.1	0.227	0.21	-2.24	1.33
17000	-0.993	0.101	0.229	-0.14	-2.1	1.33
17023	-0.997	0.098	0.227	-0.28	-2.1	1.4
17047	-0.996	0.102	0.226	-0.21	-2.1	1.4
17067	-0.996	0.101	0.228	-0.42	-2.03	1.54
17087	-0.996	0.1	0.23	-0.21	-2.1	1.47
17104	-0.996	0.101	0.228	-0.21	-2.24	1.47
17128	-0.997	0.101	0.227	0.0	-2.31	1.4
17146	-0.995	0.102	0.226	-0.07	-2.31	1.4
17170	-0.996	0.102	0.228	-0.07	-2.31	1.47
17187	-0.997	0.099	0.228	-0.07	-2.24	1.33
17209	-0.996	0.102	0.23	-0.21	-2.24	1.4
17229	-0.998	0.102	0.227	-0.28	-2.31	1.33
17251	-0.997	0.102	0.228	-0.21	-2.24	1.19
17272	-0.999	0.102	0.228	0.0	-2.38	1.12
17296	-0.997	0.101	0.226	0.14	-2.59	1.12
17316	-0.996	0.101	0.228	0.14	-2.94	1.26
17335	-0.996	0.101	0.227	0.07	-3.29	1.61
17355	-0.996	0.099	0.225	0.14	-3.5	2.03
17376	-1.0	0.101	0.226	0.28	-3.71	2.1
17399	-0.992	0.104	0.228	0.7	-4.06	2.31
17423	-0.997	0.103	0.233	0.63	-4.41	2.24
17439	-0.995	0.104	0.234	0.7	-4.2	2.45
17459	-0.994	0.103	0.231	0.49	-4.13	2.38
17483	-0.996	0.105	0.234	0.35	-3.92	2.17
17499	-0.992	0.104	0.232	1.05	-3.64	1.89
17520	-0.998	0.102	0.234	0.98	-4.13	2.03
17544	-0.993	0.105	0.236	0.42	-3.29	1.75
17564	-0.992	0.105	0.238	0.35	-3.15	1.68
17583	-0.992	0.11	0.24	0.07	-3.08	1.61
17604	-0.993	0.108	0.238	0.14	-2.52	1.33
17621	-0.989	0.106	0.241	-0.21	-2.1	1.19
17645	-0.992	0.109	0.238	-0.14	-1.89	0.91
17663	-0.991	0.107	0.238	-0.35	-1.54	0.63
17683	-0.99	0.108	0.235	-0.56	-1.05	0.63
17702	-0.992	0.107	0.233	-0.7	-1.19	0.63
17726	-0.996	0.101	0.234	-0.7	-1.05	0.7
17747	-0.996	0.102	0.233	-0.63	-0.98	0.7
17763	-0.996	0.106	0.235	-0.49	-1.05	0.77
17786	-0.995	0.106	0.233	-0.7	-0.84	0.7
17807	-0.992	0.104	0.233	-0.77	-0.7	0.77
17825	-0.995	0.104	0.232	-0.7	-0.84	0.63
17849	-0.999	0.102	0.232	-0.63	-0.77	0.84
17873	-0.995	0.104	0.23	-0.49	-0.77	0.91
17893	-0.994	0.105	0.233	-0.35	-0.77	0.84
17913	-0.994	0.105	0.229	-0.7	-0.56	0.7
17933	-0.995	0.103	0.229	-0.7	-0.56	0.7
17953	-0.995	0.103	0.228	-0.63	-0.42	0.7
17973	-0.996	0.105	0.229	-1.26	-0.56	0.63
17993	-0.995	0.102	0.225	-0.91	-0.42	0.56
18013	-0.994	0.103	0.228	-0.7	-0.63	0.28
18037	-0.996	0.101	0.225	-0.77	-0.7	0.35
18056	-0.997	0.102	0.225	-0.77	-0.98	0.42
18077	-1.001	0.102	0.221	-0.21	-1.33	0.56
18096	-0.996	0.101	0.224	-0.21	-1.54	0.77
18115	-0.997	0.101	0.225	0.0	-1.68	0.98
18135	-0.997	0.104	0.224	-0.35	-1.4	0.91
18160	-0.998	0.101	0.223	-0.63	-1.61	0.98
18180	-0.998	0.1	0.224	0.21	-1.82	1.05
18199	-0.996	0.1	0.223	0.21	-2.03	1.12
18219	-0.997	0.102	0.224	0.07	-2.03	1.12
18241	-0.996	0.106	0.225	-0.28	-1.61	1.05
18260	-0.996	0.102	0.223	-0.35	-1.54	0.91
18282	-0.994	0.101	0.223	-0.14	-1.26	0.7
18303	-0.998	0.1	0.224	-0.07	-1.54	0.63
18323	-0.995	0.103	0.224	0.0	-1.4	0.56
18343	-0.996	0.103	0.223	-0.56	-1.19	0.56
18367	-0.998	0.101	0.223	-0.63	-1.4	0.56
18383	-0.996	0.102	0.223	-0.42	-0.98	0.49
18403	-0.996	0.101	0.223	-0.91	-0.98	0.21
18422	-0.995	0.1	0.22	-0.84	-0.98	0.28
18447	-0.997	0.105	0.224	-1.82	-1.05	0.28
18467	-1.0	0.097	0.219	-1.4	-0.98	0.28
18482	-1.0	0.097	0.222	-1.26	-1.05	0.42
18507	-0.999	0.094	0.218	-0.63	-1.33	0.49
18526	-0.999	0.098	0.217	-0.98	-1.75	0.56
18544	-1.004	0.093	0.218	-0.56	-1.82	0.84
18564	-0.999	0.093	0.216	-0.28	-2.03	0.98
18583	-1.0	0.098	0.216	-0.14	-2.38	1.05
18607	-0.998	0.095	0.217	0.21	-2.66	1.33
18626	-0.997	0.098	0.218	0.35	-2.8	1.4
18650	-0.999	0.1	0.22	0.14	-2.73	1.47
18670	-0.997	0.094	0.22	0.28	-2.8	1.54
18689	-0.997	0.098	0.222	0.35	-2.66	1.54
18712	-0.996	0.097	0.222	0.0	-2.45	1.54
18733	-0.996	0.103	0.222	-0.56	-2.1	1.26
18749	-0.999	0.101	0.222	-0.49	-1.89	1.05
18771	-0.998	0.1	0.22	-0.42	-1.82	0.77
18795	-0.998	0.099	0.22	-0.28	-1.89	0.56
18815	-1.124	0.099	0.222	-0.14	-2.03	0.56
18833	-0.997	0.097	0.221	-0.28	-1.75	0.42
18851	-0.997	0.098	0.22	-0.35	-1.61	0.28
18870	-0.997	0.097	0.218	-0.07	-1.68	0.35
18893	-1.0	0.095	0.219	-0.14	-1.75	0.63
18914	-0.998	0.099	0.222	-0.35	-1.89	0.63
18934	-0.997	0.095	0.219	-0.28	-1.89	0.98
18953	-1.002	0.095	0.218	-0.14	-2.24	1.19
18978	-1.0	0.098	0.217	0.07	-2.52	1.12
18995	-0.998	0.096	0.218	0.0	-2.38	1.4
19019	-0.998	0.098	0.218	-0.07	-2.73	1.4
19039	-0.998	0.097	0.218	-0.07	-2.87	1.54
19059	-0.997	0.097	0.22	0.0	-3.08	1.47
19079	-0.999	0.098	0.218	0.42	-3.22	1.75
19103	-0.999	0.09	0.22	0.49	-3.64	1.68
19119	-0.993	0.103	0.222	0.63	-3.36	1.75
19142	-0.999	0.098	0.222	0.28	-3.5	1.68
19162	-0.996	0.098	0.223	0.35	-3.15	1.4
19182	-0.999	0.097	0.223	0.35	-3.43	1.54
19206	-0.994	0.102	0.222	0.49	-3.29	1.47
19223	-1.0	0.096	0.224	0.21	-3.57	1.47
19247	-0.996	0.097	0.224	0.21	-3.15	1.47
19267	-0.996	0.1	0.22	0.21	-3.22	1.47
19286	-0.997	0.102	0.221	0.42	-3.5	1.26
19306	-0.999	0.095	0.226	0.35	-3.36	1.4
19330	-0.995	0.1	0.224	0.42	-3.43	1.19
19345	-0.998	0.102	0.224	-0.07	-3.15	0.84
19370	-0.992	0.099	0.222	0.35	-3.01	0.63
19390	-0.996	0.098	0.228	0.28	-3.64	0.63
19410	-0.996	0.101	0.229	0.14	-3.15	0.28
19434	-0.995	0.101	0.226	-0.21	-2.87	0.0
19452	-0.998	0.094	0.227	0.07	-3.01	-0.21
19471	-0.998	0.096	0.226	0.63	-3.22	0.0
19491	-0.995	0.096	0.224	0.84	-3.36	0.14
19515	-0.997	0.095	0.227	0.42	-3.29	0.35
19535	-0.997	0.096	0.228	0.07	-2.87	0.42
19555	-0.996	0.092	0.224	0.35	-2.8	0.7
19575	-0.999	0.094	0.233	0.63	-2.87	1.05
19595	-0.991	0.098	0.231	0.42	-2.66	0.84
19619	-0.995	0.1	0.23	0.63	-2.94	1.12
19639	-0.996	0.097	0.233	0.42	-2.52	1.05
19659	-0.996	0.103	0.228	-0.07	-2.03	0.84
19677	-0.995	0.093	0.23	0.14	-1.82	0.84
19696	-0.995	0.099	0.229	0.28	-1.68	1.05
19715	-0.993	0.095	0.227	-0.56	-1.54	0.84
19740	-0.998	0.101	0.229	-1.19	-1.33	0.91
19760	-0.996	0.097	0.227	-1.12	-0.98	0.98
19777	-0.999	0.095	0.224	-0.91	-1.19	1.12
19797	-0.999	0.095	0.227	-0.35	-1.47	1.33
19821	-0.996	0.097	0.226	-0.49	-1.47	1.33
19837	-0.995	0.096	0.225	-0.77	-1.4	1.19
19859	-0.995	0.097	0.225	-0.84	-1.19	1.19
19883	-0.998	0.092	0.225	-0.84	-1.33	1.26
19902	-0.997	0.095	0.225	-0.56	-1.68	1.26
19923	-0.997	0.096	0.224	-0.56	-1.61	1.26
19942	-0.998	0.095	0.225	-0.28	-1.68	1.26
19966	-0.996	0.096	0.224	-0.14	-1.96	1.26
19986	-0.996	0.095	0.224	-0.28	-2.03	1.4
20005	-1.0	0.095	0.221	-0.28	-2.24	1.33
20029	-0.999	0.096	0.223	0.07	-2.66	1.47
20046	-0.998	0.097	0.225	0.21	-2.59	1.4
20070	-0.997	0.098	0.225	0.42	-2.8	1.26
20089	-0.997	0.098	0.225	0.49	-2.73	1.19
20113	-0.998	0.093	0.226	0.77	-3.01	1.33
20133	-0.997	0.096	0.225	0.42	-2.94	1.33
20153	-0.996	0.098	0.228	0.35	-2.87	1.4
20173	-0.996	0.096	0.226	0.14	-2.8	1.33
20189	-0.997	0.097	0.226	0.14	-2.66	1.33
20213	-0.996	0.097	0.23	0.0	-2.66	1.4
20229	-0.995	0.098	0.227	0.07	-2.52	1.33
20253	-0.996	0.099	0.226	0.07	-2.38	1.4
20273	-0.997	0.098	0.227	0.14	-2.45	1.47
20293	-0.996	0.1	0.226	0.07	-2.52	1.4
20313	-0.998	0.1	0.229	0.07	-2.38	1.26
20330	-0.997	0.097	0.227	-0.07	-2.17	1.26
20350	-0.996	0.098	0.226	-0.35	-2.1	1.19
20374	-0.996	0.096	0.226	-0.35	-2.1	1.12
20394	-0.995	0.1	0.23	-0.42	-2.03	1.05
20413	-0.997	0.099	0.228	-0.42	-2.1	1.05
20433	-0.997	0.099	0.229	-0.35	-2.03	1.05
20453	-0.997	0.098	0.225	-0.35	-2.03	0.98
20472	-0.997	0.099	0.227	-0.28	-2.1	1.19
20497	-0.995	0.1	0.227	-0.21	-2.03	1.05
20517	-0.996	0.096	0.225	0.0	-2.24	1.26
20537	-0.997	0.098	0.228	-0.21	-2.31	1.33
20561	-0.995	0.101	0.225	-0.28	-2.1	1.19
20581	-0.996	0.098	0.226	-0.21	-2.24	1.19
20601	-0.997	0.096	0.225	0.0	-2.17	1.12
20621	-0.995	0.102	0.227	-0.14	-2.03	0.91
20641	-0.996	0.097	0.224	-0.14	-2.17	0.91
20665	-0.999	0.099	0.224	0.07	-2.24	1.05
20685	-0.995	0.099	0.226	-0.21	-2.1	0.91
20703	-0.995	0.096	0.225	-0.35	-1.96	0.77
20725	-0.999	0.096	0.226	-0.49	-2.17	0.84
20745	-0.999	0.096	0.222	-0.14	-2.66	0.91
20766	-0.999	0.095	0.225	0.07	-2.94	1.12
20785	-1.0	0.095	0.224	0.07	-3.01	1.12
20803	-0.996	0.097	0.225	0.07	-3.22	1.33
20827	-0.998	0.097	0.228	0.21	-3.29	1.54
20845	-0.996	0.098	0.227	0.35	-3.36	1.54
20865	-0.996	0.096	0.228	0.42	-3.57	1.68
20889	-0.997	0.098	0.23	0.35	-3.5	1.68
20909	-0.996	0.098	0.23	0.21	-3.36	1.68
20927	-0.997	0.098	0.23	0.07	-3.01	1.75
20945	-0.998	0.1	0.232	-0.21	-3.08	1.75
20965	-0.996	0.099	0.231	-0.28	-2.59	1.61
20989	-0.995	0.099	0.232	-0.28	-2.66	1.54
21009	-0.994	0.1	0.229	-0.21	-2.38	1.61
21028	-0.997	0.101	0.232	-0.07	-2.24	1.54
21049	-0.995	0.1	0.234	-0.14	-2.03	1.47
21065	-0.996	0.097	0.231	-0.07	-2.24	1.47
21085	-0.997	0.101	0.235	-0.14	-1.89	1.47
21104	-0.996	0.101	0.232	-0.07	-1.82	1.4
21127	-0.994	0.102	0.232	-0.21	-1.54	1.19
21150	-0.996	0.097	0.23	-0.07	-1.61	1.19
21171	-0.995	0.101	0.229	0.0	-1.54	1.33
21190	-0.996	0.102	0.231	0.0	-1.47	1.4
21212	-0.996	0.099	0.228	-0.21	-1.33	1.4
21233	-0.995	0.099	0.23	-0.28	-1.26	1.54
21252	-0.995	0.099	0.228	-0.35	-1.12	1.61
21271	-0.996	0.102	0.227	-0.63	-1.12	1.82
21296	-0.996	0.103	0.227	-0.42	-1.12	1.75
21312	-0.995	0.102	0.228	-0.49	-0.84	1.54
21336	-0.996	0.103	0.226	-0.49	-0.77	1.19
21352	-0.996	0.101	0.225	-0.28	-0.84	1.12
21373	-0.997	0.106	0.23	-0.7	-0.49	0.98
21396	-0.996	0.102	0.224	-1.19	-0.28	0.63
21415	-0.996	0.1	0.222	-0.98	-0.14	0.56
21434	-0.995	0.097	0.224	-0.84	-0.14	0.56
21454	-0.998	0.1	0.219	-1.26	-0.21	0.49
21478	-1.0	0.097	0.218	-1.19	-0.49	0.63
21502	-0.999	0.098	0.219	-0.7	-0.7	0.63
21522	-0.999	0.1	0.22	-0.63	-0.84	0.56
21539	-1.0	0.098	0.218	-0.42	-0.84	0.42
21563	-1.0	0.099	0.219	-0.56	-0.91	0.63
21587	-0.999	0.099	0.217	-0.7	-0.77	0.35
21605	-0.996	0.1	0.218	-0.63	-0.77	0.28
21624	-0.999	0.099	0.219	-0.63	-1.19	0.49
21648	-1.002	0.096	0.218	-0.56	-0.98	0.56
21667	-0.997	0.102	0.218	-0.42	-0.77	0.49
21684	-0.997	0.098	0.216	-0.7	-0.77	0.35
21704	-1.0	0.096	0.214	-0.7	-0.77	0.42
21724	-0.998	0.099	0.214	-0.7	-0.91	0.42
21744	-1.001	0.097	0.211	-0.56	-0.84	0.56
21768	-0.999	0.095	0.215	-0.63	-0.91	0.56
21787	-0.999	0.1	0.216	-0.28	-0.84	0.63
21807	-0.999	0.097	0.216	-0.42	-0.77	0.63
21826	-1.0	0.092	0.213	-0.49	-0.84	0.84
21847	-0.996	0.095	0.213	-0.49	-0.91	0.98
21871	-1.001	0.097	0.211	-0.56	-0.98	0.98
21891	-0.999	0.1	0.212	-0.7	-0.91	1.19
21911	-0.997	0.093	0.214	-0.77	-1.12	1.33
21926	-0.996	0.099	0.204	-0.7	-0.84	1.12
21951	-1.009	0.085	0.206	-0.35	-1.96	1.68
21970	-1.003	0.091	0.205	0.14	-2.17	1.82
21989	-1.001	0.091	0.205	0.07	-2.59	2.03
22013	-1.0	0.093	0.208	0.14	-2.66	2.17
22033	-1.0	0.094	0.208	0.14	-2.8	2.38
22053	-1.001	0.097	0.212	0.14	-3.08	2.38
22073	-0.999	0.097	0.21	0.35	-3.08	2.38
22092	-0.998	0.098	0.212	0.49	-3.22	2.24
22111	-0.997	0.098	0.213	0.28	-3.15	2.24
22130	-0.997	0.097	0.214	0.42	-3.15	2.1
22155	-0.998	0.099	0.214	0.28	-2.8	1.96
22172	-0.995	0.1	0.214	0.14	-2.73	1.89
22192	-0.998	0.101	0.215	0.0	-2.66	1.75
22215	-0.998	0.099	0.214	0.0	-2.59	1.75
22239	-0.999	0.102	0.215	0.0	-2.45	1.68
22259	-0.999	0.099	0.215	-0.35	-2.45	1.61
22277	-0.999	0.099	0.213	-0.35	-2.31	1.47
22295	-0.997	0.101	0.215	-0.21	-2.24	1.4
22315	-0.999	0.102	0.215	-0.14	-2.17	1.4
22334	-0.999	0.102	0.214	-0.35	-2.1	1.4
22359	-0.998	0.099	0.21	-0.28	-1.96	1.26
22379	-0.998	0.1	0.213	-0.21	-2.24	1.26
22398	-0.999	0.1	0.213	-0.14	-2.17	1.54
22419	-0.997	0.102	0.215	0.07	-2.1	1.68
22439	-1.0	0.102	0.21	-0.35	-2.31	1.61
22458	-1.001	0.099	0.21	-0.28	-2.59	1.75
22477	-1.001	0.1	0.209	0.07	-3.01	2.03
22499	-1.002	0.1	0.208	-0.28	-3.36	2.1
22521	-1.003	0.098	0.209	-0.14	-3.85	2.38
22545	-0.996	0.105	0.213	0.35	-3.85	2.1
22563	-1.001	0.095	0.211	0.84	-4.62	1.96
22587	-0.997	0.1	0.217	1.19	-4.48	1.89
22605	-0.996	0.103	0.221	1.47	-4.41	1.75
22625	-1.0	0.103	0.22	0.42	-3.78	1.75
22645	-0.996	0.101	0.219	0.56	-3.99	1.82
22667	-0.997	0.107	0.22	0.91	-4.2	1.68
22691	-1.0	0.108	0.218	0.7	-4.13	1.61
22711	-0.992	0.105	0.224	0.49	-3.64	1.61
22729	-0.996	0.108	0.219	0.07	-3.57	1.4
22751	-1.0	0.103	0.219	0.42	-3.78	1.61
22771	-0.999	0.102	0.217	1.89	-4.41	1.54
22795	-0.997	0.111	0.223	1.96	-4.62	1.75
22815	-0.996	0.106	0.225	0.7	-4.06	1.82
22835	-0.998	0.103	0.224	0.63	-3.85	1.82
22855	-0.999	0.108	0.223	0.42	-3.78	1.82
22879	-0.999	0.106	0.222	0.28	-3.36	1.75
22897	-0.995	0.107	0.226	0.63	-3.43	1.75
22919	-0.994	0.108	0.226	0.63	-3.36	1.89
22939	-0.999	0.107	0.227	0.42	-3.29	1.96
22959	-0.996	0.106	0.225	0.42	-2.94	1.61
22979	-0.994	0.112	0.224	-0.28	-2.52	1.47
22998	-0.997	0.105	0.226	0.07	-2.45	1.47
23022	-0.994	0.108	0.226	0.07	-1.96	1.26
23041	-0.992	0.112	0.229	-0.42	-2.03	0.98
23062	-0.995	0.108	0.228	-0.63	-1.61	0.77
23081	-0.993	0.107	0.225	-0.7	-1.61	0.56
23099	-0.997	0.107	0.226	-0.28	-1.68	0.63
23122	-0.995	0.106	0.227	-0.56	-1.4	0.42
23143	-0.995	0.111	0.23	-0.91	-1.19	0.35
23158	-0.997	0.107	0.224	-0.98	-0.98	0.42
23178	-0.998	0.103	0.226	-0.98	-1.19	0.14
23203	-0.996	0.105	0.221	-0.77	-1.4	0.21
23223	-0.997	0.106	0.222	-0.56	-1.54	0.21
23243	-0.996	0.105	0.22	-0.21	-1.61	0.28
23262	-0.998	0.103	0.221	-0.07	-1.82	0.21
23278	-0.997	0.103	0.223	-0.07	-1.96	0.35
23302	-0.997	0.106	0.221	-0.28	-2.03	0.42
23323	-0.998	0.104	0.223	-0.14	-2.03	0.56
23343	-0.997	0.103	0.221	-0.07	-2.31	0.7
23367	-0.999	0.105	0.219	-0.21	-2.38	0.91
23387	-0.997	0.105	0.22	-0.14	-2.45	0.98
23404	-0.994	0.106	0.222	0.07	-2.59	0.84
23428	-0.998	0.104	0.226	-0.07	-2.59	0.84
23448	-0.995	0.106	0.224	-0.14	-2.38	0.7
23468	-0.996	0.107	0.224	-0.42	-2.45	0.56
23485	-0.996	0.105	0.225	-0.14	-2.31	0.56
23507	-0.996	0.108	0.223	-0.21	-2.24	0.56
23531	-0.998	0.103	0.222	-0.07	-2.03	0.42
23550	-0.998	0.102	0.224	-0.21	-2.03	0.35
23570	-0.998	0.103	0.221	-0.28	-1.96	0.49
23593	-0.996	0.103	0.221	-0.42	-1.96	0.49
23614	-0.997	0.101	0.222	-0.28	-2.1	0.7
23634	-0.999	0.097	0.223	0.07	-2.31	0.98
23654	-0.998	0.102	0.224	-0.14	-2.17	1.26
23672	-0.998	0.102	0.221	-0.07	-2.45	1.33
23694	-0.997	0.103	0.222	-0.07	-2.52	1.26
23718	-0.997	0.101	0.224	0.14	-2.38	1.05
23738	-0.995	0.103	0.223	0.07	-2.1	0.91
23756	-0.998	0.105	0.225	0.14	-2.1	0.84
23777	-0.998	0.1	0.223	-0.07	-1.89	0.7
23797	-0.998	0.101	0.226	-0.21	-1.82	0.7
23821	-0.999	0.1	0.222	-0.49	-1.75	0.84
23841	-0.997	0.102	0.221	-0.49	-1.89	0.84
23860	-0.997	0.099	0.221	-0.28	-2.24	1.12
23879	-0.999	0.101	0.217	-0.14	-2.59	1.4
23903	-1.0	0.1	0.22	-0.07	-2.8	1.75
23923	-1.0	0.101	0.219	0.21	-3.15	1.89
23947	-0.999	0.103	0.218	0.35	-3.92	2.17
23967	-0.995	0.105	0.225	0.49	-3.85	2.45
23986	-0.995	0.103	0.223	0.35	-3.99	2.66
24006	-0.996	0.102	0.227	0.35	-3.99	2.87
24029	-0.999	0.104	0.228	0.56	-4.06	3.01
24049	-0.996	0.103	0.227	0.7	-3.78	2.87
24069	-0.991	0.107	0.228	0.56	-3.43	2.45
24088	-0.997	0.106	0.231	0.35	-3.15	2.45
24113	-0.992	0.106	0.229	0.07	-2.66	2.52
24133	-0.993	0.109	0.228	-0.28	-2.38	2.45
24152	-0.996	0.107	0.229	-0.07	-2.38	2.59
24171	-0.993	0.107	0.229	0.07	-2.17	2.59
24195	-0.996	0.106	0.228	0.0	-2.24	2.66
24215	-0.997	0.109	0.227	0.0	-1.96	2.45
24233	-0.996	0.11	0.225	-0.14	-1.82	2.03
24255	-0.994	0.113	0.229	-0.35	-1.54	1.68
24273	-0.993	0.115	0.229	-0.7	-0.98	1.47
24297	-0.986	0.112	0.23	-0.98	-0.14	1.19
24317	-0.992	0.114	0.229	-1.75	0.14	0.91
24335	-0.993	0.112	0.227	-1.82	0.35	0.56
24354	-0.994	0.113	0.228	-2.17	1.12	0.28
24379	-0.998	0.107	0.224	-2.45	0.84	0.49
24398	-0.998	0.11	0.221	-2.31	1.33	0.35
24421	-0.997	0.107	0.217	-2.66	0.7	0.28
24442	-1.001	0.106	0.216	-2.17	0.63	0.28
24466	-0.997	0.106	0.216	-1.96	0.42	0.28
24486	-0.998	0.105	0.214	-1.61	0.14	0.28
24505	-1.0	0.107	0.215	-1.33	-0.07	0.21
24526	-0.999	0.108	0.213	-1.19	-0.49	0.07
24546	-1.001	0.102	0.213	-0.28	-0.63	0.0
24566	-0.996	0.103	0.215	0.07	-0.7	0.07
24585	-0.998	0.107	0.218	-0.21	-0.63	-0.07
24605	-0.997	0.104	0.212	-0.35	-0.49	-0.28
24629	-0.997	0.104	0.21	0.14	-0.56	-0.21
24647	-1.002	0.1	0.21	-0.07	-0.77	-0.14
24667	-1.0	0.103	0.209	0.14	-0.98	0.14
24689	-1.0	0.101	0.212	0.21	-1.54	0.28
24708	-0.998	0.102	0.208	-0.14	-1.61	0.42
24733	-0.999	0.103	0.211	-0.28	-1.89	0.63
24751	-0.997	0.1	0.211	-0.21	-1.75	0.49
24773	-0.998	0.104	0.214	-0.35	-1.61	0.56
24793	-0.997	0.103	0.209	-0.7	-1.4	0.42
24813	-0.997	0.102	0.209	-1.12	-1.19	0.35
24837	-0.998	0.101	0.209	-0.77	-1.26	0.35
24857	-1.001	0.101	0.21	-0.84	-1.26	0.35
24877	-0.997	0.1	0.213	-1.26	-1.4	0.7
24901	-1.005	0.096	0.205	-0.98	-1.33	0.63
24921	-1.003	0.097	0.207	-0.91	-1.4	0.91
24945	-1.0	0.097	0.205	-0.42	-1.68	1.33
24965	-1.0	0.099	0.208	-0.35	-1.82	1.47
24983	-1.002	0.099	0.207	-0.28	-1.89	1.54
25005	-1.0	0.098	0.207	0.0	-2.03	1.61
25029	-0.999	0.099	0.206	17.85	-2.1	1.68
25049	-0.998	0.101	0.207	0.14	-2.03	1.75
25069	-0.999	0.098	0.206	0.28	-2.17	1.89
25086	-1.003	0.098	0.205	0.28	-2.45	2.1
25106	-1.002	0.099	0.204	0.28	-2.45	2.17
25126	-1.001	0.102	0.206	0.42	-2.66	2.17
25150	-1.001	0.1	0.206	0.21	-2.66	2.38
25168	-1.0	0.102	0.207	0.42	-2.8	2.45
25188	-1.0	0.103	0.207	0.42	-2.8	2.38
25212	-1.001	0.102	0.207	0.42	-3.01	2.45
25232	-0.999	0.104	0.207	0.42	-3.08	2.45
25250	-1.0	0.104	0.209	0.42	-3.29	2.45
25272	-1.0	0.102	0.21	0.49	-3.15	2.52
25292	-1.0	0.105	0.208	0.63	-3.36	2.38
25316	-0.998	0.107	0.208	0.42	-3.43	2.31
25336	-1.002	0.104	0.21	0.35	-3.43	2.38
25354	-1.0	0.106	0.21	0.63	-3.5	2.38
25373	-0.997	0.106	0.212	0.63	-3.5	2.24
25398	-0.998	0.11	0.211	0.21	-3.22	2.1
25422	-0.996	0.108	0.214	0.35	-3.22	1.96
25442	-0.999	0.108	0.212	0.49	-3.29	1.89
25462	-0.999	0.109	0.213	-0.14	-3.29	1.75
25480	-0.996	0.109	0.212	-0.07	-3.15	1.89
25502	-0.995	0.111	0.214	-0.28	-3.08	1.47
25526	-0.999	0.111	0.216	-0.07	-3.15	1.26
25546	-0.993	0.109	0.212	-0.21	-3.01	1.12
25565	-1.001	0.108	0.211	0.0	-3.36	1.05
25589	-0.999	0.111	0.213	-0.14	-3.43	1.05
25609	-0.997	0.109	0.213	0.07	-3.36	0.84
25627	-1.0	0.107	0.217	0.21	-3.5	0.84
25649	-0.999	0.105	0.216	0.28	-3.36	0.91
25668	-0.998	0.106	0.214	0.28	-3.5	0.91
25688	-0.998	0.106	0.218	0.49	-3.5	0.98
25712	-0.998	0.107	0.218	0.49	-3.64	1.12
25730	-0.994	0.111	0.219	0.77	-3.5	0.84
25751	-0.998	0.109	0.218	0.77	-3.71	0.77
25775	-0.997	0.106	0.219	0.91	-3.92	1.26
25793	-0.996	0.105	0.221	0.84	-3.43	1.47
25814	-0.998	0.11	0.227	0.7	-3.29	1.54
25838	-0.992	0.114	0.222	0.21	-2.8	1.05
25858	-0.996	0.11	0.217	0.42	-3.15	1.19
25878	-0.999	0.107	0.224	0.84	-3.43	1.47
25895	-0.991	0.115	0.224	-0.14	-2.73	1.26
25919	-0.997	0.113	0.225	-0.35	-2.31	1.26
25938	-0.994	0.111	0.222	-0.21	-2.1	1.05
25962	-0.997	0.108	0.222	-0.07	-2.17	1.19
25980	-0.995	0.112	0.219	-0.42	-1.89	1.4
26000	-0.997	0.112	0.223	-0.84	-1.75	1.4
26019	-0.998	0.111	0.221	-1.26	-1.47	1.4
26044	-0.997	0.109	0.218	-0.98	-1.61	1.33
26063	-0.996	0.108	0.221	-0.28	-1.96	1.19
26087	-0.997	0.107	0.219	-0.35	-1.89	0.98
26105	-0.997	0.109	0.219	-0.56	-1.61	0.98
26127	-0.996	0.107	0.217	-0.98	-1.61	0.98
26150	-0.998	0.104	0.214	-0.7	-2.03	1.26
26170	-0.997	0.109	0.221	-0.28	-2.31	1.33
26194	-0.996	0.111	0.218	-0.28	-2.31	1.12
26214	-0.997	0.107	0.218	-0.07	-2.38	1.05
26233	-0.998	0.109	0.22	-0.07	-2.45	1.19
26251	-0.996	0.109	0.218	-0.28	-2.17	1.19
26274	-0.996	0.11	0.221	-0.49	-2.24	1.12
26294	-0.998	0.108	0.222	-0.35	-2.45	1.12
26313	-0.996	0.111	0.219	-0.35	-2.38	0.84
26333	-0.997	0.11	0.219	-0.21	-2.38	0.63
26355	-0.996	0.109	0.218	0.07	-2.38	0.42
26375	-0.997	0.109	0.22	-0.07	-2.38	0.28
26396	-0.995	0.106	0.22	0.07	-2.66	0.14
26416	-0.998	0.105	0.217	0.0	-2.73	0.35
26439	-0.996	0.108	0.22	0.21	-2.87	0.28
26456	-0.996	0.106	0.218	0.14	-2.94	0.28
26479	-0.997	0.107	0.222	0.35	-2.87	0.42
26498	-0.997	0.107	0.223	0.35	-2.8	0.42
26521	-0.996	0.102	0.219	-0.14	-2.94	0.63
26540	-0.996	0.104	0.22	-0.07	-3.01	1.05
26559	-0.998	0.104	0.225	0.14	-2.73	1.12
26579	-0.996	0.105	0.223	-0.07	-2.94	1.19
26599	-0.996	0.107	0.222	0.14	-2.87	1.33
26624	-0.996	0.108	0.219	0.14	-3.08	1.33
26644	-0.999	0.105	0.221	0.14	-3.01	0.98
26659	-0.997	0.109	0.223	0.28	-3.08	0.84
26684	-0.995	0.108	0.225	0.35	-3.01	0.7
26703	-0.996	0.108	0.223	0.14	-2.8	0.63
26724	-0.995	0.106	0.224	0.0	-2.59	0.77
26740	-0.996	0.105	0.221	0.14	-2.59	0.84
26761	-0.997	0.105	0.221	0.21	-2.87	0.98
26784	-0.996	0.104	0.224	0.35	-2.59	0.98
26803	-0.994	0.106	0.225	0.28	-2.59	1.19
26825	-0.996	0.106	0.224	0.14	-2.31	1.19
26848	-0.996	0.109	0.223	0.14	-2.24	1.33
26869	-0.996	0.107	0.225	-0.07	-2.17	1.4
26887	-0.996	0.106	0.228	-0.07	-2.1	1.47
26907	-0.996	0.107	0.222	-0.14	-2.1	1.47
26927	-0.996	0.108	0.221	-0.49	-2.17	1.68
26947	-0.999	0.105	0.223	-0.14	-2.45	1.82
26969	-0.998	0.103	0.221	-0.07	-2.73	1.96
26993	-0.999	0.108	0.219	-0.28	-3.01	2.24
27012	-0.998	0.105	0.223	-0.07	-3.57	2.24
27033	-0.995	0.104	0.222	0.21	-3.71	2.03
27053	-0.996	0.111	0.224	0.35	-4.06	2.03
27073	-0.996	0.108	0.227	0.7	-3.99	2.1
27097	-0.995	0.109	0.229	0.49	-3.78	1.96
27117	-0.995	0.111	0.229	0.56	-3.78	1.68
27137	-1.005	0.11	0.23	0.56	-4.48	1.61
27157	-1.001	0.114	0.228	0.7	-3.36	1.61
27176	-0.993	0.11	0.229	0.7	-3.01	1.47
27200	-0.99	0.114	0.229	0.56	-3.01	1.47
27220	-0.993	0.111	0.23	0.28	-2.73	1.61
27240	-0.994	0.112	0.232	0.14	-2.45	1.54
27260	-0.992	0.114	0.232	0.0	-2.17	1.33
27277	-0.993	0.116	0.232	-0.07	-1.96	1.33
27301	-0.993	0.113	0.235	-0.21	-1.47	0.98
27321	-0.992	0.113	0.233	-0.7	-1.05	0.91
27340	-0.995	0.11	0.231	-0.98	-0.7	0.77
27357	-0.992	0.113	0.231	-1.12	-0.21	0.42
27381	-0.994	0.109	0.227	-1.61	-0.07	0.28
27401	-0.995	0.113	0.227	-1.89	0.14	0.28
27425	-0.994	0.111	0.227	-1.54	0.35	0.28
27445	-0.995	0.109	0.224	-1.61	0.35	0.28
27464	-0.995	0.106	0.221	-1.96	0.35	0.35
27488	-1.001	0.103	0.222	-2.1	0.49	0.28
27508	-0.994	0.106	0.218	-1.89	0.56	0.21
27527	-1.003	0.107	0.216	-2.03	0.07	0.14
27544	-0.995	0.103	0.217	-1.05	-0.07	0.0
27564	-0.999	0.106	0.218	-0.56	-0.28	0.07
27588	-1.0	0.104	0.215	-0.49	-0.49	0.28
27608	-1.001	0.111	0.218	-0.7	-0.63	0.14
27627	-1.0	0.101	0.217	-0.7	-0.42	0.56
27646	-0.998	0.106	0.215	-0.84	-0.42	0.63
27664	-0.998	0.105	0.216	-0.91	-0.7	0.42
27686	-0.999	0.105	0.216	-0.56	-0.63	0.28
27710	-0.997	0.107	0.215	-1.05	-0.63	0.35
27730	-1.002	0.105	0.215	-0.7	-0.49	0.21
27754	-0.996	0.105	0.21	-1.12	-0.14	-0.21
27772	-1.003	0.103	0.211	-1.26	-0.63	-0.14
27792	-1.003	0.098	0.209	-0.7	-0.77	-0.07
27811	-0.997	0.101	0.207	-0.42	-1.05	0.28
27833	-1.0	0.1	0.207	-0.42	-1.75	0.56
27855	-1.001	0.103	0.209	-0.42	-1.75	0.77
27876	-0.997	0.1	0.211	-0.49	-1.82	0.7
27896	-1.0	0.103	0.21	-0.14	-1.96	0.49
27920	-0.999	0.102	0.21	-0.14	-1.89	0.14
27940	-0.998	0.102	0.213	-0.21	-1.89	0.0
27958	-1.001	0.101	0.211	-0.14	-1.96	0.0
27980	-0.998	0.099	0.212	-0.35	-1.61	-0.14
28003	-0.999	0.098	0.211	-0.42	-1.82	-0.14
28022	-1.001	0.098	0.207	0.0	-2.1	0.21
28042	-1.003	0.095	0.209	0.28	-2.52	0.42
28066	-1.001	0.098	0.21	0.35	-2.8	0.91
28086	-0.999	0.097	0.205	0.49	-2.94	1.26
28104	-1.0	0.099	0.211	0.42	-2.8	1.33
28126	-0.998	0.097	0.213	0.49	-2.59	1.47
28145	-0.998	0.102	0.212	0.42	-2.73	1.4
28164	-0.999	0.101	0.215	0.28	-2.45	1.33
28186	-0.999	0.1	0.209	0.14	-2.31	1.12
28204	-1.0	0.095	0.209	0.14	-2.31	1.12
28224	-0.999	0.097	0.21	0.28	-2.17	1.26
28247	-1.0	0.099	0.213	0.21	-2.31	1.33
28266	-0.999	0.102	0.213	0.14	-2.1	1.19
28286	-1.001	0.097	0.21	0.0	-2.03	1.19
28311	-0.875	0.1	0.21	0.0	-2.17	1.19
28329	-1.003	0.099	0.209	0.28	-2.38	1.12
28351	-1.001	0.099	0.214	0.14	-2.38	1.05
28375	-0.998	0.099	0.211	-0.21	-2.38	0.84
28395	-1.0	0.099	0.21	-0.21	-2.45	0.84
28414	-1.0	0.096	0.211	0.14	-2.52	0.84
28435	-1.001	0.1	0.209	-0.07	-2.45	0.84
28454	-1.0	0.099	0.208	0.14	-2.59	0.84
28474	-0.998	0.098	0.211	0.07	-2.45	0.77
28495	-1.0	0.097	0.21	0.0	-2.59	0.7
28512	-1.001	0.102	0.214	0.0	-2.59	0.77
28536	-1.002	0.101	0.212	-0.07	-2.8	0.77
28556	-1.124	0.096	0.21	0.21	-2.87	0.98
28576	-1.003	0.094	0.212	0.7	-3.22	1.12
28595	-0.999	0.098	0.214	0.35	-3.29	1.54
28619	-0.995	0.103	0.213	-0.21	-3.15	1.47
28639	-1.004	0.095	0.215	-0.28	-3.36	1.75
28657	-0.995	0.103	0.212	-0.28	-3.29	1.82
28681	-1.003	0.096	0.213	-0.14	-3.64	1.82
28700	-1.0	0.106	0.214	0.07	-3.64	1.61
28719	-0.996	0.102	0.214	-0.14	-3.5	1.4
28743	-1.004	0.102	0.213	-0.07	-4.06	1.61
28763	-1.002	0.098	0.215	0.77	-4.06	1.75
28783	-0.995	0.101	0.214	0.91	-4.13	1.82
28803	-0.998	0.099	0.219	0.7	-4.2	1.82
28822	-0.999	0.097	0.221	0.7	-3.99	2.1
28847	-0.992	0.103	0.219	0.56	-3.71	2.17
28862	-0.999	0.105	0.219	0.7	-4.2	1.96
28887	-0.996	0.105	0.216	1.12	-4.06	1.54
28905	-0.998	0.099	0.216	1.33	-4.34	1.61
28926	-1.003	0.1	0.222	1.05	-4.48	1.89
28948	-0.996	0.109	0.227	1.26	-4.27	1.75
28968	-0.994	0.11	0.225	1.12	-3.5	1.26
28989	-0.998	0.102	0.227	0.49	-3.36	1.4
29013	-1.0	0.108	0.227	0.7	-3.43	1.12
29033	-0.992	0.106	0.226	0.56	-2.66	0.91
29053	-0.993	0.104	0.228	-0.28	-2.45	0.63
29073	-0.995	0.101	0.223	-0.49	-2.1	0.49
29093	-0.997	0.104	0.225	-0.84	-1.96	0.35
29112	-0.999	0.102	0.224	-0.42	-1.96	0.28
29131	-0.996	0.105	0.226	-0.7	-1.75	0.21
29153	-0.994	0.107	0.224	-0.84	-1.4	-0.21
29173	-0.997	0.1	0.224	-1.19	-1.33	-0.21
29194	-0.999	0.098	0.222	-0.84	-1.4	-0.14
29213	-0.999	0.099	0.222	-0.49	-1.68	-0.14
29230	-0.993	0.096	0.222	-0.35	-1.75	-0.07
29253	-0.998	0.1	0.224	0.0	-1.75	-0.07
29274	-0.998	0.099	0.221	-0.07	-1.61	-0.07
29290	-0.999	0.101	0.223	-0.49	-1.68	-0.07
29315	-0.998	0.097	0.223	-0.49	-1.61	0.0
29334	-0.998	0.098	0.221	-0.63	-1.4	0.0
29349	-0.996	0.096	0.222	-0.77	-1.47	0.0
29374	-0.996	0.097	0.218	-0.7	-1.4	0.07
29398	-0.994	0.093	0.22	-0.84	-1.4	0.28
29418	-0.997	0.094	0.221	-0.84	-1.47	0.14
29438	-1.0	0.098	0.218	-0.98	-1.61	0.14
29458	-0.996	0.091	0.217	-0.7	-1.68	0.28
29478	-0.999	0.092	0.214	-0.21	-2.31	0.21
29496	-1.005	0.091	0.218	0.07	-2.59	0.56
29515	-0.875	0.09	0.217	0.35	-2.87	0.7
29535	-1.001	0.091	0.219	0.63	-3.22	0.7
29560	-0.998	0.095	0.221	0.77	-3.29	0.77
29578	-0.998	0.095	0.222	1.05	-3.08	0.84
29599	-0.998	0.095	0.223	0.56	-3.08	0.84
29619	-0.996	0.095	0.225	0.49	-2.87	0.84
29643	-0.997	0.096	0.225	-0.21	-2.73	0.84
29661	-0.997	0.092	0.223	-0.21	-2.03	0.84
29680	-0.996	0.094	0.224	-0.56	-2.03	0.77
29700	-0.999	0.095	0.223	-0.56	-1.96	0.98
29724	-0.999	0.09	0.222	-0.35	-1.96	0.91
29748	-0.999	0.091	0.22	-0.56	-2.03	1.26
29767	-0.996	0.093	0.222	-0.56	-1.82	1.19
29791	-0.999	0.097	0.22	-0.63	-1.75	1.12
29809	-1.0	0.094	0.222	-0.42	-1.96	0.98
29828	-0.997	0.091	0.221	-0.28	-1.96	1.05
29850	-0.999	0.093	0.22	-0.07	-2.03	0.98
29869	-0.996	0.094	0.219	-0.14	-2.1	1.05
29894	-0.998	0.091	0.219	-0.35	-2.24	1.19
29913	-0.999	0.09	0.218	-0.21	-2.52	1.4
29934	-1.0	0.092	0.22	0.14	-2.73	1.68
29953	-0.998	0.094	0.22	-0.21	-2.66	1.75
29978	-0.997	0.091	0.219	-0.07	-2.87	1.96
29997	-0.999	0.087	0.22	0.21	-3.36	2.1
30021	-0.998	0.096	0.221	0.21	-3.5	2.17
30040	-0.996	0.093	0.222	0.28	-3.57	2.24
30064	-0.997	0.093	0.22	0.35	-3.78	2.45
30080	-0.997	0.094	0.224	0.56	-3.85	2.38
30104	-0.997	0.095	0.227	0.56	-3.71	2.24
30125	-0.996	0.096	0.222	0.21	-3.71	2.24
30144	-0.998	0.098	0.227	0.42	-3.43	2.17
30160	-0.996	0.099	0.227	0.35	-3.57	2.1
30183	-0.996	0.099	0.228	0.14	-3.15	1.82
30204	-0.996	0.101	0.227	0.07	-2.87	1.75
30223	-0.997	0.1	0.227	0.0	-2.45	1.75
30246	-0.996	0.101	0.227	0.0	-2.24	1.4
30270	-0.997	0.1	0.225	-0.21	-2.1	1.12
30290	-0.994	0.101	0.227	-0.35	-1.82	0.98
30308	-0.995	0.099	0.226	-0.35	-1.82	0.84
30332	-0.998	0.096	0.226	-0.21	-1.61	0.91
30348	-0.995	0.095	0.226	-0.21	-1.4	0.56
30372	-0.995	0.1	0.228	-0.63	-1.47	0.91
30391	-0.999	0.097	0.226	-0.35	-1.12	1.05
30410	-0.995	0.103	0.227	-0.63	-0.77	0.98
30433	-0.996	0.097	0.222	-1.33	-0.28	0.98
30453	-0.997	0.096	0.223	-1.4	-0.21	0.84
30477	-0.996	0.098	0.221	-0.91	-0.35	0.77
30497	-0.996	0.1	0.222	-0.84	-0.07	0.63
30517	-0.998	0.096	0.221	-0.77	-0.21	0.91
30537	-0.996	0.106	0.224	-1.05	0.14	0.77
30557	-0.997	0.097	0.219	-1.05	0.14	0.77
30581	-0.875	0.088	0.214	-1.33	0.0	0.63
30601	-1.0	0.098	0.217	-0.35	-0.28	0.49
30621	-0.998	0.1	0.216	-0.14	-0.21	0.35
30641	-1.0	0.101	0.216	-0.84	-0.14	0.14
30665	-0.996	0.098	0.211	-0.84	-0.07	0.0
30685	-1.0	0.091	0.212	-0.7	-0.56	-0.07
30703	-1.003	0.094	0.214	-0.49	-0.7	-0.07
30725	-0.999	0.092	0.208	-0.42	-0.7	-0.14
30749	-1.0	0.094	0.209	-0.28	-1.19	0.14
30769	-1.001	0.09	0.213	-0.21	-1.19	0.21
30789	-1.124	0.092	0.211	-0.28	-1.33	0.28
30807	-1.0	0.092	0.209	-0.21	-1.19	0.42
30829	-1.001	0.09	0.211	-0.14	-1.47	0.56
30853	-1.001	0.09	0.21	-0.14	-1.47	0.7
30871	-1.0	0.09	0.21	-0.28	-1.54	0.84
30888	-0.999	0.09	0.208	-0.42	-1.82	0.98
30913	-0.997	0.091	0.208	-0.21	-1.96	1.4
30930	-0.997	0.092	0.211	-0.35	-2.17	1.47
30950	-1.0	0.091	0.208	-0.49	-1.89	1.54
30973	-1.0	0.092	0.211	-0.42	-1.82	1.47
30994	-0.999	0.094	0.213	-0.28	-1.75	1.26
31014	-1.002	0.09	0.211	-0.07	-2.03	1.33
31034	-1.002	0.092	0.21	-0.14	-2.1	1.26
31052	-1.001	0.089	0.207	0.0	-2.31	1.4
31071	-1.003	0.093	0.208	0.14	-2.45	1.54
31090	-1.002	0.09	0.207	0.28	-2.94	1.68
31115	-1.0	0.091	0.208	0.56	-3.22	2.1
31134	-1.004	0.092	0.209	0.63	-3.5	2.17
31152	-1.001	0.094	0.21	0.63	-3.43	2.03
31171	-0.999	0.092	0.214	0.56	-3.43	1.96
31196	-0.999	0.096	0.212	0.56	-3.36	1.82
31216	-1.0	0.095	0.214	0.56	-3.36	1.75
31235	-0.999	0.097	0.215	0.56	-3.22	1.61
31253	-0.875	0.096	0.215	0.28	-3.08	1.68
31276	-0.998	0.096	0.213	0.21	-3.01	1.47
31294	-0.998	0.095	0.214	0.0	-2.87	1.4
31314	-0.997	0.096	0.215	0.07	-2.87	1.4
31338	-0.998	0.095	0.215	0.0	-2.94	1.47
31356	-0.999	0.097	0.216	-0.07	-2.8	1.33
31380	-1.0	0.095	0.214	-0.35	-2.66	1.26
31400	-0.998	0.096	0.215	0.07	-3.08	1.47
31419	-0.999	0.094	0.217	0.21	-3.01	1.61
31439	-0.997	0.093	0.215	0.07	-3.08	1.75
31463	-0.997	0.095	0.216	0.07	-3.15	1.96
31483	-0.997	0.097	0.215	-0.07	-3.01	1.75
31503	-1.001	0.097	0.217	-0.21	-3.15	1.75
31523	-0.997	0.099	0.219	0.14	-2.87	1.54
31541	-0.996	0.101	0.216	-0.28	-2.8	1.4
31565	-0.998	0.099	0.218	-0.21	-2.73	1.47
31581	-1.0	0.096	0.221	-0.21	-2.66	1.33
31605	-0.998	0.1	0.216	-0.14	-2.66	1.19
31625	-0.996	0.097	0.217	-0.14	-2.87	1.33
31645	-1.001	0.095	0.219	-0.07	-2.94	1.54
31664	-0.996	0.1	0.217	-0.49	-2.66	1.33
31684	-1.004	0.095	0.218	-0.35	-2.94	1.4
31708	-0.998	0.096	0.219	0.21	-3.29	1.47
31728	-1.003	0.104	0.216	0.28	-3.64	1.19
31748	-1.123	0.102	0.22	0.07	-3.15	0.98
31763	-0.996	0.098	0.215	-0.14	-3.22	0.77
31788	-1.001	0.098	0.217	0.42	-3.36	0.63
31808	-0.998	0.097	0.221	0.77	-3.01	0.7
31824	-0.998	0.097	0.222	0.56	-3.22	0.84
31848	-0.998	0.098	0.218	0.84	-3.29	0.56
31867	-0.997	0.097	0.22	0.91	-3.85	0.98
31887	-1.001	0.093	0.221	1.4	-3.64	1.4
31911	-0.999	0.096	0.223	1.47	-3.85	1.54
31930	-1.121	0.102	0.22	0.21	-4.06	1.4
31951	-0.996	0.096	0.224	0.63	-3.36	1.54
31971	-0.995	0.099	0.225	0.77	-3.5	1.61
31991	-0.999	0.095	0.223	0.28	-3.78	1.82
32010	-0.997	0.101	0.223	0.63	-3.15	1.47
32035	-0.994	0.11	0.228	-17.92	-2.73	1.33
32054	-0.998	0.093	0.225	0.49	-3.08	1.33
32074	-0.997	0.096	0.225	0.35	-2.87	1.47
32093	-0.996	0.102	0.226	0.14	-2.66	1.26
32118	-0.996	0.099	0.226	-0.14	-2.38	0.91
32136	-0.997	0.099	0.228	-0.14	-2.1	0.84
32158	-0.996	0.097	0.227	-0.21	-1.96	0.63
32182	-0.995	0.101	0.226	-0.14	-1.96	0.42
32197	-0.997	0.099	0.225	-0.42	-1.68	0.35
32221	-1.0	0.099	0.224	-0.28	-1.89	0.42
32242	-0.997	0.094	0.223	-0.28	-1.75	0.28
32262	-0.996	0.097	0.223	-0.42	-1.82	0.21
32279	-0.999	0.098	0.224	-0.49	-2.03	0.14
32299	-0.996	0.095	0.223	-0.28	-1.75	0.14
32323	-0.998	0.093	0.222	-0.28	-2.24	0.42
32343	-0.997	0.095	0.22	0.0	-2.59	0.49
32362	-0.997	0.098	0.225	0.0	-2.45	0.49
32385	-0.996	0.096	0.224	-0.07	-2.52	0.56
32403	-0.996	0.096	0.226	-0.14	-2.8	0.42
32425	-1.002	0.094	0.224	0.14	-3.08	0.7
32447	-1.0	0.091	0.223	0.21	-3.08	0.98
32464	-0.996	0.095	0.222	0.35	-3.15	1.26
32488	-1.002	0.11	0.23	-0.49	-3.71	1.05
32508	-1.0	0.091	0.224	1.47	-3.71	1.4
32528	-0.995	0.093	0.224	0.28	-3.71	1.54
32548	-0.997	0.097	0.228	0.49	-4.13	1.54
32563	-0.998	0.095	0.229	0.91	-3.99	1.61
32588	-0.995	0.099	0.231	0.28	-3.71	1.68
32608	-0.994	0.092	0.23	0.42	-3.64	1.61
32626	-0.996	0.099	0.229	0.21	-3.78	1.47
32648	-0.996	0.098	0.233	-0.07	-3.22	1.4
32671	-0.993	0.099	0.231	-0.07	-2.66	1.26
32695	-0.996	0.099	0.232	-0.28	-2.31	0.98
32714	-0.994	0.097	0.231	-0.63	-2.03	0.98
32738	-0.996	0.096	0.231	-0.56	-1.89	1.12
32758	-0.996	0.1	0.229	-0.77	-1.61	1.05
32776	-0.999	0.094	0.226	-0.42	-1.89	1.33
32793	-0.998	0.094	0.228	-0.14	-1.96	1.54
32818	-0.996	0.101	0.227	-0.14	-2.03	1.54
32842	-0.998	0.1	0.227	-0.14	-2.1	1.4
32862	-0.996	0.097	0.229	0.0	-2.17	1.33
32880	-0.996	0.097	0.228	-0.07	-2.17	1.26
32900	-0.997	0.095	0.228	-0.07	-2.31	1.33
32924	-0.996	0.098	0.228	-0.14	-2.17	1.4
32944	-0.996	0.097	0.226	0.0	-2.31	1.61
32967	-0.999	0.095	0.231	0.28	-2.45	1.75
32991	-0.996	0.098	0.231	0.28	-2.59	1.68
33011	-0.996	0.099	0.228	0.14	-2.38	1.54
33035	-0.996	0.096	0.231	0.35	-2.45	1.75
33055	-0.994	0.1	0.229	0.07	-2.31	1.61
33075	-0.996	0.099	0.228	-0.28	-2.31	1.54
33095	-0.994	0.102	0.23	-0.14	-2.24	1.54
33115	-0.996	0.1	0.229	-0.21	-2.17	1.33
33134	-0.996	0.098	0.231	-0.28	-2.03	1.33
33158	-0.998	0.096	0.23	-0.14	-2.17	1.33
33177	-0.995	0.101	0.23	-0.14	-2.1	1.33
33198	-0.996	0.1	0.229	-0.21	-2.24	1.33
33221	-0.998	0.098	0.23	-0.14	-2.31	1.47
33242	-0.995	0.1	0.228	-0.07	-2.24	1.4
33257	-0.996	0.1	0.229	0.0	-2.17	1.4
33277	-0.995	0.1	0.229	0.0	-2.24	1.47
33301	-0.996	0.099	0.229	0.0	-2.31	1.47
33322	-0.997	0.101	0.229	-0.14	-2.38	1.33
33342	-0.996	0.102	0.229	-0.28	-2.17	1.19
33366	-0.995	0.103	0.229	-0.49	-2.1	1.12
33383	-0.998	0.101	0.23	-0.49	-2.1	1.05
33403	-0.996	0.101	0.229	-0.49	-2.03	0.84
33423	-0.996	0.1	0.227	-0.14	-2.17	0.7
33443	-0.997	0.1	0.228	-0.35	-2.31	0.77
33467	-0.995	0.101	0.228	-0.21	-2.24	0.98
33487	-0.994	0.101	0.228	-0.35	-2.24	0.84
33502	-0.997	0.099	0.229	-0.42	-2.03	0.98
33527	-0.998	0.1	0.228	-0.28	-2.1	0.91
33547	-0.996	0.102	0.226	-0.42	-2.24	0.84
33564	-0.996	0.1	0.228	-0.28	-2.1	0.77
33583	-0.997	0.101	0.229	-0.42	-2.1	0.63
33608	-0.995	0.098	0.23	-0.49	-2.03	0.77
33628	-0.997	0.099	0.23	-0.42	-2.1	0.77
33647	-0.998	0.097	0.227	-0.14	-2.38	0.77
33671	-0.997	0.098	0.227	-0.21	-2.24	0.63
33688	-0.996	0.1	0.23	-0.07	-2.17	0.56
33707	-0.996	0.095	0.229	-0.21	-2.17	0.56
33732	-0.999	0.096	0.228	0.07	-2.17	0.63
33750	-0.996	0.097	0.232	0.0	-1.82	0.63
33771	-0.996	0.099	0.227	-0.21	-1.82	0.56
33795	-0.995	0.096	0.227	-0.07	-1.96	0.56
33810	-0.995	0.096	0.227	-0.07	-1.68	0.49
33835	-0.996	0.098	0.229	-0.28	-1.68	0.42
33853	-0.995	0.097	0.23	-0.21	-1.54	0.56
33875	-0.994	0.098	0.228	-0.56	-1.33	0.35
33894	-0.996	0.095	0.226	-0.77	-1.05	0.42
33912	-0.996	0.096	0.229	-0.63	-0.98	0.56
33934	-0.995	0.093	0.223	-0.84	-0.84	0.56
33954	-0.998	0.094	0.222	-0.91	-0.91	0.63
33973	-0.997	0.092	0.226	-0.77	-0.77	0.84
33998	-0.995	0.093	0.225	-0.7	-0.98	0.91
34018	-0.999	0.093	0.223	-0.56	-0.98	1.12
34036	-0.998	0.094	0.224	-0.49	-1.05	1.19
34058	-0.997	0.095	0.223	-0.28	-1.12	1.26
34077	-0.998	0.094	0.223	-0.28	-1.26	1.47
34095	-0.999	0.093	0.222	-0.14	-1.47	1.54
34114	-0.996	0.097	0.221	-0.14	-1.33	1.54
34139	-0.998	0.097	0.222	-0.28	-1.33	1.47
34159	-0.999	0.094	0.22	-0.35	-1.26	1.54
34179	-1.0	0.096	0.221	-0.28	-1.47	1.47
34198	-1.0	0.095	0.219	-0.21	-1.4	1.54
34219	-0.997	0.095	0.219	-0.28	-1.4	1.4
34237	-0.999	0.096	0.219	-0.28	-1.47	1.19
34256	-0.997	0.094	0.22	-0.21	-1.61	1.19
34276	-0.999	0.099	0.218	-0.07	-1.61	1.12
34299	-0.998	0.099	0.22	0.0	-1.61	0.98
34323	-0.996	0.096	0.219	0.0	-1.75	0.91
34343	-0.996	0.096	0.22	0.21	-1.82	0.77
34361	-0.998	0.096	0.217	0.21	-1.75	0.7
34380	-1.0	0.095	0.219	0.14	-1.89	0.7
34404	-0.997	0.092	0.218	0.07	-1.96	0.77
34419	-0.998	0.096	0.221	0.14	-1.89	0.77
34444	-0.998	0.096	0.219	0.07	-1.89	0.63
34464	-0.998	0.095	0.219	-0.07	-1.96	0.56
34483	-0.999	0.096	0.215	0.0	-2.03	0.7
34508	-0.998	0.095	0.216	-0.07	-2.24	0.84
34526	-1.001	0.089	0.215	-0.07	-2.31	1.26
34548	-0.995	0.092	0.218	-0.42	-2.17	1.4
34568	-0.996	0.097	0.222	-0.07	-2.1	1.26
34588	-1.001	0.099	0.223	0.0	-2.17	1.33
34607	-0.998	0.095	0.223	-0.14	-1.47	1.05
34626	-0.995	0.094	0.218	-0.91	-1.05	0.77
34650	-0.997	0.095	0.22	-0.7	-0.7	0.84
34666	-1.0	0.096	0.217	-0.84	-0.7	0.98
34690	-0.999	0.095	0.214	-1.05	-0.98	1.19
34710	-1.0	0.087	0.213	-0.56	-1.12	1.47
34729	-0.999	0.094	0.214	-0.35	-1.61	1.54
34747	-0.999	0.095	0.213	-0.42	-1.61	1.75
34770	-1.0	0.095	0.215	-0.35	-1.82	1.75
34791	-1.002	0.093	0.214	-0.07	-2.1	1.75
34810	-1.0	0.094	0.213	0.0	-2.03	1.47
34828	-1.0	0.099	0.216	0.0	-2.03	1.33
34852	-0.997	0.098	0.212	0.0	-2.1	1.26
34872	-0.998	0.094	0.213	0.14	-2.38	1.33
34892	-0.999	0.096	0.217	0.14	-2.52	1.4
34913	-1.0	0.098	0.216	0.07	-2.45	1.33
34934	-1.001	0.096	0.217	0.07	-2.38	1.47
34953	-1.0	0.097	0.214	0.0	-2.45	1.4
34977	-0.998	0.095	0.215	-0.21	-2.31	1.4
34997	-0.999	0.096	0.215	-0.14	-2.45	1.4
35017	-0.998	0.096	0.213	-0.21	-2.45	1.4
35041	-0.999	0.096	0.216	-0.21	-2.45	1.54
35059	-0.998	0.095	0.215	-0.14	-2.45	1.61
35079	-0.999	0.095	0.214	0.0	-2.52	1.54
35098	-0.998	0.097	0.214	-0.14	-2.45	1.54
35121	-0.999	0.096	0.214	-0.28	-2.59	1.47
35142	-0.997	0.098	0.218	-0.14	-2.59	1.4
35164	-1.001	0.098	0.217	-0.07	-2.59	1.4
35184	-0.996	0.095	0.216	-0.28	-2.52	1.47
35204	-1.001	0.096	0.213	-0.28	-2.59	1.33
35223	-0.998	0.1	0.213	-0.21	-2.66	1.4
35248	-1.0	0.097	0.216	-0.07	-2.8	1.4
35268	-0.998	0.097	0.217	-0.42	-2.59	1.47
35287	-0.999	0.099	0.216	-0.49	-2.8	1.47
35311	-1.0	0.098	0.218	-0.63	-2.73	1.47
35331	-0.999	0.099	0.217	-0.42	-2.8	1.4
35351	-0.998	0.097	0.214	-0.21	-3.08	1.47
35371	-0.999	0.096	0.216	-0.21	-3.22	1.68
35388	-0.999	0.096	0.216	0.0	-3.36	1.68
35409	-0.996	0.1	0.218	0.07	-3.43	1.54
35432	-0.999	0.098	0.218	0.14	-3.36	1.61
35452	-0.999	0.096	0.219	0.35	-3.43	1.68
35472	-0.999	0.101	0.22	0.56	-3.36	1.54
35492	-0.996	0.1	0.223	0.28	-3.08	1.19
35511	-0.997	0.099	0.221	0.14	-3.08	1.26
35534	-0.998	0.096	0.224	0.21	-3.08	1.4
35554	-0.996	0.101	0.222	0.07	-2.8	1.33
35573	-0.996	0.098	0.22	-0.28	-2.59	1.26
35593	-0.997	0.102	0.221	-0.28	-2.45	1.19
35617	-0.997	0.1	0.219	-0.42	-2.38	0.98
35637	-0.998	0.098	0.223	-0.21	-2.38	0.98
35653	-0.997	0.098	0.223	-0.07	-2.45	0.84
35678	-0.996	0.1	0.221	0.14	-2.38	0.84
35698	-0.996	0.102	0.224	-0.35	-2.38	0.98
35718	-0.997	0.1	0.223	-0.28	-2.24	0.91
35738	-0.996	0.1	0.219	-0.14	-2.17	0.98
35756	-0.999	0.099	0.22	-0.28	-2.24	0.91
35778	-0.997	0.102	0.221	-0.21	-2.1	0.84
35797	-0.996	0.101	0.224	-0.56	-1.96	0.7
35818	-0.998	0.097	0.222	-0.56	-2.1	0.7
35842	-0.999	0.099	0.221	-0.42	-2.03	0.77
35862	-0.997	0.097	0.224	-0.35	-2.1	0.98
35882	-0.999	0.097	0.221	-0.28	-2.24	0.98
35903	-0.997	0.095	0.222	0.07	-2.24	1.19
35924	-0.998	0.098	0.22	-0.07	-2.31	1.4
35943	-0.998	0.097	0.22	0.14	-2.59	1.4
35968	-0.997	0.097	0.221	0.28	-2.45	1.54
35988	-0.998	0.101	0.221	0.21	-2.59	1.61
36007	-0.996	0.097	0.223	0.35	-2.66	1.61
36028	-0.997	0.099	0.221	0.35	-2.45	1.54
36048	-0.995	0.099	0.224	0.28	-2.52	1.61
36066	-0.998	0.096	0.222	0.28	-2.38	1.82
36085	-0.998	0.099	0.219	-0.07	-2.31	1.89
36105	-0.999	0.102	0.219	0.21	-2.38	1.96
36130	-1.001	0.099	0.22	0.07	-2.8	1.96
36147	-0.998	0.1	0.224	0.42	-2.87	1.89
36171	-0.997	0.102	0.221	0.0	-3.01	1.68
36191	-0.996	0.102	0.222	-0.07	-2.87	1.68
36206	-0.999	0.102	0.223	0.21	-3.01	1.61
36230	-0.995	0.105	0.224	0.21	-2.87	1.26
36249	-0.996	0.101	0.224	0.14	-2.66	0.98
36271	-0.995	0.102	0.225	0.07	-2.52	0.77
36291	-0.999	0.102	0.222	-0.07	-2.31	0.7
36310	-0.995	0.1	0.223	-0.28	-2.17	0.77
36331	-0.998	0.101	0.223	-0.49	-2.31	0.91
36350	-0.998	0.1	0.224	-0.49	-2.31	1.12
36375	-0.996	0.1	0.224	-0.35	-2.38	1.47
36392	-0.997	0.099	0.227	-0.35	-2.38	1.47
36412	-0.998	0.102	0.225	-0.49	-2.24	1.33
36436	-0.999	0.101	0.224	-0.42	-2.38	1.19
36456	-0.997	0.102	0.221	-0.42	-2.31	1.19
36476	-0.998	0.1	0.22	-0.35	-2.59	1.19
36492	-0.996	0.102	0.222	-0.28	-2.66	1.26
36516	-0.998	0.099	0.221	-0.07	-2.94	1.4
36535	-0.999	0.1	0.224	-0.07	-3.01	1.47
36555	-0.996	0.102	0.224	-0.07	-3.01	1.26
36575	-0.996	0.102	0.226	0.07	-3.08	1.4
36595	-0.999	0.102	0.224	-0.07	-2.8	1.26
36614	-0.996	0.101	0.225	0.0	-2.73	1.26
36637	-0.996	0.102	0.226	0.0	-2.8	1.26
36661	-0.999	0.099	0.224	-0.07	-2.8	1.19
36681	-0.997	0.102	0.227	-0.28	-2.59	1.19
36701	-0.994	0.103	0.228	-0.63	-2.45	0.84
36721	-0.996	0.1	0.226	-0.49	-2.52	0.91
36741	-0.997	0.107	0.226	-0.14	-2.45	0.63
36765	-0.996	0.102	0.226	-0.21	-2.45	0.7
36785	-0.996	0.1	0.222	0.0	-2.52	0.91
36805	-1.0	0.098	0.225	0.35	-2.73	1.26
36823	-0.998	0.103	0.225	0.35	-2.87	1.05
36845	-0.997	0.101	0.225	0.07	-2.66	1.19
36864	-0.997	0.098	0.224	0.21	-2.73	1.4
36888	-0.996	0.101	0.226	0.28	-2.87	1.54
36912	-0.998	0.102	0.227	0.21	-2.94	1.4
36932	-0.993	0.102	0.23	0.42	-2.8	1.33
36952	-0.996	0.101	0.228	0.21	-2.73	1.4
36972	-0.996	0.1	0.228	0.14	-2.59	1.47
36992	-0.993	0.102	0.23	0.14	-2.31	1.4
37015	-0.996	0.102	0.229	-0.14	-2.24	1.26
37039	-0.996	0.102	0.229	-0.28	-2.17	1.19
37058	-0.998	0.101	0.228	-0.21	-2.1	1.19
37078	-0.996	0.102	0.229	-0.28	-1.89	1.19
37102	-0.996	0.103	0.228	-0.28	-1.82	1.19
37121	-0.996	0.103	0.226	-0.35	-1.89	1.05
37142	-0.996	0.101	0.228	-0.35	-1.75	1.05
37162	-0.998	0.103	0.231	-0.49	-1.61	1.05
37181	-0.995	0.103	0.228	-0.63	-1.61	0.91
37202	-0.995	0.102	0.226	-0.7	-1.54	0.91
37220	-0.998	0.098	0.223	-0.35	-1.61	0.91
37244	-0.997	0.101	0.227	-0.35	-1.54	0.7
37264	-0.996	0.103	0.226	-0.35	-1.54	0.7
37282	-0.996	0.103	0.224	-0.42	-1.54	0.56
37306	-0.997	0.1	0.224	-0.28	-1.61	0.63
37325	-0.997	0.103	0.225	-0.14	-1.68	0.63
37348	-0.997	0.103	0.225	0.0	-1.61	0.49
37369	-0.998	0.096	0.223	-0.21	-1.68	0.77
37386	-1.0	0.098	0.224	0.0	-1.82	0.77
37410	-0.997	0.101	0.222	0.0	-1.82	1.12
37428	-0.997	0.1	0.225	-0.21	-1.96	1.05
37450	-0.999	0.096	0.225	-0.35	-1.89	1.26
37473	-0.997	0.1	0.225	-0.28	-2.1	1.4
37493	-0.996	0.1	0.222	-0.28	-1.89	1.4
37510	-1.0	0.098	0.224	-0.14	-1.96	1.61
37530	-0.998	0.103	0.227	-0.56	-2.24	1.75
37554	-0.996	0.098	0.224	-0.49	-1.68	1.54
37574	-0.994	0.104	0.225	-0.49	-1.82	1.33
37594	-0.995	0.102	0.224	-0.28	-1.68	1.33
37614	-0.997	0.099	0.222	-0.14	-1.82	1.26
37630	-0.995	0.103	0.222	-0.14	-1.89	1.19
37653	-0.996	0.103	0.224	0.0	-1.96	1.26
37673	-0.997	0.101	0.224	0.14	-1.89	1.33
37697	-0.999	0.103	0.223	-0.14	-1.96	1.12
37717	-0.997	0.099	0.221	-0.35	-1.61	0.98
37737	-0.996	0.102	0.224	-0.7	-1.26	0.91
37756	-0.996	0.104	0.224	-0.42	-1.33	0.91
37780	-0.993	0.103	0.223	-0.7	-0.77	0.49
37799	-0.999	0.1	0.224	-0.91	-0.91	0.56
37818	-0.998	0.099	0.221	-0.7	-0.7	0.77
37839	-0.999	0.102	0.22	-0.63	-0.84	0.7
37863	-0.998	0.098	0.22	-0.7	-1.05	0.98
37878	-1.0	0.097	0.217	-0.7	-1.33	1.05
37902	-1.003	0.096	0.217	-0.42	-1.54	1.33
37920	-0.999	0.097	0.215	-0.42	-1.82	1.61
37939	-0.995	0.098	0.216	-0.35	-1.96	1.75
37959	-1.0	0.098	0.218	-0.14	-2.45	1.68
37979	-0.999	0.098	0.215	0.21	-2.66	1.82
38001	-0.996	0.102	0.217	0.14	-2.59	1.75
38021	-0.998	0.104	0.22	0.07	-2.66	1.75
38045	-0.998	0.102	0.219	0.14	-2.38	1.54
38065	-0.998	0.103	0.22	0.0	-2.31	1.33
38088	-0.997	0.102	0.22	-0.07	-2.24	1.19
38108	-0.997	0.1	0.217	-0.14	-2.24	1.12
38126	-0.998	0.1	0.219	-0.35	-2.17	1.12
38150	-0.997	0.1	0.219	-0.21	-2.24	1.19
38170	-0.998	0.1	0.217	-0.07	-2.17	1.19
38190	-0.998	0.1	0.219	0.0	-2.17	1.33
38210	-0.998	0.103	0.219	0.14	-2.17	1.26
38233	-0.998	0.104	0.218	0.14	-2.17	1.33
38254	-0.998	0.099	0.219	0.14	-2.24	1.4
38272	-0.997	0.102	0.222	0.07	-2.38	1.4
38291	-0.998	0.101	0.218	-0.14	-2.24	1.4
38316	-0.997	0.104	0.219	-0.42	-2.31	1.4
38335	-0.998	0.103	0.219	-0.28	-2.24	1.33
38355	-0.997	0.102	0.219	-0.07	-2.45	1.26
38375	-0.998	0.101	0.215	0.0	-2.59	1.26
38395	-0.998	0.102	0.217	-17.92	-2.66	1.26
38419	-0.998	0.101	0.22	-0.07	-2.66	1.12
38438	-0.996	0.103	0.216	-0.35	-2.73	1.05
38459	-0.998	0.101	0.22	-0.49	-3.01	0.98
38483	-0.996	0.102	0.22	0.14	-3.01	1.19
38499	-0.999	0.101	0.218	0.0	-3.08	1.05
38523	-0.998	0.101	0.219	0.21	-3.15	1.19
38543	-0.997	0.105	0.221	0.14	-3.29	1.19
38559	-1.0	0.101	0.223	0.28	-3.36	1.12
38578	-0.999	0.103	0.221	0.35	-3.29	1.26
38603	-0.996	0.102	0.224	0.42	-2.94	1.05
38620	-0.995	0.105	0.222	0.14	-2.87	0.98
38644	-1.0	0.103	0.223	0.07	-2.66	0.84
38668	-0.997	0.103	0.224	-0.14	-2.38	0.77
38688	-0.993	0.105	0.224	-0.42	-2.1	0.49
38708	-0.997	0.102	0.224	-0.7	-1.96	0.42
38728	-0.996	0.103	0.221	-0.84	-1.61	0.14
38746	-0.996	0.103	0.221	-0.77	-1.54	-0.07
38767	-0.996	0.101	0.226	-0.84	-1.47	-0.28
38786	-0.996	0.102	0.224	-0.7	-1.33	-0.35
38806	-0.997	0.102	0.224	-0.56	-1.26	-0.56
38830	-0.998	0.099	0.221	-0.77	-1.05	-0.63
38849	-0.999	0.095	0.219	-0.56	-1.19	-0.35
38870	-0.995	0.095	0.223	0.07	-1.47	0.07
38894	-0.999	0.101	0.223	-0.28	-1.33	0.07
38914	-0.996	0.099	0.222	-0.56	-1.33	0.07
38934	-1.004	0.092	0.218	-0.35	-1.75	0.35
38953	-0.995	0.096	0.215	-0.63	-1.68	0.28
38974	-1.002	0.098	0.219	-0.56	-2.03	0.35
38993	-1.001	0.079	0.21	0.0	-2.52	1.19
39017	-1.001	0.091	0.214	0.77	-3.64	2.45
39037	-0.999	0.097	0.216	0.91	-4.34	3.08
39057	-0.999	0.098	0.22	1.05	-4.13	3.29
39077	-0.997	0.102	0.224	0.63	-3.92	3.29
39095	-0.996	0.1	0.223	0.42	-3.71	3.01
39115	-0.997	0.103	0.224	0.56	-3.57	2.73
39135	-0.992	0.1	0.223	0.7	-3.29	2.52
39159	-0.997	0.104	0.224	0.49	-2.8	1.96
39179	-0.996	0.101	0.223	0.35	-2.38	1.89
39199	-0.996	0.105	0.223	-0.21	-2.1	1.61
39218	-0.995	0.103	0.222	0.0	-2.03	1.61
39242	-0.997	0.104	0.224	-0.14	-1.68	1.33
39262	-0.995	0.106	0.222	-0.49	-1.54	1.33
39281	-0.997	0.101	0.221	-0.63	-1.4	1.19
39306	-0.997	0.099	0.224	-0.56	-1.47	1.4
39325	-0.996	0.106	0.225	-0.49	-1.4	1.19
39345	-0.998	0.108	0.222	-1.19	-0.98	0.63
39369	-0.997	0.102	0.218	-0.98	-1.19	0.28
39389	-0.997	0.1	0.217	-0.84	-1.33	0.42
39408	-1.001	0.096	0.217	-0.42	-1.4	0.63
39428	-0.999	0.098	0.216	-0.28	-1.82	0.63
39447	-0.998	0.093	0.215	-0.21	-2.24	1.12
39472	-0.999	0.097	0.216	0.28	-2.8	1.75
39488	-0.999	0.1	0.219	0.35	-3.01	1.89
39508	-1.001	0.101	0.219	0.28	-3.15	2.03
39532	-0.875	0.103	0.221	0.91	-3.57	1.96
39552	-0.996	0.102	0.223	0.84	-3.36	2.17
39576	-0.997	0.102	0.22	0.98	-3.5	2.38
39596	-0.999	0.101	0.224	0.42	-3.43	2.38
39612	-0.996	0.103	0.225	0.21	-3.15	2.31
39636	-0.996	0.104	0.225	0.28	-2.87	2.24
39655	-0.993	0.108	0.224	0.07	-2.59	1.89
39676	-0.997	0.104	0.221	-0.35	-2.52	1.82
39695	-0.997	0.104	0.224	-0.14	-2.45	1.96
39718	-1.0	0.108	0.222	-0.21	-2.38	1.82
39739	-0.998	0.104	0.223	0.0	-2.31	1.82
39759	-0.995	0.106	0.223	-0.07	-2.31	1.68
39778	-0.996	0.107	0.224	-0.21	-2.24	1.68
39798	-0.998	0.105	0.221	-0.21	-2.24	1.68
39818	-0.994	0.106	0.223	-0.07	-2.24	1.54
39837	-0.995	0.105	0.222	-0.21	-2.31	1.47
39862	-0.998	0.106	0.221	-0.14	-2.24	1.4
39881	-0.996	0.107	0.225	-0.42	-2.1	1.12
39900	-0.995	0.107	0.224	-0.49	-2.03	0.98
39922	-0.997	0.107	0.223	-0.49	-1.96	0.98
39946	-0.996	0.105	0.223	-0.56	-1.82	0.91
39966	-0.996	0.106	0.224	-0.63	-1.75	0.7
39986	-0.997	0.107	0.224	-0.77	-1.68	0.56
40005	-0.995	0.103	0.221	-0.84	-1.68	0.7
40026	-1.002	0.1	0.218	-0.77	-2.1	0.91
40046	-0.996	0.105	0.224	-0.56	-1.96	1.19
40064	-0.996	0.108	0.221	-0.98	-1.75	1.05
40088	-0.997	0.105	0.221	-1.26	-1.68	0.84
40108	-0.994	0.106	0.221	-1.05	-1.54	0.77
40126	-1.0	0.101	0.218	-0.63	-1.89	0.7
40148	-0.997	0.105	0.223	-0.21	-1.89	0.7
40168	-0.997	0.102	0.222	-0.35	-1.82	0.63
40188	-0.996	0.104	0.221	-0.63	-1.61	0.35
40212	-0.996	0.107	0.222	-0.77	-1.26	0.0
40232	-0.998	0.104	0.221	-0.7	-1.47	-0.14
40248	-0.996	0.105	0.221	-0.63	-1.4	0.0
40271	-0.998	0.102	0.224	-0.77	-1.05	0.0
40292	-0.996	0.101	0.221	-1.61	-0.77	-0.14
40310	-1.001	0.1	0.216	-1.33	-0.84	-0.07
40329	-0.998	0.098	0.215	-0.63	-1.33	0.14
40354	-1.001	0.097	0.215	0.0	-1.96	0.7
40374	-0.998	0.1	0.217	0.0	-1.96	1.05
40389	-1.001	0.097	0.216	-0.21	-1.96	1.47
40414	-0.999	0.101	0.219	-0.14	-2.31	1.68
40434	-0.998	0.1	0.216	0.0	-2.24	1.61
40454	-0.996	0.105	0.218	0.14	-2.17	1.61
40476	-0.998	0.102	0.219	0.14	-2.31	1.47
40497	-0.996	0.102	0.219	0.35	-2.17	1.4
40521	-0.997	0.102	0.217	0.35	-2.03	1.4
40539	-0.997	0.103	0.217	0.14	-2.03	1.33
40559	-0.999	0.102	0.217	0.21	-2.17	1.26
40583	-1.001	0.099	0.215	0.35	-2.45	1.47
40598	-1.001	0.099	0.216	0.35	-2.8	1.47
40623	-0.998	0.102	0.216	0.35	-2.8	1.68
40643	-0.996	0.103	0.216	0.42	-3.08	1.68
40663	-1.0	0.102	0.219	0.84	-3.29	1.82
40683	-0.998	0.102	0.219	0.84	-3.29	1.82
40704	-0.997	0.103	0.219	0.7	-3.22	1.54
40725	-0.995	0.106	0.221	0.21	-3.01	1.54
40747	-0.999	0.104	0.217	0.0	-2.94	1.47
40770	-0.996	0.104	0.222	0.07	-3.01	1.4
40791	-0.996	0.107	0.22	0.07	-3.01	1.26
40809	-0.996	0.106	0.22	-0.14	-2.8	1.19
40829	-0.997	0.105	0.219	-17.92	-2.87	1.26
40850	-0.998	0.103	0.221	0.0	-2.94	1.26
40869	-0.996	0.104	0.219	-0.35	-2.87	1.05
40894	-0.996	0.104	0.22	-0.28	-2.73	1.05
40914	-0.999	0.104	0.221	-0.28	-2.94	0.91
40930	-0.998	0.104	0.221	-0.42	-2.87	0.84
40950	-0.997	0.102	0.219	-0.21	-2.8	0.91
40974	-0.996	0.104	0.222	-0.42	-2.66	0.91
40992	-0.997	0.107	0.222	-0.63	-2.8	1.05
41011	-1.0	0.099	0.221	-0.56	-2.87	1.26
41033	-0.996	0.102	0.222	-0.35	-3.01	1.54
41053	-0.996	0.103	0.221	-0.42	-2.94	1.54
41073	-0.998	0.102	0.219	-0.42	-3.22	1.75
41094	-1.001	0.102	0.223	0.07	-3.43	1.82
41118	-0.996	0.106	0.225	0.0	-3.43	1.89
41138	-0.995	0.104	0.224	-0.14	-3.5	1.68
41157	-0.997	0.106	0.223	-0.21	-3.36	1.61
41177	-0.996	0.102	0.225	0.07	-3.36	1.47
41199	-0.996	0.106	0.226	0.07	-3.36	1.33
41218	-0.995	0.108	0.228	0.28	-3.36	1.33
41241	-0.996	0.107	0.228	0.14	-3.22	1.19
41262	-0.997	0.103	0.226	0.21	-3.29	1.12
41281	-0.993	0.106	0.228	0.21	-2.94	1.19
41304	-0.994	0.104	0.23	0.07	-2.66	1.05
41324	-0.995	0.102	0.226	0.07	-2.73	1.05
41345	-0.996	0.107	0.229	0.28	-2.59	1.12
41364	-0.996	0.106	0.227	0.28	-2.24	0.98
41389	-0.996	0.104	0.23	0.0	-2.24	0.91
41408	-0.996	0.105	0.228	0.0	-2.1	0.98
41432	-0.997	0.102	0.228	0.21	-2.17	1.12
41452	-0.996	0.103	0.225	0.49	-2.17	1.12
41471	-0.996	0.104	0.228	0.35	-1.96	0.98
41495	-0.994	0.106	0.23	0.35	-1.96	0.84
41515	-0.994	0.108	0.227	0.14	-1.89	0.63
41534	-0.998	0.104	0.226	0.21	-1.96	0.7
41554	-0.997	0.102	0.224	0.28	-2.03	0.77
41577	-0.996	0.102	0.226	0.35	-1.89	1.05
41598	-0.996	0.106	0.227	0.21	-2.03	1.12
41618	-0.995	0.103	0.225	0.21	-2.03	1.12
41637	-0.997	0.1	0.226	0.28	-2.1	1.33
41654	-0.996	0.104	0.228	0.07	-2.1	1.54
41674	-0.996	0.103	0.225	-0.14	-2.03	1.54
41697	-0.998	0.106	0.226	-0.49	-1.89	1.54
41722	-0.995	0.105	0.228	-0.35	-1.89	1.61
41741	-0.996	0.104	0.225	-0.35	-1.89	1.68
41760	-0.994	0.108	0.226	-0.28	-1.96	1.54
41781	-0.996	0.105	0.225	-0.49	-1.61	1.33
41801	-0.995	0.104	0.225	-0.42	-1.61	1.19
41820	-0.997	0.102	0.224	-0.21	-1.68	1.33
41836	-0.997	0.108	0.227	-0.21	-1.54	1.26
41861	-0.996	0.108	0.227	-0.7	-1.54	1.12
41881	-0.996	0.102	0.224	-0.91	-1.47	1.19
41901	-0.994	0.107	0.225	-0.56	-1.4	0.98
41921	-0.996	0.104	0.224	-0.49	-1.68	0.84
41940	-0.995	0.103	0.22	-0.28	-1.61	0.91
41959	-0.996	0.105	0.22	-0.14	-1.75	0.91
41979	-0.998	0.105	0.222	-0.21	-1.96	0.91
41998	-0.997	0.101	0.221	17.85	-2.1	1.33
42021	-1.002	0.102	0.224	0.21	-2.52	1.68
42039	-0.997	0.11	0.224	0.35	-2.59	1.61
42058	-0.998	0.101	0.222	-0.07	-2.73	1.75
42081	-0.997	0.105	0.225	0.28	-2.8	2.31
42100	-0.996	0.105	0.225	-0.21	-2.45	2.1
42125	-0.992	0.105	0.224	-0.07	-2.59	1.75
42145	-0.996	0.109	0.224	-0.14	-2.45	1.68
42168	-0.998	0.105	0.223	0.07	-2.59	1.75
42191	-0.996	0.108	0.224	0.42	-2.94	1.68
42209	-0.999	0.103	0.224	0.35	-2.87	1.68
42228	-0.994	0.107	0.225	0.21	-2.8	1.89
42253	-0.995	0.106	0.225	0.07	-2.73	1.89
42272	-0.997	0.109	0.224	0.14	-2.66	1.96
42293	-0.996	0.108	0.228	0.07	-2.45	1.75
42312	-0.993	0.11	0.228	-0.07	-2.24	1.47
42331	-0.995	0.113	0.229	-0.21	-1.96	1.33
42350	-0.994	0.11	0.226	-0.56	-1.68	1.05
42374	-0.996	0.109	0.225	-0.77	-1.47	0.84
42395	-0.997	0.11	0.226	-0.91	-1.19	0.77
42413	-0.995	0.111	0.226	-1.19	-0.84	0.7
42432	-0.996	0.109	0.225	-1.47	-0.7	0.56
42451	-0.996	0.106	0.222	-1.26	-0.63	0.63
42474	-0.997	0.107	0.221	-1.12	-0.7	0.49
42497	-0.997	0.106	0.223	-0.84	-0.7	0.56
42518	-0.998	0.107	0.224	-0.77	-0.56	0.56
42537	-0.995	0.108	0.224	-1.05	-0.42	0.42
42562	-0.998	0.106	0.22	-1.05	-0.63	0.28
42580	-0.997	0.104	0.22	-0.56	-0.42	0.49
42600	-0.996	0.102	0.221	-0.63	-0.35	0.35
42622	-0.997	0.104	0.219	-0.84	-0.42	0.49
42644	-0.998	0.103	0.217	-1.26	-0.42	0.56
42668	-0.999	0.106	0.214	-0.84	-0.63	0.63
42688	-0.996	0.104	0.215	-0.77	-0.7	0.42
42704	-0.998	0.101	0.213	-0.7	-0.77	0.49
42724	-0.998	0.104	0.217	-0.35	-0.84	0.63
42748	-0.999	0.103	0.213	-0.35	-1.12	0.84
42768	-0.998	0.101	0.214	-0.28	-1.19	0.84
42788	-0.997	0.103	0.216	0.21	-1.47	0.98
42808	-0.998	0.106	0.213	-0.21	-1.12	0.56
42828	-0.996	0.107	0.216	-0.49	-0.77	0.07
42848	-1.0	0.105	0.213	-0.42	-0.84	-0.21
42868	-0.994	0.103	0.208	-0.07	-0.07	-0.42
42888	-0.997	0.103	0.212	-0.21	-0.84	-0.35
42903	-1.003	0.101	0.211	-0.35	-1.19	-0.14
42923	-1.003	0.097	0.207	-0.49	-1.26	0.07
42943	-0.875	0.099	0.207	-0.21	-1.54	0.49
42967	-1.003	0.098	0.21	0.0	-1.89	0.7
42988	-1.0	0.097	0.208	0.35	-2.17	0.91
43008	-0.997	0.098	0.21	0.0	-2.1	0.91
43023	-1.0	0.1	0.213	0.07	-2.1	0.77
43048	-0.998	0.101	0.211	0.21	-2.03	0.77
43063	-0.999	0.1	0.21	-0.07	-1.96	0.7
43083	-0.999	0.101	0.21	-0.07	-2.03	0.7
43105	-1.0	0.098	0.207	-0.21	-2.1	0.84
43127	-1.001	0.099	0.207	0.0	-2.31	0.91
43146	-1.003	0.099	0.209	0.21	-2.45	1.12
43171	-1.001	0.101	0.206	0.28	-2.59	1.12
43191	-1.0	0.099	0.209	0.35	-2.73	1.12
43211	-0.999	0.101	0.21	0.07	-2.66	1.05
43231	-0.998	0.101	0.212	0.35	-2.59	0.98
43252	-0.999	0.1	0.211	0.14	-2.45	0.98
43272	-0.997	0.1	0.211	-0.07	-2.45	1.05
43296	-0.999	0.098	0.213	0.0	-2.45	1.05
43316	-0.997	0.102	0.211	-0.28	-2.31	0.98
43336	-0.998	0.101	0.213	-0.35	-2.31	0.98
43355	-0.999	0.101	0.214	-0.14	-2.24	0.98
43374	-0.998	0.099	0.212	-0.35	-2.24	0.98
43397	-0.999	0.1	0.212	-0.21	-2.38	1.12
43417	-0.997	0.099	0.212	-0.14	-2.45	1.12
43441	-1.001	0.098	0.212	-0.21	-2.52	1.19
43461	-0.999	0.1	0.214	-0.07	-2.45	1.19
43479	-1.0	0.101	0.211	-0.07	-2.52	1.19
43497	-1.0	0.098	0.209	0.0	-2.66	1.12
43516	-0.998	0.101	0.209	0.07	-2.73	1.26
43541	-1.001	0.097	0.21	-0.07	-3.08	1.47
43559	-1.003	0.098	0.21	-0.14	-3.29	1.54
43578	-0.999	0.099	0.211	0.0	-3.5	1.89
43602	-1.001	0.096	0.214	0.42	-3.92	2.1
43621	-1.002	0.102	0.213	0.14	-3.78	2.1
43644	-0.995	0.103	0.214	0.49	-3.99	2.1
43668	-0.999	0.101	0.215	0.21	-4.2	1.96
43684	-0.999	0.097	0.215	0.7	-4.34	2.03
43707	-0.999	0.102	0.215	0.77	-4.41	2.1
43728	-0.994	0.104	0.219	0.63	-4.2	1.89
43744	-0.996	0.104	0.217	0.21	-4.13	1.96
43768	-0.999	0.1	0.217	0.42	-4.41	2.03
43788	-0.996	0.102	0.219	0.91	-4.55	2.24
43804	-0.997	0.104	0.22	0.84	-4.55	1.96
43824	-0.998	0.106	0.223	0.91	-4.34	1.96
43843	-0.994	0.103	0.224	0.49	-3.78	1.68
43868	-0.996	0.105	0.226	0.56	-3.43	1.47
43888	-0.996	0.108	0.225	0.07	-3.01	1.19
43908	-0.996	0.108	0.22	-0.07	-2.8	0.91
43924	-0.997	0.103	0.224	-0.07	-2.87	1.05
43948	-0.996	0.103	0.221	-0.21	-2.87	1.19
43968	-0.997	0.105	0.222	0.0	-3.01	1.19
43988	-0.996	0.1	0.222	0.21	-3.15	1.4
44006	-0.998	0.106	0.223	0.14	-3.22	1.54
44028	-0.995	0.105	0.224	-0.07	-3.01	1.4
44051	-0.997	0.105	0.224	-0.28	-3.08	1.33
44072	-0.995	0.107	0.223	-0.07	-2.94	1.19
44092	-0.998	0.104	0.225	0.07	-3.08	1.05
44111	-0.999	0.104	0.225	0.42	-3.15	1.05
44131	-0.996	0.104	0.225	0.63	-3.01	1.05
44151	-0.996	0.107	0.226	0.56	-3.08	0.98
44172	-0.998	0.102	0.225	0.63	-3.01	0.98
44196	-0.998	0.106	0.227	0.77	-3.08	1.26
44215	-0.995	0.107	0.228	0.49	-2.8	1.12
44234	-0.996	0.105	0.227	0.21	-2.8	1.26
44256	-0.997	0.105	0.228	0.28	-2.8	1.12
44278	-0.994	0.108	0.227	0.07	-2.45	0.98
44297	-0.995	0.108	0.23	-0.14	-2.38	0.84
44319	-0.994	0.111	0.226	-0.35	-2.17	0.49
44339	-0.996	0.103	0.225	-0.28	-2.31	0.49
44363	-0.997	0.104	0.226	-0.07	-2.52	0.84
44383	-0.996	0.106	0.226	0.07	-2.45	0.91
44403	-0.998	0.107	0.227	-0.07	-2.66	0.98
44421	-1.001	0.099	0.227	0.07	-2.8	1.4
44445	-0.989	0.104	0.229	0.21	-2.8	1.68
44464	-0.997	0.103	0.228	0.07	-2.94	1.89
44489	-0.996	0.101	0.23	-0.28	-2.8	2.03
44509	-0.991	0.111	0.231	0.21	-2.66	1.82
44527	-0.996	0.107	0.232	0.0	-2.59	1.75
44548	-0.991	0.108	0.231	-0.28	-2.17	1.47
44569	-0.994	0.107	0.23	-0.49	-2.03	1.26
44588	-0.997	0.106	0.23	-0.42	-2.03	1.05
44608	-0.995	0.106	0.229	-0.35	-1.89	0.77
44628	-0.996	0.107	0.227	-0.63	-1.75	0.7
44645	-0.995	0.108	0.227	-0.35	-1.68	0.56
44668	-0.995	0.102	0.228	-0.49	-1.47	0.21
44688	-0.994	0.106	0.227	-0.28	-1.75	0.07
44712	-0.997	0.105	0.226	-0.07	-1.89	-0.14
44730	-0.996	0.104	0.228	0.07	-1.75	0.0
44752	-0.997	0.101	0.225	0.21	-1.89	0.35
44775	-0.997	0.106	0.228	0.07	-1.89	0.56
44796	-0.995	0.106	0.23	-0.14	-1.75	0.49
44816	-0.994	0.103	0.227	-0.35	-1.68	0.35
44835	-0.996	0.1	0.224	-0.21	-1.89	0.42
44855	-0.996	0.105	0.229	-0.14	-1.75	0.28
44879	-0.996	0.106	0.229	-0.56	-1.19	-0.07
44899	-0.995	0.105	0.225	-0.91	-0.77	-0.07
44914	-0.998	0.101	0.224	-0.77	-1.05	0.14
44934	-0.996	0.105	0.224	-0.77	-0.91	0.07
44954	-0.999	0.097	0.223	-1.26	-0.91	0.28
44974	-0.999	0.098	0.222	-1.12	-0.98	0.49
44999	-0.996	0.101	0.224	-1.26	-0.98	0.91
45018	-0.999	0.096	0.223	-1.12	-1.12	1.19
45037	-0.998	0.101	0.224	-0.84	-1.33	1.19
45057	-0.997	0.102	0.224	-0.56	-1.33	1.12
45082	-0.996	0.102	0.223	-0.98	-0.91	1.19
45102	-0.996	0.101	0.225	-0.7	-1.26	1.19
45122	-0.996	0.102	0.221	-0.91	-0.91	0.91
45142	-0.998	0.097	0.218	-0.98	-0.84	0.84
45161	-1.001	0.097	0.219	-0.42	-1.26	0.98
45185	-1.001	0.097	0.219	0.0	-1.68	1.12
45203	-0.999	0.098	0.218	0.21	-1.82	1.26
45224	-1.003	0.098	0.22	0.28	-2.1	1.4
45248	-0.998	0.1	0.219	0.49	-2.17	1.4
45268	-0.998	0.1	0.218	0.42	-2.45	1.26
45283	-0.998	0.1	0.219	0.63	-2.45	1.19
45303	-0.999	0.1	0.22	0.49	-2.38	1.33
45327	-0.996	0.101	0.221	0.42	-2.31	1.26
45348	-0.996	0.1	0.22	0.14	-2.45	1.26
45368	-0.999	0.099	0.219	0.21	-2.59	1.4
45387	-0.997	0.1	0.219	0.21	-2.73	1.61
45408	-0.998	0.101	0.22	0.21	-2.73	1.61
45428	-0.996	0.102	0.222	0.14	-2.87	1.54
45448	-0.997	0.102	0.22	0.14	-2.73	1.54
45468	-0.999	0.101	0.221	0.07	-2.73	1.4
45487	-0.998	0.103	0.22	0.21	-2.8	1.33
45508	-0.996	0.102	0.222	0.14	-2.73	1.26
45523	-0.998	0.1	0.224	0.14	-2.73	1.33
45548	-0.996	0.097	0.222	0.07	-2.8	1.47
45568	-0.999	0.099	0.22	-0.21	-2.59	1.47
45586	-0.996	0.101	0.224	0.07	-2.52	1.75
45610	-0.997	0.102	0.22	0.14	-2.73	1.75
45630	-0.999	0.101	0.221	0.0	-2.59	1.89
45650	-0.998	0.101	0.221	0.07	-2.59	1.89
45670	-0.997	0.105	0.224	-0.14	-2.52	1.96
45688	-0.997	0.105	0.222	-0.35	-2.45	2.03
45712	-0.997	0.102	0.221	0.14	-2.8	1.96
45731	-0.996	0.105	0.218	-0.07	-3.01	2.1
45750	-0.997	0.101	0.22	-0.07	-3.36	2.38
45767	-0.998	0.104	0.222	-0.07	-3.43	2.45
45787	-0.998	0.104	0.221	-0.07	-3.43	2.31
45812	-0.998	0.106	0.222	0.07	-3.71	2.45
45832	-0.996	0.105	0.222	0.35	-3.78	2.1
45850	-0.993	0.108	0.226	0.07	-3.43	1.89
45871	-0.996	0.108	0.229	-0.14	-3.43	1.82
45892	-0.996	0.107	0.226	-0.14	-3.15	1.89
45912	-0.995	0.108	0.227	-0.07	-2.87	1.89
45932	-0.996	0.106	0.228	-0.28	-2.8	1.89
45956	-0.996	0.108	0.227	-0.14	-2.66	2.03
45975	-0.993	0.108	0.228	-0.28	-2.52	2.03
45996	-0.995	0.106	0.229	-0.14	-2.52	2.24
46012	-0.996	0.11	0.228	-0.14	-2.38	2.03
46031	-0.994	0.109	0.228	-0.14	-2.38	2.17
46055	-0.995	0.108	0.227	0.14	-2.52	2.17
46075	-0.996	0.111	0.228	0.0	-2.17	1.96
46099	-0.995	0.11	0.229	-0.14	-1.96	1.61
46118	-0.996	0.11	0.228	-0.14	-1.89	1.4
46139	-0.996	0.112	0.226	-0.28	-1.61	1.12
46163	-0.996	0.111	0.227	-0.35	-1.75	1.05
46183	-0.996	0.113	0.229	-0.28	-1.68	0.91
46200	-0.996	0.109	0.231	-0.56	-1.4	1.05
46220	-0.994	0.111	0.222	-0.28	-1.05	0.84
46239	-0.997	0.107	0.224	-0.42	-1.47	1.05
46263	-0.997	0.109	0.227	0.0	-1.61	1.26
46284	-0.996	0.11	0.227	-0.35	-1.68	1.19
46304	-0.997	0.111	0.224	-0.21	-1.75	1.19
46323	-0.997	0.106	0.222	0.0	-1.61	1.26
46344	-0.997	0.105	0.223	0.42	-1.82	1.4
46364	-0.997	0.109	0.222	0.21	-2.17	1.4
46384	-0.998	0.108	0.223	0.63	-2.52	1.61
46404	-0.999	0.107	0.225	0.7	-2.73	1.68
46423	-0.996	0.112	0.224	0.21	-2.59	1.68
46447	-0.997	0.106	0.222	0.77	-2.73	1.68
46467	-0.994	0.111	0.225	0.77	-2.87	1.75
46486	-0.995	0.116	0.228	0.56	-2.66	1.61
46502	-0.996	0.11	0.225	0.28	-2.52	1.33
46522	-0.995	0.111	0.226	0.14	-2.31	1.26
46546	-0.996	0.111	0.224	0.35	-2.38	1.12
46564	-0.996	0.11	0.223	0.28	-2.31	1.05
46584	-0.996	0.115	0.226	0.21	-2.45	0.98
46608	-0.996	0.113	0.226	0.21	-2.66	1.19
46628	-0.995	0.114	0.225	0.14	-2.73	1.4
46648	-0.996	0.111	0.227	0.0	-2.73	1.54
46668	-0.998	0.108	0.223	0.42	-3.08	1.75
46688	-0.997	0.11	0.224	0.35	-3.01	1.96
46712	-0.995	0.114	0.228	0.42	-3.08	2.03
46731	-0.994	0.115	0.227	0.07	-3.01	1.82
46752	-0.995	0.114	0.229	0.14	-2.94	1.82
46772	-0.994	0.111	0.23	0.42	-2.73	1.82
46792	-0.993	0.117	0.23	-0.28	-2.45	1.47
46810	-0.994	0.116	0.23	-0.35	-2.1	1.19
46834	-0.994	0.116	0.23	-0.35	-1.96	0.84
46853	-0.995	0.114	0.228	-0.56	-1.75	0.7
46874	-0.995	0.114	0.227	-0.98	-1.54	0.42
46893	-0.996	0.113	0.229	-1.05	-1.4	0.49
46912	-0.996	0.112	0.225	-0.77	-1.33	0.56
46936	-0.996	0.113	0.224	-0.77	-1.4	0.42
46957	-0.996	0.111	0.226	-0.77	-1.4	0.56
46977	-0.996	0.112	0.227	-0.77	-1.47	0.56
46997	-0.994	0.11	0.226	-0.98	-1.19	0.56
47017	-0.995	0.112	0.226	-0.91	-0.98	0.42
47041	-0.996	0.109	0.223	-0.91	-0.98	0.35
47061	-0.997	0.108	0.224	-0.56	-1.12	0.42
47081	-0.993	0.114	0.225	-0.49	-0.98	0.21
47100	-0.996	0.113	0.224	-0.98	-0.84	-0.07
47121	-0.993	0.111	0.225	-0.98	-0.35	-0.14
47141	-0.996	0.112	0.224	-1.05	-0.28	-0.14
47160	-0.997	0.108	0.221	-0.98	-0.35	-0.21
47180	-0.996	0.109	0.219	-0.91	-0.28	-0.14
47199	-0.996	0.105	0.221	-0.91	-0.49	0.21
47219	-0.999	0.101	0.219	-0.7	-0.63	0.63
47243	-0.997	0.107	0.216	-0.91	-0.63	0.77
47267	-0.998	0.107	0.217	-1.33	-0.84	0.91
47287	-0.998	0.104	0.216	-0.98	-0.98	0.98
47306	-1.001	0.106	0.214	-0.7	-1.12	0.91
47325	-0.995	0.109	0.213	-0.63	-1.33	0.84
47349	-0.995	0.106	0.216	-0.63	-1.47	0.7
47369	-1.0	0.104	0.216	-0.35	-1.89	0.63
47389	-0.998	0.106	0.219	-0.07	-1.89	0.42
47409	-0.997	0.106	0.217	-0.14	-1.82	0.35
47429	-0.996	0.108	0.216	-0.21	-1.82	0.28
47449	-0.998	0.104	0.217	-0.35	-1.61	0.07
47469	-0.998	0.104	0.215	-0.42	-1.89	-17.92
47493	-0.999	0.102	0.215	-0.35	-2.1	0.0
47517	-1.0	0.101	0.215	-0.14	-2.03	0.28
47537	-0.997	0.103	0.214	-0.14	-2.31	0.28
47557	-0.997	0.102	0.218	-0.14	-2.17	0.49
47577	-0.999	0.102	0.216	-0.21	-2.24	0.56
47596	-0.996	0.103	0.22	-0.07	-2.31	0.56
47619	-0.997	0.102	0.216	0.0	-2.24	0.63
47643	-0.998	0.101	0.216	0.0	-2.17	0.56
47663	-0.996	0.101	0.214	0.0	-2.03	0.84
47681	-0.999	0.099	0.217	0.0	-2.17	0.84
47701	-0.999	0.101	0.216	0.07	-2.24	0.84
47721	-0.999	0.102	0.214	0.07	-2.38	0.98
47745	-1.0	0.1	0.214	0.21	-2.52	1.19
47765	-0.999	0.102	0.217	0.35	-2.59	1.47
47785	-0.998	0.102	0.217	0.28	-2.59	1.54
47802	-0.996	0.102	0.216	0.35	-2.73	1.75
47826	-0.999	0.103	0.219	0.28	-2.73	1.75
47846	-0.999	0.103	0.214	0.14	-3.01	1.82
47862	-1.001	0.102	0.213	0.42	-3.22	2.03
47886	-1.0	0.099	0.213	0.63	-3.78	2.52
47906	-1.002	0.103	0.213	0.7	-4.34	2.8
47926	-1.001	0.107	0.217	0.35	-4.76	2.94
47945	-0.997	0.105	0.218	0.98	-4.97	3.08
47965	-0.995	0.107	0.22	0.77	-4.97	3.08
47988	-1.0	0.107	0.223	0.91	-5.39	3.43
48012	-0.996	0.11	0.225	0.84	-4.97	3.15
48036	-0.991	0.112	0.226	0.42	-4.48	2.52
48056	-0.994	0.11	0.228	0.42	-4.34	2.31
48074	-0.995	0.109	0.226	0.56	-4.13	2.24
48096	-0.995	0.111	0.226	0.35	-4.13	2.1
48120	-0.99	0.114	0.227	0.42	-3.99	2.03
48140	-0.994	0.112	0.228	0.35	-3.85	1.89
48160	-0.996	0.114	0.232	0.49	-3.29	1.61
48178	-0.993	0.118	0.233	-0.07	-2.8	1.12
48200	-0.994	0.115	0.235	-0.56	-1.96	0.77
48219	-0.994	0.113	0.232	-0.49	-1.61	0.42
48244	-0.996	0.111	0.232	-0.49	-1.26	0.0
48264	-0.991	0.11	0.228	-0.84	-0.7	-0.21
48282	-0.996	0.108	0.228	-0.77	-0.91	-0.07
48306	-0.995	0.109	0.227	-0.98	-0.56	-0.07
48326	-0.996	0.109	0.226	-1.05	-0.42	-0.07
48346	-0.996	0.107	0.224	-0.84	-0.35	-0.14
48361	-1.001	0.108	0.227	-0.77	-0.42	-0.21
48381	-0.997	0.109	0.224	-0.63	-0.14	-0.49
48406	-0.999	0.108	0.223	-0.49	-0.14	-0.77
48426	-0.998	0.107	0.223	-0.28	0.0	-0.84
48446	-0.999	0.106	0.222	-1.05	0.14	-0.91
48464	-0.996	0.107	0.22	-0.84	0.35	-0.98
48488	-0.996	0.103	0.216	-0.7	-0.21	-1.05
48506	-0.997	0.103	0.216	-0.63	-0.14	-1.12
48528	-1.0	0.1	0.211	-0.49	-0.84	-0.56
48547	-0.999	0.1	0.212	-0.42	-1.54	-0.21
48572	-1.001	0.098	0.21	-0.07	-2.1	0.42
48592	-1.002	0.096	0.214	0.21	-2.59	0.98
48608	-1.0	0.101	0.214	0.21	-2.87	1.12
48632	-0.999	0.098	0.216	0.49	-3.22	1.4
48651	-0.999	0.099	0.216	0.42	-3.36	1.61
48672	-0.997	0.104	0.218	0.49	-3.57	1.61
48692	-0.997	0.1	0.218	0.63	-3.64	1.82
48710	-0.999	0.1	0.219	0.84	-3.64	1.82
48733	-0.997	0.105	0.22	0.7	-3.43	1.82
48754	-0.996	0.105	0.222	0.42	-3.57	1.75
48773	-0.996	0.102	0.223	0.49	-3.5	1.75
48796	-0.996	0.105	0.222	0.21	-3.36	1.96
48820	-0.997	0.106	0.222	-0.14	-3.08	1.89
48840	-0.999	0.101	0.221	-0.07	-3.29	1.89
48856	-0.996	0.101	0.223	0.0	-3.29	2.03
48880	-0.998	0.103	0.223	0.28	-3.08	1.96
48898	-0.998	0.102	0.226	0.28	-3.15	1.96
48918	-0.994	0.108	0.225	0.14	-2.87	1.89
48938	-0.994	0.108	0.227	0.0	-2.59	1.68
48962	-0.996	0.108	0.224	-0.35	-2.24	1.54
48980	-0.995	0.106	0.228	-0.56	-1.96	1.54
49002	-0.996	0.108	0.225	-0.63	-1.75	1.4
49020	-0.997	0.105	0.224	-0.77	-1.47	1.26
49043	-0.996	0.108	0.222	-0.91	-1.33	1.05
49059	-0.995	0.104	0.223	-0.77	-1.26	1.12
49079	-0.998	0.105	0.223	-0.7	-1.19	1.05
49104	-0.994	0.106	0.224	-0.56	-1.4	0.91
49119	-0.997	0.105	0.223	-0.56	-1.05	0.84
49139	-0.996	0.102	0.224	-0.49	-0.98	0.84
49164	-0.996	0.105	0.22	-0.42	-1.05	0.7
49187	-0.995	0.105	0.221	-0.49	-0.98	0.77
49204	-0.996	0.108	0.224	-0.49	-0.56	0.63
49225	-0.998	0.106	0.22	-0.7	-0.42	0.07
49243	-0.997	0.102	0.22	-0.7	-0.42	-0.14
49268	-0.995	0.108	0.221	-0.98	0.0	-0.49
49288	-0.998	0.1	0.22	-1.12	0.0	-0.49
49306	-0.994	0.101	0.216	-1.26	0.07	-0.35
49330	-0.998	0.102	0.215	-0.91	-17.85	-0.21
49345	-1.002	0.099	0.216	-0.7	-0.07	-0.21
49370	-0.996	0.1	0.212	-0.56	-0.49	-0.07
49390	-1.001	0.097	0.207	-0.56	-0.77	0.07
49409	-1.001	0.097	0.209	-0.14	-1.26	0.42
49429	-1.0	0.097	0.21	-0.07	-1.68	0.77
49448	-0.999	0.099	0.212	-0.07	-1.75	1.05
49474	-1.001	0.099	0.216	-0.21	-1.96	1.33
49488	-0.998	0.1	0.211	-0.35	-1.75	1.26
49513	-0.999	0.101	0.211	0.0	-1.68	1.19
49533	-1.001	0.096	0.21	0.0	-2.24	1.26
49553	-1.002	0.098	0.21	-0.07	-2.52	1.47
49572	-1.002	0.1	0.21	0.0	-2.52	1.68
49594	-0.999	0.101	0.212	-0.07	-2.8	1.89
49615	-1.0	0.098	0.21	-0.07	-3.08	2.17
49637	-1.0	0.1	0.211	0.07	-3.36	2.24
49661	-1.0	0.103	0.214	0.21	-3.22	2.17
49681	-0.997	0.101	0.217	0.21	-3.36	2.03
49700	-0.999	0.104	0.215	0.07	-3.08	1.96
49716	-0.875	0.104	0.213	0.0	-3.01	1.89
49736	-0.998	0.103	0.215	0.07	-2.87	1.75
49756	-0.998	0.102	0.215	0.0	-2.87	1.82
49781	-0.999	0.1	0.215	-0.14	-2.73	1.96
49801	-1.0	0.101	0.213	0.14	-2.8	2.1
49821	-0.997	0.105	0.214	0.21	-2.94	2.1
49841	-0.997	0.102	0.214	0.14	-3.01	2.03
49861	-0.998	0.102	0.215	0.49	-3.15	2.1
49880	-1.0	0.104	0.218	0.49	-3.15	2.24
49900	-0.998	0.104	0.216	0.56	-3.08	2.17
49920	-0.996	0.107	0.216	0.28	-2.73	2.1
49939	-0.998	0.108	0.219	0.14	-2.94	2.17
49964	-0.997	0.103	0.216	0.21	-2.73	2.17
49983	-0.997	0.104	0.215	0.0	-3.15	2.17
50003	-1.001	0.108	0.212	0.28	-3.57	2.59
50019	-0.999	0.102	0.211	0.49	-4.06	3.01
50044	-0.998	0.105	0.218	0.49	-4.41	3.29
50064	-0.996	0.11	0.216	0.7	-4.76	3.22
50084	-0.998	0.105	0.216	0.77	-4.83	3.22
50101	-0.997	0.11	0.224	1.33	-5.39	3.22
50121	-0.994	0.119	0.225	1.12	-4.97	2.94
50145	-0.993	0.114	0.225	0.21	-4.62	2.66
50165	-0.997	0.113	0.222	0.21	-4.55	2.52
50181	-0.995	0.117	0.224	-0.07	-4.41	2.66
50203	-0.996	0.113	0.228	0.28	-4.13	2.24
50221	-0.992	0.113	0.23	0.35	-4.13	2.1
50245	-0.993	0.119	0.231	-0.07	-3.71	1.89
50265	-0.994	0.117	0.228	-0.21	-3.08	1.61
50284	-0.994	0.118	0.227	-0.14	-2.94	1.19
50304	-0.995	0.115	0.228	0.0	-2.87	0.84
50323	-0.995	0.114	0.228	0.0	-2.8	0.56
50348	-0.996	0.117	0.227	0.7	-2.45	0.21
50367	-0.998	0.105	0.219	6.44	-2.52	0.21
50387	-0.992	0.132	0.239	15.26	-2.87	-0.35
50411	-0.994	0.124	0.233	7.91	-1.75	-0.42
50431	-0.99	0.117	0.227	4.27	-1.47	-0.35
50448	-0.996	0.118	0.233	2.17	-1.68	-0.07
50468	-0.988	0.111	0.228	0.21	-0.84	-0.28
50492	-0.994	0.117	0.229	-1.54	-1.05	-0.56
50512	-0.996	0.111	0.225	-1.96	-1.05	-0.49
50529	-0.995	0.117	0.225	-2.66	-1.19	-0.35
50549	-0.996	0.119	0.228	-3.92	-1.05	-0.56
50573	-0.999	0.108	0.221	-5.11	-0.91	-0.35
50597	-0.996	0.105	0.218	-6.16	-1.12	-0.14
50617	-1.002	0.103	0.22	-5.04	-1.68	0.21
50635	-0.997	0.106	0.224	-4.48	-1.54	0.42
50659	-0.996	0.11	0.223	-3.99	-1.89	0.7
50677	-0.998	0.103	0.225	-3.64	-2.1	1.19
50698	-0.995	0.102	0.216	-2.38	-2.24	1.4
50719	-1.001	0.103	0.22	-1.4	-2.94	1.82
50739	-0.997	0.107	0.224	-0.63	-3.08	1.68
50758	-0.995	0.109	0.224	-0.42	-3.08	1.61
50777	-0.997	0.106	0.224	-0.07	-3.15	1.61
50797	-0.996	0.113	0.227	-0.07	-3.29	1.61
50821	-0.996	0.113	0.228	0.42	-3.29	1.19
50840	-0.998	0.102	0.226	0.56	-3.29	1.19
50860	-0.993	0.11	0.228	0.77	-3.64	1.54
50880	-0.998	0.104	0.221	1.61	-3.29	1.4
50903	-0.997	0.105	0.223	0.84	-3.92	2.17
50921	-0.995	0.109	0.227	0.49	-4.06	2.1
50944	-0.996	0.107	0.229	0.91	-4.13	2.73
50964	-0.997	0.106	0.229	1.75	-4.83	3.08
50983	-0.996	0.114	0.232	1.05	-4.62	3.22
51000	-0.993	0.108	0.233	1.05	-4.2	3.5
51020	-0.997	0.111	0.23	0.91	-4.69	3.57
51043	-0.993	0.116	0.235	1.05	-4.13	3.22
51067	-0.992	0.115	0.235	0.7	-4.06	2.94
51086	-0.992	0.114	0.235	0.7	-3.92	2.8
51106	-1.008	0.121	0.237	0.98	-4.2	2.94
51130	-0.992	0.115	0.239	0.49	-3.08	2.66
51151	-0.992	0.122	0.237	0.0	-3.15	2.17
51171	-0.994	0.116	0.24	0.35	-2.52	2.03
51188	-0.994	0.12	0.241	-0.07	-2.52	1.82
51208	-0.987	0.122	0.235	-0.84	-1.75	1.47
51231	-0.991	0.121	0.237	-0.91	-1.75	0.98
51250	-0.992	0.118	0.236	-0.7	-1.4	0.77
51272	-0.99	0.119	0.235	-1.26	-0.84	0.56
51292	-0.994	0.122	0.237	-1.61	-1.12	0.35
51311	-0.992	0.116	0.233	-1.75	-0.49	-0.07
51336	-0.994	0.117	0.236	-1.82	-0.56	-0.14
51355	-0.993	0.117	0.234	-1.33	-0.56	-0.28
51376	-0.996	0.115	0.231	-1.4	-0.42	-0.35
51395	-0.992	0.115	0.232	-1.47	-0.14	-0.35
51419	-0.995	0.114	0.23	-1.26	-0.21	-0.49
51439	-0.996	0.112	0.228	-0.84	-0.28	-0.42
51459	-0.995	0.116	0.225	-0.63	-0.42	-0.42
51478	-0.994	0.111	0.224	-0.77	-0.56	0.0
51496	-1.0	0.106	0.226	-0.56	-0.77	0.35
51520	-0.996	0.109	0.228	0.21	-0.91	0.63
51540	-0.995	0.109	0.227	-0.14	-1.05	0.91
51559	-0.998	0.111	0.228	0.0	-1.19	1.05
51583	-0.997	0.108	0.224	-0.21	-1.33	1.26
51602	-0.991	0.114	0.23	-0.21	-1.05	1.19
51623	-1.004	0.108	0.224	0.63	-1.75	1.33
51641	-0.992	0.114	0.224	-0.21	-0.98	0.84
51665	-0.994	0.113	0.224	-0.49	-1.05	0.7
51685	-0.993	0.113	0.227	-0.07	-1.12	0.77
51704	-0.995	0.113	0.226	-0.35	-1.05	0.42
51725	-0.996	0.11	0.222	-0.56	-0.84	0.28
51748	-0.997	0.112	0.222	-0.63	-0.63	0.21
51769	-0.997	0.11	0.219	-0.7	-0.77	0.14
51788	-0.999	0.107	0.221	-0.42	-1.05	0.35
51812	-0.999	0.108	0.22	-0.21	-1.33	0.28
51831	-0.998	0.112	0.221	-0.49	-1.19	0.28
51851	-0.996	0.105	0.223	-0.42	-1.4	0.35
51870	-0.996	0.106	0.22	-0.35	-1.4	0.35
51895	-0.996	0.11	0.221	-0.49	-1.61	0.49
51915	-1.0	0.106	0.217	-0.28	-1.61	0.56
51932	-0.998	0.104	0.22	-0.21	-1.75	0.56
51956	-0.997	0.108	0.22	0.07	-1.82	0.49
51975	-0.998	0.108	0.219	-0.07	-1.68	0.49
51996	-0.995	0.107	0.22	0.21	-1.68	0.7
52016	-0.997	0.11	0.218	-0.07	-1.61	0.56
52036	-0.996	0.105	0.216	-0.28	-1.75	0.56
52054	-0.997	0.105	0.217	0.07	-1.75	0.7
52074	-0.999	0.107	0.22	0.0	-1.96	0.91
52094	-0.998	0.107	0.219	-0.42	-1.89	0.84
52117	-0.996	0.106	0.22	-0.49	-2.03	0.77
52137	-0.996	0.107	0.216	-0.28	-2.17	0.91
52158	-0.998	0.108	0.214	-0.56	-2.24	0.98
52182	-0.997	0.104	0.216	-0.35	-2.73	1.19
52202	-0.996	0.106	0.218	0.0	-3.08	1.33
52221	-0.999	0.104	0.219	0.14	-3.29	1.26
52240	-0.996	0.107	0.221	0.28	-3.36	1.19
52265	-0.998	0.103	0.22	0.56	-3.64	1.4
52285	-0.998	0.105	0.221	0.63	-3.64	1.54
52305	-0.998	0.106	0.218	0.56	-3.71	1.54
52325	-0.997	0.107	0.223	0.49	-3.64	1.4
52345	-0.996	0.11	0.225	0.84	-3.64	1.47
52365	-0.997	0.107	0.225	0.28	-3.29	1.19
52386	-0.996	0.108	0.222	0.0	-2.94	1.12
52407	-0.993	0.108	0.224	-0.07	-2.94	1.05
52431	-0.995	0.108	0.222	-0.21	-2.8	0.98
52451	-0.996	0.105	0.223	0.0	-2.73	0.84
52471	-0.995	0.111	0.226	-0.14	-2.45	0.77
52495	-0.993	0.11	0.225	-0.56	-1.96	0.42
52512	-0.999	0.108	0.224	-0.56	-1.82	0.28
52530	-0.998	0.101	0.224	-0.28	-1.75	0.28
52554	-0.995	0.105	0.223	0.07	-1.89	0.35
52575	-0.995	0.11	0.227	-0.14	-1.75	0.21
52595	-0.996	0.108	0.224	-0.49	-1.4	-0.14
52619	-0.998	0.101	0.222	-0.56	-1.54	0.0
52634	-0.998	0.101	0.221	-0.21	-1.47	0.14
52658	-0.995	0.103	0.223	-0.14	-1.54	0.07
52674	-0.996	0.106	0.222	-0.63	-1.26	0.14
52699	-0.996	0.106	0.224	-1.05	-1.26	0.07
52719	-0.998	0.101	0.221	-1.19	-1.19	0.0
52737	-1.0	0.1	0.216	-1.19	-1.4	0.21
52761	-0.999	0.101	0.217	-0.21	-1.96	0.42
52779	-0.998	0.102	0.218	0.07	-2.1	0.7
52803	-0.999	0.101	0.218	-0.14	-2.24	0.63
52823	-0.998	0.102	0.221	0.14	-2.17	0.49
52842	-0.998	0.102	0.219	0.07	-2.31	0.56
52867	-1.0	0.1	0.22	0.42	-2.52	0.63
52883	-1.0	0.099	0.22	0.49	-2.66	0.84
52902	-0.996	0.101	0.22	0.49	-2.66	0.84
52926	-0.997	0.102	0.222	0.49	-2.52	0.77
52947	-0.996	0.104	0.221	0.42	-2.31	0.63
52965	-0.997	0.1	0.221	0.28	-2.45	0.56
52989	-0.995	0.101	0.222	0.21	-2.59	0.56
53009	-0.998	0.101	0.224	-17.92	-2.38	0.84
53027	-0.998	0.099	0.223	-0.35	-2.24	0.91
53044	-0.996	0.101	0.219	-0.84	-2.1	0.77
53069	-1.002	0.094	0.22	-0.56	-2.66	1.05
53088	-0.998	0.097	0.218	0.0	-2.73	1.4
53109	-0.998	0.101	0.221	-0.14	-2.66	1.54
53131	-0.999	0.096	0.222	-0.35	-2.52	1.61
53150	-0.996	0.1	0.224	-0.28	-2.59	1.47
53174	-0.997	0.102	0.222	-0.21	-2.45	1.19
53194	-1.0	0.099	0.222	-0.07	-2.24	1.05
53214	-0.998	0.099	0.222	-0.21	-2.03	0.7
53238	-0.996	0.102	0.224	-0.28	-1.75	0.35
53258	-0.997	0.099	0.222	-0.07	-1.68	0.21
53277	-0.998	0.097	0.224	-0.14	-1.4	-0.07
53297	-0.999	0.1	0.225	-0.28	-1.05	-0.28
53318	-0.995	0.102	0.226	-0.63	-0.84	-0.28
53338	-0.999	0.098	0.221	-0.7	-0.56	-0.42
53356	-0.998	0.099	0.222	-0.56	-0.56	-0.35
53376	-1.0	0.1	0.22	-0.49	-0.21	-0.56
53400	-0.996	0.094	0.221	-0.49	0.07	-0.49
53421	-0.998	0.095	0.217	-0.35	0.14	-0.49
53440	-0.996	0.097	0.215	-0.42	0.0	-0.35
53458	-0.997	0.092	0.214	-0.63	0.14	-0.07
53479	-0.996	0.093	0.214	-0.35	0.0	0.21
53500	-1.0	0.092	0.214	-0.91	0.07	0.35
53524	-0.997	0.092	0.212	-0.77	-0.07	0.56
53543	-1.002	0.092	0.213	-0.77	-0.21	0.63
53564	-0.998	0.092	0.211	-0.7	-0.07	0.63
53584	-0.875	0.089	0.212	-1.19	-0.21	0.56
53604	-1.0	0.094	0.209	-1.12	-0.07	0.49
53628	-1.004	0.091	0.208	-0.91	-0.49	0.63
53648	-1.002	0.092	0.205	-0.42	-0.56	0.56
53664	-1.0	0.092	0.204	-0.42	-0.77	0.63
53683	-1.005	0.091	0.206	-0.28	-0.91	0.7
53703	-1.002	0.089	0.206	-0.28	-1.12	0.77
53727	-1.002	0.089	0.206	-0.21	-1.33	0.77
53747	-1.004	0.089	0.204	-0.14	-1.68	0.91
53771	-1.004	0.088	0.202	0.07	-2.03	0.98
53795	-1.0	0.09	0.205	0.14	-2.03	0.91
53814	-1.001	0.092	0.205	-0.07	-1.96	1.05
53831	-1.0	0.095	0.207	-0.35	-2.1	1.05
53850	-1.004	0.088	0.204	0.0	-2.03	1.19
53870	-1.001	0.091	0.207	-0.07	-2.03	1.19
53891	-1.0	0.093	0.21	-0.14	-1.89	1.26
53914	-1.001	0.09	0.21	-0.56	-1.75	1.19
53937	-1.0	0.093	0.206	-0.77	-1.47	1.12
53958	-0.999	0.087	0.207	-0.63	-1.26	1.12
53976	-1.0	0.092	0.206	-0.63	-1.4	1.19
53999	-1.002	0.089	0.203	-0.63	-1.33	1.26
54018	-1.002	0.09	0.203	-0.42	-1.47	1.4
54040	-1.003	0.091	0.203	-0.49	-1.68	1.61
54064	-1.004	0.089	0.204	-0.07	-1.82	1.82
54080	-0.999	0.089	0.203	-0.14	-2.1	1.89
54099	-1.003	0.088	0.204	0.07	-2.45	1.96
54124	-1.003	0.09	0.203	0.28	-2.52	2.03
54144	-1.003	0.091	0.204	0.35	-2.52	2.1
54160	-1.002	0.094	0.201	0.42	-2.73	2.03
54180	-1.003	0.09	0.202	0.49	-2.94	2.03
54199	-1.0	0.093	0.204	0.7	-3.01	2.03
54224	-1.001	0.095	0.204	0.56	-3.15	1.96
54239	-1.002	0.095	0.207	0.56	-3.15	2.1
54264	-1.002	0.094	0.209	0.42	-3.08	2.1
54280	-1.0	0.094	0.206	0.21	-3.15	2.1
54299	-1.002	0.097	0.207	0.07	-3.15	1.96
54319	-1.004	0.095	0.203	0.14	-3.29	2.03
54344	-1.002	0.097	0.205	0.07	-3.43	2.1
54364	-0.999	0.098	0.203	-0.07	-3.57	2.1
54382	-1.002	0.098	0.207	-0.35	-3.78	2.17
54406	-1.002	0.095	0.206	-0.14	-3.92	2.17
54426	-1.004	0.096	0.204	-0.14	-4.34	2.1
54446	-1.001	0.097	0.206	0.14	-4.55	1.96
54464	-1.0	0.1	0.21	0.0	-4.76	1.89
54488	-1.0	0.098	0.212	0.63	-5.04	1.89
54508	-1.002	0.096	0.213	0.56	-4.97	1.89
54523	-0.997	0.1	0.212	0.35	-4.97	1.75
54547	-0.997	0.099	0.212	0.42	-5.18	1.82
54568	-1.006	0.093	0.218	0.7	-5.18	1.82
54588	-0.994	0.101	0.221	0.7	-4.9	1.89
54607	-0.999	0.101	0.22	0.49	-4.9	1.61
54623	-0.996	0.101	0.218	0.28	-4.41	1.47
54648	-0.996	0.101	0.22	0.21	-4.48	1.47
54668	-0.998	0.102	0.222	0.49	-4.34	1.47
54692	-0.997	0.1	0.222	0.84	-4.41	1.33
54712	-0.997	0.101	0.226	0.56	-4.13	1.19
54730	-0.996	0.104	0.228	0.21	-3.64	1.05
54747	-0.996	0.102	0.223	0.56	-3.36	0.77
54772	-0.996	0.102	0.221	0.21	-3.29	0.56
54790	-0.998	0.101	0.224	0.35	-3.22	0.7
54814	-0.995	0.103	0.225	0.21	-2.87	0.7
54833	-0.996	0.102	0.225	-0.28	-2.45	0.7
54853	-0.999	0.099	0.227	-0.35	-2.24	0.63
54871	-0.997	0.097	0.223	0.0	-2.17	0.56
54895	-0.996	0.098	0.223	-0.07	-2.31	0.63
54915	-0.997	0.099	0.225	0.0	-2.1	0.63
54934	-0.998	0.1	0.226	-0.21	-2.03	0.63
54954	-0.996	0.097	0.222	0.07	-1.82	0.49
54974	-0.996	0.097	0.221	-0.21	-2.24	0.49
54998	-0.998	0.101	0.222	0.14	-2.31	0.28
55015	-0.999	0.097	0.224	0.0	-2.31	0.35
55037	-0.999	0.097	0.225	0.21	-2.45	0.28
55061	-0.997	0.098	0.224	-0.07	-2.45	0.21
55080	-0.994	0.098	0.224	-0.56	-2.38	0.35
55099	-0.995	0.101	0.224	-0.49	-2.24	0.49
55117	-0.996	0.095	0.225	-0.42	-2.24	0.56
55141	-0.997	0.099	0.224	-0.56	-2.1	0.42
55160	-0.995	0.095	0.223	-0.42	-2.03	0.28
55179	-1.0	0.093	0.224	-0.14	-2.17	0.28
55199	-0.997	0.097	0.224	0.0	-2.17	0.28
55219	-0.999	0.098	0.223	-0.14	-2.03	0.14
55244	-0.996	0.096	0.224	-0.42	-1.96	0.35
55261	-0.999	0.091	0.22	-0.77	-1.96	0.56
55285	-0.875	0.093	0.222	-0.63	-2.31	0.77
55303	-0.999	0.094	0.223	-0.28	-2.31	1.05
55324	-0.992	0.096	0.224	-0.21	-2.31	1.12
55344	-0.998	0.089	0.224	-0.42	-2.52	1.19
55368	-1.002	0.09	0.221	-0.56	-2.24	1.33
55387	-0.996	0.093	0.223	-0.77	-2.24	1.47
55407	-0.999	0.093	0.224	0.07	-2.66	1.68
55431	-0.995	0.094	0.224	0.07	-2.38	1.68
55451	-0.997	0.096	0.224	0.49	-2.45	1.61
55471	-0.998	0.096	0.225	0.56	-2.38	1.47
55491	-0.997	0.097	0.225	0.91	-1.96	1.19
55507	-0.999	0.097	0.221	0.77	-2.24	0.98
55531	-1.0	0.099	0.224	0.35	-2.03	0.56
55551	-0.999	0.094	0.223	0.42	-1.89	0.49
55571	-0.996	0.092	0.222	0.14	-1.68	0.28
55594	-0.997	0.093	0.219	0.42	-1.96	0.42
55615	-0.996	0.096	0.223	0.07	-1.89	0.28
55639	-0.997	0.096	0.225	-0.14	-1.61	0.07
55659	-0.995	0.096	0.226	-0.49	-1.12	0.07
55678	-0.995	0.094	0.224	-0.91	-0.7	0.07
55699	-0.996	0.094	0.224	-1.26	-0.35	-0.14
55719	-0.998	0.093	0.221	-1.4	-0.14	-0.14
55740	-0.997	0.093	0.222	-1.61	0.07	-0.35
55764	-0.997	0.093	0.222	-1.89	0.21	-0.28
55784	-0.999	0.09	0.218	-1.68	0.35	-0.42
55803	-1.002	0.09	0.217	-2.03	0.21	-0.35
55824	-1.003	0.087	0.214	-1.54	0.0	-0.21
55844	-1.0	0.084	0.217	-1.47	-0.14	0.0
55868	-1.0	0.089	0.218	-1.75	-0.35	0.14
55885	-1.001	0.081	0.213	-1.12	-0.14	0.07
55905	-0.999	0.086	0.213	-1.12	-0.49	0.21
55924	-0.997	0.09	0.213	-1.26	-0.77	0.35
55944	-1.003	0.084	0.212	-1.47	-0.49	0.21
55969	-1.003	0.089	0.208	-1.89	-0.49	-0.14
55989	-1.002	0.078	0.208	-0.77	-0.84	0.07
56008	-1.002	0.087	0.211	-1.4	-1.12	0.28
56027	-1.004	0.083	0.209	-0.42	-1.4	0.35
56047	-1.001	0.08	0.206	0.14	-1.89	0.77
56072	-1.004	0.081	0.206	0.49	-2.52	1.05
56092	-1.001	0.082	0.206	0.77	-3.01	1.54
56111	-1.008	0.079	0.207	1.26	-3.5	2.03
56130	-1.002	0.081	0.21	1.61	-3.57	2.17
56152	-0.999	0.088	0.211	1.26	-3.85	2.38
56172	-1.002	0.084	0.212	0.98	-3.64	2.38
56192	-0.999	0.089	0.213	0.84	-3.64	2.24
56212	-0.999	0.087	0.214	0.56	-3.57	2.24
56230	-1.0	0.086	0.214	0.56	-3.43	2.24
56251	-0.997	0.09	0.216	0.49	-3.22	2.1
56272	-0.997	0.09	0.213	0.14	-3.22	2.17
56292	-1.0	0.089	0.215	0.0	-3.01	2.17
56310	-1.001	0.09	0.216	0.07	-3.08	2.17
56334	-0.999	0.086	0.215	0.07	-3.08	2.1
56353	-1.001	0.09	0.215	0.07	-3.15	2.24
56371	-0.999	0.088	0.215	0.14	-3.15	2.17
56395	-1.001	0.09	0.215	0.49	-3.29	2.03
56413	-1.001	0.092	0.215	0.49	-3.29	1.68
56436	-1.0	0.088	0.219	0.49	-3.43	1.54
56457	-0.999	0.089	0.216	0.77	-3.36	1.4
56477	-0.996	0.096	0.219	0.28	-3.36	0.84
56496	-1.0	0.095	0.215	0.49	-3.57	0.42
56516	-1.002	0.085	0.213	0.42	-3.71	-0.07
56540	-1.001	0.091	0.214	0.7	-3.85	-0.35
56560	-1.002	0.091	0.214	0.63	-4.27	-0.91
56578	-1.0	0.086	0.22	0.14	-3.85	-1.05
56598	-0.998	0.087	0.22	0.35	-4.41	-0.42
56617	-1.004	0.085	0.224	0.07	-4.62	0.14
56642	-1.003	0.083	0.222	-0.14	-4.97	0.91
56662	-1.007	0.085	0.219	-0.63	-5.11	1.12
56682	-0.997	0.084	0.224	-0.21	-4.97	1.19
56699	-0.999	0.086	0.23	0.28	-5.53	1.4
56719	-0.998	0.089	0.23	0.14	-5.11	1.33
56741	-0.989	0.088	0.23	0.63	-5.04	1.19
56758	-1.003	0.089	0.229	1.19	-5.04	0.91
56778	-0.988	0.098	0.24	0.0	-3.78	0.98
56798	-0.992	0.065	0.232	0.0	-3.08	0.98
56823	-0.984	0.09	0.188	-2.1	-2.45	-1.05
56843	-1.045	0.053	0.246	-5.81	-7.7	-2.66
56859	-0.965	0.114	0.232	7.42	-4.69	-2.1
56879	-0.995	0.075	0.224	0.77	-3.99	-4.27
56902	-1.001	0.081	0.221	2.73	-4.76	-3.22
56923	-1.011	0.081	0.242	0.77	-5.81	-3.78
56943	-0.988	0.062	0.229	1.4	-5.46	-4.13
56964	-0.991	0.07	0.224	11.34	-4.55	-4.34
56987	-1.008	0.056	0.242	7.28	-5.04	-3.78
57006	-0.959	0.107	0.254	2.17	-7.35	-6.51
57025	-0.984	0.098	0.249	-3.43	-2.24	-9.31
57050	-0.974	0.081	0.257	-0.98	0.21	-12.04
57070	-0.98	0.066	0.255	0.28	-1.89	-14.7
57090	-0.986	0.087	0.261	-0.28	3.92	-16.17
57105	-0.969	0.078	0.247	-7.7	11.41	-18.13
57126	-0.999	0.051	0.248	-8.05	7.91	-19.39
57150	-0.97	0.047	0.246	-7.63	14.0	-22.82
57169	-0.999	0.086	0.279	1.4	14.84	-27.16
57189	-0.981	0.001	0.261	1.26	22.68	-27.72
57208	-0.965	0.026	0.245	-5.74	29.61	-31.08
57230	-0.983	0.03	0.24	-8.47	32.41	-30.59
57254	-1.041	0.001	0.217	-15.19	34.58	-29.68
57274	-1.043	-0.026	0.191	-12.46	40.81	-24.64
57294	-1.088	-0.069	0.15	1.4	37.45	-20.93
57314	-1.077	-0.086	0.14	12.04	43.47	-21.0
57334	-1.357	-0.234	0.144	85.75	22.47	-15.12
57356	-1.187	0.006	0.211	50.96	-11.2	-26.18
57377	-0.814	-0.344	0.042	30.1	27.44	-20.44
57397	-0.993	-0.141	0.091	39.97	14.28	-10.43
57420	-1.003	-0.222	0.104	32.27	12.25	-8.4
57441	-0.951	-0.343	0.287	42.42	1.33	-15.12
57461	-1.031	-0.596	0.205	85.68	-14.77	-16.59
57478	-0.936	-0.422	0.311	72.59	-25.69	-15.89
57502	-1.024	-0.26	0.275	46.62	-31.43	-15.89
57522	-0.988	-0.241	0.317	25.97	-35.7	-16.87
57546	-0.954	-0.235	0.321	0.63	-36.68	-20.02
57565	-0.927	-0.189	0.268	-3.57	-32.55	-20.02
57581	-0.987	-0.21	0.212	-7.7	-29.12	-21.91
57605	-0.986	-0.19	0.19	0.49	-37.73	-14.21
57628	-1.0	-0.135	0.212	6.09	-35.91	-11.76
57649	-1.044	-0.072	0.173	7.84	-40.53	-6.72
57669	-0.963	-0.031	0.228	-8.68	-33.25	-6.16
57689	-1.004	-0.061	0.15	-2.38	-29.05	-6.37
57712	-1.026	-0.029	0.136	-6.09	-33.81	-3.29
57732	-1.015	-0.055	0.164	-8.47	-37.94	-1.61
57756	-0.918	0.021	0.165	-9.17	-26.88	3.08
57774	-0.959	-0.004	0.137	-8.33	-20.79	7.77
57798	-0.959	0.03	0.044	5.25	-25.55	9.94
57818	-0.919	0.118	-0.109	-22.75	5.81	28.42
57836	-0.985	0.115	-0.193	-23.45	17.43	23.73
57860	-0.972	-0.16	-0.084	41.3	-1.75	22.75
57877	-0.994	0.421	0.175	107.31	-9.03	30.31
57901	-0.987	-0.106	0.093	52.08	-16.73	20.37
57921	-1.501	-0.181	0.944	-10.78	-25.9	22.12
57941	-0.936	-0.21	0.435	57.26	33.88	36.47
57961	-1.18	0.714	0.388	-37.66	30.45	20.72
57978	-1.069	-0.061	0.244	-36.89	10.71	16.24
57997	-0.867	-0.166	0.225	-38.99	27.72	10.08
58022	-1.007	-0.231	0.217	0.07	4.55	29.33
58042	-1.022	0.012	0.226	8.54	18.48	26.46
58066	-0.948	0.089	0.222	-20.09	16.31	23.45
58086	-1.099	0.121	0.243	-27.72	0.98	15.82
58104	-1.026	0.009	0.199	-34.72	10.71	12.46
58123	-1.03	-0.073	0.169	-24.78	11.06	8.96
58147	-1.086	-0.03	0.183	-12.18	4.97	9.66
58167	-1.012	-0.028	0.164	-11.13	3.01	9.38
58191	-1.03	-0.039	0.166	-8.89	-1.19	9.24
58211	-1.036	0.005	0.192	-2.8	-6.23	10.99
58226	-1.003	-0.029	0.18	-3.64	-5.6	10.5
58251	-1.012	-0.022	0.184	-1.19	-8.33	9.8
58271	-1.021	-0.028	0.195	2.87	-8.68	8.68
58289	-1.0	-0.019	0.193	7.14	-10.5	7.98
58313	-1.021	0.01	0.21	19.74	-12.18	6.23
58333	-1.0	0.028	0.209	14.84	-10.08	3.08
58352	-1.017	0.024	0.226	20.09	-11.97	0.91
58376	-0.994	0.024	0.211	13.79	-10.5	-4.62
58396	-0.988	0.033	0.222	9.38	-9.1	-9.24
58420	-1.007	0.062	0.233	7.49	-10.36	-15.89
58440	-0.98	-0.003	0.253	2.31	-6.86	-21.28
58459	-0.988	0.006	0.267	5.11	-2.17	-27.23
58476	-1.017	0.018	0.262	-3.85	4.13	-32.69
58496	-0.987	-0.04	0.223	-3.43	-0.35	-35.28
58516	-1.011	-0.075	0.266	-1.47	4.9	-33.53
58540	-0.968	-0.039	0.257	-2.17	5.04	-36.61
58560	-1.05	-0.008	0.193	-12.74	-1.12	-30.38
58575	-0.997	-0.159	0.16	-17.01	-3.36	-28.49
58597	-1.009	-0.272	0.14	-2.52	-7.7	-16.17
58620	-1.018	-0.264	0.161	18.34	-12.04	-3.43
58640	-1.01	-0.203	0.167	22.19	-17.01	2.45
58657	-1.0	-0.119	0.228	26.25	-17.85	5.04
58681	-1.005	-0.085	0.242	21.21	-15.82	6.65
58699	-0.975	-0.131	0.25	15.12	-15.75	9.87
58718	-0.97	-0.125	0.262	17.22	-12.81	10.15
58738	-0.965	-0.063	0.311	19.04	-9.45	11.76
58762	-0.976	0.0	0.295	13.93	-6.72	12.67
58781	-0.957	-0.033	0.287	6.93	1.26	11.13
58801	-0.975	-0.017	0.25	-6.23	3.78	10.64
58820	-0.953	-0.021	0.268	-10.01	6.79	9.1
58840	-0.967	-0.057	0.26	-15.89	8.68	10.64
58864	-0.954	-0.079	0.265	-9.94	14.0	10.5
58883	-0.964	-0.085	0.275	-2.52	16.66	8.05
58902	-1.018	-0.126	0.229	0.98	17.08	7.91
58922	-1.001	-0.068	0.236	9.73	15.33	4.69
58941	-1.052	-0.025	0.216	3.5	17.43	0.98
58966	-1.07	-0.039	0.203	5.81	17.78	-0.49
58986	-1.025	-0.052	0.185	4.2	18.62	-3.5
59005	-1.025	-0.078	0.142	7.56	16.03	-3.99
59023	-1.076	-0.004	0.188	4.06	18.69	-5.81
59043	-0.956	0.044	0.183	-10.01	21.14	-9.52
59063	-0.988	-0.221	0.093	-16.24	11.9	-11.06
59085	-1.012	-0.077	0.161	-4.97	17.36	-10.22
59105	-1.08	-0.061	0.173	-1.19	20.72	-4.34
59124	-0.977	-0.086	0.14	-0.21	22.05	-1.33
59149	-1.008	-0.068	0.126	-3.29	15.19	-4.97
59169	-1.025	-0.026	0.117	-8.33	22.12	-6.3
59189	-0.964	-0.116	0.094	-0.98	26.18	-5.6
59209	-1.06	-0.067	0.123	-0.56	19.88	-5.53
59228	-0.957	-0.118	0.088	1.68	25.13	-1.54
59246	-1.053	-0.088	0.074	0.35	18.41	-13.51
59265	-1.049	-0.084	0.054	6.3	20.58	-6.93
59290	-0.979	-0.061	0.036	4.69	20.09	-10.85
59310	-1.046	-0.058	0.058	-2.94	12.67	-14.84
59329	-1.06	-0.09	0.048	-3.15	20.58	-17.01
59353	-0.978	-0.087	0.042	-2.73	21.91	-16.24
59372	-0.927	-0.187	0.003	1.4	33.81	-8.96
59392	-0.982	-0.185	0.029	2.31	19.6	-5.74
59416	-1.0	-0.185	0.027	5.04	10.92	-1.89
59435	-1.025	-0.154	0.018	6.79	8.26	3.64
59459	-1.046	-0.135	-0.007	5.88	5.46	2.17
59479	-1.029	-0.073	-0.005	0.14	5.46	-0.07
59501	-1.038	-0.113	-0.016	-3.57	2.94	-2.24
59521	-1.045	-0.142	-0.014	-2.94	-1.75	-3.85
59546	-1.043	-0.168	-0.01	-3.29	-4.62	-1.47
59564	-1.017	-0.144	0.005	-5.04	-5.25	2.31
59585	-1.007	-0.139	0.004	-10.29	-4.13	5.95
59609	-1.041	-0.171	-0.016	-29.54	-1.82	7.0
59628	-1.026	-0.22	-0.023	-24.5	3.01	7.98
59647	-1.016	-0.157	0.004	-9.24	-4.41	9.03
59667	-1.043	-0.143	0.0	6.86	-9.17	8.54
59691	-1.002	-0.117	-0.012	2.03	-11.9	7.14
59711	-0.995	-0.083	0.02	-9.87	-8.54	4.41
59735	-0.968	-0.077	0.006	-19.81	-5.04	-2.73
59754	-0.978	-0.081	0.031	-30.73	5.11	-6.16
59775	-0.995	-0.094	0.045	-27.51	0.42	-7.77
59796	-1.008	-0.121	0.033	-14.56	1.12	-3.01
59810	-0.962	-0.176	-0.01	-5.39	0.77	-3.08
59835	-0.996	-0.142	0.01	-1.05	-4.13	-0.49
59854	-1.019	-0.135	-0.002	0.07	-9.1	1.12
59874	-1.062	-0.102	0.013	5.53	-9.03	1.75
59899	-1.04	-0.142	0.0	3.22	-13.86	2.38
59919	-1.046	-0.115	-0.001	4.2	-14.28	1.12
59935	-1.035	-0.142	0.002	6.58	-15.54	1.89
59959	-1.015	-0.131	0.031	8.26	-16.66	4.48
59975	-1.014	-0.127	0.019	8.12	-21.56	3.15
59995	-1.024	-0.11	0.039	7.21	-16.87	2.24
60019	-0.996	-0.11	0.049	6.23	-16.03	3.43
60038	-1.004	-0.102	0.062	6.72	-19.04	2.45
60058	-0.989	-0.1	0.065	4.76	-16.8	0.91
60078	-1.014	-0.121	0.06	7.14	-16.31	0.49
60097	-0.995	-0.118	0.073	5.74	-19.18	1.89
60122	-1.023	-0.101	0.077	5.74	-17.43	3.08
60142	-1.118	-0.127	0.071	5.11	-15.05	3.36
60166	-1.037	-0.123	0.076	6.51	-18.69	7.42
60186	-1.101	-0.098	0.068	4.48	-24.57	4.48
60203	-0.999	-0.148	0.083	6.93	-17.92	4.41
60222	-1.061	-0.095	0.104	10.29	-32.55	6.79
60247	-0.977	-0.12	0.113	9.94	-30.87	7.63
60267	-1.073	-0.084	0.126	11.13	-31.85	8.26
60287	-0.973	-0.118	0.111	7.63	-29.75	7.14
60311	-1.006	-0.117	0.136	13.3	-32.13	12.25
60326	-0.958	-0.093	0.134	2.38	-46.41	8.68
60351	-0.922	-0.112	0.133	2.17	-43.26	9.59
60370	-0.976	-0.125	0.157	3.85	-42.91	11.76
