Millis	AccelX	AccelY	AccelZ	GyroX	GyroY	GyroZ
0	-1.014	0.009	0.036	7.0	0.14	-1.05
25	-1.015	0.007	0.037	6.65	0.21	-1.26
43	-1.011	0.003	0.035	6.16	0.35	-1.4
67	-1.012	0.008	0.039	6.02	0.56	-1.4
87	-1.013	0.008	0.037	5.32	0.0	-1.33
107	-1.01	0.011	0.036	4.76	-0.07	-1.19
131	-1.013	0.018	0.036	4.69	0.21	-1.19
151	-1.014	0.024	0.039	3.92	0.35	-0.91
171	-1.012	0.014	0.031	2.45	-0.63	-0.84
191	-1.005	0.018	0.027	1.89	-0.42	-1.05
210	-1.01	0.022	0.036	0.77	0.42	-1.12
230	-1.017	0.02	0.04	-0.91	0.21	-1.12
247	-1.02	0.017	0.031	-1.68	-0.07	-1.33
271	-1.02	0.013	0.031	-2.38	-0.35	-1.54
291	-1.018	0.007	0.034	-3.22	-0.49	-1.54
311	-1.014	0.003	0.037	-3.71	-0.49	-1.75
330	-1.012	0.004	0.034	-3.85	-0.56	-1.61
351	-1.01	0.005	0.034	-3.99	-0.7	-1.61
373	-1.012	0.009	0.035	-3.85	-0.77	-1.26
395	-1.014	0.005	0.032	-4.2	-0.98	-0.98
415	-1.012	0.007	0.028	-4.06	-1.19	-0.84
433	-1.012	0.005	0.029	-4.2	-0.91	-0.84
455	-1.014	0.003	0.035	-4.2	-0.63	-0.77
473	-1.013	0.005	0.037	-3.92	-0.84	-0.77
493	-1.015	0.005	0.035	-3.43	-1.12	-0.77
517	-1.012	0.002	0.031	-2.87	-1.05	-0.63
532	-1.014	0.0	0.033	-2.73	-0.98	-0.63
556	-1.015	-0.001	0.028	-2.45	-0.77	-0.49
577	-1.012	0.001	0.021	-1.82	-0.28	-0.49
596	-1.011	-0.003	0.023	-1.33	0.21	-0.35
620	-1.014	0.0	0.023	-0.77	0.49	-0.56
639	-1.011	-0.002	0.024	0.0	0.77	-0.49
660	-1.011	-0.004	0.021	0.49	0.91	-0.63
679	-1.01	-0.001	0.024	0.98	0.98	-0.56
700	-1.009	0.005	0.026	1.19	0.77	-0.56
723	-1.011	0.004	0.017	1.19	0.77	-0.56
744	-1.011	0.006	0.015	1.19	1.05	-0.56
764	-1.011	0.006	0.016	1.33	1.19	-0.56
783	-1.014	0.006	0.016	1.26	1.47	-0.7
803	-1.013	0.005	0.014	1.47	1.61	-0.7
827	-1.013	0.007	0.017	1.68	1.82	-0.84
847	-1.019	0.004	0.021	1.82	1.47	-0.84
868	-1.02	-0.001	0.023	1.89	0.98	-0.91
887	-1.021	0.002	0.023	2.31	0.42	-1.19
905	-1.023	0.01	0.023	3.08	0.07	-1.26
928	-1.031	0.006	0.029	2.87	-1.05	-0.98
948	-1.031	0.002	0.011	3.08	-2.87	-0.63
966	-1.022	0.007	0.002	3.22	-3.36	-0.49
987	-1.021	0.008	0.004	3.15	-4.2	-0.56
1006	-1.01	0.007	0.001	3.08	-4.9	-0.63
1028	-0.994	0.005	-0.0	2.94	-4.62	-0.84
1049	-0.992	0.004	0.007	3.01	-3.71	-0.91
1069	-0.994	0.009	0.016	2.52	-2.59	-1.05
1094	-0.998	0.01	0.022	1.89	-1.19	-1.26
1110	-1.008	0.014	0.03	1.4	-0.28	-1.47
1134	-1.011	0.015	0.034	1.05	0.56	-1.75
1155	-1.02	0.008	0.04	0.56	0.91	-1.68
1174	-1.019	0.01	0.039	0.28	0.98	-1.61
1195	-1.014	0.011	0.029	0.28	1.26	-1.26
1213	-1.016	0.006	0.027	-0.14	1.26	-0.98
1230	-1.017	0.007	0.024	-0.49	0.98	-0.84
1254	-1.015	0.007	0.015	-0.7	0.56	-0.84
1274	-1.016	0.007	0.011	-0.84	0.49	-0.84
1294	-1.013	0.006	0.011	-1.05	0.56	-0.77
1314	-1.014	0.004	0.007	-1.19	0.49	-0.84
1334	-1.017	0.005	0.009	-1.26	0.42	-0.98
1357	-1.018	0.005	0.014	-1.26	-0.35	-1.12
1381	-1.018	0.001	0.018	-1.26	-1.05	-1.12
1401	-1.018	-0.0	0.018	-1.26	-1.82	-1.19
1421	-1.019	-0.001	0.022	-0.98	-2.38	-0.98
1440	-1.019	-0.003	0.02	-0.77	-2.8	-0.91
1463	-1.016	-0.002	0.011	-0.49	-2.8	-0.91
1482	-1.012	-0.003	0.007	-0.14	-1.96	-0.91
1505	-1.012	-0.003	0.005	0.14	-0.63	-0.98
1524	-1.013	-0.003	0.011	0.49	-0.42	-0.84
1548	-1.014	-0.002	0.016	0.7	0.0	-0.98
1569	-1.024	-0.001	0.017	0.7	-0.21	-0.98
1586	-1.026	-0.0	0.02	0.91	-1.12	-0.91
1603	-1.019	0.002	0.016	1.26	-2.1	-0.77
1628	-1.018	0.004	0.017	1.61	-3.15	-0.49
1646	-1.017	0.004	0.01	1.54	-3.78	-0.14
1670	-1.022	-0.007	0.006	1.75	-4.41	0.0
1690	-1.034	0.002	0.006	3.43	-6.16	0.56
1708	-1.027	0.002	-0.012	3.85	-8.61	1.4
1730	-0.982	-0.018	-0.057	1.89	-6.93	0.84
1749	-0.978	0.005	-0.038	-1.47	-2.45	-0.77
1773	-1.035	0.036	0.013	-5.11	-2.59	-2.24
1794	-1.086	0.045	0.036	-4.41	-7.35	-2.1
1810	-1.095	0.027	0.027	-3.22	-11.41	-1.54
1829	-1.074	0.02	0.015	-2.66	-13.79	-0.21
1855	-1.048	-0.0	0.043	-0.98	-16.03	2.38
1874	-1.039	-0.005	0.061	0.07	-17.92	3.5
1893	-1.034	0.006	0.061	1.82	-21.07	3.99
1917	-1.025	0.002	0.067	2.17	-22.82	3.22
1935	-1.029	-0.003	0.076	2.31	-24.08	2.59
1956	-1.027	0.012	0.09	0.49	-24.43	1.61
1976	-1.021	0.015	0.094	-0.35	-23.52	1.12
2001	-1.009	-0.009	0.112	-0.49	-20.65	0.28
2020	-1.012	0.014	0.125	0.42	-17.99	-0.21
2039	-1.017	0.013	0.138	1.26	-15.26	0.14
2058	-1.024	0.017	0.164	2.24	-13.09	0.21
2078	-1.01	0.037	0.169	1.47	-12.46	2.45
2103	-1.006	0.019	0.151	0.63	-9.17	2.31
2123	-1.012	0.022	0.174	-0.77	-4.41	4.2
2142	-0.998	0.015	0.13	0.0	-1.75	3.22
2162	-1.014	0.059	0.162	-1.47	2.73	4.9
2181	-1.014	0.035	0.155	-1.33	2.8	4.27
2201	-0.995	0.06	0.164	-2.45	3.36	3.57
2225	-0.995	0.023	0.131	-3.01	4.9	3.01
2244	-1.001	0.068	0.143	-4.06	5.39	3.01
2264	-1.009	0.039	0.137	-4.76	7.63	0.49
2287	-1.028	0.058	0.142	-4.27	7.21	1.05
2306	-1.022	0.043	0.165	-4.69	4.06	1.75
2326	-1.009	0.046	0.13	-6.37	0.07	2.31
2345	-0.993	0.028	0.112	-7.98	-0.91	1.89
2371	-0.996	0.0	0.086	-6.79	3.85	-5.53
2390	-0.968	0.027	0.075	-6.65	4.69	-5.53
2408	-0.997	0.038	0.107	-5.6	1.54	-4.48
2429	-0.996	0.035	0.1	-3.57	-0.84	-3.22
2448	-0.991	0.02	0.089	-1.54	-0.63	-2.52
2467	-0.986	0.035	0.101	-0.07	-0.77	-1.82
2489	-0.989	0.037	0.096	-0.42	-1.05	-1.82
2509	-0.996	0.039	0.086	-0.77	-1.12	-1.4
2529	-1.006	0.045	0.098	-0.7	-1.33	-1.61
2553	-1.014	0.023	0.098	-3.36	-4.76	-1.89
2574	-0.996	0.038	0.073	-2.31	-6.86	-2.1
2591	-0.998	0.041	0.06	-3.08	-6.58	-2.24
2612	-0.991	0.026	0.08	-3.57	-7.49	-2.45
2632	-0.993	0.021	0.084	-4.41	-9.8	-2.59
2651	-0.984	0.027	0.083	-4.41	-10.15	-2.8
2673	-0.983	0.028	0.094	-4.48	-9.94	-2.87
2696	-0.988	0.023	0.097	-4.06	-9.38	-3.5
2717	-0.984	0.02	0.093	-3.08	-8.26	-4.13
2737	-0.996	0.015	0.111	-1.4	-7.98	-3.99
2757	-1.0	0.014	0.122	0.0	-7.07	-3.57
2777	-0.997	0.009	0.118	0.7	-7.07	-3.08
2800	-0.992	0.014	0.122	1.4	-6.79	-2.31
2820	-0.992	0.014	0.134	2.03	-6.65	-1.47
2841	-0.989	0.001	0.133	2.73	-5.95	-1.4
2859	-0.995	0.001	0.146	3.08	-5.46	-1.19
2881	-0.998	0.005	0.134	3.99	-3.92	-1.26
2902	-1.0	0.012	0.134	3.99	-2.73	-1.26
2920	-0.996	0.01	0.129	4.83	-1.05	-1.4
2939	-0.995	0.01	0.136	5.04	0.84	-1.61
2965	-0.998	0.011	0.148	5.11	2.24	-1.61
2984	-1.005	0.014	0.144	5.95	-0.56	-1.33
3003	-1.0	0.021	0.131	6.16	-2.87	-1.82
3019	-0.995	0.02	0.121	5.53	-3.64	-2.1
3039	-0.989	0.023	0.128	5.18	-3.5	-2.73
3059	-0.981	0.032	0.126	5.53	-4.06	-2.38
3083	-0.973	0.029	0.128	6.09	-4.97	-1.82
3102	-0.99	0.016	0.122	4.2	-7.0	-1.05
3122	-0.998	0.133	0.133	-2.73	-11.55	0.07
3142	-0.998	0.042	0.109	1.05	-11.41	3.15
3166	-0.998	0.036	0.12	1.89	-7.63	5.25
3186	-0.999	0.022	0.131	-1.75	-3.92	4.76
3205	-0.998	0.013	0.151	-2.52	-1.19	2.73
3226	-0.98	0.033	0.17	-2.24	0.98	-0.49
3246	-0.972	0.061	0.161	0.77	2.73	-2.45
3270	-0.995	0.061	0.188	0.77	1.96	-1.75
3289	-0.984	0.032	0.169	0.63	3.36	-1.54
3309	-1.003	0.024	0.205	0.7	7.0	-1.75
3333	-1.003	0.026	0.194	2.94	6.44	-1.26
3351	-1.002	0.008	0.164	1.82	8.96	0.0
3374	-0.988	-0.023	0.162	2.03	13.23	-0.42
3390	-1.011	-0.01	0.176	0.7	15.4	-1.89
3409	-1.007	0.046	0.147	1.47	14.07	-5.18
3433	-0.987	0.02	0.133	4.55	16.87	-6.72
3448	-0.994	-0.001	0.142	3.15	18.2	-6.51
3472	-1.024	0.011	0.13	1.26	17.15	-7.84
3496	-1.034	0.037	0.099	0.63	16.59	-9.03
3512	-1.035	0.009	0.101	2.66	18.83	-8.26
3537	-1.047	-0.017	0.119	5.11	18.06	-7.21
3556	-1.021	-0.006	0.096	6.3	16.73	-7.42
3573	-0.977	0.024	0.074	6.23	16.8	-7.7
3597	-0.971	0.036	0.061	4.62	20.16	-8.33
3617	-1.017	0.01	0.102	4.06	20.51	-7.7
3634	-1.037	-0.001	0.11	3.15	17.5	-6.86
3653	-1.03	0.009	0.063	-0.28	12.81	-6.3
3674	-1.034	0.013	0.012	-4.62	12.67	-6.23
3694	-1.024	-0.004	-0.01	-4.76	12.88	-6.16
3718	-1.005	-0.002	0.015	-1.12	12.67	-4.69
3738	-1.019	-0.012	0.028	0.91	13.02	-2.52
3758	-1.044	-0.017	0.035	0.42	11.13	0.28
3780	-1.064	-0.022	0.03	-3.29	9.52	1.19
3802	-1.044	-0.025	0.021	-5.88	6.37	0.63
3821	-1.033	-0.021	0.004	-5.95	5.25	-0.42
3839	-1.021	-0.021	-0.001	-4.83	5.81	-0.91
3859	-1.026	-0.017	0.005	-3.57	7.21	-1.05
3880	-1.031	-0.014	0.009	-2.03	5.04	-0.56
3899	-1.025	-0.021	-0.004	-0.49	2.73	-0.42
3924	-1.023	-0.023	-0.017	2.1	2.24	0.56
3941	-1.024	-0.006	-0.026	3.57	2.31	1.61
3964	-1.024	-0.0	-0.017	4.34	2.94	2.87
3982	-1.028	0.003	-0.0	6.02	1.89	2.94
4006	-1.024	0.02	0.006	5.46	0.98	3.5
4027	-1.02	0.016	0.003	3.85	0.35	2.87
4045	-1.018	-0.0	0.009	3.29	0.35	2.1
4068	-1.03	-0.01	0.02	3.22	-0.98	1.4
4085	-1.031	-0.016	0.013	3.57	-2.31	0.7
4109	-1.021	-0.01	0.007	4.13	-3.08	-0.28
4129	-1.009	0.001	-0.002	4.55	-3.08	-0.77
4146	-1.002	0.011	-0.0	4.48	-2.66	-1.19
4171	-1.009	0.014	-0.007	3.99	-1.96	-1.4
4188	-1.017	0.016	-0.003	3.01	-1.89	-1.4
4211	-1.016	0.013	-0.009	2.24	-1.89	-1.12
4231	-1.02	0.011	-0.006	1.89	-1.75	-0.84
4252	-1.016	0.007	-0.004	1.05	-2.1	-0.35
4272	-1.01	0.01	-0.002	0.98	-2.31	-0.14
4296	-1.008	0.013	0.003	0.84	-2.38	0.07
4314	-1.013	0.004	0.003	0.49	-2.31	0.21
4333	-1.011	0.004	0.006	0.21	-2.52	-0.07
4356	-1.011	0.003	0.003	0.42	-2.87	-0.42
4379	-1.016	0.0	0.002	0.56	-2.94	-0.77
4400	-1.019	0.002	-0.005	-0.49	-3.57	-1.05
4420	-1.021	0.003	-0.007	-0.7	-3.99	-1.33
4438	-1.018	0.006	-0.02	-1.54	-4.9	-1.75
4461	-1.003	0.004	-0.027	-1.05	-5.39	-1.96
4482	-1.004	0.007	-0.032	-0.42	-4.62	-2.03
4502	-1.013	0.003	-0.026	0.21	-5.39	-1.75
4526	-1.02	-0.007	-0.021	-0.07	-5.18	-1.75
4544	-1.051	0.001	-0.001	-0.91	-6.02	-1.68
4569	-1.06	0.015	-0.009	-1.33	-10.22	-1.05
4588	-1.05	0.027	-0.011	-1.47	-12.39	-0.7
4611	-1.053	0.031	0.019	-2.03	-15.19	-0.14
4632	-1.049	0.023	0.037	-3.85	-19.04	-0.56
4652	-1.045	0.005	0.034	-4.69	-21.98	-1.26
4670	-1.048	-0.014	0.045	-4.69	-23.38	-2.03
4691	-1.047	-0.0	0.062	-4.13	-23.66	-2.31
4713	-1.051	0.006	0.072	-3.57	-22.54	-1.54
4735	-1.048	0.007	0.098	-2.31	-20.23	0.7
4756	-1.039	0.0	0.126	0.63	-18.9	2.03
4775	-1.027	-0.009	0.143	2.24	-15.96	2.52
4794	-1.025	-0.002	0.163	2.73	-14.21	2.94
4818	-1.005	0.005	0.183	4.55	-13.09	4.69
4835	-1.037	-0.011	0.181	3.57	-10.99	3.57
4860	-1.02	0.01	0.179	3.01	-9.38	4.9
4878	-0.999	-0.002	0.153	3.08	-7.07	5.6
4898	-1.008	-0.019	0.137	1.82	-1.82	4.83
4918	-0.991	0.03	0.18	0.7	-3.57	3.29
4941	-1.002	0.018	0.137	1.33	-3.01	3.64
4960	-0.991	0.027	0.134	1.05	-2.03	3.15
4984	-1.0	0.01	0.134	0.14	-3.78	2.59
5006	-0.992	0.01	0.124	-0.84	-2.87	2.1
5025	-0.994	-0.005	0.062	-2.8	-0.56	-2.17
5044	-0.996	0.013	0.135	0.42	1.68	-2.87
5067	-0.974	0.032	0.127	1.4	1.19	-3.64
5087	-0.982	0.027	0.139	2.17	-2.03	-3.01
5106	-0.985	0.028	0.115	3.22	-3.92	-2.73
5128	-0.98	0.022	0.094	3.43	-4.62	-2.52
5152	-0.982	0.018	0.085	3.64	-4.13	-1.61
5170	-1.001	0.014	0.082	4.06	-4.13	-1.26
5191	-0.997	0.01	0.09	5.11	-4.2	-0.63
5209	-1.008	0.009	0.077	5.46	-3.85	-0.42
5235	-1.012	0.024	0.084	5.88	-4.41	-0.98
5254	-1.005	0.017	0.109	4.69	-6.02	-2.52
5274	-1.01	0.033	0.11	1.96	-8.05	-3.85
5298	-0.985	0.041	0.087	0.14	-8.33	-5.18
5316	-0.984	0.048	0.094	-0.21	-7.77	-4.62
5340	-0.978	0.038	0.089	-0.56	-6.58	-3.43
5359	-0.981	0.029	0.101	-1.33	-4.69	-2.38
5381	-0.989	0.009	0.1	-1.68	-2.94	-1.61
5400	-0.998	0.005	0.112	-0.56	-2.1	-1.47
5420	-1.005	0.014	0.109	0.77	-2.17	-1.26
5440	-1.008	0.02	0.112	0.49	-2.1	-1.47
5463	-1.009	0.021	0.124	0.07	-2.87	-2.03
5485	-0.999	0.018	0.118	0.21	-4.13	-1.96
5504	-0.998	0.01	0.11	0.7	-3.71	-1.68
5524	-0.999	0.007	0.116	1.61	-4.06	-1.19
5544	-1.001	0.017	0.139	2.73	-3.99	-0.91
5568	-1.124	0.007	0.123	2.45	-3.78	-1.19
5587	-1.007	0.012	0.138	2.03	-3.15	-0.63
5607	-1.014	0.007	0.142	1.47	-3.57	-0.77
5627	-1.006	0.012	0.137	1.82	-3.57	-0.77
5646	-1.002	0.011	0.142	1.68	-3.64	-0.7
5670	-1.0	0.012	0.145	1.75	-3.5	-0.56
5690	-1.003	0.014	0.143	2.03	-3.22	-0.42
5714	-1.011	0.017	0.141	2.31	-3.08	-0.28
5738	-1.014	0.018	0.135	2.17	-3.36	-0.49
5758	-1.003	0.022	0.124	2.03	-2.87	-0.77
5778	-1.001	0.027	0.122	1.54	-2.8	-1.19
5797	-0.992	0.02	0.119	0.98	-2.17	-1.33
5814	-0.99	0.02	0.113	1.05	-0.98	-1.47
5838	-0.989	0.016	0.123	0.98	0.14	-1.54
5853	-0.996	0.009	0.13	0.35	0.14	-1.68
5874	-1.007	0.012	0.136	1.12	-1.61	-2.1
5898	-1.004	0.011	0.126	1.68	-3.57	-2.52
5918	-1.006	0.003	0.126	0.07	-5.81	-2.17
5941	-1.006	0.016	0.114	-2.8	-8.12	-1.68
5959	-1.011	0.039	0.117	-4.34	-9.1	-1.61
5983	-1.025	0.045	0.118	-4.9	-10.85	-0.28
6002	-1.046	0.047	0.131	-4.9	-13.72	3.22
6024	-1.022	0.036	0.119	-7.56	-14.21	4.2
6038	-0.968	0.009	0.12	-9.87	-11.97	3.5
6063	-0.957	0.005	0.164	-8.68	-8.26	3.01
6080	-0.959	-0.007	0.197	-6.3	-8.4	3.15
6100	-0.939	-0.034	0.188	-4.27	-5.67	2.52
6124	-0.944	-0.028	0.196	-4.55	-1.19	0.63
6143	-0.958	0.009	0.227	-2.52	3.36	-1.19
6167	-0.987	0.024	0.254	0.28	3.92	-2.52
6182	-0.995	0.009	0.217	1.68	4.41	-3.85
6208	-0.993	-0.123	0.197	-1.26	7.21	-5.39
6227	-0.978	0.019	0.191	-0.49	8.4	-8.61
6246	-0.993	0.015	0.197	3.92	11.27	-8.75
6271	-1.002	0.0	0.182	3.57	11.13	-6.02
6291	-0.984	-0.047	0.165	-0.77	12.46	-5.25
6310	-0.957	0.007	0.15	-0.84	16.94	-7.77
6329	-1.004	0.044	0.197	2.87	18.27	-9.66
6353	-1.028	-0.008	0.182	7.14	15.82	-9.03
6373	-1.014	-0.028	0.157	8.75	16.59	-7.63
6390	-1.019	-0.024	0.144	7.28	19.46	-7.56
6408	-1.011	0.012	0.145	7.28	20.58	-8.61
6430	-1.016	0.009	0.144	9.24	20.16	-9.38
6449	-1.001	0.042	0.114	9.87	19.18	-9.31
6474	-1.017	0.033	0.085	7.84	19.18	-6.44
6494	-1.016	-0.006	0.05	-1.61	17.08	-5.46
6512	-0.989	0.004	0.015	-6.86	15.61	-5.53
6537	-0.992	0.008	0.006	-9.73	18.13	-4.62
6555	-1.02	-0.005	0.031	-9.1	18.83	-3.99
6574	-1.042	-0.003	0.052	-9.45	17.78	-1.96
6599	-1.057	-0.045	0.045	-9.66	16.45	-0.14
6617	-1.062	-0.058	0.047	-9.52	14.14	0.21
6636	-1.054	-0.056	0.029	-8.26	9.59	-0.21
6658	-1.036	-0.052	0.028	-1.75	8.75	0.49
6678	-1.051	-0.038	0.028	-0.7	9.24	2.38
6701	-1.08	-0.036	0.043	-0.35	7.91	4.69
6722	-1.089	-0.037	0.056	0.84	6.44	5.74
6741	-1.089	-0.029	0.069	2.59	3.85	6.23
6766	-1.062	-0.029	0.051	5.95	0.28	6.23
6785	-1.02	-0.019	0.032	7.98	-1.47	5.81
6803	-0.998	-0.015	0.013	9.1	-2.03	5.18
6826	-1.0	-0.003	0.009	9.17	-2.1	3.71
6847	-1.011	0.005	0.012	7.77	-1.89	1.96
6867	-1.026	0.005	0.014	6.65	-2.31	0.35
6890	-1.035	0.011	0.007	6.72	-3.85	-0.35
6911	-1.034	0.011	0.0	7.28	-4.76	-0.49
6930	-1.022	0.008	0.007	7.0	-4.34	-0.49
6951	-1.009	0.01	0.024	6.65	-4.06	-0.35
6971	-1.013	0.008	0.036	6.86	-4.27	0.14
6990	-1.009	0.006	0.035	7.0	-4.13	0.91
7015	-1.011	0.003	0.037	7.21	-3.64	1.61
7034	-1.01	0.01	0.039	7.35	-2.87	1.75
7054	-1.014	0.015	0.041	6.44	-2.94	1.89
7075	-1.003	0.014	0.024	4.83	-2.52	1.47
7095	-1.006	0.02	0.027	3.36	-1.4	0.91
7113	-1.014	0.021	0.039	1.96	-1.05	0.35
7136	-1.019	0.015	0.04	0.35	-1.68	-0.42
7156	-1.03	0.017	0.026	-0.42	-2.17	-0.49
7177	-1.028	0.011	0.018	-0.98	-2.59	-0.42
7197	-1.025	0.011	0.017	-0.91	-2.94	-0.42
7215	-1.026	0.004	0.01	0.7	-3.22	-0.28
7239	-1.028	0.005	0.003	1.89	-3.57	0.07
7259	-1.02	0.0	0.004	0.91	-4.34	0.28
7278	-1.019	0.0	0.0	-1.19	-6.09	-0.56
7298	-1.032	-0.004	-0.003	-2.31	-7.63	-1.19
7316	-1.043	0.003	0.012	-1.75	-9.94	-1.4
7335	-1.054	0.018	0.019	-2.38	-12.46	-1.75
7360	-1.047	0.022	0.013	-3.92	-15.61	-1.47
7379	-1.03	0.018	0.024	-6.65	-17.99	-1.54
7398	-1.031	0.019	0.051	-8.19	-19.25	-2.73
7422	-1.045	0.006	0.088	-7.14	-21.7	-4.13
7442	-1.063	0.003	0.107	-5.04	-22.54	-3.71
7466	-1.065	-0.001	0.122	-1.82	-22.75	-1.82
7483	-1.051	0.004	0.111	0.49	-21.21	1.47
7506	-1.037	-0.009	0.132	2.24	-18.2	4.55
7527	-1.017	-0.005	0.165	4.06	-16.73	5.25
7543	-1.006	0.004	0.175	5.11	-15.96	6.86
7563	-1.0	-0.009	0.154	7.14	-14.14	7.28
7584	-1.006	0.018	0.167	6.86	-11.27	5.04
7604	-0.988	0.023	0.17	3.5	-8.4	4.83
7627	-0.996	0.02	0.176	1.54	-7.35	4.06
7648	-0.998	0.022	0.173	-1.47	-5.95	2.1
7663	-0.988	0.013	0.175	-2.1	-5.46	2.03
7688	-0.989	-0.02	0.163	-2.03	-5.32	0.56
7707	-0.996	0.0	0.163	-4.9	-5.18	-0.49
7726	-1.001	0.013	0.163	-4.62	-4.06	-0.7
7746	-1.009	0.014	0.156	-3.78	-4.97	-0.28
7770	-0.978	0.006	0.135	-3.92	-3.85	-0.77
7790	-0.973	0.023	0.157	-1.26	-3.01	-1.47
7809	-0.988	0.036	0.148	-0.07	-0.14	-3.57
7828	-0.979	0.036	0.158	3.71	-1.19	-3.43
7853	-0.987	0.028	0.149	4.9	-2.45	-3.5
7873	-1.004	0.022	0.143	4.48	-2.45	-3.57
7889	-1.014	0.021	0.143	5.32	-2.73	-3.85
7911	-1.027	0.019	0.131	6.72	-3.71	-2.45
7935	-0.999	0.009	0.126	6.86	-3.43	-1.96
7954	-0.99	0.018	0.138	5.67	-3.22	-1.33
7976	-0.984	0.019	0.143	5.46	-3.43	-1.12
7995	-0.988	0.011	0.142	5.81	-2.94	-0.63
8012	-0.993	0.02	0.145	5.46	-2.17	0.0
8034	-0.998	0.027	0.134	5.18	-2.8	0.98
8054	-1.018	0.033	0.129	3.43	-3.36	1.47
8074	-1.026	0.046	0.121	1.19	-3.36	1.75
8099	-1.017	0.042	0.122	-1.75	-3.57	0.77
8118	-1.011	0.043	0.138	-2.66	-3.57	-0.56
8138	-1.004	0.042	0.144	-2.24	-4.34	-0.42
8159	-0.988	0.028	0.129	-2.45	-4.69	-0.28
8178	-0.981	0.02	0.12	-3.22	-3.92	0.0
8201	-0.986	0.024	0.123	-4.2	-3.57	-0.35
8222	-0.989	0.029	0.131	-4.83	-4.62	-0.7
8241	-0.988	0.032	0.125	-5.04	-5.32	-1.05
8265	-0.991	0.026	0.13	-5.6	-5.6	-1.4
8283	-0.986	0.013	0.135	-5.74	-5.18	-1.68
8302	-0.988	0.008	0.138	-4.41	-4.2	-1.61
8322	-0.991	0.005	0.142	-2.31	-3.5	-1.19
8346	-0.99	0.006	0.147	-1.4	-2.94	-1.05
8366	-0.995	0.017	0.155	0.14	-2.17	-1.19
8390	-0.999	0.019	0.162	1.33	-1.89	-0.77
8406	-0.998	0.01	0.167	1.89	-1.4	-0.77
8429	-0.999	0.014	0.169	2.1	-1.05	-1.19
8449	-0.995	0.016	0.167	2.1	-0.63	-1.61
8474	-0.998	0.018	0.169	2.66	-0.56	-1.61
8493	-0.996	0.013	0.16	2.59	-0.14	-1.68
8513	-0.998	0.02	0.163	2.87	0.49	-1.75
8529	-1.002	0.023	0.158	3.71	-0.14	-2.03
8552	-1.0	0.02	0.154	2.73	0.28	-2.31
8574	-0.991	0.02	0.138	2.8	0.63	-2.31
8590	-0.992	0.024	0.146	3.29	1.54	-2.24
8614	-1.003	0.022	0.164	3.22	0.14	-2.03
8634	-1.003	0.016	0.148	2.59	-1.4	-2.52
8652	-0.999	0.023	0.142	2.1	-2.45	-2.73
8674	-0.997	0.021	0.141	1.12	-2.87	-2.73
8694	-1.008	0.034	0.154	0.84	-2.94	-2.45
8714	-1.02	0.042	0.159	0.35	-5.04	-1.54
8738	-1.017	0.029	0.147	-3.15	-6.23	-1.75
8758	-0.997	0.03	0.145	-7.42	-4.62	-2.66
8775	-0.99	0.03	0.16	-7.56	-4.13	-3.36
8798	-0.993	0.021	0.163	-5.6	-4.83	-3.29
8822	-0.975	0.002	0.161	-4.41	-1.89	-2.73
8841	-0.974	-0.105	0.196	-1.54	-0.84	-1.68
8862	-0.996	-0.014	0.2	-3.22	-0.14	-2.31
8881	-0.985	0.0	0.192	-1.26	1.05	-3.36
8906	-0.984	0.004	0.189	2.59	0.77	-2.17
8926	-0.993	-0.003	0.195	5.18	0.07	-0.77
8946	-0.997	-0.015	0.191	5.25	-0.07	0.77
8966	-1.005	-0.022	0.186	5.53	1.12	-0.14
8990	-0.993	0.021	0.179	6.93	3.43	-0.84
9011	-1.019	0.031	0.191	6.09	1.61	0.21
9028	-1.017	0.025	0.163	4.13	-1.05	-0.28
9048	-0.991	0.037	0.147	2.59	1.75	-2.52
9071	-0.996	0.038	0.176	3.36	7.28	-3.71
9091	-1.024	0.014	0.197	3.5	7.49	-3.22
9115	-1.018	0.004	0.191	2.52	2.8	-2.17
9134	-0.986	-0.011	0.167	1.4	1.96	-2.38
9150	-0.964	-0.008	0.155	1.89	5.6	-4.06
9175	-1.002	-0.017	0.183	4.55	8.33	-5.95
9195	-1.023	0.008	0.183	6.72	6.3	-4.76
9214	-0.994	0.027	0.163	4.97	4.34	-4.69
9238	-0.992	0.039	0.155	2.66	5.46	-6.02
9256	-1.022	0.039	0.172	3.57	8.75	-4.76
9276	-1.033	0.007	0.169	5.67	9.1	-2.8
9298	-1.007	-0.009	0.128	1.61	6.93	-1.61
9317	-0.97	0.001	0.11	-1.47	8.82	-2.17
9341	-0.986	0.014	0.149	-2.17	13.16	-4.48
9358	-1.024	0.017	0.179	0.56	12.32	-3.92
9378	-1.025	-0.019	0.15	4.48	11.97	-2.66
9400	-1.023	-0.018	0.116	5.25	12.95	-2.45
9422	-1.006	0.029	0.098	2.31	13.58	-2.03
9440	-0.992	0.002	0.089	1.26	13.79	-1.33
9464	-1.001	0.01	0.086	0.0	14.98	-1.75
9482	-1.013	0.021	0.095	-0.98	14.91	-0.35
9503	-1.026	0.002	0.079	-2.31	12.81	0.35
9526	-1.008	0.0	0.049	-7.35	13.3	-0.14
9544	-1.019	-0.021	0.061	-7.84	14.7	-0.77
9568	-1.039	-0.035	0.087	-6.72	13.86	-1.33
9588	-1.064	-0.036	0.099	-5.88	12.11	-1.33
9607	-1.06	-0.019	0.086	-4.34	9.59	-0.77
9627	-1.047	0.001	0.064	-2.24	7.98	0.42
9652	-1.017	0.003	0.044	-0.7	7.28	3.36
9668	-1.008	0.008	0.033	-1.33	6.86	3.57
9688	-1.003	0.01	0.033	-2.45	6.72	3.5
9708	-1.011	0.011	0.03	-3.43	5.67	3.15
9732	-1.02	0.002	0.025	-4.62	4.97	1.82
9751	-1.025	0.002	0.02	-4.9	4.34	0.91
9772	-1.024	-0.0	0.021	-4.41	3.92	0.35
9792	-1.027	-0.004	0.019	-3.71	3.43	0.35
9809	-1.023	-0.007	0.021	-3.22	2.66	0.28
9829	-1.018	-0.012	0.022	-1.96	1.68	0.07
9849	-1.019	-0.003	0.025	-0.7	0.42	-0.07
9873	-1.024	0.002	0.021	1.19	0.07	0.77
9890	-1.031	0.005	0.021	2.03	-0.21	1.05
9915	-1.029	0.008	0.024	1.82	-0.98	0.63
9932	-1.025	0.007	0.02	1.61	-1.26	0.28
9954	-1.021	0.008	0.032	2.8	-0.98	0.07
9974	-1.017	-0.001	0.031	3.08	-1.61	-0.21
9994	-1.01	-0.009	0.025	3.01	-1.82	-0.7
10017	-1.006	0.0	0.027	4.2	-1.47	-1.4
10037	-1.011	-0.0	0.035	3.85	-1.26	-1.47
10062	-1.012	-0.005	0.025	3.85	-1.89	-1.61
10080	-1.008	0.001	0.022	4.48	-1.33	-1.54
10100	-1.014	0.003	0.034	5.18	-1.12	-1.33
10121	-1.022	0.011	0.031	5.74	-1.33	-1.05
10145	-1.02	0.014	0.027	5.74	-1.68	-1.05
10165	-1.017	0.019	0.026	5.25	-1.96	-1.05
10183	-1.013	0.019	0.026	4.55	-1.68	-1.19
10205	-1.014	0.017	0.03	3.43	-1.82	-1.26
10225	-1.013	0.019	0.036	2.52	-2.24	-1.19
10243	-1.016	0.017	0.039	1.96	-2.52	-1.19
10261	-1.015	0.017	0.036	1.89	-2.73	-1.26
10285	-1.017	0.007	0.038	1.19	-3.36	-1.19
10306	-1.021	0.01	0.033	1.33	-3.71	-1.12
10325	-1.019	0.011	0.032	0.98	-3.99	-0.91
10345	-1.022	0.008	0.031	0.21	-3.99	-0.98
10365	-1.016	0.012	0.032	-0.21	-4.13	-1.26
10386	-1.014	0.011	0.029	0.63	-4.41	-1.54
10410	-1.018	0.012	0.025	1.68	-5.46	-1.33
10429	-1.019	0.017	0.019	1.96	-6.58	-0.98
10450	-1.011	0.014	0.021	0.98	-7.98	-0.84
10470	-1.03	0.003	0.045	0.56	-9.59	-0.91
10495	-1.049	-0.004	0.062	1.96	-13.16	-0.91
10514	-1.044	-0.001	0.041	3.57	-16.59	-0.77
10538	-1.034	0.006	0.026	4.13	-16.52	-0.28
10558	-1.042	0.009	0.053	4.27	-16.24	0.21
10578	-1.041	0.009	0.069	3.78	-18.13	0.42
10598	-1.032	0.01	0.077	2.66	-20.58	0.42
10618	-1.022	0.013	0.084	0.98	-22.19	-0.21
10640	-1.017	0.019	0.096	0.28	-22.89	-1.19
10660	-1.02	0.023	0.103	0.0	-23.17	-1.89
10681	-1.026	0.023	0.11	-0.98	-22.12	-2.31
10705	-1.037	0.027	0.131	-2.87	-20.23	-1.89
10725	-1.039	0.013	0.152	-2.59	-18.83	-1.33
10742	-1.034	0.01	0.167	-1.82	-18.62	-0.28
10765	-1.024	0.002	0.172	-0.91	-18.83	1.33
10788	-1.006	0.004	0.174	0.91	-16.8	2.73
10806	-1.002	0.019	0.191	3.29	-15.26	3.43
10826	-0.998	0.019	0.19	2.52	-13.44	4.83
10850	-1.124	0.014	0.191	0.98	-9.24	3.85
10870	-1.0	0.024	0.204	1.19	-5.81	3.5
10890	-1.006	0.039	0.221	0.28	-5.46	2.73
10908	-1.002	0.012	0.204	0.07	-5.11	1.33
10930	-1.009	-0.0	0.193	0.0	-3.29	3.64
10953	-0.996	0.006	0.198	0.0	-1.05	3.85
10972	-1.014	-0.004	0.209	0.35	-0.84	4.06
10992	-0.998	0.02	0.197	0.63	-1.75	4.34
11016	-0.991	0.02	0.177	0.28	-0.98	3.22
11034	-0.982	0.013	0.17	0.14	0.42	0.14
11054	-0.96	0.043	0.183	-0.98	4.69	-2.94
11078	-0.959	0.044	0.186	1.61	3.64	-3.01
11097	-0.955	0.039	0.177	2.52	1.75	-2.38
11117	-0.976	0.037	0.17	3.08	1.12	-1.61
11138	-0.996	0.041	0.17	4.34	1.26	-0.91
11157	-1.003	0.042	0.167	4.2	2.73	-0.91
11178	-1.021	0.037	0.168	3.36	2.8	-1.54
11198	-1.017	0.031	0.172	2.8	1.96	-2.8
11217	-1.011	0.037	0.169	2.1	1.4	-3.01
11236	-1.003	0.036	0.157	2.38	1.68	-1.89
11258	-0.994	0.032	0.163	2.31	2.87	-1.26
11281	-0.994	0.038	0.157	2.8	3.01	-0.21
11300	-0.99	0.019	0.146	2.8	3.01	0.35
11325	-0.994	0.025	0.127	2.59	2.59	-0.56
11341	-0.998	0.032	0.126	1.75	1.54	-1.33
11364	-0.995	0.041	0.119	-0.98	1.19	-2.45
11385	-0.995	0.051	0.118	-2.38	0.98	-2.94
11404	-0.995	0.046	0.118	-3.5	1.19	-3.08
11425	-0.995	0.032	0.128	-3.5	0.84	-3.01
11444	-1.008	0.015	0.132	-3.92	-0.28	-2.31
11468	-1.006	0.01	0.122	-3.08	-1.05	-1.75
11488	-1.002	0.004	0.126	-2.38	-1.12	-1.47
11503	-1.0	0.011	0.122	-1.33	-1.61	-1.4
11528	-0.994	0.015	0.12	-0.49	-1.19	-1.19
11547	-0.997	0.017	0.131	0.07	-0.98	-1.47
11565	-1.003	0.02	0.127	1.96	-1.33	-1.4
11588	-1.006	0.015	0.146	2.1	-1.26	-1.54
11609	-1.005	0.015	0.137	1.4	-0.98	-1.75
11625	-1.001	0.023	0.139	1.4	-0.28	-1.89
11649	-1.01	0.021	0.152	0.7	-0.28	-2.1
11669	-1.006	0.019	0.143	1.4	-1.4	-2.17
11688	-0.997	0.021	0.132	1.82	-1.4	-2.03
11705	-0.996	0.017	0.142	2.1	-1.54	-1.82
11725	-0.994	0.013	0.139	2.73	-1.68	-1.61
11749	-0.992	0.015	0.137	3.29	-1.54	-1.54
11769	-1.0	0.017	0.137	3.71	-1.82	-1.54
11788	-1.005	0.024	0.13	3.5	-1.54	-1.68
11808	-1.006	0.026	0.131	3.36	-1.54	-2.1
11827	-1.0	0.024	0.133	2.66	-1.75	-1.96
11851	-0.987	0.029	0.122	1.89	-1.54	-2.03
11871	-0.982	0.034	0.127	-0.21	-0.21	-2.1
11891	-1.0	0.038	0.153	-1.75	-2.66	-1.96
11911	-1.013	0.024	0.152	-1.89	-6.44	-1.68
11929	-1.017	0.014	0.142	-2.52	-9.1	-1.75
11949	-1.011	0.017	0.128	-1.61	-10.08	-2.31
11973	-0.992	0.01	0.123	-1.12	-8.82	-3.01
11992	-0.995	0.012	0.137	-1.33	-6.3	-3.43
12016	-1.012	0.012	0.153	-2.59	-5.95	-3.99
12035	-1.008	0.02	0.149	-1.12	-5.53	-3.64
12055	-0.998	0.015	0.163	-3.78	-5.46	-1.89
12072	-1.006	0.013	0.169	-3.29	-5.32	-1.68
12097	-1.009	0.009	0.169	-1.89	-5.88	-0.77
12111	-0.993	0.005	0.166	-1.26	-5.95	0.14
12136	-0.993	0.001	0.187	-1.68	-4.69	0.84
12157	-0.989	-0.01	0.191	-2.73	-4.9	0.84
12176	-0.98	0.003	0.174	-2.17	-4.55	0.0
12192	-0.976	0.031	0.18	-0.28	-3.15	-0.42
12216	-1.001	0.029	0.198	2.73	-3.5	1.4
12232	-1.012	0.007	0.188	4.41	-4.27	2.17
12251	-1.012	0.006	0.181	2.94	-2.87	2.31
12275	-1.015	0.005	0.174	1.05	-2.94	1.75
12295	-0.999	0.02	0.169	0.77	-2.38	-0.07
12319	-0.987	0.016	0.166	1.61	-0.07	-1.05
12339	-0.988	0.027	0.194	-0.14	2.8	-3.15
12359	-0.972	0.043	0.202	-1.96	3.43	-4.55
12378	-0.982	0.036	0.196	-1.96	5.67	-5.18
12398	-1.002	0.015	0.211	-0.49	6.72	-5.39
12416	-0.995	0.009	0.207	-0.42	6.3	-4.9
12436	-0.976	0.03	0.201	-0.42	8.75	-4.62
12460	-0.992	0.004	0.215	0.28	9.73	-4.55
12476	-1.005	-0.003	0.187	0.0	9.87	-4.55
12500	-1.017	0.004	0.171	0.07	11.27	-5.18
12519	-1.018	0.005	0.178	1.26	12.39	-5.81
12539	-1.014	0.015	0.196	1.12	13.23	-5.74
12558	-1.026	0.021	0.18	-0.63	11.48	-5.32
12578	-1.003	0.007	0.147	-1.89	11.27	-5.53
12600	-1.013	0.001	0.15	-2.31	12.18	-5.18
12620	-1.013	-0.017	0.145	-0.14	11.2	-5.04
12644	-0.995	-0.021	0.124	0.0	10.92	-4.69
12662	-1.0	-0.009	0.118	-0.98	12.11	-4.69
12683	-1.017	0.009	0.123	0.21	13.09	-4.55
12702	-1.031	0.006	0.129	2.17	11.34	-3.57
12726	-1.018	-0.005	0.099	1.33	10.43	-2.24
12745	-1.027	-0.005	0.106	-1.68	11.41	-2.24
12770	-1.031	0.006	0.115	-2.03	9.73	-3.36
12789	-1.035	-0.006	0.112	0.42	8.12	-2.31
12812	-1.036	-0.022	0.103	1.26	6.79	0.0
12831	-1.018	-0.039	0.081	-0.7	5.46	0.77
12855	-1.0	-0.013	0.068	-4.2	6.16	0.07
12874	-1.012	-0.005	0.074	-4.2	5.81	-1.05
12892	-1.019	-0.025	0.069	-1.75	5.67	-2.17
12916	-1.024	-0.02	0.075	1.47	5.11	-0.56
12936	-1.034	-0.034	0.083	3.08	4.69	1.26
12955	-1.033	-0.032	0.082	3.01	4.06	2.38
12976	-1.032	-0.012	0.081	2.03	3.29	2.59
12996	-1.027	-0.0	0.075	0.98	1.96	2.52
13015	-1.017	0.124	0.068	0.49	1.47	2.17
13035	-1.009	0.003	0.06	0.28	1.47	1.68
13055	-1.01	-0.004	0.06	0.42	1.68	1.54
13075	-1.011	-0.007	0.061	1.54	1.54	1.61
13099	-1.009	-0.019	0.053	2.31	0.91	2.1
13117	-1.005	-0.021	0.048	2.59	1.33	2.17
13140	-1.014	-0.007	0.053	3.71	2.38	1.96
13160	-1.016	0.002	0.059	3.85	2.31	1.68
13178	-1.022	0.004	0.057	3.15	1.68	1.4
13197	-1.017	0.005	0.052	2.52	1.75	0.77
13221	-1.02	0.002	0.062	2.38	1.89	0.63
13241	-1.022	0.004	0.056	2.66	1.47	0.63
13265	-1.018	0.004	0.052	3.5	1.47	0.77
13285	-1.016	0.003	0.051	4.06	1.54	0.91
13305	-1.015	0.002	0.054	4.48	1.26	0.91
13324	-1.016	-0.001	0.054	4.9	1.05	0.91
13348	-1.023	0.0	0.049	5.46	0.56	0.77
13372	-1.025	-0.002	0.05	5.67	0.07	0.77
13392	-1.027	-0.002	0.05	5.53	-0.84	0.63
13416	-1.019	0.002	0.043	5.25	-2.31	0.21
13436	-1.013	0.014	0.044	5.04	-2.17	0.0
13454	-1.01	0.014	0.05	4.55	-2.1	0.0
13476	-1.016	0.017	0.051	3.85	-2.59	-0.21
13494	-1.015	0.022	0.049	3.64	-2.94	-0.28
13518	-1.013	0.022	0.055	3.08	-3.22	-0.07
13538	-1.018	0.025	0.062	2.38	-3.5	0.14
13557	-1.019	0.026	0.061	1.82	-3.92	0.21
13581	-1.014	0.021	0.058	1.26	-4.13	0.28
13597	-1.019	0.019	0.061	1.05	-4.27	0.28
13617	-1.021	0.016	0.065	0.77	-4.69	0.35
13637	-1.023	0.015	0.066	0.49	-5.88	0.42
13662	-1.017	0.016	0.062	0.07	-6.51	0.35
13680	-1.017	0.02	0.068	-0.28	-6.93	0.21
13700	-1.019	0.02	0.07	-0.14	-7.35	0.28
13722	-1.02	0.018	0.063	0.07	-6.93	0.21
13738	-1.022	0.015	0.067	0.14	-7.07	0.35
13758	-1.02	0.012	0.069	0.7	-7.7	0.56
13779	-1.015	0.012	0.065	0.91	-8.4	0.42
13802	-1.014	0.01	0.062	0.84	-8.89	0.07
13817	-1.018	0.014	0.064	0.98	-8.33	-0.21
13843	-1.027	0.02	0.073	1.05	-7.28	-0.49
13862	-1.027	0.025	0.079	-0.35	-7.91	-1.33
13882	-1.026	0.03	0.084	-1.12	-10.01	-2.24
13901	-1.033	0.032	0.078	-1.26	-13.16	-2.87
13926	-1.028	0.02	0.07	-0.77	-15.19	-1.89
13944	-1.027	0.012	0.074	0.14	-14.56	-0.98
13962	-1.037	0.02	0.094	2.24	-13.65	-0.14
13985	-1.043	0.024	0.109	3.22	-15.12	1.47
14003	-1.032	0.008	0.105	4.13	-17.22	2.03
14022	-1.028	0.003	0.13	4.13	-19.11	1.75
14045	-1.017	0.012	0.144	3.36	-22.33	1.12
14064	-1.01	0.015	0.131	2.45	-22.68	-0.07
14089	-1.017	0.025	0.137	0.49	-20.72	-0.91
14108	-1.023	0.028	0.155	-1.05	-19.32	-1.47
14128	-1.021	0.031	0.184	-1.68	-18.13	-1.96
14147	-1.024	0.023	0.207	-1.75	-17.99	-1.68
14172	-1.007	0.028	0.201	-1.89	-18.34	-0.84
14190	-0.979	0.028	0.202	-1.4	-17.22	-0.21
14215	-0.981	0.02	0.211	-1.54	-14.7	0.49
14234	-0.98	0.026	0.212	-1.19	-12.88	0.7
14253	-0.982	0.029	0.222	-1.4	-9.52	0.84
14273	-0.989	0.024	0.233	-1.68	-7.77	0.42
14293	-0.986	0.023	0.228	-1.96	-6.09	-0.28
14317	-0.996	0.024	0.243	-2.87	-3.71	-0.07
14334	-0.992	0.019	0.239	-2.59	-2.17	-0.42
14357	-0.991	0.014	0.231	-3.29	0.21	-0.84
14377	-1.003	0.004	0.234	-3.29	2.52	-0.7
14396	-1.015	0.005	0.221	-2.87	6.16	-0.28
14421	-1.005	-0.002	0.226	-0.28	8.05	-0.21
14441	-1.008	0.005	0.224	-0.42	9.52	-0.49
14460	-1.012	0.009	0.205	-0.56	9.94	-2.03
14480	-0.989	0.024	0.203	1.47	9.66	-2.66
14501	-0.98	0.032	0.192	2.87	10.29	-2.94
14525	-0.994	0.042	0.198	2.8	9.66	-2.45
14545	-0.992	0.036	0.19	2.66	7.07	-2.03
14564	-0.986	0.035	0.165	2.87	6.16	-2.03
14589	-0.984	0.025	0.16	3.22	5.88	-1.96
14609	-0.982	0.021	0.16	3.5	5.67	-2.1
14629	-0.987	0.023	0.151	4.34	4.83	-1.82
14648	-0.984	0.02	0.142	4.2	4.9	-1.47
14667	-0.989	0.022	0.145	3.85	5.53	-1.33
14690	-0.995	0.023	0.148	3.08	4.76	-1.33
14713	-1.006	0.03	0.126	1.75	4.55	-1.68
14733	-1.004	0.035	0.137	1.75	4.55	-1.61
14753	-1.005	0.036	0.146	2.59	3.99	-1.12
14773	-1.001	0.034	0.143	2.1	2.66	-0.21
14797	-1.003	0.033	0.144	-0.21	1.33	0.56
14817	-1.006	0.023	0.132	-1.75	0.21	0.14
14840	-1.019	0.035	0.138	-2.45	-1.05	-0.7
14861	-1.015	0.032	0.131	-3.08	-1.33	-1.33
14883	-1.018	0.024	0.128	-3.99	-1.33	-1.47
14903	-1.008	0.017	0.123	-5.25	-1.05	-1.82
14922	-1.004	0.016	0.124	-5.74	-0.91	-2.17
14947	-1.01	0.015	0.13	-5.46	-1.26	-1.82
14965	-1.016	0.008	0.126	-4.9	-2.03	-1.89
14984	-1.007	-0.002	0.117	-4.83	-2.24	-2.38
15009	-1.012	0.009	0.131	-3.78	-2.24	-1.61
15027	-0.997	0.008	0.121	-3.64	-2.17	-1.4
15049	-0.988	0.015	0.148	-1.26	-1.26	-1.47
15069	-0.99	0.013	0.146	0.35	-1.96	-1.33
15091	-0.984	0.014	0.126	1.75	-2.17	-1.75
15111	-0.998	0.014	0.142	2.1	-1.96	-1.68
15135	-1.0	0.007	0.141	1.89	-2.59	-1.26
15155	-0.999	0.008	0.139	1.54	-2.66	-1.47
15174	-0.984	0.011	0.129	1.54	-2.03	-1.96
15194	-0.995	0.011	0.143	1.33	-1.82	-1.75
15218	-0.993	0.015	0.137	1.75	-0.56	-1.68
15238	-0.998	0.012	0.153	2.8	-0.21	-1.47
15257	-1.004	0.009	0.155	3.01	-0.14	-1.4
15277	-1.005	0.015	0.148	3.5	-0.21	-1.47
15300	-1.004	0.018	0.142	3.92	-0.14	-1.47
15321	-1.003	0.024	0.141	3.99	0.7	-1.68
15338	-1.005	0.025	0.142	3.64	0.77	-1.61
15359	-1.01	0.02	0.143	2.8	0.35	-1.61
15378	-1.003	0.018	0.135	1.4	0.14	-1.75
15403	-0.998	0.02	0.133	0.77	0.56	-1.89
15424	-1.005	0.016	0.138	0.7	0.35	-1.68
15442	-1.0	0.015	0.135	0.91	0.28	-1.68
15465	-1.002	0.019	0.139	0.91	0.63	-1.68
15489	-1.006	0.015	0.142	0.49	-0.07	-2.17
15509	-1.012	0.014	0.14	-0.98	-1.75	-2.31
15528	-0.999	0.019	0.119	-0.84	-1.19	-2.31
15549	-0.992	0.008	0.133	-0.7	0.14	-2.24
15569	-0.999	0.009	0.147	-0.28	-0.35	-2.45
15593	-1.011	0.004	0.147	-1.89	-2.73	-3.22
15613	-1.009	0.015	0.129	-1.61	-4.06	-3.22
15632	-0.993	0.004	0.132	-2.31	-3.01	-2.8
15651	-0.992	-0.014	0.148	-2.38	-2.17	-3.99
15670	-1.012	-0.021	0.166	16.94	-4.06	-2.52
15695	-1.018	0.012	0.152	2.17	-4.55	-3.85
15710	-1.003	0.035	0.141	3.64	-3.22	-3.85
15735	-0.993	0.024	0.157	3.29	-0.56	-2.87
15755	-1.016	0.0	0.175	-0.49	-1.54	-3.92
15775	-1.015	0.034	0.152	-2.1	-3.57	-5.04
15793	-1.005	0.031	0.142	-1.96	-2.31	-4.69
15817	-1.002	0.009	0.163	-1.54	-2.03	-2.17
15833	-0.991	-0.041	0.159	-3.15	-2.38	-1.12
15855	-0.986	-0.03	0.159	-3.57	-1.33	-1.12
15877	-0.999	0.001	0.162	-1.4	-0.7	-0.98
15892	-1.003	0.003	0.169	0.98	0.21	-0.28
15917	-1.002	-0.035	0.161	2.31	0.98	1.05
15937	-0.996	-0.028	0.163	2.38	2.8	0.56
15953	-0.991	-0.011	0.169	3.01	4.48	0.21
15975	-1.003	-0.002	0.186	4.34	4.76	0.14
15999	-1.006	-0.012	0.178	5.11	5.74	-0.35
16019	-1.011	-0.007	0.175	2.38	4.76	-0.35
16039	-0.993	0.019	0.151	0.14	4.34	-1.12
16063	-0.993	0.031	0.163	-0.42	6.23	-2.8
16083	-0.997	0.019	0.178	0.63	7.56	-3.22
16102	-0.995	0.016	0.162	0.91	7.42	-3.08
16122	-0.993	-0.005	0.139	0.28	7.28	-3.22
16142	-1.004	-0.006	0.132	1.54	8.96	-2.73
16166	-1.02	-0.005	0.146	3.85	9.73	-1.54
16186	-1.026	-0.018	0.146	4.97	8.75	0.14
16206	-0.992	-0.02	0.095	2.17	8.68	-0.07
16226	-0.98	0.013	0.093	0.42	11.76	-2.24
16245	-1.001	0.009	0.125	1.96	13.23	-3.01
16269	-1.004	0.006	0.127	2.94	10.43	-1.12
16293	-0.996	0.016	0.088	1.19	9.8	0.49
16313	-1.004	0.028	0.075	0.07	12.46	1.47
16329	-1.046	0.018	0.09	0.0	14.49	2.17
16352	-1.072	-0.01	0.112	0.07	14.28	1.89
16372	-1.078	-0.032	0.101	0.07	11.55	1.12
16392	-1.049	-0.022	0.068	-0.07	9.66	0.49
16411	-1.016	-0.017	0.052	-1.19	7.7	-0.07
16436	-0.994	-0.008	0.024	-1.47	6.79	-1.05
16452	-0.991	0.013	0.054	-1.68	7.7	-0.91
16475	-1.027	0.011	0.077	-2.59	6.65	-0.77
16492	-1.046	0.006	0.068	-3.08	4.48	-0.84
16515	-1.037	-0.001	0.04	-2.59	3.78	-0.56
16535	-1.033	-0.002	0.039	-1.05	3.64	-0.49
16555	-1.027	-0.003	0.041	0.28	3.22	-0.14
16579	-1.025	0.002	0.05	1.05	2.66	0.35
16599	-1.022	0.002	0.051	1.96	1.4	0.7
16619	-1.017	0.003	0.05	2.1	0.63	0.91
16637	-1.017	-0.002	0.046	1.82	-0.14	0.35
16662	-1.014	-0.013	0.041	1.26	-1.82	-0.63
16681	-1.01	-0.009	0.034	1.19	-2.73	-1.33
16696	-1.008	0.002	0.024	1.54	-2.1	-1.47
16721	-1.022	0.007	0.041	1.61	-1.19	-1.05
16740	-1.034	0.008	0.051	1.54	-1.19	-0.77
16765	-1.032	0.005	0.057	1.96	-2.17	-0.35
16783	-1.028	0.004	0.061	2.1	-3.29	-0.21
16804	-1.019	0.004	0.056	2.87	-4.83	17.78
16822	-1.014	0.008	0.049	3.43	-5.04	-0.14
16845	-1.015	0.011	0.043	3.36	-4.41	-0.14
16869	-1.013	0.005	0.051	3.15	-4.27	-0.21
16889	-1.012	0.006	0.047	2.94	-4.34	-0.42
16907	-1.013	0.01	0.045	2.52	-4.13	-0.7
16927	-1.012	0.007	0.045	2.45	-3.71	-0.84
16947	-1.016	0.006	0.052	2.24	-3.22	-0.91
16966	-1.018	0.008	0.06	2.1	-3.64	-0.77
16986	-1.015	0.01	0.061	1.82	-4.06	-0.42
17011	-1.015	0.012	0.061	1.68	-3.99	-0.14
17030	-1.013	0.016	0.062	1.68	-3.64	-0.07
17049	-1.014	0.011	0.065	1.89	-3.71	0.14
17073	-1.016	0.011	0.065	1.75	-4.13	0.35
17092	-1.017	0.011	0.066	1.47	-4.41	0.28
17116	-1.019	0.012	0.067	1.33	-4.55	0.07
17136	-1.018	0.013	0.065	1.61	-5.18	0.14
17155	-1.02	0.009	0.062	1.33	-6.02	-0.07
17173	-1.019	0.012	0.05	1.4	-7.35	-0.07
17197	-1.007	0.016	0.045	1.26	-7.35	-0.28
17215	-1.017	0.017	0.048	1.89	-6.3	-0.49
17239	-1.018	0.013	0.045	1.75	-5.95	-0.35
17259	-1.006	0.012	0.035	0.49	-5.74	-0.84
17279	-1.019	0.014	0.053	0.28	-6.02	-1.26
17296	-1.038	0.008	0.069	0.49	-6.93	-1.05
17318	-1.046	0.007	0.066	0.07	-8.26	-1.12
17339	-1.051	0.009	0.078	0.0	-9.52	-1.61
17358	-1.054	0.02	0.084	0.21	-11.34	-1.89
17378	-1.048	0.016	0.098	0.91	-12.95	-2.17
17402	-1.041	0.0	0.104	2.17	-15.19	-1.75
17422	-1.023	0.009	0.105	2.87	-15.96	-1.61
17439	-1.016	0.012	0.111	3.5	-14.7	-1.61
17462	-1.02	0.019	0.137	4.13	-12.74	-0.63
17483	-1.026	0.005	0.152	3.57	-12.88	-0.07
17502	-1.025	0.015	0.16	2.52	-12.04	-0.28
17527	-1.019	0.016	0.169	1.89	-11.83	-0.35
17545	-0.997	0.011	0.179	1.75	-10.92	0.14
17569	-1.003	0.022	0.18	1.54	-8.68	1.12
17589	-1.008	0.019	0.185	0.63	-7.84	2.1
17608	-1.002	0.013	0.178	0.07	-6.93	2.1
17627	-0.995	0.025	0.17	-1.12	-6.09	1.47
17647	-0.986	0.018	0.162	-2.66	-4.27	0.84
17671	-0.992	-0.006	0.162	-1.89	-0.42	0.77
17690	-1.007	-0.012	0.187	-0.49	1.82	0.77
17714	-1.02	-0.006	0.189	0.77	0.56	0.84
17733	-1.021	-0.003	0.174	1.12	-0.56	0.63
17753	-1.013	0.004	0.156	0.77	-1.19	0.0
17772	-1.0	0.026	0.152	1.4	-1.61	-1.19
17796	-1.001	0.036	0.149	0.98	-1.4	-2.17
17813	-1.002	0.036	0.153	0.35	-1.89	-1.75
17831	-0.998	0.018	0.148	0.7	-1.61	-3.22
17855	-0.985	0.031	0.142	1.54	-2.03	-1.89
17876	-0.983	0.012	0.141	1.47	-2.03	-1.68
17896	-0.981	0.017	0.148	0.77	-1.82	-2.66
17915	-0.986	0.02	0.152	0.63	-1.82	-3.36
17934	-0.999	0.02	0.155	1.19	-1.82	-3.92
17954	-1.0	0.016	0.144	0.84	-2.03	-4.27
17973	-0.997	0.013	0.135	0.91	-1.33	-3.43
17998	-1.007	0.009	0.142	1.54	-0.35	-2.66
18018	-1.014	0.015	0.142	2.87	0.0	-2.24
18035	-1.027	0.013	0.154	2.8	0.49	-1.19
18056	-1.032	0.011	0.156	3.08	0.28	-0.91
18075	-1.017	0.016	0.157	3.22	0.28	-0.84
18100	-1.008	0.017	0.163	3.92	-1.05	-0.91
18118	-0.998	0.015	0.156	3.85	-2.31	-0.77
18142	-0.984	0.02	0.142	3.57	-2.8	-0.84
18162	-0.987	0.021	0.143	2.38	-2.38	-0.63
18178	-0.985	0.021	0.137	1.68	-2.45	-0.42
18202	-0.985	0.022	0.131	0.98	-2.38	-0.35
18222	-0.99	0.024	0.13	0.14	-2.1	-0.63
18242	-0.996	0.021	0.119	-1.19	-1.61	-1.19
18259	-1.008	0.021	0.121	-1.89	-1.61	-1.19
18279	-1.01	0.021	0.121	-2.45	-1.82	-1.4
18303	-1.014	0.013	0.118	-2.94	-2.73	-0.84
18324	-1.013	0.008	0.129	-3.29	-3.43	-0.84
18343	-1.004	0.012	0.128	-3.29	-4.06	-0.42
18361	-0.995	0.009	0.128	-3.08	-3.85	-0.21
18381	-0.994	0.013	0.135	-3.08	-3.78	-0.14
18401	-0.988	0.009	0.136	-2.94	-3.92	-0.21
18425	-0.991	0.008	0.144	-3.01	-2.94	-1.12
18445	-0.993	0.001	0.146	-2.59	-1.75	-1.4
18465	-0.997	0.002	0.149	-2.59	-0.84	-1.19
18489	-1.008	0.006	0.163	-2.17	-0.35	-0.77
18508	-1.009	0.014	0.171	-1.68	-0.42	-0.56
18528	-1.013	0.012	0.167	-1.61	-0.98	-0.35
18545	-1.006	0.016	0.167	-1.47	-0.98	-0.28
18569	-1.006	0.015	0.169	-0.91	-0.7	-0.35
18586	-1.004	0.015	0.163	-0.42	-0.7	-0.14
18606	-1.003	0.019	0.155	0.35	-0.63	0.14
18626	-1.002	0.02	0.148	0.14	-0.14	-0.14
18650	-1.001	0.022	0.148	-0.14	0.14	-0.35
18670	-1.003	0.02	0.149	-0.14	0.28	-0.21
18689	-1.001	0.013	0.143	-0.28	0.35	-0.21
18706	-1.003	0.014	0.143	-0.56	0.14	-0.21
18726	-1.008	0.011	0.14	-0.98	-0.28	-0.07
18747	-1.005	0.007	0.137	-1.33	-0.91	-0.35
18767	-1.007	0.009	0.14	-1.33	-1.12	-0.35
18786	-0.999	0.016	0.131	-0.28	-1.89	-0.49
18810	-0.996	0.02	0.132	-0.84	-2.59	-0.56
18830	-0.994	0.015	0.132	-2.03	-3.15	-0.7
18850	-0.992	0.015	0.133	-2.94	-3.57	-1.26
18874	-0.991	0.029	0.136	-1.68	-4.34	-1.47
18894	-0.998	0.023	0.136	0.14	-4.69	-1.33
18910	-1.005	0.017	0.14	0.91	-4.48	-0.84
18932	-1.009	0.014	0.143	0.42	-4.06	-0.91
18954	-1.005	0.01	0.144	-0.56	-3.22	-1.68
18974	-1.004	0.011	0.152	-1.12	-2.66	-2.31
18994	-0.993	0.059	0.158	0.56	-3.85	-1.4
19013	-0.992	0.016	0.156	-0.35	-3.36	-1.75
19030	-1.005	0.023	0.158	1.12	-3.43	-1.4
19051	-1.009	0.008	0.163	1.12	-3.85	-0.07
19075	-0.992	-0.009	0.151	-0.35	-3.29	-0.07
19096	-0.995	0.005	0.152	-0.28	-1.89	-1.4
19115	-0.99	0.027	0.172	3.29	-0.42	-1.12
19134	-0.998	0.008	0.174	4.83	-0.91	-0.42
19153	-0.995	0.002	0.169	3.22	-0.56	0.28
19170	-0.995	0.013	0.181	1.89	0.98	0.14
19196	-1.013	0.022	0.192	1.47	2.38	-0.98
19215	-1.022	0.025	0.19	3.43	2.73	-0.91
19235	-0.996	0.017	0.15	4.55	3.15	-0.98
19254	-0.99	0.043	0.174	4.41	3.99	-0.28
19272	-0.996	0.017	0.193	3.5	1.82	0.49
19296	-1.017	-0.007	0.19	2.38	-1.26	0.28
19317	-0.987	-0.012	0.157	2.24	-2.38	-0.28
19336	-0.969	0.012	0.146	1.4	0.63	-0.84
19356	-0.963	-0.001	0.174	0.7	3.92	-2.38
19375	-0.965	-0.016	0.172	1.75	4.76	-3.85
19399	-0.987	-0.006	0.163	6.3	9.31	-5.39
19419	-1.017	-0.0	0.188	9.45	11.76	-6.16
19439	-1.007	0.001	0.192	9.03	10.71	-5.46
19463	-1.002	0.031	0.166	7.21	10.57	-5.88
19483	-1.003	0.041	0.151	5.18	11.83	-5.18
19503	-1.007	0.047	0.16	6.37	14.91	-4.27
19522	-1.021	0.022	0.161	7.07	14.91	-3.15
19546	-1.01	0.011	0.145	7.42	14.98	-0.77
19567	-1.003	0.009	0.129	5.53	13.23	-0.7
19586	-1.006	0.026	0.115	3.5	14.28	-2.03
19604	-1.018	0.048	0.106	3.57	15.54	-2.94
19626	-1.027	0.046	0.097	0.84	14.56	-0.35
19642	-1.011	0.024	0.071	-3.36	12.53	0.35
19662	-1.011	0.02	0.057	-4.97	12.18	0.91
19686	-1.027	-0.013	0.084	-5.18	11.97	0.0
19706	-1.048	0.004	0.076	-4.55	10.78	0.56
19726	-1.057	-0.021	0.065	-4.34	10.64	-0.28
19746	-1.06	-0.015	0.067	-3.85	8.05	0.35
19767	-1.044	-0.017	0.067	-3.15	4.27	0.14
19786	-1.021	-0.005	0.056	-3.01	2.24	17.78
19804	-1.01	-0.012	0.043	-1.96	2.1	-0.63
19829	-1.03	-0.003	0.048	-1.12	3.08	-0.84
19848	-1.04	0.006	0.054	-0.21	2.73	0.35
19868	-1.05	0.013	0.059	0.14	0.42	1.47
19887	-1.043	0.011	0.048	0.77	-1.12	1.82
19907	-1.034	0.007	0.05	1.19	-1.05	1.47
19931	-1.025	0.006	0.048	1.4	-1.05	1.19
19951	-1.012	0.004	0.048	2.73	-1.47	1.12
19971	-1.002	0.006	0.046	3.22	-1.4	0.63
19991	-1.011	0.007	0.048	2.73	-0.77	-0.14
20007	-1.018	0.01	0.049	2.45	0.0	-0.49
20029	-1.017	0.009	0.054	2.45	0.0	-0.98
20051	-1.018	0.008	0.065	2.87	0.0	-1.47
20071	-1.023	0.006	0.067	3.15	-0.49	-1.54
20094	-1.028	0.011	0.069	3.36	-1.26	-1.75
20115	-1.026	0.017	0.063	3.92	-2.59	-1.75
20132	-1.021	0.02	0.061	3.85	-3.22	-1.54
20152	-1.015	0.019	0.061	3.71	-3.5	-1.33
20171	-1.013	0.02	0.053	3.36	-3.22	-0.98
20196	-1.009	0.02	0.06	3.08	-2.66	-0.7
20217	-1.013	0.019	0.062	2.87	-2.45	-0.49
20236	-1.016	0.02	0.063	2.52	-2.45	-0.35
20252	-1.017	0.02	0.065	2.31	-2.8	-0.21
20272	-1.016	0.017	0.064	1.96	-3.36	-0.07
20296	-1.016	0.019	0.066	1.26	-3.64	-0.42
20316	-1.017	0.016	0.069	0.28	-3.99	-0.56
20335	-1.016	0.013	0.066	-0.28	-4.2	-0.56
20355	-1.011	0.017	0.066	-0.42	-3.78	-0.7
20376	-1.011	0.018	0.067	-0.56	-3.71	-0.56
20401	-1.009	0.016	0.07	-0.84	-3.92	-0.42
20420	-1.01	0.018	0.071	-0.91	-4.06	-0.42
20440	-1.011	0.02	0.07	0.07	-3.92	-0.42
20459	-1.018	0.015	0.077	-0.07	-4.62	-0.35
20483	-1.016	0.011	0.065	-0.56	-4.13	-0.63
20501	-1.024	0.018	0.08	-0.84	-3.5	-0.77
20523	-1.03	0.016	0.08	-1.05	-4.55	-1.05
20543	-1.021	0.024	0.07	-0.63	-5.67	-1.19
20567	-1.011	0.018	0.063	-0.07	-6.02	-1.05
20587	-1.009	0.009	0.058	0.21	-6.23	-0.77
20607	-1.015	0.008	0.056	0.7	-6.58	-0.49
20631	-1.017	0.012	0.054	0.14	-7.07	-0.14
20651	-1.018	0.015	0.059	0.0	-6.79	-0.28
20671	-1.024	0.017	0.069	0.84	-7.07	-0.49
20692	-1.026	0.019	0.078	1.61	-8.05	-0.35
20711	-1.029	0.018	0.069	0.91	-10.08	0.07
20731	-1.03	0.019	0.074	-0.28	-10.85	0.0
20752	-1.031	0.02	0.085	-1.82	-11.76	-0.7
20771	-1.035	0.023	0.094	-1.96	-11.9	-1.54
20796	-1.038	0.02	0.113	-1.47	-13.23	-2.03
20816	-1.031	0.021	0.115	-2.52	-14.91	-2.17
20833	-1.022	0.024	0.122	-2.8	-15.26	-2.52
20852	-1.024	0.031	0.126	-2.94	-15.68	-3.01
20873	-1.016	0.025	0.127	-3.08	-14.35	-2.94
20894	-1.022	0.016	0.15	-2.94	-11.13	-2.17
20918	-1.024	0.01	0.17	-2.03	-9.8	-1.12
20938	-1.018	0.006	0.174	-1.19	-8.96	-0.56
20958	-1.009	0.016	0.181	-0.49	-7.49	-0.35
20977	-1.002	0.015	0.188	0.0	-5.67	-0.35
20997	-0.995	0.017	0.182	-0.28	-3.22	-0.28
21020	-0.992	-0.0	0.202	-0.63	-0.84	-1.61
21040	-0.989	0.02	0.184	-0.77	0.91	-2.8
21063	-0.997	-0.12	0.175	-1.12	3.92	-2.73
21083	-0.992	0.004	0.173	-0.77	6.37	-2.52
21102	-1.016	-0.012	0.184	0.63	7.98	-1.47
21126	-1.028	-0.014	0.191	2.24	9.1	0.21
21146	-1.04	-0.011	0.186	3.08	7.56	1.12
21166	-1.029	0.012	0.166	3.99	4.55	0.63
21183	-1.023	0.025	0.151	3.01	3.08	0.07
21202	-1.009	0.03	0.149	1.54	1.26	-1.05
21226	-1.002	0.04	0.145	-0.21	-1.47	-2.31
21246	-0.99	0.039	0.142	0.21	-2.87	-2.52
21271	-0.987	0.035	0.14	-0.77	-3.78	-1.82
21290	-0.989	0.009	0.114	-1.54	-3.85	-1.75
21310	-0.992	0.026	0.122	0.7	0.56	-3.71
21330	-1.009	0.007	0.141	1.89	0.28	-2.66
21350	-1.011	0.011	0.001	3.15	-0.63	-1.96
21370	-1.009	0.018	0.123	3.57	-0.56	-1.4
21390	-0.998	0.013	0.122	3.64	-1.19	-0.91
21409	-0.985	0.019	0.116	3.71	-0.35	-0.63
21430	-0.996	0.015	0.124	3.57	-0.63	0.14
21454	-1.002	0.014	0.132	2.73	-1.61	0.49
21479	-1.0	0.018	0.128	1.54	-2.24	0.28
21493	-1.0	0.017	0.122	0.56	-2.52	0.35
21518	-0.999	0.019	0.119	0.21	-3.01	-0.07
21537	-0.991	0.008	0.125	0.14	-3.43	-0.56
21558	-0.991	0.016	0.122	-0.63	-4.13	-0.98
21579	-1.001	0.025	0.126	-0.49	-4.62	-0.63
21598	-1.005	0.016	0.12	-1.12	-5.11	-0.49
21618	-1.001	0.012	0.112	-1.61	-4.34	-0.35
21635	-1.008	0.019	0.12	-1.89	-4.13	-0.21
21659	-1.014	0.017	0.118	-1.82	-5.25	0.14
21677	-1.01	0.011	0.115	-2.45	-5.53	-0.21
21699	-1.014	0.02	0.12	-2.45	-5.74	-0.91
21723	-1.02	0.014	0.129	-2.45	-7.35	-1.89
21743	-1.006	0.006	0.123	-2.66	-8.26	-3.22
21763	-0.995	0.019	0.125	-1.75	-7.35	-3.71
21783	-0.982	0.012	0.126	-2.38	-6.86	-3.92
21803	-0.98	0.01	0.13	-2.73	-5.11	-3.78
21827	-0.982	0.015	0.139	-2.31	-2.38	-3.57
21847	-0.994	0.012	0.151	-0.42	-1.82	-2.73
21863	-0.997	0.003	0.156	0.56	-1.68	-2.31
21882	-1.002	0.001	0.157	1.89	-2.1	-1.89
21902	-1.001	-0.002	0.16	2.66	-1.61	-1.75
21927	-1.005	0.0	0.166	2.8	-1.26	-1.89
21945	-1.004	0.006	0.164	2.73	-1.19	-1.89
21965	-1.002	0.002	0.162	2.66	-0.7	-1.96
21988	-1.001	0.0	0.156	2.38	-0.7	-2.1
22008	-1.0	-0.001	0.147	2.24	-0.14	-2.03
22028	-1.001	0.001	0.157	2.59	0.7	-2.1
22052	-1.008	0.013	0.151	3.64	0.42	-1.75
22072	-1.006	0.009	0.148	3.08	0.42	-1.61
22096	-1.002	0.007	0.139	2.45	0.91	-1.89
22116	-1.001	0.008	0.148	1.89	1.19	-1.89
22136	-1.006	0.011	0.148	1.75	0.42	-1.68
22156	-1.004	0.008	0.144	1.61	0.0	-1.47
22176	-1.005	0.009	0.138	1.26	-0.77	-1.33
22196	-1.003	0.005	0.129	0.0	-1.47	-1.33
22212	-0.998	0.002	0.127	-0.56	-2.24	-1.4
22236	-0.985	0.006	0.119	-1.26	-1.96	-1.82
22253	-0.989	0.01	0.122	-1.82	-1.89	-1.96
22272	-0.99	0.014	0.123	-2.8	-1.47	-2.31
22297	-0.994	0.02	0.125	-3.22	-1.68	-2.8
22317	-0.996	0.021	0.125	-3.01	-1.54	-3.36
22335	-0.993	0.023	0.121	-1.54	-1.82	-3.29
22358	-0.977	0.039	0.13	-2.52	-0.07	-2.38
22378	-0.995	0.007	0.15	-1.61	-0.35	-2.52
22398	-1.004	0.014	0.157	-2.24	0.07	-2.24
22422	-1.02	0.005	0.179	-3.01	-1.12	-2.1
22442	-1.02	-0.02	0.156	-3.36	-1.82	-2.03
22461	-1.001	-0.035	0.153	-3.78	0.7	-2.87
22477	-1.0	-0.033	0.165	-2.17	2.1	-3.57
22502	-0.994	-0.032	0.172	-0.21	3.22	-3.92
22522	-0.991	-0.039	0.165	0.14	3.57	-4.69
22546	-0.979	-0.024	0.169	0.98	3.43	-6.3
22566	-0.974	-0.001	0.144	6.79	3.08	-6.16
22584	-0.969	-0.017	0.127	9.03	3.85	-4.55
22607	-0.996	-0.051	0.137	6.09	4.83	-1.68
22626	-1.026	-0.046	0.131	2.66	6.51	-1.26
22650	-1.033	-0.028	0.132	0.98	8.05	-2.1
22670	-1.035	0.02	0.146	1.4	8.54	-2.24
22689	-1.022	0.013	0.175	3.43	10.08	-1.68
22709	-1.017	-0.025	0.202	3.78	9.31	-0.84
22732	-1.008	-0.037	0.177	3.01	5.67	-1.47
22751	-0.969	-0.004	0.139	3.01	6.02	-3.92
22776	-0.967	0.018	0.141	4.9	9.59	-4.2
22795	-1.011	0.006	0.159	5.53	11.62	-3.01
22815	-1.023	-0.005	0.163	4.06	10.57	-1.61
22833	-1.018	-0.012	0.132	2.17	9.66	-1.68
22856	-1.002	-0.006	0.113	0.91	9.17	-2.24
22877	-0.999	0.015	0.108	1.05	11.55	-2.52
22899	-1.041	0.005	0.135	-0.91	11.62	-2.1
22920	-1.042	-0.011	0.1	-2.94	7.49	-1.47
22944	-1.028	-0.028	0.083	-3.01	8.12	-1.26
22964	-1.048	-0.035	0.096	-3.85	9.03	-1.54
22981	-1.063	-0.032	0.089	-3.29	7.35	-2.03
23005	-1.055	-0.033	0.065	-0.98	4.97	-1.89
23025	-1.036	-0.04	0.044	0.77	4.27	-0.35
23045	-1.02	-0.048	0.048	0.91	4.06	0.84
23064	-1.031	-0.04	0.061	1.12	2.03	0.7
23084	-1.03	-0.032	0.062	1.89	-0.07	0.7
23110	-1.035	-0.018	0.063	2.73	-2.31	0.98
23128	-1.034	-0.016	0.056	3.57	-3.85	1.05
23148	-1.023	-0.015	0.05	3.5	-5.18	1.61
23172	-1.012	-0.016	0.047	3.15	-5.11	1.68
23191	-1.007	-0.009	0.05	2.94	-3.71	1.12
23214	-1.015	-0.011	0.06	2.87	-2.94	1.26
23233	-1.011	-0.008	0.066	2.94	-4.06	0.42
23252	-1.011	-0.011	0.063	3.01	-4.34	0.0
23273	-1.022	-0.005	0.071	3.08	-3.15	0.63
23297	-1.031	-0.006	0.074	3.08	-3.08	1.4
23317	-1.031	-0.009	0.079	3.15	-4.06	1.89
23336	-1.026	-0.005	0.08	2.38	-4.06	2.45
23353	-1.018	-0.003	0.082	2.59	-3.78	2.59
23375	-1.006	-0.002	0.082	2.66	-3.57	2.38
23393	-0.999	-0.005	0.079	2.24	-3.5	2.24
23413	-1.003	0.003	0.085	1.75	-3.92	1.61
23433	-1.007	-0.005	0.084	1.54	-3.78	1.05
23457	-1.011	-0.015	0.09	1.33	-3.5	0.35
23472	-1.014	-0.007	0.086	1.05	-2.45	0.49
23498	-1.015	-0.001	0.09	0.77	-2.52	0.35
23515	-1.017	0.0	0.092	0.84	-3.29	0.35
23536	-1.016	0.004	0.089	1.26	-4.06	0.49
23553	-1.007	0.003	0.084	1.47	-3.99	0.77
23575	-1.011	0.0	0.089	1.19	-3.85	1.05
23599	-1.015	0.0	0.09	0.56	-3.92	1.05
23619	-1.016	0.001	0.089	-0.21	-3.5	0.91
23637	-1.022	0.002	0.09	-0.84	-3.85	0.77
23661	-1.025	0.004	0.09	-0.91	-6.09	0.49
23682	-1.022	0.005	0.089	-0.35	-7.7	0.28
23700	-1.018	0.006	0.076	0.56	-8.75	0.14
23723	-1.018	0.004	0.08	0.77	-9.73	0.07
23744	-1.013	-0.004	0.05	-0.21	-10.29	0.0
23764	-0.997	0.001	0.059	-0.84	-7.98	-0.56
23783	-1.019	-0.0	0.081	-0.91	-7.07	-0.91
23803	-1.03	-0.004	0.077	-0.14	-8.68	-1.19
23827	-1.03	0.005	0.079	-0.49	-10.92	-1.4
23846	-1.024	0.01	0.085	-0.49	-11.76	-1.75
23870	-1.029	-0.001	0.108	-0.42	-12.32	-1.68
23889	-1.026	0.001	0.118	-0.7	-12.53	-1.82
23909	-1.019	-0.001	0.129	-1.26	-12.6	-2.52
23930	-1.021	-0.006	0.148	-2.24	-13.58	-3.57
23950	-1.018	0.004	0.148	-4.06	-14.28	-4.27
23970	-1.022	0.006	0.148	-5.46	-12.74	-5.04
23994	-1.036	-0.004	0.184	-4.2	-8.26	-4.41
24015	-1.039	-0.006	0.198	-2.45	-6.79	-2.94
24034	-1.021	-0.003	0.19	-0.7	-5.39	-1.19
24054	-0.997	-0.004	0.202	1.05	-3.64	0.21
24074	-0.998	0.01	0.211	2.17	-2.31	1.12
24099	-1.001	0.01	0.214	2.24	-0.49	2.1
24114	-1.006	0.006	0.205	1.82	1.05	2.31
24138	-0.992	0.022	0.204	0.56	3.57	3.5
24156	-1.01	0.001	0.202	-1.96	7.77	3.5
24178	-1.034	-0.015	0.218	-3.85	10.5	3.85
24198	-1.043	-0.019	0.198	-6.65	7.56	3.29
24216	-1.03	-0.02	0.178	-8.61	5.95	2.31
24240	-1.015	-0.025	0.143	-8.82	5.88	-0.35
24259	-1.013	-0.0	0.149	-6.79	5.11	0.77
24279	-0.996	-0.013	0.143	-5.04	2.87	0.84
24299	-0.988	-0.02	0.151	-1.33	3.43	-0.07
24322	-0.982	-0.005	0.148	-0.98	1.82	-0.49
24343	-0.987	0.021	0.143	0.42	0.7	-1.05
24362	-0.984	0.01	0.142	1.68	-0.42	-2.1
24381	-0.997	0.013	0.137	3.08	-1.12	-1.68
24405	-1.006	0.018	0.135	3.43	-2.1	-2.52
24425	-1.007	0.004	0.122	2.1	-3.85	-2.94
24444	-0.999	0.011	0.122	2.1	-4.55	-2.73
24466	-0.986	0.011	0.122	4.76	-6.23	-2.1
24490	-0.985	0.01	0.121	6.72	-7.14	-0.56
24509	-0.984	0.011	0.112	6.02	-7.91	0.42
24529	-0.977	0.005	0.098	4.83	-7.14	0.21
24548	-0.971	0.018	0.108	3.71	-6.3	-0.49
24572	-0.982	0.021	0.118	3.43	-4.97	-0.7
24593	-1.011	0.032	0.125	2.8	-5.6	-0.07
24612	-1.031	0.024	0.122	2.24	-6.58	0.84
24632	-1.02	0.016	0.127	0.91	-6.79	1.26
24652	-1.019	0.006	0.14	-0.28	-7.07	1.19
24670	-1.017	0.012	0.15	-1.05	-7.21	0.56
24694	-1.013	0.02	0.155	-1.47	-7.91	0.35
24709	-0.993	0.017	0.148	-2.45	-7.63	-0.14
24735	-0.987	0.012	0.149	-3.64	-6.09	-0.77
24753	-0.997	0.017	0.15	-3.15	-5.95	-0.49
24774	-0.985	0.009	0.151	-2.73	-4.48	-0.56
24799	-0.988	0.009	0.161	-3.15	-3.36	-0.91
24819	-0.999	0.003	0.17	-2.59	-3.36	-1.4
24835	-0.996	0.004	0.166	-2.03	-3.5	-2.03
24859	-0.996	0.006	0.164	-1.05	-3.57	-1.82
24879	-0.994	0.004	0.163	-0.49	-3.64	-1.33
24899	-0.992	-0.002	0.164	-0.42	-2.94	-1.47
24914	-0.996	-0.003	0.163	0.14	-2.59	-1.68
24934	-0.997	-0.003	0.161	0.7	-1.68	-1.82
24959	-1.001	0.002	0.161	1.47	-0.7	-1.61
24977	-0.998	0.006	0.16	1.75	0.14	-1.61
24997	-1.004	0.007	0.166	2.31	0.63	-1.68
25021	-1.005	0.001	0.168	2.66	0.7	-1.4
25042	-0.998	0.004	0.163	3.08	0.77	-1.54
25061	-0.996	0.005	0.16	2.94	0.7	-1.61
25078	-0.996	0.009	0.154	2.8	0.56	-1.82
25097	-0.992	0.01	0.155	2.24	0.91	-2.1
25118	-0.999	0.011	0.16	2.1	0.84	-2.17
25142	-1.001	0.01	0.158	2.24	0.49	-1.96
25161	-0.998	0.0	0.154	1.89	0.77	-2.17
25182	-0.996	0.004	0.155	2.03	1.33	-2.45
25202	-0.999	0.003	0.155	1.82	1.19	-2.94
25222	-0.998	0.008	0.149	1.33	1.4	-3.01
25243	-1.006	0.004	0.158	1.47	1.96	-3.57
25262	-1.011	0.025	0.155	2.73	1.54	-3.57
25282	-1.011	0.02	0.151	2.59	0.7	-3.29
25301	-1.009	0.009	0.148	1.47	-0.21	-3.43
25325	-1.011	0.011	0.146	0.56	-1.26	-3.92
25342	-1.01	0.001	0.153	1.05	-2.87	-3.57
25366	-0.996	0.023	0.141	0.21	-1.96	-3.01
25389	-0.996	0.026	0.148	-0.21	-1.47	-2.24
25408	-0.994	0.017	0.153	-1.19	-1.75	-1.33
25429	-0.992	0.0	0.155	-3.01	-1.19	-1.4
25446	-0.995	-0.011	0.163	-3.92	-1.26	-1.68
25466	-1.001	-0.014	0.167	-3.01	-0.84	-1.82
25489	-0.998	-0.016	0.163	-1.12	-0.14	-1.61
25509	-0.995	-0.025	0.17	0.84	0.84	-0.49
25526	-1.01	-0.037	0.177	0.77	0.7	0.35
25550	-1.0	-0.041	0.156	-0.28	1.54	-0.56
25568	-0.997	-0.008	0.173	0.63	4.48	-2.24
25587	-1.008	0.018	0.195	2.94	5.39	-2.24
25607	-1.014	-0.005	0.18	3.92	4.06	-1.47
25627	-0.992	-0.02	0.158	3.08	4.2	-2.03
25652	-0.98	-0.013	0.168	3.29	7.49	-3.57
25672	-1.004	-0.007	0.199	5.25	8.19	-3.01
25696	-1.022	-0.033	0.186	7.07	6.86	-1.96
25716	-0.996	-0.039	0.143	5.25	8.47	-3.5
25736	-0.995	0.016	0.166	3.64	10.43	-6.16
25755	-1.011	0.048	0.182	5.74	9.73	-6.58
25773	-1.013	0.02	0.157	8.61	8.4	-4.69
25793	-1.017	-0.013	0.132	6.16	10.5	-3.22
25814	-0.998	-0.027	0.126	-1.33	10.5	-3.36
25838	-0.984	0.003	0.115	-3.92	13.23	-5.67
25854	-1.014	0.029	0.155	-0.21	14.21	-4.13
25875	-1.041	-0.011	0.143	1.75	13.09	-1.12
25899	-1.016	-0.049	0.114	0.21	13.58	-0.49
25919	-1.005	-0.032	0.096	-2.73	15.96	-1.61
25939	-1.0	0.002	0.098	-2.66	16.17	-1.33
25958	-1.015	-0.016	0.081	-1.61	15.05	-1.12
25974	-1.023	-0.031	0.074	-0.98	15.26	-0.98
25999	-1.032	-0.014	0.076	-0.14	15.68	0.21
26019	-1.048	-0.007	0.061	0.42	13.37	1.89
26043	-1.027	-0.031	0.024	-0.98	11.48	1.82
26060	-1.007	-0.019	0.023	-1.61	12.39	1.26
26085	-1.016	-0.005	0.041	-0.77	12.74	0.63
26104	-1.03	-0.002	0.038	-0.84	10.85	0.07
26124	-1.039	-0.0	0.032	-1.12	9.73	-0.28
26139	-1.053	0.001	0.041	-1.82	9.03	-0.49
26162	-1.043	0.0	0.027	-2.03	7.42	-0.21
26186	-1.025	-0.011	0.013	-1.75	6.44	0.77
26206	-1.009	-0.019	-0.003	-1.82	6.51	0.21
26226	-1.004	-0.02	-0.006	-1.19	7.07	-0.42
26246	-1.009	-0.025	-0.002	0.14	7.28	-0.21
26270	-1.011	-0.013	0.002	0.7	6.02	0.21
26289	-1.013	-0.013	0.001	1.68	5.39	0.56
26308	-1.023	-0.016	0.01	2.31	4.34	0.49
26330	-1.029	-0.02	0.021	1.19	2.59	0.0
26350	-1.024	-0.022	0.01	1.05	0.56	-0.84
26368	-1.016	-0.019	0.009	0.98	-0.56	-1.12
26387	-1.012	-0.022	0.013	1.54	-1.19	-1.19
26412	-1.018	-0.022	0.009	1.12	-2.24	-0.63
26430	-1.018	-0.018	0.007	1.89	-2.87	-0.14
26450	-1.018	-0.014	0.013	2.03	-3.22	0.28
26474	-1.02	-0.006	0.018	2.1	-4.41	0.77
26494	-1.021	0.001	0.016	2.59	-5.04	1.47
26515	-1.018	-0.002	0.009	3.22	-4.83	2.1
26532	-1.017	-0.004	0.009	3.57	-4.41	2.45
26552	-1.016	-0.004	0.016	3.99	-4.13	2.52
26574	-1.018	-0.004	0.03	4.55	-4.69	2.45
26598	-1.015	-0.003	0.028	4.62	-5.32	1.96
26618	-1.014	-0.003	0.023	4.76	-5.6	1.12
26636	-1.011	-0.004	0.02	4.41	-5.53	0.28
26657	-1.015	-0.004	0.031	3.85	-6.16	-0.63
26674	-1.019	-0.005	0.033	3.43	-6.72	-1.26
26698	-1.018	0.001	0.032	2.66	-7.28	-2.03
26722	-1.016	0.008	0.03	2.03	-8.26	-2.03
26742	-1.014	0.015	0.03	1.82	-9.03	-1.89
26762	-1.011	0.011	0.023	2.1	-9.52	-1.33
26787	-1.014	0.007	0.027	2.52	-9.24	-1.12
26804	-1.023	0.002	0.027	2.45	-8.75	-1.05
26825	-1.025	0.002	0.022	1.96	-8.82	-0.98
26845	-1.012	0.003	0.019	2.17	-10.08	-1.19
26869	-1.004	0.01	0.006	2.17	-10.15	-1.82
26888	-1.012	0.01	0.027	1.89	-10.01	-1.68
26907	-1.024	0.004	0.023	1.61	-9.66	-1.68
26932	-1.041	-0.003	0.048	0.21	-9.73	-1.47
26952	-1.048	-0.01	0.052	-1.05	-10.85	-1.75
26971	-1.042	-0.015	0.056	-0.84	-12.39	-1.82
26991	-1.033	-0.028	0.049	0.28	-14.0	-1.82
27011	-1.026	-0.037	0.063	1.75	-13.86	-1.75
27032	-1.028	-0.033	0.087	3.15	-13.58	-2.03
27056	-1.029	-0.018	0.112	4.9	-14.14	-0.91
27075	-1.034	-0.007	0.124	6.51	-14.14	0.42
27096	-1.031	0.006	0.139	7.14	-13.16	1.47
27116	-1.018	0.017	0.141	6.37	-12.11	1.4
27136	-1.01	0.016	0.143	4.97	-11.69	1.82
27154	-1.005	0.028	0.136	3.78	-10.78	1.47
27177	-0.997	0.026	0.153	1.4	-8.33	0.98
27198	-1.021	0.013	0.183	-1.96	-6.37	0.7
27217	-1.043	-0.001	0.185	-2.59	-6.3	0.35
27237	-1.047	0.024	0.159	-2.38	-5.25	0.91
27260	-1.021	0.032	0.145	-4.13	-0.7	0.84
27281	-1.014	0.01	0.167	-4.2	2.52	0.91
27296	-1.016	0.008	0.185	-3.22	0.91	1.96
27319	-1.0	0.011	0.163	-2.73	-1.4	3.22
27339	-0.979	-0.012	0.155	-3.29	-1.19	1.96
27362	-0.989	-0.004	0.154	-3.5	-0.98	0.28
27386	-0.994	0.0	0.158	-3.99	-3.43	-0.91
27405	-1.006	0.004	0.14	-3.43	-4.76	-0.7
27426	-1.001	0.004	0.135	-4.13	-4.55	-1.54
27446	-0.997	0.001	0.137	-4.34	-3.5	-3.71
27466	-0.979	0.01	0.129	-3.08	-2.31	-4.97
27483	-0.991	0.008	0.146	-0.77	-3.36	-4.9
27502	-1.002	0.004	0.141	0.49	-3.78	-5.04
27526	-1.017	0.009	0.136	2.38	-5.04	-4.27
27550	-1.019	0.018	0.126	3.36	-5.81	-3.15
27569	-1.009	0.023	0.122	3.08	-6.65	-2.59
27593	-0.996	0.021	0.118	1.61	-7.07	-2.66
27614	-1.001	0.013	0.128	1.26	-7.7	-2.38
27631	-0.987	0.013	0.113	1.96	-7.98	-2.24
27653	-0.972	0.002	0.102	-0.14	-5.53	-2.24
27670	-0.979	-0.003	0.11	-0.56	-4.41	-2.24
27694	-0.984	-0.001	0.112	0.56	-3.5	-1.54
27714	-0.999	-0.004	0.124	1.4	-3.99	-0.42
27733	-1.011	-0.003	0.132	1.26	-4.83	0.14
27753	-1.015	0.001	0.123	0.21	-6.09	0.35
27773	-1.002	0.004	0.124	-1.26	-6.23	-0.21
27797	-0.999	-0.0	0.128	-1.96	-6.44	-0.56
27817	-0.986	-0.008	0.132	-2.8	-6.3	-0.84
27835	-0.99	-0.009	0.139	-2.73	-5.53	-0.91
27855	-0.99	-0.014	0.142	-2.8	-5.18	-0.84
27879	-0.99	-0.016	0.137	-1.47	-4.27	-0.49
27898	-0.997	-0.018	0.142	-1.33	-3.29	0.14
27920	-0.997	-0.011	0.138	-0.35	-2.31	-0.07
27939	-0.99	-0.004	0.151	0.7	-0.63	-0.63
27956	-0.994	0.004	0.17	1.26	0.14	-1.26
27976	-0.996	0.002	0.174	1.47	-0.35	-1.26
28001	-1.003	0.001	0.174	0.98	-0.77	-1.12
28019	-1.005	-0.0	0.173	1.19	-0.91	-1.12
28043	-0.997	-0.001	0.159	2.17	-1.05	-0.98
28063	-0.999	0.004	0.157	3.29	-0.84	-0.56
28081	-0.998	0.005	0.155	3.5	-0.42	-0.35
28101	-1.002	0.008	0.153	3.5	-0.14	-0.49
28120	-1.003	0.008	0.148	3.5	0.21	-0.91
28145	-1.0	0.006	0.143	3.29	0.35	-1.33
28163	-0.993	0.003	0.143	3.01	0.77	-1.4
28182	-0.997	0.004	0.147	2.59	0.77	-1.61
28207	-1.002	0.003	0.143	1.96	0.21	-1.75
28225	-1.007	0.004	0.143	1.47	-0.7	-1.19
28247	-1.017	0.004	0.146	0.84	-1.96	-1.05
28267	-1.01	-0.002	0.139	0.42	-4.06	-1.33
28289	-0.988	-0.007	0.124	-0.42	-4.2	-2.17
28308	-0.986	-0.002	0.132	-0.21	-3.08	-2.73
28328	-0.992	0.007	0.157	0.7	-2.38	-2.94
28351	-1.008	0.014	0.149	0.7	-3.71	-2.03
28371	-0.99	0.034	0.134	-1.68	-3.99	-0.21
28395	-0.986	-0.008	0.13	-0.7	-2.87	-0.07
28410	-0.977	-0.001	0.142	-1.61	-1.68	-0.84
28435	-0.996	0.011	0.163	-0.21	-1.12	-0.7
28454	-1.0	0.004	0.163	3.08	-1.26	-0.35
28475	-0.996	-0.011	0.168	3.29	-1.4	-0.28
28495	-0.983	-0.017	0.151	2.17	-1.75	-1.33
28513	-0.996	0.003	0.161	2.24	-0.91	-2.1
28537	-0.998	0.016	0.164	2.38	0.7	-3.29
28554	-1.006	0.007	0.164	0.28	1.12	-3.29
28573	-1.012	-0.005	0.149	-2.94	3.78	-4.55
28598	-1.016	0.02	0.163	-1.61	3.57	-5.04
28618	-0.982	0.011	0.162	-2.59	8.19	-2.8
28637	-1.021	-0.026	0.193	-3.36	10.22	-1.68
28660	-1.023	-0.039	0.187	-2.1	10.08	-2.03
28679	-1.013	-0.027	0.186	0.63	9.66	-3.85
28699	-1.003	-0.012	0.19	4.62	9.66	-3.5
28722	-1.01	-0.037	0.176	5.95	7.07	-3.43
28741	-1.007	-0.028	0.139	5.39	6.58	-5.67
28765	-0.989	0.02	0.126	5.53	7.91	-7.14
28783	-0.988	0.022	0.132	7.21	9.87	-6.3
28804	-0.996	-0.004	0.153	7.98	11.34	-3.99
28824	-0.997	-0.056	0.139	5.95	11.34	-2.52
28843	-0.983	-0.04	0.133	4.9	12.95	-2.73
28868	-0.978	-0.003	0.131	5.39	13.51	-2.94
28887	-0.991	0.0	0.129	4.76	14.35	-3.22
28911	-1.017	0.003	0.126	1.68	13.79	-2.17
28927	-1.022	0.014	0.11	1.47	13.51	-1.4
28947	-1.046	0.003	0.111	1.19	13.16	-0.7
28972	-1.034	-0.041	0.061	-1.75	11.27	-0.49
28991	-1.024	-0.012	0.071	-3.01	14.07	-1.75
29011	-1.041	-0.004	0.095	-0.56	14.49	-1.47
29028	-1.059	-0.015	0.099	0.91	12.67	-1.12
29052	-1.061	-0.024	0.09	1.96	8.82	-0.14
29072	-1.047	-0.032	0.045	0.56	5.04	0.28
29092	-1.019	-0.031	0.002	-1.82	3.5	0.7
29112	-0.997	-0.037	0.004	-2.52	4.2	0.91
29132	-1.013	-0.02	0.041	-1.12	4.62	0.91
29153	-1.038	-0.011	0.053	-1.19	2.24	0.49
29177	-1.045	-0.01	0.049	-2.52	-0.35	0.84
29197	-1.039	-0.003	0.039	-2.03	-1.82	1.05
29215	-1.036	-0.004	0.042	-2.03	-2.59	1.68
29239	-1.027	-0.015	0.04	-3.01	-3.85	1.96
29259	-1.011	-0.029	0.024	-2.52	-4.13	2.45
29275	-1.009	-0.029	0.03	-2.24	-3.22	2.52
29299	-1.011	-0.043	0.033	-1.12	-4.55	1.54
29319	-1.005	-0.035	0.034	1.05	-5.46	0.91
29343	-1.01	-0.02	0.041	2.94	-5.11	1.05
29364	-1.028	-0.019	0.047	2.87	-3.92	1.12
29382	-1.036	-0.015	0.056	2.38	-2.94	1.47
29399	-1.034	-0.011	0.071	2.24	-3.22	1.54
29424	-1.031	-0.003	0.085	2.52	-4.2	1.75
29442	-1.024	-0.003	0.086	2.8	-4.9	1.82
29465	-1.019	-0.003	0.092	3.01	-5.95	1.68
29485	-1.006	-0.005	0.077	3.5	-7.0	1.54
29509	-0.998	-0.007	0.058	2.87	-6.09	0.77
29525	-1.005	0.0	0.068	2.38	-5.46	0.49
29547	-1.009	-0.001	0.067	2.1	-4.97	-0.14
29569	-1.013	0.001	0.07	1.75	-4.97	-0.28
29586	-1.017	0.003	0.077	1.54	-5.25	-0.35
29606	-1.02	0.005	0.08	1.12	-5.46	-0.35
29626	-1.02	0.005	0.081	0.84	-5.46	-0.21
29650	-1.019	0.01	0.077	0.77	-5.18	-0.14
29670	-1.015	0.017	0.078	0.07	-5.53	0.14
29686	-1.014	0.013	0.081	-0.49	-6.02	0.14
29706	-1.017	0.012	0.079	-0.84	-6.65	0.42
29726	-1.012	0.007	0.073	-0.56	-7.35	0.7
29750	-1.007	0.005	0.072	-0.77	-7.07	0.63
29767	-1.015	0.003	0.071	-0.91	-6.65	0.28
29790	-1.021	0.003	0.068	-1.19	-6.93	0.07
29808	-1.016	0.0	0.072	-1.4	-7.42	0.0
29832	-1.013	-0.006	0.08	-1.47	-7.98	-0.42
29850	-1.013	-0.013	0.082	-0.7	-7.77	-0.7
29872	-1.033	-0.015	0.089	0.14	-8.05	-0.56
29888	-1.038	-0.009	0.092	0.77	-9.1	-0.42
29911	-1.031	-0.001	0.088	1.54	-11.41	-0.42
29930	-1.035	0.007	0.088	1.19	-12.67	-0.56
29953	-1.026	0.01	0.093	1.12	-13.16	-0.35
29974	-1.021	0.018	0.101	-0.07	-13.86	-0.63
29992	-1.02	0.011	0.099	-0.28	-13.65	-1.33
30016	-1.029	0.01	0.121	-1.05	-14.0	-1.89
30035	-1.035	0.009	0.135	-1.19	-14.42	-2.1
30055	-1.036	0.002	0.153	-0.63	-14.98	-1.54
30074	-1.038	-0.003	0.155	-0.14	-15.75	-0.63
30099	-1.028	-0.007	0.159	0.14	-14.49	17.85
30119	-1.017	0.002	0.182	0.35	-11.55	-0.07
30134	-1.016	0.004	0.197	0.7	-10.01	0.28
30159	-1.005	0.01	0.205	1.26	-8.82	1.12
30178	-1.003	0.022	0.217	1.61	-7.49	1.4
30199	-0.998	0.018	0.208	0.42	-5.32	2.17
30217	-0.999	0.004	0.219	-0.98	-2.31	1.89
30237	-0.99	-0.003	0.227	-1.26	-0.35	0.84
30259	-0.994	-0.125	0.219	-2.45	2.1	-0.91
30279	-0.993	-0.0	0.222	-2.59	3.57	-1.61
30302	-0.993	-0.009	0.221	-2.31	3.99	-1.68
30324	-0.999	-0.017	0.209	-1.19	4.62	-1.82
30339	-1.01	-0.01	0.213	0.56	4.9	-1.19
30362	-1.031	0.009	0.211	1.82	5.88	-0.14
30382	-1.036	0.02	0.204	2.38	4.13	1.33
30403	-1.029	0.017	0.195	2.24	0.7	1.4
30427	-0.994	0.041	0.164	2.59	-0.56	0.91
30450	-0.982	0.041	0.145	2.31	-3.64	0.07
30474	-0.956	0.023	0.149	3.78	-1.89	-2.73
30494	-0.95	0.03	0.157	3.64	-3.36	-2.66
30513	-0.956	0.011	0.141	4.62	-5.18	-2.03
30532	-0.961	0.008	0.129	4.76	-4.13	-2.45
30553	-0.983	0.003	0.136	5.18	-4.13	-2.8
30577	-0.998	-0.008	0.138	4.41	-4.62	-3.64
30595	-1.003	-0.011	0.141	4.13	-5.18	-3.22
30617	-1.008	0.005	0.141	5.18	-5.81	-2.03
30639	-1.008	0.008	0.149	4.76	-6.79	-1.61
30659	-1.007	0.022	0.144	4.97	-7.91	-1.47
30682	-1.002	0.021	0.149	3.22	-7.63	-1.26
30703	-1.001	0.024	0.152	1.82	-5.81	-1.05
30723	-1.007	0.027	0.168	1.89	-5.53	-0.77
30742	-1.011	0.03	0.158	1.05	-5.81	-0.56
30764	-1.0	0.02	0.155	-0.7	-4.83	-0.84
30782	-0.995	0.016	0.159	-1.4	-4.13	-1.61
30805	-0.994	0.018	0.171	-1.96	-3.64	-2.03
30826	-0.996	0.006	0.183	-1.47	-4.34	-1.96
30845	-0.99	-0.002	0.167	-1.05	-4.76	-2.03
30869	-0.982	-0.001	0.163	-0.98	-4.34	-2.31
30885	-0.983	0.001	0.163	-0.21	-4.41	-2.24
30909	-0.986	0.0	0.163	0.56	-3.78	-1.82
30928	-0.994	-0.001	0.174	1.33	-2.73	-1.68
30949	-0.999	-0.001	0.18	1.82	-1.61	-2.03
30967	-0.999	-0.003	0.178	2.45	-0.84	-2.17
30987	-1.002	-0.007	0.19	2.38	-0.28	-2.31
31009	-0.998	-0.003	0.181	3.36	0.14	-2.1
31032	-0.992	-0.001	0.188	3.29	0.42	-1.96
31051	-0.996	-0.001	0.194	2.87	0.21	-2.03
31071	-0.999	0.001	0.191	2.52	-0.07	-2.1
31091	-0.998	0.004	0.181	2.8	0.42	-1.96
31110	-0.999	0.007	0.183	3.01	0.77	-1.82
31135	-0.998	0.008	0.175	3.15	1.19	-1.4
31154	-1.0	0.007	0.172	3.15	1.54	-1.33
31174	-0.995	0.007	0.17	3.01	1.96	-1.19
31198	-0.998	0.01	0.173	2.66	2.24	-1.33
31218	-1.002	0.009	0.178	2.24	1.75	-1.33
31239	-1.002	0.007	0.175	2.03	1.19	-1.4
31258	-0.999	0.01	0.168	1.75	0.77	-1.4
31282	-0.996	0.008	0.162	1.19	0.77	-1.19
31302	-0.988	0.001	0.164	0.21	0.56	-1.47
31321	-0.983	0.005	0.16	-0.42	1.12	-1.75
31341	-0.99	0.011	0.169	-0.21	1.33	-1.82
31364	-0.991	0.008	0.164	-0.7	1.26	-1.89
31385	-0.991	0.048	0.165	-0.56	2.1	-1.96
31405	-1.004	0.005	0.169	0.07	1.05	-1.89
31425	-1.015	-0.004	0.164	-1.68	-0.49	-1.82
31445	-1.019	-0.003	0.152	-3.57	-0.77	-2.24
31465	-1.019	0.018	0.165	-2.73	-0.91	-2.8
31484	-1.008	0.02	0.157	-2.31	-0.7	-2.73
31506	-0.992	0.001	0.16	-3.15	0.7	-2.73
31525	-0.977	-0.006	0.176	-2.1	1.75	-2.87
31545	-0.99	0.002	0.189	-1.05	0.42	-2.17
31570	-1.006	-0.006	0.174	-0.21	-0.98	-1.05
31589	-1.02	-0.016	0.175	-1.82	-0.98	-1.4
31608	-0.992	-0.001	0.149	-1.19	-0.28	-1.82
31626	-0.99	0.007	0.167	-0.56	2.31	-1.54
31648	-0.99	-0.001	0.179	0.63	1.19	-0.56
31668	-0.985	-0.009	0.173	2.24	-0.07	-0.49
31692	-0.993	-0.04	0.156	2.8	-0.84	0.49
31716	-0.975	-0.052	0.143	0.56	1.82	-0.7
31734	-0.991	-0.036	0.168	-0.63	5.81	-2.8
31755	-0.997	-0.0	0.199	1.4	6.58	-3.43
31777	-1.003	-0.0	0.197	5.32	7.28	-2.03
31796	-0.985	-0.044	0.202	5.11	8.68	-1.96
31821	-0.979	-0.039	0.188	4.48	9.1	-4.83
31840	-0.985	0.02	0.206	7.14	11.06	-6.72
31860	-1.002	0.031	0.194	7.84	11.76	-5.81
31878	-1.024	0.029	0.183	5.81	13.23	-5.11
31897	-1.023	0.01	0.175	4.62	12.88	-3.92
31922	-1.01	-0.01	0.153	2.24	13.16	-4.2
31942	-1.0	-0.012	0.148	0.91	12.88	-2.8
31962	-1.011	-0.02	0.145	0.07	12.81	-3.22
31982	-1.024	0.002	0.147	0.84	13.37	-3.22
31997	-1.048	-0.016	0.132	0.77	12.25	-1.96
32023	-1.049	-0.01	0.106	0.84	11.34	-1.19
32042	-1.036	-0.002	0.106	0.91	10.92	-0.49
32061	-1.024	-0.005	0.081	0.49	9.45	0.0
32084	-1.003	0.001	0.051	-1.4	8.82	0.98
32105	-0.991	-0.01	0.036	-2.59	10.92	1.05
32122	-1.004	-0.02	0.053	-3.71	12.25	0.84
32146	-1.024	-0.027	0.078	-4.76	11.76	0.49
32166	-1.041	-0.033	0.083	-5.32	9.17	0.56
32186	-1.034	-0.035	0.07	-3.64	7.28	0.77
32205	-1.021	-0.045	0.057	-0.98	4.69	0.91
32226	-1.005	-0.046	0.05	1.4	3.08	0.84
32251	-1.004	-0.023	0.059	3.01	4.2	0.77
32270	-1.031	-0.011	0.069	3.99	3.36	1.89
32288	-1.032	-0.009	0.059	3.01	1.19	2.52
32311	-1.012	-0.002	0.033	2.8	-0.21	1.96
32331	-0.997	0.0	0.038	2.66	-0.21	1.68
32352	-1.004	-0.006	0.049	2.66	0.56	1.47
32371	-1.017	0.001	0.05	3.22	2.03	1.61
32396	-1.036	-0.001	0.056	3.5	3.92	1.75
32416	-1.046	0.002	0.056	2.24	4.62	1.33
32436	-1.05	-0.002	0.054	2.03	4.27	0.98
32455	-1.042	-0.004	0.044	2.03	3.22	0.91
32480	-1.028	0.0	0.044	0.56	2.73	0.63
32496	-1.023	0.005	0.043	-0.21	1.68	0.49
32520	-1.016	0.002	0.052	-1.47	-0.28	0.63
32539	-1.012	0.002	0.036	-1.68	-1.19	0.35
32558	-1.008	-0.001	0.039	-1.19	-0.28	0.28
32581	-1.013	-0.0	0.05	-0.7	-0.28	0.0
32602	-1.017	-0.003	0.052	-0.07	-0.56	-0.35
32619	-1.019	0.002	0.053	0.0	-1.12	-0.49
32643	-1.02	-0.001	0.058	-0.14	-2.03	-0.63
32661	-1.019	-0.002	0.061	-0.07	-2.8	-0.42
32682	-1.018	-0.002	0.062	0.56	-3.71	-0.28
32701	-1.017	-0.002	0.065	0.84	-4.55	-0.07
32720	-1.018	-0.001	0.056	1.12	-5.18	0.21
32743	-1.011	0.001	0.052	0.91	-4.2	0.21
32763	-1.009	0.003	0.051	0.98	-3.85	0.35
32782	-1.007	0.001	0.05	0.98	-3.36	0.28
32806	-1.006	0.001	0.055	1.33	-2.94	-0.07
32825	-1.014	0.001	0.058	1.33	-2.52	-0.35
32845	-1.015	0.005	0.061	1.19	-2.24	-0.56
32869	-1.014	0.006	0.056	0.98	-1.54	-0.98
32889	-1.016	0.006	0.055	0.49	-0.98	-1.12
32908	-1.012	0.007	0.058	0.35	-0.77	-1.05
32928	-1.011	0.005	0.061	0.77	-0.35	-1.12
32948	-1.013	0.005	0.055	0.77	-0.7	-0.84
32972	-1.01	0.001	0.055	0.91	-0.84	-0.49
32991	-1.008	0.005	0.054	1.82	-0.42	-0.42
33015	-1.007	0.009	0.059	2.1	-0.07	-0.49
33034	-1.011	0.005	0.053	1.89	-0.56	-0.42
33054	-1.006	0.004	0.046	1.82	0.07	-0.56
33078	-1.011	0.004	0.06	1.61	1.05	-0.84
33098	-1.023	0.007	0.064	1.26	0.77	-0.98
33114	-1.019	0.008	0.06	1.33	0.35	-1.12
33138	-1.013	0.007	0.057	1.33	-0.21	-1.19
33157	-1.014	0.006	0.056	1.19	-0.21	-1.33
33180	-1.01	0.008	0.058	0.91	-0.28	-1.4
33199	-1.014	0.008	0.057	0.84	-0.42	-1.26
33224	-1.016	0.006	0.057	1.05	-0.14	-0.98
33241	-1.019	0.007	0.059	1.4	0.07	-0.77
33265	-1.019	0.001	0.067	1.47	-0.7	-0.63
33283	-1.016	0.005	0.054	1.12	-1.61	-0.84
33304	-1.017	0.011	0.046	1.75	-1.96	-0.84
33324	-1.013	0.008	0.042	2.52	-1.68	-0.63
33348	-1.017	0.013	0.057	2.38	-1.33	-0.63
33366	-1.018	0.014	0.059	1.75	-3.22	-0.84
33386	-1.018	0.012	0.046	0.63	-4.76	-1.05
33407	-1.017	0.014	0.026	-0.28	-5.46	-1.05
33431	-1.023	0.012	0.031	-0.56	-4.76	-0.91
33451	-1.035	0.015	0.047	-0.49	-5.11	-0.7
33471	-1.035	0.009	0.058	0.0	-6.58	-0.35
33486	-1.029	0.009	0.057	0.28	-7.21	-0.14
33511	-1.023	0.007	0.067	0.14	-7.98	0.07
33528	-1.022	0.009	0.078	-0.07	-8.26	0.0
33548	-1.023	0.003	0.081	0.28	-9.52	0.07
33567	-1.018	0.003	0.08	0.56	-10.92	0.14
33591	-1.018	0.0	0.082	0.35	-11.9	0.42
33608	-1.016	0.001	0.093	0.21	-12.04	0.21
33627	-1.024	-0.0	0.1	0.77	-11.9	-0.28
33652	-1.016	0.004	0.104	1.47	-11.62	-0.28
33671	-1.015	0.015	0.104	1.96	-11.06	-0.21
33690	-1.01	0.022	0.11	2.1	-10.36	0.35
33714	-1.007	0.017	0.112	1.4	-10.71	0.91
33734	-1.0	0.008	0.118	0.98	-10.29	0.63
33753	-0.999	0.017	0.11	1.68	-8.33	-0.07
33773	-1.003	0.015	0.125	0.28	-7.42	-0.35
33793	-1.004	0.011	0.12	-1.05	-7.84	-0.49
33816	-1.004	0.011	0.122	-1.75	-6.51	-1.12
33836	-1.002	0.008	0.132	-1.89	-5.32	-1.47
33860	-1.008	0.005	0.131	-1.82	-4.41	-1.61
33880	-1.006	0.003	0.129	-1.33	-3.5	-1.89
33899	-1.005	0.007	0.132	-0.77	-3.36	-1.47
33918	-1.004	0.003	0.135	0.42	-3.01	-1.05
33942	-1.001	0.008	0.135	1.4	-2.52	-0.49
33963	-1.004	0.016	0.135	1.33	-2.1	-0.28
33981	-1.009	0.004	0.132	0.7	-2.66	-1.4
33997	-0.994	0.016	0.126	0.07	-1.54	-1.96
34017	-0.998	0.015	0.128	-0.7	-0.49	-2.8
34042	-1.002	0.016	0.127	-0.21	0.56	-3.36
34060	-1.007	0.013	0.126	-0.14	1.05	-3.71
34081	-1.006	0.013	0.129	-0.07	1.19	-3.36
34098	-1.007	0.012	0.12	0.7	1.19	-2.87
34122	-1.004	0.006	0.121	1.68	1.75	-1.75
34142	-1.001	-0.003	0.123	3.29	1.89	-0.98
34160	-1.0	-0.004	0.121	4.06	2.03	-0.7
34182	-1.002	-0.001	0.118	4.97	1.89	-0.28
34204	-1.002	0.006	0.113	5.18	2.03	-0.07
34222	-1.012	0.014	0.111	4.83	1.89	0.07
34242	-1.013	0.02	0.111	3.99	1.19	0.0
34262	-0.999	0.022	0.107	2.94	0.63	-0.21
34282	-0.99	0.019	0.102	2.24	0.42	-0.42
34301	-0.986	0.014	0.097	2.24	1.33	-0.42
34326	-0.988	0.007	0.102	2.17	2.87	-0.42
34342	-1.002	0.012	0.104	1.89	3.92	-0.21
34361	-1.008	0.011	0.107	2.17	4.83	0.07
34384	-1.013	0.017	0.115	3.15	5.81	0.7
34406	-1.016	0.017	0.117	3.43	5.67	1.26
34424	-1.019	0.006	0.113	2.03	3.92	1.33
34444	-1.01	-0.001	0.091	-0.35	1.19	0.56
34468	-1.001	0.004	0.073	-1.05	0.49	-0.91
34488	-1.015	0.006	0.077	-1.75	-0.49	-1.61
34508	-1.023	0.003	0.08	-1.96	-1.33	-2.66
34528	-1.038	0.011	0.081	-0.42	-1.33	-2.94
34549	-1.054	0.035	0.076	1.68	-0.42	-1.47
34569	-1.054	0.033	0.078	1.54	-0.7	-0.91
34586	-1.041	0.032	0.075	1.05	-0.84	-0.56
34609	-1.025	0.031	0.093	0.63	-1.4	-0.77
34630	-1.016	0.019	0.102	0.42	-2.87	-0.49
34650	-1.008	0.009	0.102	0.7	-3.99	-0.35
34669	-1.003	0.0	0.094	1.12	-4.76	-0.56
34690	-0.995	-0.001	0.093	1.26	-4.2	-0.7
34714	-0.999	-0.002	0.101	1.4	-3.99	-0.84
34733	-1.005	-0.001	0.105	1.75	-3.5	-1.05
34749	-1.007	0.001	0.104	1.89	-2.66	-0.98
34774	-1.017	0.006	0.101	1.75	-2.17	-0.7
34794	-1.008	0.01	0.096	1.4	-1.96	-0.7
34810	-1.003	0.012	0.09	1.19	-2.03	-0.7
34833	-1.001	0.02	0.096	1.33	-1.05	-0.7
34852	-1.007	0.023	0.109	1.12	-0.77	-0.7
34876	-1.01	0.023	0.108	1.12	-0.91	-0.63
34891	-1.013	0.023	0.105	1.19	-1.05	-0.56
34916	-1.005	0.021	0.106	0.98	-0.77	-0.56
34935	-1.006	0.018	0.106	0.77	-0.63	-0.7
34954	-1.015	0.018	0.103	0.42	-0.56	-0.84
34976	-1.017	0.02	0.104	0.14	-1.05	-0.84
34996	-1.016	0.02	0.101	0.14	-1.61	-0.77
35020	-1.015	0.018	0.098	0.28	-2.1	-0.49
35039	-1.013	0.015	0.098	0.42	-2.24	-0.28
35058	-1.017	0.012	0.095	0.56	-2.45	-0.35
35081	-1.017	0.013	0.096	0.42	-2.94	-0.42
35102	-1.018	0.022	0.095	-0.21	-3.43	-0.77
35117	-1.015	0.028	0.093	-0.56	-3.64	-0.98
35141	-1.009	0.035	0.102	-1.19	-3.71	-0.7
35162	-1.005	0.029	0.103	-1.75	-3.85	-0.28
35180	-0.999	0.015	0.103	-2.31	-3.64	-0.28
35201	-0.997	0.017	0.106	-2.87	-2.17	-0.35
35225	-1.003	0.023	0.117	-2.94	-0.49	-0.28
35243	-1.014	0.022	0.125	-2.1	-0.49	0.14
35262	-1.015	0.006	0.121	-1.05	-0.35	0.42
35287	-1.005	-0.016	0.121	0.21	0.28	0.49
35307	-1.002	-0.017	0.109	1.12	0.0	0.21
35327	-1.003	-0.001	0.102	1.33	-0.07	-0.42
35346	-1.002	0.02	0.115	1.54	1.47	-1.33
35366	-1.018	0.032	0.135	1.61	2.24	-1.61
35390	-1.032	0.034	0.131	0.49	0.14	-0.91
35409	-1.018	0.028	0.104	0.14	-0.14	-0.7
35429	-1.007	0.019	0.11	-0.21	1.19	-0.14
35450	-0.996	0.007	0.117	-0.21	1.47	0.63
35468	-1.003	0.013	0.106	0.84	0.77	1.19
35490	-1.006	0.022	0.101	2.87	0.7	1.75
35510	-1.007	0.017	0.109	3.57	0.98	1.89
35529	-1.003	0.012	0.11	2.87	1.4	1.4
35548	-1.002	0.017	0.109	2.03	1.89	0.56
35574	-1.015	0.025	0.113	1.82	2.17	-0.77
35590	-1.02	0.036	0.109	1.12	2.17	-1.47
35614	-1.019	0.041	0.104	-0.49	2.59	-1.96
35634	-1.011	0.041	0.102	-2.45	2.24	-1.61
35654	-1.007	0.041	0.09	-2.59	2.52	-0.98
35673	-1.007	0.039	0.103	-2.24	2.87	-0.21
35694	-1.014	0.022	0.105	-1.47	2.38	0.21
35714	-1.02	0.002	0.096	-0.91	2.24	0.56
35731	-1.018	-0.001	0.081	-0.7	2.38	0.42
35751	-1.013	0.0	0.075	-0.28	2.87	-0.28
35775	-1.006	0.004	0.08	-0.21	3.5	-1.26
35795	-1.001	0.009	0.088	0.42	4.2	-1.75
35813	-1.005	0.021	0.093	1.05	4.55	-1.82
35838	-1.014	0.029	0.092	1.96	5.18	-1.82
35857	-1.019	0.029	0.084	2.45	5.25	-1.68
35880	-1.021	0.025	0.081	2.45	4.76	-1.4
35902	-1.015	0.019	0.069	2.1	3.92	-1.75
35920	-1.015	0.02	0.064	1.82	3.36	-2.1
35944	-1.019	0.017	0.055	1.4	3.01	-2.66
35962	-1.018	0.006	0.054	1.33	2.17	-3.15
35982	-1.014	0.001	0.056	2.1	0.98	-3.64
36006	-1.015	0.002	0.051	3.08	0.56	-3.85
36024	-1.02	0.008	0.052	3.5	1.4	-3.5
36045	-1.022	0.022	0.058	3.78	2.45	-2.73
36070	-1.022	0.034	0.065	3.78	1.89	-1.82
36087	-1.027	0.035	0.068	3.71	0.98	-1.47
36110	-1.023	0.026	0.069	3.36	0.07	-1.19
36129	-1.014	0.015	0.066	2.87	-0.84	-1.12
36152	-1.003	0.014	0.068	2.1	-0.91	-1.26
36171	-1.002	0.026	0.064	2.1	-0.7	-1.33
36192	-1.004	0.027	0.071	1.26	-0.28	-1.26
36211	-1.009	0.026	0.061	0.21	-0.49	-1.19
36228	-1.009	0.026	0.063	-0.28	0.28	-1.33
36247	-1.017	0.028	0.074	-1.19	0.77	-1.4
36273	-1.019	0.023	0.071	-1.54	-0.07	-1.19
36290	-1.017	0.024	0.061	-1.26	-0.42	-0.84
36313	-1.014	0.021	0.057	-1.12	-0.35	-0.49
36333	-1.012	0.015	0.055	-1.05	0.14	-0.07
36357	-1.015	0.017	0.059	-1.12	0.63	0.21
36375	-1.017	0.018	0.06	-0.84	0.63	0.28
36398	-1.017	0.016	0.06	-0.35	0.84	0.35
36417	-1.017	0.015	0.061	0.28	0.91	0.14
36435	-1.017	0.007	0.063	-0.07	0.7	-0.07
36459	-1.012	0.009	0.056	0.07	0.28	-0.49
36479	-1.006	0.013	0.059	-0.14	0.49	-0.77
36499	-1.01	0.012	0.066	-0.56	0.49	-0.91
36519	-1.015	0.014	0.063	-0.28	0.14	-1.26
36543	-1.014	0.019	0.058	0.42	0.0	-1.19
36558	-1.017	0.017	0.058	0.56	0.21	-1.12
36579	-1.019	0.02	0.056	0.7	0.07	-0.98
36598	-1.02	0.022	0.055	0.84	-0.21	-0.84
36623	-1.021	0.024	0.056	1.12	-1.89	-0.42
36642	-1.01	0.02	0.049	1.75	-2.38	0.0
36662	-1.012	0.016	0.056	2.24	-2.17	0.0
36686	-1.025	0.009	0.05	2.38	-3.78	-0.07
36704	-1.016	0.011	0.034	2.31	-5.04	-0.56
36723	-1.009	0.012	0.029	1.82	-5.39	-0.98
36743	-1.028	0.014	0.045	2.03	-5.6	-1.4
36767	-1.049	0.028	0.055	1.47	-6.72	-1.61
36789	-1.045	0.031	0.057	0.35	-8.33	-1.75
36811	-1.038	0.022	0.062	-0.28	-9.94	-1.75
36831	-1.034	0.019	0.067	0.21	-11.62	-1.75
36851	-1.031	0.016	0.076	0.98	-12.81	-1.54
36868	-1.03	0.013	0.085	1.47	-13.86	-1.12
36891	-1.025	0.016	0.089	1.68	-15.05	-0.98
36911	-1.016	0.021	0.094	2.52	-14.77	-1.12
36929	-1.022	0.026	0.101	2.45	-14.49	-0.7
36949	-1.021	0.024	0.106	1.54	-14.77	-0.14
36974	-1.019	0.02	0.118	0.35	-14.21	-0.35
36993	-1.014	0.02	0.127	0.14	-13.58	-0.49
37013	-1.006	0.021	0.136	-0.77	-13.3	-0.77
37033	-0.994	0.026	0.135	-1.4	-11.27	-1.05
37049	-1.003	0.023	0.145	-1.33	-9.59	-0.98
37068	-1.002	0.022	0.155	-1.4	-8.26	-0.56
37093	-1.001	0.014	0.152	-1.33	-6.79	-0.56
37112	-1.001	0.018	0.15	-0.98	-5.88	-0.35
37130	-0.992	0.016	0.138	0.07	-4.76	-0.28
37155	-0.986	0.017	0.144	0.77	-1.82	-0.63
37174	-0.995	0.0	0.156	1.54	-0.91	0.0
37198	-1.001	0.013	0.157	1.75	-1.47	0.56
37222	-0.995	0.008	0.141	2.17	-0.77	0.63
37241	-0.994	0.007	0.137	1.82	-0.77	-0.28
37265	-0.989	0.019	0.135	1.12	-1.75	-1.75
37282	-0.984	0.032	0.122	1.12	-0.49	-1.82
37304	-0.986	0.024	0.132	0.84	1.47	-1.68
37324	-0.992	0.022	0.133	0.84	1.96	-1.82
37349	-0.998	0.023	0.132	1.47	2.8	-1.75
37367	-1.0	0.022	0.134	1.54	3.15	-1.54
37387	-0.995	0.023	0.131	1.68	4.06	-1.68
37411	-0.999	0.02	0.127	2.24	4.13	-1.96
37428	-1.007	0.022	0.121	2.66	3.99	-1.75
37448	-1.008	0.026	0.116	2.66	3.22	-1.82
37468	-1.008	0.029	0.115	2.73	3.29	-1.61
37493	-1.01	0.028	0.116	2.52	2.94	-1.75
37512	-1.021	0.023	0.114	1.89	2.94	-1.96
37532	-1.013	0.021	0.107	1.75	3.08	-1.96
37549	-1.01	0.018	0.105	1.82	3.01	-1.75
37569	-1.006	0.01	0.113	2.52	2.31	-1.68
37593	-1.005	0.006	0.107	3.08	1.61	-1.4
37614	-1.017	0.016	0.099	3.78	-0.35	-1.19
37632	-1.017	0.023	0.099	3.29	-1.68	-1.26
37656	-1.023	0.017	0.087	2.94	-4.55	-1.4
37675	-1.009	0.012	0.073	1.54	-5.46	-1.89
37696	-1.008	0.013	0.072	-0.07	-4.34	-3.01
37716	-1.013	0.017	0.083	-0.91	-3.15	-3.71
37735	-1.022	0.02	0.104	-0.49	-2.38	-4.06
37759	-1.036	0.017	0.103	0.07	-2.94	-3.01
37779	-1.034	0.013	0.102	0.21	-1.96	-1.96
37797	-1.029	0.016	0.121	1.4	-1.47	-1.4
37821	-1.019	0.025	0.127	1.96	-0.84	-1.05
37841	-1.015	0.02	0.132	1.19	-1.61	-0.98
37857	-1.005	0.019	0.128	0.21	-1.75	-1.19
37877	-0.995	0.02	0.131	-0.7	-1.26	-1.4
37900	-0.992	0.013	0.123	-0.84	-0.98	-1.82
37922	-0.994	0.011	0.116	-0.56	-0.63	-2.03
37941	-0.999	0.006	0.115	-0.07	-0.07	-1.96
37961	-1.002	0.002	0.112	0.07	0.42	-1.75
37981	-1.002	0.0	0.105	0.42	0.63	-1.68
38001	-1.003	0.002	0.104	0.91	1.19	-1.96
38021	-1.008	0.011	0.102	0.91	1.82	-2.1
38045	-1.014	0.01	0.106	1.4	2.24	-2.1
38064	-1.018	0.007	0.109	0.98	1.96	-2.17
38083	-1.02	0.007	0.105	1.19	1.4	-2.24
38106	-1.018	0.013	0.096	1.54	1.05	-2.1
38124	-1.019	0.007	0.099	1.61	0.7	-2.31
38145	-1.018	0.009	0.095	0.98	0.49	-2.38
38170	-1.015	0.013	0.102	2.1	-0.56	-2.38
38189	-1.015	0.027	0.095	2.87	-1.26	-2.24
38209	-1.021	0.029	0.096	2.66	-1.89	-1.82
38227	-1.024	0.036	0.095	1.61	-2.38	-1.26
38246	-1.017	0.025	0.101	0.0	-3.22	-0.84
38272	-0.99	0.011	0.094	-3.01	-3.36	-1.26
38291	-0.978	0.0	0.087	-4.41	-0.98	-2.45
38311	-0.987	0.004	0.101	-4.41	0.28	-2.52
38330	-1.014	0.0	0.115	-3.43	0.0	-1.61
38350	-1.027	-0.016	0.119	-2.73	-0.42	-0.35
38374	-1.02	-0.022	0.103	-3.43	-0.35	-0.28
38394	-1.003	-0.015	0.108	-3.71	0.98	-0.21
38410	-0.983	0.004	0.111	-2.45	2.38	-0.07
38433	-0.977	0.011	0.122	-1.12	4.62	0.7
38455	-0.99	0.0	0.134	-0.28	4.69	0.49
38474	-0.988	-0.005	0.124	0.14	5.74	-0.28
38494	-0.995	-0.005	0.124	0.84	7.28	-0.84
38513	-1.011	0.013	0.132	1.05	7.84	-1.26
38536	-1.02	0.034	0.126	0.7	7.7	-1.68
38553	-1.023	0.044	0.12	0.56	7.35	-0.98
38576	-1.03	0.036	0.116	-0.63	5.6	0.56
38596	-1.024	0.005	0.103	-1.82	2.94	1.82
38617	-1.015	-0.004	0.094	-2.66	-0.35	1.75
38637	-0.999	0.014	0.079	-3.22	-1.54	1.54
38662	-1.01	0.006	0.081	-2.03	-1.96	1.68
38681	-1.02	-0.007	0.087	0.14	-2.52	2.17
38701	-1.017	-0.018	0.071	1.89	-1.54	2.66
38720	-1.002	-0.027	0.026	2.1	2.24	2.66
38741	-0.992	-0.011	0.016	2.45	8.4	1.82
38761	-0.996	0.0	0.026	3.08	13.09	0.42
38780	-1.015	0.01	0.033	2.94	17.36	-0.63
38800	-1.03	0.017	0.045	2.31	23.8	-1.33
38824	-1.078	0.02	0.079	1.68	22.61	-0.63
38845	-1.012	0.027	0.0	3.5	11.62	0.14
38862	-0.957	0.036	0.016	3.08	10.85	0.63
38882	-0.97	0.024	0.065	3.85	10.01	1.4
38903	-0.996	0.016	0.048	5.18	8.26	1.33
38927	-1.021	0.011	0.057	4.9	7.7	0.98
38947	-1.05	0.001	0.062	5.18	5.25	0.35
38965	-1.048	0.011	0.042	5.81	4.13	-0.49
38989	-1.049	0.022	0.035	6.3	3.5	-0.84
39009	-1.038	0.022	0.031	6.09	2.87	-1.33
39025	-1.021	0.029	0.029	6.3	2.52	-1.4
39044	-1.013	0.025	0.024	5.95	2.73	-1.54
39064	-1.001	0.022	0.014	5.18	2.45	-2.1
39089	-0.996	0.021	0.02	4.06	2.45	-2.94
39108	-0.997	0.024	0.017	3.57	2.1	-3.29
39128	-1.01	0.022	0.02	2.8	1.33	-3.29
39152	-1.017	0.023	0.017	2.17	-0.28	-2.87
39170	-1.031	0.023	0.028	2.1	-2.59	-2.45
39190	-1.033	0.028	0.035	2.66	-6.65	-1.82
39209	-1.033	0.024	0.041	1.75	-11.69	-0.77
39233	-1.004	0.015	-0.01	0.21	-16.66	0.0
39250	-0.979	0.02	-0.013	-2.24	-9.03	-1.19
39270	-1.073	0.029	0.054	-1.96	-2.38	-1.4
39294	-1.079	0.018	0.05	-0.77	-2.52	-1.12
39315	-1.06	0.013	0.045	0.07	-2.24	-1.19
39332	-1.047	0.004	0.035	0.77	-4.97	-1.19
39353	-0.988	0.007	0.016	1.4	-5.74	-1.05
39370	-0.966	0.009	0.022	1.47	-5.25	-0.84
39394	-0.971	0.014	0.01	1.96	-3.36	-1.05
39418	-1.013	0.015	0.023	2.24	-2.1	-0.98
39438	-1.044	0.015	0.031	2.24	-3.64	-1.19
39456	-1.058	0.022	0.049	2.03	-7.98	-1.19
39476	-1.061	0.018	0.061	0.91	-16.1	-0.98
39496	-1.019	0.008	-0.0	-1.26	-15.75	-1.47
39521	-1.053	0.018	0.096	0.56	-11.76	-2.1
39537	-1.079	0.018	0.074	1.19	-13.16	-2.31
39561	-1.049	0.014	0.07	2.45	-14.14	-2.03
39580	-1.037	0.02	0.1	2.24	-12.74	-2.66
39601	-1.051	0.03	0.108	1.54	-13.86	-2.03
39622	-1.018	0.024	0.072	2.17	-15.61	-0.98
39638	-0.982	0.028	0.072	2.17	-13.86	-0.7
39661	-0.974	0.023	0.095	1.05	-12.25	-0.14
39682	-0.975	0.02	0.113	-0.07	-10.99	-0.14
39702	-0.992	0.009	0.135	-0.42	-11.55	-0.35
39722	-1.006	0.016	0.138	-0.35	-12.95	-0.91
39742	-1.015	0.015	0.138	-0.42	-14.07	-1.26
39766	-1.013	0.024	0.125	-1.05	-14.56	-1.12
39785	-1.005	0.012	0.127	-1.26	-13.16	-0.77
39805	-0.999	0.008	0.132	-0.98	-11.41	-0.91
39829	-0.991	0.0	0.138	-0.91	-9.45	-1.19
39849	-0.988	-0.003	0.134	-1.19	-8.33	-1.89
39869	-0.995	0.02	0.137	-1.68	-6.72	-2.17
39887	-0.997	0.023	0.144	-1.33	-5.6	-1.61
39907	-1.0	0.017	0.145	-1.54	-3.99	-1.75
39931	-1.004	0.015	0.163	-1.05	-1.19	-2.17
39951	-1.019	0.009	0.144	-0.98	-0.91	-2.38
39970	-1.013	0.009	0.106	-0.49	-0.07	-2.45
39994	-0.991	0.019	0.102	0.28	2.03	-1.4
40015	-0.988	0.018	0.119	0.35	1.89	-0.91
40035	-0.997	0.018	0.142	0.07	-0.28	-0.84
40052	-1.002	0.02	0.129	0.35	-2.03	-0.49
40075	-0.996	0.009	0.122	-0.77	-2.73	-0.42
40093	-0.993	0.007	0.13	-0.56	-3.5	-0.84
40112	-0.993	0.001	0.127	-0.91	-5.04	-0.91
40136	-0.995	-0.007	0.103	-0.63	-7.35	-0.63
40156	-0.975	-0.004	0.081	1.12	-7.0	-0.91
40175	-0.977	0.001	0.082	1.82	-6.02	-0.63
40199	-0.973	-0.001	0.064	0.98	-3.57	-0.63
40219	-0.987	0.007	0.105	0.49	-1.19	-0.98
40238	-1.017	0.006	0.127	-17.85	-1.12	-1.54
40259	-1.04	0.01	0.137	-0.56	-1.33	-2.24
40278	-1.057	0.018	0.134	-0.56	-1.4	-2.52
40299	-1.065	0.015	0.138	-0.77	-1.89	-2.45
40318	-1.057	0.016	0.144	-0.77	-2.87	-1.89
40343	-1.041	0.009	0.142	0.07	-4.55	-1.54
40364	-1.023	0.006	0.134	1.54	-5.11	-1.68
40378	-0.998	0.007	0.133	1.68	-4.76	-1.82
40403	-0.991	0.011	0.136	2.03	-4.13	-2.38
40422	-0.986	0.013	0.133	1.54	-3.5	-2.52
40446	-0.98	0.011	0.122	1.54	-1.75	-2.94
40467	-0.985	0.009	0.122	1.4	-0.21	-2.94
40486	-0.985	0.002	0.131	1.47	0.98	-3.15
40503	-0.993	0.001	0.147	1.47	1.4	-3.29
40523	-1.005	-0.004	0.149	1.96	1.05	-3.15
40547	-1.009	-0.001	0.149	2.31	0.63	-3.08
40566	-1.013	-0.001	0.15	2.17	0.49	-2.87
40589	-1.015	0.001	0.142	2.24	0.21	-2.52
40608	-1.004	-0.0	0.134	2.52	0.49	-2.24
40630	-1.002	0.005	0.127	2.66	1.19	-1.96
40650	-1.008	0.007	0.13	2.38	1.4	-1.89
40670	-1.014	0.005	0.123	2.45	1.26	-1.68
40689	-1.012	0.007	0.12	2.45	1.4	-1.54
40710	-1.017	0.004	0.122	2.17	1.12	-1.4
40730	-1.016	0.003	0.125	1.96	0.63	-1.47
40752	-1.017	0.006	0.122	1.61	-0.21	-1.33
40772	-1.009	0.018	0.12	1.61	-0.28	-0.91
40792	-1.01	0.017	0.123	0.84	-0.28	-0.49
40812	-1.01	0.009	0.127	-0.7	-0.84	-0.07
40831	-0.997	-0.007	0.126	-0.7	-0.7	-0.42
40851	-0.989	0.001	0.122	-2.8	-0.63	-0.35
40876	-0.978	-0.0	0.126	-3.36	1.33	-1.05
40894	-0.991	0.005	0.142	-2.94	2.24	-1.05
40919	-1.011	0.001	0.149	-2.1	2.31	-1.05
40938	-1.018	0.003	0.142	-3.64	2.45	-0.84
40957	-1.013	-0.002	0.136	-4.41	2.24	-1.05
40976	-1.01	0.003	0.14	-5.32	2.52	-1.33
41000	-1.012	0.001	0.148	-5.25	3.5	-1.47
41019	-1.018	0.014	0.161	-4.13	2.1	-0.98
41038	-1.004	0.009	0.156	-4.27	0.35	-0.56
41058	-0.991	0.005	0.134	-6.02	1.33	-0.77
41082	-0.992	0.023	0.141	-6.86	3.43	-0.7
41101	-0.996	0.018	0.152	-6.02	4.9	-0.14
41123	-1.009	-0.016	0.146	-5.95	5.25	0.49
41144	-1.01	-0.029	0.132	-5.18	5.46	0.63
41163	-1.004	-0.03	0.121	-1.89	6.23	0.42
41180	-1.008	-0.03	0.122	-0.07	6.65	0.49
41204	-1.004	-0.024	0.11	-0.42	7.28	0.14
41224	-1.008	-0.018	0.117	-1.12	7.84	-0.98
41244	-1.011	-0.004	0.119	-0.35	7.56	-1.75
41265	-1.015	-0.013	0.118	2.52	7.7	-1.47
41282	-1.017	-0.018	0.11	3.64	7.98	-0.91
41303	-1.018	-0.016	0.099	4.06	8.12	-0.63
41320	-1.014	-0.011	0.093	4.55	9.52	-0.84
41344	-1.024	-0.001	0.095	5.46	9.31	-1.19
41364	-1.026	0.008	0.091	6.86	7.77	-0.98
41385	-1.025	0.013	0.076	7.0	5.53	-0.42
41403	-1.008	0.015	0.046	5.81	5.95	0.28
41424	-1.002	0.006	0.041	4.76	6.72	0.21
41448	-0.996	-0.003	0.049	4.62	6.44	-0.35
41468	-1.009	-0.012	0.059	4.13	6.51	-0.77
41484	-1.015	-0.01	0.062	4.34	5.81	-1.33
41503	-1.018	-0.006	0.06	4.83	4.48	-1.82
41528	-1.024	0.005	0.061	5.04	3.15	-1.68
41548	-1.03	0.004	0.063	5.39	0.84	-1.26
41572	-1.028	0.004	0.058	5.6	-1.26	-0.49
41591	-1.035	0.009	0.045	5.46	-0.7	0.0
41612	-1.043	0.007	0.043	4.69	0.14	-0.35
41632	-1.037	0.003	0.065	2.66	-0.28	-0.91
41652	-1.022	0.008	0.073	2.17	-1.89	-1.4
41671	-1.009	0.019	0.072	2.17	-2.52	-1.47
41695	-1.0	0.018	0.072	1.54	-3.01	-0.84
41713	-0.994	0.01	0.058	1.47	-2.24	-0.49
41733	-1.007	0.01	0.073	1.47	-1.12	-0.42
41753	-1.026	0.007	0.075	0.98	-1.26	-0.35
41772	-1.034	0.005	0.067	0.42	-2.03	-0.49
41797	-1.023	0.007	0.056	-0.14	-2.8	-0.63
41817	-1.003	0.006	0.058	-0.84	-2.66	-1.05
41833	-0.999	0.011	0.06	-0.91	-2.45	-1.19
41856	-0.999	0.012	0.065	-0.56	-1.54	-1.12
41872	-1.014	0.006	0.06	-0.49	-1.96	-1.12
41898	-1.014	-0.0	0.039	-1.61	-1.82	-1.4
41917	-1.037	0.0	0.049	-1.68	-1.75	-1.54
41936	-1.064	-0.01	0.063	-1.54	-3.08	-0.98
41956	-1.069	-0.009	0.058	0.14	-6.51	0.14
41972	-1.078	-0.004	0.057	0.14	-9.38	0.84
41997	-1.053	-0.0	0.05	-0.28	-13.72	1.26
42017	-1.025	0.007	0.048	0.07	-15.4	1.4
42036	-1.006	0.017	0.049	0.35	-15.96	1.26
42054	-0.988	0.015	0.061	0.42	-15.26	0.98
42077	-0.982	0.013	0.086	0.28	-13.16	0.84
42098	-0.993	0.009	0.11	-0.28	-10.78	0.07
42118	-1.011	0.013	0.123	-0.07	-9.17	-0.42
42137	-1.025	0.013	0.134	-0.14	-8.19	-0.56
42159	-1.029	0.012	0.137	-0.35	-7.98	-0.63
42181	-1.023	0.011	0.142	-0.49	-7.84	-0.42
42200	-1.021	0.012	0.145	-0.28	-8.33	0.28
42220	-1.006	0.011	0.138	-0.49	-8.05	0.7
42244	-1.007	0.005	0.134	-0.77	-7.21	0.7
42264	-0.998	0.007	0.131	-0.77	-6.65	0.63
42280	-0.993	0.013	0.135	-0.35	-5.6	0.28
42304	-0.989	0.009	0.128	-0.14	-4.62	0.0
42325	-0.99	0.001	0.131	0.07	-2.59	-0.07
42343	-1.002	0.012	0.147	0.0	-2.1	-0.28
42368	-1.017	0.01	0.146	0.49	-3.08	-0.28
42387	-1.009	0.008	0.14	0.42	-3.29	0.07
42407	-1.006	0.008	0.151	1.12	-3.29	-0.35
42431	-1.0	0.019	0.142	0.91	-2.66	-0.63
42451	-1.0	0.019	0.145	-0.56	-3.71	-1.19
42466	-0.991	0.019	0.129	-1.05	-4.2	-1.68
42487	-0.978	0.019	0.133	-1.68	-3.01	-2.94
42511	-0.988	0.02	0.141	-2.38	-3.01	-3.64
42531	-0.995	0.014	0.128	-1.47	-3.22	-3.78
42551	-0.997	0.0	0.129	-1.26	-2.03	-4.13
42570	-1.01	0.0	0.135	-0.35	-1.96	-4.13
42595	-1.015	0.006	0.136	1.26	-2.03	-3.57
42614	-1.007	0.003	0.132	2.45	-2.38	-2.8
42633	-0.998	0.013	0.135	2.87	-2.59	-2.24
42653	-0.99	0.019	0.132	2.73	-3.57	-1.61
42676	-0.982	0.014	0.114	1.75	-3.71	-1.12
42697	-0.985	0.007	0.091	1.54	-3.92	-0.91
42721	-0.989	-0.123	0.091	0.91	-2.38	-0.91
42741	-1.004	-0.006	0.086	0.21	-1.75	-0.91
42765	-1.016	-0.006	0.095	0.77	-0.56	-0.84
42783	-1.037	-0.003	0.113	1.47	0.7	-0.56
42805	-1.057	0.005	0.122	1.54	1.33	-0.21
42825	-1.062	0.008	0.136	1.19	0.98	-0.21
42849	-1.053	0.009	0.144	1.05	-0.7	-0.21
42870	-1.029	0.014	0.145	0.98	-3.08	-0.07
42890	-1.012	0.012	0.145	1.4	-4.2	-0.21
42909	-0.997	0.015	0.135	1.61	-4.55	-0.28
42929	-0.987	0.015	0.128	1.75	-3.99	-0.77
42947	-0.986	0.013	0.124	1.4	-3.5	-0.98
42971	-0.995	0.012	0.126	1.26	-2.03	-1.12
42990	-1.0	0.006	0.132	1.61	-1.12	-1.05
43015	-1.003	0.002	0.132	2.17	-0.28	-1.05
43033	-1.002	0.006	0.134	2.24	-0.28	-1.05
43055	-1.006	0.008	0.139	2.38	-0.21	-1.19
43074	-1.009	0.01	0.14	2.1	-0.21	-1.12
43098	-1.013	0.009	0.144	1.89	-0.77	-1.19
43118	-1.013	0.011	0.14	2.17	-0.35	-1.19
43138	-1.012	0.006	0.133	1.89	-0.7	-1.05
43158	-1.002	0.004	0.127	1.05	-0.14	-1.19
43182	-1.004	0.009	0.126	1.4	0.49	-1.33
43201	-1.004	0.012	0.125	2.1	0.56	-1.12
43222	-1.01	0.009	0.124	1.4	-0.28	-0.98
43243	-1.012	0.011	0.117	0.84	-0.35	-0.91
43262	-1.02	0.011	0.122	0.49	-1.05	-0.7
43280	-1.017	0.008	0.12	0.49	-1.96	-0.49
43299	-1.011	0.003	0.114	0.42	-2.17	-0.7
43323	-1.009	0.006	0.112	0.49	-2.59	-0.84
43341	-1.002	0.005	0.108	0.28	-2.8	-0.91
43361	-1.002	0.0	0.112	-0.35	-2.87	-1.26
43382	-1.003	0.01	0.113	-1.47	-2.87	-2.1
43407	-1.001	0.024	0.115	-1.96	-2.17	-2.52
43426	-0.999	0.035	0.118	-2.03	-0.7	-2.24
43447	-1.004	0.031	0.141	-2.45	0.42	-1.47
43462	-1.018	0.014	0.151	-3.08	-0.14	-1.05
43485	-1.019	0.01	0.143	-3.92	-1.4	-0.63
43504	-1.012	0.012	0.137	-5.25	-1.4	-0.77
43527	-0.991	0.015	0.122	-5.18	0.21	-0.49
43545	-0.992	0.003	0.142	-4.27	1.47	0.42
43569	-0.98	-0.02	0.148	-3.22	2.1	0.14
43588	-0.953	-0.018	0.14	-3.43	5.74	-0.56
43608	-0.957	-0.008	0.16	-2.59	9.31	-1.96
43628	-0.974	0.015	0.175	-0.07	11.76	-2.17
43651	-0.994	0.021	0.168	-0.14	12.88	-1.19
43673	-1.006	0.007	0.157	-1.96	13.86	-0.84
43690	-0.992	-0.015	0.149	-2.24	15.05	-1.12
43714	-0.98	-0.034	0.143	-0.7	16.31	-2.03
43732	-0.994	-0.018	0.139	0.42	17.64	-2.45
43755	-1.017	-0.006	0.14	2.31	17.15	-2.59
43777	-1.034	0.007	0.101	3.22	14.77	-2.24
43796	-1.05	0.013	0.083	2.94	14.91	-1.82
43821	-1.052	0.023	0.065	1.82	14.28	-1.12
43835	-1.037	0.019	0.046	0.56	13.86	-0.63
43858	-1.0	0.014	0.036	-2.38	14.77	-1.12
43878	-1.013	0.009	0.061	-3.43	14.28	-1.89
43898	-1.028	0.012	0.065	-3.15	12.18	-1.61
43922	-1.033	-0.002	0.057	-2.17	10.22	-0.21
43943	-1.038	-0.018	0.046	-1.12	8.4	0.63
43960	-1.034	-0.03	0.042	0.28	7.35	1.47
43981	-1.029	-0.027	0.036	1.61	6.09	1.89
44001	-1.022	-0.035	0.025	3.99	5.25	1.82
44025	-1.032	-0.012	0.03	5.95	4.27	1.4
44044	-1.031	0.005	0.026	7.42	2.87	1.4
44064	-1.025	0.008	0.017	6.86	0.98	0.77
44087	-1.014	0.011	0.024	6.44	0.21	0.35
44107	-1.023	0.022	0.037	6.02	-0.28	0.14
44127	-1.033	0.02	0.043	5.39	-1.82	-0.14
44151	-1.034	0.016	0.039	5.04	-4.62	-0.35
44171	-1.032	0.02	0.04	4.27	-7.28	-0.35
44191	-1.024	0.024	0.036	3.15	-9.03	-0.42
44212	-1.02	0.02	0.034	2.1	-9.87	-0.49
44231	-1.018	0.014	0.035	1.68	-11.76	-0.56
44251	-1.009	0.013	0.022	2.8	-13.16	-0.42
44272	-1.0	0.006	0.002	2.31	-11.41	-0.63
44291	-1.007	-0.001	0.0	1.75	-9.66	-0.63
44310	-1.01	0.002	0.005	1.05	-9.52	-1.12
44329	-1.017	0.02	0.014	-0.14	-9.1	-1.68
44351	-1.047	0.029	0.061	-0.7	-10.08	-1.75
44371	-1.062	0.028	0.084	-1.26	-12.88	-1.68
44395	-1.057	0.025	0.073	-2.52	-16.52	-1.89
44416	-1.043	0.025	0.065	-3.29	-17.43	-1.82
44435	-1.036	0.023	0.09	-3.01	-17.43	-1.47
44452	-1.036	0.027	0.104	-2.31	-17.43	-0.49
44475	-1.035	0.013	0.122	-1.68	-17.08	1.4
44494	-1.016	-0.007	0.135	-0.91	-16.66	2.94
44516	-1.005	-0.017	0.142	-0.35	-15.61	3.08
44535	-0.996	-0.006	0.138	-0.07	-14.07	2.1
44554	-0.992	-0.001	0.148	0.98	-12.39	1.26
44575	-0.988	0.009	0.155	2.1	-11.13	1.33
44595	-0.987	0.003	0.152	3.78	-10.01	1.61
44614	-0.993	0.008	0.147	4.9	-8.12	1.75
44640	-1.001	0.012	0.155	4.83	-6.16	2.59
44659	-1.005	-0.001	0.165	5.25	-5.74	3.57
44679	-0.997	0.001	0.156	5.88	-4.83	2.66
44703	-0.995	0.022	0.161	5.53	-2.59	2.59
44723	-1.013	0.028	0.167	4.2	-1.82	2.31
44743	-1.011	0.043	0.162	2.52	-3.78	2.31
44762	-0.985	0.031	0.144	1.4	-4.34	2.03
44786	-0.974	0.034	0.134	-0.21	-3.92	1.54
44806	-0.983	0.046	0.138	-1.4	-2.87	1.12
44821	-0.993	0.043	0.14	-1.4	-2.8	0.49
44842	-0.994	0.039	0.14	-2.17	-3.01	0.84
44863	-0.991	0.037	0.118	-3.15	0.63	0.77
44881	-1.007	0.048	0.143	-3.15	2.52	0.77
44905	-1.023	0.042	0.15	-3.29	1.68	1.47
44924	-1.021	0.028	0.136	-3.22	-1.05	1.47
44950	-0.991	0.013	0.118	-3.85	-4.06	0.56
44969	-0.985	0.016	0.111	-3.71	-5.11	-0.56
44987	-0.982	0.024	0.108	-3.08	-5.81	-1.61
45011	-0.982	0.028	0.104	-2.03	-5.67	-2.17
45030	-0.988	0.024	0.103	-0.63	-4.76	-2.1
45051	-1.001	0.027	0.103	2.03	-3.78	-1.4
45071	-1.008	0.021	0.105	2.87	-2.59	-0.21
45091	-1.005	0.016	0.107	3.43	-1.47	0.21
45111	-1.006	0.017	0.11	2.87	-1.68	-0.07
45129	-1.004	0.029	0.109	2.66	-1.89	-0.42
45148	-1.015	0.034	0.126	3.01	-1.54	-0.63
45172	-1.024	0.026	0.134	2.87	-1.96	-0.77
45191	-1.026	0.02	0.134	2.1	-1.33	-1.19
45211	-1.038	0.028	0.137	2.59	-0.7	-0.91
45231	-1.037	0.03	0.136	3.36	-0.56	-0.21
45254	-1.022	0.032	0.132	3.92	-0.7	0.21
45275	-1.015	0.036	0.135	4.27	-0.7	0.63
45294	-1.004	0.04	0.139	4.34	-0.91	0.49
45318	-1.0	0.044	0.139	3.92	-1.05	0.21
45337	-1.002	0.044	0.139	3.5	-1.75	0.07
45357	-1.001	0.041	0.131	3.08	-1.89	0.07
45377	-1.002	0.032	0.125	3.01	-1.82	0.07
45401	-1.007	0.027	0.123	3.15	-1.82	0.0
45421	-1.01	0.03	0.12	3.64	-1.33	0.07
45439	-1.012	0.027	0.127	3.78	-1.26	0.07
45459	-1.015	0.039	0.126	3.22	-2.45	0.14
45483	-1.01	0.047	0.122	2.59	-2.73	0.28
45503	-1.01	0.045	0.121	1.33	-3.29	0.28
45522	-1.007	0.046	0.123	0.84	-3.78	0.07
45548	-1.005	0.051	0.136	2.31	-4.48	-0.21
45565	-1.007	0.067	0.131	2.52	-4.97	-0.21
45585	-1.018	0.068	0.133	1.05	-6.44	0.07
45604	-1.006	0.08	0.123	0.07	-6.79	0.28
45628	-0.999	0.084	0.135	-0.28	-5.46	0.7
45649	-0.988	0.054	0.152	-1.4	-3.99	1.05
45674	-0.968	0.033	0.154	-3.01	-0.63	-0.14
45691	-0.969	0.047	0.164	-4.06	2.31	-1.19
45712	-0.986	0.048	0.177	-6.02	3.01	-1.26
45735	-0.979	0.025	0.165	-7.28	3.99	-3.01
45759	-0.981	0.013	0.174	-9.38	6.23	-4.41
45778	-0.982	0.012	0.176	-11.41	8.33	-6.51
45797	-0.967	0.014	0.18	-9.94	9.87	-8.33
45818	-0.978	0.029	0.182	-7.56	11.62	-9.17
45839	-1.0	0.026	0.202	-4.41	12.32	-7.84
45858	-1.025	0.025	0.187	-1.4	10.43	-5.53
45877	-1.021	0.02	0.146	1.12	11.55	-4.27
45901	-1.01	0.023	0.137	3.36	14.91	-3.5
45925	-1.017	0.044	0.171	3.64	15.68	-2.94
45941	-1.022	0.067	0.179	2.73	12.74	-2.94
45965	-1.005	0.048	0.14	0.84	9.38	-3.08
45983	-0.987	0.033	0.118	-1.68	10.43	-3.5
46002	-1.011	0.014	0.125	-3.29	12.81	-4.41
46027	-1.039	0.006	0.125	-4.13	11.2	-4.55
46046	-1.043	0.001	0.086	-3.5	9.1	-4.2
46065	-1.032	-0.013	0.065	-1.75	7.42	-3.71
46085	-1.016	-0.012	0.055	0.0	7.49	-3.08
46110	-1.019	-0.008	0.061	0.84	6.93	-2.03
46129	-1.03	-0.002	0.061	0.42	6.16	-2.38
46149	-1.039	0.02	0.062	1.4	4.48	-2.1
46168	-1.032	0.02	0.056	2.31	3.78	-1.54
46190	-1.029	0.02	0.058	2.8	3.01	-1.4
46210	-1.023	0.016	0.056	2.94	2.38	-1.26
46234	-1.02	0.019	0.059	3.85	1.54	-1.47
46254	-1.019	0.012	0.054	3.5	-0.07	-1.61
46272	-1.009	-0.006	0.048	3.22	-0.7	-1.82
46296	-1.005	0.001	0.057	5.11	-0.07	-1.89
46314	-1.03	0.019	0.071	6.86	-0.77	-1.4
46338	-1.039	0.022	0.058	6.16	-2.31	-1.05
46358	-1.034	0.021	0.053	5.11	-2.03	-1.47
46373	-1.028	0.02	0.069	4.41	-1.82	-1.75
46395	-1.017	0.018	0.079	4.34	-3.15	-1.96
46413	-1.012	0.023	0.073	4.34	-4.2	-2.1
46438	-1.01	0.022	0.066	4.41	-5.67	-1.82
46458	-1.014	0.02	0.055	4.27	-6.72	-1.26
46475	-1.005	0.018	0.048	3.85	-7.28	-0.7
46499	-0.998	0.02	0.041	3.64	-6.58	-0.7
46519	-1.009	0.011	0.051	3.5	-6.3	-0.91
46539	-1.017	0.016	0.041	2.66	-6.79	-1.4
46563	-1.028	0.019	0.055	0.63	-6.23	-2.59
46580	-1.038	0.028	0.077	0.77	-6.72	-3.01
46600	-1.048	0.027	0.099	1.33	-8.96	-2.59
46624	-1.04	0.024	0.095	0.91	-11.2	-2.45
46644	-1.043	0.011	0.096	1.54	-12.53	-1.82
46663	-1.04	0.002	0.102	2.52	-13.16	-1.19
46684	-1.039	0.007	0.122	2.94	-13.3	-0.56
46705	-1.04	0.013	0.129	4.06	-13.72	-0.28
46724	-1.03	0.018	0.14	3.57	-13.72	0.49
46743	-1.015	0.011	0.141	2.59	-14.0	0.77
46763	-0.991	0.009	0.142	0.98	-12.95	0.42
46782	-0.977	0.013	0.145	-0.14	-10.85	-0.28
46807	-0.979	0.016	0.163	-0.7	-8.96	-1.33
46827	-0.977	0.014	0.173	-0.63	-6.58	-1.4
46847	-1.001	0.019	0.188	-0.77	-5.6	-2.17
46867	-1.012	0.019	0.183	-0.42	-5.95	-1.82
46891	-1.009	0.011	0.175	0.77	-4.9	-0.7
46910	-1.012	-0.003	0.174	1.61	-4.27	0.49
46930	-1.008	-0.006	0.169	2.31	-3.5	1.33
46951	-1.003	-0.001	0.163	3.71	-3.22	2.1
46967	-0.999	-0.004	0.165	4.69	-2.24	1.61
46986	-0.989	0.017	0.153	3.29	-2.8	0.84
47010	-0.996	0.032	0.138	0.49	-2.73	-0.77
47030	-0.983	0.048	0.14	-0.42	-2.03	-1.54
47048	-0.997	0.041	0.144	-1.61	-0.98	-2.45
47069	-1.012	0.029	0.153	-4.34	-2.52	-3.64
47093	-1.005	0.015	0.131	-5.32	-2.73	-4.48
47113	-1.0	0.014	0.148	-4.83	-1.12	-4.06
47131	-1.001	0.02	0.156	-3.5	-1.61	-3.43
47153	-0.989	0.013	0.137	-0.98	-2.31	-2.31
47178	-0.993	0.009	0.133	0.42	-3.22	-1.12
47197	-1.001	0.014	0.134	0.7	-3.99	0.0
47217	-1.005	0.015	0.13	1.26	-4.83	0.98
47235	-1.008	0.022	0.129	1.82	-5.32	1.82
47259	-1.003	0.018	0.136	1.26	-7.14	2.8
47278	-0.994	0.014	0.13	-0.07	-9.73	2.73
47299	-0.982	0.01	0.111	-1.68	-9.59	2.38
47320	-0.978	0.004	0.107	-1.54	-7.21	2.24
47338	-0.993	0.001	0.115	-2.03	-4.9	2.03
47361	-1.008	0.005	0.123	-1.47	-3.36	2.1
47382	-1.019	-0.0	0.13	-0.21	-1.82	1.96
47402	-1.034	0.005	0.142	0.35	-1.12	1.96
47422	-1.036	0.013	0.154	0.14	-1.26	1.75
47446	-1.032	0.025	0.161	-0.42	-1.96	1.61
47464	-1.02	0.022	0.161	-0.42	-3.22	1.54
47486	-1.01	0.023	0.154	-0.56	-3.64	1.33
47505	-1.004	0.024	0.151	-0.42	-3.57	1.19
47523	-1.004	0.024	0.147	-0.28	-3.08	0.84
47545	-1.0	0.028	0.145	0.07	-2.45	0.7
47565	-0.998	0.031	0.139	0.91	-1.82	0.42
47584	-0.998	0.033	0.137	1.19	-0.84	0.35
47609	-1.002	0.033	0.142	1.26	-0.7	0.49
47629	-1.003	0.028	0.142	1.26	-0.63	0.49
47649	-1.0	0.022	0.138	1.4	-1.19	0.28
47672	-0.997	0.021	0.135	2.03	-0.98	0.14
47693	-0.99	0.03	0.13	3.01	-0.28	-0.14
47712	-0.983	0.035	0.116	2.03	-0.07	-0.21
47732	-0.962	0.04	0.101	0.84	1.47	-0.42
47756	-0.958	0.041	0.113	1.4	4.69	-1.05
47776	-0.981	0.036	0.156	2.31	8.19	-1.54
47796	-1.019	0.03	0.183	1.4	8.05	-1.61
47820	-1.032	0.032	0.18	-0.35	7.35	-2.59
47840	-1.033	0.031	0.168	-2.38	7.14	-3.01
47860	-1.024	0.029	0.161	-3.08	7.0	-3.15
47882	-1.02	0.023	0.165	-2.45	7.28	-3.36
47902	-1.014	0.016	0.172	-2.45	5.95	-2.94
47926	-1.004	0.008	0.154	-3.92	5.39	-3.36
47946	-0.997	0.016	0.154	-4.27	6.51	-3.36
47966	-1.006	0.024	0.163	-2.94	7.7	-3.36
47986	-0.996	0.019	0.154	-0.63	7.91	-2.8
48003	-0.984	0.004	0.153	0.98	9.17	-2.31
48023	-0.991	-0.006	0.158	0.49	9.59	-1.89
48042	-0.998	0.009	0.158	0.49	7.56	-1.96
48067	-0.997	0.02	0.151	1.26	6.3	-2.66
48087	-1.02	0.031	0.14	0.98	6.02	-2.66
48106	-1.034	0.03	0.14	0.35	4.76	-2.1
48126	-1.031	0.03	0.134	0.21	3.15	-1.61
48149	-1.015	0.019	0.13	0.84	2.52	-1.12
48174	-1.008	0.012	0.123	2.8	3.29	-0.7
48189	-0.994	0.009	0.001	3.71	3.85	-0.77
48208	-0.981	0.022	0.126	3.85	4.41	-1.12
48228	-0.989	0.037	0.14	3.64	5.18	-2.03
48253	-1.005	0.034	0.136	4.06	4.83	-1.96
48273	-1.026	0.019	0.131	2.73	2.8	-2.17
48288	-1.03	0.011	0.097	-0.35	1.61	-2.87
48310	-1.048	0.016	0.085	-2.59	1.12	-3.43
48330	-1.057	0.013	0.08	-0.7	0.0	-3.01
48349	-1.044	0.003	0.078	0.7	-1.96	-2.1
48374	-1.024	0.008	0.069	-0.42	-2.87	-2.1
48394	-1.011	0.02	0.07	-0.63	-3.15	-1.47
48409	-1.01	0.016	0.068	0.98	-2.66	-1.19
48434	-1.016	0.007	0.073	2.31	-2.38	-0.28
48454	-1.004	-0.015	0.074	3.15	-2.94	0.42
48474	-0.997	-0.028	0.068	4.62	-2.24	0.42
48494	-1.003	-0.005	0.071	6.65	-0.28	0.0
48514	-1.039	0.016	0.093	6.72	-0.07	-0.35
48531	-1.045	0.022	0.089	6.02	-1.26	-0.42
48555	-1.041	0.032	0.097	4.9	-1.89	-0.14
48575	-1.038	0.033	0.111	4.41	-3.01	0.28
48599	-1.028	0.034	0.103	4.41	-5.32	0.35
48619	-1.011	0.032	0.09	4.27	-7.21	0.56
48640	-1.001	0.024	0.084	4.13	-8.47	0.7
48657	-1.004	0.017	0.08	3.43	-9.1	0.84
48680	-0.996	0.02	0.075	2.87	-7.91	0.35
48700	-1.015	0.02	0.095	3.29	-5.81	0.07
48720	-1.038	0.024	0.112	3.01	-6.79	-0.14
48744	-1.031	0.022	0.111	2.24	-8.47	-0.56
48765	-1.031	0.022	0.122	1.54	-9.31	-0.63
48783	-1.031	0.032	0.133	1.33	-9.94	-0.84
48802	-1.021	0.033	0.133	0.35	-9.8	-0.77
48821	-1.02	0.036	0.136	-0.35	-8.75	-0.56
48847	-1.021	0.032	0.152	-1.12	-7.91	-0.42
48866	-1.015	0.029	0.161	-1.89	-8.4	-0.28
48889	-1.006	0.027	0.157	-2.38	-7.63	-0.63
48910	-1.005	0.026	0.166	-3.01	-6.09	-0.91
48930	-0.996	0.019	0.173	-2.73	-4.48	-1.19
48950	-1.004	0.02	0.187	-2.94	-2.87	-1.33
48970	-1.007	0.018	0.187	-2.1	-1.68	-0.91
48994	-1.0	0.016	0.183	-0.07	-0.49	-0.49
49014	-1.0	0.016	0.183	0.98	1.05	0.0
49030	-1.006	0.005	0.187	1.68	1.75	0.42
49053	-1.015	0.0	0.186	1.68	2.38	0.84
49073	-1.029	0.013	0.191	1.19	1.4	0.42
49094	-1.028	0.023	0.165	0.84	-1.05	-0.42
49118	-1.016	0.035	0.141	0.63	-1.82	-0.7
49138	-1.014	0.042	0.147	0.77	-3.78	-0.49
49154	-1.01	0.035	0.146	0.7	-6.3	0.28
49173	-0.984	0.025	0.125	0.56	-7.63	0.21
49198	-0.968	0.018	0.122	0.14	-7.28	0.14
49218	-0.961	0.015	0.249	0.7	-6.37	-0.07
49238	-0.971	0.028	0.137	1.75	-5.88	-0.42
49257	-0.987	0.031	0.144	1.33	-6.37	-0.21
49281	-0.994	0.021	0.132	0.28	-7.0	-0.77
49304	-0.991	0.02	0.136	1.05	-6.09	-1.75
49325	-0.995	0.027	0.159	1.82	-7.21	-1.75
49345	-1.0	0.023	0.148	2.59	-9.87	-1.82
49364	-0.987	0.028	0.13	2.8	-10.92	-1.96
49389	-0.981	0.039	0.122	1.12	-9.8	-2.17
49406	-0.983	0.041	0.122	0.28	-8.26	-2.17
49429	-0.997	0.04	0.129	0.49	-5.95	-1.96
49448	-0.999	0.037	0.13	0.49	-2.59	-1.19
49469	-1.011	0.029	0.148	0.7	0.21	-0.21
49488	-1.022	0.023	0.163	1.05	1.54	0.35
49505	-1.03	0.02	0.17	0.98	1.68	0.84
49529	-1.027	0.026	0.176	1.12	1.19	0.63
49553	-1.019	0.032	0.186	0.0	-0.7	0.0
49572	-1.01	0.026	0.18	-0.35	-2.8	-0.28
49597	-1.001	0.023	0.163	-0.84	-3.36	-0.42
49616	-0.997	0.019	0.152	-0.35	-2.31	-0.56
49636	-0.998	0.02	0.153	-0.14	-0.84	-0.63
49654	-1.004	0.017	0.153	0.21	0.63	-0.84
49674	-1.01	0.016	0.152	0.49	1.61	-1.26
49693	-1.013	0.021	0.159	0.56	1.47	-1.54
49713	-1.018	0.027	0.162	0.63	0.28	-1.54
49738	-1.024	0.028	0.162	0.7	-1.68	-1.12
49756	-1.023	0.029	0.159	1.12	-3.5	-0.77
49779	-1.02	0.021	0.16	1.47	-5.81	-0.56
49798	-1.017	0.017	0.149	2.38	-8.12	-0.56
49822	-1.006	0.021	0.13	2.8	-9.17	-0.77
49842	-0.996	0.038	0.128	2.45	-9.1	-1.4
49861	-0.978	0.05	0.123	2.24	-7.91	-1.75
49886	-0.971	0.055	0.144	1.89	-2.8	-1.47
49906	-0.978	0.045	0.173	2.24	-0.07	-1.12
49924	-0.983	0.037	0.189	2.17	2.38	-1.26
49945	-0.987	0.018	0.199	-0.07	4.06	-1.68
49965	-0.992	0.02	0.203	-2.73	4.34	-3.01
49989	-0.985	0.026	0.197	-3.57	5.46	-4.69
50009	-0.985	0.04	0.197	-2.52	8.05	-4.76
50024	-1.005	0.039	0.219	-3.15	8.61	-4.27
50049	-1.018	0.031	0.214	-4.06	7.77	-3.43
50070	-1.001	0.029	0.192	-4.9	8.05	-3.29
50089	-0.997	0.027	0.18	-5.46	9.8	-3.57
50107	-0.991	0.024	0.177	-5.32	10.36	-3.5
50127	-0.987	0.027	0.168	-3.85	10.01	-3.22
50150	-0.977	0.014	0.161	-2.24	10.78	-2.94
50168	-0.966	-0.009	0.16	-2.45	12.11	-2.87
50192	-0.972	0.005	0.167	-3.36	12.95	-3.15
50213	-0.981	0.026	0.169	-2.52	14.14	-3.08
50230	-1.012	0.026	0.165	-1.26	14.56	-2.31
50252	-1.033	-0.006	0.147	-1.05	13.3	-1.47
50272	-1.017	-0.018	0.114	-1.68	13.16	-1.4
50296	-1.003	-0.008	0.105	-1.47	15.96	-3.15
50316	-1.027	0.004	0.137	0.56	16.17	-3.85
50334	-1.042	0.0	0.148	1.96	12.6	-4.41
50353	-1.04	0.018	0.124	0.91	9.31	-4.48
50377	-1.017	0.03	0.097	-0.56	8.82	-4.06
50396	-1.027	0.046	0.104	-2.94	9.52	-2.87
50420	-1.032	0.036	0.1	-2.87	7.49	-1.61
50440	-1.016	0.01	0.079	-3.71	7.07	-0.98
50458	-1.01	-0.007	0.07	-5.25	7.07	-0.56
50480	-1.014	-0.016	0.08	-5.46	6.09	-1.12
50501	-1.03	-0.02	0.077	-3.99	4.55	-1.12
50519	-1.027	-0.014	0.061	-2.03	3.85	-0.56
50543	-1.027	-0.002	0.053	-0.21	3.85	0.14
50563	-1.023	-0.002	0.053	1.4	3.57	0.35
50580	-1.019	-0.019	0.055	2.17	3.29	0.42
50600	-1.019	-0.025	0.059	3.29	1.89	-0.21
50624	-1.023	0.003	0.053	3.78	1.61	-0.7
50639	-1.029	0.016	0.058	3.64	1.75	-0.42
50659	-1.029	0.024	0.065	3.22	1.54	0.21
50683	-1.025	0.021	0.067	3.29	0.63	0.91
50702	-1.017	0.014	0.063	3.29	-1.19	1.19
50723	-1.013	-0.002	0.06	3.92	-1.54	1.05
50748	-1.017	-0.005	0.055	4.97	-2.03	0.49
50763	-1.015	-0.015	0.048	4.69	-3.5	0.28
50783	-1.01	-0.022	0.028	4.34	-4.9	-0.07
50807	-1.001	-0.011	0.017	4.06	-4.62	-1.12
50827	-1.006	0.006	0.039	4.34	-3.57	-2.1
50847	-1.04	0.007	0.061	5.67	-4.41	-2.45
50867	-1.044	0.007	0.039	5.53	-6.58	-2.94
50891	-1.028	0.012	0.026	4.97	-7.14	-3.92
50911	-1.025	0.017	0.061	5.04	-6.51	-4.13
50930	-1.038	0.024	0.086	4.97	-7.91	-3.92
50949	-1.032	0.032	0.089	5.04	-9.24	-3.43
50973	-1.029	0.027	0.095	4.41	-8.89	-2.45
50993	-1.03	0.013	0.114	3.85	-7.91	-2.38
51009	-1.042	-0.0	0.126	3.36	-7.91	-2.03
51031	-1.034	-0.002	0.118	4.69	-7.98	-1.54
51053	-1.013	0.006	0.13	4.97	-6.02	-1.47
51072	-1.003	0.019	0.138	4.13	-5.74	-1.54
51096	-0.987	0.025	0.132	3.29	-3.57	-1.75
51116	-0.987	0.035	0.137	1.96	-1.4	-1.54
51134	-0.992	0.021	0.141	0.91	-0.63	-1.12
51153	-0.991	0.011	0.138	-0.49	0.28	-0.7
51177	-0.992	-0.005	0.134	-1.33	0.56	0.07
51198	-0.994	-0.015	0.122	-2.66	0.77	-1.05
51218	-0.999	-0.01	0.125	-3.22	1.12	-0.84
51237	-1.015	-0.014	0.131	-3.43	0.14	-1.26
51259	-1.024	-0.022	0.122	-3.08	-0.91	-2.17
51281	-1.025	-0.015	0.12	-3.29	-0.98	-3.15
51299	-1.024	-0.003	0.12	-2.24	-2.45	-3.15
51318	-1.019	0.001	0.117	-1.4	-3.08	-2.94
51343	-1.019	-0.005	0.113	0.14	-4.2	-2.73
51362	-1.006	-0.009	0.106	1.82	-5.11	-2.66
51378	-0.999	-0.019	0.103	3.15	-5.39	-2.94
51398	-0.983	-0.017	0.095	4.76	-5.11	-3.64
51424	-0.967	-0.001	0.093	5.88	-4.06	-3.36
51441	-0.98	0.009	0.094	6.65	-3.85	-2.52
51464	-0.994	0.003	0.091	7.28	-4.2	-1.47
51485	-1.012	-0.005	0.099	7.77	-4.41	-1.05
51501	-1.024	0.009	0.089	7.98	-5.25	-0.91
51524	-1.028	0.011	0.082	7.14	-6.02	-0.28
51545	-1.029	0.009	0.069	6.09	-6.37	0.07
51562	-1.034	0.011	0.077	6.02	-6.09	0.63
51583	-1.021	0.007	0.082	5.74	-6.23	1.4
51606	-1.008	0.004	0.078	5.53	-5.67	1.75
51629	-0.999	0.006	0.073	4.83	-4.41	1.61
51650	-1.001	0.008	0.087	3.5	-3.08	1.19
51670	-1.013	0.009	0.096	2.24	-3.29	0.77
51694	-1.01	0.004	0.102	1.26	-3.57	0.28
51714	-1.003	-0.003	0.109	0.7	-3.22	17.85
51734	-1.005	-0.006	0.109	0.84	-3.15	0.0
51753	-1.007	-0.003	0.114	0.98	-2.8	0.0
51774	-1.014	0.0	0.116	0.7	-3.15	0.14
51798	-1.018	0.003	0.114	0.35	-3.43	0.0
51818	-1.012	0.01	0.109	-0.56	-3.5	-0.21
51837	-1.008	0.016	0.105	-0.91	-3.22	0.07
51857	-1.007	0.014	0.109	-1.33	-3.01	0.14
51881	-1.015	0.008	0.116	-1.47	-3.71	0.28
51901	-1.015	0.008	0.107	-1.12	-4.55	0.49
51921	-1.01	0.011	0.106	-0.42	-4.76	0.63
51936	-1.005	0.013	0.112	-0.21	-4.62	0.56
51961	-1.004	0.015	0.12	-0.21	-4.97	0.7
51981	-0.999	0.023	0.112	0.35	-5.74	0.91
51998	-0.993	0.024	0.104	0.07	-5.11	1.12
52019	-0.994	0.024	0.112	-0.98	-4.06	1.33
52039	-1.001	0.021	0.111	-2.31	-3.15	1.05
52062	-1.0	0.02	0.121	-3.36	-2.59	0.21
52082	-0.999	0.019	0.156	-3.64	-1.61	-0.84
52102	-1.012	0.02	0.181	-2.59	-2.66	-0.91
52125	-1.011	0.01	0.15	-2.45	-1.12	-1.4
52141	-1.011	0.005	0.149	-2.52	1.05	-1.96
52166	-1.024	0.0	0.163	-3.57	1.05	-2.38
52186	-1.006	0.006	0.148	-4.48	0.49	-2.52
52205	-0.981	0.013	0.141	-4.83	1.33	-2.52
52225	-0.975	0.004	0.151	-2.94	2.59	-2.38
52245	-0.989	-0.003	0.158	-2.1	3.5	-1.96
52269	-0.999	0.003	0.141	-1.05	4.48	-1.47
52289	-0.996	0.017	0.16	0.07	6.23	-1.4
52309	-1.006	0.012	0.172	-0.07	6.51	-1.05
52332	-1.016	0.009	0.153	-1.26	6.02	-0.63
52352	-1.002	0.008	0.127	-0.63	5.88	-0.21
52368	-0.99	-0.006	0.133	1.54	7.84	-0.07
52388	-0.989	-0.023	0.153	4.2	9.1	-0.21
52413	-0.996	-0.02	0.158	3.78	7.35	-0.84
52431	-0.978	0.014	0.128	2.1	7.14	-2.38
52450	-0.975	0.037	0.111	2.38	9.31	-3.29
52475	-1.009	0.035	0.114	4.06	11.13	-3.22
52493	-1.044	0.021	0.11	2.66	9.73	-2.1
52515	-1.024	0.014	0.064	-2.1	7.56	-1.61
52536	-1.009	0.018	0.059	-3.85	8.68	-2.17
52550	-1.029	0.01	0.083	-3.57	8.33	-2.66
52574	-1.057	0.012	0.09	-2.66	6.79	-2.17
52595	-1.061	-0.013	0.079	-1.12	4.41	-1.05
52614	-1.037	-0.028	0.062	-1.05	3.57	-0.35
52636	-1.011	-0.024	0.051	-0.35	4.06	-0.63
52655	-1.006	-0.012	0.059	1.4	4.2	-0.98
52675	-1.015	-0.001	0.064	2.24	4.06	-1.05
52699	-1.018	0.003	0.065	2.31	2.8	-0.77
52719	-1.028	0.01	0.06	2.38	2.24	-0.7
52736	-1.035	0.002	0.058	2.73	1.96	-0.56
52756	-1.037	0.0	0.054	3.29	1.33	-0.21
52780	-1.023	0.007	0.051	3.36	1.47	0.35
52800	-1.018	0.01	0.069	3.15	1.33	0.49
52820	-1.016	0.005	0.074	3.08	0.0	0.28
52840	-1.017	0.009	0.071	3.43	-1.19	-0.21
52857	-1.019	0.001	0.064	2.66	-2.66	-0.56
52876	-1.013	0.0	0.047	1.82	-4.2	-1.33
52900	-1.017	0.02	0.037	1.33	-4.9	-2.03
52919	-1.011	0.026	0.027	0.21	-5.04	-2.52
52944	-1.01	0.018	0.016	-1.89	-4.55	-2.66
52964	-1.023	0.021	0.043	-2.73	-2.31	-2.52
52980	-1.045	0.02	0.066	-2.31	-2.8	-1.68
53002	-1.053	0.007	0.075	-1.47	-5.74	-0.77
53021	-1.045	0.01	0.071	-1.4	-7.63	-0.63
53045	-1.042	0.01	0.076	-1.54	-9.8	-0.42
53062	-1.042	0.004	0.085	-1.68	-11.06	-0.28
53085	-1.039	0.008	0.091	-1.82	-11.97	0.28
53109	-1.036	0.02	0.104	-1.54	-11.97	1.26
53129	-1.027	0.021	0.12	-1.33	-11.97	1.96
53149	-1.02	0.008	0.129	-1.96	-11.76	2.45
53173	-1.013	-0.007	0.132	-4.27	-11.83	1.47
53193	-1.015	-0.007	0.149	-4.55	-11.34	0.21
53210	-1.011	0.003	0.154	-4.27	-11.34	-0.56
53234	-1.008	-0.004	0.152	-2.66	-10.85	-0.77
53254	-1.002	-0.014	0.16	-1.47	-9.31	-0.7
53273	-0.999	-0.019	0.16	0.56	-8.89	-0.07
53292	-0.996	-0.02	0.156	2.87	-8.12	0.0
53317	-1.005	-0.012	0.172	4.69	-7.7	0.14
53336	-0.999	-0.001	0.154	6.09	-7.0	0.84
53356	-0.991	0.001	0.163	7.77	-5.74	1.26
53380	-0.994	0.002	0.168	7.35	-5.67	0.28
53399	-0.982	0.018	0.157	6.72	-6.09	-1.26
53416	-0.979	0.027	0.154	5.39	-5.18	-2.38
53440	-0.987	0.029	0.156	4.41	-5.81	-3.15
53460	-1.0	0.025	0.152	4.06	-6.72	-2.66
53479	-1.014	0.024	0.142	2.94	-7.14	-2.17
53503	-1.011	0.027	0.138	2.24	-6.51	-2.24
53523	-0.999	0.028	0.143	2.52	-6.23	-1.89
53539	-0.989	0.031	0.15	3.99	-6.09	-1.26
53563	-0.974	0.015	0.139	4.13	-5.67	-0.77
53583	-0.96	0.004	0.125	4.06	-4.2	-0.77
53601	-0.963	0.012	0.127	5.6	-2.66	-0.84
53620	-0.982	0.011	0.133	6.09	-1.26	-0.21
53645	-0.997	0.004	0.13	5.53	0.07	0.21
53664	-1.013	0.005	0.131	5.88	-0.07	0.14
53683	-1.014	0.003	0.135	5.95	-0.63	-0.14
53706	-1.008	0.012	0.122	5.25	-1.82	-0.7
53725	-0.999	0.028	0.105	3.08	0.0	-1.68
53747	-1.001	0.031	0.129	0.84	1.47	-1.47
53765	-1.006	0.02	0.147	-0.77	1.12	-1.05
53789	-1.002	0.015	0.14	-1.89	0.56	-0.7
53809	-1.018	0.008	0.135	-1.75	-0.21	-0.14
53825	-1.031	0.001	0.132	-1.19	-0.35	0.49
53849	-1.037	0.016	0.138	-0.49	-0.84	0.63
53868	-1.035	0.024	0.135	-0.56	-1.19	0.28
53890	-1.025	0.033	0.125	-1.19	-1.75	-0.42
53911	-1.017	0.037	0.133	-2.17	-2.38	-1.19
53928	-1.01	0.024	0.135	-2.45	-2.87	-1.4
53952	-1.002	0.011	0.135	-1.75	-2.87	-1.54
53972	-0.997	0.006	0.136	-0.63	-2.38	-1.68
53991	-1.003	0.008	0.139	0.0	-1.89	-1.96
54011	-1.003	0.004	0.143	0.63	-1.75	-2.31
54031	-1.004	0.01	0.147	0.77	-1.54	-2.59
54050	-1.011	0.011	0.142	0.84	-1.61	-2.45
54075	-1.015	0.01	0.14	1.19	-2.17	-2.31
54099	-1.011	0.007	0.142	1.26	-3.15	-2.03
54123	-1.014	0.009	0.142	1.19	-4.13	-2.03
54142	-1.008	0.012	0.135	1.54	-4.9	-1.75
54166	-1.004	0.009	0.141	1.54	-5.53	-1.68
54186	-1.006	0.015	0.134	1.12	-6.65	-1.89
54205	-1.009	0.024	0.128	1.12	-6.37	-1.96
54229	-1.004	0.027	0.127	1.54	-5.74	-1.89
54249	-0.979	0.041	0.132	2.52	-3.71	-1.82
54273	-0.983	0.041	0.143	1.61	-2.87	-1.05
54294	-0.988	0.034	0.15	-0.84	-2.94	-0.77
54313	-0.983	0.029	0.148	-2.94	-1.75	-1.54
54332	-0.976	0.038	0.159	-3.78	0.42	-2.03
54348	-0.985	0.021	0.181	-4.69	2.52	-1.96
54373	-1.004	-0.017	0.182	-4.97	4.83	-2.94
54398	-1.002	-0.015	0.195	-5.46	5.67	-3.36
54417	-0.988	0.002	0.176	-6.86	5.25	-4.48
54441	-0.977	0.015	0.179	-7.49	9.17	-5.11
54460	-1.009	0.003	0.201	-6.37	11.06	-4.9
54480	-1.027	-0.008	0.211	-4.69	8.68	-3.43
54499	-1.007	-0.02	0.183	-2.94	7.07	-2.38
54524	-1.0	-0.019	0.168	-0.77	8.68	-1.19
54543	-1.0	-0.011	0.183	1.82	11.41	-0.77
54560	-1.003	-0.007	0.179	2.03	11.9	-0.21
54583	-0.996	0.008	0.172	0.56	11.97	0.49
54599	-0.987	0.009	0.147	1.12	12.67	0.77
54619	-0.987	0.001	0.145	2.52	13.02	0.98
54644	-0.984	-0.004	0.139	1.54	12.81	0.42
54661	-0.985	-0.005	0.135	0.28	13.3	-1.05
54679	-1.001	0.009	0.125	1.82	12.6	-2.52
54701	-1.032	-0.008	0.117	4.83	11.62	-2.24
54724	-1.043	-0.021	0.086	3.5	10.22	-1.12
54742	-1.037	-0.017	0.073	0.91	9.52	-1.05
54765	-1.033	0.006	0.081	-0.21	8.68	-2.1
54786	-1.052	0.017	0.083	0.35	6.93	-3.01
54805	-1.055	0.02	0.069	1.26	6.23	-2.45
54828	-1.048	0.011	0.064	1.75	5.11	-1.12
54850	-1.034	-0.001	0.064	1.75	3.78	-0.28
54867	-1.026	-0.009	0.059	2.1	2.45	0.28
54890	-1.019	-0.013	0.056	2.24	0.98	-0.14
54911	-1.014	-0.012	0.051	2.45	-0.28	-0.42
54932	-1.017	-0.007	0.039	2.59	-0.28	-0.7
54951	-1.023	-0.0	0.041	2.59	0.42	-1.05
54966	-1.024	0.0	0.05	2.66	0.21	-1.26
54991	-1.027	-0.009	0.054	2.59	-1.12	-0.91
55014	-1.019	-0.005	0.061	2.8	-2.17	-0.84
55034	-1.012	0.01	0.062	3.22	-2.73	-1.12
55054	-1.021	0.019	0.078	2.03	-3.85	-0.84
55077	-1.026	0.01	0.061	0.7	-6.16	-0.42
55097	-1.017	0.005	0.047	-0.21	-6.65	-0.28
55118	-1.014	0.005	0.043	-1.47	-7.07	-0.77
55137	-1.016	-0.004	0.026	-1.89	-6.02	-1.26
55158	-1.027	0.0	0.041	-1.33	-5.32	-1.12
55181	-1.017	0.004	0.045	-2.66	-3.85	-1.4
55202	-1.022	0.0	0.073	-2.87	-3.36	-2.1
55222	-1.032	-0.004	0.087	-3.5	-4.76	-1.89
55241	-1.037	-0.004	0.092	-3.71	-6.09	-1.54
55265	-1.043	0.0	0.106	-3.64	-6.93	-1.47
55286	-1.05	-0.002	0.136	-2.87	-7.28	-1.4
55302	-1.053	-0.012	0.131	-1.68	-9.24	-1.19
55321	-1.037	-0.02	0.127	-0.21	-10.08	-0.91
55346	-1.004	-0.017	0.129	1.19	-9.45	-0.98
55366	-0.987	-0.019	0.142	2.66	-8.05	-1.05
55389	-0.99	-0.002	0.156	4.76	-7.14	-0.91
55407	-0.994	0.006	0.147	7.0	-6.37	0.0
55429	-0.994	0.005	0.139	8.19	-4.34	0.28
55453	-1.006	-0.006	0.134	8.68	-1.75	1.05
55468	-1.012	0.0	0.149	7.35	-0.56	1.26
55493	-1.03	-0.002	0.161	5.46	0.35	0.84
55512	-1.034	0.002	0.156	4.76	-0.07	1.19
55536	-1.029	0.0	0.141	3.22	-0.49	0.63
55557	-1.018	0.01	0.13	0.14	-1.33	0.21
55576	-0.991	0.015	0.122	-1.33	-2.87	-0.84
55599	-0.981	0.011	0.121	-1.05	-5.04	-1.19
55623	-0.974	0.017	0.119	-0.7	-6.09	-1.12
55643	-0.99	0.017	0.11	-0.07	-7.07	-0.28
55662	-1.0	0.022	0.105	0.21	-7.42	0.84
55686	-1.002	0.019	0.112	-0.28	-8.12	1.4
55706	-0.877	0.016	0.122	-0.07	-7.56	0.56
55722	-1.001	0.028	0.123	0.14	-7.56	0.28
55747	-1.011	0.035	0.124	-1.4	-8.33	0.14
55766	-0.875	0.022	0.115	-3.01	-10.01	0.21
55787	-0.992	0.014	0.116	-5.39	-10.29	-0.21
55807	-0.997	0.012	0.122	-6.51	-11.69	-0.56
55826	-0.995	0.008	0.11	-6.3	-11.69	-0.7
55850	-0.998	0.005	0.108	-5.6	-11.2	0.0
55870	-0.995	-0.026	0.111	-4.27	-10.36	-0.07
55894	-0.993	-0.031	0.111	-2.31	-8.12	-0.07
55914	-0.998	-0.027	0.116	1.26	-5.67	0.07
55934	-0.999	-0.013	0.124	3.71	-3.5	0.42
55954	-1.006	-0.002	0.133	4.76	-2.03	-0.14
55972	-1.005	0.005	0.138	3.85	-1.33	-0.98
55992	-1.005	0.014	0.136	2.87	-0.84	-1.47
56012	-1.003	0.014	0.139	2.17	0.42	-2.1
56036	-1.011	0.012	0.153	1.96	0.42	-2.52
56055	-1.012	0.013	0.15	2.31	0.28	-2.59
56075	-1.01	0.009	0.142	2.73	0.7	-2.59
56099	-1.002	0.012	0.133	3.15	1.89	-2.87
56115	-0.996	0.014	0.136	3.15	2.8	-3.08
56135	-0.991	0.018	0.137	2.87	4.06	-3.29
56157	-0.997	0.016	0.142	2.66	4.48	-3.36
56178	-1.005	0.013	0.134	1.82	4.48	-3.71
56197	-1.008	0.01	0.128	1.4	4.9	-4.06
56220	-1.012	0.008	0.128	0.98	4.27	-4.34
56244	-1.0	0.006	0.116	1.54	3.22	-4.48
56264	-0.977	0.015	0.105	1.96	2.73	-4.41
56282	-0.958	0.018	0.102	2.45	3.5	-4.34
56301	-0.953	0.018	0.101	1.68	4.97	-4.83
56320	-0.953	0.022	0.094	1.05	7.07	-5.04
56344	-0.972	0.024	0.113	0.35	9.73	-4.2
56363	-1.013	0.013	0.124	-1.82	10.85	-3.85
56382	-1.028	-0.022	0.118	-5.32	10.01	-3.01
56402	-1.022	-0.027	0.116	-7.14	10.92	-4.34
56422	-1.009	-0.001	0.105	-7.35	12.88	-6.3
56447	-0.997	0.004	0.131	-10.08	17.36	-7.49
56465	-0.96	-0.007	0.122	-13.09	21.35	-8.61
56490	-0.946	0.014	0.126	-14.42	27.72	-10.08
56508	-0.948	0.032	0.156	-13.09	31.57	-9.59
56528	-0.971	-0.018	0.168	-12.25	32.41	-7.0
56547	-0.979	-0.042	0.128	-12.32	31.01	-5.25
56571	-0.958	-0.013	0.069	-12.67	34.93	-4.41
56591	-0.974	0.014	0.057	-11.27	39.9	-4.06
56614	-0.989	0.002	0.049	-9.52	41.16	-3.78
56634	-1.002	-0.044	0.006	-7.42	40.39	-3.08
56652	-1.033	-0.06	-0.023	-6.44	40.11	-4.27
56676	-1.068	-0.062	-0.042	-7.07	36.12	-4.55
56696	-1.086	-0.066	-0.084	-6.09	32.41	-1.89
56712	-1.061	-0.056	-0.111	-5.18	31.71	0.35
56736	-1.055	-0.04	-0.125	-1.75	31.43	0.84
56755	-1.081	-0.073	-0.151	0.56	32.97	0.14
56772	-1.057	-0.048	-0.198	-0.14	31.43	-1.54
56796	-1.015	0.033	-0.18	-6.44	29.33	-7.0
56816	-0.984	0.003	-0.136	-6.51	25.62	-6.72
56832	-1.018	-0.047	-0.098	-3.99	23.38	-4.27
56851	-1.049	-0.039	-0.083	-1.75	19.6	-0.84
56875	-1.04	-0.02	-0.106	-2.24	17.99	1.12
56896	-1.03	-0.008	-0.124	-3.99	18.2	-0.7
56913	-1.004	-0.003	-0.134	-4.41	18.06	-2.73
56932	-0.97	-0.006	-0.142	-3.92	17.36	-5.46
56956	-0.955	0.011	-0.144	-3.71	15.19	-7.7
56976	-0.97	0.02	-0.148	-4.83	13.16	-9.1
57000	-0.993	0.024	-0.149	-7.0	9.45	-10.29
57016	-1.009	0.02	-0.169	-8.89	7.35	-10.57
57041	-1.013	0.013	-0.196	-9.94	6.37	-10.08
57060	-1.007	-0.005	-0.215	-9.31	6.3	-9.8
57080	-0.996	-0.021	-0.222	-7.42	6.51	-9.8
57100	-0.981	-0.048	-0.208	-4.97	6.23	-10.01
57124	-0.982	-0.084	-0.187	-2.24	4.76	-10.15
57144	-0.996	-0.127	-0.165	3.57	2.24	-10.01
57163	-0.999	-0.156	-0.18	9.31	-0.28	-10.01
57187	-0.991	-0.188	-0.199	16.03	-1.96	-10.92
57205	-0.965	-0.211	-0.212	21.42	-1.61	-11.13
57229	-0.968	-0.206	-0.189	24.64	-1.26	-11.76
57248	-0.988	-0.198	-0.178	26.18	-3.99	-11.69
57267	-1.016	-0.173	-0.18	24.92	-6.86	-11.97
57292	-1.044	-0.142	-0.191	23.03	-10.85	-11.9
57311	-1.073	-0.115	-0.179	19.81	-12.46	-11.83
57332	-1.079	-0.102	-0.166	18.13	-13.44	-10.92
57351	-1.063	-0.101	-0.155	16.17	-14.63	-10.64
57376	-1.034	-0.116	-0.158	13.51	-16.17	-10.78
57393	-1.006	-0.146	-0.162	11.62	-16.87	-10.78
57417	-0.993	-0.189	-0.138	8.61	-18.2	-9.94
57440	-0.992	-0.189	-0.136	5.74	-19.6	-9.24
57456	-0.982	-0.183	-0.141	4.9	-19.88	-7.84
57478	-0.98	-0.179	-0.142	5.67	-19.46	-4.62
57497	-0.977	-0.187	-0.13	6.86	-18.83	-1.26
57522	-0.97	-0.202	-0.113	8.12	-18.27	1.61
57546	-0.961	-0.206	-0.106	9.24	-18.06	4.97
57565	-0.957	-0.212	-0.096	10.15	-18.06	6.93
57586	-0.941	-0.221	-0.084	10.5	-14.91	6.23
57609	-0.945	-0.219	-0.091	10.99	-15.19	8.26
57630	-0.943	-0.238	-0.077	11.83	-13.93	8.75
57650	-0.951	-0.246	-0.069	12.6	-12.88	9.66
57668	-0.953	-0.258	-0.074	13.58	-11.55	10.64
57692	-0.958	-0.259	-0.076	15.19	-9.8	12.39
57712	-0.968	-0.264	-0.065	16.66	-8.19	14.14
57731	-0.977	-0.268	-0.052	17.78	-7.42	15.4
57755	-0.974	-0.265	-0.051	18.97	-7.07	16.45
57775	-0.968	-0.255	-0.044	19.74	-6.37	17.01
57795	-0.957	-0.237	-0.041	19.39	-6.37	17.29
57819	-0.953	-0.221	-0.037	17.36	-6.3	17.01
57837	-0.96	-0.191	-0.039	13.65	-6.65	16.45
57857	-0.963	-0.16	-0.042	9.59	-7.14	16.31
57876	-1.005	-0.112	-0.057	7.56	-7.28	15.75
57902	-1.051	-0.051	-0.119	4.2	-3.29	14.77
57920	-1.076	0.046	-0.194	3.5	7.21	17.43
57945	-1.023	0.075	-0.191	9.66	24.22	25.41
57964	-1.003	0.061	-0.068	13.02	28.98	30.1
57983	-0.965	0.062	-0.002	9.87	23.59	30.1
57999	-0.938	0.107	-0.009	5.18	16.1	28.91
58024	-0.947	0.169	-0.045	0.91	8.05	28.21
58044	-0.989	0.179	-0.125	-3.78	6.3	26.74
58062	-1.014	0.186	-0.181	-6.37	7.7	25.27
58085	-1.071	0.206	-0.175	-6.37	9.73	23.17
58110	-1.097	0.219	-0.139	-7.14	10.78	22.19
58128	-1.094	0.234	-0.11	-8.26	9.87	21.91
58149	-1.028	0.229	-0.109	-11.27	8.89	20.44
58172	-0.986	0.228	-0.101	-11.34	6.93	18.55
58190	-0.951	0.231	-0.089	-9.1	2.45	17.22
58214	-0.944	0.235	-0.086	-5.39	-1.26	16.24
58233	-0.956	0.225	-0.091	-1.47	-3.85	15.33
58251	-0.964	0.205	-0.104	2.1	-5.11	13.72
58275	-0.963	0.2	-0.118	4.48	-4.76	10.43
58295	-0.961	0.208	-0.119	6.3	-4.06	7.98
58316	-0.954	0.236	-0.123	7.98	-3.29	6.37
58335	-0.933	0.273	-0.136	8.33	-2.24	5.18
58354	-0.908	0.286	-0.139	8.26	-0.35	4.06
58377	-0.888	0.295	-0.156	7.7	1.96	2.52
58398	-0.865	0.302	-0.169	7.56	4.9	1.33
58420	-0.858	0.306	-0.154	7.49	8.89	-0.49
58440	-0.855	0.287	-0.155	7.77	9.87	-0.7
58463	-0.857	0.25	-0.146	8.96	13.44	0.7
58487	-0.935	0.164	-0.103	9.87	12.46	3.43
58505	-1.084	0.016	-0.103	17.5	5.46	5.18
58526	-1.107	-0.105	-0.246	15.68	16.03	1.26
58542	-1.096	-0.111	-0.274	2.03	33.46	-7.42
58567	-1.062	-0.094	-0.143	-12.18	48.44	-20.44
58586	-0.98	0.002	-0.052	-22.05	53.34	-27.65
58609	-0.953	-0.042	-0.003	-19.32	46.13	-28.84
58631	-0.883	-0.039	-0.111	-16.45	43.4	-27.86
58650	-0.841	-0.033	-0.194	-12.53	47.04	-25.2
58669	-0.822	-0.045	-0.244	-8.54	55.72	-21.77
58694	-0.794	-0.09	-0.261	-2.66	66.99	-18.2
58709	-0.766	-0.093	-0.269	-0.35	71.75	-17.99
58733	-0.729	-0.087	-0.276	1.96	76.65	-17.08
58753	-0.702	-0.061	-0.273	5.04	77.35	-15.68
58773	-0.726	-0.043	-0.282	6.44	77.63	-17.85
58790	-0.722	-0.016	-0.285	5.39	75.74	-19.32
58809	-0.721	-0.001	-0.336	1.96	75.39	-19.74
58834	-0.731	0.005	-0.389	-1.19	77.63	-20.3
58852	-0.755	-0.01	-0.392	-0.49	77.0	-19.74
58876	-0.808	-0.032	-0.368	-2.8	73.92	-21.07
58896	-0.784	-0.045	-0.44	-4.97	69.51	-20.3
58914	-0.75	-0.024	-0.497	-7.56	70.28	-19.46
58934	-0.736	0.004	-0.512	-8.89	72.94	-16.87
58956	-0.754	0.03	-0.502	-6.23	71.47	-13.09
58978	-0.75	0.013	-0.51	-4.27	66.85	-10.36
58997	-0.742	-0.001	-0.527	-3.99	60.2	-9.38
59018	-0.739	-0.011	-0.579	-4.41	55.37	-8.96
59042	-0.732	-0.012	-0.617	-4.41	50.54	-8.68
59061	-0.731	-0.004	-0.664	-3.5	49.91	-7.91
59078	-0.733	-0.019	-0.677	-1.33	49.35	-7.28
59101	-0.722	-0.03	-0.687	0.42	46.83	-6.58
59123	-0.711	-0.023	-0.7	-1.68	41.93	-6.3
59142	-0.686	-0.016	-0.715	-3.36	37.73	-5.25
59167	-0.673	0.014	-0.705	-6.09	30.59	-1.82
59185	-0.673	0.008	-0.718	-6.65	25.13	-0.7
59207	-0.669	-0.002	-0.734	-7.35	22.82	-0.77
59227	-0.681	0.02	-0.777	-8.4	17.43	0.49
59247	-0.705	0.009	-0.793	-8.47	14.84	-0.07
59271	-0.709	0.004	-0.842	-7.49	11.55	1.61
59290	-0.74	-0.028	-0.884	-5.25	10.29	2.66
59307	-0.768	-0.056	-0.915	-3.71	9.38	3.57
59330	-0.813	-0.072	-0.974	-0.7	6.09	3.78
59355	-0.841	-0.056	-1.021	-0.21	4.62	3.29
59374	-0.855	-0.022	-1.037	0.0	3.64	3.85
59394	-0.87	-0.001	-1.047	2.73	2.45	5.04
59411	-0.878	0.023	-1.058	5.11	1.47	5.95
59434	-0.884	0.019	-1.074	4.97	-0.42	6.72
59454	-0.888	0.005	-1.084	4.62	-0.91	6.37
59475	-0.9	0.0	-1.068	6.51	-3.01	6.44
59495	-0.909	-0.003	-1.031	7.28	-6.72	6.3
59514	-0.891	-0.004	-1.031	7.91	-10.29	6.09
59532	-0.867	0.005	-1.03	9.1	-12.18	6.09
59551	-0.841	0.004	-1.01	10.08	-12.39	6.51
59575	-0.837	-0.003	-0.961	10.64	-14.28	6.16
59596	-0.817	-0.015	-0.937	11.13	-17.5	5.39
59616	-0.801	-0.02	-0.909	11.2	-19.81	3.85
59639	-0.797	-0.02	-0.883	10.5	-23.1	1.61
59658	-0.795	-0.01	-0.852	9.94	-26.67	-0.63
