Timestamp,AccelX,AccelY,AccelZ,GyroX,GyroY,GyroZ
1743902974.585709,0.064,0.014,1.032,0.280,-2.590,-0.700
1743902974.605709,0.065,0.015,1.030,0.350,-2.450,-0.700
1743902974.625709,0.063,0.015,1.034,0.420,-2.450,-0.840
1743902974.645709,0.064,0.016,1.036,0.350,-2.450,-0.770
1743902974.665709,0.067,0.016,1.031,0.350,-2.380,-0.840
1743902974.685709,0.066,0.014,1.032,0.350,-2.380,-0.700
1743902974.615035,0.066,0.015,1.034,0.350,-2.380,-0.700
1743902974.635035,0.066,0.015,1.036,0.420,-2.520,-0.700
1743902974.655035,0.062,0.019,1.036,0.350,-2.310,-0.770
1743902974.675035,0.063,0.016,1.031,0.350,-2.310,-0.770
1743902974.695035,0.061,0.016,1.031,0.490,-2.450,-0.770
1743902974.715035,0.065,0.015,1.038,0.420,-2.380,-0.630
1743902974.67492,0.064,0.017,1.036,0.350,-2.450,-0.700
1743902974.69492,0.064,0.016,1.031,0.350,-2.450,-0.770
1743902974.71492,0.065,0.017,1.033,0.420,-2.310,-0.700
1743902974.73492,0.065,0.017,1.037,0.210,-2.240,-0.770
1743902974.75492,0.065,0.019,1.036,0.350,-2.450,-0.770
1743902974.77492,0.064,0.014,1.029,0.350,-2.450,-0.770
1743902974.704298,0.065,0.015,1.034,0.280,-2.310,-0.700
1743902974.724298,0.064,0.016,1.038,0.280,-2.450,-0.700
1743902974.744298,0.064,0.017,1.031,0.350,-2.310,-0.770
1743902974.764298,0.063,0.015,1.028,0.350,-2.380,-0.770
1743902974.784298,0.064,0.018,1.034,0.350,-2.380,-0.630
1743902974.804298,0.063,0.017,1.036,0.420,-2.380,-0.700
1743902974.779648,0.064,0.017,1.036,0.280,-2.520,-0.700
1743902974.799648,0.064,0.015,1.029,0.420,-2.450,-0.700
1743902974.819648,0.063,0.016,1.033,0.490,-2.450,-0.700
1743902974.839648,0.062,0.015,1.037,0.350,-2.520,-0.700
1743902974.859648,0.064,0.017,1.032,0.350,-2.310,-0.700
1743902974.879648,0.063,0.015,1.029,0.420,-2.450,-0.700
1743902974.7832181,0.063,0.015,1.029,0.280,-2.310,-0.770
1743902974.8032181,0.065,0.016,1.035,0.350,-2.450,-0.700
1743902974.823218,0.064,0.017,1.037,0.210,-2.520,-0.630
1743902974.843218,0.062,0.016,1.032,0.420,-2.380,-0.700
1743902974.863218,0.061,0.015,1.033,0.350,-2.380,-0.770
1743902974.883218,0.063,0.016,1.037,0.210,-2.520,-0.700
1743902974.82511,0.066,0.017,1.034,0.280,-2.450,-0.700
1743902974.84511,0.064,0.017,1.032,0.280,-2.380,-0.770
1743902974.86511,0.063,0.015,1.035,0.350,-2.380,-0.770
1743902974.88511,0.065,0.016,1.036,0.350,-2.590,-0.700
1743902974.90511,0.063,0.015,1.033,0.420,-2.450,-0.770
1743902974.9251099,0.062,0.014,1.032,0.350,-2.450,-0.770
1743902974.8695521,0.064,0.017,1.034,0.350,-2.380,-0.840
1743902974.889552,0.064,0.014,1.037,0.420,-2.380,-0.840
1743902974.909552,0.064,0.017,1.035,0.350,-2.380,-0.770
1743902974.929552,0.065,0.017,1.030,0.210,-2.450,-0.630
1743902974.949552,0.063,0.014,1.029,0.420,-2.380,-0.770
1743902974.969552,0.062,0.017,1.037,0.280,-2.380,-0.700
1743902974.914565,0.064,0.015,1.033,0.350,-2.310,-0.770
1743902974.934565,0.065,0.017,1.031,0.350,-2.450,-0.700
1743902974.954565,0.062,0.017,1.032,0.420,-2.450,-0.700
1743902974.974565,0.065,0.016,1.034,0.350,-2.590,-0.630
1743902974.994565,0.066,0.018,1.035,0.350,-2.380,-0.700
1743902975.014565,0.065,0.015,1.032,0.280,-2.450,-0.770
1743902974.9614172,0.065,0.015,1.032,0.490,-2.450,-0.840
1743902974.9814172,0.065,0.015,1.038,0.420,-2.520,-0.700
1743902975.0014172,0.065,0.017,1.037,0.350,-2.310,-0.770
1743902975.0214171,0.063,0.016,1.033,0.280,-2.380,-0.770
1743902975.0414171,0.064,0.017,1.035,0.350,-2.450,-0.770
1743902975.061417,0.062,0.015,1.034,0.280,-2.310,-0.840
1743902975.0045981,0.063,0.015,1.033,0.420,-2.380,-0.770
1743902975.0245981,0.066,0.017,1.031,0.490,-2.450,-0.770
1743902975.044598,0.065,0.016,1.036,0.280,-2.240,-0.770
1743902975.064598,0.064,0.017,1.035,0.420,-2.380,-0.840
1743902975.084598,0.063,0.015,1.033,0.280,-2.380,-0.700
1743902975.104598,0.065,0.015,1.034,0.280,-2.450,-0.700
1743902975.079467,0.064,0.016,1.034,0.350,-2.450,-0.700
1743902975.099467,0.066,0.017,1.037,0.280,-2.520,-0.700
1743902975.119467,0.063,0.018,1.032,0.280,-2.450,-0.770
1743902975.139467,0.065,0.016,1.034,0.350,-2.590,-0.770
1743902975.159467,0.063,0.015,1.037,0.420,-2.310,-0.770
1743902975.179467,0.067,0.017,1.036,0.350,-2.380,-0.770
1743902975.1095212,0.063,0.015,1.032,0.420,-2.380,-0.770
1743902975.1295211,0.064,0.017,1.036,0.350,-2.450,-0.700
1743902975.149521,0.062,0.017,1.037,0.350,-2.450,-0.770
1743902975.169521,0.064,0.016,1.032,0.350,-2.450,-0.770
1743902975.189521,0.064,0.016,1.030,0.350,-2.450,-0.840
1743902975.209521,0.063,0.016,1.037,0.350,-2.380,-0.700
1743902975.1413121,0.063,0.015,1.035,0.280,-2.380,-0.770
1743902975.161312,0.063,0.015,1.033,0.280,-2.450,-0.770
1743902975.181312,0.064,0.016,1.035,0.350,-2.450,-0.700
1743902975.201312,0.062,0.015,1.037,0.350,-2.450,-0.700
1743902975.221312,0.063,0.016,1.036,0.350,-2.380,-0.770
1743902975.241312,0.063,0.018,1.032,0.350,-2.450,-0.770
1743902975.1857,0.063,0.017,1.031,0.420,-2.520,-0.630
1743902975.2057,0.063,0.016,1.036,0.350,-2.450,-0.700
1743902975.2257,0.065,0.016,1.039,0.350,-2.380,-0.700
1743902975.2457,0.065,0.015,1.031,0.350,-2.450,-0.700
1743902975.2656999,0.062,0.016,1.032,0.280,-2.450,-0.700
1743902975.2856998,0.063,0.015,1.034,0.420,-2.310,-0.770
1743902975.2324991,0.064,0.014,1.035,0.350,-2.380,-0.770
1743902975.252499,0.064,0.016,1.032,0.420,-2.450,-0.770
1743902975.272499,0.062,0.017,1.026,0.420,-2.450,-0.700
1743902975.292499,0.063,0.017,1.037,0.420,-2.450,-0.700
1743902975.312499,0.064,0.017,1.035,0.280,-2.450,-0.700
1743902975.332499,0.066,0.016,1.031,0.280,-2.450,-0.700
1743902975.287753,0.064,0.013,1.030,0.420,-2.520,-0.630
1743902975.307753,0.066,0.016,1.036,0.420,-2.520,-0.770
1743902975.327753,0.062,0.018,1.036,0.280,-2.450,-0.700
1743902975.347753,0.065,0.016,1.030,0.350,-2.450,-0.700
1743902975.367753,0.063,0.016,1.030,0.350,-2.450,-0.770
1743902975.387753,0.064,0.017,1.036,0.280,-2.380,-0.770
1743902975.306305,0.065,0.017,1.037,0.280,-2.310,-0.770
1743902975.326305,0.064,0.016,1.032,0.280,-2.450,-0.700
1743902975.346305,0.064,0.014,1.030,0.490,-2.450,-0.770
1743902975.3663049,0.062,0.016,1.033,0.280,-2.450,-0.700
1743902975.3863049,0.063,0.015,1.034,0.350,-2.450,-0.770
1743902975.4063048,0.065,0.015,1.034,0.350,-2.240,-0.840
1743902975.334521,0.063,0.016,1.031,0.350,-2.450,-0.630
1743902975.354521,0.063,0.016,1.032,0.350,-2.310,-0.700
1743902975.374521,0.063,0.016,1.035,0.350,-2.380,-0.770
1743902975.394521,0.062,0.016,1.037,0.350,-2.380,-0.770
1743902975.414521,0.062,0.016,1.031,0.280,-2.520,-0.840
1743902975.434521,0.063,0.014,1.030,0.350,-2.520,-0.770
1743902975.379486,0.062,0.015,1.036,0.420,-2.450,-0.770
1743902975.399486,0.064,0.016,1.035,0.420,-2.450,-0.770
1743902975.419486,0.065,0.015,1.036,0.350,-2.520,-0.770
1743902975.439486,0.063,0.016,1.031,0.490,-2.380,-0.700
1743902975.459486,0.064,0.016,1.033,0.420,-2.520,-0.770
1743902975.479486,0.063,0.017,1.036,0.350,-2.450,-0.700
1743902975.4245431,0.061,0.014,1.035,0.350,-2.380,-0.700
1743902975.4445431,0.062,0.014,1.030,0.350,-2.590,-0.770
1743902975.464543,0.063,0.016,1.035,0.420,-2.520,-0.700
1743902975.484543,0.064,0.015,1.035,0.420,-2.520,-0.770
1743902975.504543,0.063,0.015,1.034,0.350,-2.380,-0.770
1743902975.524543,0.063,0.015,1.029,0.350,-2.520,-0.770
1743902975.4696681,0.067,0.015,1.034,0.420,-2.310,-0.770
1743902975.4896681,0.064,0.017,1.036,0.350,-2.380,-0.630
1743902975.509668,0.063,0.015,1.036,0.350,-2.450,-0.700
1743902975.529668,0.064,0.018,1.034,0.420,-2.590,-0.700
1743902975.549668,0.064,0.017,1.032,0.350,-2.450,-0.700
1743902975.569668,0.064,0.015,1.037,0.350,-2.450,-0.700
1743902975.5152512,0.065,0.017,1.036,0.350,-2.450,-0.840
1743902975.5352511,0.064,0.019,1.031,0.420,-2.310,-0.700
1743902975.5552511,0.065,0.018,1.034,0.350,-2.450,-0.700
1743902975.575251,0.065,0.016,1.037,0.280,-2.450,-0.770
1743902975.595251,0.062,0.017,1.032,0.350,-2.380,-0.770
1743902975.615251,0.062,0.016,1.032,0.350,-2.380,-0.770
1743902975.559896,0.063,0.015,1.036,0.420,-2.450,-0.770
1743902975.579896,0.063,0.014,1.036,0.420,-2.450,-0.700
1743902975.599896,0.064,0.016,1.034,0.280,-2.520,-0.770
1743902975.619896,0.063,0.017,1.030,0.350,-2.450,-0.700
1743902975.639896,0.064,0.017,1.036,0.350,-2.380,-0.700
1743902975.659896,0.064,0.015,1.037,0.420,-2.450,-0.770
1743902975.6049922,0.065,0.015,1.034,0.350,-2.520,-0.770
1743902975.6249921,0.063,0.015,1.032,0.350,-2.380,-0.770
1743902975.644992,0.064,0.015,1.036,0.350,-2.380,-0.630
1743902975.664992,0.064,0.017,1.036,0.350,-2.380,-0.700
1743902975.684992,0.066,0.014,1.032,0.420,-2.450,-0.770
1743902975.704992,0.064,0.014,1.034,0.490,-2.520,-0.700
1743902975.680624,0.063,0.017,1.038,0.490,-2.380,-0.700
1743902975.700624,0.063,0.015,1.036,0.350,-2.380,-0.700
1743902975.720624,0.063,0.017,1.031,0.350,-2.380,-0.630
1743902975.740624,0.064,0.016,1.034,0.350,-2.450,-0.770
1743902975.760624,0.062,0.016,1.036,0.420,-2.450,-0.700
1743902975.780624,0.063,0.017,1.035,0.280,-2.450,-0.700
1743902975.682691,0.063,0.016,1.032,0.420,-2.590,-0.700
1743902975.702691,0.064,0.016,1.036,0.350,-2.380,-0.700
1743902975.722691,0.064,0.017,1.034,0.350,-2.450,-0.700
1743902975.742691,0.064,0.017,1.037,0.280,-2.450,-0.630
1743902975.762691,0.064,0.016,1.033,0.350,-2.310,-0.770
1743902975.782691,0.062,0.015,1.032,0.350,-2.380,-0.700
1743902975.724873,0.064,0.016,1.034,0.490,-2.450,-0.700
1743902975.744873,0.065,0.015,1.037,0.420,-2.520,-0.700
1743902975.764873,0.065,0.017,1.036,0.280,-2.450,-0.770
1743902975.784873,0.065,0.015,1.033,0.420,-2.450,-0.770
1743902975.804873,0.064,0.016,1.031,0.350,-2.310,-0.770
1743902975.824873,0.063,0.017,1.036,0.490,-2.380,-0.770
1743902975.7839122,0.064,0.016,1.036,0.350,-2.380,-0.840
1743902975.8039122,0.063,0.014,1.032,0.490,-2.450,-0.700
1743902975.8239121,0.065,0.018,1.031,0.420,-2.450,-0.700
1743902975.8439121,0.061,0.015,1.033,0.490,-2.450,-0.770
1743902975.863912,0.063,0.017,1.035,0.280,-2.450,-0.700
1743902975.883912,0.061,0.017,1.030,0.420,-2.520,-0.700
1743902975.814568,0.064,0.015,1.032,0.420,-2.520,-0.770
1743902975.834568,0.061,0.018,1.035,0.420,-2.520,-0.770
1743902975.854568,0.064,0.016,1.035,0.350,-2.380,-0.770
1743902975.874568,0.064,0.015,1.031,0.420,-2.380,-0.770
1743902975.894568,0.066,0.016,1.034,0.280,-2.450,-0.700
1743902975.914568,0.065,0.017,1.034,0.420,-2.590,-0.630
1743902975.845096,0.064,0.017,1.035,0.280,-2.310,-0.770
1743902975.865096,0.064,0.017,1.034,0.350,-2.240,-0.770
1743902975.885096,0.063,0.015,1.031,0.490,-2.380,-0.770
1743902975.905096,0.064,0.017,1.034,0.420,-2.380,-0.700
1743902975.925096,0.064,0.017,1.035,0.420,-2.450,-0.770
1743902975.945096,0.064,0.015,1.035,0.420,-2.380,-0.770
1743902975.903038,0.062,0.017,1.033,0.490,-2.380,-0.700
1743902975.923038,0.064,0.019,1.035,0.420,-2.380,-0.700
1743902975.943038,0.062,0.016,1.034,0.280,-2.310,-0.770
1743902975.963038,0.064,0.018,1.030,0.490,-2.450,-0.700
1743902975.983038,0.065,0.015,1.031,0.280,-2.380,-0.770
1743902976.003038,0.064,0.016,1.035,0.350,-2.450,-0.770
1743902975.9348803,0.065,0.016,1.035,0.420,-2.450,-0.770
1743902975.9548802,0.065,0.016,1.034,0.420,-2.520,-0.700
1743902975.9748802,0.064,0.016,1.033,0.280,-2.450,-0.700
1743902975.9948802,0.063,0.015,1.032,0.420,-2.450,-0.770
1743902976.0148802,0.063,0.017,1.036,0.280,-2.520,-0.700
1743902976.0348802,0.063,0.016,1.032,0.350,-2.450,-0.770
1743902975.9798722,0.064,0.015,1.031,0.350,-2.380,-0.770
1743902975.9998722,0.064,0.017,1.032,0.420,-2.450,-0.770
1743902976.0198722,0.063,0.016,1.038,0.280,-2.450,-0.630
1743902976.0398722,0.063,0.016,1.033,0.280,-2.520,-0.700
1743902976.0598722,0.064,0.015,1.032,0.350,-2.450,-0.700
1743902976.0798721,0.066,0.015,1.036,0.490,-2.380,-0.700
1743902976.024592,0.065,0.017,1.039,0.350,-2.520,-0.700
1743902976.044592,0.064,0.016,1.036,0.420,-2.520,-0.770
1743902976.064592,0.065,0.016,1.031,0.350,-2.380,-0.700
1743902976.0845919,0.063,0.018,1.036,0.280,-2.450,-0.770
1743902976.1045918,0.063,0.018,1.037,0.350,-2.380,-0.770
1743902976.1245918,0.063,0.016,1.035,0.420,-2.450,-0.630
1743902976.0695562,0.064,0.015,1.033,0.350,-2.380,-0.770
1743902976.0895562,0.066,0.016,1.033,0.420,-2.450,-0.770
1743902976.1095562,0.065,0.015,1.036,0.350,-2.380,-0.770
1743902976.1295562,0.063,0.015,1.034,0.420,-2.380,-0.770
1743902976.1495562,0.063,0.018,1.031,0.280,-2.310,-0.770
1743902976.1695561,0.064,0.015,1.033,0.350,-2.380,-0.700
1743902976.099617,0.066,0.018,1.035,0.420,-2.380,-0.840
1743902976.119617,0.064,0.016,1.033,0.420,-2.380,-0.700
1743902976.139617,0.064,0.013,1.029,0.420,-2.380,-0.840
1743902976.159617,0.062,0.015,1.033,0.350,-2.380,-0.770
1743902976.179617,0.062,0.016,1.035,0.280,-2.380,-0.700
1743902976.199617,0.063,0.015,1.032,0.420,-2.450,-0.700
1743902976.1445842,0.062,0.017,1.030,0.210,-2.380,-0.770
1743902976.1645842,0.063,0.018,1.035,0.280,-2.380,-0.700
1743902976.1845841,0.063,0.017,1.036,0.350,-2.590,-0.700
1743902976.2045841,0.064,0.015,1.034,0.280,-2.450,-0.700
1743902976.224584,0.063,0.017,1.033,0.420,-2.450,-0.700
1743902976.244584,0.063,0.016,1.033,0.420,-2.450,-0.700
1743902976.189613,0.064,0.016,1.034,0.420,-2.520,-0.770
1743902976.209613,0.064,0.016,1.035,0.420,-2.590,-0.700
1743902976.229613,0.064,0.015,1.034,0.280,-2.380,-0.770
1743902976.249613,0.061,0.014,1.034,0.280,-2.520,-0.770
1743902976.269613,0.062,0.015,1.036,0.490,-2.450,-0.770
1743902976.289613,0.063,0.017,1.036,0.420,-2.450,-0.770
1743902976.234859,0.065,0.016,1.033,0.350,-2.520,-0.770
1743902976.254859,0.063,0.015,1.032,0.350,-2.520,-0.770
1743902976.274859,0.064,0.016,1.032,0.350,-2.450,-0.770
1743902976.294859,0.065,0.017,1.034,0.210,-2.450,-0.840
1743902976.314859,0.063,0.016,1.034,0.350,-2.380,-0.700
1743902976.334859,0.065,0.015,1.032,0.420,-2.450,-0.700
1743902976.2799861,0.065,0.017,1.036,0.490,-2.380,-0.700
1743902976.2999861,0.063,0.016,1.035,0.280,-2.450,-0.840
1743902976.319986,0.064,0.018,1.030,0.350,-2.450,-0.700
1743902976.339986,0.065,0.014,1.031,0.280,-2.380,-0.700
1743902976.359986,0.066,0.016,1.034,0.350,-2.380,-0.700
1743902976.379986,0.064,0.014,1.033,0.490,-2.450,-0.770
1743902976.309577,0.065,0.015,1.032,0.350,-2.450,-0.700
1743902976.329577,0.066,0.014,1.032,0.420,-2.380,-0.700
1743902976.349577,0.062,0.015,1.035,0.350,-2.520,-0.770
1743902976.369577,0.064,0.017,1.035,0.420,-2.450,-0.770
1743902976.389577,0.063,0.017,1.031,0.280,-2.380,-0.700
1743902976.409577,0.063,0.017,1.036,0.350,-2.310,-0.770
1743902976.355506,0.064,0.016,1.035,0.280,-2.520,-0.700
1743902976.375506,0.062,0.015,1.036,0.350,-2.450,-0.770
1743902976.395506,0.064,0.017,1.033,0.350,-2.380,-0.700
1743902976.415506,0.064,0.014,1.031,0.280,-2.450,-0.770
1743902976.4355059,0.062,0.015,1.037,0.280,-2.450,-0.700
1743902976.4555058,0.063,0.016,1.035,0.280,-2.380,-0.700
1743902976.400423,0.064,0.016,1.032,0.420,-2.450,-0.700
1743902976.420423,0.063,0.016,1.032,0.280,-2.450,-0.700
1743902976.440423,0.064,0.015,1.034,0.280,-2.450,-0.700
1743902976.460423,0.063,0.017,1.033,0.420,-2.520,-0.770
1743902976.480423,0.064,0.016,1.032,0.350,-2.520,-0.770
1743902976.500423,0.063,0.015,1.031,0.420,-2.380,-0.770
1743902976.4458222,0.064,0.016,1.035,0.420,-2.380,-0.770
1743902976.4658222,0.062,0.017,1.034,0.420,-2.450,-0.700
1743902976.4858222,0.063,0.015,1.033,0.280,-2.450,-0.700
1743902976.5058222,0.061,0.016,1.032,0.350,-2.450,-0.770
1743902976.5258222,0.064,0.016,1.036,0.350,-2.380,-0.770
1743902976.5458221,0.062,0.016,1.035,0.280,-2.450,-0.840
1743902976.4903712,0.064,0.018,1.032,0.490,-2.520,-0.840
1743902976.5103712,0.063,0.016,1.034,0.490,-2.520,-0.770
1743902976.5303712,0.066,0.017,1.036,0.350,-2.450,-0.700
1743902976.5503712,0.063,0.015,1.036,0.350,-2.380,-0.630
1743902976.5703712,0.063,0.017,1.032,0.350,-2.380,-0.770
1743902976.5903711,0.064,0.016,1.035,0.280,-2.520,-0.700
1743902976.535751,0.065,0.017,1.036,0.490,-2.450,-0.700
1743902976.555751,0.064,0.014,1.036,0.560,-2.450,-0.630
1743902976.575751,0.064,0.017,1.031,0.350,-2.240,-0.700
1743902976.595751,0.063,0.018,1.034,0.350,-2.380,-0.770
1743902976.615751,0.063,0.016,1.037,0.420,-2.520,-0.700
1743902976.635751,0.063,0.017,1.033,0.420,-2.450,-0.770
1743902976.594462,0.063,0.017,1.032,0.420,-2.450,-0.700
1743902976.614462,0.062,0.015,1.034,0.420,-2.450,-0.700
1743902976.6344619,0.063,0.017,1.035,0.350,-2.450,-0.700
1743902976.6544619,0.062,0.016,1.033,0.350,-2.520,-0.700
1743902976.6744618,0.064,0.015,1.031,0.210,-2.450,-0.770
1743902976.6944618,0.063,0.016,1.034,0.350,-2.450,-0.700
1743902976.625385,0.065,0.017,1.038,0.420,-2.520,-0.770
1743902976.645385,0.064,0.016,1.035,0.350,-2.520,-0.700
1743902976.665385,0.063,0.017,1.032,0.280,-2.450,-0.700
1743902976.685385,0.066,0.017,1.036,0.420,-2.520,-0.700
1743902976.705385,0.064,0.016,1.036,0.280,-2.310,-0.700
1743902976.725385,0.064,0.017,1.035,0.280,-2.450,-0.700
1743902976.657128,0.063,0.014,1.032,0.420,-2.310,-0.770
1743902976.677128,0.062,0.015,1.032,0.420,-2.520,-0.700
1743902976.697128,0.062,0.017,1.036,0.350,-2.520,-0.700
1743902976.717128,0.063,0.017,1.035,0.420,-2.380,-0.770
1743902976.737128,0.062,0.015,1.032,0.350,-2.380,-0.700
1743902976.757128,0.062,0.015,1.032,0.280,-2.380,-0.770
1743902976.7008111,0.063,0.015,1.037,0.420,-2.450,-0.700
1743902976.7208111,0.062,0.016,1.035,0.490,-2.450,-0.700
1743902976.740811,0.064,0.017,1.033,0.490,-2.450,-0.700
1743902976.760811,0.064,0.018,1.032,0.210,-2.450,-0.630
1743902976.780811,0.065,0.016,1.032,0.420,-2.380,-0.700
1743902976.800811,0.063,0.017,1.037,0.350,-2.450,-0.700
1743902976.7455761,0.065,0.017,1.035,0.210,-2.380,-0.630
1743902976.7655761,0.062,0.017,1.034,0.210,-2.450,-0.770
1743902976.785576,0.064,0.017,1.031,0.280,-2.380,-0.770
1743902976.805576,0.066,0.015,1.035,0.350,-2.450,-0.770
1743902976.825576,0.065,0.014,1.034,0.350,-2.380,-0.630
1743902976.845576,0.065,0.016,1.030,0.350,-2.450,-0.770
1743902976.790621,0.065,0.017,1.034,0.280,-2.450,-0.700
1743902976.810621,0.065,0.014,1.035,0.350,-2.380,-0.770
1743902976.830621,0.064,0.016,1.031,0.420,-2.310,-0.770
1743902976.850621,0.061,0.017,1.034,0.420,-2.450,-0.630
1743902976.870621,0.065,0.015,1.034,0.420,-2.450,-0.770
1743902976.890621,0.063,0.019,1.037,0.420,-2.450,-0.700
1743902976.8203871,0.063,0.017,1.031,0.420,-2.520,-0.770
1743902976.840387,0.063,0.015,1.030,0.350,-2.380,-0.770
1743902976.860387,0.066,0.016,1.034,0.350,-2.380,-0.700
1743902976.880387,0.066,0.015,1.035,0.420,-2.450,-0.700
1743902976.900387,0.064,0.017,1.033,0.280,-2.450,-0.770
1743902976.920387,0.065,0.018,1.033,0.350,-2.520,-0.840
1743902976.8803792,0.063,0.018,1.036,0.350,-2.450,-0.770
1743902976.9003792,0.065,0.015,1.036,0.280,-2.590,-0.630
1743902976.9203792,0.063,0.015,1.035,0.350,-2.380,-0.770
1743902976.9403791,0.061,0.015,1.032,0.490,-2.520,-0.770
1743902976.9603791,0.065,0.019,1.036,0.420,-2.310,-0.770
1743902976.980379,0.063,0.017,1.033,0.280,-2.380,-0.770
1743902976.9106371,0.063,0.018,1.030,0.350,-2.450,-0.630
1743902976.9306371,0.064,0.016,1.031,0.350,-2.520,-0.700
1743902976.950637,0.064,0.017,1.033,0.210,-2.590,-0.700
1743902976.970637,0.063,0.018,1.037,0.280,-2.450,-0.700
1743902976.990637,0.062,0.017,1.034,0.490,-2.450,-0.770
1743902977.010637,0.065,0.017,1.031,0.420,-2.450,-0.770
1743902976.971313,0.062,0.016,1.032,0.490,-2.450,-0.700
1743902976.991313,0.064,0.016,1.036,0.350,-2.450,-0.770
1743902977.011313,0.064,0.015,1.036,0.350,-2.520,-0.630
1743902977.031313,0.063,0.015,1.034,0.350,-2.520,-0.700
1743902977.051313,0.065,0.015,1.033,0.350,-2.520,-0.770
1743902977.071313,0.064,0.016,1.034,0.280,-2.520,-0.770
1743902976.9856563,0.065,0.017,1.037,0.420,-2.380,-0.700
1743902977.0056562,0.063,0.018,1.035,0.350,-2.520,-0.770
1743902977.0256562,0.062,0.017,1.032,0.280,-2.520,-0.700
1743902977.0456562,0.065,0.017,1.035,0.350,-2.380,-0.700
1743902977.0656562,0.067,0.015,1.036,0.350,-2.380,-0.700
1743902977.0856562,0.064,0.015,1.036,0.280,-2.450,-0.700
1743902977.030826,0.064,0.016,1.032,0.420,-2.310,-0.770
1743902977.050826,0.063,0.016,1.034,0.420,-2.450,-0.770
1743902977.070826,0.064,0.016,1.037,0.280,-2.520,-0.700
1743902977.090826,0.064,0.016,1.035,0.350,-2.520,-0.700
1743902977.110826,0.064,0.017,1.033,0.280,-2.310,-0.770
1743902977.130826,0.063,0.016,1.031,0.350,-2.450,-0.700
1743902977.075689,0.065,0.016,1.036,0.350,-2.380,-0.770
1743902977.095689,0.063,0.016,1.033,0.350,-2.310,-0.630
1743902977.115689,0.064,0.016,1.031,0.420,-2.380,-0.770
1743902977.135689,0.062,0.016,1.032,0.350,-2.380,-0.770
1743902977.155689,0.064,0.016,1.037,0.420,-2.450,-0.770
1743902977.175689,0.065,0.014,1.034,0.350,-2.450,-0.700
1743902977.121503,0.065,0.014,1.033,0.490,-2.520,-0.700
1743902977.141503,0.064,0.015,1.030,0.350,-2.380,-0.630
1743902977.161503,0.062,0.017,1.035,0.420,-2.450,-0.700
1743902977.181503,0.066,0.015,1.035,0.350,-2.450,-0.770
1743902977.201503,0.064,0.015,1.030,0.350,-2.520,-0.770
1743902977.221503,0.065,0.016,1.031,0.420,-2.450,-0.700
1743902977.2238631,0.065,0.015,1.035,0.560,-2.520,-0.770
1743902977.243863,0.065,0.015,1.036,0.420,-2.310,-0.700
1743902977.263863,0.064,0.017,1.030,0.350,-2.380,-0.700
1743902977.283863,0.063,0.016,1.032,0.420,-2.380,-0.770
1743902977.303863,0.064,0.017,1.034,0.280,-2.310,-0.630
1743902977.323863,0.066,0.015,1.035,0.280,-2.450,-0.630
1743902977.2267292,0.063,0.015,1.029,0.420,-2.380,-0.700
1743902977.2467291,0.063,0.016,1.033,0.560,-2.450,-0.700
1743902977.266729,0.066,0.017,1.037,0.350,-2.450,-0.700
1743902977.286729,0.062,0.017,1.037,0.420,-2.450,-0.700
1743902977.306729,0.064,0.016,1.033,0.280,-2.380,-0.700
1743902977.326729,0.061,0.015,1.032,0.420,-2.450,-0.700
1743902977.2412841,0.066,0.017,1.035,0.280,-2.450,-0.770
1743902977.261284,0.064,0.014,1.036,0.350,-2.520,-0.770
1743902977.281284,0.062,0.018,1.034,0.350,-2.450,-0.840
1743902977.301284,0.063,0.018,1.033,0.210,-2.450,-0.700
1743902977.321284,0.063,0.017,1.034,0.350,-2.450,-0.700
1743902977.341284,0.064,0.017,1.036,0.280,-2.450,-0.700
1743902977.285336,0.066,0.017,1.035,0.350,-2.240,-0.700
1743902977.305336,0.063,0.015,1.031,0.350,-2.450,-0.700
1743902977.325336,0.063,0.015,1.036,0.350,-2.450,-0.770
1743902977.345336,0.063,0.015,1.036,0.280,-2.380,-0.840
1743902977.365336,0.063,0.017,1.036,0.420,-2.450,-0.700
1743902977.385336,0.062,0.017,1.033,0.280,-2.380,-0.700
1743902977.330656,0.064,0.015,1.034,0.350,-2.450,-0.770
1743902977.350656,0.064,0.018,1.035,0.280,-2.450,-0.700
1743902977.370656,0.067,0.018,1.034,0.210,-2.380,-0.700
1743902977.390656,0.065,0.014,1.032,0.420,-2.450,-0.700
1743902977.410656,0.063,0.016,1.032,0.350,-2.450,-0.770
1743902977.430656,0.065,0.017,1.034,0.350,-2.310,-0.770
1743902977.3754401,0.064,0.017,1.033,0.350,-2.450,-0.700
1743902977.39544,0.067,0.016,1.035,0.350,-2.520,-0.700
1743902977.41544,0.064,0.016,1.035,0.350,-2.450,-0.770
1743902977.43544,0.064,0.016,1.034,0.350,-2.450,-0.630
1743902977.45544,0.064,0.017,1.036,0.280,-2.380,-0.700
1743902977.47544,0.065,0.015,1.032,0.490,-2.380,-0.700
1743902977.421402,0.065,0.014,1.033,0.420,-2.310,-0.770
1743902977.441402,0.064,0.014,1.033,0.560,-2.310,-0.770
1743902977.461402,0.063,0.017,1.037,0.350,-2.380,-0.700
1743902977.481402,0.062,0.014,1.036,0.210,-2.450,-0.700
1743902977.501402,0.063,0.014,1.033,0.420,-2.520,-0.840
1743902977.521402,0.064,0.016,1.036,0.350,-2.310,-0.700
1743902977.48034,0.061,0.016,1.038,0.350,-2.450,-0.770
1743902977.50034,0.065,0.015,1.036,0.350,-2.380,-0.630
1743902977.52034,0.063,0.015,1.032,0.280,-2.450,-0.700
1743902977.54034,0.066,0.016,1.034,0.350,-2.450,-0.700
1743902977.56034,0.066,0.016,1.036,0.280,-2.380,-0.700
1743902977.58034,0.063,0.016,1.031,0.350,-2.450,-0.770
1743902977.496336,0.063,0.017,1.029,0.420,-2.380,-0.700
1743902977.516336,0.063,0.016,1.035,0.490,-2.520,-0.630
1743902977.536336,0.065,0.017,1.036,0.280,-2.450,-0.700
1743902977.556336,0.063,0.015,1.031,0.350,-2.450,-0.770
1743902977.576336,0.063,0.015,1.030,0.420,-2.380,-0.770
1743902977.596336,0.062,0.015,1.035,0.350,-2.520,-0.700
1743902977.540666,0.062,0.016,1.034,0.490,-2.450,-0.700
1743902977.560666,0.062,0.016,1.033,0.350,-2.450,-0.700
1743902977.580666,0.062,0.016,1.034,0.490,-2.520,-0.700
1743902977.600666,0.064,0.017,1.035,0.350,-2.380,-0.700
1743902977.620666,0.063,0.017,1.035,0.210,-2.450,-0.700
1743902977.640666,0.064,0.015,1.032,0.280,-2.380,-0.700
1743902977.58568,0.063,0.017,1.034,0.420,-2.380,-0.700
1743902977.60568,0.061,0.016,1.037,0.350,-2.380,-0.700
1743902977.62568,0.065,0.016,1.034,0.350,-2.450,-0.700
1743902977.64568,0.065,0.015,1.030,0.210,-2.380,-0.770
1743902977.66568,0.065,0.016,1.032,0.350,-2.380,-0.840
1743902977.68568,0.064,0.016,1.037,0.420,-2.380,-0.700
1743902977.6305332,0.064,0.016,1.032,0.350,-2.520,-0.770
1743902977.6505332,0.063,0.016,1.032,0.350,-2.380,-0.700
1743902977.6705332,0.061,0.017,1.033,0.280,-2.450,-0.700
1743902977.6905332,0.064,0.016,1.038,0.420,-2.520,-0.700
1743902977.7105331,0.063,0.015,1.032,0.350,-2.380,-0.700
1743902977.7305331,0.063,0.016,1.030,0.350,-2.450,-0.770
1743902977.675698,0.061,0.015,1.033,0.490,-2.520,-0.700
1743902977.695698,0.065,0.015,1.037,0.420,-2.450,-0.770
1743902977.715698,0.065,0.017,1.032,0.350,-2.520,-0.770
1743902977.735698,0.063,0.016,1.034,0.420,-2.380,-0.630
1743902977.755698,0.065,0.016,1.036,0.420,-2.450,-0.770
1743902977.775698,0.064,0.015,1.035,0.350,-2.450,-0.700
1743902977.7207751,0.062,0.016,1.033,0.350,-2.520,-0.700
1743902977.740775,0.062,0.017,1.033,0.420,-2.380,-0.770
1743902977.760775,0.063,0.016,1.035,0.420,-2.380,-0.770
1743902977.780775,0.064,0.016,1.035,0.350,-2.450,-0.700
1743902977.800775,0.064,0.017,1.032,0.350,-2.450,-0.770
1743902977.820775,0.062,0.017,1.032,0.350,-2.450,-0.770
1743902977.796896,0.065,0.015,1.035,0.350,-2.520,-0.700
1743902977.816896,0.065,0.014,1.036,0.420,-2.380,-0.840
1743902977.836896,0.064,0.016,1.036,0.280,-2.450,-0.840
1743902977.856896,0.063,0.017,1.033,0.280,-2.520,-0.770
1743902977.876896,0.065,0.016,1.035,0.280,-2.310,-0.700
1743902977.896896,0.063,0.015,1.034,0.280,-2.380,-0.700
1743902977.7970562,0.065,0.014,1.035,0.420,-2.450,-0.910
1743902977.8170562,0.065,0.013,1.034,0.420,-2.380,-0.770
1743902977.8370562,0.064,0.015,1.030,0.420,-2.450,-0.700
1743902977.8570561,0.064,0.017,1.033,0.490,-2.450,-0.770
1743902977.8770561,0.064,0.016,1.035,0.420,-2.450,-0.700
1743902977.897056,0.066,0.018,1.035,0.350,-2.380,-0.770
1743902977.840867,0.064,0.015,1.032,0.420,-2.380,-0.770
1743902977.860867,0.063,0.016,1.031,0.350,-2.450,-0.700
1743902977.880867,0.064,0.018,1.035,0.280,-2.380,-0.700
1743902977.900867,0.063,0.015,1.035,0.420,-2.380,-0.700
1743902977.920867,0.063,0.015,1.031,0.350,-2.520,-0.700
1743902977.940867,0.064,0.017,1.031,0.280,-2.310,-0.700
1743902977.885458,0.064,0.014,1.035,0.350,-2.450,-0.700
1743902977.905458,0.064,0.015,1.035,0.420,-2.380,-0.840
1743902977.925458,0.064,0.014,1.034,0.350,-2.380,-0.630
1743902977.945458,0.065,0.015,1.036,0.350,-2.450,-0.770
1743902977.965458,0.065,0.016,1.034,0.350,-2.450,-0.700
1743902977.985458,0.063,0.016,1.035,0.350,-2.380,-0.630
1743902977.917408,0.063,0.017,1.031,0.280,-2.450,-0.770
1743902977.937408,0.064,0.015,1.035,0.420,-2.450,-0.700
1743902977.957408,0.063,0.015,1.038,0.420,-2.380,-0.770
1743902977.977408,0.065,0.017,1.037,0.420,-2.310,-0.770
1743902977.997408,0.063,0.017,1.033,0.350,-2.450,-0.770
1743902978.017408,0.064,0.016,1.035,0.350,-2.450,-0.770
1743902977.9764311,0.063,0.018,1.036,0.280,-2.450,-0.770
1743902977.996431,0.061,0.018,1.034,0.350,-2.520,-0.770
1743902978.016431,0.063,0.016,1.033,0.350,-2.520,-0.700
1743902978.036431,0.063,0.015,1.034,0.350,-2.380,-0.700
1743902978.056431,0.065,0.017,1.036,0.210,-2.380,-0.700
1743902978.076431,0.063,0.015,1.034,0.420,-2.450,-0.770
1743902978.0205681,0.063,0.015,1.033,0.350,-2.520,-0.700
1743902978.040568,0.063,0.016,1.035,0.280,-2.520,-0.700
1743902978.060568,0.064,0.017,1.034,0.490,-2.380,-0.770
1743902978.080568,0.065,0.017,1.032,0.420,-2.450,-0.770
1743902978.100568,0.065,0.016,1.032,0.350,-2.450,-0.700
1743902978.120568,0.064,0.015,1.036,0.350,-2.380,-0.700
1743902978.080645,0.065,0.015,1.035,0.350,-2.450,-0.770
1743902978.100645,0.065,0.015,1.034,0.280,-2.310,-0.700
1743902978.120645,0.064,0.015,1.032,0.280,-2.450,-0.700
1743902978.140645,0.064,0.017,1.035,0.420,-2.450,-0.700
1743902978.160645,0.063,0.016,1.033,0.280,-2.380,-0.770
1743902978.180645,0.065,0.016,1.032,0.350,-2.520,-0.770
1743902978.0955992,0.064,0.016,1.033,0.350,-2.240,-0.840
1743902978.1155992,0.065,0.016,1.035,0.420,-2.380,-0.770
1743902978.1355991,0.065,0.014,1.036,0.280,-2.520,-0.700
1743902978.155599,0.065,0.015,1.037,0.350,-2.520,-0.700
1743902978.175599,0.063,0.016,1.032,0.280,-2.520,-0.700
1743902978.195599,0.061,0.017,1.035,0.420,-2.240,-0.770
1743902978.1538181,0.062,0.017,1.034,0.210,-2.380,-0.700
1743902978.173818,0.062,0.018,1.035,0.350,-2.240,-0.840
1743902978.193818,0.063,0.018,1.034,0.490,-2.450,-0.700
1743902978.213818,0.064,0.017,1.031,0.350,-2.450,-0.700
1743902978.233818,0.062,0.015,1.036,0.350,-2.380,-0.630
1743902978.253818,0.065,0.018,1.035,0.280,-2.520,-0.770
1743902978.187841,0.064,0.016,1.031,0.210,-2.450,-0.700
1743902978.207841,0.064,0.014,1.032,0.280,-2.450,-0.700
1743902978.227841,0.066,0.016,1.036,0.490,-2.380,-0.770
1743902978.247841,0.064,0.015,1.035,0.350,-2.520,-0.770
1743902978.2678409,0.064,0.017,1.033,0.280,-2.240,-0.770
1743902978.2878408,0.064,0.017,1.034,0.420,-2.450,-0.840
1743902978.230575,0.063,0.015,1.037,0.420,-2.310,-0.770
1743902978.250575,0.063,0.017,1.035,0.280,-2.380,-0.770
1743902978.270575,0.064,0.013,1.032,0.280,-2.520,-0.700
1743902978.290575,0.064,0.018,1.034,0.420,-2.380,-0.770
1743902978.310575,0.064,0.015,1.034,0.210,-2.380,-0.840
1743902978.330575,0.063,0.016,1.034,0.280,-2.590,-0.700
1743902978.290553,0.063,0.015,1.031,0.350,-2.380,-0.770
1743902978.310553,0.065,0.017,1.033,0.490,-2.450,-0.770
1743902978.330553,0.063,0.016,1.034,0.350,-2.450,-0.840
1743902978.350553,0.063,0.015,1.037,0.420,-2.450,-0.840
1743902978.370553,0.066,0.016,1.032,0.560,-2.380,-0.700
1743902978.390553,0.065,0.017,1.033,0.490,-2.380,-0.840
1743902978.3055851,0.064,0.017,1.033,0.280,-2.310,-0.770
1743902978.3255851,0.065,0.017,1.037,0.350,-2.450,-0.630
1743902978.345585,0.062,0.015,1.034,0.490,-2.380,-0.770
1743902978.365585,0.064,0.015,1.031,0.350,-2.380,-0.700
1743902978.385585,0.062,0.015,1.031,0.420,-2.520,-0.630
1743902978.405585,0.065,0.016,1.035,0.560,-2.310,-0.770
1743902978.350805,0.064,0.018,1.035,0.490,-2.380,-0.770
1743902978.370805,0.061,0.017,1.033,0.280,-2.310,-0.700
1743902978.390805,0.063,0.018,1.032,0.280,-2.450,-0.700
1743902978.410805,0.064,0.016,1.035,0.210,-2.310,-0.700
1743902978.430805,0.064,0.015,1.037,0.350,-2.380,-0.630
1743902978.450805,0.064,0.015,1.029,0.280,-2.380,-0.630
1743902978.395812,0.063,0.015,1.032,0.280,-2.240,-0.630
1743902978.415812,0.064,0.016,1.034,0.350,-2.380,-0.700
1743902978.435812,0.065,0.016,1.034,0.420,-2.380,-0.630
1743902978.455812,0.063,0.016,1.030,0.350,-2.450,-0.630
1743902978.475812,0.062,0.016,1.031,0.280,-2.380,-0.700
1743902978.495812,0.063,0.015,1.032,0.350,-2.520,-0.700
1743902978.44245,0.064,0.015,1.035,0.420,-2.380,-0.770
1743902978.46245,0.065,0.018,1.033,0.350,-2.380,-0.770
1743902978.48245,0.064,0.017,1.033,0.350,-2.380,-0.840
1743902978.50245,0.064,0.016,1.035,0.420,-2.450,-0.700
1743902978.52245,0.063,0.016,1.033,0.420,-2.520,-0.700
1743902978.54245,0.064,0.016,1.031,0.350,-2.520,-0.700
1743902978.4859672,0.062,0.017,1.035,0.350,-2.590,-0.770
1743902978.5059671,0.062,0.017,1.036,0.420,-2.520,-0.770
1743902978.5259671,0.064,0.016,1.034,0.280,-2.520,-0.770
1743902978.545967,0.063,0.015,1.032,0.420,-2.450,-0.770
1743902978.565967,0.064,0.014,1.032,0.420,-2.450,-0.700
1743902978.585967,0.065,0.016,1.037,0.350,-2.520,-0.630
1743902978.5296702,0.067,0.015,1.036,0.350,-2.380,-0.770
1743902978.5496702,0.066,0.016,1.033,0.420,-2.450,-0.840
1743902978.5696702,0.066,0.015,1.035,0.420,-2.380,-0.700
1743902978.5896702,0.064,0.016,1.037,0.350,-2.450,-0.700
1743902978.6096702,0.063,0.016,1.036,0.280,-2.240,-0.770
1743902978.6296701,0.063,0.015,1.031,0.420,-2.450,-0.770
1743902978.5908742,0.061,0.017,1.032,0.210,-2.380,-0.770
1743902978.6108742,0.064,0.015,1.037,0.420,-2.520,-0.700
1743902978.6308742,0.063,0.015,1.036,0.420,-2.520,-0.770
1743902978.6508741,0.064,0.018,1.032,0.420,-2.520,-0.700
1743902978.670874,0.062,0.016,1.033,0.420,-2.520,-0.700
1743902978.690874,0.065,0.015,1.035,0.350,-2.450,-0.770
1743902978.6057363,0.064,0.017,1.031,0.350,-2.520,-0.770
1743902978.6257362,0.063,0.018,1.033,0.350,-2.450,-0.700
1743902978.6457362,0.063,0.016,1.034,0.490,-2.520,-0.700
1743902978.6657362,0.066,0.018,1.036,0.350,-2.450,-0.840
1743902978.6857362,0.061,0.017,1.035,0.280,-2.380,-0.700
1743902978.7057362,0.065,0.016,1.031,0.350,-2.380,-0.700
1743902978.665656,0.063,0.017,1.033,0.420,-2.450,-0.700
1743902978.685656,0.063,0.016,1.036,0.350,-2.380,-0.700
1743902978.705656,0.064,0.014,1.033,0.490,-2.520,-0.700
1743902978.725656,0.062,0.017,1.032,0.420,-2.450,-0.700
1743902978.745656,0.063,0.016,1.032,0.350,-2.520,-0.700
1743902978.765656,0.061,0.016,1.037,0.280,-2.450,-0.700
1743902978.699387,0.062,0.016,1.033,0.350,-2.520,-0.770
1743902978.719387,0.065,0.016,1.032,0.280,-2.310,-0.700
1743902978.739387,0.063,0.015,1.036,0.490,-2.380,-0.770
1743902978.759387,0.063,0.018,1.037,0.210,-2.450,-0.770
1743902978.779387,0.063,0.015,1.029,0.350,-2.450,-0.770
1743902978.799387,0.062,0.016,1.035,0.420,-2.450,-0.700
1743902978.740469,0.064,0.017,1.037,0.280,-2.450,-0.700
1743902978.760469,0.064,0.017,1.035,0.280,-2.450,-0.700
1743902978.780469,0.065,0.016,1.033,0.350,-2.450,-0.700
1743902978.800469,0.064,0.013,1.031,0.350,-2.450,-0.700
1743902978.820469,0.063,0.016,1.037,0.350,-2.380,-0.770
1743902978.840469,0.064,0.014,1.033,0.350,-2.380,-0.700
1743902978.7855573,0.063,0.015,1.035,0.280,-2.380,-0.770
1743902978.8055573,0.064,0.015,1.030,0.490,-2.450,-0.700
1743902978.8255572,0.062,0.017,1.035,0.350,-2.380,-0.770
1743902978.8455572,0.064,0.017,1.035,0.420,-2.450,-0.700
1743902978.8655572,0.065,0.017,1.034,0.350,-2.310,-0.770
1743902978.8855572,0.063,0.015,1.033,0.420,-2.520,-0.700
1743902978.83071,0.064,0.016,1.034,0.420,-2.450,-0.770
1743902978.85071,0.065,0.015,1.033,0.350,-2.520,-0.770
1743902978.87071,0.063,0.017,1.034,0.280,-2.520,-0.630
1743902978.8907099,0.063,0.019,1.033,0.350,-2.450,-0.700
1743902978.9107099,0.063,0.014,1.033,0.350,-2.450,-0.770
1743902978.9307098,0.062,0.016,1.035,0.280,-2.380,-0.770
1743902978.8903213,0.063,0.016,1.036,0.280,-2.520,-0.770
1743902978.9103212,0.065,0.018,1.031,0.350,-2.520,-0.630
1743902978.9303212,0.062,0.016,1.033,0.280,-2.380,-0.770
1743902978.9503212,0.065,0.013,1.032,0.350,-2.590,-0.700
1743902978.9703212,0.066,0.016,1.035,0.350,-2.590,-0.700
1743902978.9903212,0.063,0.015,1.035,0.350,-2.380,-0.700
1743902978.9195871,0.063,0.015,1.033,0.420,-2.520,-0.770
1743902978.939587,0.065,0.015,1.033,0.420,-2.380,-0.770
1743902978.959587,0.064,0.014,1.034,0.420,-2.520,-0.700
1743902978.979587,0.062,0.017,1.035,0.350,-2.380,-0.700
1743902978.999587,0.063,0.014,1.032,0.420,-2.450,-0.770
1743902979.019587,0.065,0.017,1.034,0.420,-2.450,-0.700
1743902978.95054,0.063,0.017,1.034,0.420,-2.380,-0.700
1743902978.97054,0.066,0.018,1.035,0.210,-2.590,-0.770
1743902978.99054,0.062,0.014,1.031,0.350,-2.450,-0.700
1743902979.01054,0.066,0.014,1.032,0.350,-2.380,-0.770
1743902979.03054,0.065,0.017,1.034,0.350,-2.520,-0.630
1743902979.05054,0.065,0.013,1.034,0.420,-2.450,-0.770
1743902978.995853,0.066,0.015,1.032,0.420,-2.450,-0.700
1743902979.015853,0.065,0.015,1.033,0.420,-2.520,-0.630
1743902979.035853,0.066,0.015,1.034,0.350,-2.380,-0.840
1743902979.055853,0.065,0.015,1.036,0.560,-2.310,-0.700
1743902979.0758529,0.066,0.015,1.033,0.420,-2.520,-0.700
1743902979.0958529,0.064,0.017,1.034,0.350,-2.520,-0.700
1743902979.040638,0.063,0.015,1.032,0.420,-2.380,-0.770
1743902979.060638,0.063,0.018,1.035,0.420,-2.170,-0.770
1743902979.080638,0.063,0.015,1.033,0.420,-2.450,-0.770
1743902979.100638,0.064,0.016,1.032,0.350,-2.380,-0.770
1743902979.120638,0.065,0.014,1.034,0.350,-2.520,-0.700
1743902979.1406379,0.061,0.016,1.036,0.350,-2.450,-0.700
1743902979.070765,0.062,0.015,1.033,0.210,-2.450,-0.700
1743902979.090765,0.064,0.016,1.031,0.280,-2.380,-0.700
1743902979.110765,0.063,0.017,1.034,0.280,-2.240,-0.700
1743902979.130765,0.064,0.018,1.036,0.280,-2.380,-0.700
1743902979.150765,0.065,0.015,1.036,0.210,-2.310,-0.770
1743902979.170765,0.064,0.016,1.033,0.350,-2.310,-0.700
1743902979.1153622,0.063,0.016,1.032,0.350,-2.310,-0.700
1743902979.1353621,0.062,0.017,1.035,0.350,-2.380,-0.770
1743902979.1553621,0.064,0.016,1.035,0.280,-2.450,-0.770
1743902979.175362,0.063,0.017,1.033,0.420,-2.450,-0.770
1743902979.195362,0.062,0.018,1.035,0.350,-2.520,-0.840
1743902979.215362,0.062,0.017,1.037,0.210,-2.450,-0.630
1743902979.1905723,0.062,0.016,1.033,0.350,-2.520,-0.700
1743902979.2105722,0.063,0.016,1.032,0.350,-2.590,-0.700
1743902979.2305722,0.062,0.016,1.034,0.280,-2.520,-0.770
1743902979.2505722,0.062,0.015,1.037,0.350,-2.450,-0.700
1743902979.2705722,0.064,0.015,1.032,0.420,-2.240,-0.770
1743902979.2905722,0.062,0.018,1.032,0.420,-2.590,-0.770
1743902979.205496,0.065,0.016,1.034,0.350,-2.450,-0.700
1743902979.225496,0.063,0.017,1.035,0.420,-2.450,-0.840
1743902979.245496,0.063,0.018,1.037,0.490,-2.520,-0.770
1743902979.265496,0.063,0.016,1.029,0.350,-2.380,-0.700
1743902979.285496,0.065,0.016,1.036,0.490,-2.450,-0.770
1743902979.305496,0.062,0.016,1.037,0.350,-2.450,-0.770
1743902979.2506452,0.064,0.017,1.035,0.210,-2.380,-0.770
1743902979.2706451,0.064,0.016,1.033,0.350,-2.380,-0.700
1743902979.2906451,0.064,0.015,1.034,0.280,-2.450,-0.700
1743902979.310645,0.064,0.018,1.036,0.210,-2.380,-0.700
1743902979.330645,0.064,0.014,1.035,0.350,-2.450,-0.700
1743902979.350645,0.064,0.014,1.031,0.490,-2.450,-0.770
1743902979.29566,0.065,0.017,1.035,0.420,-2.310,-0.840
1743902979.31566,0.061,0.017,1.037,0.210,-2.380,-0.770
1743902979.33566,0.065,0.014,1.032,0.350,-2.450,-0.770
1743902979.35566,0.066,0.016,1.030,0.420,-2.380,-0.770
1743902979.37566,0.063,0.016,1.034,0.350,-2.380,-0.840
1743902979.39566,0.063,0.016,1.037,0.350,-2.310,-0.770
1743902979.3405852,0.063,0.018,1.032,0.560,-2.380,-0.700
1743902979.3605852,0.062,0.016,1.034,0.350,-2.450,-0.700
1743902979.3805852,0.064,0.015,1.032,0.420,-2.380,-0.700
1743902979.4005852,0.062,0.016,1.036,0.420,-2.380,-0.700
1743902979.4205852,0.065,0.017,1.034,0.420,-2.380,-0.770
1743902979.4405851,0.062,0.016,1.031,0.350,-2.450,-0.770
1743902979.385544,0.062,0.015,1.035,0.350,-2.380,-0.840
1743902979.405544,0.063,0.017,1.036,0.350,-2.450,-0.630
1743902979.425544,0.062,0.014,1.033,0.280,-2.450,-0.700
1743902979.445544,0.063,0.018,1.033,0.350,-2.310,-0.700
1743902979.465544,0.062,0.014,1.035,0.350,-2.520,-0.700
1743902979.485544,0.063,0.016,1.035,0.210,-2.520,-0.700
1743902979.4163942,0.065,0.014,1.034,0.280,-2.590,-0.770
1743902979.4363942,0.065,0.017,1.033,0.420,-2.450,-0.840
1743902979.4563942,0.063,0.017,1.030,0.350,-2.380,-0.700
1743902979.4763942,0.063,0.017,1.036,0.210,-2.520,-0.630
1743902979.4963942,0.065,0.014,1.036,0.350,-2.450,-0.700
1743902979.5163941,0.064,0.015,1.033,0.490,-2.520,-0.770
1743902979.490736,0.065,0.016,1.031,0.350,-2.380,-0.770
1743902979.510736,0.063,0.014,1.035,0.350,-2.380,-0.770
1743902979.530736,0.064,0.018,1.034,0.420,-2.380,-0.630
1743902979.550736,0.062,0.017,1.033,0.210,-2.450,-0.700
1743902979.570736,0.066,0.015,1.034,0.350,-2.520,-0.630
1743902979.590736,0.066,0.017,1.035,0.350,-2.380,-0.840
1743902979.505551,0.064,0.017,1.036,0.280,-2.380,-0.700
1743902979.525551,0.061,0.016,1.033,0.420,-2.450,-0.770
1743902979.545551,0.066,0.016,1.032,0.350,-2.450,-0.700
1743902979.565551,0.062,0.016,1.035,0.350,-2.310,-0.770
1743902979.585551,0.062,0.015,1.034,0.350,-2.520,-0.770
1743902979.605551,0.065,0.015,1.033,0.350,-2.520,-0.770
1743902979.5505662,0.063,0.016,1.032,0.350,-2.450,-0.700
1743902979.5705662,0.065,0.016,1.035,0.280,-2.590,-0.770
1743902979.5905662,0.065,0.014,1.034,0.420,-2.450,-0.840
1743902979.6105661,0.063,0.016,1.032,0.350,-2.380,-0.700
1743902979.6305661,0.063,0.016,1.034,0.280,-2.380,-0.770
1743902979.650566,0.062,0.014,1.032,0.280,-2.380,-0.700
1743902979.600895,0.064,0.015,1.036,0.280,-2.450,-0.700
1743902979.620895,0.064,0.016,1.035,0.280,-2.380,-0.630
1743902979.640895,0.062,0.018,1.030,0.350,-2.380,-0.700
1743902979.6608949,0.063,0.015,1.034,0.280,-2.450,-0.700
1743902979.6808949,0.063,0.016,1.033,0.350,-2.520,-0.700
1743902979.7008948,0.065,0.019,1.035,0.350,-2.380,-0.630
1743902979.640758,0.063,0.014,1.031,0.350,-2.450,-0.700
1743902979.660758,0.061,0.017,1.034,0.490,-2.520,-0.700
1743902979.680758,0.063,0.016,1.035,0.350,-2.520,-0.770
1743902979.700758,0.065,0.016,1.033,0.420,-2.450,-0.770
1743902979.720758,0.062,0.018,1.032,0.420,-2.450,-0.770
1743902979.740758,0.064,0.018,1.035,0.280,-2.450,-0.700
1743902979.6704712,0.063,0.014,1.037,0.280,-2.450,-0.770
1743902979.6904712,0.064,0.017,1.034,0.350,-2.450,-0.630
1743902979.7104712,0.065,0.015,1.033,0.280,-2.520,-0.700
1743902979.7304711,0.066,0.016,1.033,0.280,-2.380,-0.630
1743902979.750471,0.065,0.017,1.037,0.350,-2.310,-0.770
1743902979.770471,0.064,0.017,1.035,0.280,-2.520,-0.770
1743902979.715343,0.063,0.016,1.031,0.350,-2.520,-0.770
1743902979.735343,0.065,0.015,1.033,0.280,-2.450,-0.770
1743902979.755343,0.064,0.015,1.037,0.350,-2.450,-0.700
1743902979.775343,0.063,0.015,1.036,0.420,-2.450,-0.700
1743902979.795343,0.067,0.017,1.032,0.560,-2.450,-0.770
1743902979.815343,0.066,0.015,1.031,0.350,-2.380,-0.700
1743902979.80658,0.062,0.015,1.036,0.350,-2.380,-0.770
1743902979.82658,0.063,0.017,1.036,0.420,-2.520,-0.770
1743902979.84658,0.063,0.018,1.035,0.350,-2.450,-0.700
1743902979.86658,0.062,0.015,1.031,0.280,-2.240,-0.700
1743902979.88658,0.062,0.017,1.038,0.350,-2.520,-0.770
1743902979.90658,0.063,0.017,1.035,0.350,-2.450,-0.840
1743902979.809105,0.066,0.015,1.033,0.350,-2.380,-0.770
1743902979.829105,0.065,0.017,1.032,0.350,-2.380,-0.630
1743902979.849105,0.063,0.016,1.037,0.210,-2.310,-0.770
1743902979.8691049,0.064,0.016,1.034,0.420,-2.380,-0.840
1743902979.8891048,0.063,0.017,1.034,0.350,-2.380,-0.770
1743902979.9091048,0.064,0.017,1.034,0.280,-2.380,-0.700
1743902979.85066,0.063,0.017,1.033,0.350,-2.380,-0.700
1743902979.87066,0.062,0.018,1.035,0.280,-2.310,-0.700
1743902979.89066,0.064,0.016,1.032,0.280,-2.450,-0.630
1743902979.91066,0.064,0.017,1.033,0.350,-2.380,-0.630
1743902979.93066,0.063,0.017,1.034,0.350,-2.310,-0.700
1743902979.95066,0.061,0.015,1.036,0.420,-2.450,-0.700
1743902979.8815722,0.063,0.015,1.035,0.280,-2.380,-0.700
1743902979.9015722,0.063,0.017,1.032,0.280,-2.380,-0.770
1743902979.9215722,0.062,0.016,1.031,0.280,-2.450,-0.770
1743902979.9415722,0.064,0.017,1.035,0.420,-2.380,-0.770
1743902979.9615722,0.063,0.016,1.035,0.350,-2.380,-0.700
1743902979.9815722,0.066,0.015,1.035,0.280,-2.380,-0.770
1743902979.9256163,0.065,0.015,1.031,0.350,-2.520,-0.700
1743902979.9456162,0.061,0.014,1.036,0.350,-2.310,-0.840
1743902979.9656162,0.064,0.016,1.036,0.420,-2.520,-0.700
1743902979.9856162,0.063,0.016,1.033,0.420,-2.520,-0.700
1743902980.0056162,0.066,0.016,1.032,0.350,-2.450,-0.700
1743902980.0256162,0.062,0.016,1.034,0.420,-2.450,-0.700
1743902979.970562,0.061,0.017,1.036,0.350,-2.310,-0.770
1743902979.990562,0.065,0.018,1.036,0.280,-2.450,-0.770
1743902980.010562,0.062,0.017,1.033,0.420,-2.450,-0.700
1743902980.030562,0.066,0.018,1.033,0.280,-2.380,-0.770
1743902980.050562,0.067,0.015,1.035,0.420,-2.380,-0.700
1743902980.070562,0.064,0.015,1.035,0.490,-2.450,-0.770
1743902980.000446,0.065,0.014,1.034,0.280,-2.520,-0.630
1743902980.020446,0.063,0.016,1.032,0.280,-2.380,-0.770
1743902980.040446,0.065,0.015,1.034,0.350,-2.380,-0.840
1743902980.060446,0.063,0.015,1.034,0.420,-2.450,-0.630
1743902980.080446,0.063,0.015,1.035,0.350,-2.310,-0.700
1743902980.100446,0.062,0.013,1.033,0.350,-2.380,-0.770
1743902980.0918741,0.063,0.017,1.033,0.490,-2.380,-0.700
1743902980.111874,0.062,0.016,1.035,0.420,-2.520,-0.630
1743902980.131874,0.062,0.018,1.034,0.280,-2.380,-0.770
1743902980.151874,0.063,0.017,1.032,0.420,-2.520,-0.700
1743902980.171874,0.063,0.018,1.032,0.140,-2.380,-0.700
1743902980.191874,0.063,0.016,1.034,0.140,-2.520,-0.770
1743902980.0946841,0.062,0.017,1.035,0.210,-2.520,-0.630
1743902980.114684,0.066,0.015,1.034,0.350,-2.450,-0.700
1743902980.134684,0.067,0.016,1.034,0.350,-2.450,-0.700
1743902980.154684,0.063,0.014,1.035,0.350,-2.450,-0.770
1743902980.174684,0.065,0.016,1.036,0.350,-2.380,-0.770
1743902980.194684,0.066,0.013,1.031,0.210,-2.240,-0.770
1743902980.1358662,0.065,0.016,1.029,0.280,-2.380,-0.700
1743902980.1558661,0.065,0.016,1.037,0.350,-2.450,-0.770
1743902980.1758661,0.063,0.016,1.035,0.420,-2.450,-0.700
1743902980.195866,0.065,0.017,1.032,0.420,-2.380,-0.700
1743902980.215866,0.062,0.018,1.032,0.490,-2.310,-0.700
1743902980.235866,0.062,0.016,1.035,0.420,-2.380,-0.770
1743902980.1811972,0.062,0.016,1.037,0.420,-2.380,-0.700
1743902980.2011971,0.063,0.016,1.031,0.420,-2.450,-0.700
1743902980.2211971,0.064,0.015,1.033,0.420,-2.520,-0.630
1743902980.241197,0.063,0.016,1.036,0.280,-2.520,-0.630
1743902980.261197,0.065,0.016,1.033,0.420,-2.380,-0.630
1743902980.281197,0.065,0.016,1.034,0.350,-2.590,-0.700
1743902980.2278552,0.063,0.018,1.033,0.420,-2.380,-0.630
1743902980.2478552,0.063,0.015,1.035,0.420,-2.380,-0.700
1743902980.2678552,0.064,0.016,1.035,0.490,-2.450,-0.700
1743902980.2878551,0.065,0.017,1.034,0.350,-2.380,-0.770
1743902980.3078551,0.063,0.016,1.032,0.350,-2.450,-0.770
1743902980.327855,0.063,0.017,1.032,0.420,-2.310,-0.840
1743902980.2558222,0.063,0.017,1.036,0.420,-2.450,-0.770
1743902980.2758222,0.063,0.016,1.036,0.350,-2.380,-0.770
1743902980.2958221,0.064,0.016,1.033,0.420,-2.450,-0.700
1743902980.3158221,0.062,0.017,1.033,0.350,-2.380,-0.770
1743902980.335822,0.065,0.017,1.033,0.420,-2.380,-0.770
1743902980.355822,0.064,0.016,1.036,0.350,-2.520,-0.700
1743902980.302545,0.064,0.016,1.032,0.350,-2.450,-0.770
1743902980.322545,0.062,0.016,1.032,0.420,-2.520,-0.770
1743902980.342545,0.065,0.015,1.034,0.420,-2.450,-0.770
1743902980.362545,0.067,0.015,1.036,0.420,-2.450,-0.840
1743902980.382545,0.064,0.013,1.035,0.280,-2.310,-0.840
1743902980.402545,0.066,0.015,1.034,0.420,-2.520,-0.770
1743902980.3920202,0.063,0.014,1.037,0.420,-2.380,-0.840
1743902980.4120202,0.066,0.016,1.037,0.420,-2.310,-0.770
1743902980.4320202,0.066,0.016,1.034,0.420,-2.380,-0.630
1743902980.4520202,0.064,0.016,1.031,0.490,-2.450,-0.770
1743902980.4720201,0.063,0.016,1.035,0.490,-2.520,-0.770
1743902980.4920201,0.063,0.016,1.035,0.490,-2.520,-0.630
1743902980.3937612,0.063,0.018,1.035,0.350,-2.450,-0.770
1743902980.4137611,0.065,0.016,1.033,0.280,-2.520,-0.770
1743902980.4337611,0.062,0.016,1.036,0.280,-2.590,-0.770
1743902980.453761,0.063,0.014,1.038,0.280,-2.590,-0.630
1743902980.473761,0.063,0.016,1.032,0.280,-2.520,-0.630
1743902980.493761,0.061,0.015,1.030,0.350,-2.450,-0.700
1743902980.4494662,0.066,0.015,1.037,0.350,-2.450,-0.700
1743902980.4694662,0.063,0.016,1.037,0.280,-2.310,-0.770
1743902980.4894662,0.061,0.015,1.030,0.420,-2.380,-0.840
1743902980.5094662,0.062,0.017,1.032,0.350,-2.380,-0.700
1743902980.5294662,0.064,0.015,1.034,0.420,-2.380,-0.700
1743902980.5494661,0.064,0.017,1.036,0.280,-2.520,-0.770
1743902980.4805303,0.063,0.017,1.033,0.280,-2.450,-0.770
1743902980.5005302,0.065,0.016,1.033,0.350,-2.450,-0.700
1743902980.5205302,0.065,0.016,1.034,0.350,-2.520,-0.700
1743902980.5405302,0.063,0.014,1.035,0.420,-2.590,-0.770
1743902980.5605302,0.064,0.015,1.033,0.490,-2.520,-0.770
1743902980.5805302,0.064,0.015,1.031,0.420,-2.660,-0.700
1743902980.5114331,0.066,0.017,1.035,0.420,-2.450,-0.700
1743902980.531433,0.066,0.017,1.036,0.560,-2.450,-0.700
1743902980.551433,0.065,0.016,1.035,0.420,-2.450,-0.770
1743902980.571433,0.063,0.015,1.032,0.350,-2.450,-0.770
1743902980.591433,0.066,0.016,1.033,0.350,-2.380,-0.840
1743902980.611433,0.064,0.018,1.034,0.350,-2.380,-0.700
1743902980.5556521,0.066,0.017,1.032,0.280,-2.380,-0.630
1743902980.5756521,0.061,0.017,1.033,0.420,-2.450,-0.770
1743902980.595652,0.065,0.018,1.034,0.560,-2.520,-0.770
1743902980.615652,0.064,0.016,1.037,0.280,-2.450,-0.770
1743902980.635652,0.065,0.017,1.034,0.280,-2.520,-0.700
1743902980.655652,0.063,0.015,1.032,0.280,-2.450,-0.770
1743902980.601124,0.065,0.015,1.035,0.350,-2.520,-0.700
1743902980.621124,0.062,0.015,1.035,0.420,-2.380,-0.840
1743902980.641124,0.063,0.019,1.033,0.210,-2.380,-0.770
1743902980.661124,0.063,0.015,1.031,0.280,-2.380,-0.770
1743902980.681124,0.065,0.015,1.035,0.350,-2.450,-0.770
1743902980.701124,0.065,0.014,1.036,0.420,-2.520,-0.840
1743902980.690486,0.064,0.015,1.032,0.280,-2.450,-0.700
1743902980.710486,0.063,0.018,1.033,0.280,-2.450,-0.700
1743902980.730486,0.062,0.016,1.033,0.350,-2.450,-0.630
1743902980.750486,0.063,0.018,1.035,0.420,-2.450,-0.700
1743902980.7704859,0.062,0.017,1.033,0.280,-2.520,-0.770
1743902980.7904859,0.061,0.014,1.035,0.350,-2.450,-0.700
1743902980.6938672,0.065,0.015,1.035,0.420,-2.450,-0.700
1743902980.7138672,0.064,0.016,1.038,0.420,-2.450,-0.700
1743902980.7338672,0.063,0.016,1.034,0.560,-2.520,-0.700
1743902980.7538671,0.064,0.017,1.033,0.280,-2.450,-0.700
1743902980.7738671,0.064,0.014,1.034,0.280,-2.520,-0.770
1743902980.793867,0.068,0.016,1.033,0.490,-2.380,-0.700
1743902980.720378,0.066,0.015,1.033,0.210,-2.380,-0.700
1743902980.740378,0.065,0.015,1.034,0.280,-2.380,-0.770
1743902980.760378,0.065,0.015,1.032,0.420,-2.520,-0.630
1743902980.7803779,0.065,0.016,1.035,0.350,-2.380,-0.630
1743902980.8003778,0.065,0.016,1.035,0.140,-2.520,-0.700
1743902980.8203778,0.063,0.016,1.031,0.490,-2.590,-0.700
1743902980.765757,0.063,0.018,1.033,0.770,-2.450,-0.700
1743902980.785757,0.062,0.020,1.034,-0.630,-2.450,-0.630
1743902980.805757,0.063,0.014,1.033,-0.140,-2.590,-0.840
1743902980.825757,0.066,0.015,1.036,1.260,-2.170,-0.840
1743902980.845757,0.062,0.021,1.032,-0.210,-2.660,-0.630
1743902980.865757,0.063,0.019,1.029,-0.280,-2.450,-0.560
1743902980.810754,0.064,0.012,1.037,0.840,-2.310,-0.770
1743902980.830754,0.067,0.017,1.035,0.980,-2.450,-0.700
1743902980.850754,0.067,0.017,1.033,-0.280,-2.380,-0.770
1743902980.870754,0.064,0.012,1.031,0.700,-2.450,-0.770
1743902980.890754,0.064,0.015,1.037,0.980,-2.380,-0.770
1743902980.910754,0.063,0.020,1.035,0.140,-2.520,-0.630
1743902980.856456,0.065,0.014,1.030,17.640,-2.520,-0.700
1743902980.876456,0.064,0.012,1.031,1.050,-2.310,-0.630
1743902980.896456,0.062,0.018,1.035,0.630,-2.520,-0.700
1743902980.916456,0.063,0.018,1.036,-0.210,-2.450,-0.630
1743902980.936456,0.064,0.013,1.032,0.350,-2.520,-0.630
1743902980.956456,0.065,0.018,1.032,0.910,-2.380,-0.770
1743902980.8854342,0.064,0.019,1.037,0.280,-2.660,-0.630
1743902980.9054341,0.064,0.018,1.036,0.210,-2.590,-0.700
1743902980.925434,0.064,0.017,1.035,0.700,-2.590,-0.770
1743902980.945434,0.065,0.018,1.032,0.770,-2.450,-0.700
1743902980.965434,0.065,0.019,1.034,0.140,-2.380,-0.700
1743902980.985434,0.065,0.015,1.036,0.350,-2.520,-0.700
1743902980.9309,0.065,0.018,1.034,0.350,-2.380,-0.630
1743902980.9509,0.063,0.018,1.032,0.070,-2.450,-0.700
1743902980.9709,0.063,0.014,1.032,0.140,-2.450,-0.700
1743902980.9909,0.065,0.016,1.034,0.630,-2.380,-0.700
1743902981.0109,0.064,0.016,1.033,0.420,-2.520,-0.770
1743902981.0309,0.067,0.016,1.031,0.280,-2.520,-0.700
1743902980.9905632,0.064,0.016,1.034,0.770,-2.310,-0.840
1743902981.0105631,0.063,0.017,1.037,0.560,-2.520,-0.700
1743902981.030563,0.064,0.015,1.032,0.280,-2.450,-0.770
1743902981.050563,0.063,0.014,1.032,0.840,-2.450,-0.770
1743902981.070563,0.062,0.019,1.037,0.630,-2.450,-0.770
1743902981.090563,0.067,0.017,1.037,0.210,-2.450,-0.630
1743902981.02066,0.063,0.014,1.031,0.350,-2.380,-0.770
1743902981.04066,0.061,0.016,1.032,0.770,-2.310,-0.770
1743902981.06066,0.061,0.020,1.037,0.630,-2.380,-0.770
1743902981.0806599,0.062,0.017,1.037,0.280,-2.450,-0.700
1743902981.1006598,0.062,0.017,1.034,0.420,-2.310,-0.700
1743902981.1206598,0.064,0.018,1.031,0.210,-2.380,-0.770
1743902981.074275,0.065,0.019,1.035,0.000,-2.380,-0.700
1743902981.094275,0.066,0.013,1.034,0.140,-2.380,-0.630
1743902981.114275,0.065,0.014,1.033,0.350,-2.380,-0.770
1743902981.134275,0.065,0.014,1.032,0.280,-2.520,-0.700
1743902981.154275,0.063,0.015,1.034,0.210,-2.310,-0.700
1743902981.174275,0.066,0.015,1.033,0.490,-2.380,-0.700
1743902981.1105242,0.064,0.014,1.033,0.210,-2.380,-0.770
1743902981.1305242,0.063,0.015,1.030,0.490,-2.450,-0.700
1743902981.1505241,0.063,0.017,1.034,0.630,-2.310,-0.770
1743902981.1705241,0.062,0.019,1.037,0.490,-2.310,-0.770
1743902981.190524,0.066,0.017,1.030,0.140,-2.520,-0.770
1743902981.210524,0.062,0.016,1.034,0.490,-2.450,-0.770
1743902981.1576421,0.062,0.015,1.037,0.420,-2.450,-0.630
1743902981.177642,0.063,0.016,1.035,0.350,-2.520,-0.770
1743902981.197642,0.063,0.018,1.033,0.350,-2.450,-0.840
1743902981.217642,0.063,0.018,1.033,0.420,-2.450,-0.700
1743902981.237642,0.061,0.017,1.035,0.420,-2.450,-0.770
1743902981.257642,0.064,0.017,1.033,0.490,-2.590,-0.700
1743902981.2010522,0.064,0.018,1.029,0.070,-2.660,-0.700
1743902981.2210522,0.064,0.014,1.033,-0.070,-2.380,-0.770
1743902981.2410522,0.065,0.015,1.037,0.700,-2.240,-0.770
1743902981.2610521,0.065,0.020,1.033,0.210,-2.520,-0.700
1743902981.281052,0.064,0.017,1.031,0.210,-2.450,-0.630
1743902981.301052,0.065,0.016,1.034,0.420,-2.450,-0.700
1743902981.291966,0.066,0.016,1.035,0.560,-2.450,-0.700
1743902981.311966,0.066,0.018,1.035,0.000,-2.380,-0.700
1743902981.331966,0.065,0.014,1.031,0.210,-2.310,-0.700
1743902981.351966,0.065,0.015,1.033,0.630,-2.380,-0.770
1743902981.371966,0.064,0.016,1.035,0.210,-2.380,-0.700
1743902981.3919659,0.063,0.015,1.037,0.140,-2.380,-0.770
1743902981.2938743,0.064,0.016,1.030,0.630,-2.310,-0.770
1743902981.3138742,0.063,0.018,1.035,0.210,-2.380,-0.700
1743902981.3338742,0.063,0.015,1.036,0.070,-2.450,-0.770
1743902981.3538742,0.064,0.014,1.035,0.350,-2.310,-0.700
1743902981.3738742,0.064,0.015,1.034,0.490,-2.310,-0.700
1743902981.3938742,0.063,0.016,1.035,0.350,-2.450,-0.770
1743902981.3221302,0.062,0.015,1.035,0.490,-2.450,-0.770
1743902981.3421302,0.063,0.015,1.035,0.630,-2.450,-0.700
1743902981.3621302,0.065,0.015,1.034,0.490,-2.380,-0.770
1743902981.3821301,0.063,0.016,1.032,0.420,-2.380,-0.770
1743902981.4021301,0.066,0.014,1.034,0.490,-2.380,-0.840
1743902981.42213,0.065,0.015,1.036,0.420,-2.380,-0.700
1743902981.382473,0.065,0.015,1.032,0.490,-2.520,-0.770
1743902981.402473,0.066,0.017,1.031,0.560,-2.520,-0.770
1743902981.422473,0.064,0.017,1.033,0.490,-2.380,-0.700
1743902981.442473,0.065,0.016,1.037,0.280,-2.450,-0.770
1743902981.462473,0.064,0.016,1.031,0.630,-2.450,-0.770
1743902981.482473,0.064,0.019,1.031,0.490,-2.310,-0.770
1743902981.4107642,0.063,0.017,1.034,0.350,-2.380,-0.700
1743902981.4307642,0.062,0.019,1.036,0.350,-2.520,-0.700
1743902981.4507642,0.066,0.016,1.032,0.420,-2.450,-0.770
1743902981.4707642,0.063,0.017,1.031,0.350,-2.450,-0.700
1743902981.4907641,0.064,0.018,1.034,0.350,-2.450,-0.770
1743902981.5107641,0.063,0.015,1.036,0.560,-2.450,-0.770
1743902981.455966,0.062,0.016,1.033,0.350,-2.450,-0.770
1743902981.475966,0.063,0.014,1.029,0.280,-2.450,-0.700
1743902981.495966,0.063,0.015,1.031,0.560,-2.380,-0.700
1743902981.515966,0.063,0.015,1.038,0.420,-2.520,-0.770
1743902981.535966,0.064,0.017,1.036,0.070,-2.380,-0.700
1743902981.555966,0.063,0.015,1.030,0.210,-2.380,-0.700
1743902981.516477,0.061,0.015,1.035,0.560,-2.520,-0.770
1743902981.536477,0.068,0.015,1.036,0.490,-2.380,-0.770
1743902981.556477,0.065,0.017,1.036,0.210,-2.520,-0.700
1743902981.576477,0.066,0.014,1.031,0.350,-2.380,-0.630
1743902981.596477,0.064,0.013,1.032,0.630,-2.450,-0.700
1743902981.616477,0.063,0.014,1.036,0.420,-2.450,-0.700
1743902981.5922742,0.064,0.017,1.036,0.420,-2.450,-0.770
1743902981.6122742,0.065,0.013,1.030,0.560,-2.380,-0.700
1743902981.6322742,0.064,0.018,1.034,0.350,-2.310,-0.770
1743902981.6522741,0.063,0.014,1.035,0.210,-2.310,-0.630
1743902981.672274,0.064,0.014,1.035,0.560,-2.380,-0.700
1743902981.692274,0.063,0.016,1.033,0.350,-2.660,-0.700
1743902981.594028,0.064,0.016,1.032,0.350,-2.450,-0.700
1743902981.614028,0.064,0.016,1.032,0.420,-2.380,-0.700
1743902981.634028,0.062,0.017,1.035,0.560,-2.590,-0.770
1743902981.654028,0.063,0.018,1.033,0.210,-2.520,-0.700
1743902981.674028,0.063,0.017,1.035,0.350,-2.520,-0.700
1743902981.694028,0.061,0.017,1.035,0.350,-2.450,-0.770
1743902981.6210392,0.062,0.018,1.035,0.700,-2.590,-0.700
1743902981.6410391,0.062,0.020,1.033,0.000,-2.520,-0.630
1743902981.661039,0.066,0.021,1.033,-0.210,-2.590,-0.700
1743902981.681039,0.066,0.013,1.034,0.490,-2.380,-0.700
1743902981.701039,0.065,0.020,1.038,0.560,-2.310,-0.770
1743902981.721039,0.063,0.016,1.033,-0.210,-2.450,-0.700
1743902981.665617,0.064,0.013,1.032,0.980,-2.450,-0.840
1743902981.685617,0.065,0.017,1.036,0.140,-2.380,-0.630
1743902981.705617,0.065,0.018,1.036,-0.210,-2.450,-0.770
1743902981.725617,0.064,0.012,1.032,0.490,-2.380,-0.630
1743902981.745617,0.063,0.019,1.033,0.490,-2.310,-0.700
1743902981.765617,0.063,0.017,1.037,-0.070,-2.450,-0.700
1743902981.711175,0.065,0.014,1.034,0.770,-2.240,-0.700
1743902981.731175,0.065,0.016,1.034,0.700,-2.380,-0.630
1743902981.751175,0.066,0.017,1.034,-0.070,-2.450,-0.630
1743902981.771175,0.065,0.013,1.034,0.350,-2.310,-0.700
1743902981.791175,0.064,0.014,1.034,0.420,-2.310,-0.700
1743902981.8111749,0.065,0.016,1.033,0.140,-2.450,-0.770
1743902981.756072,0.063,0.014,1.032,0.210,-2.380,-0.770
1743902981.776072,0.064,0.017,1.035,0.630,-2.520,-0.840
1743902981.796072,0.064,0.017,1.035,0.210,-2.380,-0.630
1743902981.816072,0.065,0.018,1.032,0.070,-2.380,-0.630
1743902981.836072,0.064,0.016,1.033,0.630,-2.520,-0.770
1743902981.856072,0.065,0.018,1.031,0.560,-2.520,-0.700
1743902981.800914,0.065,0.017,1.037,0.140,-2.450,-0.630
1743902981.820914,0.065,0.015,1.033,0.280,-2.450,-0.770
1743902981.840914,0.066,0.015,1.032,0.630,-2.310,-0.770
1743902981.860914,0.061,0.016,1.034,0.350,-2.660,-0.770
1743902981.880914,0.064,0.017,1.036,0.420,-2.450,-0.700
1743902981.900914,0.063,0.015,1.033,0.630,-2.380,-0.840
1743902981.830534,0.063,0.016,1.029,0.630,-2.450,-0.840
1743902981.850534,0.061,0.016,1.033,0.280,-2.380,-0.630
1743902981.870534,0.063,0.016,1.036,0.350,-2.590,-0.630
1743902981.890534,0.062,0.017,1.036,0.350,-2.450,-0.770
1743902981.910534,0.063,0.015,1.032,0.420,-2.380,-0.630
1743902981.930534,0.065,0.017,1.033,0.280,-2.520,-0.700
1743902981.8906813,0.066,0.015,1.037,0.560,-2.520,-0.770
1743902981.9106812,0.065,0.016,1.036,0.280,-2.520,-0.700
1743902981.9306812,0.064,0.015,1.032,0.350,-2.450,-0.700
1743902981.9506812,0.063,0.015,1.034,0.350,-2.450,-0.630
1743902981.9706812,0.065,0.017,1.036,0.350,-2.590,-0.700
1743902981.9906812,0.064,0.017,1.033,0.210,-2.450,-0.770
1743902981.9206882,0.065,0.015,1.033,0.420,-2.520,-0.700
1743902981.9406881,0.064,0.016,1.035,0.420,-2.520,-0.700
1743902981.960688,0.065,0.015,1.037,0.420,-2.520,-0.630
1743902981.980688,0.064,0.017,1.033,0.490,-2.310,-0.700
1743902982.000688,0.065,0.015,1.033,0.630,-2.450,-0.770
1743902982.020688,0.064,0.016,1.033,0.560,-2.520,-0.770
1743902981.980477,0.065,0.017,1.035,0.420,-2.450,-0.700
1743902982.000477,0.064,0.017,1.032,0.350,-2.380,-0.700
1743902982.020477,0.064,0.018,1.031,0.490,-2.450,-0.700
1743902982.040477,0.063,0.018,1.032,0.420,-2.380,-0.700
1743902982.060477,0.065,0.017,1.034,0.350,-2.520,-0.770
1743902982.080477,0.061,0.017,1.035,0.210,-2.450,-0.630
1743902982.010964,0.063,0.016,1.035,0.350,-2.450,-0.700
1743902982.030964,0.063,0.016,1.035,0.280,-2.450,-0.700
1743902982.0509639,0.064,0.016,1.036,0.350,-2.450,-0.700
1743902982.0709639,0.064,0.015,1.035,0.350,-2.590,-0.770
1743902982.0909638,0.064,0.015,1.032,0.280,-2.380,-0.700
1743902982.1109638,0.064,0.015,1.035,0.280,-2.450,-0.700
1743902982.0559351,0.066,0.016,1.034,0.490,-2.380,-0.700
1743902982.0759351,0.064,0.017,1.033,0.420,-2.380,-0.700
1743902982.095935,0.062,0.016,1.033,0.350,-2.380,-0.700
1743902982.115935,0.062,0.018,1.035,0.420,-2.240,-0.700
1743902982.135935,0.063,0.017,1.035,0.420,-2.450,-0.770
1743902982.155935,0.062,0.019,1.033,0.350,-2.450,-0.700
1743902982.100647,0.063,0.016,1.031,0.210,-2.450,-0.700
1743902982.120647,0.062,0.016,1.034,0.280,-2.520,-0.700
1743902982.140647,0.065,0.016,1.034,0.420,-2.520,-0.770
1743902982.160647,0.065,0.016,1.033,0.210,-2.380,-0.700
1743902982.180647,0.063,0.014,1.030,0.140,-2.520,-0.840
1743902982.2006469,0.064,0.015,1.033,0.000,-2.450,-0.770
1743902982.1487331,0.064,0.013,1.036,0.000,-2.380,-0.700
1743902982.1687331,0.065,0.014,1.034,0.140,-2.310,-0.700
1743902982.188733,0.062,0.015,1.034,0.420,-2.380,-0.840
1743902982.208733,0.065,0.017,1.036,0.140,-2.380,-0.770
1743902982.228733,0.063,0.018,1.035,0.140,-2.450,-0.700
1743902982.248733,0.062,0.019,1.037,0.140,-2.310,-0.700
1743902982.190798,0.065,0.016,1.034,0.070,-2.100,-0.630
1743902982.210798,0.065,0.014,1.037,0.000,-2.240,-0.700
1743902982.230798,0.062,0.014,1.035,0.350,-2.450,-0.770
1743902982.250798,0.063,0.015,1.035,0.350,-2.170,-0.700
1743902982.270798,0.064,0.017,1.031,0.140,-2.380,-0.700
1743902982.290798,0.065,0.014,1.031,0.140,-2.380,-0.700
1743902982.2937942,0.063,0.014,1.034,0.560,-2.380,-0.770
1743902982.3137941,0.063,0.014,1.033,0.770,-2.450,-0.630
1743902982.333794,0.067,0.017,1.032,0.630,-2.590,-0.770
1743902982.353794,0.064,0.015,1.030,0.770,-2.660,-0.770
1743902982.373794,0.065,0.012,1.034,0.910,-2.450,-0.770
1743902982.393794,0.064,0.017,1.034,0.840,-2.590,-0.840
1743902982.298953,0.063,0.015,1.032,0.980,-2.730,-0.770
1743902982.318953,0.061,0.016,1.033,0.980,-2.590,-0.770
1743902982.338953,0.063,0.017,1.037,0.630,-2.660,-0.770
1743902982.358953,0.065,0.017,1.032,0.420,-2.520,-0.770
1743902982.378953,0.062,0.018,1.032,0.070,-2.450,-0.770
1743902982.398953,0.066,0.020,1.038,-0.070,-2.310,-0.700
1743902982.3265142,0.063,0.017,1.038,0.140,-2.450,-0.770
1743902982.3465142,0.062,0.017,1.032,0.280,-2.380,-0.700
1743902982.3665142,0.063,0.019,1.035,0.280,-2.310,-0.700
1743902982.3865142,0.063,0.016,1.037,0.560,-2.380,-0.630
1743902982.4065142,0.066,0.015,1.036,0.280,-2.310,-0.560
1743902982.4265141,0.064,0.018,1.028,0.210,-2.380,-0.770
1743902982.3708892,0.067,0.015,1.034,0.350,-2.380,-0.630
1743902982.3908892,0.064,0.017,1.036,0.350,-2.380,-0.630
1743902982.4108891,0.065,0.016,1.031,0.350,-2.520,-0.700
1743902982.4308891,0.064,0.015,1.028,0.140,-2.310,-0.700
1743902982.450889,0.062,0.014,1.034,0.210,-2.450,-0.770
1743902982.470889,0.063,0.015,1.035,0.350,-2.310,-0.770
1743902982.4014492,0.062,0.015,1.034,0.350,-2.450,-0.770
1743902982.4214492,0.061,0.015,1.033,0.420,-2.450,-0.770
1743902982.4414492,0.060,0.016,1.033,0.490,-2.380,-0.840
1743902982.4614491,0.063,0.015,1.034,0.700,-2.240,-0.700
1743902982.4814491,0.062,0.016,1.039,0.350,-2.520,-0.700
1743902982.501449,0.063,0.015,1.033,0.070,-2.380,-0.700
1743902982.4610531,0.061,0.012,1.036,0.770,-2.450,-0.770
1743902982.481053,0.066,0.015,1.037,0.770,-2.380,-0.770
1743902982.501053,0.067,0.020,1.037,0.560,-2.730,-0.700
1743902982.521053,0.070,0.016,1.029,-0.560,-2.100,-0.700
1743902982.541053,0.067,0.011,1.036,0.560,-2.450,-0.770
1743902982.561053,0.065,0.011,1.041,0.560,-2.170,-0.770
1743902982.506082,0.064,0.020,1.036,0.350,-2.590,-0.630
1743902982.526082,0.062,0.016,1.033,0.000,-2.450,-0.700
1743902982.546082,0.065,0.017,1.036,0.980,-2.380,-0.700
1743902982.566082,0.064,0.021,1.037,0.560,-2.520,-0.700
1743902982.586082,0.065,0.022,1.036,-0.210,-2.380,-0.770
1743902982.606082,0.064,0.014,1.031,0.210,-2.520,-0.770
1743902982.580964,0.064,0.018,1.034,0.560,-2.310,-0.770
1743902982.600964,0.064,0.019,1.036,-0.070,-2.450,-0.700
1743902982.620964,0.063,0.014,1.033,0.490,-2.450,-0.840
1743902982.640964,0.061,0.016,1.032,0.630,-2.380,-0.770
1743902982.660964,0.061,0.016,1.034,0.140,-2.450,-0.700
1743902982.680964,0.062,0.015,1.034,0.210,-2.450,-0.700
1743902982.583529,0.062,0.016,1.033,0.560,-2.450,-0.840
1743902982.603529,0.065,0.020,1.033,0.070,-2.310,-0.770
1743902982.623529,0.065,0.014,1.035,0.490,-2.590,-0.770
1743902982.643529,0.065,0.016,1.034,0.630,-2.310,-0.840
1743902982.663529,0.064,0.017,1.032,0.350,-2.310,-0.700
1743902982.683529,0.064,0.018,1.033,0.070,-2.520,-0.840
1743902982.6262093,0.066,0.016,1.033,0.420,-2.450,-0.840
1743902982.6462092,0.064,0.015,1.032,0.490,-2.520,-0.770
1743902982.6662092,0.063,0.017,1.037,0.210,-2.380,-0.700
1743902982.6862092,0.063,0.017,1.033,0.140,-2.450,-0.770
1743902982.7062092,0.066,0.014,1.034,0.560,-2.380,-0.910
1743902982.7262092,0.065,0.018,1.037,0.280,-2.590,-0.700
1743902982.6709023,0.066,0.016,1.037,0.280,-2.450,-0.700
1743902982.6909022,0.064,0.016,1.035,0.420,-2.380,-0.700
1743902982.7109022,0.063,0.016,1.033,0.630,-2.310,-0.770
1743902982.7309022,0.065,0.016,1.036,0.140,-2.380,-0.770
1743902982.7509022,0.063,0.013,1.034,0.350,-2.520,-0.770
1743902982.7709022,0.062,0.016,1.035,0.420,-2.310,-0.700
1743902982.715851,0.063,0.015,1.033,0.420,-2.240,-0.700
1743902982.735851,0.061,0.015,1.033,0.280,-2.380,-0.700
1743902982.755851,0.064,0.015,1.036,0.840,-2.450,-0.840
1743902982.775851,0.066,0.014,1.035,0.350,-2.380,-0.700
1743902982.795851,0.065,0.016,1.033,0.280,-2.450,-0.700
1743902982.815851,0.063,0.016,1.035,0.420,-2.310,-0.840
1743902982.7614322,0.062,0.017,1.036,0.490,-2.380,-0.700
1743902982.7814322,0.061,0.018,1.032,0.280,-2.310,-0.770
1743902982.8014321,0.066,0.018,1.032,0.420,-2.380,-0.700
1743902982.821432,0.063,0.017,1.033,0.490,-2.450,-0.770
1743902982.841432,0.063,0.018,1.035,0.350,-2.520,-0.770
1743902982.861432,0.063,0.016,1.032,0.210,-2.240,-0.700
1743902982.790659,0.063,0.017,1.033,0.420,-2.380,-0.700
1743902982.810659,0.062,0.015,1.034,0.420,-2.450,-0.840
1743902982.830659,0.062,0.017,1.034,0.350,-2.520,-0.700
1743902982.850659,0.063,0.015,1.037,0.140,-2.380,-0.770
1743902982.8706589,0.065,0.016,1.031,0.280,-2.380,-0.770
1743902982.8906589,0.065,0.016,1.033,0.070,-2.520,-0.700
1743902982.882461,0.065,0.015,1.037,0.350,-2.380,-0.770
1743902982.902461,0.066,0.016,1.036,0.560,-2.520,-0.770
1743902982.922461,0.064,0.016,1.032,0.350,-2.380,-0.630
1743902982.942461,0.063,0.015,1.033,0.210,-2.450,-0.700
1743902982.962461,0.064,0.018,1.035,0.490,-2.310,-0.770
1743902982.982461,0.064,0.017,1.034,0.280,-2.520,-0.700
1743902982.884183,0.061,0.016,1.031,0.280,-2.450,-0.770
1743902982.904183,0.065,0.020,1.032,0.490,-2.450,-0.840
1743902982.924183,0.066,0.020,1.034,-0.490,-2.380,-0.700
1743902982.9441829,0.064,0.013,1.034,0.000,-2.380,-0.700
1743902982.9641829,0.064,0.012,1.033,0.560,-2.380,-0.700
1743902982.9841828,0.063,0.016,1.032,-0.140,-2.520,-0.630
1743902982.925921,0.065,0.012,1.037,-0.140,-2.310,-0.630
1743902982.945921,0.062,0.015,1.034,0.840,-2.310,-0.770
1743902982.965921,0.062,0.015,1.034,0.420,-2.380,-0.630
1743902982.985921,0.062,0.015,1.038,0.280,-2.310,-0.770
1743902983.005921,0.064,0.017,1.036,0.630,-2.380,-0.700
1743902983.0259209,0.064,0.017,1.031,0.210,-2.310,-0.700
1743902982.971934,0.064,0.016,1.032,0.280,-2.450,-0.630
1743902982.991934,0.064,0.015,1.037,0.280,-2.380,-0.770
1743902983.011934,0.063,0.020,1.034,0.140,-2.520,-0.770
1743902983.031934,0.064,0.017,1.033,0.070,-2.380,-0.770
1743902983.051934,0.062,0.015,1.033,0.490,-2.520,-0.770
1743902983.071934,0.063,0.017,1.034,0.280,-2.450,-0.770
1743902983.0156212,0.064,0.016,1.036,0.140,-2.380,-0.770
1743902983.0356212,0.064,0.016,1.035,0.350,-2.450,-0.840
1743902983.0556211,0.066,0.017,1.033,0.560,-2.450,-0.770
1743902983.0756211,0.063,0.017,1.035,0.350,-2.450,-0.770
1743902983.095621,0.066,0.015,1.036,0.350,-2.310,-0.700
1743902983.115621,0.061,0.018,1.034,0.350,-2.520,-0.700
1743902983.060669,0.063,0.017,1.031,0.420,-2.310,-0.770
1743902983.080669,0.064,0.016,1.032,0.210,-2.380,-0.700
1743902983.100669,0.062,0.015,1.037,0.280,-2.380,-0.630
1743902983.120669,0.063,0.014,1.035,0.350,-2.310,-0.700
1743902983.1406689,0.061,0.014,1.033,0.420,-2.520,-0.770
1743902983.1606688,0.064,0.016,1.030,0.420,-2.450,-0.770
1743902983.091136,0.067,0.015,1.037,0.420,-2.380,-0.630
1743902983.111136,0.067,0.018,1.034,0.560,-2.450,-0.840
1743902983.131136,0.064,0.016,1.031,0.560,-2.450,-0.700
1743902983.151136,0.063,0.018,1.034,0.420,-2.520,-0.700
1743902983.171136,0.063,0.020,1.037,0.490,-2.310,-0.770
1743902983.191136,0.064,0.018,1.033,0.280,-2.380,-0.700
1743902983.184041,0.063,0.016,1.031,0.350,-2.450,-0.770
1743902983.204041,0.066,0.018,1.036,0.280,-2.310,-0.700
1743902983.224041,0.063,0.020,1.035,0.210,-2.450,-0.700
1743902983.244041,0.061,0.014,1.033,0.070,-2.520,-0.770
1743902983.264041,0.064,0.014,1.032,0.630,-2.310,-0.770
1743902983.284041,0.063,0.016,1.036,0.560,-2.450,-0.700
1743902983.1842933,0.064,0.016,1.036,0.140,-2.450,-0.770
1743902983.2042933,0.062,0.016,1.034,0.630,-2.660,-0.700
1743902983.2242932,0.063,0.016,1.032,0.630,-2.450,-0.700
1743902983.2442932,0.065,0.018,1.035,0.420,-2.450,-0.700
1743902983.2642932,0.065,0.015,1.037,0.280,-2.590,-0.840
1743902983.2842932,0.065,0.014,1.032,0.560,-2.450,-0.840
1743902983.2408962,0.064,0.016,1.033,0.560,-2.310,-0.700
1743902983.2608962,0.065,0.013,1.035,0.490,-2.520,-0.840
1743902983.2808962,0.064,0.014,1.035,0.770,-2.380,-0.770
1743902983.3008962,0.065,0.018,1.033,0.700,-2.450,-0.770
1743902983.3208961,0.063,0.017,1.031,0.210,-2.520,-0.840
1743902983.3408961,0.061,0.014,1.032,0.630,-2.450,-0.770
1743902983.285597,0.062,0.016,1.035,0.980,-2.310,-0.770
1743902983.305597,0.063,0.018,1.034,0.280,-2.380,-0.770
1743902983.325597,0.064,0.016,1.031,0.140,-2.520,-0.700
1743902983.345597,0.061,0.016,1.033,0.560,-2.450,-0.770
1743902983.365597,0.061,0.018,1.037,0.350,-2.590,-0.700
1743902983.385597,0.063,0.018,1.034,0.140,-2.520,-0.700
1743902983.316021,0.066,0.014,1.031,0.420,-2.450,-0.700
1743902983.336021,0.066,0.017,1.037,0.140,-2.310,-0.700
1743902983.356021,0.068,0.015,1.038,0.140,-2.380,-0.700
1743902983.376021,0.065,0.016,1.037,0.210,-2.380,-0.700
1743902983.396021,0.066,0.014,1.029,0.560,-2.240,-0.700
1743902983.4160209,0.064,0.016,1.032,0.420,-2.240,-0.770
1743902983.3606582,0.064,0.015,1.035,0.210,-2.310,-0.770
1743902983.3806581,0.066,0.014,1.036,0.070,-2.310,-0.770
1743902983.4006581,0.068,0.014,1.033,0.140,-2.450,-0.700
1743902983.420658,0.063,0.015,1.029,0.000,-2.380,-0.700
1743902983.440658,0.063,0.014,1.037,0.210,-2.380,-0.770
1743902983.460658,0.061,0.014,1.036,0.420,-2.450,-0.840
1743902983.4063172,0.060,0.018,1.032,0.280,-2.520,-0.770
1743902983.4263172,0.061,0.020,1.026,-0.140,-2.450,-0.700
1743902983.4463172,0.059,0.014,1.033,0.420,-2.520,-0.700
1743902983.4663172,0.057,0.019,1.040,0.840,-2.450,-0.840
1743902983.4863172,0.059,0.021,1.032,-0.420,-2.520,-0.630
1743902983.5063171,0.066,0.012,1.028,-0.140,-2.450,-0.840
1743902983.480807,0.061,0.013,1.037,1.190,-2.520,-0.700
1743902983.500807,0.062,0.019,1.037,0.070,-2.240,-0.700
1743902983.520807,0.061,0.017,1.033,0.070,-2.590,-0.700
1743902983.540807,0.066,0.016,1.030,0.490,-2.310,-0.700
1743902983.560807,0.062,0.016,1.033,0.560,-2.450,-0.770
1743902983.580807,0.065,0.018,1.037,0.210,-2.310,-0.630
1743902983.4960933,0.062,0.017,1.032,0.140,-2.380,-0.700
1743902983.5160933,0.063,0.017,1.032,0.350,-2.380,-0.840
1743902983.5360932,0.064,0.015,1.035,0.210,-2.450,-0.700
1743902983.5560932,0.065,0.014,1.037,0.280,-2.450,-0.700
1743902983.5760932,0.063,0.014,1.028,0.630,-2.310,-0.770
1743902983.5960932,0.065,0.014,1.035,0.700,-2.520,-0.700
1743902983.556705,0.065,0.016,1.036,0.420,-2.310,-0.770
1743902983.576705,0.064,0.015,1.035,0.560,-2.590,-0.770
1743902983.596705,0.064,0.016,1.032,0.700,-2.380,-0.770
1743902983.616705,0.063,0.015,1.032,0.560,-2.450,-0.840
1743902983.636705,0.064,0.017,1.037,0.420,-2.380,-0.770
1743902983.656705,0.062,0.015,1.033,0.350,-2.450,-0.630
1743902983.586698,0.063,0.015,1.031,0.490,-2.380,-0.770
1743902983.606698,0.064,0.016,1.036,0.420,-2.450,-0.700
1743902983.626698,0.063,0.016,1.036,0.350,-2.450,-0.700
1743902983.646698,0.063,0.017,1.035,0.350,-2.450,-0.700
1743902983.666698,0.063,0.015,1.031,0.140,-2.240,-0.630
1743902983.686698,0.063,0.015,1.035,0.280,-2.520,-0.700
1743902983.6310573,0.065,0.015,1.036,0.350,-2.240,-0.840
1743902983.6510572,0.064,0.018,1.032,0.350,-2.450,-0.700
1743902983.6710572,0.065,0.018,1.034,0.140,-2.310,-0.700
1743902983.6910572,0.066,0.018,1.036,0.280,-2.520,-0.700
1743902983.7110572,0.067,0.017,1.033,0.210,-2.380,-0.700
1743902983.7310572,0.064,0.016,1.033,0.140,-2.450,-0.700
1743902983.6608431,0.063,0.016,1.030,0.350,-2.450,-0.700
1743902983.680843,0.066,0.016,1.035,0.420,-2.450,-0.700
1743902983.700843,0.063,0.016,1.035,0.350,-2.450,-0.770
1743902983.720843,0.062,0.016,1.034,0.350,-2.380,-0.770
1743902983.740843,0.065,0.016,1.033,0.420,-2.450,-0.840
1743902983.760843,0.061,0.018,1.035,0.560,-2.380,-0.770
1743902983.7076283,0.063,0.016,1.036,0.420,-2.450,-0.700
1743902983.7276282,0.064,0.014,1.034,0.490,-2.310,-0.770
1743902983.7476282,0.061,0.017,1.032,0.420,-2.450,-0.770
1743902983.7676282,0.061,0.017,1.036,0.280,-2.450,-0.700
1743902983.7876282,0.062,0.017,1.036,0.280,-2.380,-0.770
1743902983.8076282,0.062,0.015,1.033,0.350,-2.520,-0.700
1743902983.781147,0.062,0.016,1.031,0.420,-2.520,-0.770
1743902983.801147,0.063,0.018,1.034,0.280,-2.310,-0.700
1743902983.821147,0.065,0.018,1.036,0.420,-2.450,-0.700
1743902983.841147,0.067,0.017,1.027,-0.420,-2.450,-0.630
1743902983.861147,0.066,0.011,1.031,0.490,-2.450,-0.770
1743902983.881147,0.063,0.012,1.039,0.700,-2.310,-0.770
1743902983.810996,0.065,0.023,1.037,-0.350,-2.450,-0.700
1743902983.830996,0.067,0.015,1.030,-0.210,-2.450,-0.700
1743902983.850996,0.064,0.016,1.036,1.120,-2.450,-0.700
1743902983.870996,0.063,0.017,1.037,0.280,-2.380,-0.700
1743902983.890996,0.064,0.017,1.033,0.280,-2.310,-0.770
1743902983.910996,0.065,0.016,1.030,0.700,-2.310,-0.770
1743902983.8562841,0.065,0.020,1.033,0.350,-2.310,-0.840
1743902983.8762841,0.064,0.018,1.034,-0.070,-2.380,-0.700
1743902983.896284,0.062,0.014,1.035,0.140,-2.310,-0.770
1743902983.916284,0.064,0.014,1.029,0.490,-2.520,-0.700
1743902983.936284,0.063,0.015,1.031,0.140,-2.520,-0.700
1743902983.956284,0.065,0.013,1.034,0.210,-2.380,-0.630
1743902983.889247,0.064,0.014,1.035,0.560,-2.520,-0.770
1743902983.909247,0.063,0.016,1.034,0.280,-2.590,-0.770
1743902983.929247,0.063,0.013,1.033,0.490,-2.520,-0.700
1743902983.949247,0.065,0.015,1.035,0.630,-2.450,-0.700
1743902983.9692469,0.065,0.015,1.036,0.560,-2.450,-0.630
1743902983.9892468,0.063,0.018,1.033,0.350,-2.520,-0.700
1743902983.930944,0.062,0.016,1.032,0.630,-2.450,-0.700
1743902983.950944,0.064,0.016,1.033,0.420,-2.380,-0.770
1743902983.970944,0.063,0.017,1.036,0.210,-2.520,-0.700
1743902983.990944,0.065,0.013,1.030,0.280,-2.380,-0.770
1743902984.010944,0.063,0.016,1.032,0.420,-2.450,-0.700
1743902984.0309439,0.063,0.015,1.037,0.280,-2.520,-0.700
1743902983.97563,0.062,0.015,1.035,0.140,-2.730,-0.770
1743902983.99563,0.063,0.015,1.034,0.280,-2.450,-0.770
1743902984.01563,0.064,0.014,1.033,0.490,-2.380,-0.700
1743902984.03563,0.063,0.018,1.036,0.490,-2.520,-0.630
1743902984.05563,0.064,0.017,1.035,0.560,-2.450,-0.770
1743902984.07563,0.064,0.016,1.032,0.560,-2.450,-0.770
1743902984.022639,0.062,0.019,1.032,0.350,-2.450,-0.700
1743902984.042639,0.062,0.017,1.032,0.280,-2.520,-0.700
1743902984.062639,0.064,0.017,1.035,0.490,-2.450,-0.700
1743902984.082639,0.064,0.019,1.034,0.420,-2.450,-0.700
1743902984.102639,0.061,0.017,1.033,0.210,-2.520,-0.700
1743902984.122639,0.063,0.018,1.034,0.280,-2.450,-0.770
1743902984.08067,0.064,0.018,1.037,0.420,-2.380,-0.770
1743902984.10067,0.066,0.015,1.035,0.280,-2.310,-0.700
1743902984.12067,0.066,0.016,1.033,0.420,-2.380,-0.770
1743902984.14067,0.062,0.015,1.030,0.420,-2.450,-0.770
1743902984.16067,0.064,0.017,1.035,0.210,-2.380,-0.770
1743902984.18067,0.063,0.017,1.035,0.210,-2.450,-0.700
1743902984.0957131,0.063,0.015,1.034,0.420,-2.450,-0.700
1743902984.1157131,0.066,0.016,1.031,0.560,-2.380,-0.700
1743902984.135713,0.065,0.015,1.033,0.560,-2.380,-0.770
1743902984.155713,0.066,0.018,1.035,0.140,-2.310,-0.630
1743902984.175713,0.065,0.016,1.034,0.350,-2.380,-0.700
1743902984.195713,0.063,0.017,1.033,0.420,-2.380,-0.770
1743902984.1556902,0.063,0.017,1.035,0.140,-2.450,-0.630
1743902984.1756902,0.064,0.015,1.035,0.210,-2.380,-0.700
1743902984.1956902,0.062,0.014,1.033,0.420,-2.380,-0.700
1743902984.2156901,0.064,0.018,1.032,0.000,-2.380,-0.770
1743902984.23569,0.062,0.016,1.035,0.000,-2.450,-0.840
1743902984.25569,0.062,0.013,1.035,0.420,-2.380,-0.770
1743902984.1857872,0.063,0.017,1.035,0.140,-2.450,-0.770
1743902984.2057872,0.063,0.017,1.033,0.070,-2.520,-0.770
1743902984.2257872,0.064,0.014,1.031,0.280,-2.380,-0.770
1743902984.2457871,0.065,0.016,1.037,0.350,-2.380,-0.770
1743902984.2657871,0.063,0.015,1.033,0.280,-2.450,-0.770
1743902984.285787,0.062,0.015,1.033,0.700,-2.520,-0.770
1743902984.2314231,0.065,0.016,1.036,0.700,-2.450,-0.700
1743902984.2514231,0.064,0.018,1.036,0.280,-2.520,-0.700
1743902984.271423,0.065,0.018,1.036,0.210,-2.450,-0.770
1743902984.291423,0.065,0.013,1.030,0.560,-2.380,-0.840
1743902984.311423,0.062,0.015,1.032,0.560,-2.380,-0.700
1743902984.331423,0.063,0.015,1.036,0.420,-2.450,-0.630
1743902984.2606902,0.063,0.015,1.035,0.210,-2.380,-0.840
1743902984.2806902,0.062,0.015,1.031,0.420,-2.380,-0.700
1743902984.3006902,0.064,0.015,1.034,0.350,-2.380,-0.630
1743902984.3206902,0.064,0.016,1.035,0.350,-2.520,-0.700
1743902984.3406901,0.064,0.017,1.037,0.420,-2.380,-0.770
1743902984.36069,0.064,0.018,1.033,0.420,-2.380,-0.700
1743902984.306097,0.064,0.015,1.031,0.350,-2.520,-0.630
1743902984.326097,0.063,0.017,1.034,0.350,-2.450,-0.700
1743902984.346097,0.063,0.015,1.036,0.420,-2.380,-0.770
1743902984.366097,0.063,0.016,1.033,0.350,-2.240,-0.700
1743902984.386097,0.065,0.017,1.031,0.280,-2.380,-0.700
1743902984.406097,0.065,0.016,1.035,0.490,-2.450,-0.700
1743902984.380827,0.064,0.016,1.034,0.350,-2.310,-0.700
1743902984.400827,0.064,0.016,1.032,0.280,-2.450,-0.700
1743902984.420827,0.064,0.016,1.029,0.350,-2.450,-0.770
1743902984.440827,0.064,0.015,1.037,0.280,-2.450,-0.700
1743902984.4608269,0.064,0.016,1.032,0.350,-2.520,-0.700
1743902984.4808269,0.064,0.016,1.030,0.560,-2.380,-0.770
1743902984.395875,0.061,0.018,1.032,0.490,-2.380,-0.770
1743902984.415875,0.061,0.016,1.038,0.420,-2.520,-0.770
1743902984.435875,0.062,0.016,1.036,0.420,-2.450,-0.770
1743902984.455875,0.064,0.016,1.034,0.560,-2.590,-0.630
1743902984.475875,0.065,0.018,1.031,0.490,-2.380,-0.700
1743902984.495875,0.064,0.017,1.033,0.420,-2.450,-0.700
1743902984.442768,0.066,0.016,1.035,0.420,-2.380,-0.630
1743902984.462768,0.063,0.018,1.032,0.350,-2.590,-0.700
1743902984.482768,0.063,0.016,1.033,0.350,-2.450,-0.770
1743902984.502768,0.063,0.017,1.033,0.350,-2.450,-0.770
1743902984.522768,0.064,0.019,1.037,0.490,-2.520,-0.700
1743902984.542768,0.063,0.016,1.034,0.280,-2.380,-0.770
1743902984.485954,0.064,0.017,1.034,0.210,-2.450,-0.770
1743902984.505954,0.064,0.016,1.035,0.490,-2.240,-0.700
1743902984.525954,0.061,0.016,1.035,0.350,-2.520,-0.770
1743902984.545954,0.063,0.015,1.033,0.280,-2.450,-0.700
1743902984.565954,0.065,0.015,1.033,0.560,-2.450,-0.700
1743902984.585954,0.062,0.019,1.037,0.420,-2.380,-0.770
1743902984.530759,0.062,0.015,1.037,0.280,-2.450,-0.770
1743902984.550759,0.063,0.018,1.036,0.350,-2.450,-0.770
1743902984.570759,0.062,0.014,1.031,0.490,-2.450,-0.840
1743902984.590759,0.065,0.017,1.033,0.280,-2.450,-0.770
1743902984.610759,0.068,0.015,1.036,0.420,-2.310,-0.700
1743902984.630759,0.064,0.016,1.034,0.420,-2.450,-0.840
1743902984.575993,0.065,0.018,1.033,0.210,-2.380,-0.700
1743902984.595993,0.064,0.017,1.034,0.210,-2.450,-0.630
1743902984.615993,0.064,0.014,1.035,0.420,-2.380,-0.770
1743902984.635993,0.065,0.016,1.034,0.420,-2.450,-0.700
1743902984.655993,0.064,0.017,1.031,0.280,-2.450,-0.770
1743902984.675993,0.062,0.016,1.035,0.420,-2.310,-0.770
1743902984.621841,0.065,0.016,1.036,0.420,-2.450,-0.700
1743902984.641841,0.061,0.018,1.035,0.210,-2.380,-0.770
1743902984.661841,0.063,0.015,1.033,0.350,-2.380,-0.700
1743902984.681841,0.063,0.016,1.035,0.350,-2.450,-0.700
1743902984.7018409,0.067,0.017,1.036,0.350,-2.310,-0.700
1743902984.7218409,0.065,0.015,1.034,0.350,-2.450,-0.700
1743902984.681665,0.065,0.016,1.032,0.350,-2.380,-0.700
1743902984.701665,0.064,0.015,1.034,0.280,-2.380,-0.700
1743902984.721665,0.062,0.014,1.036,0.350,-2.380,-0.770
1743902984.741665,0.063,0.014,1.034,0.490,-2.450,-0.840
1743902984.7616649,0.064,0.017,1.030,0.490,-2.450,-0.700
1743902984.7816648,0.064,0.018,1.033,0.490,-2.380,-0.630
1743902984.6967921,0.065,0.017,1.036,0.420,-2.380,-0.700
1743902984.716792,0.062,0.014,1.035,0.350,-2.450,-0.700
1743902984.736792,0.063,0.016,1.033,0.350,-2.450,-0.630
1743902984.756792,0.062,0.015,1.031,0.490,-2.450,-0.770
1743902984.776792,0.061,0.017,1.035,0.420,-2.520,-0.700
1743902984.796792,0.063,0.016,1.034,0.350,-2.380,-0.840
1743902984.7684321,0.062,0.017,1.033,0.560,-2.380,-0.770
1743902984.7884321,0.063,0.016,1.032,0.350,-2.450,-0.700
1743902984.808432,0.064,0.016,1.032,0.210,-2.450,-0.560
1743902984.828432,0.064,0.015,1.037,0.350,-2.450,-0.700
1743902984.848432,0.063,0.017,1.033,0.350,-2.380,-0.770
1743902984.868432,0.064,0.019,1.033,0.280,-2.380,-0.700
1743902984.785461,0.061,0.016,1.034,0.490,-2.520,-0.770
1743902984.805461,0.063,0.016,1.035,0.420,-2.450,-0.700
1743902984.825461,0.062,0.015,1.034,0.350,-2.310,-0.700
1743902984.845461,0.063,0.016,1.034,0.420,-2.520,-0.770
1743902984.8654609,0.062,0.017,1.036,0.350,-2.520,-0.770
1743902984.8854609,0.063,0.015,1.035,0.350,-2.450,-0.700
1743902984.830881,0.062,0.016,1.033,0.490,-2.450,-0.700
1743902984.850881,0.061,0.017,1.032,0.350,-2.380,-0.630
1743902984.870881,0.066,0.019,1.037,0.350,-2.310,-0.700
1743902984.890881,0.063,0.015,1.034,0.280,-2.310,-0.700
1743902984.910881,0.062,0.017,1.035,0.210,-2.380,-0.700
1743902984.930881,0.062,0.017,1.034,0.350,-2.380,-0.770
1743902984.8609161,0.063,0.015,1.034,0.420,-2.520,-0.700
1743902984.880916,0.064,0.015,1.033,0.350,-2.380,-0.770
1743902984.900916,0.064,0.017,1.035,0.350,-2.450,-0.700
1743902984.920916,0.064,0.013,1.030,0.280,-2.310,-0.770
1743902984.940916,0.064,0.017,1.037,0.420,-2.310,-0.770
1743902984.960916,0.064,0.017,1.036,0.350,-2.380,-0.770
1743902984.9057302,0.065,0.018,1.033,0.420,-2.310,-0.770
1743902984.9257302,0.061,0.015,1.035,0.420,-2.310,-0.700
1743902984.9457302,0.063,0.016,1.032,0.350,-2.380,-0.700
1743902984.9657302,0.064,0.016,1.035,0.280,-2.380,-0.770
1743902984.9857302,0.063,0.016,1.033,0.420,-2.380,-0.770
1743902985.0057302,0.063,0.015,1.033,0.420,-2.450,-0.700
1743902984.9843612,0.064,0.016,1.031,0.350,-2.520,-0.770
1743902985.0043612,0.065,0.016,1.034,0.350,-2.450,-0.770
1743902985.0243611,0.064,0.016,1.035,0.280,-2.450,-0.700
1743902985.044361,0.064,0.015,1.034,0.350,-2.450,-0.700
1743902985.064361,0.064,0.016,1.032,0.280,-2.450,-0.770
1743902985.084361,0.066,0.017,1.033,0.350,-2.450,-0.840
1743902984.9849272,0.065,0.016,1.035,0.350,-2.450,-0.770
1743902985.0049272,0.065,0.015,1.036,0.420,-2.520,-0.700
1743902985.0249271,0.062,0.014,1.031,0.420,-2.450,-0.700
1743902985.0449271,0.063,0.016,1.035,0.420,-2.450,-0.630
1743902985.064927,0.061,0.016,1.034,0.420,-2.520,-0.770
1743902985.084927,0.063,0.017,1.037,0.420,-2.520,-0.700
1743902985.027666,0.063,0.015,1.034,0.350,-2.520,-0.700
1743902985.047666,0.065,0.017,1.032,0.420,-2.450,-0.700
1743902985.067666,0.063,0.019,1.037,0.420,-2.520,-0.700
1743902985.087666,0.063,0.016,1.037,0.420,-2.450,-0.700
1743902985.107666,0.064,0.017,1.035,0.280,-2.380,-0.770
1743902985.127666,0.063,0.014,1.033,0.350,-2.450,-0.700
1743902985.0708442,0.064,0.016,1.037,0.420,-2.590,-0.700
1743902985.0908442,0.064,0.015,1.034,0.350,-2.450,-0.700
1743902985.1108441,0.063,0.016,1.033,0.280,-2.450,-0.700
1743902985.130844,0.063,0.018,1.033,0.350,-2.450,-0.700
1743902985.150844,0.065,0.016,1.033,0.350,-2.450,-0.630
1743902985.170844,0.065,0.017,1.034,0.280,-2.380,-0.770
1743902985.131719,0.063,0.014,1.034,0.490,-2.450,-0.700
1743902985.151719,0.062,0.016,1.032,0.490,-2.380,-0.700
1743902985.171719,0.063,0.017,1.033,0.420,-2.380,-0.770
1743902985.191719,0.064,0.015,1.033,0.350,-2.450,-0.630
1743902985.211719,0.064,0.016,1.033,0.420,-2.380,-0.770
1743902985.231719,0.062,0.015,1.032,0.280,-2.380,-0.770
1743902985.1609251,0.062,0.015,1.031,0.350,-2.450,-0.700
1743902985.1809251,0.064,0.016,1.035,0.350,-2.450,-0.770
1743902985.200925,0.065,0.016,1.034,0.420,-2.380,-0.770
1743902985.220925,0.063,0.016,1.032,0.420,-2.450,-0.700
1743902985.240925,0.064,0.016,1.032,0.350,-2.450,-0.700
1743902985.260925,0.064,0.017,1.034,0.350,-2.450,-0.630
1743902985.201389,0.065,0.016,1.036,0.420,-2.450,-0.630
1743902985.221389,0.064,0.016,1.033,0.280,-2.450,-0.700
1743902985.241389,0.066,0.015,1.033,0.490,-2.380,-0.700
1743902985.261389,0.063,0.015,1.035,0.420,-2.380,-0.770
1743902985.281389,0.063,0.018,1.034,0.420,-2.520,-0.700
1743902985.301389,0.062,0.015,1.034,0.280,-2.310,-0.770
1743902985.282528,0.062,0.015,1.033,0.490,-2.450,-0.770
1743902985.302528,0.063,0.018,1.033,0.420,-2.450,-0.770
1743902985.322528,0.064,0.018,1.035,0.280,-2.450,-0.770
1743902985.3425279,0.066,0.017,1.035,0.280,-2.450,-0.770
1743902985.3625278,0.062,0.017,1.034,0.350,-2.380,-0.770
1743902985.3825278,0.064,0.016,1.033,0.280,-2.520,-0.700
1743902985.2836943,0.063,0.016,1.035,0.280,-2.450,-0.770
1743902985.3036942,0.065,0.014,1.035,0.490,-2.380,-0.770
1743902985.3236942,0.062,0.015,1.036,0.560,-2.450,-0.630
1743902985.3436942,0.065,0.017,1.034,0.350,-2.380,-0.770
1743902985.3636942,0.063,0.017,1.034,0.350,-2.450,-0.770
1743902985.3836942,0.064,0.016,1.037,0.560,-2.450,-0.770
1743902985.3108273,0.062,0.016,1.036,0.490,-2.450,-0.770
1743902985.3308272,0.063,0.016,1.031,0.350,-2.310,-0.700
1743902985.3508272,0.064,0.017,1.030,0.490,-2.450,-0.770
1743902985.3708272,0.063,0.017,1.036,0.350,-2.450,-0.700
1743902985.3908272,0.064,0.015,1.037,0.350,-2.450,-0.770
1743902985.4108272,0.062,0.016,1.033,0.350,-2.450,-0.700
1743902985.355992,0.064,0.015,1.034,0.420,-2.380,-0.770
1743902985.375992,0.065,0.017,1.037,0.350,-2.380,-0.700
1743902985.395992,0.064,0.016,1.034,0.280,-2.450,-0.770
1743902985.415992,0.067,0.014,1.031,0.420,-2.380,-0.770
1743902985.435992,0.065,0.015,1.034,0.350,-2.380,-0.700
1743902985.455992,0.064,0.016,1.035,0.210,-2.520,-0.770
1743902985.4008691,0.065,0.018,1.035,0.350,-2.380,-0.700
1743902985.420869,0.062,0.014,1.031,0.350,-2.380,-0.700
1743902985.440869,0.065,0.015,1.034,0.420,-2.590,-0.630
1743902985.460869,0.062,0.015,1.035,0.490,-2.380,-0.700
1743902985.480869,0.063,0.016,1.037,0.280,-2.380,-0.770
1743902985.500869,0.063,0.017,1.031,0.210,-2.380,-0.770
1743902985.445755,0.063,0.016,1.035,0.350,-2.450,-0.700
1743902985.465755,0.064,0.015,1.035,0.420,-2.450,-0.630
1743902985.485755,0.062,0.014,1.035,0.420,-2.450,-0.700
1743902985.505755,0.064,0.016,1.032,0.350,-2.450,-0.770
1743902985.525755,0.064,0.016,1.030,0.420,-2.450,-0.770
1743902985.545755,0.062,0.017,1.036,0.280,-2.450,-0.840
1743902985.491254,0.061,0.016,1.035,0.350,-2.520,-0.770
1743902985.511254,0.065,0.016,1.034,0.280,-2.450,-0.700
1743902985.531254,0.063,0.016,1.033,0.280,-2.450,-0.770
1743902985.551254,0.061,0.017,1.035,0.420,-2.310,-0.770
1743902985.571254,0.063,0.018,1.034,0.350,-2.450,-0.700
1743902985.591254,0.064,0.016,1.032,0.350,-2.380,-0.770
1743902985.581587,0.063,0.015,1.034,0.280,-2.520,-0.630
1743902985.601587,0.065,0.016,1.037,0.280,-2.450,-0.700
1743902985.621587,0.062,0.017,1.034,0.210,-2.310,-0.770
1743902985.641587,0.063,0.015,1.031,0.490,-2.590,-0.700
1743902985.661587,0.064,0.016,1.034,0.420,-2.590,-0.770
1743902985.681587,0.065,0.017,1.036,0.350,-2.520,-0.840
1743902985.586322,0.063,0.018,1.036,0.280,-2.380,-0.700
1743902985.606322,0.065,0.015,1.033,0.350,-2.380,-0.700
1743902985.626322,0.061,0.014,1.032,0.420,-2.450,-0.700
1743902985.646322,0.063,0.013,1.034,0.630,-2.450,-0.630
1743902985.666322,0.065,0.015,1.035,0.210,-2.450,-0.630
1743902985.686322,0.066,0.017,1.031,-0.560,-2.450,-0.700
1743902985.610886,0.066,0.011,1.033,0.280,-2.310,-0.630
1743902985.630886,0.062,0.012,1.034,1.610,-2.380,-0.840
1743902985.650886,0.061,0.017,1.038,1.610,-2.520,-0.770
1743902985.670886,0.062,0.028,1.037,0.280,-2.520,-0.700
1743902985.690886,0.062,0.022,1.033,-0.630,-2.450,-0.700
1743902985.710886,0.066,0.014,1.032,0.280,-2.310,-0.770
1743902985.656243,0.064,0.018,1.035,0.210,-2.310,-0.770
1743902985.676243,0.062,0.016,1.036,-0.210,-2.450,-0.630
1743902985.696243,0.064,0.016,1.033,0.630,-2.450,-0.770
1743902985.716243,0.064,0.016,1.033,0.560,-2.380,-0.770
1743902985.736243,0.066,0.019,1.036,0.070,-2.380,-0.700
1743902985.756243,0.063,0.014,1.034,-0.210,-2.520,-0.770
1743902985.702981,0.064,0.016,1.036,0.630,-2.310,-0.770
1743902985.722981,0.062,0.017,1.032,0.070,-2.520,-0.770
1743902985.742981,0.062,0.015,1.033,0.000,-2.450,-0.700
1743902985.762981,0.061,0.013,1.034,0.560,-2.380,-0.770
1743902985.782981,0.065,0.017,1.036,0.420,-2.380,-0.770
1743902985.802981,0.066,0.017,1.032,0.000,-2.450,-0.700
1743902985.746254,0.065,0.015,1.034,0.560,-2.450,-0.840
1743902985.766254,0.065,0.018,1.036,0.490,-2.310,-0.770
1743902985.786254,0.063,0.018,1.034,0.000,-2.450,-0.700
1743902985.806254,0.064,0.016,1.031,0.000,-2.520,-0.840
1743902985.826254,0.065,0.016,1.035,0.560,-2.520,-0.840
1743902985.8462539,0.062,0.019,1.037,-0.980,-2.240,-0.700
1743902985.790743,0.061,0.012,1.027,-0.490,-2.310,-0.770
1743902985.810743,0.062,0.015,1.039,0.980,-2.520,-0.770
1743902985.830743,0.062,0.019,1.037,0.070,-2.170,-0.700
1743902985.850743,0.061,0.017,1.037,-0.070,-2.870,-0.700
1743902985.870743,0.064,0.012,1.036,0.420,-2.030,-0.700
1743902985.890743,0.061,0.017,1.036,0.840,-2.730,-0.700
1743902985.820708,0.067,0.017,1.037,0.280,-1.960,-0.630
1743902985.840708,0.065,0.015,1.031,0.560,-2.870,-0.630
1743902985.860708,0.065,0.015,1.035,0.980,-2.100,-0.700
1743902985.880708,0.065,0.015,1.032,0.770,-2.590,-0.700
1743902985.900708,0.063,0.013,1.032,0.560,-2.940,-0.700
1743902985.920708,0.063,0.012,1.032,1.120,-2.170,-0.700
1743902985.880847,0.061,0.015,1.033,1.470,-2.870,-0.770
1743902985.900847,0.063,0.018,1.033,1.050,-2.590,-0.770
1743902985.920847,0.066,0.017,1.034,0.350,-2.660,-0.770
1743902985.940847,0.062,0.014,1.035,0.630,-2.940,-0.770
1743902985.960847,0.064,0.015,1.034,1.050,-2.450,-0.700
1743902985.980847,0.062,0.020,1.030,0.140,-2.660,-0.630
1743902985.910514,0.064,0.020,1.032,-0.350,-2.310,-0.700
1743902985.930514,0.064,0.017,1.041,0.070,-2.590,-0.770
1743902985.950514,0.062,0.015,1.038,0.630,-2.520,-0.770
1743902985.970514,0.062,0.018,1.034,-17.780,-2.380,-0.770
1743902985.990514,0.063,0.017,1.032,0.000,-2.520,-0.700
1743902986.010514,0.066,0.015,1.038,0.560,-2.310,-0.700
1743902985.9557261,0.067,0.014,1.038,0.700,-2.170,-0.770
1743902985.9757261,0.067,0.021,1.034,0.490,-2.450,-0.700
1743902985.995726,0.067,0.015,1.030,0.210,-2.310,-0.770
1743902986.015726,0.065,0.017,1.035,0.560,-2.380,-0.630
1743902986.035726,0.067,0.018,1.034,0.070,-2.450,-0.700
1743902986.055726,0.061,0.015,1.031,17.850,-2.450,-0.770
1743902985.9855301,0.063,0.015,1.029,0.280,-2.380,-0.770
1743902986.00553,0.060,0.015,1.032,0.420,-2.450,-0.840
1743902986.02553,0.064,0.014,1.036,0.210,-2.590,-0.770
1743902986.04553,0.062,0.016,1.035,0.280,-2.590,-0.770
1743902986.06553,0.061,0.014,1.032,0.420,-2.590,-0.840
1743902986.08553,0.061,0.016,1.033,0.490,-2.450,-0.770
1743902986.030868,0.063,0.015,1.036,0.420,-2.730,-0.840
1743902986.050868,0.063,0.015,1.034,0.560,-2.450,-0.840
1743902986.070868,0.062,0.016,1.034,0.700,-2.450,-0.770
1743902986.090868,0.064,0.016,1.034,0.630,-2.310,-0.700
1743902986.110868,0.064,0.018,1.035,0.560,-2.310,-0.770
1743902986.130868,0.065,0.017,1.034,0.420,-2.520,-0.770
1743902986.077881,0.063,0.016,1.034,0.280,-2.380,-0.770
1743902986.097881,0.064,0.018,1.033,-0.070,-2.450,-0.770
1743902986.117881,0.066,0.016,1.037,0.070,-2.380,-0.770
1743902986.137881,0.063,0.016,1.035,0.210,-2.450,-0.700
1743902986.157881,0.065,0.015,1.034,0.000,-2.310,-0.630
1743902986.177881,0.064,0.014,1.034,0.210,-2.450,-0.700
1743902986.1210732,0.063,0.015,1.037,0.350,-2.380,-0.770
1743902986.1410732,0.065,0.017,1.034,0.420,-2.380,-0.770
1743902986.1610732,0.064,0.018,1.033,0.140,-2.380,-0.700
1743902986.1810732,0.065,0.016,1.030,0.210,-2.380,-0.770
1743902986.2010732,0.064,0.014,1.034,0.420,-2.380,-0.700
1743902986.2210732,0.064,0.016,1.037,0.420,-2.310,-0.700
1743902986.1976311,0.064,0.015,1.032,0.560,-2.380,-0.840
1743902986.217631,0.061,0.013,1.033,0.630,-2.450,-0.840
1743902986.237631,0.062,0.018,1.037,0.350,-2.450,-0.630
1743902986.257631,0.062,0.015,1.035,0.420,-2.520,-0.770
1743902986.277631,0.064,0.016,1.032,0.490,-2.450,-0.770
1743902986.297631,0.062,0.016,1.033,0.420,-2.520,-0.700
1743902986.208355,0.064,0.017,1.037,0.420,-2.380,-0.630
1743902986.228355,0.065,0.015,1.037,0.280,-2.380,-0.700
1743902986.248355,0.064,0.016,1.034,0.350,-2.520,-0.630
1743902986.268355,0.063,0.018,1.032,0.280,-2.450,-0.700
1743902986.2883549,0.066,0.016,1.031,0.210,-2.450,-0.700
1743902986.3083549,0.063,0.016,1.035,0.140,-2.450,-0.630
1743902986.241306,0.065,0.015,1.035,0.280,-2.450,-0.770
1743902986.261306,0.064,0.015,1.031,0.350,-2.450,-0.770
1743902986.281306,0.063,0.016,1.033,0.210,-2.450,-0.700
1743902986.301306,0.063,0.015,1.036,0.350,-2.520,-0.700
1743902986.321306,0.064,0.017,1.031,0.280,-2.520,-0.770
1743902986.341306,0.064,0.017,1.029,0.140,-2.450,-0.700
1743902986.2857761,0.063,0.014,1.032,0.280,-2.450,-0.770
1743902986.3057761,0.064,0.016,1.037,0.420,-2.380,-0.770
1743902986.325776,0.063,0.017,1.035,0.350,-2.520,-0.770
1743902986.345776,0.063,0.015,1.031,0.350,-2.310,-0.700
1743902986.365776,0.064,0.019,1.034,0.350,-2.310,-0.770
1743902986.385776,0.063,0.017,1.036,0.070,-2.380,-0.840
1743902986.3309512,0.063,0.016,1.035,0.140,-2.450,-0.770
1743902986.3509512,0.066,0.016,1.031,0.210,-2.450,-0.700
1743902986.3709512,0.064,0.016,1.033,0.280,-2.380,-0.700
1743902986.3909512,0.064,0.016,1.036,0.140,-2.450,-0.700
1743902986.4109511,0.064,0.014,1.036,0.350,-2.660,-0.700
1743902986.430951,0.066,0.014,1.029,0.280,-2.380,-0.770
1743902986.376338,0.065,0.015,1.032,0.140,-2.520,-0.630
1743902986.396338,0.063,0.015,1.034,0.420,-2.310,-0.770
1743902986.416338,0.062,0.015,1.037,0.560,-2.450,-0.700
1743902986.436338,0.065,0.016,1.036,0.560,-2.380,-0.630
1743902986.456338,0.063,0.017,1.035,0.630,-2.450,-0.700
1743902986.476338,0.063,0.017,1.034,0.560,-2.380,-0.770
1743902986.405574,0.066,0.016,1.037,0.700,-2.240,-0.840
1743902986.425574,0.063,0.018,1.034,0.490,-2.520,-0.770
1743902986.445574,0.064,0.015,1.034,0.490,-2.450,-0.770
1743902986.465574,0.064,0.018,1.033,0.350,-2.450,-0.700
1743902986.485574,0.063,0.017,1.037,0.350,-2.520,-0.700
1743902986.505574,0.064,0.017,1.033,0.140,-2.380,-0.630
1743902986.480876,0.062,0.016,1.034,-0.070,-2.310,-0.700
1743902986.500876,0.064,0.016,1.034,0.280,-2.380,-0.700
1743902986.520876,0.063,0.017,1.036,0.210,-2.520,-0.770
1743902986.540876,0.063,0.016,1.034,0.070,-2.380,-0.700
1743902986.560876,0.062,0.016,1.033,0.350,-2.450,-0.700
1743902986.5808759,0.063,0.017,1.036,0.490,-2.450,-0.770
1743902986.51025,0.065,0.017,1.033,0.280,-2.380,-0.630
1743902986.53025,0.063,0.014,1.035,0.630,-2.380,-0.770
1743902986.55025,0.065,0.017,1.031,0.630,-2.450,-0.770
1743902986.57025,0.065,0.018,1.034,0.350,-2.450,-0.700
1743902986.59025,0.063,0.018,1.034,0.280,-2.380,-0.770
1743902986.61025,0.061,0.016,1.032,0.350,-2.380,-0.700
1743902986.540764,0.063,0.016,1.030,0.420,-2.380,-0.770
1743902986.560764,0.064,0.016,1.033,0.280,-2.450,-0.770
1743902986.580764,0.063,0.014,1.036,0.350,-2.380,-0.770
1743902986.600764,0.065,0.017,1.035,0.560,-2.520,-0.840
1743902986.620764,0.065,0.016,1.032,0.420,-2.590,-0.770
1743902986.640764,0.064,0.017,1.032,0.350,-2.520,-0.700
1743902986.5706472,0.062,0.013,1.035,0.420,-2.450,-0.770
1743902986.5906472,0.062,0.014,1.036,0.700,-2.310,-0.700
1743902986.6106472,0.065,0.014,1.033,0.420,-2.590,-0.840
1743902986.6306472,0.065,0.016,1.034,0.140,-2.450,-0.700
1743902986.6506472,0.062,0.013,1.030,0.420,-2.520,-0.770
1743902986.6706471,0.062,0.012,1.035,1.050,-2.310,-0.840
1743902986.6188803,0.063,0.019,1.037,0.630,-2.450,-0.700
1743902986.6388803,0.065,0.016,1.034,0.140,-2.310,-0.630
1743902986.6588802,0.064,0.017,1.033,0.770,-2.310,-0.770
1743902986.6788802,0.063,0.018,1.035,0.140,-2.450,-0.700
1743902986.6988802,0.063,0.020,1.037,0.000,-2.310,-0.700
1743902986.7188802,0.064,0.017,1.032,0.350,-2.310,-0.770
1743902986.661137,0.061,0.020,1.035,0.490,-2.240,-0.700
1743902986.681137,0.065,0.020,1.036,-0.070,-2.450,-0.770
1743902986.701137,0.066,0.019,1.034,0.000,-2.380,-0.700
1743902986.721137,0.062,0.015,1.030,0.350,-2.310,-0.700
1743902986.741137,0.065,0.016,1.034,-0.070,-2.380,-0.630
1743902986.761137,0.062,0.012,1.035,0.070,-2.450,-0.840
1743902986.705976,0.065,0.012,1.032,0.490,-2.450,-0.700
1743902986.725976,0.064,0.016,1.030,0.560,-2.450,-0.700
1743902986.745976,0.063,0.016,1.032,0.280,-2.520,-0.700
1743902986.765976,0.063,0.014,1.035,0.700,-2.520,-0.770
1743902986.785976,0.065,0.016,1.030,0.700,-2.450,-0.770
1743902986.805976,0.062,0.020,1.031,0.560,-2.380,-0.770
1743902986.7817903,0.061,0.018,1.034,0.630,-2.450,-0.770
1743902986.8017902,0.063,0.015,1.037,0.700,-2.380,-0.770
1743902986.8217902,0.062,0.018,1.037,0.350,-2.310,-0.770
1743902986.8417902,0.061,0.018,1.033,0.280,-2.380,-0.770
1743902986.8617902,0.063,0.017,1.035,0.350,-2.450,-0.770
1743902986.8817902,0.065,0.015,1.035,0.490,-2.380,-0.770
1743902986.78467,0.062,0.018,1.034,0.210,-2.380,-0.700
1743902986.80467,0.060,0.017,1.033,0.140,-2.240,-0.700
1743902986.82467,0.063,0.016,1.034,0.420,-2.450,-0.770
1743902986.84467,0.063,0.016,1.037,0.350,-2.380,-0.700
1743902986.86467,0.065,0.014,1.037,0.350,-2.590,-0.770
1743902986.88467,0.065,0.016,1.029,0.350,-2.380,-0.630
1743902986.8256712,0.064,0.015,1.033,0.280,-2.450,-0.630
1743902986.8456712,0.064,0.015,1.034,0.350,-2.380,-0.770
1743902986.8656712,0.065,0.016,1.032,0.490,-2.380,-0.770
1743902986.8856711,0.064,0.017,1.031,0.420,-2.380,-0.700
1743902986.9056711,0.062,0.017,1.033,0.350,-2.240,-0.700
1743902986.925671,0.064,0.016,1.037,0.420,-2.380,-0.700
1743902986.871287,0.064,0.020,1.036,0.280,-2.450,-0.770
1743902986.891287,0.063,0.018,1.032,0.210,-2.310,-0.700
1743902986.911287,0.061,0.017,1.034,0.140,-2.450,-0.700
1743902986.931287,0.061,0.016,1.035,0.210,-2.450,-0.700
1743902986.951287,0.061,0.017,1.036,0.140,-2.380,-0.700
1743902986.971287,0.062,0.017,1.033,0.280,-2.590,-0.770
1743902986.9157991,0.064,0.019,1.032,0.070,-2.380,-0.630
1743902986.9357991,0.064,0.017,1.035,0.070,-2.380,-0.770
1743902986.955799,0.064,0.014,1.035,0.140,-2.380,-0.630
1743902986.975799,0.064,0.018,1.033,0.280,-2.310,-0.770
1743902986.995799,0.063,0.018,1.034,0.210,-2.310,-0.700
1743902987.015799,0.065,0.018,1.035,0.770,-2.380,-0.700
1743902986.961105,0.068,0.018,1.034,0.210,-2.380,-0.630
1743902986.981105,0.066,0.017,1.031,-0.490,-2.310,-0.840
1743902987.001105,0.064,0.013,1.032,0.560,-2.170,-0.840
1743902987.021105,0.064,0.019,1.039,0.280,-2.450,-0.770
1743902987.041105,0.061,0.015,1.036,-0.140,-2.450,-0.630
1743902987.061105,0.064,0.013,1.033,0.000,-2.240,-0.770
1743902987.00863,0.063,0.014,1.034,0.560,-2.380,-0.840
1743902987.02863,0.062,0.017,1.034,-0.770,-2.520,-0.630
1743902987.04863,0.064,0.011,1.035,1.190,-2.660,-0.910
1743902987.06863,0.063,0.018,1.036,1.190,-2.170,-0.700
1743902987.08863,0.063,0.018,1.033,-0.560,-2.520,-0.630
1743902987.10863,0.062,0.012,1.037,0.420,-2.660,-0.630
1743902987.0969641,0.068,0.013,1.037,1.330,-2.100,-0.700
1743902987.116964,0.065,0.016,1.034,0.840,-2.940,-0.630
1743902987.136964,0.063,0.017,1.032,0.140,-2.240,-0.770
1743902987.156964,0.067,0.011,1.028,0.420,-2.170,-0.770
1743902987.176964,0.063,0.013,1.035,1.400,-2.590,-0.840
1743902987.196964,0.064,0.016,1.033,0.420,-2.520,-0.630
1743902987.098802,0.063,0.014,1.031,0.980,-2.380,-0.770
1743902987.118802,0.064,0.016,1.035,1.330,-2.520,-0.770
1743902987.138802,0.060,0.019,1.035,0.700,-2.660,-0.700
1743902987.158802,0.064,0.018,1.030,0.700,-2.310,-0.700
1743902987.178802,0.062,0.020,1.034,0.420,-2.450,-0.770
1743902987.198802,0.066,0.020,1.036,-0.140,-2.450,-0.770
1743902987.140853,0.064,0.015,1.033,-0.210,-2.520,-0.770
1743902987.160853,0.064,0.014,1.034,0.280,-2.450,-0.700
1743902987.180853,0.062,0.017,1.037,0.070,-2.590,-0.840
1743902987.2008529,0.063,0.017,1.037,0.140,-2.450,-0.700
1743902987.2208529,0.065,0.015,1.031,0.280,-2.520,-0.700
1743902987.2408528,0.063,0.016,1.033,0.350,-2.380,-0.630
1743902987.1844172,0.065,0.016,1.035,0.490,-2.380,-0.630
1743902987.2044172,0.065,0.014,1.035,0.350,-2.380,-0.770
1743902987.2244172,0.063,0.016,1.032,0.350,-2.310,-0.770
1743902987.2444172,0.063,0.014,1.030,0.350,-2.450,-0.700
1743902987.2644172,0.062,0.016,1.034,0.350,-2.240,-0.770
1743902987.2844172,0.064,0.014,1.034,0.350,-2.380,-0.770
1743902987.215933,0.063,0.018,1.032,0.420,-2.450,-0.630
1743902987.235933,0.064,0.017,1.034,0.840,-2.310,-0.840
1743902987.255933,0.062,0.020,1.038,0.630,-2.380,-0.700
1743902987.275933,0.067,0.020,1.033,-0.420,-2.450,-0.700
1743902987.295933,0.066,0.014,1.032,0.490,-2.380,-0.770
1743902987.315933,0.062,0.020,1.038,0.490,-2.590,-0.770
1743902987.261249,0.061,0.018,1.036,-0.490,-2.520,-0.560
1743902987.281249,0.064,0.013,1.034,-0.280,-2.380,-0.770
1743902987.301249,0.063,0.013,1.034,0.770,-2.240,-0.840
1743902987.321249,0.063,0.018,1.033,0.210,-2.380,-0.700
1743902987.341249,0.065,0.015,1.036,0.280,-2.310,-0.630
1743902987.361249,0.064,0.015,1.032,0.630,-2.310,-0.770
1743902987.320775,0.064,0.015,1.032,0.420,-2.310,-0.770
1743902987.340775,0.062,0.016,1.035,0.280,-2.380,-0.700
1743902987.360775,0.064,0.016,1.035,0.630,-2.450,-0.700
1743902987.380775,0.063,0.018,1.031,0.210,-2.380,-0.770
1743902987.400775,0.063,0.018,1.031,0.280,-2.450,-0.700
1743902987.420775,0.063,0.014,1.035,0.280,-2.520,-0.770
1743902987.380743,0.062,0.018,1.038,0.560,-2.380,-0.770
1743902987.400743,0.063,0.016,1.031,0.210,-2.450,-0.770
1743902987.420743,0.063,0.016,1.034,0.490,-2.450,-0.770
1743902987.440743,0.065,0.016,1.035,0.280,-2.520,-0.770
1743902987.460743,0.063,0.016,1.037,0.280,-2.450,-0.770
1743902987.480743,0.062,0.015,1.031,0.280,-2.450,-0.840
1743902987.396871,0.063,0.017,1.034,0.420,-2.450,-0.770
1743902987.416871,0.065,0.017,1.036,0.140,-2.380,-0.840
1743902987.436871,0.061,0.016,1.037,0.210,-2.520,-0.770
1743902987.456871,0.064,0.016,1.032,0.350,-2.450,-0.770
1743902987.476871,0.064,0.018,1.035,0.280,-2.590,-0.700
1743902987.496871,0.063,0.017,1.035,0.420,-2.450,-0.770
1743902987.4707751,0.067,0.014,1.036,0.700,-2.450,-0.630
1743902987.490775,0.064,0.016,1.032,0.700,-2.450,-0.700
1743902987.510775,0.063,0.016,1.030,0.350,-2.520,-0.770
1743902987.530775,0.066,0.015,1.035,0.490,-2.380,-0.700
1743902987.550775,0.065,0.016,1.036,0.420,-2.450,-0.770
1743902987.570775,0.064,0.018,1.033,0.210,-2.450,-0.630
1743902987.4857402,0.061,0.015,1.032,0.350,-2.380,-0.770
1743902987.5057402,0.063,0.016,1.036,0.420,-2.380,-0.700
1743902987.5257401,0.064,0.015,1.033,0.280,-2.310,-0.770
1743902987.5457401,0.065,0.015,1.032,0.350,-2.520,-0.700
1743902987.56574,0.061,0.015,1.033,0.420,-2.380,-0.770
1743902987.58574,0.063,0.016,1.037,0.280,-2.520,-0.700
1743902987.530796,0.063,0.016,1.032,0.210,-2.380,-0.630
1743902987.550796,0.062,0.015,1.033,0.420,-2.380,-0.700
1743902987.570796,0.063,0.017,1.035,0.420,-2.310,-0.700
1743902987.590796,0.065,0.017,1.036,0.350,-2.380,-0.700
1743902987.610796,0.063,0.018,1.034,0.420,-2.450,-0.770
1743902987.630796,0.061,0.015,1.034,0.490,-2.380,-0.700
1743902987.5758862,0.065,0.018,1.035,0.490,-2.520,-0.700
1743902987.5958862,0.062,0.018,1.036,0.490,-2.520,-0.770
1743902987.6158862,0.066,0.015,1.035,0.140,-2.380,-0.700
1743902987.6358862,0.062,0.016,1.028,0.490,-2.660,-0.770
1743902987.6558862,0.062,0.018,1.034,0.560,-2.380,-0.630
1743902987.6758862,0.063,0.018,1.038,0.070,-2.520,-0.840
1743902987.6208482,0.062,0.016,1.034,0.070,-2.730,-0.700
1743902987.6408482,0.066,0.016,1.032,0.490,-2.450,-0.770
1743902987.6608481,0.065,0.017,1.028,0.210,-2.590,-0.700
1743902987.6808481,0.063,0.017,1.035,0.070,-2.450,-0.700
1743902987.700848,0.067,0.015,1.035,0.420,-2.450,-0.770
1743902987.720848,0.064,0.016,1.031,0.490,-2.380,-0.700
1743902987.680294,0.064,0.017,1.034,0.280,-2.520,-0.700
1743902987.700294,0.064,0.015,1.035,0.490,-2.450,-0.840
1743902987.720294,0.065,0.015,1.035,0.630,-2.310,-0.770
1743902987.740294,0.064,0.018,1.032,0.280,-2.450,-0.770
1743902987.760294,0.064,0.015,1.033,0.420,-2.450,-0.700
1743902987.780294,0.062,0.016,1.037,0.630,-2.310,-0.770
1743902987.710877,0.063,0.019,1.035,0.140,-2.380,-0.770
1743902987.730877,0.064,0.017,1.031,0.000,-2.450,-0.700
1743902987.750877,0.062,0.015,1.033,0.350,-2.380,-0.770
1743902987.770877,0.065,0.017,1.036,0.420,-2.450,-0.700
1743902987.7908769,0.063,0.017,1.035,0.070,-2.380,-0.700
1743902987.8108768,0.065,0.017,1.035,0.280,-2.520,-0.770
1743902987.740755,0.064,0.015,1.035,0.490,-2.520,-0.700
1743902987.760755,0.065,0.017,1.036,0.210,-2.380,-0.700
1743902987.780755,0.067,0.016,1.035,0.280,-2.590,-0.630
1743902987.800755,0.061,0.014,1.032,0.420,-2.310,-0.700
1743902987.820755,0.065,0.015,1.032,0.420,-2.450,-0.700
1743902987.840755,0.062,0.016,1.035,0.280,-2.450,-0.700
1743902987.7858782,0.064,0.019,1.037,0.350,-2.450,-0.770
1743902987.8058782,0.061,0.014,1.033,0.490,-2.520,-0.700
1743902987.8258781,0.063,0.016,1.032,0.210,-2.520,-0.700
1743902987.8458781,0.064,0.015,1.034,0.350,-2.240,-0.770
1743902987.865878,0.062,0.016,1.035,0.280,-2.450,-0.700
1743902987.885878,0.062,0.017,1.031,0.280,-2.310,-0.770
1743902987.831019,0.063,0.016,1.032,0.420,-2.450,-0.840
1743902987.851019,0.063,0.016,1.035,0.420,-2.450,-0.630
1743902987.871019,0.063,0.016,1.037,0.280,-2.450,-0.700
1743902987.8910189,0.063,0.016,1.032,0.210,-2.450,-0.770
1743902987.9110188,0.064,0.014,1.032,0.350,-2.380,-0.630
1743902987.9310188,0.063,0.015,1.035,0.280,-2.520,-0.700
1743902987.8763742,0.064,0.016,1.036,0.210,-2.520,-0.770
1743902987.8963742,0.063,0.017,1.035,0.210,-2.450,-0.700
1743902987.9163742,0.063,0.015,1.032,0.420,-2.380,-0.700
1743902987.9363742,0.065,0.015,1.033,0.210,-2.450,-0.700
1743902987.9563742,0.066,0.016,1.037,0.210,-2.380,-0.700
1743902987.9763741,0.064,0.017,1.035,0.420,-2.520,-0.770
1743902987.9210463,0.062,0.018,1.032,0.140,-2.380,-0.770
1743902987.9410462,0.064,0.014,1.034,-0.070,-2.450,-0.700
1743902987.9610462,0.064,0.015,1.037,0.210,-2.310,-0.700
1743902987.9810462,0.063,0.015,1.032,0.140,-2.520,-0.630
1743902988.0010462,0.063,0.017,1.031,-0.140,-2.450,-0.700
1743902988.0210462,0.061,0.016,1.034,0.140,-2.380,-0.700
1743902987.981327,0.063,0.016,1.034,-0.280,-2.380,-0.700
1743902988.001327,0.063,0.014,1.033,0.350,-2.450,-0.700
1743902988.021327,0.063,0.015,1.035,0.070,-2.310,-0.700
1743902988.041327,0.066,0.019,1.034,-0.630,-2.520,-0.560
1743902988.061327,0.060,0.010,1.034,0.350,-2.800,-0.770
1743902988.081327,0.062,0.016,1.036,1.120,-1.890,-0.770
1743902987.995901,0.061,0.018,1.033,0.280,-3.010,-0.770
1743902988.015901,0.064,0.016,1.032,0.840,-2.100,-0.770
1743902988.035901,0.062,0.014,1.035,1.120,-2.590,-0.770
1743902988.055901,0.069,0.018,1.036,0.630,-2.170,-0.770
1743902988.075901,0.063,0.015,1.034,0.420,-2.380,-0.770
1743902988.095901,0.061,0.013,1.031,1.260,-2.450,-0.840
1743902988.041194,0.066,0.015,1.034,1.190,-2.170,-0.840
1743902988.061194,0.062,0.018,1.036,0.980,-2.660,-0.770
1743902988.081194,0.064,0.013,1.033,0.210,-2.520,-0.770
1743902988.101194,0.066,0.012,1.030,1.120,-2.590,-0.770
1743902988.121194,0.063,0.020,1.034,1.330,-2.590,-0.700
1743902988.1411939,0.064,0.019,1.034,0.070,-2.590,-0.700
1743902988.086061,0.062,0.014,1.032,0.700,-2.520,-0.770
1743902988.106061,0.061,0.024,1.031,0.840,-2.240,-0.770
1743902988.126061,0.061,0.022,1.037,-0.840,-2.590,-0.630
1743902988.146061,0.062,0.012,1.033,0.140,-2.240,-0.770
1743902988.166061,0.066,0.013,1.031,0.770,-2.450,-0.700
1743902988.186061,0.064,0.022,1.036,-0.140,-2.520,-0.560
1743902988.131056,0.065,0.014,1.039,-0.210,-2.450,-0.700
1743902988.151056,0.066,0.016,1.032,0.910,-2.380,-0.700
1743902988.171056,0.066,0.020,1.031,0.000,-2.450,-0.700
1743902988.191056,0.064,0.019,1.033,0.280,-2.450,-0.700
1743902988.211056,0.064,0.014,1.036,0.700,-2.310,-0.770
1743902988.231056,0.062,0.017,1.034,0.280,-2.450,-0.770
1743902988.1606112,0.062,0.020,1.030,-0.280,-2.520,-0.700
1743902988.1806111,0.062,0.014,1.032,0.140,-2.380,-0.770
1743902988.200611,0.064,0.014,1.034,0.700,-2.520,-0.770
1743902988.220611,0.064,0.018,1.036,0.000,-2.450,-0.770
1743902988.240611,0.061,0.015,1.031,-0.070,-2.380,-0.700
1743902988.260611,0.063,0.016,1.030,0.770,-2.310,-0.840
1743902988.20561,0.063,0.016,1.033,0.560,-2.310,-0.770
1743902988.22561,0.063,0.018,1.034,0.140,-2.450,-0.840
1743902988.24561,0.062,0.015,1.035,0.210,-2.520,-0.770
1743902988.26561,0.061,0.015,1.032,0.840,-2.450,-0.700
1743902988.28561,0.062,0.018,1.033,0.490,-2.450,-0.770
1743902988.30561,0.062,0.016,1.036,0.490,-2.520,-0.770
1743902988.280821,0.064,0.016,1.035,0.560,-2.450,-0.770
1743902988.300821,0.063,0.019,1.033,0.490,-2.450,-0.700
1743902988.320821,0.066,0.017,1.036,0.140,-2.380,-0.770
1743902988.340821,0.062,0.016,1.035,0.490,-2.310,-0.700
1743902988.360821,0.064,0.018,1.032,0.210,-2.450,-0.630
1743902988.380821,0.063,0.018,1.032,-0.070,-2.380,-0.700
1743902988.310038,0.065,0.015,1.032,0.210,-2.310,-0.700
1743902988.330038,0.065,0.017,1.034,0.280,-2.380,-0.700
1743902988.350038,0.064,0.017,1.037,0.140,-2.380,-0.700
1743902988.370038,0.064,0.017,1.030,0.210,-2.380,-0.700
1743902988.390038,0.066,0.015,1.031,0.070,-2.240,-0.700
1743902988.410038,0.067,0.016,1.037,0.350,-2.310,-0.840
1743902988.325967,0.063,0.015,1.036,0.420,-2.380,-0.770
1743902988.345967,0.063,0.015,1.031,0.140,-2.450,-0.700
1743902988.365967,0.063,0.015,1.032,0.560,-2.450,-0.770
1743902988.385967,0.062,0.017,1.037,0.630,-2.450,-0.700
1743902988.405967,0.062,0.019,1.034,0.140,-2.450,-0.700
1743902988.425967,0.066,0.015,1.030,0.280,-2.450,-0.770
1743902988.3711982,0.065,0.017,1.036,0.420,-2.450,-0.840
1743902988.3911982,0.063,0.016,1.036,0.070,-2.520,-0.770
1743902988.4111981,0.063,0.016,1.033,0.070,-2.450,-0.770
1743902988.4311981,0.061,0.015,1.032,0.210,-2.380,-0.770
1743902988.451198,0.065,0.015,1.034,0.350,-2.450,-0.840
1743902988.471198,0.064,0.015,1.036,0.280,-2.450,-0.770
1743902988.4160643,0.064,0.015,1.034,0.350,-2.450,-0.630
1743902988.4360642,0.064,0.016,1.033,0.280,-2.310,-0.630
1743902988.4560642,0.063,0.014,1.037,0.490,-2.380,-0.700
1743902988.4760642,0.066,0.015,1.035,0.630,-2.310,-0.700
1743902988.4960642,0.064,0.016,1.032,0.700,-2.380,-0.770
1743902988.5160642,0.065,0.015,1.031,0.630,-2.310,-0.770
1743902988.461154,0.062,0.018,1.032,0.770,-2.590,-0.840
1743902988.481154,0.062,0.016,1.037,0.770,-2.520,-0.770
1743902988.501154,0.062,0.015,1.035,0.700,-2.450,-0.700
1743902988.521154,0.062,0.015,1.030,0.630,-2.660,-0.700
1743902988.541154,0.064,0.017,1.029,0.140,-2.450,-0.770
1743902988.561154,0.065,0.013,1.036,0.140,-2.450,-0.840
1743902988.5055451,0.062,0.017,1.033,0.630,-2.450,-0.770
1743902988.5255451,0.061,0.019,1.035,0.000,-2.590,-0.700
1743902988.545545,0.062,0.017,1.036,17.850,-2.450,-0.770
1743902988.565545,0.062,0.015,1.037,0.420,-2.380,-0.630
1743902988.585545,0.063,0.018,1.034,0.490,-2.380,-0.700
1743902988.605545,0.061,0.019,1.033,0.140,-2.380,-0.630
1743902988.580954,0.063,0.015,1.033,0.210,-2.450,-0.700
1743902988.600954,0.063,0.016,1.037,0.560,-2.450,-0.700
1743902988.620954,0.067,0.018,1.035,0.420,-2.450,-0.700
1743902988.640954,0.065,0.017,1.032,0.210,-2.380,-0.700
1743902988.660954,0.067,0.018,1.033,0.490,-2.310,-0.700
1743902988.680954,0.065,0.015,1.035,0.280,-2.450,-0.700
1743902988.6104531,0.066,0.017,1.032,0.070,-2.450,-0.630
1743902988.630453,0.061,0.016,1.029,0.000,-2.380,-0.840
1743902988.650453,0.061,0.015,1.034,0.910,-2.520,-0.770
1743902988.670453,0.068,0.024,1.037,-0.210,-2.520,-0.700
1743902988.690453,0.069,0.007,1.024,-2.030,-2.380,-0.560
1743902988.710453,0.066,0.003,1.029,2.100,-2.240,-0.840
1743902988.641714,0.060,0.016,1.039,1.540,-2.520,-0.770
1743902988.661714,0.058,0.021,1.039,-0.840,-2.590,-0.630
1743902988.681714,0.064,0.011,1.034,1.120,-2.450,-0.700
1743902988.701714,0.065,0.019,1.034,1.680,-2.380,-0.700
1743902988.721714,0.062,0.021,1.037,-0.210,-2.310,-0.770
1743902988.741714,0.065,0.016,1.035,0.350,-2.170,-0.770
1743902988.686162,0.064,0.019,1.031,1.120,-2.380,-0.770
1743902988.706162,0.065,0.020,1.032,0.070,-2.310,-0.770
1743902988.726162,0.063,0.015,1.035,-0.140,-2.520,-0.770
1743902988.746162,0.065,0.014,1.036,0.280,-2.310,-0.840
1743902988.766162,0.065,0.018,1.030,-0.070,-2.310,-0.700
1743902988.786162,0.062,0.015,1.032,-0.490,-2.450,-0.560
1743902988.7461681,0.064,0.014,1.038,0.000,-2.380,-0.700
1743902988.766168,0.061,0.016,1.034,0.140,-2.520,-0.700
1743902988.786168,0.063,0.013,1.032,0.350,-2.450,-0.700
1743902988.806168,0.065,0.014,1.033,0.560,-2.520,-0.700
1743902988.826168,0.064,0.018,1.036,0.210,-2.310,-0.700
1743902988.846168,0.064,0.016,1.033,0.490,-2.520,-0.700
1743902988.761779,0.066,0.017,1.033,0.700,-2.310,-0.840
1743902988.781779,0.065,0.018,1.034,0.770,-2.310,-0.700
1743902988.801779,0.063,0.020,1.035,0.350,-2.380,-0.840
1743902988.821779,0.063,0.017,1.034,0.350,-2.310,-0.700
1743902988.841779,0.062,0.015,1.035,0.560,-2.380,-0.770
1743902988.861779,0.064,0.016,1.031,0.070,-2.450,-0.700
1743902988.8059483,0.063,0.014,1.032,0.350,-2.520,-0.770
1743902988.8259482,0.064,0.016,1.035,0.700,-2.450,-0.630
1743902988.8459482,0.065,0.016,1.034,0.560,-2.450,-0.630
1743902988.8659482,0.063,0.017,1.033,-0.140,-2.520,-0.700
1743902988.8859482,0.063,0.014,1.030,0.490,-2.450,-0.770
1743902988.9059482,0.064,0.015,1.036,0.770,-2.450,-0.770
1743902988.8816862,0.063,0.019,1.037,0.700,-2.520,-0.700
1743902988.9016862,0.063,0.015,1.032,0.420,-2.450,-0.700
1743902988.9216862,0.064,0.014,1.030,0.910,-2.310,-0.770
1743902988.9416862,0.063,0.016,1.036,0.490,-2.380,-0.700
1743902988.9616861,0.061,0.014,1.037,0.630,-2.520,-0.770
1743902988.981686,0.062,0.014,1.028,1.050,-2.590,-0.770
1743902988.884685,0.063,0.015,1.032,1.400,-2.520,-0.700
1743902988.904685,0.064,0.018,1.035,0.910,-2.520,-0.770
1743902988.924685,0.064,0.018,1.035,0.420,-2.520,-0.700
1743902988.944685,0.065,0.016,1.033,0.560,-2.380,-0.770
1743902988.964685,0.064,0.018,1.029,0.490,-2.310,-0.700
1743902988.984685,0.066,0.016,1.036,0.140,-2.310,-0.700
1743902988.9262002,0.062,0.019,1.036,0.350,-2.520,-0.700
1743902988.9462001,0.061,0.019,1.034,0.350,-2.520,-0.700
1743902988.9662,0.064,0.018,1.033,-0.140,-2.520,-0.770
1743902988.9862,0.064,0.017,1.035,0.000,-2.380,-0.700
1743902989.0062,0.063,0.015,1.035,0.350,-2.450,-0.630
1743902989.0262,0.065,0.018,1.031,0.350,-2.310,-0.770
1743902988.985024,0.064,0.015,1.034,0.280,-2.450,-0.770
1743902989.005024,0.065,0.015,1.034,0.420,-2.310,-0.700
1743902989.025024,0.066,0.019,1.032,0.140,-2.240,-0.770
1743902989.045024,0.063,0.015,1.030,0.070,-2.450,-0.700
1743902989.065024,0.062,0.016,1.031,0.490,-2.380,-0.840
1743902989.0850239,0.062,0.016,1.035,0.350,-2.380,-0.630
1743902989.016704,0.063,0.016,1.037,0.070,-2.450,-0.770
1743902989.036704,0.065,0.015,1.034,0.070,-2.520,-0.700
1743902989.056704,0.065,0.017,1.032,0.560,-2.380,-0.770
1743902989.076704,0.063,0.018,1.035,0.490,-2.450,-0.770
1743902989.096704,0.062,0.018,1.035,0.350,-2.450,-0.700
1743902989.116704,0.063,0.014,1.035,0.630,-2.450,-0.770
1743902989.061336,0.061,0.017,1.033,0.490,-2.450,-0.840
1743902989.081336,0.065,0.019,1.036,0.490,-2.380,-0.700
1743902989.101336,0.064,0.016,1.036,0.350,-2.380,-0.770
1743902989.121336,0.064,0.018,1.032,0.560,-2.450,-0.700
1743902989.141336,0.061,0.019,1.029,0.280,-2.380,-0.700
1743902989.161336,0.064,0.015,1.034,0.280,-2.380,-0.770
1743902989.0909252,0.062,0.015,1.037,0.420,-2.380,-0.630
1743902989.1109252,0.065,0.017,1.032,0.280,-2.380,-0.700
1743902989.1309252,0.065,0.018,1.034,0.210,-2.450,-0.770
1743902989.1509252,0.065,0.015,1.035,0.350,-2.450,-0.700
1743902989.1709251,0.064,0.017,1.035,0.350,-2.310,-0.770
1743902989.1909251,0.062,0.016,1.031,0.280,-2.520,-0.630
1743902989.1799603,0.063,0.015,1.032,0.070,-2.380,-0.700
1743902989.1999602,0.063,0.015,1.036,0.280,-2.520,-0.700
1743902989.2199602,0.063,0.016,1.035,0.210,-2.520,-0.770
1743902989.2399602,0.062,0.017,1.031,0.210,-2.450,-0.770
1743902989.2599602,0.062,0.015,1.034,0.490,-2.450,-0.700
1743902989.2799602,0.065,0.017,1.037,0.700,-2.520,-0.700
1743902989.1958,0.061,0.019,1.032,0.210,-2.520,-0.700
1743902989.2158,0.064,0.015,1.032,0.210,-2.520,-0.770
1743902989.2358,0.063,0.016,1.035,0.560,-2.380,-0.700
1743902989.2558,0.064,0.017,1.035,0.350,-2.380,-0.770
1743902989.2758,0.064,0.017,1.032,0.420,-2.450,-0.700
1743902989.2958,0.063,0.015,1.031,0.490,-2.380,-0.770
1743902989.2408442,0.066,0.016,1.034,0.280,-2.520,-0.700
1743902989.2608442,0.064,0.017,1.038,0.210,-2.450,-0.700
1743902989.2808442,0.062,0.016,1.032,0.420,-2.380,-0.700
1743902989.3008442,0.064,0.015,1.033,0.560,-2.450,-0.700
1743902989.3208442,0.063,0.017,1.034,0.350,-2.520,-0.700
1743902989.3408442,0.063,0.016,1.037,0.280,-2.380,-0.770
1743902989.271681,0.064,0.016,1.032,0.490,-2.380,-0.700
1743902989.291681,0.065,0.014,1.034,0.350,-2.450,-0.770
1743902989.311681,0.064,0.014,1.038,0.350,-2.380,-0.770
1743902989.331681,0.062,0.015,1.035,0.350,-2.450,-0.700
1743902989.351681,0.062,0.017,1.029,0.350,-2.520,-0.560
1743902989.371681,0.062,0.016,1.035,0.420,-2.380,-0.700
1743902989.3308482,0.064,0.017,1.035,0.420,-2.380,-0.770
1743902989.3508482,0.064,0.017,1.032,0.350,-2.380,-0.770
1743902989.3708482,0.065,0.016,1.032,0.490,-2.380,-0.770
1743902989.3908482,0.062,0.016,1.036,0.490,-2.450,-0.840
1743902989.4108481,0.064,0.018,1.036,0.210,-2.380,-0.700
1743902989.4308481,0.063,0.014,1.032,0.350,-2.450,-0.770
1743902989.375711,0.064,0.016,1.034,0.490,-2.450,-0.700
1743902989.395711,0.065,0.015,1.035,0.350,-2.450,-0.770
1743902989.415711,0.065,0.018,1.037,0.140,-2.520,-0.700
1743902989.435711,0.065,0.017,1.031,0.140,-2.590,-0.630
1743902989.455711,0.068,0.018,1.035,0.210,-2.450,-0.560
1743902989.4757109,0.066,0.016,1.037,-0.070,-2.450,-0.770
1743902989.4218493,0.065,0.016,1.035,-0.070,-2.450,-0.700
1743902989.4418492,0.061,0.015,1.030,0.070,-2.450,-0.770
1743902989.4618492,0.062,0.016,1.036,0.280,-2.310,-0.770
1743902989.4818492,0.061,0.015,1.037,0.070,-2.380,-0.770
1743902989.5018492,0.063,0.014,1.036,0.560,-2.380,-0.770
1743902989.5218492,0.062,0.018,1.033,0.210,-2.170,-0.700
1743902989.4814692,0.064,0.014,1.035,0.350,-2.240,-0.770
1743902989.5014691,0.067,0.017,1.041,0.980,-2.240,-0.700
1743902989.521469,0.065,0.018,1.031,0.000,-2.380,-0.700
1743902989.541469,0.063,0.012,1.026,0.910,-2.450,-0.700
1743902989.561469,0.067,0.012,1.034,1.190,-2.100,-0.630
1743902989.581469,0.065,0.017,1.038,1.260,-2.310,-0.770
1743902989.496243,0.063,0.019,1.037,0.140,-2.800,-0.700
1743902989.516243,0.065,0.014,1.030,0.490,-2.170,-0.840
1743902989.536243,0.060,0.014,1.031,1.260,-2.590,-0.840
1743902989.556243,0.063,0.019,1.036,0.700,-2.450,-0.770
1743902989.576243,0.063,0.018,1.037,0.210,-2.380,-0.910
1743902989.596243,0.061,0.015,1.032,0.980,-2.520,-0.840
1743902989.556717,0.064,0.017,1.032,0.910,-2.240,-0.840
1743902989.576717,0.062,0.018,1.033,0.140,-2.520,-0.700
1743902989.596717,0.065,0.016,1.037,-0.070,-2.310,-0.700
1743902989.6167169,0.064,0.016,1.032,0.350,-2.310,-0.700
1743902989.6367168,0.062,0.018,1.033,-0.070,-2.310,-0.630
1743902989.6567168,0.062,0.017,1.037,0.000,-2.520,-0.770
1743902989.586038,0.062,0.016,1.036,0.350,-2.450,-0.700
1743902989.606038,0.061,0.016,1.032,0.210,-2.380,-0.630
1743902989.626038,0.064,0.016,1.031,0.070,-2.450,-0.700
1743902989.646038,0.063,0.013,1.034,0.490,-2.380,-0.700
1743902989.666038,0.063,0.015,1.033,0.420,-2.380,-0.700
1743902989.686038,0.064,0.016,1.032,0.420,-2.450,-0.700
1743902989.6306572,0.065,0.015,1.034,0.700,-2.450,-0.770
1743902989.6506572,0.064,0.017,1.037,0.490,-2.380,-0.770
1743902989.6706572,0.063,0.016,1.035,0.350,-2.450,-0.700
1743902989.6906571,0.063,0.017,1.031,0.420,-2.450,-0.700
1743902989.7106571,0.064,0.016,1.035,0.420,-2.520,-0.840
1743902989.730657,0.067,0.017,1.035,0.280,-2.520,-0.770
1743902989.6760402,0.065,0.015,1.035,0.350,-2.450,-0.770
1743902989.6960402,0.064,0.017,1.033,0.420,-2.450,-0.700
1743902989.7160401,0.064,0.017,1.035,0.210,-2.450,-0.700
1743902989.73604,0.064,0.017,1.035,0.420,-2.590,-0.630
1743902989.75604,0.065,0.016,1.033,0.350,-2.380,-0.700
1743902989.77604,0.065,0.016,1.031,0.280,-2.380,-0.700
1743902989.7057862,0.064,0.014,1.033,0.350,-2.380,-0.700
