Timestamp,AccelX,AccelY,AccelZ,GyroX,GyroY,GyroZ
1743950978.409077,-0.030,0.838,0.594,0.980,-2.380,-0.840
1743950978.429077,-0.033,0.839,0.591,0.840,-2.310,-0.840
1743950978.449077,-0.031,0.840,0.592,0.000,-2.100,-2.660
1743950978.469077,-0.050,0.839,0.592,9.660,0.840,-8.190
1743950978.489077,0.051,0.862,0.607,15.330,3.290,-7.070
1743950978.509077,-0.031,0.844,0.582,16.100,7.420,-8.540
1743950978.455806,-0.044,0.837,0.603,-2.660,-9.940,8.470
1743950978.475806,-0.034,0.839,0.606,-0.070,-6.510,9.590
1743950978.495806,-0.026,0.841,0.598,3.710,-5.110,7.210
1743950978.515806,-0.031,0.843,0.591,0.420,-4.130,4.270
1743950978.535806,-0.026,0.851,0.585,-2.870,-4.690,0.700
1743950978.555806,-0.029,0.853,0.583,-10.500,-5.180,0.070
1743950978.516094,-0.032,0.834,0.592,6.440,-11.550,2.800
1743950978.536094,-0.025,0.842,0.593,4.970,-8.330,3.220
1743950978.556094,-0.022,0.845,0.595,3.640,-4.620,2.660
1743950978.576094,-0.022,0.846,0.595,3.780,-3.220,2.310
1743950978.596094,-0.022,0.840,0.596,4.200,-2.730,1.610
1743950978.616094,-0.027,0.837,0.597,6.020,-3.080,1.050
1743950978.591045,-0.028,0.841,0.591,-0.770,-0.840,-4.200
1743950978.611045,-0.028,0.840,0.590,-0.630,-1.190,-3.640
1743950978.631045,-0.033,0.840,0.590,-0.210,-1.260,-3.010
1743950978.651045,-0.032,0.840,0.591,0.140,-1.330,-2.800
1743950978.671045,-0.031,0.842,0.590,0.420,-1.330,-2.450
1743950978.691045,-0.029,0.838,0.591,0.770,-1.610,-2.100
1743950978.709311,-0.029,0.841,0.594,1.400,-3.150,0.840
1743950978.729311,-0.029,0.842,0.592,1.260,-3.220,0.910
1743950978.749311,-0.026,0.842,0.592,0.910,-3.290,0.630
1743950978.769311,-0.024,0.843,0.590,0.770,-3.220,0.560
1743950978.789311,-0.027,0.841,0.593,0.420,-3.080,0.140
1743950978.809311,-0.024,0.844,0.593,-0.140,-2.870,-0.070
1743950978.771185,-0.028,0.841,0.591,2.100,-1.890,-1.820
1743950978.791185,-0.028,0.843,0.592,2.170,-1.820,-2.030
1743950978.811185,-0.028,0.842,0.588,1.890,-1.750,-2.030
1743950978.831185,-0.030,0.843,0.590,1.610,-2.030,-1.680
1743950978.851185,-0.030,0.843,0.590,1.120,-2.240,-1.400
1743950978.871185,-0.032,0.842,0.592,0.980,-2.450,-0.980
1743950978.832320,-0.028,0.841,0.591,0.140,-3.010,0.000
1743950978.852320,-0.026,0.846,0.591,0.210,-2.870,-0.210
1743950978.872320,-0.028,0.846,0.592,0.210,-2.660,-0.700
1743950978.892320,-0.027,0.839,0.592,0.350,-2.450,-1.050
1743950978.912320,-0.025,0.842,0.593,-0.280,-2.380,-1.120
1743950978.932320,-0.028,0.842,0.596,0.210,-2.450,-1.120
1743950978.921820,-0.027,0.842,0.592,2.940,-2.030,-1.470
1743950978.941820,-0.027,0.844,0.589,1.260,-1.960,-1.750
1743950978.961820,-0.027,0.843,0.590,-0.280,-1.960,-2.520
1743950978.981820,-0.029,0.842,0.594,-1.050,-1.680,-2.730
1743950979.001820,-0.029,0.842,0.594,-0.770,-1.680,-2.590
1743950979.021820,-0.031,0.840,0.594,-0.490,-1.820,-2.030
1743950979.011528,-0.031,0.839,0.591,-0.070,-2.310,-0.980
1743950979.031528,-0.030,0.842,0.590,-0.420,-2.520,-0.980
1743950979.051528,-0.029,0.842,0.590,-1.120,-2.870,-0.420
1743950979.071528,-0.031,0.838,0.589,-2.100,-3.430,0.630
1743950979.091528,-0.033,0.836,0.591,-2.590,-4.200,1.960
1743950979.111528,-0.032,0.834,0.595,-1.330,-4.130,2.380
1743950979.071093,-0.027,0.843,0.595,-4.060,-2.660,-1.680
1743950979.091093,-0.034,0.837,0.600,-1.470,-2.940,0.140
1743950979.111093,-0.034,0.831,0.600,1.890,-3.430,1.050
1743950979.131093,-0.031,0.830,0.597,4.340,-3.710,2.100
1743950979.151093,-0.028,0.842,0.595,4.970,-3.570,2.100
1743950979.171093,-0.027,0.847,0.592,4.270,-3.500,1.750
1743950979.161084,-0.026,0.840,0.590,0.140,-1.750,-2.660
1743950979.181084,-0.028,0.843,0.593,-0.770,-1.750,-2.240
1743950979.201084,-0.026,0.842,0.591,-1.540,-2.030,-1.610
1743950979.221084,-0.030,0.843,0.590,-2.450,-2.310,-0.980
1743950979.241084,-0.031,0.835,0.593,-3.010,-2.660,-0.560
1743950979.261084,-0.030,0.838,0.595,-2.380,-2.870,-0.210
1743950979.236084,-0.028,0.839,0.597,-1.960,-1.610,-2.870
1743950979.256084,-0.029,0.837,0.596,-2.310,-1.680,-2.870
1743950979.276084,-0.030,0.834,0.596,-2.310,-1.890,-2.310
1743950979.296084,-0.028,0.834,0.597,-1.120,-2.310,-1.330
1743950979.316084,-0.032,0.834,0.598,0.560,-2.870,0.070
1743950979.336084,-0.030,0.833,0.597,0.980,-3.150,0.700
1743950979.311041,-0.024,0.838,0.596,2.100,-3.010,0.280
1743950979.331041,-0.027,0.836,0.595,2.380,-3.150,0.420
1743950979.351041,-0.028,0.836,0.593,2.380,-3.150,0.770
1743950979.371041,-0.026,0.836,0.598,2.800,-3.430,1.190
1743950979.391041,-0.025,0.837,0.597,3.010,-3.430,1.400
1743950979.411041,-0.026,0.838,0.596,3.360,-3.500,1.540
1743950979.387310,-0.034,0.844,0.590,1.050,-2.030,-1.190
1743950979.407310,-0.026,0.838,0.591,0.420,-2.380,-1.470
1743950979.427310,-0.027,0.838,0.592,-0.140,-2.240,-1.610
1743950979.447310,-0.025,0.838,0.593,-0.350,-2.520,-0.700
1743950979.467310,-0.029,0.839,0.595,-0.140,-2.660,-0.420
1743950979.487310,-0.030,0.839,0.594,0.420,-2.660,0.000
1743950979.461119,-0.020,0.837,0.595,1.120,-2.590,-0.420
1743950979.481119,-0.024,0.842,0.593,0.980,-2.660,-0.560
1743950979.501119,-0.024,0.841,0.596,0.770,-2.590,-0.490
1743950979.521119,-0.025,0.837,0.596,0.910,-2.660,-0.420
1743950979.541119,-0.024,0.838,0.595,1.050,-2.590,-0.420
1743950979.561119,-0.024,0.841,0.596,0.910,-2.660,-0.140
1743950979.550842,-0.067,0.840,0.576,-17.080,-12.670,7.560
1743950979.570842,-0.013,0.827,0.592,-17.290,-15.540,6.930
1743950979.590842,-0.028,0.846,0.610,-14.420,-16.240,9.030
1743950979.610842,-0.023,0.844,0.610,-7.700,-11.760,11.200
1743950979.630842,-0.003,0.825,0.604,-0.560,-5.320,8.120
1743950979.650842,-0.004,0.816,0.604,0.630,-4.200,1.680
1743950979.627536,-0.027,0.847,0.604,15.680,-1.960,-8.260
1743950979.647536,-0.027,0.845,0.595,14.840,0.000,-6.090
1743950979.667536,-0.018,0.840,0.590,14.000,2.310,-5.530
1743950979.687536,-0.020,0.839,0.588,14.910,2.660,-5.460
1743950979.707536,-0.019,0.851,0.583,12.880,2.660,-5.390
1743950979.727536,-0.021,0.851,0.577,8.330,3.220,-5.670
1743950979.717645,-0.037,0.838,0.586,-6.440,-0.840,-6.580
1743950979.737645,-0.039,0.836,0.590,-5.600,-3.010,-3.710
1743950979.757645,-0.040,0.835,0.589,-3.500,-5.670,-0.280
1743950979.777645,-0.039,0.831,0.591,-2.380,-6.510,1.750
1743950979.797645,-0.037,0.835,0.592,-2.240,-5.950,3.290
1743950979.817645,-0.030,0.836,0.595,-2.240,-5.460,4.060
1743950979.807016,-0.025,0.840,0.598,2.590,-2.100,-1.540
1743950979.827016,-0.029,0.838,0.592,3.360,-2.100,-1.190
1743950979.847016,-0.028,0.841,0.590,3.640,-2.450,-0.630
1743950979.867016,-0.030,0.841,0.590,3.220,-2.590,-0.490
1743950979.887016,-0.029,0.845,0.590,3.080,-2.660,-0.210
1743950979.907016,-0.027,0.842,0.590,2.660,-2.730,-0.070
1743950979.911178,-0.029,0.842,0.590,-0.770,-2.660,-0.770
1743950979.931178,-0.025,0.843,0.591,-0.910,-2.660,-0.560
1743950979.951178,-0.027,0.841,0.593,-0.980,-2.660,-0.490
1743950979.971178,-0.025,0.841,0.592,-0.910,-2.730,-0.490
1743950979.991178,-0.026,0.842,0.595,-0.700,-2.730,-0.420
1743950980.011178,-0.025,0.842,0.595,-0.700,-2.660,-0.350
1743950979.987376,-0.025,0.841,0.592,0.420,-2.030,-1.610
1743950980.007376,-0.026,0.840,0.597,0.350,-1.960,-1.540
1743950980.027376,-0.026,0.840,0.593,0.560,-2.170,-1.190
1743950980.047376,-0.028,0.839,0.593,0.700,-2.450,-1.050
1743950980.067376,-0.026,0.841,0.592,0.560,-2.380,-0.770
1743950980.087376,-0.025,0.841,0.589,0.420,-2.450,-0.700
1743950980.061232,-0.027,0.842,0.594,0.280,-2.800,-0.070
1743950980.081232,-0.025,0.840,0.596,0.490,-2.660,-0.280
1743950980.101232,-0.025,0.842,0.595,0.910,-2.660,-0.700
1743950980.121232,-0.026,0.841,0.593,0.840,-2.380,-1.050
1743950980.141232,-0.025,0.844,0.594,0.910,-2.380,-1.330
1743950980.161232,-0.025,0.843,0.593,1.050,-2.100,-1.470
1743950980.151248,-0.025,0.840,0.593,0.980,-2.240,-1.050
1743950980.171248,-0.025,0.839,0.592,0.980,-2.380,-0.910
1743950980.191248,-0.027,0.840,0.592,1.120,-2.380,-0.840
1743950980.211248,-0.026,0.838,0.590,0.910,-2.450,-0.770
1743950980.231248,-0.025,0.838,0.592,0.560,-2.450,-0.910
1743950980.251248,-0.025,0.840,0.593,0.560,-2.520,-0.910
1743950980.241706,-0.029,0.841,0.594,1.260,-2.380,-0.700
1743950980.261706,-0.025,0.840,0.595,1.400,-2.450,-0.770
1743950980.281706,-0.028,0.840,0.594,1.400,-2.380,-0.840
1743950980.301706,-0.028,0.841,0.594,1.400,-2.240,-0.840
1743950980.321706,-0.025,0.841,0.593,1.470,-2.450,-0.840
1743950980.341706,-0.027,0.840,0.593,1.470,-2.520,-0.630
1743950980.330938,-0.026,0.842,0.591,2.380,-2.870,-0.140
1743950980.350938,-0.027,0.841,0.591,1.960,-2.800,-0.140
1743950980.370938,-0.025,0.843,0.592,1.680,-2.800,-0.140
1743950980.390938,-0.027,0.844,0.593,1.330,-2.800,0.000
1743950980.410938,-0.026,0.841,0.594,1.820,-2.940,-0.070
1743950980.430938,-0.028,0.842,0.590,1.820,-2.940,0.070
1743950980.420814,-0.023,0.842,0.592,1.050,-2.730,-0.140
1743950980.440814,-0.024,0.843,0.590,0.700,-2.800,-0.140
1743950980.460814,-0.026,0.842,0.593,0.490,-2.870,-0.210
1743950980.480814,-0.024,0.843,0.590,0.490,-2.870,-0.070
1743950980.500814,-0.025,0.841,0.592,0.210,-2.870,0.070
1743950980.520814,-0.025,0.842,0.591,0.070,-3.010,0.210
1743950980.524997,-0.022,0.843,0.594,1.330,-2.520,-0.700
1743950980.544997,-0.020,0.842,0.590,1.820,-2.170,-1.190
1743950980.564997,-0.021,0.842,0.596,1.680,-2.100,-1.540
1743950980.584997,-0.022,0.845,0.592,1.330,-2.170,-1.540
1743950980.604997,-0.022,0.843,0.593,1.190,-2.030,-1.890
1743950980.624997,-0.022,0.841,0.592,0.770,-1.890,-1.960
1743950980.616024,-0.029,0.842,0.592,-0.210,-1.680,-2.800
1743950980.636024,-0.027,0.840,0.587,-0.280,-1.680,-2.450
1743950980.656024,-0.030,0.840,0.590,-0.350,-1.960,-1.960
1743950980.676024,-0.028,0.840,0.590,-0.070,-2.170,-1.260
1743950980.696024,-0.027,0.840,0.592,-0.280,-2.310,-0.840
1743950980.716024,-0.031,0.837,0.593,-0.140,-2.520,-0.630
1743950980.706232,-0.027,0.840,0.595,-0.280,-2.800,-0.350
1743950980.726232,-0.024,0.841,0.597,0.280,-2.660,-0.280
1743950980.746232,-0.025,0.841,0.597,0.910,-2.800,-0.560
1743950980.766232,-0.024,0.840,0.596,1.260,-2.450,-0.910
1743950980.786232,-0.024,0.840,0.596,1.330,-2.240,-1.470
1743950980.806232,-0.024,0.841,0.595,1.330,-2.100,-1.540
1743950980.810054,-0.029,0.836,0.593,1.120,-2.380,-0.980
1743950980.830054,-0.028,0.840,0.592,1.190,-2.450,-0.630
1743950980.850054,-0.029,0.840,0.592,1.120,-2.590,-0.560
1743950980.870054,-0.029,0.841,0.594,0.980,-2.660,-0.490
1743950980.890054,-0.026,0.838,0.592,0.910,-2.660,-0.420
1743950980.910054,-0.028,0.835,0.592,0.840,-2.590,-0.420
1743950980.871746,-0.025,0.838,0.594,1.400,-2.450,-0.560
1743950980.891746,-0.025,0.840,0.594,1.610,-2.380,-0.910
1743950980.911746,-0.025,0.837,0.595,2.030,-2.310,-0.910
1743950980.931746,-0.028,0.838,0.592,2.100,-2.380,-0.700
1743950980.951746,-0.025,0.839,0.593,2.030,-2.380,-0.560
1743950980.971746,-0.025,0.841,0.595,2.730,-2.520,-0.350
1743950980.976175,-0.027,0.844,0.592,2.380,-3.220,0.560
1743950980.996175,-0.027,0.841,0.591,2.240,-3.290,0.910
1743950981.016175,-0.027,0.842,0.593,2.030,-3.430,1.050
1743950981.036175,-0.028,0.842,0.591,1.820,-3.430,1.050
1743950981.056175,-0.026,0.843,0.593,1.470,-3.360,1.120
1743950981.076175,-0.024,0.846,0.592,1.120,-3.360,0.980
1743950981.036555,-0.020,0.843,0.593,0.700,-2.310,-1.260
1743950981.056555,-0.023,0.843,0.593,0.700,-2.100,-1.610
1743950981.076555,-0.023,0.843,0.591,0.560,-1.960,-1.680
1743950981.096555,-0.023,0.840,0.593,0.350,-1.960,-1.960
1743950981.116555,-0.022,0.842,0.592,0.140,-1.960,-2.030
1743950981.136555,-0.021,0.840,0.593,0.070,-1.820,-2.100
1743950981.126625,-0.025,0.841,0.592,-1.050,-1.890,-2.030
1743950981.146625,-0.026,0.838,0.591,-0.770,-2.030,-1.750
1743950981.166625,-0.028,0.841,0.596,-0.630,-2.240,-1.680
1743950981.186625,-0.026,0.842,0.593,-0.630,-2.170,-1.540
1743950981.206625,-0.023,0.839,0.590,-0.490,-2.030,-1.470
1743950981.226625,-0.025,0.840,0.595,-0.420,-2.170,-1.470
1743950981.216001,-0.027,0.838,0.596,0.070,-2.590,-0.560
1743950981.236001,-0.028,0.841,0.598,0.140,-2.660,-0.420
1743950981.256001,-0.027,0.838,0.597,0.350,-2.590,-0.700
1743950981.276001,-0.027,0.837,0.596,0.420,-2.590,-0.770
1743950981.296001,-0.028,0.841,0.596,0.350,-2.450,-0.980
1743950981.316001,-0.025,0.841,0.597,0.350,-2.310,-1.120
1743950981.321104,-0.027,0.840,0.592,1.610,-2.100,-1.540
1743950981.341104,-0.029,0.839,0.592,1.610,-2.030,-1.260
1743950981.361104,-0.029,0.835,0.593,1.960,-2.240,-1.120
1743950981.381104,-0.028,0.835,0.593,2.590,-2.450,-0.840
1743950981.401104,-0.028,0.839,0.593,2.520,-2.590,-0.350
1743950981.421104,-0.027,0.837,0.595,1.960,-2.660,-0.280
1743950981.410819,-0.027,0.839,0.596,-0.770,-2.450,-0.560
1743950981.430819,-0.027,0.839,0.596,-0.700,-2.450,-0.630
1743950981.450819,-0.026,0.837,0.598,-0.070,-2.380,-0.770
1743950981.470819,-0.027,0.838,0.598,0.560,-2.380,-0.770
1743950981.490819,-0.026,0.837,0.598,0.840,-2.310,-0.980
1743950981.510819,-0.026,0.842,0.598,1.050,-2.170,-0.770
1743950981.488035,-0.028,0.838,0.596,2.380,-2.520,-0.490
1743950981.508035,-0.025,0.841,0.598,2.310,-2.590,-0.420
1743950981.528035,-0.027,0.842,0.594,2.240,-2.660,-0.350
1743950981.548035,-0.025,0.838,0.595,2.310,-2.730,-0.070
1743950981.568035,-0.027,0.839,0.595,2.240,-3.010,0.280
1743950981.588035,-0.027,0.842,0.593,2.170,-3.150,0.490
1743950981.576131,-0.027,0.840,0.591,2.380,-2.870,-0.070
1743950981.596131,-0.025,0.841,0.591,2.240,-2.730,-0.070
1743950981.616131,-0.025,0.842,0.592,1.890,-2.800,-0.350
1743950981.636131,-0.027,0.841,0.591,1.470,-2.940,-0.210
1743950981.656131,-0.025,0.841,0.590,0.840,-2.940,-0.070
1743950981.676131,-0.026,0.842,0.590,0.700,-3.150,0.140
1743950981.651102,-0.021,0.840,0.596,0.280,-2.030,-1.260
1743950981.671102,-0.024,0.842,0.596,0.420,-1.890,-1.750
1743950981.691102,-0.023,0.841,0.594,0.630,-1.890,-2.100
1743950981.711102,-0.023,0.842,0.595,0.490,-1.820,-2.100
1743950981.731102,-0.024,0.841,0.595,0.910,-1.750,-2.170
1743950981.751102,-0.024,0.839,0.595,1.260,-1.750,-1.960
1743950981.726309,-0.025,0.843,0.592,0.000,-1.750,-2.170
1743950981.746309,-0.026,0.843,0.594,-0.980,-1.610,-2.310
1743950981.766309,-0.025,0.840,0.592,-1.120,-1.610,-2.590
1743950981.786309,-0.028,0.841,0.593,-0.980,-1.400,-2.730
1743950981.806309,-0.029,0.839,0.594,-0.770,-1.400,-2.660
1743950981.826309,-0.029,0.840,0.597,-0.490,-1.470,-2.800
1743950981.844067,-0.030,0.837,0.594,0.980,-3.010,0.560
1743950981.864067,-0.030,0.838,0.594,1.190,-3.080,0.630
1743950981.884067,-0.030,0.840,0.597,1.400,-2.940,0.350
1743950981.904067,-0.029,0.842,0.597,1.960,-2.870,0.070
1743950981.924067,-0.028,0.839,0.592,2.030,-2.730,-0.280
1743950981.944067,-0.028,0.838,0.595,2.520,-2.800,-0.280
1743950981.919138,-0.027,0.840,0.593,2.240,-2.940,0.140
1743950981.939138,-0.027,0.839,0.592,1.820,-2.590,-0.350
1743950981.959138,-0.026,0.840,0.592,1.540,-2.660,-0.630
1743950981.979138,-0.025,0.842,0.590,1.400,-2.450,-0.770
1743950981.999138,-0.028,0.838,0.590,1.470,-2.520,-0.700
1743950982.019138,-0.026,0.839,0.589,1.470,-2.590,-0.420
1743950982.009202,-0.028,0.842,0.592,-1.050,-2.380,-1.190
1743950982.029202,-0.026,0.844,0.591,-1.330,-2.310,-1.470
1743950982.049202,-0.027,0.840,0.594,-1.330,-2.310,-1.400
1743950982.069202,-0.028,0.840,0.597,-0.910,-2.520,-1.120
1743950982.089202,-0.027,0.839,0.598,-0.210,-2.870,-0.280
1743950982.109202,-0.027,0.836,0.597,0.840,-3.080,0.280
1743950982.085938,-0.023,0.844,0.594,1.050,-1.960,-1.750
1743950982.105938,-0.021,0.842,0.593,0.490,-1.610,-2.940
1743950982.125938,-0.025,0.840,0.591,-0.630,-1.400,-3.290
1743950982.145938,-0.028,0.841,0.593,-0.770,-1.540,-2.940
1743950982.165938,-0.032,0.837,0.592,0.350,-1.820,-1.820
1743950982.185938,-0.033,0.835,0.592,1.890,-2.380,-0.770
1743950982.152870,-0.025,0.843,0.590,0.070,-2.590,-0.420
1743950982.172870,-0.024,0.843,0.595,-1.470,-2.380,-1.330
1743950982.192870,-0.024,0.842,0.592,-1.960,-2.380,-1.750
1743950982.212870,-0.026,0.842,0.593,-2.170,-2.310,-1.540
1743950982.232870,-0.027,0.840,0.595,-1.890,-2.380,-1.050
1743950982.252870,-0.029,0.840,0.594,-1.260,-2.590,-0.560
1743950982.221162,-0.025,0.841,0.596,1.400,-2.240,-1.260
1743950982.241162,-0.029,0.842,0.597,1.260,-2.100,-1.400
1743950982.261162,-0.022,0.839,0.596,1.330,-1.890,-1.890
1743950982.281162,-0.027,0.840,0.594,1.400,-1.890,-1.890
1743950982.301162,-0.026,0.838,0.594,1.330,-2.170,-1.680
1743950982.321162,-0.030,0.840,0.593,1.120,-2.170,-1.470
1743950982.339333,-0.028,0.841,0.590,1.190,-2.590,-0.420
1743950982.359333,-0.028,0.842,0.591,0.910,-2.380,-0.770
1743950982.379333,-0.026,0.839,0.592,0.910,-2.520,-0.910
1743950982.399333,-0.029,0.842,0.591,1.050,-2.380,-0.770
1743950982.419333,-0.027,0.841,0.591,1.120,-2.380,-0.770
1743950982.439333,-0.029,0.842,0.594,0.910,-2.520,-0.770
1743950982.416806,-0.028,0.842,0.592,0.560,-2.380,-1.120
1743950982.436806,-0.027,0.838,0.593,0.560,-2.310,-1.050
1743950982.456806,-0.027,0.839,0.596,0.840,-2.380,-1.050
1743950982.476806,-0.026,0.839,0.594,1.120,-2.310,-0.980
1743950982.496806,-0.026,0.838,0.593,1.190,-2.380,-0.980
1743950982.516806,-0.029,0.841,0.591,1.260,-2.590,-0.910
1743950982.518997,-0.027,0.844,0.592,0.140,-2.520,-0.910
1743950982.538997,-0.027,0.840,0.591,-0.070,-2.310,-1.190
1743950982.558997,-0.029,0.838,0.592,-0.070,-2.240,-1.190
1743950982.578997,-0.029,0.837,0.591,0.490,-2.310,-1.050
1743950982.598997,-0.030,0.839,0.594,1.050,-2.380,-0.910
1743950982.618997,-0.030,0.839,0.593,1.050,-2.730,-0.420
1743950982.612498,-0.027,0.841,0.590,0.350,-3.080,0.420
1743950982.632498,-0.024,0.843,0.593,-0.350,-3.150,0.420
1743950982.652498,-0.025,0.840,0.594,-0.280,-3.010,0.350
1743950982.672498,-0.023,0.839,0.595,0.700,-3.080,0.560
1743950982.692498,-0.024,0.840,0.595,1.960,-3.010,0.560
1743950982.712498,-0.025,0.839,0.591,2.240,-3.010,0.420
1743950982.670986,-0.027,0.842,0.595,1.260,-2.730,-0.420
1743950982.690986,-0.025,0.841,0.596,2.730,-2.800,-0.070
1743950982.710986,-0.024,0.836,0.595,3.290,-2.940,0.350
1743950982.730986,-0.026,0.842,0.593,3.640,-2.870,0.350
1743950982.750986,-0.024,0.842,0.592,2.940,-2.730,0.280
1743950982.770986,-0.024,0.844,0.587,1.820,-2.590,-0.350
1743950982.746577,-0.025,0.843,0.589,-1.680,-0.910,-4.130
1743950982.766577,-0.025,0.842,0.591,-2.100,-1.050,-3.850
1743950982.786577,-0.027,0.840,0.594,-1.890,-1.330,-3.010
1743950982.806577,-0.031,0.838,0.594,-1.190,-1.890,-1.960
1743950982.826577,-0.028,0.839,0.595,-0.420,-2.310,-0.770
1743950982.846577,-0.030,0.836,0.594,1.050,-2.520,-0.350
1743950982.835836,-0.029,0.843,0.594,-0.700,-2.170,-1.680
1743950982.855836,-0.030,0.838,0.597,-0.070,-2.520,-0.980
1743950982.875836,-0.032,0.839,0.594,0.140,-2.800,0.350
1743950982.895836,-0.031,0.838,0.591,0.700,-3.220,1.050
1743950982.915836,-0.030,0.838,0.595,1.680,-3.500,1.540
1743950982.935836,-0.029,0.840,0.598,2.870,-3.430,1.470
1743950982.926721,-0.028,0.837,0.590,1.540,-2.030,-1.470
1743950982.946721,-0.029,0.839,0.591,2.170,-2.240,-0.700
1743950982.966721,-0.028,0.840,0.592,2.940,-2.380,-0.420
1743950982.986721,-0.026,0.841,0.591,2.800,-2.310,-0.700
1743950983.006721,-0.026,0.843,0.590,2.240,-2.240,-1.120
1743950983.026721,-0.027,0.844,0.590,1.540,-1.960,-1.820
1743950983.001650,-0.030,0.843,0.593,1.400,-2.240,-0.840
1743950983.021650,-0.028,0.840,0.593,1.610,-2.380,-0.490
1743950983.041650,-0.029,0.839,0.591,1.470,-2.380,-0.560
1743950983.061650,-0.028,0.841,0.592,1.120,-2.240,-0.910
1743950983.081650,-0.027,0.842,0.590,0.840,-2.030,-1.400
1743950983.101650,-0.027,0.845,0.592,-0.070,-1.890,-1.960
1743950983.121084,-0.028,0.842,0.595,0.980,-2.730,0.000
1743950983.141084,-0.029,0.843,0.593,0.700,-2.520,-0.700
1743950983.161084,-0.027,0.841,0.591,-0.070,-2.240,-1.540
1743950983.181084,-0.029,0.843,0.592,-0.420,-2.030,-1.820
1743950983.201084,-0.030,0.841,0.594,-0.490,-2.100,-1.680
1743950983.221084,-0.031,0.839,0.593,-0.280,-2.170,-1.400
1743950983.210920,-0.028,0.841,0.595,0.420,-2.660,-0.280
1743950983.230920,-0.030,0.842,0.594,0.350,-2.450,-0.700
1743950983.250920,-0.028,0.837,0.594,0.210,-2.240,-1.190
1743950983.270920,-0.027,0.842,0.592,0.280,-2.030,-1.610
1743950983.290920,-0.029,0.842,0.594,-0.280,-2.100,-1.750
1743950983.310920,-0.029,0.841,0.594,-0.140,-2.030,-1.750
1743950983.258084,-0.028,0.843,0.592,-2.100,-0.910,-3.290
1743950983.278084,-0.029,0.842,0.596,-2.380,-0.840,-3.850
1743950983.298084,-0.032,0.838,0.597,-3.080,-0.560,-4.270
1743950983.318084,-0.030,0.840,0.595,-3.500,-0.490,-4.690
1743950983.338084,-0.034,0.839,0.596,-4.060,-0.420,-4.970
1743950983.358084,-0.034,0.839,0.597,-4.760,-0.210,-5.180
1743950983.374167,-0.037,0.839,0.602,-11.480,0.980,-8.470
1743950983.394167,-0.039,0.834,0.603,-11.760,1.190,-9.380
1743950983.414167,-0.038,0.836,0.604,-12.740,1.610,-10.080
1743950983.434167,-0.040,0.836,0.605,-14.280,2.380,-11.830
1743950983.454167,-0.039,0.840,0.607,-17.080,3.080,-13.860
1743950983.474167,-0.040,0.839,0.608,-19.530,3.990,-16.940
1743950983.451251,-0.059,0.831,0.618,-42.910,-4.550,-46.200
1743950983.471251,-0.053,0.827,0.617,-43.610,-7.840,-49.490
1743950983.491251,-0.071,0.819,0.623,-46.550,-9.450,-54.880
1743950983.511251,-0.094,0.811,0.631,-47.180,-13.020,-57.050
1743950983.531251,-0.104,0.810,0.648,-44.870,-19.320,-60.270
1743950983.551251,-0.101,0.805,0.643,-40.250,-25.480,-63.000
1743950983.555884,-0.117,0.773,0.792,-128.870,128.590,-32.970
1743950983.575884,-0.175,0.754,0.755,-109.060,119.490,-22.470
1743950983.595884,-0.173,0.754,0.694,-102.760,103.670,-25.900
1743950983.615884,-0.161,0.690,0.628,-91.350,82.740,-20.230
1743950983.635884,-0.163,0.660,0.604,-73.080,58.730,-11.060
1743950983.655884,-0.168,0.664,0.624,-57.960,48.090,-5.740
1743950983.618630,-0.273,0.672,0.752,-23.730,21.980,-0.560
1743950983.638630,-0.260,0.653,0.718,-16.940,17.150,1.190
1743950983.658630,-0.262,0.647,0.714,-7.840,4.410,2.940
1743950983.678630,-0.259,0.630,0.707,8.330,-11.690,5.250
1743950983.698630,-0.263,0.640,0.711,14.770,-15.470,7.140
1743950983.718630,-0.264,0.651,0.717,24.500,-25.270,7.140
1743950983.735522,-0.183,0.721,0.757,4.970,-2.380,2.870
1743950983.755522,-0.184,0.712,0.737,2.310,0.070,1.330
1743950983.775522,-0.189,0.709,0.727,0.490,0.210,0.560
1743950983.795522,-0.195,0.702,0.727,0.070,-1.190,0.140
1743950983.815522,-0.198,0.706,0.728,0.490,-1.820,-0.700
1743950983.835522,-0.195,0.712,0.734,0.630,-1.960,-1.120
1743950983.781275,-0.201,0.695,0.726,0.770,-2.800,-2.240
1743950983.801275,-0.201,0.697,0.732,1.820,-4.620,-1.120
1743950983.821275,-0.196,0.695,0.738,3.150,-5.320,-0.770
1743950983.841275,-0.193,0.698,0.735,3.220,-4.550,-0.420
1743950983.861275,-0.193,0.701,0.735,1.890,-3.850,-0.140
1743950983.881275,-0.193,0.704,0.737,0.630,-2.450,-0.070
1743950983.886107,-0.195,0.701,0.738,5.740,-4.970,6.160
1743950983.906107,-0.194,0.703,0.736,6.650,-5.180,6.160
1743950983.926107,-0.190,0.708,0.734,7.350,-5.810,5.390
1743950983.946107,-0.188,0.711,0.733,7.420,-6.020,4.340
1743950983.966107,-0.187,0.715,0.735,6.650,-5.740,3.220
1743950983.986107,-0.185,0.713,0.737,6.160,-5.320,1.890
1743950983.974904,-0.187,0.713,0.730,1.190,-1.400,-3.500
1743950983.994904,-0.192,0.710,0.729,0.770,-1.330,-3.710
1743950984.014904,-0.191,0.712,0.728,0.490,-1.470,-4.060
1743950984.034904,-0.192,0.712,0.727,-0.420,-1.610,-4.410
1743950984.054904,-0.193,0.710,0.729,-0.770,-1.680,-4.410
1743950984.074904,-0.192,0.707,0.728,-1.190,-1.890,-4.340
1743950984.051889,-0.191,0.698,0.732,0.560,-4.550,0.210
1743950984.071889,-0.191,0.705,0.730,1.190,-4.690,0.560
1743950984.091889,-0.189,0.707,0.730,1.260,-4.690,0.490
1743950984.111889,-0.190,0.707,0.732,1.400,-4.550,0.350
1743950984.131889,-0.188,0.705,0.733,1.470,-3.500,0.000
1743950984.151889,-0.185,0.707,0.738,1.190,-3.080,0.000
1743950984.111753,-0.190,0.709,0.731,3.360,-2.240,-1.120
1743950984.131753,-0.189,0.706,0.732,3.780,-2.030,-1.260
1743950984.151753,-0.187,0.706,0.732,4.270,-1.750,-2.170
1743950984.171753,-0.186,0.719,0.738,4.410,-0.630,-2.380
1743950984.191753,-0.194,0.717,0.728,0.770,0.770,-1.750
1743950984.211753,-0.191,0.705,0.720,1.890,-0.210,-1.260
1743950984.216219,-0.188,0.710,0.727,3.850,-4.970,2.520
1743950984.236219,-0.188,0.711,0.729,3.780,-5.110,2.520
1743950984.256219,-0.189,0.712,0.725,2.800,-5.180,2.380
1743950984.276219,-0.188,0.714,0.726,2.240,-5.250,2.240
1743950984.296219,-0.187,0.711,0.725,2.310,-5.320,2.100
1743950984.316219,-0.186,0.712,0.731,2.870,-5.320,2.030
1743950984.291305,-0.183,0.714,0.727,3.780,-3.990,0.770
1743950984.311305,-0.182,0.718,0.729,3.360,-3.920,0.210
1743950984.331305,-0.184,0.719,0.729,2.870,-3.990,-0.630
1743950984.351305,-0.183,0.716,0.730,2.590,-3.780,-0.910
1743950984.371305,-0.181,0.720,0.725,1.890,-3.290,-1.610
1743950984.391305,-0.181,0.718,0.729,1.260,-3.010,-2.100
1743950984.381328,-0.186,0.714,0.725,-0.140,-0.700,-1.680
1743950984.401328,-0.186,0.712,0.725,-0.490,-0.560,-1.330
1743950984.421328,-0.186,0.715,0.724,-0.420,-0.910,-1.190
1743950984.441328,-0.187,0.712,0.723,0.070,-1.120,-0.980
1743950984.461328,-0.186,0.713,0.725,-0.070,-1.120,-1.120
1743950984.481328,-0.184,0.717,0.728,-0.350,-0.840,-1.260
1743950984.456229,-0.186,0.713,0.724,-1.750,-3.850,-2.870
1743950984.476229,-0.186,0.713,0.724,-1.050,-5.110,-3.080
1743950984.496229,-0.184,0.713,0.722,0.000,-5.530,-3.500
1743950984.516229,-0.184,0.717,0.728,0.000,-5.880,-4.270
1743950984.536229,-0.182,0.712,0.727,0.700,-5.950,-4.550
1743950984.556229,-0.183,0.712,0.731,0.910,-5.460,-4.830
1743950984.560227,-0.193,0.701,0.721,4.760,-3.500,2.310
1743950984.580227,-0.189,0.704,0.721,4.830,-4.760,3.850
1743950984.600227,-0.192,0.702,0.723,6.440,-5.670,4.760
1743950984.620227,-0.187,0.705,0.723,7.770,-6.510,6.090
1743950984.640227,-0.185,0.712,0.726,7.980,-6.230,6.860
1743950984.660227,-0.184,0.713,0.725,7.140,-5.740,6.580
1743950984.649787,-0.176,0.728,0.727,0.700,-3.220,1.610
1743950984.669787,-0.175,0.722,0.725,-0.350,-2.940,1.050
1743950984.689787,-0.175,0.725,0.728,-1.050,-2.520,-0.350
1743950984.709787,-0.176,0.723,0.729,-1.680,-2.240,-1.120
1743950984.729787,-0.176,0.724,0.727,-1.890,-2.030,-1.890
1743950984.749787,-0.175,0.719,0.727,-1.960,-1.960,-2.380
1743950984.712406,-0.178,0.713,0.730,-2.590,0.000,-5.040
1743950984.732406,-0.172,0.729,0.726,-4.760,0.000,-3.290
1743950984.752406,-0.193,0.700,0.717,-5.530,-1.680,-3.710
1743950984.772406,-0.180,0.704,0.726,0.980,-2.240,-4.410
1743950984.792406,-0.187,0.720,0.730,-1.890,-1.680,-3.150
1743950984.812406,-0.185,0.716,0.730,-2.310,-1.470,-1.960
1743950984.802363,-0.180,0.715,0.731,3.430,-3.570,0.700
1743950984.822363,-0.180,0.717,0.732,3.360,-3.150,0.630
1743950984.842363,-0.181,0.715,0.728,3.850,-2.940,0.000
1743950984.862363,-0.177,0.716,0.728,3.640,-2.520,-0.210
1743950984.882363,-0.178,0.719,0.728,3.220,-1.960,-0.840
1743950984.902363,-0.178,0.717,0.728,3.150,-1.750,-1.330
1743950984.892308,-0.183,0.716,0.725,2.590,-2.660,-2.800
1743950984.912308,-0.184,0.722,0.725,1.260,-2.660,-3.010
1743950984.932308,-0.181,0.718,0.725,0.420,-2.310,-3.150
1743950984.952308,-0.185,0.717,0.723,-0.490,-1.890,-3.080
1743950984.972308,-0.185,0.718,0.723,-1.750,-1.680,-3.150
1743950984.992308,-0.182,0.715,0.724,-1.960,-1.330,-3.010
1743950984.966708,-0.187,0.712,0.726,-1.050,-1.050,-1.120
1743950984.986708,-0.184,0.711,0.725,-0.350,-1.890,-0.840
1743950985.006708,-0.185,0.712,0.725,0.420,-2.940,-0.420
1743950985.026708,-0.187,0.711,0.725,0.910,-3.010,-0.140
1743950985.046708,-0.186,0.708,0.727,2.240,-3.990,0.210
1743950985.066708,-0.185,0.712,0.726,2.870,-4.690,0.700
1743950985.041563,-0.181,0.716,0.723,8.050,-8.190,2.520
1743950985.061563,-0.180,0.722,0.724,6.930,-7.770,1.610
1743950985.081563,-0.178,0.725,0.727,4.830,-6.230,0.840
1743950985.101563,-0.173,0.725,0.727,3.780,-4.480,0.280
1743950985.121563,-0.177,0.722,0.725,2.170,-4.200,0.070
1743950985.141563,-0.177,0.718,0.723,1.890,-3.780,0.140
1743950985.130969,-0.170,0.722,0.723,9.870,-12.320,2.240
1743950985.150969,-0.169,0.727,0.724,8.820,-11.130,1.680
1743950985.170969,-0.165,0.729,0.729,5.950,-8.330,0.630
1743950985.190969,-0.166,0.732,0.727,5.320,-6.230,0.000
1743950985.210969,-0.164,0.731,0.727,3.430,-5.180,-0.560
1743950985.230969,-0.167,0.726,0.723,2.660,-4.760,-0.560
1743950985.234406,-0.168,0.719,0.714,16.310,-17.710,3.990
1743950985.254406,-0.163,0.731,0.720,15.680,-17.150,3.920
1743950985.274406,-0.162,0.735,0.721,14.980,-15.750,3.920
1743950985.294406,-0.161,0.734,0.721,14.140,-14.070,3.710
1743950985.314406,-0.160,0.732,0.711,14.490,-14.490,4.200
1743950985.334406,-0.162,0.724,0.703,15.890,-34.790,5.110
1743950985.296063,-0.142,0.741,0.691,45.360,-46.060,14.490
1743950985.316063,-0.138,0.747,0.691,48.020,-46.690,15.260
1743950985.336063,-0.127,0.754,0.686,48.720,-46.970,17.710
1743950985.356063,-0.125,0.760,0.685,48.720,-47.110,20.090
1743950985.376063,-0.115,0.765,0.684,49.420,-47.110,22.330
1743950985.396063,-0.101,0.772,0.683,49.000,-46.900,23.590
1743950985.385927,-0.061,0.789,0.664,31.570,-21.560,33.180
1743950985.405927,-0.048,0.798,0.664,32.060,-15.050,33.740
1743950985.425927,-0.045,0.809,0.661,32.060,-9.450,33.390
1743950985.445927,-0.039,0.818,0.654,30.100,-1.540,31.570
1743950985.465927,-0.038,0.819,0.647,28.490,3.500,29.610
1743950985.485927,-0.038,0.822,0.641,27.090,6.230,27.720
1743950985.461116,-0.043,0.828,0.619,31.640,0.840,31.780
1743950985.481116,-0.040,0.836,0.614,30.730,0.350,33.530
1743950985.501116,-0.031,0.838,0.607,26.810,1.260,34.650
1743950985.521116,-0.025,0.839,0.608,24.360,2.590,35.140
1743950985.541116,-0.016,0.836,0.604,21.560,5.460,35.140
1743950985.561116,-0.016,0.839,0.605,21.280,7.840,35.350
1743950985.551532,-0.002,0.839,0.587,9.100,24.010,24.010
1743950985.571532,0.000,0.833,0.602,10.220,21.070,21.280
1743950985.591532,-0.010,0.833,0.610,13.300,14.070,20.370
1743950985.611532,-0.013,0.831,0.616,15.330,7.980,19.040
1743950985.631532,-0.008,0.833,0.614,18.340,3.920,18.760
1743950985.651532,-0.004,0.834,0.607,20.160,-2.380,16.660
1743950985.640942,0.013,0.849,0.575,3.430,-3.850,1.820
1743950985.660942,0.014,0.850,0.580,2.100,-3.010,-17.570
1743950985.680942,0.016,0.847,0.578,1.960,-2.450,-1.610
1743950985.700942,0.016,0.846,0.580,2.380,-1.260,-2.100
1743950985.720942,0.016,0.844,0.575,2.380,0.210,-3.990
1743950985.740942,0.014,0.846,0.574,0.490,1.610,-4.970
1743950985.732843,0.009,0.846,0.585,-4.620,0.070,-3.080
1743950985.752843,0.008,0.843,0.583,-3.710,0.140,-3.710
1743950985.772843,0.007,0.843,0.585,-2.520,0.280,-4.620
1743950985.792843,0.009,0.844,0.586,-2.030,0.560,-4.690
1743950985.812843,0.003,0.844,0.583,-1.960,0.210,-4.130
1743950985.832843,0.000,0.844,0.586,-1.820,-0.210,-3.780
1743950985.849318,0.004,0.847,0.585,1.260,-1.120,-0.490
1743950985.869318,0.001,0.847,0.587,0.700,-1.470,-0.490
1743950985.889318,-0.000,0.846,0.589,0.700,-2.520,-0.350
1743950985.909318,0.001,0.844,0.587,0.630,-2.660,0.280
1743950985.929318,0.001,0.845,0.584,0.420,-2.800,0.700
1743950985.949318,0.001,0.848,0.585,-0.560,-2.800,1.050
1743950985.880860,0.004,0.841,0.590,-4.060,-2.870,3.500
1743950985.900860,0.005,0.838,0.590,-2.240,-2.800,1.890
1743950985.920860,0.008,0.840,0.593,-0.490,-2.660,-0.070
1743950985.940860,0.007,0.838,0.592,0.910,-2.380,-1.400
1743950985.960860,0.006,0.841,0.591,1.470,-2.240,-2.030
1743950985.980860,0.005,0.845,0.592,1.750,-1.960,-2.380
1743950985.970939,0.009,0.841,0.590,0.560,-2.030,-1.960
1743950985.990939,0.009,0.842,0.590,1.260,-1.960,-2.450
1743950986.010939,0.007,0.840,0.590,1.610,-1.680,-3.010
1743950986.030939,0.008,0.843,0.589,1.610,-1.540,-3.290
1743950986.050939,0.005,0.842,0.588,1.050,-1.680,-2.800
1743950986.070939,0.003,0.843,0.587,0.770,-1.750,-2.100
1743950986.060990,0.005,0.840,0.590,0.490,-1.890,-2.170
1743950986.080990,0.004,0.842,0.592,0.700,-1.750,-2.310
1743950986.100990,0.002,0.841,0.594,0.840,-1.680,-2.170
1743950986.120990,0.003,0.844,0.590,0.700,-2.030,-1.680
1743950986.140990,-0.000,0.843,0.591,0.490,-2.380,-0.980
1743950986.160990,0.000,0.844,0.591,0.630,-2.380,-0.210
1743950986.139678,0.003,0.844,0.591,0.630,-2.100,-1.820
1743950986.159678,0.005,0.840,0.590,0.700,-1.890,-2.030
1743950986.179678,0.001,0.842,0.590,0.490,-1.960,-2.030
1743950986.199678,0.004,0.844,0.589,0.280,-1.750,-2.030
1743950986.219678,0.001,0.846,0.588,-1.750,-1.540,-1.680
1743950986.239678,0.002,0.845,0.589,-2.450,-1.540,-0.840
1743950986.211214,0.003,0.842,0.594,0.840,-2.660,-0.210
1743950986.231214,0.001,0.838,0.593,0.840,-2.800,0.070
1743950986.251214,0.001,0.839,0.591,0.840,-3.010,0.560
1743950986.271214,0.003,0.841,0.591,0.630,-3.010,0.980
1743950986.291214,0.001,0.842,0.591,0.490,-3.010,0.980
1743950986.311214,0.004,0.839,0.590,0.070,-2.940,0.980
1743950986.302107,0.002,0.845,0.593,-5.320,-3.220,4.830
1743950986.322107,0.006,0.844,0.594,-6.230,-2.940,4.830
1743950986.342107,0.006,0.840,0.596,-6.790,-2.730,4.340
1743950986.362107,0.007,0.834,0.598,-6.160,-2.520,4.130
1743950986.382107,0.006,0.831,0.603,-3.780,-2.730,3.010
1743950986.402107,0.006,0.832,0.602,-0.980,-2.940,1.540
1743950986.376050,0.007,0.839,0.598,2.100,-2.590,-1.400
1743950986.396050,0.006,0.839,0.599,2.170,-2.450,-1.330
1743950986.416050,0.010,0.838,0.595,2.380,-2.380,-1.680
1743950986.436050,0.010,0.838,0.596,2.450,-2.310,-2.100
1743950986.456050,0.010,0.840,0.598,2.240,-2.100,-2.520
1743950986.476050,0.011,0.840,0.593,2.030,-1.890,-2.800
1743950986.466086,0.006,0.838,0.597,0.280,-2.240,-1.190
1743950986.486086,0.007,0.836,0.599,1.050,-2.380,-0.910
1743950986.506086,0.007,0.837,0.600,1.330,-2.520,-0.840
1743950986.526086,0.006,0.837,0.596,1.330,-2.590,-0.630
1743950986.546086,0.008,0.839,0.597,1.120,-2.520,-0.630
1743950986.566086,0.006,0.838,0.595,0.630,-2.520,-0.280
1743950986.542661,0.006,0.841,0.599,-0.840,-2.310,-0.490
1743950986.562661,0.005,0.838,0.596,-0.980,-2.380,0.070
1743950986.582661,0.006,0.838,0.599,-0.910,-2.450,0.140
1743950986.602661,0.005,0.839,0.596,-1.400,-2.450,0.350
1743950986.622661,0.007,0.841,0.600,-1.680,-2.380,0.560
1743950986.642661,0.007,0.838,0.598,-2.450,-2.240,0.490
1743950986.660924,0.007,0.835,0.600,1.050,-1.890,-2.170
1743950986.680924,0.007,0.836,0.600,1.120,-1.960,-2.030
1743950986.700924,0.004,0.835,0.601,1.120,-1.890,-1.960
1743950986.720924,0.006,0.839,0.600,1.190,-2.100,-1.680
1743950986.740924,0.003,0.838,0.600,1.120,-2.170,-1.470
1743950986.760924,0.004,0.837,0.600,1.120,-2.100,-1.540
1743950986.707388,0.008,0.835,0.594,-0.420,-2.450,-0.210
1743950986.727388,0.004,0.838,0.597,-0.630,-2.450,0.420
1743950986.747388,0.003,0.834,0.600,-0.910,-2.660,0.490
1743950986.767388,0.004,0.836,0.600,-1.190,-2.660,0.700
1743950986.787388,0.004,0.834,0.600,-1.260,-2.520,0.490
1743950986.807388,0.005,0.832,0.600,-1.050,-2.380,0.210
1743950986.796882,0.008,0.837,0.603,-0.280,-2.870,0.980
1743950986.816882,0.008,0.837,0.600,-0.350,-2.800,0.700
1743950986.836882,0.009,0.835,0.601,-0.140,-2.520,0.070
1743950986.856882,0.010,0.835,0.603,0.000,-2.450,-0.280
1743950986.876882,0.009,0.834,0.601,-0.070,-2.380,-0.560
1743950986.896882,0.008,0.835,0.602,0.560,-2.240,-0.770
1743950986.886116,0.008,0.831,0.600,2.800,-1.610,-3.500
1743950986.906116,0.007,0.834,0.600,3.500,-1.750,-3.290
1743950986.926116,0.005,0.838,0.599,3.080,-1.820,-3.150
1743950986.946116,0.003,0.838,0.595,1.260,-2.030,-1.400
1743950986.966116,0.001,0.838,0.596,0.210,-2.590,0.140
1743950986.986116,0.002,0.840,0.602,-0.210,-2.800,1.400
1743950986.990983,0.004,0.834,0.605,-7.350,-2.660,3.990
1743950987.010983,0.007,0.833,0.608,-6.930,-2.870,4.480
1743950987.030983,0.007,0.830,0.606,-6.440,-2.870,4.410
1743950987.050983,0.008,0.828,0.605,-5.530,-2.940,3.990
1743950987.070983,0.007,0.825,0.612,-3.990,-3.080,3.570
1743950987.090983,0.014,0.821,0.614,-1.330,-3.150,1.890
1743950987.081184,0.011,0.833,0.609,3.290,-2.660,-1.960
1743950987.101184,0.013,0.835,0.607,3.080,-2.590,-1.680
1743950987.121184,0.014,0.834,0.604,2.450,-2.310,-1.750
1743950987.141184,0.014,0.833,0.604,1.960,-2.170,-1.820
1743950987.161184,0.014,0.833,0.605,1.820,-1.750,-2.450
1743950987.181184,0.014,0.829,0.605,1.680,-1.330,-3.290
1743950987.171037,0.007,0.832,0.605,-0.140,-1.050,-2.940
1743950987.191037,0.006,0.832,0.605,-0.280,-1.330,-2.450
1743950987.211037,0.007,0.832,0.602,-0.490,-1.540,-1.890
1743950987.231037,0.004,0.830,0.603,-0.700,-1.540,-1.540
1743950987.251037,0.005,0.834,0.605,-1.540,-1.540,-1.260
1743950987.271037,0.005,0.832,0.607,-1.750,-1.960,-0.490
1743950987.245612,0.008,0.830,0.613,-0.280,-2.730,0.000
1743950987.265612,0.006,0.826,0.610,0.770,-2.730,-0.140
1743950987.285612,0.008,0.826,0.610,1.400,-2.730,-0.280
1743950987.305612,0.010,0.827,0.610,1.610,-2.800,-0.630
1743950987.325612,0.006,0.831,0.611,1.820,-2.940,-0.420
1743950987.345612,0.006,0.830,0.604,1.890,-2.660,-0.070
1743950987.321491,0.008,0.833,0.611,1.820,-2.940,-0.560
1743950987.341491,0.009,0.833,0.608,2.170,-2.870,-0.700
1743950987.361491,0.008,0.831,0.604,1.540,-2.590,-0.980
1743950987.381491,0.010,0.832,0.608,0.910,-2.100,-1.470
1743950987.401491,0.010,0.834,0.610,0.910,-1.960,-1.820
1743950987.421491,0.008,0.834,0.609,0.910,-1.890,-2.030
1743950987.410722,0.007,0.831,0.608,-0.350,-2.380,-0.350
1743950987.430722,0.005,0.828,0.609,-0.140,-2.450,-0.420
1743950987.450722,0.008,0.831,0.607,-0.210,-2.450,-0.420
1743950987.470722,0.006,0.830,0.606,-0.350,-2.450,-0.210
1743950987.490722,0.008,0.831,0.610,-0.280,-2.450,-0.070
1743950987.510722,0.008,0.827,0.609,0.630,-2.800,-0.210
1743950987.501224,0.008,0.830,0.606,1.890,-2.730,-0.420
1743950987.521224,0.008,0.827,0.603,1.750,-2.730,-0.490
1743950987.541224,0.009,0.834,0.608,1.610,-2.520,-0.700
1743950987.561224,0.009,0.832,0.608,1.750,-2.450,-1.190
1743950987.581224,0.009,0.830,0.608,2.030,-1.960,-1.890
1743950987.601224,0.012,0.826,0.605,2.870,-1.750,-2.310
1743950987.591841,0.006,0.832,0.607,-0.560,-2.170,-0.280
1743950987.611841,0.007,0.830,0.608,0.420,-2.450,-0.420
1743950987.631841,0.006,0.830,0.606,0.770,-2.590,-0.490
1743950987.651841,0.009,0.830,0.606,0.840,-2.380,-1.050
1743950987.671841,0.006,0.830,0.607,0.700,-2.170,-1.470
1743950987.691841,0.006,0.832,0.606,0.700,-2.030,-1.610
1743950987.681342,0.008,0.830,0.610,1.260,-1.890,-1.890
1743950987.701342,0.005,0.834,0.609,1.680,-2.030,-2.310
1743950987.721342,0.006,0.834,0.607,1.400,-1.890,-2.380
1743950987.741342,0.006,0.832,0.608,1.400,-1.960,-2.310
1743950987.761342,0.003,0.832,0.605,1.190,-1.960,-1.820
1743950987.781342,0.002,0.831,0.606,1.120,-2.100,-1.400
1743950987.756731,0.006,0.832,0.608,1.540,-2.170,-1.330
1743950987.776731,0.002,0.831,0.605,1.470,-2.240,-1.260
1743950987.796731,0.003,0.832,0.606,1.470,-2.450,-0.840
1743950987.816731,0.004,0.834,0.606,1.190,-2.590,-0.560
1743950987.836731,0.004,0.832,0.606,1.050,-2.520,-0.280
1743950987.856731,0.004,0.833,0.605,0.700,-2.590,-0.070
1743950987.861185,0.004,0.830,0.605,0.980,-2.590,-0.490
1743950987.881185,0.003,0.834,0.607,0.910,-2.520,-0.490
1743950987.901185,0.006,0.833,0.607,0.980,-2.730,-0.140
1743950987.921185,0.006,0.830,0.606,1.050,-2.590,-0.280
1743950987.941185,0.006,0.831,0.609,1.050,-2.590,-0.560
1743950987.961185,0.004,0.833,0.608,0.980,-2.520,-0.630
1743950987.935758,0.006,0.833,0.609,0.980,-2.450,-0.910
1743950987.955758,0.007,0.834,0.611,1.050,-2.590,-0.980
1743950987.975758,0.004,0.828,0.609,1.540,-2.380,-1.190
1743950987.995758,0.004,0.831,0.605,1.470,-2.310,-1.260
1743950988.015758,0.005,0.834,0.608,1.470,-2.240,-1.470
1743950988.035758,0.003,0.835,0.607,1.750,-2.310,-1.470
1743950988.011118,0.005,0.835,0.605,1.610,-2.100,-1.120
1743950988.031118,0.005,0.834,0.605,0.560,-2.100,-1.120
1743950988.051118,0.005,0.832,0.604,0.490,-2.100,-1.190
1743950988.071118,0.005,0.833,0.606,0.840,-2.240,-1.190
1743950988.091118,0.003,0.834,0.604,0.700,-2.240,-1.120
1743950988.111118,0.000,0.834,0.607,0.980,-2.240,-0.840
1743950988.100994,0.003,0.832,0.606,0.280,-2.310,-0.350
1743950988.120994,0.004,0.834,0.606,0.420,-2.590,-0.140
1743950988.140994,0.005,0.830,0.606,0.210,-2.450,-0.070
1743950988.160994,0.003,0.830,0.604,0.420,-2.520,-0.350
1743950988.180994,0.005,0.834,0.608,0.280,-2.380,-0.490
1743950988.200994,0.006,0.835,0.607,0.210,-2.310,-0.770
1743950988.193236,0.004,0.835,0.607,1.750,-2.310,-1.470
1743950988.213236,0.001,0.833,0.607,1.960,-2.310,-1.470
1743950988.233236,0.004,0.831,0.604,2.450,-2.380,-1.680
1743950988.253236,0.006,0.829,0.606,2.940,-1.610,-1.470
1743950988.273236,0.007,0.831,0.606,3.850,-1.190,-1.190
1743950988.293236,0.002,0.832,0.607,3.990,-1.260,-0.630
1743950988.281150,0.005,0.833,0.604,1.050,-2.590,-0.420
1743950988.301150,0.003,0.833,0.601,1.260,-2.660,-0.350
1743950988.321150,0.006,0.834,0.605,0.630,-2.520,-0.420
1743950988.341150,0.004,0.832,0.603,0.630,-2.520,-0.350
1743950988.361150,0.003,0.834,0.600,0.350,-2.520,-0.280
1743950988.381150,0.007,0.834,0.603,0.000,-2.450,-0.350
1743950988.356126,0.007,0.832,0.605,1.190,-2.450,-1.050
1743950988.376126,0.003,0.832,0.605,1.260,-2.310,-1.260
1743950988.396126,0.005,0.834,0.608,1.330,-2.450,-1.190
1743950988.416126,0.005,0.832,0.609,1.750,-2.450,-1.050
1743950988.436126,0.004,0.830,0.606,1.890,-2.450,-0.980
1743950988.456126,0.004,0.835,0.606,2.240,-2.520,-0.840
1743950988.461964,-0.000,0.838,0.603,3.010,-2.240,-0.910
1743950988.481964,-0.000,0.836,0.601,2.520,-2.310,-0.560
1743950988.501964,0.001,0.837,0.601,1.190,-2.590,-0.210
1743950988.521964,0.003,0.835,0.601,0.420,-2.520,-0.560
1743950988.541964,0.001,0.834,0.603,0.070,-2.380,-0.630
1743950988.561964,0.001,0.837,0.605,0.140,-2.520,-0.560
1743950988.537798,0.004,0.832,0.603,-0.420,-2.100,-1.050
1743950988.557798,0.004,0.837,0.605,-0.630,-2.100,-1.050
1743950988.577798,0.004,0.835,0.601,-0.630,-2.170,-0.980
1743950988.597798,0.002,0.834,0.603,-0.490,-2.170,-1.050
1743950988.617798,0.002,0.834,0.602,-0.560,-2.170,-0.980
1743950988.637798,0.001,0.834,0.606,-0.630,-2.030,-0.980
1743950988.626118,0.000,0.832,0.602,-0.840,-2.240,-0.770
1743950988.646118,-0.000,0.832,0.603,-0.840,-2.240,-0.630
1743950988.666118,0.001,0.832,0.605,-0.770,-2.310,-0.210
1743950988.686118,0.001,0.833,0.604,-0.140,-2.450,-0.350
1743950988.706118,0.002,0.830,0.606,0.350,-2.450,-0.420
1743950988.726118,0.004,0.833,0.609,0.630,-2.380,-0.700
1743950988.745720,-0.000,0.836,0.601,-0.700,-2.170,-0.700
1743950988.765720,0.002,0.834,0.605,-1.120,-2.170,-0.490
1743950988.785720,0.002,0.833,0.605,-1.330,-2.030,-0.280
1743950988.805720,0.001,0.834,0.604,-1.680,-2.030,-0.280
1743950988.825720,0.000,0.834,0.607,-2.450,-1.820,-0.140
1743950988.845720,0.001,0.830,0.606,-1.540,-2.030,-0.140
1743950988.791705,0.001,0.825,0.610,2.940,-2.800,-0.980
1743950988.811705,0.004,0.828,0.607,3.360,-2.940,-1.330
1743950988.831705,0.003,0.829,0.609,2.870,-2.450,-1.820
1743950988.851705,0.000,0.834,0.610,3.430,-2.310,-2.240
1743950988.871705,0.001,0.834,0.612,3.710,-2.310,-2.030
1743950988.891705,0.001,0.832,0.607,4.130,-2.450,-1.680
1743950988.894567,0.000,0.832,0.603,2.870,-2.100,-1.050
1743950988.914567,-0.003,0.837,0.604,2.030,-2.590,-0.840
1743950988.934567,-0.001,0.838,0.604,1.190,-2.800,0.070
1743950988.954567,-0.004,0.836,0.600,0.140,-3.290,1.330
1743950988.974567,-0.001,0.835,0.597,-0.980,-3.640,2.380
1743950988.994567,-0.004,0.834,0.601,-1.750,-3.570,3.500
1743950988.971649,0.003,0.834,0.610,2.310,-1.890,-2.520
1743950988.991649,0.003,0.833,0.610,2.310,-1.960,-2.100
1743950989.011649,0.002,0.834,0.607,2.170,-2.100,-1.890
1743950989.031649,0.004,0.834,0.607,1.400,-2.100,-1.330
1743950989.051649,0.003,0.835,0.604,0.700,-2.170,-1.330
1743950989.071649,0.004,0.831,0.604,0.770,-2.240,-1.400
1743950989.062711,-0.001,0.834,0.604,1.190,-2.380,-0.630
1743950989.082711,-0.001,0.832,0.603,1.050,-2.660,-0.210
1743950989.102711,-0.000,0.832,0.605,0.980,-2.730,0.000
1743950989.122711,0.000,0.831,0.608,1.050,-2.730,-0.140
1743950989.142711,0.002,0.834,0.603,0.840,-2.730,0.070
1743950989.162711,-0.001,0.832,0.603,-0.070,-2.730,0.140
1743950989.153473,0.005,0.830,0.609,1.610,-2.660,-0.910
1743950989.173473,0.003,0.833,0.605,1.470,-2.380,-1.050
1743950989.193473,0.002,0.833,0.607,1.260,-2.310,-1.050
1743950989.213473,0.001,0.830,0.610,0.980,-2.520,-0.630
1743950989.233473,0.004,0.830,0.605,1.050,-2.660,-0.490
1743950989.253473,0.005,0.834,0.607,0.840,-2.590,-0.350
1743950989.226084,0.002,0.832,0.605,0.490,-2.450,-0.700
1743950989.246084,0.004,0.830,0.607,0.700,-2.590,-0.560
1743950989.266084,0.000,0.833,0.606,1.190,-2.730,-0.420
1743950989.286084,0.004,0.835,0.606,0.700,-2.590,-0.490
1743950989.306084,0.004,0.833,0.607,0.630,-2.380,-0.840
1743950989.326084,0.005,0.829,0.606,0.630,-2.240,-1.120
1743950989.346185,0.001,0.832,0.607,0.980,-2.660,-0.350
1743950989.366185,0.004,0.829,0.605,1.050,-2.590,-0.560
1743950989.386185,0.002,0.834,0.606,0.910,-2.520,-0.560
1743950989.406185,0.002,0.834,0.607,0.840,-2.520,-0.770
1743950989.426185,0.004,0.830,0.607,0.980,-2.450,-0.700
1743950989.446185,0.005,0.830,0.605,1.050,-2.450,-0.560
1743950989.392781,0.007,0.830,0.606,1.190,-2.520,-0.770
1743950989.412781,0.004,0.830,0.606,1.260,-2.590,-0.770
1743950989.432781,0.000,0.833,0.606,1.260,-2.520,-0.700
1743950989.452781,0.005,0.833,0.605,1.470,-2.660,-0.770
1743950989.472781,0.005,0.830,0.605,1.470,-2.520,-0.840
1743950989.492781,0.004,0.831,0.607,1.400,-2.380,-1.050
1743950989.482590,0.003,0.829,0.603,1.190,-2.520,-0.700
1743950989.502590,-0.000,0.834,0.603,0.700,-2.520,-0.630
1743950989.522590,0.002,0.834,0.607,0.490,-2.660,-0.280
1743950989.542590,0.003,0.834,0.605,0.770,-2.730,-0.140
1743950989.562590,0.003,0.832,0.604,1.050,-2.730,-0.280
1743950989.582590,0.006,0.831,0.604,0.700,-2.660,-0.210
1743950989.570457,0.004,0.833,0.607,0.910,-2.590,-0.420
1743950989.590457,0.004,0.830,0.607,0.700,-2.590,-0.490
1743950989.610457,0.003,0.833,0.608,0.910,-2.520,-0.630
1743950989.630457,0.005,0.830,0.605,1.120,-2.450,-0.490
1743950989.650457,0.006,0.829,0.603,1.260,-2.310,-1.050
1743950989.670457,0.006,0.829,0.603,1.330,-2.240,-1.260
1743950989.647497,0.001,0.834,0.603,1.470,-2.730,-0.350
1743950989.667497,0.003,0.830,0.602,1.330,-2.730,-0.560
1743950989.687497,0.005,0.834,0.604,1.190,-2.590,-0.630
1743950989.707497,0.006,0.833,0.604,0.980,-2.380,-0.700
1743950989.727497,0.004,0.831,0.606,1.260,-2.450,-0.910
1743950989.747497,0.005,0.830,0.604,1.260,-2.450,-0.980
1743950989.736041,0.003,0.831,0.606,0.490,-2.730,-0.350
1743950989.756041,0.008,0.834,0.606,0.840,-2.590,-0.560
1743950989.776041,0.005,0.832,0.607,1.190,-2.380,-1.050
1743950989.796041,0.004,0.834,0.607,1.820,-2.310,-1.330
1743950989.816041,0.003,0.835,0.607,1.750,-2.450,-1.050
1743950989.836041,0.003,0.835,0.606,1.610,-2.660,-0.630
1743950989.841171,0.006,0.834,0.606,1.330,-2.520,-0.840
1743950989.861171,0.006,0.834,0.606,1.190,-2.450,-1.050
1743950989.881171,0.008,0.832,0.604,1.260,-2.380,-0.910
1743950989.901171,0.005,0.833,0.605,1.260,-2.450,-0.980
1743950989.921171,0.005,0.834,0.608,0.980,-2.450,-0.700
1743950989.941171,0.004,0.833,0.606,0.840,-2.520,-0.630
1743950989.945292,0.004,0.836,0.606,1.050,-2.450,-0.770
1743950989.965292,0.004,0.829,0.604,0.980,-2.590,-0.700
1743950989.985292,0.002,0.831,0.603,0.840,-2.450,-0.700
1743950990.005292,0.006,0.833,0.605,0.700,-2.520,-0.700
1743950990.025292,0.003,0.834,0.607,0.770,-2.380,-0.560
1743950990.045292,0.006,0.832,0.606,0.910,-2.520,-0.630
1743950990.006946,0.005,0.834,0.606,0.910,-2.380,-1.120
1743950990.026946,0.005,0.833,0.606,1.050,-2.240,-1.260
1743950990.046946,0.006,0.830,0.604,1.120,-1.960,-1.750
1743950990.066946,0.005,0.834,0.604,1.120,-2.030,-1.890
1743950990.086946,0.002,0.834,0.606,1.120,-1.960,-1.820
1743950990.106946,0.004,0.833,0.604,1.120,-1.960,-1.890
1743950990.081542,0.000,0.834,0.606,1.890,-2.100,-1.820
1743950990.101542,0.005,0.833,0.605,1.680,-2.170,-1.470
1743950990.121542,0.002,0.833,0.602,1.470,-2.240,-1.400
1743950990.141542,0.003,0.831,0.606,1.750,-2.240,-1.470
1743950990.161542,0.002,0.834,0.604,1.960,-2.170,-1.400
1743950990.181542,0.002,0.832,0.605,1.890,-2.240,-1.470
1743950990.155794,0.003,0.833,0.603,1.540,-2.520,-1.120
1743950990.175794,0.001,0.834,0.603,1.610,-2.380,-0.980
1743950990.195794,0.002,0.834,0.607,1.610,-2.380,-0.980
1743950990.215794,0.000,0.834,0.608,1.610,-2.520,-1.120
1743950990.235794,0.002,0.835,0.602,1.820,-2.520,-1.190
1743950990.255794,0.000,0.835,0.604,1.820,-2.380,-1.330
1743950990.245908,0.003,0.835,0.600,1.820,-1.610,-2.520
1743950990.265908,-0.000,0.835,0.596,0.700,-1.540,-2.590
1743950990.285908,0.000,0.836,0.599,-0.140,-1.400,-2.310
1743950990.305908,-0.002,0.833,0.603,0.210,-1.470,-2.030
1743950990.325908,-0.002,0.833,0.605,1.120,-2.030,-1.820
1743950990.345908,0.000,0.833,0.604,1.680,-1.890,-1.820
1743950990.334477,-0.002,0.835,0.603,0.980,-2.310,-0.770
1743950990.354477,-0.002,0.836,0.606,0.770,-2.590,-0.490
1743950990.374477,-0.002,0.836,0.602,0.840,-2.590,-0.420
1743950990.394477,-0.002,0.834,0.601,0.840,-2.520,-0.490
1743950990.414477,0.001,0.835,0.603,0.980,-2.520,-0.700
1743950990.434477,0.000,0.837,0.602,1.260,-2.590,-0.840
1743950990.426762,0.001,0.836,0.603,0.910,-2.450,-0.910
1743950990.446762,0.000,0.835,0.604,0.840,-2.520,-0.700
1743950990.466762,0.000,0.833,0.600,0.980,-2.380,-0.840
1743950990.486762,0.002,0.835,0.598,0.840,-2.380,-0.980
1743950990.506762,-0.002,0.835,0.602,0.840,-2.310,-0.840
1743950990.526762,-0.002,0.834,0.603,0.910,-2.380,-0.980
1743950990.501193,-0.002,0.835,0.601,0.980,-2.450,-0.840
1743950990.521193,-0.001,0.834,0.600,1.050,-2.520,-0.840
1743950990.541193,0.000,0.832,0.600,1.120,-2.240,-1.190
1743950990.561193,-0.003,0.836,0.604,1.050,-2.100,-1.330
1743950990.581193,0.000,0.834,0.604,1.190,-2.240,-1.190
1743950990.601193,0.000,0.833,0.601,1.330,-2.240,-1.260
1743950990.591438,-0.001,0.838,0.602,0.420,-2.450,-0.350
1743950990.611438,-0.003,0.836,0.604,0.910,-2.590,-0.350
1743950990.631438,-0.002,0.830,0.599,1.050,-2.520,-0.560
1743950990.651438,-0.000,0.833,0.600,1.050,-2.520,-0.630
1743950990.671438,-0.003,0.836,0.603,1.120,-2.590,-0.630
1743950990.691438,-0.002,0.834,0.602,1.260,-2.590,-0.560
1743950990.681534,0.000,0.834,0.598,0.700,-2.450,-0.770
1743950990.701534,-0.002,0.837,0.603,0.770,-2.450,-0.700
1743950990.721534,-0.002,0.835,0.600,0.910,-2.590,-0.490
1743950990.741534,-0.003,0.833,0.603,1.260,-2.800,-0.350
1743950990.761534,-0.002,0.835,0.602,1.190,-2.800,-0.210
1743950990.781534,-0.000,0.836,0.604,0.910,-2.590,-0.350
1743950990.756748,0.002,0.835,0.602,0.910,-2.380,-1.120
1743950990.776748,0.001,0.837,0.600,0.770,-2.240,-1.050
1743950990.796748,-0.001,0.834,0.600,0.700,-2.380,-1.050
1743950990.816748,0.000,0.830,0.601,0.840,-2.240,-0.910
1743950990.836748,0.000,0.834,0.603,1.120,-2.310,-0.980
1743950990.856748,-0.000,0.838,0.603,1.260,-2.450,-0.910
1743950990.860238,-0.003,0.834,0.600,1.260,-2.170,-1.260
1743950990.880238,-0.001,0.834,0.600,1.190,-2.240,-0.980
1743950990.900238,0.000,0.834,0.602,1.190,-2.310,-0.980
1743950990.920238,-0.004,0.834,0.602,1.400,-2.380,-0.980
1743950990.940238,-0.003,0.835,0.603,1.400,-2.240,-1.120
1743950990.960238,-0.001,0.836,0.603,1.050,-2.170,-1.120
1743950990.950545,-0.001,0.835,0.603,0.560,-2.310,-1.050
1743950990.970545,-0.004,0.835,0.603,0.560,-2.310,-1.050
1743950990.990545,-0.001,0.833,0.604,0.770,-2.310,-1.120
1743950991.010545,-0.000,0.834,0.603,1.050,-2.310,-1.260
1743950991.030545,0.001,0.838,0.603,0.490,-2.170,-0.980
1743950991.050545,-0.000,0.837,0.604,0.840,-2.310,-0.980
1743950991.056834,-0.003,0.834,0.599,0.980,-2.170,-1.400
1743950991.076834,-0.003,0.835,0.600,0.840,-2.240,-1.190
1743950991.096834,-0.004,0.835,0.603,0.910,-2.240,-1.190
1743950991.116834,-0.004,0.837,0.601,0.840,-2.380,-1.050
1743950991.136834,-0.005,0.834,0.603,0.700,-2.380,-0.980
1743950991.156834,-0.004,0.833,0.602,0.700,-2.380,-0.770
1743950991.116066,-0.003,0.835,0.600,0.420,-2.450,-0.490
1743950991.136066,-0.004,0.834,0.603,0.630,-2.520,-0.490
1743950991.156066,-0.005,0.835,0.602,0.770,-2.590,-0.490
1743950991.176066,-0.001,0.834,0.603,0.700,-2.520,-0.490
1743950991.196066,-0.004,0.836,0.605,0.770,-2.520,-0.560
1743950991.216066,-0.002,0.834,0.604,0.700,-2.590,-0.630
1743950991.206014,-0.003,0.833,0.603,1.190,-2.660,-0.490
1743950991.226014,-0.004,0.833,0.603,1.260,-2.660,-0.420
1743950991.246014,-0.002,0.834,0.603,1.050,-2.660,-0.350
1743950991.266014,-0.003,0.836,0.603,1.050,-2.800,-0.070
1743950991.286014,-0.004,0.835,0.600,1.050,-2.800,-0.070
1743950991.306014,-0.002,0.834,0.602,0.980,-2.730,-0.280
1743950991.282221,-0.002,0.835,0.602,0.910,-2.730,-0.140
1743950991.302221,-0.003,0.834,0.601,0.770,-2.590,-0.210
1743950991.322221,-0.001,0.835,0.600,0.630,-2.660,-0.280
1743950991.342221,-0.002,0.836,0.602,0.560,-2.800,-0.070
1743950991.362221,-0.000,0.835,0.603,0.560,-2.870,0.000
1743950991.382221,-0.001,0.834,0.601,0.630,-2.870,-0.070
1743950991.357688,-0.000,0.836,0.603,0.630,-2.450,-0.560
1743950991.377688,-0.002,0.835,0.604,0.420,-2.450,-0.560
1743950991.397688,-0.001,0.834,0.603,0.700,-2.520,-0.560
1743950991.417688,0.002,0.833,0.604,0.910,-2.590,-0.560
1743950991.437688,-0.001,0.835,0.603,0.770,-2.520,-0.560
1743950991.457688,-0.000,0.835,0.603,0.980,-2.450,-0.630
1743950991.446138,0.000,0.835,0.605,0.770,-2.520,-0.490
1743950991.466138,0.001,0.836,0.602,1.120,-2.590,-0.630
1743950991.486138,0.000,0.833,0.605,1.050,-2.520,-0.840
1743950991.506138,0.000,0.835,0.602,1.050,-2.380,-0.840
1743950991.526138,0.000,0.837,0.604,0.980,-2.450,-0.840
1743950991.546138,-0.001,0.831,0.602,1.190,-2.310,-0.910
1743950991.522991,-0.001,0.836,0.605,1.050,-2.240,-1.400
1743950991.542991,-0.001,0.834,0.605,1.190,-2.030,-1.400
1743950991.562991,-0.002,0.832,0.601,1.120,-1.960,-1.680
1743950991.582991,-0.002,0.834,0.602,1.190,-2.030,-1.610
1743950991.602991,-0.002,0.835,0.605,0.980,-2.170,-1.400
1743950991.622991,0.000,0.834,0.601,1.190,-2.170,-1.400
1743950991.654581,-0.003,0.835,0.600,0.490,-2.450,-0.140
1743950991.674581,-0.003,0.834,0.602,0.140,-2.660,0.000
1743950991.694581,-0.002,0.833,0.602,0.560,-2.730,-0.070
1743950991.714581,-0.002,0.832,0.603,0.910,-2.800,-0.210
1743950991.734581,-0.000,0.836,0.603,0.840,-2.660,-0.560
1743950991.754581,-0.001,0.834,0.606,1.400,-2.520,-0.770
1743950991.701114,-0.002,0.838,0.600,1.260,-2.730,-0.280
1743950991.721114,-0.001,0.836,0.603,0.700,-2.730,-0.350
1743950991.741114,-0.001,0.835,0.601,0.910,-2.590,-0.560
1743950991.761114,-0.003,0.838,0.602,1.330,-2.660,-0.630
1743950991.781114,-0.004,0.835,0.602,1.260,-2.660,-0.700
1743950991.801114,-0.001,0.836,0.599,1.400,-2.450,-0.770
1743950991.778350,0.001,0.837,0.603,1.190,-2.730,-0.350
1743950991.798350,-0.001,0.834,0.603,1.190,-2.660,-0.700
1743950991.818350,-0.000,0.832,0.601,1.400,-2.590,-0.700
1743950991.838350,-0.001,0.838,0.601,0.840,-2.590,-0.420
1743950991.858350,-0.002,0.836,0.600,0.630,-2.800,0.000
1743950991.878350,-0.001,0.834,0.604,0.770,-3.010,0.420
1743950991.868194,0.002,0.838,0.603,0.700,-2.520,-0.910
1743950991.888194,-0.000,0.834,0.600,0.770,-2.380,-0.980
1743950991.908194,-0.001,0.832,0.601,0.910,-2.450,-1.050
1743950991.928194,0.000,0.834,0.602,0.840,-2.520,-0.630
1743950991.948194,0.001,0.836,0.605,0.700,-2.660,-0.350
1743950991.968194,-0.000,0.836,0.602,0.840,-2.660,-0.420
1743950991.956188,-0.002,0.833,0.601,0.980,-2.520,-0.630
1743950991.976188,-0.000,0.834,0.601,1.050,-2.590,-0.490
1743950991.996188,0.001,0.838,0.605,0.980,-2.660,-0.350
1743950992.016188,0.000,0.835,0.603,1.190,-2.800,-0.210
1743950992.036188,0.000,0.833,0.603,1.190,-2.870,-0.280
1743950992.056188,0.000,0.836,0.600,0.980,-2.800,0.000
1743950992.048270,0.003,0.832,0.604,0.490,-2.800,-0.280
1743950992.068270,0.004,0.835,0.604,0.840,-2.660,-0.420
1743950992.088270,0.001,0.837,0.604,0.770,-2.450,-0.770
1743950992.108270,0.002,0.837,0.603,0.630,-2.520,-0.700
1743950992.128270,0.000,0.834,0.602,0.840,-2.520,-0.770
1743950992.148270,0.002,0.836,0.602,0.770,-2.520,-0.560
1743950992.165254,0.003,0.830,0.602,1.890,-1.890,-2.590
1743950992.185254,0.001,0.835,0.601,1.750,-1.680,-2.590
1743950992.205254,0.001,0.835,0.606,1.540,-1.680,-2.660
1743950992.225254,0.001,0.834,0.601,2.030,-1.680,-2.730
1743950992.245254,0.001,0.832,0.602,2.380,-1.680,-2.870
1743950992.265254,0.001,0.835,0.600,2.520,-1.610,-3.010
1743950992.255930,-0.002,0.834,0.601,0.490,-2.800,0.210
1743950992.275930,-0.004,0.835,0.600,0.350,-2.730,0.350
1743950992.295930,-0.001,0.835,0.602,0.560,-2.800,-0.070
1743950992.315930,-0.004,0.835,0.604,0.350,-2.450,-0.210
1743950992.335930,-0.002,0.834,0.604,0.490,-2.590,-0.210
1743950992.355930,-0.001,0.833,0.603,0.700,-2.590,-0.350
1743950992.317071,-0.001,0.838,0.605,0.770,-2.730,-0.210
1743950992.337071,0.000,0.833,0.600,0.980,-2.730,-0.840
1743950992.357071,0.001,0.832,0.602,1.050,-2.450,-1.050
1743950992.377071,0.000,0.836,0.601,1.120,-2.310,-1.120
1743950992.397071,-0.000,0.836,0.604,1.190,-2.310,-1.120
1743950992.417071,-0.000,0.833,0.602,1.400,-2.450,-1.120
1743950992.391246,0.001,0.837,0.603,0.630,-2.240,-1.050
1743950992.411246,-0.004,0.834,0.602,0.630,-2.380,-0.910
1743950992.431246,-0.002,0.832,0.599,0.980,-2.520,-0.770
1743950992.451246,-0.002,0.832,0.601,0.490,-2.380,-0.630
1743950992.471246,-0.001,0.836,0.600,0.350,-2.520,-0.350
1743950992.491246,0.001,0.835,0.603,0.700,-2.660,-0.350
1743950992.484361,-0.000,0.837,0.603,0.420,-2.590,-0.210
1743950992.504361,-0.000,0.835,0.604,0.700,-2.800,-0.210
1743950992.524361,-0.000,0.833,0.602,0.840,-2.660,-0.280
1743950992.544361,-0.002,0.833,0.601,0.630,-2.660,-0.280
1743950992.564361,0.001,0.835,0.605,0.770,-2.730,-0.210
1743950992.584361,0.001,0.834,0.604,1.120,-2.730,-0.420
1743950992.556872,-0.003,0.835,0.606,0.350,-2.800,0.000
1743950992.576872,0.001,0.834,0.604,0.350,-2.800,0.070
1743950992.596872,0.001,0.830,0.603,0.490,-2.660,-0.210
1743950992.616872,0.003,0.833,0.603,0.840,-2.380,-0.840
1743950992.636872,0.002,0.833,0.606,0.910,-2.380,-1.050
1743950992.656872,0.001,0.837,0.604,0.980,-2.380,-1.190
1743950992.661170,0.001,0.834,0.604,1.470,-2.380,-1.330
1743950992.681170,0.001,0.834,0.603,1.470,-2.240,-1.750
1743950992.701170,0.002,0.832,0.602,1.400,-2.170,-1.750
1743950992.721170,0.001,0.836,0.604,0.980,-2.100,-1.750
1743950992.741170,-0.002,0.835,0.603,0.840,-2.240,-1.190
1743950992.761170,-0.001,0.834,0.602,1.050,-2.380,-0.840
1743950992.752187,0.000,0.833,0.602,1.540,-2.310,-1.330
1743950992.772187,0.001,0.834,0.604,1.540,-2.310,-1.050
1743950992.792187,0.001,0.837,0.605,1.330,-2.380,-0.840
1743950992.812187,0.001,0.834,0.600,1.260,-2.450,-0.770
1743950992.832187,-0.000,0.832,0.599,1.260,-2.450,-0.770
1743950992.852187,-0.001,0.834,0.603,1.190,-2.450,-0.770
1743950992.854408,0.000,0.834,0.601,1.120,-2.310,-1.050
1743950992.874408,-0.001,0.833,0.599,1.190,-2.310,-0.980
1743950992.894408,-0.003,0.837,0.602,1.330,-2.450,-0.910
1743950992.914408,-0.001,0.836,0.603,1.050,-2.450,-0.700
1743950992.934408,-0.002,0.834,0.600,0.910,-2.450,-0.840
1743950992.954408,-0.005,0.831,0.602,0.980,-2.450,-0.770
1743950992.930243,-0.002,0.838,0.603,0.280,-2.380,-0.280
1743950992.950243,-0.000,0.831,0.599,0.700,-2.590,-0.210
1743950992.970243,-0.001,0.834,0.602,0.630,-2.660,-0.210
1743950992.990243,-0.001,0.835,0.604,0.350,-2.590,-0.280
1743950993.010243,0.000,0.839,0.603,0.350,-2.590,-0.560
1743950993.030243,-0.001,0.831,0.600,0.560,-2.520,-0.630
1743950992.991081,-0.004,0.836,0.604,1.190,-2.450,-0.700
1743950993.011081,-0.004,0.832,0.599,1.330,-2.660,-0.630
1743950993.031081,-0.001,0.836,0.602,1.190,-2.520,-0.560
1743950993.051081,-0.001,0.836,0.603,0.910,-2.520,-0.490
1743950993.071081,-0.000,0.839,0.602,0.630,-2.660,-0.420
1743950993.091081,-0.001,0.834,0.602,0.910,-2.590,-0.630
1743950993.096095,0.001,0.834,0.599,0.630,-2.450,-0.700
1743950993.116095,0.001,0.837,0.605,0.630,-2.450,-0.700
1743950993.136095,-0.000,0.834,0.604,0.700,-2.380,-0.630
1743950993.156095,-0.000,0.832,0.600,0.910,-2.520,-0.630
1743950993.176095,0.000,0.834,0.603,0.770,-2.450,-0.420
1743950993.196095,0.002,0.835,0.601,0.560,-2.590,-0.350
1743950993.186192,0.001,0.833,0.600,1.120,-2.450,-0.770
1743950993.206192,-0.001,0.838,0.604,0.490,-2.380,-0.700
1743950993.226192,-0.001,0.837,0.605,0.420,-2.590,-0.560
1743950993.246192,-0.001,0.835,0.603,0.840,-2.730,-0.560
1743950993.266192,0.000,0.833,0.603,1.260,-2.590,-0.560
1743950993.286192,-0.001,0.834,0.602,1.260,-2.450,-0.700
1743950993.262990,0.001,0.833,0.601,1.330,-2.730,-0.070
1743950993.282990,-0.001,0.835,0.602,0.910,-2.660,-0.280
1743950993.302990,0.002,0.835,0.604,0.840,-2.590,-0.490
1743950993.322990,0.002,0.834,0.606,1.540,-2.590,-1.190
1743950993.342990,0.003,0.834,0.605,1.750,-2.310,-1.610
1743950993.362990,-0.000,0.835,0.601,1.540,-2.170,-1.610
1743950993.353062,0.000,0.837,0.601,0.630,-2.380,-0.910
1743950993.373062,-0.002,0.838,0.602,0.770,-2.380,-1.050
1743950993.393062,-0.002,0.838,0.599,-0.070,-2.380,-0.630
1743950993.413062,-0.002,0.833,0.596,-0.490,-2.380,-0.350
1743950993.433062,-0.001,0.832,0.602,-0.350,-2.520,-0.140
1743950993.453062,-0.000,0.836,0.603,-0.140,-2.870,0.420
1743950993.441407,0.000,0.835,0.607,0.350,-2.590,-0.630
1743950993.461407,0.004,0.838,0.607,0.770,-2.590,-0.490
1743950993.481407,0.001,0.834,0.603,1.260,-2.590,-0.630
1743950993.501407,-0.000,0.833,0.601,1.190,-2.520,-0.770
1743950993.521407,0.000,0.836,0.603,1.190,-2.520,-0.700
1743950993.541407,0.000,0.838,0.604,1.470,-2.660,-0.700
1743950993.531042,-0.002,0.837,0.603,0.630,-2.450,-0.980
1743950993.551042,-0.000,0.834,0.602,0.770,-2.730,-0.630
1743950993.571042,-0.002,0.832,0.599,0.980,-2.520,-0.630
1743950993.591042,-0.001,0.835,0.600,0.350,-2.590,-0.420
1743950993.611042,-0.000,0.835,0.604,0.070,-2.660,-0.140
1743950993.631042,0.001,0.833,0.606,0.490,-2.660,-0.280
1743950993.621653,0.001,0.834,0.606,0.630,-2.590,-0.420
1743950993.641653,0.002,0.834,0.605,0.700,-2.590,-0.490
1743950993.661653,-0.001,0.834,0.602,0.630,-2.520,-0.630
1743950993.681653,0.002,0.832,0.604,0.770,-2.380,-0.840
1743950993.701653,0.002,0.836,0.606,0.630,-2.310,-0.910
1743950993.721653,0.002,0.835,0.606,0.840,-2.310,-0.910
1743950993.754307,0.001,0.836,0.604,0.490,-2.520,-0.490
1743950993.774307,0.001,0.835,0.604,0.350,-2.310,-0.840
1743950993.794307,0.002,0.832,0.602,0.350,-2.380,-1.190
1743950993.814307,0.002,0.834,0.607,0.350,-2.450,-0.980
1743950993.834307,0.001,0.835,0.608,0.490,-2.660,-0.630
1743950993.854307,-0.000,0.832,0.603,0.630,-2.590,-0.490
1743950993.815979,-0.001,0.834,0.602,0.910,-2.520,-0.910
1743950993.835979,0.002,0.830,0.600,0.980,-2.380,-1.050
1743950993.855979,0.000,0.834,0.601,1.050,-2.310,-1.120
1743950993.875979,0.000,0.834,0.604,1.050,-2.450,-0.980
1743950993.895979,0.001,0.831,0.603,1.260,-2.450,-0.910
1743950993.915979,0.002,0.832,0.605,1.330,-2.380,-0.910
1743950993.891709,0.000,0.831,0.601,1.190,-2.380,-0.980
1743950993.911709,-0.001,0.834,0.605,0.910,-2.450,-0.770
1743950993.931709,-0.000,0.833,0.603,0.980,-2.520,-0.630
1743950993.951709,0.000,0.834,0.603,1.120,-2.520,-0.770
1743950993.971709,0.002,0.834,0.603,1.120,-2.450,-0.980
1743950993.991709,0.001,0.834,0.603,0.420,-2.240,-0.910
1743950993.983139,-0.000,0.832,0.602,0.560,-2.520,-0.700
1743950994.003139,-0.001,0.834,0.604,0.280,-2.380,-0.560
1743950994.023139,0.000,0.833,0.607,0.210,-2.660,-0.560
1743950994.043139,0.002,0.833,0.603,0.420,-2.590,-0.490
1743950994.063139,0.002,0.832,0.604,0.700,-2.380,-0.770
1743950994.083139,-0.001,0.833,0.606,0.770,-2.380,-0.840
1743950994.056035,0.001,0.830,0.606,1.820,-2.800,-0.630
1743950994.076035,0.001,0.834,0.600,1.260,-2.520,-0.630
1743950994.096035,0.001,0.839,0.602,0.210,-2.450,-0.630
1743950994.116035,-0.001,0.833,0.605,0.210,-2.380,-0.700
1743950994.136035,0.001,0.829,0.605,1.120,-2.520,-0.840
1743950994.156035,0.001,0.833,0.605,1.190,-2.660,-0.630
1743950994.163026,0.002,0.834,0.605,1.050,-2.800,-0.210
1743950994.183026,0.000,0.835,0.604,0.840,-2.660,0.000
1743950994.203026,0.002,0.833,0.607,0.700,-2.800,0.000
1743950994.223026,0.001,0.830,0.605,0.910,-2.730,-0.350
1743950994.243026,0.003,0.832,0.605,0.840,-2.660,-0.210
1743950994.263026,0.002,0.834,0.606,0.700,-2.660,-0.350
1743950994.252537,0.002,0.832,0.607,0.840,-2.520,-0.630
1743950994.272537,0.002,0.832,0.604,1.120,-2.590,-0.910
1743950994.292537,-0.001,0.834,0.605,0.700,-2.450,-0.840
1743950994.312537,0.001,0.835,0.605,0.700,-2.520,-0.700
1743950994.332537,0.002,0.830,0.604,0.770,-2.380,-0.700
1743950994.352537,0.002,0.832,0.606,0.980,-2.520,-0.700
1743950994.371128,0.000,0.832,0.606,0.910,-2.450,-0.630
1743950994.391128,0.000,0.835,0.605,0.490,-2.520,-0.630
1743950994.411128,0.002,0.835,0.605,0.700,-2.520,-0.630
1743950994.431128,0.003,0.830,0.607,1.120,-2.380,-0.980
1743950994.451128,0.002,0.831,0.606,1.050,-2.310,-1.120
1743950994.471128,0.001,0.836,0.607,1.050,-2.310,-1.120
1743950994.457481,0.003,0.831,0.603,1.610,-2.520,-0.980
1743950994.477481,0.000,0.835,0.607,1.470,-2.380,-1.050
1743950994.497481,0.001,0.833,0.604,1.610,-2.380,-1.120
1743950994.517481,0.003,0.831,0.604,1.890,-2.450,-1.120
1743950994.537481,0.000,0.831,0.602,1.960,-2.450,-0.910
1743950994.557481,0.001,0.834,0.603,1.680,-2.520,-0.560
1743950994.537151,0.000,0.834,0.608,-0.910,-2.660,0.210
1743950994.557151,0.003,0.834,0.607,-0.700,-2.590,0.140
1743950994.577151,0.002,0.829,0.608,0.000,-2.660,-0.140
1743950994.597151,0.003,0.831,0.606,0.560,-2.660,-0.490
1743950994.617151,0.005,0.834,0.605,0.560,-2.520,-0.840
1743950994.637151,0.004,0.837,0.606,0.630,-2.450,-1.050
1743950994.641800,0.001,0.833,0.606,2.100,-1.960,-1.890
1743950994.661800,0.002,0.834,0.608,2.100,-2.100,-2.170
1743950994.681800,0.001,0.829,0.605,2.590,-2.100,-2.380
1743950994.701800,0.002,0.831,0.602,2.380,-2.030,-2.310
1743950994.721800,-0.000,0.836,0.604,1.890,-2.030,-1.750
1743950994.741800,-0.003,0.834,0.602,1.260,-2.310,-1.400
1743950994.716893,0.001,0.834,0.604,0.210,-2.660,-0.070
1743950994.736893,0.000,0.832,0.603,0.350,-2.800,-0.280
1743950994.756893,0.000,0.832,0.605,0.700,-2.870,-0.070
1743950994.776893,0.002,0.831,0.608,0.910,-2.940,0.280
1743950994.796893,0.002,0.834,0.607,0.770,-3.010,0.630
1743950994.816893,0.005,0.833,0.606,0.770,-3.220,0.700
1743950994.806003,0.004,0.832,0.605,1.120,-2.660,-0.560
1743950994.826003,0.005,0.835,0.606,1.050,-2.590,-0.630
1743950994.846003,0.003,0.834,0.606,1.120,-2.520,-0.630
1743950994.866003,0.002,0.831,0.609,1.120,-2.380,-0.910
1743950994.886003,0.004,0.833,0.605,0.980,-2.450,-0.910
1743950994.906003,0.002,0.834,0.607,0.910,-2.380,-0.840
1743950994.880122,0.003,0.830,0.608,1.190,-2.380,-1.120
1743950994.900122,0.004,0.832,0.604,1.120,-2.310,-1.050
1743950994.920122,0.004,0.834,0.606,0.980,-2.380,-0.910
1743950994.940122,0.004,0.835,0.604,1.120,-2.520,-0.700
1743950994.960122,0.001,0.831,0.602,0.770,-2.520,-0.840
1743950994.980122,0.002,0.831,0.603,0.630,-2.450,-0.770
1743950994.955832,0.002,0.829,0.605,0.350,-2.520,-0.770
1743950994.975832,0.003,0.831,0.608,0.700,-2.450,-0.840
1743950994.995832,0.001,0.835,0.609,0.980,-2.380,-0.910
1743950995.015832,0.001,0.834,0.607,1.470,-2.520,-1.050
1743950995.035832,0.001,0.831,0.604,1.680,-2.520,-1.120
1743950995.055832,0.002,0.833,0.607,1.890,-2.450,-0.910
1743950995.045902,0.006,0.831,0.603,2.450,-2.380,-1.190
1743950995.065902,0.003,0.835,0.606,1.820,-2.310,-0.980
1743950995.085902,0.002,0.834,0.604,1.400,-2.310,-1.190
1743950995.105902,0.004,0.831,0.606,1.400,-2.450,-1.190
1743950995.125902,0.002,0.829,0.602,1.400,-2.170,-1.260
1743950995.145902,0.001,0.834,0.605,1.120,-2.240,-1.190
1743950995.136242,0.001,0.833,0.605,0.770,-2.310,-0.840
1743950995.156242,-0.000,0.834,0.606,0.490,-2.450,-0.770
1743950995.176242,-0.000,0.834,0.604,0.490,-2.380,-0.700
1743950995.196242,-0.001,0.831,0.605,0.770,-2.450,-0.770
1743950995.216242,0.001,0.832,0.604,0.910,-2.450,-0.910
1743950995.236242,0.004,0.834,0.606,0.910,-2.380,-0.840
1743950995.255179,0.001,0.835,0.606,-0.070,-2.450,-0.420
1743950995.275179,0.001,0.834,0.609,0.210,-2.660,-0.210
1743950995.295179,-0.000,0.831,0.606,0.560,-2.730,-0.280
1743950995.315179,0.001,0.831,0.604,0.910,-2.660,-0.420
1743950995.335179,0.005,0.833,0.606,0.980,-2.520,-0.700
1743950995.355179,0.003,0.832,0.606,1.400,-2.590,-0.910
1743950995.334695,0.004,0.833,0.605,0.700,-2.380,-0.700
1743950995.354695,0.001,0.830,0.605,0.910,-2.450,-0.700
1743950995.374695,0.001,0.832,0.604,1.750,-2.730,-0.630
1743950995.394695,0.003,0.832,0.606,2.240,-2.800,-0.560
1743950995.414695,0.003,0.832,0.607,1.960,-2.730,-0.980
1743950995.434695,0.003,0.834,0.603,1.680,-2.450,-0.630
1743950995.421355,0.005,0.832,0.605,0.980,-2.380,-1.190
1743950995.441355,0.004,0.832,0.604,0.630,-2.240,-1.260
1743950995.461355,0.001,0.836,0.606,0.350,-2.310,-0.910
1743950995.481355,0.002,0.835,0.605,0.070,-2.450,-0.560
1743950995.501355,0.003,0.833,0.604,0.560,-2.590,-0.210
1743950995.521355,0.003,0.830,0.606,0.770,-2.660,-0.280
1743950995.541205,0.001,0.830,0.603,1.400,-2.030,-1.680
1743950995.561205,0.002,0.833,0.606,1.120,-2.030,-1.610
1743950995.581205,0.002,0.833,0.605,0.980,-1.960,-1.540
1743950995.601205,0.000,0.834,0.606,0.980,-2.100,-1.610
1743950995.621205,0.003,0.830,0.606,1.540,-2.100,-1.750
1743950995.641205,0.000,0.832,0.605,1.680,-1.960,-2.030
1743950995.601231,0.001,0.833,0.606,0.980,-2.240,-1.050
1743950995.621231,0.000,0.830,0.605,1.330,-2.310,-0.980
1743950995.641231,0.000,0.833,0.606,1.680,-2.590,-0.840
1743950995.661231,0.001,0.834,0.605,1.680,-2.520,-0.770
1743950995.681231,0.001,0.832,0.608,1.050,-2.450,-0.630
1743950995.701231,0.002,0.834,0.605,0.630,-2.520,-0.560
1743950995.691774,0.001,0.830,0.604,1.540,-2.450,-0.770
1743950995.711774,0.001,0.833,0.608,1.330,-2.590,-0.630
1743950995.731774,0.000,0.837,0.607,1.120,-2.590,-0.490
1743950995.751774,0.000,0.833,0.604,1.050,-2.590,-0.560
1743950995.771774,0.002,0.833,0.603,0.980,-2.520,-0.770
1743950995.791774,0.002,0.833,0.604,0.840,-2.520,-0.980
1743950995.811625,0.003,0.831,0.604,0.560,-2.730,-0.210
1743950995.831625,0.000,0.835,0.608,0.560,-2.730,-0.070
1743950995.851625,-0.000,0.836,0.605,0.070,-2.520,-0.280
1743950995.871625,0.002,0.834,0.605,0.210,-2.310,-0.630
1743950995.891625,0.004,0.829,0.605,0.140,-2.240,-1.190
1743950995.911625,0.000,0.835,0.608,0.840,-2.170,-1.050
1743950995.886362,0.001,0.834,0.605,0.630,-2.310,-1.050
1743950995.906362,-0.000,0.830,0.606,1.050,-2.450,-0.980
1743950995.926362,-0.000,0.831,0.604,1.190,-2.380,-0.980
1743950995.946362,0.001,0.834,0.605,0.910,-2.520,-0.560
1743950995.966362,-0.003,0.835,0.604,1.050,-2.730,-0.140
1743950995.986362,-0.002,0.832,0.605,1.260,-2.870,-0.070
1743950995.978843,0.004,0.834,0.602,0.490,-2.240,-0.910
1743950995.998843,0.002,0.835,0.602,0.210,-2.240,-1.330
1743950996.018843,0.003,0.835,0.606,-0.350,-1.960,-1.400
1743950996.038843,0.002,0.834,0.607,-0.210,-2.030,-1.400
1743950996.058843,0.000,0.831,0.603,0.140,-2.170,-1.260
1743950996.078843,0.000,0.832,0.606,0.420,-2.240,-1.120
1743950996.067542,0.001,0.832,0.602,1.750,-2.520,-0.840
1743950996.087542,0.003,0.835,0.602,1.330,-2.450,-0.630
1743950996.107542,0.001,0.834,0.606,1.190,-2.590,-0.490
1743950996.127542,0.002,0.834,0.602,0.910,-2.520,-0.560
1743950996.147542,0.003,0.833,0.602,-0.210,-2.310,-0.560
1743950996.167542,0.001,0.834,0.603,-0.420,-2.240,-0.630
1743950996.157510,0.001,0.831,0.608,1.120,-2.450,-0.770
1743950996.177510,0.002,0.833,0.608,1.120,-2.520,-0.770
1743950996.197510,0.002,0.833,0.607,1.540,-2.450,-0.910
1743950996.217510,0.000,0.829,0.606,1.610,-2.450,-1.190
1743950996.237510,0.003,0.830,0.605,1.890,-2.310,-1.610
1743950996.257510,0.002,0.832,0.605,1.610,-2.240,-1.400
1743950996.247910,0.000,0.832,0.604,1.050,-2.380,-0.910
1743950996.267910,0.001,0.834,0.605,1.050,-2.450,-0.840
1743950996.287910,0.001,0.834,0.605,1.260,-2.590,-0.700
1743950996.307910,0.000,0.831,0.607,1.540,-2.520,-0.840
1743950996.327910,0.001,0.835,0.601,1.540,-2.590,-0.630
1743950996.347910,0.003,0.834,0.605,1.120,-2.590,-0.560
1743950996.352126,0.124,0.832,0.605,0.280,-2.380,-0.840
1743950996.372126,0.000,0.832,0.605,0.420,-2.380,-0.630
1743950996.392126,0.003,0.830,0.604,1.050,-2.520,-0.700
1743950996.412126,0.001,0.831,0.606,1.330,-2.520,-0.700
1743950996.432126,0.001,0.835,0.606,1.260,-2.590,-0.700
1743950996.452126,0.003,0.832,0.606,1.120,-2.590,-0.770
1743950996.441291,0.001,0.834,0.607,0.560,-2.380,-0.770
1743950996.461291,0.000,0.832,0.603,1.050,-2.380,-0.910
1743950996.481291,0.000,0.833,0.603,0.980,-2.450,-0.770
1743950996.501291,-0.000,0.835,0.605,0.840,-2.520,-0.560
1743950996.521291,0.000,0.833,0.605,0.770,-2.520,-0.350
1743950996.541291,0.002,0.831,0.603,0.910,-2.590,-0.490
1743950996.531989,0.000,0.836,0.607,1.260,-2.590,-0.630
1743950996.551989,0.002,0.833,0.604,1.330,-2.590,-0.840
1743950996.571989,0.001,0.831,0.604,1.470,-2.520,-0.840
1743950996.591989,0.000,0.834,0.602,0.770,-2.450,-0.700
1743950996.611989,-0.001,0.835,0.606,0.210,-2.380,-0.560
1743950996.631989,0.001,0.834,0.605,0.420,-2.590,-0.560
1743950996.605993,0.002,0.836,0.605,0.140,-2.310,-0.770
1743950996.625993,0.004,0.833,0.604,0.140,-2.380,-0.700
1743950996.645993,0.003,0.832,0.605,0.910,-2.380,-0.980
1743950996.665993,0.004,0.830,0.608,1.190,-2.310,-1.190
1743950996.685993,0.002,0.834,0.608,1.260,-2.170,-1.470
1743950996.705993,0.003,0.834,0.609,1.260,-1.960,-1.680
1743950996.739859,-0.002,0.832,0.605,1.050,-2.310,-1.120
1743950996.759859,-0.001,0.831,0.606,1.260,-2.240,-1.400
1743950996.779859,-0.000,0.832,0.603,1.120,-2.310,-1.190
1743950996.799859,0.003,0.835,0.605,0.770,-2.310,-0.980
1743950996.819859,0.001,0.834,0.606,0.770,-2.520,-0.770
1743950996.839859,-0.001,0.833,0.604,1.050,-2.590,-0.560
1743950996.786384,0.123,0.834,0.605,0.980,-2.660,-0.490
1743950996.806384,0.001,0.833,0.606,1.050,-2.660,-0.560
1743950996.826384,0.001,0.832,0.607,1.260,-2.730,-0.420
1743950996.846384,0.000,0.834,0.606,1.120,-2.660,-0.350
1743950996.866384,0.000,0.835,0.604,0.980,-2.730,-0.210
1743950996.886384,0.000,0.830,0.606,1.190,-2.730,-0.210
1743950996.876468,0.001,0.835,0.604,0.700,-2.520,-0.700
1743950996.896468,0.000,0.832,0.605,0.700,-2.590,-0.700
1743950996.916468,-0.001,0.833,0.604,0.910,-2.590,-0.630
1743950996.936468,0.001,0.834,0.605,0.630,-2.520,-0.630
1743950996.956468,0.001,0.833,0.604,0.840,-2.520,-0.630
1743950996.976468,0.001,0.832,0.602,0.770,-2.450,-0.770
1743950996.967604,0.001,0.833,0.607,1.050,-2.170,-1.470
1743950996.987604,0.000,0.832,0.605,1.680,-2.240,-1.680
1743950997.007604,0.000,0.833,0.604,1.750,-2.100,-1.750
1743950997.027604,0.001,0.833,0.606,1.750,-2.030,-1.820
1743950997.047604,-0.001,0.833,0.606,1.820,-2.170,-1.890
1743950997.067604,0.003,0.832,0.604,2.100,-2.100,-1.820
1743950997.056161,-0.003,0.834,0.600,0.910,-2.240,-0.910
1743950997.076161,-0.001,0.836,0.605,0.630,-2.380,-0.840
1743950997.096161,-0.002,0.832,0.601,0.000,-2.310,-0.840
1743950997.116161,0.000,0.831,0.606,-0.280,-2.310,-0.700
1743950997.136161,-0.002,0.834,0.608,-0.350,-2.450,-0.280
1743950997.156161,-0.000,0.831,0.607,0.070,-2.450,-0.420
1743950997.133033,0.000,0.835,0.609,1.260,-2.590,-0.490
1743950997.153033,0.003,0.831,0.604,1.470,-2.520,-0.910
1743950997.173033,0.002,0.829,0.605,1.260,-2.310,-1.260
1743950997.193033,0.000,0.832,0.604,1.190,-2.310,-1.260
1743950997.213033,0.001,0.836,0.603,1.190,-2.170,-1.260
1743950997.233033,-0.001,0.832,0.603,1.540,-2.240,-1.330
1743950997.236080,-0.000,0.833,0.603,1.050,-2.170,-1.190
1743950997.256080,-0.002,0.830,0.601,1.120,-2.380,-1.190
1743950997.276080,-0.004,0.834,0.603,0.700,-2.380,-0.910
1743950997.296080,0.000,0.835,0.604,0.700,-2.520,-0.700
1743950997.316080,-0.002,0.832,0.603,0.840,-2.520,-0.560
1743950997.336080,-0.002,0.833,0.603,0.910,-2.520,-0.420
1743950997.341273,0.000,0.837,0.604,0.980,-2.520,-0.560
1743950997.361273,-0.001,0.834,0.607,0.840,-2.380,-0.490
1743950997.381273,0.002,0.835,0.606,1.190,-2.590,-0.700
1743950997.401273,0.000,0.833,0.602,1.120,-2.450,-0.770
1743950997.421273,-0.002,0.834,0.605,1.120,-2.380,-0.840
1743950997.441273,0.002,0.836,0.604,0.840,-2.240,-0.910
1743950997.446291,-0.002,0.834,0.602,0.560,-2.450,-0.700
1743950997.466291,-0.000,0.835,0.606,0.350,-2.450,-0.630
1743950997.486291,-0.000,0.834,0.603,0.560,-2.520,-0.630
1743950997.506291,-0.001,0.832,0.602,0.630,-2.520,-0.700
1743950997.526291,-0.001,0.836,0.604,0.350,-2.450,-0.280
1743950997.546291,-0.002,0.833,0.605,0.350,-2.660,-0.140
1743950997.506559,-0.001,0.831,0.605,0.560,-2.660,-0.210
1743950997.526559,-0.000,0.833,0.608,0.560,-2.730,-0.140
1743950997.546559,-0.000,0.834,0.608,0.910,-2.800,0.000
1743950997.566559,0.001,0.831,0.605,1.050,-2.800,-0.210
1743950997.586559,0.002,0.832,0.606,1.050,-2.800,-0.070
1743950997.606559,0.000,0.835,0.606,0.840,-2.800,-0.070
1743950997.641448,0.002,0.833,0.605,1.050,-2.520,-0.700
1743950997.661448,0.003,0.832,0.607,0.910,-2.450,-0.700
1743950997.681448,0.002,0.835,0.605,0.770,-2.450,-0.700
1743950997.701448,0.000,0.832,0.606,0.840,-2.380,-0.840
1743950997.721448,0.000,0.831,0.605,0.770,-2.240,-1.120
1743950997.741448,0.002,0.833,0.607,0.700,-2.380,-1.050
1743950997.701276,0.000,0.832,0.603,0.700,-2.240,-0.980
1743950997.721276,0.000,0.832,0.604,0.630,-2.240,-0.980
1743950997.741276,0.001,0.833,0.604,0.700,-2.380,-0.630
1743950997.761276,-0.000,0.832,0.607,1.260,-2.590,-0.420
1743950997.781276,0.000,0.833,0.604,1.190,-2.590,-0.490
1743950997.801276,-0.001,0.834,0.608,0.980,-2.450,-0.560
1743950997.776484,0.004,0.834,0.605,1.470,-2.380,-1.050
1743950997.796484,0.002,0.835,0.606,1.470,-2.380,-0.980
1743950997.816484,-0.000,0.835,0.607,1.890,-2.380,-1.120
1743950997.836484,0.001,0.830,0.605,2.450,-2.450,-1.400
1743950997.856484,0.002,0.830,0.603,2.100,-2.170,-1.890
1743950997.876484,-0.000,0.837,0.602,1.260,-2.030,-1.470
1743950997.852787,0.000,0.832,0.606,1.400,-2.450,-1.190
1743950997.872787,-0.001,0.834,0.606,1.820,-2.170,-1.750
1743950997.892787,-0.003,0.835,0.604,1.680,-2.380,-1.540
1743950997.912787,-0.002,0.836,0.605,1.470,-2.450,-1.050
1743950997.932787,-0.002,0.834,0.603,1.260,-2.730,-0.350
1743950997.952787,-0.002,0.834,0.602,0.910,-2.730,0.070
1743950997.941312,0.002,0.833,0.607,1.400,-2.240,-1.470
1743950997.961312,0.002,0.833,0.602,1.540,-2.170,-1.400
1743950997.981312,0.001,0.834,0.604,1.050,-2.240,-1.190
1743950998.001312,-0.002,0.835,0.603,0.700,-2.520,-0.560
1743950998.021312,-0.001,0.833,0.603,0.490,-2.520,-0.350
1743950998.041312,-0.001,0.833,0.605,0.700,-2.590,-0.280
1743950998.031387,-0.002,0.837,0.606,1.190,-2.520,-0.630
1743950998.051387,-0.002,0.836,0.607,1.050,-2.730,-0.070
1743950998.071387,-0.002,0.831,0.602,0.840,-2.800,0.000
1743950998.091387,0.001,0.836,0.605,0.560,-2.800,0.210
1743950998.111387,0.000,0.834,0.602,0.490,-2.660,0.140
1743950998.131387,0.001,0.833,0.605,0.980,-2.730,-0.420
1743950998.107992,-0.000,0.836,0.604,0.630,-2.310,-0.910
1743950998.127992,-0.001,0.834,0.607,0.770,-2.450,-0.630
1743950998.147992,0.000,0.833,0.602,0.980,-2.520,-0.910
1743950998.167992,0.003,0.830,0.603,1.190,-2.450,-0.980
1743950998.187992,-0.000,0.834,0.601,1.120,-2.380,-1.120
1743950998.207992,-0.000,0.834,0.604,0.910,-2.240,-1.260
1743950998.240549,-0.001,0.834,0.602,0.910,-2.380,-0.910
1743950998.260549,0.000,0.834,0.604,0.560,-2.450,-0.840
1743950998.280549,0.000,0.834,0.605,0.840,-2.520,-0.700
1743950998.300549,-0.002,0.828,0.605,2.170,-2.660,-1.260
1743950998.320549,-0.001,0.831,0.602,1.610,-2.450,-0.980
1743950998.340549,-0.002,0.837,0.601,0.560,-2.240,-0.840
1743950998.272293,0.002,0.832,0.608,0.630,-2.380,-0.700
1743950998.292293,0.000,0.833,0.607,0.980,-2.450,-0.770
1743950998.312293,0.001,0.834,0.607,1.050,-2.520,-0.630
1743950998.332293,0.003,0.833,0.606,0.910,-2.590,-0.490
1743950998.352293,-0.001,0.832,0.607,1.120,-2.730,-0.280
1743950998.372293,-0.001,0.833,0.600,1.050,-2.730,17.780
1743950998.361568,0.002,0.830,0.608,1.330,-2.240,-1.400
1743950998.381568,-0.000,0.831,0.603,1.400,-2.450,-1.120
1743950998.401568,-0.001,0.836,0.604,0.910,-2.380,-0.840
1743950998.421568,-0.001,0.833,0.604,0.630,-2.450,-0.840
1743950998.441568,-0.001,0.832,0.605,0.770,-2.590,-0.560
1743950998.461568,0.000,0.831,0.605,0.630,-2.380,-0.700
1743950998.452959,0.002,0.833,0.604,1.260,-2.660,-0.560
1743950998.472959,-0.000,0.835,0.605,0.630,-2.660,-0.420
1743950998.492959,-0.001,0.834,0.605,0.630,-2.450,-0.630
1743950998.512959,-0.000,0.833,0.603,0.840,-2.520,-0.700
1743950998.532959,-0.001,0.833,0.602,1.050,-2.450,-0.700
1743950998.552959,-0.001,0.835,0.605,0.840,-2.520,-0.560
1743950998.569710,0.002,0.833,0.603,1.400,-2.590,-0.770
1743950998.589710,0.002,0.836,0.603,1.260,-2.520,-0.630
1743950998.609710,0.000,0.837,0.607,1.190,-2.660,-0.560
1743950998.629710,0.000,0.834,0.604,1.190,-2.590,-0.700
1743950998.649710,0.000,0.834,0.603,0.980,-2.520,-0.630
1743950998.669710,0.000,0.834,0.605,0.840,-2.310,-0.700
1743950998.633214,0.000,0.834,0.602,0.560,-2.380,-0.770
1743950998.653214,-0.000,0.836,0.608,0.350,-2.520,-0.490
1743950998.673214,-0.002,0.835,0.605,0.630,-2.590,-0.420
1743950998.693214,0.001,0.832,0.604,0.630,-2.520,-0.630
1743950998.713214,0.000,0.830,0.604,0.630,-2.380,-0.700
1743950998.733214,0.002,0.835,0.608,0.490,-2.450,-0.560
1743950998.721253,0.001,0.831,0.606,1.050,-2.520,-0.770
1743950998.741253,-0.002,0.835,0.605,0.980,-2.520,-0.700
1743950998.761253,-0.000,0.835,0.604,0.980,-2.450,-0.770
1743950998.781253,0.001,0.832,0.603,1.050,-2.450,-0.770
1743950998.801253,0.000,0.834,0.604,1.120,-2.450,-0.700
1743950998.821253,0.000,0.834,0.604,1.120,-2.590,-0.560
1743950998.839652,0.002,0.835,0.605,0.770,-2.520,-0.630
1743950998.859652,0.000,0.835,0.606,0.700,-2.520,-0.630
1743950998.879652,0.005,0.836,0.604,1.050,-2.520,-0.700
1743950998.899652,-0.000,0.832,0.603,0.910,-2.380,-0.910
1743950998.919652,0.000,0.833,0.604,0.840,-2.380,-0.980
1743950998.939652,0.001,0.835,0.607,0.770,-2.380,-0.840
1743950998.901630,0.000,0.832,0.602,0.980,-2.450,-0.700
1743950998.921630,0.002,0.833,0.603,1.050,-2.450,-0.630
1743950998.941630,0.001,0.834,0.605,0.980,-2.520,-0.560
1743950998.961630,-0.000,0.830,0.604,1.260,-2.590,-0.770
1743950998.981630,0.000,0.830,0.606,0.980,-2.590,-0.840
1743950999.001630,0.000,0.835,0.605,1.050,-2.450,-0.560
1743950998.993251,0.000,0.831,0.606,1.120,-2.730,-0.350
1743950999.013251,0.000,0.833,0.604,1.120,-2.590,-0.350
1743950999.033251,0.002,0.832,0.607,0.910,-2.520,-0.630
1743950999.053251,0.004,0.833,0.606,0.840,-2.450,-0.980
1743950999.073251,0.003,0.833,0.604,0.770,-2.240,-1.120
1743950999.093251,0.004,0.833,0.606,0.630,-2.240,-1.120
1743950999.068079,-0.001,0.832,0.606,1.750,-1.890,-2.170
1743950999.088079,0.000,0.830,0.603,2.170,-1.890,-2.170
1743950999.108079,0.001,0.831,0.600,2.240,-1.960,-2.100
1743950999.128079,-0.125,0.834,0.602,2.310,-2.100,-1.890
1743950999.148079,0.000,0.832,0.602,1.960,-2.170,-1.820
1743950999.168079,-0.001,0.832,0.603,1.750,-2.100,-1.610
1743950999.157744,-0.000,0.832,0.609,0.140,-2.660,-0.140
1743950999.177744,0.001,0.831,0.606,0.700,-2.660,-0.420
1743950999.197744,-0.001,0.832,0.607,0.840,-2.590,-0.560
1743950999.217744,-0.002,0.833,0.609,1.190,-2.660,-0.560
1743950999.237744,-0.004,0.833,0.605,1.190,-2.870,-0.210
1743950999.257744,-0.001,0.833,0.604,1.540,-2.870,0.140
1743950999.246819,0.003,0.832,0.604,1.470,-2.450,-1.120
1743950999.266819,0.001,0.835,0.605,1.330,-2.380,-1.050
1743950999.286819,0.001,0.833,0.605,0.980,-2.310,-0.910
1743950999.306819,0.001,0.832,0.605,1.050,-2.450,-0.910
1743950999.326819,0.001,0.832,0.601,0.910,-2.520,-0.910
1743950999.346819,-0.002,0.834,0.602,0.770,-2.520,-0.630
1743950999.350467,0.001,0.832,0.603,0.700,-2.520,-0.280
1743950999.370467,-0.001,0.835,0.605,0.000,-2.450,-0.490
1743950999.390467,0.001,0.834,0.605,0.420,-2.660,-0.140
1743950999.410467,-0.000,0.832,0.604,0.840,-2.730,-0.280
1743950999.430467,0.002,0.831,0.603,1.050,-2.590,-0.700
1743950999.450467,0.000,0.836,0.603,0.840,-2.450,-0.770
1743950999.441361,0.000,0.833,0.605,0.700,-2.520,-0.700
1743950999.461361,0.000,0.833,0.606,0.980,-2.590,-0.770
1743950999.481361,-0.001,0.831,0.604,1.050,-2.450,-0.910
1743950999.501361,0.001,0.831,0.603,0.980,-2.450,-0.840
1743950999.521361,0.001,0.835,0.605,0.700,-2.450,-0.700
1743950999.541361,-0.000,0.833,0.606,1.050,-2.660,-0.560
1743950999.516994,0.000,0.831,0.605,0.770,-2.240,-0.840
1743950999.536994,-0.001,0.834,0.605,0.770,-2.380,-0.910
1743950999.556994,0.002,0.832,0.606,1.190,-2.380,-1.050
1743950999.576994,0.002,0.830,0.601,1.260,-2.310,-0.910
1743950999.596994,0.001,0.834,0.603,1.120,-2.380,-0.840
1743950999.616994,0.000,0.834,0.605,1.190,-2.450,-0.630
1743950999.608258,0.000,0.832,0.603,1.260,-2.520,-0.630
1743950999.628258,-0.000,0.834,0.605,1.260,-2.660,-0.630
1743950999.648258,0.003,0.834,0.605,0.980,-2.520,-0.700
1743950999.668258,0.002,0.834,0.601,0.560,-2.310,-0.770
1743950999.688258,0.000,0.834,0.603,0.070,-2.240,-0.700
1743950999.708258,-0.002,0.834,0.605,-0.210,-2.520,-0.350
1743950999.740078,0.003,0.831,0.604,0.980,-2.380,-0.770
1743950999.760078,0.001,0.834,0.605,0.700,-2.380,-0.700
1743950999.780078,0.000,0.834,0.607,1.050,-2.590,-0.280
1743950999.800078,0.000,0.832,0.603,1.750,-2.730,-0.490
1743950999.820078,0.001,0.832,0.604,1.680,-2.590,-0.770
1743950999.840078,0.002,0.833,0.604,1.610,-2.590,-0.770
1743950999.786374,-0.001,0.830,0.604,-0.490,-2.310,-0.630
1743950999.806374,-0.001,0.833,0.607,0.560,-2.590,-0.280
1743950999.826374,0.000,0.833,0.608,1.120,-2.730,-0.350
1743950999.846374,0.001,0.832,0.606,1.190,-2.450,-0.910
1743950999.866374,0.002,0.829,0.606,1.190,-2.170,-1.540
1743950999.886374,-0.001,0.836,0.605,1.540,-2.170,-1.330
1743950999.861326,0.001,0.832,0.603,0.980,-2.730,-0.490
1743950999.881326,0.000,0.832,0.607,0.840,-2.310,-1.050
1743950999.901326,0.001,0.835,0.608,0.910,-2.310,-1.120
1743950999.921326,0.001,0.834,0.607,1.260,-2.380,-1.260
1743950999.941326,-0.001,0.830,0.605,1.330,-2.310,-1.260
1743950999.961326,0.002,0.833,0.605,1.120,-2.240,-1.260
1743950999.968439,-0.001,0.835,0.606,0.980,-2.310,-0.910
1743950999.988439,0.000,0.834,0.608,0.840,-2.450,-0.700
1743951000.008439,0.001,0.829,0.603,1.050,-2.520,-0.840
1743951000.028439,0.001,0.829,0.603,0.700,-2.450,-0.770
1743951000.048439,-0.001,0.834,0.606,0.560,-2.590,-0.560
1743951000.068439,-0.001,0.834,0.607,0.700,-2.590,-0.490
1743951000.056206,-0.002,0.836,0.607,1.050,-2.450,-0.700
1743951000.076206,-0.001,0.834,0.605,1.260,-2.520,-0.700
1743951000.096206,-0.000,0.829,0.603,1.260,-2.590,-0.700
1743951000.116206,0.000,0.834,0.604,0.980,-2.380,-0.770
1743951000.136206,0.000,0.835,0.607,0.840,-2.520,-0.700
1743951000.156206,-0.001,0.833,0.604,1.190,-2.590,-0.770
1743951000.146360,0.001,0.832,0.606,0.700,-2.590,-0.490
1743951000.166360,0.001,0.833,0.604,0.700,-2.450,-0.630
1743951000.186360,-0.001,0.832,0.602,0.840,-2.520,-0.770
1743951000.206360,0.002,0.834,0.605,0.700,-2.450,-0.700
1743951000.226360,0.001,0.835,0.605,0.700,-2.310,-0.770
1743951000.246360,0.001,0.832,0.603,0.770,-2.450,-0.910
1743951000.236349,-0.001,0.834,0.604,0.280,-2.380,-0.910
1743951000.256349,0.000,0.834,0.604,0.350,-2.380,-0.910
1743951000.276349,-0.000,0.832,0.607,0.700,-2.380,-0.840
1743951000.296349,-0.001,0.832,0.607,0.910,-2.520,-0.910
1743951000.316349,-0.000,0.835,0.603,0.980,-2.450,-0.700
1743951000.336349,0.001,0.833,0.604,0.840,-2.590,-0.490
1743951000.341182,0.000,0.834,0.605,0.630,-2.800,-0.140
1743951000.361182,-0.003,0.832,0.605,0.490,-2.730,-0.210
1743951000.381182,-0.001,0.832,0.604,0.770,-2.730,-0.070
1743951000.401182,-0.001,0.834,0.605,0.700,-2.870,0.280
1743951000.421182,-0.000,0.833,0.607,0.770,-2.870,0.350
1743951000.441182,0.002,0.832,0.607,0.910,-2.800,-0.070
1743951000.401330,0.002,0.835,0.603,0.980,-2.240,-1.050
1743951000.421330,-0.000,0.830,0.604,1.050,-2.450,-0.980
1743951000.441330,0.002,0.831,0.604,1.050,-2.450,-0.770
1743951000.461330,0.001,0.835,0.606,1.050,-2.520,-0.630
1743951000.481330,0.000,0.834,0.606,1.120,-2.660,-0.630
1743951000.501330,0.001,0.832,0.607,1.330,-2.520,-0.910
1743951000.491431,-0.000,0.839,0.604,0.210,-2.450,-0.280
1743951000.511431,0.001,0.831,0.606,-0.140,-2.590,-0.280
1743951000.531431,0.001,0.831,0.605,0.630,-2.660,-0.210
1743951000.551431,0.000,0.833,0.607,0.490,-2.590,-0.350
1743951000.571431,0.001,0.835,0.609,0.560,-2.520,-0.630
1743951000.591431,0.003,0.831,0.607,0.910,-2.450,-0.840
1743951000.610703,0.001,0.833,0.605,0.980,-2.590,-0.350
1743951000.630703,0.001,0.833,0.608,1.120,-2.450,-0.980
1743951000.650703,0.002,0.829,0.604,1.470,-2.310,-1.260
1743951000.670703,-0.000,0.832,0.603,1.470,-2.170,-1.470
1743951000.690703,0.001,0.837,0.605,1.190,-2.310,-1.330
1743951000.710703,0.001,0.833,0.606,1.120,-2.310,-1.190
1743951000.671724,0.002,0.834,0.604,1.050,-2.520,-0.840
1743951000.691724,0.001,0.832,0.605,1.050,-2.520,-0.910
1743951000.711724,0.000,0.830,0.605,1.190,-2.450,-0.840
1743951000.731724,-0.001,0.833,0.607,1.190,-2.590,-0.420
1743951000.751724,0.001,0.833,0.607,0.910,-2.520,-0.420
1743951000.771724,0.001,0.833,0.606,0.980,-2.660,-0.560
1743951000.761444,-0.001,0.834,0.607,0.910,-2.450,-0.700
1743951000.781444,-0.002,0.833,0.608,1.120,-2.520,-0.700
1743951000.801444,0.000,0.832,0.603,1.120,-2.520,-0.840
1743951000.821444,0.002,0.832,0.606,1.260,-2.520,-0.700
1743951000.841444,0.002,0.836,0.607,0.910,-2.450,-0.770
1743951000.861444,0.000,0.834,0.605,0.770,-2.520,-0.910
1743951000.836364,0.001,0.834,0.606,0.980,-2.450,-0.770
1743951000.856364,0.000,0.830,0.603,1.190,-2.520,-0.840
1743951000.876364,0.003,0.831,0.604,1.050,-2.380,-0.980
1743951000.896364,0.001,0.833,0.607,0.630,-2.450,-0.770
1743951000.916364,0.001,0.832,0.606,0.770,-2.520,-0.700
1743951000.936364,0.001,0.828,0.606,1.120,-2.520,-0.770
1743951000.941667,0.001,0.833,0.607,0.840,-2.590,-0.700
1743951000.961667,0.000,0.832,0.606,1.260,-2.590,-0.770
1743951000.981667,0.001,0.829,0.605,1.120,-2.590,-0.630
1743951001.001667,-0.002,0.836,0.606,1.120,-2.660,-0.280
1743951001.021667,0.000,0.833,0.607,0.980,-2.730,-0.420
1743951001.041667,0.000,0.831,0.605,1.190,-2.800,-0.280
1743951001.017338,0.000,0.833,0.606,0.350,-2.660,-0.350
1743951001.037338,0.002,0.833,0.606,0.560,-2.450,-0.490
1743951001.057338,0.002,0.831,0.606,1.120,-2.590,-0.980
1743951001.077338,0.003,0.832,0.605,1.260,-2.380,-1.050
1743951001.097338,0.001,0.834,0.608,0.770,-2.310,-0.980
1743951001.117338,0.001,0.834,0.608,0.910,-2.380,-0.980
1743951001.091704,0.001,0.835,0.606,2.310,-2.030,-2.100
1743951001.111704,0.001,0.832,0.604,2.380,-2.100,-2.030
1743951001.131704,-0.001,0.831,0.601,2.450,-2.100,-1.960
1743951001.151704,-0.001,0.835,0.602,2.450,-2.100,-1.470
1743951001.171704,0.001,0.834,0.604,1.540,-2.240,-1.190
1743951001.191704,-0.001,0.834,0.600,1.260,-2.240,-1.120
1743951001.182101,-0.002,0.833,0.605,0.560,-2.590,-0.420
1743951001.202101,0.000,0.830,0.606,1.120,-2.870,-0.350
1743951001.222101,-0.001,0.831,0.604,0.980,-2.730,-0.210
1743951001.242101,-0.002,0.834,0.604,0.910,-2.870,0.210
1743951001.262101,-0.002,0.834,0.606,0.910,-2.940,0.350
1743951001.282101,0.000,0.833,0.607,1.190,-3.010,0.280
1743951001.286970,0.001,0.833,0.606,1.120,-2.450,-1.050
1743951001.306970,0.001,0.832,0.603,1.190,-2.310,-1.190
1743951001.326970,0.000,0.832,0.605,0.980,-2.310,-1.260
1743951001.346970,0.001,0.838,0.604,0.770,-2.310,-1.050
1743951001.366970,-0.001,0.834,0.602,0.700,-2.380,-1.190
1743951001.386970,0.000,0.831,0.602,0.560,-2.310,-0.980
1743951001.362465,-0.000,0.833,0.607,0.700,-2.590,-0.420
1743951001.382465,0.001,0.832,0.605,0.840,-2.730,-0.420
1743951001.402465,-0.001,0.830,0.608,0.700,-2.590,-0.490
1743951001.422465,0.001,0.833,0.607,0.490,-2.590,-0.280
1743951001.442465,0.001,0.832,0.605,0.770,-2.590,-0.280
1743951001.462465,0.002,0.831,0.606,0.840,-2.660,-0.350
1743951001.466737,-0.001,0.831,0.603,1.050,-2.520,-0.560
1743951001.486737,0.000,0.833,0.604,0.840,-2.520,-0.770
1743951001.506737,-0.000,0.835,0.604,0.840,-2.520,-0.560
1743951001.526737,-0.000,0.835,0.607,0.980,-2.590,-0.560
1743951001.546737,0.001,0.832,0.605,0.910,-2.380,-1.050
1743951001.566737,0.002,0.832,0.605,0.910,-2.310,-1.050
1743951001.542554,0.001,0.832,0.607,1.190,-2.450,-1.260
1743951001.562554,0.001,0.830,0.603,1.400,-2.310,-1.400
1743951001.582554,0.002,0.835,0.606,0.700,-2.240,-1.330
1743951001.602554,-0.002,0.836,0.606,0.210,-2.100,-1.050
1743951001.622554,-0.001,0.834,0.606,-0.280,-2.520,-0.630
1743951001.642554,-0.002,0.833,0.603,-0.350,-2.590,-0.070
1743951001.633369,-0.001,0.831,0.608,1.470,-2.450,-1.050
1743951001.653369,0.001,0.831,0.605,1.610,-2.450,-1.120
1743951001.673369,-0.000,0.831,0.604,1.750,-2.590,-0.770
1743951001.693369,0.001,0.834,0.606,1.540,-2.660,-0.490
1743951001.713369,0.001,0.834,0.608,1.610,-2.590,-0.630
1743951001.733369,0.000,0.831,0.606,1.750,-2.520,-0.980
1743951001.706818,-0.003,0.834,0.606,0.630,-2.520,-0.490
1743951001.726818,-0.001,0.832,0.604,1.120,-2.520,-0.490
1743951001.746818,0.001,0.831,0.604,1.330,-2.450,-0.770
1743951001.766818,-0.000,0.834,0.607,1.260,-2.380,-0.770
1743951001.786818,-0.002,0.835,0.607,1.260,-2.520,-0.700
1743951001.806818,-0.002,0.833,0.601,1.190,-2.590,-0.700
1743951001.839864,0.001,0.832,0.605,0.980,-2.380,-0.910
1743951001.859864,0.000,0.832,0.606,0.980,-2.240,-1.190
1743951001.879864,0.000,0.834,0.608,0.840,-2.310,-1.190
1743951001.899864,0.000,0.834,0.608,1.050,-2.380,-1.050
1743951001.919864,0.000,0.832,0.605,1.330,-2.380,-1.190
1743951001.939864,0.000,0.830,0.606,1.260,-2.240,-1.190
1743951001.871372,0.000,0.834,0.608,0.770,-2.380,-0.840
1743951001.891372,0.001,0.834,0.604,0.770,-2.380,-0.840
1743951001.911372,-0.002,0.830,0.604,0.840,-2.310,-0.980
1743951001.931372,-0.002,0.833,0.606,0.770,-2.450,-0.700
1743951001.951372,-0.000,0.834,0.606,0.560,-2.520,-0.700
1743951001.971372,-0.002,0.832,0.606,0.700,-2.450,-0.630
1743951001.978470,0.002,0.836,0.604,0.910,-2.450,-0.910
1743951001.998470,-0.001,0.834,0.603,0.140,-2.310,-0.700
1743951002.018470,-0.001,0.831,0.604,-0.070,-2.520,-0.490
1743951002.038470,-0.001,0.834,0.610,0.070,-2.520,-0.140
1743951002.058470,0.001,0.834,0.607,0.700,-2.590,-0.280
1743951002.078470,0.124,0.829,0.605,1.120,-2.520,-0.770
1743951002.066624,0.000,0.832,0.606,1.120,-2.730,-0.490
1743951002.086624,0.000,0.831,0.603,1.120,-2.520,-0.630
1743951002.106624,0.001,0.835,0.608,0.980,-2.590,-0.910
1743951002.126624,0.000,0.831,0.605,1.260,-2.380,-0.980
1743951002.146624,0.001,0.833,0.605,1.190,-2.450,-1.050
1743951002.166624,0.001,0.833,0.603,0.980,-2.450,-0.770
1743951002.157967,0.001,0.829,0.605,1.260,-2.520,-0.700
1743951002.177967,0.000,0.833,0.607,0.770,-2.660,-0.560
1743951002.197967,-0.001,0.834,0.607,0.770,-2.520,-0.490
1743951002.217967,0.001,0.831,0.605,1.050,-2.590,-0.350
1743951002.237967,0.002,0.832,0.603,0.980,-2.660,-0.420
1743951002.257967,-0.001,0.833,0.604,0.630,-2.520,-0.420
1743951002.246756,0.001,0.833,0.604,1.260,-2.520,-0.770
1743951002.266756,-0.000,0.835,0.605,0.770,-2.520,-0.490
1743951002.286756,-0.001,0.833,0.608,0.980,-2.590,-0.560
1743951002.306756,0.000,0.829,0.607,1.260,-2.520,-0.770
1743951002.326756,0.000,0.833,0.603,1.050,-2.520,-0.910
1743951002.346756,-0.000,0.835,0.605,0.770,-2.380,-0.770
1743951002.351911,0.001,0.832,0.606,1.050,-2.450,-0.770
1743951002.371911,-0.001,0.838,0.606,1.120,-2.520,-0.910
1743951002.391911,-0.000,0.828,0.603,1.470,-2.660,-0.840
1743951002.411911,0.000,0.829,0.604,1.470,-2.450,-0.910
1743951002.431911,0.000,0.830,0.604,1.050,-2.380,-0.840
1743951002.451911,-0.000,0.835,0.606,1.120,-2.380,-0.840
1743951002.441391,-0.001,0.833,0.605,0.910,-2.450,-0.700
1743951002.461391,-0.000,0.832,0.607,1.050,-2.450,-0.770
1743951002.481391,0.001,0.831,0.602,0.910,-2.380,-0.840
1743951002.501391,-0.001,0.835,0.605,0.700,-2.380,-0.770
1743951002.521391,0.001,0.834,0.610,0.770,-2.450,-0.770
1743951002.541391,0.003,0.831,0.603,1.260,-2.310,-0.910
1743951002.559878,0.000,0.831,0.604,0.980,-2.520,-0.700
1743951002.579878,-0.000,0.835,0.606,0.770,-2.450,-0.560
1743951002.599878,-0.000,0.833,0.607,0.980,-2.520,-0.630
1743951002.619878,0.000,0.831,0.605,1.190,-2.520,-0.770
1743951002.639878,0.000,0.832,0.606,1.330,-2.520,-0.840
1743951002.659878,0.000,0.836,0.605,0.770,-2.380,-0.700
1743951002.606435,-0.000,0.829,0.605,0.840,-2.520,-0.630
1743951002.626435,0.000,0.833,0.604,0.910,-2.520,-0.630
1743951002.646435,0.001,0.833,0.605,0.630,-2.520,-0.560
1743951002.666435,-0.001,0.832,0.606,0.840,-2.520,-0.560
1743951002.686435,0.000,0.832,0.603,1.120,-2.660,-0.630
1743951002.706435,0.001,0.834,0.605,1.120,-2.450,-0.560
1743951002.741494,0.001,0.834,0.603,0.980,-2.590,-0.700
1743951002.761494,0.000,0.834,0.606,0.980,-2.450,-0.630
1743951002.781494,0.001,0.834,0.605,0.770,-2.450,-0.630
1743951002.801494,0.002,0.832,0.607,1.190,-2.520,-0.770
1743951002.821494,0.001,0.833,0.603,1.190,-2.450,-0.980
1743951002.841494,0.000,0.833,0.604,1.120,-2.450,-0.910
1743951002.787617,0.000,0.828,0.602,1.120,-2.520,-0.770
1743951002.807617,0.000,0.834,0.606,0.770,-2.450,-0.770
1743951002.827617,0.000,0.838,0.606,0.770,-2.450,-0.700
1743951002.847617,-0.003,0.834,0.606,0.910,-2.520,-0.700
1743951002.867617,-0.001,0.830,0.602,0.910,-2.520,-0.630
1743951002.887617,-0.000,0.834,0.605,0.560,-2.520,-0.560
1743951002.879105,-0.000,0.832,0.603,1.050,-2.450,-0.630
1743951002.899105,0.000,0.834,0.606,0.560,-2.450,-0.630
1743951002.919105,-0.001,0.835,0.606,0.420,-2.660,-0.350
1743951002.939105,0.000,0.830,0.602,0.840,-2.590,-0.560
1743951002.959105,0.002,0.832,0.604,0.770,-2.520,-0.700
1743951002.979105,0.002,0.835,0.607,0.630,-2.450,-0.630
1743951002.953378,0.002,0.831,0.606,0.630,-2.240,-1.050
1743951002.973378,0.001,0.832,0.606,0.560,-2.240,-1.120
1743951002.993378,0.002,0.833,0.608,0.840,-2.240,-1.050
1743951003.013378,0.000,0.832,0.605,1.260,-2.240,-1.330
1743951003.033378,0.002,0.833,0.604,1.190,-2.240,-1.400
1743951003.053378,0.001,0.835,0.605,1.190,-2.240,-1.400
1743951003.042125,-0.000,0.831,0.604,2.660,-2.030,-1.680
1743951003.062125,-0.002,0.834,0.602,2.520,-2.030,-1.540
1743951003.082125,0.000,0.836,0.601,1.820,-2.310,-1.120
1743951003.102125,-0.000,0.834,0.601,0.910,-2.450,-0.630
1743951003.122125,0.000,0.833,0.602,0.700,-2.520,-0.280
1743951003.142125,-0.002,0.835,0.603,0.000,-2.520,0.070
1743951003.133433,-0.002,0.833,0.602,0.630,-2.590,-0.140
1743951003.153433,-0.001,0.835,0.607,0.630,-2.660,0.140
1743951003.173433,-0.001,0.831,0.607,0.770,-2.940,0.070
1743951003.193433,0.000,0.834,0.606,0.910,-2.730,0.140
1743951003.213433,0.001,0.834,0.604,0.840,-2.730,-0.280
1743951003.233433,0.002,0.836,0.605,0.840,-2.660,-0.350
1743951003.236486,0.000,0.835,0.606,0.630,-2.450,-0.980
1743951003.256486,0.002,0.830,0.603,0.980,-2.310,-1.190
1743951003.276486,-0.001,0.832,0.602,0.770,-2.240,-1.120
1743951003.296486,-0.000,0.837,0.603,0.560,-2.380,-0.910
1743951003.316486,-0.001,0.834,0.605,0.560,-2.590,-0.700
1743951003.336486,0.000,0.831,0.604,0.770,-2.660,-0.490
1743951003.341115,0.002,0.834,0.609,0.770,-2.590,-0.490
1743951003.361115,0.000,0.831,0.603,0.910,-2.590,-0.630
1743951003.381115,0.001,0.834,0.605,0.840,-2.520,-0.630
1743951003.401115,-0.001,0.835,0.607,0.770,-2.660,-0.420
1743951003.421115,0.004,0.835,0.604,1.050,-2.590,-0.560
1743951003.441115,0.003,0.830,0.605,1.120,-2.450,-0.700
1743951003.445110,0.003,0.831,0.607,0.980,-2.520,-0.770
1743951003.465110,0.001,0.832,0.605,0.910,-2.310,-0.910
1743951003.485110,0.000,0.835,0.609,0.490,-2.520,-0.770
1743951003.505110,0.000,0.835,0.605,0.560,-2.590,-0.700
1743951003.525110,0.000,0.831,0.603,0.910,-2.450,-0.980
1743951003.545110,0.000,0.830,0.604,0.910,-2.310,-0.840
1743951003.491391,-0.000,0.835,0.606,0.770,-2.520,-0.630
1743951003.511391,-0.002,0.832,0.605,0.910,-2.450,-0.770
1743951003.531391,0.001,0.831,0.604,0.840,-2.380,-0.700
1743951003.551391,0.001,0.836,0.607,0.560,-2.380,-0.490
1743951003.571391,0.002,0.833,0.605,0.700,-2.450,-0.700
1743951003.591391,0.000,0.832,0.605,1.120,-2.450,-0.840
1743951003.566856,0.001,0.838,0.608,0.700,-2.520,-0.630
1743951003.586856,0.001,0.832,0.607,0.770,-2.380,-0.630
1743951003.606856,-0.001,0.830,0.602,1.050,-2.520,-0.840
1743951003.626856,0.000,0.830,0.606,0.910,-2.380,-0.910
1743951003.646856,0.001,0.834,0.607,0.770,-2.520,-0.840
1743951003.666856,0.001,0.830,0.605,1.120,-2.380,-0.910
1743951003.641762,0.000,0.834,0.606,1.050,-2.380,-0.840
1743951003.661762,0.003,0.833,0.605,1.190,-2.380,-0.980
1743951003.681762,-0.000,0.832,0.606,1.400,-2.450,-1.050
1743951003.701762,-0.001,0.834,0.605,1.260,-2.170,-1.120
1743951003.721762,-0.000,0.838,0.607,1.120,-2.310,-1.050
1743951003.741762,0.001,0.834,0.607,1.470,-2.310,-1.050
1743951003.761672,-0.001,0.831,0.606,1.190,-2.380,-1.050
1743951003.781672,0.000,0.832,0.605,1.050,-2.310,-1.120
1743951003.801672,-0.000,0.835,0.604,0.910,-2.240,-1.050
1743951003.821672,0.001,0.831,0.603,1.260,-2.380,-1.260
1743951003.841672,-0.001,0.834,0.606,1.120,-2.240,-1.330
1743951003.861672,-0.003,0.835,0.608,0.910,-2.310,-1.050
1743951003.836717,-0.001,0.832,0.606,1.120,-2.240,-1.120
1743951003.856717,0.000,0.834,0.604,1.120,-2.170,-1.120
1743951003.876717,0.000,0.834,0.608,0.840,-2.170,-1.190
1743951003.896717,0.000,0.833,0.602,1.120,-2.380,-1.050
1743951003.916717,-0.000,0.831,0.604,1.120,-2.520,-0.980
1743951003.936717,-0.004,0.834,0.604,1.470,-2.450,-0.070
1743951003.941535,0.003,0.833,0.607,-0.700,-2.800,0.000
1743951003.961535,0.002,0.834,0.605,-0.280,-2.730,-0.910
1743951003.981535,0.000,0.833,0.603,-0.280,-2.520,-1.190
1743951004.001535,0.001,0.836,0.607,-0.420,-2.590,-0.910
1743951004.021535,0.000,0.832,0.606,-0.560,-2.660,-0.770
1743951004.041535,0.001,0.830,0.609,0.070,-2.590,-0.420
1743951004.048212,0.000,0.831,0.606,2.590,-1.820,-2.590
1743951004.068212,-0.001,0.832,0.604,2.870,-1.680,-2.730
1743951004.088212,-0.003,0.834,0.606,2.730,-1.960,-2.520
1743951004.108212,-0.005,0.832,0.604,3.080,-1.960,-1.960
1743951004.128212,-0.003,0.829,0.602,2.800,-1.960,-1.820
1743951004.148212,-0.003,0.828,0.602,2.730,-1.960,-1.470
1743951004.136654,0.001,0.834,0.608,-0.840,-2.800,-0.070
1743951004.156654,-0.001,0.833,0.607,0.000,-2.800,-0.140
1743951004.176654,-0.002,0.831,0.606,0.560,-2.660,-0.490
1743951004.196654,-0.002,0.831,0.607,0.700,-2.590,-0.560
1743951004.216654,-0.002,0.833,0.607,0.840,-2.660,-0.350
1743951004.236654,-0.001,0.834,0.606,1.120,-2.660,-0.350
1743951004.226689,0.001,0.832,0.605,0.490,-2.310,-1.190
1743951004.246689,-0.002,0.830,0.607,1.120,-2.170,-1.470
1743951004.266689,0.001,0.833,0.602,0.980,-2.170,-1.470
1743951004.286689,-0.002,0.833,0.604,0.560,-2.100,-1.470
1743951004.306689,-0.001,0.832,0.604,0.770,-2.100,-1.610
1743951004.326689,-0.001,0.831,0.604,0.770,-2.100,-1.610
1743951004.346635,-0.000,0.830,0.607,0.910,-2.800,-0.070
1743951004.366635,0.000,0.830,0.604,1.330,-2.660,-0.350
1743951004.386635,0.000,0.830,0.606,1.470,-2.660,-0.350
1743951004.406635,-0.000,0.835,0.608,1.330,-2.660,-0.280
1743951004.426635,-0.001,0.832,0.607,1.330,-2.660,-0.210
1743951004.446635,0.000,0.831,0.604,1.470,-2.660,-0.420
1743951004.420890,0.001,0.831,0.606,1.260,-2.450,-0.910
1743951004.440890,-0.000,0.834,0.605,1.120,-2.380,-0.980
1743951004.460890,-0.001,0.834,0.607,0.840,-2.380,-0.840
1743951004.480890,-0.002,0.835,0.604,1.050,-2.450,-0.770
1743951004.500890,-0.001,0.830,0.604,1.190,-2.450,-0.980
1743951004.520890,-0.000,0.833,0.604,1.120,-2.520,-0.980
1743951004.496754,0.000,0.832,0.603,0.700,-2.520,-0.840
1743951004.516754,-0.001,0.835,0.607,0.490,-2.310,-0.700
1743951004.536754,-0.001,0.834,0.610,0.490,-2.310,-0.630
1743951004.556754,-0.001,0.831,0.604,0.630,-2.520,-0.770
1743951004.576754,0.000,0.829,0.603,0.980,-2.520,-0.910
1743951004.596754,0.001,0.836,0.608,0.770,-2.450,-0.700
1743951004.571523,-0.000,0.833,0.608,1.260,-2.450,-1.050
1743951004.591523,0.001,0.830,0.602,1.260,-2.450,-1.120
1743951004.611523,0.000,0.836,0.607,0.840,-2.380,-0.770
1743951004.631523,-0.001,0.837,0.604,0.700,-2.520,-0.700
1743951004.651523,-0.002,0.832,0.606,0.840,-2.450,-0.700
1743951004.671523,0.000,0.829,0.603,0.840,-2.450,-0.560
1743951004.661697,-0.002,0.830,0.604,0.910,-2.520,-0.630
1743951004.681697,-0.003,0.832,0.603,0.630,-2.590,-0.420
1743951004.701697,-0.001,0.835,0.606,0.700,-2.520,-0.490
1743951004.721697,0.000,0.833,0.607,0.910,-2.520,-0.490
1743951004.741697,-0.001,0.829,0.605,1.190,-2.520,-0.770
1743951004.761697,0.000,0.832,0.603,0.910,-2.380,-0.840
1743951004.737359,-0.003,0.832,0.608,0.630,-2.870,-0.070
1743951004.757359,-0.002,0.828,0.606,0.840,-2.800,-0.070
1743951004.777359,0.000,0.832,0.605,0.490,-2.870,0.000
1743951004.797359,-0.001,0.835,0.609,0.350,-2.800,0.070
1743951004.817359,0.001,0.831,0.606,0.420,-2.730,-0.070
1743951004.837359,0.002,0.831,0.604,0.350,-2.800,0.000
1743951004.826304,0.000,0.829,0.609,1.610,-2.170,-1.680
1743951004.846304,0.002,0.832,0.608,1.820,-2.030,-1.750
1743951004.866304,-0.001,0.834,0.607,1.540,-1.960,-1.960
1743951004.886304,0.000,0.833,0.608,1.820,-1.960,-2.100
1743951004.906304,-0.002,0.830,0.604,1.960,-1.820,-2.450
1743951004.926304,0.001,0.833,0.605,2.380,-1.960,-2.170
1743951004.948076,-0.002,0.834,0.608,0.000,-2.450,-0.280
1743951004.968076,-0.002,0.833,0.604,0.000,-2.520,-0.420
1743951004.988076,-0.002,0.829,0.604,0.350,-2.380,-0.770
1743951005.008076,-0.003,0.830,0.606,0.280,-2.450,-0.910
1743951005.028076,-0.004,0.835,0.606,0.420,-2.660,-0.420
1743951005.048076,-0.003,0.833,0.606,0.630,-2.660,-0.280
1743951005.036396,0.000,0.829,0.604,1.540,-2.310,-1.190
1743951005.056396,-0.002,0.835,0.606,1.400,-2.380,-1.050
1743951005.076396,0.000,0.836,0.607,1.190,-2.520,-0.910
1743951005.096396,-0.001,0.834,0.602,1.120,-2.520,-0.770
1743951005.116396,-0.002,0.832,0.604,0.980,-2.380,-0.910
1743951005.136396,0.000,0.834,0.607,0.770,-2.380,-0.910
1743951005.126394,-0.000,0.832,0.605,0.770,-2.520,-0.560
1743951005.146394,0.000,0.831,0.607,0.840,-2.520,-0.560
1743951005.166394,0.000,0.829,0.605,0.910,-2.590,-0.770
1743951005.186394,0.001,0.830,0.604,1.050,-2.520,-0.700
1743951005.206394,0.000,0.834,0.606,0.910,-2.590,-0.490
1743951005.226394,0.001,0.833,0.606,1.050,-2.660,-0.700
1743951005.244717,-0.001,0.834,0.605,0.980,-2.660,-0.350
1743951005.264717,0.000,0.835,0.606,0.840,-2.730,-0.350
1743951005.284717,0.002,0.833,0.605,0.980,-2.660,-0.210
1743951005.304717,-0.002,0.833,0.604,0.840,-2.590,-0.210
1743951005.324717,0.002,0.835,0.604,0.630,-2.730,-0.070
1743951005.344717,0.001,0.834,0.605,0.490,-2.730,0.000
1743951005.307105,-0.001,0.834,0.604,0.280,-2.590,-0.280
1743951005.327105,0.000,0.832,0.607,0.560,-2.520,-0.700
1743951005.347105,0.001,0.832,0.605,0.840,-2.380,-0.700
1743951005.367105,0.000,0.833,0.608,0.840,-2.380,-0.910
1743951005.387105,-0.001,0.832,0.606,0.910,-2.450,-0.840
1743951005.407105,-0.001,0.828,0.605,1.050,-2.520,-0.840
1743951005.396722,0.001,0.833,0.608,1.400,-2.800,-0.420
1743951005.416722,0.005,0.830,0.607,1.330,-2.660,-0.560
1743951005.436722,0.002,0.834,0.606,1.400,-2.730,-0.420
1743951005.456722,0.002,0.834,0.608,1.400,-2.800,-0.560
1743951005.476722,0.002,0.829,0.607,1.680,-2.590,-0.490
1743951005.496722,0.003,0.831,0.604,2.030,-2.730,-0.630
1743951005.487466,0.001,0.834,0.604,3.010,-2.030,-2.030
1743951005.507466,0.001,0.834,0.602,2.590,-1.890,-1.890
1743951005.527466,-0.004,0.836,0.604,2.310,-1.960,-1.820
1743951005.547466,-0.001,0.837,0.603,2.170,-2.100,-1.750
1743951005.567466,0.000,0.833,0.599,1.890,-1.960,-1.610
1743951005.587466,-0.000,0.835,0.601,1.330,-1.960,-1.750
1743951005.576879,0.000,0.834,0.603,0.140,-2.240,-0.980
1743951005.596879,-0.002,0.834,0.602,-0.070,-2.240,-0.840
1743951005.616879,-0.003,0.835,0.604,-0.350,-2.380,-0.490
1743951005.636879,-0.002,0.834,0.606,-0.560,-2.450,-0.490
1743951005.656879,-0.000,0.834,0.605,-0.280,-2.450,-0.420
1743951005.676879,-0.003,0.834,0.607,-0.490,-2.310,-0.630
1743951005.666626,-0.003,0.834,0.603,0.490,-1.890,-1.820
1743951005.686626,-0.003,0.834,0.606,0.490,-1.960,-1.680
1743951005.706626,-0.004,0.833,0.607,0.560,-1.960,-1.680
1743951005.726626,-0.003,0.832,0.606,0.700,-1.960,-1.750
1743951005.746626,-0.003,0.833,0.606,0.420,-1.890,-1.750
1743951005.766626,-0.004,0.833,0.607,0.280,-2.030,-1.680
1743951005.772837,-0.006,0.833,0.607,1.190,-2.310,-1.120
1743951005.792837,-0.004,0.831,0.606,1.400,-2.310,-1.190
1743951005.812837,-0.004,0.830,0.606,1.610,-2.520,-0.980
1743951005.832837,-0.005,0.832,0.605,1.610,-2.590,-0.560
1743951005.852837,-0.004,0.834,0.605,1.960,-2.730,-0.490
1743951005.872837,-0.006,0.829,0.602,2.030,-2.590,-0.560
1743951005.846202,-0.005,0.835,0.604,1.890,-2.940,-0.070
1743951005.866202,-0.003,0.831,0.602,1.890,-2.870,-0.070
1743951005.886202,-0.003,0.833,0.605,1.470,-2.730,-0.140
1743951005.906202,-0.002,0.833,0.602,1.120,-2.800,-0.140
1743951005.926202,-0.003,0.837,0.607,1.400,-2.730,-0.280
1743951005.946202,-0.001,0.832,0.604,1.260,-2.730,-0.350
1743951005.923141,-0.002,0.834,0.605,1.120,-2.520,-0.490
1743951005.943141,-0.005,0.838,0.606,0.770,-2.520,-0.630
1743951005.963141,-0.003,0.832,0.602,0.770,-2.590,-0.560
1743951005.983141,-0.004,0.833,0.604,0.840,-2.520,-0.700
1743951006.003141,-0.002,0.834,0.601,0.630,-2.590,-0.630
1743951006.023141,-0.003,0.836,0.606,0.490,-2.450,-0.770
1743951006.026450,-0.002,0.834,0.607,0.630,-2.450,-0.630
1743951006.046450,-0.007,0.829,0.604,0.840,-2.520,-0.630
1743951006.066450,-0.004,0.832,0.605,0.910,-2.520,-0.770
1743951006.086450,-0.001,0.833,0.604,0.700,-2.520,-0.560
1743951006.106450,-0.002,0.835,0.606,0.490,-2.520,-0.560
1743951006.126450,-0.002,0.833,0.606,0.840,-2.450,-0.490
1743951006.086660,-0.003,0.836,0.607,0.560,-2.590,-0.560
1743951006.106660,-0.002,0.832,0.605,0.840,-2.520,-0.700
1743951006.126660,0.000,0.833,0.600,0.910,-2.380,-0.840
1743951006.146660,-0.001,0.835,0.603,0.840,-2.450,-0.700
1743951006.166660,-0.003,0.836,0.604,0.770,-2.450,-0.700
1743951006.186660,-0.003,0.831,0.605,0.910,-2.590,-0.840
1743951006.176746,-0.005,0.834,0.603,0.700,-2.520,-0.700
1743951006.196746,-0.003,0.833,0.607,0.630,-2.380,-0.770
1743951006.216746,-0.004,0.832,0.604,0.770,-2.590,-0.630
1743951006.236746,-0.003,0.832,0.602,0.980,-2.450,-0.840
1743951006.256746,-0.003,0.834,0.603,0.630,-2.520,-0.630
1743951006.276746,-0.004,0.836,0.605,0.420,-2.590,-0.490
1743951006.266780,-0.002,0.835,0.607,1.050,-2.520,-0.560
1743951006.286780,-0.002,0.834,0.608,0.980,-2.590,-0.630
1743951006.306780,-0.003,0.831,0.607,1.260,-2.590,-0.630
1743951006.326780,-0.001,0.833,0.604,1.330,-2.590,-0.700
1743951006.346780,-0.001,0.834,0.607,1.120,-2.590,-0.700
1743951006.366780,-0.004,0.834,0.609,0.840,-2.450,-0.630
1743951006.343197,-0.001,0.833,0.603,1.190,-2.520,-0.700
1743951006.363197,-0.002,0.834,0.605,0.910,-2.520,-0.560
1743951006.383197,-0.003,0.832,0.605,1.190,-2.590,-0.700
1743951006.403197,0.000,0.831,0.600,1.050,-2.590,-0.700
1743951006.423197,-0.001,0.834,0.602,0.840,-2.590,-0.560
1743951006.443197,-0.004,0.835,0.604,0.770,-2.590,-0.630
1743951006.448393,-0.002,0.835,0.606,0.560,-2.590,-0.350
1743951006.468393,-0.002,0.831,0.607,1.050,-2.590,-0.560
1743951006.488393,-0.002,0.832,0.605,0.980,-2.450,-0.770
1743951006.508393,-0.002,0.836,0.603,0.840,-2.520,-0.840
1743951006.528393,-0.003,0.835,0.607,1.050,-2.450,-0.910
1743951006.548393,-0.002,0.831,0.606,1.330,-2.450,-0.910
1743951006.521906,-0.002,0.836,0.605,1.190,-2.450,-0.910
1743951006.541906,-0.002,0.834,0.604,1.190,-2.450,-0.980
1743951006.561906,-0.000,0.832,0.605,1.260,-2.380,-0.980
1743951006.581906,-0.003,0.836,0.605,1.050,-2.380,-0.770
1743951006.601906,-0.003,0.834,0.605,1.120,-2.380,-0.700
1743951006.621906,-0.003,0.832,0.605,1.050,-2.380,-0.910
1743951006.611982,-0.003,0.836,0.607,0.770,-2.450,-0.910
1743951006.631982,-0.003,0.833,0.607,0.980,-2.450,-0.840
1743951006.651982,-0.002,0.834,0.604,1.050,-2.520,-0.840
1743951006.671982,-0.001,0.833,0.605,0.910,-2.380,-0.770
1743951006.691982,-0.003,0.835,0.605,0.840,-2.450,-0.630
1743951006.711982,-0.001,0.831,0.605,1.120,-2.450,-0.770
1743951006.747214,-0.002,0.833,0.604,1.050,-2.450,-0.700
1743951006.767214,-0.004,0.836,0.603,0.770,-2.380,-0.700
1743951006.787214,-0.003,0.834,0.604,1.190,-2.520,-0.630
1743951006.807214,-0.003,0.831,0.604,1.260,-2.520,-0.910
1743951006.827214,-0.003,0.833,0.602,1.050,-2.380,-0.770
1743951006.847214,-0.002,0.835,0.606,0.980,-2.450,-0.770
1743951006.791299,-0.004,0.834,0.604,1.120,-2.380,-0.910
1743951006.811299,-0.003,0.834,0.606,0.910,-2.450,-0.840
1743951006.831299,-0.003,0.834,0.604,1.050,-2.450,-0.700
1743951006.851299,-0.003,0.831,0.601,0.980,-2.380,-0.700
1743951006.871299,-0.003,0.834,0.604,0.910,-2.450,-0.770
1743951006.891299,-0.002,0.835,0.605,0.700,-2.450,-0.700
1743951006.881269,-0.004,0.836,0.605,0.490,-2.450,-0.770
1743951006.901269,-0.001,0.834,0.603,0.910,-2.450,-0.700
1743951006.921269,-0.002,0.831,0.603,0.980,-2.450,-0.910
1743951006.941269,-0.002,0.832,0.603,0.840,-2.450,-0.910
1743951006.961269,-0.004,0.834,0.608,0.630,-2.590,-0.910
1743951006.981269,-0.005,0.832,0.602,0.770,-2.450,-0.910
1743951006.986434,-0.001,0.831,0.605,0.980,-2.590,-0.770
1743951007.006434,-0.004,0.834,0.605,0.910,-2.450,-0.630
1743951007.026434,-0.003,0.836,0.605,0.630,-2.590,-0.560
1743951007.046434,-0.003,0.836,0.606,0.770,-2.660,-0.630
1743951007.066434,-0.004,0.831,0.605,0.840,-2.520,-0.770
1743951007.086434,-0.002,0.832,0.605,0.980,-2.520,-0.700
1743951007.090119,-0.003,0.836,0.606,0.980,-2.310,-0.840
1743951007.110119,-0.003,0.835,0.606,0.910,-2.590,-0.560
1743951007.130119,-0.002,0.832,0.605,1.050,-2.520,-0.700
1743951007.150119,-0.002,0.830,0.604,1.050,-2.520,-0.700
1743951007.170119,-0.004,0.835,0.607,0.980,-2.520,-0.560
1743951007.190119,-0.005,0.835,0.605,0.560,-2.520,-0.490
1743951007.167328,-0.002,0.835,0.606,0.980,-2.380,-0.840
1743951007.187328,-0.002,0.835,0.608,0.840,-2.450,-0.770
1743951007.207328,-0.003,0.831,0.607,1.260,-2.520,-0.700
1743951007.227328,-0.001,0.831,0.603,1.190,-2.450,-0.840
1743951007.247328,-0.002,0.835,0.602,1.120,-2.450,-0.770
1743951007.267328,-0.003,0.835,0.606,0.910,-2.380,-0.700
1743951007.226762,-0.001,0.832,0.602,1.050,-2.380,-0.840
1743951007.246762,-0.002,0.830,0.602,1.190,-2.450,-0.980
1743951007.266762,-0.002,0.833,0.603,0.980,-2.450,-0.910
1743951007.286762,-0.004,0.836,0.604,0.910,-2.380,-0.770
1743951007.306762,-0.002,0.832,0.605,1.120,-2.520,-0.700
1743951007.326762,0.000,0.834,0.603,1.120,-2.450,-0.840
1743951007.347157,-0.003,0.831,0.603,0.980,-2.380,-0.980
1743951007.367157,-0.004,0.836,0.604,0.910,-2.380,-0.910
1743951007.387157,-0.004,0.833,0.606,0.910,-2.380,-0.910
1743951007.407157,-0.003,0.831,0.603,1.050,-2.450,-0.980
1743951007.427157,-0.004,0.832,0.601,1.190,-2.310,-0.980
1743951007.447157,-0.002,0.833,0.604,0.910,-2.450,-0.840
1743951007.406798,-0.006,0.831,0.603,1.190,-2.450,-0.840
1743951007.426798,-0.004,0.835,0.607,0.980,-2.380,-0.980
1743951007.446798,-0.003,0.834,0.606,0.840,-2.520,-0.700
1743951007.466798,-0.002,0.834,0.604,1.050,-2.450,-0.700
1743951007.486798,-0.003,0.831,0.602,1.050,-2.520,-0.700
1743951007.506798,-0.003,0.834,0.604,0.630,-2.450,-0.560
1743951007.510145,-0.001,0.831,0.608,1.120,-2.450,-0.840
1743951007.530145,-0.004,0.834,0.603,0.840,-2.380,-0.770
1743951007.550145,-0.002,0.834,0.605,0.910,-2.520,-0.770
1743951007.570145,-0.002,0.831,0.604,1.120,-2.590,-0.840
1743951007.590145,-0.004,0.832,0.603,0.980,-2.450,-0.770
1743951007.610145,0.000,0.837,0.607,0.630,-2.450,-0.560
1743951007.586311,-0.002,0.834,0.604,0.840,-2.450,-0.700
1743951007.606311,-0.005,0.834,0.606,0.700,-2.450,-0.630
1743951007.626311,-0.003,0.831,0.604,0.980,-2.450,-0.840
1743951007.646311,-0.004,0.832,0.604,0.910,-2.380,-0.910
1743951007.666311,-0.003,0.836,0.603,0.770,-2.450,-0.700
1743951007.686311,-0.002,0.834,0.605,0.770,-2.450,-0.700
1743951007.691384,-0.002,0.832,0.604,0.980,-2.520,-0.700
1743951007.711384,-0.002,0.831,0.606,0.980,-2.520,-0.840
1743951007.731384,-0.003,0.839,0.605,0.770,-2.590,-0.770
1743951007.751384,-0.005,0.836,0.605,0.840,-2.590,-0.630
1743951007.771384,-0.004,0.831,0.605,1.190,-2.450,-0.910
1743951007.791384,-0.000,0.832,0.605,1.190,-2.380,-0.700
1743951007.767003,-0.004,0.833,0.601,0.910,-2.520,-0.840
1743951007.787003,-0.004,0.834,0.607,1.050,-2.450,-0.770
1743951007.807003,-0.002,0.834,0.606,0.840,-2.590,-0.630
1743951007.827003,-0.001,0.834,0.605,0.700,-2.660,-0.560
1743951007.847003,-0.004,0.831,0.602,0.910,-2.590,-0.490
1743951007.867003,-0.003,0.833,0.605,0.910,-2.520,-0.490
1743951007.872497,-0.004,0.834,0.604,1.050,-2.380,-0.770
1743951007.892497,-0.004,0.835,0.607,1.190,-2.520,-0.700
1743951007.912497,-0.003,0.833,0.606,1.260,-2.520,-0.770
1743951007.932497,-0.005,0.832,0.603,1.120,-2.520,-0.840
1743951007.952497,-0.002,0.834,0.606,0.840,-2.380,-0.630
1743951007.972497,-0.003,0.834,0.606,0.910,-2.590,-0.770
1743951007.961634,-0.003,0.834,0.606,1.050,-2.310,-0.980
1743951007.981634,-0.006,0.833,0.603,1.260,-2.450,-0.980
1743951008.001634,-0.007,0.828,0.600,1.470,-2.380,-1.260
1743951008.021634,-0.004,0.833,0.601,1.400,-2.170,-1.260
1743951008.041634,-0.006,0.837,0.606,1.260,-2.170,-0.980
1743951008.061634,-0.006,0.834,0.603,1.120,-2.450,-0.980
1743951008.037728,-0.001,0.833,0.604,0.350,-2.380,-0.910
1743951008.057728,-0.002,0.832,0.606,0.210,-2.240,-1.050
1743951008.077728,-0.002,0.832,0.607,0.770,-2.240,-1.400
1743951008.097728,-0.002,0.831,0.605,1.120,-2.170,-1.540
1743951008.117728,-0.002,0.829,0.607,1.330,-2.170,-1.610
1743951008.137728,-0.002,0.834,0.607,1.610,-2.170,-1.470
1743951008.112605,-0.006,0.833,0.603,3.360,-2.030,-1.610
1743951008.132605,-0.007,0.835,0.602,3.010,-2.030,-1.330
1743951008.152605,-0.008,0.835,0.604,2.660,-2.310,-0.980
1743951008.172605,-0.005,0.835,0.601,2.240,-2.520,-0.770
1743951008.192605,-0.004,0.834,0.601,1.680,-2.520,-0.490
1743951008.212605,-0.003,0.836,0.602,1.330,-2.520,-0.280
1743951008.245218,-0.002,0.834,0.601,0.490,-2.380,-0.770
1743951008.265218,-0.004,0.833,0.604,0.490,-2.380,-0.910
1743951008.285218,-0.001,0.835,0.604,0.350,-2.310,-1.050
1743951008.305218,-0.006,0.838,0.604,0.350,-2.240,-1.120
1743951008.325218,-0.002,0.833,0.605,0.490,-2.240,-1.190
1743951008.345218,-0.006,0.833,0.605,0.700,-2.100,-1.400
1743951008.338414,-0.006,0.835,0.603,0.770,-2.170,-1.330
1743951008.358414,-0.005,0.836,0.605,0.490,-2.100,-1.190
1743951008.378414,-0.007,0.833,0.603,0.630,-2.380,-1.050
1743951008.398414,-0.006,0.834,0.604,0.490,-2.380,-1.190
1743951008.418414,-0.005,0.833,0.603,0.490,-2.310,-0.980
1743951008.438414,-0.006,0.835,0.603,0.280,-2.450,-0.980
1743951008.398508,-0.006,0.831,0.602,0.770,-2.450,-0.630
1743951008.418508,-0.008,0.835,0.605,0.840,-2.450,-0.560
1743951008.438508,-0.007,0.833,0.606,0.840,-2.660,-0.630
1743951008.458508,-0.004,0.833,0.605,1.120,-2.520,-0.700
1743951008.478508,-0.004,0.834,0.603,1.050,-2.590,-0.700
1743951008.498508,-0.007,0.836,0.603,0.980,-2.660,-0.560
1743951008.486639,-0.005,0.835,0.602,1.050,-2.590,-0.490
1743951008.506639,-0.005,0.835,0.603,0.980,-2.590,-0.420
1743951008.526639,-0.006,0.833,0.603,0.980,-2.660,-0.350
1743951008.546639,-0.006,0.834,0.603,0.700,-2.590,-0.420
1743951008.566639,-0.006,0.835,0.603,0.840,-2.660,-0.280
1743951008.586639,-0.004,0.836,0.605,0.840,-2.730,-0.210
1743951008.578415,-0.004,0.833,0.602,1.330,-2.450,-0.910
1743951008.598415,-0.005,0.835,0.601,1.260,-2.520,-0.840
1743951008.618415,-0.007,0.836,0.602,1.050,-2.380,-0.770
1743951008.638415,-0.006,0.834,0.603,1.050,-2.520,-0.630
1743951008.658415,-0.005,0.834,0.602,1.190,-2.310,-0.910
1743951008.678415,-0.007,0.833,0.602,0.980,-2.380,-0.910
1743951008.680052,-0.007,0.833,0.602,0.630,-2.520,-0.770
1743951008.700052,-0.004,0.835,0.602,0.630,-2.450,-0.700
1743951008.720052,-0.005,0.835,0.604,0.490,-2.450,-0.770
1743951008.740052,-0.006,0.833,0.604,0.630,-2.310,-0.910
1743951008.760052,-0.005,0.834,0.605,0.630,-2.450,-0.840
1743951008.780052,-0.005,0.835,0.605,0.700,-2.520,-0.770
1743951008.756815,-0.004,0.834,0.605,0.980,-2.450,-0.910
1743951008.776815,-0.009,0.835,0.605,0.980,-2.450,-0.910
1743951008.796815,-0.005,0.833,0.606,0.840,-2.520,-0.700
1743951008.816815,-0.005,0.833,0.601,0.980,-2.380,-0.840
1743951008.836815,-0.004,0.834,0.606,0.770,-2.450,-0.700
1743951008.856815,-0.007,0.835,0.603,0.840,-2.520,-0.700
1743951008.846814,-0.006,0.834,0.604,0.980,-2.520,-0.700
1743951008.866814,-0.008,0.835,0.604,1.120,-2.520,-0.770
1743951008.886814,-0.006,0.831,0.603,1.190,-2.450,-0.840
1743951008.906814,-0.007,0.834,0.602,1.120,-2.450,-0.700
1743951008.926814,-0.008,0.836,0.604,1.050,-2.450,-0.840
1743951008.946814,-0.006,0.834,0.604,1.050,-2.590,-0.770
1743951008.921681,-0.004,0.833,0.602,0.980,-2.380,-0.630
1743951008.941681,-0.004,0.836,0.604,0.700,-2.450,-0.630
1743951008.961681,-0.005,0.833,0.602,0.910,-2.450,-0.770
1743951008.981681,-0.007,0.834,0.600,0.910,-2.520,-0.840
1743951009.001681,-0.005,0.834,0.603,0.840,-2.520,-0.700
1743951009.021681,-0.006,0.834,0.604,0.700,-2.380,-0.770
1743951009.027285,-0.005,0.835,0.605,0.910,-2.450,-0.840
1743951009.047285,-0.006,0.831,0.606,0.980,-2.380,-0.770
1743951009.067285,-0.006,0.833,0.603,0.770,-2.380,-0.840
1743951009.087285,-0.004,0.834,0.603,0.840,-2.520,-0.770
1743951009.107285,-0.003,0.832,0.603,0.770,-2.380,-0.910
1743951009.127285,-0.007,0.833,0.602,0.910,-2.450,-0.910
