Millis,AccelX_chest,AccelY_chest,AccelZ_chest,GyroX_chest,GyroY_chest,GyroZ_chest,AccelX_right_leg,AccelY_right_leg,AccelZ_right_leg,GyroX_right_leg,GyroY_right_leg,GyroZ_right_leg,AccelX_left_leg,AccelY_left_leg,AccelZ_left_leg,GyroX_left_leg,GyroY_left_leg,GyroZ_left_leg,AccelX_right_arm,AccelY_right_arm,AccelZ_right_arm,GyroX_right_arm,GyroY_right_arm,GyroZ_right_arm
0.0,-1.0,-0.078,0.0,31.5,14.84,17.78,-0.995,0.189,-0.063,21.21,-8.05,3.57,-1.002,0.031,-0.058,39.9,-19.53,-2.94,-1.021,-0.022,-0.032,35.35,13.23,-3.78
20.0,-0.999,-0.071,-0.108,31.76,14.05,16.448,-0.991,0.219,-0.075,23.293,-8.119,3.639,-0.993,0.002,-0.04,38.072,-18.353,-3.496,-1.02,-0.016,-0.04,35.49,11.76,-5.95
40.0,-0.996,-0.062,-0.12,32.774,12.901,15.576,-0.98,0.261,-0.068,20.114,-7.705,3.394,-0.99,0.031,-0.008,36.655,-16.577,-2.136,-1.001,-0.007,-0.035,36.33,10.85,-8.33
60.0,-0.996,-0.063,-0.127,32.539,11.934,14.972,-0.978,0.261,-0.067,15.893,-6.942,2.487,-0.988,0.064,-0.023,31.993,-15.28,-2.675,-1.0,0.015,-0.03,35.505,10.973,-10.003
80.0,-0.987,-0.069,-0.136,32.48,11.521,14.075,-0.989,0.234,-0.061,11.321,-6.443,2.41,-0.995,0.053,-0.037,25.082,-12.444,-2.982,-1.015,0.026,-0.028,33.39,10.29,-11.06
100.0,-0.978,-0.06,-0.137,32.53,12.712,13.161,-1.002,0.201,-0.046,13.439,-6.828,3.079,-0.998,0.057,-0.034,21.409,-12.395,-2.394,-1.023,0.024,-0.033,31.725,8.576,-11.443
120.0,-0.987,-0.063,-0.127,32.55,13.299,12.384,-1.0,0.217,-0.072,16.941,-8.576,4.456,-1.013,0.054,-0.04,17.843,-12.105,-1.99,-1.016,0.03,-0.039,30.744,7.793,-11.539
140.0,-0.993,-0.068,-0.133,31.932,11.365,11.88,-0.994,0.244,-0.061,15.379,-9.677,4.714,-1.019,0.036,-0.029,17.752,-12.002,-1.618,-1.007,0.044,-0.041,27.768,9.837,-11.4
160.0,-0.989,-0.062,-0.144,31.523,9.955,11.187,-0.982,0.272,-0.065,10.306,-9.611,4.846,-0.998,0.043,-0.026,18.946,-10.699,-0.637,-1.049,0.041,-0.043,28.834,5.302,-11.346
180.0,-0.994,-0.052,-0.149,31.854,10.14,10.463,-0.977,0.271,-0.077,2.787,-7.488,3.81,-0.996,0.041,-0.041,18.799,-7.007,-0.931,-1.037,0.029,-0.053,28.701,3.75,-9.496
200.0,-1.001,-0.051,-0.15,31.893,10.305,9.78,-0.995,0.213,-0.062,-0.631,-7.204,2.027,-1.013,0.033,-0.018,20.578,-7.363,-1.936,-1.021,0.034,-0.05,28.928,3.29,-6.963
220.0,-1.007,-0.053,-0.154,30.745,10.519,8.983,-0.999,0.196,-0.056,0.77,-7.464,1.564,-1.016,0.035,0.0,22.358,-7.568,-1.325,-1.02,0.035,-0.048,27.341,3.235,-5.393
240.0,-1.002,-0.052,-0.16,29.188,10.627,7.94,-0.981,0.223,-0.043,6.141,-7.098,1.299,-1.021,0.025,0.005,23.366,-5.462,-0.834,-1.028,0.03,-0.059,25.066,2.212,-4.698
260.0,-0.993,-0.053,-0.16,27.763,10.522,7.018,-0.982,0.226,-0.025,7.444,-6.939,1.099,-1.024,0.011,0.035,24.213,-5.034,-1.642,-1.015,0.019,-0.066,23.94,1.47,-4.62
280.0,-0.991,-0.051,-0.156,26.516,9.808,5.85,-0.987,0.233,-0.036,5.339,-5.861,1.459,-1.016,0.04,0.062,19.092,-5.896,-1.008,-0.997,0.024,-0.057,21.77,2.17,-4.9
300.0,-0.994,-0.04,-0.157,24.944,8.516,5.133,-0.98,0.278,-0.06,-0.627,-3.732,1.809,-1.016,0.035,0.068,11.138,-4.464,-1.424,-0.996,0.028,-0.056,17.78,3.29,-5.67
320.0,-1.001,-0.027,-0.169,21.788,7.876,4.678,-0.975,0.279,-0.066,-6.972,-3.001,-0.658,-1.021,0.02,0.065,1.352,-4.455,-4.136,-1.01,0.03,-0.054,14.411,2.98,-6.715
340.0,-1.008,-0.016,-0.171,18.018,7.484,4.155,-0.98,0.263,-0.048,-11.732,-2.882,-2.281,-1.024,0.025,0.06,-4.61,-6.706,-5.021,-1.004,0.027,-0.057,10.708,1.69,-7.24
360.0,-1.01,-0.016,-0.167,15.219,5.889,3.603,-0.978,0.209,-0.038,-12.897,-0.919,-2.818,-0.991,0.049,0.059,-9.908,-8.403,-3.756,-0.996,0.032,-0.049,7.627,1.008,-7.347
380.0,-1.007,-0.024,-0.166,13.256,4.004,2.712,-0.989,0.174,-0.018,-9.509,-0.157,-1.599,-0.975,0.057,0.057,-14.517,-8.15,-1.086,-0.994,0.036,-0.05,4.126,1.372,-7.181
400.0,-1.005,-0.025,-0.168,11.132,2.925,1.862,-0.984,0.267,-0.035,-9.972,-0.017,1.027,-0.98,0.064,0.027,-16.068,-8.634,0.984,-1.007,0.038,-0.047,0.287,0.442,-6.898
420.0,-1.003,-0.021,-0.168,8.069,1.826,1.267,-0.984,0.315,-0.087,-32.269,-0.109,0.82,-1.017,0.069,-0.007,-18.228,-7.224,1.623,-0.998,0.027,-0.049,-1.962,-0.16,-6.288
440.0,-0.998,-0.019,-0.162,5.631,0.122,0.925,-0.985,0.309,-0.073,-50.622,0.715,-1.767,-1.01,0.091,-0.015,-21.607,-7.316,2.036,-1.01,0.018,-0.047,-2.241,-0.588,-5.797
460.0,-0.992,-0.02,-0.159,3.914,-1.732,0.724,-0.993,0.214,-0.028,-36.316,0.008,-2.612,-0.987,0.057,-0.068,-23.598,-1.096,0.892,-1.026,0.024,-0.047,-2.561,-1.741,-5.416
480.0,-0.991,-0.019,-0.158,-1.17,-3.41,0.63,-0.979,0.197,-0.037,-32.93,1.901,-2.125,-1.006,0.017,-0.085,-17.905,4.589,-0.588,-1.014,0.026,-0.055,-4.238,-3.529,-4.402
500.0,-1.001,-0.02,-0.161,-15.96,-4.669,0.61,-0.989,0.248,-0.031,-33.386,4.313,-2.852,-1.016,0.014,-0.091,-10.299,10.282,-1.609,-1.006,0.024,-0.057,-6.559,-4.02,-2.825
520.0,-1.007,-0.024,-0.174,-3.934,-5.656,0.134,-0.991,0.262,-0.044,-40.28,2.881,-4.319,-1.041,0.027,-0.102,-5.13,14.791,-3.268,-1.001,0.02,-0.054,-9.127,-4.245,-1.983
540.0,-1.005,-0.02,-0.175,-8.215,-5.62,-0.673,-0.982,0.268,-0.057,-45.827,2.19,-5.683,-1.013,0.017,-0.093,-6.543,20.169,-4.255,-1.0,0.014,-0.059,-11.513,-3.87,-2.123
560.0,-1.005,-0.006,-0.173,-11.519,-6.05,-1.15,-0.973,0.274,-0.051,-48.127,3.716,-6.013,-1.009,0.014,-0.069,-9.069,18.216,-5.386,-1.009,0.011,-0.065,-14.287,-4.146,-2.718
580.0,-1.005,-0.004,-0.175,-14.808,-6.961,-2.183,-0.947,0.289,-0.039,-44.46,10.5,-5.704,-0.981,0.01,-0.109,-13.351,25.814,-5.022,-0.901,0.01,-0.069,-16.878,-5.456,-2.301
600.0,-1.002,-0.006,-0.177,-17.561,-6.98,-2.679,-1.014,0.122,-0.025,-52.812,10.358,-8.946,-1.005,-0.029,-0.082,-17.78,24.57,-4.13,-0.955,0.004,-0.075,-19.899,-6.325,-1.324
620.0,-0.997,-0.03,-0.172,-18.778,-7.057,-3.397,-1.032,0.102,-0.038,-33.923,6.588,-7.937,-0.979,-0.012,-0.062,-19.278,22.858,-3.224,-0.999,-0.005,-0.074,-20.406,-6.486,-0.234
640.0,-0.993,-0.04,-0.162,-19.323,-7.91,-4.46,-1.01,0.198,-0.057,-20.958,2.88,-5.579,-1.003,-0.063,-0.025,-19.878,19.963,-3.915,-1.013,-0.021,-0.082,-19.202,-6.63,0.741
660.0,-0.99,-0.042,-0.152,-19.729,-9.564,-5.637,-0.997,0.259,-0.058,-30.101,1.198,-6.076,-1.001,-0.068,0.009,-14.503,10.346,-2.971,-1.028,-0.035,-0.086,-16.089,-7.293,1.888
680.0,-0.991,-0.048,-0.145,-19.491,-11.029,-6.364,-1.008,0.212,-0.045,-35.74,-1.024,-4.777,-0.986,-0.092,0.04,-3.641,5.286,-2.115,-1.029,-0.033,-0.084,-11.9,-8.588,3.349
700.0,-0.999,-0.059,-0.136,-18.332,-12.231,-6.184,-0.979,0.174,-0.02,-27.392,1.855,-1.583,-0.977,-0.104,0.098,6.419,-1.407,-1.477,-1.014,-0.035,-0.086,-9.997,-9.224,5.067
720.0,-1.003,-0.061,-0.132,-16.489,-12.717,-5.95,-1.006,0.133,-0.029,-26.876,1.214,-0.666,-0.97,-0.007,0.166,13.837,-13.888,1.162,-1.021,-0.041,-0.087,-9.72,-9.659,6.346
740.0,-1.003,-0.052,-0.133,-15.7,-12.333,-5.994,-1.017,0.163,-0.036,-19.32,-0.56,-0.98,-0.999,0.023,0.2,7.067,-23.023,1.636,-1.022,-0.054,-0.091,-8.672,-10.754,6.489
760.0,-1.003,-0.047,-0.133,-15.453,-11.054,-6.269,-0.989,0.231,-0.04,-15.179,-1.938,-0.073,-1.04,0.015,0.217,-2.221,-35.438,2.335,-1.011,-0.065,-0.091,-6.342,-11.246,6.071
780.0,-0.988,-0.048,-0.139,-14.234,-10.344,-6.45,-0.996,0.253,-0.038,-23.062,-2.898,-0.38,-1.062,-0.028,0.218,-12.601,-39.426,4.04,-1.009,-0.067,-0.086,-5.437,-10.917,4.189
800.0,-0.977,-0.042,-0.134,-13.009,-8.384,-6.886,-1.006,0.251,-0.036,-31.122,-3.266,-2.166,-1.051,0.023,0.207,-12.857,-40.305,2.378,-1.031,-0.07,-0.095,-6.294,-10.35,1.232
820.0,-0.983,-0.038,-0.132,-10.824,-6.687,-7.604,-1.01,0.246,-0.031,-38.118,-5.461,-1.911,-0.939,0.007,0.101,0.075,-33.817,2.72,-1.029,-0.078,-0.101,-6.1,-10.489,-2.079
840.0,-0.989,-0.028,-0.128,-9.544,-4.523,-8.694,-1.006,0.167,-0.042,-35.524,-8.173,-2.237,-0.914,-0.009,-0.003,13.795,-22.63,6.19,-0.996,-0.057,-0.087,-7.649,-9.546,-4.572
860.0,-0.994,-0.019,-0.141,-12.248,-3.695,-9.659,-0.996,0.157,-0.02,-27.014,-9.53,-1.789,-1.033,0.181,0.007,13.947,-26.025,5.155,-0.986,-0.038,-0.076,-14.932,-7.845,-7.294
880.0,-0.991,-0.015,-0.149,-15.336,-2.363,-10.542,-0.98,0.175,-0.01,-17.872,-7.217,-2.744,-0.989,0.149,-0.089,16.628,-23.212,0.486,-0.996,-0.024,-0.066,-23.74,-6.941,-10.185
900.0,-0.988,-0.007,-0.154,-18.107,0.008,-11.357,-1.006,0.186,-0.023,-13.65,-6.44,-3.64,-0.994,0.118,-0.078,23.679,-20.363,-4.465,-0.977,-0.039,-0.059,-28.802,-7.479,-12.303
920.0,-0.991,-0.02,-0.148,-19.479,0.83,-12.943,-0.996,0.245,-0.019,-14.07,-6.3,-5.04,-0.963,0.27,0.024,19.409,-17.503,-0.146,-0.975,-0.039,-0.05,-30.43,-6.674,-13.578
940.0,-0.986,-0.032,-0.152,-20.647,-0.139,-14.206,-0.983,0.275,0.008,-17.877,-5.325,-7.19,-0.975,0.31,0.206,-11.507,-16.638,5.178,-1.01,-0.033,-0.042,-30.323,-7.766,-14.068
960.0,-0.983,-0.045,-0.141,-22.096,-1.981,-15.613,-0.975,0.245,0.013,-19.074,-1.564,-9.829,-1.09,-0.042,0.05,-36.004,-23.065,-1.827,-1.046,-0.034,-0.046,-29.208,-9.418,-13.535
980.0,-0.995,-0.064,-0.123,-22.75,-3.85,-17.08,-0.993,0.184,0.004,-17.253,-0.144,-9.471,-1.104,-0.379,-0.192,-25.1,-16.836,-13.287,-1.058,-0.031,-0.038,-27.046,-11.356,-11.251
1000.0,-1.018,-0.097,-0.121,-20.011,-7.206,-17.749,-1.007,0.164,-0.014,-10.667,-1.247,-9.187,-1.032,-0.056,0.082,-1.207,-12.023,0.909,-1.052,-0.035,-0.037,-24.687,-12.032,-7.558
1020.0,-1.021,-0.121,-0.13,-17.229,-10.91,-18.221,-1.008,0.151,-0.008,-4.333,-2.126,-9.17,-1.045,0.093,0.095,-12.034,-26.33,8.244,-1.025,-0.035,-0.034,-22.19,-11.527,9.936
1040.0,-1.023,-0.141,-0.148,-15.128,-12.908,-18.45,-0.998,0.157,-0.0,2.188,-2.432,-8.321,-0.958,0.089,0.135,-12.115,-10.266,5.3,-1.005,-0.022,-0.022,-22.015,-10.521,7.288
1060.0,-1.023,-0.147,-0.151,-14.381,-13.07,-18.328,-0.993,0.158,-0.005,2.042,-1.32,-7.247,-1.006,0.052,0.119,-1.474,-11.816,-5.924,-0.998,-0.015,-0.01,-25.196,-10.669,5.522
1080.0,-1.016,-0.161,-0.139,-13.168,-11.67,-18.016,-1.002,0.154,0.011,0.09,-0.95,-5.188,-1.003,0.03,0.122,0.755,-7.902,-8.355,-0.996,-0.022,-0.008,-30.109,-11.993,8.268
1100.0,-1.016,-0.172,-0.109,-11.03,-10.794,-17.235,-1.001,0.162,-0.0,0.996,-0.352,-4.791,-0.977,0.021,0.155,1.617,-3.365,-6.58,-0.99,-0.052,-0.004,-31.14,-13.561,9.505
1120.0,-1.015,-0.173,-0.082,-9.544,-11.993,-16.745,-1.001,0.16,-0.001,2.203,-0.21,-4.909,-0.96,-0.03,0.165,5.94,2.781,-6.589,-0.984,-0.061,0.013,-29.508,-12.614,9.686
1140.0,-1.003,-0.171,-0.068,-8.668,-17.025,-16.685,-1.0,0.156,0.002,5.083,-0.039,-4.902,-1.001,0.054,0.127,5.938,4.576,-7.045,-0.998,-0.07,0.016,-26.473,-12.105,9.039
1160.0,-0.995,-0.164,-0.067,-7.464,-22.041,-16.713,-0.999,0.17,-0.003,8.462,0.735,-5.065,-0.997,0.056,0.128,-1.387,3.668,-8.38,-1.003,-0.081,0.017,-23.92,-13.914,8.788
1180.0,-0.998,-0.16,-0.074,-5.399,-23.546,-16.076,-0.997,0.182,-0.008,8.968,1.631,-6.607,-1.01,-0.014,0.107,0.68,2.995,-9.018,-1.0,-0.079,0.028,-21.714,-15.351,8.936
1200.0,-1.007,-0.163,-0.075,-3.327,-24.412,-14.51,-0.998,0.172,-0.005,10.086,2.223,-7.233,-0.998,-0.029,0.099,10.604,4.45,-9.969,-0.998,-0.07,0.042,-21.751,-16.202,8.883
1220.0,-1.023,-0.177,-0.072,-0.964,-25.423,-13.585,-0.999,0.169,-0.006,11.032,3.136,-7.454,-0.986,0.006,0.094,14.798,7.49,-10.184,-0.994,-0.071,0.046,-23.386,-17.683,8.841
1240.0,-1.03,-0.18,-0.06,1.359,-27.06,-13.115,-1.0,0.176,-0.017,10.637,4.248,-7.513,-1.014,0.03,0.101,13.217,7.29,-9.786,-0.994,-0.096,0.044,-21.411,-20.118,8.869
1260.0,-1.021,-0.184,-0.049,3.635,-29.692,-12.88,-1.008,0.175,-0.02,7.088,3.871,-7.253,-0.994,-0.0,0.108,13.424,6.383,-10.537,-0.99,-0.11,0.041,-11.472,-21.513,8.686
1280.0,-0.999,-0.189,-0.04,5.378,-31.558,-12.88,-1.006,0.166,-0.022,4.866,3.026,-7.026,-0.998,0.0,0.08,17.035,9.276,-11.549,-0.991,-0.098,0.05,-2.333,-22.17,8.789
1300.0,-0.988,-0.195,-0.032,6.933,-32.639,-12.895,-0.996,0.173,-0.026,2.658,2.435,-6.157,-1.028,0.043,0.054,17.097,3.245,-12.102,-0.985,-0.095,0.05,6.299,-22.274,9.406
1320.0,-0.972,-0.201,-0.012,8.242,-32.681,-13.176,-0.998,0.163,-0.025,-1.159,3.202,-5.693,-0.999,0.028,0.072,13.738,5.1,-12.731,-0.994,-0.088,0.029,15.068,-22.001,9.872
1340.0,-0.974,-0.189,0.013,9.661,-32.556,-13.202,-1.015,0.137,-0.025,-0.899,2.118,-4.61,-1.025,0.009,0.074,11.183,7.925,-12.387,-0.985,-0.074,0.021,21.167,-23.405,10.211
1360.0,-0.986,-0.188,0.025,12.199,-32.84,-12.373,-1.004,0.117,-0.033,-1.628,2.232,-3.779,-1.021,-0.019,0.067,10.508,7.923,-10.63,-0.996,-0.047,0.032,23.769,-24.149,10.056
1380.0,-0.975,-0.2,0.018,14.043,-32.94,-11.242,-1.004,0.112,-0.039,1.414,1.834,-2.669,-1.011,-0.018,0.057,9.313,5.074,-8.716,-0.991,-0.052,0.029,22.709,-24.599,9.53
1400.0,-0.96,-0.204,0.013,14.575,-30.731,-10.382,-1.008,0.13,-0.029,3.743,0.792,-1.429,-1.023,-0.013,0.057,7.027,1.999,-6.907,-0.978,-0.056,0.03,24.121,-21.674,8.781
1420.0,-0.957,-0.214,0.022,15.691,-26.449,-10.05,-1.007,0.142,-0.049,5.104,0.588,-0.881,-1.017,-0.01,0.057,3.273,2.698,-5.926,-0.965,-0.045,0.03,24.15,-18.088,7.255
1440.0,-0.962,-0.213,0.044,16.343,-22.086,-9.801,-1.01,0.144,-0.053,4.847,-0.36,-0.319,-1.002,-0.016,0.051,4.35,1.295,-5.88,-0.996,-0.037,0.016,21.423,-16.542,5.082
1460.0,-0.977,-0.208,0.067,17.179,-19.043,-10.005,-1.011,0.131,-0.043,5.142,-2.382,0.322,-1.006,-0.022,0.062,7.78,2.053,-6.139,-0.978,-0.04,0.02,17.803,-14.546,3.652
1480.0,-0.981,-0.209,0.077,19.123,-18.273,-8.268,-1.007,0.119,-0.04,7.008,-3.212,1.076,-1.007,-0.004,0.049,7.429,2.169,-6.23,-0.955,-0.05,0.026,16.728,-11.243,1.543
1500.0,-0.966,-0.217,0.071,18.956,-16.796,-7.604,-1.012,0.14,-0.037,7.908,-3.155,1.118,-1.013,-0.0,0.041,4.26,0.21,-5.535,-0.948,-0.043,0.024,15.247,-7.032,-0.666
1520.0,-0.954,-0.214,0.054,17.82,-14.058,-6.851,-1.014,0.143,-0.036,7.631,-4.101,0.842,-1.015,-0.007,0.042,1.893,-0.624,-4.222,-0.96,-0.02,0.03,12.698,-3.887,-3.112
1540.0,-0.949,-0.205,0.043,16.732,-10.37,-5.797,-1.012,0.13,-0.036,7.986,-4.643,1.097,-0.993,-0.02,0.05,0.869,-0.992,-4.352,-0.974,-0.029,0.072,6.405,-3.383,-4.844
1560.0,-0.948,-0.199,0.042,15.291,-5.746,-4.638,-1.002,0.166,-0.03,9.096,-4.011,0.396,-0.99,-0.032,0.056,0.639,-1.156,-4.505,-0.961,-0.044,0.077,3.059,0.821,-5.929
1580.0,-0.95,-0.2,0.054,13.471,-1.184,-3.451,-1.008,0.175,-0.041,4.745,-4.452,-0.654,-1.003,-0.033,0.059,1.393,-1.644,-4.023,-0.93,-0.034,0.079,1.177,8.829,-8.18
1600.0,-0.952,-0.201,0.065,12.95,2.148,-2.364,-1.022,0.155,-0.036,1.4,-5.32,-1.68,-1.003,-0.017,0.05,4.579,-1.342,-4.521,-0.928,-0.025,0.112,-10.674,7.868,-11.689
1620.0,-0.955,-0.201,0.066,12.917,5.33,-1.338,-1.013,0.142,-0.033,0.84,-6.58,-1.68,-1.014,-0.013,0.03,5.467,-2.518,-5.665,-0.891,-0.047,0.146,-19.765,6.167,-14.006
1640.0,-0.959,-0.193,0.07,10.591,9.233,0.299,-1.022,0.123,-0.037,2.408,-7.198,-0.926,-1.018,-0.02,0.045,4.135,-5.127,-6.229,-0.865,-0.072,0.145,-16.637,8.387,-16.281
1660.0,-0.983,-0.193,0.075,6.118,12.774,1.908,-1.011,0.12,-0.043,4.556,-9.558,0.5,-1.006,-0.025,0.059,3.821,-5.685,-6.221,-0.862,-0.047,0.141,-5.016,11.468,-17.886
1680.0,-0.976,-0.192,0.064,1.585,16.378,4.39,-0.998,0.143,-0.045,4.608,-9.981,0.604,-1.006,-0.022,0.059,6.102,-4.533,-6.645,-0.87,-0.009,0.156,-1.339,10.966,-21.357
1700.0,-0.973,-0.175,0.057,-1.805,20.73,7.376,-1.005,0.133,-0.045,4.776,-11.654,1.395,-1.018,-0.019,0.053,6.306,-4.171,-7.455,-0.862,-0.014,0.149,-2.53,10.931,-23.837
1720.0,-0.951,-0.168,0.037,-0.676,23.148,12.409,-1.019,0.102,-0.035,7.032,-13.783,1.602,-1.015,-0.029,0.041,4.161,-7.286,-6.572,-0.828,-0.036,0.094,0.278,13.262,-22.12
1740.0,-0.923,-0.174,0.005,1.806,27.849,19.257,-1.011,0.102,-0.027,12.652,-15.102,1.803,-1.015,-0.03,0.038,1.474,-9.569,-5.253,-0.825,-0.027,0.101,5.988,12.828,-22.46
1760.0,-0.919,-0.176,0.001,2.129,35.079,26.136,-0.996,0.126,-0.008,17.084,-15.149,1.31,-1.01,-0.021,0.036,-0.509,-10.353,-5.253,-0.823,-0.014,0.103,7.03,10.237,-22.276
1780.0,-0.906,-0.176,-0.013,3.181,42.455,34.179,-0.998,0.137,-0.013,16.567,-14.496,-0.161,-1.021,-0.043,0.047,0.196,-13.909,-5.622,-0.803,-0.024,0.062,9.701,9.983,-21.416
1800.0,-0.904,-0.19,-0.035,4.088,47.508,40.587,-1.011,0.141,-0.02,16.123,-16.394,0.096,-1.007,-0.053,0.068,1.939,-14.526,-5.786,-0.796,-0.039,0.014,16.739,10.883,-21.33
1820.0,-0.9,-0.176,-0.045,4.901,55.093,45.91,-1.017,0.129,-0.015,14.319,-17.405,-0.676,-1.005,-0.05,0.068,3.866,-15.891,-5.869,-0.789,-0.06,0.021,20.913,11.663,-20.16
1840.0,-0.903,-0.129,-0.065,5.18,61.95,52.22,-1.019,0.126,0.001,17.287,-19.611,-1.178,-1.008,-0.06,0.071,4.526,-13.604,-5.272,-0.766,-0.051,0.027,27.019,13.97,-17.294
1860.0,-0.895,-0.112,-0.108,6.7,68.95,57.069,-1.015,0.127,0.006,19.204,-20.804,-2.16,-1.024,-0.05,0.064,5.943,-17.232,-4.864,-0.72,-0.061,-0.007,29.301,15.929,-14.519
1880.0,-0.881,-0.08,-0.129,8.638,77.601,61.26,-0.991,0.128,0.009,17.79,-20.413,-3.376,-1.002,-0.029,0.062,5.426,-17.719,-4.633,-0.659,-0.057,-0.044,33.365,19.198,-14.291
1900.0,-0.87,-0.049,-0.153,10.225,85.393,66.948,-0.977,0.125,0.025,15.019,-18.392,-5.726,-0.994,-0.037,0.079,4.483,-18.304,-4.808,-0.659,-0.026,-0.03,31.405,19.208,-16.767
1920.0,-0.85,-0.043,-0.198,10.254,94.597,71.234,-1.012,0.112,0.044,16.627,-16.344,-9.498,-1.019,-0.056,0.089,3.965,-19.22,-4.054,-0.657,-0.005,0.011,22.331,19.201,-20.725
1940.0,-0.829,-0.008,-0.254,8.324,105.63,76.806,-1.018,0.104,0.046,23.962,-16.17,-11.266,-1.007,-0.054,0.092,5.681,-20.47,-2.629,-0.646,0.023,0.019,6.449,20.587,-23.708
1960.0,-0.825,0.043,-0.268,1.837,121.086,80.759,-0.998,0.129,0.058,28.457,-14.49,-11.475,-1.014,-0.023,0.086,3.249,-20.856,-1.095,-0.647,0.046,-0.009,-21.385,24.01,-25.828
1980.0,-0.821,0.085,-0.276,-3.044,133.122,83.593,-1.025,0.177,0.063,28.603,-11.756,-10.742,-1.029,0.035,0.089,-4.233,-20.234,-0.796,-0.696,0.045,-0.02,-37.241,24.767,-27.355
2000.0,-0.801,0.105,-0.288,-5.841,142.763,83.698,-1.056,0.179,0.016,23.245,-15.66,-7.723,-1.054,-0.017,0.098,-12.11,-27.79,0.77,-0.763,0.056,-0.004,-52.156,20.457,-26.926
2020.0,-0.761,0.112,-0.295,-6.939,144.493,81.686,-1.024,0.086,0.028,13.539,-28.884,-4.159,-0.998,-0.096,0.112,-6.402,-30.222,1.295,-0.759,0.04,-0.018,-68.771,13.548,-24.198
2040.0,-0.747,0.12,-0.317,-5.834,143.214,77.265,-0.994,0.013,0.033,23.511,-16.138,-6.912,-0.977,-0.08,0.111,0.759,-30.924,2.275,-0.726,-0.037,-0.05,-71.681,9.917,-22.47
2060.0,-0.73,0.133,-0.401,-2.191,143.514,77.339,-1.027,0.056,0.066,27.794,-13.28,-4.401,-1.005,-0.072,0.182,8.33,-29.691,0.666,-0.804,-0.065,-0.049,-70.405,6.168,-23.054
2080.0,-0.661,0.121,-0.506,1.352,152.745,73.711,-1.037,0.14,0.05,22.836,-13.446,-2.921,-1.035,-0.027,0.182,4.205,-33.459,3.716,-0.964,-0.152,-0.098,-65.007,2.222,-21.783
2100.0,-0.62,0.123,-0.531,0.121,157.402,67.523,-1.007,0.129,0.061,16.368,-9.94,-3.253,-0.959,-0.053,0.197,6.14,-35.204,3.601,-1.034,-0.208,-0.178,-37.878,-5.435,-20.518
2120.0,-0.614,0.183,-0.569,-6.711,156.279,62.187,-0.998,0.142,0.029,15.775,-10.154,-2.13,-0.915,-0.011,0.163,0.482,-22.91,1.839,-0.992,-0.156,-0.236,-3.498,-6.328,-21.689
2140.0,-0.633,0.247,-0.653,-15.946,160.07,56.042,-1.059,0.114,0.053,13.635,-13.838,-2.531,-1.026,0.021,0.225,-7.172,-26.712,0.192,-0.951,-0.055,-0.241,-3.768,1.974,-18.568
2160.0,-0.642,0.328,-0.678,-27.961,174.742,51.912,-1.123,0.095,0.057,12.38,-14.276,-0.711,-0.994,0.007,0.258,-4.542,-24.045,-0.515,-1.096,-0.098,-0.237,-12.387,-12.511,-15.998
2180.0,-0.658,0.361,-0.656,-35.501,169.821,49.586,-1.011,0.136,0.082,7.98,-14.0,0.49,-0.902,-0.018,0.225,-4.024,-6.311,-1.838,-1.047,-0.216,-0.265,-6.941,-11.64,-4.606
2200.0,-0.606,0.324,-0.689,-34.065,150.463,42.732,-1.014,0.034,0.113,8.26,-12.6,0.35,-0.927,-0.067,0.245,12.697,0.948,-4.032,-1.036,-0.119,-0.254,10.637,-2.361,4.306
2220.0,-0.531,0.334,-0.83,-31.362,143.41,29.815,-1.025,-0.043,0.067,10.315,-14.378,5.649,-1.008,-0.028,0.148,4.98,-11.5,-1.355,-1.035,0.023,-0.197,-1.051,-4.312,13.211
2240.0,-0.488,0.365,-0.885,-29.725,144.428,22.094,-0.978,0.145,0.107,7.084,-9.813,7.366,-0.984,-0.05,0.258,7.77,-14.56,-2.73,-1.016,0.026,-0.193,-39.971,-7.354,19.804
2260.0,-0.422,0.327,-0.853,-27.538,148.064,18.522,-1.006,0.281,0.072,0.366,-9.18,-0.209,-0.953,-0.062,0.266,5.978,-3.376,-2.346,-1.052,-0.16,-0.266,-62.204,-2.343,21.189
2280.0,-0.345,0.28,-0.743,-25.347,143.006,14.855,-0.996,0.26,0.06,-10.438,-9.133,-12.043,-0.967,-0.032,0.232,-3.445,-1.899,-0.742,-1.255,-0.288,-0.278,-61.1,-1.596,19.623
2300.0,-0.272,0.328,-0.699,-21.919,116.502,13.329,-1.002,0.139,0.105,-21.114,-7.151,-13.899,-0.974,0.007,0.174,-15.048,-2.086,0.288,-1.272,-0.251,-0.222,-52.341,-7.564,19.031
2320.0,-0.236,0.357,-0.973,-18.187,114.325,15.128,-1.001,0.033,0.12,-15.573,-4.163,-11.456,-1.02,0.002,0.208,-16.57,-2.358,-2.317,-1.233,-0.258,-0.188,-46.247,-5.985,20.245
2340.0,-0.388,0.639,-1.093,-21.832,122.697,21.559,-0.975,0.026,0.104,-0.217,1.834,-9.623,-1.019,-0.076,0.238,-9.599,-7.611,-5.433,-1.214,-0.277,-0.174,-26.901,-13.066,23.208
2360.0,-0.483,0.596,-0.918,-26.174,114.566,27.861,-0.994,-0.022,0.111,9.912,5.225,-8.221,-0.943,-0.08,0.224,3.36,-2.31,-4.34,-1.171,-0.232,-0.115,6.549,-8.36,28.264
2380.0,-0.336,0.504,-0.882,-25.786,88.45,29.011,-1.023,-0.04,0.119,18.115,5.32,-3.979,-0.967,-0.045,0.214,9.955,2.274,-4.871,-1.198,-0.107,-0.065,11.739,-0.95,31.764
2400.0,-0.255,0.466,-1.012,-25.278,79.069,29.188,-0.998,0.076,0.102,23.474,7.678,-2.331,-0.972,-0.043,0.24,17.57,3.85,-8.47,-1.261,-0.09,-0.09,2.338,-1.867,33.893
2420.0,-0.149,0.427,-1.063,-25.542,87.698,26.074,-1.022,0.084,0.063,24.692,8.817,-4.991,-0.96,-0.013,0.269,14.503,5.529,-8.676,-1.272,-0.146,-0.138,-11.916,-5.177,32.54
2440.0,-0.051,0.328,-1.009,-24.64,89.25,17.5,-1.044,0.105,0.037,23.674,7.158,-5.28,-0.93,-0.009,0.205,3.3,13.466,-7.778,-1.283,-0.086,-0.082,-36.492,-0.997,25.31
2460.0,-0.026,0.369,-0.997,-18.746,87.542,16.849,-1.029,0.148,0.057,17.61,4.819,-4.739,-0.953,-0.072,0.2,4.59,16.882,-10.268,-1.378,-0.093,-0.08,-78.655,-3.34,18.968
2480.0,-0.155,0.432,-1.011,-19.141,86.972,8.914,-1.011,0.077,0.093,10.754,2.833,-5.183,-0.995,-0.084,0.267,15.642,13.772,-12.811,-1.414,-0.297,-0.149,-88.98,-6.064,12.051
2500.0,-0.174,0.464,-1.017,-11.422,95.656,15.2,-1.016,0.003,0.058,9.832,4.011,-3.139,-0.994,-0.097,0.167,21.741,17.117,-12.98,-1.428,-0.474,-0.19,-62.685,0.214,3.615
2520.0,-0.096,0.479,-1.131,-11.864,107.622,22.297,-1.037,0.009,0.068,11.908,0.569,3.178,-1.025,-0.06,0.142,19.966,15.919,-10.009,-1.574,-0.374,-0.125,-35.261,9.027,0.475
2540.0,-0.025,0.498,-1.073,-10.858,103.625,27.348,-1.018,0.077,0.057,15.001,0.763,3.706,-1.023,-0.02,0.048,13.361,7.096,-7.545,-1.595,-0.429,-0.051,-18.542,9.723,2.281
2560.0,-0.053,0.575,-1.067,-12.159,85.477,21.769,-0.995,0.164,0.047,10.164,2.644,-0.086,-1.048,-0.019,0.097,6.849,1.52,-4.349,-1.57,-0.488,-0.054,21.285,13.803,4.436
2580.0,-0.035,0.632,-1.034,-15.349,69.144,14.358,-1.028,0.175,0.053,-0.563,1.216,-3.025,-1.03,-0.027,0.125,-1.389,-6.734,-2.301,-1.571,-0.453,-0.072,65.293,21.457,4.025
2600.0,-0.001,0.609,-1.072,-13.949,48.016,9.145,-1.024,0.106,0.031,-16.588,-2.567,-3.975,-1.017,-0.039,0.127,-3.845,-8.925,0.121,-1.607,-0.315,-0.111,82.198,20.424,-2.033
2620.0,0.041,0.57,-1.137,-2.787,20.585,2.16,-1.008,0.056,0.073,-20.025,-3.348,-3.454,-1.021,-0.087,0.177,2.148,-14.546,0.986,-1.592,-0.245,-0.133,80.397,7.379,-11.589
2640.0,0.077,0.557,-1.106,12.739,-9.27,-4.448,-1.015,0.013,0.082,-15.409,-1.965,-2.153,-0.975,-0.073,0.182,4.519,-14.59,1.753,-1.518,-0.204,-0.115,79.802,2.345,-15.475
2660.0,0.074,0.562,-1.072,17.247,-31.156,-4.781,-1.021,0.023,0.065,-12.449,-2.122,1.638,-0.996,-0.057,0.204,2.343,-14.127,3.831,-1.479,-0.202,-0.11,83.05,1.89,-15.809
2680.0,0.053,0.536,-1.09,22.673,-49.446,1.33,-1.017,0.031,0.05,-11.01,-2.897,4.896,-0.991,-0.066,0.194,2.514,-14.161,4.2,-1.461,-0.194,-0.112,83.14,1.188,-14.312
2700.0,0.02,0.497,-1.105,32.913,-69.35,0.167,-1.013,0.014,0.064,-6.452,-3.286,7.274,-0.985,-0.066,0.18,4.032,-13.77,3.934,-1.433,-0.085,-0.054,78.515,4.663,-12.836
2720.0,0.008,0.475,-1.095,40.908,-81.365,-9.242,-1.016,0.008,0.045,-0.164,-2.747,10.315,-1.0,-0.054,0.181,6.285,-13.658,3.365,-1.415,0.028,0.033,38.038,11.59,-12.446
2740.0,-0.0,0.437,-1.036,45.055,-89.365,-21.266,-1.035,0.019,0.068,3.942,-5.01,13.577,-1.001,-0.056,0.186,8.29,-16.182,3.631,-1.384,0.005,0.036,-18.207,5.762,-6.23
2760.0,-0.03,0.39,-1.019,47.967,-97.226,-33.194,-1.016,0.059,0.064,5.338,-5.57,14.862,-0.976,-0.055,0.214,7.624,-16.306,4.34,-1.343,-0.177,-0.047,-50.272,-4.554,-2.573
2780.0,-0.078,0.369,-1.048,53.308,-105.322,-38.316,-1.007,0.069,0.06,3.058,-6.497,14.988,-0.965,-0.063,0.232,8.775,-14.14,4.311,-1.286,-0.148,-0.036,-71.738,-9.213,0.626
2800.0,-0.09,0.374,-1.117,58.059,-111.47,-35.84,-1.029,0.081,0.088,2.1,-6.79,15.47,-0.969,-0.057,0.237,12.132,-11.842,3.767,-1.201,-0.069,-0.016,-81.186,-6.229,3.271
2820.0,-0.097,0.359,-1.118,62.358,-111.779,-33.676,-1.013,0.107,0.062,5.478,-6.28,15.081,-0.974,-0.04,0.224,14.721,-11.839,2.41,-1.191,-0.055,-0.061,-89.104,-4.558,5.424
2840.0,-0.131,0.336,-1.043,65.064,-112.275,-37.118,-1.0,0.128,0.067,-2.425,-5.792,13.867,-0.964,-0.015,0.227,13.889,-10.867,1.546,-1.242,-0.087,-0.16,-97.833,-25.767,7.206
2860.0,-0.184,0.329,-0.985,65.538,-117.334,-39.67,-1.009,0.128,0.07,-7.07,-4.62,13.72,-0.971,0.004,0.232,8.537,-6.312,1.704,-1.118,-0.095,-0.175,-91.388,-30.791,11.17
2880.0,-0.241,0.298,-0.976,66.036,-124.72,-42.493,-1.029,0.139,0.065,-5.74,-5.95,13.3,-0.971,-0.001,0.264,3.245,-2.865,0.449,-1.015,0.017,-0.098,-75.676,-27.942,18.828
2900.0,-0.281,0.204,-0.98,67.346,-131.822,-45.23,-0.993,0.159,0.075,-13.23,-5.11,11.62,-0.935,-0.019,0.275,0.405,1.627,-0.915,-0.983,0.016,-0.126,-75.389,-26.413,22.357
2920.0,-0.322,0.192,-0.96,67.158,-135.395,-46.443,-1.003,0.117,0.066,-14.653,-2.382,10.431,-0.948,-0.008,0.24,-1.793,7.797,-2.098,-1.071,-0.024,-0.243,-68.919,-48.568,23.759
2940.0,-0.352,0.284,-0.944,63.581,-135.213,-46.569,-0.998,0.144,0.091,-17.201,-2.782,10.62,-0.999,-0.025,0.224,-4.194,9.005,-1.585,-0.923,-0.02,-0.151,-55.828,-56.298,24.767
2960.0,-0.39,0.32,-0.942,57.895,-134.473,-42.782,-1.017,0.114,0.079,-17.034,-1.272,10.693,-0.991,-0.02,0.219,-3.415,6.466,-0.312,-0.798,-0.033,-0.076,-36.312,-56.766,26.735
2980.0,-0.448,0.211,-0.954,51.996,-137.594,-41.167,-1.022,0.063,0.095,-12.458,-0.353,12.248,-0.968,-0.009,0.21,-10.371,9.165,0.602,-0.802,-0.001,-0.107,-19.256,-46.855,27.416
3000.0,-0.463,0.178,-0.925,46.904,-140.978,-44.498,-0.988,0.08,0.092,-2.384,-0.486,13.345,-0.981,-0.015,0.213,-14.992,11.815,0.038,-0.89,0.001,-0.175,-10.903,-59.026,26.02
3020.0,-0.468,0.172,-0.807,44.242,-142.091,-51.453,-1.006,0.094,0.075,0.823,2.64,13.435,-1.015,-0.015,0.207,-14.068,10.1,1.3,-0.677,0.037,-0.075,2.671,-54.517,27.763
3040.0,-0.524,0.126,-0.758,42.191,-144.645,-55.238,-1.003,0.122,0.062,3.625,1.354,13.217,-0.995,-0.018,0.217,-18.208,9.736,1.458,-0.69,0.08,-0.067,8.186,-47.101,30.185
3060.0,-0.597,0.076,-0.771,38.85,-146.351,-58.446,-0.978,0.183,0.064,2.97,2.026,11.304,-0.957,-0.041,0.213,-18.065,12.553,1.603,-0.657,0.03,-0.088,19.25,-45.85,30.8
3080.0,-0.618,0.092,-0.758,38.964,-143.609,-59.681,-0.968,0.159,0.066,-3.695,3.139,9.558,-0.961,-0.07,0.195,-14.255,16.507,0.208,-0.67,0.034,-0.052,29.287,-40.769,31.845
3100.0,-0.616,0.09,-0.71,41.069,-139.685,-57.876,-0.975,0.147,0.081,-7.754,6.004,9.504,-0.973,-0.047,0.166,-9.666,19.942,-0.91,-0.666,0.148,0.031,14.725,-43.327,30.573
3120.0,-0.658,0.0,-0.642,36.447,-133.435,-65.528,-1.022,0.139,0.074,-9.326,5.554,9.59,-0.995,-0.05,0.193,-8.974,18.476,-0.796,-0.642,0.16,0.068,-12.492,-44.986,28.67
3140.0,-0.666,0.009,-0.616,31.539,-128.647,-53.933,-1.027,0.124,0.061,-9.366,4.251,9.531,-0.973,-0.046,0.174,-6.805,19.755,-0.438,-0.617,0.107,0.054,-21.727,-43.607,25.055
3160.0,-0.7,-0.002,-0.585,26.191,-127.437,-57.355,-1.015,0.149,0.046,-6.471,3.311,9.208,-1.004,-0.047,0.143,1.26,21.28,-1.68,-0.595,0.023,0.052,-16.607,-41.571,20.942
3180.0,-0.709,0.043,-0.546,25.544,-125.724,-51.751,-1.002,0.19,0.039,-5.826,2.964,8.073,-1.011,-0.014,0.167,2.056,19.827,-2.061,-0.558,0.013,0.06,1.439,-40.004,15.81
3200.0,-0.69,0.011,-0.479,23.412,-123.412,-49.237,-1.003,0.183,0.06,-8.668,4.169,5.266,-1.02,-0.007,0.111,6.676,16.203,-3.158,-0.575,0.054,0.072,3.883,-33.066,9.864
3220.0,-0.735,-0.039,-0.464,20.09,-113.68,-52.5,-1.01,0.184,0.066,-6.618,6.482,2.921,-1.027,-0.021,0.061,3.71,17.57,-3.71,-0.684,0.05,0.056,0.206,-39.019,1.504
3240.0,-0.747,-0.043,-0.425,12.88,-110.95,-44.03,-0.993,0.206,0.059,-9.393,7.573,0.779,-1.037,0.009,0.115,0.14,7.91,-2.66,-0.686,0.052,0.067,1.766,-54.837,-9.74
3260.0,-0.766,-0.048,-0.413,11.97,-102.48,-43.47,-0.996,0.183,0.057,-17.122,7.856,-1.076,-0.97,-0.014,0.113,-4.044,11.669,-2.592,-0.653,0.034,0.125,2.201,-61.522,-18.699
3280.0,-0.763,-0.068,-0.388,10.99,-95.13,-38.15,-1.028,0.129,0.04,-15.721,6.425,-1.345,-1.029,-0.067,0.143,3.817,6.262,-4.046,-0.656,-0.023,0.16,-0.877,-60.104,-25.832
3300.0,-0.764,-0.103,-0.362,12.034,-89.423,-35.158,-1.018,0.114,0.041,-7.309,3.899,-2.016,-0.982,-0.058,0.114,7.259,9.65,-4.816,-0.684,-0.054,0.194,3.676,-52.962,-34.948
3320.0,-0.759,-0.147,-0.316,12.968,-80.172,-32.168,-0.97,0.142,0.046,-1.72,6.288,-4.173,-1.012,-0.028,0.094,11.749,8.798,-5.416,-0.643,0.021,0.418,4.246,-36.366,-44.182
3340.0,-0.769,-0.151,-0.283,11.979,-73.688,-28.348,-0.995,0.172,0.025,-0.99,7.247,-6.997,-1.006,-0.013,0.072,9.157,8.5,-5.805,-0.648,-0.0,0.397,-6.861,-1.006,-44.766
3360.0,-0.782,-0.152,-0.254,10.266,-66.183,-23.844,-1.001,0.203,0.028,-2.61,8.262,-9.523,-1.021,-0.03,0.044,5.246,4.329,-4.608,-0.737,-0.142,0.245,-2.875,14.796,-44.55
3380.0,-0.787,-0.176,-0.238,6.326,-57.449,-20.317,-0.996,0.177,0.042,-3.908,10.186,-14.326,-1.03,-0.011,0.059,-0.121,1.09,-3.236,-0.799,-0.196,0.212,31.188,20.119,-45.838
3400.0,-0.808,-0.167,-0.226,2.775,-47.641,-16.17,-1.004,0.158,0.047,-1.707,11.335,-17.718,-1.004,-0.026,0.085,-3.402,-4.892,-3.64,-0.844,-0.094,0.305,51.084,24.503,-45.747
3420.0,-0.808,-0.153,-0.219,-0.289,-40.204,-10.058,-1.021,0.139,0.048,-3.438,11.187,-18.053,-0.987,-0.03,0.097,-1.895,-2.348,-5.179,-0.876,-0.016,0.32,41.327,22.32,-42.033
3440.0,-0.804,-0.159,-0.218,-6.064,-30.658,-6.805,-1.038,0.101,0.004,-4.755,10.084,-16.318,-1.015,-0.045,0.094,-0.473,-1.776,-5.704,-0.894,0.024,0.29,22.694,18.617,-37.22
3460.0,-0.82,-0.179,-0.204,-11.587,-21.944,-4.664,-1.035,0.089,0.003,-4.205,6.188,-13.79,-1.018,-0.038,0.08,1.234,-4.696,-4.517,-0.886,-0.015,0.244,8.942,13.06,-32.02
3480.0,-0.848,-0.192,-0.181,-13.81,-12.694,-2.378,-1.004,0.091,0.003,-0.14,4.55,-10.64,-1.014,-0.038,0.084,1.363,-6.782,-3.998,-0.849,-0.092,0.194,6.273,8.929,-26.652
3500.0,-0.85,-0.199,-0.179,-17.357,-4.355,1.085,-1.034,0.124,-0.037,-1.54,1.12,-7.56,-1.008,-0.036,0.095,-0.953,-9.292,-4.386,-0.844,-0.083,0.167,18.036,10.076,-24.07
3520.0,-0.856,-0.181,-0.187,-22.109,3.545,6.416,-1.031,0.105,-0.047,-7.675,-3.326,-4.199,-1.013,-0.037,0.075,-2.54,-10.644,-4.61,-0.855,-0.042,0.164,17.292,3.506,-23.409
3540.0,-0.847,-0.19,-0.187,-28.684,9.483,10.584,-1.051,0.063,-0.019,-9.55,-11.539,1.475,-1.036,-0.037,0.073,-2.553,-14.061,-4.331,-0.828,-0.01,0.199,5.683,-1.94,-22.791
3560.0,-0.851,-0.184,-0.196,-37.342,18.571,14.177,-1.03,0.042,-0.006,-4.685,-17.156,6.37,-1.02,-0.043,0.084,-4.878,-17.601,-3.674,-0.74,-0.095,0.192,0.358,2.597,-17.587
3580.0,-0.871,-0.174,-0.199,-42.999,27.7,18.13,-1.007,0.059,0.014,-0.375,-16.667,8.584,-0.999,-0.052,0.09,-5.62,-17.628,-2.273,-0.721,-0.084,0.162,4.834,17.013,-15.813
3600.0,-0.88,-0.174,-0.197,-46.915,34.71,22.668,-1.015,0.097,0.033,-0.521,-17.286,9.989,-1.013,-0.052,0.088,-6.155,-17.542,-1.123,-0.772,-0.027,0.163,-1.881,19.921,-17.08
3620.0,-0.874,-0.161,-0.203,-49.39,41.606,27.396,-1.009,0.088,0.042,-1.322,-18.537,10.669,-1.027,-0.036,0.1,-11.276,-21.188,0.209,-0.742,-0.071,0.119,-7.605,19.364,-17.004
3640.0,-0.877,-0.126,-0.232,-49.7,45.998,33.66,-1.001,0.082,0.051,-0.625,-18.022,10.929,-0.999,-0.034,0.134,-15.473,-23.014,1.156,-0.707,-0.125,0.088,0.155,19.356,-15.789
3660.0,-0.872,-0.096,-0.27,-49.908,49.951,41.024,-1.003,0.103,0.049,1.385,-17.524,10.785,-0.964,-0.076,0.15,-14.867,-19.512,1.232,-0.682,-0.147,0.075,14.602,22.075,-13.7
3680.0,-0.853,-0.08,-0.314,-51.254,56.935,46.474,-1.005,0.134,0.044,1.575,-18.226,9.445,-0.966,-0.085,0.152,-6.543,-15.442,1.169,-0.689,-0.061,0.112,22.931,27.016,-13.527
3700.0,-0.826,-0.072,-0.357,-52.086,65.143,50.341,-0.988,0.146,0.063,0.733,-17.768,7.7,-0.993,-0.034,0.096,-5.349,-15.607,-3.381,-0.63,-0.039,0.1,13.987,32.676,-14.232
3720.0,-0.799,-0.064,-0.365,-53.295,73.38,54.483,-0.985,0.163,0.074,0.08,-15.054,6.496,-0.974,0.031,0.087,-15.189,-18.999,-16.966,-0.639,-0.049,0.072,9.309,42.286,-15.88
3740.0,-0.774,-0.046,-0.365,-56.854,82.535,57.828,-1.013,0.169,0.074,-3.068,-13.427,5.156,-1.08,-0.016,0.164,-24.575,-21.252,3.882,-0.707,-0.065,-0.004,14.04,45.38,-16.707
3760.0,-0.752,-0.042,-0.37,-58.435,87.401,59.526,-1.037,0.149,0.066,-3.983,-14.884,4.099,-0.958,-0.151,0.25,-10.82,-24.48,0.238,-0.759,-0.088,-0.018,7.696,34.386,-15.312
3780.0,-0.74,-0.042,-0.411,-55.57,87.411,59.738,-0.982,0.098,0.106,-0.649,-17.159,2.711,-0.967,-0.132,0.132,7.267,-19.763,4.452,-0.732,-0.116,-0.015,-0.828,23.197,-13.538
3800.0,-0.718,-0.012,-0.51,-53.563,91.235,60.688,-0.966,0.097,0.123,7.273,-11.088,0.897,-1.036,-0.008,0.076,5.787,-17.218,5.87,-0.682,-0.07,0.005,-9.178,32.943,-15.449
3820.0,-0.723,0.065,-0.522,-54.811,107.926,64.626,-1.019,0.181,0.092,11.97,-6.479,0.781,-1.115,0.043,0.168,-5.093,-33.249,9.777,-0.854,-0.073,-0.063,-19.96,46.926,-19.829
3840.0,-0.728,0.082,-0.45,-55.182,111.821,67.363,-1.025,0.204,0.085,4.975,-6.81,-0.669,-0.967,-0.071,0.277,-11.946,-38.025,5.69,-0.951,-0.176,-0.122,-15.301,33.142,-20.711
3860.0,-0.726,0.083,-0.457,-51.971,106.14,67.505,-0.998,0.16,0.093,-1.359,-9.148,-0.579,-0.857,-0.136,0.291,1.865,-19.598,6.708,-0.839,-0.254,-0.124,-1.407,22.763,-16.403
3880.0,-0.705,0.092,-0.585,-46.915,100.213,67.13,-0.937,0.004,0.12,12.043,-0.117,-5.271,-0.954,-0.113,0.209,13.528,-9.627,7.348,-0.816,-0.145,-0.105,3.234,28.93,-13.838
3900.0,-0.672,0.127,-0.604,-47.83,113.43,66.129,-1.029,0.008,0.117,29.182,3.542,-4.998,-1.045,0.016,0.154,9.177,-12.168,6.238,-0.892,-0.05,-0.139,-6.339,26.996,-13.045
3920.0,-0.638,0.141,-0.506,-47.356,127.463,64.187,-0.994,0.23,0.079,31.093,8.586,-2.478,-1.063,0.067,0.243,-6.122,-25.689,11.637,-1.001,-0.093,-0.173,-20.794,15.426,-10.516
3940.0,-0.568,0.141,-0.515,-38.587,123.533,62.386,-0.973,0.293,0.062,9.732,9.928,-7.748,-0.894,-0.078,0.315,-15.68,-21.7,12.11,-1.021,-0.262,-0.204,-20.263,7.332,-4.096
3960.0,-0.492,0.152,-0.705,-35.674,117.908,57.598,-1.022,0.108,0.084,1.627,9.017,-10.809,-0.885,-0.122,0.295,3.327,-8.936,5.003,-0.999,-0.169,-0.142,-18.241,8.22,-0.038
3980.0,-0.456,0.22,-0.837,-39.855,129.289,51.601,-1.022,0.032,0.067,6.952,7.718,-6.806,-0.969,-0.095,0.275,13.363,-8.667,4.377,-1.01,-0.119,-0.119,-35.382,17.767,3.473
4000.0,-0.456,0.299,-0.841,-41.414,143.616,48.962,-1.004,0.153,0.025,15.852,9.859,-4.488,-0.966,-0.048,0.196,20.16,-7.109,3.108,-1.106,-0.21,-0.166,-38.343,19.387,6.141
4020.0,-0.465,0.31,-0.666,-35.807,142.769,49.083,-1.017,0.202,0.033,8.468,7.904,-7.656,-1.013,0.042,0.199,17.067,-5.374,3.624,-1.166,-0.344,-0.2,-17.314,8.278,9.343
4040.0,-0.434,0.272,-0.65,-28.621,126.749,47.047,-1.022,0.105,0.037,4.051,6.585,-7.897,-1.013,0.084,0.235,-5.428,-9.9,6.395,-1.161,-0.32,-0.135,7.376,8.088,12.444
4060.0,-0.36,0.291,-0.918,-25.48,124.95,42.7,-1.04,0.047,0.054,0.327,0.974,-5.103,-0.923,0.042,0.28,-10.956,-7.587,3.305,-1.191,-0.25,-0.066,8.558,12.691,14.634
4080.0,-0.344,0.418,-0.982,-24.815,131.444,40.272,-1.017,0.062,0.021,8.706,0.92,-1.89,-0.918,-0.043,0.26,-7.262,1.188,-2.333,-1.188,-0.161,-0.055,-7.432,14.439,15.64
4100.0,-0.385,0.475,-0.87,-20.358,127.8,38.207,-1.035,0.084,0.043,7.078,-0.954,-1.689,-1.013,-0.045,0.271,2.145,-2.013,-2.272,-1.233,-0.196,-0.094,-27.043,16.088,15.513
4120.0,-0.358,0.504,-0.881,-16.666,116.635,34.968,-1.026,0.125,0.043,3.709,-2.313,-2.119,-0.974,-0.051,0.278,3.872,-0.368,-0.301,-1.349,-0.309,-0.2,-25.661,-4.402,14.049
4140.0,-0.283,0.454,-1.019,-15.82,111.86,31.15,-1.006,0.07,0.042,3.556,-2.493,-1.76,-0.945,-0.035,0.264,4.858,3.088,0.072,-1.357,-0.31,-0.197,-14.845,-15.926,12.35
4160.0,-0.241,0.464,-1.026,-18.266,113.163,26.044,-1.018,0.049,0.043,5.923,-3.626,3.129,-0.969,-0.014,0.263,5.132,5.555,-2.641,-1.252,-0.189,-0.044,-21.399,-14.249,11.766
4180.0,-0.229,0.52,-1.001,-19.227,106.12,22.531,-1.004,0.108,0.086,14.822,-2.356,3.224,-0.974,-0.017,0.264,7.019,5.95,-5.181,-1.166,-0.121,0.011,-61.208,0.846,9.682
4200.0,-0.2,0.547,-1.01,-17.361,97.107,20.995,-0.982,0.14,0.058,21.774,0.537,-0.057,-0.965,-0.038,0.256,11.508,6.988,-5.763,-1.259,-0.166,-0.07,-83.989,5.518,6.082
4220.0,-0.17,0.532,-1.011,-14.075,88.74,18.467,-1.003,0.133,0.032,16.023,0.473,-1.092,-0.969,-0.022,0.234,16.714,8.551,-5.81,-1.348,-0.328,-0.128,-72.694,-11.408,7.415
4240.0,-0.109,0.504,-1.02,-10.952,83.309,16.845,-1.015,0.109,0.049,16.429,0.394,1.636,-0.988,0.018,0.214,16.436,8.858,-6.626,-1.324,-0.353,-0.119,-25.771,-14.067,10.95
4260.0,-0.056,0.544,-1.06,-9.889,82.143,14.571,-1.008,0.078,0.053,20.097,0.71,3.401,-1.018,0.008,0.207,12.075,6.744,-6.614,-1.357,-0.234,-0.116,11.118,-3.662,11.631
4280.0,-0.074,0.573,-1.057,-11.172,80.077,14.201,-1.017,0.071,0.035,20.282,0.461,2.751,-1.018,-0.036,0.194,10.693,1.048,-4.674,-1.458,-0.165,-0.152,24.268,-1.431,11.492
4300.0,-0.106,0.573,-1.012,-15.918,72.533,17.331,-1.031,0.073,0.033,18.907,-0.498,3.464,-0.997,-0.048,0.187,12.805,-2.886,-2.461,-1.402,-0.138,-0.071,20.047,-1.44,11.764
4320.0,-0.098,0.606,-1.003,-18.55,65.371,24.72,-1.014,0.089,0.021,20.371,-1.046,8.203,-1.008,-0.011,0.192,16.963,-6.045,-2.273,-1.423,-0.173,-0.101,10.617,5.002,14.523
4340.0,-0.057,0.602,-1.038,-16.73,58.327,35.218,-1.004,0.129,0.024,22.98,0.087,9.451,-1.004,-0.011,0.197,18.988,-7.7,-3.933,-1.483,-0.198,-0.109,15.362,5.59,15.664
4360.0,-0.025,0.563,-1.044,-10.378,44.595,35.428,-1.023,0.138,0.048,16.588,-0.104,7.946,-0.994,-0.034,0.237,19.881,-7.996,-4.413,-1.46,-0.136,-0.081,3.598,5.371,10.704
4380.0,-0.012,0.553,-1.038,-4.005,29.426,29.337,-0.999,0.13,0.033,13.194,-1.71,5.915,-0.973,-0.038,0.265,20.236,-7.641,-2.985,-1.484,-0.151,-0.083,-8.815,1.05,5.196
4400.0,0.008,0.56,-1.045,5.156,12.777,22.743,-0.996,0.188,0.037,5.875,-0.999,4.793,-0.953,-0.008,0.266,18.87,-3.176,-1.854,-1.452,-0.258,-0.105,0.223,0.699,3.72
4420.0,0.019,0.551,-1.037,11.772,-1.709,17.939,-1.022,0.174,0.025,-1.225,-0.124,3.408,-0.962,0.039,0.265,8.656,-1.138,-1.622,-1.416,-0.266,-0.091,17.377,-4.012,4.803
4440.0,0.022,0.54,-1.024,18.489,-17.441,13.874,-1.021,0.126,0.02,-6.9,-1.934,2.747,-0.973,0.006,0.273,3.01,-3.99,-1.96,-1.397,-0.309,-0.108,35.031,-1.332,5.429
4460.0,0.017,0.537,-1.028,25.06,-31.533,8.093,-1.027,0.076,0.025,-3.25,-4.185,4.037,-0.973,-0.003,0.198,4.2,-1.26,-3.36,-1.437,-0.233,-0.105,51.303,0.202,9.747
4480.0,-0.001,0.522,-1.029,30.098,-41.16,3.211,-1.027,0.071,0.043,-0.848,-5.73,7.393,-1.037,-0.017,0.181,7.63,-5.39,-1.89,-1.436,-0.126,-0.03,55.306,-7.186,7.946
4500.0,0.007,0.48,-1.06,34.093,-47.169,1.175,-1.025,0.112,0.011,6.053,-6.172,7.971,-1.014,-0.005,0.198,7.77,-9.03,-0.35,-1.383,-0.122,-0.024,58.806,0.28,10.087
4520.0,0.012,0.466,-1.069,37.031,-52.627,-2.714,-1.008,0.15,0.018,2.949,-7.775,7.562,-0.98,-0.009,0.225,6.403,-12.179,0.508,-1.401,-0.139,-0.044,58.844,2.653,12.036
4540.0,-0.031,0.485,-1.036,41.076,-59.212,-8.679,-1.015,0.181,0.035,-5.55,-8.818,9.43,-0.955,0.021,0.233,4.41,-11.13,0.91,-1.376,-0.108,-0.026,47.46,2.52,12.67
4560.0,-0.048,0.478,-1.046,42.727,-66.451,-11.401,-1.034,0.117,0.031,-2.654,-11.395,9.52,-0.98,0.007,0.253,0.42,-9.59,0.35,-1.326,-0.069,-0.02,24.713,3.34,14.663
4580.0,-0.059,0.434,-1.059,44.758,-71.171,-10.227,-0.988,0.166,0.032,3.653,-9.8,8.276,-0.969,-0.006,0.288,2.082,-10.056,0.905,-1.214,-0.077,-0.022,8.729,3.36,16.163
4600.0,-0.085,0.416,-1.054,46.252,-77.209,-10.88,-1.004,0.164,0.042,-4.02,-10.38,6.843,-0.945,-0.032,0.307,-0.7,-4.97,-0.14,-1.219,-0.113,-0.064,-1.19,6.09,13.79
4620.0,-0.117,0.376,-1.034,50.926,-86.073,-14.686,-1.004,0.142,0.069,-5.722,-8.846,6.8,-0.937,-0.023,0.292,2.87,-0.91,-1.26,-1.25,-0.075,-0.077,-8.803,-6.14,10.103
4640.0,-0.096,0.339,-1.052,56.039,-87.845,-16.529,-1.017,0.094,0.066,-3.5,-8.75,8.05,-0.957,0.013,0.255,1.71,4.396,-2.26,-1.159,0.012,-0.073,-27.648,-6.523,13.475
4660.0,-0.094,0.34,-1.026,60.483,-87.391,-17.469,-1.017,0.134,0.06,2.66,-7.91,9.1,-0.987,-0.017,0.26,-1.93,1.617,-2.31,-0.999,-0.09,-0.08,-24.344,3.335,20.019
4680.0,-0.151,0.356,-0.99,62.288,-94.3,-18.092,-0.994,0.238,0.021,-0.42,-7.77,7.91,-0.958,-0.005,0.258,-2.045,3.133,-2.802,-1.075,-0.07,-0.167,-20.667,-4.958,21.642
4700.0,-0.176,0.341,-0.965,61.577,-103.362,-18.3,-0.995,0.301,0.028,-14.937,-7.64,4.633,-0.956,-0.003,0.237,0.298,5.771,-5.269,-1.06,-0.066,-0.161,-22.05,-24.5,21.49
4720.0,-0.21,0.265,-0.949,61.306,-109.425,-21.411,-1.006,0.23,0.063,-35.03,-8.457,1.775,-0.996,0.009,0.212,-1.145,6.756,-6.249,-0.907,-0.008,-0.08,-23.98,-33.282,25.503
4740.0,-0.265,0.274,-0.949,60.395,-112.368,-24.842,-0.991,0.102,0.091,-36.745,-8.163,2.899,-0.998,0.022,0.242,-5.517,5.926,-5.233,-0.891,0.002,-0.123,-18.839,-16.72,27.896
4760.0,-0.323,0.292,-0.925,55.349,-116.602,-28.118,-1.007,0.071,0.076,-29.313,-6.202,6.001,-0.973,0.033,0.245,-13.779,7.56,-2.382,-1.052,0.006,-0.239,-18.985,-27.914,27.339
4780.0,-0.33,0.26,-0.92,47.652,-121.299,-31.268,-1.003,0.096,0.101,-20.173,-6.252,9.629,-0.971,0.03,0.221,-22.49,9.661,-1.6,-0.997,-0.017,-0.199,-13.356,-38.575,30.091
4800.0,-0.315,0.172,-0.937,42.745,-124.367,-36.183,-0.996,0.088,0.097,-13.48,-4.732,11.631,-0.997,0.0,0.213,-26.308,9.07,-2.542,-0.844,-0.008,-0.079,-2.72,-34.472,35.61
4820.0,-0.334,0.142,-0.914,40.54,-120.183,-38.189,-1.001,0.076,0.078,-6.089,-4.507,13.771,-1.005,-0.033,0.203,-26.819,8.786,-2.958,-0.915,0.035,-0.119,-0.029,-26.401,38.191
4840.0,-0.386,0.109,-0.813,38.819,-117.664,-40.964,-1.005,0.086,0.073,4.112,-5.451,16.391,-0.981,-0.077,0.241,-19.901,9.738,-1.197,-1.009,0.015,-0.134,6.403,-40.003,41.2
4860.0,-0.479,0.108,-0.817,35.485,-121.15,-40.367,-1.001,0.136,0.076,11.182,-5.605,17.844,-0.948,-0.057,0.253,-14.647,14.53,-0.679,-0.9,0.015,-0.099,17.308,-40.81,49.213
4880.0,-0.475,0.069,-0.876,34.589,-121.38,-40.956,-1.002,0.143,0.075,12.481,-7.1,18.02,-0.957,-0.043,0.193,-11.026,20.083,-2.968,-0.779,0.048,-0.045,22.813,-38.536,55.563
4900.0,-0.464,0.1,-0.852,38.853,-119.962,-45.912,-0.976,0.153,0.065,13.47,-6.837,18.449,-0.999,-0.017,0.187,-10.743,18.559,-4.455,-0.828,0.156,-0.048,9.619,-34.125,58.974
4920.0,-0.508,0.06,-0.738,42.648,-113.717,-46.32,-0.973,0.213,0.064,12.581,-5.305,20.149,-0.995,-0.043,0.194,-11.06,17.35,-3.4,-0.975,0.15,-0.064,-3.981,-42.273,62.198
4940.0,-0.591,0.054,-0.679,41.44,-112.7,-46.48,-1.027,0.186,0.068,7.212,-8.079,19.855,-0.978,-0.07,0.186,-8.405,19.227,-0.905,-0.942,0.124,-0.019,-12.25,-53.847,67.346
4960.0,-0.623,0.018,-0.695,39.483,-114.867,-44.872,-1.027,0.214,0.092,6.849,-7.725,17.898,-0.981,-0.051,0.162,-5.215,19.932,-0.854,-0.796,0.114,0.026,-15.021,-53.025,72.15
4980.0,-0.64,0.008,-0.657,40.324,-114.046,-45.464,-0.976,0.232,0.095,7.319,-7.351,12.555,-1.002,-0.022,0.169,-6.951,18.475,-0.312,-0.806,0.101,0.001,-8.205,-45.886,71.465
5000.0,-0.684,-0.009,-0.646,43.558,-112.387,-46.307,-0.953,0.279,0.102,3.748,0.922,6.815,-1.0,-0.029,0.164,-2.577,15.766,-2.312,-0.891,0.127,0.035,7.422,-47.86,69.684
5020.0,-0.71,-0.016,-0.644,44.03,-109.41,-46.83,-0.974,0.311,0.102,-1.507,3.422,-0.376,-0.997,-0.059,0.137,5.88,16.52,-5.25,-0.846,0.235,0.102,13.708,-56.61,66.199
5040.0,-0.713,-0.018,-0.624,41.23,-107.571,-45.098,-0.949,0.291,0.099,-4.867,9.813,-8.58,-0.993,-0.044,0.119,8.009,15.386,-4.854,-0.764,0.221,0.099,6.297,-56.945,65.488
5060.0,-0.694,-0.02,-0.553,34.334,-105.173,-44.281,-0.962,0.259,0.09,-7.68,15.942,-12.751,-1.023,-0.017,0.153,8.061,14.337,-3.655,-0.672,0.161,0.076,5.57,-55.405,63.501
5080.0,-0.76,-0.002,-0.498,31.002,-108.889,-40.901,-0.989,0.257,0.076,-8.734,17.071,-13.451,-1.009,0.007,0.119,9.113,4.562,-4.149,-0.654,0.155,0.076,0.323,-56.662,58.266
5100.0,-0.782,-0.064,-0.475,33.538,-107.524,-39.354,-1.007,0.225,0.053,-17.402,16.745,-13.571,-0.972,-0.002,0.13,-1.485,11.434,-6.01,-0.618,0.128,0.08,2.29,-58.918,51.635
5120.0,-0.716,-0.066,-0.483,37.888,-100.799,-38.625,-1.018,0.181,0.046,-24.124,14.188,-11.163,-0.989,-0.037,0.114,-6.885,12.36,-5.822,-0.582,0.174,0.142,2.992,-62.204,44.283
5140.0,-0.714,-0.085,-0.48,42.988,-90.165,-34.155,-1.011,0.157,0.037,-22.559,11.615,-9.214,-1.013,-0.078,0.119,-2.445,10.16,-5.183,-0.48,0.185,0.2,-7.368,-59.667,37.181
5160.0,-0.756,-0.124,-0.441,42.944,-85.391,-28.217,-0.997,0.181,0.038,-19.882,11.658,-8.346,-0.992,-0.045,0.093,5.687,11.161,-3.849,-0.408,0.092,0.225,-11.938,-47.81,28.485
5180.0,-0.756,-0.125,-0.407,38.302,-82.813,-23.328,-1.012,0.164,0.021,-18.969,8.95,-7.293,-1.0,-0.015,0.09,5.853,10.517,-4.35,-0.389,0.061,0.235,-6.3,-35.043,16.489
5200.0,-0.737,-0.1,-0.375,30.506,-75.514,-19.228,-1.014,0.167,0.029,-17.15,7.42,-6.44,-1.06,-0.013,0.105,6.196,5.957,-5.298,-0.386,0.115,0.222,4.432,-24.37,2.851
5220.0,-0.752,-0.08,-0.334,23.733,-63.013,-15.36,-1.016,0.144,0.042,-12.151,4.911,-5.342,-1.017,-0.041,0.067,12.756,-3.385,-7.318,-0.44,0.203,0.265,10.593,-22.959,-11.606
5240.0,-0.783,-0.086,-0.294,19.662,-51.005,-10.113,-1.038,0.095,0.027,-3.386,1.14,-3.116,-0.985,-0.027,0.089,10.306,1.773,-7.143,-0.437,0.236,0.304,3.524,-25.656,-22.918
5260.0,-0.824,-0.115,-0.25,15.483,-40.423,-6.138,-1.035,0.129,0.022,1.076,-2.223,-1.027,-1.004,-0.052,0.091,6.125,1.02,-5.971,-0.406,0.202,0.289,3.749,-21.283,-31.624
5280.0,-0.878,-0.152,-0.236,10.719,-34.619,-4.08,-0.998,0.185,0.029,-0.096,-2.927,-0.569,-1.007,-0.058,0.068,4.117,0.863,-3.74,-0.429,0.199,0.278,11.953,-10.619,-41.221
5300.0,-0.879,-0.181,-0.252,4.949,-30.58,-2.63,-0.999,0.22,0.021,-2.236,-2.697,-1.466,-1.031,-0.029,0.064,1.684,-2.02,-2.812,-0.476,0.287,0.346,-0.555,-6.117,-51.817
5320.0,-0.868,-0.189,-0.253,-2.417,-23.216,-1.82,-1.009,0.208,0.027,-6.337,-3.321,-2.291,-1.025,0.01,0.091,-1.164,-6.801,-3.239,-0.484,0.236,0.354,-7.292,7.629,-61.298
5340.0,-0.867,-0.181,-0.232,-8.795,-15.182,-0.482,-1.013,0.165,0.037,-12.011,-4.25,-3.066,-1.005,-0.031,0.081,-7.216,-7.49,-4.942,-0.552,0.22,0.335,-7.762,19.666,-72.34
5360.0,-0.864,-0.165,-0.207,-13.265,-8.35,2.144,-1.019,0.123,0.049,-11.132,-5.519,-2.472,-1.005,-0.072,0.096,-8.448,-8.69,-5.322,-0.596,0.209,0.296,-12.478,27.746,-81.551
5380.0,-0.843,-0.152,-0.207,-16.208,-2.75,5.525,-1.023,0.098,0.048,-2.623,-7.823,-1.987,-0.998,-0.057,0.103,-4.298,-7.908,-3.442,-0.64,0.129,0.278,-9.769,34.269,-86.306
5400.0,-0.796,-0.145,-0.234,-19.6,2.971,10.293,-0.999,0.161,0.04,4.184,-7.919,-1.647,-1.008,-0.055,0.074,-2.449,-7.694,-3.82,-0.709,0.184,0.29,-14.972,37.067,-90.157
5420.0,-0.773,-0.135,-0.272,-24.988,12.467,14.302,-0.989,0.218,0.033,3.043,-7.601,-3.006,-1.028,-0.034,0.083,-3.53,-10.307,-4.2,-0.755,0.194,0.254,-32.205,37.619,-93.992
5440.0,-0.774,-0.131,-0.287,-32.756,23.996,18.507,-1.003,0.212,0.036,-2.46,-8.488,-6.018,-1.019,-0.027,0.104,-7.15,-15.245,-4.993,-0.789,0.098,0.196,-34.159,40.442,-94.878
5460.0,-0.782,-0.137,-0.292,-39.23,33.876,23.373,-1.008,0.181,0.056,-5.389,-8.845,-6.693,-1.004,-0.056,0.091,-7.188,-16.095,-4.658,-0.771,0.036,0.149,-16.176,50.848,-95.255
5480.0,-0.786,-0.14,-0.302,-43.351,42.996,27.689,-1.015,0.1,0.06,-5.022,-9.379,-5.358,-1.008,-0.049,0.095,-7.969,-16.852,-4.043,-0.87,0.039,0.123,10.24,53.82,-97.842
5500.0,-0.792,-0.107,-0.328,-48.351,53.152,32.183,-1.021,0.098,0.057,-1.116,-10.878,-1.713,-1.013,-0.037,0.131,-11.014,-19.296,-4.318,-0.931,0.156,0.1,17.91,57.012,-97.871
5520.0,-0.784,-0.088,-0.354,-54.571,62.35,37.298,-1.005,0.149,0.06,0.986,-10.707,-2.068,-0.994,-0.081,0.137,-11.21,-20.121,-2.492,-0.882,0.186,0.085,16.209,68.663,-85.475
5540.0,-0.763,-0.093,-0.365,-57.719,70.485,42.929,-0.991,0.168,0.07,-1.431,-11.595,-3.985,-0.987,-0.075,0.115,-8.532,-17.517,0.015,-0.769,-0.001,0.007,15.479,69.331,-72.199
5560.0,-0.743,-0.066,-0.394,-59.364,81.784,47.046,-0.979,0.14,0.064,-4.235,-9.899,-4.233,-1.032,-0.036,0.122,-7.563,-22.451,0.064,-0.734,-0.031,-0.015,29.427,72.012,-58.051
5580.0,-0.719,-0.081,-0.441,-60.922,91.484,53.466,-0.991,0.135,0.083,-3.986,-9.178,-3.036,-1.01,0.003,0.146,-11.367,-26.596,1.817,-0.757,0.132,-0.024,21.14,70.7,-52.08
5600.0,-0.684,-0.04,-0.48,-66.303,102.479,53.265,-1.031,0.135,0.048,0.627,-9.188,-3.364,-0.987,-0.071,0.182,-11.424,-26.158,1.473,-0.794,0.241,-0.067,-16.66,58.73,-43.26
5620.0,-0.69,-0.019,-0.505,-69.159,112.794,57.342,-1.031,0.17,0.084,0.84,-13.86,-1.61,-1.005,-0.113,0.181,-2.673,-27.617,1.855,-0.68,0.135,-0.078,-76.418,34.536,-31.673
5640.0,-0.682,0.002,-0.513,-68.929,120.929,62.312,-0.987,0.13,0.097,-1.845,-13.081,-0.756,-0.97,-0.104,0.14,1.527,-26.386,3.841,-0.59,-0.03,-0.113,-115.492,36.936,-19.758
5660.0,-0.638,-0.01,-0.545,-67.982,134.584,63.294,-0.98,0.176,0.078,-6.86,-10.678,0.831,-0.991,-0.051,0.19,3.885,-24.613,3.836,-0.669,-0.136,-0.121,-112.083,40.326,-13.982
5680.0,-0.631,-0.0,-0.527,-67.218,143.275,63.55,-0.982,0.142,0.08,-6.739,-8.889,-0.851,-1.001,-0.041,0.253,-4.645,-28.678,6.635,-0.75,-0.188,-0.135,-93.595,39.418,-13.038
5700.0,-0.604,0.002,-0.492,-63.062,144.997,60.931,-1.004,0.046,0.094,2.335,-6.579,-2.221,-0.959,-0.046,0.213,-0.063,-23.764,6.135,-0.828,-0.185,-0.167,-76.997,39.479,-12.811
5720.0,-0.549,0.058,-0.535,-56.148,137.5,59.352,-1.012,0.032,0.137,15.89,-6.32,-0.782,-0.996,-0.074,0.217,3.063,-21.642,3.991,-0.954,-0.222,-0.175,-56.955,27.321,-13.767
5740.0,-0.5,0.161,-0.682,-58.0,134.86,59.96,-0.97,0.17,0.138,22.96,-1.75,-1.33,-0.985,-0.058,0.197,8.155,-23.908,4.491,-0.968,-0.188,-0.187,-31.311,22.482,-11.757
5760.0,-0.447,0.205,-0.723,-65.045,144.78,57.165,-0.971,0.298,0.092,17.154,5.166,-4.22,-0.993,-0.066,0.245,6.703,-21.618,6.632,-0.962,-0.095,-0.173,-14.198,24.345,-5.958
5780.0,-0.416,0.176,-0.668,-63.07,152.74,51.45,-0.995,0.21,0.091,3.57,7.211,-10.285,-0.982,-0.025,0.232,-0.011,-20.369,12.268,-1.001,-0.206,-0.368,-14.147,36.436,0.694
5800.0,-0.431,0.154,-0.677,-50.799,149.584,48.538,-1.0,0.068,0.099,2.182,5.42,-8.848,-0.948,-0.042,0.265,0.939,-18.048,12.132,-1.204,-0.14,-0.354,-10.777,10.673,0.591
5820.0,-0.394,0.211,-0.774,-42.56,149.52,43.68,-0.963,0.181,0.081,2.17,9.94,-8.33,-0.919,0.037,0.24,-1.554,-6.929,5.998,-1.195,-0.11,-0.174,-21.565,-3.495,1.403
5840.0,-0.351,0.28,-0.909,-44.393,156.992,36.139,-1.029,0.209,0.059,3.855,10.461,-13.284,-0.993,0.026,0.294,-7.141,-5.312,5.0,-1.222,-0.409,-0.282,-35.52,15.052,7.761
5860.0,-0.339,0.273,-0.935,-44.354,157.927,38.402,-1.01,0.163,0.061,-1.41,11.38,-15.356,-0.945,0.039,0.27,-22.623,3.721,4.384,-1.428,-0.599,-0.401,4.889,-0.169,3.876
5880.0,-0.289,0.298,-0.911,-34.932,147.68,35.64,-1.014,0.057,0.056,-2.576,9.295,-12.214,-0.934,0.007,0.287,-22.998,5.717,1.674,-1.452,-0.391,-0.256,21.703,-3.531,-13.289
5900.0,-0.263,0.414,-1.048,-28.414,147.811,36.254,-1.035,-0.002,0.035,3.651,6.575,-6.651,-0.908,-0.025,0.289,-18.616,8.733,-5.433,-1.412,-0.211,-0.114,24.352,-4.567,-18.308
5920.0,-0.302,0.512,-1.096,-33.686,150.715,40.502,-1.011,0.105,0.029,7.829,6.156,-2.309,-0.974,-0.074,0.243,-5.729,12.555,-9.591,-1.365,-0.232,-0.097,36.743,-3.965,-9.275
5940.0,-0.341,0.51,-1.04,-35.266,144.114,45.234,-1.025,0.135,0.053,7.284,5.157,-3.874,-1.01,-0.071,0.21,4.973,13.43,-7.661,-1.418,-0.307,-0.145,84.883,2.23,13.448
5960.0,-0.294,0.434,-1.054,-27.141,131.531,49.113,-1.041,0.1,0.038,7.332,2.592,-4.426,-1.004,-0.013,0.185,5.58,12.301,-4.384,-1.576,-0.165,-0.196,87.083,-14.473,22.719
5980.0,-0.153,0.364,-1.159,-26.213,131.766,52.144,-1.026,0.078,0.029,6.343,0.943,-2.105,-0.985,0.011,0.184,-0.886,9.138,-5.005,-1.577,0.066,-0.046,-8.797,-28.961,22.518
6000.0,-0.135,0.488,-1.218,-30.199,132.861,51.461,-1.003,0.081,0.041,8.565,1.488,-0.587,-0.984,-0.031,0.191,-6.122,5.326,-5.674,-1.451,-0.031,-0.021,-73.381,-33.075,18.76
6020.0,-0.085,0.52,-1.118,-26.814,122.507,52.055,-1.007,0.098,0.059,12.8,4.284,-1.212,-0.985,-0.085,0.193,-6.278,2.837,-4.031,-1.364,-0.352,-0.057,-79.728,-16.587,20.422
6040.0,-0.049,0.509,-1.061,-20.373,109.486,45.793,-1.02,0.111,0.055,15.02,4.955,-2.712,-0.981,-0.109,0.212,1.385,2.546,-2.856,-1.393,-0.445,-0.117,-21.21,-11.064,21.186
6060.0,0.065,0.488,-1.015,-21.242,103.553,42.844,-1.019,0.11,0.035,11.416,4.117,-1.627,-0.983,-0.07,0.22,9.699,2.504,-2.851,-1.433,-0.249,0.023,5.261,-8.367,13.556
6080.0,0.126,0.52,-1.059,-24.553,98.411,34.489,-1.023,0.099,0.008,8.012,4.022,-0.506,-1.003,-0.027,0.218,13.306,3.51,-4.282,-1.457,-0.18,0.08,-9.035,3.001,2.644
6100.0,0.161,0.552,-1.109,-20.3,79.17,29.19,-1.015,0.112,0.039,8.942,4.524,-1.621,-1.005,-0.012,0.19,12.615,2.515,-5.5,-1.529,-0.245,0.068,-16.027,0.142,-4.099
6120.0,0.133,0.589,-1.037,-20.16,67.27,29.61,-1.01,0.107,0.041,10.298,3.739,-2.427,-0.992,-0.027,0.18,10.841,1.474,-5.517,-1.532,-0.373,0.111,-1.509,-12.495,-5.479
6140.0,0.159,0.603,-1.032,-20.614,52.1,27.069,-1.017,0.107,0.018,6.432,2.422,-1.147,-0.996,-0.007,0.17,7.46,0.696,-4.055,-1.462,-0.29,0.071,46.832,-6.435,-5.04
6160.0,0.213,0.563,-1.018,-17.854,34.059,20.652,-1.026,0.102,0.019,1.295,0.258,1.616,-0.998,-0.041,0.18,1.856,-1.617,-3.151,-1.463,-0.21,0.029,62.958,0.278,-5.087
6180.0,0.215,0.531,-1.05,-2.535,3.111,10.571,-1.011,0.068,0.032,2.492,-1.032,2.724,-0.996,-0.078,0.19,2.814,-3.36,-2.055,-1.452,-0.15,-0.116,80.891,12.302,-5.801
6200.0,0.224,0.517,-1.021,8.119,-24.476,4.998,-1.001,0.049,0.031,2.677,-0.842,5.179,-1.0,-0.07,0.189,6.439,-4.85,-0.57,-1.504,-0.095,-0.117,71.53,3.122,-5.141
6220.0,0.239,0.51,-1.017,15.977,-46.546,4.045,-1.025,0.05,0.023,4.47,-1.64,8.871,-1.001,-0.073,0.19,10.63,-4.909,-0.131,-1.422,-0.125,-0.133,53.257,-0.971,-2.09
6240.0,0.224,0.492,-1.016,24.013,-63.148,2.848,-1.023,0.07,0.022,7.972,-3.5,11.024,-1.014,-0.061,0.175,14.037,-9.465,0.445,-1.415,-0.112,-0.087,42.319,-1.568,0.504
6260.0,0.21,0.455,-1.002,35.873,-72.906,1.919,-0.99,0.072,0.025,7.684,-3.654,12.417,-0.996,-0.075,0.171,18.653,-12.399,0.555,-1.324,-0.106,-0.044,28.921,-0.769,4.794
6280.0,0.204,0.444,-0.999,40.121,-76.388,-0.353,-1.008,0.055,0.02,11.973,-5.177,13.271,-0.996,-0.063,0.186,23.438,-14.549,1.634,-1.254,-0.186,-0.082,28.706,10.108,9.403
6300.0,0.191,0.424,-1.022,42.201,-83.544,-8.0,-1.009,0.086,0.029,13.86,-5.39,13.65,-1.004,-0.036,0.178,25.336,-17.143,3.455,-1.301,-0.217,-0.168,13.222,21.207,6.261
6320.0,0.155,0.395,-1.05,48.394,-92.505,-17.867,-1.011,0.126,0.048,10.749,-6.568,13.849,-0.998,-0.029,0.198,26.865,-20.477,4.337,-1.376,-0.224,-0.212,1.811,19.973,1.691
6340.0,0.135,0.385,-1.097,56.247,-100.791,-26.353,-1.015,0.162,0.05,11.615,-6.301,14.487,-0.961,0.003,0.222,19.207,-20.477,4.078,-1.26,-0.097,-0.113,-15.05,2.38,-0.7
6360.0,0.084,0.393,-1.075,58.345,-104.942,-31.379,-1.034,0.152,-0.009,7.0,-11.13,14.28,-0.958,-0.027,0.259,15.241,-14.136,3.117,-1.179,-0.192,-0.153,-21.695,1.617,-2.516
6380.0,0.076,0.425,-1.013,60.556,-98.163,-32.443,-1.021,0.135,0.006,-3.966,-11.826,14.423,-0.932,-0.04,0.298,13.157,-13.112,2.862,-1.232,-0.25,-0.18,-2.928,-12.807,-7.368
6400.0,-0.01,0.384,-0.979,55.949,-99.577,-28.12,-1.039,0.123,-0.001,-2.224,-14.57,16.504,-0.918,-0.012,0.274,9.942,-4.26,1.979,-1.145,-0.194,-0.144,15.12,-9.24,-11.27
6420.0,-0.021,0.295,-1.004,55.912,-108.051,-28.619,-1.03,0.099,0.049,1.437,-16.425,15.33,-0.986,-0.014,0.256,12.597,2.024,-0.96,-1.035,-0.135,-0.132,37.162,3.268,-8.99
6440.0,-0.037,0.279,-1.029,58.947,-109.005,-30.096,-0.969,0.137,0.058,10.36,-13.86,13.65,-0.996,0.014,0.243,12.2,1.31,-1.645,-1.116,-0.138,-0.195,48.78,-3.314,-6.857
6460.0,-0.083,0.294,-1.015,61.437,-109.581,-30.803,-0.974,0.198,0.055,10.067,-8.577,10.06,-0.973,-0.012,0.227,13.02,3.85,-3.15,-1.1,-0.089,-0.146,55.901,-19.752,-3.079
6480.0,-0.144,0.322,-1.039,64.449,-111.823,-31.523,-0.997,0.263,0.079,3.342,-7.064,7.876,-0.984,0.034,0.234,12.962,4.818,-3.703,-0.99,0.012,-0.05,49.051,-24.801,7.226
6500.0,-0.193,0.313,-1.051,67.482,-113.435,-31.635,-0.989,0.337,0.035,-16.042,-4.706,2.999,-1.007,0.034,0.201,10.566,-0.308,-5.114,-0.965,0.038,-0.101,40.354,-18.136,19.668
6520.0,-0.23,0.265,-0.98,65.087,-116.867,-30.967,-0.971,0.337,0.017,-39.982,-1.697,-3.686,-0.949,0.024,0.222,2.007,2.007,-6.295,-1.064,0.086,-0.138,32.191,-29.45,35.617
6540.0,-0.292,0.268,-0.977,58.896,-119.984,-32.162,-0.99,0.169,0.053,-46.149,0.185,-8.649,-0.952,-0.015,0.265,-5.927,6.282,-6.061,-1.007,0.023,-0.114,29.659,-43.012,53.193
6560.0,-0.345,0.277,-1.033,53.053,-117.644,-32.735,-1.01,-0.038,0.118,-33.686,2.971,-7.716,-0.96,-0.016,0.26,-2.165,11.933,-6.365,-0.954,0.018,-0.072,30.833,-39.477,70.043
6580.0,-0.361,0.288,-1.054,44.023,-104.661,-30.674,-1.014,-0.042,0.099,-6.761,4.621,-1.079,-0.974,0.069,0.193,-5.389,20.45,-8.294,-0.914,0.016,-0.066,29.806,-35.767,83.91
6600.0,-0.371,0.267,-1.019,28.016,-98.678,-29.136,-0.992,0.109,0.091,8.964,8.33,-0.257,-1.036,0.052,0.235,-17.042,17.636,-8.539,-0.889,0.017,-0.082,26.428,-25.984,95.492
6620.0,-0.403,0.093,-0.881,13.933,-105.87,-31.738,-1.008,0.222,0.028,7.879,10.038,-3.56,-0.958,0.004,0.223,-20.854,15.34,-7.984,-0.911,0.046,-0.054,18.683,-25.61,97.502
6640.0,-0.448,0.047,-0.765,11.686,-126.629,-35.533,-1.018,0.222,0.003,-1.97,7.7,-4.461,-0.974,-0.005,0.187,-26.464,20.526,-8.04,-0.883,0.08,-0.021,8.818,-25.699,94.587
6660.0,-0.469,0.063,-0.744,19.248,-140.885,-38.915,-1.017,0.165,0.017,-4.623,3.508,-3.69,-0.984,0.026,0.174,-33.238,22.978,-7.215,-0.866,0.126,-0.026,-5.758,-26.67,86.847
6680.0,-0.499,0.069,-0.741,28.615,-147.029,-40.656,-1.027,0.083,0.03,2.96,0.992,0.244,-1.015,-0.009,0.16,-36.671,20.903,-8.214,-0.888,0.141,-0.048,-24.315,-36.77,73.614
6700.0,-0.538,0.1,-0.748,30.656,-147.871,-41.008,-1.02,0.079,0.039,7.572,-0.046,3.316,-1.01,-0.108,0.173,-29.694,18.403,-8.904,-0.882,0.1,-0.028,-39.181,-54.843,58.057
6720.0,-0.569,0.059,-0.757,30.939,-146.304,-40.594,-1.007,0.109,0.041,7.563,-0.489,4.736,-0.993,-0.121,0.135,-18.764,19.934,-6.453,-0.767,0.089,0.047,-43.508,-73.048,46.951
6740.0,-0.599,0.027,-0.719,33.02,-146.696,-38.568,-1.017,0.177,0.041,3.661,-1.246,5.219,-1.004,-0.106,0.139,-4.854,17.732,-4.599,-0.61,0.074,0.104,-42.224,-67.594,38.573
6760.0,-0.624,0.019,-0.659,33.93,-146.956,-37.553,-1.014,0.178,0.047,0.145,-1.993,5.048,-0.985,-0.052,0.137,-1.367,18.128,-5.132,-0.599,0.075,0.1,-35.765,-69.341,30.364
6780.0,-0.664,0.032,-0.586,33.946,-142.533,-39.644,-1.013,0.141,0.022,-0.866,-2.912,4.297,-0.981,-0.029,0.14,-2.415,18.385,-7.084,-0.594,0.074,0.102,-39.178,-74.553,20.879
6800.0,-0.71,0.036,-0.534,35.951,-140.894,-40.889,-0.999,0.147,0.027,-1.08,-3.124,3.956,-0.993,-0.057,0.137,-2.68,16.37,-8.341,-0.591,0.017,0.118,-36.291,-82.435,12.786
6820.0,-0.73,-0.007,-0.516,37.335,-142.495,-40.22,-1.002,0.179,0.036,-5.252,-2.183,2.225,-0.992,-0.075,0.149,3.326,15.551,-9.164,-0.584,0.04,0.151,-28.372,-86.532,7.182
6840.0,-0.71,-0.023,-0.489,37.438,-142.664,-40.928,-0.995,0.193,0.044,-9.274,0.054,-0.934,-0.997,-0.072,0.132,11.113,16.117,-11.68,-0.574,0.059,0.144,-27.357,-89.825,2.114
6860.0,-0.681,0.002,-0.451,38.78,-140.702,-42.027,-0.995,0.212,0.053,-13.849,2.862,-3.467,-1.017,-0.049,0.038,14.721,15.192,-11.271,-0.557,0.035,0.152,-29.582,-93.515,-3.287
6880.0,-0.663,0.04,-0.408,42.061,-137.96,-42.248,-1.004,0.19,0.045,-15.96,4.304,-6.578,-1.038,-0.017,0.021,12.526,10.317,-9.738,-0.551,0.023,0.19,-28.577,-91.352,-8.633
6900.0,-0.623,-0.047,-0.441,36.595,-123.258,-39.491,-1.012,0.167,0.039,-15.96,5.665,-8.483,-1.037,-0.019,0.045,1.999,5.258,-8.506,-0.559,0.045,0.218,-28.055,-80.452,-13.843
6920.0,-0.623,-0.063,-0.398,30.803,-103.954,-36.185,-1.017,0.098,0.027,-15.24,3.979,-9.236,-1.021,-0.048,0.09,-0.834,1.044,-8.202,-0.591,0.057,0.274,-40.036,-73.423,-20.011
6940.0,-0.707,-0.121,-0.31,27.978,-88.213,-33.995,-1.027,0.066,0.022,-7.07,2.534,-8.08,-1.008,-0.097,0.074,1.176,0.287,-8.237,-0.596,-0.018,0.335,-44.617,-67.162,-28.155
6960.0,-0.749,-0.161,-0.253,29.834,-80.01,-30.325,-1.024,0.076,0.014,0.629,-0.675,-5.773,-1.016,-0.093,0.062,4.339,-1.546,-7.075,-0.601,-0.066,0.332,-27.42,-54.004,-37.573
6980.0,-0.799,-0.171,-0.225,31.082,-71.454,-25.625,-0.997,0.107,-0.001,4.014,-2.16,-5.321,-1.019,-0.079,0.072,6.096,-3.394,-5.719,-0.621,-0.031,0.316,-0.564,-41.328,-47.33
7000.0,-0.833,-0.17,-0.224,28.615,-59.725,-18.675,-1.01,0.128,-0.002,4.526,-4.134,-5.755,-1.005,-0.079,0.074,6.244,-3.815,-5.876,-0.619,0.045,0.371,5.17,-31.487,-55.044
7020.0,-0.884,-0.153,-0.264,21.473,-43.944,-11.923,-1.02,0.132,0.011,4.054,-6.519,-5.42,-1.006,-0.056,0.07,4.883,-6.034,-7.477,-0.599,0.053,0.406,2.312,-16.546,-60.178
7040.0,-0.884,-0.153,-0.264,12.738,-30.895,-5.149,-1.017,0.125,0.024,5.043,-8.877,-4.072,-1.017,-0.053,0.07,-0.423,-9.25,-7.656,-0.596,-0.068,0.34,15.888,5.456,-63.003
7060.0,-0.859,-0.148,-0.237,4.597,-22.791,0.62,-1.033,0.119,0.024,7.137,-10.251,-1.921,-1.011,-0.087,0.092,-2.08,-12.031,-6.987,-0.655,-0.021,0.313,26.011,17.021,-65.865
7080.0,-0.832,-0.165,-0.204,0.141,-13.371,5.104,-1.033,0.134,0.038,4.14,-11.484,-0.265,-0.998,-0.096,0.091,-0.783,-12.814,-5.994,-0.703,0.075,0.335,22.316,24.833,-71.2
7100.0,-0.809,-0.175,-0.183,-3.684,-5.633,6.413,-1.011,0.133,0.031,-2.158,-12.576,0.682,-1.001,-0.074,0.079,1.651,-12.788,-5.671,-0.794,0.061,0.283,6.976,32.227,-73.737
7120.0,-0.812,-0.164,-0.156,-6.144,6.643,8.764,-0.996,0.127,0.033,-6.141,-12.191,1.115,-1.023,-0.061,0.089,-1.096,-15.409,-5.661,-0.817,-0.013,0.285,5.367,39.656,-72.939
7140.0,-0.832,-0.157,-0.176,-10.305,17.472,11.532,-1.02,0.12,0.042,-5.369,-12.722,2.185,-1.024,-0.063,0.097,-4.594,-18.439,-4.751,-0.754,0.005,0.338,16.526,53.658,-68.123
7160.0,-0.833,-0.167,-0.251,-16.099,27.778,15.969,-1.027,0.104,0.036,-0.989,-15.255,3.655,-0.998,-0.105,0.099,-6.257,-19.118,-3.247,-0.814,0.01,0.236,22.707,64.669,-63.934
7180.0,-0.846,-0.168,-0.247,-21.198,40.9,19.387,-0.992,0.104,0.036,-1.381,-17.591,4.852,-0.997,-0.09,0.084,-5.632,-20.321,-2.216,-0.832,0.038,0.186,32.813,73.382,-56.959
7200.0,-0.883,-0.156,-0.233,-26.357,50.603,23.181,-0.983,0.112,0.055,-3.128,-18.736,6.03,-1.016,-0.056,0.1,-8.795,-22.121,-1.825,-0.85,0.041,0.167,28.318,66.09,-51.847
7220.0,-0.887,-0.128,-0.223,-30.8,53.504,28.581,-0.992,0.118,0.066,-4.593,-18.618,6.74,-1.015,-0.068,0.123,-11.38,-22.59,-1.413,-0.822,0.005,0.203,17.792,59.896,-40.437
7240.0,-0.867,-0.099,-0.238,-33.963,57.896,31.661,-1.004,0.128,0.075,-7.306,-17.317,6.563,-0.985,-0.094,0.13,-13.325,-21.029,-0.871,-0.777,0.027,0.209,4.222,57.684,-30.17
7260.0,-0.854,-0.095,-0.282,-42.646,62.934,35.235,-1.019,0.136,0.087,-9.187,-16.337,6.475,-0.959,-0.103,0.161,-13.372,-17.851,-1.888,-0.723,-0.004,0.135,-1.96,63.77,-23.59
7280.0,-0.828,-0.088,-0.328,-49.912,70.068,35.958,-1.005,0.139,0.105,-10.73,-15.696,6.363,-0.993,-0.101,0.152,-9.854,-18.142,0.461,-0.871,0.02,0.102,-6.65,67.9,-21.42
7300.0,-0.792,-0.087,-0.339,-55.399,79.611,37.534,-0.999,0.151,0.097,-12.321,-12.893,6.184,-1.037,-0.102,0.151,-7.419,-21.928,0.964,-0.782,0.002,0.15,-25.97,56.91,-20.93
7320.0,-0.786,-0.083,-0.349,-56.413,87.825,38.477,-1.0,0.148,0.103,-16.571,-13.285,5.926,-1.026,-0.078,0.152,-8.82,-26.6,4.13,-0.662,-0.05,0.134,-34.154,53.783,-16.723
7340.0,-0.783,-0.075,-0.378,-55.492,92.092,40.183,-0.978,0.122,0.106,-18.226,-15.644,5.305,-0.974,-0.115,0.175,-7.984,-27.647,6.291,-0.668,-0.058,0.093,-42.229,59.214,-12.408
7360.0,-0.772,-0.06,-0.429,-55.264,98.198,43.638,-0.974,0.108,0.118,-15.004,-12.5,3.742,-0.968,-0.123,0.203,-3.323,-24.424,6.093,-0.687,-0.022,0.048,-42.444,65.711,-13.753
7380.0,-0.758,-0.052,-0.466,-56.728,106.139,46.227,-1.018,0.11,0.145,-4.972,-8.629,3.711,-1.007,-0.057,0.121,-1.964,-21.92,6.577,-0.847,-0.0,0.088,-66.556,57.976,-14.606
7400.0,-0.741,-0.042,-0.47,-57.947,114.308,46.823,-1.035,0.127,0.14,-0.734,-9.826,5.231,-1.044,-0.062,0.16,-4.715,-28.675,6.161,-0.891,-0.166,0.048,-79.106,44.607,-12.69
7420.0,-0.721,0.003,-0.469,-58.525,118.99,46.852,-1.022,0.178,0.107,-0.797,-10.977,7.763,-0.973,-0.086,0.228,-9.259,-33.205,8.498,-0.871,-0.243,-0.014,-58.825,39.013,-9.172
7440.0,-0.707,0.04,-0.506,-58.683,116.064,46.213,-0.981,0.187,0.102,-4.469,-9.94,7.288,-0.912,-0.172,0.36,-4.368,-26.8,8.592,-0.774,-0.175,-0.062,-35.602,41.458,-6.018
7460.0,-0.667,0.049,-0.582,-55.82,115.582,45.515,-1.005,0.058,0.136,-3.388,-9.496,4.684,-0.895,-0.161,0.318,6.747,-19.391,9.564,-0.796,-0.017,-0.039,-46.829,49.308,-5.953
7480.0,-0.645,0.045,-0.619,-52.257,135.71,48.585,-1.036,0.018,0.148,12.241,-11.56,7.737,-0.974,-0.09,0.243,11.328,-10.931,7.342,-0.973,-0.09,-0.104,-70.928,39.527,-5.828
7500.0,-0.611,0.049,-0.589,-46.2,139.475,49.187,-0.953,0.116,0.156,20.732,-7.641,9.36,-0.991,-0.017,0.207,13.755,-20.986,6.726,-0.984,-0.231,-0.13,-62.706,15.492,-3.659
7520.0,-0.551,0.107,-0.603,-49.49,139.72,46.83,-0.952,0.223,0.145,19.107,1.32,4.776,-0.964,-0.036,0.247,7.975,-13.183,6.834,-0.877,-0.234,-0.111,-34.052,16.898,0.016
7540.0,-0.524,0.128,-0.718,-50.965,132.655,39.415,-1.0,0.264,0.113,7.348,5.649,-0.852,-0.987,-0.094,0.282,5.113,-14.787,10.306,-0.907,-0.146,-0.088,-19.599,38.176,3.759
7560.0,-0.526,0.194,-0.742,-48.607,133.963,35.557,-1.007,0.154,0.125,3.398,4.605,-3.64,-0.931,-0.029,0.27,-1.159,-8.591,14.052,-1.103,-0.179,-0.154,-16.29,39.568,10.192
7580.0,-0.502,0.227,-0.735,-39.759,141.36,34.692,-0.94,0.118,0.111,12.874,10.02,-3.643,-0.969,-0.037,0.258,-3.466,-10.13,12.696,-1.177,-0.284,-0.208,-6.341,19.532,15.404
7600.0,-0.41,0.204,-0.816,-34.53,142.309,31.014,-0.994,0.137,0.138,10.802,10.907,-4.526,-0.998,-0.005,0.207,-3.31,-13.945,10.037,-1.105,-0.279,-0.168,8.858,5.921,16.237
7620.0,-0.368,0.242,-0.895,-38.55,140.135,26.592,-0.986,0.262,0.094,3.375,16.818,-5.662,-0.982,-0.049,0.276,-1.921,-10.29,7.727,-1.021,-0.166,-0.169,-2.116,15.778,15.715
7640.0,-0.38,0.309,-0.914,-36.75,141.96,27.23,-1.004,0.237,0.097,-7.417,16.532,-12.253,-0.97,-0.063,0.239,1.192,-7.877,7.997,-1.178,-0.196,-0.181,-22.473,21.287,16.462
7660.0,-0.35,0.228,-0.82,-31.465,141.17,27.776,-1.009,0.091,0.05,-6.866,15.272,-14.715,-0.956,-0.065,0.213,4.33,-6.041,9.306,-1.284,-0.3,-0.272,-28.036,12.063,17.515
7680.0,-0.298,0.237,-0.887,-30.055,138.521,27.594,-1.023,0.096,0.082,-2.818,13.441,-13.047,-0.992,-0.001,0.245,2.739,-6.371,10.551,-1.225,-0.287,-0.239,-25.93,6.464,14.133
7700.0,-0.316,0.369,-0.998,-30.18,138.714,27.331,-0.999,0.114,0.075,-0.289,13.103,-10.445,-0.991,0.045,0.296,-7.72,-7.523,11.448,-1.15,-0.311,-0.069,-33.956,7.219,11.597
7720.0,-0.331,0.478,-1.041,-26.921,137.64,30.733,-1.005,0.102,0.061,0.722,13.364,-8.892,-0.919,0.039,0.317,-18.696,-4.441,10.529,-1.135,-0.423,-0.075,0.468,21.769,14.287
7740.0,-0.293,0.481,-1.034,-26.278,132.731,38.894,-1.025,0.109,0.067,3.537,11.874,-5.629,-0.906,-0.003,0.305,-21.029,6.199,4.779,-1.255,-0.357,-0.074,35.389,23.284,15.55
7760.0,-0.21,0.399,-0.988,-29.127,124.891,40.665,-1.026,0.11,0.055,6.042,7.876,-2.075,-0.963,-0.032,0.274,-15.423,6.926,1.302,-1.32,-0.198,-0.063,39.413,12.869,14.771
7780.0,-0.15,0.404,-1.006,-28.59,124.194,36.025,-1.025,0.083,0.047,8.54,4.975,0.053,-0.976,-0.045,0.242,-6.79,4.778,-1.128,-1.384,-0.129,-0.123,-4.812,-3.241,10.672
7800.0,-0.079,0.443,-1.036,-28.079,122.38,33.205,-1.024,0.086,0.047,14.03,2.742,1.671,-0.98,-0.062,0.252,-0.364,3.921,-1.547,-1.395,-0.277,-0.144,-10.797,-11.463,6.244
7820.0,0.006,0.472,-1.021,-29.529,125.137,28.839,-1.015,0.131,0.058,14.741,1.259,1.505,-0.977,-0.061,0.253,5.814,4.115,-1.361,-1.377,-0.24,-0.141,-13.418,-2.994,2.515
7840.0,0.1,0.478,-1.068,-34.193,128.181,21.226,-1.017,0.125,0.06,12.704,0.595,1.05,-0.971,-0.029,0.26,11.477,2.953,-1.733,-1.439,-0.247,-0.147,-15.33,-4.55,1.75
7860.0,0.15,0.469,-1.082,-30.528,143.533,16.015,-1.017,0.102,0.043,12.408,0.757,1.368,-0.98,-0.035,0.216,17.612,-1.559,-4.594,-1.43,-0.202,-0.031,-33.881,-2.121,1.95
7880.0,0.158,0.454,-1.085,-31.905,143.316,8.655,-0.998,0.179,0.056,12.658,2.379,1.883,-1.002,-0.072,0.198,23.962,-4.071,-4.917,-1.512,-0.263,-0.072,-34.991,-4.1,1.043
7900.0,0.111,0.46,-1.084,-31.615,115.118,12.191,-1.007,0.174,0.062,5.715,2.416,-1.845,-1.007,-0.004,0.237,25.203,-5.441,-1.038,-1.554,-0.499,-0.066,-30.45,-11.13,-1.4
7920.0,0.131,0.506,-1.098,-23.869,86.385,22.798,-1.014,0.111,0.038,2.521,1.935,-2.227,-0.965,0.063,0.264,15.94,-4.539,0.661,-1.441,-0.312,-0.091,-13.93,-2.59,-4.2
7940.0,0.23,0.579,-1.097,-15.361,64.473,25.508,-1.02,0.1,0.058,-1.564,1.144,1.53,-0.958,0.052,0.281,6.2,-1.107,-2.517,-1.49,-0.321,-0.117,8.47,3.99,-3.78
7960.0,0.241,0.605,-1.026,-8.777,40.819,23.158,-1.01,0.082,0.069,6.089,2.506,1.791,-0.956,0.014,0.263,-2.012,0.548,-4.139,-1.492,-0.334,-0.139,31.225,-2.491,-6.039
7980.0,0.228,0.603,-0.983,-2.559,12.888,19.32,-1.005,0.137,0.048,7.46,3.922,0.299,-0.974,-0.064,0.257,-0.625,1.957,-4.225,-1.45,-0.364,-0.121,51.329,-2.764,-10.627
8000.0,0.228,0.561,-0.985,2.862,-10.144,15.744,-1.024,0.143,0.052,4.082,6.194,-0.534,-0.985,-0.107,0.251,7.989,1.173,-3.11,-1.439,-0.224,-0.052,51.677,-1.735,-16.893
8020.0,0.236,0.511,-0.996,12.073,-34.72,10.498,-1.017,0.115,0.034,7.257,4.33,0.615,-0.983,-0.051,0.225,18.195,-0.141,-1.916,-1.433,-0.159,-0.074,39.162,-5.175,-21.963
8040.0,0.239,0.476,-1.024,26.054,-59.637,6.973,-1.006,0.089,0.024,6.113,3.04,0.987,-0.995,0.003,0.206,17.644,-2.66,-0.354,-1.421,-0.126,-0.076,37.447,-7.054,-22.359
8060.0,0.224,0.458,-1.027,42.025,-80.611,4.169,-1.012,0.091,0.028,6.3,2.94,2.73,-1.014,0.037,0.207,12.619,-6.242,1.282,-1.426,-0.151,-0.08,26.752,-11.422,-23.811
8080.0,0.2,0.437,-1.023,52.914,-94.956,-0.447,-1.011,0.089,0.03,7.607,1.559,5.528,-0.989,0.012,0.231,8.204,-7.984,0.161,-1.405,-0.182,-0.034,5.535,-21.19,-22.798
8100.0,0.187,0.424,-1.039,60.112,-101.371,-7.198,-1.002,0.084,0.032,4.376,0.28,7.717,-0.965,-0.003,0.26,7.362,-5.719,-0.543,-1.287,-0.2,0.026,-22.575,-22.732,-18.954
8120.0,0.182,0.429,-1.049,60.611,-104.567,-12.251,-1.031,0.116,0.018,6.153,-0.617,8.186,-0.953,-0.022,0.287,7.936,-1.513,-1.38,-1.201,-0.264,0.06,-28.367,-6.939,-15.69
8140.0,0.103,0.405,-1.051,55.36,-109.477,-15.448,-1.026,0.131,0.026,3.927,-1.384,8.072,-0.964,-0.028,0.283,11.124,1.837,-1.618,-1.188,-0.287,0.03,-8.295,13.948,-11.066
8160.0,0.073,0.372,-1.056,55.369,-113.65,-18.535,-1.006,0.121,0.026,4.54,-3.008,8.188,-0.964,-0.005,0.267,11.435,4.286,-1.936,-1.181,-0.295,-0.016,13.023,23.48,-6.356
8180.0,0.04,0.314,-1.083,57.175,-116.936,-24.315,-1.011,0.13,0.027,4.262,-3.415,9.011,-0.974,-0.002,0.257,9.531,5.008,-2.694,-1.157,-0.271,-0.024,31.382,27.051,-1.78
8200.0,0.012,0.298,-1.026,55.725,-114.01,-30.009,-1.006,0.111,0.041,3.115,-4.744,10.318,-0.966,-0.013,0.244,10.473,5.87,-3.628,-1.146,-0.233,-0.048,32.097,26.761,2.173
8220.0,-0.026,0.304,-1.02,55.805,-116.148,-29.527,-1.018,0.138,0.013,6.362,-5.297,11.598,-0.97,-0.01,0.242,12.134,9.126,-4.544,-1.149,-0.237,-0.08,35.236,21.122,4.988
8240.0,-0.053,0.283,-1.065,54.802,-117.305,-30.529,-1.02,0.144,0.023,6.163,-7.265,11.88,-0.989,-0.017,0.236,13.28,9.433,-5.022,-1.152,-0.181,-0.057,44.265,2.011,5.74
8260.0,-0.083,0.287,-1.075,51.541,-115.235,-33.295,-1.009,0.119,0.034,8.027,-8.19,12.309,-0.97,-0.001,0.246,15.541,9.522,-5.869,-1.136,-0.038,-0.008,33.39,-19.458,6.779
8280.0,-0.161,0.261,-1.036,49.912,-119.644,-30.352,-1.024,0.108,0.035,12.077,-8.61,13.893,-0.964,-0.004,0.259,17.597,11.897,-8.249,-1.097,-0.038,-0.002,9.574,-38.181,11.694
8300.0,-0.201,0.206,-1.016,49.951,-131.665,-35.784,-1.029,0.136,0.028,15.273,-10.672,14.742,-0.992,-0.004,0.239,21.614,7.595,-7.98,-1.058,-0.151,0.008,4.917,-48.539,19.306
8320.0,-0.257,0.271,-1.01,49.154,-135.158,-29.984,-0.994,0.169,0.024,16.304,-11.333,14.182,-0.974,0.021,0.206,20.569,7.349,-7.2,-1.053,-0.189,0.003,27.965,-47.369,28.195
8340.0,-0.291,0.223,-1.006,48.522,-137.263,-27.584,-0.98,0.199,0.035,12.937,-9.829,11.535,-0.953,0.025,0.216,9.601,14.485,-8.542,-1.057,-0.175,-0.046,53.916,-51.625,38.906
8360.0,-0.329,0.197,-0.988,49.0,-138.95,-26.74,-0.99,0.218,0.041,7.613,-8.335,10.003,-0.984,0.036,0.223,2.153,13.003,-8.816,-1.002,-0.057,-0.068,61.207,-72.28,51.546
8380.0,-0.361,0.159,-0.968,50.04,-142.338,-27.966,-0.997,0.206,0.05,1.844,-7.301,9.663,-0.983,0.042,0.209,-13.001,13.506,-7.081,-0.895,-0.009,-0.057,48.785,-83.025,63.498
8400.0,-0.385,0.134,-0.908,52.425,-144.836,-29.84,-1.027,0.156,0.053,-0.765,-7.386,9.851,-0.973,-0.015,0.207,-23.28,14.581,-5.53,-0.883,-0.046,-0.06,42.747,-90.73,73.035
8420.0,-0.426,0.125,-0.852,53.475,-148.398,-31.936,-1.006,0.163,0.043,6.499,-5.993,9.028,-0.972,-0.024,0.179,-23.552,17.528,-4.247,-0.881,-0.083,-0.081,44.959,-101.94,78.248
8440.0,-0.433,0.108,-0.794,54.272,-153.218,-32.795,-0.998,0.186,0.025,8.399,-5.98,7.926,-0.998,-0.028,0.16,-20.806,17.764,-4.911,-0.833,-0.062,-0.083,45.406,-110.714,78.948
8460.0,-0.437,0.11,-0.721,54.275,-155.314,-31.122,-0.983,0.179,0.047,6.262,-7.468,8.224,-1.009,-0.006,0.139,-20.114,18.16,-5.102,-0.789,-0.009,-0.054,38.835,-117.529,76.853
8480.0,-0.487,0.096,-0.666,51.237,-155.12,-29.838,-1.007,0.189,0.036,8.14,-6.298,8.508,-1.014,0.046,0.106,-25.026,18.401,-3.768,-0.759,0.011,-0.001,25.416,-118.894,71.04
8500.0,-0.506,0.063,-0.697,42.113,-146.746,-32.04,-0.995,0.256,0.046,2.043,-8.28,7.556,-1.019,-0.025,0.128,-25.866,11.272,-5.88,-0.773,-0.002,0.016,17.536,-111.77,62.411
8520.0,-0.55,0.06,-0.705,33.964,-135.847,-35.341,-0.977,0.281,0.039,-10.598,-5.372,5.508,-0.972,-0.05,0.172,-22.571,10.869,-5.536,-0.835,-0.002,0.006,14.141,-105.625,49.84
8540.0,-0.634,0.075,-0.687,33.245,-127.53,-33.518,-0.998,0.225,0.083,-15.254,-3.354,2.726,-0.984,-0.066,0.135,-17.846,13.805,-4.887,-0.905,0.037,-0.01,11.88,-115.217,35.86
8560.0,-0.657,0.066,-0.612,34.97,-119.737,-29.313,-1.003,0.177,0.089,-13.349,-2.36,1.094,-1.019,-0.076,0.113,-11.164,11.695,-5.165,-0.766,0.056,0.008,11.363,-112.193,24.921
8580.0,-0.702,0.025,-0.554,32.701,-115.616,-29.207,-0.962,0.194,0.079,-11.866,2.493,-1.51,-1.008,-0.062,0.173,-7.274,8.418,-4.286,-0.688,0.038,0.017,8.941,-102.405,10.323
8600.0,-0.766,0.0,-0.498,28.888,-115.139,-30.253,-0.97,0.161,0.066,-9.874,4.916,-4.543,-0.982,-0.06,0.185,-1.798,9.995,-4.388,-0.575,-0.012,0.116,4.329,-88.698,2.208
8620.0,-0.805,-0.038,-0.496,24.551,-114.402,-26.918,-0.963,0.207,0.04,-7.511,7.316,-5.867,-0.997,-0.078,0.131,7.658,12.4,-5.406,-0.584,0.059,0.212,-16.205,-78.064,-1.163
8640.0,-0.789,-0.084,-0.52,20.283,-114.199,-26.978,-1.013,0.263,0.05,-10.357,9.081,-6.835,-1.002,-0.057,0.1,10.745,9.786,-5.646,-0.571,-0.017,0.103,-34.106,-67.134,-2.504
8660.0,-0.781,-0.1,-0.499,20.447,-109.738,-28.438,-1.057,0.209,0.04,-14.436,5.86,-7.0,-1.003,-0.018,0.098,10.013,8.51,-5.112,-0.661,-0.05,0.129,-28.227,-68.047,-11.587
8680.0,-0.697,-0.097,-0.493,18.009,-103.439,-26.279,-1.004,0.127,0.037,-16.186,1.368,-3.867,-0.999,-0.005,0.094,0.421,9.324,-6.211,-0.738,0.001,0.26,-36.054,-88.136,-19.003
8700.0,-0.655,-0.106,-0.467,16.379,-95.944,-25.412,-0.995,0.078,-0.028,0.8,-0.554,1.419,-1.018,-0.059,0.086,-2.231,8.468,-7.115,-0.638,-0.157,0.282,-16.146,-73.127,-22.623
8720.0,-0.65,-0.115,-0.384,16.335,-83.241,-24.679,-1.032,0.138,0.063,1.166,2.498,2.935,-1.024,-0.071,0.083,-0.069,4.584,-5.205,-0.741,-0.053,0.396,13.65,-68.67,-25.2
8740.0,-0.711,-0.136,-0.313,18.776,-72.713,-22.335,-1.022,0.113,0.039,3.757,-4.985,2.165,-1.071,-0.118,0.152,19.99,-7.688,-4.973,-0.586,-0.072,0.345,37.648,-44.764,-22.433
8760.0,-0.799,-0.166,-0.264,22.641,-64.346,-17.866,-0.968,0.171,0.042,4.79,-3.029,-0.539,-0.941,-0.073,0.116,21.836,-4.56,-5.383,-0.61,0.015,0.403,56.419,-29.47,-20.731
8780.0,-0.853,-0.179,-0.262,25.323,-56.055,-13.284,-0.995,0.252,0.065,-1.606,2.644,-4.125,-0.971,-0.032,0.063,20.57,0.861,-4.566,-0.635,0.089,0.458,31.388,-18.741,-19.697
8800.0,-0.968,-0.205,-0.27,25.195,-52.504,-7.925,-1.038,0.239,0.045,-7.84,1.54,-6.16,-1.01,-0.054,0.115,17.723,4.582,-8.581,-0.67,0.107,0.505,2.456,-17.998,-18.497
8820.0,-0.993,-0.191,-0.268,20.433,-49.987,-4.291,-1.016,0.213,0.04,-11.258,-0.179,-5.836,-0.998,-0.058,0.086,19.636,2.412,-9.575,-0.602,0.056,0.537,-13.347,6.073,-16.458
8840.0,-0.932,-0.137,-0.268,17.046,-44.715,-3.941,-1.0,0.147,0.041,-8.306,-0.155,-6.186,-1.027,-0.021,0.049,18.028,2.957,-8.155,-0.583,0.014,0.515,-11.223,17.722,-17.247
8860.0,-0.885,-0.134,-0.267,15.044,-36.605,-3.0,-1.011,0.137,0.043,-4.409,-0.14,-5.912,-1.041,0.004,0.067,7.772,-0.707,-7.494,-0.641,0.025,0.478,-6.574,25.239,-20.912
8880.0,-0.846,-0.123,-0.244,10.378,-28.694,-0.671,-1.007,0.178,0.044,-4.482,0.116,-5.681,-1.012,-0.072,0.068,7.078,-5.946,-7.978,-0.671,0.032,0.423,-9.204,31.312,-26.89
8900.0,-0.823,-0.132,-0.193,4.453,-22.401,1.743,-1.013,0.177,0.039,-7.719,-0.701,-6.127,-1.001,-0.06,0.093,7.993,-5.449,-7.382,-0.663,0.011,0.417,-11.723,37.621,-32.526
8920.0,-0.849,-0.177,-0.174,-0.142,-17.904,0.542,-1.009,0.132,0.024,-9.715,-2.309,-5.806,-1.005,-0.028,0.112,2.215,-5.384,-5.894,-0.688,0.028,0.457,-20.31,41.475,-37.371
8940.0,-0.872,-0.179,-0.192,-1.514,-11.087,0.362,-1.013,0.116,0.032,-7.547,-3.538,-4.589,-1.003,-0.043,0.103,0.134,-5.329,-6.619,-0.737,-0.005,0.526,-28.85,45.823,-39.248
8960.0,-0.879,-0.16,-0.191,-2.635,-1.427,0.897,-1.011,0.128,0.033,-3.023,-3.873,-3.468,-1.005,-0.043,0.082,-7.426,-5.253,-5.968,-0.684,-0.057,0.456,-16.971,52.884,-37.609
8980.0,-0.898,-0.151,-0.148,-5.228,4.994,2.274,-1.013,0.154,0.047,-1.205,-3.998,-4.576,-1.017,-0.078,0.091,-10.767,-7.558,-4.823,-0.709,0.001,0.39,0.582,67.917,-37.593
9000.0,-0.926,-0.147,-0.136,-8.858,8.696,4.379,-1.011,0.161,0.04,-2.981,-4.868,-5.349,-0.999,-0.079,0.086,-10.787,-8.049,-3.176,-0.826,0.057,0.385,-2.171,67.594,-37.313
9020.0,-0.931,-0.15,-0.154,-12.122,12.519,7.157,-1.01,0.141,0.035,-1.55,-4.765,-4.937,-1.001,-0.064,0.09,-8.348,-7.911,-2.941,-0.817,-0.034,0.408,-3.423,57.25,-33.032
9040.0,-0.925,-0.159,-0.163,-13.494,17.67,9.236,-1.014,0.129,0.038,0.897,-5.673,-2.842,-1.015,-0.08,0.088,-7.229,-9.11,-3.748,-0.751,-0.025,0.385,1.135,62.875,-26.425
9060.0,-0.903,-0.15,-0.167,-13.907,23.859,10.669,-1.011,0.141,0.041,2.513,-6.823,-2.217,-1.014,-0.063,0.085,-5.389,-10.625,-3.305,-0.772,0.04,0.327,0.416,64.352,-23.688
9080.0,-0.893,-0.138,-0.201,-16.86,28.664,12.975,-1.009,0.162,0.037,2.805,-7.318,-3.055,-1.016,-0.077,0.138,-5.18,-14.604,-1.381,-0.855,0.054,0.318,-10.84,53.423,-20.877
9100.0,-0.874,-0.142,-0.245,-19.791,34.703,14.351,-1.009,0.163,0.035,1.654,-8.465,-3.685,-0.983,-0.086,0.129,-2.36,-1.914,-1.053,-0.806,-0.019,0.318,-25.495,42.249,-16.26
9120.0,-0.842,-0.122,-0.266,-24.489,41.385,15.402,-1.002,0.125,0.043,-0.136,-10.009,-2.12,-0.985,-0.07,0.116,-0.165,-11.2,-2.165,-0.716,-0.094,0.285,-18.804,43.803,-9.794
9140.0,-0.84,-0.109,-0.262,-28.43,49.844,16.736,-1.003,0.101,0.053,0.172,-10.445,0.042,-1.011,-0.05,0.115,-1.085,-14.688,-5.715,-0.703,-0.026,0.25,-11.785,53.611,-6.312
9160.0,-0.855,-0.099,-0.263,-33.572,56.488,17.822,-1.01,0.133,0.062,1.281,-10.627,1.19,-1.002,-0.054,0.121,-3.278,-15.721,-4.185,-0.767,0.007,0.256,-16.9,51.437,-5.943
9180.0,-0.847,-0.103,-0.29,-39.683,62.833,24.349,-1.002,0.165,0.052,-2.598,-9.692,0.588,-1.014,-0.087,0.112,1.109,-22.313,-4.201,-0.782,-0.034,0.25,-22.994,40.686,-6.613
9200.0,-0.825,-0.101,-0.336,-43.26,65.94,27.37,-1.013,0.19,0.051,-9.465,-9.383,-0.261,-1.026,-0.104,0.115,4.317,-25.092,-3.415,-0.71,-0.07,0.22,-21.575,39.983,-6.568
9220.0,-0.795,-0.066,-0.398,-51.38,75.67,31.08,-1.023,0.157,0.056,-12.025,-10.182,-0.853,-0.999,-0.094,0.142,1.548,-24.417,1.235,-0.635,-0.079,0.195,-14.432,47.303,-5.653
9240.0,-0.808,-0.061,-0.395,-57.082,81.925,34.759,-0.97,0.096,0.067,-10.493,-10.991,-1.594,-0.982,-0.083,0.159,0.391,-24.634,2.969,-0.642,-0.045,0.178,-17.071,55.862,-5.727
9260.0,-0.796,-0.052,-0.398,-59.483,92.781,37.976,-1.008,0.069,0.089,-2.696,-7.45,-0.821,-0.986,-0.07,0.146,0.454,-22.866,3.235,-0.764,0.009,0.155,-42.7,57.266,-5.758
9280.0,-0.782,-0.028,-0.416,-56.28,100.31,41.93,-1.027,0.087,0.088,3.987,-8.554,3.351,-1.022,-0.027,0.11,-8.19,-23.068,3.404,-0.79,-0.082,0.117,-51.901,44.124,-3.241
9300.0,-0.737,-0.019,-0.422,-55.096,104.919,47.196,-1.011,0.153,0.071,4.602,-9.05,6.998,-1.035,-0.079,0.162,-11.196,-28.423,3.906,-0.713,-0.143,0.071,-44.686,37.578,-0.014
9320.0,-0.7,-0.015,-0.429,-59.026,109.264,49.264,-1.004,0.202,0.056,-4.695,-11.668,8.68,-0.966,-0.128,0.2,-9.058,-29.355,6.147,-0.663,-0.135,0.05,-33.451,38.263,0.263
9340.0,-0.698,-0.049,-0.458,-62.566,117.232,45.798,-1.026,0.13,0.098,-13.541,-13.516,8.741,-0.941,-0.154,0.284,4.975,-24.82,7.682,-0.683,-0.065,0.085,-38.561,47.585,-2.496
9360.0,-0.695,-0.055,-0.507,-57.743,121.861,46.034,-1.011,0.088,0.101,-4.377,-16.185,11.248,-0.961,-0.059,0.192,17.641,-24.012,8.222,-0.832,-0.146,0.101,-56.024,51.841,-4.482
9380.0,-0.617,0.004,-0.554,-47.859,130.089,50.509,-0.992,0.133,0.102,3.382,-14.441,11.896,-1.024,-0.04,0.209,8.687,-23.223,4.817,-0.863,-0.479,-0.07,-11.429,48.198,-4.597
9400.0,-0.536,0.052,-0.579,-44.8,140.14,50.33,-0.976,0.197,0.131,7.899,-7.808,9.656,-0.99,-0.078,0.241,8.212,-27.029,5.918,-0.86,-0.474,-0.091,67.829,46.426,-8.265
9420.0,-0.56,0.073,-0.634,-46.614,143.474,45.393,-0.966,0.159,0.142,5.9,-1.141,4.956,-0.925,-0.093,0.287,5.139,-21.13,7.769,-0.864,-0.064,0.005,88.815,56.203,-11.919
9440.0,-0.584,0.115,-0.652,-47.096,148.214,45.403,-0.982,0.089,0.14,14.594,0.243,4.335,-0.909,-0.074,0.306,9.52,-10.78,11.97,-1.001,0.014,-0.042,42.63,48.665,-11.784
9460.0,-0.511,0.17,-0.672,-43.363,154.407,45.762,-0.962,0.206,0.111,15.119,6.454,2.246,-0.947,-0.003,0.27,8.26,-3.92,11.13,-1.07,0.002,-0.107,-2.727,35.786,-6.23
9480.0,-0.449,0.144,-0.71,-41.09,156.24,41.86,-0.968,0.272,0.078,10.756,12.99,-1.733,-1.017,-0.01,0.163,1.89,-3.64,6.65,-1.116,-0.213,-0.116,-15.06,28.714,1.372
9500.0,-0.412,0.168,-0.806,-43.12,153.44,35.28,-1.003,0.204,0.085,-0.832,12.505,-7.495,-1.037,0.004,0.24,-3.142,-16.02,8.415,-1.086,-0.252,-0.058,-7.05,26.184,8.045
9520.0,-0.433,0.244,-0.836,-41.272,151.504,31.12,-1.011,0.176,0.067,-2.995,13.303,-8.105,-0.962,-0.035,0.267,-3.568,-15.581,10.243,-1.099,-0.187,-0.045,-4.936,29.146,10.877
9540.0,-0.423,0.298,-0.847,-36.335,150.28,28.849,-0.986,0.241,0.086,-5.506,15.532,-9.375,-0.933,-0.051,0.287,-0.029,-2.768,11.106,-1.208,-0.164,-0.105,-25.503,29.292,11.747
9560.0,-0.372,0.262,-0.898,-29.881,148.143,25.052,-0.976,0.197,0.081,-10.846,18.936,-13.738,-0.985,-0.023,0.267,3.252,-12.62,10.384,-1.297,-0.177,-0.108,-50.777,21.072,11.003
9580.0,-0.292,0.281,-1.019,-30.161,150.357,21.751,-1.032,0.158,0.061,-11.27,18.952,-16.73,-0.929,0.019,0.198,-1.177,-4.045,6.016,-1.342,-0.329,-0.161,-60.62,10.15,12.32
9600.0,-0.278,0.407,-1.044,-33.11,154.21,21.21,-1.038,0.112,0.044,-10.477,12.725,-14.183,-1.022,-0.015,0.278,-0.859,-3.361,4.703,-1.216,-0.485,-0.158,-24.487,16.455,13.781
9620.0,-0.315,0.415,-0.938,-33.571,146.304,22.041,-1.017,0.06,0.069,-7.971,15.419,-12.428,-0.968,0.055,0.326,-1.301,-10.98,7.48,-1.179,-0.399,-0.093,16.436,29.369,9.472
9640.0,-0.237,0.51,-1.103,-46.473,146.926,33.463,-1.01,0.091,0.047,1.237,16.055,-10.039,-0.9,0.022,0.274,-10.258,4.924,5.077,-1.25,-0.228,-0.037,22.321,33.329,2.71
9660.0,-0.182,0.385,-1.075,-38.01,132.16,29.82,-1.016,0.161,0.0,3.646,13.73,-9.094,-0.957,-0.035,0.241,-6.541,4.591,1.769,-1.288,-0.178,0.009,5.877,22.663,0.797
9680.0,-0.12,0.414,-1.049,-34.306,117.75,22.065,-1.026,0.165,-0.005,-5.389,10.887,-9.625,-0.963,-0.016,0.237,-6.358,4.736,2.017,-1.33,-0.211,-0.052,-7.409,18.36,5.931
9700.0,-0.118,0.451,-0.986,-36.64,111.377,14.554,-1.033,0.131,0.012,-8.161,8.039,-10.87,-0.98,0.022,0.241,-9.932,2.271,3.373,-1.301,-0.184,-0.081,-5.952,13.109,8.748
9720.0,0.07,0.57,-1.074,-64.937,141.26,13.671,-1.019,0.126,0.026,-6.856,5.753,-12.614,-0.985,-0.002,0.247,-10.407,3.411,2.238,-1.286,-0.033,-0.073,-22.084,14.81,8.007
9740.0,0.079,0.551,-1.063,-67.35,145.583,13.388,-0.986,0.139,-0.004,-8.529,6.924,-13.358,-0.962,-0.039,0.254,-6.478,4.082,0.424,-1.286,-0.106,-0.074,-44.062,7.16,5.462
9760.0,0.083,0.491,-0.967,-72.245,144.507,8.833,-1.018,0.064,0.004,-10.231,6.725,-12.193,-0.954,-0.018,0.249,-3.201,5.395,-0.031,-1.227,-0.141,0.03,-56.35,9.056,5.75
9780.0,0.121,0.459,-0.961,-69.018,132.127,-3.291,-1.031,0.013,0.036,-6.686,4.797,-6.241,-0.984,0.023,0.229,-4.205,7.002,-0.519,-1.237,-0.228,0.019,-56.292,18.385,9.139
9800.0,0.187,0.487,-0.954,-63.92,112.858,-6.898,-1.012,0.025,0.031,2.013,3.78,-1.365,-0.992,-0.01,0.227,-5.478,4.829,-2.621,-1.316,-0.227,-0.045,-34.024,22.394,12.81
9820.0,0.215,0.526,-0.958,-64.206,102.861,-0.814,-1.001,0.005,0.012,8.809,5.692,2.111,-0.982,-0.044,0.233,-0.136,4.218,-4.655,-1.396,-0.134,-0.008,-32.251,15.694,7.883
9840.0,0.285,0.583,-0.957,-59.083,80.413,10.728,-1.034,-0.015,0.019,12.752,2.551,11.87,-0.976,-0.05,0.222,14.577,5.53,-7.217,-1.422,-0.229,-0.093,-31.224,-4.301,2.281
9860.0,0.34,0.623,-0.969,-52.797,63.841,13.354,-1.042,-0.017,0.016,16.791,-0.14,18.641,-0.996,-0.066,0.215,34.715,6.612,-9.205,-1.455,-0.201,-0.045,-31.493,-5.81,-0.385
9880.0,0.325,0.645,-0.932,-53.54,54.37,12.101,-1.011,0.04,0.005,22.853,-0.825,20.22,-1.012,-0.09,0.214,48.173,5.58,-9.009,-1.458,-0.261,-0.081,-30.517,-11.268,0.107
9900.0,0.309,0.625,-0.894,-49.506,48.746,5.362,-1.01,0.146,0.003,20.835,-1.202,19.5,-1.009,-0.045,0.198,48.904,3.368,-3.757,-1.439,-0.329,-0.107,-15.346,-7.841,2.612
9920.0,0.326,0.591,-0.904,-36.062,43.165,2.764,-1.02,0.169,-0.01,18.088,-1.605,18.292,-0.991,0.027,0.222,37.436,0.336,1.08,-1.402,-0.379,-0.134,6.187,-6.218,6.256
9940.0,0.349,0.588,-0.924,-15.44,26.877,0.876,-1.013,0.179,-0.007,12.8,-3.096,17.274,-0.958,0.075,0.214,16.256,-0.369,2.997,-1.387,-0.286,-0.11,29.767,-0.334,8.074
9960.0,0.339,0.603,-0.906,10.098,3.381,-3.083,-1.0,0.142,-0.0,14.914,-1.61,13.991,-0.983,0.033,0.213,-0.164,0.021,1.605,-1.368,-0.239,-0.098,43.317,7.895,7.329
9980.0,0.32,0.623,-0.87,27.777,-18.766,-3.817,-1.004,0.115,0.025,18.437,-0.618,12.67,-0.997,-0.02,0.211,-1.532,-1.563,0.351,-1.368,-0.157,-0.085,46.624,11.319,6.954
10000.0,0.318,0.624,-0.867,39.827,-39.923,-0.322,-0.993,0.166,-0.023,19.412,-1.582,12.653,-0.987,-0.073,0.224,5.377,-4.14,0.137,-1.348,-0.148,-0.056,42.599,9.47,7.183
10020.0,0.303,0.589,-0.897,49.649,-58.323,2.401,-1.021,0.177,-0.019,12.272,-0.811,12.157,-0.982,-0.069,0.213,15.489,-3.168,1.831,-1.302,-0.126,-0.036,31.735,6.742,8.079
10040.0,0.283,0.572,-0.906,63.543,-79.034,4.44,-1.017,0.139,-0.022,10.714,-3.765,13.651,-1.008,0.014,0.188,18.942,-2.623,4.419,-1.302,-0.064,-0.027,9.707,1.169,10.842
10060.0,0.256,0.505,-0.921,90.802,-98.764,9.354,-1.008,0.141,-0.02,11.976,-4.878,14.941,-0.998,0.075,0.203,8.941,-6.788,4.782,-1.304,-0.099,-0.025,-15.9,-4.732,12.661
10080.0,0.24,0.563,-0.926,91.887,-109.815,11.121,-1.009,0.121,-0.014,13.753,-5.805,15.369,-0.98,0.054,0.206,1.278,-6.973,2.114,-1.296,-0.214,-0.055,-23.214,-8.021,13.137
10100.0,0.214,0.524,-0.95,88.97,-112.84,6.16,-1.017,0.145,-0.004,16.228,-7.859,17.149,-0.995,-0.009,0.219,1.267,-5.129,0.037,-1.295,-0.224,-0.132,-23.845,-14.658,13.489
10120.0,0.169,0.5,-1.001,91.439,-125.139,-2.663,-1.012,0.231,-0.027,13.867,-10.137,16.731,-0.977,-0.029,0.265,10.64,-4.97,1.68,-1.262,-0.22,-0.13,-24.152,-20.617,8.754
10140.0,0.164,0.464,-0.981,88.524,-117.298,-32.371,-0.998,0.224,-0.008,7.257,-11.797,15.024,-0.937,0.015,0.264,13.002,-1.358,2.222,-1.276,-0.2,-0.092,-17.006,-35.194,3.825
10160.0,0.097,0.403,-1.0,73.122,-104.855,-28.182,-1.006,0.16,0.015,6.445,-12.726,12.532,-0.943,0.048,0.254,8.814,4.676,-0.268,-1.181,-0.211,-0.058,-0.329,-35.689,-0.053
10180.0,0.074,0.415,-1.001,70.012,-103.038,-27.096,-0.999,0.183,0.001,9.912,-11.629,12.333,-0.985,0.093,0.224,2.417,5.383,-0.592,-1.127,-0.23,-0.012,26.914,-25.6,-1.327
10200.0,0.04,0.396,-1.012,68.726,-103.056,-26.528,-0.99,0.225,0.017,9.73,-9.66,10.78,-0.986,0.064,0.227,-6.773,3.485,-1.063,-1.069,-0.209,-0.097,50.729,-21.626,-2.971
10220.0,-0.013,0.357,-1.013,66.905,-103.516,-19.896,-1.0,0.209,0.02,5.247,-10.762,9.231,-0.95,0.038,0.194,-8.454,6.866,-1.718,-1.066,-0.113,-0.111,58.977,-21.213,-5.232
10240.0,-0.066,0.337,-0.99,66.29,-105.381,-13.508,-0.997,0.203,0.025,4.982,-8.878,7.366,-0.968,0.021,0.209,-7.263,10.92,-4.055,-1.031,-0.024,-0.066,49.7,-24.01,-5.46
10260.0,-0.098,0.316,-1.003,59.663,-104.364,-12.53,-0.987,0.204,0.021,8.481,-7.233,4.394,-0.992,0.014,0.232,-4.338,9.901,-4.817,-1.005,0.025,-0.035,23.186,-26.727,-4.214
10280.0,-0.156,0.296,-0.995,57.946,-107.001,-13.102,-0.999,0.196,0.001,8.465,-6.246,2.204,-0.975,0.025,0.211,-2.889,10.836,-6.05,-1.016,-0.032,-0.085,2.986,-39.458,-3.533
10300.0,-0.143,0.313,-1.022,48.591,-105.369,-16.002,-0.989,0.222,0.046,4.049,-6.23,2.378,-0.992,0.019,0.185,-5.474,12.767,-6.849,-0.956,-0.087,-0.082,0.915,-46.247,-3.878
10320.0,-0.176,0.221,-1.014,43.925,-105.178,-18.248,-0.99,0.173,0.04,3.656,-3.433,1.013,-0.995,0.039,0.205,-8.656,10.791,-6.186,-0.914,-0.067,-0.029,5.533,-45.597,-4.171
10340.0,-0.216,0.197,-0.947,44.992,-112.471,-20.717,-1.002,0.195,0.019,4.931,-3.136,1.008,-0.972,0.042,0.199,-17.869,14.347,-5.747,-0.952,-0.04,-0.055,7.769,-42.421,-4.394
10360.0,-0.248,0.218,-0.905,45.581,-121.348,-23.467,-0.988,0.202,0.017,2.805,-2.752,0.439,-0.987,0.02,0.173,-21.702,17.208,-5.805,-0.965,-0.032,-0.034,5.382,-53.306,-5.314
10380.0,-0.284,0.221,-0.906,43.605,-124.831,-25.365,-0.994,0.175,0.022,4.092,-1.407,0.45,-1.017,0.009,0.179,-22.47,14.7,-5.95,-0.903,-0.049,-0.051,10.314,-59.066,-4.717
10400.0,-0.306,0.218,-0.92,39.321,-125.72,-26.444,-1.004,0.169,0.013,8.54,-1.756,1.082,-0.997,0.013,0.166,-24.581,11.902,-5.778,-0.853,-0.053,-0.056,24.483,-56.01,-1.314
10420.0,-0.331,0.181,-0.91,34.88,-125.934,-27.016,-0.985,0.21,0.006,8.951,-0.838,1.805,-0.982,-0.011,0.177,-23.645,15.162,-5.675,-0.904,-0.034,-0.008,41.273,-51.35,3.733
10440.0,-0.35,0.128,-0.855,34.075,-126.964,-29.083,-0.984,0.252,0.001,-0.112,-1.438,1.388,-0.977,-0.051,0.162,-21.562,14.53,-6.03,-0.925,0.004,0.025,40.745,-49.875,9.108
10460.0,-0.379,0.111,-0.785,37.738,-128.321,-30.517,-1.004,0.205,0.007,-4.198,-3.022,0.121,-1.0,-0.021,0.118,-18.942,17.264,-5.236,-0.93,0.077,0.039,30.1,-51.31,14.84
10480.0,-0.434,0.111,-0.765,38.445,-124.761,-30.335,-1.006,0.15,0.019,-1.369,-3.726,0.783,-1.028,0.002,0.115,-21.219,14.373,-4.644,-0.909,0.04,0.019,22.987,-53.307,22.644
10500.0,-0.463,0.097,-0.773,35.81,-123.569,-30.336,-0.998,0.173,0.015,1.511,-3.136,1.698,-1.012,-0.003,0.125,-22.6,11.932,-4.962,-0.93,-0.007,0.055,30.602,-50.21,30.783
10520.0,-0.5,0.083,-0.772,30.81,-122.299,-30.12,-0.994,0.228,0.025,1.278,-2.66,1.451,-0.992,-0.026,0.122,-21.37,12.527,-5.156,-1.049,-0.022,0.03,45.918,-55.083,38.979
10540.0,-0.533,0.06,-0.748,28.481,-121.236,-30.606,-0.997,0.247,0.021,-4.629,-2.315,0.151,-1.004,-0.033,0.101,-15.635,12.681,-5.234,-0.983,0.035,0.004,55.547,-70.086,47.798
10560.0,-0.563,0.017,-0.738,31.015,-116.457,-31.931,-1.016,0.19,-0.003,-10.617,-2.352,-1.271,-1.014,-0.01,0.106,-15.131,11.307,-4.636,-0.977,0.058,0.046,53.429,-70.046,57.081
10580.0,-0.595,0.008,-0.705,35.027,-109.965,-32.683,-1.01,0.121,0.027,-5.296,-5.119,-0.328,-1.002,-0.019,0.137,-15.237,7.136,-5.227,-1.057,0.064,0.181,45.772,-73.139,67.077
10600.0,-0.627,0.015,-0.65,37.289,-105.539,-32.793,-1.001,0.14,0.025,5.544,-5.606,0.217,-0.996,-0.064,0.105,-10.034,8.815,-7.236,-1.073,0.079,0.162,34.35,-89.863,79.677
10620.0,-0.661,0.027,-0.611,37.941,-105.031,-31.517,-0.98,0.217,0.013,6.616,-3.469,-1.672,-1.01,-0.058,0.076,-4.686,10.645,-6.569,-1.046,0.14,0.125,21.338,-104.706,91.892
10640.0,-0.675,0.02,-0.6,36.052,-104.848,-30.855,-0.983,0.239,0.014,1.899,-1.102,-4.79,-1.023,-0.027,0.078,-4.769,6.892,-4.284,-1.094,0.118,0.121,7.289,-114.503,99.67
10660.0,-0.699,0.019,-0.588,33.677,-101.217,-29.6,-0.985,0.223,0.007,-5.552,-1.016,-5.801,-0.992,-0.031,0.085,-4.771,4.52,-4.542,-1.108,0.08,0.146,-1.442,-136.218,106.209
10680.0,-0.711,0.041,-0.582,32.058,-96.846,-26.522,-1.014,0.173,0.017,-9.38,-1.4,-6.09,-0.976,-0.038,0.093,-1.939,5.892,-5.783,-0.974,0.036,0.177,-10.387,-148.905,109.47
10700.0,-0.698,0.012,-0.59,29.82,-90.86,-23.45,-1.007,0.209,0.026,-9.003,-1.536,-4.905,-1.011,-0.024,0.078,-0.158,7.473,-6.692,-0.847,-0.008,0.222,-10.384,-147.606,109.529
10720.0,-0.667,-0.053,-0.546,26.324,-79.63,-23.256,-1.005,0.222,0.013,-15.728,-1.105,-5.484,-1.027,-0.029,0.068,0.497,4.789,-7.327,-0.79,-0.013,0.261,10.927,-138.296,106.44
10740.0,-0.697,-0.042,-0.489,25.483,-72.12,-22.338,-1.028,0.141,0.004,-17.52,-4.414,-2.91,-1.012,-0.009,0.064,0.943,4.107,-6.389,-0.652,0.04,0.259,34.406,-130.364,98.19
10760.0,-0.73,-0.061,-0.447,26.314,-67.072,-18.221,-1.024,0.103,0.011,-13.581,-7.747,-0.67,-1.016,-0.046,0.082,2.156,-0.98,-8.96,-0.526,0.091,0.295,38.468,-114.875,85.038
10780.0,-0.747,-0.112,-0.422,25.379,-63.144,-15.622,-0.986,0.121,0.013,-3.015,-8.463,0.682,-1.009,-0.072,0.05,7.277,-1.017,-8.835,-0.435,0.129,0.313,32.425,-100.508,70.645
10800.0,-0.764,-0.162,-0.4,22.91,-58.32,-14.96,-0.975,0.191,0.016,-2.107,-6.225,-1.024,-1.026,-0.044,0.076,6.965,-2.447,-6.813,-0.364,0.146,0.339,24.503,-86.219,55.907
10820.0,-0.798,-0.205,-0.37,24.331,-52.728,-14.865,-0.978,0.255,0.028,-9.17,-3.647,-3.592,-1.001,-0.023,0.064,4.946,-2.036,-6.24,-0.304,0.155,0.348,20.453,-68.903,41.766
10840.0,-0.842,-0.194,-0.366,27.037,-47.795,-13.727,-0.992,0.227,0.051,-16.257,-1.557,-6.48,-1.012,-0.042,0.072,4.716,-3.444,-7.795,-0.257,0.164,0.33,13.489,-60.326,25.652
10860.0,-0.86,-0.17,-0.38,27.731,-43.256,-9.985,-1.026,0.124,0.051,-13.347,-2.64,-6.044,-1.014,-0.066,0.069,9.58,-5.649,-8.113,-0.146,0.158,0.347,10.054,-45.074,9.632
10880.0,-0.849,-0.159,-0.4,25.202,-35.824,-7.667,-1.014,0.122,0.031,-5.912,-2.702,-3.603,-1.015,-0.046,0.062,7.684,-5.793,-8.016,-0.151,0.229,0.411,9.247,-19.702,-2.619
10900.0,-0.822,-0.155,-0.376,25.863,-25.812,-6.131,-1.002,0.186,0.029,-6.702,-3.205,-2.134,-1.021,-0.062,0.116,7.217,-11.227,-6.792,-0.194,0.24,0.444,7.498,-6.316,-14.595
10920.0,-0.829,-0.145,-0.316,28.365,-18.39,-3.936,-1.004,0.189,0.014,-11.433,-3.832,-1.97,-0.979,-0.077,0.09,14.668,-17.257,-7.398,-0.212,0.27,0.457,9.853,12.585,-23.863
10940.0,-0.837,-0.177,-0.309,28.23,-13.973,-0.699,-1.018,0.155,0.014,-12.316,-4.765,-2.161,-0.992,-0.072,0.083,17.369,-9.029,-6.905,-0.252,0.3,0.484,5.614,21.669,-34.996
10960.0,-0.82,-0.175,-0.317,23.783,-10.012,3.044,-1.02,0.1,0.034,-8.462,-8.407,-1.197,-1.029,-0.054,0.105,17.43,-11.76,-6.807,-0.283,0.322,0.514,-2.546,34.814,-41.639
10980.0,-0.82,-0.162,-0.331,16.801,-2.628,4.339,-1.009,0.097,0.046,-0.313,-9.935,1.159,-0.987,-0.031,0.081,13.298,-13.58,-6.022,-0.313,0.253,0.515,2.8,55.79,-44.94
11000.0,-0.837,-0.16,-0.323,12.676,6.226,5.002,-1.006,0.13,0.043,4.089,-9.95,2.988,-1.006,-0.045,0.115,8.608,-10.15,-6.144,-0.363,0.302,0.529,19.238,71.122,-51.139
11020.0,-0.85,-0.159,-0.311,11.312,12.831,5.594,-1.012,0.16,0.037,3.852,-10.122,3.57,-1.005,-0.081,0.1,9.513,-10.274,-6.369,-0.468,0.387,0.495,1.133,67.394,-54.204
11040.0,-0.859,-0.157,-0.308,9.814,18.59,6.57,-1.024,0.147,0.042,3.024,-12.44,4.182,-1.001,-0.075,0.101,12.37,-10.939,-5.417,-0.428,0.247,0.382,4.427,73.109,-56.328
11060.0,-0.869,-0.156,-0.319,4.856,24.533,8.11,-1.032,0.122,0.044,4.595,-16.016,6.843,-1.007,-0.066,0.091,13.394,-11.403,-3.612,-0.445,0.243,0.401,22.882,85.04,-59.436
11080.0,-0.868,-0.162,-0.334,-3.016,30.195,8.765,-0.982,0.168,0.03,22.954,-12.837,10.443,-1.015,-0.067,0.095,14.817,-12.26,-2.921,-0.515,0.378,0.452,10.703,95.215,-63.122
11100.0,-0.846,-0.163,-0.334,-10.225,36.51,9.048,-0.967,0.213,0.028,31.474,-8.302,11.138,-0.994,-0.067,0.099,16.311,-16.223,-2.684,-0.583,0.378,0.414,-17.962,100.345,-67.05
11120.0,-0.834,-0.158,-0.316,-15.145,42.963,10.188,-1.028,0.209,0.072,4.687,-12.471,7.827,-1.001,-0.058,0.091,17.97,-15.449,0.207,-0.648,0.33,0.33,-42.188,99.901,-71.224
11140.0,-0.844,-0.17,-0.322,-17.61,49.715,10.83,-0.991,0.182,0.087,-0.696,-10.621,6.826,-1.021,-0.051,0.096,15.315,-16.702,-0.178,-0.651,0.172,0.285,-37.941,102.593,-73.452
11160.0,-0.813,-0.141,-0.372,-19.67,55.09,12.74,-1.027,0.128,0.057,-2.844,-15.161,9.667,-1.019,-0.068,0.147,13.39,-20.927,-0.831,-0.667,0.063,0.243,-25.101,108.52,-74.066
11180.0,-0.777,-0.086,-0.385,-27.273,64.449,16.364,-1.001,0.18,0.041,-2.52,-15.61,12.11,-1.019,-0.109,0.16,14.909,-25.197,2.217,-0.699,0.088,0.196,4.158,115.775,-76.488
11200.0,-0.767,-0.085,-0.393,-32.83,71.4,20.44,-0.968,0.204,0.063,-6.042,-12.527,8.084,-0.998,-0.071,0.147,14.874,-25.231,5.67,-0.751,0.2,0.215,-3.37,113.151,-82.311
11220.0,-0.738,-0.102,-0.407,-36.19,77.28,23.31,-0.993,0.253,0.088,-18.694,-10.916,5.507,-1.006,-0.032,0.132,11.662,-25.109,5.966,-0.791,0.169,0.265,-28.751,109.144,-84.944
11240.0,-0.727,-0.089,-0.422,-40.559,87.699,25.289,-0.992,0.209,0.1,-21.482,-9.666,4.006,-1.016,-0.039,0.147,6.219,-28.475,4.649,-0.795,0.061,0.237,-43.541,100.522,-84.7
11260.0,-0.691,-0.03,-0.474,-50.221,92.839,26.758,-0.977,0.179,0.102,-18.055,-11.897,3.892,-0.992,-0.09,0.208,8.44,-28.448,2.844,-0.762,0.022,0.142,-45.56,87.901,-84.703
11280.0,-0.659,-0.006,-0.539,-61.049,99.785,26.978,-0.986,0.197,0.101,-12.298,-8.991,2.313,-0.953,-0.102,0.198,17.082,-24.153,4.598,-0.734,0.07,0.085,-53.003,85.623,-84.871
11300.0,-0.641,-0.005,-0.582,-67.954,107.746,27.333,-1.013,0.211,0.102,-8.778,-8.618,1.717,-0.984,-0.048,0.165,19.385,-19.4,7.697,-0.911,0.158,0.085,-101.536,80.342,-83.965
11320.0,-0.618,-0.034,-0.597,-69.02,119.91,27.72,-1.001,0.201,0.127,-8.953,-9.839,1.616,-1.025,-0.007,0.189,15.563,-22.589,7.105,-0.983,0.06,0.091,-132.186,64.981,-83.875
11340.0,-0.583,0.001,-0.586,-71.443,124.268,28.202,-0.981,0.163,0.11,-6.529,-9.699,2.888,-1.002,0.003,0.213,8.347,-28.112,6.694,-0.926,-0.042,0.038,-144.074,61.929,-81.264
11360.0,-0.583,0.027,-0.598,-79.194,121.681,26.004,-0.971,0.138,0.124,-1.65,-5.756,0.815,-0.957,-0.008,0.264,0.462,-27.499,7.052,-0.915,-0.082,-0.064,-141.727,63.809,-76.972
11380.0,-0.587,0.027,-0.673,-81.047,123.212,20.804,-0.976,0.187,0.123,0.259,-0.695,-2.28,-0.944,-0.034,0.292,-1.624,-19.729,7.635,-0.997,-0.106,-0.131,-114.157,67.656,-72.786
11400.0,-0.537,0.048,-0.742,-79.229,130.656,20.26,-0.979,0.27,0.106,-3.388,1.844,-4.908,-0.949,-0.021,0.246,-4.187,-14.565,9.699,-1.254,-0.086,-0.274,-82.535,44.604,-64.535
11420.0,-0.485,0.073,-0.711,-79.102,136.28,25.924,-0.964,0.205,0.105,-5.362,5.072,-9.757,-0.973,0.002,0.251,-9.178,-13.794,8.056,-1.064,-0.258,-0.333,-30.512,15.469,-39.66
11440.0,-0.426,0.066,-0.715,-88.065,142.566,22.622,-0.959,0.205,0.098,-5.355,9.396,-11.372,-0.98,0.024,0.211,-10.581,-17.482,6.429,-0.919,-0.248,-0.341,10.985,19.506,-12.368
11460.0,-0.452,0.139,-0.741,-93.58,144.143,14.652,-0.979,0.231,0.086,-8.054,12.484,-13.128,-1.009,-0.034,0.223,-11.081,-20.068,2.841,-1.045,-0.203,-0.313,28.926,24.343,8.757
11480.0,-0.44,0.256,-0.718,-87.485,140.56,17.914,-1.01,0.252,0.081,-15.071,13.826,-16.427,-0.993,-0.086,0.238,0.844,-18.85,1.822,-1.151,-0.188,-0.251,29.933,22.207,20.019
11500.0,-0.399,0.227,-0.755,-66.231,132.131,21.247,-0.984,0.24,0.097,-19.394,13.704,-18.345,-0.995,-0.111,0.259,13.808,-18.102,2.643,-1.1,-0.267,-0.181,27.888,33.959,22.622
11520.0,-0.308,0.201,-0.893,-52.747,129.6,23.108,-0.985,0.075,0.1,-14.474,13.659,-13.151,-0.993,-0.021,0.222,15.374,-23.853,12.632,-1.131,-0.221,-0.08,16.6,42.437,18.834
11540.0,-0.28,0.269,-1.021,-52.447,136.602,25.823,-1.009,0.06,0.111,2.684,15.965,-3.258,-0.956,0.155,0.241,-8.197,-20.925,14.558,-1.164,-0.284,-0.026,7.322,47.457,15.823
11560.0,-0.316,0.329,-0.993,-52.044,137.326,30.69,-1.019,0.136,0.064,1.274,13.774,-10.85,-0.982,0.177,0.307,-42.076,-19.577,13.853,-1.304,-0.403,-0.102,-4.62,43.75,11.27
11580.0,-0.323,0.328,-0.943,-47.656,131.205,35.796,-1.031,0.127,0.055,-8.514,12.627,-10.803,-0.917,-0.003,0.34,-49.12,-8.181,6.858,-1.272,-0.364,-0.066,7.423,19.118,5.425
11600.0,-0.275,0.316,-0.979,-43.512,130.615,36.55,-1.041,0.09,0.042,-2.417,6.969,-10.16,-0.926,-0.14,0.288,-32.168,-3.806,5.487,-1.291,-0.311,-0.042,29.166,27.048,6.834
11620.0,-0.204,0.366,-1.028,-35.957,126.945,36.19,-1.016,0.093,0.025,3.632,7.811,-10.333,-0.951,-0.102,0.303,-10.57,7.98,1.19,-1.34,-0.31,-0.013,32.359,16.898,9.857
11640.0,-0.181,0.406,-1.033,-32.674,123.044,35.907,-1.019,0.163,0.064,6.915,7.946,-8.052,-0.983,0.057,0.355,-5.312,4.844,2.633,-1.37,-0.105,-0.008,8.911,10.403,9.057
11660.0,-0.134,0.389,-1.058,-49.109,142.82,31.95,-1.002,0.165,0.018,14.079,8.427,-7.599,-0.916,0.075,0.324,-14.633,4.48,-2.912,-1.451,-0.163,-0.063,-28.208,-15.935,8.236
11680.0,-0.026,0.402,-1.109,-70.621,168.443,31.667,-1.025,0.115,-0.008,2.094,5.452,-9.202,-0.971,-0.036,0.243,-9.703,12.525,-10.04,-1.36,-0.28,0.029,-27.23,-9.73,17.43
11700.0,0.066,0.49,-1.137,-93.463,176.02,31.043,-1.038,0.131,0.051,-7.262,2.093,-7.003,-1.046,-0.064,0.263,5.917,5.425,-8.799,-1.335,-0.362,-0.001,8.467,-0.335,23.183
11720.0,0.128,0.544,-1.056,-99.442,175.49,17.339,-1.01,0.107,0.092,-0.102,1.691,-5.81,-1.016,-0.027,0.266,12.032,1.848,-5.385,-1.471,-0.139,0.039,7.238,0.826,17.758
11740.0,0.139,0.52,-1.08,-89.021,163.806,6.705,-1.006,0.027,0.022,3.532,2.61,-5.709,-0.956,-0.033,0.258,17.485,4.012,-6.362,-1.368,-0.133,0.132,-6.689,-12.006,4.362
11760.0,0.165,0.52,-1.052,-71.255,127.919,5.466,-1.013,0.102,0.038,6.181,4.555,-1.684,-0.966,-0.013,0.277,15.118,7.365,-6.922,-1.279,-0.24,0.151,-0.521,-3.521,2.862
11780.0,0.184,0.578,-0.889,-47.226,98.364,8.375,-1.032,0.112,0.025,7.871,3.338,-0.705,-0.971,0.032,0.265,7.183,5.211,-5.552,-1.277,-0.292,0.149,16.812,5.357,5.204
11800.0,0.19,0.627,-0.828,-37.65,76.097,13.088,-1.016,0.122,0.009,6.057,3.156,-1.12,-0.963,-0.027,0.244,-4.589,4.47,-4.867,-1.344,-0.204,0.112,9.969,-0.004,4.06
11820.0,0.247,0.678,-0.841,-30.161,58.165,13.59,-1.012,0.134,0.019,5.226,1.822,-2.297,-0.975,-0.073,0.251,-9.674,4.97,-5.134,-1.331,-0.106,0.096,-8.918,-1.096,-3.601
11840.0,0.331,0.688,-0.906,-14.177,41.541,10.831,-1.011,0.126,0.026,3.719,1.941,-2.781,-0.994,-0.013,0.252,-7.864,2.479,-4.533,-1.321,-0.132,0.044,-30.309,4.007,-8.461
11860.0,0.373,0.651,-0.918,-6.681,24.879,7.572,-1.018,0.124,0.011,1.605,2.282,-1.987,-0.98,-0.065,0.25,-2.027,3.648,-5.274,-1.318,-0.219,-0.037,-29.69,10.93,-7.111
11880.0,0.386,0.611,-0.894,-5.426,15.517,3.261,-1.01,0.062,0.021,-0.203,0.011,0.373,-0.976,-0.076,0.246,6.577,3.227,-5.33,-1.317,-0.229,-0.07,-15.395,11.058,-0.7
11900.0,0.383,0.593,-0.88,-0.478,7.197,-0.215,-1.004,0.036,0.032,5.25,0.91,2.8,-0.981,-0.038,0.237,10.596,1.523,-4.158,-1.349,-0.179,-0.092,-12.552,3.892,4.891
11920.0,0.372,0.587,-0.874,8.65,-3.72,-0.273,-1.044,0.081,-0.005,11.83,1.05,7.0,-0.993,-0.001,0.236,10.498,-2.292,-3.837,-1.329,-0.155,-0.105,-25.382,0.511,6.163
11940.0,0.377,0.57,-0.87,15.132,-16.409,1.23,-1.014,0.09,0.023,9.237,-3.098,8.206,-0.993,-0.008,0.233,8.81,-14.416,-4.193,-1.336,-0.157,-0.107,-37.271,-0.037,2.116
11960.0,0.378,0.544,-0.87,22.512,-27.354,1.041,-1.01,0.098,0.004,9.344,-3.054,9.073,-0.987,-0.021,0.228,8.416,-2.13,-4.187,-1.339,-0.204,-0.149,-56.576,-5.328,-3.478
11980.0,0.37,0.536,-0.886,33.26,-39.29,-0.096,-1.028,0.144,-0.007,6.312,-6.363,11.198,-0.977,-0.031,0.236,7.024,-2.567,-3.097,-1.312,-0.275,-0.159,-59.812,-6.469,-7.453
12000.0,0.361,0.539,-0.891,48.183,-54.558,0.664,-1.018,0.137,0.019,1.974,-7.027,10.66,-0.975,-0.042,0.242,6.79,-2.819,-2.095,-1.273,-0.294,-0.142,-44.014,-9.78,-8.466
12020.0,0.377,0.587,-0.87,67.061,-74.457,2.22,-1.005,0.107,0.022,4.255,-8.676,9.593,-0.975,-0.03,0.254,5.954,-2.11,-1.232,-1.199,-0.26,-0.14,-35.234,-7.993,-6.166
12040.0,0.304,0.507,-0.933,80.66,-92.595,2.297,-1.017,0.108,0.031,1.389,-8.01,10.395,-0.991,-0.042,0.247,5.413,-3.191,-0.556,-1.145,-0.357,-0.172,-26.63,-1.115,-6.738
12060.0,0.277,0.494,-0.943,90.296,-110.18,0.703,-1.017,0.11,0.039,1.959,-9.627,10.961,-0.963,-0.028,0.249,6.19,-2.29,0.415,-1.155,-0.39,-0.207,-8.809,6.57,-11.198
12080.0,0.189,0.409,-0.974,99.478,-123.507,0.837,-0.988,0.123,0.021,3.141,-8.42,10.426,-0.968,0.005,0.23,2.625,0.264,0.18,-1.184,-0.269,-0.173,7.725,5.562,-13.092
12100.0,0.228,0.454,-0.963,86.736,-119.053,-0.144,-1.007,0.122,0.029,1.677,-9.299,10.408,-0.997,0.003,0.207,-1.34,-0.716,-0.253,-1.181,-0.184,-0.162,13.65,1.4,-13.65
12120.0,0.232,0.464,-0.975,74.092,-90.684,-6.322,-1.007,0.124,0.042,1.002,-9.982,10.747,-0.99,-0.016,0.219,-2.302,-3.912,-0.06,-1.18,-0.156,-0.145,21.003,0.133,-12.696
12140.0,0.189,0.46,-0.966,62.464,-82.682,-7.756,-1.007,0.138,0.041,3.954,-9.497,9.969,-0.949,-0.02,0.252,-3.736,-0.266,-0.002,-1.167,-0.194,-0.21,17.477,-6.994,-11.06
12160.0,0.124,0.398,-0.984,59.008,-85.933,-0.344,-1.01,0.162,0.054,2.378,-9.194,10.158,-0.982,-0.024,0.24,-4.325,1.096,-0.161,-1.118,-0.231,-0.229,21.98,-13.93,-8.33
12180.0,0.063,0.345,-0.981,52.5,-85.68,1.75,-0.998,0.143,0.043,0.076,-9.249,10.264,-0.98,-0.029,0.253,-3.49,0.326,-0.563,-1.121,-0.023,-0.176,22.724,-18.977,-8.33
12200.0,0.017,0.316,-0.955,52.707,-99.449,-1.659,-1.026,0.142,0.043,0.413,-9.567,10.682,-0.956,-0.038,0.236,-2.761,2.797,-1.92,-1.145,-0.117,-0.12,3.435,-32.17,-10.007
12220.0,-0.006,0.304,-0.978,53.51,-104.667,-7.051,-1.022,0.19,0.036,2.347,-10.449,10.208,-0.966,-0.037,0.23,-2.5,4.68,-2.72,-1.13,-0.254,-0.149,0.459,-38.351,-13.604
12240.0,-0.023,0.254,-1.041,54.136,-105.38,-11.932,-0.978,0.197,0.032,0.231,-10.449,7.71,-0.967,-0.007,0.284,1.161,5.834,-2.526,-1.094,-0.244,-0.141,12.116,-40.773,-17.236
12260.0,-0.043,0.246,-1.039,52.775,-106.59,-15.404,-0.986,0.163,0.059,-1.715,-7.529,6.37,-0.982,0.041,0.199,0.443,13.251,-3.734,-0.998,-0.171,-0.131,29.377,-33.881,-19.886
12280.0,-0.084,0.232,-1.035,51.31,-114.075,-15.202,-1.01,0.15,0.067,-2.22,-7.131,7.683,-1.01,0.003,0.202,-4.886,12.091,-4.607,-0.998,-0.125,-0.105,36.82,-27.86,-21.63
12300.0,-0.127,0.22,-1.026,51.153,-120.181,-14.639,-1.009,0.144,0.066,0.781,-6.788,8.473,-0.968,-0.005,0.205,-7.938,9.986,-4.008,-1.043,-0.203,-0.124,27.224,-30.819,-22.086
12320.0,-0.168,0.188,-0.989,52.131,-121.24,-16.183,-1.0,0.15,0.07,2.528,-4.926,7.833,-1.026,-0.049,0.247,3.655,1.256,-5.408,-1.089,-0.251,-0.165,36.47,-35.7,-23.45
12340.0,-0.212,0.156,-0.949,53.807,-123.105,-20.256,-1.009,0.182,0.071,0.499,-4.13,6.642,-0.909,-0.036,0.202,-4.304,12.269,-5.468,-0.986,-0.137,-0.144,53.869,-35.874,-24.47
12360.0,-0.26,0.14,-0.948,53.792,-124.447,-25.083,-1.003,0.197,0.052,-2.104,-3.049,5.566,-0.927,-0.03,0.233,-15.995,15.189,-4.996,-0.947,-0.082,-0.112,58.103,-36.352,-22.534
12380.0,-0.321,0.139,-0.969,50.473,-124.187,-29.327,-0.98,0.219,0.035,-6.226,-2.137,4.741,-0.95,-0.006,0.231,-23.834,19.673,-5.461,-0.946,-0.173,-0.117,55.003,-42.492,-18.803
12400.0,-0.349,0.157,-0.954,46.809,-124.749,-28.591,-0.997,0.221,0.043,-12.621,-1.665,3.98,-1.044,0.045,0.216,-24.893,17.387,-6.09,-0.956,-0.189,-0.077,56.786,-48.372,-14.142
12420.0,-0.382,0.137,-0.917,42.047,-125.186,-28.493,-1.025,0.163,0.065,-11.19,-1.983,4.347,-1.033,-0.047,0.11,-22.119,17.945,-6.697,-0.944,-0.175,-0.071,68.69,-49.903,-9.042
12440.0,-0.424,0.074,-0.886,37.236,-125.661,-31.124,-1.017,0.162,0.06,-9.405,-2.463,6.773,-1.023,-0.05,0.136,-13.963,11.808,-6.652,-0.883,-0.079,-0.039,79.006,-49.91,-2.827
12460.0,-0.453,0.062,-0.852,34.971,-126.058,-33.264,-0.992,0.18,0.053,-11.68,-1.684,7.712,-0.99,-0.047,0.137,-13.678,13.401,-4.842,-0.805,-0.104,0.019,73.72,-51.394,4.677
12480.0,-0.482,0.061,-0.83,32.929,-124.81,-35.146,-0.989,0.155,0.063,-12.993,-1.219,7.121,-0.989,-0.047,0.144,-15.726,15.356,-3.881,-0.737,-0.2,0.029,69.458,-49.701,8.094
12500.0,-0.517,0.053,-0.815,30.971,-121.379,-35.267,-1.009,0.142,0.062,-7.608,-2.056,6.939,-1.0,-0.024,0.186,-20.268,14.16,-4.811,-0.724,-0.198,0.042,72.617,-37.508,9.339
12520.0,-0.553,0.026,-0.795,29.999,-118.171,-34.917,-0.987,0.165,0.071,-3.702,-2.332,5.913,-0.999,-0.02,0.175,-21.2,13.389,-5.005,-0.818,-0.105,0.083,72.732,-27.189,10.21
12540.0,-0.583,0.001,-0.76,29.797,-115.674,-35.25,-0.971,0.202,0.087,-0.524,2.421,1.763,-0.997,-0.103,0.151,-15.78,13.696,-6.008,-0.835,-0.032,0.115,51.204,-40.491,8.724
12560.0,-0.619,-0.03,-0.712,30.961,-114.625,-34.866,-0.986,0.246,0.093,-0.434,5.819,-2.214,-0.985,-0.125,0.134,-2.165,15.113,-6.135,-0.723,-0.144,0.107,45.393,-45.766,8.376
12580.0,-0.656,-0.039,-0.676,33.924,-116.322,-34.485,-1.009,0.233,0.057,-4.406,8.423,-5.356,-0.982,-0.091,0.116,6.705,16.982,-4.452,-0.66,-0.164,0.128,53.102,-39.852,7.422
12600.0,-0.681,-0.028,-0.654,36.053,-116.656,-32.147,-0.987,0.241,0.041,-10.21,10.039,-6.687,-0.997,-0.04,0.113,8.036,18.528,-4.191,-0.73,-0.033,0.173,49.612,-36.996,7.629
12620.0,-0.686,-0.043,-0.629,35.091,-115.821,-29.462,-0.989,0.195,0.043,-11.551,8.88,-8.984,-1.009,0.004,0.124,2.114,18.343,-6.582,-0.756,-0.015,0.191,32.439,-42.441,9.089
12640.0,-0.694,-0.081,-0.597,31.848,-115.96,-29.963,-0.978,0.185,0.047,-10.15,12.46,-11.2,-1.01,-0.015,0.139,-0.806,16.163,-8.518,-0.735,-0.068,0.196,28.222,-42.49,12.478
12660.0,-0.679,-0.08,-0.571,31.821,-115.44,-31.817,-1.032,0.236,0.055,-13.37,14.56,-9.17,-1.011,-0.068,0.076,0.444,15.847,-8.528,-0.741,-0.08,0.228,28.35,-39.55,17.15
12680.0,-0.702,-0.075,-0.553,33.043,-118.37,-26.918,-1.032,0.207,0.048,-21.009,12.62,-9.559,-1.028,-0.048,0.043,-1.08,14.163,-6.365,-0.747,-0.063,0.185,33.844,-27.022,22.361
12700.0,-0.744,-0.114,-0.537,36.325,-114.098,-24.813,-1.011,0.142,0.034,-24.029,10.489,-9.026,-1.014,-0.042,0.085,-5.358,9.87,-5.333,-0.814,0.034,0.209,31.15,-28.14,24.99
12720.0,-0.755,-0.116,-0.509,36.819,-108.51,-19.937,-0.971,0.096,0.011,-20.23,12.532,-9.589,-0.977,-0.09,0.107,-4.659,11.16,-5.813,-0.828,-0.007,0.251,11.961,-41.488,29.403
12740.0,-0.788,-0.161,-0.47,33.981,-102.16,-19.496,-0.978,0.147,0.026,-16.782,14.678,-10.552,-0.99,-0.091,0.105,0.103,14.517,-6.992,-0.783,-0.092,0.218,19.88,-38.815,35.643
12760.0,-0.804,-0.163,-0.439,32.7,-106.3,-15.601,-1.01,0.193,0.034,-17.038,16.198,-9.982,-1.012,-0.093,0.073,5.854,14.463,-7.56,-0.76,-0.076,0.252,27.826,-37.082,38.92
12780.0,-0.795,-0.151,-0.381,30.465,-101.293,-11.983,-1.028,0.168,0.005,-20.748,14.181,-9.444,-1.002,-0.104,0.061,12.997,11.908,-7.567,-0.765,-0.041,0.25,25.481,-30.941,39.381
12800.0,-0.814,-0.179,-0.348,33.685,-95.499,-10.064,-1.029,0.134,0.003,-22.986,11.426,-7.685,-0.999,-0.118,0.07,22.191,8.457,-7.601,-0.8,0.023,0.265,17.973,-31.644,38.248
12820.0,-0.849,-0.186,-0.322,35.629,-96.66,-5.614,-1.019,0.101,-0.026,-18.061,7.633,-7.29,-1.011,-0.118,0.078,32.231,-0.069,-7.352,-0.761,0.04,0.357,5.684,-37.746,36.352
12840.0,-0.826,-0.206,-0.286,36.815,-93.003,-3.478,-0.975,0.112,-0.037,-11.439,7.445,-9.317,-0.894,-0.046,0.086,18.62,4.97,-7.42,-0.736,0.014,0.417,-11.549,-38.187,36.503
12860.0,-0.809,-0.195,-0.271,34.76,-86.241,-2.878,-0.985,0.214,0.045,-10.855,13.342,-10.065,-1.044,-0.037,0.102,23.45,16.38,-9.66,-0.75,-0.074,0.415,-12.717,-35.123,36.025
12880.0,-0.803,-0.163,-0.24,32.691,-81.756,-2.806,-1.095,0.117,0.003,-6.923,10.124,-8.723,-1.056,-0.023,-0.08,15.894,11.167,-8.936,-0.802,-0.082,0.384,3.022,-30.761,32.19
12900.0,-0.79,-0.124,-0.184,31.64,-74.13,-1.75,-1.097,0.056,-0.023,-3.776,3.287,-3.794,-1.064,-0.005,-0.041,2.873,6.441,-6.08,-0.881,0.017,0.395,6.454,-29.887,25.369
12920.0,-0.8,-0.112,-0.155,33.131,-67.068,0.874,-1.023,0.062,-0.03,-1.552,-1.399,1.454,-1.013,-0.095,0.004,-4.346,-0.791,-4.282,-0.892,0.012,0.442,-4.24,-36.045,20.685
12940.0,-0.821,-0.122,-0.152,31.004,-57.526,3.236,-0.992,0.083,-0.036,2.458,-3.352,2.835,-1.002,-0.111,0.037,1.164,-4.396,-2.668,-0.847,-0.076,0.451,-6.439,-37.938,19.539
12960.0,-0.853,-0.163,-0.168,25.669,-44.02,5.083,-1.004,0.101,-0.03,7.77,-4.542,3.671,-0.974,-0.117,0.065,4.2,0.84,-2.94,-0.8,-0.087,0.435,12.231,-23.011,18.963
12980.0,-0.892,-0.187,-0.146,18.952,-34.46,5.715,-1.026,0.127,-0.027,10.534,-6.868,4.131,-0.998,-0.081,0.057,3.632,1.709,-2.564,-0.819,0.023,0.429,16.417,-11.912,15.143
13000.0,-0.922,-0.215,-0.095,16.181,-26.528,4.572,-1.012,0.143,-0.022,10.078,-8.077,1.898,-1.021,-0.044,0.03,0.488,0.798,-2.562,-0.856,0.081,0.424,8.482,-11.014,9.899
13020.0,-0.949,-0.208,-0.059,13.173,-22.31,3.882,-0.987,0.136,-0.015,9.049,-7.984,-1.27,-1.016,-0.06,0.02,-0.658,-0.939,-2.95,-0.851,0.069,0.431,-10.251,-14.555,8.046
13040.0,-0.958,-0.189,-0.072,9.098,-17.239,4.69,-0.995,0.159,0.029,11.523,-3.987,-4.093,-1.036,-0.111,0.055,8.591,-7.212,-1.611,-0.746,-0.071,0.405,0.718,-5.91,8.598
13060.0,-0.944,-0.159,-0.091,5.056,-9.764,6.836,-1.025,0.171,0.02,12.701,-3.348,-4.239,-0.981,-0.122,-0.004,10.464,-17.868,-0.192,-0.7,-0.039,0.385,12.162,9.688,7.838
13080.0,-0.915,-0.146,-0.089,2.612,-0.782,10.745,-1.027,0.121,-0.029,7.257,-4.059,-3.142,-1.0,-0.097,0.019,11.116,-14.077,0.167,-0.849,0.055,0.368,13.818,11.54,1.226
13100.0,-0.884,-0.154,-0.078,1.123,8.046,13.965,-1.019,0.133,-0.019,-0.431,-7.907,0.948,-1.008,-0.089,0.03,9.982,-10.998,-0.334,-0.852,-0.007,0.345,10.544,7.177,-4.225
13120.0,-0.862,-0.18,-0.076,-1.283,17.107,15.479,-1.017,0.096,-0.023,-0.047,-10.793,2.207,-1.003,-0.092,0.028,6.952,-9.665,-1.688,-0.768,-0.023,0.332,23.255,14.548,-7.404
13140.0,-0.86,-0.179,-0.101,-4.972,27.619,15.928,-1.026,0.092,-0.024,3.891,-13.548,3.419,-1.0,-0.083,0.043,4.578,-8.976,-1.827,-0.711,-0.003,0.297,25.162,24.64,-9.509
13160.0,-0.872,-0.175,-0.131,-8.784,39.788,17.04,-1.025,0.11,-0.02,6.093,-16.633,5.711,-0.994,-0.073,0.065,1.583,-9.527,-1.0,-0.701,0.059,0.279,14.63,38.614,-12.543
13180.0,-0.893,-0.171,-0.119,-12.479,47.594,18.735,-1.018,0.143,-0.002,6.394,-18.97,7.977,-1.013,-0.089,0.059,1.703,-9.511,-1.028,-0.774,0.074,0.273,-8.797,34.065,-15.538
13200.0,-0.9,-0.154,-0.103,-16.53,54.304,19.446,-0.998,0.136,0.011,5.495,-18.794,8.312,-1.037,-0.098,0.034,8.314,-16.271,-1.051,-0.774,0.002,0.247,-21.468,31.224,-17.609
13220.0,-0.895,-0.123,-0.11,-20.087,62.291,20.33,-1.011,0.111,0.028,5.323,-17.509,7.732,-1.019,-0.099,0.036,14.912,-20.47,0.261,-0.769,-0.04,0.236,-21.463,31.927,-18.62
13240.0,-0.899,-0.099,-0.121,-22.849,66.34,23.664,-1.023,0.144,0.028,5.95,-18.55,8.61,-1.004,-0.101,0.051,17.809,-20.593,0.437,-0.759,-0.036,0.225,-13.183,37.735,-19.865
13260.0,-0.915,-0.099,-0.149,-26.525,69.337,26.518,-1.006,0.157,0.032,2.187,-19.343,7.7,-1.003,-0.091,0.063,18.756,-20.562,0.536,-0.741,-0.031,0.229,-10.088,42.7,-21.356
13280.0,-0.921,-0.099,-0.184,-27.179,74.925,27.898,-1.011,0.142,0.042,-1.387,-18.642,7.737,-1.003,-0.051,0.067,15.743,-19.766,1.19,-0.766,-0.014,0.209,-11.845,51.231,-23.003
13300.0,-0.915,-0.082,-0.215,-26.94,81.72,28.958,-1.034,0.072,0.032,-0.69,-19.66,9.212,-1.017,-0.02,0.072,3.74,-21.34,0.373,-0.864,0.004,0.195,-13.77,48.657,-26.16
13320.0,-0.894,-0.079,-0.233,-26.292,84.44,30.168,-1.034,0.071,0.038,7.619,-24.682,12.621,-1.016,-0.025,0.055,-7.263,-25.416,0.193,-0.829,-0.054,0.177,-21.363,42.496,-28.057
13340.0,-0.863,-0.082,-0.235,-27.17,88.713,30.189,-1.011,0.141,0.059,13.416,-25.562,16.627,-1.013,-0.022,0.048,-17.148,-27.804,3.014,-0.784,-0.087,0.169,-10.682,44.325,-28.878
13360.0,-0.852,-0.071,-0.265,-29.088,93.894,27.764,-1.007,0.151,0.05,7.985,-27.765,19.645,-1.027,-0.04,0.086,-23.457,-30.585,5.343,-0.74,-0.045,0.17,-6.546,51.367,-29.384
13380.0,-0.822,-0.069,-0.319,-31.999,100.468,25.049,-1.009,0.142,0.089,2.07,-29.551,21.008,-0.983,-0.073,0.112,-21.467,-29.478,7.021,-0.748,-0.032,0.152,-12.253,57.12,-29.391
13400.0,-0.794,-0.067,-0.345,-33.175,104.596,24.193,-0.999,0.089,0.089,9.164,-28.369,22.051,-0.987,-0.081,0.149,-14.923,-27.481,7.181,-0.803,-0.029,0.121,-17.089,56.422,-30.078
13420.0,-0.757,-0.065,-0.429,-30.839,107.67,23.949,-0.997,0.132,0.1,14.542,-25.864,22.764,-1.003,-0.099,0.195,-9.292,-29.774,6.969,-0.84,-0.047,0.13,-30.316,48.979,-29.642
13440.0,-0.724,-0.021,-0.512,-30.515,114.543,25.115,-0.987,0.252,0.103,12.247,-27.038,23.206,-0.983,-0.129,0.217,-4.213,-29.797,7.54,-0.821,-0.058,0.128,-37.04,45.115,-27.102
13460.0,-0.713,0.01,-0.521,-31.467,120.983,26.5,-0.978,0.253,0.112,4.307,-26.518,22.02,-0.948,-0.114,0.219,-2.163,-27.525,10.551,-0.8,-0.062,0.1,-41.144,47.924,-24.14
13480.0,-0.728,0.031,-0.52,-33.053,125.309,26.075,-0.986,0.204,0.13,3.072,-24.764,19.788,-0.948,-0.046,0.214,-2.621,-22.042,10.801,-0.868,-0.082,0.064,-46.69,46.83,-21.91
13500.0,-0.736,0.057,-0.569,-34.388,127.323,26.794,-0.989,0.192,0.14,7.58,-22.858,17.192,-1.004,-0.069,0.225,2.147,-24.046,8.152,-0.889,-0.078,0.048,-47.156,42.904,-20.382
13520.0,-0.716,0.067,-0.625,-34.77,125.459,27.433,-0.966,0.22,0.168,12.703,-20.439,14.903,-0.957,-0.074,0.238,1.208,-17.69,7.823,-0.853,-0.042,0.03,-60.004,32.144,-19.012
13540.0,-0.668,0.082,-0.695,-33.54,121.75,28.826,-0.942,0.22,0.154,15.916,-14.85,12.328,-0.948,-0.075,0.246,5.852,-11.977,7.563,-0.731,-0.143,0.001,-68.15,30.522,-15.075
13560.0,-0.642,0.096,-0.736,-33.851,122.558,29.322,-0.943,0.285,0.144,13.711,-6.087,9.715,-0.985,-0.083,0.164,14.06,-13.19,8.146,-0.732,-0.127,0.026,-67.959,36.732,-10.235
13580.0,-0.603,0.075,-0.733,-38.05,134.219,23.527,-0.98,0.29,0.148,6.31,-3.893,5.415,-1.024,-0.031,0.159,11.444,-13.843,8.726,-0.794,-0.151,0.033,-63.414,42.832,-5.466
13600.0,-0.588,0.1,-0.657,-41.384,135.028,22.031,-0.972,0.268,0.126,7.109,-0.443,0.412,-1.045,-0.015,0.155,5.327,-21.248,10.983,-0.844,-0.27,-0.056,-32.59,47.251,-4.9
13620.0,-0.529,0.105,-0.65,-45.915,128.607,17.759,-0.974,0.256,0.128,5.027,3.273,-1.908,-0.977,-0.004,0.193,0.318,-17.316,11.753,-0.873,-0.258,-0.077,13.077,42.158,-7.663
13640.0,-0.49,0.144,-0.749,-49.04,127.079,16.747,-0.982,0.259,0.131,-3.008,5.695,-2.38,-0.98,-0.01,0.241,-3.459,-19.192,11.55,-0.87,-0.177,-0.033,25.713,40.701,-11.934
13660.0,-0.453,0.205,-0.77,-51.481,131.484,18.042,-0.986,0.257,0.121,-7.068,6.648,-4.013,-0.957,-0.035,0.228,-5.217,-22.025,11.56,-0.902,-0.109,-0.013,24.031,43.602,-11.506
13680.0,-0.397,0.207,-0.774,-48.88,132.86,20.829,-0.99,0.218,0.126,-4.604,7.103,-7.889,-0.999,-0.018,0.206,-4.099,-14.857,11.988,-1.034,-0.095,-0.095,11.731,42.118,-5.619
13700.0,-0.356,0.178,-0.821,-44.888,132.86,22.116,-0.97,0.233,0.147,2.714,10.147,-8.842,-1.047,-0.021,0.236,-5.581,-0.624,12.128,-1.115,-0.114,-0.122,-1.361,28.178,-3.355
13720.0,-0.287,0.204,-0.912,-44.938,136.794,19.005,-0.961,0.273,0.116,-3.501,14.556,-9.475,-0.939,-0.004,0.292,-1.892,-18.932,13.064,-1.133,-0.09,-0.106,-27.647,19.48,-1.341
13740.0,-0.301,0.263,-0.94,-44.528,143.92,17.382,-1.008,0.236,0.099,-10.762,15.39,-13.018,-0.871,-0.001,0.31,0.408,-9.539,7.867,-1.128,-0.158,-0.118,-40.84,18.548,3.517
13760.0,-0.297,0.278,-0.92,-42.618,145.107,17.841,-1.01,0.285,0.128,-11.359,13.952,-15.102,-0.997,0.025,0.251,2.315,-0.729,6.93,-1.151,-0.332,-0.141,-33.107,22.904,10.204
13780.0,-0.232,0.266,-0.971,-39.148,140.901,17.92,-0.97,0.308,0.104,-11.447,15.164,-19.283,-1.005,0.083,0.189,-6.966,-4.595,4.27,-1.249,-0.328,-0.16,-5.451,24.12,13.834
13800.0,-0.19,0.27,-1.013,-40.49,139.46,15.904,-1.002,0.155,0.071,-14.741,16.569,-21.694,-1.013,0.065,0.247,-18.214,-7.548,4.338,-1.307,-0.26,-0.198,0.545,16.806,14.445
13820.0,-0.185,0.332,-1.066,-41.813,136.299,14.463,-1.04,0.148,0.06,-6.968,10.549,-15.757,-0.973,0.018,0.269,-17.377,-6.876,1.858,-1.287,-0.157,-0.13,-11.299,10.782,13.784
13840.0,-0.154,0.378,-1.103,-39.959,131.607,15.538,-1.012,0.191,0.095,-9.977,9.195,-15.509,-0.96,-0.024,0.303,-11.472,-5.284,-1.582,-1.236,-0.152,-0.094,-43.588,11.365,14.466
13860.0,-0.114,0.361,-1.075,-36.813,126.341,15.276,-1.004,0.162,0.066,-5.782,9.75,-16.436,-0.914,-0.082,0.283,-1.367,-0.269,-4.252,-1.251,-0.294,-0.145,-43.267,17.537,16.929
13880.0,-0.042,0.363,-1.082,-41.336,131.312,15.24,-1.036,0.122,0.045,-5.415,5.64,-15.866,-0.959,-0.065,0.233,8.575,2.551,-4.283,-1.352,-0.274,-0.114,-30.688,18.428,16.225
13900.0,-0.007,0.33,-1.07,-43.734,125.433,13.959,-1.036,0.108,0.098,-3.216,2.557,-11.333,-0.997,0.017,0.243,5.668,0.073,-2.432,-1.409,-0.138,-0.021,-37.813,12.628,10.896
13920.0,0.05,0.358,-1.112,-46.793,131.865,10.468,-1.004,0.13,0.049,3.07,1.213,-7.631,-0.984,0.015,0.244,3.549,0.888,-4.129,-1.399,-0.129,-0.058,-76.347,7.343,6.847
13940.0,0.056,0.416,-1.094,-46.836,132.186,4.746,-0.993,0.101,0.081,7.965,3.77,-7.072,-0.981,-0.004,0.245,6.615,2.642,-6.093,-1.437,-0.323,-0.175,-67.385,8.627,7.064
13960.0,0.108,0.413,-1.103,-46.363,121.932,6.193,-0.997,0.108,0.067,10.686,2.117,-4.35,-0.976,-0.01,0.249,11.446,2.717,-7.227,-1.498,-0.377,-0.179,-31.345,-0.321,11.54
13980.0,0.185,0.4,-1.078,-52.756,110.617,15.407,-1.007,0.125,0.085,7.97,2.531,-1.665,-0.986,-0.016,0.234,13.591,2.841,-7.007,-1.5,-0.316,-0.092,-0.426,0.186,12.091
14000.0,0.275,0.405,-0.989,-53.315,102.522,18.564,-1.03,0.098,0.07,10.622,0.524,1.244,-0.993,0.003,0.218,10.073,1.702,-5.197,-1.541,-0.209,-0.073,8.705,6.673,9.349
14020.0,0.246,0.448,-1.011,-52.132,92.026,19.603,-0.989,0.162,0.09,11.602,2.227,2.415,-0.987,0.007,0.221,1.858,-1.096,-3.79,-1.519,-0.25,-0.122,11.018,9.521,6.264
14040.0,0.253,0.519,-1.02,-41.997,72.616,21.86,-1.009,0.136,0.075,13.168,2.77,1.719,-0.981,-0.03,0.234,2.199,-0.998,-3.955,-1.493,-0.345,-0.083,8.148,3.074,4.502
14060.0,0.273,0.558,-1.005,-29.448,51.236,27.053,-1.014,0.135,0.036,7.762,0.959,4.136,-0.977,-0.03,0.241,5.215,-0.736,-3.903,-1.418,-0.265,-0.007,15.852,9.043,2.17
14080.0,0.294,0.555,-0.991,-12.683,22.646,35.481,-1.01,0.137,0.068,5.093,0.199,6.158,-0.976,-0.021,0.24,7.054,-0.265,-3.254,-1.45,-0.183,-0.021,-2.599,12.379,-1.102
14100.0,0.29,0.527,-0.988,4.867,-9.408,43.284,-0.989,0.14,0.094,12.652,3.024,4.156,-0.98,-0.013,0.232,6.484,0.438,-1.997,-1.435,-0.201,-0.1,-10.338,12.719,-6.345
14120.0,0.293,0.5,-0.992,21.924,-39.01,43.283,-0.991,0.16,0.064,14.973,4.118,1.755,-0.993,0.008,0.224,2.369,-0.232,-0.776,-1.411,-0.209,-0.175,-16.045,7.861,-11.563
14140.0,0.316,0.481,-1.019,42.646,-67.438,39.676,-1.019,0.163,0.061,10.084,3.512,2.176,-0.999,-0.001,0.212,0.937,-3.013,-0.196,-1.408,-0.162,-0.219,-25.543,1.858,-17.214
14160.0,0.323,0.443,-1.04,73.357,-95.427,32.339,-1.001,0.139,0.038,6.428,3.568,3.493,-1.0,-0.031,0.209,1.599,-5.663,0.222,-1.347,-0.299,-0.135,-34.022,-6.561,-15.317
