Timestamp,AccelX,AccelY,AccelZ,GyroX,GyroY,GyroZ
1743895587.53879,-0.1239520013332367,0.18641600012779236,1.0086959600448608,0.14000000059604645,-2.450000047683716,-0.8399999737739563
1743895587.55879,-0.12590399384498596,0.18934400379657745,1.0116239786148071,0.0,-2.450000047683716,-0.8399999737739563
1743895587.57879,-0.12443999946117401,0.18544000387191772,1.012112021446228,0.0,-2.450000047683716,-0.7699999809265137
1743895587.59879,-0.1239520013332367,0.18592800199985504,1.012112021446228,-0.07000000029802322,-2.309999942779541,-0.7699999809265137
1743895587.61879,-0.1239520013332367,0.18690399825572968,1.0116239786148071,0.0,-2.380000114440918,-0.699999988079071
1743895587.63879,-0.12590399384498596,0.18690399825572968,1.0125999450683594,0.0,-2.450000047683716,-0.699999988079071
1743895587.583127,-0.12541599571704865,0.18592800199985504,1.0106480121612549,0.14000000059604645,-2.5199999809265137,-0.6299999952316284
1743895587.603127,-0.12346400320529938,0.1844639927148819,1.0155279636383057,0.07000000029802322,-2.5199999809265137,-0.699999988079071
1743895587.623127,-0.12443999946117401,0.18592800199985504,1.0150400400161743,0.07000000029802322,-2.450000047683716,-0.7699999809265137
1743895587.643127,-0.1239520013332367,0.18251200020313263,1.0155279636383057,0.14000000059604645,-2.5199999809265137,-0.6299999952316284
1743895587.663127,-0.12151200324296951,0.18592800199985504,1.0130879878997803,0.07000000029802322,-2.450000047683716,-0.8399999737739563
1743895587.683127,-0.12200000137090683,0.18348799645900726,1.012112021446228,0.07000000029802322,-2.5199999809265137,-0.8399999737739563
1743895587.6415172,-0.12297599762678146,0.18544000387191772,1.0130879878997803,0.14000000059604645,-2.450000047683716,-0.8399999737739563
1743895587.6615171,-0.12248799949884415,0.18544000387191772,1.0155279636383057,0.07000000029802322,-2.450000047683716,-0.9800000190734863
1743895587.6815171,-0.12297599762678146,0.1844639927148819,1.0160160064697266,0.20999999344348907,-2.450000047683716,-0.8399999737739563
1743895587.701517,-0.12443999946117401,0.18299999833106995,1.0179680585861206,0.3499999940395355,-2.5199999809265137,-0.7699999809265137
1743895587.721517,-0.12297599762678146,0.18299999833106995,1.018455982208252,0.3499999940395355,-2.450000047683716,-0.7699999809265137
1743895587.741517,-0.12297599762678146,0.1844639927148819,1.020408034324646,0.41999998688697815,-2.450000047683716,-0.8399999737739563
1743895587.6726391,-0.12248799949884415,0.18641600012779236,1.0150400400161743,0.41999998688697815,-2.450000047683716,-0.8399999737739563
1743895587.692639,-0.12346400320529938,0.18299999833106995,1.012112021446228,0.6299999952316284,-2.240000009536743,-0.9100000262260437
1743895587.712639,-0.12248799949884415,0.1844639927148819,1.0106480121612549,0.7699999809265137,-2.240000009536743,-0.9100000262260437
1743895587.732639,-0.1210239976644516,0.18641600012779236,1.0125999450683594,0.41999998688697815,-1.6100000143051147,-0.699999988079071
1743895587.752639,-0.12297599762678146,0.1849520057439804,1.0096720457077026,0.7699999809265137,-2.1700000762939453,-0.9800000190734863
1743895587.772639,-0.1239520013332367,0.18592800199985504,1.012112021446228,0.6299999952316284,-2.309999942779541,-0.8399999737739563
1743895587.72952,-0.12639200687408447,0.18397599458694458,1.0086959600448608,0.6299999952316284,-2.309999942779541,-0.8399999737739563
1743895587.74952,-0.1239520013332367,0.18397599458694458,1.010159969329834,0.5600000023841858,-2.240000009536743,-0.6299999952316284
1743895587.76952,-0.12346400320529938,0.18397599458694458,1.0106480121612549,0.699999988079071,-2.1700000762939453,-0.699999988079071
1743895587.78952,-0.12590399384498596,0.18592800199985504,1.0130879878997803,0.5600000023841858,-2.309999942779541,-0.699999988079071
1743895587.80952,-0.12248799949884415,0.1849520057439804,1.0116239786148071,0.5600000023841858,-2.380000114440918,-0.6299999952316284
1743895587.82952,-0.12346400320529938,0.18397599458694458,1.0135760307312012,0.5600000023841858,-2.380000114440918,-0.699999988079071
1743895587.761916,-0.12346400320529938,0.18592800199985504,1.0155279636383057,0.49000000953674316,-2.380000114440918,-0.699999988079071
1743895587.781916,-0.12346400320529938,0.1878799945116043,1.0111360549926758,0.49000000953674316,-2.380000114440918,-0.6299999952316284
1743895587.801916,-0.12443999946117401,0.18544000387191772,1.0125999450683594,0.49000000953674316,-2.309999942779541,-0.699999988079071
1743895587.8219159,-0.12492799758911133,0.1849520057439804,1.0130879878997803,0.49000000953674316,-2.380000114440918,-0.7699999809265137
1743895587.8419158,-0.12443999946117401,0.18592800199985504,1.010159969329834,0.41999998688697815,-2.380000114440918,-0.699999988079071
1743895587.8619158,-0.12297599762678146,0.1878799945116043,1.0130879878997803,0.41999998688697815,-2.380000114440918,-0.7699999809265137
1743895587.7927241,-0.12297599762678146,0.18544000387191772,1.0106480121612549,0.49000000953674316,-2.309999942779541,-0.699999988079071
1743895587.812724,-0.12346400320529938,0.18592800199985504,1.0130879878997803,0.49000000953674316,-2.309999942779541,-0.699999988079071
1743895587.832724,-0.12492799758911133,0.18592800199985504,1.0111360549926758,0.41999998688697815,-2.450000047683716,-0.699999988079071
1743895587.852724,-0.12346400320529938,0.18592800199985504,1.0130879878997803,0.6299999952316284,-2.450000047683716,-0.8399999737739563
1743895587.872724,-0.12346400320529938,0.187391996383667,1.0125999450683594,0.49000000953674316,-2.309999942779541,-0.7699999809265137
1743895587.892724,-0.12492799758911133,0.18544000387191772,1.0106480121612549,0.49000000953674316,-2.450000047683716,-0.7699999809265137
1743895587.8379562,-0.1239520013332367,0.18641600012779236,1.0140639543533325,0.49000000953674316,-2.450000047683716,-0.699999988079071
1743895587.8579562,-0.12297599762678146,0.18836799263954163,1.0106480121612549,0.41999998688697815,-2.450000047683716,-0.699999988079071
1743895587.8779562,-0.12443999946117401,0.1878799945116043,1.0111360549926758,0.49000000953674316,-2.380000114440918,-0.7699999809265137
1743895587.8979561,-0.12151200324296951,0.1878799945116043,1.0106480121612549,0.3499999940395355,-2.309999942779541,-0.699999988079071
1743895587.917956,-0.12346400320529938,0.187391996383667,1.0135760307312012,0.20999999344348907,-2.450000047683716,-0.7699999809265137
1743895587.937956,-0.1239520013332367,0.18592800199985504,1.0106480121612549,0.2800000011920929,-2.450000047683716,-0.699999988079071
1743895587.882738,-0.12541599571704865,0.18592800199985504,1.0116239786148071,0.2800000011920929,-2.5199999809265137,-0.699999988079071
1743895587.902738,-0.12443999946117401,0.18397599458694458,1.0125999450683594,0.20999999344348907,-2.5199999809265137,-0.699999988079071
1743895587.922738,-0.12346400320529938,0.18690399825572968,1.0150400400161743,0.0,-2.450000047683716,-0.6299999952316284
1743895587.942738,-0.12346400320529938,0.18641600012779236,1.0140639543533325,0.14000000059604645,-2.450000047683716,-0.6299999952316284
1743895587.962738,-0.1239520013332367,0.18690399825572968,1.0106480121612549,0.07000000029802322,-2.5199999809265137,-0.7699999809265137
1743895587.982738,-0.12297599762678146,0.18690399825572968,1.0125999450683594,0.07000000029802322,-2.450000047683716,-0.7699999809265137
1743895587.927974,-0.12151200324296951,0.18544000387191772,1.0125999450683594,-17.920000076293945,-2.450000047683716,-0.8399999737739563
1743895587.947974,-0.12492799758911133,0.18641600012779236,1.0125999450683594,-0.07000000029802322,-2.5199999809265137,-0.699999988079071
1743895587.967974,-0.12346400320529938,0.18544000387191772,1.010159969329834,-0.07000000029802322,-2.380000114440918,-0.699999988079071
1743895587.987974,-0.12346400320529938,0.18592800199985504,1.0130879878997803,0.0,-2.380000114440918,-0.8399999737739563
1743895588.007974,-0.1239520013332367,0.18397599458694458,1.0145519971847534,-0.07000000029802322,-2.450000047683716,-0.699999988079071
1743895588.027974,-0.12297599762678146,0.1844639927148819,1.0155279636383057,-0.07000000029802322,-2.450000047683716,-0.7699999809265137
1743895587.9734712,-0.12297599762678146,0.1849520057439804,1.0135760307312012,0.0,-2.309999942779541,-0.8399999737739563
1743895587.9934711,-0.12492799758911133,0.1844639927148819,1.0135760307312012,0.07000000029802322,-2.309999942779541,-0.8399999737739563
1743895588.0134711,-0.12639200687408447,0.1849520057439804,1.0106480121612549,0.20999999344348907,-2.309999942779541,-0.8399999737739563
1743895588.033471,-0.12443999946117401,0.18299999833106995,1.0096720457077026,0.20999999344348907,-2.309999942779541,-0.699999988079071
1743895588.053471,-0.12346400320529938,0.18397599458694458,1.0125999450683594,0.20999999344348907,-2.380000114440918,-0.699999988079071
1743895588.073471,-0.12443999946117401,0.18397599458694458,1.0106480121612549,0.2800000011920929,-2.309999942779541,-0.699999988079071
1743895588.0300522,-0.1239520013332367,0.18641600012779236,1.0140639543533325,0.3499999940395355,-2.309999942779541,-0.8399999737739563
1743895588.0500522,-0.12248799949884415,0.1820240020751953,1.0130879878997803,0.49000000953674316,-2.309999942779541,-0.7699999809265137
1743895588.0700521,-0.12492799758911133,0.1849520057439804,1.012112021446228,0.2800000011920929,-2.1700000762939453,-0.699999988079071
1743895588.0900521,-0.12590399384498596,0.18592800199985504,1.0106480121612549,0.3499999940395355,-2.240000009536743,-0.699999988079071
1743895588.110052,-0.12346400320529938,0.18397599458694458,1.0130879878997803,0.41999998688697815,-2.240000009536743,-0.7699999809265137
1743895588.130052,-0.12492799758911133,0.1878799945116043,1.0111360549926758,0.41999998688697815,-2.309999942779541,-0.7699999809265137
1743895588.0466173,-0.12590399384498596,0.18544000387191772,1.0125999450683594,0.2800000011920929,-2.309999942779541,-0.7699999809265137
1743895588.0666173,-0.1268800050020218,0.18544000387191772,1.0130879878997803,0.41999998688697815,-2.380000114440918,-0.7699999809265137
1743895588.0866172,-0.12200000137090683,0.18544000387191772,1.0111360549926758,0.2800000011920929,-2.450000047683716,-0.9100000262260437
1743895588.1066172,-0.12297599762678146,0.18544000387191772,1.0125999450683594,0.3499999940395355,-2.450000047683716,-0.7699999809265137
1743895588.1266172,-0.12297599762678146,0.1844639927148819,1.0140639543533325,0.41999998688697815,-2.380000114440918,-0.9100000262260437
1743895588.1466172,-0.12200000137090683,0.18544000387191772,1.0086959600448608,0.49000000953674316,-2.380000114440918,-0.7699999809265137
1743895588.092912,-0.12248799949884415,0.18544000387191772,1.0111360549926758,0.41999998688697815,-2.450000047683716,-0.7699999809265137
1743895588.112912,-0.12541599571704865,0.18641600012779236,1.012112021446228,0.41999998688697815,-2.380000114440918,-0.7699999809265137
1743895588.132912,-0.12443999946117401,0.18641600012779236,1.0091840028762817,0.20999999344348907,-2.380000114440918,-0.699999988079071
1743895588.152912,-0.12248799949884415,0.18348799645900726,1.0116239786148071,0.3499999940395355,-2.5199999809265137,-0.7699999809265137
1743895588.172912,-0.12346400320529938,0.1844639927148819,1.0125999450683594,0.20999999344348907,-2.5899999141693115,-0.7699999809265137
1743895588.1929119,-0.12492799758911133,0.18397599458694458,1.0135760307312012,0.14000000059604645,-2.450000047683716,-0.6299999952316284
1743895588.153377,-0.12443999946117401,0.187391996383667,1.0125999450683594,0.07000000029802322,-2.5199999809265137,-0.699999988079071
1743895588.173377,-0.1239520013332367,0.18397599458694458,1.0106480121612549,0.07000000029802322,-2.380000114440918,-0.7699999809265137
1743895588.193377,-0.1239520013332367,0.187391996383667,1.0155279636383057,0.07000000029802322,-2.450000047683716,-0.699999988079071
1743895588.213377,-0.12297599762678146,0.18592800199985504,1.0091840028762817,0.07000000029802322,-2.450000047683716,-0.5600000023841858
1743895588.233377,-0.12297599762678146,0.18690399825572968,1.010159969329834,0.0,-2.450000047683716,-0.6299999952316284
1743895588.253377,-0.12151200324296951,0.18592800199985504,1.0111360549926758,0.0,-2.380000114440918,-0.699999988079071
1743895588.197143,-0.12346400320529938,0.18397599458694458,1.0130879878997803,0.0,-2.240000009536743,-0.6299999952316284
1743895588.217143,-0.12248799949884415,0.18348799645900726,1.0106480121612549,0.07000000029802322,-2.1700000762939453,-0.699999988079071
1743895588.237143,-0.12297599762678146,0.1844639927148819,1.0116239786148071,0.14000000059604645,-2.309999942779541,-0.699999988079071
1743895588.257143,-0.12200000137090683,0.18299999833106995,1.012112021446228,0.20999999344348907,-2.240000009536743,-0.6299999952316284
1743895588.277143,-0.12248799949884415,0.1849520057439804,1.0096720457077026,0.20999999344348907,-2.1700000762939453,-0.7699999809265137
1743895588.297143,-0.12248799949884415,0.1844639927148819,1.0125999450683594,0.2800000011920929,-2.240000009536743,-0.699999988079071
1743895588.228429,-0.12297599762678146,0.18299999833106995,1.012112021446228,0.41999998688697815,-2.240000009536743,-0.7699999809265137
1743895588.248429,-0.12590399384498596,0.1844639927148819,1.0116239786148071,0.49000000953674316,-2.1700000762939453,-0.8399999737739563
1743895588.268429,-0.12443999946117401,0.18544000387191772,1.0116239786148071,0.5600000023841858,-2.309999942779541,-0.7699999809265137
1743895588.288429,-0.12443999946117401,0.18544000387191772,1.0150400400161743,0.5600000023841858,-2.309999942779541,-0.7699999809265137
1743895588.308429,-0.12346400320529938,0.1849520057439804,1.0135760307312012,0.49000000953674316,-2.240000009536743,-0.7699999809265137
1743895588.328429,-0.12492799758911133,0.18592800199985504,1.0130879878997803,0.5600000023841858,-2.450000047683716,-0.7699999809265137
1743895588.3300672,-0.12541599571704865,0.187391996383667,1.0130879878997803,0.49000000953674316,-2.309999942779541,-0.8399999737739563
1743895588.3500671,-0.12541599571704865,0.1849520057439804,1.0125999450683594,0.5600000023841858,-2.450000047683716,-0.8399999737739563
1743895588.3700671,-0.12443999946117401,0.18592800199985504,1.0150400400161743,0.49000000953674316,-2.309999942779541,-0.7699999809265137
1743895588.390067,-0.12492799758911133,0.18983200192451477,1.012112021446228,0.2800000011920929,-2.450000047683716,-0.699999988079071
1743895588.410067,-0.1239520013332367,0.18592800199985504,1.012112021446228,0.2800000011920929,-2.5199999809265137,-0.699999988079071
1743895588.430067,-0.12297599762678146,0.18592800199985504,1.0130879878997803,0.20999999344348907,-2.450000047683716,-0.699999988079071
1743895588.3336442,-0.12151200324296951,0.18836799263954163,1.012112021446228,0.07000000029802322,-2.450000047683716,-0.699999988079071
1743895588.3536441,-0.12248799949884415,0.18299999833106995,1.0111360549926758,0.14000000059604645,-2.450000047683716,-0.6299999952316284
1743895588.373644,-0.12248799949884415,0.18641600012779236,1.010159969329834,0.07000000029802322,-2.380000114440918,-0.699999988079071
1743895588.393644,-0.12492799758911133,0.18544000387191772,1.012112021446228,0.07000000029802322,-2.450000047683716,-0.699999988079071
1743895588.413644,-0.12297599762678146,0.1844639927148819,1.010159969329834,0.07000000029802322,-2.5199999809265137,-0.699999988079071
1743895588.433644,-0.12443999946117401,0.1849520057439804,1.0116239786148071,0.0,-2.450000047683716,-0.699999988079071
1743895588.3643672,-0.12248799949884415,0.1849520057439804,1.012112021446228,0.0,-2.450000047683716,-0.6299999952316284
1743895588.3843672,-0.1239520013332367,0.181536003947258,1.0125999450683594,0.07000000029802322,-2.380000114440918,-0.6299999952316284
1743895588.4043672,-0.12492799758911133,0.1844639927148819,1.0116239786148071,0.14000000059604645,-2.380000114440918,-0.7699999809265137
1743895588.4243672,-0.12297599762678146,0.1849520057439804,1.0125999450683594,0.20999999344348907,-2.380000114440918,-0.6299999952316284
1743895588.4443672,-0.12200000137090683,0.18544000387191772,1.0130879878997803,0.14000000059604645,-2.380000114440918,-0.6299999952316284
1743895588.4643672,-0.12200000137090683,0.18544000387191772,1.012112021446228,0.20999999344348907,-2.309999942779541,-0.7699999809265137
1743895588.419899,-0.12492799758911133,0.18348799645900726,1.0130879878997803,0.20999999344348907,-2.380000114440918,-0.6299999952316284
1743895588.439899,-0.1239520013332367,0.18544000387191772,1.0125999450683594,0.20999999344348907,-2.309999942779541,-0.7699999809265137
1743895588.459899,-0.12151200324296951,0.1849520057439804,1.0116239786148071,0.2800000011920929,-2.309999942779541,-0.8399999737739563
1743895588.479899,-0.12443999946117401,0.18592800199985504,1.0106480121612549,0.14000000059604645,-2.309999942779541,-0.699999988079071
1743895588.499899,-0.12346400320529938,0.18592800199985504,1.0145519971847534,0.2800000011920929,-2.240000009536743,-0.699999988079071
1743895588.519899,-0.12297599762678146,0.18592800199985504,1.0140639543533325,0.20999999344348907,-2.240000009536743,-0.7699999809265137
1743895588.4531672,-0.12346400320529938,0.1849520057439804,1.0135760307312012,0.14000000059604645,-2.309999942779541,-0.8399999737739563
1743895588.4731672,-0.12248799949884415,0.18397599458694458,1.0106480121612549,0.2800000011920929,-2.309999942779541,-0.7699999809265137
1743895588.4931672,-0.12346400320529938,0.18299999833106995,1.0130879878997803,0.20999999344348907,-2.309999942779541,-0.699999988079071
1743895588.5131671,-0.12492799758911133,0.18104800581932068,1.0116239786148071,0.3499999940395355,-2.309999942779541,-0.7699999809265137
1743895588.5331671,-0.12639200687408447,0.18592800199985504,1.0096720457077026,0.3499999940395355,-2.380000114440918,-0.7699999809265137
1743895588.553167,-0.1239520013332367,0.18348799645900726,1.0111360549926758,0.41999998688697815,-2.450000047683716,-0.7699999809265137
1743895588.502376,-0.12541599571704865,0.18348799645900726,1.0106480121612549,0.3499999940395355,-2.450000047683716,-0.699999988079071
1743895588.522376,-0.12492799758911133,0.18641600012779236,1.0111360549926758,0.3499999940395355,-2.380000114440918,-0.7699999809265137
1743895588.542376,-0.1239520013332367,0.18397599458694458,1.0125999450683594,0.3499999940395355,-2.309999942779541,-0.7699999809265137
1743895588.562376,-0.12443999946117401,0.18397599458694458,1.0111360549926758,0.2800000011920929,-2.450000047683716,-0.7699999809265137
1743895588.582376,-0.1239520013332367,0.18397599458694458,1.010159969329834,0.2800000011920929,-2.450000047683716,-0.7699999809265137
1743895588.602376,-0.12492799758911133,0.18397599458694458,1.0125999450683594,0.3499999940395355,-2.450000047683716,-0.699999988079071
1743895588.541266,-0.12248799949884415,0.1844639927148819,1.0130879878997803,0.2800000011920929,-2.5899999141693115,-0.7699999809265137
1743895588.561266,-0.12297599762678146,0.18544000387191772,1.0135760307312012,0.14000000059604645,-2.450000047683716,-0.699999988079071
1743895588.581266,-0.12248799949884415,0.18544000387191772,1.0125999450683594,0.3499999940395355,-2.5199999809265137,-0.6299999952316284
1743895588.601266,-0.12297599762678146,0.18544000387191772,1.0106480121612549,0.2800000011920929,-2.380000114440918,-0.6299999952316284
1743895588.621266,-0.12346400320529938,0.1844639927148819,1.0125999450683594,0.2800000011920929,-2.450000047683716,-0.699999988079071
1743895588.6412659,-0.12541599571704865,0.18397599458694458,1.0140639543533325,0.14000000059604645,-2.5199999809265137,-0.699999988079071
1743895588.573096,-0.12297599762678146,0.1844639927148819,1.0125999450683594,0.3499999940395355,-2.5199999809265137,-0.699999988079071
1743895588.593096,-0.12297599762678146,0.18397599458694458,1.0125999450683594,0.20999999344348907,-2.450000047683716,-0.6299999952316284
1743895588.613096,-0.12248799949884415,0.18544000387191772,1.0150400400161743,0.20999999344348907,-2.380000114440918,-0.699999988079071
1743895588.633096,-0.1239520013332367,0.1844639927148819,1.0140639543533325,0.3499999940395355,-2.309999942779541,-0.7699999809265137
1743895588.653096,-0.12151200324296951,0.18592800199985504,1.0116239786148071,0.20999999344348907,-2.240000009536743,-0.7699999809265137
1743895588.673096,-0.12297599762678146,0.18690399825572968,1.0140639543533325,0.3499999940395355,-2.309999942779541,-0.8399999737739563
1743895588.631215,-0.12200000137090683,0.18397599458694458,1.0145519971847534,0.2800000011920929,-2.380000114440918,-0.8399999737739563
1743895588.651215,-0.12053599953651428,0.18299999833106995,1.0116239786148071,0.3499999940395355,-2.1700000762939453,-0.8399999737739563
1743895588.671215,-0.12297599762678146,0.18397599458694458,1.0116239786148071,0.2800000011920929,-2.309999942779541,-0.8399999737739563
1743895588.691215,-0.12346400320529938,0.18592800199985504,1.010159969329834,0.2800000011920929,-2.309999942779541,-0.9100000262260437
1743895588.711215,-0.12297599762678146,0.18544000387191772,1.012112021446228,0.2800000011920929,-2.309999942779541,-0.8399999737739563
1743895588.731215,-0.1239520013332367,0.1849520057439804,1.0130879878997803,0.14000000059604645,-2.380000114440918,-0.9100000262260437
1743895588.6627831,-0.1210239976644516,0.18544000387191772,1.0086959600448608,0.20999999344348907,-2.240000009536743,-0.8399999737739563
1743895588.6827831,-0.12346400320529938,0.18251200020313263,1.0106480121612549,0.20999999344348907,-2.309999942779541,-0.7699999809265137
1743895588.702783,-0.12590399384498596,0.18397599458694458,1.012112021446228,0.2800000011920929,-2.309999942779541,-0.7699999809265137
1743895588.722783,-0.12541599571704865,0.18544000387191772,1.0130879878997803,0.3499999940395355,-2.450000047683716,-0.8399999737739563
1743895588.742783,-0.12443999946117401,0.18397599458694458,1.010159969329834,0.3499999940395355,-2.450000047683716,-0.699999988079071
1743895588.762783,-0.12492799758911133,0.18251200020313263,1.0135760307312012,0.41999998688697815,-2.450000047683716,-0.7699999809265137
1743895588.7076502,-0.12297599762678146,0.18544000387191772,1.0111360549926758,0.41999998688697815,-2.309999942779541,-0.6299999952316284
1743895588.7276502,-0.12151200324296951,0.18299999833106995,1.0135760307312012,0.3499999940395355,-2.450000047683716,-0.699999988079071
1743895588.7476501,-0.12151200324296951,0.18592800199985504,1.0106480121612549,0.41999998688697815,-2.309999942779541,-0.7699999809265137
1743895588.7676501,-0.12248799949884415,0.18544000387191772,1.012112021446228,0.41999998688697815,-2.380000114440918,-0.699999988079071
1743895588.78765,-0.12297599762678146,0.1844639927148819,1.0135760307312012,0.2800000011920929,-2.380000114440918,-0.699999988079071
1743895588.80765,-0.1239520013332367,0.18251200020313263,1.0111360549926758,0.3499999940395355,-2.380000114440918,-0.7699999809265137
1743895588.7379432,-0.12346400320529938,0.18348799645900726,1.0130879878997803,0.2800000011920929,-2.450000047683716,-0.699999988079071
1743895588.7579432,-0.12541599571704865,0.1849520057439804,1.010159969329834,0.2800000011920929,-2.5199999809265137,-0.7699999809265137
1743895588.7779431,-0.12443999946117401,0.18299999833106995,1.010159969329834,0.2800000011920929,-2.450000047683716,-0.699999988079071
1743895588.797943,-0.12492799758911133,0.1849520057439804,1.0116239786148071,0.20999999344348907,-2.450000047683716,-0.7699999809265137
1743895588.817943,-0.12200000137090683,0.1849520057439804,1.0106480121612549,0.20999999344348907,-2.380000114440918,-0.8399999737739563
1743895588.837943,-0.12346400320529938,0.18544000387191772,1.0130879878997803,0.2800000011920929,-2.380000114440918,-0.8399999737739563
1743895588.7948592,-0.1239520013332367,0.18544000387191772,1.0086959600448608,0.3499999940395355,-2.309999942779541,-0.8399999737739563
1743895588.8148592,-0.12492799758911133,0.1844639927148819,1.010159969329834,0.3499999940395355,-2.380000114440918,-0.9100000262260437
1743895588.8348591,-0.12346400320529938,0.18641600012779236,1.010159969329834,0.2800000011920929,-2.240000009536743,-0.8399999737739563
1743895588.854859,-0.1239520013332367,0.18348799645900726,1.010159969329834,0.2800000011920929,-2.309999942779541,-0.7699999809265137
1743895588.874859,-0.12297599762678146,0.18592800199985504,1.0116239786148071,0.3499999940395355,-2.309999942779541,-0.8399999737739563
1743895588.894859,-0.12492799758911133,0.1844639927148819,1.0125999450683594,0.41999998688697815,-2.309999942779541,-0.7699999809265137
1743895588.827541,-0.12541599571704865,0.1849520057439804,1.0111360549926758,0.2800000011920929,-2.450000047683716,-0.7699999809265137
1743895588.847541,-0.12492799758911133,0.1844639927148819,1.0125999450683594,0.3499999940395355,-2.380000114440918,-0.6299999952316284
1743895588.867541,-0.12492799758911133,0.18348799645900726,1.0130879878997803,0.20999999344348907,-2.240000009536743,-0.699999988079071
1743895588.887541,-0.12346400320529938,0.18397599458694458,1.012112021446228,0.3499999940395355,-2.309999942779541,-0.7699999809265137
1743895588.907541,-0.12248799949884415,0.1844639927148819,1.0106480121612549,0.3499999940395355,-2.309999942779541,-0.7699999809265137
1743895588.927541,-0.12346400320529938,0.1849520057439804,1.0125999450683594,0.41999998688697815,-2.380000114440918,-0.6299999952316284
1743895588.8744981,-0.12541599571704865,0.18592800199985504,1.0140639543533325,0.41999998688697815,-2.450000047683716,-0.7699999809265137
1743895588.894498,-0.12443999946117401,0.18397599458694458,1.0111360549926758,0.3499999940395355,-2.380000114440918,-0.699999988079071
1743895588.914498,-0.12200000137090683,0.1844639927148819,1.0130879878997803,0.3499999940395355,-2.450000047683716,-0.699999988079071
1743895588.934498,-0.12200000137090683,0.18348799645900726,1.0116239786148071,0.41999998688697815,-2.450000047683716,-0.699999988079071
1743895588.954498,-0.12443999946117401,0.1844639927148819,1.0116239786148071,0.3499999940395355,-2.5899999141693115,-0.7699999809265137
1743895588.974498,-0.12297599762678146,0.18397599458694458,1.0125999450683594,0.3499999940395355,-2.380000114440918,-0.699999988079071
1743895588.933386,-0.1210239976644516,0.18592800199985504,1.0106480121612549,0.20999999344348907,-2.380000114440918,-0.699999988079071
1743895588.953386,-0.12248799949884415,0.1844639927148819,1.0130879878997803,0.2800000011920929,-2.450000047683716,-0.6299999952316284
1743895588.973386,-0.12443999946117401,0.18592800199985504,1.0116239786148071,0.2800000011920929,-2.380000114440918,-0.7699999809265137
1743895588.993386,-0.12297599762678146,0.1844639927148819,1.0135760307312012,0.2800000011920929,-2.380000114440918,-0.7699999809265137
1743895589.013386,-0.1239520013332367,0.18592800199985504,1.012112021446228,0.20999999344348907,-2.450000047683716,-0.7699999809265137
1743895589.033386,-0.12346400320529938,0.1844639927148819,1.0140639543533325,0.3499999940395355,-2.309999942779541,-0.7699999809265137
1743895588.947474,-0.12346400320529938,0.18299999833106995,1.0096720457077026,0.2800000011920929,-2.309999942779541,-0.699999988079071
1743895588.967474,-0.12053599953651428,0.18397599458694458,1.0130879878997803,0.3499999940395355,-2.380000114440918,-0.8399999737739563
1743895588.987474,-0.12443999946117401,0.1844639927148819,1.0111360549926758,0.2800000011920929,-2.380000114440918,-0.7699999809265137
1743895589.007474,-0.12200000137090683,0.18251200020313263,1.0125999450683594,0.2800000011920929,-2.309999942779541,-0.7699999809265137
1743895589.027474,-0.12248799949884415,0.1849520057439804,1.010159969329834,0.14000000059604645,-2.380000114440918,-0.8399999737739563
1743895589.047474,-0.12492799758911133,0.1849520057439804,1.0140639543533325,0.2800000011920929,-2.380000114440918,-0.9100000262260437
1743895588.9925482,-0.12297599762678146,0.18592800199985504,1.0130879878997803,0.2800000011920929,-2.380000114440918,-0.9100000262260437
1743895589.0125482,-0.12346400320529938,0.18397599458694458,1.0130879878997803,0.2800000011920929,-2.380000114440918,-0.7699999809265137
1743895589.0325482,-0.1239520013332367,0.18348799645900726,1.0140639543533325,0.20999999344348907,-2.309999942779541,-0.9100000262260437
1743895589.0525482,-0.12443999946117401,0.18544000387191772,1.0130879878997803,0.2800000011920929,-2.240000009536743,-0.8399999737739563
1743895589.0725482,-0.12443999946117401,0.18592800199985504,1.0130879878997803,0.41999998688697815,-2.380000114440918,-0.8399999737739563
1743895589.0925481,-0.12443999946117401,0.1844639927148819,1.0116239786148071,0.41999998688697815,-2.380000114440918,-0.7699999809265137
1743895589.037769,-0.12443999946117401,0.18592800199985504,1.0116239786148071,0.41999998688697815,-2.380000114440918,-0.699999988079071
1743895589.057769,-0.12346400320529938,0.1849520057439804,1.0140639543533325,0.41999998688697815,-2.5199999809265137,-0.7699999809265137
1743895589.077769,-0.12248799949884415,0.1844639927148819,1.0111360549926758,0.41999998688697815,-2.309999942779541,-0.7699999809265137
1743895589.097769,-0.12248799949884415,0.18397599458694458,1.0116239786148071,0.3499999940395355,-2.240000009536743,-0.699999988079071
1743895589.117769,-0.12297599762678146,0.18251200020313263,1.0116239786148071,0.3499999940395355,-2.309999942779541,-0.699999988079071
1743895589.137769,-0.12200000137090683,0.18397599458694458,1.0111360549926758,0.41999998688697815,-2.309999942779541,-0.7699999809265137
1743895589.0832262,-0.12346400320529938,0.18641600012779236,1.0111360549926758,0.41999998688697815,-2.309999942779541,-0.699999988079071
1743895589.1032262,-0.12297599762678146,0.1844639927148819,1.0140639543533325,0.3499999940395355,-2.309999942779541,-0.7699999809265137
1743895589.1232262,-0.1239520013332367,0.18397599458694458,1.0116239786148071,0.2800000011920929,-2.309999942779541,-0.7699999809265137
1743895589.1432261,-0.12346400320529938,0.18641600012779236,1.0116239786148071,0.41999998688697815,-2.309999942779541,-0.9100000262260437
1743895589.1632261,-0.1239520013332367,0.1844639927148819,1.0116239786148071,0.49000000953674316,-2.380000114440918,-0.9100000262260437
1743895589.183226,-0.12541599571704865,0.1844639927148819,1.0106480121612549,0.3499999940395355,-2.309999942779541,-0.9100000262260437
1743895589.128243,-0.12200000137090683,0.1878799945116043,1.0096720457077026,0.49000000953674316,-2.380000114440918,-0.9100000262260437
1743895589.148243,-0.12443999946117401,0.1820240020751953,1.012112021446228,0.49000000953674316,-2.380000114440918,-0.9100000262260437
1743895589.168243,-0.12346400320529938,0.18397599458694458,1.0125999450683594,0.49000000953674316,-2.309999942779541,-0.9800000190734863
1743895589.188243,-0.12346400320529938,0.1844639927148819,1.012112021446228,0.49000000953674316,-2.309999942779541,-0.9800000190734863
1743895589.208243,-0.12200000137090683,0.18348799645900726,1.0116239786148071,0.41999998688697815,-2.240000009536743,-0.9800000190734863
1743895589.2282429,-0.12200000137090683,0.18299999833106995,1.0125999450683594,0.5600000023841858,-2.1700000762939453,-0.9100000262260437
1743895589.156668,-0.12200000137090683,0.18397599458694458,1.0111360549926758,0.5600000023841858,-2.240000009536743,-0.9100000262260437
1743895589.176668,-0.1239520013332367,0.18544000387191772,1.012112021446228,0.49000000953674316,-2.309999942779541,-0.8399999737739563
1743895589.196668,-0.12541599571704865,0.18592800199985504,1.0116239786148071,0.5600000023841858,-2.240000009536743,-0.9100000262260437
1743895589.216668,-0.1239520013332367,0.1849520057439804,1.012112021446228,0.49000000953674316,-2.380000114440918,-0.7699999809265137
1743895589.2366679,-0.12492799758911133,0.1849520057439804,1.0125999450683594,0.49000000953674316,-2.240000009536743,-0.9100000262260437
1743895589.2566679,-0.1239520013332367,0.1844639927148819,1.0116239786148071,0.6299999952316284,-2.450000047683716,-0.7699999809265137
1743895589.229894,-0.12590399384498596,0.1849520057439804,1.0106480121612549,0.6299999952316284,-2.380000114440918,-0.9800000190734863
1743895589.249894,-0.12492799758911133,0.18592800199985504,1.0116239786148071,0.6299999952316284,-2.380000114440918,-0.7699999809265137
1743895589.269894,-0.12492799758911133,0.18690399825572968,1.0116239786148071,0.6299999952316284,-2.380000114440918,-0.7699999809265137
1743895589.2898939,-0.12248799949884415,0.187391996383667,1.0125999450683594,0.6299999952316284,-2.380000114440918,-0.8399999737739563
1743895589.3098938,-0.12443999946117401,0.1844639927148819,1.0111360549926758,0.6299999952316284,-2.380000114440918,-0.699999988079071
1743895589.3298938,-0.1239520013332367,0.18690399825572968,1.0145519971847534,0.6299999952316284,-2.450000047683716,-0.7699999809265137
1743895589.247623,-0.12346400320529938,0.18934400379657745,1.0125999450683594,0.49000000953674316,-2.450000047683716,-0.7699999809265137
1743895589.267623,-0.1239520013332367,0.1878799945116043,1.0145519971847534,0.3499999940395355,-2.450000047683716,-0.7699999809265137
1743895589.287623,-0.12053599953651428,0.18641600012779236,1.0106480121612549,0.20999999344348907,-2.309999942779541,-0.699999988079071
1743895589.307623,-0.12004800140857697,0.18592800199985504,1.012112021446228,0.14000000059604645,-2.380000114440918,-0.7699999809265137
1743895589.327623,-0.12443999946117401,0.18592800199985504,1.012112021446228,0.20999999344348907,-2.309999942779541,-0.6299999952316284
1743895589.3476229,-0.12297599762678146,0.18592800199985504,1.0125999450683594,0.14000000059604645,-2.5199999809265137,-0.7699999809265137
1743895589.292914,-0.1210239976644516,0.1849520057439804,1.0111360549926758,0.0,-2.5199999809265137,-0.699999988079071
1743895589.312914,-0.12443999946117401,0.18592800199985504,1.012112021446228,0.20999999344348907,-2.380000114440918,-0.7699999809265137
1743895589.3329139,-0.12151200324296951,0.18592800199985504,1.0111360549926758,0.20999999344348907,-2.380000114440918,-0.7699999809265137
1743895589.3529139,-0.1239520013332367,0.18348799645900726,1.0091840028762817,0.07000000029802322,-2.380000114440918,-0.7699999809265137
1743895589.3729138,-0.1239520013332367,0.18348799645900726,1.010159969329834,0.14000000059604645,-2.380000114440918,-0.7699999809265137
1743895589.3929138,-0.12151200324296951,0.1844639927148819,1.012112021446228,0.0,-2.380000114440918,-0.7699999809265137
1743895589.323424,-0.12151200324296951,0.1844639927148819,1.0125999450683594,0.14000000059604645,-2.309999942779541,-0.699999988079071
1743895589.343424,-0.12297599762678146,0.18397599458694458,1.0130879878997803,0.07000000029802322,-2.380000114440918,-0.7699999809265137
1743895589.363424,-0.12443999946117401,0.1844639927148819,1.0145519971847534,0.07000000029802322,-2.240000009536743,-0.9100000262260437
1743895589.383424,-0.12248799949884415,0.187391996383667,1.0140639543533325,0.14000000059604645,-2.240000009536743,-0.8399999737739563
1743895589.403424,-0.12297599762678146,0.18641600012779236,1.0145519971847534,0.20999999344348907,-2.1700000762939453,-0.7699999809265137
1743895589.423424,-0.1239520013332367,0.18299999833106995,1.0165040493011475,0.20999999344348907,-2.1700000762939453,-0.7699999809265137
1743895589.368534,-0.1239520013332367,0.18251200020313263,1.0155279636383057,0.2800000011920929,-2.1700000762939453,-0.9100000262260437
1743895589.388534,-0.12492799758911133,0.18397599458694458,1.0155279636383057,0.3499999940395355,-2.0999999046325684,-0.8399999737739563
1743895589.408534,-0.12492799758911133,0.1849520057439804,1.0140639543533325,0.3499999940395355,-2.1700000762939453,-0.8399999737739563
1743895589.428534,-0.12492799758911133,0.1820240020751953,1.0130879878997803,0.49000000953674316,-2.0999999046325684,-0.8399999737739563
1743895589.448534,-0.12443999946117401,0.18348799645900726,1.0130879878997803,0.5600000023841858,-2.0999999046325684,-0.8399999737739563
1743895589.468534,-0.12346400320529938,0.18641600012779236,1.0106480121612549,0.699999988079071,-2.0999999046325684,-0.9800000190734863
1743895589.4256122,-0.12443999946117401,0.1844639927148819,1.0116239786148071,0.6299999952316284,-2.1700000762939453,-0.9100000262260437
1743895589.4456122,-0.12492799758911133,0.18348799645900726,1.0140639543533325,0.7699999809265137,-2.0999999046325684,-0.9800000190734863
1743895589.4656122,-0.12639200687408447,0.1820240020751953,1.0096720457077026,0.699999988079071,-2.1700000762939453,-0.9800000190734863
1743895589.4856122,-0.12492799758911133,0.18299999833106995,1.0130879878997803,0.7699999809265137,-2.1700000762939453,-0.8399999737739563
1743895589.5056121,-0.12541599571704865,0.1820240020751953,1.0082080364227295,0.7699999809265137,-2.240000009536743,-0.9100000262260437
1743895589.525612,-0.12200000137090683,0.18397599458694458,1.0111360549926758,0.7699999809265137,-2.240000009536743,-0.9800000190734863
1743895589.4434872,-0.12639200687408447,0.1844639927148819,1.0091840028762817,0.8399999737739563,-2.240000009536743,-1.0499999523162842
1743895589.4634871,-0.12297599762678146,0.1844639927148819,1.0062559843063354,0.9100000262260437,-2.450000047683716,-0.9800000190734863
1743895589.4834871,-0.1239520013332367,0.18690399825572968,1.0096720457077026,0.7699999809265137,-2.240000009536743,-0.9100000262260437
1743895589.503487,-0.12443999946117401,0.1849520057439804,1.012112021446228,0.7699999809265137,-2.450000047683716,-0.9800000190734863
1743895589.523487,-0.12590399384498596,0.18690399825572968,1.0130879878997803,0.6299999952316284,-2.450000047683716,-0.8399999737739563
1743895589.543487,-0.12541599571704865,0.18544000387191772,1.0106480121612549,0.6299999952316284,-2.450000047683716,-0.8399999737739563
1743895589.530795,-0.12443999946117401,0.18397599458694458,1.0116239786148071,0.6299999952316284,-2.5199999809265137,-0.9100000262260437
1743895589.550795,-0.12200000137090683,0.18641600012779236,1.012112021446228,0.6299999952316284,-2.380000114440918,-0.9100000262260437
1743895589.570795,-0.12297599762678146,0.1849520057439804,1.0125999450683594,0.699999988079071,-2.450000047683716,-0.7699999809265137
1743895589.590795,-0.12492799758911133,0.18641600012779236,1.0106480121612549,0.6299999952316284,-2.5199999809265137,-0.8399999737739563
1743895589.610795,-0.12248799949884415,0.18592800199985504,1.010159969329834,0.6299999952316284,-2.450000047683716,-0.7699999809265137
1743895589.630795,-0.12492799758911133,0.1844639927148819,1.0116239786148071,0.5600000023841858,-2.5199999809265137,-0.7699999809265137
1743895589.533778,-0.12443999946117401,0.1844639927148819,1.0111360549926758,0.6299999952316284,-2.5899999141693115,-0.7699999809265137
1743895589.553778,-0.12248799949884415,0.1849520057439804,1.0130879878997803,0.5600000023841858,-2.5199999809265137,-0.699999988079071
1743895589.573778,-0.12248799949884415,0.18397599458694458,1.0130879878997803,0.5600000023841858,-2.450000047683716,-0.7699999809265137
1743895589.593778,-0.12297599762678146,0.18641600012779236,1.0145519971847534,0.6299999952316284,-2.380000114440918,-0.7699999809265137
1743895589.6137779,-0.12346400320529938,0.1844639927148819,1.0135760307312012,0.6299999952316284,-2.450000047683716,-0.699999988079071
1743895589.6337779,-0.12297599762678146,0.18544000387191772,1.0140639543533325,0.6299999952316284,-2.309999942779541,-0.8399999737739563
1743895589.5803032,-0.12346400320529938,0.18348799645900726,1.0130879878997803,0.6299999952316284,-2.380000114440918,-0.8399999737739563
1743895589.6003032,-0.12248799949884415,0.18544000387191772,1.0145519971847534,0.5600000023841858,-2.309999942779541,-0.7699999809265137
1743895589.6203032,-0.12443999946117401,0.18592800199985504,1.0130879878997803,0.49000000953674316,-2.380000114440918,-0.699999988079071
1743895589.6403031,-0.12346400320529938,0.1849520057439804,1.0125999450683594,0.49000000953674316,-2.240000009536743,-0.8399999737739563
1743895589.660303,-0.1239520013332367,0.18544000387191772,1.0145519971847534,0.49000000953674316,-2.240000009536743,-0.8399999737739563
1743895589.680303,-0.12151200324296951,0.18544000387191772,1.0145519971847534,0.41999998688697815,-2.309999942779541,-0.9100000262260437
1743895589.6236491,-0.12297599762678146,0.1844639927148819,1.012112021446228,0.2800000011920929,-2.380000114440918,-0.9100000262260437
1743895589.643649,-0.1239520013332367,0.18641600012779236,1.0116239786148071,0.3499999940395355,-2.240000009536743,-0.9100000262260437
1743895589.663649,-0.12346400320529938,0.18592800199985504,1.0116239786148071,0.49000000953674316,-2.1700000762939453,-0.8399999737739563
1743895589.683649,-0.12297599762678146,0.1849520057439804,1.0111360549926758,0.49000000953674316,-2.1700000762939453,-0.9800000190734863
1743895589.703649,-0.12346400320529938,0.18641600012779236,1.0111360549926758,0.5600000023841858,-2.240000009536743,-0.9100000262260437
1743895589.723649,-0.12492799758911133,0.18592800199985504,1.0150400400161743,0.41999998688697815,-2.309999942779541,-0.9100000262260437
1743895589.710665,-0.12443999946117401,0.18544000387191772,1.0145519971847534,0.41999998688697815,-2.1700000762939453,-0.9800000190734863
1743895589.730665,-0.1239520013332367,0.1844639927148819,1.0096720457077026,0.5600000023841858,-2.1700000762939453,-0.9100000262260437
1743895589.750665,-0.12492799758911133,0.1844639927148819,1.012112021446228,0.41999998688697815,-2.240000009536743,-0.9100000262260437
1743895589.770665,-0.12492799758911133,0.18641600012779236,1.0111360549926758,0.49000000953674316,-2.309999942779541,-0.9100000262260437
1743895589.790665,-0.12200000137090683,0.18641600012779236,1.0106480121612549,0.3499999940395355,-2.309999942779541,-0.9100000262260437
1743895589.810665,-0.12443999946117401,0.18592800199985504,1.0096720457077026,0.49000000953674316,-2.240000009536743,-0.9800000190734863
1743895589.725225,-0.12541599571704865,0.18544000387191772,1.0111360549926758,0.41999998688697815,-2.380000114440918,-0.9100000262260437
1743895589.745225,-0.12590399384498596,0.18592800199985504,1.0106480121612549,0.49000000953674316,-2.240000009536743,-0.9100000262260437
1743895589.765225,-0.1239520013332367,0.18641600012779236,1.0111360549926758,0.49000000953674316,-2.309999942779541,-0.8399999737739563
1743895589.785225,-0.12541599571704865,0.18592800199985504,1.0145519971847534,0.49000000953674316,-2.309999942779541,-0.9100000262260437
1743895589.805225,-0.12200000137090683,0.18544000387191772,1.0106480121612549,0.41999998688697815,-2.240000009536743,-0.8399999737739563
1743895589.8252249,-0.1239520013332367,0.18544000387191772,1.012112021446228,0.49000000953674316,-2.309999942779541,-0.9100000262260437
1743895589.7587361,-0.12346400320529938,0.18690399825572968,1.0082080364227295,0.49000000953674316,-2.309999942779541,-0.8399999737739563
1743895589.778736,-0.12297599762678146,0.1844639927148819,1.0096720457077026,0.5600000023841858,-2.309999942779541,-0.7699999809265137
1743895589.798736,-0.12053599953651428,0.18592800199985504,1.0106480121612549,0.5600000023841858,-2.450000047683716,-0.9100000262260437
1743895589.818736,-0.12492799758911133,0.1844639927148819,1.010159969329834,0.5600000023841858,-2.380000114440918,-0.7699999809265137
1743895589.838736,-0.12151200324296951,0.1844639927148819,1.012112021446228,0.49000000953674316,-2.450000047683716,-0.9100000262260437
1743895589.858736,-0.12297599762678146,0.18641600012779236,1.0096720457077026,0.5600000023841858,-2.380000114440918,-0.8399999737739563
1743895589.800019,-0.12346400320529938,0.18544000387191772,1.0096720457077026,0.41999998688697815,-2.309999942779541,-0.7699999809265137
1743895589.820019,-0.12590399384498596,0.18690399825572968,1.0116239786148071,0.5600000023841858,-2.380000114440918,-0.8399999737739563
1743895589.840019,-0.12639200687408447,0.18690399825572968,1.0116239786148071,0.49000000953674316,-2.450000047683716,-0.7699999809265137
1743895589.860019,-0.12590399384498596,0.1844639927148819,1.0116239786148071,0.3499999940395355,-2.309999942779541,-0.8399999737739563
1743895589.880019,-0.12590399384498596,0.1844639927148819,1.0125999450683594,0.5600000023841858,-2.380000114440918,-0.6299999952316284
1743895589.900019,-0.1239520013332367,0.18544000387191772,1.0145519971847534,0.49000000953674316,-2.450000047683716,-0.7699999809265137
1743895589.83301,-0.12346400320529938,0.18592800199985504,1.012112021446228,0.41999998688697815,-2.450000047683716,-0.6299999952316284
1743895589.85301,-0.12248799949884415,0.18641600012779236,1.0130879878997803,0.41999998688697815,-2.5199999809265137,-0.699999988079071
1743895589.87301,-0.12346400320529938,0.18592800199985504,1.0160160064697266,0.3499999940395355,-2.450000047683716,-0.7699999809265137
1743895589.89301,-0.12053599953651428,0.18690399825572968,1.0116239786148071,0.3499999940395355,-2.450000047683716,-0.7699999809265137
1743895589.91301,-0.12200000137090683,0.1849520057439804,1.0091840028762817,0.3499999940395355,-2.450000047683716,-0.699999988079071
1743895589.9330099,-0.12346400320529938,0.18641600012779236,1.012112021446228,0.3499999940395355,-2.450000047683716,-0.7699999809265137
1743895589.878279,-0.12297599762678146,0.18544000387191772,1.0130879878997803,0.3499999940395355,-2.450000047683716,-0.7699999809265137
1743895589.898279,-0.12151200324296951,0.18690399825572968,1.0116239786148071,0.41999998688697815,-2.450000047683716,-0.7699999809265137
1743895589.918279,-0.12248799949884415,0.18544000387191772,1.0125999450683594,0.49000000953674316,-2.450000047683716,-0.7699999809265137
1743895589.938279,-0.12492799758911133,0.18592800199985504,1.0116239786148071,0.41999998688697815,-2.5199999809265137,-0.9100000262260437
1743895589.958279,-0.12297599762678146,0.18641600012779236,1.010159969329834,0.41999998688697815,-2.240000009536743,-0.8399999737739563
1743895589.9782789,-0.12297599762678146,0.18544000387191772,1.0130879878997803,0.3499999940395355,-2.240000009536743,-0.9100000262260437
1743895589.922899,-0.1239520013332367,0.18690399825572968,1.0116239786148071,0.41999998688697815,-2.309999942779541,-0.9800000190734863
1743895589.942899,-0.12541599571704865,0.18690399825572968,1.0106480121612549,0.41999998688697815,-2.1700000762939453,-0.8399999737739563
1743895589.962899,-0.12590399384498596,0.18544000387191772,1.0111360549926758,0.41999998688697815,-2.309999942779541,-0.8399999737739563
1743895589.982899,-0.1239520013332367,0.18544000387191772,1.010159969329834,0.3499999940395355,-2.240000009536743,-0.8399999737739563
1743895590.002899,-0.12297599762678146,0.18690399825572968,1.0130879878997803,0.3499999940395355,-2.240000009536743,-0.7699999809265137
1743895590.022899,-0.12248799949884415,0.18641600012779236,1.0125999450683594,0.2800000011920929,-2.240000009536743,-0.7699999809265137
1743895589.9968681,-0.12639200687408447,0.1849520057439804,1.0145519971847534,0.2800000011920929,-2.309999942779541,-0.8399999737739563
1743895590.016868,-0.12639200687408447,0.18641600012779236,1.0135760307312012,0.3499999940395355,-2.380000114440918,-0.8399999737739563
1743895590.036868,-0.12541599571704865,0.187391996383667,1.0135760307312012,0.2800000011920929,-2.0999999046325684,-0.7699999809265137
1743895590.056868,-0.12443999946117401,0.1878799945116043,1.0091840028762817,0.3499999940395355,-2.240000009536743,-0.8399999737739563
1743895590.076868,-0.12297599762678146,0.18690399825572968,1.0096720457077026,0.41999998688697815,-2.240000009536743,-0.8399999737739563
1743895590.096868,-0.1239520013332367,0.1878799945116043,1.012112021446228,0.49000000953674316,-2.380000114440918,-0.699999988079071
1743895590.0293481,-0.12443999946117401,0.187391996383667,1.0140639543533325,0.20999999344348907,-2.380000114440918,-0.699999988079071
1743895590.049348,-0.12248799949884415,0.1849520057439804,1.0130879878997803,0.3499999940395355,-2.240000009536743,-0.7699999809265137
1743895590.069348,-0.1239520013332367,0.18641600012779236,1.012112021446228,0.3499999940395355,-2.380000114440918,-0.7699999809265137
1743895590.089348,-0.12346400320529938,0.1849520057439804,1.012112021446228,0.41999998688697815,-2.380000114440918,-0.7699999809265137
1743895590.109348,-0.12248799949884415,0.1849520057439804,1.0091840028762817,0.3499999940395355,-2.380000114440918,-0.699999988079071
1743895590.129348,-0.12248799949884415,0.18544000387191772,1.0086959600448608,0.3499999940395355,-2.5899999141693115,-0.699999988079071
1743895590.0429862,-0.12297599762678146,0.18641600012779236,1.0125999450683594,0.2800000011920929,-2.380000114440918,-0.699999988079071
1743895590.0629861,-0.12297599762678146,0.18641600012779236,1.0106480121612549,0.3499999940395355,-2.380000114440918,-0.699999988079071
1743895590.082986,-0.12297599762678146,0.18641600012779236,1.0125999450683594,0.3499999940395355,-2.5899999141693115,-0.699999988079071
1743895590.102986,-0.12248799949884415,0.18544000387191772,1.012112021446228,0.3499999940395355,-2.5199999809265137,-0.699999988079071
1743895590.122986,-0.12346400320529938,0.1844639927148819,1.012112021446228,0.41999998688697815,-2.450000047683716,-0.7699999809265137
1743895590.142986,-0.12492799758911133,0.18641600012779236,1.010159969329834,0.2800000011920929,-2.5199999809265137,-0.7699999809265137
1743895590.08759,-0.1210239976644516,0.187391996383667,1.0130879878997803,0.41999998688697815,-2.450000047683716,-0.7699999809265137
1743895590.10759,-0.12248799949884415,0.18690399825572968,1.0125999450683594,0.3499999940395355,-2.5199999809265137,-0.8399999737739563
1743895590.12759,-0.1239520013332367,0.18641600012779236,1.0116239786148071,0.41999998688697815,-2.450000047683716,-0.699999988079071
1743895590.14759,-0.12151200324296951,0.18592800199985504,1.010159969329834,0.3499999940395355,-2.309999942779541,-0.7699999809265137
1743895590.16759,-0.12639200687408447,0.18641600012779236,1.0111360549926758,0.2800000011920929,-2.380000114440918,-0.699999988079071
1743895590.18759,-0.12297599762678146,0.1849520057439804,1.0106480121612549,0.3499999940395355,-2.380000114440918,-0.7699999809265137
1743895590.1322172,-0.12200000137090683,0.18544000387191772,1.0140639543533325,0.3499999940395355,-2.450000047683716,-0.7699999809265137
1743895590.1522171,-0.12200000137090683,0.18836799263954163,1.0116239786148071,0.20999999344348907,-2.380000114440918,-0.7699999809265137
1743895590.1722171,-0.12248799949884415,0.18544000387191772,1.012112021446228,0.2800000011920929,-2.309999942779541,-0.8399999737739563
1743895590.192217,-0.12492799758911133,0.1878799945116043,1.0111360549926758,0.2800000011920929,-2.380000114440918,-0.7699999809265137
1743895590.212217,-0.1239520013332367,0.18592800199985504,1.0116239786148071,0.3499999940395355,-2.309999942779541,-0.8399999737739563
1743895590.232217,-0.12346400320529938,0.18592800199985504,1.0106480121612549,0.3499999940395355,-2.309999942779541,-0.7699999809265137
1743895590.1779132,-0.12297599762678146,0.187391996383667,1.0116239786148071,0.3499999940395355,-2.450000047683716,-0.7699999809265137
1743895590.1979132,-0.1239520013332367,0.18641600012779236,1.0135760307312012,0.20999999344348907,-2.309999942779541,-0.8399999737739563
1743895590.2179132,-0.1239520013332367,0.187391996383667,1.0106480121612549,0.2800000011920929,-2.309999942779541,-0.8399999737739563
1743895590.2379131,-0.12248799949884415,0.1849520057439804,1.010159969329834,0.14000000059604645,-2.240000009536743,-0.7699999809265137
1743895590.257913,-0.12297599762678146,0.1844639927148819,1.0116239786148071,0.20999999344348907,-2.309999942779541,-0.9100000262260437
1743895590.277913,-0.12248799949884415,0.187391996383667,1.0106480121612549,0.3499999940395355,-2.380000114440918,-0.7699999809265137
1743895590.2231581,-0.12492799758911133,0.18690399825572968,1.012112021446228,0.3499999940395355,-2.240000009536743,-0.8399999737739563
1743895590.243158,-0.12492799758911133,0.18690399825572968,1.0091840028762817,0.2800000011920929,-2.240000009536743,-0.8399999737739563
1743895590.263158,-0.12443999946117401,0.18641600012779236,1.0106480121612549,0.20999999344348907,-2.309999942779541,-0.8399999737739563
1743895590.283158,-0.12541599571704865,0.18592800199985504,1.0096720457077026,0.20999999344348907,-2.450000047683716,-0.699999988079071
1743895590.303158,-0.1239520013332367,0.18592800199985504,1.0111360549926758,0.07000000029802322,-2.5199999809265137,-0.699999988079071
1743895590.323158,-0.12151200324296951,0.1878799945116043,1.0125999450683594,0.14000000059604645,-2.309999942779541,-0.699999988079071
1743895590.2531352,-0.12297599762678146,0.18592800199985504,1.0125999450683594,0.07000000029802322,-2.380000114440918,-0.7699999809265137
1743895590.2731352,-0.12346400320529938,0.18690399825572968,1.0125999450683594,0.07000000029802322,-2.380000114440918,-0.7699999809265137
1743895590.2931352,-0.12492799758911133,0.187391996383667,1.0150400400161743,0.07000000029802322,-2.450000047683716,-0.7699999809265137
1743895590.3131351,-0.12492799758911133,0.18544000387191772,1.0125999450683594,0.0,-2.309999942779541,-0.699999988079071
1743895590.3331351,-0.12297599762678146,0.18544000387191772,1.0135760307312012,0.07000000029802322,-2.380000114440918,-0.699999988079071
1743895590.353135,-0.12248799949884415,0.18836799263954163,1.0155279636383057,0.07000000029802322,-2.309999942779541,-0.699999988079071
1743895590.3255,-0.12248799949884415,0.18690399825572968,1.0125999450683594,0.20999999344348907,-2.380000114440918,-0.699999988079071
1743895590.3455,-0.12443999946117401,0.18641600012779236,1.0130879878997803,0.14000000059604645,-2.450000047683716,-0.699999988079071
1743895590.3655,-0.12346400320529938,0.18544000387191772,1.0130879878997803,0.2800000011920929,-2.450000047683716,-0.7699999809265137
1743895590.3855,-0.1210239976644516,0.187391996383667,1.0130879878997803,0.20999999344348907,-2.309999942779541,-0.7699999809265137
1743895590.4055,-0.12151200324296951,0.18299999833106995,1.0111360549926758,0.3499999940395355,-2.380000114440918,-0.699999988079071
1743895590.4255,-0.12346400320529938,0.18397599458694458,1.0106480121612549,0.41999998688697815,-2.380000114440918,-0.7699999809265137
1743895590.3425422,-0.12492799758911133,0.18641600012779236,1.0106480121612549,0.20999999344348907,-2.380000114440918,-0.7699999809265137
1743895590.3625422,-0.12248799949884415,0.18544000387191772,1.0096720457077026,0.2800000011920929,-2.380000114440918,-0.7699999809265137
1743895590.3825421,-0.12297599762678146,0.18592800199985504,1.0116239786148071,0.41999998688697815,-2.309999942779541,-0.699999988079071
1743895590.402542,-0.12443999946117401,0.1849520057439804,1.0116239786148071,0.41999998688697815,-2.309999942779541,-0.8399999737739563
1743895590.422542,-0.12590399384498596,0.18592800199985504,1.012112021446228,0.3499999940395355,-2.309999942779541,-0.8399999737739563
1743895590.442542,-0.12248799949884415,0.1849520057439804,1.0140639543533325,0.41999998688697815,-2.309999942779541,-0.7699999809265137
1743895590.4025612,-0.12443999946117401,0.18397599458694458,1.0111360549926758,0.3499999940395355,-2.309999942779541,-0.7699999809265137
1743895590.4225612,-0.12492799758911133,0.18592800199985504,1.0116239786148071,0.49000000953674316,-2.380000114440918,-0.7699999809265137
1743895590.4425611,-0.12541599571704865,0.18690399825572968,1.0106480121612549,0.41999998688697815,-2.309999942779541,-0.8399999737739563
1743895590.4625611,-0.12346400320529938,0.1849520057439804,1.0135760307312012,0.41999998688697815,-2.309999942779541,-0.7699999809265137
1743895590.482561,-0.12248799949884415,0.18592800199985504,1.0116239786148071,0.49000000953674316,-2.309999942779541,-0.7699999809265137
1743895590.502561,-0.12590399384498596,0.1849520057439804,1.012112021446228,0.41999998688697815,-2.380000114440918,-0.699999988079071
1743895590.4483562,-0.12346400320529938,0.1844639927148819,1.0135760307312012,0.3499999940395355,-2.450000047683716,-0.699999988079071
1743895590.4683561,-0.12297599762678146,0.18592800199985504,1.0111360549926758,0.3499999940395355,-2.380000114440918,-0.7699999809265137
1743895590.488356,-0.12443999946117401,0.18641600012779236,1.0135760307312012,0.3499999940395355,-2.450000047683716,-0.699999988079071
1743895590.508356,-0.12297599762678146,0.18641600012779236,1.0140639543533325,0.20999999344348907,-2.5199999809265137,-0.7699999809265137
1743895590.528356,-0.12151200324296951,0.18544000387191772,1.0125999450683594,0.20999999344348907,-2.309999942779541,-0.7699999809265137
1743895590.548356,-0.1239520013332367,0.18348799645900726,1.010159969329834,0.2800000011920929,-2.309999942779541,-0.8399999737739563
1743895590.476968,-0.1210239976644516,0.1844639927148819,1.0091840028762817,0.2800000011920929,-2.380000114440918,-0.7699999809265137
1743895590.496968,-0.12200000137090683,0.18641600012779236,1.0125999450683594,0.20999999344348907,-2.450000047683716,-0.7699999809265137
1743895590.516968,-0.12346400320529938,0.18641600012779236,1.0130879878997803,0.14000000059604645,-2.380000114440918,-0.699999988079071
1743895590.536968,-0.12248799949884415,0.18641600012779236,1.0096720457077026,0.20999999344348907,-2.450000047683716,-0.7699999809265137
1743895590.556968,-0.12443999946117401,0.18544000387191772,1.0111360549926758,0.14000000059604645,-2.309999942779541,-0.699999988079071
1743895590.576968,-0.12248799949884415,0.18641600012779236,1.0135760307312012,0.07000000029802322,-2.309999942779541,-0.8399999737739563
1743895590.538031,-0.12004800140857697,0.18397599458694458,1.0140639543533325,0.07000000029802322,-2.309999942779541,-0.7699999809265137
1743895590.558031,-0.12297599762678146,0.18544000387191772,1.0140639543533325,0.07000000029802322,-2.450000047683716,-0.7699999809265137
1743895590.578031,-0.12248799949884415,0.18690399825572968,1.0130879878997803,0.07000000029802322,-2.1700000762939453,-0.9100000262260437
1743895590.598031,-0.12200000137090683,0.18641600012779236,1.0096720457077026,0.07000000029802322,-2.309999942779541,-0.8399999737739563
1743895590.618031,-0.12492799758911133,0.1878799945116043,1.012112021446228,0.20999999344348907,-2.240000009536743,-0.8399999737739563
1743895590.638031,-0.12541599571704865,0.18544000387191772,1.0150400400161743,0.2800000011920929,-2.380000114440918,-0.7699999809265137
1743895590.567372,-0.12151200324296951,0.18544000387191772,1.0125999450683594,0.20999999344348907,-2.450000047683716,-0.7699999809265137
1743895590.587372,-0.12492799758911133,0.187391996383667,1.0125999450683594,0.2800000011920929,-2.450000047683716,-0.7699999809265137
1743895590.607372,-0.12492799758911133,0.18592800199985504,1.0111360549926758,0.3499999940395355,-2.380000114440918,-0.7699999809265137
1743895590.627372,-0.12346400320529938,0.18592800199985504,1.0125999450683594,0.20999999344348907,-2.450000047683716,-0.7699999809265137
1743895590.647372,-0.1239520013332367,0.18397599458694458,1.0135760307312012,0.20999999344348907,-2.450000047683716,-0.7699999809265137
1743895590.667372,-0.12151200324296951,0.18397599458694458,1.0155279636383057,0.2800000011920929,-2.380000114440918,-0.699999988079071
1743895590.613191,-0.12492799758911133,0.18592800199985504,1.0106480121612549,0.41999998688697815,-2.5199999809265137,-0.699999988079071
1743895590.6331909,-0.1239520013332367,0.18641600012779236,1.0116239786148071,0.41999998688697815,-2.309999942779541,-0.699999988079071
1743895590.6531909,-0.12492799758911133,0.18397599458694458,1.0130879878997803,0.3499999940395355,-2.5899999141693115,-0.7699999809265137
1743895590.6731908,-0.1239520013332367,0.1844639927148819,1.0140639543533325,0.41999998688697815,-2.450000047683716,-0.7699999809265137
1743895590.6931908,-0.12639200687408447,0.18544000387191772,1.012112021446228,0.41999998688697815,-2.450000047683716,-0.7699999809265137
1743895590.7131908,-0.12297599762678146,0.187391996383667,1.0116239786148071,0.41999998688697815,-2.380000114440918,-0.699999988079071
1743895590.6553931,-0.12248799949884415,0.18641600012779236,1.0106480121612549,0.41999998688697815,-2.380000114440918,-0.699999988079071
1743895590.675393,-0.1239520013332367,0.18641600012779236,1.0125999450683594,0.41999998688697815,-2.309999942779541,-0.7699999809265137
1743895590.695393,-0.12297599762678146,0.18397599458694458,1.0091840028762817,0.41999998688697815,-2.450000047683716,-0.699999988079071
1743895590.715393,-0.12297599762678146,0.18544000387191772,1.0116239786148071,0.3499999940395355,-2.450000047683716,-0.8399999737739563
1743895590.735393,-0.12346400320529938,0.18641600012779236,1.012112021446228,0.3499999940395355,-2.450000047683716,-0.8399999737739563
1743895590.755393,-0.12443999946117401,0.18544000387191772,1.0125999450683594,0.41999998688697815,-2.309999942779541,-0.699999988079071
1743895590.688531,-0.12248799949884415,0.1844639927148819,1.010159969329834,0.2800000011920929,-2.309999942779541,-0.7699999809265137
1743895590.708531,-0.12200000137090683,0.18592800199985504,1.0116239786148071,0.2800000011920929,-2.450000047683716,-0.7699999809265137
1743895590.728531,-0.12248799949884415,0.187391996383667,1.0116239786148071,0.20999999344348907,-2.380000114440918,-0.8399999737739563
1743895590.7485309,-0.12443999946117401,0.1849520057439804,1.012112021446228,0.2800000011920929,-2.450000047683716,-0.7699999809265137
1743895590.7685308,-0.12297599762678146,0.18348799645900726,1.0111360549926758,0.3499999940395355,-2.309999942779541,-0.8399999737739563
1743895590.7885308,-0.12248799949884415,0.18641600012779236,1.0106480121612549,0.3499999940395355,-2.380000114440918,-0.699999988079071
1743895590.733376,-0.12541599571704865,0.18592800199985504,1.0145519971847534,0.41999998688697815,-2.380000114440918,-0.699999988079071
1743895590.753376,-0.12297599762678146,0.18544000387191772,1.0125999450683594,0.3499999940395355,-2.309999942779541,-0.699999988079071
1743895590.773376,-0.12297599762678146,0.1844639927148819,1.0145519971847534,0.41999998688697815,-2.450000047683716,-0.8399999737739563
1743895590.793376,-0.12346400320529938,0.18544000387191772,1.0135760307312012,0.41999998688697815,-2.450000047683716,-0.7699999809265137
1743895590.813376,-0.12492799758911133,0.18299999833106995,1.0130879878997803,0.49000000953674316,-2.309999942779541,-0.699999988079071
1743895590.833376,-0.12248799949884415,0.18251200020313263,1.0116239786148071,0.41999998688697815,-2.380000114440918,-0.7699999809265137
1743895590.7785852,-0.12248799949884415,0.1844639927148819,1.0130879878997803,0.2800000011920929,-2.450000047683716,-0.7699999809265137
1743895590.7985852,-0.12443999946117401,0.18397599458694458,1.0150400400161743,0.41999998688697815,-2.309999942779541,-0.699999988079071
1743895590.8185852,-0.12200000137090683,0.18592800199985504,1.0135760307312012,0.41999998688697815,-2.240000009536743,-0.8399999737739563
1743895590.8385851,-0.12248799949884415,0.18544000387191772,1.012112021446228,0.41999998688697815,-2.450000047683716,-0.699999988079071
1743895590.8585851,-0.12297599762678146,0.18690399825572968,1.0125999450683594,0.41999998688697815,-2.380000114440918,-0.8399999737739563
1743895590.878585,-0.12297599762678146,0.18690399825572968,1.0145519971847534,0.41999998688697815,-2.450000047683716,-0.7699999809265137
1743895590.8083181,-0.1210239976644516,0.187391996383667,1.0091840028762817,0.3499999940395355,-2.240000009536743,-0.8399999737739563
1743895590.828318,-0.12248799949884415,0.18690399825572968,1.0130879878997803,0.3499999940395355,-2.309999942779541,-0.9100000262260437
1743895590.848318,-0.12151200324296951,0.18690399825572968,1.0106480121612549,0.2800000011920929,-2.309999942779541,-0.8399999737739563
1743895590.868318,-0.12346400320529938,0.18690399825572968,1.0096720457077026,0.41999998688697815,-2.380000114440918,-0.9100000262260437
1743895590.888318,-0.12541599571704865,0.18348799645900726,1.010159969329834,0.3499999940395355,-2.240000009536743,-0.9100000262260437
1743895590.908318,-0.12248799949884415,0.18641600012779236,1.010159969329834,0.2800000011920929,-2.309999942779541,-0.7699999809265137
1743895590.8538892,-0.12053599953651428,0.18544000387191772,1.0111360549926758,0.20999999344348907,-2.450000047683716,-0.9100000262260437
1743895590.8738892,-0.12151200324296951,0.18544000387191772,1.0125999450683594,0.20999999344348907,-2.380000114440918,-0.7699999809265137
1743895590.8938892,-0.12200000137090683,0.18641600012779236,1.0116239786148071,0.14000000059604645,-2.5199999809265137,-0.699999988079071
1743895590.9138892,-0.1239520013332367,0.18544000387191772,1.0111360549926758,0.2800000011920929,-2.380000114440918,-0.6299999952316284
1743895590.9338892,-0.12346400320529938,0.1878799945116043,1.012112021446228,0.20999999344348907,-2.450000047683716,-0.8399999737739563
1743895590.9538891,-0.12297599762678146,0.1849520057439804,1.0125999450683594,0.20999999344348907,-2.309999942779541,-0.8399999737739563
1743895590.915654,-0.12492799758911133,0.18690399825572968,1.0135760307312012,0.3499999940395355,-2.450000047683716,-0.699999988079071
1743895590.935654,-0.12200000137090683,0.18544000387191772,1.0125999450683594,0.3499999940395355,-2.380000114440918,-0.699999988079071
1743895590.955654,-0.1239520013332367,0.1849520057439804,1.0116239786148071,0.3499999940395355,-2.309999942779541,-0.7699999809265137
1743895590.975654,-0.12248799949884415,0.187391996383667,1.012112021446228,0.41999998688697815,-2.380000114440918,-0.699999988079071
1743895590.9956539,-0.12346400320529938,0.18690399825572968,1.0140639543533325,0.49000000953674316,-2.309999942779541,-0.699999988079071
1743895591.0156538,-0.12297599762678146,0.18690399825572968,1.010159969329834,0.3499999940395355,-2.309999942779541,-0.7699999809265137
1743895590.95776,-0.12443999946117401,0.18544000387191772,1.0111360549926758,0.20999999344348907,-2.309999942779541,-0.699999988079071
1743895590.97776,-0.12200000137090683,0.18544000387191772,1.0111360549926758,0.2800000011920929,-2.450000047683716,-0.699999988079071
1743895590.99776,-0.12200000137090683,0.18592800199985504,1.0140639543533325,0.3499999940395355,-2.450000047683716,-0.5600000023841858
1743895591.01776,-0.12297599762678146,0.18690399825572968,1.0145519971847534,0.20999999344348907,-2.5199999809265137,-0.6299999952316284
1743895591.03776,-0.12200000137090683,0.1844639927148819,1.0155279636383057,0.20999999344348907,-2.5199999809265137,-0.6299999952316284
1743895591.05776,-0.12346400320529938,0.187391996383667,1.0125999450683594,0.20999999344348907,-2.450000047683716,-0.699999988079071
1743895590.9883611,-0.1239520013332367,0.1878799945116043,1.0140639543533325,0.2800000011920929,-2.450000047683716,-0.8399999737739563
1743895591.008361,-0.12297599762678146,0.1849520057439804,1.0130879878997803,0.3499999940395355,-2.309999942779541,-0.7699999809265137
1743895591.028361,-0.12346400320529938,0.1849520057439804,1.0111360549926758,0.3499999940395355,-2.380000114440918,-0.8399999737739563
1743895591.048361,-0.12346400320529938,0.18348799645900726,1.0130879878997803,0.3499999940395355,-2.309999942779541,-0.8399999737739563
1743895591.068361,-0.12297599762678146,0.18544000387191772,1.0096720457077026,0.3499999940395355,-2.309999942779541,-0.8399999737739563
1743895591.088361,-0.12443999946117401,0.18544000387191772,1.0125999450683594,0.20999999344348907,-2.380000114440918,-0.7699999809265137
1743895591.0452602,-0.12200000137090683,0.1849520057439804,1.012112021446228,0.20999999344348907,-2.240000009536743,-0.8399999737739563
1743895591.0652602,-0.12443999946117401,0.18299999833106995,1.0111360549926758,0.3499999940395355,-2.380000114440918,-0.7699999809265137
1743895591.0852602,-0.1239520013332367,0.1844639927148819,1.0145519971847534,0.3499999940395355,-2.309999942779541,-0.699999988079071
1743895591.1052601,-0.12443999946117401,0.1849520057439804,1.0140639543533325,0.3499999940395355,-2.309999942779541,-0.7699999809265137
1743895591.12526,-0.12297599762678146,0.18348799645900726,1.0130879878997803,0.3499999940395355,-2.1700000762939453,-0.699999988079071
1743895591.14526,-0.12443999946117401,0.1849520057439804,1.0130879878997803,0.3499999940395355,-2.309999942779541,-0.699999988079071
1743895591.077951,-0.12053599953651428,0.18592800199985504,1.012112021446228,0.49000000953674316,-2.309999942779541,-0.699999988079071
1743895591.097951,-0.12492799758911133,0.18592800199985504,1.0130879878997803,0.3499999940395355,-2.380000114440918,-0.699999988079071
1743895591.117951,-0.12346400320529938,0.1849520057439804,1.0086959600448608,0.41999998688697815,-2.309999942779541,-0.699999988079071
1743895591.137951,-0.12443999946117401,0.1844639927148819,1.012112021446228,0.2800000011920929,-2.309999942779541,-0.6299999952316284
1743895591.1579509,-0.12297599762678146,0.18397599458694458,1.0116239786148071,0.2800000011920929,-2.450000047683716,-0.6299999952316284
1743895591.1779509,-0.12443999946117401,0.18299999833106995,1.0130879878997803,0.20999999344348907,-2.380000114440918,-0.699999988079071
1743895591.1231833,-0.12248799949884415,0.18544000387191772,1.0116239786148071,0.14000000059604645,-2.309999942779541,-0.699999988079071
1743895591.1431832,-0.12151200324296951,0.18641600012779236,1.0111360549926758,0.14000000059604645,-2.380000114440918,-0.7699999809265137
1743895591.1631832,-0.12346400320529938,0.18299999833106995,1.0116239786148071,0.07000000029802322,-2.380000114440918,-0.699999988079071
1743895591.1831832,-0.12297599762678146,0.18592800199985504,1.012112021446228,0.07000000029802322,-2.380000114440918,-0.6299999952316284
1743895591.2031832,-0.12248799949884415,0.1849520057439804,1.0116239786148071,0.07000000029802322,-2.450000047683716,-0.699999988079071
1743895591.2231832,-0.1239520013332367,0.18397599458694458,1.010159969329834,0.14000000059604645,-2.450000047683716,-0.699999988079071
1743895591.167867,-0.12200000137090683,0.1849520057439804,1.010159969329834,0.20999999344348907,-2.450000047683716,-0.6299999952316284
1743895591.187867,-0.12346400320529938,0.18544000387191772,1.0135760307312012,0.14000000059604645,-2.5899999141693115,-0.6299999952316284
1743895591.207867,-0.12248799949884415,0.18397599458694458,1.0116239786148071,0.07000000029802322,-2.309999942779541,-0.6299999952316284
1743895591.227867,-0.12443999946117401,0.18592800199985504,1.012112021446228,0.14000000059604645,-2.450000047683716,-0.6299999952316284
1743895591.2478669,-0.12297599762678146,0.1849520057439804,1.0116239786148071,0.14000000059604645,-2.5199999809265137,-0.699999988079071
1743895591.2678668,-0.12151200324296951,0.1849520057439804,1.0111360549926758,0.14000000059604645,-2.380000114440918,-0.7699999809265137
1743895591.225008,-0.12248799949884415,0.18641600012779236,1.0125999450683594,0.14000000059604645,-2.309999942779541,-0.699999988079071
1743895591.245008,-0.12443999946117401,0.18348799645900726,1.0135760307312012,0.07000000029802322,-2.380000114440918,-0.699999988079071
1743895591.265008,-0.12297599762678146,0.18544000387191772,1.0111360549926758,0.0,-2.380000114440918,-0.699999988079071
1743895591.285008,-0.1239520013332367,0.1844639927148819,1.0135760307312012,0.07000000029802322,-2.240000009536743,-0.699999988079071
1743895591.305008,-0.12297599762678146,0.18299999833106995,1.0135760307312012,0.14000000059604645,-2.380000114440918,-0.699999988079071
1743895591.325008,-0.12297599762678146,0.18690399825572968,1.0125999450683594,0.14000000059604645,-2.309999942779541,-0.7699999809265137
1743895591.2429621,-0.12492799758911133,0.18592800199985504,1.0135760307312012,0.20999999344348907,-2.380000114440918,-0.7699999809265137
1743895591.262962,-0.12297599762678146,0.18348799645900726,1.0125999450683594,0.20999999344348907,-2.309999942779541,-0.9100000262260437
1743895591.282962,-0.12248799949884415,0.18544000387191772,1.0140639543533325,0.20999999344348907,-2.380000114440918,-0.7699999809265137
1743895591.302962,-0.12151200324296951,0.18397599458694458,1.0150400400161743,0.14000000059604645,-2.5199999809265137,-0.7699999809265137
1743895591.322962,-0.1239520013332367,0.18544000387191772,1.0135760307312012,0.14000000059604645,-2.450000047683716,-0.7699999809265137
1743895591.342962,-0.12346400320529938,0.18592800199985504,1.0145519971847534,0.14000000059604645,-2.450000047683716,-0.8399999737739563
1743895591.288275,-0.12151200324296951,0.18348799645900726,1.0150400400161743,0.14000000059604645,-2.380000114440918,-0.7699999809265137
1743895591.308275,-0.1210239976644516,0.1849520057439804,1.0150400400161743,0.2800000011920929,-2.380000114440918,-0.7699999809265137
1743895591.328275,-0.12297599762678146,0.18251200020313263,1.012112021446228,0.20999999344348907,-2.240000009536743,-0.8399999737739563
1743895591.348275,-0.12200000137090683,0.18690399825572968,1.0140639543533325,0.20999999344348907,-2.380000114440918,-0.8399999737739563
1743895591.368275,-0.1239520013332367,0.1849520057439804,1.010159969329834,0.41999998688697815,-2.309999942779541,-0.7699999809265137
1743895591.388275,-0.12346400320529938,0.18544000387191772,1.0096720457077026,0.3499999940395355,-2.309999942779541,-0.7699999809265137
1743895591.36016,-0.1239520013332367,0.18348799645900726,1.0091840028762817,0.3499999940395355,-2.380000114440918,-0.7699999809265137
1743895591.38016,-0.1239520013332367,0.18251200020313263,1.0096720457077026,0.3499999940395355,-2.309999942779541,-0.699999988079071
1743895591.40016,-0.12492799758911133,0.18544000387191772,1.0091840028762817,0.2800000011920929,-2.240000009536743,-0.7699999809265137
1743895591.42016,-0.12248799949884415,0.18348799645900726,1.0116239786148071,0.2800000011920929,-2.450000047683716,-0.699999988079071
1743895591.44016,-0.12443999946117401,0.18592800199985504,1.0130879878997803,0.3499999940395355,-2.380000114440918,-0.7699999809265137
1743895591.46016,-0.12346400320529938,0.1844639927148819,1.0135760307312012,0.3499999940395355,-2.450000047683716,-0.7699999809265137
1743895591.377953,-0.12443999946117401,0.18397599458694458,1.0125999450683594,0.20999999344348907,-2.380000114440918,-0.8399999737739563
1743895591.397953,-0.12346400320529938,0.1844639927148819,1.012112021446228,0.2800000011920929,-2.380000114440918,-0.7699999809265137
1743895591.417953,-0.12346400320529938,0.18544000387191772,1.010159969329834,0.20999999344348907,-2.380000114440918,-0.7699999809265137
1743895591.437953,-0.1210239976644516,0.18544000387191772,1.0125999450683594,0.20999999344348907,-2.450000047683716,-0.699999988079071
1743895591.457953,-0.12346400320529938,0.18544000387191772,1.0125999450683594,0.20999999344348907,-2.5199999809265137,-0.699999988079071
1743895591.477953,-0.1239520013332367,0.18592800199985504,1.012112021446228,0.14000000059604645,-2.380000114440918,-0.699999988079071
1743895591.4233313,-0.12151200324296951,0.187391996383667,1.012112021446228,0.07000000029802322,-2.309999942779541,-0.7699999809265137
1743895591.4433312,-0.12346400320529938,0.1849520057439804,1.0116239786148071,0.14000000059604645,-2.309999942779541,-0.7699999809265137
1743895591.4633312,-0.12297599762678146,0.1849520057439804,1.0140639543533325,0.20999999344348907,-2.380000114440918,-0.7699999809265137
1743895591.4833312,-0.12297599762678146,0.18348799645900726,1.0145519971847534,0.2800000011920929,-2.309999942779541,-0.7699999809265137
1743895591.5033312,-0.12346400320529938,0.18251200020313263,1.0125999450683594,0.14000000059604645,-2.309999942779541,-0.7699999809265137
1743895591.5233312,-0.12248799949884415,0.18251200020313263,1.0096720457077026,0.2800000011920929,-2.380000114440918,-0.7699999809265137
1743895591.452563,-0.12492799758911133,0.18299999833106995,1.0096720457077026,0.3499999940395355,-2.380000114440918,-0.8399999737739563
1743895591.472563,-0.12248799949884415,0.18397599458694458,1.0116239786148071,0.3499999940395355,-2.380000114440918,-0.7699999809265137
1743895591.492563,-0.12346400320529938,0.18299999833106995,1.012112021446228,0.3499999940395355,-2.380000114440918,-0.8399999737739563
1743895591.512563,-0.12248799949884415,0.181536003947258,1.0125999450683594,0.3499999940395355,-2.380000114440918,-0.8399999737739563
1743895591.532563,-0.12541599571704865,0.18299999833106995,1.0106480121612549,0.49000000953674316,-2.380000114440918,-0.699999988079071
1743895591.552563,-0.12297599762678146,0.1849520057439804,1.0106480121612549,0.41999998688697815,-2.309999942779541,-0.8399999737739563
1743895591.511025,-0.12200000137090683,0.1849520057439804,1.0145519971847534,0.41999998688697815,-2.450000047683716,-0.7699999809265137
1743895591.531025,-0.12492799758911133,0.1849520057439804,1.0125999450683594,0.41999998688697815,-2.380000114440918,-0.7699999809265137
1743895591.551025,-0.1239520013332367,0.18397599458694458,1.012112021446228,0.5600000023841858,-2.380000114440918,-0.8399999737739563
1743895591.571025,-0.1239520013332367,0.1844639927148819,1.012112021446228,0.5600000023841858,-2.450000047683716,-0.7699999809265137
1743895591.5910249,-0.12151200324296951,0.18544000387191772,1.0116239786148071,0.49000000953674316,-2.450000047683716,-0.9100000262260437
1743895591.6110249,-0.1210239976644516,0.18544000387191772,1.012112021446228,0.49000000953674316,-2.380000114440918,-0.8399999737739563
1743895591.5438101,-0.1210239976644516,0.18592800199985504,1.0130879878997803,0.5600000023841858,-2.380000114440918,-0.8399999737739563
1743895591.56381,-0.12297599762678146,0.1849520057439804,1.0135760307312012,0.41999998688697815,-2.380000114440918,-0.8399999737739563
1743895591.58381,-0.12248799949884415,0.18397599458694458,1.012112021446228,0.41999998688697815,-2.240000009536743,-0.7699999809265137
1743895591.60381,-0.12151200324296951,0.18544000387191772,1.0130879878997803,0.49000000953674316,-2.309999942779541,-0.7699999809265137
1743895591.62381,-0.1239520013332367,0.1849520057439804,1.0106480121612549,0.41999998688697815,-2.380000114440918,-0.8399999737739563
1743895591.64381,-0.12248799949884415,0.18299999833106995,1.0125999450683594,0.41999998688697815,-2.380000114440918,-0.7699999809265137
1743895591.604407,-0.12346400320529938,0.18348799645900726,1.0135760307312012,0.3499999940395355,-2.240000009536743,-0.7699999809265137
1743895591.624407,-0.12248799949884415,0.18544000387191772,1.0096720457077026,0.41999998688697815,-2.240000009536743,-0.8399999737739563
1743895591.644407,-0.1210239976644516,0.1844639927148819,1.0135760307312012,0.49000000953674316,-2.240000009536743,-0.7699999809265137
1743895591.664407,-0.12297599762678146,0.18592800199985504,1.0086959600448608,0.41999998688697815,-2.240000009536743,-0.7699999809265137
1743895591.684407,-0.12492799758911133,0.18690399825572968,1.0145519971847534,0.3499999940395355,-2.380000114440918,-0.9800000190734863
1743895591.704407,-0.12590399384498596,0.18299999833106995,1.0116239786148071,0.3499999940395355,-2.309999942779541,-0.8399999737739563
1743895591.63261,-0.12541599571704865,0.18544000387191772,1.0091840028762817,0.3499999940395355,-2.309999942779541,-0.9100000262260437
1743895591.65261,-0.1239520013332367,0.18641600012779236,1.0116239786148071,0.41999998688697815,-2.309999942779541,-0.699999988079071
1743895591.67261,-0.12248799949884415,0.18592800199985504,1.012112021446228,0.49000000953674316,-2.240000009536743,-0.8399999737739563
1743895591.69261,-0.12248799949884415,0.18397599458694458,1.012112021446228,0.49000000953674316,-2.240000009536743,-0.8399999737739563
1743895591.71261,-0.12346400320529938,0.18544000387191772,1.0125999450683594,0.41999998688697815,-2.380000114440918,-0.8399999737739563
1743895591.73261,-0.12346400320529938,0.18690399825572968,1.0135760307312012,0.41999998688697815,-2.309999942779541,-0.8399999737739563
1743895591.678055,-0.12346400320529938,0.18544000387191772,1.0140639543533325,0.2800000011920929,-2.380000114440918,-0.8399999737739563
1743895591.698055,-0.12346400320529938,0.1844639927148819,1.0130879878997803,0.2800000011920929,-2.240000009536743,-0.7699999809265137
1743895591.718055,-0.12346400320529938,0.18299999833106995,1.0111360549926758,0.3499999940395355,-2.450000047683716,-0.8399999737739563
1743895591.738055,-0.1239520013332367,0.18690399825572968,1.0111360549926758,0.14000000059604645,-2.380000114440918,-0.9800000190734863
1743895591.758055,-0.12443999946117401,0.1844639927148819,1.0116239786148071,0.20999999344348907,-2.450000047683716,-0.9100000262260437
1743895591.778055,-0.12297599762678146,0.18397599458694458,1.0111360549926758,0.20999999344348907,-2.450000047683716,-0.8399999737739563
1743895591.735914,-0.12297599762678146,0.1849520057439804,1.0106480121612549,0.14000000059604645,-2.450000047683716,-0.7699999809265137
1743895591.755914,-0.12004800140857697,0.18397599458694458,1.0125999450683594,0.3499999940395355,-2.450000047683716,-0.8399999737739563
1743895591.775914,-0.12248799949884415,0.1844639927148819,1.0150400400161743,0.49000000953674316,-2.450000047683716,-0.7699999809265137
1743895591.795914,-0.12004800140857697,0.1844639927148819,1.0140639543533325,0.5600000023841858,-2.380000114440918,-0.8399999737739563
1743895591.815914,-0.12346400320529938,0.18299999833106995,1.0111360549926758,0.6299999952316284,-2.309999942779541,-0.6299999952316284
1743895591.835914,-0.12248799949884415,0.18592800199985504,1.0135760307312012,0.5600000023841858,-2.309999942779541,-0.7699999809265137
1743895591.7671902,-0.12297599762678146,0.18397599458694458,1.0140639543533325,0.5600000023841858,-2.240000009536743,-0.8399999737739563
1743895591.7871902,-0.12151200324296951,0.18544000387191772,1.0130879878997803,0.5600000023841858,-2.1700000762939453,-0.8399999737739563
1743895591.8071902,-0.1210239976644516,0.18690399825572968,1.012112021446228,0.6299999952316284,-2.240000009536743,-0.8399999737739563
1743895591.8271902,-0.12443999946117401,0.18544000387191772,1.0174800157546997,0.49000000953674316,-2.1700000762939453,-0.9100000262260437
1743895591.8471901,-0.12200000137090683,0.18544000387191772,1.010159969329834,0.41999998688697815,-2.1700000762939453,-0.8399999737739563
1743895591.8671901,-0.12590399384498596,0.18641600012779236,1.0135760307312012,0.41999998688697815,-2.240000009536743,-0.9100000262260437
1743895591.825431,-0.12492799758911133,0.18641600012779236,1.0106480121612549,0.49000000953674316,-2.309999942779541,-0.9800000190734863
1743895591.845431,-0.12248799949884415,0.1878799945116043,1.0125999450683594,0.2800000011920929,-2.0999999046325684,-0.9100000262260437
1743895591.865431,-0.12443999946117401,0.18592800199985504,1.010159969329834,0.2800000011920929,-2.309999942779541,-0.9800000190734863
1743895591.885431,-0.12443999946117401,0.187391996383667,1.0116239786148071,0.41999998688697815,-2.309999942779541,-0.9100000262260437
1743895591.905431,-0.1239520013332367,0.1849520057439804,1.012112021446228,0.3499999940395355,-2.309999942779541,-0.8399999737739563
1743895591.925431,-0.12248799949884415,0.18641600012779236,1.0125999450683594,0.20999999344348907,-2.240000009536743,-0.9100000262260437
1743895591.858259,-0.12443999946117401,0.18592800199985504,1.012112021446228,0.3499999940395355,-2.240000009536743,-0.9100000262260437
1743895591.878259,-0.12200000137090683,0.18544000387191772,1.0091840028762817,0.2800000011920929,-2.309999942779541,-0.7699999809265137
1743895591.898259,-0.12346400320529938,0.1849520057439804,1.0111360549926758,0.41999998688697815,-2.5199999809265137,-0.699999988079071
1743895591.918259,-0.12346400320529938,0.18397599458694458,1.0111360549926758,0.49000000953674316,-2.380000114440918,-0.8399999737739563
1743895591.938259,-0.12297599762678146,0.18397599458694458,1.0106480121612549,0.41999998688697815,-2.309999942779541,-0.8399999737739563
1743895591.9582589,-0.1239520013332367,0.18592800199985504,1.0106480121612549,0.41999998688697815,-2.450000047683716,-0.8399999737739563
1743895591.889408,-0.11956000328063965,0.18592800199985504,1.012112021446228,0.49000000953674316,-2.309999942779541,-0.8399999737739563
1743895591.909408,-0.1210239976644516,0.1844639927148819,1.0130879878997803,0.5600000023841858,-2.380000114440918,-0.7699999809265137
1743895591.929408,-0.12248799949884415,0.18397599458694458,1.0130879878997803,0.5600000023841858,-2.380000114440918,-0.9100000262260437
1743895591.949408,-0.12492799758911133,0.18592800199985504,1.0135760307312012,0.5600000023841858,-2.450000047683716,-0.7699999809265137
1743895591.969408,-0.1239520013332367,0.18299999833106995,1.0116239786148071,0.49000000953674316,-2.380000114440918,-0.8399999737739563
1743895591.989408,-0.12200000137090683,0.18544000387191772,1.0130879878997803,0.5600000023841858,-2.380000114440918,-0.699999988079071
1743895591.932571,-0.12492799758911133,0.18348799645900726,1.0096720457077026,0.6299999952316284,-2.380000114440918,-0.7699999809265137
1743895591.952571,-0.12443999946117401,0.1849520057439804,1.0111360549926758,0.5600000023841858,-2.450000047683716,-0.8399999737739563
1743895591.972571,-0.1268800050020218,0.1844639927148819,1.0111360549926758,0.49000000953674316,-2.450000047683716,-0.8399999737739563
1743895591.9925709,-0.12297599762678146,0.18592800199985504,1.0135760307312012,0.41999998688697815,-2.450000047683716,-0.7699999809265137
1743895592.0125709,-0.12346400320529938,0.18592800199985504,1.0125999450683594,0.41999998688697815,-2.450000047683716,-0.7699999809265137
1743895592.0325708,-0.1239520013332367,0.18690399825572968,1.010159969329834,0.41999998688697815,-2.309999942779541,-0.9100000262260437
1743895591.993411,-0.12443999946117401,0.18641600012779236,1.0145519971847534,0.49000000953674316,-2.380000114440918,-0.9100000262260437
1743895592.013411,-0.12492799758911133,0.1844639927148819,1.0111360549926758,0.3499999940395355,-2.240000009536743,-0.8399999737739563
1743895592.033411,-0.1239520013332367,0.18299999833106995,1.012112021446228,0.49000000953674316,-2.380000114440918,-0.8399999737739563
1743895592.053411,-0.1239520013332367,0.18592800199985504,1.0125999450683594,0.49000000953674316,-2.240000009536743,-0.8399999737739563
1743895592.073411,-0.12248799949884415,0.18641600012779236,1.0116239786148071,0.41999998688697815,-2.1700000762939453,-0.7699999809265137
1743895592.093411,-0.12346400320529938,0.18592800199985504,1.0130879878997803,0.3499999940395355,-2.380000114440918,-0.9100000262260437
1743895592.039284,-0.1239520013332367,0.18348799645900726,1.0125999450683594,0.5600000023841858,-2.309999942779541,-0.7699999809265137
1743895592.059284,-0.12541599571704865,0.1849520057439804,1.0150400400161743,0.5600000023841858,-2.309999942779541,-0.9100000262260437
1743895592.079284,-0.1239520013332367,0.1849520057439804,1.0111360549926758,0.49000000953674316,-2.1700000762939453,-0.9800000190734863
1743895592.099284,-0.12346400320529938,0.18592800199985504,1.0106480121612549,0.5600000023841858,-2.1700000762939453,-0.9100000262260437
1743895592.119284,-0.12346400320529938,0.18592800199985504,1.0116239786148071,0.49000000953674316,-2.1700000762939453,-0.8399999737739563
1743895592.139284,-0.12200000137090683,0.18397599458694458,1.0111360549926758,0.5600000023841858,-2.240000009536743,-0.9100000262260437
1743895592.068913,-0.1239520013332367,0.18690399825572968,1.0111360549926758,0.5600000023841858,-2.0999999046325684,-0.9100000262260437
1743895592.088913,-0.12200000137090683,0.18592800199985504,1.0106480121612549,0.49000000953674316,-2.380000114440918,-0.7699999809265137
1743895592.108913,-0.12346400320529938,0.18544000387191772,1.0130879878997803,0.3499999940395355,-2.309999942779541,-0.8399999737739563
1743895592.128913,-0.12541599571704865,0.1849520057439804,1.0111360549926758,0.49000000953674316,-2.240000009536743,-0.699999988079071
1743895592.148913,-0.12492799758911133,0.1844639927148819,1.0111360549926758,0.3499999940395355,-2.450000047683716,-0.8399999737739563
1743895592.168913,-0.12200000137090683,0.18641600012779236,1.0140639543533325,0.41999998688697815,-2.309999942779541,-0.699999988079071
1743895592.125355,-0.12248799949884415,0.18544000387191772,1.0111360549926758,0.41999998688697815,-2.380000114440918,-0.8399999737739563
1743895592.145355,-0.12346400320529938,0.18690399825572968,1.0125999450683594,0.49000000953674316,-2.5199999809265137,-0.7699999809265137
1743895592.165355,-0.12346400320529938,0.18592800199985504,1.0135760307312012,0.3499999940395355,-2.380000114440918,-0.7699999809265137
1743895592.185355,-0.12297599762678146,0.1844639927148819,1.0150400400161743,0.3499999940395355,-2.380000114440918,-0.7699999809265137
1743895592.205355,-0.12200000137090683,0.1849520057439804,1.0125999450683594,0.41999998688697815,-2.380000114440918,-0.8399999737739563
1743895592.225355,-0.12151200324296951,0.1844639927148819,1.0111360549926758,0.41999998688697815,-2.309999942779541,-0.7699999809265137
1743895592.1585102,-0.12248799949884415,0.18544000387191772,1.0130879878997803,0.41999998688697815,-2.380000114440918,-0.7699999809265137
1743895592.1785102,-0.12053599953651428,0.18397599458694458,1.0116239786148071,0.3499999940395355,-2.309999942779541,-0.8399999737739563
1743895592.1985102,-0.12200000137090683,0.1849520057439804,1.0106480121612549,0.2800000011920929,-2.309999942779541,-0.9100000262260437
1743895592.2185102,-0.12443999946117401,0.18592800199985504,1.0106480121612549,0.20999999344348907,-2.240000009536743,-0.9100000262260437
1743895592.2385101,-0.1239520013332367,0.18592800199985504,1.012112021446228,0.41999998688697815,-2.380000114440918,-0.8399999737739563
1743895592.25851,-0.12346400320529938,0.18544000387191772,1.0145519971847534,0.5600000023841858,-2.380000114440918,-0.8399999737739563
1743895592.189107,-0.1239520013332367,0.1844639927148819,1.0165040493011475,0.2800000011920929,-2.309999942779541,-0.8399999737739563
1743895592.209107,-0.12297599762678146,0.1849520057439804,1.0135760307312012,0.3499999940395355,-2.240000009536743,-0.9100000262260437
1743895592.229107,-0.12297599762678146,0.18592800199985504,1.0130879878997803,0.49000000953674316,-2.380000114440918,-0.9100000262260437
1743895592.249107,-0.12346400320529938,0.18690399825572968,1.0150400400161743,0.49000000953674316,-2.309999942779541,-1.0499999523162842
1743895592.2691069,-0.12297599762678146,0.1849520057439804,1.0111360549926758,0.49000000953674316,-2.380000114440918,-0.9800000190734863
1743895592.2891068,-0.1239520013332367,0.187391996383667,1.0116239786148071,0.5600000023841858,-2.309999942779541,-0.9100000262260437
1743895592.2482471,-0.12248799949884415,0.18641600012779236,1.0106480121612549,0.5600000023841858,-2.309999942779541,-0.9100000262260437
1743895592.2682471,-0.12541599571704865,0.18690399825572968,1.0096720457077026,0.49000000953674316,-2.240000009536743,-0.7699999809265137
1743895592.288247,-0.12541599571704865,0.1849520057439804,1.0106480121612549,0.5600000023841858,-2.240000009536743,-0.9100000262260437
1743895592.308247,-0.12590399384498596,0.18592800199985504,1.012112021446228,0.6299999952316284,-2.309999942779541,-0.8399999737739563
1743895592.328247,-0.1273680031299591,0.18544000387191772,1.012112021446228,0.6299999952316284,-2.240000009536743,-0.9100000262260437
1743895592.348247,-0.12443999946117401,0.18299999833106995,1.0135760307312012,0.5600000023841858,-2.380000114440918,-0.7699999809265137
1743895592.2786682,-0.12639200687408447,0.18690399825572968,1.0106480121612549,0.49000000953674316,-2.380000114440918,-0.7699999809265137
1743895592.2986681,-0.12297599762678146,0.187391996383667,1.012112021446228,0.5600000023841858,-2.450000047683716,-0.8399999737739563
1743895592.3186681,-0.12492799758911133,0.18934400379657745,1.0116239786148071,0.49000000953674316,-2.309999942779541,-0.8399999737739563
1743895592.338668,-0.12346400320529938,0.18592800199985504,1.0111360549926758,0.5600000023841858,-2.450000047683716,-0.8399999737739563
1743895592.358668,-0.12200000137090683,0.18641600012779236,1.0111360549926758,0.6299999952316284,-2.1700000762939453,-0.8399999737739563
1743895592.378668,-0.12443999946117401,0.18397599458694458,1.0116239786148071,0.6299999952316284,-2.380000114440918,-0.8399999737739563
1743895592.3236732,-0.1210239976644516,0.1849520057439804,1.0125999450683594,0.49000000953674316,-2.450000047683716,-0.8399999737739563
1743895592.3436732,-0.12248799949884415,0.18641600012779236,1.0106480121612549,0.49000000953674316,-2.5199999809265137,-0.8399999737739563
1743895592.3636732,-0.1210239976644516,0.1878799945116043,1.0116239786148071,0.3499999940395355,-2.380000114440918,-0.8399999737739563
1743895592.3836732,-0.12297599762678146,0.1849520057439804,1.010159969329834,0.41999998688697815,-2.380000114440918,-0.7699999809265137
1743895592.4036732,-0.12200000137090683,0.1849520057439804,1.010159969329834,0.3499999940395355,-2.380000114440918,-0.7699999809265137
1743895592.4236732,-0.12151200324296951,0.18592800199985504,1.0106480121612549,0.41999998688697815,-2.450000047683716,-0.699999988079071
1743895592.3694632,-0.1210239976644516,0.18592800199985504,1.0116239786148071,0.49000000953674316,-2.380000114440918,-0.699999988079071
1743895592.3894632,-0.12346400320529938,0.1849520057439804,1.0116239786148071,0.3499999940395355,-2.450000047683716,-0.7699999809265137
1743895592.4094632,-0.12248799949884415,0.18592800199985504,1.0091840028762817,0.3499999940395355,-2.450000047683716,-0.7699999809265137
1743895592.4294631,-0.12200000137090683,0.18641600012779236,1.012112021446228,0.2800000011920929,-2.380000114440918,-0.7699999809265137
1743895592.4494631,-0.1239520013332367,0.18641600012779236,1.0130879878997803,0.3499999940395355,-2.450000047683716,-0.7699999809265137
1743895592.469463,-0.12492799758911133,0.18641600012779236,1.0111360549926758,0.3499999940395355,-2.380000114440918,-0.699999988079071
1743895592.425321,-0.12248799949884415,0.18641600012779236,1.0130879878997803,0.2800000011920929,-2.380000114440918,-0.699999988079071
1743895592.445321,-0.12200000137090683,0.18690399825572968,1.0125999450683594,0.2800000011920929,-2.380000114440918,-0.8399999737739563
1743895592.465321,-0.1239520013332367,0.18544000387191772,1.0096720457077026,0.2800000011920929,-2.309999942779541,-0.7699999809265137
1743895592.485321,-0.12443999946117401,0.18592800199985504,1.0106480121612549,0.20999999344348907,-2.380000114440918,-0.699999988079071
1743895592.505321,-0.12492799758911133,0.18690399825572968,1.0130879878997803,0.20999999344348907,-2.240000009536743,-0.699999988079071
1743895592.525321,-0.1239520013332367,0.1844639927148819,1.0116239786148071,0.20999999344348907,-2.5199999809265137,-0.8399999737739563
1743895592.458378,-0.1239520013332367,0.18836799263954163,1.010159969329834,0.20999999344348907,-2.309999942779541,-0.7699999809265137
1743895592.478378,-0.12443999946117401,0.1844639927148819,1.0125999450683594,0.2800000011920929,-2.309999942779541,-0.8399999737739563
1743895592.498378,-0.1239520013332367,0.18544000387191772,1.012112021446228,0.2800000011920929,-2.380000114440918,-0.7699999809265137
1743895592.518378,-0.12297599762678146,0.187391996383667,1.0096720457077026,0.2800000011920929,-2.309999942779541,-0.7699999809265137
1743895592.538378,-0.12443999946117401,0.1844639927148819,1.010159969329834,0.2800000011920929,-2.309999942779541,-0.8399999737739563
1743895592.558378,-0.12297599762678146,0.18592800199985504,1.0116239786148071,0.3499999940395355,-2.309999942779541,-0.7699999809265137
1743895592.488362,-0.12590399384498596,0.18544000387191772,1.0111360549926758,0.20999999344348907,-2.380000114440918,-0.7699999809265137
1743895592.508362,-0.1239520013332367,0.18544000387191772,1.0116239786148071,0.2800000011920929,-2.380000114440918,-0.8399999737739563
1743895592.528362,-0.1239520013332367,0.18544000387191772,1.0116239786148071,0.2800000011920929,-2.450000047683716,-0.699999988079071
1743895592.548362,-0.12346400320529938,0.18544000387191772,1.0130879878997803,0.20999999344348907,-2.450000047683716,-0.7699999809265137
1743895592.568362,-0.12346400320529938,0.18690399825572968,1.0106480121612549,0.2800000011920929,-2.240000009536743,-0.7699999809265137
1743895592.588362,-0.1239520013332367,0.1849520057439804,1.0130879878997803,0.20999999344348907,-2.309999942779541,-0.699999988079071
1743895592.5482392,-0.12346400320529938,0.1849520057439804,1.0116239786148071,0.20999999344348907,-2.309999942779541,-0.699999988079071
1743895592.5682392,-0.1239520013332367,0.18690399825572968,1.010159969329834,0.2800000011920929,-2.450000047683716,-0.7699999809265137
1743895592.5882392,-0.12248799949884415,0.18397599458694458,1.0116239786148071,0.2800000011920929,-2.450000047683716,-0.699999988079071
1743895592.6082392,-0.1239520013332367,0.18592800199985504,1.0125999450683594,0.20999999344348907,-2.309999942779541,-0.699999988079071
1743895592.6282392,-0.12248799949884415,0.18592800199985504,1.0111360549926758,0.2800000011920929,-2.380000114440918,-0.7699999809265137
1743895592.6482391,-0.1268800050020218,0.18592800199985504,1.0145519971847534,0.20999999344348907,-2.450000047683716,-0.699999988079071
1743895592.593378,-0.12639200687408447,0.1849520057439804,1.0130879878997803,0.3499999940395355,-2.380000114440918,-0.699999988079071
1743895592.613378,-0.12346400320529938,0.18641600012779236,1.0130879878997803,0.20999999344348907,-2.450000047683716,-0.7699999809265137
1743895592.633378,-0.12492799758911133,0.18690399825572968,1.0125999450683594,0.20999999344348907,-2.380000114440918,-0.699999988079071
1743895592.653378,-0.12541599571704865,0.18592800199985504,1.0150400400161743,0.41999998688697815,-2.380000114440918,-0.6299999952316284
1743895592.673378,-0.12492799758911133,0.18592800199985504,1.0150400400161743,0.2800000011920929,-2.450000047683716,-0.699999988079071
1743895592.693378,-0.12151200324296951,0.18592800199985504,1.0130879878997803,0.3499999940395355,-2.450000047683716,-0.6299999952316284
1743895592.638936,-0.12297599762678146,0.18641600012779236,1.0116239786148071,0.3499999940395355,-2.450000047683716,-0.6299999952316284
1743895592.658936,-0.12248799949884415,0.18641600012779236,1.0130879878997803,0.3499999940395355,-2.380000114440918,-0.7699999809265137
1743895592.678936,-0.12443999946117401,0.187391996383667,1.0125999450683594,0.49000000953674316,-2.5199999809265137,-0.6299999952316284
1743895592.698936,-0.12297599762678146,0.18690399825572968,1.0135760307312012,0.41999998688697815,-2.380000114440918,-0.699999988079071
1743895592.718936,-0.12151200324296951,0.18544000387191772,1.0106480121612549,0.41999998688697815,-2.380000114440918,-0.699999988079071
1743895592.738936,-0.12346400320529938,0.18641600012779236,1.0140639543533325,0.3499999940395355,-2.380000114440918,-0.8399999737739563
1743895592.6675432,-0.12297599762678146,0.18641600012779236,1.0125999450683594,0.20999999344348907,-2.309999942779541,-0.7699999809265137
1743895592.6875432,-0.12200000137090683,0.18544000387191772,1.0125999450683594,0.3499999940395355,-2.380000114440918,-0.699999988079071
1743895592.7075431,-0.12346400320529938,0.18397599458694458,1.0096720457077026,0.3499999940395355,-2.309999942779541,-0.7699999809265137
1743895592.727543,-0.12248799949884415,0.18544000387191772,1.012112021446228,0.2800000011920929,-2.450000047683716,-0.7699999809265137
1743895592.747543,-0.1239520013332367,0.1844639927148819,1.0106480121612549,0.3499999940395355,-2.240000009536743,-0.699999988079071
1743895592.767543,-0.12297599762678146,0.18544000387191772,1.0125999450683594,0.3499999940395355,-2.309999942779541,-0.7699999809265137
1743895592.7134311,-0.12297599762678146,0.18690399825572968,1.0096720457077026,0.41999998688697815,-2.380000114440918,-0.7699999809265137
1743895592.733431,-0.12492799758911133,0.18592800199985504,1.0130879878997803,0.49000000953674316,-2.309999942779541,-0.7699999809265137
1743895592.753431,-0.12248799949884415,0.18690399825572968,1.0106480121612549,0.49000000953674316,-2.380000114440918,-0.7699999809265137
1743895592.773431,-0.12248799949884415,0.18836799263954163,1.0106480121612549,0.49000000953674316,-2.240000009536743,-0.699999988079071
1743895592.793431,-0.12541599571704865,0.187391996383667,1.0116239786148071,0.2800000011920929,-2.240000009536743,-0.8399999737739563
1743895592.813431,-0.12541599571704865,0.1849520057439804,1.0091840028762817,0.20999999344348907,-2.380000114440918,-0.699999988079071
1743895592.773053,-0.12492799758911133,0.18544000387191772,1.012112021446228,0.20999999344348907,-2.450000047683716,-0.699999988079071
1743895592.793053,-0.12200000137090683,0.1849520057439804,1.0106480121612549,0.07000000029802322,-2.450000047683716,-0.699999988079071
1743895592.813053,-0.12346400320529938,0.18544000387191772,1.010159969329834,0.14000000059604645,-2.380000114440918,-0.699999988079071
1743895592.8330529,-0.12053599953651428,0.1878799945116043,1.0111360549926758,0.20999999344348907,-2.450000047683716,-0.6299999952316284
1743895592.8530529,-0.1239520013332367,0.18641600012779236,1.0125999450683594,0.20999999344348907,-2.5199999809265137,-0.7699999809265137
1743895592.8730528,-0.12248799949884415,0.187391996383667,1.0116239786148071,0.3499999940395355,-2.5899999141693115,-0.6299999952316284
1743895592.81814,-0.12346400320529938,0.1844639927148819,1.0130879878997803,0.49000000953674316,-2.5199999809265137,-0.6299999952316284
1743895592.83814,-0.12492799758911133,0.1849520057439804,1.0116239786148071,0.41999998688697815,-2.5199999809265137,-0.7699999809265137
1743895592.85814,-0.12346400320529938,0.187391996383667,1.0125999450683594,0.49000000953674316,-2.380000114440918,-0.6299999952316284
1743895592.87814,-0.12492799758911133,0.1844639927148819,1.0116239786148071,0.41999998688697815,-2.450000047683716,-0.6299999952316284
1743895592.89814,-0.12248799949884415,0.18544000387191772,1.0111360549926758,0.41999998688697815,-2.450000047683716,-0.6299999952316284
1743895592.91814,-0.12200000137090683,0.18641600012779236,1.0140639543533325,0.3499999940395355,-2.450000047683716,-0.6299999952316284
1743895592.84824,-0.12541599571704865,0.18592800199985504,1.010159969329834,0.20999999344348907,-2.380000114440918,-0.6299999952316284
1743895592.8682399,-0.12443999946117401,0.1878799945116043,1.0116239786148071,0.20999999344348907,-2.380000114440918,-0.699999988079071
1743895592.8882399,-0.12346400320529938,0.1849520057439804,1.012112021446228,0.2800000011920929,-2.450000047683716,-0.8399999737739563
1743895592.9082398,-0.12346400320529938,0.18690399825572968,1.0130879878997803,0.14000000059604645,-2.380000114440918,-0.7699999809265137
1743895592.9282398,-0.12248799949884415,0.18641600012779236,1.0086959600448608,0.14000000059604645,-2.240000009536743,-0.7699999809265137
1743895592.9482398,-0.12297599762678146,0.1849520057439804,1.0125999450683594,0.20999999344348907,-2.240000009536743,-0.699999988079071
1743895592.907824,-0.12248799949884415,0.1849520057439804,1.012112021446228,0.14000000059604645,-2.380000114440918,-0.8399999737739563
1743895592.927824,-0.12248799949884415,0.18544000387191772,1.0111360549926758,0.14000000059604645,-2.309999942779541,-0.8399999737739563
1743895592.947824,-0.12492799758911133,0.1844639927148819,1.0106480121612549,0.3499999940395355,-2.309999942779541,-0.7699999809265137
1743895592.967824,-0.12200000137090683,0.18397599458694458,1.0125999450683594,0.2800000011920929,-2.450000047683716,-0.7699999809265137
1743895592.987824,-0.12297599762678146,0.1849520057439804,1.0106480121612549,0.2800000011920929,-2.240000009536743,-0.7699999809265137
1743895593.007824,-0.12492799758911133,0.18641600012779236,1.0116239786148071,0.2800000011920929,-2.240000009536743,-0.7699999809265137
1743895592.9387763,-0.12541599571704865,0.1844639927148819,1.012112021446228,0.2800000011920929,-2.380000114440918,-0.7699999809265137
1743895592.9587762,-0.12297599762678146,0.1844639927148819,1.0125999450683594,0.3499999940395355,-2.380000114440918,-0.7699999809265137
1743895592.9787762,-0.1239520013332367,0.1844639927148819,1.0116239786148071,0.41999998688697815,-2.5199999809265137,-0.7699999809265137
1743895592.9987762,-0.12541599571704865,0.18641600012779236,1.012112021446228,0.49000000953674316,-2.5199999809265137,-0.699999988079071
1743895593.0187762,-0.12297599762678146,0.18397599458694458,1.0106480121612549,0.49000000953674316,-2.450000047683716,-0.7699999809265137
1743895593.0387762,-0.12346400320529938,0.18544000387191772,1.0106480121612549,0.41999998688697815,-2.380000114440918,-0.7699999809265137
1743895593.0115652,-0.12297599762678146,0.18544000387191772,1.0111360549926758,0.3499999940395355,-2.450000047683716,-0.7699999809265137
1743895593.0315652,-0.12590399384498596,0.18544000387191772,1.0140639543533325,0.3499999940395355,-2.450000047683716,-0.7699999809265137
1743895593.0515652,-0.12541599571704865,0.1844639927148819,1.0125999450683594,0.2800000011920929,-2.380000114440918,-0.8399999737739563
1743895593.0715652,-0.12248799949884415,0.18544000387191772,1.0130879878997803,0.3499999940395355,-2.309999942779541,-0.699999988079071
1743895593.0915651,-0.12443999946117401,0.1844639927148819,1.0125999450683594,0.2800000011920929,-2.380000114440918,-0.7699999809265137
1743895593.111565,-0.1239520013332367,0.18592800199985504,1.0125999450683594,0.20999999344348907,-2.309999942779541,-0.7699999809265137
1743895593.029352,-0.12346400320529938,0.18544000387191772,1.012112021446228,0.20999999344348907,-2.309999942779541,-0.8399999737739563
1743895593.049352,-0.1239520013332367,0.187391996383667,1.0125999450683594,0.2800000011920929,-2.240000009536743,-0.7699999809265137
1743895593.069352,-0.12200000137090683,0.18641600012779236,1.0096720457077026,0.2800000011920929,-2.380000114440918,-0.7699999809265137
1743895593.089352,-0.12248799949884415,0.18544000387191772,1.0125999450683594,0.20999999344348907,-2.380000114440918,-0.8399999737739563
1743895593.1093519,-0.12297599762678146,0.18641600012779236,1.0140639543533325,0.14000000059604645,-2.380000114440918,-0.6299999952316284
1743895593.1293519,-0.12248799949884415,0.1849520057439804,1.0116239786148071,0.2800000011920929,-2.380000114440918,-0.6299999952316284
1743895593.058006,-0.1210239976644516,0.1849520057439804,1.0135760307312012,0.2800000011920929,-2.309999942779541,-0.7699999809265137
1743895593.078006,-0.12248799949884415,0.1849520057439804,1.0125999450683594,0.14000000059604645,-2.240000009536743,-0.7699999809265137
1743895593.098006,-0.12443999946117401,0.18299999833106995,1.0111360549926758,0.20999999344348907,-2.380000114440918,-0.7699999809265137
1743895593.118006,-0.12346400320529938,0.18592800199985504,1.0125999450683594,0.20999999344348907,-2.380000114440918,-0.699999988079071
1743895593.138006,-0.12151200324296951,0.1849520057439804,1.0106480121612549,0.14000000059604645,-2.309999942779541,-0.8399999737739563
1743895593.158006,-0.12346400320529938,0.18544000387191772,1.0135760307312012,0.20999999344348907,-2.240000009536743,-0.699999988079071
1743895593.104244,-0.12248799949884415,0.1820240020751953,1.0125999450683594,0.3499999940395355,-2.380000114440918,-0.8399999737739563
1743895593.124244,-0.12053599953651428,0.1849520057439804,1.0130879878997803,0.2800000011920929,-2.380000114440918,-0.7699999809265137
1743895593.144244,-0.24887999892234802,0.1849520057439804,1.0125999450683594,0.2800000011920929,-2.309999942779541,-0.8399999737739563
1743895593.164244,-0.12443999946117401,0.18592800199985504,1.0125999450683594,0.3499999940395355,-2.240000009536743,-0.699999988079071
1743895593.184244,-0.1210239976644516,0.1849520057439804,1.0135760307312012,0.20999999344348907,-2.1700000762939453,-0.7699999809265137
1743895593.204244,-0.12200000137090683,0.18592800199985504,1.012112021446228,0.2800000011920929,-2.240000009536743,-0.8399999737739563
1743895593.149208,-0.12200000137090683,0.18544000387191772,1.0106480121612549,0.2800000011920929,-2.309999942779541,-0.8399999737739563
1743895593.169208,-0.12443999946117401,0.18641600012779236,1.0116239786148071,0.41999998688697815,-2.240000009536743,-0.8399999737739563
1743895593.189208,-0.1239520013332367,0.18592800199985504,1.0106480121612549,0.3499999940395355,-2.240000009536743,-0.9100000262260437
1743895593.209208,-0.12200000137090683,0.18397599458694458,1.0125999450683594,0.3499999940395355,-2.309999942779541,-0.7699999809265137
1743895593.229208,-0.12200000137090683,0.1849520057439804,1.012112021446228,0.3499999940395355,-2.450000047683716,-0.7699999809265137
1743895593.249208,-0.12297599762678146,0.18592800199985504,1.010159969329834,0.3499999940395355,-2.380000114440918,-0.8399999737739563
1743895593.205927,-0.12492799758911133,0.18348799645900726,1.0111360549926758,0.2800000011920929,-2.380000114440918,-0.699999988079071
1743895593.2259269,-0.12492799758911133,0.1844639927148819,1.0145519971847534,0.3499999940395355,-2.5199999809265137,-0.699999988079071
1743895593.2459269,-0.12346400320529938,0.18544000387191772,1.0135760307312012,0.41999998688697815,-2.380000114440918,-0.699999988079071
1743895593.2659268,-0.12346400320529938,0.1849520057439804,1.0130879878997803,0.3499999940395355,-2.450000047683716,-0.7699999809265137
1743895593.2859268,-0.1239520013332367,0.18544000387191772,1.0145519971847534,0.5600000023841858,-2.5899999141693115,-0.6299999952316284
1743895593.3059268,-0.12248799949884415,0.18592800199985504,1.012112021446228,0.49000000953674316,-2.5199999809265137,-0.7699999809265137
1743895593.223282,-0.12248799949884415,0.18299999833106995,1.0116239786148071,0.41999998688697815,-2.450000047683716,-0.7699999809265137
1743895593.243282,-0.12297599762678146,0.181536003947258,1.0125999450683594,0.41999998688697815,-2.450000047683716,-0.7699999809265137
1743895593.263282,-0.12151200324296951,0.18007199466228485,1.0106480121612549,0.3499999940395355,-2.5199999809265137,-0.8399999737739563
1743895593.283282,-0.12297599762678146,0.18641600012779236,1.0106480121612549,0.41999998688697815,-2.5199999809265137,-0.699999988079071
1743895593.303282,-0.12297599762678146,0.18592800199985504,1.0116239786148071,0.41999998688697815,-2.450000047683716,-0.699999988079071
1743895593.323282,-0.1210239976644516,0.18592800199985504,1.0140639543533325,0.2800000011920929,-2.380000114440918,-0.7699999809265137
1743895593.310966,-0.12151200324296951,0.18641600012779236,1.0130879878997803,0.3499999940395355,-2.450000047683716,-0.8399999737739563
1743895593.330966,-0.12492799758911133,0.1849520057439804,1.0140639543533325,0.41999998688697815,-2.380000114440918,-0.8399999737739563
1743895593.350966,-0.1210239976644516,0.18690399825572968,1.0130879878997803,0.41999998688697815,-2.380000114440918,-0.8399999737739563
1743895593.370966,-0.12297599762678146,0.1844639927148819,1.0135760307312012,0.41999998688697815,-2.309999942779541,-0.9100000262260437
1743895593.390966,-0.12248799949884415,0.18592800199985504,1.012112021446228,0.41999998688697815,-2.309999942779541,-0.9100000262260437
1743895593.410966,-0.12443999946117401,0.18641600012779236,1.0106480121612549,0.49000000953674316,-2.240000009536743,-0.7699999809265137
1743895593.313014,-0.12200000137090683,0.18690399825572968,1.0111360549926758,0.41999998688697815,-2.0999999046325684,-0.9100000262260437
1743895593.333014,-0.1239520013332367,0.18641600012779236,1.0111360549926758,0.3499999940395355,-2.1700000762939453,-0.8399999737739563
1743895593.353014,-0.1239520013332367,0.18544000387191772,1.0091840028762817,0.3499999940395355,-2.309999942779541,-0.7699999809265137
1743895593.373014,-0.12346400320529938,0.1844639927148819,1.0091840028762817,0.3499999940395355,-2.0999999046325684,-0.8399999737739563
1743895593.393014,-0.12639200687408447,0.1844639927148819,1.010159969329834,0.2800000011920929,-2.309999942779541,-0.7699999809265137
1743895593.413014,-0.1239520013332367,0.18544000387191772,1.0150400400161743,0.3499999940395355,-2.240000009536743,-0.699999988079071
1743895593.3731022,-0.12053599953651428,0.1878799945116043,1.0116239786148071,0.2800000011920929,-2.380000114440918,-0.7699999809265137
1743895593.3931022,-0.12346400320529938,0.18544000387191772,1.0130879878997803,0.2800000011920929,-2.380000114440918,-0.7699999809265137
1743895593.4131021,-0.12248799949884415,0.18690399825572968,1.0111360549926758,0.2800000011920929,-2.309999942779541,-0.699999988079071
1743895593.4331021,-0.12248799949884415,0.1849520057439804,1.0111360549926758,0.41999998688697815,-2.380000114440918,-0.7699999809265137
1743895593.453102,-0.12248799949884415,0.18544000387191772,1.0091840028762817,0.3499999940395355,-2.380000114440918,-0.699999988079071
1743895593.473102,-0.12248799949884415,0.18641600012779236,1.0140639543533325,0.41999998688697815,-2.450000047683716,-0.7699999809265137
1743895593.4032202,-0.12346400320529938,0.18544000387191772,1.0096720457077026,0.3499999940395355,-2.240000009536743,-0.9100000262260437
1743895593.4232202,-0.12443999946117401,0.18397599458694458,1.0135760307312012,0.2800000011920929,-2.380000114440918,-0.7699999809265137
1743895593.4432201,-0.12492799758911133,0.1844639927148819,1.0111360549926758,0.20999999344348907,-2.309999942779541,-0.7699999809265137
1743895593.4632201,-0.12200000137090683,0.1849520057439804,1.0106480121612549,0.3499999940395355,-2.380000114440918,-0.7699999809265137
1743895593.48322,-0.12248799949884415,0.18397599458694458,1.010159969329834,0.3499999940395355,-2.1700000762939453,-0.7699999809265137
1743895593.50322,-0.1210239976644516,0.18641600012779236,1.0116239786148071,0.3499999940395355,-2.309999942779541,-0.8399999737739563
1743895593.460792,-0.12248799949884415,0.1849520057439804,1.0155279636383057,0.3499999940395355,-2.450000047683716,-0.7699999809265137
1743895593.480792,-0.12151200324296951,0.1844639927148819,1.0125999450683594,0.41999998688697815,-2.309999942779541,-0.8399999737739563
1743895593.500792,-0.12297599762678146,0.18397599458694458,1.012112021446228,0.3499999940395355,-2.380000114440918,-0.699999988079071
1743895593.520792,-0.12492799758911133,0.18592800199985504,1.012112021446228,0.3499999940395355,-2.5199999809265137,-0.8399999737739563
1743895593.540792,-0.12443999946117401,0.18348799645900726,1.0125999450683594,0.2800000011920929,-2.240000009536743,-0.8399999737739563
1743895593.560792,-0.12248799949884415,0.1849520057439804,1.0130879878997803,0.2800000011920929,-2.380000114440918,-0.8399999737739563
1743895593.5090892,-0.12200000137090683,0.1844639927148819,1.0116239786148071,0.14000000059604645,-2.450000047683716,-0.699999988079071
1743895593.5290892,-0.12248799949884415,0.18299999833106995,1.010159969329834,0.20999999344348907,-2.309999942779541,-0.7699999809265137
1743895593.5490892,-0.12297599762678146,0.18544000387191772,1.0135760307312012,0.14000000059604645,-2.309999942779541,-0.699999988079071
1743895593.5690892,-0.12297599762678146,0.1849520057439804,1.0111360549926758,0.14000000059604645,-2.309999942779541,-0.699999988079071
1743895593.5890892,-0.12248799949884415,0.18299999833106995,1.0116239786148071,0.20999999344348907,-2.380000114440918,-0.699999988079071
1743895593.6090891,-0.12443999946117401,0.1844639927148819,1.0135760307312012,0.20999999344348907,-2.380000114440918,-0.7699999809265137
1743895593.538815,-0.12443999946117401,0.18397599458694458,1.0150400400161743,0.2800000011920929,-2.309999942779541,-0.699999988079071
1743895593.558815,-0.1239520013332367,0.18544000387191772,1.0125999450683594,0.2800000011920929,-2.309999942779541,-0.699999988079071
1743895593.578815,-0.1239520013332367,0.1844639927148819,1.012112021446228,0.3499999940395355,-2.380000114440918,-0.699999988079071
1743895593.598815,-0.12443999946117401,0.1849520057439804,1.0111360549926758,0.2800000011920929,-2.380000114440918,-0.7699999809265137
1743895593.618815,-0.12346400320529938,0.18544000387191772,1.0135760307312012,0.3499999940395355,-2.309999942779541,-0.7699999809265137
1743895593.638815,-0.12443999946117401,0.18544000387191772,1.0106480121612549,0.2800000011920929,-2.380000114440918,-0.7699999809265137
1743895593.611253,-0.12346400320529938,0.18592800199985504,1.0111360549926758,0.3499999940395355,-2.1700000762939453,-0.8399999737739563
1743895593.631253,-0.12297599762678146,0.18397599458694458,1.0125999450683594,0.2800000011920929,-2.380000114440918,-0.699999988079071
1743895593.651253,-0.1239520013332367,0.187391996383667,1.0125999450683594,0.3499999940395355,-2.309999942779541,-0.8399999737739563
1743895593.671253,-0.12443999946117401,0.1844639927148819,1.0106480121612549,0.20999999344348907,-2.380000114440918,-0.699999988079071
1743895593.691253,-0.12248799949884415,0.18641600012779236,1.0116239786148071,0.20999999344348907,-2.450000047683716,-0.7699999809265137
1743895593.711253,-0.12346400320529938,0.18592800199985504,1.0096720457077026,0.14000000059604645,-2.1700000762939453,-0.7699999809265137
1743895593.614312,-0.1239520013332367,0.18544000387191772,1.010159969329834,0.20999999344348907,-2.1700000762939453,-0.9100000262260437
1743895593.634312,-0.12297599762678146,0.18641600012779236,1.0116239786148071,0.20999999344348907,-2.240000009536743,-0.9100000262260437
1743895593.654312,-0.1239520013332367,0.18544000387191772,1.0086959600448608,0.20999999344348907,-2.309999942779541,-0.8399999737739563
1743895593.6743119,-0.12297599762678146,0.1844639927148819,1.0096720457077026,0.20999999344348907,-2.380000114440918,-0.7699999809265137
1743895593.6943119,-0.1239520013332367,0.18397599458694458,1.010159969329834,0.2800000011920929,-2.240000009536743,-0.699999988079071
1743895593.7143118,-0.12248799949884415,0.1844639927148819,1.0116239786148071,0.14000000059604645,-2.380000114440918,-0.699999988079071
1743895593.6580482,-0.12248799949884415,0.18397599458694458,1.0125999450683594,0.14000000059604645,-2.309999942779541,-0.8399999737739563
1743895593.6780481,-0.12297599762678146,0.18348799645900726,1.0116239786148071,0.2800000011920929,-2.309999942779541,-0.699999988079071
1743895593.698048,-0.12297599762678146,0.18544000387191772,1.0140639543533325,0.20999999344348907,-2.450000047683716,-0.699999988079071
1743895593.718048,-0.12248799949884415,0.18348799645900726,1.012112021446228,0.14000000059604645,-2.309999942779541,-0.7699999809265137
1743895593.738048,-0.1210239976644516,0.1849520057439804,1.0130879878997803,0.3499999940395355,-2.380000114440918,-0.7699999809265137
1743895593.758048,-0.12443999946117401,0.18592800199985504,1.0140639543533325,0.3499999940395355,-2.380000114440918,-0.7699999809265137
1743895593.701915,-0.12443999946117401,0.1844639927148819,1.012112021446228,0.3499999940395355,-2.5199999809265137,-0.699999988079071
1743895593.721915,-0.12346400320529938,0.18348799645900726,1.0145519971847534,0.2800000011920929,-2.5199999809265137,-0.7699999809265137
1743895593.741915,-0.12639200687408447,0.18397599458694458,1.0125999450683594,0.41999998688697815,-2.309999942779541,-0.699999988079071
1743895593.761915,-0.12492799758911133,0.1844639927148819,1.0145519971847534,0.3499999940395355,-2.450000047683716,-0.699999988079071
1743895593.781915,-0.12492799758911133,0.18592800199985504,1.012112021446228,0.41999998688697815,-2.380000114440918,-0.699999988079071
1743895593.801915,-0.12297599762678146,0.18690399825572968,1.0125999450683594,0.3499999940395355,-2.380000114440918,-0.7699999809265137
1743895593.752468,-0.1239520013332367,0.1844639927148819,1.0116239786148071,0.49000000953674316,-2.1700000762939453,-0.7699999809265137
1743895593.772468,-0.12053599953651428,0.18641600012779236,1.012112021446228,0.2800000011920929,-2.240000009536743,-0.9100000262260437
1743895593.792468,-0.1210239976644516,0.18592800199985504,1.0116239786148071,0.2800000011920929,-2.309999942779541,-0.8399999737739563
1743895593.812468,-0.12248799949884415,0.187391996383667,1.012112021446228,0.2800000011920929,-2.309999942779541,-0.699999988079071
1743895593.832468,-0.12346400320529938,0.1849520057439804,1.0116239786148071,0.2800000011920929,-2.309999942779541,-0.7699999809265137
1743895593.852468,-0.12346400320529938,0.18592800199985504,1.0125999450683594,0.20999999344348907,-2.450000047683716,-0.699999988079071
1743895593.778068,-0.1239520013332367,0.18299999833106995,1.0125999450683594,0.14000000059604645,-2.309999942779541,-0.7699999809265137
