Timestamp,AccelX,AccelY,AccelZ,GyroX,GyroY,GyroZ
1743895587.545586,-0.5592479705810547,0.8027600049972534,0.2942639887332916,1.4700000286102295,-2.5199999809265137,-0.5600000023841858
1743895587.565586,-0.5582720041275024,0.8042240142822266,0.2962160110473633,1.5399999618530273,-2.450000047683716,-0.6299999952316284
1743895587.585586,-0.5602239966392517,0.8042240142822266,0.29572799801826477,1.4700000286102295,-2.309999942779541,-0.5600000023841858
1743895587.605586,-0.5577840209007263,0.8051999807357788,0.2942639887332916,1.6799999475479126,-2.380000114440918,-0.6299999952316284
1743895587.625586,-0.5577840209007263,0.8056880235671997,0.293287992477417,1.399999976158142,-2.309999942779541,-0.5600000023841858
1743895587.645586,-0.5607119798660278,0.8037359714508057,0.29182401299476624,1.6799999475479126,-2.450000047683716,-0.5600000023841858
1743895587.590136,-0.5612000226974487,0.8047119975090027,0.2903600037097931,1.6100000143051147,-2.5199999809265137,-0.6299999952316284
1743895587.610136,-0.563152015209198,0.8047119975090027,0.2913359999656677,1.6100000143051147,-2.450000047683716,-0.6299999952316284
1743895587.630136,-0.5646160244941711,0.8061760067939758,0.29182401299476624,1.75,-2.6600000858306885,-0.8399999737739563
1743895587.650136,-0.5655919909477234,0.8032479882240295,0.2913359999656677,1.75,-2.869999885559082,-0.699999988079071
1743895587.670136,-0.5641279816627502,0.8037359714508057,0.29182401299476624,1.75,-3.009999990463257,-0.7699999809265137
1743895587.690136,-0.563152015209198,0.8022720217704773,0.2908479869365692,1.6100000143051147,-3.0799999237060547,-0.699999988079071
1743895587.634593,-0.5646160244941711,0.8056880235671997,0.29280000925064087,1.6100000143051147,-2.940000057220459,-0.699999988079071
1743895587.654593,-0.5636399984359741,0.806663990020752,0.29182401299476624,1.399999976158142,-2.869999885559082,-0.699999988079071
1743895587.674593,-0.562175989151001,0.8037359714508057,0.29182401299476624,1.1200000047683716,-2.7300000190734863,-0.699999988079071
1743895587.694593,-0.562175989151001,0.8071519732475281,0.2937760055065155,0.9100000262260437,-2.450000047683716,-0.49000000953674316
1743895587.714593,-0.563152015209198,0.8061760067939758,0.29280000925064087,0.6299999952316284,-2.5199999809265137,-0.5600000023841858
1743895587.734593,-0.5636399984359741,0.8017839789390564,0.29182401299476624,0.49000000953674316,-2.450000047683716,-0.5600000023841858
1743895587.6801372,-0.5612000226974487,0.8056880235671997,0.2942639887332916,-0.20999999344348907,-1.9600000381469727,-0.9100000262260437
1743895587.7001371,-0.5607119798660278,0.774944007396698,0.2776719927787781,0.3499999940395355,-2.240000009536743,-0.2800000011920929
1743895587.7201371,-0.5612000226974487,0.8134959936141968,0.3001199960708618,0.9800000190734863,-2.799999952316284,-0.6299999952316284
1743895587.740137,-0.5587599873542786,0.8012959957122803,0.2869440019130707,0.9100000262260437,-2.869999885559082,-0.5600000023841858
1743895587.760137,-0.5592479705810547,0.8008080124855042,0.2908479869365692,0.9100000262260437,-2.869999885559082,-0.49000000953674316
1743895587.780137,-0.5602239966392517,0.8037359714508057,0.28889599442481995,1.1200000047683716,-2.940000057220459,-0.5600000023841858
1743895587.724606,-0.5616880059242249,0.8037359714508057,0.293287992477417,1.190000057220459,-2.940000057220459,-0.5600000023841858
1743895587.744606,-0.5597360134124756,0.8037359714508057,0.2913359999656677,1.190000057220459,-2.940000057220459,-0.49000000953674316
1743895587.764606,-0.5626639723777771,0.8027600049972534,0.2903600037097931,1.190000057220459,-2.869999885559082,-0.3499999940395355
1743895587.784606,-0.5616880059242249,0.8042240142822266,0.29475200176239014,1.190000057220459,-2.869999885559082,-0.3499999940395355
1743895587.804606,-0.562175989151001,0.8017839789390564,0.2962160110473633,1.190000057220459,-2.799999952316284,-0.2800000011920929
1743895587.824606,-0.5607119798660278,0.8027600049972534,0.29231199622154236,1.2599999904632568,-2.799999952316284,-0.41999998688697815
1743895587.769293,-0.5607119798660278,0.8037359714508057,0.29572799801826477,1.3300000429153442,-3.009999990463257,-0.41999998688697815
1743895587.789293,-0.5607119798660278,0.8017839789390564,0.29524001479148865,1.3300000429153442,-2.869999885559082,-0.49000000953674316
1743895587.809293,-0.5592479705810547,0.8032479882240295,0.2942639887332916,1.5399999618530273,-3.009999990463257,-0.5600000023841858
1743895587.829293,-0.5607119798660278,0.8032479882240295,0.29475200176239014,1.399999976158142,-2.940000057220459,-0.5600000023841858
1743895587.849293,-0.5597360134124756,0.8027600049972534,0.2942639887332916,1.3300000429153442,-2.869999885559082,-0.6299999952316284
1743895587.869293,-0.5582720041275024,0.8022720217704773,0.29280000925064087,1.2599999904632568,-2.7300000190734863,-0.699999988079071
1743895587.815303,-0.5602239966392517,0.8037359714508057,0.2913359999656677,1.2599999904632568,-2.799999952316284,-0.6299999952316284
1743895587.835303,-0.5553439855575562,0.8047119975090027,0.29475200176239014,1.1200000047683716,-2.799999952316284,-0.699999988079071
1743895587.855303,-0.5602239966392517,0.8027600049972534,0.29231199622154236,0.8399999737739563,-2.6600000858306885,-0.7699999809265137
1743895587.875303,-0.5592479705810547,0.8042240142822266,0.2937760055065155,0.9100000262260437,-2.5899999141693115,-0.6299999952316284
1743895587.895303,-0.5572959780693054,0.8037359714508057,0.29572799801826477,0.9800000190734863,-2.450000047683716,-0.699999988079071
1743895587.915303,-0.5597360134124756,0.8027600049972534,0.2913359999656677,1.190000057220459,-2.450000047683716,-0.5600000023841858
1743895587.8600693,-0.5577840209007263,0.8012959957122803,0.2962160110473633,1.190000057220459,-2.5899999141693115,-0.6299999952316284
1743895587.8800693,-0.5572959780693054,0.8027600049972534,0.293287992477417,1.2599999904632568,-2.380000114440918,-0.5600000023841858
1743895587.9000692,-0.5577840209007263,0.8042240142822266,0.29572799801826477,1.3300000429153442,-2.380000114440918,-0.699999988079071
1743895587.9200692,-0.5592479705810547,0.8037359714508057,0.2913359999656677,1.2599999904632568,-2.450000047683716,-0.699999988079071
1743895587.9400692,-0.5592479705810547,0.8047119975090027,0.29182401299476624,1.2599999904632568,-2.380000114440918,-0.7699999809265137
1743895587.9600692,-0.5592479705810547,0.8037359714508057,0.293287992477417,1.190000057220459,-2.450000047683716,-0.7699999809265137
1743895587.9042063,-0.5612000226974487,0.8051999807357788,0.29182401299476624,1.3300000429153442,-2.450000047683716,-0.699999988079071
1743895587.9242063,-0.5616880059242249,0.8051999807357788,0.2942639887332916,1.3300000429153442,-2.309999942779541,-0.8399999737739563
1743895587.9442062,-0.5607119798660278,0.8047119975090027,0.29475200176239014,1.3300000429153442,-2.309999942779541,-0.7699999809265137
1743895587.9642062,-0.5626639723777771,0.8032479882240295,0.29280000925064087,1.4700000286102295,-2.380000114440918,-0.6299999952316284
1743895587.9842062,-0.562175989151001,0.8037359714508057,0.293287992477417,1.6100000143051147,-2.380000114440918,-0.49000000953674316
1743895588.0042062,-0.5612000226974487,0.8027600049972534,0.293287992477417,1.6100000143051147,-2.309999942779541,-0.6299999952316284
1743895587.935234,-0.5607119798660278,0.8022720217704773,0.29231199622154236,1.6799999475479126,-2.309999942779541,-0.49000000953674316
1743895587.955234,-0.5587599873542786,0.8022720217704773,0.2903600037097931,1.5399999618530273,-2.309999942779541,-0.5600000023841858
1743895587.975234,-0.5616880059242249,0.8022720217704773,0.29231199622154236,1.4700000286102295,-2.380000114440918,-0.41999998688697815
1743895587.995234,-0.5626639723777771,0.8047119975090027,0.2903600037097931,1.2599999904632568,-2.380000114440918,-0.3499999940395355
1743895588.015234,-0.5626639723777771,0.8051999807357788,0.29231199622154236,1.2599999904632568,-2.309999942779541,-0.3499999940395355
1743895588.035234,-0.5602239966392517,0.8032479882240295,0.2942639887332916,1.2599999904632568,-2.380000114440918,-0.3499999940395355
1743895587.9802182,-0.5616880059242249,0.8056880235671997,0.2903600037097931,1.399999976158142,-2.380000114440918,-0.41999998688697815
1743895588.0002182,-0.5597360134124756,0.8037359714508057,0.29182401299476624,1.4700000286102295,-2.5899999141693115,-0.41999998688697815
1743895588.0202181,-0.5572959780693054,0.8032479882240295,0.29182401299476624,1.6100000143051147,-2.5199999809265137,-0.41999998688697815
1743895588.040218,-0.5612000226974487,0.8037359714508057,0.29231199622154236,1.190000057220459,-2.450000047683716,-0.41999998688697815
1743895588.060218,-0.5607119798660278,0.8037359714508057,0.2903600037097931,1.3300000429153442,-2.5899999141693115,-0.5600000023841858
1743895588.080218,-0.5607119798660278,0.8037359714508057,0.28938400745391846,1.1200000047683716,-2.6600000858306885,-0.5600000023841858
1743895588.0402381,-0.5626639723777771,0.8051999807357788,0.28938400745391846,1.1200000047683716,-2.6600000858306885,-0.49000000953674316
1743895588.0602381,-0.5602239966392517,0.8027600049972534,0.29280000925064087,1.190000057220459,-2.5899999141693115,-0.6299999952316284
1743895588.080238,-0.5582720041275024,0.8047119975090027,0.29280000925064087,1.3300000429153442,-2.7300000190734863,-0.5600000023841858
1743895588.100238,-0.5607119798660278,0.806663990020752,0.2913359999656677,1.190000057220459,-2.7300000190734863,-0.5600000023841858
1743895588.120238,-0.5597360134124756,0.8061760067939758,0.2903600037097931,1.399999976158142,-2.7300000190734863,-0.6299999952316284
1743895588.140238,-0.5587599873542786,0.8061760067939758,0.29280000925064087,1.3300000429153442,-2.7300000190734863,-0.699999988079071
1743895588.0823371,-0.5602239966392517,0.8071519732475281,0.29231199622154236,1.2599999904632568,-2.940000057220459,-0.6299999952316284
1743895588.1023371,-0.5587599873542786,0.806663990020752,0.293287992477417,1.4700000286102295,-2.869999885559082,-0.6299999952316284
1743895588.122337,-0.5597360134124756,0.8071519732475281,0.29231199622154236,1.399999976158142,-2.940000057220459,-0.7699999809265137
1743895588.142337,-0.5597360134124756,0.8037359714508057,0.29182401299476624,1.399999976158142,-2.869999885559082,-0.7699999809265137
1743895588.162337,-0.5612000226974487,0.8042240142822266,0.2908479869365692,1.190000057220459,-2.799999952316284,-0.699999988079071
1743895588.182337,-0.5582720041275024,0.8027600049972534,0.2908479869365692,1.399999976158142,-2.799999952316284,-0.7699999809265137
1743895588.1153092,-0.5612000226974487,0.8032479882240295,0.29280000925064087,1.190000057220459,-2.7300000190734863,-0.699999988079071
1743895588.1353092,-0.562175989151001,0.8032479882240295,0.2903600037097931,1.4700000286102295,-2.7300000190734863,-0.699999988079071
1743895588.1553092,-0.5592479705810547,0.8037359714508057,0.2913359999656677,1.4700000286102295,-2.5899999141693115,-0.6299999952316284
1743895588.1753092,-0.5612000226974487,0.8037359714508057,0.293287992477417,1.5399999618530273,-2.6600000858306885,-0.6299999952316284
1743895588.1953092,-0.5607119798660278,0.8027600049972534,0.29231199622154236,1.75,-2.6600000858306885,-0.699999988079071
1743895588.2153091,-0.5597360134124756,0.8032479882240295,0.2913359999656677,1.75,-2.6600000858306885,-0.7699999809265137
1743895588.178949,-0.5587599873542786,0.8032479882240295,0.293287992477417,1.8200000524520874,-2.7300000190734863,-0.6299999952316284
1743895588.198949,-0.5597360134124756,0.8032479882240295,0.29182401299476624,1.9600000381469727,-2.7300000190734863,-0.6299999952316284
1743895588.218949,-0.5572959780693054,0.8022720217704773,0.2913359999656677,2.0299999713897705,-2.7300000190734863,-0.49000000953674316
1743895588.238949,-0.5607119798660278,0.8037359714508057,0.29280000925064087,1.8899999856948853,-2.7300000190734863,-0.41999998688697815
1743895588.258949,-0.5597360134124756,0.8042240142822266,0.2913359999656677,1.6799999475479126,-2.6600000858306885,-0.49000000953674316
1743895588.278949,-0.5582720041275024,0.8047119975090027,0.2903600037097931,1.5399999618530273,-2.450000047683716,-0.3499999940395355
1743895588.198088,-0.5597360134124756,0.8042240142822266,0.2898719906806946,1.3300000429153442,-2.380000114440918,-0.3499999940395355
1743895588.218088,-0.5592479705810547,0.8027600049972534,0.29182401299476624,1.190000057220459,-2.240000009536743,-0.2800000011920929
1743895588.238088,-0.5616880059242249,0.8042240142822266,0.2913359999656677,1.0499999523162842,-2.309999942779541,-0.2800000011920929
1743895588.2580879,-0.5641279816627502,0.8056880235671997,0.2884080111980438,0.8399999737739563,-2.309999942779541,-0.2800000011920929
1743895588.2780879,-0.5607119798660278,0.8061760067939758,0.2913359999656677,0.9100000262260437,-2.240000009536743,-0.2800000011920929
1743895588.2980878,-0.5607119798660278,0.8047119975090027,0.29231199622154236,0.8399999737739563,-2.309999942779541,-0.3499999940395355
1743895588.2352803,-0.5587599873542786,0.8061760067939758,0.29182401299476624,0.7699999809265137,-2.309999942779541,-0.41999998688697815
1743895588.2552803,-0.5607119798660278,0.8071519732475281,0.2913359999656677,0.7699999809265137,-2.5199999809265137,-0.49000000953674316
1743895588.2752802,-0.5597360134124756,0.8061760067939758,0.2903600037097931,0.699999988079071,-2.380000114440918,-0.49000000953674316
1743895588.2952802,-0.5602239966392517,0.8051999807357788,0.2903600037097931,0.5600000023841858,-2.309999942779541,-0.5600000023841858
1743895588.3152802,-0.5577840209007263,0.8095920085906982,0.2913359999656677,0.41999998688697815,-2.1700000762939453,-0.8399999737739563
1743895588.3352802,-0.5572959780693054,0.8086159825325012,0.29182401299476624,-0.20999999344348907,-2.1700000762939453,-0.8399999737739563
1743895588.2814622,-0.5626639723777771,0.7959280014038086,0.29816800355911255,-0.41999998688697815,-2.309999942779541,-1.0499999523162842
1743895588.3014622,-0.5607119798660278,0.8027600049972534,0.29280000925064087,1.190000057220459,-2.450000047683716,-0.9800000190734863
1743895588.3214622,-0.5602239966392517,0.8071519732475281,0.29231199622154236,0.9800000190734863,-2.5199999809265137,-0.9800000190734863
1743895588.3414621,-0.5582720041275024,0.8027600049972534,0.2937760055065155,1.0499999523162842,-2.5199999809265137,-0.8399999737739563
1743895588.361462,-0.5587599873542786,0.8047119975090027,0.293287992477417,1.1200000047683716,-2.5899999141693115,-0.9800000190734863
1743895588.381462,-0.5602239966392517,0.8027600049972534,0.2942639887332916,1.190000057220459,-2.7300000190734863,-1.0499999523162842
1743895588.354069,-0.5577840209007263,0.8022720217704773,0.2913359999656677,1.2599999904632568,-2.6600000858306885,-0.9800000190734863
1743895588.374069,-0.5602239966392517,0.8047119975090027,0.2903600037097931,1.399999976158142,-2.7300000190734863,-0.9800000190734863
1743895588.394069,-0.5612000226974487,0.8022720217704773,0.29182401299476624,1.6100000143051147,-2.5899999141693115,-0.8399999737739563
1743895588.414069,-0.5607119798660278,0.8022720217704773,0.2908479869365692,1.4700000286102295,-2.5899999141693115,-0.8399999737739563
1743895588.434069,-0.5602239966392517,0.8027600049972534,0.29280000925064087,1.399999976158142,-2.6600000858306885,-0.9100000262260437
1743895588.454069,-0.5587599873542786,0.8022720217704773,0.2908479869365692,1.399999976158142,-2.5199999809265137,-0.8399999737739563
1743895588.3569322,-0.5602239966392517,0.8027600049972534,0.2903600037097931,1.3300000429153442,-2.380000114440918,-0.6299999952316284
1743895588.3769321,-0.5612000226974487,0.8032479882240295,0.2898719906806946,1.3300000429153442,-2.309999942779541,-0.6299999952316284
1743895588.3969321,-0.5597360134124756,0.8037359714508057,0.2908479869365692,1.1200000047683716,-2.1700000762939453,-0.5600000023841858
1743895588.416932,-0.5592479705810547,0.8037359714508057,0.2884080111980438,1.0499999523162842,-2.0999999046325684,-0.49000000953674316
1743895588.436932,-0.5582720041275024,0.8042240142822266,0.29182401299476624,1.1200000047683716,-2.309999942779541,-0.49000000953674316
1743895588.456932,-0.5607119798660278,0.806663990020752,0.2913359999656677,0.7699999809265137,-2.1700000762939453,-0.3499999940395355
1743895588.4007382,-0.5587599873542786,0.8051999807357788,0.29182401299476624,0.9800000190734863,-2.1700000762939453,-0.3499999940395355
1743895588.4207382,-0.5582720041275024,0.8051999807357788,0.29280000925064087,0.8399999737739563,-2.1700000762939453,-0.41999998688697815
1743895588.4407382,-0.5582720041275024,0.8051999807357788,0.2903600037097931,0.9100000262260437,-2.380000114440918,-0.49000000953674316
1743895588.4607382,-0.5592479705810547,0.8056880235671997,0.293287992477417,1.1200000047683716,-2.450000047683716,-0.41999998688697815
1743895588.4807382,-0.5592479705810547,0.8071519732475281,0.2908479869365692,0.9800000190734863,-2.450000047683716,-0.49000000953674316
1743895588.5007381,-0.5597360134124756,0.8051999807357788,0.29182401299476624,1.0499999523162842,-2.380000114440918,-0.49000000953674316
1743895588.4570053,-0.5592479705810547,0.8037359714508057,0.29182401299476624,1.1200000047683716,-2.380000114440918,-0.49000000953674316
1743895588.4770052,-0.5602239966392517,0.8056880235671997,0.28938400745391846,1.0499999523162842,-2.5199999809265137,-0.49000000953674316
1743895588.4970052,-0.5607119798660278,0.8042240142822266,0.2908479869365692,1.2599999904632568,-2.6600000858306885,-0.49000000953674316
1743895588.5170052,-0.5602239966392517,0.8042240142822266,0.29280000925064087,1.1200000047683716,-2.5199999809265137,-0.7699999809265137
1743895588.5370052,-0.5602239966392517,0.8042240142822266,0.29231199622154236,1.3300000429153442,-2.6600000858306885,-0.6299999952316284
1743895588.5570052,-0.5577840209007263,0.8056880235671997,0.29280000925064087,1.2599999904632568,-2.6600000858306885,-0.7699999809265137
1743895588.4905481,-0.5607119798660278,0.8042240142822266,0.28938400745391846,1.3300000429153442,-2.6600000858306885,-0.8399999737739563
1743895588.510548,-0.5597360134124756,0.8061760067939758,0.2898719906806946,1.2599999904632568,-2.799999952316284,-0.8399999737739563
1743895588.530548,-0.5607119798660278,0.8056880235671997,0.2898719906806946,1.2599999904632568,-2.799999952316284,-0.9100000262260437
1743895588.550548,-0.5568079948425293,0.8051999807357788,0.29182401299476624,1.0499999523162842,-2.7300000190734863,-0.8399999737739563
1743895588.570548,-0.5592479705810547,0.8027600049972534,0.29231199622154236,1.1200000047683716,-2.869999885559082,-0.9100000262260437
1743895588.590548,-0.5587599873542786,0.8042240142822266,0.29280000925064087,1.190000057220459,-2.7300000190734863,-0.7699999809265137
1743895588.535653,-0.5587599873542786,0.8051999807357788,0.2908479869365692,1.1200000047683716,-2.7300000190734863,-0.9100000262260437
1743895588.555653,-0.5587599873542786,0.8047119975090027,0.2937760055065155,1.190000057220459,-2.6600000858306885,-0.9100000262260437
1743895588.575653,-0.5602239966392517,0.8037359714508057,0.29182401299476624,1.1200000047683716,-2.5899999141693115,-0.7699999809265137
1743895588.595653,-0.5602239966392517,0.8051999807357788,0.29280000925064087,1.0499999523162842,-2.5199999809265137,-0.9800000190734863
1743895588.615653,-0.5602239966392517,0.8051999807357788,0.2908479869365692,1.190000057220459,-2.5199999809265137,-0.8399999737739563
1743895588.635653,-0.5612000226974487,0.8051999807357788,0.29182401299476624,1.1200000047683716,-2.6600000858306885,-0.8399999737739563
1743895588.638556,-0.5602239966392517,0.806663990020752,0.293287992477417,1.190000057220459,-2.5899999141693115,-0.7699999809265137
1743895588.658556,-0.5616880059242249,0.8047119975090027,0.29231199622154236,1.1200000047683716,-2.5199999809265137,-0.9100000262260437
1743895588.678556,-0.5602239966392517,0.8061760067939758,0.29182401299476624,1.190000057220459,-2.5899999141693115,-0.699999988079071
1743895588.698556,-0.562175989151001,0.806663990020752,0.29231199622154236,0.9800000190734863,-2.6600000858306885,-0.7699999809265137
1743895588.718556,-0.5612000226974487,0.8047119975090027,0.29572799801826477,0.9800000190734863,-2.5899999141693115,-0.6299999952316284
1743895588.738556,-0.5597360134124756,0.8037359714508057,0.2913359999656677,1.190000057220459,-2.6600000858306885,-0.7699999809265137
1743895588.6417491,-0.5597360134124756,0.806663990020752,0.2967039942741394,0.9800000190734863,-2.5899999141693115,-0.8399999737739563
1743895588.6617491,-0.5592479705810547,0.8056880235671997,0.29231199622154236,1.0499999523162842,-2.5199999809265137,-0.7699999809265137
1743895588.681749,-0.5607119798660278,0.8051999807357788,0.2913359999656677,1.190000057220459,-2.6600000858306885,-0.699999988079071
1743895588.701749,-0.5612000226974487,0.8056880235671997,0.2908479869365692,1.2599999904632568,-2.5899999141693115,-0.49000000953674316
1743895588.721749,-0.5587599873542786,0.8022720217704773,0.29182401299476624,1.1200000047683716,-2.5899999141693115,-0.6299999952316284
1743895588.741749,-0.5597360134124756,0.8022720217704773,0.29231199622154236,1.1200000047683716,-2.380000114440918,-0.6299999952316284
1743895588.670211,-0.5602239966392517,0.8042240142822266,0.2908479869365692,1.190000057220459,-2.450000047683716,-0.5600000023841858
1743895588.690211,-0.5607119798660278,0.8051999807357788,0.2903600037097931,1.0499999523162842,-2.450000047683716,-0.6299999952316284
1743895588.710211,-0.5582720041275024,0.8081279993057251,0.2908479869365692,1.1200000047683716,-2.450000047683716,-0.5600000023841858
1743895588.730211,-0.5592479705810547,0.8056880235671997,0.2908479869365692,1.1200000047683716,-2.6600000858306885,-0.8399999737739563
1743895588.750211,-0.5587599873542786,0.8032479882240295,0.28889599442481995,0.9800000190734863,-2.5199999809265137,-0.699999988079071
1743895588.770211,-0.5597360134124756,0.8042240142822266,0.29182401299476624,1.0499999523162842,-2.5199999809265137,-0.7699999809265137
1743895588.7002912,-0.5592479705810547,0.8042240142822266,0.2908479869365692,0.9100000262260437,-2.450000047683716,-0.7699999809265137
1743895588.7202911,-0.5602239966392517,0.8037359714508057,0.2898719906806946,0.9800000190734863,-2.380000114440918,-0.5600000023841858
1743895588.740291,-0.5587599873542786,0.8047119975090027,0.29182401299476624,1.190000057220459,-2.5199999809265137,-0.5600000023841858
1743895588.760291,-0.5597360134124756,0.8037359714508057,0.2908479869365692,1.0499999523162842,-2.450000047683716,-0.699999988079071
1743895588.780291,-0.5587599873542786,0.8047119975090027,0.2913359999656677,1.0499999523162842,-2.5899999141693115,-0.6299999952316284
1743895588.800291,-0.5602239966392517,0.8047119975090027,0.28889599442481995,1.190000057220459,-2.5899999141693115,-0.6299999952316284
1743895588.745502,-0.5572959780693054,0.8042240142822266,0.2908479869365692,1.190000057220459,-2.5199999809265137,-0.5600000023841858
1743895588.765502,-0.5597360134124756,0.8051999807357788,0.2908479869365692,1.2599999904632568,-2.5199999809265137,-0.6299999952316284
1743895588.785502,-0.5587599873542786,0.8061760067939758,0.293287992477417,1.1200000047683716,-2.450000047683716,-0.6299999952316284
1743895588.805502,-0.5602239966392517,0.8047119975090027,0.2913359999656677,1.0499999523162842,-2.450000047683716,-0.699999988079071
1743895588.825502,-0.5577840209007263,0.8061760067939758,0.2908479869365692,1.1200000047683716,-2.5899999141693115,-0.6299999952316284
1743895588.845502,-0.5587599873542786,0.8051999807357788,0.2908479869365692,1.190000057220459,-2.6600000858306885,-0.699999988079071
1743895588.7928371,-0.5582720041275024,0.8047119975090027,0.2898719906806946,1.190000057220459,-2.7300000190734863,-0.8399999737739563
1743895588.8128371,-0.5572959780693054,0.8042240142822266,0.28889599442481995,1.0499999523162842,-2.869999885559082,-0.7699999809265137
1743895588.832837,-0.5587599873542786,0.807640016078949,0.29280000925064087,1.190000057220459,-2.6600000858306885,-0.8399999737739563
1743895588.852837,-0.5572959780693054,0.8042240142822266,0.2913359999656677,1.0499999523162842,-2.799999952316284,-0.699999988079071
1743895588.872837,-0.5587599873542786,0.8042240142822266,0.29280000925064087,1.190000057220459,-2.6600000858306885,-0.6299999952316284
1743895588.892837,-0.5582720041275024,0.8061760067939758,0.293287992477417,1.1200000047683716,-2.5899999141693115,-0.699999988079071
1743895588.835524,-0.5592479705810547,0.8071519732475281,0.2898719906806946,1.190000057220459,-2.5899999141693115,-0.699999988079071
1743895588.855524,-0.562175989151001,0.806663990020752,0.293287992477417,1.1200000047683716,-2.5899999141693115,-0.699999988079071
1743895588.875524,-0.5592479705810547,0.8051999807357788,0.2903600037097931,1.1200000047683716,-2.450000047683716,-0.699999988079071
1743895588.895524,-0.5582720041275024,0.8071519732475281,0.29231199622154236,1.1200000047683716,-2.5899999141693115,-0.699999988079071
1743895588.915524,-0.5626639723777771,0.8081279993057251,0.2898719906806946,1.1200000047683716,-2.6600000858306885,-0.699999988079071
1743895588.935524,-0.5602239966392517,0.8056880235671997,0.29182401299476624,1.0499999523162842,-2.5899999141693115,-0.7699999809265137
1743895588.93881,-0.5597360134124756,0.8032479882240295,0.29280000925064087,1.0499999523162842,-2.6600000858306885,-0.699999988079071
1743895588.95881,-0.5602239966392517,0.8051999807357788,0.2908479869365692,1.1200000047683716,-2.5899999141693115,-0.7699999809265137
1743895588.97881,-0.5602239966392517,0.8051999807357788,0.2913359999656677,1.2599999904632568,-2.6600000858306885,-0.6299999952316284
1743895588.99881,-0.5612000226974487,0.8042240142822266,0.2903600037097931,1.399999976158142,-2.6600000858306885,-0.6299999952316284
1743895589.01881,-0.5626639723777771,0.8037359714508057,0.2898719906806946,1.399999976158142,-2.5899999141693115,-0.6299999952316284
1743895589.03881,-0.5602239966392517,0.8032479882240295,0.2903600037097931,1.190000057220459,-2.450000047683716,-0.699999988079071
1743895588.942815,-0.5582720041275024,0.8037359714508057,0.293287992477417,1.1200000047683716,-2.5199999809265137,-0.699999988079071
1743895588.962815,-0.5572959780693054,0.8042240142822266,0.2913359999656677,1.1200000047683716,-2.450000047683716,-0.699999988079071
1743895588.982815,-0.5587599873542786,0.8042240142822266,0.2903600037097931,1.1200000047683716,-2.5899999141693115,-0.7699999809265137
1743895589.002815,-0.5577840209007263,0.8047119975090027,0.2903600037097931,1.1200000047683716,-2.5899999141693115,-0.699999988079071
1743895589.022815,-0.5602239966392517,0.8032479882240295,0.2898719906806946,1.0499999523162842,-2.5199999809265137,-0.6299999952316284
1743895589.042815,-0.5607119798660278,0.8051999807357788,0.29182401299476624,1.0499999523162842,-2.5199999809265137,-0.7699999809265137
1743895588.974271,-0.5612000226974487,0.8051999807357788,0.2913359999656677,1.190000057220459,-2.6600000858306885,-0.699999988079071
1743895588.994271,-0.5577840209007263,0.8042240142822266,0.29280000925064087,1.0499999523162842,-2.450000047683716,-0.7699999809265137
1743895589.014271,-0.5592479705810547,0.8047119975090027,0.2913359999656677,0.9100000262260437,-2.5199999809265137,-0.7699999809265137
1743895589.034271,-0.5587599873542786,0.8061760067939758,0.293287992477417,0.9800000190734863,-2.5199999809265137,-0.7699999809265137
1743895589.054271,-0.5612000226974487,0.806663990020752,0.2903600037097931,0.9100000262260437,-2.6600000858306885,-0.8399999737739563
1743895589.074271,-0.5587599873542786,0.8047119975090027,0.28889599442481995,1.0499999523162842,-2.5899999141693115,-0.7699999809265137
1743895589.01558,-0.5582720041275024,0.8061760067939758,0.2898719906806946,1.1200000047683716,-2.5899999141693115,-0.6299999952316284
1743895589.03558,-0.5612000226974487,0.8051999807357788,0.2913359999656677,1.0499999523162842,-2.6600000858306885,-0.9100000262260437
1743895589.05558,-0.5592479705810547,0.8051999807357788,0.2913359999656677,0.9100000262260437,-2.450000047683716,-0.7699999809265137
1743895589.07558,-0.5602239966392517,0.8037359714508057,0.29280000925064087,0.9100000262260437,-2.450000047683716,-0.699999988079071
1743895589.0955799,-0.5616880059242249,0.8042240142822266,0.29182401299476624,0.9100000262260437,-2.450000047683716,-0.8399999737739563
1743895589.1155798,-0.5602239966392517,0.8051999807357788,0.29231199622154236,0.9800000190734863,-2.5899999141693115,-0.699999988079071
1743895589.06053,-0.5592479705810547,0.8042240142822266,0.2913359999656677,0.9800000190734863,-2.5899999141693115,-0.8399999737739563
1743895589.08053,-0.5597360134124756,0.8047119975090027,0.293287992477417,0.9100000262260437,-2.5199999809265137,-0.7699999809265137
1743895589.10053,-0.5592479705810547,0.8051999807357788,0.2908479869365692,0.9800000190734863,-2.5899999141693115,-0.8399999737739563
1743895589.12053,-0.5587599873542786,0.8061760067939758,0.2908479869365692,1.0499999523162842,-2.6600000858306885,-0.8399999737739563
1743895589.1405299,-0.5587599873542786,0.8047119975090027,0.29475200176239014,0.9800000190734863,-2.5199999809265137,-0.7699999809265137
1743895589.1605299,-0.5592479705810547,0.8047119975090027,0.2908479869365692,0.9800000190734863,-2.5899999141693115,-0.8399999737739563
1743895589.1044612,-0.5616880059242249,0.8027600049972534,0.2908479869365692,1.0499999523162842,-2.450000047683716,-0.8399999737739563
1743895589.1244612,-0.5597360134124756,0.8042240142822266,0.2903600037097931,0.9800000190734863,-2.5199999809265137,-0.7699999809265137
1743895589.1444612,-0.5602239966392517,0.806663990020752,0.2898719906806946,0.9800000190734863,-2.6600000858306885,-0.7699999809265137
1743895589.1644611,-0.5616880059242249,0.8051999807357788,0.29231199622154236,0.9800000190734863,-2.7300000190734863,-0.9800000190734863
1743895589.184461,-0.5592479705810547,0.8061760067939758,0.2879199981689453,0.9800000190734863,-2.940000057220459,-0.7699999809265137
1743895589.204461,-0.5592479705810547,0.8042240142822266,0.2908479869365692,0.9800000190734863,-2.869999885559082,-0.9100000262260437
1743895589.150304,-0.5612000226974487,0.8008080124855042,0.2913359999656677,0.9100000262260437,-2.7300000190734863,-0.9800000190734863
1743895589.170304,-0.5602239966392517,0.8012959957122803,0.29231199622154236,0.8399999737739563,-2.7300000190734863,-0.9100000262260437
1743895589.190304,-0.5602239966392517,0.8056880235671997,0.2903600037097931,0.9100000262260437,-2.799999952316284,-0.7699999809265137
1743895589.210304,-0.5597360134124756,0.8032479882240295,0.29182401299476624,0.9100000262260437,-2.799999952316284,-0.8399999737739563
1743895589.230304,-0.5597360134124756,0.806663990020752,0.29182401299476624,0.9100000262260437,-2.7300000190734863,-0.8399999737739563
1743895589.250304,-0.5612000226974487,0.8027600049972534,0.2913359999656677,0.9100000262260437,-2.6600000858306885,-0.8399999737739563
1743895589.180231,-0.562175989151001,0.807640016078949,0.2913359999656677,0.699999988079071,-2.7300000190734863,-0.9800000190734863
1743895589.200231,-0.5592479705810547,0.8061760067939758,0.29182401299476624,0.8399999737739563,-2.6600000858306885,-1.1200000047683716
1743895589.220231,-0.5602239966392517,0.8061760067939758,0.29280000925064087,0.9100000262260437,-2.869999885559082,-1.0499999523162842
1743895589.240231,-0.5607119798660278,0.8071519732475281,0.29182401299476624,1.1200000047683716,-2.869999885559082,-0.9800000190734863
1743895589.260231,-0.5597360134124756,0.8032479882240295,0.293287992477417,0.8399999737739563,-2.799999952316284,-1.1200000047683716
1743895589.280231,-0.5597360134124756,0.8042240142822266,0.293287992477417,0.8399999737739563,-2.5199999809265137,-1.1200000047683716
1743895589.240225,-0.5577840209007263,0.8042240142822266,0.2937760055065155,0.8399999737739563,-2.7300000190734863,-0.9800000190734863
1743895589.260225,-0.5577840209007263,0.8037359714508057,0.2962160110473633,0.9100000262260437,-2.5899999141693115,-0.9800000190734863
1743895589.280225,-0.5597360134124756,0.8022720217704773,0.29475200176239014,0.9800000190734863,-2.450000047683716,-0.9800000190734863
1743895589.300225,-0.5592479705810547,0.8017839789390564,0.293287992477417,0.9800000190734863,-2.309999942779541,-0.9100000262260437
1743895589.320225,-0.5597360134124756,0.8047119975090027,0.29280000925064087,0.9100000262260437,-2.1700000762939453,-1.0499999523162842
1743895589.340225,-0.5597360134124756,0.8017839789390564,0.29231199622154236,0.9800000190734863,-2.240000009536743,-0.9800000190734863
1743895589.2824361,-0.562175989151001,0.8017839789390564,0.29231199622154236,1.190000057220459,-2.240000009536743,-0.9100000262260437
1743895589.302436,-0.5587599873542786,0.8022720217704773,0.2913359999656677,1.1200000047683716,-2.240000009536743,-0.9100000262260437
1743895589.322436,-0.5602239966392517,0.8042240142822266,0.2913359999656677,1.1200000047683716,-2.1700000762939453,-0.9800000190734863
1743895589.342436,-0.5607119798660278,0.8032479882240295,0.2898719906806946,1.190000057220459,-2.240000009536743,-0.8399999737739563
1743895589.362436,-0.5616880059242249,0.8032479882240295,0.2908479869365692,1.0499999523162842,-2.309999942779541,-0.8399999737739563
1743895589.382436,-0.5612000226974487,0.8022720217704773,0.2908479869365692,1.1200000047683716,-2.1700000762939453,-0.699999988079071
1743895589.315534,-0.5616880059242249,0.8042240142822266,0.2898719906806946,1.190000057220459,-2.309999942779541,-0.699999988079071
1743895589.335534,-0.5612000226974487,0.8037359714508057,0.28889599442481995,1.190000057220459,-2.0999999046325684,-0.6299999952316284
1743895589.355534,-0.5602239966392517,0.8022720217704773,0.2898719906806946,1.1200000047683716,-2.240000009536743,-0.5600000023841858
1743895589.375534,-0.5602239966392517,0.8047119975090027,0.2908479869365692,1.190000057220459,-2.240000009536743,-0.6299999952316284
1743895589.395534,-0.5616880059242249,0.8012959957122803,0.2903600037097931,1.190000057220459,-2.240000009536743,-0.49000000953674316
1743895589.415534,-0.5626639723777771,0.8037359714508057,0.28938400745391846,1.0499999523162842,-2.380000114440918,-0.5600000023841858
1743895589.345799,-0.562175989151001,0.8042240142822266,0.2898719906806946,1.190000057220459,-2.1700000762939453,-0.41999998688697815
1743895589.365799,-0.5612000226974487,0.8061760067939758,0.29280000925064087,1.0499999523162842,-2.240000009536743,-0.49000000953674316
1743895589.385799,-0.5597360134124756,0.8071519732475281,0.29231199622154236,1.0499999523162842,-2.380000114440918,-0.5600000023841858
1743895589.405799,-0.5636399984359741,0.8061760067939758,0.2903600037097931,1.1200000047683716,-2.450000047683716,-0.49000000953674316
1743895589.425799,-0.5616880059242249,0.806663990020752,0.2908479869365692,1.1200000047683716,-2.5899999141693115,-0.49000000953674316
1743895589.4457989,-0.5616880059242249,0.8071519732475281,0.2913359999656677,0.9100000262260437,-2.799999952316284,-0.699999988079071
1743895589.4053252,-0.562175989151001,0.806663990020752,0.29182401299476624,0.9800000190734863,-2.5899999141693115,-0.8399999737739563
1743895589.4253252,-0.562175989151001,0.8056880235671997,0.2913359999656677,0.9800000190734863,-2.799999952316284,-0.699999988079071
1743895589.4453251,-0.562175989151001,0.8061760067939758,0.2913359999656677,0.9800000190734863,-2.940000057220459,-0.7699999809265137
1743895589.465325,-0.5607119798660278,0.8051999807357788,0.2913359999656677,0.9800000190734863,-2.940000057220459,-0.7699999809265137
1743895589.485325,-0.5602239966392517,0.8042240142822266,0.2908479869365692,0.6299999952316284,-3.009999990463257,-0.699999988079071
1743895589.505325,-0.5592479705810547,0.8042240142822266,0.29231199622154236,0.8399999737739563,-2.940000057220459,-0.699999988079071
1743895589.434634,-0.5597360134124756,0.8042240142822266,0.29280000925064087,0.8399999737739563,-2.869999885559082,-0.9100000262260437
1743895589.454634,-0.5587599873542786,0.8047119975090027,0.2913359999656677,0.7699999809265137,-2.940000057220459,-0.8399999737739563
1743895589.474634,-0.5592479705810547,0.8042240142822266,0.29182401299476624,0.8399999737739563,-2.869999885559082,-0.9100000262260437
1743895589.494634,-0.5582720041275024,0.8037359714508057,0.29182401299476624,0.8399999737739563,-2.940000057220459,-0.9100000262260437
1743895589.514634,-0.5587599873542786,0.8037359714508057,0.2913359999656677,0.7699999809265137,-2.799999952316284,-0.9800000190734863
1743895589.5346339,-0.5572959780693054,0.8042240142822266,0.2908479869365692,0.8399999737739563,-2.940000057220459,-0.9100000262260437
1743895589.4799502,-0.5582720041275024,0.8042240142822266,0.29231199622154236,0.7699999809265137,-2.7300000190734863,-1.0499999523162842
1743895589.4999502,-0.5597360134124756,0.8008080124855042,0.29182401299476624,0.7699999809265137,-2.799999952316284,-1.190000057220459
1743895589.5199502,-0.5597360134124756,0.8032479882240295,0.2908479869365692,0.8399999737739563,-2.7300000190734863,-1.1200000047683716
1743895589.5399501,-0.5587599873542786,0.8012959957122803,0.293287992477417,0.699999988079071,-2.5899999141693115,-0.9800000190734863
1743895589.55995,-0.563152015209198,0.8027600049972534,0.2942639887332916,0.6299999952316284,-2.5899999141693115,-1.1200000047683716
1743895589.57995,-0.5612000226974487,0.8037359714508057,0.29280000925064087,0.8399999737739563,-2.5899999141693115,-0.9800000190734863
1743895589.537748,-0.5612000226974487,0.8027600049972534,0.29231199622154236,0.9100000262260437,-2.5899999141693115,-0.9100000262260437
1743895589.557748,-0.5612000226974487,0.8056880235671997,0.293287992477417,0.8399999737739563,-2.5899999141693115,-0.9100000262260437
1743895589.577748,-0.5607119798660278,0.8012959957122803,0.29280000925064087,0.7699999809265137,-2.380000114440918,-0.9800000190734863
1743895589.597748,-0.5607119798660278,0.8051999807357788,0.2913359999656677,0.7699999809265137,-2.380000114440918,-0.8399999737739563
1743895589.617748,-0.5616880059242249,0.8042240142822266,0.2903600037097931,0.8399999737739563,-2.450000047683716,-0.9800000190734863
1743895589.637748,-0.5626639723777771,0.8051999807357788,0.2937760055065155,0.9100000262260437,-2.450000047683716,-0.9100000262260437
1743895589.571563,-0.5612000226974487,0.8027600049972534,0.2903600037097931,0.9100000262260437,-2.380000114440918,-0.8399999737739563
1743895589.591563,-0.5641279816627502,0.8047119975090027,0.2942639887332916,0.9800000190734863,-2.380000114440918,-0.7699999809265137
1743895589.611563,-0.5612000226974487,0.8051999807357788,0.293287992477417,0.9100000262260437,-2.309999942779541,-0.699999988079071
1743895589.631563,-0.5641279816627502,0.8047119975090027,0.293287992477417,0.8399999737739563,-2.309999942779541,-0.7699999809265137
1743895589.651563,-0.5626639723777771,0.8056880235671997,0.293287992477417,0.7699999809265137,-2.450000047683716,-0.7699999809265137
1743895589.671563,-0.5636399984359741,0.8037359714508057,0.29280000925064087,0.699999988079071,-2.5199999809265137,-0.7699999809265137
1743895589.630505,-0.5651040077209473,0.8051999807357788,0.29231199622154236,0.7699999809265137,-2.450000047683716,-0.8399999737739563
1743895589.650505,-0.562175989151001,0.8022720217704773,0.2913359999656677,0.8399999737739563,-2.5199999809265137,-0.9100000262260437
1743895589.670505,-0.5602239966392517,0.8027600049972534,0.2942639887332916,0.7699999809265137,-2.5899999141693115,-0.8399999737739563
1743895589.690505,-0.5597360134124756,0.8022720217704773,0.2937760055065155,0.8399999737739563,-2.6600000858306885,-0.699999988079071
1743895589.710505,-0.5612000226974487,0.8017839789390564,0.29475200176239014,0.9800000190734863,-2.6600000858306885,-0.699999988079071
1743895589.730505,-0.562175989151001,0.8032479882240295,0.2942639887332916,0.9100000262260437,-2.6600000858306885,-0.699999988079071
1743895589.66069,-0.5626639723777771,0.8056880235671997,0.29524001479148865,0.8399999737739563,-2.5899999141693115,-0.699999988079071
1743895589.68069,-0.5602239966392517,0.8056880235671997,0.29475200176239014,0.9100000262260437,-2.6600000858306885,-0.699999988079071
1743895589.70069,-0.5626639723777771,0.8047119975090027,0.2942639887332916,0.7699999809265137,-2.5899999141693115,-0.49000000953674316
1743895589.72069,-0.5626639723777771,0.8022720217704773,0.29475200176239014,0.9100000262260437,-2.6600000858306885,-0.6299999952316284
1743895589.74069,-0.5587599873542786,0.807640016078949,0.2942639887332916,0.8399999737739563,-2.5899999141693115,-0.7699999809265137
1743895589.76069,-0.5597360134124756,0.8022720217704773,0.29231199622154236,0.8399999737739563,-2.5899999141693115,-0.699999988079071
1743895589.71847,-0.5592479705810547,0.8032479882240295,0.2937760055065155,0.699999988079071,-2.5899999141693115,-0.7699999809265137
1743895589.73847,-0.562175989151001,0.8042240142822266,0.2913359999656677,0.699999988079071,-2.450000047683716,-0.9100000262260437
1743895589.75847,-0.5597360134124756,0.8027600049972534,0.2908479869365692,0.7699999809265137,-2.5899999141693115,-0.7699999809265137
1743895589.77847,-0.5612000226974487,0.8022720217704773,0.2937760055065155,0.9800000190734863,-2.6600000858306885,-0.8399999737739563
1743895589.79847,-0.562175989151001,0.8032479882240295,0.29231199622154236,0.6299999952316284,-2.5899999141693115,-0.9800000190734863
1743895589.81847,-0.5597360134124756,0.800320029258728,0.29572799801826477,0.9100000262260437,-2.5199999809265137,-0.8399999737739563
1743895589.7510061,-0.5602239966392517,0.8012959957122803,0.29231199622154236,0.8399999737739563,-2.6600000858306885,-0.8399999737739563
1743895589.771006,-0.563152015209198,0.8022720217704773,0.29231199622154236,0.9100000262260437,-2.5899999141693115,-0.8399999737739563
1743895589.791006,-0.5612000226974487,0.8008080124855042,0.2937760055065155,0.9800000190734863,-2.6600000858306885,-0.9100000262260437
1743895589.811006,-0.5612000226974487,0.8012959957122803,0.29231199622154236,1.190000057220459,-2.5899999141693115,-0.7699999809265137
1743895589.831006,-0.5616880059242249,0.8012959957122803,0.2937760055065155,1.1200000047683716,-2.6600000858306885,-0.7699999809265137
1743895589.851006,-0.5587599873542786,0.7988560199737549,0.2913359999656677,1.2599999904632568,-2.7300000190734863,-0.6299999952316284
1743895589.78044,-0.5602239966392517,0.8017839789390564,0.29280000925064087,1.3300000429153442,-2.6600000858306885,-0.699999988079071
1743895589.80044,-0.5597360134124756,0.8037359714508057,0.2903600037097931,1.1200000047683716,-2.5899999141693115,-0.699999988079071
1743895589.82044,-0.5592479705810547,0.8032479882240295,0.2913359999656677,1.0499999523162842,-2.5899999141693115,-0.6299999952316284
1743895589.84044,-0.5602239966392517,0.8027600049972534,0.2908479869365692,1.190000057220459,-2.5199999809265137,-0.699999988079071
1743895589.86044,-0.5607119798660278,0.8047119975090027,0.29231199622154236,1.1200000047683716,-2.6600000858306885,-0.8399999737739563
1743895589.88044,-0.562175989151001,0.806663990020752,0.29280000925064087,1.1200000047683716,-2.6600000858306885,-0.699999988079071
1743895589.825494,-0.5651040077209473,0.8056880235671997,0.29280000925064087,1.190000057220459,-2.5199999809265137,-0.699999988079071
1743895589.845494,-0.5626639723777771,0.8037359714508057,0.29475200176239014,1.0499999523162842,-2.5199999809265137,-0.7699999809265137
1743895589.865494,-0.562175989151001,0.8027600049972534,0.29524001479148865,1.0499999523162842,-2.5899999141693115,-0.7699999809265137
1743895589.885494,-0.5626639723777771,0.8042240142822266,0.29475200176239014,1.0499999523162842,-2.7300000190734863,-0.7699999809265137
1743895589.905494,-0.5626639723777771,0.8008080124855042,0.2937760055065155,1.0499999523162842,-2.6600000858306885,-0.9100000262260437
1743895589.925494,-0.563152015209198,0.8022720217704773,0.29182401299476624,1.2599999904632568,-2.5899999141693115,-0.8399999737739563
1743895589.871561,-0.5626639723777771,0.8017839789390564,0.2937760055065155,1.190000057220459,-2.799999952316284,-0.8399999737739563
1743895589.891561,-0.5641279816627502,0.8037359714508057,0.29182401299476624,1.0499999523162842,-2.6600000858306885,-0.699999988079071
1743895589.911561,-0.5597360134124756,0.8051999807357788,0.2962160110473633,1.0499999523162842,-2.5199999809265137,-0.699999988079071
1743895589.931561,-0.5626639723777771,0.8032479882240295,0.2937760055065155,1.1200000047683716,-2.5899999141693115,-0.7699999809265137
1743895589.951561,-0.5646160244941711,0.8032479882240295,0.2942639887332916,1.190000057220459,-2.6600000858306885,-0.699999988079071
1743895589.971561,-0.5602239966392517,0.8012959957122803,0.29280000925064087,1.190000057220459,-2.7300000190734863,-0.6299999952316284
1743895589.915826,-0.5592479705810547,0.800320029258728,0.2913359999656677,1.2599999904632568,-2.6600000858306885,-0.699999988079071
1743895589.935826,-0.5597360134124756,0.798367977142334,0.2913359999656677,1.2599999904632568,-2.869999885559082,-0.699999988079071
1743895589.955826,-0.5612000226974487,0.8022720217704773,0.29280000925064087,1.2599999904632568,-2.869999885559082,-0.699999988079071
1743895589.975826,-0.5597360134124756,0.800320029258728,0.293287992477417,1.190000057220459,-2.869999885559082,-0.5600000023841858
1743895589.995826,-0.5592479705810547,0.8022720217704773,0.29231199622154236,1.190000057220459,-2.6600000858306885,-0.6299999952316284
1743895590.015826,-0.5592479705810547,0.8022720217704773,0.29816800355911255,1.2599999904632568,-2.5899999141693115,-0.6299999952316284
1743895589.963484,-0.5582720041275024,0.8027600049972534,0.293287992477417,1.2599999904632568,-2.450000047683716,-0.5600000023841858
1743895589.983484,-0.5592479705810547,0.8027600049972534,0.293287992477417,1.190000057220459,-2.5899999141693115,-0.41999998688697815
1743895590.003484,-0.5607119798660278,0.8047119975090027,0.29475200176239014,1.3300000429153442,-2.380000114440918,-0.49000000953674316
1743895590.023484,-0.5612000226974487,0.8061760067939758,0.2913359999656677,1.2599999904632568,-2.5899999141693115,-0.49000000953674316
1743895590.043484,-0.5607119798660278,0.8056880235671997,0.2937760055065155,1.399999976158142,-2.6600000858306885,-0.6299999952316284
1743895590.063484,-0.5612000226974487,0.8032479882240295,0.2908479869365692,1.3300000429153442,-2.5899999141693115,-0.699999988079071
1743895590.032577,-0.5616880059242249,0.8037359714508057,0.2937760055065155,1.190000057220459,-2.5899999141693115,-0.6299999952316284
1743895590.052577,-0.5616880059242249,0.8042240142822266,0.293287992477417,1.2599999904632568,-2.6600000858306885,-0.6299999952316284
1743895590.072577,-0.5592479705810547,0.8027600049972534,0.29182401299476624,1.190000057220459,-2.6600000858306885,-0.699999988079071
1743895590.092577,-0.5636399984359741,0.8027600049972534,0.2913359999656677,1.3300000429153442,-2.6600000858306885,-0.699999988079071
1743895590.112577,-0.5592479705810547,0.8037359714508057,0.2908479869365692,1.1200000047683716,-2.7300000190734863,-0.7699999809265137
1743895590.132577,-0.5641279816627502,0.8022720217704773,0.293287992477417,1.1200000047683716,-2.5899999141693115,-0.6299999952316284
1743895590.050503,-0.5612000226974487,0.8032479882240295,0.293287992477417,1.0499999523162842,-2.5899999141693115,-0.6299999952316284
1743895590.070503,-0.5612000226974487,0.8037359714508057,0.29475200176239014,1.190000057220459,-2.5199999809265137,-0.6299999952316284
1743895590.090503,-0.5607119798660278,0.8032479882240295,0.293287992477417,1.190000057220459,-2.5899999141693115,-0.5600000023841858
1743895590.110503,-0.5612000226974487,0.8027600049972534,0.29231199622154236,1.190000057220459,-2.450000047683716,-0.5600000023841858
1743895590.130503,-0.5616880059242249,0.8047119975090027,0.293287992477417,1.2599999904632568,-2.5899999141693115,-0.6299999952316284
1743895590.150503,-0.5636399984359741,0.8037359714508057,0.293287992477417,1.399999976158142,-2.7300000190734863,-0.6299999952316284
1743895590.0925891,-0.5616880059242249,0.8012959957122803,0.293287992477417,1.6100000143051147,-2.7300000190734863,-0.41999998688697815
1743895590.1125891,-0.5607119798660278,0.8017839789390564,0.293287992477417,1.3300000429153442,-2.940000057220459,-0.5600000023841858
1743895590.132589,-0.5636399984359741,0.8017839789390564,0.293287992477417,1.2599999904632568,-2.799999952316284,-0.6299999952316284
1743895590.152589,-0.5602239966392517,0.8037359714508057,0.29280000925064087,1.399999976158142,-2.869999885559082,-0.6299999952316284
1743895590.172589,-0.5607119798660278,0.8032479882240295,0.2908479869365692,1.4700000286102295,-3.009999990463257,-0.699999988079071
1743895590.192589,-0.5592479705810547,0.8017839789390564,0.2962160110473633,1.399999976158142,-2.869999885559082,-0.6299999952316284
1743895590.140904,-0.5597360134124756,0.8032479882240295,0.2937760055065155,1.6100000143051147,-2.799999952316284,-0.41999998688697815
1743895590.160904,-0.5597360134124756,0.8027600049972534,0.29280000925064087,1.2599999904632568,-2.6600000858306885,-0.49000000953674316
1743895590.180904,-0.5602239966392517,0.8037359714508057,0.2903600037097931,1.1200000047683716,-2.5199999809265137,-0.41999998688697815
1743895590.200904,-0.562175989151001,0.8027600049972534,0.293287992477417,1.2599999904632568,-2.450000047683716,-0.49000000953674316
1743895590.2209039,-0.5597360134124756,0.8051999807357788,0.29182401299476624,1.2599999904632568,-2.5899999141693115,-0.49000000953674316
1743895590.2409039,-0.5602239966392517,0.8037359714508057,0.29280000925064087,1.190000057220459,-2.5199999809265137,-0.49000000953674316
1743895590.170485,-0.5592479705810547,0.8017839789390564,0.2908479869365692,1.3300000429153442,-2.450000047683716,-0.49000000953674316
1743895590.190485,-0.5607119798660278,0.8037359714508057,0.2937760055065155,1.190000057220459,-2.5899999141693115,-0.49000000953674316
1743895590.210485,-0.5597360134124756,0.8032479882240295,0.28938400745391846,1.2599999904632568,-2.5899999141693115,-0.5600000023841858
1743895590.230485,-0.5612000226974487,0.8032479882240295,0.29280000925064087,1.2599999904632568,-2.5899999141693115,-0.49000000953674316
1743895590.250485,-0.5612000226974487,0.8022720217704773,0.29280000925064087,1.1200000047683716,-2.5199999809265137,-0.5600000023841858
1743895590.270485,-0.5616880059242249,0.8027600049972534,0.2942639887332916,1.190000057220459,-2.450000047683716,-0.49000000953674316
1743895590.214888,-0.5616880059242249,0.8032479882240295,0.29280000925064087,1.2599999904632568,-2.450000047683716,-0.49000000953674316
1743895590.234888,-0.563152015209198,0.8027600049972534,0.293287992477417,1.2599999904632568,-2.450000047683716,-0.49000000953674316
1743895590.254888,-0.5616880059242249,0.8017839789390564,0.2908479869365692,1.399999976158142,-2.5199999809265137,-0.49000000953674316
1743895590.274888,-0.5612000226974487,0.8056880235671997,0.29475200176239014,1.399999976158142,-2.5199999809265137,-0.49000000953674316
1743895590.294888,-0.5616880059242249,0.8032479882240295,0.29231199622154236,1.2599999904632568,-2.5199999809265137,-0.49000000953674316
1743895590.314888,-0.5577840209007263,0.8037359714508057,0.293287992477417,1.399999976158142,-2.5199999809265137,-0.5600000023841858
1743895590.260576,-0.5616880059242249,0.8037359714508057,0.29280000925064087,1.4700000286102295,-2.5899999141693115,-0.6299999952316284
1743895590.280576,-0.5607119798660278,0.8037359714508057,0.29475200176239014,1.3300000429153442,-2.5199999809265137,-0.5600000023841858
1743895590.300576,-0.562175989151001,0.8061760067939758,0.29231199622154236,1.399999976158142,-2.5899999141693115,-0.7699999809265137
1743895590.320576,-0.5612000226974487,0.8056880235671997,0.29280000925064087,1.2599999904632568,-2.5199999809265137,-0.7699999809265137
1743895590.340576,-0.5616880059242249,0.8047119975090027,0.2962160110473633,1.399999976158142,-2.5899999141693115,-0.699999988079071
1743895590.360576,-0.5592479705810547,0.806663990020752,0.2913359999656677,1.2599999904632568,-2.5199999809265137,-0.699999988079071
1743895590.3363233,-0.562175989151001,0.8042240142822266,0.2913359999656677,1.190000057220459,-2.5199999809265137,-0.699999988079071
1743895590.3563232,-0.562175989151001,0.8012959957122803,0.29524001479148865,1.3300000429153442,-2.450000047683716,-0.699999988079071
1743895590.3763232,-0.5607119798660278,0.8017839789390564,0.29231199622154236,1.3300000429153442,-2.5899999141693115,-0.6299999952316284
1743895590.3963232,-0.562175989151001,0.8047119975090027,0.2908479869365692,1.2599999904632568,-2.5199999809265137,-0.6299999952316284
1743895590.4163232,-0.5612000226974487,0.8037359714508057,0.29182401299476624,1.190000057220459,-2.450000047683716,-0.5600000023841858
1743895590.4363232,-0.5563200116157532,0.8022720217704773,0.2898719906806946,1.190000057220459,-2.5899999141693115,-0.6299999952316284
1743895590.3480809,-0.5607119798660278,0.8032479882240295,0.2879199981689453,1.190000057220459,-2.5899999141693115,-0.49000000953674316
1743895590.3680809,-0.5592479705810547,0.8008080124855042,0.2908479869365692,1.1200000047683716,-2.5199999809265137,-0.49000000953674316
1743895590.3880808,-0.5597360134124756,0.8008080124855042,0.28938400745391846,1.0499999523162842,-2.5199999809265137,-0.49000000953674316
1743895590.4080808,-0.5612000226974487,0.8037359714508057,0.2908479869365692,1.1200000047683716,-2.5899999141693115,-0.5600000023841858
1743895590.4280808,-0.5612000226974487,0.8027600049972534,0.2908479869365692,1.1200000047683716,-2.5199999809265137,-0.699999988079071
1743895590.4480808,-0.5612000226974487,0.8042240142822266,0.2908479869365692,1.2599999904632568,-2.5899999141693115,-0.49000000953674316
1743895590.381608,-0.5616880059242249,0.8047119975090027,0.29231199622154236,0.9800000190734863,-2.6600000858306885,-0.5600000023841858
1743895590.401608,-0.5602239966392517,0.8037359714508057,0.29280000925064087,1.1200000047683716,-2.6600000858306885,-0.49000000953674316
1743895590.421608,-0.5597360134124756,0.8042240142822266,0.293287992477417,1.1200000047683716,-2.799999952316284,-0.6299999952316284
1743895590.441608,-0.5592479705810547,0.8051999807357788,0.29182401299476624,1.0499999523162842,-2.5899999141693115,-0.6299999952316284
1743895590.461608,-0.5612000226974487,0.8047119975090027,0.29280000925064087,1.1200000047683716,-2.6600000858306885,-0.6299999952316284
1743895590.481608,-0.5577840209007263,0.8022720217704773,0.29475200176239014,1.2599999904632568,-2.6600000858306885,-0.6299999952316284
1743895590.426052,-0.5612000226974487,0.8032479882240295,0.2903600037097931,1.190000057220459,-2.6600000858306885,-0.8399999737739563
1743895590.446052,-0.5612000226974487,0.8027600049972534,0.2913359999656677,1.190000057220459,-2.6600000858306885,-0.5600000023841858
1743895590.466052,-0.5597360134124756,0.8056880235671997,0.29231199622154236,1.1200000047683716,-2.5199999809265137,-0.6299999952316284
1743895590.486052,-0.5612000226974487,0.8012959957122803,0.293287992477417,1.3300000429153442,-2.5899999141693115,-0.6299999952316284
1743895590.506052,-0.562175989151001,0.8047119975090027,0.29280000925064087,1.190000057220459,-2.5199999809265137,-0.6299999952316284
1743895590.526052,-0.5607119798660278,0.8061760067939758,0.29231199622154236,1.2599999904632568,-2.5199999809265137,-0.49000000953674316
1743895590.470936,-0.562175989151001,0.8047119975090027,0.29280000925064087,1.2599999904632568,-2.5899999141693115,-0.6299999952316284
1743895590.490936,-0.5626639723777771,0.8022720217704773,0.293287992477417,1.2599999904632568,-2.5199999809265137,-0.5600000023841858
1743895590.510936,-0.5602239966392517,0.8027600049972534,0.2937760055065155,1.2599999904632568,-2.5899999141693115,-0.6299999952316284
1743895590.530936,-0.5607119798660278,0.8042240142822266,0.29182401299476624,1.3300000429153442,-2.5899999141693115,-0.5600000023841858
1743895590.550936,-0.563152015209198,0.8042240142822266,0.29280000925064087,1.399999976158142,-2.6600000858306885,-0.41999998688697815
1743895590.570936,-0.5602239966392517,0.8047119975090027,0.2942639887332916,1.4700000286102295,-2.6600000858306885,-0.41999998688697815
1743895590.5158553,-0.5592479705810547,0.8032479882240295,0.29231199622154236,1.399999976158142,-2.6600000858306885,-0.49000000953674316
1743895590.5358553,-0.5602239966392517,0.8027600049972534,0.29280000925064087,1.2599999904632568,-2.5899999141693115,-0.3499999940395355
1743895590.5558553,-0.5592479705810547,0.8037359714508057,0.2903600037097931,1.3300000429153442,-2.5199999809265137,-0.41999998688697815
1743895590.5758553,-0.5577840209007263,0.8042240142822266,0.29182401299476624,1.2599999904632568,-2.5199999809265137,-0.41999998688697815
1743895590.5958552,-0.5597360134124756,0.8037359714508057,0.2937760055065155,1.2599999904632568,-2.5199999809265137,-0.41999998688697815
1743895590.6158552,-0.5602239966392517,0.8037359714508057,0.29182401299476624,1.190000057220459,-2.5199999809265137,-0.41999998688697815
1743895590.560734,-0.5602239966392517,0.8047119975090027,0.2908479869365692,1.190000057220459,-2.5899999141693115,-0.6299999952316284
1743895590.580734,-0.5607119798660278,0.8081279993057251,0.29280000925064087,1.2599999904632568,-2.5899999141693115,-0.6299999952316284
1743895590.600734,-0.5607119798660278,0.806663990020752,0.29182401299476624,1.3300000429153442,-2.6600000858306885,-0.7699999809265137
1743895590.620734,-0.5602239966392517,0.8037359714508057,0.29182401299476624,1.190000057220459,-2.6600000858306885,-0.49000000953674316
1743895590.640734,-0.5592479705810547,0.8056880235671997,0.29182401299476624,1.1200000047683716,-2.5199999809265137,-0.5600000023841858
1743895590.660734,-0.5597360134124756,0.8051999807357788,0.2908479869365692,1.190000057220459,-2.5199999809265137,-0.5600000023841858
1743895590.620635,-0.5587599873542786,0.8047119975090027,0.2913359999656677,1.190000057220459,-2.5199999809265137,-0.6299999952316284
1743895590.640635,-0.5592479705810547,0.8047119975090027,0.29475200176239014,1.190000057220459,-2.5199999809265137,-0.6299999952316284
1743895590.660635,-0.5602239966392517,0.8042240142822266,0.293287992477417,1.190000057220459,-2.5899999141693115,-0.5600000023841858
1743895590.680635,-0.5607119798660278,0.8047119975090027,0.29572799801826477,1.0499999523162842,-2.5199999809265137,-0.5600000023841858
1743895590.700635,-0.5587599873542786,0.8051999807357788,0.2913359999656677,1.190000057220459,-2.5899999141693115,-0.6299999952316284
1743895590.720635,-0.5587599873542786,0.8051999807357788,0.29475200176239014,1.3300000429153442,-2.5199999809265137,-0.8399999737739563
1743895590.6503272,-0.5582720041275024,0.8047119975090027,0.29182401299476624,1.190000057220459,-2.6600000858306885,-0.699999988079071
1743895590.6703272,-0.5582720041275024,0.8032479882240295,0.2913359999656677,1.1200000047683716,-2.6600000858306885,-0.699999988079071
1743895590.6903272,-0.5597360134124756,0.8042240142822266,0.2913359999656677,1.1200000047683716,-2.6600000858306885,-0.699999988079071
1743895590.7103271,-0.5587599873542786,0.8037359714508057,0.2913359999656677,1.190000057220459,-2.6600000858306885,-0.6299999952316284
1743895590.7303271,-0.5612000226974487,0.8027600049972534,0.29280000925064087,1.0499999523162842,-2.5899999141693115,-0.699999988079071
1743895590.750327,-0.5572959780693054,0.8056880235671997,0.29231199622154236,0.9800000190734863,-2.5199999809265137,-0.8399999737739563
1743895590.681511,-0.5597360134124756,0.8032479882240295,0.29280000925064087,1.2599999904632568,-2.5899999141693115,-0.699999988079071
1743895590.701511,-0.5592479705810547,0.8027600049972534,0.29231199622154236,1.190000057220459,-2.5899999141693115,-0.699999988079071
1743895590.721511,-0.5607119798660278,0.8027600049972534,0.2913359999656677,1.1200000047683716,-2.5899999141693115,-0.8399999737739563
1743895590.7415109,-0.5563200116157532,0.8042240142822266,0.28938400745391846,0.9800000190734863,-2.5899999141693115,-0.7699999809265137
1743895590.7615108,-0.5607119798660278,0.807640016078949,0.29475200176239014,1.0499999523162842,-2.450000047683716,-0.8399999737739563
1743895590.7815108,-0.5602239966392517,0.8056880235671997,0.2903600037097931,0.9800000190734863,-2.380000114440918,-0.7699999809265137
1743895590.711123,-0.5597360134124756,0.8017839789390564,0.2913359999656677,1.2599999904632568,-2.5199999809265137,-0.5600000023841858
1743895590.731123,-0.5612000226974487,0.8042240142822266,0.2913359999656677,1.1200000047683716,-2.450000047683716,-0.699999988079071
1743895590.751123,-0.5607119798660278,0.8051999807357788,0.2908479869365692,1.190000057220459,-2.5199999809265137,-0.699999988079071
1743895590.771123,-0.5607119798660278,0.8022720217704773,0.2898719906806946,0.9800000190734863,-2.5199999809265137,-0.6299999952316284
1743895590.791123,-0.5592479705810547,0.8032479882240295,0.29231199622154236,1.3300000429153442,-2.5899999141693115,-0.6299999952316284
1743895590.811123,-0.5607119798660278,0.8056880235671997,0.2903600037097931,1.190000057220459,-2.5899999141693115,-0.5600000023841858
1743895590.77141,-0.5597360134124756,0.8061760067939758,0.29231199622154236,1.0499999523162842,-2.6600000858306885,-0.699999988079071
1743895590.79141,-0.5626639723777771,0.8061760067939758,0.2913359999656677,1.190000057220459,-2.6600000858306885,-0.5600000023841858
1743895590.81141,-0.5602239966392517,0.8042240142822266,0.29231199622154236,0.9800000190734863,-2.7300000190734863,-0.6299999952316284
1743895590.83141,-0.5592479705810547,0.8061760067939758,0.2898719906806946,1.190000057220459,-2.6600000858306885,-0.49000000953674316
1743895590.85141,-0.5602239966392517,0.8042240142822266,0.29280000925064087,1.190000057220459,-2.6600000858306885,-0.5600000023841858
1743895590.87141,-0.5587599873542786,0.8047119975090027,0.293287992477417,1.1200000047683716,-2.7300000190734863,-0.699999988079071
1743895590.8159032,-0.5616880059242249,0.8022720217704773,0.2942639887332916,1.190000057220459,-2.799999952316284,-0.699999988079071
1743895590.8359032,-0.5607119798660278,0.8042240142822266,0.29280000925064087,1.190000057220459,-2.799999952316284,-0.7699999809265137
1743895590.8559031,-0.5612000226974487,0.8027600049972534,0.29475200176239014,1.1200000047683716,-2.7300000190734863,-0.7699999809265137
1743895590.8759031,-0.5597360134124756,0.8047119975090027,0.2942639887332916,1.0499999523162842,-2.6600000858306885,-0.8399999737739563
1743895590.895903,-0.5602239966392517,0.8037359714508057,0.29231199622154236,1.190000057220459,-2.799999952316284,-0.8399999737739563
1743895590.915903,-0.5592479705810547,0.8047119975090027,0.2913359999656677,1.1200000047683716,-2.6600000858306885,-0.6299999952316284
1743895590.860605,-0.5587599873542786,0.8027600049972534,0.29182401299476624,1.190000057220459,-2.5899999141693115,-0.6299999952316284
1743895590.880605,-0.5607119798660278,0.8022720217704773,0.293287992477417,1.3300000429153442,-2.5899999141693115,-0.6299999952316284
1743895590.900605,-0.5612000226974487,0.8022720217704773,0.29231199622154236,1.2599999904632568,-2.5199999809265137,-0.5600000023841858
1743895590.920605,-0.5587599873542786,0.8037359714508057,0.2898719906806946,1.190000057220459,-2.5199999809265137,-0.49000000953674316
1743895590.940605,-0.5616880059242249,0.8047119975090027,0.2913359999656677,1.3300000429153442,-2.5199999809265137,-0.5600000023841858
1743895590.960605,-0.5602239966392517,0.8051999807357788,0.2942639887332916,1.190000057220459,-2.5199999809265137,-0.6299999952316284
1743895590.9233212,-0.5612000226974487,0.8042240142822266,0.29182401299476624,1.1200000047683716,-2.5899999141693115,-0.6299999952316284
1743895590.9433212,-0.563152015209198,0.8051999807357788,0.2908479869365692,1.1200000047683716,-2.450000047683716,-0.699999988079071
1743895590.9633212,-0.5636399984359741,0.8061760067939758,0.2903600037097931,1.0499999523162842,-2.450000047683716,-0.5600000023841858
1743895590.9833212,-0.5597360134124756,0.8061760067939758,0.293287992477417,1.1200000047683716,-2.5199999809265137,-0.49000000953674316
1743895591.0033212,-0.562175989151001,0.8027600049972534,0.2908479869365692,1.190000057220459,-2.5199999809265137,-0.5600000023841858
1743895591.0233212,-0.5587599873542786,0.8037359714508057,0.2913359999656677,1.190000057220459,-2.5899999141693115,-0.5600000023841858
1743895590.9553602,-0.5592479705810547,0.8032479882240295,0.28889599442481995,1.190000057220459,-2.5899999141693115,-0.6299999952316284
1743895590.9753602,-0.5616880059242249,0.8056880235671997,0.2898719906806946,1.2599999904632568,-2.6600000858306885,-0.6299999952316284
1743895590.9953601,-0.5592479705810547,0.8042240142822266,0.29231199622154236,1.2599999904632568,-2.5899999141693115,-0.6299999952316284
1743895591.01536,-0.5607119798660278,0.8051999807357788,0.29182401299476624,1.190000057220459,-2.5199999809265137,-0.699999988079071
1743895591.03536,-0.5602239966392517,0.806663990020752,0.2937760055065155,1.190000057220459,-2.5199999809265137,-0.6299999952316284
1743895591.05536,-0.5616880059242249,0.807640016078949,0.29280000925064087,1.190000057220459,-2.450000047683716,-0.5600000023841858
1743895590.965485,-0.5602239966392517,0.8051999807357788,0.29280000925064087,1.190000057220459,-2.5899999141693115,-0.6299999952316284
1743895590.985485,-0.5597360134124756,0.8032479882240295,0.29280000925064087,1.2599999904632568,-2.6600000858306885,-0.7699999809265137
1743895591.005485,-0.5612000226974487,0.806663990020752,0.2913359999656677,1.190000057220459,-2.7300000190734863,-0.699999988079071
1743895591.025485,-0.5612000226974487,0.8037359714508057,0.29182401299476624,1.3300000429153442,-2.7300000190734863,-0.699999988079071
1743895591.045485,-0.5612000226974487,0.8017839789390564,0.2908479869365692,1.2599999904632568,-2.799999952316284,-0.8399999737739563
1743895591.065485,-0.5582720041275024,0.8032479882240295,0.29231199622154236,1.3300000429153442,-2.869999885559082,-0.8399999737739563
1743895591.0094512,-0.5587599873542786,0.8051999807357788,0.2898719906806946,1.2599999904632568,-2.799999952316284,-0.7699999809265137
1743895591.0294511,-0.5572959780693054,0.8042240142822266,0.2913359999656677,1.2599999904632568,-2.7300000190734863,-0.699999988079071
1743895591.049451,-0.5602239966392517,0.8051999807357788,0.29182401299476624,0.9100000262260437,-2.6600000858306885,-0.5600000023841858
1743895591.069451,-0.5587599873542786,0.8027600049972534,0.293287992477417,1.1200000047683716,-2.5199999809265137,-0.5600000023841858
1743895591.089451,-0.5597360134124756,0.8047119975090027,0.2903600037097931,0.8399999737739563,-2.5199999809265137,-0.5600000023841858
1743895591.109451,-0.5607119798660278,0.806663990020752,0.2903600037097931,1.0499999523162842,-2.5899999141693115,-0.49000000953674316
1743895591.074145,-0.5602239966392517,0.8061760067939758,0.293287992477417,1.0499999523162842,-2.5899999141693115,-0.6299999952316284
1743895591.094145,-0.5597360134124756,0.8047119975090027,0.29280000925064087,1.190000057220459,-2.7300000190734863,-0.5600000023841858
1743895591.114145,-0.5577840209007263,0.8051999807357788,0.29231199622154236,1.0499999523162842,-2.5199999809265137,-0.49000000953674316
1743895591.134145,-0.5592479705810547,0.8042240142822266,0.29182401299476624,1.399999976158142,-2.6600000858306885,-0.5600000023841858
1743895591.154145,-0.5592479705810547,0.8051999807357788,0.293287992477417,1.2599999904632568,-2.5899999141693115,-0.5600000023841858
1743895591.174145,-0.5607119798660278,0.8027600049972534,0.29182401299476624,1.2599999904632568,-2.5899999141693115,-0.5600000023841858
1743895591.11535,-0.5602239966392517,0.8022720217704773,0.29280000925064087,1.3300000429153442,-2.6600000858306885,-0.5600000023841858
1743895591.13535,-0.5602239966392517,0.8047119975090027,0.29280000925064087,1.190000057220459,-2.5199999809265137,-0.699999988079071
1743895591.15535,-0.5602239966392517,0.8042240142822266,0.2908479869365692,1.2599999904632568,-2.450000047683716,-0.699999988079071
1743895591.17535,-0.5592479705810547,0.806663990020752,0.2913359999656677,1.0499999523162842,-2.5199999809265137,-0.7699999809265137
1743895591.19535,-0.5592479705810547,0.8022720217704773,0.29182401299476624,1.190000057220459,-2.450000047683716,-0.6299999952316284
1743895591.21535,-0.5587599873542786,0.8032479882240295,0.29280000925064087,1.190000057220459,-2.380000114440918,-0.699999988079071
1743895591.1894343,-0.5582720041275024,0.8042240142822266,0.29280000925064087,1.2599999904632568,-2.450000047683716,-0.699999988079071
1743895591.2094343,-0.5592479705810547,0.8022720217704773,0.2898719906806946,1.190000057220459,-2.380000114440918,-0.699999988079071
1743895591.2294343,-0.5597360134124756,0.8042240142822266,0.2908479869365692,1.2599999904632568,-2.380000114440918,-0.6299999952316284
1743895591.2494342,-0.5607119798660278,0.8047119975090027,0.2908479869365692,1.2599999904632568,-2.380000114440918,-0.6299999952316284
1743895591.2694342,-0.5597360134124756,0.8037359714508057,0.2898719906806946,1.2599999904632568,-2.5199999809265137,-0.6299999952316284
1743895591.2894342,-0.5612000226974487,0.8032479882240295,0.28889599442481995,1.2599999904632568,-2.450000047683716,-0.6299999952316284
1743895591.2192242,-0.5587599873542786,0.8056880235671997,0.2903600037097931,1.3300000429153442,-2.5199999809265137,-0.699999988079071
1743895591.2392242,-0.5602239966392517,0.8051999807357788,0.2908479869365692,1.4700000286102295,-2.5199999809265137,-0.6299999952316284
1743895591.2592242,-0.5616880059242249,0.8056880235671997,0.28938400745391846,1.399999976158142,-2.5899999141693115,-0.699999988079071
1743895591.2792242,-0.5607119798660278,0.8051999807357788,0.29182401299476624,1.4700000286102295,-2.5899999141693115,-0.699999988079071
1743895591.2992241,-0.5607119798660278,0.8061760067939758,0.2903600037097931,1.3300000429153442,-2.5199999809265137,-0.6299999952316284
1743895591.319224,-0.5602239966392517,0.8061760067939758,0.29280000925064087,1.3300000429153442,-2.450000047683716,-0.6299999952316284
1743895591.2357552,-0.5607119798660278,0.8056880235671997,0.29182401299476624,1.3300000429153442,-2.450000047683716,-0.6299999952316284
1743895591.2557552,-0.5607119798660278,0.8051999807357788,0.29182401299476624,1.190000057220459,-2.5199999809265137,-0.5600000023841858
1743895591.2757552,-0.5587599873542786,0.8071519732475281,0.2903600037097931,1.2599999904632568,-2.5899999141693115,-0.6299999952316284
1743895591.2957551,-0.5597360134124756,0.8051999807357788,0.29182401299476624,1.3300000429153442,-2.5899999141693115,-0.7699999809265137
1743895591.3157551,-0.5602239966392517,0.807640016078949,0.2937760055065155,1.190000057220459,-2.5899999141693115,-0.8399999737739563
1743895591.335755,-0.5616880059242249,0.8081279993057251,0.29182401299476624,1.2599999904632568,-2.6600000858306885,-0.8399999737739563
1743895591.280033,-0.5626639723777771,0.806663990020752,0.29182401299476624,1.1200000047683716,-2.6600000858306885,-0.7699999809265137
1743895591.300033,-0.5602239966392517,0.8061760067939758,0.29231199622154236,1.1200000047683716,-2.6600000858306885,-0.8399999737739563
1743895591.320033,-0.5597360134124756,0.8051999807357788,0.2908479869365692,1.0499999523162842,-2.6600000858306885,-0.699999988079071
1743895591.340033,-0.5616880059242249,0.8017839789390564,0.29182401299476624,1.0499999523162842,-2.5199999809265137,-0.7699999809265137
1743895591.360033,-0.5597360134124756,0.8047119975090027,0.2879199981689453,1.0499999523162842,-2.6600000858306885,-0.7699999809265137
1743895591.380033,-0.5607119798660278,0.8017839789390564,0.29231199622154236,0.9800000190734863,-2.5199999809265137,-0.699999988079071
1743895591.3259501,-0.5587599873542786,0.8032479882240295,0.2903600037097931,1.190000057220459,-2.5199999809265137,-0.6299999952316284
1743895591.3459501,-0.5577840209007263,0.8042240142822266,0.2898719906806946,1.1200000047683716,-2.6600000858306885,-0.7699999809265137
1743895591.36595,-0.5582720041275024,0.8022720217704773,0.2913359999656677,1.2599999904632568,-2.6600000858306885,-0.8399999737739563
1743895591.38595,-0.5568079948425293,0.8032479882240295,0.2903600037097931,1.2599999904632568,-2.6600000858306885,-0.8399999737739563
1743895591.40595,-0.5563200116157532,0.8037359714508057,0.2908479869365692,1.2599999904632568,-2.5899999141693115,-0.7699999809265137
1743895591.42595,-0.5587599873542786,0.8061760067939758,0.29280000925064087,1.190000057220459,-2.6600000858306885,-0.7699999809265137
1743895591.37111,-0.5607119798660278,0.8051999807357788,0.29182401299476624,1.190000057220459,-2.6600000858306885,-0.7699999809265137
1743895591.39111,-0.5592479705810547,0.8061760067939758,0.2913359999656677,1.1200000047683716,-2.7300000190734863,-0.7699999809265137
1743895591.41111,-0.5587599873542786,0.8047119975090027,0.2908479869365692,1.1200000047683716,-2.5199999809265137,-0.6299999952316284
1743895591.43111,-0.5587599873542786,0.8071519732475281,0.2937760055065155,1.1200000047683716,-2.6600000858306885,-0.699999988079071
1743895591.45111,-0.5607119798660278,0.806663990020752,0.2908479869365692,1.3300000429153442,-2.6600000858306885,-0.7699999809265137
1743895591.4711099,-0.5602239966392517,0.8056880235671997,0.29280000925064087,1.190000057220459,-2.450000047683716,-0.699999988079071
1743895591.416508,-0.5572959780693054,0.8081279993057251,0.2913359999656677,1.1200000047683716,-2.5199999809265137,-0.7699999809265137
1743895591.436508,-0.5568079948425293,0.8061760067939758,0.293287992477417,1.2599999904632568,-2.5899999141693115,-0.8399999737739563
1743895591.456508,-0.5577840209007263,0.8047119975090027,0.29182401299476624,1.1200000047683716,-2.5199999809265137,-0.7699999809265137
1743895591.476508,-0.5597360134124756,0.8056880235671997,0.29231199622154236,1.1200000047683716,-2.5899999141693115,-0.8399999737739563
1743895591.496508,-0.5597360134124756,0.8047119975090027,0.2913359999656677,1.190000057220459,-2.5199999809265137,-0.7699999809265137
1743895591.5165079,-0.5577840209007263,0.8037359714508057,0.2898719906806946,1.190000057220459,-2.5899999141693115,-0.7699999809265137
1743895591.446192,-0.5592479705810547,0.8047119975090027,0.29182401299476624,1.1200000047683716,-2.5899999141693115,-0.8399999737739563
1743895591.466192,-0.5612000226974487,0.8042240142822266,0.2913359999656677,1.0499999523162842,-2.5899999141693115,-0.8399999737739563
1743895591.486192,-0.5602239966392517,0.8032479882240295,0.2913359999656677,1.0499999523162842,-2.6600000858306885,-0.7699999809265137
1743895591.506192,-0.5602239966392517,0.8051999807357788,0.2913359999656677,1.0499999523162842,-2.5899999141693115,-0.6299999952316284
1743895591.526192,-0.5602239966392517,0.8061760067939758,0.2913359999656677,1.0499999523162842,-2.5899999141693115,-0.7699999809265137
1743895591.546192,-0.5616880059242249,0.8051999807357788,0.2908479869365692,0.9800000190734863,-2.5899999141693115,-0.7699999809265137
1743895591.517489,-0.5612000226974487,0.8047119975090027,0.29182401299476624,0.9100000262260437,-2.5199999809265137,-0.8399999737739563
1743895591.537489,-0.5597360134124756,0.8037359714508057,0.2898719906806946,0.9800000190734863,-2.6600000858306885,-0.699999988079071
1743895591.557489,-0.5592479705810547,0.8051999807357788,0.28889599442481995,1.0499999523162842,-2.5199999809265137,-0.7699999809265137
1743895591.577489,-0.5607119798660278,0.8037359714508057,0.2903600037097931,0.8399999737739563,-2.5199999809265137,-0.8399999737739563
1743895591.5974889,-0.5612000226974487,0.8061760067939758,0.29231199622154236,0.9100000262260437,-2.5199999809265137,-0.7699999809265137
1743895591.6174889,-0.5582720041275024,0.8061760067939758,0.2913359999656677,0.9100000262260437,-2.5199999809265137,-0.699999988079071
1743895591.5506601,-0.5612000226974487,0.8051999807357788,0.2942639887332916,0.9100000262260437,-2.5199999809265137,-0.7699999809265137
1743895591.57066,-0.5587599873542786,0.806663990020752,0.29280000925064087,0.9100000262260437,-2.5899999141693115,-0.699999988079071
1743895591.59066,-0.5616880059242249,0.8061760067939758,0.29231199622154236,0.699999988079071,-2.450000047683716,-0.7699999809265137
1743895591.61066,-0.5597360134124756,0.8037359714508057,0.29182401299476624,0.8399999737739563,-2.450000047683716,-0.8399999737739563
1743895591.63066,-0.5592479705810547,0.8061760067939758,0.2908479869365692,1.0499999523162842,-2.450000047683716,-0.6299999952316284
1743895591.65066,-0.5592479705810547,0.8017839789390564,0.29280000925064087,0.9100000262260437,-2.5899999141693115,-0.6299999952316284
1743895591.6095293,-0.5607119798660278,0.8051999807357788,0.2913359999656677,1.1200000047683716,-2.5199999809265137,-0.699999988079071
1743895591.6295292,-0.5597360134124756,0.8042240142822266,0.29182401299476624,1.0499999523162842,-2.5199999809265137,-0.7699999809265137
1743895591.6495292,-0.5597360134124756,0.8037359714508057,0.2903600037097931,1.1200000047683716,-2.5899999141693115,-0.699999988079071
1743895591.6695292,-0.5602239966392517,0.8032479882240295,0.29182401299476624,1.1200000047683716,-2.6600000858306885,-0.699999988079071
1743895591.6895292,-0.5587599873542786,0.8056880235671997,0.2908479869365692,1.1200000047683716,-2.6600000858306885,-0.6299999952316284
1743895591.7095292,-0.5602239966392517,0.8051999807357788,0.293287992477417,1.0499999523162842,-2.7300000190734863,-0.7699999809265137
1743895591.65492,-0.5597360134124756,0.8056880235671997,0.29182401299476624,0.9800000190734863,-2.5199999809265137,-0.699999988079071
1743895591.67492,-0.5587599873542786,0.8027600049972534,0.29231199622154236,0.9100000262260437,-2.5199999809265137,-0.7699999809265137
1743895591.69492,-0.5607119798660278,0.8027600049972534,0.29182401299476624,0.9100000262260437,-2.5199999809265137,-0.7699999809265137
1743895591.71492,-0.5602239966392517,0.8022720217704773,0.29231199622154236,0.8399999737739563,-2.5199999809265137,-0.9100000262260437
1743895591.73492,-0.5616880059242249,0.8042240142822266,0.2913359999656677,0.9100000262260437,-2.5199999809265137,-0.7699999809265137
1743895591.75492,-0.5612000226974487,0.8037359714508057,0.29182401299476624,0.7699999809265137,-2.5199999809265137,-0.7699999809265137
1743895591.6708531,-0.5597360134124756,0.8056880235671997,0.2903600037097931,0.9100000262260437,-2.450000047683716,-0.8399999737739563
1743895591.690853,-0.5582720041275024,0.8047119975090027,0.2903600037097931,0.8399999737739563,-2.309999942779541,-0.7699999809265137
1743895591.710853,-0.5582720041275024,0.8061760067939758,0.2908479869365692,0.7699999809265137,-2.309999942779541,-0.7699999809265137
1743895591.730853,-0.5592479705810547,0.8051999807357788,0.29182401299476624,0.9800000190734863,-2.450000047683716,-0.9800000190734863
1743895591.750853,-0.5592479705810547,0.8032479882240295,0.2903600037097931,0.9800000190734863,-2.309999942779541,-0.8399999737739563
1743895591.770853,-0.5602239966392517,0.8037359714508057,0.29231199622154236,0.9800000190734863,-2.5899999141693115,-1.0499999523162842
1743895591.7168121,-0.5592479705810547,0.8037359714508057,0.29182401299476624,1.0499999523162842,-2.5199999809265137,-0.9100000262260437
1743895591.736812,-0.5612000226974487,0.8032479882240295,0.28889599442481995,1.0499999523162842,-2.6600000858306885,-0.9800000190734863
1743895591.756812,-0.5597360134124756,0.8032479882240295,0.2898719906806946,1.0499999523162842,-2.799999952316284,-0.8399999737739563
1743895591.776812,-0.5616880059242249,0.8042240142822266,0.293287992477417,0.9800000190734863,-2.7300000190734863,-0.8399999737739563
1743895591.796812,-0.5587599873542786,0.8047119975090027,0.29182401299476624,1.1200000047683716,-2.6600000858306885,-0.7699999809265137
1743895591.816812,-0.5616880059242249,0.8056880235671997,0.29231199622154236,1.0499999523162842,-2.7300000190734863,-0.6299999952316284
1743895591.7898703,-0.562175989151001,0.8047119975090027,0.29182401299476624,0.9100000262260437,-2.6600000858306885,-0.6299999952316284
1743895591.8098702,-0.5602239966392517,0.8047119975090027,0.2908479869365692,1.0499999523162842,-2.6600000858306885,-0.7699999809265137
1743895591.8298702,-0.5592479705810547,0.8037359714508057,0.2898719906806946,0.9100000262260437,-2.5899999141693115,-0.6299999952316284
1743895591.8498702,-0.5597360134124756,0.8047119975090027,0.2903600037097931,0.9100000262260437,-2.6600000858306885,-0.699999988079071
1743895591.8698702,-0.5597360134124756,0.8056880235671997,0.2913359999656677,0.9800000190734863,-2.7300000190734863,-0.699999988079071
1743895591.8898702,-0.5597360134124756,0.8071519732475281,0.293287992477417,0.9100000262260437,-2.799999952316284,-0.9800000190734863
1743895591.8211422,-0.5587599873542786,0.8061760067939758,0.2937760055065155,0.8399999737739563,-2.6600000858306885,-0.7699999809265137
1743895591.8411422,-0.5592479705810547,0.8056880235671997,0.2962160110473633,0.9100000262260437,-2.6600000858306885,-0.8399999737739563
1743895591.8611422,-0.5612000226974487,0.8032479882240295,0.29280000925064087,0.9100000262260437,-2.7300000190734863,-0.9100000262260437
1743895591.8811421,-0.563152015209198,0.8056880235671997,0.2937760055065155,0.7699999809265137,-2.7300000190734863,-0.9100000262260437
1743895591.9011421,-0.5587599873542786,0.8056880235671997,0.29182401299476624,0.9800000190734863,-2.6600000858306885,-0.8399999737739563
1743895591.921142,-0.5602239966392517,0.8037359714508057,0.29280000925064087,0.9800000190734863,-2.5899999141693115,-0.699999988079071
1743895591.8511922,-0.5602239966392517,0.8042240142822266,0.2903600037097931,0.8399999737739563,-2.450000047683716,-0.6299999952316284
1743895591.8711922,-0.5597360134124756,0.8042240142822266,0.2908479869365692,0.8399999737739563,-2.450000047683716,-0.8399999737739563
1743895591.8911922,-0.5592479705810547,0.8056880235671997,0.29231199622154236,0.9800000190734863,-2.5899999141693115,-0.9800000190734863
1743895591.9111922,-0.5602239966392517,0.8032479882240295,0.29231199622154236,1.1200000047683716,-2.5199999809265137,-0.9100000262260437
1743895591.9311922,-0.5597360134124756,0.8037359714508057,0.2908479869365692,0.8399999737739563,-2.5899999141693115,-1.0499999523162842
1743895591.9511921,-0.5607119798660278,0.8051999807357788,0.2913359999656677,0.9100000262260437,-2.5199999809265137,-0.8399999737739563
1743895591.880567,-0.5592479705810547,0.8027600049972534,0.28889599442481995,0.9100000262260437,-2.5899999141693115,-0.8399999737739563
1743895591.900567,-0.5597360134124756,0.8012959957122803,0.29182401299476624,0.9100000262260437,-2.6600000858306885,-0.9100000262260437
1743895591.920567,-0.5626639723777771,0.8037359714508057,0.2908479869365692,0.9100000262260437,-2.450000047683716,-0.8399999737739563
1743895591.940567,-0.5602239966392517,0.8037359714508057,0.29280000925064087,0.9100000262260437,-2.5199999809265137,-0.7699999809265137
1743895591.960567,-0.562175989151001,0.8037359714508057,0.293287992477417,1.0499999523162842,-2.450000047683716,-0.7699999809265137
1743895591.980567,-0.5592479705810547,0.8022720217704773,0.2908479869365692,1.0499999523162842,-2.5199999809265137,-0.699999988079071
1743895591.9273863,-0.5597360134124756,0.8027600049972534,0.293287992477417,0.8399999737739563,-2.450000047683716,-0.699999988079071
1743895591.9473863,-0.5616880059242249,0.8022720217704773,0.2937760055065155,0.9800000190734863,-2.5199999809265137,-0.699999988079071
1743895591.9673862,-0.5602239966392517,0.8047119975090027,0.29280000925064087,0.8399999737739563,-2.5899999141693115,-0.8399999737739563
1743895591.9873862,-0.562175989151001,0.8027600049972534,0.29280000925064087,0.8399999737739563,-2.5899999141693115,-0.8399999737739563
1743895592.0073862,-0.5597360134124756,0.8032479882240295,0.2942639887332916,0.9800000190734863,-2.5199999809265137,-0.7699999809265137
1743895592.0273862,-0.5616880059242249,0.8037359714508057,0.29524001479148865,1.0499999523162842,-2.6600000858306885,-0.8399999737739563
1743895591.9699461,-0.5602239966392517,0.8027600049972534,0.2913359999656677,1.0499999523162842,-2.7300000190734863,-0.9800000190734863
1743895591.9899461,-0.5602239966392517,0.8037359714508057,0.29231199622154236,1.0499999523162842,-2.6600000858306885,-0.9100000262260437
1743895592.009946,-0.5612000226974487,0.8032479882240295,0.2908479869365692,1.1200000047683716,-2.799999952316284,-1.0499999523162842
1743895592.029946,-0.5602239966392517,0.8037359714508057,0.29475200176239014,1.0499999523162842,-2.799999952316284,-0.9100000262260437
1743895592.049946,-0.5626639723777771,0.8037359714508057,0.293287992477417,0.9100000262260437,-2.7300000190734863,-0.7699999809265137
1743895592.069946,-0.5607119798660278,0.8051999807357788,0.29280000925064087,0.8399999737739563,-2.7300000190734863,-0.8399999737739563
1743895592.016354,-0.5597360134124756,0.8051999807357788,0.29475200176239014,0.8399999737739563,-2.7300000190734863,-0.8399999737739563
1743895592.036354,-0.5612000226974487,0.8042240142822266,0.293287992477417,0.9100000262260437,-2.5899999141693115,-0.8399999737739563
1743895592.056354,-0.5616880059242249,0.8056880235671997,0.29280000925064087,0.7699999809265137,-2.6600000858306885,-0.9100000262260437
1743895592.076354,-0.5636399984359741,0.8042240142822266,0.29280000925064087,0.8399999737739563,-2.7300000190734863,-0.8399999737739563
1743895592.096354,-0.5616880059242249,0.8032479882240295,0.29280000925064087,0.8399999737739563,-2.7300000190734863,-1.0499999523162842
1743895592.116354,-0.5592479705810547,0.8037359714508057,0.293287992477417,0.7699999809265137,-2.799999952316284,-1.0499999523162842
1743895592.1191201,-0.5582720041275024,0.8017839789390564,0.293287992477417,0.9800000190734863,-2.7300000190734863,-0.9800000190734863
1743895592.13912,-0.5636399984359741,0.8032479882240295,0.2903600037097931,0.8399999737739563,-2.7300000190734863,-0.9100000262260437
1743895592.15912,-0.5612000226974487,0.8037359714508057,0.29280000925064087,1.0499999523162842,-2.7300000190734863,-1.0499999523162842
1743895592.17912,-0.5602239966392517,0.8037359714508057,0.29280000925064087,1.0499999523162842,-2.5899999141693115,-0.9100000262260437
1743895592.19912,-0.5616880059242249,0.8022720217704773,0.29475200176239014,0.9800000190734863,-2.5899999141693115,-0.9100000262260437
1743895592.21912,-0.5587599873542786,0.8056880235671997,0.293287992477417,0.8399999737739563,-2.450000047683716,-0.8399999737739563
1743895592.121282,-0.5616880059242249,0.8071519732475281,0.2937760055065155,0.7699999809265137,-2.380000114440918,-0.7699999809265137
1743895592.141282,-0.5597360134124756,0.8032479882240295,0.29280000925064087,0.9100000262260437,-2.450000047683716,-0.7699999809265137
1743895592.161282,-0.5626639723777771,0.8051999807357788,0.2903600037097931,0.9100000262260437,-2.380000114440918,-0.7699999809265137
1743895592.181282,-0.5587599873542786,0.8027600049972534,0.2908479869365692,0.9800000190734863,-2.5199999809265137,-0.7699999809265137
1743895592.201282,-0.5616880059242249,0.8022720217704773,0.2913359999656677,0.9800000190734863,-2.5899999141693115,-0.7699999809265137
1743895592.221282,-0.5616880059242249,0.8037359714508057,0.2903600037097931,1.0499999523162842,-2.5199999809265137,-0.8399999737739563
1743895592.15035,-0.5616880059242249,0.8022720217704773,0.2908479869365692,1.1200000047683716,-2.5199999809265137,-0.8399999737739563
1743895592.17035,-0.562175989151001,0.8017839789390564,0.2908479869365692,1.1200000047683716,-2.5199999809265137,-0.9100000262260437
1743895592.19035,-0.5607119798660278,0.8017839789390564,0.2908479869365692,1.1200000047683716,-2.7300000190734863,-0.9800000190734863
1743895592.21035,-0.5616880059242249,0.8027600049972534,0.29182401299476624,1.0499999523162842,-2.7300000190734863,-0.8399999737739563
1743895592.23035,-0.5626639723777771,0.8047119975090027,0.2962160110473633,0.9800000190734863,-2.5899999141693115,-0.7699999809265137
1743895592.25035,-0.5646160244941711,0.8047119975090027,0.2937760055065155,0.9800000190734863,-2.5899999141693115,-0.7699999809265137
1743895592.195979,-0.5626639723777771,0.8037359714508057,0.2913359999656677,0.9100000262260437,-2.5199999809265137,-0.699999988079071
1743895592.215979,-0.5612000226974487,0.8032479882240295,0.29280000925064087,0.8399999737739563,-2.5899999141693115,-0.699999988079071
1743895592.235979,-0.5616880059242249,0.8037359714508057,0.2942639887332916,0.8399999737739563,-2.5899999141693115,-0.699999988079071
1743895592.255979,-0.5587599873542786,0.8037359714508057,0.29182401299476624,0.9800000190734863,-2.799999952316284,-0.8399999737739563
1743895592.275979,-0.5607119798660278,0.8051999807357788,0.293287992477417,0.9100000262260437,-2.869999885559082,-0.8399999737739563
1743895592.295979,-0.563152015209198,0.8042240142822266,0.2937760055065155,1.0499999523162842,-2.869999885559082,-0.9100000262260437
1743895592.2404282,-0.5587599873542786,0.8022720217704773,0.29182401299476624,0.9100000262260437,-2.869999885559082,-0.9100000262260437
1743895592.2604282,-0.5577840209007263,0.8037359714508057,0.29231199622154236,1.0499999523162842,-2.7300000190734863,-0.7699999809265137
1743895592.2804282,-0.5602239966392517,0.8032479882240295,0.29182401299476624,0.9800000190734863,-2.5899999141693115,-0.7699999809265137
1743895592.3004282,-0.5607119798660278,0.8042240142822266,0.2937760055065155,0.9800000190734863,-2.5199999809265137,-0.8399999737739563
1743895592.3204281,-0.563152015209198,0.8042240142822266,0.293287992477417,0.9100000262260437,-2.6600000858306885,-0.7699999809265137
1743895592.340428,-0.5597360134124756,0.8047119975090027,0.293287992477417,0.7699999809265137,-2.450000047683716,-0.699999988079071
1743895592.286279,-0.5607119798660278,0.8061760067939758,0.2942639887332916,0.7699999809265137,-2.450000047683716,-0.7699999809265137
1743895592.306279,-0.5616880059242249,0.8056880235671997,0.29475200176239014,0.6299999952316284,-2.5199999809265137,-0.7699999809265137
1743895592.326279,-0.5612000226974487,0.8032479882240295,0.2942639887332916,0.699999988079071,-2.5199999809265137,-0.8399999737739563
1743895592.346279,-0.5607119798660278,0.8022720217704773,0.2967039942741394,0.9800000190734863,-2.5899999141693115,-0.7699999809265137
1743895592.366279,-0.5602239966392517,0.8022720217704773,0.2898719906806946,0.8399999737739563,-2.6600000858306885,-0.8399999737739563
1743895592.3862789,-0.5616880059242249,0.8012959957122803,0.29280000925064087,1.0499999523162842,-2.5899999141693115,-0.9100000262260437
1743895592.330641,-0.5592479705810547,0.8022720217704773,0.29280000925064087,1.0499999523162842,-2.5899999141693115,-0.8399999737739563
1743895592.350641,-0.5607119798660278,0.8012959957122803,0.2937760055065155,0.9100000262260437,-2.450000047683716,-0.9100000262260437
1743895592.370641,-0.5592479705810547,0.8027600049972534,0.29231199622154236,1.1200000047683716,-2.5899999141693115,-0.6299999952316284
1743895592.390641,-0.5612000226974487,0.8008080124855042,0.29475200176239014,1.0499999523162842,-2.5199999809265137,-0.7699999809265137
1743895592.410641,-0.5612000226974487,0.8027600049972534,0.29524001479148865,0.9100000262260437,-2.5199999809265137,-0.8399999737739563
1743895592.430641,-0.563152015209198,0.8012959957122803,0.29182401299476624,0.9800000190734863,-2.380000114440918,-0.7699999809265137
1743895592.4189441,-0.5641279816627502,0.8037359714508057,0.29475200176239014,1.0499999523162842,-2.450000047683716,-0.699999988079071
1743895592.438944,-0.5626639723777771,0.8012959957122803,0.2908479869365692,1.1200000047683716,-2.5899999141693115,-0.699999988079071
1743895592.458944,-0.562175989151001,0.8017839789390564,0.29475200176239014,1.0499999523162842,-2.5199999809265137,-0.699999988079071
1743895592.478944,-0.563152015209198,0.8051999807357788,0.2913359999656677,1.1200000047683716,-2.5199999809265137,-0.699999988079071
1743895592.498944,-0.5636399984359741,0.8012959957122803,0.29280000925064087,1.190000057220459,-2.450000047683716,-0.7699999809265137
1743895592.518944,-0.5612000226974487,0.8032479882240295,0.29182401299476624,1.1200000047683716,-2.5199999809265137,-0.6299999952316284
1743895592.421219,-0.5616880059242249,0.8022720217704773,0.293287992477417,1.190000057220459,-2.6600000858306885,-0.6299999952316284
1743895592.441219,-0.5636399984359741,0.8008080124855042,0.293287992477417,1.1200000047683716,-2.6600000858306885,-0.699999988079071
1743895592.461219,-0.562175989151001,0.8017839789390564,0.29280000925064087,1.190000057220459,-2.6600000858306885,-0.6299999952316284
1743895592.481219,-0.5612000226974487,0.8022720217704773,0.2937760055065155,1.190000057220459,-2.6600000858306885,-0.6299999952316284
1743895592.501219,-0.5616880059242249,0.8032479882240295,0.2937760055065155,1.190000057220459,-2.5899999141693115,-0.5600000023841858
1743895592.521219,-0.5602239966392517,0.8027600049972534,0.29572799801826477,1.2599999904632568,-2.5899999141693115,-0.6299999952316284
1743895592.4514902,-0.5602239966392517,0.8042240142822266,0.2942639887332916,1.1200000047683716,-2.5899999141693115,-0.5600000023841858
1743895592.4714901,-0.5646160244941711,0.8012959957122803,0.29475200176239014,1.1200000047683716,-2.5899999141693115,-0.6299999952316284
1743895592.4914901,-0.5592479705810547,0.8027600049972534,0.29280000925064087,1.1200000047683716,-2.5899999141693115,-0.5600000023841858
1743895592.51149,-0.5612000226974487,0.8027600049972534,0.29475200176239014,1.190000057220459,-2.6600000858306885,-0.5600000023841858
1743895592.53149,-0.5616880059242249,0.8012959957122803,0.29475200176239014,1.2599999904632568,-2.5199999809265137,-0.5600000023841858
1743895592.55149,-0.5607119798660278,0.8032479882240295,0.2898719906806946,1.1200000047683716,-2.5199999809265137,-0.699999988079071
1743895592.495999,-0.5616880059242249,0.8012959957122803,0.293287992477417,0.9800000190734863,-2.450000047683716,-0.7699999809265137
1743895592.515999,-0.5602239966392517,0.8037359714508057,0.29231199622154236,0.9800000190734863,-2.5899999141693115,-0.699999988079071
1743895592.535999,-0.5612000226974487,0.8042240142822266,0.2937760055065155,1.0499999523162842,-2.380000114440918,-0.7699999809265137
1743895592.555999,-0.563152015209198,0.8032479882240295,0.29280000925064087,1.190000057220459,-2.5199999809265137,-0.7699999809265137
1743895592.575999,-0.5626639723777771,0.8042240142822266,0.2898719906806946,1.0499999523162842,-2.5899999141693115,-0.699999988079071
1743895592.595999,-0.5616880059242249,0.8037359714508057,0.2937760055065155,1.2599999904632568,-2.7300000190734863,-0.699999988079071
1743895592.54064,-0.5626639723777771,0.8008080124855042,0.29182401299476624,1.2599999904632568,-2.799999952316284,-0.7699999809265137
1743895592.56064,-0.5602239966392517,0.800320029258728,0.2942639887332916,1.399999976158142,-2.6600000858306885,-0.699999988079071
1743895592.58064,-0.5616880059242249,0.8017839789390564,0.2908479869365692,1.4700000286102295,-2.6600000858306885,-0.699999988079071
1743895592.60064,-0.5602239966392517,0.8032479882240295,0.29231199622154236,1.2599999904632568,-2.7300000190734863,-0.6299999952316284
1743895592.62064,-0.5597360134124756,0.8042240142822266,0.29231199622154236,1.399999976158142,-2.6600000858306885,-0.6299999952316284
1743895592.64064,-0.5616880059242249,0.8032479882240295,0.2908479869365692,1.190000057220459,-2.7300000190734863,-0.6299999952316284
1743895592.587167,-0.562175989151001,0.8047119975090027,0.29280000925064087,1.2599999904632568,-2.5899999141693115,-0.6299999952316284
1743895592.607167,-0.5636399984359741,0.8032479882240295,0.2908479869365692,1.190000057220459,-2.5899999141693115,-0.5600000023841858
1743895592.627167,-0.5612000226974487,0.8042240142822266,0.29182401299476624,1.1200000047683716,-2.6600000858306885,-0.8399999737739563
1743895592.647167,-0.5602239966392517,0.8032479882240295,0.29231199622154236,1.0499999523162842,-2.6600000858306885,-0.7699999809265137
1743895592.667167,-0.5612000226974487,0.8047119975090027,0.29182401299476624,1.0499999523162842,-2.6600000858306885,-0.8399999737739563
1743895592.687167,-0.5577840209007263,0.8047119975090027,0.2962160110473633,0.9800000190734863,-2.5199999809265137,-0.7699999809265137
1743895592.616429,-0.5607119798660278,0.8047119975090027,0.2937760055065155,0.6299999952316284,-2.309999942779541,-0.9800000190734863
1743895592.636429,-0.5597360134124756,0.7998319864273071,0.29524001479148865,1.0499999523162842,-2.5199999809265137,-0.699999988079071
1743895592.656429,-0.562175989151001,0.800320029258728,0.29280000925064087,1.0499999523162842,-2.6600000858306885,-0.699999988079071
1743895592.676429,-0.5602239966392517,0.8037359714508057,0.29231199622154236,0.9800000190734863,-2.6600000858306885,-0.6299999952316284
1743895592.696429,-0.5607119798660278,0.8027600049972534,0.29475200176239014,1.190000057220459,-2.450000047683716,-0.6299999952316284
1743895592.716429,-0.5607119798660278,0.8042240142822266,0.29475200176239014,1.1200000047683716,-2.5899999141693115,-0.6299999952316284
1743895592.6622322,-0.562175989151001,0.8037359714508057,0.293287992477417,1.0499999523162842,-2.5899999141693115,-0.7699999809265137
1743895592.6822321,-0.5597360134124756,0.8017839789390564,0.29231199622154236,1.1200000047683716,-2.5899999141693115,-0.699999988079071
1743895592.7022321,-0.5616880059242249,0.8022720217704773,0.29280000925064087,1.190000057220459,-2.5899999141693115,-0.5600000023841858
1743895592.722232,-0.5626639723777771,0.8012959957122803,0.29182401299476624,1.190000057220459,-2.5899999141693115,-0.6299999952316284
1743895592.742232,-0.5616880059242249,0.8022720217704773,0.29280000925064087,1.0499999523162842,-2.5199999809265137,-0.699999988079071
1743895592.762232,-0.5616880059242249,0.8012959957122803,0.29280000925064087,1.190000057220459,-2.5199999809265137,-0.699999988079071
1743895592.7208521,-0.5607119798660278,0.8037359714508057,0.29231199622154236,1.2599999904632568,-2.6600000858306885,-0.6299999952316284
1743895592.740852,-0.5626639723777771,0.8012959957122803,0.29231199622154236,1.2599999904632568,-2.6600000858306885,-0.6299999952316284
1743895592.760852,-0.562175989151001,0.8042240142822266,0.29182401299476624,1.0499999523162842,-2.5199999809265137,-0.5600000023841858
1743895592.780852,-0.5587599873542786,0.8012959957122803,0.293287992477417,0.9800000190734863,-2.5199999809265137,-0.5600000023841858
1743895592.800852,-0.5607119798660278,0.8027600049972534,0.29231199622154236,1.0499999523162842,-2.450000047683716,-0.41999998688697815
1743895592.820852,-0.5616880059242249,0.8027600049972534,0.2913359999656677,1.0499999523162842,-2.5199999809265137,-0.49000000953674316
1743895592.7651641,-0.5602239966392517,0.8042240142822266,0.29182401299476624,1.1200000047683716,-2.450000047683716,-0.5600000023841858
1743895592.785164,-0.5612000226974487,0.8027600049972534,0.29280000925064087,1.1200000047683716,-2.380000114440918,-0.5600000023841858
1743895592.805164,-0.5607119798660278,0.8051999807357788,0.293287992477417,1.2599999904632568,-2.380000114440918,-0.6299999952316284
1743895592.825164,-0.5616880059242249,0.8027600049972534,0.2942639887332916,1.399999976158142,-2.5899999141693115,-0.699999988079071
1743895592.845164,-0.5592479705810547,0.8042240142822266,0.29524001479148865,1.399999976158142,-2.6600000858306885,-0.699999988079071
1743895592.865164,-0.5602239966392517,0.8022720217704773,0.2937760055065155,1.4700000286102295,-2.799999952316284,-0.7699999809265137
1743895592.8112242,-0.5626639723777771,0.8037359714508057,0.2942639887332916,1.399999976158142,-2.7300000190734863,-0.7699999809265137
1743895592.8312242,-0.5612000226974487,0.8027600049972534,0.2908479869365692,1.3300000429153442,-2.799999952316284,-0.7699999809265137
1743895592.8512242,-0.562175989151001,0.8027600049972534,0.29231199622154236,1.4700000286102295,-2.799999952316284,-0.699999988079071
1743895592.8712242,-0.5616880059242249,0.8022720217704773,0.2942639887332916,1.3300000429153442,-2.6600000858306885,-0.6299999952316284
1743895592.8912241,-0.5616880059242249,0.8027600049972534,0.2937760055065155,1.2599999904632568,-2.6600000858306885,-0.5600000023841858
1743895592.9112241,-0.5641279816627502,0.8027600049972534,0.29280000925064087,1.399999976158142,-2.450000047683716,-0.5600000023841858
1743895592.841005,-0.5612000226974487,0.8042240142822266,0.29182401299476624,1.2599999904632568,-2.5899999141693115,-0.5600000023841858
1743895592.861005,-0.5636399984359741,0.8032479882240295,0.29475200176239014,1.2599999904632568,-2.450000047683716,-0.5600000023841858
1743895592.881005,-0.5616880059242249,0.8051999807357788,0.2942639887332916,1.2599999904632568,-2.6600000858306885,-0.5600000023841858
1743895592.901005,-0.5616880059242249,0.8017839789390564,0.29182401299476624,1.3300000429153442,-2.7300000190734863,-0.5600000023841858
1743895592.921005,-0.5612000226974487,0.8037359714508057,0.293287992477417,1.190000057220459,-2.6600000858306885,-0.6299999952316284
1743895592.941005,-0.5626639723777771,0.8042240142822266,0.29475200176239014,1.190000057220459,-2.5199999809265137,-0.6299999952316284
1743895592.900987,-0.5607119798660278,0.8012959957122803,0.2898719906806946,1.2599999904632568,-2.6600000858306885,-0.5600000023841858
1743895592.920987,-0.5616880059242249,0.8032479882240295,0.2908479869365692,1.2599999904632568,-2.5899999141693115,-0.6299999952316284
1743895592.9409869,-0.5612000226974487,0.800320029258728,0.293287992477417,1.3300000429153442,-2.5199999809265137,-0.5600000023841858
1743895592.9609869,-0.5616880059242249,0.8042240142822266,0.29475200176239014,1.2599999904632568,-2.450000047683716,-0.49000000953674316
1743895592.9809868,-0.5597360134124756,0.8047119975090027,0.2937760055065155,1.190000057220459,-2.450000047683716,-0.5600000023841858
1743895593.0009868,-0.5602239966392517,0.8027600049972534,0.28889599442481995,1.190000057220459,-2.5199999809265137,-0.5600000023841858
1743895592.945446,-0.5612000226974487,0.8037359714508057,0.28889599442481995,1.2599999904632568,-2.6600000858306885,-0.6299999952316284
1743895592.965446,-0.5592479705810547,0.800320029258728,0.29280000925064087,1.190000057220459,-2.6600000858306885,-0.6299999952316284
1743895592.985446,-0.5626639723777771,0.8037359714508057,0.293287992477417,1.2599999904632568,-2.6600000858306885,-0.6299999952316284
1743895593.005446,-0.5607119798660278,0.8042240142822266,0.29231199622154236,1.3300000429153442,-2.6600000858306885,-0.5600000023841858
1743895593.025446,-0.5592479705810547,0.8042240142822266,0.29182401299476624,1.190000057220459,-2.5899999141693115,-0.6299999952316284
1743895593.045446,-0.563152015209198,0.8037359714508057,0.2903600037097931,1.190000057220459,-2.5199999809265137,-0.5600000023841858
1743895593.019169,-0.5597360134124756,0.8012959957122803,0.29231199622154236,1.190000057220459,-2.5899999141693115,-0.6299999952316284
1743895593.039169,-0.562175989151001,0.8022720217704773,0.29182401299476624,1.3300000429153442,-2.7300000190734863,-0.6299999952316284
1743895593.059169,-0.5592479705810547,0.8022720217704773,0.2913359999656677,1.399999976158142,-2.5199999809265137,-0.5600000023841858
1743895593.079169,-0.5607119798660278,0.8037359714508057,0.293287992477417,1.190000057220459,-2.5199999809265137,-0.6299999952316284
1743895593.099169,-0.5602239966392517,0.8042240142822266,0.29280000925064087,1.2599999904632568,-2.450000047683716,-0.49000000953674316
1743895593.119169,-0.5592479705810547,0.8008080124855042,0.29182401299476624,1.190000057220459,-2.5199999809265137,-0.41999998688697815
1743895593.0276182,-0.563152015209198,0.8027600049972534,0.2908479869365692,1.2599999904632568,-2.380000114440918,-0.5600000023841858
1743895593.0476182,-0.5616880059242249,0.8047119975090027,0.29231199622154236,1.3300000429153442,-2.5199999809265137,-0.41999998688697815
1743895593.0676181,-0.5616880059242249,0.8042240142822266,0.29280000925064087,1.3300000429153442,-2.450000047683716,-0.3499999940395355
1743895593.087618,-0.5607119798660278,0.8032479882240295,0.2937760055065155,1.2599999904632568,-2.450000047683716,-0.49000000953674316
1743895593.107618,-0.5587599873542786,0.8032479882240295,0.29280000925064087,1.399999976158142,-2.5199999809265137,-0.41999998688697815
1743895593.127618,-0.5612000226974487,0.8042240142822266,0.2898719906806946,1.190000057220459,-2.450000047683716,-0.49000000953674316
1743895593.065175,-0.5602239966392517,0.8032479882240295,0.29182401299476624,1.2599999904632568,-2.380000114440918,-0.5600000023841858
1743895593.085175,-0.5612000226974487,0.8047119975090027,0.293287992477417,1.2599999904632568,-2.450000047683716,-0.49000000953674316
1743895593.105175,-0.5626639723777771,0.8047119975090027,0.2937760055065155,1.190000057220459,-2.5899999141693115,-0.5600000023841858
1743895593.125175,-0.5612000226974487,0.8032479882240295,0.29475200176239014,1.190000057220459,-2.450000047683716,-0.5600000023841858
1743895593.145175,-0.563152015209198,0.8051999807357788,0.29231199622154236,1.1200000047683716,-2.450000047683716,-0.699999988079071
1743895593.165175,-0.5597360134124756,0.8017839789390564,0.2937760055065155,1.1200000047683716,-2.5199999809265137,-0.6299999952316284
1743895593.1108491,-0.5612000226974487,0.8037359714508057,0.29231199622154236,1.190000057220459,-2.5199999809265137,-0.5600000023841858
1743895593.1308491,-0.5602239966392517,0.8056880235671997,0.29280000925064087,1.190000057220459,-2.5199999809265137,-0.6299999952316284
1743895593.150849,-0.5626639723777771,0.8032479882240295,0.2908479869365692,1.190000057220459,-2.5199999809265137,-0.49000000953674316
1743895593.170849,-0.563152015209198,0.8047119975090027,0.29280000925064087,1.2599999904632568,-2.5199999809265137,-0.49000000953674316
1743895593.190849,-0.5587599873542786,0.8051999807357788,0.2937760055065155,1.2599999904632568,-2.5199999809265137,-0.49000000953674316
1743895593.210849,-0.5592479705810547,0.8051999807357788,0.29182401299476624,1.2599999904632568,-2.5199999809265137,-0.6299999952316284
1743895593.1714,-0.5587599873542786,0.8051999807357788,0.29182401299476624,1.3300000429153442,-2.6600000858306885,-0.5600000023841858
1743895593.1914,-0.562175989151001,0.8047119975090027,0.2908479869365692,1.190000057220459,-2.450000047683716,-0.699999988079071
1743895593.2114,-0.5626639723777771,0.8056880235671997,0.2903600037097931,1.190000057220459,-2.5199999809265137,-0.5600000023841858
1743895593.2314,-0.5616880059242249,0.8047119975090027,0.29182401299476624,1.0499999523162842,-2.5199999809265137,-0.49000000953674316
1743895593.2514,-0.5592479705810547,0.8042240142822266,0.293287992477417,1.190000057220459,-2.5199999809265137,-0.6299999952316284
1743895593.2714,-0.5616880059242249,0.8032479882240295,0.2908479869365692,1.1200000047683716,-2.450000047683716,-0.49000000953674316
1743895593.2158601,-0.5612000226974487,0.8056880235671997,0.2903600037097931,1.0499999523162842,-2.5199999809265137,-0.5600000023841858
1743895593.23586,-0.563152015209198,0.8047119975090027,0.2908479869365692,0.9800000190734863,-2.380000114440918,-0.6299999952316284
1743895593.25586,-0.5597360134124756,0.8027600049972534,0.29182401299476624,1.0499999523162842,-2.450000047683716,-0.5600000023841858
1743895593.27586,-0.5612000226974487,0.8027600049972534,0.2903600037097931,1.0499999523162842,-2.450000047683716,-0.5600000023841858
1743895593.29586,-0.562175989151001,0.8022720217704773,0.2903600037097931,1.0499999523162842,-2.380000114440918,-0.6299999952316284
1743895593.31586,-0.5587599873542786,0.8037359714508057,0.29231199622154236,1.0499999523162842,-2.5199999809265137,-0.6299999952316284
1743895593.2464,-0.5587599873542786,0.8047119975090027,0.2913359999656677,1.190000057220459,-2.450000047683716,-0.5600000023841858
1743895593.2664,-0.563152015209198,0.8047119975090027,0.293287992477417,1.2599999904632568,-2.5899999141693115,-0.5600000023841858
1743895593.2864,-0.5607119798660278,0.8037359714508057,0.2937760055065155,1.1200000047683716,-2.5899999141693115,-0.6299999952316284
1743895593.3064,-0.5616880059242249,0.8032479882240295,0.29280000925064087,1.2599999904632568,-2.5899999141693115,-0.6299999952316284
1743895593.3264,-0.5626639723777771,0.8027600049972534,0.293287992477417,1.1200000047683716,-2.5199999809265137,-0.49000000953674316
1743895593.3464,-0.562175989151001,0.8081279993057251,0.2937760055065155,1.190000057220459,-2.5899999141693115,-0.5600000023841858
1743895593.3175142,-0.5607119798660278,0.8047119975090027,0.2937760055065155,1.1200000047683716,-2.5899999141693115,-0.49000000953674316
1743895593.3375142,-0.5602239966392517,0.8032479882240295,0.29231199622154236,1.190000057220459,-2.6600000858306885,-0.6299999952316284
1743895593.3575141,-0.5607119798660278,0.8042240142822266,0.2913359999656677,1.399999976158142,-2.869999885559082,-0.5600000023841858
1743895593.3775141,-0.5602239966392517,0.8047119975090027,0.29280000925064087,1.3300000429153442,-2.869999885559082,-0.5600000023841858
1743895593.397514,-0.5587599873542786,0.8022720217704773,0.29182401299476624,1.2599999904632568,-2.869999885559082,-0.6299999952316284
1743895593.417514,-0.5602239966392517,0.8047119975090027,0.29475200176239014,1.4700000286102295,-2.799999952316284,-0.49000000953674316
1743895593.3358243,-0.5602239966392517,0.8061760067939758,0.29280000925064087,1.2599999904632568,-2.7300000190734863,-0.41999998688697815
1743895593.3558242,-0.5602239966392517,0.8061760067939758,0.2908479869365692,1.190000057220459,-2.6600000858306885,-0.5600000023841858
1743895593.3758242,-0.5592479705810547,0.8056880235671997,0.28889599442481995,1.190000057220459,-2.5899999141693115,-0.5600000023841858
1743895593.3958242,-0.5592479705810547,0.8056880235671997,0.293287992477417,1.1200000047683716,-2.450000047683716,-0.41999998688697815
1743895593.4158242,-0.562175989151001,0.8056880235671997,0.2913359999656677,1.0499999523162842,-2.5899999141693115,-0.5600000023841858
1743895593.4358242,-0.5616880059242249,0.8042240142822266,0.29182401299476624,1.0499999523162842,-2.380000114440918,-0.41999998688697815
1743895593.396189,-0.5602239966392517,0.8047119975090027,0.29280000925064087,1.0499999523162842,-2.5199999809265137,-0.49000000953674316
1743895593.416189,-0.5612000226974487,0.8032479882240295,0.2884080111980438,1.1200000047683716,-2.5899999141693115,-0.5600000023841858
1743895593.436189,-0.5602239966392517,0.8032479882240295,0.2903600037097931,1.1200000047683716,-2.5199999809265137,-0.49000000953674316
1743895593.456189,-0.5597360134124756,0.8047119975090027,0.29182401299476624,1.3300000429153442,-2.5899999141693115,-0.6299999952316284
1743895593.476189,-0.5607119798660278,0.8037359714508057,0.2898719906806946,1.3300000429153442,-2.5899999141693115,-0.5600000023841858
1743895593.4961889,-0.5602239966392517,0.8022720217704773,0.29231199622154236,1.190000057220459,-2.5899999141693115,-0.5600000023841858
1743895593.426131,-0.5597360134124756,0.8042240142822266,0.29182401299476624,1.190000057220459,-2.5199999809265137,-0.6299999952316284
1743895593.446131,-0.5592479705810547,0.8056880235671997,0.29231199622154236,1.2599999904632568,-2.5199999809265137,-0.699999988079071
1743895593.466131,-0.5597360134124756,0.8022720217704773,0.29182401299476624,1.190000057220459,-2.6600000858306885,-0.5600000023841858
1743895593.486131,-0.5597360134124756,0.8071519732475281,0.2913359999656677,1.190000057220459,-2.5899999141693115,-0.5600000023841858
1743895593.506131,-0.5587599873542786,0.8022720217704773,0.2898719906806946,1.2599999904632568,-2.5899999141693115,-0.6299999952316284
1743895593.526131,-0.5572959780693054,0.8042240142822266,0.29231199622154236,1.0499999523162842,-2.5899999141693115,-0.699999988079071
1743895593.471106,-0.5597360134124756,0.8056880235671997,0.29280000925064087,1.1200000047683716,-2.5199999809265137,-0.699999988079071
1743895593.491106,-0.5612000226974487,0.8047119975090027,0.2908479869365692,1.190000057220459,-2.5199999809265137,-0.5600000023841858
1743895593.511106,-0.5616880059242249,0.8061760067939758,0.2903600037097931,1.2599999904632568,-2.6600000858306885,-0.699999988079071
1743895593.531106,-0.562175989151001,0.8056880235671997,0.2908479869365692,1.1200000047683716,-2.5199999809265137,-0.6299999952316284
1743895593.551106,-0.5607119798660278,0.8051999807357788,0.2908479869365692,1.190000057220459,-2.5199999809265137,-0.6299999952316284
1743895593.571106,-0.5616880059242249,0.8037359714508057,0.28938400745391846,1.190000057220459,-2.5199999809265137,-0.6299999952316284
1743895593.515922,-0.5607119798660278,0.8017839789390564,0.2908479869365692,1.190000057220459,-2.5899999141693115,-0.699999988079071
1743895593.535922,-0.5592479705810547,0.8037359714508057,0.2942639887332916,1.2599999904632568,-2.5199999809265137,-0.699999988079071
1743895593.555922,-0.5587599873542786,0.8061760067939758,0.2908479869365692,1.3300000429153442,-2.5199999809265137,-0.5600000023841858
1743895593.575922,-0.5587599873542786,0.8051999807357788,0.29280000925064087,1.2599999904632568,-2.5199999809265137,-0.5600000023841858
1743895593.595922,-0.5572959780693054,0.8037359714508057,0.28889599442481995,1.190000057220459,-2.450000047683716,-0.6299999952316284
1743895593.615922,-0.5582720041275024,0.8047119975090027,0.29280000925064087,1.190000057220459,-2.5199999809265137,-0.5600000023841858
1743895593.560732,-0.5597360134124756,0.8037359714508057,0.293287992477417,1.190000057220459,-2.5199999809265137,-0.6299999952316284
1743895593.5807319,-0.5592479705810547,0.8047119975090027,0.293287992477417,1.1200000047683716,-2.5199999809265137,-0.6299999952316284
1743895593.6007318,-0.5616880059242249,0.8037359714508057,0.29280000925064087,1.190000057220459,-2.5899999141693115,-0.699999988079071
1743895593.6207318,-0.5582720041275024,0.8051999807357788,0.293287992477417,1.3300000429153442,-2.5899999141693115,-0.5600000023841858
1743895593.6407318,-0.5602239966392517,0.8042240142822266,0.29231199622154236,1.2599999904632568,-2.5899999141693115,-0.5600000023841858
1743895593.6607318,-0.5602239966392517,0.8056880235671997,0.29280000925064087,1.190000057220459,-2.5899999141693115,-0.5600000023841858
1743895593.620584,-0.5592479705810547,0.8042240142822266,0.29182401299476624,1.190000057220459,-2.6600000858306885,-0.5600000023841858
1743895593.640584,-0.5607119798660278,0.8047119975090027,0.29231199622154236,1.2599999904632568,-2.5899999141693115,-0.5600000023841858
1743895593.660584,-0.5602239966392517,0.8032479882240295,0.29231199622154236,1.0499999523162842,-2.5899999141693115,-0.699999988079071
1743895593.680584,-0.5587599873542786,0.8032479882240295,0.2913359999656677,1.3300000429153442,-2.5899999141693115,-0.699999988079071
1743895593.700584,-0.5582720041275024,0.8047119975090027,0.29231199622154236,1.3300000429153442,-2.5199999809265137,-0.699999988079071
1743895593.720584,-0.5587599873542786,0.8032479882240295,0.2913359999656677,1.190000057220459,-2.6600000858306885,-0.6299999952316284
1743895593.634159,-0.5577840209007263,0.8042240142822266,0.2898719906806946,1.190000057220459,-2.6600000858306885,-0.7699999809265137
1743895593.654159,-0.5582720041275024,0.8051999807357788,0.28889599442481995,1.1200000047683716,-2.5199999809265137,-0.7699999809265137
1743895593.674159,-0.5587599873542786,0.8047119975090027,0.29182401299476624,1.1200000047683716,-2.6600000858306885,-0.8399999737739563
1743895593.694159,-0.5592479705810547,0.8037359714508057,0.2908479869365692,1.0499999523162842,-2.5899999141693115,-0.699999988079071
1743895593.714159,-0.5592479705810547,0.8051999807357788,0.29231199622154236,0.9100000262260437,-2.5199999809265137,-0.7699999809265137
1743895593.734159,-0.5607119798660278,0.8051999807357788,0.2913359999656677,1.0499999523162842,-2.450000047683716,-0.699999988079071
1743895593.6803632,-0.5597360134124756,0.8056880235671997,0.2884080111980438,1.2599999904632568,-2.5899999141693115,-0.7699999809265137
1743895593.7003632,-0.5616880059242249,0.8056880235671997,0.2908479869365692,1.1200000047683716,-2.5899999141693115,-0.699999988079071
1743895593.7203631,-0.5607119798660278,0.8056880235671997,0.2913359999656677,1.190000057220459,-2.5899999141693115,-0.6299999952316284
1743895593.7403631,-0.5602239966392517,0.806663990020752,0.29280000925064087,1.0499999523162842,-2.5899999141693115,-0.5600000023841858
1743895593.760363,-0.5612000226974487,0.8056880235671997,0.28889599442481995,1.190000057220459,-2.6600000858306885,-0.6299999952316284
1743895593.780363,-0.5597360134124756,0.806663990020752,0.2908479869365692,1.0499999523162842,-2.5899999141693115,-0.6299999952316284
1743895593.725475,-0.5612000226974487,0.8047119975090027,0.29280000925064087,0.9800000190734863,-2.5199999809265137,-0.699999988079071
1743895593.745475,-0.5577840209007263,0.8032479882240295,0.2913359999656677,1.1200000047683716,-2.5899999141693115,-0.699999988079071
1743895593.765475,-0.5592479705810547,0.8047119975090027,0.2913359999656677,1.0499999523162842,-2.5899999141693115,-0.699999988079071
1743895593.785475,-0.5597360134124756,0.8051999807357788,0.2913359999656677,1.190000057220459,-2.6600000858306885,-0.5600000023841858
1743895593.805475,-0.5587599873542786,0.8051999807357788,0.2942639887332916,1.1200000047683716,-2.7300000190734863,-0.699999988079071
1743895593.825475,-0.5587599873542786,0.8047119975090027,0.29231199622154236,1.2599999904632568,-2.6600000858306885,-0.5600000023841858
1743895593.7705631,-0.5607119798660278,0.8037359714508057,0.2913359999656677,1.0499999523162842,-2.5199999809265137,-0.6299999952316284
1743895593.790563,-0.5602239966392517,0.8047119975090027,0.2903600037097931,1.2599999904632568,-2.5199999809265137,-0.6299999952316284
1743895593.810563,-0.5592479705810547,0.8037359714508057,0.29280000925064087,1.3300000429153442,-2.5899999141693115,-0.6299999952316284
1743895593.830563,-0.5572959780693054,0.8037359714508057,0.2942639887332916,1.190000057220459,-2.5199999809265137,-0.5600000023841858
1743895593.850563,-0.5592479705810547,0.8037359714508057,0.2903600037097931,1.190000057220459,-2.5899999141693115,-0.5600000023841858
1743895593.870563,-0.5592479705810547,0.8027600049972534,0.29280000925064087,1.4700000286102295,-2.5199999809265137,-0.5600000023841858
1743895593.799391,-0.5592479705810547,0.8047119975090027,0.29182401299476624,1.0499999523162842,-2.5199999809265137,-0.6299999952316284
1743895593.819391,-0.5592479705810547,0.8017839789390564,0.2908479869365692,1.399999976158142,-2.5199999809265137,-0.49000000953674316
1743895593.839391,-0.5597360134124756,0.8032479882240295,0.29231199622154236,1.190000057220459,-2.5199999809265137,-0.5600000023841858
1743895593.859391,-0.555832028388977,0.807640016078949,0.2908479869365692,1.0499999523162842,-2.5899999141693115,-0.6299999952316284
1743895593.879391,-0.5597360134124756,0.8037359714508057,0.2908479869365692,1.1200000047683716,-2.5199999809265137,-0.5600000023841858
1743895593.899391,-0.5592479705810547,0.8037359714508057,0.2913359999656677,1.0499999523162842,-2.5199999809265137,-0.699999988079071
1743895593.8457742,-0.5602239966392517,0.8037359714508057,0.29182401299476624,1.1200000047683716,-2.450000047683716,-0.5600000023841858
1743895593.8657742,-0.5592479705810547,0.8051999807357788,0.29280000925064087,1.190000057220459,-2.5199999809265137,-0.5600000023841858
1743895593.8857741,-0.5563200116157532,0.8061760067939758,0.29231199622154236,1.1200000047683716,-2.450000047683716,-0.5600000023841858
1743895593.905774,-0.5592479705810547,0.8061760067939758,0.28889599442481995,1.190000057220459,-2.5199999809265137,-0.699999988079071
1743895593.925774,-0.5597360134124756,0.8037359714508057,0.2908479869365692,1.190000057220459,-2.5199999809265137,-0.5600000023841858
1743895593.945774,-0.563152015209198,0.8051999807357788,0.2903600037097931,1.190000057220459,-2.5199999809265137,-0.5600000023841858
1743895593.9174643,-0.5592479705810547,0.8051999807357788,0.2913359999656677,1.190000057220459,-2.5199999809265137,-0.6299999952316284
