Millis,AccelX,AccelY,AccelZ,GyroX,GyroY,GyroZ
7848579,-0.996,0.114,0.224,-1.470,-4.270,5.110
7848596,-0.995,0.121,0.227,-3.150,-3.570,5.250
7848616,-0.995,0.122,0.229,-3.780,-3.500,4.830
7848640,-0.980,0.123,0.231,-4.760,-1.890,3.780
7848660,-0.983,0.147,0.192,-0.910,3.360,-1.260
7848679,-1.007,0.109,0.214,-2.590,-2.940,1.820
7848700,-0.991,0.122,0.235,-3.920,-0.140,0.770
7848724,-1.006,0.115,0.234,-3.360,-0.560,0.280
7848744,-0.990,0.103,0.224,-5.460,-0.210,0.280
7848761,-0.981,0.105,0.217,-3.920,-0.070,-0.560
7848785,-1.028,0.117,0.230,-4.480,-2.030,0.210
7848805,-0.990,0.101,0.234,-4.550,0.280,1.190
7848821,-0.998,0.107,0.225,-4.200,-1.120,1.330
7848841,-1.002,0.104,0.230,-2.730,-0.700,1.540
7848861,-0.989,0.105,0.229,-2.800,-1.120,1.330
7848885,-0.999,0.112,0.229,-2.730,-1.470,1.400
7848903,-0.995,0.110,0.224,-2.030,-1.400,1.330
7848927,-0.995,0.109,0.226,-0.630,-1.820,1.120
7848945,-0.994,0.110,0.227,0.350,-1.890,0.980
7848969,-0.994,0.113,0.225,-0.140,-1.820,0.630
7848989,-1.007,0.109,0.227,0.350,-2.520,0.700
7849009,-0.988,0.111,0.221,-1.400,-3.150,-0.980
7849032,-1.045,0.123,0.233,-0.140,-3.080,1.260
7849053,-0.990,0.100,0.221,-2.310,-1.750,0.350
7849072,-1.008,0.097,0.223,-0.420,-3.780,2.940
7849096,-0.996,0.107,0.218,0.070,-3.570,3.430
7849116,-0.994,0.112,0.219,1.190,-4.480,4.060
7849136,-0.997,0.111,0.219,0.560,-3.920,4.760
7849153,-0.996,0.122,0.223,0.560,-4.550,4.690
7849173,-0.995,0.126,0.226,-1.470,-3.710,4.900
7849196,-0.986,0.119,0.229,-1.470,-3.570,3.920
7849216,-0.985,0.122,0.232,-1.820,-2.380,3.360
7849240,-0.993,0.133,0.239,-3.640,-2.100,1.820
7849258,-0.991,0.125,0.230,-5.670,-0.980,0.910
7849278,-0.994,0.120,0.229,-7.000,-1.470,0.350
7849301,-0.998,0.124,0.232,-8.190,-1.190,-0.140
7849322,-0.997,0.114,0.228,-8.050,-1.190,-0.070
7849341,-1.008,0.116,0.231,-7.630,-2.030,-0.070
7849365,-0.988,0.111,0.224,-5.390,-1.260,0.350
7849385,-0.993,0.114,0.228,-5.530,-2.030,0.140
7849404,-1.000,0.106,0.223,-3.290,-2.520,0.420
7849424,-1.007,0.116,0.228,-2.940,-2.730,-0.070
7849444,-0.996,0.120,0.228,-2.730,-1.820,0.070
7849464,-0.998,0.119,0.228,-2.520,-2.380,-0.070
7849488,-0.997,0.100,0.221,-0.490,-1.750,0.000
7849506,-0.989,0.114,0.227,-0.980,-1.960,0.070
7849528,-0.996,0.113,0.227,-0.630,-2.870,0.070
7849548,-0.996,0.113,0.229,0.000,-2.240,0.280
7849569,-0.986,0.103,0.224,-0.140,-2.100,0.630
7849588,-0.986,0.112,0.228,-0.420,-1.890,0.280
7849606,-0.997,0.113,0.230,-0.420,-2.100,-0.070
7849626,-0.996,0.112,0.230,-0.350,-1.540,-0.210
7849650,-0.996,0.110,0.228,-0.210,-1.470,-0.490
7849670,-0.992,0.108,0.229,-0.140,-1.470,-0.560
7849685,-0.996,0.109,0.227,-0.210,-1.190,-0.700
7849705,-0.995,0.108,0.224,-0.280,-1.190,-0.700
7849725,-0.997,0.107,0.224,-0.560,-0.980,-0.700
7849750,-0.996,0.106,0.227,-0.490,-1.120,-0.630
7849770,-1.001,0.101,0.224,0.000,-1.820,-0.490
7849789,-0.997,0.100,0.223,0.140,-1.820,-0.350
7849808,-0.999,0.103,0.221,0.560,-2.380,0.000
7849828,-0.998,0.104,0.222,0.630,-2.590,0.280
7849849,-1.009,0.109,0.228,0.980,-2.310,0.630
7849868,-0.990,0.100,0.223,1.120,-2.520,0.420
7849893,-1.007,0.109,0.233,0.490,-3.780,0.560
7849913,-0.995,0.099,0.224,0.840,-2.450,0.560
7849930,-0.994,0.107,0.227,0.210,-3.010,0.350
7849954,-0.999,0.102,0.226,0.350,-2.870,0.350
7849974,-0.997,0.101,0.224,0.000,-2.660,0.350
7849994,-0.996,0.105,0.226,-0.070,-2.590,0.280
7850013,-0.996,0.099,0.224,0.000,-2.520,0.350
7850032,-0.998,0.099,0.225,0.140,-2.660,0.630
7850055,-0.997,0.103,0.224,2.030,-2.450,1.120
7850075,-0.996,0.096,0.222,3.290,-2.660,0.910
7850095,-0.994,0.101,0.224,4.130,-2.870,0.910
7850119,-0.996,0.101,0.224,3.990,-2.660,0.980
7850143,-0.996,0.105,0.229,4.830,-2.730,1.120
7850163,-1.000,0.092,0.221,6.580,-2.940,1.470
7850179,-0.992,0.122,0.230,7.280,-3.360,1.470
7850200,-0.997,0.101,0.230,4.830,-2.660,1.330
7850220,-0.994,0.100,0.227,3.710,-2.800,1.400
7850244,-0.996,0.101,0.228,2.240,-2.660,1.330
7850264,-0.996,0.105,0.227,1.400,-2.730,1.400
7850283,-0.997,0.105,0.228,1.260,-2.590,1.540
7850301,-0.998,0.108,0.229,3.500,-2.940,1.610
7850325,-0.996,0.103,0.229,1.890,-2.520,1.750
7850345,-1.000,0.106,0.226,2.380,-2.800,1.610
7850365,-0.996,0.107,0.225,2.870,-2.870,1.540
7850384,-0.996,0.105,0.222,0.910,-3.150,1.680
7850403,-1.001,0.102,0.222,0.210,-3.850,2.100
7850427,-1.001,0.107,0.224,0.210,-4.340,2.240
7850447,-0.993,0.103,0.231,-0.140,-4.130,2.450
7850466,-0.996,0.107,0.229,-0.350,-4.270,2.800
7850485,-0.999,0.106,0.231,-2.380,-4.200,2.730
7850509,-0.990,0.104,0.228,-1.540,-3.780,3.290
7850528,-0.994,0.113,0.229,-3.710,-3.990,3.290
7850549,-0.995,0.109,0.236,-5.600,-3.640,2.450
7850569,-1.001,0.117,0.240,-5.670,-2.940,2.660
7850589,-0.990,0.116,0.236,-5.320,-2.730,2.170
7850608,-1.002,0.120,0.240,-4.970,-2.380,1.750
7850628,-0.986,0.112,0.234,-4.130,-2.310,1.470
7850651,-0.995,0.110,0.236,-3.640,-1.680,1.330
7850672,-0.990,0.105,0.234,-2.450,-2.030,1.190
7850691,-0.991,0.111,0.234,-0.980,-2.170,1.400
7850715,-0.993,0.104,0.234,0.140,-2.030,1.540
7850735,-0.995,0.105,0.229,2.240,-1.890,1.820
7850755,-0.990,0.108,0.236,3.710,-1.610,1.960
7850775,-0.992,0.110,0.231,5.040,-1.680,2.170
7850795,-0.994,0.117,0.237,9.660,-1.610,2.240
7850814,-0.997,0.112,0.239,13.160,-2.170,2.450
7850834,-0.997,0.120,0.235,10.360,-1.750,2.660
7850857,-0.989,0.118,0.232,7.280,-2.800,2.240
7850876,-0.997,0.118,0.232,3.290,-2.170,1.820
7850896,-0.988,0.119,0.232,4.270,-2.240,1.960
7850921,-0.998,0.113,0.231,3.430,-2.450,1.610
7850940,-0.989,0.124,0.232,3.290,-2.310,1.050
7850959,-0.990,0.123,0.235,3.010,-2.380,0.840
7850984,-0.992,0.113,0.231,0.840,-1.890,0.770
7851002,-0.993,0.116,0.228,0.770,-2.030,0.840
7851023,-0.989,0.121,0.228,-1.190,-1.120,0.630
7851046,-0.994,0.113,0.231,0.210,-2.100,0.700
7851070,-0.996,0.119,0.236,-1.120,-2.240,0.350
7851090,-0.995,0.123,0.233,-0.280,-1.260,0.070
7851110,-0.988,0.116,0.232,-1.680,-0.840,-0.210
7851127,-0.997,0.118,0.228,-2.170,-0.980,-0.210
7851147,-0.995,0.114,0.227,-2.030,-0.980,-0.280
7851171,-0.994,0.110,0.230,-2.240,-0.840,-0.280
7851189,-0.993,0.115,0.224,-2.240,-1.120,-0.280
7851209,-0.999,0.109,0.224,-2.730,-1.470,0.140
7851233,-0.996,0.108,0.228,-3.150,-0.700,0.420
7851252,-0.991,0.113,0.228,-4.480,-0.630,0.420
7851273,-0.996,0.113,0.230,-6.300,-0.490,0.350
7851288,-0.992,0.113,0.230,-7.910,0.070,0.280
7851313,-0.996,0.117,0.232,-10.080,0.420,0.140
7851333,-0.980,0.114,0.228,-11.480,1.540,-0.490
7851353,-0.999,0.112,0.226,-12.600,1.540,-0.840
7851373,-0.997,0.116,0.229,-11.760,2.100,-1.470
7851393,-1.000,0.110,0.225,-11.480,1.190,-2.380
7851410,-1.006,0.108,0.221,-10.010,1.050,-2.030
7851432,-1.008,0.102,0.216,-7.770,0.210,-1.750
7851450,-0.988,0.091,0.213,-6.300,0.980,-1.960
7851474,-1.011,0.093,0.214,-4.620,-1.260,-1.050
7851494,-1.004,0.092,0.214,-2.030,-1.890,-0.560
7851514,-1.000,0.093,0.214,-1.260,-2.310,-0.350
7851530,-1.016,0.105,0.222,-0.070,-2.030,0.140
7851549,-0.989,0.089,0.218,-0.140,-2.310,0.000
7851574,-0.998,0.097,0.220,0.070,-2.800,0.000
7851594,-1.000,0.092,0.218,0.700,-2.870,-0.070
7851613,-0.998,0.099,0.218,0.980,-3.150,0.000
7851632,-0.997,0.088,0.219,1.610,-3.150,0.070
7851657,-1.003,0.088,0.221,7.280,-4.340,0.840
7851677,-1.000,0.066,0.228,15.120,-4.200,1.190
7851696,-0.992,0.094,0.219,7.350,-3.150,1.120
7851715,-0.997,0.102,0.216,15.680,-3.710,1.190
7851740,-0.994,0.091,0.222,7.630,-3.570,1.050
7851760,-0.994,0.098,0.221,4.270,-3.430,1.260
7851776,-0.997,0.100,0.224,4.970,-3.570,1.050
7851800,-0.997,0.096,0.222,2.730,-3.150,1.260
7851816,-0.994,0.103,0.221,2.170,-3.710,1.190
7851835,-0.998,0.102,0.224,2.380,-3.780,1.050
7851855,-0.996,0.097,0.221,0.420,-3.570,1.120
7851879,-1.002,0.097,0.222,-0.700,-4.130,1.540
7851900,-1.001,0.091,0.217,-1.330,-4.620,2.380
7851920,-1.001,0.093,0.219,-1.820,-5.040,3.080
7851938,-1.003,0.096,0.220,-1.120,-6.020,3.780
7851958,-0.993,0.102,0.223,-0.140,-6.300,3.990
7851981,-1.003,0.087,0.218,-0.350,-7.280,4.480
7852001,-1.001,0.094,0.227,0.700,-8.050,4.970
7852025,-0.978,0.104,0.231,-1.050,-6.580,4.060
7852049,-0.997,0.115,0.247,-3.430,-5.810,5.530
7852065,-0.973,0.109,0.236,-3.780,-5.810,3.220
7852089,-0.877,0.118,0.234,-4.270,-6.160,2.240
7852109,-0.983,0.106,0.244,-1.260,-4.410,3.220
7852127,-0.990,0.106,0.246,-1.890,-4.970,2.870
7852151,-0.993,0.120,0.246,-1.540,-4.480,2.030
7852169,-0.992,0.112,0.246,-2.730,-3.710,1.960
7852189,-0.994,0.102,0.244,-1.820,-4.830,2.380
7852210,-0.995,0.103,0.244,0.700,-4.060,2.590
7852229,-0.989,0.110,0.242,1.050,-3.570,2.660
7852253,-0.990,0.111,0.244,1.540,-2.940,2.660
7852269,-0.992,0.113,0.240,2.380,-2.940,2.520
7852294,-0.986,0.116,0.245,8.960,-3.360,1.960
7852314,-0.993,0.120,0.251,5.600,-3.080,1.960
7852338,-0.991,0.114,0.251,2.450,-2.450,1.890
7852358,-0.989,0.115,0.245,0.980,-2.100,1.610
7852377,-0.992,0.112,0.244,0.000,-2.380,1.400
7852398,-0.991,0.112,0.241,1.120,-2.240,1.400
7852418,-0.988,0.117,0.248,1.120,-1.260,1.120
7852436,-0.985,0.121,0.248,-0.700,-0.210,0.700
7852455,-0.993,0.116,0.248,-2.450,0.000,0.420
7852474,-0.998,0.116,0.241,-3.220,-0.280,0.560
7852499,-0.995,0.114,0.244,-3.220,-0.280,0.630
7852519,-0.989,0.108,0.240,-2.940,0.000,0.490
7852539,-0.992,0.117,0.244,-3.570,0.000,0.420
7852557,-0.992,0.117,0.242,-4.480,0.210,0.560
7852578,-0.995,0.110,0.240,-4.550,0.420,0.630
7852594,-0.997,0.113,0.237,-4.830,-0.210,0.560
7852619,-1.001,0.110,0.233,-2.800,-0.980,0.350
7852636,-1.000,0.104,0.230,-3.010,-1.610,0.350
7852659,-0.999,0.111,0.233,-1.400,-2.380,0.140
7852679,-0.996,0.102,0.236,-0.630,-2.590,0.490
7852702,-0.991,0.112,0.240,0.000,-2.730,0.490
7852723,-0.992,0.110,0.239,-0.840,-2.170,0.350
7852743,-0.997,0.102,0.239,-1.050,-3.220,0.910
7852766,-0.993,0.110,0.237,1.050,-3.290,0.560
7852787,-0.990,0.110,0.241,0.210,-2.730,0.280
7852806,-0.992,0.103,0.242,1.540,-2.030,0.210
7852826,-0.992,0.107,0.241,1.190,-2.170,0.210
7852849,-0.994,0.110,0.245,0.140,-1.960,0.700
7852873,-0.990,0.106,0.240,-0.070,-1.470,0.980
7852889,-0.993,0.108,0.240,-0.560,-1.750,1.120
7852913,-0.993,0.107,0.240,-1.190,-1.750,1.330
7852932,-0.992,0.109,0.241,-1.050,-1.470,1.330
7852950,-0.994,0.106,0.237,-0.840,-1.540,1.330
7852970,-0.994,0.108,0.237,-0.770,-1.750,1.260
7852994,-0.992,0.110,0.235,-0.490,-1.750,1.050
7853013,-0.995,0.109,0.235,-0.630,-1.680,0.770
7853034,-0.995,0.103,0.237,-0.280,-1.750,0.700
7853054,-0.995,0.106,0.238,-0.210,-2.100,0.840
7853073,-0.996,0.105,0.236,-0.210,-2.100,0.840
7853098,-0.994,0.110,0.236,-0.140,-2.310,0.630
7853117,-0.995,0.105,0.235,-0.140,-2.170,0.420
7853141,-0.994,0.106,0.235,-0.140,-2.380,0.770
7853161,-1.000,0.103,0.236,0.280,-3.570,1.050
7853181,-0.996,0.107,0.237,0.490,-3.430,0.910
7853200,-0.995,0.109,0.240,0.560,-3.500,1.050
7853224,-0.995,0.104,0.242,0.560,-3.500,1.050
7853240,-0.993,0.107,0.236,0.210,-3.640,1.190
7853263,-0.994,0.105,0.241,0.630,-3.780,1.330
7853286,-0.994,0.100,0.238,1.400,-3.500,1.470
7853305,-0.989,0.113,0.245,0.560,-3.500,1.470
7853325,-0.994,0.111,0.244,0.210,-3.080,1.470
7853344,-0.994,0.104,0.244,-0.630,-2.520,1.470
7853369,-0.998,0.118,0.248,-0.770,-2.660,1.330
7853386,-0.987,0.110,0.244,-0.560,-1.820,0.980
7853410,-0.994,0.109,0.243,-0.700,-1.890,0.840
7853428,-0.992,0.107,0.246,-0.560,-1.820,0.770
7853450,-0.992,0.106,0.241,-0.280,-1.750,0.700
7853466,-0.991,0.108,0.243,-0.490,-1.750,0.770
7853490,-0.992,0.105,0.243,0.000,-1.610,0.490
7853507,-0.994,0.105,0.243,0.070,-1.610,0.490
7853526,-0.992,0.105,0.245,0.350,-1.470,0.350
7853551,-0.991,0.107,0.243,0.140,-0.980,0.140
7853575,-0.986,0.107,0.247,-0.280,-0.630,0.000
7853594,-0.993,0.110,0.244,-0.770,-0.140,-0.070
7853614,-0.989,0.108,0.241,-1.610,0.350,0.000
7853635,-0.986,0.108,0.243,-3.220,1.470,0.070
7853654,-0.992,0.109,0.236,-3.430,1.610,0.070
7853675,-1.001,0.110,0.237,-5.110,1.470,-0.210
7853694,-0.991,0.095,0.228,-4.340,1.890,-0.140
7853718,-1.002,0.098,0.228,-3.710,0.560,0.000
7853738,-0.994,0.096,0.226,-2.940,0.980,-0.070
7853758,-0.999,0.098,0.224,-2.380,0.070,0.070
7853778,-1.001,0.086,0.223,1.260,-0.210,0.140
7853797,-0.996,0.100,0.225,1.050,-0.490,0.210
7853822,-0.998,0.085,0.228,1.610,-1.470,0.700
7853841,-0.998,0.097,0.224,1.330,-1.960,1.120
7853862,-0.996,0.092,0.226,0.140,-2.240,1.540
7853886,-0.998,0.102,0.227,0.000,-2.380,1.680
7853906,-0.994,0.094,0.224,0.140,-2.660,1.750
7853926,-0.998,0.096,0.228,0.490,-3.220,2.030
7853950,-0.999,0.098,0.228,0.490,-3.290,2.310
7853970,-0.996,0.100,0.225,0.490,-3.920,3.710
7853989,-1.002,0.101,0.230,-0.280,-3.430,2.170
7854011,-0.999,0.112,0.231,0.140,-2.660,1.820
7854032,-0.995,0.103,0.233,0.280,-2.100,1.470
7854052,-0.991,0.108,0.232,-0.840,-1.470,0.770
7854071,-1.000,0.099,0.233,-0.420,-1.750,0.490
7854096,-0.991,0.099,0.231,0.700,-1.470,0.350
7854116,-0.996,0.102,0.231,-0.140,-0.980,0.000
7854131,-0.996,0.094,0.233,0.070,-0.980,0.000
7854156,-0.994,0.104,0.230,-0.630,-0.630,-0.070
7854172,-0.995,0.096,0.226,-0.420,-0.700,-0.140
7854196,-1.004,0.106,0.228,-0.420,-0.560,-0.070
7854216,-0.994,0.097,0.226,-0.210,-0.700,-0.140
7854235,-0.994,0.098,0.224,-0.420,-0.840,-0.350
7854256,-0.996,0.100,0.222,-0.420,-1.050,-0.280
7854276,-0.999,0.092,0.224,-0.070,-1.190,-0.210
7854299,-0.996,0.094,0.224,0.000,-1.190,0.070
7854319,-0.997,0.093,0.224,0.070,-1.400,0.210
7854343,-0.996,0.097,0.224,0.000,-1.470,0.280
7854362,-0.998,0.095,0.223,-0.070,-1.470,0.280
7854382,-0.998,0.096,0.223,0.070,-1.470,0.140
7854402,-0.999,0.096,0.224,-0.210,-1.470,0.420
7854420,-0.998,0.095,0.225,-0.210,-1.260,0.350
7854440,-0.996,0.095,0.223,-0.490,-1.260,0.420
7854459,-0.998,0.094,0.224,-0.420,-1.260,0.490
7854484,-1.000,0.095,0.224,-0.420,-1.330,0.560
7854504,-0.997,0.095,0.219,-0.280,-1.470,0.630
7854524,-0.997,0.091,0.219,-0.140,-1.680,0.840
7854544,-0.999,0.095,0.221,-0.140,-1.750,0.910
7854562,-0.999,0.091,0.219,-0.210,-1.820,1.050
7854586,-0.997,0.090,0.220,0.210,-2.030,1.330
7854605,-0.998,0.095,0.221,0.140,-2.100,1.610
7854626,-0.997,0.092,0.224,0.070,-2.030,1.610
7854646,-1.000,0.096,0.222,0.000,-1.820,1.470
7854665,-0.997,0.098,0.221,-0.280,-1.750,1.260
7854684,-0.997,0.097,0.221,-0.350,-1.820,1.120
7854705,-1.000,0.091,0.218,-0.350,-1.960,1.330
7854724,-0.999,0.092,0.219,-0.350,-2.100,1.470
7854748,-1.000,0.095,0.216,-0.840,-2.590,1.540
7854767,-1.003,0.087,0.214,-0.560,-3.010,2.030
7854792,-1.002,0.092,0.220,0.140,-3.500,2.310
7854811,-1.002,0.092,0.216,0.560,-3.990,2.240
7854831,-0.997,0.098,0.220,0.490,-3.850,2.170
7854851,-1.000,0.095,0.222,0.420,-3.990,2.310
7854875,-0.994,0.098,0.225,1.190,-4.060,2.170
7854892,-0.999,0.097,0.224,1.190,-3.920,1.890
7854911,-0.996,0.099,0.224,1.050,-3.920,1.890
7854935,-0.994,0.100,0.228,0.490,-3.710,2.030
7854954,-0.998,0.100,0.230,0.420,-3.500,2.030
7854976,-0.997,0.100,0.226,0.840,-2.660,1.610
7855000,-0.993,0.102,0.224,0.280,-2.380,1.050
7855019,-0.998,0.097,0.226,0.700,-2.800,1.120
7855039,-0.996,0.100,0.227,0.350,-2.030,1.260
7855058,-0.996,0.102,0.229,0.000,-2.170,1.470
7855083,-0.999,0.098,0.224,-0.070,-1.960,1.750
7855103,-0.996,0.099,0.227,0.280,-1.890,2.100
7855122,-0.997,0.102,0.226,0.910,-1.960,2.030
7855146,-0.994,0.105,0.228,0.350,-1.750,1.960
7855166,-0.996,0.102,0.225,-0.280,-1.190,1.820
7855186,-0.994,0.102,0.225,-0.560,-0.910,1.820
7855206,-0.997,0.104,0.224,-0.210,-1.190,1.680
7855226,-0.996,0.101,0.221,-0.630,-1.120,1.680
7855250,-0.995,0.104,0.224,-0.770,-0.910,1.470
7855268,-0.999,0.103,0.220,-1.120,-0.840,1.470
7855288,-0.996,0.102,0.220,-1.260,-1.050,1.610
7855312,-0.999,0.100,0.219,-1.260,-1.190,1.680
7855332,-0.998,0.103,0.220,-1.120,-1.470,1.540
7855352,-1.000,0.103,0.220,-1.260,-1.610,1.260
7855368,-0.998,0.102,0.220,-1.330,-1.470,1.120
7855388,-0.998,0.100,0.218,-1.190,-1.750,0.770
7855408,-0.999,0.101,0.218,-0.560,-2.240,0.630
7855432,-0.998,0.099,0.217,0.070,-2.590,0.630
7855452,-0.998,0.101,0.218,0.420,-3.010,0.560
7855472,-0.999,0.102,0.219,0.700,-3.220,0.490
7855492,-0.997,0.099,0.222,1.120,-3.290,0.490
7855511,-0.999,0.101,0.222,0.910,-3.290,0.630
7855532,-0.998,0.106,0.224,0.910,-3.080,0.630
7855552,-0.996,0.102,0.225,0.560,-2.590,0.630
7855571,-0.996,0.102,0.225,0.420,-2.380,0.840
7855595,-0.995,0.102,0.224,0.210,-2.170,0.980
7855611,-0.996,0.102,0.220,0.070,-2.100,0.980
7855631,-0.997,0.101,0.221,0.000,-2.100,1.330
7855654,-0.996,0.101,0.221,-0.140,-1.890,1.120
7855674,-0.995,0.103,0.224,-0.350,-2.030,1.120
7855698,-0.999,0.100,0.223,-0.420,-2.100,1.050
7855717,-1.001,0.101,0.223,-0.210,-2.030,1.190
7855735,-0.998,0.100,0.221,-0.280,-1.890,1.050
7855759,-0.996,0.102,0.222,-0.210,-2.100,0.980
7855778,-1.000,0.099,0.217,-0.210,-2.450,0.980
7855799,-0.999,0.101,0.220,-0.070,-2.380,1.120
7855816,-1.000,0.100,0.221,-0.070,-2.730,0.980
7855835,-0.998,0.104,0.224,0.140,-2.730,0.910
7855859,-0.999,0.102,0.222,0.140,-2.660,0.490
7855879,-0.996,0.101,0.221,0.140,-2.590,0.280
7855899,-1.000,0.099,0.219,0.070,-2.870,0.490
7855923,-0.999,0.095,0.220,0.420,-3.290,0.770
7855943,-1.001,0.096,0.221,0.280,-3.290,1.050
7855962,-0.997,0.098,0.225,0.140,-3.430,1.330
7855983,-0.999,0.100,0.224,-0.070,-3.290,1.330
7856003,-0.995,0.102,0.223,0.000,-3.430,1.400
7856023,-0.999,0.098,0.221,0.070,-3.710,1.400
7856041,-0.999,0.100,0.226,-0.070,-3.640,1.610
7856062,-0.997,0.102,0.224,-0.350,-3.220,1.400
7856080,-0.996,0.102,0.227,-0.350,-3.010,1.330
7856104,-0.993,0.100,0.227,-0.420,-2.870,1.120
7856124,-0.998,0.098,0.228,-0.420,-2.730,1.260
7856144,-0.996,0.100,0.229,-0.490,-2.450,1.190
7856164,-0.995,0.101,0.226,-0.490,-2.450,0.980
7856184,-0.997,0.100,0.227,-0.630,-2.380,0.980
7856208,-0.997,0.099,0.224,0.000,-2.520,0.770
7856224,-0.999,0.098,0.224,0.210,-2.310,0.560
7856246,-0.994,0.099,0.226,0.350,-2.520,0.350
7856268,-0.996,0.100,0.227,0.630,-2.240,0.140
7856288,-0.994,0.101,0.231,0.420,-1.890,0.140
7856308,-0.996,0.098,0.226,-0.070,-1.610,0.000
7856332,-0.994,0.099,0.225,-0.420,-1.400,-0.070
7856352,-0.996,0.100,0.227,-0.840,-0.910,0.070
7856372,-0.997,0.095,0.226,-0.700,-0.980,0.210
7856392,-0.994,0.099,0.228,-0.840,-0.630,0.210
7856416,-0.997,0.096,0.227,-1.330,-0.280,0.280
7856434,-0.995,0.097,0.225,-1.750,-0.210,0.420
7856455,-1.001,0.092,0.219,-1.540,-0.490,0.630
7856476,-1.001,0.090,0.217,-1.190,-1.050,0.910
7856496,-1.000,0.091,0.219,-0.560,-1.400,1.400
7856515,-0.998,0.094,0.221,-0.770,-1.820,1.540
7856536,-1.001,0.096,0.222,-0.560,-1.960,1.610
7856556,-0.999,0.095,0.219,-0.350,-2.100,1.470
7856576,-0.997,0.094,0.217,0.000,-2.240,1.540
7856600,-0.996,0.094,0.219,0.350,-2.520,1.540
7856618,-0.998,0.099,0.221,0.210,-2.730,1.400
7856637,-1.002,0.096,0.222,0.070,-2.870,1.400
7856661,-0.999,0.101,0.223,0.280,-2.450,1.190
7856682,-0.996,0.096,0.221,0.280,-2.590,1.190
7856700,-1.001,0.098,0.221,0.000,-2.590,1.120
7856724,-0.993,0.100,0.222,0.000,-2.310,1.260
7856742,-0.996,0.094,0.221,-0.420,-2.450,1.050
7856763,-0.998,0.095,0.225,-0.420,-2.590,1.330
7856783,-0.997,0.098,0.224,-0.350,-2.450,1.190
7856803,-0.997,0.097,0.223,-0.420,-2.450,1.050
7856827,-0.998,0.098,0.224,-0.350,-2.240,0.840
7856846,-0.997,0.099,0.226,-0.490,-1.820,0.700
7856870,-0.995,0.097,0.224,-0.700,-1.400,0.420
7856890,-0.996,0.095,0.224,-0.770,-1.540,0.350
7856909,-0.999,0.095,0.221,-0.490,-1.540,0.280
7856929,-0.999,0.096,0.222,-0.420,-1.260,0.070
7856953,-0.997,0.095,0.223,-0.700,-1.190,-0.140
7856972,-0.997,0.094,0.220,-0.910,-1.190,0.000
7856993,-0.999,0.091,0.217,-1.050,-1.190,0.350
7857013,-1.000,0.092,0.217,-0.770,-1.610,0.700
7857031,-0.999,0.089,0.217,-0.840,-1.890,0.840
7857050,-0.997,0.091,0.215,-0.630,-2.100,0.980
7857075,-1.003,0.090,0.219,0.000,-2.800,1.540
7857092,-1.000,0.091,0.216,0.490,-3.220,1.680
7857112,-1.001,0.089,0.217,0.630,-3.360,1.890
7857131,-0.997,0.094,0.219,0.840,-3.570,1.960
7857151,-0.999,0.092,0.226,0.980,-3.780,1.890
7857176,-0.998,0.096,0.224,0.910,-3.640,1.960
7857196,-0.996,0.095,0.225,0.840,-3.640,1.960
7857216,-0.995,0.098,0.224,0.560,-3.080,1.680
7857240,-0.997,0.096,0.225,0.210,-2.870,1.470
7857260,-0.996,0.097,0.223,0.000,-2.800,1.260
7857278,-0.995,0.097,0.225,-0.280,-2.450,1.190
7857299,-0.999,0.100,0.225,-0.350,-2.590,1.190
7857319,-0.997,0.098,0.225,-0.280,-2.380,1.470
7857343,-0.997,0.095,0.223,-0.210,-2.450,1.680
7857362,-1.001,0.094,0.224,-0.140,-2.730,1.960
7857382,-0.996,0.096,0.224,-0.070,-2.590,2.030
7857402,-0.994,0.099,0.224,-0.280,-2.590,1.890
7857422,-0.997,0.099,0.224,-0.420,-2.730,1.820
7857446,-0.997,0.096,0.221,-0.280,-2.940,1.750
7857461,-1.000,0.098,0.226,-0.070,-2.800,1.680
7857481,-0.997,0.098,0.223,0.140,-3.220,1.610
7857506,-0.996,0.099,0.226,0.070,-3.430,1.610
7857526,-0.995,0.097,0.225,0.420,-3.570,1.540
7857545,-0.999,0.099,0.225,0.700,-3.570,1.750
7857564,-0.997,0.096,0.228,0.630,-3.990,1.750
7857589,-0.995,0.099,0.226,0.560,-3.850,1.960
7857609,-0.999,0.098,0.228,0.980,-3.990,1.750
7857624,-0.994,0.100,0.230,0.980,-3.710,1.890
7857649,-0.998,0.097,0.227,0.980,-4.270,1.680
7857665,-0.992,0.105,0.230,1.260,-4.130,2.030
7857684,-0.997,0.102,0.231,0.630,-3.850,1.750
7857705,-0.996,0.102,0.234,0.980,-3.640,1.330
7857725,-0.993,0.106,0.231,0.700,-3.430,1.050
7857749,-0.995,0.101,0.229,0.630,-3.500,0.980
7857769,-0.996,0.099,0.233,0.770,-3.500,1.120
7857789,-0.994,0.102,0.236,0.560,-3.080,0.910
7857809,-0.996,0.103,0.234,0.000,-2.800,0.560
7857830,-0.996,0.101,0.233,0.070,-2.870,0.630
7857854,-0.995,0.099,0.233,0.420,-2.800,0.840
7857874,-0.995,0.099,0.235,0.070,-2.520,0.910
7857894,-0.996,0.105,0.234,-0.420,-2.240,0.490
7857914,-0.995,0.098,0.228,-0.280,-2.170,0.420
7857934,-0.992,0.096,0.233,0.000,-2.310,0.420
7857958,-0.996,0.098,0.238,0.280,-2.590,0.840
7857977,-0.999,0.097,0.236,0.070,-2.100,0.980
7857996,-0.994,0.101,0.234,-0.280,-1.890,0.700
7858021,-1.000,0.097,0.230,-0.070,-1.820,0.560
7858037,-0.994,0.095,0.229,0.350,-1.820,0.840
7858057,-0.997,0.095,0.234,0.280,-2.100,1.050
7858081,-0.996,0.101,0.234,-0.280,-1.680,0.770
7858099,-0.996,0.101,0.233,-0.490,-1.610,0.630
7858123,-0.995,0.100,0.235,-0.350,-1.470,0.560
7858140,-0.997,0.098,0.234,-0.280,-1.680,0.490
7858162,-0.996,0.102,0.233,-0.210,-1.820,0.420
7858181,-0.997,0.096,0.228,-0.280,-1.750,0.350
7858205,-0.998,0.101,0.230,-0.630,-1.750,0.490
7858225,-0.997,0.092,0.226,-0.140,-1.890,0.630
7858244,-0.997,0.094,0.227,-0.350,-1.890,0.770
7858269,-0.997,0.099,0.234,-0.420,-1.820,0.700
7858289,-0.996,0.095,0.229,-0.070,-2.100,0.910
7858308,-0.995,0.095,0.231,-0.280,-1.960,0.840
7858329,-0.995,0.100,0.232,-0.420,-1.890,0.700
7858349,-0.997,0.097,0.231,-0.560,-1.820,0.560
7858367,-0.996,0.096,0.229,-0.490,-1.750,0.350
7858390,-0.995,0.098,0.235,-0.770,-1.680,0.070
7858410,-0.995,0.098,0.231,-0.420,-1.400,0.070
7858427,-0.993,0.096,0.231,-0.770,-1.120,0.070
7858451,-0.996,0.096,0.230,-0.840,-0.980,0.140
7858471,-0.997,0.095,0.229,-1.050,-1.050,0.350
7858488,-0.995,0.091,0.227,-1.190,-0.910,0.490
7858508,-0.998,0.090,0.225,-1.050,-1.050,0.700
7858528,-0.999,0.091,0.227,-0.980,-1.190,1.050
7858548,-0.998,0.092,0.224,-0.770,-1.400,1.190
7858570,-0.998,0.091,0.225,-0.560,-1.610,1.330
7858590,-0.999,0.091,0.226,-0.420,-1.890,1.400
7858610,-0.999,0.090,0.221,0.140,-2.100,1.470
7858634,-0.998,0.090,0.223,0.350,-2.590,1.540
7858654,-0.995,0.094,0.223,0.770,-2.800,1.470
7858674,-0.999,0.092,0.225,0.770,-3.010,1.750
7858698,-0.996,0.094,0.225,0.980,-3.010,1.680
7858722,-0.997,0.094,0.230,0.700,-3.010,1.680
7858742,-0.998,0.093,0.227,0.350,-2.800,1.820
7858761,-0.997,0.094,0.230,0.140,-2.800,1.820
7858782,-0.998,0.096,0.229,-0.070,-2.590,2.030
7858802,-0.997,0.095,0.229,-0.070,-2.450,2.030
7858825,-0.996,0.096,0.227,0.070,-2.520,2.030
7858846,-0.995,0.097,0.229,0.000,-2.380,1.960
7858864,-0.996,0.096,0.228,-0.070,-2.380,2.030
7858889,-0.995,0.098,0.227,0.070,-2.240,1.820
7858909,-0.996,0.101,0.229,-0.070,-2.240,1.750
7858929,-0.998,0.095,0.228,-0.210,-2.170,1.750
7858952,-0.996,0.097,0.226,-0.140,-2.170,1.680
7858971,-0.996,0.098,0.227,-0.210,-2.170,1.540
7858991,-0.997,0.102,0.227,-0.490,-2.310,1.610
7859012,-0.996,0.098,0.229,-0.350,-2.170,1.400
7859033,-0.998,0.097,0.229,-0.350,-2.170,1.540
7859052,-0.999,0.099,0.229,-0.280,-2.450,1.470
7859077,-0.995,0.099,0.226,0.070,-2.240,1.330
7859097,-0.996,0.097,0.226,0.070,-2.730,1.540
7859116,-0.997,0.098,0.228,0.140,-2.730,1.750
7859136,-0.995,0.099,0.227,-0.070,-2.730,1.820
7859160,-0.997,0.097,0.229,-0.070,-2.730,1.820
7859181,-0.998,0.101,0.232,0.140,-3.010,1.610
7859197,-0.996,0.104,0.231,0.070,-3.080,1.540
7859216,-0.995,0.099,0.230,0.000,-3.080,1.400
7859240,-0.994,0.100,0.228,0.070,-3.010,1.330
7859261,-0.995,0.102,0.230,-0.070,-3.150,1.260
7859278,-0.997,0.098,0.230,0.000,-3.080,1.260
7859298,-0.995,0.100,0.231,0.350,-3.150,1.330
7859322,-0.994,0.102,0.232,0.140,-3.220,1.470
7859342,-0.997,0.098,0.234,-0.070,-2.800,1.470
7859362,-0.993,0.100,0.233,-0.280,-2.800,1.400
7859382,-0.996,0.099,0.235,-0.420,-2.590,1.400
7859406,-0.998,0.101,0.234,-0.350,-2.520,1.400
7859426,-0.995,0.100,0.234,-0.280,-2.450,1.190
7859444,-0.995,0.100,0.235,-0.350,-2.240,1.120
7859465,-0.994,0.101,0.234,-0.210,-1.890,1.050
7859486,-0.996,0.102,0.234,-0.420,-1.960,0.910
7859510,-0.993,0.103,0.234,-0.280,-1.680,0.560
7859530,-0.995,0.100,0.231,-0.280,-1.610,0.420
7859550,-0.996,0.100,0.232,-0.210,-1.610,0.000
7859566,-0.993,0.105,0.234,-0.350,-1.330,-0.070
7859586,-0.996,0.099,0.230,-0.280,-1.120,-0.210
7859606,-0.994,0.099,0.234,-0.350,-0.980,-0.070
7859626,-0.991,0.097,0.233,-0.980,-0.490,0.070
7859645,-0.997,0.099,0.233,-1.470,-0.350,0.280
7859670,-0.993,0.101,0.228,-1.960,-0.350,0.000
7859686,-0.998,0.100,0.229,-2.170,-0.350,-0.350
7859710,-0.996,0.096,0.226,-1.960,-0.140,-0.210
7859729,-0.996,0.089,0.221,-0.840,-0.910,0.210
7859753,-1.006,0.089,0.222,0.420,-2.240,1.400
7859773,-0.998,0.098,0.225,0.420,-2.380,1.750
7859793,-0.996,0.095,0.228,-0.210,-2.240,1.960
7859811,-0.996,0.096,0.225,-0.350,-2.100,2.100
7859834,-1.000,0.100,0.225,-0.140,-2.450,2.240
7859853,-0.996,0.094,0.225,0.280,-2.380,2.310
7859876,-0.995,0.101,0.223,-0.140,-2.240,2.170
7859897,-0.994,0.098,0.225,-0.210,-2.380,2.170
7859915,-0.996,0.102,0.229,0.280,-2.520,2.030
7859935,-0.997,0.101,0.226,0.070,-2.310,1.750
7859955,-0.998,0.096,0.225,-0.070,-2.450,1.750
7859974,-0.997,0.100,0.227,0.070,-2.310,1.820
7860000,-0.996,0.098,0.226,0.210,-2.450,1.890
7860019,-0.993,0.102,0.230,-0.070,-2.170,1.960
7860038,-0.994,0.106,0.228,-0.280,-2.030,1.680
7860060,-0.998,0.102,0.227,-0.350,-2.100,1.470
7860079,-0.995,0.101,0.226,-0.420,-1.890,1.330
7860104,-0.996,0.104,0.228,-0.560,-1.820,1.190
7860124,-0.996,0.102,0.227,-0.770,-1.540,1.120
7860144,-0.996,0.101,0.230,-0.980,-1.540,1.120
7860167,-0.997,0.101,0.228,-1.050,-1.330,0.910
7860188,-0.996,0.098,0.227,-0.980,-1.260,0.770
7860209,-0.996,0.102,0.223,-0.770,-1.190,0.700
7860228,-0.998,0.098,0.221,-0.560,-1.470,0.630
7860247,-0.999,0.097,0.223,-0.350,-1.680,0.630
7860267,-0.997,0.097,0.223,0.070,-1.960,0.910
7860291,-0.997,0.099,0.223,0.140,-2.100,1.050
7860306,-0.998,0.096,0.222,0.420,-2.380,1.330
7860330,-0.997,0.098,0.227,0.630,-2.520,1.330
7860350,-0.996,0.100,0.225,0.560,-2.520,1.330
7860371,-0.997,0.096,0.226,0.700,-2.590,1.540
7860391,-0.997,0.098,0.224,0.770,-2.590,1.540
7860411,-0.997,0.098,0.224,0.700,-2.380,1.470
7860430,-0.996,0.100,0.228,0.770,-2.380,1.470
7860450,-0.996,0.102,0.226,0.210,-2.170,1.330
7860466,-0.997,0.102,0.225,0.140,-2.100,1.400
7860490,-0.998,0.100,0.222,0.000,-2.030,1.610
7860510,-0.996,0.099,0.224,-0.140,-2.240,1.890
7860528,-0.996,0.097,0.224,0.070,-2.520,2.170
7860547,-0.996,0.098,0.224,0.000,-2.520,2.380
7860571,-0.993,0.101,0.226,-0.070,-2.870,2.380
7860592,-0.996,0.102,0.226,-0.210,-2.940,2.240
7860610,-0.998,0.104,0.224,-0.280,-2.800,2.030
7860634,-0.996,0.104,0.228,-0.420,-2.590,1.890
7860654,-0.996,0.105,0.227,-0.280,-2.730,1.890
7860674,-0.994,0.104,0.224,-0.140,-2.520,1.750
7860694,-0.998,0.104,0.228,-0.490,-2.660,1.820
7860710,-0.998,0.105,0.224,-0.490,-2.870,1.750
7860731,-0.999,0.106,0.226,-0.420,-3.150,1.890
7860751,-1.000,0.096,0.226,0.280,-3.150,2.310
7860774,-1.000,0.107,0.225,0.280,-3.290,2.170
7860795,-0.995,0.107,0.231,0.140,-3.220,2.100
7860815,-0.996,0.106,0.228,0.280,-3.290,2.170
7860834,-0.997,0.105,0.230,0.490,-3.290,2.170
7860855,-0.997,0.105,0.227,0.490,-3.290,2.170
7860875,-0.996,0.109,0.230,0.420,-3.220,2.100
7860899,-0.994,0.110,0.232,0.070,-3.430,2.100
7860918,-0.997,0.107,0.230,-0.070,-3.080,1.890
7860938,-0.995,0.107,0.233,0.280,-3.290,1.820
7860962,-0.994,0.107,0.233,0.490,-3.150,1.750
7860982,-0.993,0.113,0.230,0.140,-3.290,1.680
7861001,-0.998,0.106,0.232,0.070,-3.500,1.960
7861022,-0.993,0.110,0.233,0.280,-3.150,1.820
7861042,-0.995,0.114,0.232,0.070,-3.290,1.540
7861061,-0.997,0.108,0.232,-0.070,-3.500,1.610
7861085,-0.995,0.106,0.233,0.490,-3.500,1.610
7861105,-0.991,0.112,0.233,0.140,-3.570,1.610
7861125,-0.997,0.109,0.235,0.210,-3.710,1.540
7861144,-0.994,0.110,0.233,0.490,-3.710,1.610
7861166,-0.995,0.113,0.237,0.420,-3.360,1.470
7861190,-0.994,0.107,0.233,0.630,-3.430,1.260
7861210,-0.992,0.114,0.235,0.070,-3.080,1.050
7861226,-0.994,0.110,0.234,0.420,-3.220,0.980
7861250,-0.994,0.110,0.237,0.350,-3.500,0.700
7861270,-0.994,0.112,0.238,0.560,-3.290,0.560
7861288,-0.993,0.109,0.240,0.280,-2.940,0.490
7861311,-0.993,0.110,0.240,0.140,-2.660,0.350
7861332,-0.992,0.111,0.241,-0.210,-2.310,0.350
7861351,-0.992,0.114,0.243,0.070,-2.520,0.420
7861372,-0.993,0.107,0.238,0.140,-2.170,0.420
7861392,-0.994,0.109,0.242,-0.350,-1.890,0.490
7861408,-0.992,0.110,0.238,-0.420,-1.610,0.420
7861432,-0.996,0.108,0.237,-0.770,-1.610,0.140
7861452,-0.993,0.107,0.237,-0.140,-1.610,0.140
7861472,-0.993,0.109,0.237,0.000,-1.750,0.140
7861492,-0.991,0.110,0.240,-0.770,-1.260,0.000
7861516,-0.995,0.110,0.240,-1.330,-0.980,-0.070
7861532,-0.996,0.105,0.236,-1.120,-1.190,0.000
7861551,-0.996,0.104,0.232,-0.490,-1.260,0.070
7861575,-0.994,0.105,0.233,0.140,-1.540,0.420
7861599,-0.993,0.110,0.237,0.140,-1.540,0.420
7861617,-0.995,0.106,0.235,-0.350,-1.400,0.350
7861639,-0.993,0.102,0.234,-0.420,-1.400,0.420
7861663,-0.994,0.102,0.233,-0.350,-1.540,0.560
7861679,-0.995,0.106,0.233,-0.210,-1.540,0.560
7861702,-0.995,0.107,0.233,-0.140,-1.470,0.420
7861726,-0.994,0.107,0.235,-0.420,-1.260,0.210
7861742,-0.995,0.102,0.234,-0.350,-1.330,0.140
7861765,-0.996,0.107,0.231,-0.700,-1.050,0.000
7861786,-0.995,0.100,0.232,-0.630,-1.120,0.140
7861806,-0.996,0.102,0.230,-0.700,-1.400,0.350
7861826,-1.001,0.098,0.231,-0.490,-1.400,0.560
7861846,-0.997,0.099,0.231,-0.350,-1.470,0.700
7861865,-0.996,0.099,0.227,-0.350,-1.750,0.840
7861886,-0.997,0.099,0.230,-0.070,-1.820,1.050
7861906,-0.996,0.099,0.228,0.140,-2.240,1.120
7861926,-0.997,0.098,0.229,0.280,-2.310,1.400
7861946,-0.997,0.101,0.229,0.490,-2.380,1.330
7861965,-0.996,0.101,0.230,0.420,-2.450,1.330
7861987,-0.997,0.096,0.230,0.350,-2.380,1.470
7862007,-0.995,0.102,0.232,0.350,-2.450,1.470
7862028,-0.997,0.105,0.230,0.280,-2.520,1.470
7862052,-0.995,0.103,0.229,0.280,-2.520,1.400
7862072,-0.996,0.104,0.231,0.070,-2.450,1.400
7862092,-0.994,0.100,0.230,0.140,-2.380,1.260
7862110,-0.996,0.102,0.232,0.140,-2.310,1.330
7862128,-0.996,0.102,0.231,0.000,-2.170,1.330
7862147,-0.996,0.103,0.230,0.000,-2.100,1.400
7862172,-0.997,0.101,0.232,0.070,-2.100,1.400
7862192,-0.996,0.102,0.230,-0.140,-1.890,1.400
7862212,-0.994,0.101,0.229,-0.280,-2.100,1.470
7862231,-0.996,0.103,0.232,-0.210,-2.030,1.470
7862248,-0.993,0.102,0.231,-0.350,-1.960,1.400
7862269,-0.995,0.103,0.232,-0.560,-1.750,1.260
7862289,-0.996,0.104,0.229,-0.560,-1.820,1.260
7862313,-0.996,0.103,0.230,-0.630,-1.960,1.190
7862332,-0.996,0.103,0.229,-0.490,-1.820,1.190
7862352,-0.996,0.102,0.233,-0.280,-2.030,1.260
7862375,-0.996,0.103,0.232,-0.280,-1.890,1.190
7862395,-0.996,0.103,0.231,-0.490,-2.100,1.190
7862416,-0.998,0.103,0.228,-0.420,-2.100,1.330
7862436,-0.997,0.103,0.228,-0.350,-2.030,1.260
7862455,-0.996,0.104,0.230,-0.280,-2.170,1.330
7862475,-0.999,0.102,0.227,-0.420,-2.030,1.120
7862499,-0.995,0.101,0.228,-0.140,-2.450,1.190
7862519,-0.996,0.101,0.227,-0.140,-2.590,1.470
7862539,-0.996,0.104,0.228,-0.070,-2.730,1.610
7862557,-0.997,0.103,0.228,0.000,-2.800,1.610
7862578,-0.996,0.103,0.227,0.210,-2.870,1.470
7862599,-0.996,0.104,0.228,0.140,-3.080,1.540
7862616,-0.993,0.104,0.230,0.280,-3.080,1.470
7862638,-0.996,0.104,0.231,0.000,-2.940,1.330
7862662,-0.996,0.103,0.231,-0.070,-2.870,1.190
7862684,-0.995,0.102,0.228,-0.140,-2.870,1.260
7862701,-0.996,0.102,0.229,0.140,-3.080,1.400
7862726,-0.995,0.106,0.232,0.140,-3.080,1.260
7862746,-0.995,0.106,0.234,0.000,-3.220,1.260
7862761,-0.994,0.108,0.238,0.420,-2.870,1.330
7862785,-0.993,0.105,0.238,-0.280,-2.380,1.050
7862805,-0.993,0.103,0.235,-0.350,-2.310,0.910
7862829,-0.996,0.103,0.233,-0.350,-1.960,0.980
7862849,-0.996,0.103,0.236,-0.420,-1.750,0.980
7862867,-0.993,0.103,0.234,-0.490,-1.470,0.980
7862887,-0.992,0.104,0.232,-0.420,-1.470,1.050
7862907,-0.996,0.102,0.232,-0.630,-1.330,0.980
7862927,-0.995,0.103,0.232,-0.770,-1.400,1.120
7862946,-0.997,0.105,0.229,-0.700,-1.120,1.260
7862971,-0.996,0.104,0.228,-0.630,-1.400,1.400
7862991,-0.997,0.104,0.230,-0.420,-1.610,1.750
7863006,-0.996,0.103,0.229,-0.490,-1.680,1.820
7863031,-0.996,0.104,0.229,-0.490,-1.680,1.820
7863050,-0.996,0.105,0.230,-0.420,-1.610,1.750
7863071,-0.996,0.102,0.228,-0.210,-1.960,1.750
7863090,-0.997,0.102,0.228,0.350,-2.240,1.890
7863114,-0.994,0.107,0.228,0.070,-1.960,1.960
7863132,-0.997,0.105,0.231,-0.420,-2.100,1.960
7863151,-0.998,0.105,0.231,-0.070,-2.240,2.030
7863176,-0.995,0.107,0.230,-0.210,-2.100,1.960
7863196,-0.994,0.109,0.229,-0.350,-2.030,1.890
7863214,-0.995,0.102,0.231,-0.350,-2.170,1.820
7863235,-0.996,0.110,0.234,-0.070,-1.820,1.610
7863259,-0.993,0.107,0.229,0.070,-1.890,1.470
7863279,-0.996,0.109,0.229,0.000,-1.890,1.330
7863298,-0.994,0.110,0.230,-0.280,-1.750,1.470
7863319,-0.993,0.110,0.227,-0.560,-1.680,1.470
7863339,-0.998,0.106,0.230,-0.490,-1.680,1.330
7863356,-0.997,0.109,0.229,-0.210,-1.540,1.470
7863380,-0.994,0.108,0.228,-0.560,-1.400,1.330
7863400,-0.995,0.105,0.227,-0.490,-1.680,1.470
7863419,-0.995,0.111,0.225,-0.630,-1.470,1.330
7863440,-0.996,0.107,0.224,-0.140,-1.960,1.680
7863460,-0.999,0.107,0.226,0.070,-2.240,2.030
7863480,-0.993,0.107,0.230,-0.210,-2.170,2.030
7863504,-0.994,0.111,0.229,-0.700,-1.820,1.750
7863524,-0.993,0.115,0.231,-1.190,-1.820,1.470
7863544,-0.991,0.108,0.231,-0.210,-1.330,1.050
7863564,-0.986,0.112,0.231,-0.280,-0.910,1.330
7863581,-0.993,0.109,0.229,-1.470,-1.540,0.980
7863600,-1.003,0.109,0.227,-1.190,-1.330,0.770
7863620,-0.997,0.107,0.226,-1.050,-0.980,0.490
7863645,-0.991,0.110,0.227,-0.840,-1.120,0.210
7863665,-0.996,0.105,0.225,-0.630,-1.190,0.350
7863685,-0.998,0.107,0.224,-0.490,-1.190,0.280
7863705,-0.994,0.104,0.223,-0.630,-1.190,0.350
7863724,-0.997,0.105,0.221,-0.420,-1.470,0.350
7863749,-0.998,0.105,0.223,-0.070,-1.960,0.840
7863769,-0.998,0.105,0.224,0.210,-2.310,0.770
7863789,-0.996,0.105,0.223,0.140,-2.380,0.700
7863807,-0.995,0.104,0.224,0.140,-2.450,0.770
7863831,-0.998,0.107,0.224,0.420,-2.660,0.840
7863850,-0.997,0.105,0.226,0.420,-2.520,0.700
7863871,-0.996,0.104,0.225,0.280,-2.730,0.840
7863891,-0.996,0.107,0.224,0.210,-2.730,0.910
7863911,-0.996,0.108,0.223,0.070,-2.940,0.980
7863930,-0.998,0.107,0.224,0.140,-3.010,1.120
7863950,-0.996,0.106,0.227,0.210,-2.870,1.120
7863969,-0.998,0.104,0.221,0.000,-2.870,1.330
7863994,-0.997,0.105,0.224,0.140,-3.080,1.540
7864018,-0.998,0.108,0.226,0.210,-3.290,1.680
7864038,-0.995,0.106,0.224,0.280,-3.150,1.750
7864057,-0.994,0.107,0.226,0.350,-3.290,1.890
7864077,-0.996,0.110,0.227,0.070,-3.080,1.820
7864101,-0.995,0.109,0.227,0.140,-3.010,1.750
7864117,-0.993,0.108,0.228,0.140,-2.940,1.610
7864137,-0.993,0.109,0.228,0.140,-3.010,1.610
7864157,-0.994,0.106,0.229,-0.140,-2.800,1.610
7864181,-0.996,0.109,0.227,0.000,-2.940,1.540
7864201,-0.995,0.107,0.227,0.070,-2.940,1.540
7864221,-0.996,0.109,0.227,-0.140,-3.010,1.610
7864236,-0.996,0.108,0.232,0.140,-3.220,1.610
7864261,-0.996,0.110,0.231,0.140,-3.220,1.540
7864280,-0.994,0.108,0.229,0.420,-3.080,1.610
7864296,-0.996,0.108,0.227,0.070,-3.290,1.540
7864321,-0.997,0.108,0.228,0.350,-3.500,1.540
7864341,-1.000,0.113,0.231,0.560,-3.430,1.050
7864357,-0.993,0.112,0.231,0.770,-3.290,1.190
7864376,-0.996,0.112,0.231,0.560,-3.640,1.120
7864397,-0.995,0.109,0.233,0.980,-3.920,0.980
7864416,-0.999,0.109,0.230,0.840,-3.500,1.260
7864441,-0.991,0.110,0.233,0.420,-3.570,1.050
7864459,-0.993,0.111,0.232,0.490,-3.640,0.910
7864480,-0.992,0.110,0.234,0.490,-3.290,0.630
7864501,-0.994,0.113,0.237,0.000,-3.430,0.770
7864519,-0.990,0.112,0.236,0.280,-3.010,0.490
7864539,-0.996,0.111,0.236,-0.210,-3.360,0.280
7864559,-0.993,0.110,0.237,-0.210,-3.220,0.070
7864579,-0.994,0.110,0.236,-0.280,-3.290,0.070
7864602,-0.996,0.107,0.236,-0.210,-3.080,-0.280
7864626,-0.995,0.105,0.236,0.210,-3.290,-0.280
7864645,-0.994,0.106,0.238,0.280,-3.150,-0.210
7864665,-0.989,0.106,0.239,0.350,-2.870,0.070
7864686,-0.994,0.105,0.236,0.280,-2.870,0.210
7864706,-0.993,0.102,0.239,0.490,-2.660,0.210
7864721,-0.995,0.107,0.242,0.070,-2.800,0.350
7864741,-0.991,0.105,0.240,0.140,-2.170,0.070
7864766,-0.993,0.104,0.239,0.000,-2.240,0.210
7864786,-0.994,0.103,0.238,-0.210,-1.960,0.350
7864805,-0.991,0.108,0.240,-0.420,-1.680,0.070
7864822,-0.993,0.107,0.237,-0.420,-1.610,0.000
7864846,-0.994,0.101,0.239,-0.770,-1.050,0.000
7864866,-0.993,0.099,0.238,-0.350,-1.260,0.350
7864886,-0.993,0.102,0.236,-0.560,-1.190,0.350
7864906,-0.994,0.102,0.235,-0.350,-1.470,0.560
7864925,-0.994,0.101,0.237,-0.140,-1.050,0.700
7864944,-0.994,0.100,0.234,-0.210,-1.400,0.840
7864969,-0.995,0.103,0.232,-0.490,-1.260,0.630
7864988,-0.998,0.098,0.231,-0.490,-1.470,0.700
7865008,-0.994,0.102,0.234,0.420,-1.890,0.700
7865031,-0.995,0.103,0.233,0.280,-1.610,0.560
7865052,-0.993,0.102,0.236,0.000,-1.470,0.490
7865071,-0.993,0.102,0.237,0.000,-1.330,0.420
7865090,-0.992,0.102,0.236,-0.070,-1.330,0.350
7865112,-0.993,0.100,0.237,-0.210,-1.330,0.490
7865135,-0.996,0.101,0.233,-0.070,-1.400,0.420
7865156,-0.995,0.101,0.234,-0.490,-0.840,0.210
7865176,-0.995,0.101,0.233,-0.770,-0.840,0.420
7865196,-0.995,0.098,0.230,-0.980,-0.840,0.560
7865211,-0.996,0.098,0.228,-1.050,-0.980,0.560
7865236,-0.996,0.101,0.228,-0.910,-1.260,0.630
7865256,-0.998,0.099,0.226,-0.630,-1.260,0.770
7865276,-0.995,0.099,0.231,-0.560,-1.400,0.910
7865296,-0.995,0.099,0.230,-0.630,-1.400,0.980
7865315,-0.997,0.100,0.229,-0.560,-1.400,1.050
7865337,-0.996,0.094,0.226,-0.630,-1.330,1.190
7865357,-0.998,0.095,0.227,-0.560,-1.680,1.400
7865377,-0.999,0.099,0.227,-0.210,-2.030,1.400
7865401,-0.998,0.098,0.229,0.210,-2.240,1.470
7865420,-0.995,0.096,0.226,0.350,-2.380,1.470
7865444,-0.995,0.100,0.227,0.490,-2.310,1.610
7865460,-0.997,0.102,0.227,0.280,-2.380,1.540
7865480,-0.997,0.099,0.228,0.420,-2.380,1.540
7865504,-0.996,0.102,0.228,0.350,-2.310,1.400
7865524,-0.996,0.102,0.230,0.350,-2.310,1.400
7865544,-0.996,0.102,0.227,0.350,-2.310,1.470
7865563,-0.996,0.100,0.227,0.210,-2.240,1.330
7865579,-0.993,0.101,0.229,-0.140,-2.100,1.330
7865602,-0.997,0.098,0.227,-0.280,-2.100,1.400
7865626,-0.996,0.102,0.226,-0.210,-2.100,1.400
7865646,-0.996,0.101,0.228,-0.420,-2.030,1.540
7865666,-0.996,0.100,0.230,-0.210,-2.100,1.470
7865683,-0.996,0.101,0.228,-0.210,-2.240,1.470
7865707,-0.997,0.101,0.227,0.000,-2.310,1.400
7865725,-0.995,0.102,0.226,-0.070,-2.310,1.400
7865749,-0.996,0.102,0.228,-0.070,-2.310,1.470
7865766,-0.997,0.099,0.228,-0.070,-2.240,1.330
7865788,-0.996,0.102,0.230,-0.210,-2.240,1.400
7865808,-0.998,0.102,0.227,-0.280,-2.310,1.330
7865830,-0.997,0.102,0.228,-0.210,-2.240,1.190
7865851,-0.999,0.102,0.228,0.000,-2.380,1.120
7865875,-0.997,0.101,0.226,0.140,-2.590,1.120
7865895,-0.996,0.101,0.228,0.140,-2.940,1.260
7865914,-0.996,0.101,0.227,0.070,-3.290,1.610
7865934,-0.996,0.099,0.225,0.140,-3.500,2.030
7865955,-1.000,0.101,0.226,0.280,-3.710,2.100
7865978,-0.992,0.104,0.228,0.700,-4.060,2.310
7866002,-0.997,0.103,0.233,0.630,-4.410,2.240
7866018,-0.995,0.104,0.234,0.700,-4.200,2.450
7866038,-0.994,0.103,0.231,0.490,-4.130,2.380
7866062,-0.996,0.105,0.234,0.350,-3.920,2.170
7866078,-0.992,0.104,0.232,1.050,-3.640,1.890
7866099,-0.998,0.102,0.234,0.980,-4.130,2.030
7866123,-0.993,0.105,0.236,0.420,-3.290,1.750
7866143,-0.992,0.105,0.238,0.350,-3.150,1.680
7866162,-0.992,0.110,0.240,0.070,-3.080,1.610
7866183,-0.993,0.108,0.238,0.140,-2.520,1.330
7866200,-0.989,0.106,0.241,-0.210,-2.100,1.190
7866224,-0.992,0.109,0.238,-0.140,-1.890,0.910
7866242,-0.991,0.107,0.238,-0.350,-1.540,0.630
7866262,-0.990,0.108,0.235,-0.560,-1.050,0.630
7866281,-0.992,0.107,0.233,-0.700,-1.190,0.630
7866305,-0.996,0.101,0.234,-0.700,-1.050,0.700
7866326,-0.996,0.102,0.233,-0.630,-0.980,0.700
7866342,-0.996,0.106,0.235,-0.490,-1.050,0.770
7866365,-0.995,0.106,0.233,-0.700,-0.840,0.700
7866386,-0.992,0.104,0.233,-0.770,-0.700,0.770
7866404,-0.995,0.104,0.232,-0.700,-0.840,0.630
7866428,-0.999,0.102,0.232,-0.630,-0.770,0.840
7866452,-0.995,0.104,0.230,-0.490,-0.770,0.910
7866472,-0.994,0.105,0.233,-0.350,-0.770,0.840
7866492,-0.994,0.105,0.229,-0.700,-0.560,0.700
7866512,-0.995,0.103,0.229,-0.700,-0.560,0.700
7866532,-0.995,0.103,0.228,-0.630,-0.420,0.700
7866552,-0.996,0.105,0.229,-1.260,-0.560,0.630
7866572,-0.995,0.102,0.225,-0.910,-0.420,0.560
7866592,-0.994,0.103,0.228,-0.700,-0.630,0.280
7866616,-0.996,0.101,0.225,-0.770,-0.700,0.350
7866635,-0.997,0.102,0.225,-0.770,-0.980,0.420
7866656,-1.001,0.102,0.221,-0.210,-1.330,0.560
7866675,-0.996,0.101,0.224,-0.210,-1.540,0.770
7866694,-0.997,0.101,0.225,0.000,-1.680,0.980
7866714,-0.997,0.104,0.224,-0.350,-1.400,0.910
7866739,-0.998,0.101,0.223,-0.630,-1.610,0.980
7866759,-0.998,0.100,0.224,0.210,-1.820,1.050
7866778,-0.996,0.100,0.223,0.210,-2.030,1.120
7866798,-0.997,0.102,0.224,0.070,-2.030,1.120
7866820,-0.996,0.106,0.225,-0.280,-1.610,1.050
7866839,-0.996,0.102,0.223,-0.350,-1.540,0.910
7866861,-0.994,0.101,0.223,-0.140,-1.260,0.700
7866882,-0.998,0.100,0.224,-0.070,-1.540,0.630
7866902,-0.995,0.103,0.224,0.000,-1.400,0.560
7866922,-0.996,0.103,0.223,-0.560,-1.190,0.560
7866946,-0.998,0.101,0.223,-0.630,-1.400,0.560
7866962,-0.996,0.102,0.223,-0.420,-0.980,0.490
7866982,-0.996,0.101,0.223,-0.910,-0.980,0.210
7867001,-0.995,0.100,0.220,-0.840,-0.980,0.280
7867026,-0.997,0.105,0.224,-1.820,-1.050,0.280
7867046,-1.000,0.097,0.219,-1.400,-0.980,0.280
7867061,-1.000,0.097,0.222,-1.260,-1.050,0.420
7867086,-0.999,0.094,0.218,-0.630,-1.330,0.490
7867105,-0.999,0.098,0.217,-0.980,-1.750,0.560
7867123,-1.004,0.093,0.218,-0.560,-1.820,0.840
7867143,-0.999,0.093,0.216,-0.280,-2.030,0.980
7867162,-1.000,0.098,0.216,-0.140,-2.380,1.050
7867186,-0.998,0.095,0.217,0.210,-2.660,1.330
7867205,-0.997,0.098,0.218,0.350,-2.800,1.400
7867229,-0.999,0.100,0.220,0.140,-2.730,1.470
7867249,-0.997,0.094,0.220,0.280,-2.800,1.540
7867268,-0.997,0.098,0.222,0.350,-2.660,1.540
7867291,-0.996,0.097,0.222,0.000,-2.450,1.540
7867312,-0.996,0.103,0.222,-0.560,-2.100,1.260
7867328,-0.999,0.101,0.222,-0.490,-1.890,1.050
7867350,-0.998,0.100,0.220,-0.420,-1.820,0.770
7867374,-0.998,0.099,0.220,-0.280,-1.890,0.560
7867394,-1.124,0.099,0.222,-0.140,-2.030,0.560
7867412,-0.997,0.097,0.221,-0.280,-1.750,0.420
7867430,-0.997,0.098,0.220,-0.350,-1.610,0.280
7867449,-0.997,0.097,0.218,-0.070,-1.680,0.350
7867472,-1.000,0.095,0.219,-0.140,-1.750,0.630
7867493,-0.998,0.099,0.222,-0.350,-1.890,0.630
7867513,-0.997,0.095,0.219,-0.280,-1.890,0.980
7867532,-1.002,0.095,0.218,-0.140,-2.240,1.190
7867557,-1.000,0.098,0.217,0.070,-2.520,1.120
7867574,-0.998,0.096,0.218,0.000,-2.380,1.400
7867598,-0.998,0.098,0.218,-0.070,-2.730,1.400
7867618,-0.998,0.097,0.218,-0.070,-2.870,1.540
7867638,-0.997,0.097,0.220,0.000,-3.080,1.470
7867658,-0.999,0.098,0.218,0.420,-3.220,1.750
7867682,-0.999,0.090,0.220,0.490,-3.640,1.680
7867698,-0.993,0.103,0.222,0.630,-3.360,1.750
7867721,-0.999,0.098,0.222,0.280,-3.500,1.680
7867741,-0.996,0.098,0.223,0.350,-3.150,1.400
7867761,-0.999,0.097,0.223,0.350,-3.430,1.540
7867785,-0.994,0.102,0.222,0.490,-3.290,1.470
7867802,-1.000,0.096,0.224,0.210,-3.570,1.470
7867826,-0.996,0.097,0.224,0.210,-3.150,1.470
7867846,-0.996,0.100,0.220,0.210,-3.220,1.470
7867865,-0.997,0.102,0.221,0.420,-3.500,1.260
7867885,-0.999,0.095,0.226,0.350,-3.360,1.400
7867909,-0.995,0.100,0.224,0.420,-3.430,1.190
7867924,-0.998,0.102,0.224,-0.070,-3.150,0.840
7867949,-0.992,0.099,0.222,0.350,-3.010,0.630
7867969,-0.996,0.098,0.228,0.280,-3.640,0.630
7867989,-0.996,0.101,0.229,0.140,-3.150,0.280
7868013,-0.995,0.101,0.226,-0.210,-2.870,0.000
7868031,-0.998,0.094,0.227,0.070,-3.010,-0.210
7868050,-0.998,0.096,0.226,0.630,-3.220,0.000
7868070,-0.995,0.096,0.224,0.840,-3.360,0.140
7868094,-0.997,0.095,0.227,0.420,-3.290,0.350
7868114,-0.997,0.096,0.228,0.070,-2.870,0.420
7868134,-0.996,0.092,0.224,0.350,-2.800,0.700
7868154,-0.999,0.094,0.233,0.630,-2.870,1.050
7868174,-0.991,0.098,0.231,0.420,-2.660,0.840
7868198,-0.995,0.100,0.230,0.630,-2.940,1.120
7868218,-0.996,0.097,0.233,0.420,-2.520,1.050
7868238,-0.996,0.103,0.228,-0.070,-2.030,0.840
7868256,-0.995,0.093,0.230,0.140,-1.820,0.840
7868275,-0.995,0.099,0.229,0.280,-1.680,1.050
7868294,-0.993,0.095,0.227,-0.560,-1.540,0.840
7868319,-0.998,0.101,0.229,-1.190,-1.330,0.910
7868339,-0.996,0.097,0.227,-1.120,-0.980,0.980
7868356,-0.999,0.095,0.224,-0.910,-1.190,1.120
7868376,-0.999,0.095,0.227,-0.350,-1.470,1.330
7868400,-0.996,0.097,0.226,-0.490,-1.470,1.330
7868416,-0.995,0.096,0.225,-0.770,-1.400,1.190
7868438,-0.995,0.097,0.225,-0.840,-1.190,1.190
7868462,-0.998,0.092,0.225,-0.840,-1.330,1.260
7868481,-0.997,0.095,0.225,-0.560,-1.680,1.260
7868502,-0.997,0.096,0.224,-0.560,-1.610,1.260
7868521,-0.998,0.095,0.225,-0.280,-1.680,1.260
7868545,-0.996,0.096,0.224,-0.140,-1.960,1.260
7868565,-0.996,0.095,0.224,-0.280,-2.030,1.400
7868584,-1.000,0.095,0.221,-0.280,-2.240,1.330
7868608,-0.999,0.096,0.223,0.070,-2.660,1.470
7868625,-0.998,0.097,0.225,0.210,-2.590,1.400
7868649,-0.997,0.098,0.225,0.420,-2.800,1.260
7868668,-0.997,0.098,0.225,0.490,-2.730,1.190
7868692,-0.998,0.093,0.226,0.770,-3.010,1.330
7868712,-0.997,0.096,0.225,0.420,-2.940,1.330
7868732,-0.996,0.098,0.228,0.350,-2.870,1.400
7868752,-0.996,0.096,0.226,0.140,-2.800,1.330
7868768,-0.997,0.097,0.226,0.140,-2.660,1.330
7868792,-0.996,0.097,0.230,0.000,-2.660,1.400
7868808,-0.995,0.098,0.227,0.070,-2.520,1.330
7868832,-0.996,0.099,0.226,0.070,-2.380,1.400
7868852,-0.997,0.098,0.227,0.140,-2.450,1.470
7868872,-0.996,0.100,0.226,0.070,-2.520,1.400
7868892,-0.998,0.100,0.229,0.070,-2.380,1.260
7868909,-0.997,0.097,0.227,-0.070,-2.170,1.260
7868929,-0.996,0.098,0.226,-0.350,-2.100,1.190
7868953,-0.996,0.096,0.226,-0.350,-2.100,1.120
7868973,-0.995,0.100,0.230,-0.420,-2.030,1.050
7868992,-0.997,0.099,0.228,-0.420,-2.100,1.050
7869012,-0.997,0.099,0.229,-0.350,-2.030,1.050
7869032,-0.997,0.098,0.225,-0.350,-2.030,0.980
7869051,-0.997,0.099,0.227,-0.280,-2.100,1.190
7869076,-0.995,0.100,0.227,-0.210,-2.030,1.050
7869096,-0.996,0.096,0.225,0.000,-2.240,1.260
7869116,-0.997,0.098,0.228,-0.210,-2.310,1.330
7869140,-0.995,0.101,0.225,-0.280,-2.100,1.190
7869160,-0.996,0.098,0.226,-0.210,-2.240,1.190
7869180,-0.997,0.096,0.225,0.000,-2.170,1.120
7869200,-0.995,0.102,0.227,-0.140,-2.030,0.910
7869220,-0.996,0.097,0.224,-0.140,-2.170,0.910
7869244,-0.999,0.099,0.224,0.070,-2.240,1.050
7869264,-0.995,0.099,0.226,-0.210,-2.100,0.910
7869282,-0.995,0.096,0.225,-0.350,-1.960,0.770
7869304,-0.999,0.096,0.226,-0.490,-2.170,0.840
7869324,-0.999,0.096,0.222,-0.140,-2.660,0.910
7869345,-0.999,0.095,0.225,0.070,-2.940,1.120
7869364,-1.000,0.095,0.224,0.070,-3.010,1.120
7869382,-0.996,0.097,0.225,0.070,-3.220,1.330
7869406,-0.998,0.097,0.228,0.210,-3.290,1.540
7869424,-0.996,0.098,0.227,0.350,-3.360,1.540
7869444,-0.996,0.096,0.228,0.420,-3.570,1.680
7869468,-0.997,0.098,0.230,0.350,-3.500,1.680
7869488,-0.996,0.098,0.230,0.210,-3.360,1.680
7869506,-0.997,0.098,0.230,0.070,-3.010,1.750
7869524,-0.998,0.100,0.232,-0.210,-3.080,1.750
7869544,-0.996,0.099,0.231,-0.280,-2.590,1.610
7869568,-0.995,0.099,0.232,-0.280,-2.660,1.540
7869588,-0.994,0.100,0.229,-0.210,-2.380,1.610
7869607,-0.997,0.101,0.232,-0.070,-2.240,1.540
7869628,-0.995,0.100,0.234,-0.140,-2.030,1.470
7869644,-0.996,0.097,0.231,-0.070,-2.240,1.470
7869664,-0.997,0.101,0.235,-0.140,-1.890,1.470
7869683,-0.996,0.101,0.232,-0.070,-1.820,1.400
7869706,-0.994,0.102,0.232,-0.210,-1.540,1.190
7869729,-0.996,0.097,0.230,-0.070,-1.610,1.190
7869750,-0.995,0.101,0.229,0.000,-1.540,1.330
7869769,-0.996,0.102,0.231,0.000,-1.470,1.400
7869791,-0.996,0.099,0.228,-0.210,-1.330,1.400
7869812,-0.995,0.099,0.230,-0.280,-1.260,1.540
7869831,-0.995,0.099,0.228,-0.350,-1.120,1.610
7869850,-0.996,0.102,0.227,-0.630,-1.120,1.820
7869875,-0.996,0.103,0.227,-0.420,-1.120,1.750
7869891,-0.995,0.102,0.228,-0.490,-0.840,1.540
7869915,-0.996,0.103,0.226,-0.490,-0.770,1.190
7869931,-0.996,0.101,0.225,-0.280,-0.840,1.120
7869952,-0.997,0.106,0.230,-0.700,-0.490,0.980
7869975,-0.996,0.102,0.224,-1.190,-0.280,0.630
7869994,-0.996,0.100,0.222,-0.980,-0.140,0.560
7870013,-0.995,0.097,0.224,-0.840,-0.140,0.560
7870033,-0.998,0.100,0.219,-1.260,-0.210,0.490
7870057,-1.000,0.097,0.218,-1.190,-0.490,0.630
7870081,-0.999,0.098,0.219,-0.700,-0.700,0.630
7870101,-0.999,0.100,0.220,-0.630,-0.840,0.560
7870118,-1.000,0.098,0.218,-0.420,-0.840,0.420
7870142,-1.000,0.099,0.219,-0.560,-0.910,0.630
7870166,-0.999,0.099,0.217,-0.700,-0.770,0.350
7870184,-0.996,0.100,0.218,-0.630,-0.770,0.280
7870203,-0.999,0.099,0.219,-0.630,-1.190,0.490
7870227,-1.002,0.096,0.218,-0.560,-0.980,0.560
7870246,-0.997,0.102,0.218,-0.420,-0.770,0.490
7870263,-0.997,0.098,0.216,-0.700,-0.770,0.350
7870283,-1.000,0.096,0.214,-0.700,-0.770,0.420
7870303,-0.998,0.099,0.214,-0.700,-0.910,0.420
7870323,-1.001,0.097,0.211,-0.560,-0.840,0.560
7870347,-0.999,0.095,0.215,-0.630,-0.910,0.560
7870366,-0.999,0.100,0.216,-0.280,-0.840,0.630
7870386,-0.999,0.097,0.216,-0.420,-0.770,0.630
7870405,-1.000,0.092,0.213,-0.490,-0.840,0.840
7870426,-0.996,0.095,0.213,-0.490,-0.910,0.980
7870450,-1.001,0.097,0.211,-0.560,-0.980,0.980
7870470,-0.999,0.100,0.212,-0.700,-0.910,1.190
7870490,-0.997,0.093,0.214,-0.770,-1.120,1.330
7870505,-0.996,0.099,0.204,-0.700,-0.840,1.120
7870530,-1.009,0.085,0.206,-0.350,-1.960,1.680
7870549,-1.003,0.091,0.205,0.140,-2.170,1.820
7870568,-1.001,0.091,0.205,0.070,-2.590,2.030
7870592,-1.000,0.093,0.208,0.140,-2.660,2.170
7870612,-1.000,0.094,0.208,0.140,-2.800,2.380
7870632,-1.001,0.097,0.212,0.140,-3.080,2.380
7870652,-0.999,0.097,0.210,0.350,-3.080,2.380
7870671,-0.998,0.098,0.212,0.490,-3.220,2.240
7870690,-0.997,0.098,0.213,0.280,-3.150,2.240
7870709,-0.997,0.097,0.214,0.420,-3.150,2.100
7870734,-0.998,0.099,0.214,0.280,-2.800,1.960
7870751,-0.995,0.100,0.214,0.140,-2.730,1.890
7870771,-0.998,0.101,0.215,0.000,-2.660,1.750
7870794,-0.998,0.099,0.214,0.000,-2.590,1.750
7870818,-0.999,0.102,0.215,0.000,-2.450,1.680
7870838,-0.999,0.099,0.215,-0.350,-2.450,1.610
7870856,-0.999,0.099,0.213,-0.350,-2.310,1.470
7870874,-0.997,0.101,0.215,-0.210,-2.240,1.400
7870894,-0.999,0.102,0.215,-0.140,-2.170,1.400
7870913,-0.999,0.102,0.214,-0.350,-2.100,1.400
7870938,-0.998,0.099,0.210,-0.280,-1.960,1.260
7870958,-0.998,0.100,0.213,-0.210,-2.240,1.260
7870977,-0.999,0.100,0.213,-0.140,-2.170,1.540
7870998,-0.997,0.102,0.215,0.070,-2.100,1.680
7871018,-1.000,0.102,0.210,-0.350,-2.310,1.610
7871037,-1.001,0.099,0.210,-0.280,-2.590,1.750
7871056,-1.001,0.100,0.209,0.070,-3.010,2.030
7871078,-1.002,0.100,0.208,-0.280,-3.360,2.100
7871100,-1.003,0.098,0.209,-0.140,-3.850,2.380
7871124,-0.996,0.105,0.213,0.350,-3.850,2.100
7871142,-1.001,0.095,0.211,0.840,-4.620,1.960
7871166,-0.997,0.100,0.217,1.190,-4.480,1.890
7871184,-0.996,0.103,0.221,1.470,-4.410,1.750
7871204,-1.000,0.103,0.220,0.420,-3.780,1.750
7871224,-0.996,0.101,0.219,0.560,-3.990,1.820
7871246,-0.997,0.107,0.220,0.910,-4.200,1.680
7871270,-1.000,0.108,0.218,0.700,-4.130,1.610
7871290,-0.992,0.105,0.224,0.490,-3.640,1.610
7871308,-0.996,0.108,0.219,0.070,-3.570,1.400
7871330,-1.000,0.103,0.219,0.420,-3.780,1.610
7871350,-0.999,0.102,0.217,1.890,-4.410,1.540
7871374,-0.997,0.111,0.223,1.960,-4.620,1.750
7871394,-0.996,0.106,0.225,0.700,-4.060,1.820
7871414,-0.998,0.103,0.224,0.630,-3.850,1.820
7871434,-0.999,0.108,0.223,0.420,-3.780,1.820
7871458,-0.999,0.106,0.222,0.280,-3.360,1.750
7871476,-0.995,0.107,0.226,0.630,-3.430,1.750
7871498,-0.994,0.108,0.226,0.630,-3.360,1.890
7871518,-0.999,0.107,0.227,0.420,-3.290,1.960
7871538,-0.996,0.106,0.225,0.420,-2.940,1.610
7871558,-0.994,0.112,0.224,-0.280,-2.520,1.470
7871577,-0.997,0.105,0.226,0.070,-2.450,1.470
7871601,-0.994,0.108,0.226,0.070,-1.960,1.260
7871620,-0.992,0.112,0.229,-0.420,-2.030,0.980
7871641,-0.995,0.108,0.228,-0.630,-1.610,0.770
7871660,-0.993,0.107,0.225,-0.700,-1.610,0.560
7871678,-0.997,0.107,0.226,-0.280,-1.680,0.630
7871701,-0.995,0.106,0.227,-0.560,-1.400,0.420
7871722,-0.995,0.111,0.230,-0.910,-1.190,0.350
7871737,-0.997,0.107,0.224,-0.980,-0.980,0.420
7871757,-0.998,0.103,0.226,-0.980,-1.190,0.140
7871782,-0.996,0.105,0.221,-0.770,-1.400,0.210
7871802,-0.997,0.106,0.222,-0.560,-1.540,0.210
7871822,-0.996,0.105,0.220,-0.210,-1.610,0.280
7871841,-0.998,0.103,0.221,-0.070,-1.820,0.210
7871857,-0.997,0.103,0.223,-0.070,-1.960,0.350
7871881,-0.997,0.106,0.221,-0.280,-2.030,0.420
7871902,-0.998,0.104,0.223,-0.140,-2.030,0.560
7871922,-0.997,0.103,0.221,-0.070,-2.310,0.700
7871946,-0.999,0.105,0.219,-0.210,-2.380,0.910
7871966,-0.997,0.105,0.220,-0.140,-2.450,0.980
7871983,-0.994,0.106,0.222,0.070,-2.590,0.840
7872007,-0.998,0.104,0.226,-0.070,-2.590,0.840
7872027,-0.995,0.106,0.224,-0.140,-2.380,0.700
7872047,-0.996,0.107,0.224,-0.420,-2.450,0.560
7872064,-0.996,0.105,0.225,-0.140,-2.310,0.560
7872086,-0.996,0.108,0.223,-0.210,-2.240,0.560
7872110,-0.998,0.103,0.222,-0.070,-2.030,0.420
7872129,-0.998,0.102,0.224,-0.210,-2.030,0.350
7872149,-0.998,0.103,0.221,-0.280,-1.960,0.490
7872172,-0.996,0.103,0.221,-0.420,-1.960,0.490
7872193,-0.997,0.101,0.222,-0.280,-2.100,0.700
7872213,-0.999,0.097,0.223,0.070,-2.310,0.980
7872233,-0.998,0.102,0.224,-0.140,-2.170,1.260
7872251,-0.998,0.102,0.221,-0.070,-2.450,1.330
7872273,-0.997,0.103,0.222,-0.070,-2.520,1.260
7872297,-0.997,0.101,0.224,0.140,-2.380,1.050
7872317,-0.995,0.103,0.223,0.070,-2.100,0.910
7872335,-0.998,0.105,0.225,0.140,-2.100,0.840
7872356,-0.998,0.100,0.223,-0.070,-1.890,0.700
7872376,-0.998,0.101,0.226,-0.210,-1.820,0.700
7872400,-0.999,0.100,0.222,-0.490,-1.750,0.840
7872420,-0.997,0.102,0.221,-0.490,-1.890,0.840
7872439,-0.997,0.099,0.221,-0.280,-2.240,1.120
7872458,-0.999,0.101,0.217,-0.140,-2.590,1.400
7872482,-1.000,0.100,0.220,-0.070,-2.800,1.750
7872502,-1.000,0.101,0.219,0.210,-3.150,1.890
7872526,-0.999,0.103,0.218,0.350,-3.920,2.170
7872546,-0.995,0.105,0.225,0.490,-3.850,2.450
7872565,-0.995,0.103,0.223,0.350,-3.990,2.660
7872585,-0.996,0.102,0.227,0.350,-3.990,2.870
7872608,-0.999,0.104,0.228,0.560,-4.060,3.010
7872628,-0.996,0.103,0.227,0.700,-3.780,2.870
7872648,-0.991,0.107,0.228,0.560,-3.430,2.450
7872667,-0.997,0.106,0.231,0.350,-3.150,2.450
7872692,-0.992,0.106,0.229,0.070,-2.660,2.520
7872712,-0.993,0.109,0.228,-0.280,-2.380,2.450
7872731,-0.996,0.107,0.229,-0.070,-2.380,2.590
7872750,-0.993,0.107,0.229,0.070,-2.170,2.590
7872774,-0.996,0.106,0.228,0.000,-2.240,2.660
7872794,-0.997,0.109,0.227,0.000,-1.960,2.450
7872812,-0.996,0.110,0.225,-0.140,-1.820,2.030
7872834,-0.994,0.113,0.229,-0.350,-1.540,1.680
7872852,-0.993,0.115,0.229,-0.700,-0.980,1.470
7872876,-0.986,0.112,0.230,-0.980,-0.140,1.190
7872896,-0.992,0.114,0.229,-1.750,0.140,0.910
7872914,-0.993,0.112,0.227,-1.820,0.350,0.560
7872933,-0.994,0.113,0.228,-2.170,1.120,0.280
7872958,-0.998,0.107,0.224,-2.450,0.840,0.490
7872977,-0.998,0.110,0.221,-2.310,1.330,0.350
7873000,-0.997,0.107,0.217,-2.660,0.700,0.280
7873021,-1.001,0.106,0.216,-2.170,0.630,0.280
7873045,-0.997,0.106,0.216,-1.960,0.420,0.280
7873065,-0.998,0.105,0.214,-1.610,0.140,0.280
7873084,-1.000,0.107,0.215,-1.330,-0.070,0.210
7873105,-0.999,0.108,0.213,-1.190,-0.490,0.070
7873125,-1.001,0.102,0.213,-0.280,-0.630,0.000
7873145,-0.996,0.103,0.215,0.070,-0.700,0.070
7873164,-0.998,0.107,0.218,-0.210,-0.630,-0.070
7873184,-0.997,0.104,0.212,-0.350,-0.490,-0.280
7873208,-0.997,0.104,0.210,0.140,-0.560,-0.210
7873226,-1.002,0.100,0.210,-0.070,-0.770,-0.140
7873246,-1.000,0.103,0.209,0.140,-0.980,0.140
7873268,-1.000,0.101,0.212,0.210,-1.540,0.280
7873287,-0.998,0.102,0.208,-0.140,-1.610,0.420
7873312,-0.999,0.103,0.211,-0.280,-1.890,0.630
7873330,-0.997,0.100,0.211,-0.210,-1.750,0.490
7873352,-0.998,0.104,0.214,-0.350,-1.610,0.560
7873372,-0.997,0.103,0.209,-0.700,-1.400,0.420
7873392,-0.997,0.102,0.209,-1.120,-1.190,0.350
7873416,-0.998,0.101,0.209,-0.770,-1.260,0.350
7873436,-1.001,0.101,0.210,-0.840,-1.260,0.350
7873456,-0.997,0.100,0.213,-1.260,-1.400,0.700
7873480,-1.005,0.096,0.205,-0.980,-1.330,0.630
7873500,-1.003,0.097,0.207,-0.910,-1.400,0.910
7873524,-1.000,0.097,0.205,-0.420,-1.680,1.330
7873544,-1.000,0.099,0.208,-0.350,-1.820,1.470
7873562,-1.002,0.099,0.207,-0.280,-1.890,1.540
7873584,-1.000,0.098,0.207,0.000,-2.030,1.610
7873608,-0.999,0.099,0.206,17.850,-2.100,1.680
7873628,-0.998,0.101,0.207,0.140,-2.030,1.750
7873648,-0.999,0.098,0.206,0.280,-2.170,1.890
7873665,-1.003,0.098,0.205,0.280,-2.450,2.100
7873685,-1.002,0.099,0.204,0.280,-2.450,2.170
7873705,-1.001,0.102,0.206,0.420,-2.660,2.170
7873729,-1.001,0.100,0.206,0.210,-2.660,2.380
7873747,-1.000,0.102,0.207,0.420,-2.800,2.450
7873767,-1.000,0.103,0.207,0.420,-2.800,2.380
7873791,-1.001,0.102,0.207,0.420,-3.010,2.450
7873811,-0.999,0.104,0.207,0.420,-3.080,2.450
7873829,-1.000,0.104,0.209,0.420,-3.290,2.450
7873851,-1.000,0.102,0.210,0.490,-3.150,2.520
7873871,-1.000,0.105,0.208,0.630,-3.360,2.380
7873895,-0.998,0.107,0.208,0.420,-3.430,2.310
7873915,-1.002,0.104,0.210,0.350,-3.430,2.380
7873933,-1.000,0.106,0.210,0.630,-3.500,2.380
7873952,-0.997,0.106,0.212,0.630,-3.500,2.240
7873977,-0.998,0.110,0.211,0.210,-3.220,2.100
7874001,-0.996,0.108,0.214,0.350,-3.220,1.960
7874021,-0.999,0.108,0.212,0.490,-3.290,1.890
7874041,-0.999,0.109,0.213,-0.140,-3.290,1.750
7874059,-0.996,0.109,0.212,-0.070,-3.150,1.890
7874081,-0.995,0.111,0.214,-0.280,-3.080,1.470
7874105,-0.999,0.111,0.216,-0.070,-3.150,1.260
7874125,-0.993,0.109,0.212,-0.210,-3.010,1.120
7874144,-1.001,0.108,0.211,0.000,-3.360,1.050
7874168,-0.999,0.111,0.213,-0.140,-3.430,1.050
7874188,-0.997,0.109,0.213,0.070,-3.360,0.840
7874206,-1.000,0.107,0.217,0.210,-3.500,0.840
7874228,-0.999,0.105,0.216,0.280,-3.360,0.910
7874247,-0.998,0.106,0.214,0.280,-3.500,0.910
7874267,-0.998,0.106,0.218,0.490,-3.500,0.980
7874291,-0.998,0.107,0.218,0.490,-3.640,1.120
7874309,-0.994,0.111,0.219,0.770,-3.500,0.840
7874330,-0.998,0.109,0.218,0.770,-3.710,0.770
7874354,-0.997,0.106,0.219,0.910,-3.920,1.260
7874372,-0.996,0.105,0.221,0.840,-3.430,1.470
7874393,-0.998,0.110,0.227,0.700,-3.290,1.540
7874417,-0.992,0.114,0.222,0.210,-2.800,1.050
7874437,-0.996,0.110,0.217,0.420,-3.150,1.190
7874457,-0.999,0.107,0.224,0.840,-3.430,1.470
7874474,-0.991,0.115,0.224,-0.140,-2.730,1.260
7874498,-0.997,0.113,0.225,-0.350,-2.310,1.260
7874517,-0.994,0.111,0.222,-0.210,-2.100,1.050
7874541,-0.997,0.108,0.222,-0.070,-2.170,1.190
7874559,-0.995,0.112,0.219,-0.420,-1.890,1.400
7874579,-0.997,0.112,0.223,-0.840,-1.750,1.400
7874598,-0.998,0.111,0.221,-1.260,-1.470,1.400
7874623,-0.997,0.109,0.218,-0.980,-1.610,1.330
7874642,-0.996,0.108,0.221,-0.280,-1.960,1.190
7874666,-0.997,0.107,0.219,-0.350,-1.890,0.980
7874684,-0.997,0.109,0.219,-0.560,-1.610,0.980
7874706,-0.996,0.107,0.217,-0.980,-1.610,0.980
7874729,-0.998,0.104,0.214,-0.700,-2.030,1.260
7874749,-0.997,0.109,0.221,-0.280,-2.310,1.330
7874773,-0.996,0.111,0.218,-0.280,-2.310,1.120
7874793,-0.997,0.107,0.218,-0.070,-2.380,1.050
7874812,-0.998,0.109,0.220,-0.070,-2.450,1.190
7874830,-0.996,0.109,0.218,-0.280,-2.170,1.190
7874853,-0.996,0.110,0.221,-0.490,-2.240,1.120
7874873,-0.998,0.108,0.222,-0.350,-2.450,1.120
7874892,-0.996,0.111,0.219,-0.350,-2.380,0.840
7874912,-0.997,0.110,0.219,-0.210,-2.380,0.630
7874934,-0.996,0.109,0.218,0.070,-2.380,0.420
7874954,-0.997,0.109,0.220,-0.070,-2.380,0.280
7874975,-0.995,0.106,0.220,0.070,-2.660,0.140
7874995,-0.998,0.105,0.217,0.000,-2.730,0.350
7875018,-0.996,0.108,0.220,0.210,-2.870,0.280
7875035,-0.996,0.106,0.218,0.140,-2.940,0.280
7875058,-0.997,0.107,0.222,0.350,-2.870,0.420
7875077,-0.997,0.107,0.223,0.350,-2.800,0.420
7875100,-0.996,0.102,0.219,-0.140,-2.940,0.630
7875119,-0.996,0.104,0.220,-0.070,-3.010,1.050
7875138,-0.998,0.104,0.225,0.140,-2.730,1.120
7875158,-0.996,0.105,0.223,-0.070,-2.940,1.190
7875178,-0.996,0.107,0.222,0.140,-2.870,1.330
7875203,-0.996,0.108,0.219,0.140,-3.080,1.330
7875223,-0.999,0.105,0.221,0.140,-3.010,0.980
7875238,-0.997,0.109,0.223,0.280,-3.080,0.840
7875263,-0.995,0.108,0.225,0.350,-3.010,0.700
7875282,-0.996,0.108,0.223,0.140,-2.800,0.630
7875303,-0.995,0.106,0.224,0.000,-2.590,0.770
7875319,-0.996,0.105,0.221,0.140,-2.590,0.840
7875340,-0.997,0.105,0.221,0.210,-2.870,0.980
7875363,-0.996,0.104,0.224,0.350,-2.590,0.980
7875382,-0.994,0.106,0.225,0.280,-2.590,1.190
7875404,-0.996,0.106,0.224,0.140,-2.310,1.190
7875427,-0.996,0.109,0.223,0.140,-2.240,1.330
7875448,-0.996,0.107,0.225,-0.070,-2.170,1.400
7875466,-0.996,0.106,0.228,-0.070,-2.100,1.470
7875486,-0.996,0.107,0.222,-0.140,-2.100,1.470
7875506,-0.996,0.108,0.221,-0.490,-2.170,1.680
7875526,-0.999,0.105,0.223,-0.140,-2.450,1.820
7875548,-0.998,0.103,0.221,-0.070,-2.730,1.960
7875572,-0.999,0.108,0.219,-0.280,-3.010,2.240
7875591,-0.998,0.105,0.223,-0.070,-3.570,2.240
7875612,-0.995,0.104,0.222,0.210,-3.710,2.030
7875632,-0.996,0.111,0.224,0.350,-4.060,2.030
7875652,-0.996,0.108,0.227,0.700,-3.990,2.100
7875676,-0.995,0.109,0.229,0.490,-3.780,1.960
7875696,-0.995,0.111,0.229,0.560,-3.780,1.680
7875716,-1.005,0.110,0.230,0.560,-4.480,1.610
7875736,-1.001,0.114,0.228,0.700,-3.360,1.610
7875755,-0.993,0.110,0.229,0.700,-3.010,1.470
7875779,-0.990,0.114,0.229,0.560,-3.010,1.470
7875799,-0.993,0.111,0.230,0.280,-2.730,1.610
7875819,-0.994,0.112,0.232,0.140,-2.450,1.540
7875839,-0.992,0.114,0.232,0.000,-2.170,1.330
7875856,-0.993,0.116,0.232,-0.070,-1.960,1.330
7875880,-0.993,0.113,0.235,-0.210,-1.470,0.980
7875900,-0.992,0.113,0.233,-0.700,-1.050,0.910
7875919,-0.995,0.110,0.231,-0.980,-0.700,0.770
7875936,-0.992,0.113,0.231,-1.120,-0.210,0.420
7875960,-0.994,0.109,0.227,-1.610,-0.070,0.280
7875980,-0.995,0.113,0.227,-1.890,0.140,0.280
7876004,-0.994,0.111,0.227,-1.540,0.350,0.280
7876024,-0.995,0.109,0.224,-1.610,0.350,0.280
7876043,-0.995,0.106,0.221,-1.960,0.350,0.350
7876067,-1.001,0.103,0.222,-2.100,0.490,0.280
7876087,-0.994,0.106,0.218,-1.890,0.560,0.210
7876106,-1.003,0.107,0.216,-2.030,0.070,0.140
7876123,-0.995,0.103,0.217,-1.050,-0.070,0.000
7876143,-0.999,0.106,0.218,-0.560,-0.280,0.070
7876167,-1.000,0.104,0.215,-0.490,-0.490,0.280
7876187,-1.001,0.111,0.218,-0.700,-0.630,0.140
7876206,-1.000,0.101,0.217,-0.700,-0.420,0.560
7876225,-0.998,0.106,0.215,-0.840,-0.420,0.630
7876243,-0.998,0.105,0.216,-0.910,-0.700,0.420
7876265,-0.999,0.105,0.216,-0.560,-0.630,0.280
7876289,-0.997,0.107,0.215,-1.050,-0.630,0.350
7876309,-1.002,0.105,0.215,-0.700,-0.490,0.210
7876333,-0.996,0.105,0.210,-1.120,-0.140,-0.210
7876351,-1.003,0.103,0.211,-1.260,-0.630,-0.140
7876371,-1.003,0.098,0.209,-0.700,-0.770,-0.070
7876390,-0.997,0.101,0.207,-0.420,-1.050,0.280
7876412,-1.000,0.100,0.207,-0.420,-1.750,0.560
7876434,-1.001,0.103,0.209,-0.420,-1.750,0.770
7876455,-0.997,0.100,0.211,-0.490,-1.820,0.700
7876475,-1.000,0.103,0.210,-0.140,-1.960,0.490
7876499,-0.999,0.102,0.210,-0.140,-1.890,0.140
7876519,-0.998,0.102,0.213,-0.210,-1.890,0.000
7876537,-1.001,0.101,0.211,-0.140,-1.960,0.000
7876559,-0.998,0.099,0.212,-0.350,-1.610,-0.140
7876582,-0.999,0.098,0.211,-0.420,-1.820,-0.140
7876601,-1.001,0.098,0.207,0.000,-2.100,0.210
7876621,-1.003,0.095,0.209,0.280,-2.520,0.420
7876645,-1.001,0.098,0.210,0.350,-2.800,0.910
7876665,-0.999,0.097,0.205,0.490,-2.940,1.260
7876683,-1.000,0.099,0.211,0.420,-2.800,1.330
7876705,-0.998,0.097,0.213,0.490,-2.590,1.470
7876724,-0.998,0.102,0.212,0.420,-2.730,1.400
7876743,-0.999,0.101,0.215,0.280,-2.450,1.330
7876765,-0.999,0.100,0.209,0.140,-2.310,1.120
7876783,-1.000,0.095,0.209,0.140,-2.310,1.120
7876803,-0.999,0.097,0.210,0.280,-2.170,1.260
7876826,-1.000,0.099,0.213,0.210,-2.310,1.330
7876845,-0.999,0.102,0.213,0.140,-2.100,1.190
7876865,-1.001,0.097,0.210,0.000,-2.030,1.190
7876890,-0.875,0.100,0.210,0.000,-2.170,1.190
7876908,-1.003,0.099,0.209,0.280,-2.380,1.120
7876930,-1.001,0.099,0.214,0.140,-2.380,1.050
7876954,-0.998,0.099,0.211,-0.210,-2.380,0.840
7876974,-1.000,0.099,0.210,-0.210,-2.450,0.840
7876993,-1.000,0.096,0.211,0.140,-2.520,0.840
7877014,-1.001,0.100,0.209,-0.070,-2.450,0.840
7877033,-1.000,0.099,0.208,0.140,-2.590,0.840
7877053,-0.998,0.098,0.211,0.070,-2.450,0.770
7877074,-1.000,0.097,0.210,0.000,-2.590,0.700
7877091,-1.001,0.102,0.214,0.000,-2.590,0.770
7877115,-1.002,0.101,0.212,-0.070,-2.800,0.770
7877135,-1.124,0.096,0.210,0.210,-2.870,0.980
7877155,-1.003,0.094,0.212,0.700,-3.220,1.120
7877174,-0.999,0.098,0.214,0.350,-3.290,1.540
7877198,-0.995,0.103,0.213,-0.210,-3.150,1.470
7877218,-1.004,0.095,0.215,-0.280,-3.360,1.750
7877236,-0.995,0.103,0.212,-0.280,-3.290,1.820
7877260,-1.003,0.096,0.213,-0.140,-3.640,1.820
7877279,-1.000,0.106,0.214,0.070,-3.640,1.610
7877298,-0.996,0.102,0.214,-0.140,-3.500,1.400
7877322,-1.004,0.102,0.213,-0.070,-4.060,1.610
7877342,-1.002,0.098,0.215,0.770,-4.060,1.750
7877362,-0.995,0.101,0.214,0.910,-4.130,1.820
7877382,-0.998,0.099,0.219,0.700,-4.200,1.820
7877401,-0.999,0.097,0.221,0.700,-3.990,2.100
7877426,-0.992,0.103,0.219,0.560,-3.710,2.170
7877441,-0.999,0.105,0.219,0.700,-4.200,1.960
7877466,-0.996,0.105,0.216,1.120,-4.060,1.540
7877484,-0.998,0.099,0.216,1.330,-4.340,1.610
7877505,-1.003,0.100,0.222,1.050,-4.480,1.890
7877527,-0.996,0.109,0.227,1.260,-4.270,1.750
7877547,-0.994,0.110,0.225,1.120,-3.500,1.260
7877568,-0.998,0.102,0.227,0.490,-3.360,1.400
7877592,-1.000,0.108,0.227,0.700,-3.430,1.120
7877612,-0.992,0.106,0.226,0.560,-2.660,0.910
7877632,-0.993,0.104,0.228,-0.280,-2.450,0.630
7877652,-0.995,0.101,0.223,-0.490,-2.100,0.490
7877672,-0.997,0.104,0.225,-0.840,-1.960,0.350
7877691,-0.999,0.102,0.224,-0.420,-1.960,0.280
7877710,-0.996,0.105,0.226,-0.700,-1.750,0.210
7877732,-0.994,0.107,0.224,-0.840,-1.400,-0.210
7877752,-0.997,0.100,0.224,-1.190,-1.330,-0.210
7877773,-0.999,0.098,0.222,-0.840,-1.400,-0.140
7877792,-0.999,0.099,0.222,-0.490,-1.680,-0.140
7877809,-0.993,0.096,0.222,-0.350,-1.750,-0.070
7877832,-0.998,0.100,0.224,0.000,-1.750,-0.070
7877853,-0.998,0.099,0.221,-0.070,-1.610,-0.070
7877869,-0.999,0.101,0.223,-0.490,-1.680,-0.070
7877894,-0.998,0.097,0.223,-0.490,-1.610,0.000
7877913,-0.998,0.098,0.221,-0.630,-1.400,0.000
7877928,-0.996,0.096,0.222,-0.770,-1.470,0.000
7877953,-0.996,0.097,0.218,-0.700,-1.400,0.070
7877977,-0.994,0.093,0.220,-0.840,-1.400,0.280
7877997,-0.997,0.094,0.221,-0.840,-1.470,0.140
7878017,-1.000,0.098,0.218,-0.980,-1.610,0.140
7878037,-0.996,0.091,0.217,-0.700,-1.680,0.280
7878057,-0.999,0.092,0.214,-0.210,-2.310,0.210
7878075,-1.005,0.091,0.218,0.070,-2.590,0.560
7878094,-0.875,0.090,0.217,0.350,-2.870,0.700
7878114,-1.001,0.091,0.219,0.630,-3.220,0.700
7878139,-0.998,0.095,0.221,0.770,-3.290,0.770
7878157,-0.998,0.095,0.222,1.050,-3.080,0.840
7878178,-0.998,0.095,0.223,0.560,-3.080,0.840
7878198,-0.996,0.095,0.225,0.490,-2.870,0.840
7878222,-0.997,0.096,0.225,-0.210,-2.730,0.840
7878240,-0.997,0.092,0.223,-0.210,-2.030,0.840
7878259,-0.996,0.094,0.224,-0.560,-2.030,0.770
7878279,-0.999,0.095,0.223,-0.560,-1.960,0.980
7878303,-0.999,0.090,0.222,-0.350,-1.960,0.910
7878327,-0.999,0.091,0.220,-0.560,-2.030,1.260
7878346,-0.996,0.093,0.222,-0.560,-1.820,1.190
7878370,-0.999,0.097,0.220,-0.630,-1.750,1.120
7878388,-1.000,0.094,0.222,-0.420,-1.960,0.980
7878407,-0.997,0.091,0.221,-0.280,-1.960,1.050
7878429,-0.999,0.093,0.220,-0.070,-2.030,0.980
7878448,-0.996,0.094,0.219,-0.140,-2.100,1.050
7878473,-0.998,0.091,0.219,-0.350,-2.240,1.190
7878492,-0.999,0.090,0.218,-0.210,-2.520,1.400
7878513,-1.000,0.092,0.220,0.140,-2.730,1.680
7878532,-0.998,0.094,0.220,-0.210,-2.660,1.750
7878557,-0.997,0.091,0.219,-0.070,-2.870,1.960
7878576,-0.999,0.087,0.220,0.210,-3.360,2.100
7878600,-0.998,0.096,0.221,0.210,-3.500,2.170
7878619,-0.996,0.093,0.222,0.280,-3.570,2.240
7878643,-0.997,0.093,0.220,0.350,-3.780,2.450
7878659,-0.997,0.094,0.224,0.560,-3.850,2.380
7878683,-0.997,0.095,0.227,0.560,-3.710,2.240
7878704,-0.996,0.096,0.222,0.210,-3.710,2.240
7878723,-0.998,0.098,0.227,0.420,-3.430,2.170
7878739,-0.996,0.099,0.227,0.350,-3.570,2.100
7878762,-0.996,0.099,0.228,0.140,-3.150,1.820
7878783,-0.996,0.101,0.227,0.070,-2.870,1.750
7878802,-0.997,0.100,0.227,0.000,-2.450,1.750
7878825,-0.996,0.101,0.227,0.000,-2.240,1.400
7878849,-0.997,0.100,0.225,-0.210,-2.100,1.120
7878869,-0.994,0.101,0.227,-0.350,-1.820,0.980
7878887,-0.995,0.099,0.226,-0.350,-1.820,0.840
7878911,-0.998,0.096,0.226,-0.210,-1.610,0.910
7878927,-0.995,0.095,0.226,-0.210,-1.400,0.560
7878951,-0.995,0.100,0.228,-0.630,-1.470,0.910
7878970,-0.999,0.097,0.226,-0.350,-1.120,1.050
7878989,-0.995,0.103,0.227,-0.630,-0.770,0.980
7879012,-0.996,0.097,0.222,-1.330,-0.280,0.980
7879032,-0.997,0.096,0.223,-1.400,-0.210,0.840
7879056,-0.996,0.098,0.221,-0.910,-0.350,0.770
7879076,-0.996,0.100,0.222,-0.840,-0.070,0.630
7879096,-0.998,0.096,0.221,-0.770,-0.210,0.910
7879116,-0.996,0.106,0.224,-1.050,0.140,0.770
7879136,-0.997,0.097,0.219,-1.050,0.140,0.770
7879160,-0.875,0.088,0.214,-1.330,0.000,0.630
7879180,-1.000,0.098,0.217,-0.350,-0.280,0.490
7879200,-0.998,0.100,0.216,-0.140,-0.210,0.350
7879220,-1.000,0.101,0.216,-0.840,-0.140,0.140
7879244,-0.996,0.098,0.211,-0.840,-0.070,0.000
7879264,-1.000,0.091,0.212,-0.700,-0.560,-0.070
7879282,-1.003,0.094,0.214,-0.490,-0.700,-0.070
7879304,-0.999,0.092,0.208,-0.420,-0.700,-0.140
7879328,-1.000,0.094,0.209,-0.280,-1.190,0.140
7879348,-1.001,0.090,0.213,-0.210,-1.190,0.210
7879368,-1.124,0.092,0.211,-0.280,-1.330,0.280
7879386,-1.000,0.092,0.209,-0.210,-1.190,0.420
7879408,-1.001,0.090,0.211,-0.140,-1.470,0.560
7879432,-1.001,0.090,0.210,-0.140,-1.470,0.700
7879450,-1.000,0.090,0.210,-0.280,-1.540,0.840
7879467,-0.999,0.090,0.208,-0.420,-1.820,0.980
7879492,-0.997,0.091,0.208,-0.210,-1.960,1.400
7879509,-0.997,0.092,0.211,-0.350,-2.170,1.470
7879529,-1.000,0.091,0.208,-0.490,-1.890,1.540
7879552,-1.000,0.092,0.211,-0.420,-1.820,1.470
7879573,-0.999,0.094,0.213,-0.280,-1.750,1.260
7879593,-1.002,0.090,0.211,-0.070,-2.030,1.330
7879613,-1.002,0.092,0.210,-0.140,-2.100,1.260
7879631,-1.001,0.089,0.207,0.000,-2.310,1.400
7879650,-1.003,0.093,0.208,0.140,-2.450,1.540
7879669,-1.002,0.090,0.207,0.280,-2.940,1.680
7879694,-1.000,0.091,0.208,0.560,-3.220,2.100
7879713,-1.004,0.092,0.209,0.630,-3.500,2.170
7879731,-1.001,0.094,0.210,0.630,-3.430,2.030
7879750,-0.999,0.092,0.214,0.560,-3.430,1.960
7879775,-0.999,0.096,0.212,0.560,-3.360,1.820
7879795,-1.000,0.095,0.214,0.560,-3.360,1.750
7879814,-0.999,0.097,0.215,0.560,-3.220,1.610
7879832,-0.875,0.096,0.215,0.280,-3.080,1.680
7879855,-0.998,0.096,0.213,0.210,-3.010,1.470
7879873,-0.998,0.095,0.214,0.000,-2.870,1.400
7879893,-0.997,0.096,0.215,0.070,-2.870,1.400
7879917,-0.998,0.095,0.215,0.000,-2.940,1.470
7879935,-0.999,0.097,0.216,-0.070,-2.800,1.330
7879959,-1.000,0.095,0.214,-0.350,-2.660,1.260
7879979,-0.998,0.096,0.215,0.070,-3.080,1.470
7879998,-0.999,0.094,0.217,0.210,-3.010,1.610
7880018,-0.997,0.093,0.215,0.070,-3.080,1.750
7880042,-0.997,0.095,0.216,0.070,-3.150,1.960
7880062,-0.997,0.097,0.215,-0.070,-3.010,1.750
7880082,-1.001,0.097,0.217,-0.210,-3.150,1.750
7880102,-0.997,0.099,0.219,0.140,-2.870,1.540
7880120,-0.996,0.101,0.216,-0.280,-2.800,1.400
7880144,-0.998,0.099,0.218,-0.210,-2.730,1.470
7880160,-1.000,0.096,0.221,-0.210,-2.660,1.330
7880184,-0.998,0.100,0.216,-0.140,-2.660,1.190
7880204,-0.996,0.097,0.217,-0.140,-2.870,1.330
7880224,-1.001,0.095,0.219,-0.070,-2.940,1.540
7880243,-0.996,0.100,0.217,-0.490,-2.660,1.330
7880263,-1.004,0.095,0.218,-0.350,-2.940,1.400
7880287,-0.998,0.096,0.219,0.210,-3.290,1.470
7880307,-1.003,0.104,0.216,0.280,-3.640,1.190
7880327,-1.123,0.102,0.220,0.070,-3.150,0.980
7880342,-0.996,0.098,0.215,-0.140,-3.220,0.770
7880367,-1.001,0.098,0.217,0.420,-3.360,0.630
7880387,-0.998,0.097,0.221,0.770,-3.010,0.700
7880403,-0.998,0.097,0.222,0.560,-3.220,0.840
7880427,-0.998,0.098,0.218,0.840,-3.290,0.560
7880446,-0.997,0.097,0.220,0.910,-3.850,0.980
7880466,-1.001,0.093,0.221,1.400,-3.640,1.400
7880490,-0.999,0.096,0.223,1.470,-3.850,1.540
7880509,-1.121,0.102,0.220,0.210,-4.060,1.400
7880530,-0.996,0.096,0.224,0.630,-3.360,1.540
7880550,-0.995,0.099,0.225,0.770,-3.500,1.610
7880570,-0.999,0.095,0.223,0.280,-3.780,1.820
7880589,-0.997,0.101,0.223,0.630,-3.150,1.470
7880614,-0.994,0.110,0.228,-17.920,-2.730,1.330
7880633,-0.998,0.093,0.225,0.490,-3.080,1.330
7880653,-0.997,0.096,0.225,0.350,-2.870,1.470
7880672,-0.996,0.102,0.226,0.140,-2.660,1.260
7880697,-0.996,0.099,0.226,-0.140,-2.380,0.910
7880715,-0.997,0.099,0.228,-0.140,-2.100,0.840
7880737,-0.996,0.097,0.227,-0.210,-1.960,0.630
7880761,-0.995,0.101,0.226,-0.140,-1.960,0.420
7880776,-0.997,0.099,0.225,-0.420,-1.680,0.350
7880800,-1.000,0.099,0.224,-0.280,-1.890,0.420
7880821,-0.997,0.094,0.223,-0.280,-1.750,0.280
7880841,-0.996,0.097,0.223,-0.420,-1.820,0.210
7880858,-0.999,0.098,0.224,-0.490,-2.030,0.140
7880878,-0.996,0.095,0.223,-0.280,-1.750,0.140
7880902,-0.998,0.093,0.222,-0.280,-2.240,0.420
7880922,-0.997,0.095,0.220,0.000,-2.590,0.490
7880941,-0.997,0.098,0.225,0.000,-2.450,0.490
7880964,-0.996,0.096,0.224,-0.070,-2.520,0.560
7880982,-0.996,0.096,0.226,-0.140,-2.800,0.420
7881004,-1.002,0.094,0.224,0.140,-3.080,0.700
7881026,-1.000,0.091,0.223,0.210,-3.080,0.980
7881043,-0.996,0.095,0.222,0.350,-3.150,1.260
7881067,-1.002,0.110,0.230,-0.490,-3.710,1.050
7881087,-1.000,0.091,0.224,1.470,-3.710,1.400
7881107,-0.995,0.093,0.224,0.280,-3.710,1.540
7881127,-0.997,0.097,0.228,0.490,-4.130,1.540
7881142,-0.998,0.095,0.229,0.910,-3.990,1.610
7881167,-0.995,0.099,0.231,0.280,-3.710,1.680
7881187,-0.994,0.092,0.230,0.420,-3.640,1.610
7881205,-0.996,0.099,0.229,0.210,-3.780,1.470
7881227,-0.996,0.098,0.233,-0.070,-3.220,1.400
7881250,-0.993,0.099,0.231,-0.070,-2.660,1.260
7881274,-0.996,0.099,0.232,-0.280,-2.310,0.980
7881293,-0.994,0.097,0.231,-0.630,-2.030,0.980
7881317,-0.996,0.096,0.231,-0.560,-1.890,1.120
7881337,-0.996,0.100,0.229,-0.770,-1.610,1.050
7881355,-0.999,0.094,0.226,-0.420,-1.890,1.330
7881372,-0.998,0.094,0.228,-0.140,-1.960,1.540
7881397,-0.996,0.101,0.227,-0.140,-2.030,1.540
7881421,-0.998,0.100,0.227,-0.140,-2.100,1.400
7881441,-0.996,0.097,0.229,0.000,-2.170,1.330
7881459,-0.996,0.097,0.228,-0.070,-2.170,1.260
7881479,-0.997,0.095,0.228,-0.070,-2.310,1.330
7881503,-0.996,0.098,0.228,-0.140,-2.170,1.400
7881523,-0.996,0.097,0.226,0.000,-2.310,1.610
7881546,-0.999,0.095,0.231,0.280,-2.450,1.750
7881570,-0.996,0.098,0.231,0.280,-2.590,1.680
7881590,-0.996,0.099,0.228,0.140,-2.380,1.540
7881614,-0.996,0.096,0.231,0.350,-2.450,1.750
7881634,-0.994,0.100,0.229,0.070,-2.310,1.610
7881654,-0.996,0.099,0.228,-0.280,-2.310,1.540
7881674,-0.994,0.102,0.230,-0.140,-2.240,1.540
7881694,-0.996,0.100,0.229,-0.210,-2.170,1.330
7881713,-0.996,0.098,0.231,-0.280,-2.030,1.330
7881737,-0.998,0.096,0.230,-0.140,-2.170,1.330
7881756,-0.995,0.101,0.230,-0.140,-2.100,1.330
7881777,-0.996,0.100,0.229,-0.210,-2.240,1.330
7881800,-0.998,0.098,0.230,-0.140,-2.310,1.470
7881821,-0.995,0.100,0.228,-0.070,-2.240,1.400
7881836,-0.996,0.100,0.229,0.000,-2.170,1.400
7881856,-0.995,0.100,0.229,0.000,-2.240,1.470
7881880,-0.996,0.099,0.229,0.000,-2.310,1.470
7881901,-0.997,0.101,0.229,-0.140,-2.380,1.330
7881921,-0.996,0.102,0.229,-0.280,-2.170,1.190
7881945,-0.995,0.103,0.229,-0.490,-2.100,1.120
7881962,-0.998,0.101,0.230,-0.490,-2.100,1.050
7881982,-0.996,0.101,0.229,-0.490,-2.030,0.840
7882002,-0.996,0.100,0.227,-0.140,-2.170,0.700
7882022,-0.997,0.100,0.228,-0.350,-2.310,0.770
7882046,-0.995,0.101,0.228,-0.210,-2.240,0.980
7882066,-0.994,0.101,0.228,-0.350,-2.240,0.840
7882081,-0.997,0.099,0.229,-0.420,-2.030,0.980
7882106,-0.998,0.100,0.228,-0.280,-2.100,0.910
7882126,-0.996,0.102,0.226,-0.420,-2.240,0.840
7882143,-0.996,0.100,0.228,-0.280,-2.100,0.770
7882162,-0.997,0.101,0.229,-0.420,-2.100,0.630
7882187,-0.995,0.098,0.230,-0.490,-2.030,0.770
7882207,-0.997,0.099,0.230,-0.420,-2.100,0.770
7882226,-0.998,0.097,0.227,-0.140,-2.380,0.770
7882250,-0.997,0.098,0.227,-0.210,-2.240,0.630
7882267,-0.996,0.100,0.230,-0.070,-2.170,0.560
7882286,-0.996,0.095,0.229,-0.210,-2.170,0.560
7882311,-0.999,0.096,0.228,0.070,-2.170,0.630
7882329,-0.996,0.097,0.232,0.000,-1.820,0.630
7882350,-0.996,0.099,0.227,-0.210,-1.820,0.560
7882374,-0.995,0.096,0.227,-0.070,-1.960,0.560
7882389,-0.995,0.096,0.227,-0.070,-1.680,0.490
7882414,-0.996,0.098,0.229,-0.280,-1.680,0.420
7882432,-0.995,0.097,0.230,-0.210,-1.540,0.560
7882454,-0.994,0.098,0.228,-0.560,-1.330,0.350
7882473,-0.996,0.095,0.226,-0.770,-1.050,0.420
7882491,-0.996,0.096,0.229,-0.630,-0.980,0.560
7882513,-0.995,0.093,0.223,-0.840,-0.840,0.560
7882533,-0.998,0.094,0.222,-0.910,-0.910,0.630
7882552,-0.997,0.092,0.226,-0.770,-0.770,0.840
7882577,-0.995,0.093,0.225,-0.700,-0.980,0.910
7882597,-0.999,0.093,0.223,-0.560,-0.980,1.120
7882615,-0.998,0.094,0.224,-0.490,-1.050,1.190
7882637,-0.997,0.095,0.223,-0.280,-1.120,1.260
7882656,-0.998,0.094,0.223,-0.280,-1.260,1.470
7882674,-0.999,0.093,0.222,-0.140,-1.470,1.540
7882693,-0.996,0.097,0.221,-0.140,-1.330,1.540
7882718,-0.998,0.097,0.222,-0.280,-1.330,1.470
7882738,-0.999,0.094,0.220,-0.350,-1.260,1.540
7882758,-1.000,0.096,0.221,-0.280,-1.470,1.470
7882777,-1.000,0.095,0.219,-0.210,-1.400,1.540
7882798,-0.997,0.095,0.219,-0.280,-1.400,1.400
7882816,-0.999,0.096,0.219,-0.280,-1.470,1.190
7882835,-0.997,0.094,0.220,-0.210,-1.610,1.190
7882855,-0.999,0.099,0.218,-0.070,-1.610,1.120
7882878,-0.998,0.099,0.220,0.000,-1.610,0.980
7882902,-0.996,0.096,0.219,0.000,-1.750,0.910
7882922,-0.996,0.096,0.220,0.210,-1.820,0.770
7882940,-0.998,0.096,0.217,0.210,-1.750,0.700
7882959,-1.000,0.095,0.219,0.140,-1.890,0.700
7882983,-0.997,0.092,0.218,0.070,-1.960,0.770
7882998,-0.998,0.096,0.221,0.140,-1.890,0.770
7883023,-0.998,0.096,0.219,0.070,-1.890,0.630
7883043,-0.998,0.095,0.219,-0.070,-1.960,0.560
7883062,-0.999,0.096,0.215,0.000,-2.030,0.700
7883087,-0.998,0.095,0.216,-0.070,-2.240,0.840
7883105,-1.001,0.089,0.215,-0.070,-2.310,1.260
7883127,-0.995,0.092,0.218,-0.420,-2.170,1.400
7883147,-0.996,0.097,0.222,-0.070,-2.100,1.260
7883167,-1.001,0.099,0.223,0.000,-2.170,1.330
7883186,-0.998,0.095,0.223,-0.140,-1.470,1.050
7883205,-0.995,0.094,0.218,-0.910,-1.050,0.770
7883229,-0.997,0.095,0.220,-0.700,-0.700,0.840
7883245,-1.000,0.096,0.217,-0.840,-0.700,0.980
7883269,-0.999,0.095,0.214,-1.050,-0.980,1.190
7883289,-1.000,0.087,0.213,-0.560,-1.120,1.470
7883308,-0.999,0.094,0.214,-0.350,-1.610,1.540
7883326,-0.999,0.095,0.213,-0.420,-1.610,1.750
7883349,-1.000,0.095,0.215,-0.350,-1.820,1.750
7883370,-1.002,0.093,0.214,-0.070,-2.100,1.750
7883389,-1.000,0.094,0.213,0.000,-2.030,1.470
7883407,-1.000,0.099,0.216,0.000,-2.030,1.330
7883431,-0.997,0.098,0.212,0.000,-2.100,1.260
7883451,-0.998,0.094,0.213,0.140,-2.380,1.330
7883471,-0.999,0.096,0.217,0.140,-2.520,1.400
7883492,-1.000,0.098,0.216,0.070,-2.450,1.330
7883513,-1.001,0.096,0.217,0.070,-2.380,1.470
7883532,-1.000,0.097,0.214,0.000,-2.450,1.400
7883556,-0.998,0.095,0.215,-0.210,-2.310,1.400
7883576,-0.999,0.096,0.215,-0.140,-2.450,1.400
7883596,-0.998,0.096,0.213,-0.210,-2.450,1.400
7883620,-0.999,0.096,0.216,-0.210,-2.450,1.540
7883638,-0.998,0.095,0.215,-0.140,-2.450,1.610
7883658,-0.999,0.095,0.214,0.000,-2.520,1.540
7883677,-0.998,0.097,0.214,-0.140,-2.450,1.540
7883700,-0.999,0.096,0.214,-0.280,-2.590,1.470
7883721,-0.997,0.098,0.218,-0.140,-2.590,1.400
7883743,-1.001,0.098,0.217,-0.070,-2.590,1.400
7883763,-0.996,0.095,0.216,-0.280,-2.520,1.470
7883783,-1.001,0.096,0.213,-0.280,-2.590,1.330
7883802,-0.998,0.100,0.213,-0.210,-2.660,1.400
7883827,-1.000,0.097,0.216,-0.070,-2.800,1.400
7883847,-0.998,0.097,0.217,-0.420,-2.590,1.470
7883866,-0.999,0.099,0.216,-0.490,-2.800,1.470
7883890,-1.000,0.098,0.218,-0.630,-2.730,1.470
7883910,-0.999,0.099,0.217,-0.420,-2.800,1.400
7883930,-0.998,0.097,0.214,-0.210,-3.080,1.470
7883950,-0.999,0.096,0.216,-0.210,-3.220,1.680
7883967,-0.999,0.096,0.216,0.000,-3.360,1.680
7883988,-0.996,0.100,0.218,0.070,-3.430,1.540
7884011,-0.999,0.098,0.218,0.140,-3.360,1.610
7884031,-0.999,0.096,0.219,0.350,-3.430,1.680
7884051,-0.999,0.101,0.220,0.560,-3.360,1.540
7884071,-0.996,0.100,0.223,0.280,-3.080,1.190
7884090,-0.997,0.099,0.221,0.140,-3.080,1.260
7884113,-0.998,0.096,0.224,0.210,-3.080,1.400
7884133,-0.996,0.101,0.222,0.070,-2.800,1.330
7884152,-0.996,0.098,0.220,-0.280,-2.590,1.260
7884172,-0.997,0.102,0.221,-0.280,-2.450,1.190
7884196,-0.997,0.100,0.219,-0.420,-2.380,0.980
7884216,-0.998,0.098,0.223,-0.210,-2.380,0.980
7884232,-0.997,0.098,0.223,-0.070,-2.450,0.840
7884257,-0.996,0.100,0.221,0.140,-2.380,0.840
7884277,-0.996,0.102,0.224,-0.350,-2.380,0.980
7884297,-0.997,0.100,0.223,-0.280,-2.240,0.910
7884317,-0.996,0.100,0.219,-0.140,-2.170,0.980
7884335,-0.999,0.099,0.220,-0.280,-2.240,0.910
7884357,-0.997,0.102,0.221,-0.210,-2.100,0.840
7884376,-0.996,0.101,0.224,-0.560,-1.960,0.700
7884397,-0.998,0.097,0.222,-0.560,-2.100,0.700
7884421,-0.999,0.099,0.221,-0.420,-2.030,0.770
7884441,-0.997,0.097,0.224,-0.350,-2.100,0.980
7884461,-0.999,0.097,0.221,-0.280,-2.240,0.980
7884482,-0.997,0.095,0.222,0.070,-2.240,1.190
7884503,-0.998,0.098,0.220,-0.070,-2.310,1.400
7884522,-0.998,0.097,0.220,0.140,-2.590,1.400
7884547,-0.997,0.097,0.221,0.280,-2.450,1.540
7884567,-0.998,0.101,0.221,0.210,-2.590,1.610
7884586,-0.996,0.097,0.223,0.350,-2.660,1.610
7884607,-0.997,0.099,0.221,0.350,-2.450,1.540
7884627,-0.995,0.099,0.224,0.280,-2.520,1.610
7884645,-0.998,0.096,0.222,0.280,-2.380,1.820
7884664,-0.998,0.099,0.219,-0.070,-2.310,1.890
7884684,-0.999,0.102,0.219,0.210,-2.380,1.960
7884709,-1.001,0.099,0.220,0.070,-2.800,1.960
7884726,-0.998,0.100,0.224,0.420,-2.870,1.890
7884750,-0.997,0.102,0.221,0.000,-3.010,1.680
7884770,-0.996,0.102,0.222,-0.070,-2.870,1.680
7884785,-0.999,0.102,0.223,0.210,-3.010,1.610
7884809,-0.995,0.105,0.224,0.210,-2.870,1.260
7884828,-0.996,0.101,0.224,0.140,-2.660,0.980
7884850,-0.995,0.102,0.225,0.070,-2.520,0.770
7884870,-0.999,0.102,0.222,-0.070,-2.310,0.700
7884889,-0.995,0.100,0.223,-0.280,-2.170,0.770
7884910,-0.998,0.101,0.223,-0.490,-2.310,0.910
7884929,-0.998,0.100,0.224,-0.490,-2.310,1.120
7884954,-0.996,0.100,0.224,-0.350,-2.380,1.470
7884971,-0.997,0.099,0.227,-0.350,-2.380,1.470
7884991,-0.998,0.102,0.225,-0.490,-2.240,1.330
7885015,-0.999,0.101,0.224,-0.420,-2.380,1.190
7885035,-0.997,0.102,0.221,-0.420,-2.310,1.190
7885055,-0.998,0.100,0.220,-0.350,-2.590,1.190
7885071,-0.996,0.102,0.222,-0.280,-2.660,1.260
7885095,-0.998,0.099,0.221,-0.070,-2.940,1.400
7885114,-0.999,0.100,0.224,-0.070,-3.010,1.470
7885134,-0.996,0.102,0.224,-0.070,-3.010,1.260
7885154,-0.996,0.102,0.226,0.070,-3.080,1.400
7885174,-0.999,0.102,0.224,-0.070,-2.800,1.260
7885193,-0.996,0.101,0.225,0.000,-2.730,1.260
7885216,-0.996,0.102,0.226,0.000,-2.800,1.260
7885240,-0.999,0.099,0.224,-0.070,-2.800,1.190
7885260,-0.997,0.102,0.227,-0.280,-2.590,1.190
7885280,-0.994,0.103,0.228,-0.630,-2.450,0.840
7885300,-0.996,0.100,0.226,-0.490,-2.520,0.910
7885320,-0.997,0.107,0.226,-0.140,-2.450,0.630
7885344,-0.996,0.102,0.226,-0.210,-2.450,0.700
7885364,-0.996,0.100,0.222,0.000,-2.520,0.910
7885384,-1.000,0.098,0.225,0.350,-2.730,1.260
7885402,-0.998,0.103,0.225,0.350,-2.870,1.050
7885424,-0.997,0.101,0.225,0.070,-2.660,1.190
7885443,-0.997,0.098,0.224,0.210,-2.730,1.400
7885467,-0.996,0.101,0.226,0.280,-2.870,1.540
7885491,-0.998,0.102,0.227,0.210,-2.940,1.400
7885511,-0.993,0.102,0.230,0.420,-2.800,1.330
7885531,-0.996,0.101,0.228,0.210,-2.730,1.400
7885551,-0.996,0.100,0.228,0.140,-2.590,1.470
7885571,-0.993,0.102,0.230,0.140,-2.310,1.400
7885594,-0.996,0.102,0.229,-0.140,-2.240,1.260
7885618,-0.996,0.102,0.229,-0.280,-2.170,1.190
7885637,-0.998,0.101,0.228,-0.210,-2.100,1.190
7885657,-0.996,0.102,0.229,-0.280,-1.890,1.190
7885681,-0.996,0.103,0.228,-0.280,-1.820,1.190
7885700,-0.996,0.103,0.226,-0.350,-1.890,1.050
7885721,-0.996,0.101,0.228,-0.350,-1.750,1.050
7885741,-0.998,0.103,0.231,-0.490,-1.610,1.050
7885760,-0.995,0.103,0.228,-0.630,-1.610,0.910
7885781,-0.995,0.102,0.226,-0.700,-1.540,0.910
7885799,-0.998,0.098,0.223,-0.350,-1.610,0.910
7885823,-0.997,0.101,0.227,-0.350,-1.540,0.700
7885843,-0.996,0.103,0.226,-0.350,-1.540,0.700
7885861,-0.996,0.103,0.224,-0.420,-1.540,0.560
7885885,-0.997,0.100,0.224,-0.280,-1.610,0.630
7885904,-0.997,0.103,0.225,-0.140,-1.680,0.630
7885927,-0.997,0.103,0.225,0.000,-1.610,0.490
7885948,-0.998,0.096,0.223,-0.210,-1.680,0.770
7885965,-1.000,0.098,0.224,0.000,-1.820,0.770
7885989,-0.997,0.101,0.222,0.000,-1.820,1.120
7886007,-0.997,0.100,0.225,-0.210,-1.960,1.050
7886029,-0.999,0.096,0.225,-0.350,-1.890,1.260
7886052,-0.997,0.100,0.225,-0.280,-2.100,1.400
7886072,-0.996,0.100,0.222,-0.280,-1.890,1.400
7886089,-1.000,0.098,0.224,-0.140,-1.960,1.610
7886109,-0.998,0.103,0.227,-0.560,-2.240,1.750
7886133,-0.996,0.098,0.224,-0.490,-1.680,1.540
7886153,-0.994,0.104,0.225,-0.490,-1.820,1.330
7886173,-0.995,0.102,0.224,-0.280,-1.680,1.330
7886193,-0.997,0.099,0.222,-0.140,-1.820,1.260
7886209,-0.995,0.103,0.222,-0.140,-1.890,1.190
7886232,-0.996,0.103,0.224,0.000,-1.960,1.260
7886252,-0.997,0.101,0.224,0.140,-1.890,1.330
7886276,-0.999,0.103,0.223,-0.140,-1.960,1.120
7886296,-0.997,0.099,0.221,-0.350,-1.610,0.980
7886316,-0.996,0.102,0.224,-0.700,-1.260,0.910
7886335,-0.996,0.104,0.224,-0.420,-1.330,0.910
7886359,-0.993,0.103,0.223,-0.700,-0.770,0.490
7886378,-0.999,0.100,0.224,-0.910,-0.910,0.560
7886397,-0.998,0.099,0.221,-0.700,-0.700,0.770
7886418,-0.999,0.102,0.220,-0.630,-0.840,0.700
7886442,-0.998,0.098,0.220,-0.700,-1.050,0.980
7886457,-1.000,0.097,0.217,-0.700,-1.330,1.050
7886481,-1.003,0.096,0.217,-0.420,-1.540,1.330
7886499,-0.999,0.097,0.215,-0.420,-1.820,1.610
7886518,-0.995,0.098,0.216,-0.350,-1.960,1.750
7886538,-1.000,0.098,0.218,-0.140,-2.450,1.680
7886558,-0.999,0.098,0.215,0.210,-2.660,1.820
7886580,-0.996,0.102,0.217,0.140,-2.590,1.750
7886600,-0.998,0.104,0.220,0.070,-2.660,1.750
7886624,-0.998,0.102,0.219,0.140,-2.380,1.540
7886644,-0.998,0.103,0.220,0.000,-2.310,1.330
7886667,-0.997,0.102,0.220,-0.070,-2.240,1.190
7886687,-0.997,0.100,0.217,-0.140,-2.240,1.120
7886705,-0.998,0.100,0.219,-0.350,-2.170,1.120
7886729,-0.997,0.100,0.219,-0.210,-2.240,1.190
7886749,-0.998,0.100,0.217,-0.070,-2.170,1.190
7886769,-0.998,0.100,0.219,0.000,-2.170,1.330
7886789,-0.998,0.103,0.219,0.140,-2.170,1.260
7886812,-0.998,0.104,0.218,0.140,-2.170,1.330
7886833,-0.998,0.099,0.219,0.140,-2.240,1.400
7886851,-0.997,0.102,0.222,0.070,-2.380,1.400
7886870,-0.998,0.101,0.218,-0.140,-2.240,1.400
7886895,-0.997,0.104,0.219,-0.420,-2.310,1.400
7886914,-0.998,0.103,0.219,-0.280,-2.240,1.330
7886934,-0.997,0.102,0.219,-0.070,-2.450,1.260
7886954,-0.998,0.101,0.215,0.000,-2.590,1.260
7886974,-0.998,0.102,0.217,-17.920,-2.660,1.260
7886998,-0.998,0.101,0.220,-0.070,-2.660,1.120
7887017,-0.996,0.103,0.216,-0.350,-2.730,1.050
7887038,-0.998,0.101,0.220,-0.490,-3.010,0.980
7887062,-0.996,0.102,0.220,0.140,-3.010,1.190
7887078,-0.999,0.101,0.218,0.000,-3.080,1.050
7887102,-0.998,0.101,0.219,0.210,-3.150,1.190
7887122,-0.997,0.105,0.221,0.140,-3.290,1.190
7887138,-1.000,0.101,0.223,0.280,-3.360,1.120
7887157,-0.999,0.103,0.221,0.350,-3.290,1.260
7887182,-0.996,0.102,0.224,0.420,-2.940,1.050
7887199,-0.995,0.105,0.222,0.140,-2.870,0.980
7887223,-1.000,0.103,0.223,0.070,-2.660,0.840
7887247,-0.997,0.103,0.224,-0.140,-2.380,0.770
7887267,-0.993,0.105,0.224,-0.420,-2.100,0.490
7887287,-0.997,0.102,0.224,-0.700,-1.960,0.420
7887307,-0.996,0.103,0.221,-0.840,-1.610,0.140
7887325,-0.996,0.103,0.221,-0.770,-1.540,-0.070
7887346,-0.996,0.101,0.226,-0.840,-1.470,-0.280
7887365,-0.996,0.102,0.224,-0.700,-1.330,-0.350
7887385,-0.997,0.102,0.224,-0.560,-1.260,-0.560
7887409,-0.998,0.099,0.221,-0.770,-1.050,-0.630
7887428,-0.999,0.095,0.219,-0.560,-1.190,-0.350
7887449,-0.995,0.095,0.223,0.070,-1.470,0.070
7887473,-0.999,0.101,0.223,-0.280,-1.330,0.070
7887493,-0.996,0.099,0.222,-0.560,-1.330,0.070
7887513,-1.004,0.092,0.218,-0.350,-1.750,0.350
7887532,-0.995,0.096,0.215,-0.630,-1.680,0.280
7887553,-1.002,0.098,0.219,-0.560,-2.030,0.350
7887572,-1.001,0.079,0.210,0.000,-2.520,1.190
7887596,-1.001,0.091,0.214,0.770,-3.640,2.450
7887616,-0.999,0.097,0.216,0.910,-4.340,3.080
7887636,-0.999,0.098,0.220,1.050,-4.130,3.290
7887656,-0.997,0.102,0.224,0.630,-3.920,3.290
7887674,-0.996,0.100,0.223,0.420,-3.710,3.010
7887694,-0.997,0.103,0.224,0.560,-3.570,2.730
7887714,-0.992,0.100,0.223,0.700,-3.290,2.520
7887738,-0.997,0.104,0.224,0.490,-2.800,1.960
7887758,-0.996,0.101,0.223,0.350,-2.380,1.890
7887778,-0.996,0.105,0.223,-0.210,-2.100,1.610
7887797,-0.995,0.103,0.222,0.000,-2.030,1.610
7887821,-0.997,0.104,0.224,-0.140,-1.680,1.330
7887841,-0.995,0.106,0.222,-0.490,-1.540,1.330
7887860,-0.997,0.101,0.221,-0.630,-1.400,1.190
7887885,-0.997,0.099,0.224,-0.560,-1.470,1.400
7887904,-0.996,0.106,0.225,-0.490,-1.400,1.190
7887924,-0.998,0.108,0.222,-1.190,-0.980,0.630
7887948,-0.997,0.102,0.218,-0.980,-1.190,0.280
7887968,-0.997,0.100,0.217,-0.840,-1.330,0.420
7887987,-1.001,0.096,0.217,-0.420,-1.400,0.630
7888007,-0.999,0.098,0.216,-0.280,-1.820,0.630
7888026,-0.998,0.093,0.215,-0.210,-2.240,1.120
7888051,-0.999,0.097,0.216,0.280,-2.800,1.750
7888067,-0.999,0.100,0.219,0.350,-3.010,1.890
7888087,-1.001,0.101,0.219,0.280,-3.150,2.030
7888111,-0.875,0.103,0.221,0.910,-3.570,1.960
7888131,-0.996,0.102,0.223,0.840,-3.360,2.170
7888155,-0.997,0.102,0.220,0.980,-3.500,2.380
7888175,-0.999,0.101,0.224,0.420,-3.430,2.380
7888191,-0.996,0.103,0.225,0.210,-3.150,2.310
7888215,-0.996,0.104,0.225,0.280,-2.870,2.240
7888234,-0.993,0.108,0.224,0.070,-2.590,1.890
7888255,-0.997,0.104,0.221,-0.350,-2.520,1.820
7888274,-0.997,0.104,0.224,-0.140,-2.450,1.960
7888297,-1.000,0.108,0.222,-0.210,-2.380,1.820
7888318,-0.998,0.104,0.223,0.000,-2.310,1.820
7888338,-0.995,0.106,0.223,-0.070,-2.310,1.680
7888357,-0.996,0.107,0.224,-0.210,-2.240,1.680
7888377,-0.998,0.105,0.221,-0.210,-2.240,1.680
7888397,-0.994,0.106,0.223,-0.070,-2.240,1.540
7888416,-0.995,0.105,0.222,-0.210,-2.310,1.470
7888441,-0.998,0.106,0.221,-0.140,-2.240,1.400
7888460,-0.996,0.107,0.225,-0.420,-2.100,1.120
7888479,-0.995,0.107,0.224,-0.490,-2.030,0.980
7888501,-0.997,0.107,0.223,-0.490,-1.960,0.980
7888525,-0.996,0.105,0.223,-0.560,-1.820,0.910
7888545,-0.996,0.106,0.224,-0.630,-1.750,0.700
7888565,-0.997,0.107,0.224,-0.770,-1.680,0.560
7888584,-0.995,0.103,0.221,-0.840,-1.680,0.700
7888605,-1.002,0.100,0.218,-0.770,-2.100,0.910
7888625,-0.996,0.105,0.224,-0.560,-1.960,1.190
7888643,-0.996,0.108,0.221,-0.980,-1.750,1.050
7888667,-0.997,0.105,0.221,-1.260,-1.680,0.840
7888687,-0.994,0.106,0.221,-1.050,-1.540,0.770
7888705,-1.000,0.101,0.218,-0.630,-1.890,0.700
7888727,-0.997,0.105,0.223,-0.210,-1.890,0.700
7888747,-0.997,0.102,0.222,-0.350,-1.820,0.630
7888767,-0.996,0.104,0.221,-0.630,-1.610,0.350
7888791,-0.996,0.107,0.222,-0.770,-1.260,0.000
7888811,-0.998,0.104,0.221,-0.700,-1.470,-0.140
7888827,-0.996,0.105,0.221,-0.630,-1.400,0.000
7888850,-0.998,0.102,0.224,-0.770,-1.050,0.000
7888871,-0.996,0.101,0.221,-1.610,-0.770,-0.140
7888889,-1.001,0.100,0.216,-1.330,-0.840,-0.070
7888908,-0.998,0.098,0.215,-0.630,-1.330,0.140
7888933,-1.001,0.097,0.215,0.000,-1.960,0.700
7888953,-0.998,0.100,0.217,0.000,-1.960,1.050
7888968,-1.001,0.097,0.216,-0.210,-1.960,1.470
7888993,-0.999,0.101,0.219,-0.140,-2.310,1.680
7889013,-0.998,0.100,0.216,0.000,-2.240,1.610
7889033,-0.996,0.105,0.218,0.140,-2.170,1.610
7889055,-0.998,0.102,0.219,0.140,-2.310,1.470
7889076,-0.996,0.102,0.219,0.350,-2.170,1.400
7889100,-0.997,0.102,0.217,0.350,-2.030,1.400
7889118,-0.997,0.103,0.217,0.140,-2.030,1.330
7889138,-0.999,0.102,0.217,0.210,-2.170,1.260
7889162,-1.001,0.099,0.215,0.350,-2.450,1.470
7889177,-1.001,0.099,0.216,0.350,-2.800,1.470
7889202,-0.998,0.102,0.216,0.350,-2.800,1.680
7889222,-0.996,0.103,0.216,0.420,-3.080,1.680
7889242,-1.000,0.102,0.219,0.840,-3.290,1.820
7889262,-0.998,0.102,0.219,0.840,-3.290,1.820
7889283,-0.997,0.103,0.219,0.700,-3.220,1.540
7889304,-0.995,0.106,0.221,0.210,-3.010,1.540
7889326,-0.999,0.104,0.217,0.000,-2.940,1.470
7889349,-0.996,0.104,0.222,0.070,-3.010,1.400
7889370,-0.996,0.107,0.220,0.070,-3.010,1.260
7889388,-0.996,0.106,0.220,-0.140,-2.800,1.190
7889408,-0.997,0.105,0.219,-17.920,-2.870,1.260
7889429,-0.998,0.103,0.221,0.000,-2.940,1.260
7889448,-0.996,0.104,0.219,-0.350,-2.870,1.050
7889473,-0.996,0.104,0.220,-0.280,-2.730,1.050
7889493,-0.999,0.104,0.221,-0.280,-2.940,0.910
7889509,-0.998,0.104,0.221,-0.420,-2.870,0.840
7889529,-0.997,0.102,0.219,-0.210,-2.800,0.910
7889553,-0.996,0.104,0.222,-0.420,-2.660,0.910
7889571,-0.997,0.107,0.222,-0.630,-2.800,1.050
7889590,-1.000,0.099,0.221,-0.560,-2.870,1.260
7889612,-0.996,0.102,0.222,-0.350,-3.010,1.540
7889632,-0.996,0.103,0.221,-0.420,-2.940,1.540
7889652,-0.998,0.102,0.219,-0.420,-3.220,1.750
7889673,-1.001,0.102,0.223,0.070,-3.430,1.820
7889697,-0.996,0.106,0.225,0.000,-3.430,1.890
7889717,-0.995,0.104,0.224,-0.140,-3.500,1.680
7889736,-0.997,0.106,0.223,-0.210,-3.360,1.610
7889756,-0.996,0.102,0.225,0.070,-3.360,1.470
7889778,-0.996,0.106,0.226,0.070,-3.360,1.330
7889797,-0.995,0.108,0.228,0.280,-3.360,1.330
7889820,-0.996,0.107,0.228,0.140,-3.220,1.190
7889841,-0.997,0.103,0.226,0.210,-3.290,1.120
7889860,-0.993,0.106,0.228,0.210,-2.940,1.190
7889883,-0.994,0.104,0.230,0.070,-2.660,1.050
7889903,-0.995,0.102,0.226,0.070,-2.730,1.050
7889924,-0.996,0.107,0.229,0.280,-2.590,1.120
7889943,-0.996,0.106,0.227,0.280,-2.240,0.980
7889968,-0.996,0.104,0.230,0.000,-2.240,0.910
7889987,-0.996,0.105,0.228,0.000,-2.100,0.980
7890011,-0.997,0.102,0.228,0.210,-2.170,1.120
7890031,-0.996,0.103,0.225,0.490,-2.170,1.120
7890050,-0.996,0.104,0.228,0.350,-1.960,0.980
7890074,-0.994,0.106,0.230,0.350,-1.960,0.840
7890094,-0.994,0.108,0.227,0.140,-1.890,0.630
7890113,-0.998,0.104,0.226,0.210,-1.960,0.700
7890133,-0.997,0.102,0.224,0.280,-2.030,0.770
7890156,-0.996,0.102,0.226,0.350,-1.890,1.050
7890177,-0.996,0.106,0.227,0.210,-2.030,1.120
7890197,-0.995,0.103,0.225,0.210,-2.030,1.120
7890216,-0.997,0.100,0.226,0.280,-2.100,1.330
7890233,-0.996,0.104,0.228,0.070,-2.100,1.540
7890253,-0.996,0.103,0.225,-0.140,-2.030,1.540
7890276,-0.998,0.106,0.226,-0.490,-1.890,1.540
7890301,-0.995,0.105,0.228,-0.350,-1.890,1.610
7890320,-0.996,0.104,0.225,-0.350,-1.890,1.680
7890339,-0.994,0.108,0.226,-0.280,-1.960,1.540
7890360,-0.996,0.105,0.225,-0.490,-1.610,1.330
7890380,-0.995,0.104,0.225,-0.420,-1.610,1.190
7890399,-0.997,0.102,0.224,-0.210,-1.680,1.330
7890415,-0.997,0.108,0.227,-0.210,-1.540,1.260
7890440,-0.996,0.108,0.227,-0.700,-1.540,1.120
7890460,-0.996,0.102,0.224,-0.910,-1.470,1.190
7890480,-0.994,0.107,0.225,-0.560,-1.400,0.980
7890500,-0.996,0.104,0.224,-0.490,-1.680,0.840
7890519,-0.995,0.103,0.220,-0.280,-1.610,0.910
7890538,-0.996,0.105,0.220,-0.140,-1.750,0.910
7890558,-0.998,0.105,0.222,-0.210,-1.960,0.910
7890577,-0.997,0.101,0.221,17.850,-2.100,1.330
7890600,-1.002,0.102,0.224,0.210,-2.520,1.680
7890618,-0.997,0.110,0.224,0.350,-2.590,1.610
7890637,-0.998,0.101,0.222,-0.070,-2.730,1.750
7890660,-0.997,0.105,0.225,0.280,-2.800,2.310
7890679,-0.996,0.105,0.225,-0.210,-2.450,2.100
7890704,-0.992,0.105,0.224,-0.070,-2.590,1.750
7890724,-0.996,0.109,0.224,-0.140,-2.450,1.680
7890747,-0.998,0.105,0.223,0.070,-2.590,1.750
7890770,-0.996,0.108,0.224,0.420,-2.940,1.680
7890788,-0.999,0.103,0.224,0.350,-2.870,1.680
7890807,-0.994,0.107,0.225,0.210,-2.800,1.890
7890832,-0.995,0.106,0.225,0.070,-2.730,1.890
7890851,-0.997,0.109,0.224,0.140,-2.660,1.960
7890872,-0.996,0.108,0.228,0.070,-2.450,1.750
7890891,-0.993,0.110,0.228,-0.070,-2.240,1.470
7890910,-0.995,0.113,0.229,-0.210,-1.960,1.330
7890929,-0.994,0.110,0.226,-0.560,-1.680,1.050
7890953,-0.996,0.109,0.225,-0.770,-1.470,0.840
7890974,-0.997,0.110,0.226,-0.910,-1.190,0.770
7890992,-0.995,0.111,0.226,-1.190,-0.840,0.700
7891011,-0.996,0.109,0.225,-1.470,-0.700,0.560
7891030,-0.996,0.106,0.222,-1.260,-0.630,0.630
7891053,-0.997,0.107,0.221,-1.120,-0.700,0.490
7891076,-0.997,0.106,0.223,-0.840,-0.700,0.560
7891097,-0.998,0.107,0.224,-0.770,-0.560,0.560
7891116,-0.995,0.108,0.224,-1.050,-0.420,0.420
7891141,-0.998,0.106,0.220,-1.050,-0.630,0.280
7891159,-0.997,0.104,0.220,-0.560,-0.420,0.490
7891179,-0.996,0.102,0.221,-0.630,-0.350,0.350
7891201,-0.997,0.104,0.219,-0.840,-0.420,0.490
7891223,-0.998,0.103,0.217,-1.260,-0.420,0.560
7891247,-0.999,0.106,0.214,-0.840,-0.630,0.630
7891267,-0.996,0.104,0.215,-0.770,-0.700,0.420
7891283,-0.998,0.101,0.213,-0.700,-0.770,0.490
7891303,-0.998,0.104,0.217,-0.350,-0.840,0.630
7891327,-0.999,0.103,0.213,-0.350,-1.120,0.840
7891347,-0.998,0.101,0.214,-0.280,-1.190,0.840
7891367,-0.997,0.103,0.216,0.210,-1.470,0.980
7891387,-0.998,0.106,0.213,-0.210,-1.120,0.560
7891407,-0.996,0.107,0.216,-0.490,-0.770,0.070
7891427,-1.000,0.105,0.213,-0.420,-0.840,-0.210
7891447,-0.994,0.103,0.208,-0.070,-0.070,-0.420
7891467,-0.997,0.103,0.212,-0.210,-0.840,-0.350
7891482,-1.003,0.101,0.211,-0.350,-1.190,-0.140
7891502,-1.003,0.097,0.207,-0.490,-1.260,0.070
7891522,-0.875,0.099,0.207,-0.210,-1.540,0.490
7891546,-1.003,0.098,0.210,0.000,-1.890,0.700
7891567,-1.000,0.097,0.208,0.350,-2.170,0.910
7891587,-0.997,0.098,0.210,0.000,-2.100,0.910
7891602,-1.000,0.100,0.213,0.070,-2.100,0.770
7891627,-0.998,0.101,0.211,0.210,-2.030,0.770
7891642,-0.999,0.100,0.210,-0.070,-1.960,0.700
7891662,-0.999,0.101,0.210,-0.070,-2.030,0.700
7891684,-1.000,0.098,0.207,-0.210,-2.100,0.840
7891706,-1.001,0.099,0.207,0.000,-2.310,0.910
7891725,-1.003,0.099,0.209,0.210,-2.450,1.120
7891750,-1.001,0.101,0.206,0.280,-2.590,1.120
7891770,-1.000,0.099,0.209,0.350,-2.730,1.120
7891790,-0.999,0.101,0.210,0.070,-2.660,1.050
7891810,-0.998,0.101,0.212,0.350,-2.590,0.980
7891831,-0.999,0.100,0.211,0.140,-2.450,0.980
7891851,-0.997,0.100,0.211,-0.070,-2.450,1.050
7891875,-0.999,0.098,0.213,0.000,-2.450,1.050
7891895,-0.997,0.102,0.211,-0.280,-2.310,0.980
7891915,-0.998,0.101,0.213,-0.350,-2.310,0.980
7891934,-0.999,0.101,0.214,-0.140,-2.240,0.980
7891953,-0.998,0.099,0.212,-0.350,-2.240,0.980
7891976,-0.999,0.100,0.212,-0.210,-2.380,1.120
7891996,-0.997,0.099,0.212,-0.140,-2.450,1.120
7892020,-1.001,0.098,0.212,-0.210,-2.520,1.190
7892040,-0.999,0.100,0.214,-0.070,-2.450,1.190
7892058,-1.000,0.101,0.211,-0.070,-2.520,1.190
7892076,-1.000,0.098,0.209,0.000,-2.660,1.120
7892095,-0.998,0.101,0.209,0.070,-2.730,1.260
7892120,-1.001,0.097,0.210,-0.070,-3.080,1.470
7892138,-1.003,0.098,0.210,-0.140,-3.290,1.540
7892157,-0.999,0.099,0.211,0.000,-3.500,1.890
7892181,-1.001,0.096,0.214,0.420,-3.920,2.100
7892200,-1.002,0.102,0.213,0.140,-3.780,2.100
7892223,-0.995,0.103,0.214,0.490,-3.990,2.100
7892247,-0.999,0.101,0.215,0.210,-4.200,1.960
7892263,-0.999,0.097,0.215,0.700,-4.340,2.030
7892286,-0.999,0.102,0.215,0.770,-4.410,2.100
7892307,-0.994,0.104,0.219,0.630,-4.200,1.890
7892323,-0.996,0.104,0.217,0.210,-4.130,1.960
7892347,-0.999,0.100,0.217,0.420,-4.410,2.030
7892367,-0.996,0.102,0.219,0.910,-4.550,2.240
7892383,-0.997,0.104,0.220,0.840,-4.550,1.960
7892403,-0.998,0.106,0.223,0.910,-4.340,1.960
7892422,-0.994,0.103,0.224,0.490,-3.780,1.680
7892447,-0.996,0.105,0.226,0.560,-3.430,1.470
7892467,-0.996,0.108,0.225,0.070,-3.010,1.190
7892487,-0.996,0.108,0.220,-0.070,-2.800,0.910
7892503,-0.997,0.103,0.224,-0.070,-2.870,1.050
7892527,-0.996,0.103,0.221,-0.210,-2.870,1.190
7892547,-0.997,0.105,0.222,0.000,-3.010,1.190
7892567,-0.996,0.100,0.222,0.210,-3.150,1.400
7892585,-0.998,0.106,0.223,0.140,-3.220,1.540
7892607,-0.995,0.105,0.224,-0.070,-3.010,1.400
7892630,-0.997,0.105,0.224,-0.280,-3.080,1.330
7892651,-0.995,0.107,0.223,-0.070,-2.940,1.190
7892671,-0.998,0.104,0.225,0.070,-3.080,1.050
7892690,-0.999,0.104,0.225,0.420,-3.150,1.050
7892710,-0.996,0.104,0.225,0.630,-3.010,1.050
7892730,-0.996,0.107,0.226,0.560,-3.080,0.980
7892751,-0.998,0.102,0.225,0.630,-3.010,0.980
7892775,-0.998,0.106,0.227,0.770,-3.080,1.260
7892794,-0.995,0.107,0.228,0.490,-2.800,1.120
7892813,-0.996,0.105,0.227,0.210,-2.800,1.260
7892835,-0.997,0.105,0.228,0.280,-2.800,1.120
7892857,-0.994,0.108,0.227,0.070,-2.450,0.980
7892876,-0.995,0.108,0.230,-0.140,-2.380,0.840
7892898,-0.994,0.111,0.226,-0.350,-2.170,0.490
7892918,-0.996,0.103,0.225,-0.280,-2.310,0.490
7892942,-0.997,0.104,0.226,-0.070,-2.520,0.840
7892962,-0.996,0.106,0.226,0.070,-2.450,0.910
7892982,-0.998,0.107,0.227,-0.070,-2.660,0.980
7893000,-1.001,0.099,0.227,0.070,-2.800,1.400
7893024,-0.989,0.104,0.229,0.210,-2.800,1.680
7893043,-0.997,0.103,0.228,0.070,-2.940,1.890
7893068,-0.996,0.101,0.230,-0.280,-2.800,2.030
7893088,-0.991,0.111,0.231,0.210,-2.660,1.820
7893106,-0.996,0.107,0.232,0.000,-2.590,1.750
7893127,-0.991,0.108,0.231,-0.280,-2.170,1.470
7893148,-0.994,0.107,0.230,-0.490,-2.030,1.260
7893167,-0.997,0.106,0.230,-0.420,-2.030,1.050
7893187,-0.995,0.106,0.229,-0.350,-1.890,0.770
7893207,-0.996,0.107,0.227,-0.630,-1.750,0.700
7893224,-0.995,0.108,0.227,-0.350,-1.680,0.560
7893247,-0.995,0.102,0.228,-0.490,-1.470,0.210
7893267,-0.994,0.106,0.227,-0.280,-1.750,0.070
7893291,-0.997,0.105,0.226,-0.070,-1.890,-0.140
7893309,-0.996,0.104,0.228,0.070,-1.750,0.000
7893331,-0.997,0.101,0.225,0.210,-1.890,0.350
7893354,-0.997,0.106,0.228,0.070,-1.890,0.560
7893375,-0.995,0.106,0.230,-0.140,-1.750,0.490
7893395,-0.994,0.103,0.227,-0.350,-1.680,0.350
7893414,-0.996,0.100,0.224,-0.210,-1.890,0.420
7893434,-0.996,0.105,0.229,-0.140,-1.750,0.280
7893458,-0.996,0.106,0.229,-0.560,-1.190,-0.070
7893478,-0.995,0.105,0.225,-0.910,-0.770,-0.070
7893493,-0.998,0.101,0.224,-0.770,-1.050,0.140
7893513,-0.996,0.105,0.224,-0.770,-0.910,0.070
7893533,-0.999,0.097,0.223,-1.260,-0.910,0.280
7893553,-0.999,0.098,0.222,-1.120,-0.980,0.490
7893578,-0.996,0.101,0.224,-1.260,-0.980,0.910
7893597,-0.999,0.096,0.223,-1.120,-1.120,1.190
7893616,-0.998,0.101,0.224,-0.840,-1.330,1.190
7893636,-0.997,0.102,0.224,-0.560,-1.330,1.120
7893661,-0.996,0.102,0.223,-0.980,-0.910,1.190
7893681,-0.996,0.101,0.225,-0.700,-1.260,1.190
7893701,-0.996,0.102,0.221,-0.910,-0.910,0.910
7893721,-0.998,0.097,0.218,-0.980,-0.840,0.840
7893740,-1.001,0.097,0.219,-0.420,-1.260,0.980
7893764,-1.001,0.097,0.219,0.000,-1.680,1.120
7893782,-0.999,0.098,0.218,0.210,-1.820,1.260
7893803,-1.003,0.098,0.220,0.280,-2.100,1.400
7893827,-0.998,0.100,0.219,0.490,-2.170,1.400
7893847,-0.998,0.100,0.218,0.420,-2.450,1.260
7893862,-0.998,0.100,0.219,0.630,-2.450,1.190
7893882,-0.999,0.100,0.220,0.490,-2.380,1.330
7893906,-0.996,0.101,0.221,0.420,-2.310,1.260
7893927,-0.996,0.100,0.220,0.140,-2.450,1.260
7893947,-0.999,0.099,0.219,0.210,-2.590,1.400
7893966,-0.997,0.100,0.219,0.210,-2.730,1.610
7893987,-0.998,0.101,0.220,0.210,-2.730,1.610
7894007,-0.996,0.102,0.222,0.140,-2.870,1.540
7894027,-0.997,0.102,0.220,0.140,-2.730,1.540
7894047,-0.999,0.101,0.221,0.070,-2.730,1.400
7894066,-0.998,0.103,0.220,0.210,-2.800,1.330
7894087,-0.996,0.102,0.222,0.140,-2.730,1.260
7894102,-0.998,0.100,0.224,0.140,-2.730,1.330
7894127,-0.996,0.097,0.222,0.070,-2.800,1.470
7894147,-0.999,0.099,0.220,-0.210,-2.590,1.470
7894165,-0.996,0.101,0.224,0.070,-2.520,1.750
7894189,-0.997,0.102,0.220,0.140,-2.730,1.750
7894209,-0.999,0.101,0.221,0.000,-2.590,1.890
7894229,-0.998,0.101,0.221,0.070,-2.590,1.890
7894249,-0.997,0.105,0.224,-0.140,-2.520,1.960
7894267,-0.997,0.105,0.222,-0.350,-2.450,2.030
7894291,-0.997,0.102,0.221,0.140,-2.800,1.960
7894310,-0.996,0.105,0.218,-0.070,-3.010,2.100
7894329,-0.997,0.101,0.220,-0.070,-3.360,2.380
7894346,-0.998,0.104,0.222,-0.070,-3.430,2.450
7894366,-0.998,0.104,0.221,-0.070,-3.430,2.310
7894391,-0.998,0.106,0.222,0.070,-3.710,2.450
7894411,-0.996,0.105,0.222,0.350,-3.780,2.100
7894429,-0.993,0.108,0.226,0.070,-3.430,1.890
7894450,-0.996,0.108,0.229,-0.140,-3.430,1.820
7894471,-0.996,0.107,0.226,-0.140,-3.150,1.890
7894491,-0.995,0.108,0.227,-0.070,-2.870,1.890
7894511,-0.996,0.106,0.228,-0.280,-2.800,1.890
7894535,-0.996,0.108,0.227,-0.140,-2.660,2.030
7894554,-0.993,0.108,0.228,-0.280,-2.520,2.030
7894575,-0.995,0.106,0.229,-0.140,-2.520,2.240
7894591,-0.996,0.110,0.228,-0.140,-2.380,2.030
7894610,-0.994,0.109,0.228,-0.140,-2.380,2.170
7894634,-0.995,0.108,0.227,0.140,-2.520,2.170
7894654,-0.996,0.111,0.228,0.000,-2.170,1.960
7894678,-0.995,0.110,0.229,-0.140,-1.960,1.610
7894697,-0.996,0.110,0.228,-0.140,-1.890,1.400
7894718,-0.996,0.112,0.226,-0.280,-1.610,1.120
7894742,-0.996,0.111,0.227,-0.350,-1.750,1.050
7894762,-0.996,0.113,0.229,-0.280,-1.680,0.910
7894779,-0.996,0.109,0.231,-0.560,-1.400,1.050
7894799,-0.994,0.111,0.222,-0.280,-1.050,0.840
7894818,-0.997,0.107,0.224,-0.420,-1.470,1.050
7894842,-0.997,0.109,0.227,0.000,-1.610,1.260
7894863,-0.996,0.110,0.227,-0.350,-1.680,1.190
7894883,-0.997,0.111,0.224,-0.210,-1.750,1.190
7894902,-0.997,0.106,0.222,0.000,-1.610,1.260
7894923,-0.997,0.105,0.223,0.420,-1.820,1.400
7894943,-0.997,0.109,0.222,0.210,-2.170,1.400
7894963,-0.998,0.108,0.223,0.630,-2.520,1.610
7894983,-0.999,0.107,0.225,0.700,-2.730,1.680
7895002,-0.996,0.112,0.224,0.210,-2.590,1.680
7895026,-0.997,0.106,0.222,0.770,-2.730,1.680
7895046,-0.994,0.111,0.225,0.770,-2.870,1.750
7895065,-0.995,0.116,0.228,0.560,-2.660,1.610
7895081,-0.996,0.110,0.225,0.280,-2.520,1.330
7895101,-0.995,0.111,0.226,0.140,-2.310,1.260
7895125,-0.996,0.111,0.224,0.350,-2.380,1.120
7895143,-0.996,0.110,0.223,0.280,-2.310,1.050
7895163,-0.996,0.115,0.226,0.210,-2.450,0.980
7895187,-0.996,0.113,0.226,0.210,-2.660,1.190
7895207,-0.995,0.114,0.225,0.140,-2.730,1.400
7895227,-0.996,0.111,0.227,0.000,-2.730,1.540
7895247,-0.998,0.108,0.223,0.420,-3.080,1.750
7895267,-0.997,0.110,0.224,0.350,-3.010,1.960
7895291,-0.995,0.114,0.228,0.420,-3.080,2.030
7895310,-0.994,0.115,0.227,0.070,-3.010,1.820
7895331,-0.995,0.114,0.229,0.140,-2.940,1.820
7895351,-0.994,0.111,0.230,0.420,-2.730,1.820
7895371,-0.993,0.117,0.230,-0.280,-2.450,1.470
7895389,-0.994,0.116,0.230,-0.350,-2.100,1.190
7895413,-0.994,0.116,0.230,-0.350,-1.960,0.840
7895432,-0.995,0.114,0.228,-0.560,-1.750,0.700
7895453,-0.995,0.114,0.227,-0.980,-1.540,0.420
7895472,-0.996,0.113,0.229,-1.050,-1.400,0.490
7895491,-0.996,0.112,0.225,-0.770,-1.330,0.560
7895515,-0.996,0.113,0.224,-0.770,-1.400,0.420
7895536,-0.996,0.111,0.226,-0.770,-1.400,0.560
7895556,-0.996,0.112,0.227,-0.770,-1.470,0.560
7895576,-0.994,0.110,0.226,-0.980,-1.190,0.560
7895596,-0.995,0.112,0.226,-0.910,-0.980,0.420
7895620,-0.996,0.109,0.223,-0.910,-0.980,0.350
7895640,-0.997,0.108,0.224,-0.560,-1.120,0.420
7895660,-0.993,0.114,0.225,-0.490,-0.980,0.210
7895679,-0.996,0.113,0.224,-0.980,-0.840,-0.070
7895700,-0.993,0.111,0.225,-0.980,-0.350,-0.140
7895720,-0.996,0.112,0.224,-1.050,-0.280,-0.140
7895739,-0.997,0.108,0.221,-0.980,-0.350,-0.210
7895759,-0.996,0.109,0.219,-0.910,-0.280,-0.140
7895778,-0.996,0.105,0.221,-0.910,-0.490,0.210
7895798,-0.999,0.101,0.219,-0.700,-0.630,0.630
7895822,-0.997,0.107,0.216,-0.910,-0.630,0.770
7895846,-0.998,0.107,0.217,-1.330,-0.840,0.910
7895866,-0.998,0.104,0.216,-0.980,-0.980,0.980
7895885,-1.001,0.106,0.214,-0.700,-1.120,0.910
7895904,-0.995,0.109,0.213,-0.630,-1.330,0.840
7895928,-0.995,0.106,0.216,-0.630,-1.470,0.700
7895948,-1.000,0.104,0.216,-0.350,-1.890,0.630
7895968,-0.998,0.106,0.219,-0.070,-1.890,0.420
7895988,-0.997,0.106,0.217,-0.140,-1.820,0.350
7896008,-0.996,0.108,0.216,-0.210,-1.820,0.280
7896028,-0.998,0.104,0.217,-0.350,-1.610,0.070
7896048,-0.998,0.104,0.215,-0.420,-1.890,-17.920
7896072,-0.999,0.102,0.215,-0.350,-2.100,0.000
7896096,-1.000,0.101,0.215,-0.140,-2.030,0.280
7896116,-0.997,0.103,0.214,-0.140,-2.310,0.280
7896136,-0.997,0.102,0.218,-0.140,-2.170,0.490
7896156,-0.999,0.102,0.216,-0.210,-2.240,0.560
7896175,-0.996,0.103,0.220,-0.070,-2.310,0.560
7896198,-0.997,0.102,0.216,0.000,-2.240,0.630
7896222,-0.998,0.101,0.216,0.000,-2.170,0.560
7896242,-0.996,0.101,0.214,0.000,-2.030,0.840
7896260,-0.999,0.099,0.217,0.000,-2.170,0.840
7896280,-0.999,0.101,0.216,0.070,-2.240,0.840
7896300,-0.999,0.102,0.214,0.070,-2.380,0.980
7896324,-1.000,0.100,0.214,0.210,-2.520,1.190
7896344,-0.999,0.102,0.217,0.350,-2.590,1.470
7896364,-0.998,0.102,0.217,0.280,-2.590,1.540
7896381,-0.996,0.102,0.216,0.350,-2.730,1.750
7896405,-0.999,0.103,0.219,0.280,-2.730,1.750
7896425,-0.999,0.103,0.214,0.140,-3.010,1.820
7896441,-1.001,0.102,0.213,0.420,-3.220,2.030
7896465,-1.000,0.099,0.213,0.630,-3.780,2.520
7896485,-1.002,0.103,0.213,0.700,-4.340,2.800
7896505,-1.001,0.107,0.217,0.350,-4.760,2.940
7896524,-0.997,0.105,0.218,0.980,-4.970,3.080
7896544,-0.995,0.107,0.220,0.770,-4.970,3.080
7896567,-1.000,0.107,0.223,0.910,-5.390,3.430
7896591,-0.996,0.110,0.225,0.840,-4.970,3.150
7896615,-0.991,0.112,0.226,0.420,-4.480,2.520
7896635,-0.994,0.110,0.228,0.420,-4.340,2.310
7896653,-0.995,0.109,0.226,0.560,-4.130,2.240
7896675,-0.995,0.111,0.226,0.350,-4.130,2.100
7896699,-0.990,0.114,0.227,0.420,-3.990,2.030
7896719,-0.994,0.112,0.228,0.350,-3.850,1.890
7896739,-0.996,0.114,0.232,0.490,-3.290,1.610
7896757,-0.993,0.118,0.233,-0.070,-2.800,1.120
7896779,-0.994,0.115,0.235,-0.560,-1.960,0.770
7896798,-0.994,0.113,0.232,-0.490,-1.610,0.420
7896823,-0.996,0.111,0.232,-0.490,-1.260,0.000
7896843,-0.991,0.110,0.228,-0.840,-0.700,-0.210
7896861,-0.996,0.108,0.228,-0.770,-0.910,-0.070
7896885,-0.995,0.109,0.227,-0.980,-0.560,-0.070
7896905,-0.996,0.109,0.226,-1.050,-0.420,-0.070
7896925,-0.996,0.107,0.224,-0.840,-0.350,-0.140
7896940,-1.001,0.108,0.227,-0.770,-0.420,-0.210
7896960,-0.997,0.109,0.224,-0.630,-0.140,-0.490
7896985,-0.999,0.108,0.223,-0.490,-0.140,-0.770
7897005,-0.998,0.107,0.223,-0.280,0.000,-0.840
7897025,-0.999,0.106,0.222,-1.050,0.140,-0.910
7897043,-0.996,0.107,0.220,-0.840,0.350,-0.980
7897067,-0.996,0.103,0.216,-0.700,-0.210,-1.050
7897085,-0.997,0.103,0.216,-0.630,-0.140,-1.120
7897107,-1.000,0.100,0.211,-0.490,-0.840,-0.560
7897126,-0.999,0.100,0.212,-0.420,-1.540,-0.210
7897151,-1.001,0.098,0.210,-0.070,-2.100,0.420
7897171,-1.002,0.096,0.214,0.210,-2.590,0.980
7897187,-1.000,0.101,0.214,0.210,-2.870,1.120
7897211,-0.999,0.098,0.216,0.490,-3.220,1.400
7897230,-0.999,0.099,0.216,0.420,-3.360,1.610
7897251,-0.997,0.104,0.218,0.490,-3.570,1.610
7897271,-0.997,0.100,0.218,0.630,-3.640,1.820
7897289,-0.999,0.100,0.219,0.840,-3.640,1.820
7897312,-0.997,0.105,0.220,0.700,-3.430,1.820
7897333,-0.996,0.105,0.222,0.420,-3.570,1.750
7897352,-0.996,0.102,0.223,0.490,-3.500,1.750
7897375,-0.996,0.105,0.222,0.210,-3.360,1.960
7897399,-0.997,0.106,0.222,-0.140,-3.080,1.890
7897419,-0.999,0.101,0.221,-0.070,-3.290,1.890
7897435,-0.996,0.101,0.223,0.000,-3.290,2.030
7897459,-0.998,0.103,0.223,0.280,-3.080,1.960
7897477,-0.998,0.102,0.226,0.280,-3.150,1.960
7897497,-0.994,0.108,0.225,0.140,-2.870,1.890
7897517,-0.994,0.108,0.227,0.000,-2.590,1.680
7897541,-0.996,0.108,0.224,-0.350,-2.240,1.540
7897559,-0.995,0.106,0.228,-0.560,-1.960,1.540
7897581,-0.996,0.108,0.225,-0.630,-1.750,1.400
7897599,-0.997,0.105,0.224,-0.770,-1.470,1.260
7897622,-0.996,0.108,0.222,-0.910,-1.330,1.050
7897638,-0.995,0.104,0.223,-0.770,-1.260,1.120
7897658,-0.998,0.105,0.223,-0.700,-1.190,1.050
7897683,-0.994,0.106,0.224,-0.560,-1.400,0.910
7897698,-0.997,0.105,0.223,-0.560,-1.050,0.840
7897718,-0.996,0.102,0.224,-0.490,-0.980,0.840
7897743,-0.996,0.105,0.220,-0.420,-1.050,0.700
7897766,-0.995,0.105,0.221,-0.490,-0.980,0.770
7897783,-0.996,0.108,0.224,-0.490,-0.560,0.630
7897804,-0.998,0.106,0.220,-0.700,-0.420,0.070
7897822,-0.997,0.102,0.220,-0.700,-0.420,-0.140
7897847,-0.995,0.108,0.221,-0.980,0.000,-0.490
7897867,-0.998,0.100,0.220,-1.120,0.000,-0.490
7897885,-0.994,0.101,0.216,-1.260,0.070,-0.350
7897909,-0.998,0.102,0.215,-0.910,-17.850,-0.210
7897924,-1.002,0.099,0.216,-0.700,-0.070,-0.210
7897949,-0.996,0.100,0.212,-0.560,-0.490,-0.070
7897969,-1.001,0.097,0.207,-0.560,-0.770,0.070
7897988,-1.001,0.097,0.209,-0.140,-1.260,0.420
7898008,-1.000,0.097,0.210,-0.070,-1.680,0.770
7898027,-0.999,0.099,0.212,-0.070,-1.750,1.050
7898053,-1.001,0.099,0.216,-0.210,-1.960,1.330
7898067,-0.998,0.100,0.211,-0.350,-1.750,1.260
7898092,-0.999,0.101,0.211,0.000,-1.680,1.190
7898112,-1.001,0.096,0.210,0.000,-2.240,1.260
7898132,-1.002,0.098,0.210,-0.070,-2.520,1.470
7898151,-1.002,0.100,0.210,0.000,-2.520,1.680
7898173,-0.999,0.101,0.212,-0.070,-2.800,1.890
7898194,-1.000,0.098,0.210,-0.070,-3.080,2.170
7898216,-1.000,0.100,0.211,0.070,-3.360,2.240
7898240,-1.000,0.103,0.214,0.210,-3.220,2.170
7898260,-0.997,0.101,0.217,0.210,-3.360,2.030
7898279,-0.999,0.104,0.215,0.070,-3.080,1.960
7898295,-0.875,0.104,0.213,0.000,-3.010,1.890
7898315,-0.998,0.103,0.215,0.070,-2.870,1.750
7898335,-0.998,0.102,0.215,0.000,-2.870,1.820
7898360,-0.999,0.100,0.215,-0.140,-2.730,1.960
7898380,-1.000,0.101,0.213,0.140,-2.800,2.100
7898400,-0.997,0.105,0.214,0.210,-2.940,2.100
7898420,-0.997,0.102,0.214,0.140,-3.010,2.030
7898440,-0.998,0.102,0.215,0.490,-3.150,2.100
7898459,-1.000,0.104,0.218,0.490,-3.150,2.240
7898479,-0.998,0.104,0.216,0.560,-3.080,2.170
7898499,-0.996,0.107,0.216,0.280,-2.730,2.100
7898518,-0.998,0.108,0.219,0.140,-2.940,2.170
7898543,-0.997,0.103,0.216,0.210,-2.730,2.170
7898562,-0.997,0.104,0.215,0.000,-3.150,2.170
7898582,-1.001,0.108,0.212,0.280,-3.570,2.590
7898598,-0.999,0.102,0.211,0.490,-4.060,3.010
7898623,-0.998,0.105,0.218,0.490,-4.410,3.290
7898643,-0.996,0.110,0.216,0.700,-4.760,3.220
7898663,-0.998,0.105,0.216,0.770,-4.830,3.220
7898680,-0.997,0.110,0.224,1.330,-5.390,3.220
7898700,-0.994,0.119,0.225,1.120,-4.970,2.940
7898724,-0.993,0.114,0.225,0.210,-4.620,2.660
7898744,-0.997,0.113,0.222,0.210,-4.550,2.520
7898760,-0.995,0.117,0.224,-0.070,-4.410,2.660
7898782,-0.996,0.113,0.228,0.280,-4.130,2.240
7898800,-0.992,0.113,0.230,0.350,-4.130,2.100
7898824,-0.993,0.119,0.231,-0.070,-3.710,1.890
7898844,-0.994,0.117,0.228,-0.210,-3.080,1.610
7898863,-0.994,0.118,0.227,-0.140,-2.940,1.190
7898883,-0.995,0.115,0.228,0.000,-2.870,0.840
7898902,-0.995,0.114,0.228,0.000,-2.800,0.560
7898927,-0.996,0.117,0.227,0.700,-2.450,0.210
7898946,-0.998,0.105,0.219,6.440,-2.520,0.210
7898966,-0.992,0.132,0.239,15.260,-2.870,-0.350
7898990,-0.994,0.124,0.233,7.910,-1.750,-0.420
7899010,-0.990,0.117,0.227,4.270,-1.470,-0.350
7899027,-0.996,0.118,0.233,2.170,-1.680,-0.070
7899047,-0.988,0.111,0.228,0.210,-0.840,-0.280
7899071,-0.994,0.117,0.229,-1.540,-1.050,-0.560
7899091,-0.996,0.111,0.225,-1.960,-1.050,-0.490
7899108,-0.995,0.117,0.225,-2.660,-1.190,-0.350
7899128,-0.996,0.119,0.228,-3.920,-1.050,-0.560
7899152,-0.999,0.108,0.221,-5.110,-0.910,-0.350
7899176,-0.996,0.105,0.218,-6.160,-1.120,-0.140
7899196,-1.002,0.103,0.220,-5.040,-1.680,0.210
7899214,-0.997,0.106,0.224,-4.480,-1.540,0.420
7899238,-0.996,0.110,0.223,-3.990,-1.890,0.700
7899256,-0.998,0.103,0.225,-3.640,-2.100,1.190
7899277,-0.995,0.102,0.216,-2.380,-2.240,1.400
7899298,-1.001,0.103,0.220,-1.400,-2.940,1.820
7899318,-0.997,0.107,0.224,-0.630,-3.080,1.680
7899337,-0.995,0.109,0.224,-0.420,-3.080,1.610
7899356,-0.997,0.106,0.224,-0.070,-3.150,1.610
7899376,-0.996,0.113,0.227,-0.070,-3.290,1.610
7899400,-0.996,0.113,0.228,0.420,-3.290,1.190
7899419,-0.998,0.102,0.226,0.560,-3.290,1.190
7899439,-0.993,0.110,0.228,0.770,-3.640,1.540
7899459,-0.998,0.104,0.221,1.610,-3.290,1.400
7899482,-0.997,0.105,0.223,0.840,-3.920,2.170
7899500,-0.995,0.109,0.227,0.490,-4.060,2.100
7899523,-0.996,0.107,0.229,0.910,-4.130,2.730
7899543,-0.997,0.106,0.229,1.750,-4.830,3.080
7899562,-0.996,0.114,0.232,1.050,-4.620,3.220
7899579,-0.993,0.108,0.233,1.050,-4.200,3.500
7899599,-0.997,0.111,0.230,0.910,-4.690,3.570
7899622,-0.993,0.116,0.235,1.050,-4.130,3.220
7899646,-0.992,0.115,0.235,0.700,-4.060,2.940
7899665,-0.992,0.114,0.235,0.700,-3.920,2.800
7899685,-1.008,0.121,0.237,0.980,-4.200,2.940
7899709,-0.992,0.115,0.239,0.490,-3.080,2.660
7899730,-0.992,0.122,0.237,0.000,-3.150,2.170
7899750,-0.994,0.116,0.240,0.350,-2.520,2.030
7899767,-0.994,0.120,0.241,-0.070,-2.520,1.820
7899787,-0.987,0.122,0.235,-0.840,-1.750,1.470
7899810,-0.991,0.121,0.237,-0.910,-1.750,0.980
7899829,-0.992,0.118,0.236,-0.700,-1.400,0.770
7899851,-0.990,0.119,0.235,-1.260,-0.840,0.560
7899871,-0.994,0.122,0.237,-1.610,-1.120,0.350
7899890,-0.992,0.116,0.233,-1.750,-0.490,-0.070
7899915,-0.994,0.117,0.236,-1.820,-0.560,-0.140
7899934,-0.993,0.117,0.234,-1.330,-0.560,-0.280
7899955,-0.996,0.115,0.231,-1.400,-0.420,-0.350
7899974,-0.992,0.115,0.232,-1.470,-0.140,-0.350
7899998,-0.995,0.114,0.230,-1.260,-0.210,-0.490
7900018,-0.996,0.112,0.228,-0.840,-0.280,-0.420
7900038,-0.995,0.116,0.225,-0.630,-0.420,-0.420
7900057,-0.994,0.111,0.224,-0.770,-0.560,0.000
7900075,-1.000,0.106,0.226,-0.560,-0.770,0.350
7900099,-0.996,0.109,0.228,0.210,-0.910,0.630
7900119,-0.995,0.109,0.227,-0.140,-1.050,0.910
7900138,-0.998,0.111,0.228,0.000,-1.190,1.050
7900162,-0.997,0.108,0.224,-0.210,-1.330,1.260
7900181,-0.991,0.114,0.230,-0.210,-1.050,1.190
7900202,-1.004,0.108,0.224,0.630,-1.750,1.330
7900220,-0.992,0.114,0.224,-0.210,-0.980,0.840
7900244,-0.994,0.113,0.224,-0.490,-1.050,0.700
7900264,-0.993,0.113,0.227,-0.070,-1.120,0.770
7900283,-0.995,0.113,0.226,-0.350,-1.050,0.420
7900304,-0.996,0.110,0.222,-0.560,-0.840,0.280
7900327,-0.997,0.112,0.222,-0.630,-0.630,0.210
7900348,-0.997,0.110,0.219,-0.700,-0.770,0.140
7900367,-0.999,0.107,0.221,-0.420,-1.050,0.350
7900391,-0.999,0.108,0.220,-0.210,-1.330,0.280
7900410,-0.998,0.112,0.221,-0.490,-1.190,0.280
7900430,-0.996,0.105,0.223,-0.420,-1.400,0.350
7900449,-0.996,0.106,0.220,-0.350,-1.400,0.350
7900474,-0.996,0.110,0.221,-0.490,-1.610,0.490
7900494,-1.000,0.106,0.217,-0.280,-1.610,0.560
7900511,-0.998,0.104,0.220,-0.210,-1.750,0.560
7900535,-0.997,0.108,0.220,0.070,-1.820,0.490
7900554,-0.998,0.108,0.219,-0.070,-1.680,0.490
7900575,-0.995,0.107,0.220,0.210,-1.680,0.700
7900595,-0.997,0.110,0.218,-0.070,-1.610,0.560
7900615,-0.996,0.105,0.216,-0.280,-1.750,0.560
7900633,-0.997,0.105,0.217,0.070,-1.750,0.700
7900653,-0.999,0.107,0.220,0.000,-1.960,0.910
7900673,-0.998,0.107,0.219,-0.420,-1.890,0.840
7900696,-0.996,0.106,0.220,-0.490,-2.030,0.770
7900716,-0.996,0.107,0.216,-0.280,-2.170,0.910
7900737,-0.998,0.108,0.214,-0.560,-2.240,0.980
7900761,-0.997,0.104,0.216,-0.350,-2.730,1.190
7900781,-0.996,0.106,0.218,0.000,-3.080,1.330
7900800,-0.999,0.104,0.219,0.140,-3.290,1.260
7900819,-0.996,0.107,0.221,0.280,-3.360,1.190
7900844,-0.998,0.103,0.220,0.560,-3.640,1.400
7900864,-0.998,0.105,0.221,0.630,-3.640,1.540
7900884,-0.998,0.106,0.218,0.560,-3.710,1.540
7900904,-0.997,0.107,0.223,0.490,-3.640,1.400
7900924,-0.996,0.110,0.225,0.840,-3.640,1.470
7900944,-0.997,0.107,0.225,0.280,-3.290,1.190
7900965,-0.996,0.108,0.222,0.000,-2.940,1.120
7900986,-0.993,0.108,0.224,-0.070,-2.940,1.050
7901010,-0.995,0.108,0.222,-0.210,-2.800,0.980
7901030,-0.996,0.105,0.223,0.000,-2.730,0.840
7901050,-0.995,0.111,0.226,-0.140,-2.450,0.770
7901074,-0.993,0.110,0.225,-0.560,-1.960,0.420
7901091,-0.999,0.108,0.224,-0.560,-1.820,0.280
7901109,-0.998,0.101,0.224,-0.280,-1.750,0.280
7901133,-0.995,0.105,0.223,0.070,-1.890,0.350
7901154,-0.995,0.110,0.227,-0.140,-1.750,0.210
7901174,-0.996,0.108,0.224,-0.490,-1.400,-0.140
7901198,-0.998,0.101,0.222,-0.560,-1.540,0.000
7901213,-0.998,0.101,0.221,-0.210,-1.470,0.140
7901237,-0.995,0.103,0.223,-0.140,-1.540,0.070
7901253,-0.996,0.106,0.222,-0.630,-1.260,0.140
7901278,-0.996,0.106,0.224,-1.050,-1.260,0.070
7901298,-0.998,0.101,0.221,-1.190,-1.190,0.000
7901316,-1.000,0.100,0.216,-1.190,-1.400,0.210
7901340,-0.999,0.101,0.217,-0.210,-1.960,0.420
7901358,-0.998,0.102,0.218,0.070,-2.100,0.700
7901382,-0.999,0.101,0.218,-0.140,-2.240,0.630
7901402,-0.998,0.102,0.221,0.140,-2.170,0.490
7901421,-0.998,0.102,0.219,0.070,-2.310,0.560
7901446,-1.000,0.100,0.220,0.420,-2.520,0.630
7901462,-1.000,0.099,0.220,0.490,-2.660,0.840
