Millis,AccelX,AccelY,AccelZ,GyroX,GyroY,GyroZ
5944276,-1.014,0.009,0.036,7.000,0.140,-1.050
5944301,-1.015,0.007,0.037,6.650,0.210,-1.260
5944319,-1.011,0.003,0.035,6.160,0.350,-1.400
5944343,-1.012,0.008,0.039,6.020,0.560,-1.400
5944363,-1.013,0.008,0.037,5.320,0.000,-1.330
5944383,-1.010,0.011,0.036,4.760,-0.070,-1.190
5944407,-1.013,0.018,0.036,4.690,0.210,-1.190
5944427,-1.014,0.024,0.039,3.920,0.350,-0.910
5944447,-1.012,0.014,0.031,2.450,-0.630,-0.840
5944467,-1.005,0.018,0.027,1.890,-0.420,-1.050
5944486,-1.010,0.022,0.036,0.770,0.420,-1.120
5944506,-1.017,0.020,0.040,-0.910,0.210,-1.120
5944523,-1.020,0.017,0.031,-1.680,-0.070,-1.330
5944547,-1.020,0.013,0.031,-2.380,-0.350,-1.540
5944567,-1.018,0.007,0.034,-3.220,-0.490,-1.540
5944587,-1.014,0.003,0.037,-3.710,-0.490,-1.750
5944606,-1.012,0.004,0.034,-3.850,-0.560,-1.610
5944627,-1.010,0.005,0.034,-3.990,-0.700,-1.610
5944649,-1.012,0.009,0.035,-3.850,-0.770,-1.260
5944671,-1.014,0.005,0.032,-4.200,-0.980,-0.980
5944691,-1.012,0.007,0.028,-4.060,-1.190,-0.840
5944709,-1.012,0.005,0.029,-4.200,-0.910,-0.840
5944731,-1.014,0.003,0.035,-4.200,-0.630,-0.770
5944749,-1.013,0.005,0.037,-3.920,-0.840,-0.770
5944769,-1.015,0.005,0.035,-3.430,-1.120,-0.770
5944793,-1.012,0.002,0.031,-2.870,-1.050,-0.630
5944808,-1.014,0.000,0.033,-2.730,-0.980,-0.630
5944832,-1.015,-0.001,0.028,-2.450,-0.770,-0.490
5944853,-1.012,0.001,0.021,-1.820,-0.280,-0.490
5944872,-1.011,-0.003,0.023,-1.330,0.210,-0.350
5944896,-1.014,0.000,0.023,-0.770,0.490,-0.560
5944915,-1.011,-0.002,0.024,0.000,0.770,-0.490
5944936,-1.011,-0.004,0.021,0.490,0.910,-0.630
5944955,-1.010,-0.001,0.024,0.980,0.980,-0.560
5944976,-1.009,0.005,0.026,1.190,0.770,-0.560
5944999,-1.011,0.004,0.017,1.190,0.770,-0.560
5945020,-1.011,0.006,0.015,1.190,1.050,-0.560
5945040,-1.011,0.006,0.016,1.330,1.190,-0.560
5945059,-1.014,0.006,0.016,1.260,1.470,-0.700
5945079,-1.013,0.005,0.014,1.470,1.610,-0.700
5945103,-1.013,0.007,0.017,1.680,1.820,-0.840
5945123,-1.019,0.004,0.021,1.820,1.470,-0.840
5945144,-1.020,-0.001,0.023,1.890,0.980,-0.910
5945163,-1.021,0.002,0.023,2.310,0.420,-1.190
5945181,-1.023,0.010,0.023,3.080,0.070,-1.260
5945204,-1.031,0.006,0.029,2.870,-1.050,-0.980
5945224,-1.031,0.002,0.011,3.080,-2.870,-0.630
5945242,-1.022,0.007,0.002,3.220,-3.360,-0.490
5945263,-1.021,0.008,0.004,3.150,-4.200,-0.560
5945282,-1.010,0.007,0.001,3.080,-4.900,-0.630
5945304,-0.994,0.005,-0.000,2.940,-4.620,-0.840
5945325,-0.992,0.004,0.007,3.010,-3.710,-0.910
5945345,-0.994,0.009,0.016,2.520,-2.590,-1.050
5945370,-0.998,0.010,0.022,1.890,-1.190,-1.260
5945386,-1.008,0.014,0.030,1.400,-0.280,-1.470
5945410,-1.011,0.015,0.034,1.050,0.560,-1.750
5945431,-1.020,0.008,0.040,0.560,0.910,-1.680
5945450,-1.019,0.010,0.039,0.280,0.980,-1.610
5945471,-1.014,0.011,0.029,0.280,1.260,-1.260
5945489,-1.016,0.006,0.027,-0.140,1.260,-0.980
5945506,-1.017,0.007,0.024,-0.490,0.980,-0.840
5945530,-1.015,0.007,0.015,-0.700,0.560,-0.840
5945550,-1.016,0.007,0.011,-0.840,0.490,-0.840
5945570,-1.013,0.006,0.011,-1.050,0.560,-0.770
5945590,-1.014,0.004,0.007,-1.190,0.490,-0.840
5945610,-1.017,0.005,0.009,-1.260,0.420,-0.980
5945633,-1.018,0.005,0.014,-1.260,-0.350,-1.120
5945657,-1.018,0.001,0.018,-1.260,-1.050,-1.120
5945677,-1.018,-0.000,0.018,-1.260,-1.820,-1.190
5945697,-1.019,-0.001,0.022,-0.980,-2.380,-0.980
5945716,-1.019,-0.003,0.020,-0.770,-2.800,-0.910
5945739,-1.016,-0.002,0.011,-0.490,-2.800,-0.910
5945758,-1.012,-0.003,0.007,-0.140,-1.960,-0.910
5945781,-1.012,-0.003,0.005,0.140,-0.630,-0.980
5945800,-1.013,-0.003,0.011,0.490,-0.420,-0.840
5945824,-1.014,-0.002,0.016,0.700,0.000,-0.980
5945845,-1.024,-0.001,0.017,0.700,-0.210,-0.980
5945862,-1.026,-0.000,0.020,0.910,-1.120,-0.910
5945879,-1.019,0.002,0.016,1.260,-2.100,-0.770
5945904,-1.018,0.004,0.017,1.610,-3.150,-0.490
5945922,-1.017,0.004,0.010,1.540,-3.780,-0.140
5945946,-1.022,-0.007,0.006,1.750,-4.410,0.000
5945966,-1.034,0.002,0.006,3.430,-6.160,0.560
5945984,-1.027,0.002,-0.012,3.850,-8.610,1.400
5946006,-0.982,-0.018,-0.057,1.890,-6.930,0.840
5946025,-0.978,0.005,-0.038,-1.470,-2.450,-0.770
5946049,-1.035,0.036,0.013,-5.110,-2.590,-2.240
5946070,-1.086,0.045,0.036,-4.410,-7.350,-2.100
5946086,-1.095,0.027,0.027,-3.220,-11.410,-1.540
5946105,-1.074,0.020,0.015,-2.660,-13.790,-0.210
5946131,-1.048,-0.000,0.043,-0.980,-16.030,2.380
5946150,-1.039,-0.005,0.061,0.070,-17.920,3.500
5946169,-1.034,0.006,0.061,1.820,-21.070,3.990
5946193,-1.025,0.002,0.067,2.170,-22.820,3.220
5946211,-1.029,-0.003,0.076,2.310,-24.080,2.590
5946232,-1.027,0.012,0.090,0.490,-24.430,1.610
5946252,-1.021,0.015,0.094,-0.350,-23.520,1.120
5946277,-1.009,-0.009,0.112,-0.490,-20.650,0.280
5946296,-1.012,0.014,0.125,0.420,-17.990,-0.210
5946315,-1.017,0.013,0.138,1.260,-15.260,0.140
5946334,-1.024,0.017,0.164,2.240,-13.090,0.210
5946354,-1.010,0.037,0.169,1.470,-12.460,2.450
5946379,-1.006,0.019,0.151,0.630,-9.170,2.310
5946399,-1.012,0.022,0.174,-0.770,-4.410,4.200
5946418,-0.998,0.015,0.130,0.000,-1.750,3.220
5946438,-1.014,0.059,0.162,-1.470,2.730,4.900
5946457,-1.014,0.035,0.155,-1.330,2.800,4.270
5946477,-0.995,0.060,0.164,-2.450,3.360,3.570
5946501,-0.995,0.023,0.131,-3.010,4.900,3.010
5946520,-1.001,0.068,0.143,-4.060,5.390,3.010
5946540,-1.009,0.039,0.137,-4.760,7.630,0.490
5946563,-1.028,0.058,0.142,-4.270,7.210,1.050
5946582,-1.022,0.043,0.165,-4.690,4.060,1.750
5946602,-1.009,0.046,0.130,-6.370,0.070,2.310
5946621,-0.993,0.028,0.112,-7.980,-0.910,1.890
5946647,-0.996,0.000,0.086,-6.790,3.850,-5.530
5946666,-0.968,0.027,0.075,-6.650,4.690,-5.530
5946684,-0.997,0.038,0.107,-5.600,1.540,-4.480
5946705,-0.996,0.035,0.100,-3.570,-0.840,-3.220
5946724,-0.991,0.020,0.089,-1.540,-0.630,-2.520
5946743,-0.986,0.035,0.101,-0.070,-0.770,-1.820
5946765,-0.989,0.037,0.096,-0.420,-1.050,-1.820
5946785,-0.996,0.039,0.086,-0.770,-1.120,-1.400
5946805,-1.006,0.045,0.098,-0.700,-1.330,-1.610
5946829,-1.014,0.023,0.098,-3.360,-4.760,-1.890
5946850,-0.996,0.038,0.073,-2.310,-6.860,-2.100
5946867,-0.998,0.041,0.060,-3.080,-6.580,-2.240
5946888,-0.991,0.026,0.080,-3.570,-7.490,-2.450
5946908,-0.993,0.021,0.084,-4.410,-9.800,-2.590
5946927,-0.984,0.027,0.083,-4.410,-10.150,-2.800
5946949,-0.983,0.028,0.094,-4.480,-9.940,-2.870
5946972,-0.988,0.023,0.097,-4.060,-9.380,-3.500
5946993,-0.984,0.020,0.093,-3.080,-8.260,-4.130
5947013,-0.996,0.015,0.111,-1.400,-7.980,-3.990
5947033,-1.000,0.014,0.122,0.000,-7.070,-3.570
5947053,-0.997,0.009,0.118,0.700,-7.070,-3.080
5947076,-0.992,0.014,0.122,1.400,-6.790,-2.310
5947096,-0.992,0.014,0.134,2.030,-6.650,-1.470
5947117,-0.989,0.001,0.133,2.730,-5.950,-1.400
5947135,-0.995,0.001,0.146,3.080,-5.460,-1.190
5947157,-0.998,0.005,0.134,3.990,-3.920,-1.260
5947178,-1.000,0.012,0.134,3.990,-2.730,-1.260
5947196,-0.996,0.010,0.129,4.830,-1.050,-1.400
5947215,-0.995,0.010,0.136,5.040,0.840,-1.610
5947241,-0.998,0.011,0.148,5.110,2.240,-1.610
5947260,-1.005,0.014,0.144,5.950,-0.560,-1.330
5947279,-1.000,0.021,0.131,6.160,-2.870,-1.820
5947295,-0.995,0.020,0.121,5.530,-3.640,-2.100
5947315,-0.989,0.023,0.128,5.180,-3.500,-2.730
5947335,-0.981,0.032,0.126,5.530,-4.060,-2.380
5947359,-0.973,0.029,0.128,6.090,-4.970,-1.820
5947378,-0.990,0.016,0.122,4.200,-7.000,-1.050
5947398,-0.998,0.133,0.133,-2.730,-11.550,0.070
5947418,-0.998,0.042,0.109,1.050,-11.410,3.150
5947442,-0.998,0.036,0.120,1.890,-7.630,5.250
5947462,-0.999,0.022,0.131,-1.750,-3.920,4.760
5947481,-0.998,0.013,0.151,-2.520,-1.190,2.730
5947502,-0.980,0.033,0.170,-2.240,0.980,-0.490
5947522,-0.972,0.061,0.161,0.770,2.730,-2.450
5947546,-0.995,0.061,0.188,0.770,1.960,-1.750
5947565,-0.984,0.032,0.169,0.630,3.360,-1.540
5947585,-1.003,0.024,0.205,0.700,7.000,-1.750
5947609,-1.003,0.026,0.194,2.940,6.440,-1.260
5947627,-1.002,0.008,0.164,1.820,8.960,0.000
5947650,-0.988,-0.023,0.162,2.030,13.230,-0.420
5947666,-1.011,-0.010,0.176,0.700,15.400,-1.890
5947685,-1.007,0.046,0.147,1.470,14.070,-5.180
5947709,-0.987,0.020,0.133,4.550,16.870,-6.720
5947724,-0.994,-0.001,0.142,3.150,18.200,-6.510
5947748,-1.024,0.011,0.130,1.260,17.150,-7.840
5947772,-1.034,0.037,0.099,0.630,16.590,-9.030
5947788,-1.035,0.009,0.101,2.660,18.830,-8.260
5947813,-1.047,-0.017,0.119,5.110,18.060,-7.210
5947832,-1.021,-0.006,0.096,6.300,16.730,-7.420
5947849,-0.977,0.024,0.074,6.230,16.800,-7.700
5947873,-0.971,0.036,0.061,4.620,20.160,-8.330
5947893,-1.017,0.010,0.102,4.060,20.510,-7.700
5947910,-1.037,-0.001,0.110,3.150,17.500,-6.860
5947929,-1.030,0.009,0.063,-0.280,12.810,-6.300
5947950,-1.034,0.013,0.012,-4.620,12.670,-6.230
5947970,-1.024,-0.004,-0.010,-4.760,12.880,-6.160
5947994,-1.005,-0.002,0.015,-1.120,12.670,-4.690
5948014,-1.019,-0.012,0.028,0.910,13.020,-2.520
5948034,-1.044,-0.017,0.035,0.420,11.130,0.280
5948056,-1.064,-0.022,0.030,-3.290,9.520,1.190
5948078,-1.044,-0.025,0.021,-5.880,6.370,0.630
5948097,-1.033,-0.021,0.004,-5.950,5.250,-0.420
5948115,-1.021,-0.021,-0.001,-4.830,5.810,-0.910
5948135,-1.026,-0.017,0.005,-3.570,7.210,-1.050
5948156,-1.031,-0.014,0.009,-2.030,5.040,-0.560
5948175,-1.025,-0.021,-0.004,-0.490,2.730,-0.420
5948200,-1.023,-0.023,-0.017,2.100,2.240,0.560
5948217,-1.024,-0.006,-0.026,3.570,2.310,1.610
5948240,-1.024,-0.000,-0.017,4.340,2.940,2.870
5948258,-1.028,0.003,-0.000,6.020,1.890,2.940
5948282,-1.024,0.020,0.006,5.460,0.980,3.500
5948303,-1.020,0.016,0.003,3.850,0.350,2.870
5948321,-1.018,-0.000,0.009,3.290,0.350,2.100
5948344,-1.030,-0.010,0.020,3.220,-0.980,1.400
5948361,-1.031,-0.016,0.013,3.570,-2.310,0.700
5948385,-1.021,-0.010,0.007,4.130,-3.080,-0.280
5948405,-1.009,0.001,-0.002,4.550,-3.080,-0.770
5948422,-1.002,0.011,-0.000,4.480,-2.660,-1.190
5948447,-1.009,0.014,-0.007,3.990,-1.960,-1.400
5948464,-1.017,0.016,-0.003,3.010,-1.890,-1.400
5948487,-1.016,0.013,-0.009,2.240,-1.890,-1.120
5948507,-1.020,0.011,-0.006,1.890,-1.750,-0.840
5948528,-1.016,0.007,-0.004,1.050,-2.100,-0.350
5948548,-1.010,0.010,-0.002,0.980,-2.310,-0.140
5948572,-1.008,0.013,0.003,0.840,-2.380,0.070
5948590,-1.013,0.004,0.003,0.490,-2.310,0.210
5948609,-1.011,0.004,0.006,0.210,-2.520,-0.070
5948632,-1.011,0.003,0.003,0.420,-2.870,-0.420
5948655,-1.016,0.000,0.002,0.560,-2.940,-0.770
5948676,-1.019,0.002,-0.005,-0.490,-3.570,-1.050
5948696,-1.021,0.003,-0.007,-0.700,-3.990,-1.330
5948714,-1.018,0.006,-0.020,-1.540,-4.900,-1.750
5948737,-1.003,0.004,-0.027,-1.050,-5.390,-1.960
5948758,-1.004,0.007,-0.032,-0.420,-4.620,-2.030
5948778,-1.013,0.003,-0.026,0.210,-5.390,-1.750
5948802,-1.020,-0.007,-0.021,-0.070,-5.180,-1.750
5948820,-1.051,0.001,-0.001,-0.910,-6.020,-1.680
5948845,-1.060,0.015,-0.009,-1.330,-10.220,-1.050
5948864,-1.050,0.027,-0.011,-1.470,-12.390,-0.700
5948887,-1.053,0.031,0.019,-2.030,-15.190,-0.140
5948908,-1.049,0.023,0.037,-3.850,-19.040,-0.560
5948928,-1.045,0.005,0.034,-4.690,-21.980,-1.260
5948946,-1.048,-0.014,0.045,-4.690,-23.380,-2.030
5948967,-1.047,-0.000,0.062,-4.130,-23.660,-2.310
5948989,-1.051,0.006,0.072,-3.570,-22.540,-1.540
5949011,-1.048,0.007,0.098,-2.310,-20.230,0.700
5949032,-1.039,0.000,0.126,0.630,-18.900,2.030
5949051,-1.027,-0.009,0.143,2.240,-15.960,2.520
5949070,-1.025,-0.002,0.163,2.730,-14.210,2.940
5949094,-1.005,0.005,0.183,4.550,-13.090,4.690
5949111,-1.037,-0.011,0.181,3.570,-10.990,3.570
5949136,-1.020,0.010,0.179,3.010,-9.380,4.900
5949154,-0.999,-0.002,0.153,3.080,-7.070,5.600
5949174,-1.008,-0.019,0.137,1.820,-1.820,4.830
5949194,-0.991,0.030,0.180,0.700,-3.570,3.290
5949217,-1.002,0.018,0.137,1.330,-3.010,3.640
5949236,-0.991,0.027,0.134,1.050,-2.030,3.150
5949260,-1.000,0.010,0.134,0.140,-3.780,2.590
5949282,-0.992,0.010,0.124,-0.840,-2.870,2.100
5949301,-0.994,-0.005,0.062,-2.800,-0.560,-2.170
5949320,-0.996,0.013,0.135,0.420,1.680,-2.870
5949343,-0.974,0.032,0.127,1.400,1.190,-3.640
5949363,-0.982,0.027,0.139,2.170,-2.030,-3.010
5949382,-0.985,0.028,0.115,3.220,-3.920,-2.730
5949404,-0.980,0.022,0.094,3.430,-4.620,-2.520
5949428,-0.982,0.018,0.085,3.640,-4.130,-1.610
5949446,-1.001,0.014,0.082,4.060,-4.130,-1.260
5949467,-0.997,0.010,0.090,5.110,-4.200,-0.630
5949485,-1.008,0.009,0.077,5.460,-3.850,-0.420
5949511,-1.012,0.024,0.084,5.880,-4.410,-0.980
5949530,-1.005,0.017,0.109,4.690,-6.020,-2.520
5949550,-1.010,0.033,0.110,1.960,-8.050,-3.850
5949574,-0.985,0.041,0.087,0.140,-8.330,-5.180
5949592,-0.984,0.048,0.094,-0.210,-7.770,-4.620
5949616,-0.978,0.038,0.089,-0.560,-6.580,-3.430
5949635,-0.981,0.029,0.101,-1.330,-4.690,-2.380
5949657,-0.989,0.009,0.100,-1.680,-2.940,-1.610
5949676,-0.998,0.005,0.112,-0.560,-2.100,-1.470
5949696,-1.005,0.014,0.109,0.770,-2.170,-1.260
5949716,-1.008,0.020,0.112,0.490,-2.100,-1.470
5949739,-1.009,0.021,0.124,0.070,-2.870,-2.030
5949761,-0.999,0.018,0.118,0.210,-4.130,-1.960
5949780,-0.998,0.010,0.110,0.700,-3.710,-1.680
5949800,-0.999,0.007,0.116,1.610,-4.060,-1.190
5949820,-1.001,0.017,0.139,2.730,-3.990,-0.910
5949844,-1.124,0.007,0.123,2.450,-3.780,-1.190
5949863,-1.007,0.012,0.138,2.030,-3.150,-0.630
5949883,-1.014,0.007,0.142,1.470,-3.570,-0.770
5949903,-1.006,0.012,0.137,1.820,-3.570,-0.770
5949922,-1.002,0.011,0.142,1.680,-3.640,-0.700
5949946,-1.000,0.012,0.145,1.750,-3.500,-0.560
5949966,-1.003,0.014,0.143,2.030,-3.220,-0.420
5949990,-1.011,0.017,0.141,2.310,-3.080,-0.280
5950014,-1.014,0.018,0.135,2.170,-3.360,-0.490
5950034,-1.003,0.022,0.124,2.030,-2.870,-0.770
5950054,-1.001,0.027,0.122,1.540,-2.800,-1.190
5950073,-0.992,0.020,0.119,0.980,-2.170,-1.330
5950090,-0.990,0.020,0.113,1.050,-0.980,-1.470
5950114,-0.989,0.016,0.123,0.980,0.140,-1.540
5950129,-0.996,0.009,0.130,0.350,0.140,-1.680
5950150,-1.007,0.012,0.136,1.120,-1.610,-2.100
5950174,-1.004,0.011,0.126,1.680,-3.570,-2.520
5950194,-1.006,0.003,0.126,0.070,-5.810,-2.170
5950217,-1.006,0.016,0.114,-2.800,-8.120,-1.680
5950235,-1.011,0.039,0.117,-4.340,-9.100,-1.610
5950259,-1.025,0.045,0.118,-4.900,-10.850,-0.280
5950278,-1.046,0.047,0.131,-4.900,-13.720,3.220
5950300,-1.022,0.036,0.119,-7.560,-14.210,4.200
5950314,-0.968,0.009,0.120,-9.870,-11.970,3.500
5950339,-0.957,0.005,0.164,-8.680,-8.260,3.010
5950356,-0.959,-0.007,0.197,-6.300,-8.400,3.150
5950376,-0.939,-0.034,0.188,-4.270,-5.670,2.520
5950400,-0.944,-0.028,0.196,-4.550,-1.190,0.630
5950419,-0.958,0.009,0.227,-2.520,3.360,-1.190
5950443,-0.987,0.024,0.254,0.280,3.920,-2.520
5950458,-0.995,0.009,0.217,1.680,4.410,-3.850
5950484,-0.993,-0.123,0.197,-1.260,7.210,-5.390
5950503,-0.978,0.019,0.191,-0.490,8.400,-8.610
5950522,-0.993,0.015,0.197,3.920,11.270,-8.750
5950547,-1.002,0.000,0.182,3.570,11.130,-6.020
5950567,-0.984,-0.047,0.165,-0.770,12.460,-5.250
5950586,-0.957,0.007,0.150,-0.840,16.940,-7.770
5950605,-1.004,0.044,0.197,2.870,18.270,-9.660
5950629,-1.028,-0.008,0.182,7.140,15.820,-9.030
5950649,-1.014,-0.028,0.157,8.750,16.590,-7.630
5950666,-1.019,-0.024,0.144,7.280,19.460,-7.560
5950684,-1.011,0.012,0.145,7.280,20.580,-8.610
5950706,-1.016,0.009,0.144,9.240,20.160,-9.380
5950725,-1.001,0.042,0.114,9.870,19.180,-9.310
5950750,-1.017,0.033,0.085,7.840,19.180,-6.440
5950770,-1.016,-0.006,0.050,-1.610,17.080,-5.460
5950788,-0.989,0.004,0.015,-6.860,15.610,-5.530
5950813,-0.992,0.008,0.006,-9.730,18.130,-4.620
5950831,-1.020,-0.005,0.031,-9.100,18.830,-3.990
5950850,-1.042,-0.003,0.052,-9.450,17.780,-1.960
5950875,-1.057,-0.045,0.045,-9.660,16.450,-0.140
5950893,-1.062,-0.058,0.047,-9.520,14.140,0.210
5950912,-1.054,-0.056,0.029,-8.260,9.590,-0.210
5950934,-1.036,-0.052,0.028,-1.750,8.750,0.490
5950954,-1.051,-0.038,0.028,-0.700,9.240,2.380
5950977,-1.080,-0.036,0.043,-0.350,7.910,4.690
5950998,-1.089,-0.037,0.056,0.840,6.440,5.740
5951017,-1.089,-0.029,0.069,2.590,3.850,6.230
5951042,-1.062,-0.029,0.051,5.950,0.280,6.230
5951061,-1.020,-0.019,0.032,7.980,-1.470,5.810
5951079,-0.998,-0.015,0.013,9.100,-2.030,5.180
5951102,-1.000,-0.003,0.009,9.170,-2.100,3.710
5951123,-1.011,0.005,0.012,7.770,-1.890,1.960
5951143,-1.026,0.005,0.014,6.650,-2.310,0.350
5951166,-1.035,0.011,0.007,6.720,-3.850,-0.350
5951187,-1.034,0.011,0.000,7.280,-4.760,-0.490
5951206,-1.022,0.008,0.007,7.000,-4.340,-0.490
5951227,-1.009,0.010,0.024,6.650,-4.060,-0.350
5951247,-1.013,0.008,0.036,6.860,-4.270,0.140
5951266,-1.009,0.006,0.035,7.000,-4.130,0.910
5951291,-1.011,0.003,0.037,7.210,-3.640,1.610
5951310,-1.010,0.010,0.039,7.350,-2.870,1.750
5951330,-1.014,0.015,0.041,6.440,-2.940,1.890
5951351,-1.003,0.014,0.024,4.830,-2.520,1.470
5951371,-1.006,0.020,0.027,3.360,-1.400,0.910
5951389,-1.014,0.021,0.039,1.960,-1.050,0.350
5951412,-1.019,0.015,0.040,0.350,-1.680,-0.420
5951432,-1.030,0.017,0.026,-0.420,-2.170,-0.490
5951453,-1.028,0.011,0.018,-0.980,-2.590,-0.420
5951473,-1.025,0.011,0.017,-0.910,-2.940,-0.420
5951491,-1.026,0.004,0.010,0.700,-3.220,-0.280
5951515,-1.028,0.005,0.003,1.890,-3.570,0.070
5951535,-1.020,0.000,0.004,0.910,-4.340,0.280
5951554,-1.019,0.000,0.000,-1.190,-6.090,-0.560
5951574,-1.032,-0.004,-0.003,-2.310,-7.630,-1.190
5951592,-1.043,0.003,0.012,-1.750,-9.940,-1.400
5951611,-1.054,0.018,0.019,-2.380,-12.460,-1.750
5951636,-1.047,0.022,0.013,-3.920,-15.610,-1.470
5951655,-1.030,0.018,0.024,-6.650,-17.990,-1.540
5951674,-1.031,0.019,0.051,-8.190,-19.250,-2.730
5951698,-1.045,0.006,0.088,-7.140,-21.700,-4.130
5951718,-1.063,0.003,0.107,-5.040,-22.540,-3.710
5951742,-1.065,-0.001,0.122,-1.820,-22.750,-1.820
5951759,-1.051,0.004,0.111,0.490,-21.210,1.470
5951782,-1.037,-0.009,0.132,2.240,-18.200,4.550
5951803,-1.017,-0.005,0.165,4.060,-16.730,5.250
5951819,-1.006,0.004,0.175,5.110,-15.960,6.860
5951839,-1.000,-0.009,0.154,7.140,-14.140,7.280
5951860,-1.006,0.018,0.167,6.860,-11.270,5.040
5951880,-0.988,0.023,0.170,3.500,-8.400,4.830
5951903,-0.996,0.020,0.176,1.540,-7.350,4.060
5951924,-0.998,0.022,0.173,-1.470,-5.950,2.100
5951939,-0.988,0.013,0.175,-2.100,-5.460,2.030
5951964,-0.989,-0.020,0.163,-2.030,-5.320,0.560
5951983,-0.996,0.000,0.163,-4.900,-5.180,-0.490
5952002,-1.001,0.013,0.163,-4.620,-4.060,-0.700
5952022,-1.009,0.014,0.156,-3.780,-4.970,-0.280
5952046,-0.978,0.006,0.135,-3.920,-3.850,-0.770
5952066,-0.973,0.023,0.157,-1.260,-3.010,-1.470
5952085,-0.988,0.036,0.148,-0.070,-0.140,-3.570
5952104,-0.979,0.036,0.158,3.710,-1.190,-3.430
5952129,-0.987,0.028,0.149,4.900,-2.450,-3.500
5952149,-1.004,0.022,0.143,4.480,-2.450,-3.570
5952165,-1.014,0.021,0.143,5.320,-2.730,-3.850
5952187,-1.027,0.019,0.131,6.720,-3.710,-2.450
5952211,-0.999,0.009,0.126,6.860,-3.430,-1.960
5952230,-0.990,0.018,0.138,5.670,-3.220,-1.330
5952252,-0.984,0.019,0.143,5.460,-3.430,-1.120
5952271,-0.988,0.011,0.142,5.810,-2.940,-0.630
5952288,-0.993,0.020,0.145,5.460,-2.170,0.000
5952310,-0.998,0.027,0.134,5.180,-2.800,0.980
5952330,-1.018,0.033,0.129,3.430,-3.360,1.470
5952350,-1.026,0.046,0.121,1.190,-3.360,1.750
5952375,-1.017,0.042,0.122,-1.750,-3.570,0.770
5952394,-1.011,0.043,0.138,-2.660,-3.570,-0.560
5952414,-1.004,0.042,0.144,-2.240,-4.340,-0.420
5952435,-0.988,0.028,0.129,-2.450,-4.690,-0.280
5952454,-0.981,0.020,0.120,-3.220,-3.920,0.000
5952477,-0.986,0.024,0.123,-4.200,-3.570,-0.350
5952498,-0.989,0.029,0.131,-4.830,-4.620,-0.700
5952517,-0.988,0.032,0.125,-5.040,-5.320,-1.050
5952541,-0.991,0.026,0.130,-5.600,-5.600,-1.400
5952559,-0.986,0.013,0.135,-5.740,-5.180,-1.680
5952578,-0.988,0.008,0.138,-4.410,-4.200,-1.610
5952598,-0.991,0.005,0.142,-2.310,-3.500,-1.190
5952622,-0.990,0.006,0.147,-1.400,-2.940,-1.050
5952642,-0.995,0.017,0.155,0.140,-2.170,-1.190
5952666,-0.999,0.019,0.162,1.330,-1.890,-0.770
5952682,-0.998,0.010,0.167,1.890,-1.400,-0.770
5952705,-0.999,0.014,0.169,2.100,-1.050,-1.190
5952725,-0.995,0.016,0.167,2.100,-0.630,-1.610
5952750,-0.998,0.018,0.169,2.660,-0.560,-1.610
5952769,-0.996,0.013,0.160,2.590,-0.140,-1.680
5952789,-0.998,0.020,0.163,2.870,0.490,-1.750
5952805,-1.002,0.023,0.158,3.710,-0.140,-2.030
5952828,-1.000,0.020,0.154,2.730,0.280,-2.310
5952850,-0.991,0.020,0.138,2.800,0.630,-2.310
5952866,-0.992,0.024,0.146,3.290,1.540,-2.240
5952890,-1.003,0.022,0.164,3.220,0.140,-2.030
5952910,-1.003,0.016,0.148,2.590,-1.400,-2.520
5952928,-0.999,0.023,0.142,2.100,-2.450,-2.730
5952950,-0.997,0.021,0.141,1.120,-2.870,-2.730
5952970,-1.008,0.034,0.154,0.840,-2.940,-2.450
5952990,-1.020,0.042,0.159,0.350,-5.040,-1.540
5953014,-1.017,0.029,0.147,-3.150,-6.230,-1.750
5953034,-0.997,0.030,0.145,-7.420,-4.620,-2.660
5953051,-0.990,0.030,0.160,-7.560,-4.130,-3.360
5953074,-0.993,0.021,0.163,-5.600,-4.830,-3.290
5953098,-0.975,0.002,0.161,-4.410,-1.890,-2.730
5953117,-0.974,-0.105,0.196,-1.540,-0.840,-1.680
5953138,-0.996,-0.014,0.200,-3.220,-0.140,-2.310
5953157,-0.985,0.000,0.192,-1.260,1.050,-3.360
5953182,-0.984,0.004,0.189,2.590,0.770,-2.170
5953202,-0.993,-0.003,0.195,5.180,0.070,-0.770
5953222,-0.997,-0.015,0.191,5.250,-0.070,0.770
5953242,-1.005,-0.022,0.186,5.530,1.120,-0.140
5953266,-0.993,0.021,0.179,6.930,3.430,-0.840
5953287,-1.019,0.031,0.191,6.090,1.610,0.210
5953304,-1.017,0.025,0.163,4.130,-1.050,-0.280
5953324,-0.991,0.037,0.147,2.590,1.750,-2.520
5953347,-0.996,0.038,0.176,3.360,7.280,-3.710
5953367,-1.024,0.014,0.197,3.500,7.490,-3.220
5953391,-1.018,0.004,0.191,2.520,2.800,-2.170
5953410,-0.986,-0.011,0.167,1.400,1.960,-2.380
5953426,-0.964,-0.008,0.155,1.890,5.600,-4.060
5953451,-1.002,-0.017,0.183,4.550,8.330,-5.950
5953471,-1.023,0.008,0.183,6.720,6.300,-4.760
5953490,-0.994,0.027,0.163,4.970,4.340,-4.690
5953514,-0.992,0.039,0.155,2.660,5.460,-6.020
5953532,-1.022,0.039,0.172,3.570,8.750,-4.760
5953552,-1.033,0.007,0.169,5.670,9.100,-2.800
5953574,-1.007,-0.009,0.128,1.610,6.930,-1.610
5953593,-0.970,0.001,0.110,-1.470,8.820,-2.170
5953617,-0.986,0.014,0.149,-2.170,13.160,-4.480
5953634,-1.024,0.017,0.179,0.560,12.320,-3.920
5953654,-1.025,-0.019,0.150,4.480,11.970,-2.660
5953676,-1.023,-0.018,0.116,5.250,12.950,-2.450
5953698,-1.006,0.029,0.098,2.310,13.580,-2.030
5953716,-0.992,0.002,0.089,1.260,13.790,-1.330
5953740,-1.001,0.010,0.086,0.000,14.980,-1.750
5953758,-1.013,0.021,0.095,-0.980,14.910,-0.350
5953779,-1.026,0.002,0.079,-2.310,12.810,0.350
5953802,-1.008,0.000,0.049,-7.350,13.300,-0.140
5953820,-1.019,-0.021,0.061,-7.840,14.700,-0.770
5953844,-1.039,-0.035,0.087,-6.720,13.860,-1.330
5953864,-1.064,-0.036,0.099,-5.880,12.110,-1.330
5953883,-1.060,-0.019,0.086,-4.340,9.590,-0.770
5953903,-1.047,0.001,0.064,-2.240,7.980,0.420
5953928,-1.017,0.003,0.044,-0.700,7.280,3.360
5953944,-1.008,0.008,0.033,-1.330,6.860,3.570
5953964,-1.003,0.010,0.033,-2.450,6.720,3.500
5953984,-1.011,0.011,0.030,-3.430,5.670,3.150
5954008,-1.020,0.002,0.025,-4.620,4.970,1.820
5954027,-1.025,0.002,0.020,-4.900,4.340,0.910
5954048,-1.024,-0.000,0.021,-4.410,3.920,0.350
5954068,-1.027,-0.004,0.019,-3.710,3.430,0.350
5954085,-1.023,-0.007,0.021,-3.220,2.660,0.280
5954105,-1.018,-0.012,0.022,-1.960,1.680,0.070
5954125,-1.019,-0.003,0.025,-0.700,0.420,-0.070
5954149,-1.024,0.002,0.021,1.190,0.070,0.770
5954166,-1.031,0.005,0.021,2.030,-0.210,1.050
5954191,-1.029,0.008,0.024,1.820,-0.980,0.630
5954208,-1.025,0.007,0.020,1.610,-1.260,0.280
5954230,-1.021,0.008,0.032,2.800,-0.980,0.070
5954250,-1.017,-0.001,0.031,3.080,-1.610,-0.210
5954270,-1.010,-0.009,0.025,3.010,-1.820,-0.700
5954293,-1.006,0.000,0.027,4.200,-1.470,-1.400
5954313,-1.011,-0.000,0.035,3.850,-1.260,-1.470
5954338,-1.012,-0.005,0.025,3.850,-1.890,-1.610
5954356,-1.008,0.001,0.022,4.480,-1.330,-1.540
5954376,-1.014,0.003,0.034,5.180,-1.120,-1.330
5954397,-1.022,0.011,0.031,5.740,-1.330,-1.050
5954421,-1.020,0.014,0.027,5.740,-1.680,-1.050
5954441,-1.017,0.019,0.026,5.250,-1.960,-1.050
5954459,-1.013,0.019,0.026,4.550,-1.680,-1.190
5954481,-1.014,0.017,0.030,3.430,-1.820,-1.260
5954501,-1.013,0.019,0.036,2.520,-2.240,-1.190
5954519,-1.016,0.017,0.039,1.960,-2.520,-1.190
5954537,-1.015,0.017,0.036,1.890,-2.730,-1.260
5954561,-1.017,0.007,0.038,1.190,-3.360,-1.190
5954582,-1.021,0.010,0.033,1.330,-3.710,-1.120
5954601,-1.019,0.011,0.032,0.980,-3.990,-0.910
5954621,-1.022,0.008,0.031,0.210,-3.990,-0.980
5954641,-1.016,0.012,0.032,-0.210,-4.130,-1.260
5954662,-1.014,0.011,0.029,0.630,-4.410,-1.540
5954686,-1.018,0.012,0.025,1.680,-5.460,-1.330
5954705,-1.019,0.017,0.019,1.960,-6.580,-0.980
5954726,-1.011,0.014,0.021,0.980,-7.980,-0.840
5954746,-1.030,0.003,0.045,0.560,-9.590,-0.910
5954771,-1.049,-0.004,0.062,1.960,-13.160,-0.910
5954790,-1.044,-0.001,0.041,3.570,-16.590,-0.770
5954814,-1.034,0.006,0.026,4.130,-16.520,-0.280
5954834,-1.042,0.009,0.053,4.270,-16.240,0.210
5954854,-1.041,0.009,0.069,3.780,-18.130,0.420
5954874,-1.032,0.010,0.077,2.660,-20.580,0.420
5954894,-1.022,0.013,0.084,0.980,-22.190,-0.210
5954916,-1.017,0.019,0.096,0.280,-22.890,-1.190
5954936,-1.020,0.023,0.103,0.000,-23.170,-1.890
5954957,-1.026,0.023,0.110,-0.980,-22.120,-2.310
5954981,-1.037,0.027,0.131,-2.870,-20.230,-1.890
5955001,-1.039,0.013,0.152,-2.590,-18.830,-1.330
5955018,-1.034,0.010,0.167,-1.820,-18.620,-0.280
5955041,-1.024,0.002,0.172,-0.910,-18.830,1.330
5955064,-1.006,0.004,0.174,0.910,-16.800,2.730
5955082,-1.002,0.019,0.191,3.290,-15.260,3.430
5955102,-0.998,0.019,0.190,2.520,-13.440,4.830
5955126,-1.124,0.014,0.191,0.980,-9.240,3.850
5955146,-1.000,0.024,0.204,1.190,-5.810,3.500
5955166,-1.006,0.039,0.221,0.280,-5.460,2.730
5955184,-1.002,0.012,0.204,0.070,-5.110,1.330
5955206,-1.009,-0.000,0.193,0.000,-3.290,3.640
5955229,-0.996,0.006,0.198,0.000,-1.050,3.850
5955248,-1.014,-0.004,0.209,0.350,-0.840,4.060
5955268,-0.998,0.020,0.197,0.630,-1.750,4.340
5955292,-0.991,0.020,0.177,0.280,-0.980,3.220
5955310,-0.982,0.013,0.170,0.140,0.420,0.140
5955330,-0.960,0.043,0.183,-0.980,4.690,-2.940
5955354,-0.959,0.044,0.186,1.610,3.640,-3.010
5955373,-0.955,0.039,0.177,2.520,1.750,-2.380
5955393,-0.976,0.037,0.170,3.080,1.120,-1.610
5955414,-0.996,0.041,0.170,4.340,1.260,-0.910
5955433,-1.003,0.042,0.167,4.200,2.730,-0.910
5955454,-1.021,0.037,0.168,3.360,2.800,-1.540
5955474,-1.017,0.031,0.172,2.800,1.960,-2.800
5955493,-1.011,0.037,0.169,2.100,1.400,-3.010
5955512,-1.003,0.036,0.157,2.380,1.680,-1.890
5955534,-0.994,0.032,0.163,2.310,2.870,-1.260
5955557,-0.994,0.038,0.157,2.800,3.010,-0.210
5955576,-0.990,0.019,0.146,2.800,3.010,0.350
5955601,-0.994,0.025,0.127,2.590,2.590,-0.560
5955617,-0.998,0.032,0.126,1.750,1.540,-1.330
5955640,-0.995,0.041,0.119,-0.980,1.190,-2.450
5955661,-0.995,0.051,0.118,-2.380,0.980,-2.940
5955680,-0.995,0.046,0.118,-3.500,1.190,-3.080
5955701,-0.995,0.032,0.128,-3.500,0.840,-3.010
5955720,-1.008,0.015,0.132,-3.920,-0.280,-2.310
5955744,-1.006,0.010,0.122,-3.080,-1.050,-1.750
5955764,-1.002,0.004,0.126,-2.380,-1.120,-1.470
5955779,-1.000,0.011,0.122,-1.330,-1.610,-1.400
5955804,-0.994,0.015,0.120,-0.490,-1.190,-1.190
5955823,-0.997,0.017,0.131,0.070,-0.980,-1.470
5955841,-1.003,0.020,0.127,1.960,-1.330,-1.400
5955864,-1.006,0.015,0.146,2.100,-1.260,-1.540
5955885,-1.005,0.015,0.137,1.400,-0.980,-1.750
5955901,-1.001,0.023,0.139,1.400,-0.280,-1.890
5955925,-1.010,0.021,0.152,0.700,-0.280,-2.100
5955945,-1.006,0.019,0.143,1.400,-1.400,-2.170
5955964,-0.997,0.021,0.132,1.820,-1.400,-2.030
5955981,-0.996,0.017,0.142,2.100,-1.540,-1.820
5956001,-0.994,0.013,0.139,2.730,-1.680,-1.610
5956025,-0.992,0.015,0.137,3.290,-1.540,-1.540
5956045,-1.000,0.017,0.137,3.710,-1.820,-1.540
5956064,-1.005,0.024,0.130,3.500,-1.540,-1.680
5956084,-1.006,0.026,0.131,3.360,-1.540,-2.100
5956103,-1.000,0.024,0.133,2.660,-1.750,-1.960
5956127,-0.987,0.029,0.122,1.890,-1.540,-2.030
5956147,-0.982,0.034,0.127,-0.210,-0.210,-2.100
5956167,-1.000,0.038,0.153,-1.750,-2.660,-1.960
5956187,-1.013,0.024,0.152,-1.890,-6.440,-1.680
5956205,-1.017,0.014,0.142,-2.520,-9.100,-1.750
5956225,-1.011,0.017,0.128,-1.610,-10.080,-2.310
5956249,-0.992,0.010,0.123,-1.120,-8.820,-3.010
5956268,-0.995,0.012,0.137,-1.330,-6.300,-3.430
5956292,-1.012,0.012,0.153,-2.590,-5.950,-3.990
5956311,-1.008,0.020,0.149,-1.120,-5.530,-3.640
5956331,-0.998,0.015,0.163,-3.780,-5.460,-1.890
5956348,-1.006,0.013,0.169,-3.290,-5.320,-1.680
5956373,-1.009,0.009,0.169,-1.890,-5.880,-0.770
5956387,-0.993,0.005,0.166,-1.260,-5.950,0.140
5956412,-0.993,0.001,0.187,-1.680,-4.690,0.840
5956433,-0.989,-0.010,0.191,-2.730,-4.900,0.840
5956452,-0.980,0.003,0.174,-2.170,-4.550,0.000
5956468,-0.976,0.031,0.180,-0.280,-3.150,-0.420
5956492,-1.001,0.029,0.198,2.730,-3.500,1.400
5956508,-1.012,0.007,0.188,4.410,-4.270,2.170
5956527,-1.012,0.006,0.181,2.940,-2.870,2.310
5956551,-1.015,0.005,0.174,1.050,-2.940,1.750
5956571,-0.999,0.020,0.169,0.770,-2.380,-0.070
5956595,-0.987,0.016,0.166,1.610,-0.070,-1.050
5956615,-0.988,0.027,0.194,-0.140,2.800,-3.150
5956635,-0.972,0.043,0.202,-1.960,3.430,-4.550
5956654,-0.982,0.036,0.196,-1.960,5.670,-5.180
5956674,-1.002,0.015,0.211,-0.490,6.720,-5.390
5956692,-0.995,0.009,0.207,-0.420,6.300,-4.900
5956712,-0.976,0.030,0.201,-0.420,8.750,-4.620
5956736,-0.992,0.004,0.215,0.280,9.730,-4.550
5956752,-1.005,-0.003,0.187,0.000,9.870,-4.550
5956776,-1.017,0.004,0.171,0.070,11.270,-5.180
5956795,-1.018,0.005,0.178,1.260,12.390,-5.810
5956815,-1.014,0.015,0.196,1.120,13.230,-5.740
5956834,-1.026,0.021,0.180,-0.630,11.480,-5.320
5956854,-1.003,0.007,0.147,-1.890,11.270,-5.530
5956876,-1.013,0.001,0.150,-2.310,12.180,-5.180
5956896,-1.013,-0.017,0.145,-0.140,11.200,-5.040
5956920,-0.995,-0.021,0.124,0.000,10.920,-4.690
5956938,-1.000,-0.009,0.118,-0.980,12.110,-4.690
5956959,-1.017,0.009,0.123,0.210,13.090,-4.550
5956978,-1.031,0.006,0.129,2.170,11.340,-3.570
5957002,-1.018,-0.005,0.099,1.330,10.430,-2.240
5957021,-1.027,-0.005,0.106,-1.680,11.410,-2.240
5957046,-1.031,0.006,0.115,-2.030,9.730,-3.360
5957065,-1.035,-0.006,0.112,0.420,8.120,-2.310
5957088,-1.036,-0.022,0.103,1.260,6.790,0.000
5957107,-1.018,-0.039,0.081,-0.700,5.460,0.770
5957131,-1.000,-0.013,0.068,-4.200,6.160,0.070
5957150,-1.012,-0.005,0.074,-4.200,5.810,-1.050
5957168,-1.019,-0.025,0.069,-1.750,5.670,-2.170
5957192,-1.024,-0.020,0.075,1.470,5.110,-0.560
5957212,-1.034,-0.034,0.083,3.080,4.690,1.260
5957231,-1.033,-0.032,0.082,3.010,4.060,2.380
5957252,-1.032,-0.012,0.081,2.030,3.290,2.590
5957272,-1.027,-0.000,0.075,0.980,1.960,2.520
5957291,-1.017,0.124,0.068,0.490,1.470,2.170
5957311,-1.009,0.003,0.060,0.280,1.470,1.680
5957331,-1.010,-0.004,0.060,0.420,1.680,1.540
5957351,-1.011,-0.007,0.061,1.540,1.540,1.610
5957375,-1.009,-0.019,0.053,2.310,0.910,2.100
5957393,-1.005,-0.021,0.048,2.590,1.330,2.170
5957416,-1.014,-0.007,0.053,3.710,2.380,1.960
5957436,-1.016,0.002,0.059,3.850,2.310,1.680
5957454,-1.022,0.004,0.057,3.150,1.680,1.400
5957473,-1.017,0.005,0.052,2.520,1.750,0.770
5957497,-1.020,0.002,0.062,2.380,1.890,0.630
5957517,-1.022,0.004,0.056,2.660,1.470,0.630
5957541,-1.018,0.004,0.052,3.500,1.470,0.770
5957561,-1.016,0.003,0.051,4.060,1.540,0.910
5957581,-1.015,0.002,0.054,4.480,1.260,0.910
5957600,-1.016,-0.001,0.054,4.900,1.050,0.910
5957624,-1.023,0.000,0.049,5.460,0.560,0.770
5957648,-1.025,-0.002,0.050,5.670,0.070,0.770
5957668,-1.027,-0.002,0.050,5.530,-0.840,0.630
5957692,-1.019,0.002,0.043,5.250,-2.310,0.210
5957712,-1.013,0.014,0.044,5.040,-2.170,0.000
5957730,-1.010,0.014,0.050,4.550,-2.100,0.000
5957752,-1.016,0.017,0.051,3.850,-2.590,-0.210
5957770,-1.015,0.022,0.049,3.640,-2.940,-0.280
5957794,-1.013,0.022,0.055,3.080,-3.220,-0.070
5957814,-1.018,0.025,0.062,2.380,-3.500,0.140
5957833,-1.019,0.026,0.061,1.820,-3.920,0.210
5957857,-1.014,0.021,0.058,1.260,-4.130,0.280
5957873,-1.019,0.019,0.061,1.050,-4.270,0.280
5957893,-1.021,0.016,0.065,0.770,-4.690,0.350
5957913,-1.023,0.015,0.066,0.490,-5.880,0.420
5957938,-1.017,0.016,0.062,0.070,-6.510,0.350
5957956,-1.017,0.020,0.068,-0.280,-6.930,0.210
5957976,-1.019,0.020,0.070,-0.140,-7.350,0.280
5957998,-1.020,0.018,0.063,0.070,-6.930,0.210
5958014,-1.022,0.015,0.067,0.140,-7.070,0.350
5958034,-1.020,0.012,0.069,0.700,-7.700,0.560
5958055,-1.015,0.012,0.065,0.910,-8.400,0.420
5958078,-1.014,0.010,0.062,0.840,-8.890,0.070
5958093,-1.018,0.014,0.064,0.980,-8.330,-0.210
5958119,-1.027,0.020,0.073,1.050,-7.280,-0.490
5958138,-1.027,0.025,0.079,-0.350,-7.910,-1.330
5958158,-1.026,0.030,0.084,-1.120,-10.010,-2.240
5958177,-1.033,0.032,0.078,-1.260,-13.160,-2.870
5958202,-1.028,0.020,0.070,-0.770,-15.190,-1.890
5958220,-1.027,0.012,0.074,0.140,-14.560,-0.980
5958238,-1.037,0.020,0.094,2.240,-13.650,-0.140
5958261,-1.043,0.024,0.109,3.220,-15.120,1.470
5958279,-1.032,0.008,0.105,4.130,-17.220,2.030
5958298,-1.028,0.003,0.130,4.130,-19.110,1.750
5958321,-1.017,0.012,0.144,3.360,-22.330,1.120
5958340,-1.010,0.015,0.131,2.450,-22.680,-0.070
5958365,-1.017,0.025,0.137,0.490,-20.720,-0.910
5958384,-1.023,0.028,0.155,-1.050,-19.320,-1.470
5958404,-1.021,0.031,0.184,-1.680,-18.130,-1.960
5958423,-1.024,0.023,0.207,-1.750,-17.990,-1.680
5958448,-1.007,0.028,0.201,-1.890,-18.340,-0.840
5958466,-0.979,0.028,0.202,-1.400,-17.220,-0.210
5958491,-0.981,0.020,0.211,-1.540,-14.700,0.490
5958510,-0.980,0.026,0.212,-1.190,-12.880,0.700
5958529,-0.982,0.029,0.222,-1.400,-9.520,0.840
5958549,-0.989,0.024,0.233,-1.680,-7.770,0.420
5958569,-0.986,0.023,0.228,-1.960,-6.090,-0.280
5958593,-0.996,0.024,0.243,-2.870,-3.710,-0.070
5958610,-0.992,0.019,0.239,-2.590,-2.170,-0.420
5958633,-0.991,0.014,0.231,-3.290,0.210,-0.840
5958653,-1.003,0.004,0.234,-3.290,2.520,-0.700
5958672,-1.015,0.005,0.221,-2.870,6.160,-0.280
5958697,-1.005,-0.002,0.226,-0.280,8.050,-0.210
5958717,-1.008,0.005,0.224,-0.420,9.520,-0.490
5958736,-1.012,0.009,0.205,-0.560,9.940,-2.030
5958756,-0.989,0.024,0.203,1.470,9.660,-2.660
5958777,-0.980,0.032,0.192,2.870,10.290,-2.940
5958801,-0.994,0.042,0.198,2.800,9.660,-2.450
5958821,-0.992,0.036,0.190,2.660,7.070,-2.030
5958840,-0.986,0.035,0.165,2.870,6.160,-2.030
5958865,-0.984,0.025,0.160,3.220,5.880,-1.960
5958885,-0.982,0.021,0.160,3.500,5.670,-2.100
5958905,-0.987,0.023,0.151,4.340,4.830,-1.820
5958924,-0.984,0.020,0.142,4.200,4.900,-1.470
5958943,-0.989,0.022,0.145,3.850,5.530,-1.330
5958966,-0.995,0.023,0.148,3.080,4.760,-1.330
5958989,-1.006,0.030,0.126,1.750,4.550,-1.680
5959009,-1.004,0.035,0.137,1.750,4.550,-1.610
5959029,-1.005,0.036,0.146,2.590,3.990,-1.120
5959049,-1.001,0.034,0.143,2.100,2.660,-0.210
5959073,-1.003,0.033,0.144,-0.210,1.330,0.560
5959093,-1.006,0.023,0.132,-1.750,0.210,0.140
5959116,-1.019,0.035,0.138,-2.450,-1.050,-0.700
5959137,-1.015,0.032,0.131,-3.080,-1.330,-1.330
5959159,-1.018,0.024,0.128,-3.990,-1.330,-1.470
5959179,-1.008,0.017,0.123,-5.250,-1.050,-1.820
5959198,-1.004,0.016,0.124,-5.740,-0.910,-2.170
5959223,-1.010,0.015,0.130,-5.460,-1.260,-1.820
5959241,-1.016,0.008,0.126,-4.900,-2.030,-1.890
5959260,-1.007,-0.002,0.117,-4.830,-2.240,-2.380
5959285,-1.012,0.009,0.131,-3.780,-2.240,-1.610
5959303,-0.997,0.008,0.121,-3.640,-2.170,-1.400
5959325,-0.988,0.015,0.148,-1.260,-1.260,-1.470
5959345,-0.990,0.013,0.146,0.350,-1.960,-1.330
5959367,-0.984,0.014,0.126,1.750,-2.170,-1.750
5959387,-0.998,0.014,0.142,2.100,-1.960,-1.680
5959411,-1.000,0.007,0.141,1.890,-2.590,-1.260
5959431,-0.999,0.008,0.139,1.540,-2.660,-1.470
5959450,-0.984,0.011,0.129,1.540,-2.030,-1.960
5959470,-0.995,0.011,0.143,1.330,-1.820,-1.750
5959494,-0.993,0.015,0.137,1.750,-0.560,-1.680
5959514,-0.998,0.012,0.153,2.800,-0.210,-1.470
5959533,-1.004,0.009,0.155,3.010,-0.140,-1.400
5959553,-1.005,0.015,0.148,3.500,-0.210,-1.470
5959576,-1.004,0.018,0.142,3.920,-0.140,-1.470
5959597,-1.003,0.024,0.141,3.990,0.700,-1.680
5959614,-1.005,0.025,0.142,3.640,0.770,-1.610
5959635,-1.010,0.020,0.143,2.800,0.350,-1.610
5959654,-1.003,0.018,0.135,1.400,0.140,-1.750
5959679,-0.998,0.020,0.133,0.770,0.560,-1.890
5959700,-1.005,0.016,0.138,0.700,0.350,-1.680
5959718,-1.000,0.015,0.135,0.910,0.280,-1.680
5959741,-1.002,0.019,0.139,0.910,0.630,-1.680
5959765,-1.006,0.015,0.142,0.490,-0.070,-2.170
5959785,-1.012,0.014,0.140,-0.980,-1.750,-2.310
5959804,-0.999,0.019,0.119,-0.840,-1.190,-2.310
5959825,-0.992,0.008,0.133,-0.700,0.140,-2.240
5959845,-0.999,0.009,0.147,-0.280,-0.350,-2.450
5959869,-1.011,0.004,0.147,-1.890,-2.730,-3.220
5959889,-1.009,0.015,0.129,-1.610,-4.060,-3.220
5959908,-0.993,0.004,0.132,-2.310,-3.010,-2.800
5959927,-0.992,-0.014,0.148,-2.380,-2.170,-3.990
5959946,-1.012,-0.021,0.166,16.940,-4.060,-2.520
5959971,-1.018,0.012,0.152,2.170,-4.550,-3.850
5959986,-1.003,0.035,0.141,3.640,-3.220,-3.850
5960011,-0.993,0.024,0.157,3.290,-0.560,-2.870
5960031,-1.016,0.000,0.175,-0.490,-1.540,-3.920
5960051,-1.015,0.034,0.152,-2.100,-3.570,-5.040
5960069,-1.005,0.031,0.142,-1.960,-2.310,-4.690
5960093,-1.002,0.009,0.163,-1.540,-2.030,-2.170
5960109,-0.991,-0.041,0.159,-3.150,-2.380,-1.120
5960131,-0.986,-0.030,0.159,-3.570,-1.330,-1.120
5960153,-0.999,0.001,0.162,-1.400,-0.700,-0.980
5960168,-1.003,0.003,0.169,0.980,0.210,-0.280
5960193,-1.002,-0.035,0.161,2.310,0.980,1.050
5960213,-0.996,-0.028,0.163,2.380,2.800,0.560
5960229,-0.991,-0.011,0.169,3.010,4.480,0.210
5960251,-1.003,-0.002,0.186,4.340,4.760,0.140
5960275,-1.006,-0.012,0.178,5.110,5.740,-0.350
5960295,-1.011,-0.007,0.175,2.380,4.760,-0.350
5960315,-0.993,0.019,0.151,0.140,4.340,-1.120
5960339,-0.993,0.031,0.163,-0.420,6.230,-2.800
5960359,-0.997,0.019,0.178,0.630,7.560,-3.220
5960378,-0.995,0.016,0.162,0.910,7.420,-3.080
5960398,-0.993,-0.005,0.139,0.280,7.280,-3.220
5960418,-1.004,-0.006,0.132,1.540,8.960,-2.730
5960442,-1.020,-0.005,0.146,3.850,9.730,-1.540
5960462,-1.026,-0.018,0.146,4.970,8.750,0.140
5960482,-0.992,-0.020,0.095,2.170,8.680,-0.070
5960502,-0.980,0.013,0.093,0.420,11.760,-2.240
5960521,-1.001,0.009,0.125,1.960,13.230,-3.010
5960545,-1.004,0.006,0.127,2.940,10.430,-1.120
5960569,-0.996,0.016,0.088,1.190,9.800,0.490
5960589,-1.004,0.028,0.075,0.070,12.460,1.470
5960605,-1.046,0.018,0.090,0.000,14.490,2.170
5960628,-1.072,-0.010,0.112,0.070,14.280,1.890
5960648,-1.078,-0.032,0.101,0.070,11.550,1.120
5960668,-1.049,-0.022,0.068,-0.070,9.660,0.490
5960687,-1.016,-0.017,0.052,-1.190,7.700,-0.070
5960712,-0.994,-0.008,0.024,-1.470,6.790,-1.050
5960728,-0.991,0.013,0.054,-1.680,7.700,-0.910
5960751,-1.027,0.011,0.077,-2.590,6.650,-0.770
5960768,-1.046,0.006,0.068,-3.080,4.480,-0.840
5960791,-1.037,-0.001,0.040,-2.590,3.780,-0.560
5960811,-1.033,-0.002,0.039,-1.050,3.640,-0.490
5960831,-1.027,-0.003,0.041,0.280,3.220,-0.140
5960855,-1.025,0.002,0.050,1.050,2.660,0.350
5960875,-1.022,0.002,0.051,1.960,1.400,0.700
5960895,-1.017,0.003,0.050,2.100,0.630,0.910
5960913,-1.017,-0.002,0.046,1.820,-0.140,0.350
5960938,-1.014,-0.013,0.041,1.260,-1.820,-0.630
5960957,-1.010,-0.009,0.034,1.190,-2.730,-1.330
5960972,-1.008,0.002,0.024,1.540,-2.100,-1.470
5960997,-1.022,0.007,0.041,1.610,-1.190,-1.050
5961016,-1.034,0.008,0.051,1.540,-1.190,-0.770
5961041,-1.032,0.005,0.057,1.960,-2.170,-0.350
5961059,-1.028,0.004,0.061,2.100,-3.290,-0.210
5961080,-1.019,0.004,0.056,2.870,-4.830,17.780
5961098,-1.014,0.008,0.049,3.430,-5.040,-0.140
5961121,-1.015,0.011,0.043,3.360,-4.410,-0.140
5961145,-1.013,0.005,0.051,3.150,-4.270,-0.210
5961165,-1.012,0.006,0.047,2.940,-4.340,-0.420
5961183,-1.013,0.010,0.045,2.520,-4.130,-0.700
5961203,-1.012,0.007,0.045,2.450,-3.710,-0.840
5961223,-1.016,0.006,0.052,2.240,-3.220,-0.910
5961242,-1.018,0.008,0.060,2.100,-3.640,-0.770
5961262,-1.015,0.010,0.061,1.820,-4.060,-0.420
5961287,-1.015,0.012,0.061,1.680,-3.990,-0.140
5961306,-1.013,0.016,0.062,1.680,-3.640,-0.070
5961325,-1.014,0.011,0.065,1.890,-3.710,0.140
5961349,-1.016,0.011,0.065,1.750,-4.130,0.350
5961368,-1.017,0.011,0.066,1.470,-4.410,0.280
5961392,-1.019,0.012,0.067,1.330,-4.550,0.070
5961412,-1.018,0.013,0.065,1.610,-5.180,0.140
5961431,-1.020,0.009,0.062,1.330,-6.020,-0.070
5961449,-1.019,0.012,0.050,1.400,-7.350,-0.070
5961473,-1.007,0.016,0.045,1.260,-7.350,-0.280
5961491,-1.017,0.017,0.048,1.890,-6.300,-0.490
5961515,-1.018,0.013,0.045,1.750,-5.950,-0.350
5961535,-1.006,0.012,0.035,0.490,-5.740,-0.840
5961555,-1.019,0.014,0.053,0.280,-6.020,-1.260
5961572,-1.038,0.008,0.069,0.490,-6.930,-1.050
5961594,-1.046,0.007,0.066,0.070,-8.260,-1.120
5961615,-1.051,0.009,0.078,0.000,-9.520,-1.610
5961634,-1.054,0.020,0.084,0.210,-11.340,-1.890
5961654,-1.048,0.016,0.098,0.910,-12.950,-2.170
5961678,-1.041,0.000,0.104,2.170,-15.190,-1.750
5961698,-1.023,0.009,0.105,2.870,-15.960,-1.610
5961715,-1.016,0.012,0.111,3.500,-14.700,-1.610
5961738,-1.020,0.019,0.137,4.130,-12.740,-0.630
5961759,-1.026,0.005,0.152,3.570,-12.880,-0.070
5961778,-1.025,0.015,0.160,2.520,-12.040,-0.280
5961803,-1.019,0.016,0.169,1.890,-11.830,-0.350
5961821,-0.997,0.011,0.179,1.750,-10.920,0.140
5961845,-1.003,0.022,0.180,1.540,-8.680,1.120
5961865,-1.008,0.019,0.185,0.630,-7.840,2.100
5961884,-1.002,0.013,0.178,0.070,-6.930,2.100
5961903,-0.995,0.025,0.170,-1.120,-6.090,1.470
5961923,-0.986,0.018,0.162,-2.660,-4.270,0.840
5961947,-0.992,-0.006,0.162,-1.890,-0.420,0.770
5961966,-1.007,-0.012,0.187,-0.490,1.820,0.770
5961990,-1.020,-0.006,0.189,0.770,0.560,0.840
5962009,-1.021,-0.003,0.174,1.120,-0.560,0.630
5962029,-1.013,0.004,0.156,0.770,-1.190,0.000
5962048,-1.000,0.026,0.152,1.400,-1.610,-1.190
5962072,-1.001,0.036,0.149,0.980,-1.400,-2.170
5962089,-1.002,0.036,0.153,0.350,-1.890,-1.750
5962107,-0.998,0.018,0.148,0.700,-1.610,-3.220
5962131,-0.985,0.031,0.142,1.540,-2.030,-1.890
5962152,-0.983,0.012,0.141,1.470,-2.030,-1.680
5962172,-0.981,0.017,0.148,0.770,-1.820,-2.660
5962191,-0.986,0.020,0.152,0.630,-1.820,-3.360
5962210,-0.999,0.020,0.155,1.190,-1.820,-3.920
5962230,-1.000,0.016,0.144,0.840,-2.030,-4.270
5962249,-0.997,0.013,0.135,0.910,-1.330,-3.430
5962274,-1.007,0.009,0.142,1.540,-0.350,-2.660
5962294,-1.014,0.015,0.142,2.870,0.000,-2.240
5962311,-1.027,0.013,0.154,2.800,0.490,-1.190
5962332,-1.032,0.011,0.156,3.080,0.280,-0.910
5962351,-1.017,0.016,0.157,3.220,0.280,-0.840
5962376,-1.008,0.017,0.163,3.920,-1.050,-0.910
5962394,-0.998,0.015,0.156,3.850,-2.310,-0.770
5962418,-0.984,0.020,0.142,3.570,-2.800,-0.840
5962438,-0.987,0.021,0.143,2.380,-2.380,-0.630
5962454,-0.985,0.021,0.137,1.680,-2.450,-0.420
5962478,-0.985,0.022,0.131,0.980,-2.380,-0.350
5962498,-0.990,0.024,0.130,0.140,-2.100,-0.630
5962518,-0.996,0.021,0.119,-1.190,-1.610,-1.190
5962535,-1.008,0.021,0.121,-1.890,-1.610,-1.190
5962555,-1.010,0.021,0.121,-2.450,-1.820,-1.400
5962579,-1.014,0.013,0.118,-2.940,-2.730,-0.840
5962600,-1.013,0.008,0.129,-3.290,-3.430,-0.840
5962619,-1.004,0.012,0.128,-3.290,-4.060,-0.420
5962637,-0.995,0.009,0.128,-3.080,-3.850,-0.210
5962657,-0.994,0.013,0.135,-3.080,-3.780,-0.140
5962677,-0.988,0.009,0.136,-2.940,-3.920,-0.210
5962701,-0.991,0.008,0.144,-3.010,-2.940,-1.120
5962721,-0.993,0.001,0.146,-2.590,-1.750,-1.400
5962741,-0.997,0.002,0.149,-2.590,-0.840,-1.190
5962765,-1.008,0.006,0.163,-2.170,-0.350,-0.770
5962784,-1.009,0.014,0.171,-1.680,-0.420,-0.560
5962804,-1.013,0.012,0.167,-1.610,-0.980,-0.350
5962821,-1.006,0.016,0.167,-1.470,-0.980,-0.280
5962845,-1.006,0.015,0.169,-0.910,-0.700,-0.350
5962862,-1.004,0.015,0.163,-0.420,-0.700,-0.140
5962882,-1.003,0.019,0.155,0.350,-0.630,0.140
5962902,-1.002,0.020,0.148,0.140,-0.140,-0.140
5962926,-1.001,0.022,0.148,-0.140,0.140,-0.350
5962946,-1.003,0.020,0.149,-0.140,0.280,-0.210
5962965,-1.001,0.013,0.143,-0.280,0.350,-0.210
5962982,-1.003,0.014,0.143,-0.560,0.140,-0.210
5963002,-1.008,0.011,0.140,-0.980,-0.280,-0.070
5963023,-1.005,0.007,0.137,-1.330,-0.910,-0.350
5963043,-1.007,0.009,0.140,-1.330,-1.120,-0.350
5963062,-0.999,0.016,0.131,-0.280,-1.890,-0.490
5963086,-0.996,0.020,0.132,-0.840,-2.590,-0.560
5963106,-0.994,0.015,0.132,-2.030,-3.150,-0.700
5963126,-0.992,0.015,0.133,-2.940,-3.570,-1.260
5963150,-0.991,0.029,0.136,-1.680,-4.340,-1.470
5963170,-0.998,0.023,0.136,0.140,-4.690,-1.330
5963186,-1.005,0.017,0.140,0.910,-4.480,-0.840
5963208,-1.009,0.014,0.143,0.420,-4.060,-0.910
5963230,-1.005,0.010,0.144,-0.560,-3.220,-1.680
5963250,-1.004,0.011,0.152,-1.120,-2.660,-2.310
5963270,-0.993,0.059,0.158,0.560,-3.850,-1.400
5963289,-0.992,0.016,0.156,-0.350,-3.360,-1.750
5963306,-1.005,0.023,0.158,1.120,-3.430,-1.400
5963327,-1.009,0.008,0.163,1.120,-3.850,-0.070
5963351,-0.992,-0.009,0.151,-0.350,-3.290,-0.070
5963372,-0.995,0.005,0.152,-0.280,-1.890,-1.400
5963391,-0.990,0.027,0.172,3.290,-0.420,-1.120
5963410,-0.998,0.008,0.174,4.830,-0.910,-0.420
5963429,-0.995,0.002,0.169,3.220,-0.560,0.280
5963446,-0.995,0.013,0.181,1.890,0.980,0.140
5963472,-1.013,0.022,0.192,1.470,2.380,-0.980
5963491,-1.022,0.025,0.190,3.430,2.730,-0.910
5963511,-0.996,0.017,0.150,4.550,3.150,-0.980
5963530,-0.990,0.043,0.174,4.410,3.990,-0.280
5963548,-0.996,0.017,0.193,3.500,1.820,0.490
5963572,-1.017,-0.007,0.190,2.380,-1.260,0.280
5963593,-0.987,-0.012,0.157,2.240,-2.380,-0.280
5963612,-0.969,0.012,0.146,1.400,0.630,-0.840
5963632,-0.963,-0.001,0.174,0.700,3.920,-2.380
5963651,-0.965,-0.016,0.172,1.750,4.760,-3.850
5963675,-0.987,-0.006,0.163,6.300,9.310,-5.390
5963695,-1.017,-0.000,0.188,9.450,11.760,-6.160
5963715,-1.007,0.001,0.192,9.030,10.710,-5.460
5963739,-1.002,0.031,0.166,7.210,10.570,-5.880
5963759,-1.003,0.041,0.151,5.180,11.830,-5.180
5963779,-1.007,0.047,0.160,6.370,14.910,-4.270
5963798,-1.021,0.022,0.161,7.070,14.910,-3.150
5963822,-1.010,0.011,0.145,7.420,14.980,-0.770
5963843,-1.003,0.009,0.129,5.530,13.230,-0.700
5963862,-1.006,0.026,0.115,3.500,14.280,-2.030
5963880,-1.018,0.048,0.106,3.570,15.540,-2.940
5963902,-1.027,0.046,0.097,0.840,14.560,-0.350
5963918,-1.011,0.024,0.071,-3.360,12.530,0.350
5963938,-1.011,0.020,0.057,-4.970,12.180,0.910
5963962,-1.027,-0.013,0.084,-5.180,11.970,0.000
5963982,-1.048,0.004,0.076,-4.550,10.780,0.560
5964002,-1.057,-0.021,0.065,-4.340,10.640,-0.280
5964022,-1.060,-0.015,0.067,-3.850,8.050,0.350
5964043,-1.044,-0.017,0.067,-3.150,4.270,0.140
5964062,-1.021,-0.005,0.056,-3.010,2.240,17.780
5964080,-1.010,-0.012,0.043,-1.960,2.100,-0.630
5964105,-1.030,-0.003,0.048,-1.120,3.080,-0.840
5964124,-1.040,0.006,0.054,-0.210,2.730,0.350
5964144,-1.050,0.013,0.059,0.140,0.420,1.470
5964163,-1.043,0.011,0.048,0.770,-1.120,1.820
5964183,-1.034,0.007,0.050,1.190,-1.050,1.470
5964207,-1.025,0.006,0.048,1.400,-1.050,1.190
5964227,-1.012,0.004,0.048,2.730,-1.470,1.120
5964247,-1.002,0.006,0.046,3.220,-1.400,0.630
5964267,-1.011,0.007,0.048,2.730,-0.770,-0.140
5964283,-1.018,0.010,0.049,2.450,0.000,-0.490
5964305,-1.017,0.009,0.054,2.450,0.000,-0.980
5964327,-1.018,0.008,0.065,2.870,0.000,-1.470
5964347,-1.023,0.006,0.067,3.150,-0.490,-1.540
5964370,-1.028,0.011,0.069,3.360,-1.260,-1.750
5964391,-1.026,0.017,0.063,3.920,-2.590,-1.750
5964408,-1.021,0.020,0.061,3.850,-3.220,-1.540
5964428,-1.015,0.019,0.061,3.710,-3.500,-1.330
5964447,-1.013,0.020,0.053,3.360,-3.220,-0.980
5964472,-1.009,0.020,0.060,3.080,-2.660,-0.700
5964493,-1.013,0.019,0.062,2.870,-2.450,-0.490
5964512,-1.016,0.020,0.063,2.520,-2.450,-0.350
5964528,-1.017,0.020,0.065,2.310,-2.800,-0.210
5964548,-1.016,0.017,0.064,1.960,-3.360,-0.070
5964572,-1.016,0.019,0.066,1.260,-3.640,-0.420
5964592,-1.017,0.016,0.069,0.280,-3.990,-0.560
5964611,-1.016,0.013,0.066,-0.280,-4.200,-0.560
5964631,-1.011,0.017,0.066,-0.420,-3.780,-0.700
5964652,-1.011,0.018,0.067,-0.560,-3.710,-0.560
5964677,-1.009,0.016,0.070,-0.840,-3.920,-0.420
5964696,-1.010,0.018,0.071,-0.910,-4.060,-0.420
5964716,-1.011,0.020,0.070,0.070,-3.920,-0.420
5964735,-1.018,0.015,0.077,-0.070,-4.620,-0.350
5964759,-1.016,0.011,0.065,-0.560,-4.130,-0.630
5964777,-1.024,0.018,0.080,-0.840,-3.500,-0.770
5964799,-1.030,0.016,0.080,-1.050,-4.550,-1.050
5964819,-1.021,0.024,0.070,-0.630,-5.670,-1.190
5964843,-1.011,0.018,0.063,-0.070,-6.020,-1.050
5964863,-1.009,0.009,0.058,0.210,-6.230,-0.770
5964883,-1.015,0.008,0.056,0.700,-6.580,-0.490
5964907,-1.017,0.012,0.054,0.140,-7.070,-0.140
5964927,-1.018,0.015,0.059,0.000,-6.790,-0.280
5964947,-1.024,0.017,0.069,0.840,-7.070,-0.490
5964968,-1.026,0.019,0.078,1.610,-8.050,-0.350
5964987,-1.029,0.018,0.069,0.910,-10.080,0.070
5965007,-1.030,0.019,0.074,-0.280,-10.850,0.000
5965028,-1.031,0.020,0.085,-1.820,-11.760,-0.700
5965047,-1.035,0.023,0.094,-1.960,-11.900,-1.540
5965072,-1.038,0.020,0.113,-1.470,-13.230,-2.030
5965092,-1.031,0.021,0.115,-2.520,-14.910,-2.170
5965109,-1.022,0.024,0.122,-2.800,-15.260,-2.520
5965128,-1.024,0.031,0.126,-2.940,-15.680,-3.010
5965149,-1.016,0.025,0.127,-3.080,-14.350,-2.940
5965170,-1.022,0.016,0.150,-2.940,-11.130,-2.170
5965194,-1.024,0.010,0.170,-2.030,-9.800,-1.120
5965214,-1.018,0.006,0.174,-1.190,-8.960,-0.560
5965234,-1.009,0.016,0.181,-0.490,-7.490,-0.350
5965253,-1.002,0.015,0.188,0.000,-5.670,-0.350
5965273,-0.995,0.017,0.182,-0.280,-3.220,-0.280
5965296,-0.992,-0.000,0.202,-0.630,-0.840,-1.610
5965316,-0.989,0.020,0.184,-0.770,0.910,-2.800
5965339,-0.997,-0.120,0.175,-1.120,3.920,-2.730
5965359,-0.992,0.004,0.173,-0.770,6.370,-2.520
5965378,-1.016,-0.012,0.184,0.630,7.980,-1.470
5965402,-1.028,-0.014,0.191,2.240,9.100,0.210
5965422,-1.040,-0.011,0.186,3.080,7.560,1.120
5965442,-1.029,0.012,0.166,3.990,4.550,0.630
5965459,-1.023,0.025,0.151,3.010,3.080,0.070
5965478,-1.009,0.030,0.149,1.540,1.260,-1.050
5965502,-1.002,0.040,0.145,-0.210,-1.470,-2.310
5965522,-0.990,0.039,0.142,0.210,-2.870,-2.520
5965547,-0.987,0.035,0.140,-0.770,-3.780,-1.820
5965566,-0.989,0.009,0.114,-1.540,-3.850,-1.750
5965586,-0.992,0.026,0.122,0.700,0.560,-3.710
5965606,-1.009,0.007,0.141,1.890,0.280,-2.660
5965626,-1.011,0.011,0.001,3.150,-0.630,-1.960
5965646,-1.009,0.018,0.123,3.570,-0.560,-1.400
5965666,-0.998,0.013,0.122,3.640,-1.190,-0.910
5965685,-0.985,0.019,0.116,3.710,-0.350,-0.630
5965706,-0.996,0.015,0.124,3.570,-0.630,0.140
5965730,-1.002,0.014,0.132,2.730,-1.610,0.490
5965755,-1.000,0.018,0.128,1.540,-2.240,0.280
5965769,-1.000,0.017,0.122,0.560,-2.520,0.350
5965794,-0.999,0.019,0.119,0.210,-3.010,-0.070
5965813,-0.991,0.008,0.125,0.140,-3.430,-0.560
5965834,-0.991,0.016,0.122,-0.630,-4.130,-0.980
5965855,-1.001,0.025,0.126,-0.490,-4.620,-0.630
5965874,-1.005,0.016,0.120,-1.120,-5.110,-0.490
5965894,-1.001,0.012,0.112,-1.610,-4.340,-0.350
5965911,-1.008,0.019,0.120,-1.890,-4.130,-0.210
5965935,-1.014,0.017,0.118,-1.820,-5.250,0.140
5965953,-1.010,0.011,0.115,-2.450,-5.530,-0.210
5965975,-1.014,0.020,0.120,-2.450,-5.740,-0.910
5965999,-1.020,0.014,0.129,-2.450,-7.350,-1.890
5966019,-1.006,0.006,0.123,-2.660,-8.260,-3.220
5966039,-0.995,0.019,0.125,-1.750,-7.350,-3.710
5966059,-0.982,0.012,0.126,-2.380,-6.860,-3.920
5966079,-0.980,0.010,0.130,-2.730,-5.110,-3.780
5966103,-0.982,0.015,0.139,-2.310,-2.380,-3.570
5966123,-0.994,0.012,0.151,-0.420,-1.820,-2.730
5966139,-0.997,0.003,0.156,0.560,-1.680,-2.310
5966158,-1.002,0.001,0.157,1.890,-2.100,-1.890
5966178,-1.001,-0.002,0.160,2.660,-1.610,-1.750
5966203,-1.005,0.000,0.166,2.800,-1.260,-1.890
5966221,-1.004,0.006,0.164,2.730,-1.190,-1.890
5966241,-1.002,0.002,0.162,2.660,-0.700,-1.960
5966264,-1.001,0.000,0.156,2.380,-0.700,-2.100
5966284,-1.000,-0.001,0.147,2.240,-0.140,-2.030
5966304,-1.001,0.001,0.157,2.590,0.700,-2.100
5966328,-1.008,0.013,0.151,3.640,0.420,-1.750
5966348,-1.006,0.009,0.148,3.080,0.420,-1.610
5966372,-1.002,0.007,0.139,2.450,0.910,-1.890
5966392,-1.001,0.008,0.148,1.890,1.190,-1.890
5966412,-1.006,0.011,0.148,1.750,0.420,-1.680
5966432,-1.004,0.008,0.144,1.610,0.000,-1.470
5966452,-1.005,0.009,0.138,1.260,-0.770,-1.330
5966472,-1.003,0.005,0.129,0.000,-1.470,-1.330
5966488,-0.998,0.002,0.127,-0.560,-2.240,-1.400
5966512,-0.985,0.006,0.119,-1.260,-1.960,-1.820
5966529,-0.989,0.010,0.122,-1.820,-1.890,-1.960
5966548,-0.990,0.014,0.123,-2.800,-1.470,-2.310
5966573,-0.994,0.020,0.125,-3.220,-1.680,-2.800
5966593,-0.996,0.021,0.125,-3.010,-1.540,-3.360
5966611,-0.993,0.023,0.121,-1.540,-1.820,-3.290
5966634,-0.977,0.039,0.130,-2.520,-0.070,-2.380
5966654,-0.995,0.007,0.150,-1.610,-0.350,-2.520
5966674,-1.004,0.014,0.157,-2.240,0.070,-2.240
5966698,-1.020,0.005,0.179,-3.010,-1.120,-2.100
5966718,-1.020,-0.020,0.156,-3.360,-1.820,-2.030
5966737,-1.001,-0.035,0.153,-3.780,0.700,-2.870
5966753,-1.000,-0.033,0.165,-2.170,2.100,-3.570
5966778,-0.994,-0.032,0.172,-0.210,3.220,-3.920
5966798,-0.991,-0.039,0.165,0.140,3.570,-4.690
5966822,-0.979,-0.024,0.169,0.980,3.430,-6.300
5966842,-0.974,-0.001,0.144,6.790,3.080,-6.160
5966860,-0.969,-0.017,0.127,9.030,3.850,-4.550
5966883,-0.996,-0.051,0.137,6.090,4.830,-1.680
5966902,-1.026,-0.046,0.131,2.660,6.510,-1.260
5966926,-1.033,-0.028,0.132,0.980,8.050,-2.100
5966946,-1.035,0.020,0.146,1.400,8.540,-2.240
5966965,-1.022,0.013,0.175,3.430,10.080,-1.680
5966985,-1.017,-0.025,0.202,3.780,9.310,-0.840
5967008,-1.008,-0.037,0.177,3.010,5.670,-1.470
5967027,-0.969,-0.004,0.139,3.010,6.020,-3.920
5967052,-0.967,0.018,0.141,4.900,9.590,-4.200
5967071,-1.011,0.006,0.159,5.530,11.620,-3.010
5967091,-1.023,-0.005,0.163,4.060,10.570,-1.610
5967109,-1.018,-0.012,0.132,2.170,9.660,-1.680
5967132,-1.002,-0.006,0.113,0.910,9.170,-2.240
5967153,-0.999,0.015,0.108,1.050,11.550,-2.520
5967175,-1.041,0.005,0.135,-0.910,11.620,-2.100
5967196,-1.042,-0.011,0.100,-2.940,7.490,-1.470
5967220,-1.028,-0.028,0.083,-3.010,8.120,-1.260
5967240,-1.048,-0.035,0.096,-3.850,9.030,-1.540
5967257,-1.063,-0.032,0.089,-3.290,7.350,-2.030
5967281,-1.055,-0.033,0.065,-0.980,4.970,-1.890
5967301,-1.036,-0.040,0.044,0.770,4.270,-0.350
5967321,-1.020,-0.048,0.048,0.910,4.060,0.840
5967340,-1.031,-0.040,0.061,1.120,2.030,0.700
5967360,-1.030,-0.032,0.062,1.890,-0.070,0.700
5967386,-1.035,-0.018,0.063,2.730,-2.310,0.980
5967404,-1.034,-0.016,0.056,3.570,-3.850,1.050
5967424,-1.023,-0.015,0.050,3.500,-5.180,1.610
5967448,-1.012,-0.016,0.047,3.150,-5.110,1.680
5967467,-1.007,-0.009,0.050,2.940,-3.710,1.120
5967490,-1.015,-0.011,0.060,2.870,-2.940,1.260
5967509,-1.011,-0.008,0.066,2.940,-4.060,0.420
5967528,-1.011,-0.011,0.063,3.010,-4.340,0.000
5967549,-1.022,-0.005,0.071,3.080,-3.150,0.630
5967573,-1.031,-0.006,0.074,3.080,-3.080,1.400
5967593,-1.031,-0.009,0.079,3.150,-4.060,1.890
5967612,-1.026,-0.005,0.080,2.380,-4.060,2.450
5967629,-1.018,-0.003,0.082,2.590,-3.780,2.590
5967651,-1.006,-0.002,0.082,2.660,-3.570,2.380
5967669,-0.999,-0.005,0.079,2.240,-3.500,2.240
5967689,-1.003,0.003,0.085,1.750,-3.920,1.610
5967709,-1.007,-0.005,0.084,1.540,-3.780,1.050
5967733,-1.011,-0.015,0.090,1.330,-3.500,0.350
5967748,-1.014,-0.007,0.086,1.050,-2.450,0.490
5967774,-1.015,-0.001,0.090,0.770,-2.520,0.350
5967791,-1.017,0.000,0.092,0.840,-3.290,0.350
5967812,-1.016,0.004,0.089,1.260,-4.060,0.490
5967829,-1.007,0.003,0.084,1.470,-3.990,0.770
5967851,-1.011,0.000,0.089,1.190,-3.850,1.050
5967875,-1.015,0.000,0.090,0.560,-3.920,1.050
5967895,-1.016,0.001,0.089,-0.210,-3.500,0.910
5967913,-1.022,0.002,0.090,-0.840,-3.850,0.770
5967937,-1.025,0.004,0.090,-0.910,-6.090,0.490
5967958,-1.022,0.005,0.089,-0.350,-7.700,0.280
5967976,-1.018,0.006,0.076,0.560,-8.750,0.140
5967999,-1.018,0.004,0.080,0.770,-9.730,0.070
5968020,-1.013,-0.004,0.050,-0.210,-10.290,0.000
5968040,-0.997,0.001,0.059,-0.840,-7.980,-0.560
5968059,-1.019,-0.000,0.081,-0.910,-7.070,-0.910
5968079,-1.030,-0.004,0.077,-0.140,-8.680,-1.190
5968103,-1.030,0.005,0.079,-0.490,-10.920,-1.400
5968122,-1.024,0.010,0.085,-0.490,-11.760,-1.750
5968146,-1.029,-0.001,0.108,-0.420,-12.320,-1.680
5968165,-1.026,0.001,0.118,-0.700,-12.530,-1.820
5968185,-1.019,-0.001,0.129,-1.260,-12.600,-2.520
5968206,-1.021,-0.006,0.148,-2.240,-13.580,-3.570
5968226,-1.018,0.004,0.148,-4.060,-14.280,-4.270
5968246,-1.022,0.006,0.148,-5.460,-12.740,-5.040
5968270,-1.036,-0.004,0.184,-4.200,-8.260,-4.410
5968291,-1.039,-0.006,0.198,-2.450,-6.790,-2.940
5968310,-1.021,-0.003,0.190,-0.700,-5.390,-1.190
5968330,-0.997,-0.004,0.202,1.050,-3.640,0.210
5968350,-0.998,0.010,0.211,2.170,-2.310,1.120
5968375,-1.001,0.010,0.214,2.240,-0.490,2.100
5968390,-1.006,0.006,0.205,1.820,1.050,2.310
5968414,-0.992,0.022,0.204,0.560,3.570,3.500
5968432,-1.010,0.001,0.202,-1.960,7.770,3.500
5968454,-1.034,-0.015,0.218,-3.850,10.500,3.850
5968474,-1.043,-0.019,0.198,-6.650,7.560,3.290
5968492,-1.030,-0.020,0.178,-8.610,5.950,2.310
5968516,-1.015,-0.025,0.143,-8.820,5.880,-0.350
5968535,-1.013,-0.000,0.149,-6.790,5.110,0.770
5968555,-0.996,-0.013,0.143,-5.040,2.870,0.840
5968575,-0.988,-0.020,0.151,-1.330,3.430,-0.070
5968598,-0.982,-0.005,0.148,-0.980,1.820,-0.490
5968619,-0.987,0.021,0.143,0.420,0.700,-1.050
5968638,-0.984,0.010,0.142,1.680,-0.420,-2.100
5968657,-0.997,0.013,0.137,3.080,-1.120,-1.680
5968681,-1.006,0.018,0.135,3.430,-2.100,-2.520
5968701,-1.007,0.004,0.122,2.100,-3.850,-2.940
5968720,-0.999,0.011,0.122,2.100,-4.550,-2.730
5968742,-0.986,0.011,0.122,4.760,-6.230,-2.100
5968766,-0.985,0.010,0.121,6.720,-7.140,-0.560
5968785,-0.984,0.011,0.112,6.020,-7.910,0.420
5968805,-0.977,0.005,0.098,4.830,-7.140,0.210
5968824,-0.971,0.018,0.108,3.710,-6.300,-0.490
5968848,-0.982,0.021,0.118,3.430,-4.970,-0.700
5968869,-1.011,0.032,0.125,2.800,-5.600,-0.070
5968888,-1.031,0.024,0.122,2.240,-6.580,0.840
5968908,-1.020,0.016,0.127,0.910,-6.790,1.260
5968928,-1.019,0.006,0.140,-0.280,-7.070,1.190
5968946,-1.017,0.012,0.150,-1.050,-7.210,0.560
5968970,-1.013,0.020,0.155,-1.470,-7.910,0.350
5968985,-0.993,0.017,0.148,-2.450,-7.630,-0.140
5969011,-0.987,0.012,0.149,-3.640,-6.090,-0.770
5969029,-0.997,0.017,0.150,-3.150,-5.950,-0.490
5969050,-0.985,0.009,0.151,-2.730,-4.480,-0.560
5969075,-0.988,0.009,0.161,-3.150,-3.360,-0.910
5969095,-0.999,0.003,0.170,-2.590,-3.360,-1.400
5969111,-0.996,0.004,0.166,-2.030,-3.500,-2.030
5969135,-0.996,0.006,0.164,-1.050,-3.570,-1.820
5969155,-0.994,0.004,0.163,-0.490,-3.640,-1.330
5969175,-0.992,-0.002,0.164,-0.420,-2.940,-1.470
5969190,-0.996,-0.003,0.163,0.140,-2.590,-1.680
5969210,-0.997,-0.003,0.161,0.700,-1.680,-1.820
5969235,-1.001,0.002,0.161,1.470,-0.700,-1.610
5969253,-0.998,0.006,0.160,1.750,0.140,-1.610
5969273,-1.004,0.007,0.166,2.310,0.630,-1.680
5969297,-1.005,0.001,0.168,2.660,0.700,-1.400
5969318,-0.998,0.004,0.163,3.080,0.770,-1.540
5969337,-0.996,0.005,0.160,2.940,0.700,-1.610
5969354,-0.996,0.009,0.154,2.800,0.560,-1.820
5969373,-0.992,0.010,0.155,2.240,0.910,-2.100
5969394,-0.999,0.011,0.160,2.100,0.840,-2.170
5969418,-1.001,0.010,0.158,2.240,0.490,-1.960
5969437,-0.998,0.000,0.154,1.890,0.770,-2.170
5969458,-0.996,0.004,0.155,2.030,1.330,-2.450
5969478,-0.999,0.003,0.155,1.820,1.190,-2.940
5969498,-0.998,0.008,0.149,1.330,1.400,-3.010
5969519,-1.006,0.004,0.158,1.470,1.960,-3.570
5969538,-1.011,0.025,0.155,2.730,1.540,-3.570
5969558,-1.011,0.020,0.151,2.590,0.700,-3.290
5969577,-1.009,0.009,0.148,1.470,-0.210,-3.430
5969601,-1.011,0.011,0.146,0.560,-1.260,-3.920
5969618,-1.010,0.001,0.153,1.050,-2.870,-3.570
5969642,-0.996,0.023,0.141,0.210,-1.960,-3.010
5969665,-0.996,0.026,0.148,-0.210,-1.470,-2.240
5969684,-0.994,0.017,0.153,-1.190,-1.750,-1.330
5969705,-0.992,0.000,0.155,-3.010,-1.190,-1.400
5969722,-0.995,-0.011,0.163,-3.920,-1.260,-1.680
5969742,-1.001,-0.014,0.167,-3.010,-0.840,-1.820
5969765,-0.998,-0.016,0.163,-1.120,-0.140,-1.610
5969785,-0.995,-0.025,0.170,0.840,0.840,-0.490
5969802,-1.010,-0.037,0.177,0.770,0.700,0.350
5969826,-1.000,-0.041,0.156,-0.280,1.540,-0.560
5969844,-0.997,-0.008,0.173,0.630,4.480,-2.240
5969863,-1.008,0.018,0.195,2.940,5.390,-2.240
5969883,-1.014,-0.005,0.180,3.920,4.060,-1.470
5969903,-0.992,-0.020,0.158,3.080,4.200,-2.030
5969928,-0.980,-0.013,0.168,3.290,7.490,-3.570
5969948,-1.004,-0.007,0.199,5.250,8.190,-3.010
5969972,-1.022,-0.033,0.186,7.070,6.860,-1.960
5969992,-0.996,-0.039,0.143,5.250,8.470,-3.500
5970012,-0.995,0.016,0.166,3.640,10.430,-6.160
5970031,-1.011,0.048,0.182,5.740,9.730,-6.580
5970049,-1.013,0.020,0.157,8.610,8.400,-4.690
5970069,-1.017,-0.013,0.132,6.160,10.500,-3.220
5970090,-0.998,-0.027,0.126,-1.330,10.500,-3.360
5970114,-0.984,0.003,0.115,-3.920,13.230,-5.670
5970130,-1.014,0.029,0.155,-0.210,14.210,-4.130
5970151,-1.041,-0.011,0.143,1.750,13.090,-1.120
5970175,-1.016,-0.049,0.114,0.210,13.580,-0.490
5970195,-1.005,-0.032,0.096,-2.730,15.960,-1.610
5970215,-1.000,0.002,0.098,-2.660,16.170,-1.330
5970234,-1.015,-0.016,0.081,-1.610,15.050,-1.120
5970250,-1.023,-0.031,0.074,-0.980,15.260,-0.980
5970275,-1.032,-0.014,0.076,-0.140,15.680,0.210
5970295,-1.048,-0.007,0.061,0.420,13.370,1.890
5970319,-1.027,-0.031,0.024,-0.980,11.480,1.820
5970336,-1.007,-0.019,0.023,-1.610,12.390,1.260
5970361,-1.016,-0.005,0.041,-0.770,12.740,0.630
5970380,-1.030,-0.002,0.038,-0.840,10.850,0.070
5970400,-1.039,-0.000,0.032,-1.120,9.730,-0.280
5970415,-1.053,0.001,0.041,-1.820,9.030,-0.490
5970438,-1.043,0.000,0.027,-2.030,7.420,-0.210
5970462,-1.025,-0.011,0.013,-1.750,6.440,0.770
5970482,-1.009,-0.019,-0.003,-1.820,6.510,0.210
5970502,-1.004,-0.020,-0.006,-1.190,7.070,-0.420
5970522,-1.009,-0.025,-0.002,0.140,7.280,-0.210
5970546,-1.011,-0.013,0.002,0.700,6.020,0.210
5970565,-1.013,-0.013,0.001,1.680,5.390,0.560
5970584,-1.023,-0.016,0.010,2.310,4.340,0.490
5970606,-1.029,-0.020,0.021,1.190,2.590,0.000
5970626,-1.024,-0.022,0.010,1.050,0.560,-0.840
5970644,-1.016,-0.019,0.009,0.980,-0.560,-1.120
5970663,-1.012,-0.022,0.013,1.540,-1.190,-1.190
5970688,-1.018,-0.022,0.009,1.120,-2.240,-0.630
5970706,-1.018,-0.018,0.007,1.890,-2.870,-0.140
5970726,-1.018,-0.014,0.013,2.030,-3.220,0.280
5970750,-1.020,-0.006,0.018,2.100,-4.410,0.770
5970770,-1.021,0.001,0.016,2.590,-5.040,1.470
5970791,-1.018,-0.002,0.009,3.220,-4.830,2.100
5970808,-1.017,-0.004,0.009,3.570,-4.410,2.450
5970828,-1.016,-0.004,0.016,3.990,-4.130,2.520
5970850,-1.018,-0.004,0.030,4.550,-4.690,2.450
5970874,-1.015,-0.003,0.028,4.620,-5.320,1.960
5970894,-1.014,-0.003,0.023,4.760,-5.600,1.120
5970912,-1.011,-0.004,0.020,4.410,-5.530,0.280
5970933,-1.015,-0.004,0.031,3.850,-6.160,-0.630
5970950,-1.019,-0.005,0.033,3.430,-6.720,-1.260
5970974,-1.018,0.001,0.032,2.660,-7.280,-2.030
5970998,-1.016,0.008,0.030,2.030,-8.260,-2.030
5971018,-1.014,0.015,0.030,1.820,-9.030,-1.890
5971038,-1.011,0.011,0.023,2.100,-9.520,-1.330
5971063,-1.014,0.007,0.027,2.520,-9.240,-1.120
5971080,-1.023,0.002,0.027,2.450,-8.750,-1.050
5971101,-1.025,0.002,0.022,1.960,-8.820,-0.980
5971121,-1.012,0.003,0.019,2.170,-10.080,-1.190
5971145,-1.004,0.010,0.006,2.170,-10.150,-1.820
5971164,-1.012,0.010,0.027,1.890,-10.010,-1.680
5971183,-1.024,0.004,0.023,1.610,-9.660,-1.680
5971208,-1.041,-0.003,0.048,0.210,-9.730,-1.470
5971228,-1.048,-0.010,0.052,-1.050,-10.850,-1.750
5971247,-1.042,-0.015,0.056,-0.840,-12.390,-1.820
5971267,-1.033,-0.028,0.049,0.280,-14.000,-1.820
5971287,-1.026,-0.037,0.063,1.750,-13.860,-1.750
5971308,-1.028,-0.033,0.087,3.150,-13.580,-2.030
5971332,-1.029,-0.018,0.112,4.900,-14.140,-0.910
5971351,-1.034,-0.007,0.124,6.510,-14.140,0.420
5971372,-1.031,0.006,0.139,7.140,-13.160,1.470
5971392,-1.018,0.017,0.141,6.370,-12.110,1.400
5971412,-1.010,0.016,0.143,4.970,-11.690,1.820
5971430,-1.005,0.028,0.136,3.780,-10.780,1.470
5971453,-0.997,0.026,0.153,1.400,-8.330,0.980
5971474,-1.021,0.013,0.183,-1.960,-6.370,0.700
5971493,-1.043,-0.001,0.185,-2.590,-6.300,0.350
5971513,-1.047,0.024,0.159,-2.380,-5.250,0.910
5971536,-1.021,0.032,0.145,-4.130,-0.700,0.840
5971557,-1.014,0.010,0.167,-4.200,2.520,0.910
5971572,-1.016,0.008,0.185,-3.220,0.910,1.960
5971595,-1.000,0.011,0.163,-2.730,-1.400,3.220
5971615,-0.979,-0.012,0.155,-3.290,-1.190,1.960
5971638,-0.989,-0.004,0.154,-3.500,-0.980,0.280
5971662,-0.994,0.000,0.158,-3.990,-3.430,-0.910
5971681,-1.006,0.004,0.140,-3.430,-4.760,-0.700
5971702,-1.001,0.004,0.135,-4.130,-4.550,-1.540
5971722,-0.997,0.001,0.137,-4.340,-3.500,-3.710
5971742,-0.979,0.010,0.129,-3.080,-2.310,-4.970
5971759,-0.991,0.008,0.146,-0.770,-3.360,-4.900
5971778,-1.002,0.004,0.141,0.490,-3.780,-5.040
5971802,-1.017,0.009,0.136,2.380,-5.040,-4.270
5971826,-1.019,0.018,0.126,3.360,-5.810,-3.150
5971845,-1.009,0.023,0.122,3.080,-6.650,-2.590
5971869,-0.996,0.021,0.118,1.610,-7.070,-2.660
5971890,-1.001,0.013,0.128,1.260,-7.700,-2.380
5971907,-0.987,0.013,0.113,1.960,-7.980,-2.240
5971929,-0.972,0.002,0.102,-0.140,-5.530,-2.240
5971946,-0.979,-0.003,0.110,-0.560,-4.410,-2.240
5971970,-0.984,-0.001,0.112,0.560,-3.500,-1.540
5971990,-0.999,-0.004,0.124,1.400,-3.990,-0.420
5972009,-1.011,-0.003,0.132,1.260,-4.830,0.140
5972029,-1.015,0.001,0.123,0.210,-6.090,0.350
5972049,-1.002,0.004,0.124,-1.260,-6.230,-0.210
5972073,-0.999,-0.000,0.128,-1.960,-6.440,-0.560
5972093,-0.986,-0.008,0.132,-2.800,-6.300,-0.840
5972111,-0.990,-0.009,0.139,-2.730,-5.530,-0.910
5972131,-0.990,-0.014,0.142,-2.800,-5.180,-0.840
5972155,-0.990,-0.016,0.137,-1.470,-4.270,-0.490
5972174,-0.997,-0.018,0.142,-1.330,-3.290,0.140
5972196,-0.997,-0.011,0.138,-0.350,-2.310,-0.070
5972215,-0.990,-0.004,0.151,0.700,-0.630,-0.630
5972232,-0.994,0.004,0.170,1.260,0.140,-1.260
5972252,-0.996,0.002,0.174,1.470,-0.350,-1.260
5972277,-1.003,0.001,0.174,0.980,-0.770,-1.120
5972295,-1.005,-0.000,0.173,1.190,-0.910,-1.120
5972319,-0.997,-0.001,0.159,2.170,-1.050,-0.980
5972339,-0.999,0.004,0.157,3.290,-0.840,-0.560
5972357,-0.998,0.005,0.155,3.500,-0.420,-0.350
5972377,-1.002,0.008,0.153,3.500,-0.140,-0.490
5972396,-1.003,0.008,0.148,3.500,0.210,-0.910
5972421,-1.000,0.006,0.143,3.290,0.350,-1.330
5972439,-0.993,0.003,0.143,3.010,0.770,-1.400
5972458,-0.997,0.004,0.147,2.590,0.770,-1.610
5972483,-1.002,0.003,0.143,1.960,0.210,-1.750
5972501,-1.007,0.004,0.143,1.470,-0.700,-1.190
5972523,-1.017,0.004,0.146,0.840,-1.960,-1.050
5972543,-1.010,-0.002,0.139,0.420,-4.060,-1.330
5972565,-0.988,-0.007,0.124,-0.420,-4.200,-2.170
5972584,-0.986,-0.002,0.132,-0.210,-3.080,-2.730
5972604,-0.992,0.007,0.157,0.700,-2.380,-2.940
5972627,-1.008,0.014,0.149,0.700,-3.710,-2.030
5972647,-0.990,0.034,0.134,-1.680,-3.990,-0.210
5972671,-0.986,-0.008,0.130,-0.700,-2.870,-0.070
5972686,-0.977,-0.001,0.142,-1.610,-1.680,-0.840
5972711,-0.996,0.011,0.163,-0.210,-1.120,-0.700
5972730,-1.000,0.004,0.163,3.080,-1.260,-0.350
5972751,-0.996,-0.011,0.168,3.290,-1.400,-0.280
5972771,-0.983,-0.017,0.151,2.170,-1.750,-1.330
5972789,-0.996,0.003,0.161,2.240,-0.910,-2.100
5972813,-0.998,0.016,0.164,2.380,0.700,-3.290
5972830,-1.006,0.007,0.164,0.280,1.120,-3.290
5972849,-1.012,-0.005,0.149,-2.940,3.780,-4.550
5972874,-1.016,0.020,0.163,-1.610,3.570,-5.040
5972894,-0.982,0.011,0.162,-2.590,8.190,-2.800
5972913,-1.021,-0.026,0.193,-3.360,10.220,-1.680
5972936,-1.023,-0.039,0.187,-2.100,10.080,-2.030
5972955,-1.013,-0.027,0.186,0.630,9.660,-3.850
5972975,-1.003,-0.012,0.190,4.620,9.660,-3.500
5972998,-1.010,-0.037,0.176,5.950,7.070,-3.430
5973017,-1.007,-0.028,0.139,5.390,6.580,-5.670
5973041,-0.989,0.020,0.126,5.530,7.910,-7.140
5973059,-0.988,0.022,0.132,7.210,9.870,-6.300
5973080,-0.996,-0.004,0.153,7.980,11.340,-3.990
5973100,-0.997,-0.056,0.139,5.950,11.340,-2.520
5973119,-0.983,-0.040,0.133,4.900,12.950,-2.730
5973144,-0.978,-0.003,0.131,5.390,13.510,-2.940
5973163,-0.991,0.000,0.129,4.760,14.350,-3.220
5973187,-1.017,0.003,0.126,1.680,13.790,-2.170
5973203,-1.022,0.014,0.110,1.470,13.510,-1.400
5973223,-1.046,0.003,0.111,1.190,13.160,-0.700
5973248,-1.034,-0.041,0.061,-1.750,11.270,-0.490
5973267,-1.024,-0.012,0.071,-3.010,14.070,-1.750
5973287,-1.041,-0.004,0.095,-0.560,14.490,-1.470
5973304,-1.059,-0.015,0.099,0.910,12.670,-1.120
5973328,-1.061,-0.024,0.090,1.960,8.820,-0.140
5973348,-1.047,-0.032,0.045,0.560,5.040,0.280
5973368,-1.019,-0.031,0.002,-1.820,3.500,0.700
5973388,-0.997,-0.037,0.004,-2.520,4.200,0.910
5973408,-1.013,-0.020,0.041,-1.120,4.620,0.910
5973429,-1.038,-0.011,0.053,-1.190,2.240,0.490
5973453,-1.045,-0.010,0.049,-2.520,-0.350,0.840
5973473,-1.039,-0.003,0.039,-2.030,-1.820,1.050
5973491,-1.036,-0.004,0.042,-2.030,-2.590,1.680
5973515,-1.027,-0.015,0.040,-3.010,-3.850,1.960
5973535,-1.011,-0.029,0.024,-2.520,-4.130,2.450
5973551,-1.009,-0.029,0.030,-2.240,-3.220,2.520
5973575,-1.011,-0.043,0.033,-1.120,-4.550,1.540
5973595,-1.005,-0.035,0.034,1.050,-5.460,0.910
5973619,-1.010,-0.020,0.041,2.940,-5.110,1.050
5973640,-1.028,-0.019,0.047,2.870,-3.920,1.120
5973658,-1.036,-0.015,0.056,2.380,-2.940,1.470
5973675,-1.034,-0.011,0.071,2.240,-3.220,1.540
5973700,-1.031,-0.003,0.085,2.520,-4.200,1.750
5973718,-1.024,-0.003,0.086,2.800,-4.900,1.820
5973741,-1.019,-0.003,0.092,3.010,-5.950,1.680
5973761,-1.006,-0.005,0.077,3.500,-7.000,1.540
5973785,-0.998,-0.007,0.058,2.870,-6.090,0.770
5973801,-1.005,0.000,0.068,2.380,-5.460,0.490
5973823,-1.009,-0.001,0.067,2.100,-4.970,-0.140
5973845,-1.013,0.001,0.070,1.750,-4.970,-0.280
5973862,-1.017,0.003,0.077,1.540,-5.250,-0.350
5973882,-1.020,0.005,0.080,1.120,-5.460,-0.350
5973902,-1.020,0.005,0.081,0.840,-5.460,-0.210
5973926,-1.019,0.010,0.077,0.770,-5.180,-0.140
5973946,-1.015,0.017,0.078,0.070,-5.530,0.140
5973962,-1.014,0.013,0.081,-0.490,-6.020,0.140
5973982,-1.017,0.012,0.079,-0.840,-6.650,0.420
5974002,-1.012,0.007,0.073,-0.560,-7.350,0.700
5974026,-1.007,0.005,0.072,-0.770,-7.070,0.630
5974043,-1.015,0.003,0.071,-0.910,-6.650,0.280
5974066,-1.021,0.003,0.068,-1.190,-6.930,0.070
5974084,-1.016,0.000,0.072,-1.400,-7.420,0.000
5974108,-1.013,-0.006,0.080,-1.470,-7.980,-0.420
5974126,-1.013,-0.013,0.082,-0.700,-7.770,-0.700
5974148,-1.033,-0.015,0.089,0.140,-8.050,-0.560
5974164,-1.038,-0.009,0.092,0.770,-9.100,-0.420
5974187,-1.031,-0.001,0.088,1.540,-11.410,-0.420
5974206,-1.035,0.007,0.088,1.190,-12.670,-0.560
5974229,-1.026,0.010,0.093,1.120,-13.160,-0.350
5974250,-1.021,0.018,0.101,-0.070,-13.860,-0.630
5974268,-1.020,0.011,0.099,-0.280,-13.650,-1.330
5974292,-1.029,0.010,0.121,-1.050,-14.000,-1.890
5974311,-1.035,0.009,0.135,-1.190,-14.420,-2.100
5974331,-1.036,0.002,0.153,-0.630,-14.980,-1.540
5974350,-1.038,-0.003,0.155,-0.140,-15.750,-0.630
5974375,-1.028,-0.007,0.159,0.140,-14.490,17.850
5974395,-1.017,0.002,0.182,0.350,-11.550,-0.070
5974410,-1.016,0.004,0.197,0.700,-10.010,0.280
5974435,-1.005,0.010,0.205,1.260,-8.820,1.120
5974454,-1.003,0.022,0.217,1.610,-7.490,1.400
5974475,-0.998,0.018,0.208,0.420,-5.320,2.170
5974493,-0.999,0.004,0.219,-0.980,-2.310,1.890
5974513,-0.990,-0.003,0.227,-1.260,-0.350,0.840
5974535,-0.994,-0.125,0.219,-2.450,2.100,-0.910
5974555,-0.993,-0.000,0.222,-2.590,3.570,-1.610
5974578,-0.993,-0.009,0.221,-2.310,3.990,-1.680
5974600,-0.999,-0.017,0.209,-1.190,4.620,-1.820
5974615,-1.010,-0.010,0.213,0.560,4.900,-1.190
5974638,-1.031,0.009,0.211,1.820,5.880,-0.140
5974658,-1.036,0.020,0.204,2.380,4.130,1.330
5974679,-1.029,0.017,0.195,2.240,0.700,1.400
5974703,-0.994,0.041,0.164,2.590,-0.560,0.910
5974726,-0.982,0.041,0.145,2.310,-3.640,0.070
5974750,-0.956,0.023,0.149,3.780,-1.890,-2.730
5974770,-0.950,0.030,0.157,3.640,-3.360,-2.660
5974789,-0.956,0.011,0.141,4.620,-5.180,-2.030
5974808,-0.961,0.008,0.129,4.760,-4.130,-2.450
5974829,-0.983,0.003,0.136,5.180,-4.130,-2.800
5974853,-0.998,-0.008,0.138,4.410,-4.620,-3.640
5974871,-1.003,-0.011,0.141,4.130,-5.180,-3.220
5974893,-1.008,0.005,0.141,5.180,-5.810,-2.030
5974915,-1.008,0.008,0.149,4.760,-6.790,-1.610
5974935,-1.007,0.022,0.144,4.970,-7.910,-1.470
5974958,-1.002,0.021,0.149,3.220,-7.630,-1.260
5974979,-1.001,0.024,0.152,1.820,-5.810,-1.050
5974999,-1.007,0.027,0.168,1.890,-5.530,-0.770
5975018,-1.011,0.030,0.158,1.050,-5.810,-0.560
5975040,-1.000,0.020,0.155,-0.700,-4.830,-0.840
5975058,-0.995,0.016,0.159,-1.400,-4.130,-1.610
5975081,-0.994,0.018,0.171,-1.960,-3.640,-2.030
5975102,-0.996,0.006,0.183,-1.470,-4.340,-1.960
5975121,-0.990,-0.002,0.167,-1.050,-4.760,-2.030
5975145,-0.982,-0.001,0.163,-0.980,-4.340,-2.310
5975161,-0.983,0.001,0.163,-0.210,-4.410,-2.240
5975185,-0.986,0.000,0.163,0.560,-3.780,-1.820
5975204,-0.994,-0.001,0.174,1.330,-2.730,-1.680
5975225,-0.999,-0.001,0.180,1.820,-1.610,-2.030
5975243,-0.999,-0.003,0.178,2.450,-0.840,-2.170
5975263,-1.002,-0.007,0.190,2.380,-0.280,-2.310
5975285,-0.998,-0.003,0.181,3.360,0.140,-2.100
5975308,-0.992,-0.001,0.188,3.290,0.420,-1.960
5975327,-0.996,-0.001,0.194,2.870,0.210,-2.030
5975347,-0.999,0.001,0.191,2.520,-0.070,-2.100
5975367,-0.998,0.004,0.181,2.800,0.420,-1.960
5975386,-0.999,0.007,0.183,3.010,0.770,-1.820
5975411,-0.998,0.008,0.175,3.150,1.190,-1.400
5975430,-1.000,0.007,0.172,3.150,1.540,-1.330
5975450,-0.995,0.007,0.170,3.010,1.960,-1.190
5975474,-0.998,0.010,0.173,2.660,2.240,-1.330
5975494,-1.002,0.009,0.178,2.240,1.750,-1.330
5975515,-1.002,0.007,0.175,2.030,1.190,-1.400
5975534,-0.999,0.010,0.168,1.750,0.770,-1.400
5975558,-0.996,0.008,0.162,1.190,0.770,-1.190
5975578,-0.988,0.001,0.164,0.210,0.560,-1.470
5975597,-0.983,0.005,0.160,-0.420,1.120,-1.750
5975617,-0.990,0.011,0.169,-0.210,1.330,-1.820
5975640,-0.991,0.008,0.164,-0.700,1.260,-1.890
5975661,-0.991,0.048,0.165,-0.560,2.100,-1.960
5975681,-1.004,0.005,0.169,0.070,1.050,-1.890
5975701,-1.015,-0.004,0.164,-1.680,-0.490,-1.820
5975721,-1.019,-0.003,0.152,-3.570,-0.770,-2.240
5975741,-1.019,0.018,0.165,-2.730,-0.910,-2.800
5975760,-1.008,0.020,0.157,-2.310,-0.700,-2.730
5975782,-0.992,0.001,0.160,-3.150,0.700,-2.730
5975801,-0.977,-0.006,0.176,-2.100,1.750,-2.870
5975821,-0.990,0.002,0.189,-1.050,0.420,-2.170
5975846,-1.006,-0.006,0.174,-0.210,-0.980,-1.050
5975865,-1.020,-0.016,0.175,-1.820,-0.980,-1.400
5975884,-0.992,-0.001,0.149,-1.190,-0.280,-1.820
5975902,-0.990,0.007,0.167,-0.560,2.310,-1.540
5975924,-0.990,-0.001,0.179,0.630,1.190,-0.560
5975944,-0.985,-0.009,0.173,2.240,-0.070,-0.490
5975968,-0.993,-0.040,0.156,2.800,-0.840,0.490
5975992,-0.975,-0.052,0.143,0.560,1.820,-0.700
5976010,-0.991,-0.036,0.168,-0.630,5.810,-2.800
5976031,-0.997,-0.000,0.199,1.400,6.580,-3.430
5976053,-1.003,-0.000,0.197,5.320,7.280,-2.030
5976072,-0.985,-0.044,0.202,5.110,8.680,-1.960
5976097,-0.979,-0.039,0.188,4.480,9.100,-4.830
5976116,-0.985,0.020,0.206,7.140,11.060,-6.720
5976136,-1.002,0.031,0.194,7.840,11.760,-5.810
5976154,-1.024,0.029,0.183,5.810,13.230,-5.110
5976173,-1.023,0.010,0.175,4.620,12.880,-3.920
5976198,-1.010,-0.010,0.153,2.240,13.160,-4.200
5976218,-1.000,-0.012,0.148,0.910,12.880,-2.800
5976238,-1.011,-0.020,0.145,0.070,12.810,-3.220
5976258,-1.024,0.002,0.147,0.840,13.370,-3.220
5976273,-1.048,-0.016,0.132,0.770,12.250,-1.960
5976299,-1.049,-0.010,0.106,0.840,11.340,-1.190
5976318,-1.036,-0.002,0.106,0.910,10.920,-0.490
5976337,-1.024,-0.005,0.081,0.490,9.450,0.000
5976360,-1.003,0.001,0.051,-1.400,8.820,0.980
5976381,-0.991,-0.010,0.036,-2.590,10.920,1.050
5976398,-1.004,-0.020,0.053,-3.710,12.250,0.840
5976422,-1.024,-0.027,0.078,-4.760,11.760,0.490
5976442,-1.041,-0.033,0.083,-5.320,9.170,0.560
5976462,-1.034,-0.035,0.070,-3.640,7.280,0.770
5976481,-1.021,-0.045,0.057,-0.980,4.690,0.910
5976502,-1.005,-0.046,0.050,1.400,3.080,0.840
5976527,-1.004,-0.023,0.059,3.010,4.200,0.770
5976546,-1.031,-0.011,0.069,3.990,3.360,1.890
5976564,-1.032,-0.009,0.059,3.010,1.190,2.520
5976587,-1.012,-0.002,0.033,2.800,-0.210,1.960
5976607,-0.997,0.000,0.038,2.660,-0.210,1.680
5976628,-1.004,-0.006,0.049,2.660,0.560,1.470
5976647,-1.017,0.001,0.050,3.220,2.030,1.610
5976672,-1.036,-0.001,0.056,3.500,3.920,1.750
5976692,-1.046,0.002,0.056,2.240,4.620,1.330
5976712,-1.050,-0.002,0.054,2.030,4.270,0.980
5976731,-1.042,-0.004,0.044,2.030,3.220,0.910
5976756,-1.028,0.000,0.044,0.560,2.730,0.630
5976772,-1.023,0.005,0.043,-0.210,1.680,0.490
5976796,-1.016,0.002,0.052,-1.470,-0.280,0.630
5976815,-1.012,0.002,0.036,-1.680,-1.190,0.350
5976834,-1.008,-0.001,0.039,-1.190,-0.280,0.280
5976857,-1.013,-0.000,0.050,-0.700,-0.280,0.000
5976878,-1.017,-0.003,0.052,-0.070,-0.560,-0.350
5976895,-1.019,0.002,0.053,0.000,-1.120,-0.490
5976919,-1.020,-0.001,0.058,-0.140,-2.030,-0.630
5976937,-1.019,-0.002,0.061,-0.070,-2.800,-0.420
5976958,-1.018,-0.002,0.062,0.560,-3.710,-0.280
5976977,-1.017,-0.002,0.065,0.840,-4.550,-0.070
5976996,-1.018,-0.001,0.056,1.120,-5.180,0.210
5977019,-1.011,0.001,0.052,0.910,-4.200,0.210
5977039,-1.009,0.003,0.051,0.980,-3.850,0.350
5977058,-1.007,0.001,0.050,0.980,-3.360,0.280
5977082,-1.006,0.001,0.055,1.330,-2.940,-0.070
5977101,-1.014,0.001,0.058,1.330,-2.520,-0.350
5977121,-1.015,0.005,0.061,1.190,-2.240,-0.560
5977145,-1.014,0.006,0.056,0.980,-1.540,-0.980
5977165,-1.016,0.006,0.055,0.490,-0.980,-1.120
5977184,-1.012,0.007,0.058,0.350,-0.770,-1.050
5977204,-1.011,0.005,0.061,0.770,-0.350,-1.120
5977224,-1.013,0.005,0.055,0.770,-0.700,-0.840
5977248,-1.010,0.001,0.055,0.910,-0.840,-0.490
5977267,-1.008,0.005,0.054,1.820,-0.420,-0.420
5977291,-1.007,0.009,0.059,2.100,-0.070,-0.490
5977310,-1.011,0.005,0.053,1.890,-0.560,-0.420
5977330,-1.006,0.004,0.046,1.820,0.070,-0.560
5977354,-1.011,0.004,0.060,1.610,1.050,-0.840
5977374,-1.023,0.007,0.064,1.260,0.770,-0.980
5977390,-1.019,0.008,0.060,1.330,0.350,-1.120
5977414,-1.013,0.007,0.057,1.330,-0.210,-1.190
5977433,-1.014,0.006,0.056,1.190,-0.210,-1.330
5977456,-1.010,0.008,0.058,0.910,-0.280,-1.400
5977475,-1.014,0.008,0.057,0.840,-0.420,-1.260
5977500,-1.016,0.006,0.057,1.050,-0.140,-0.980
5977517,-1.019,0.007,0.059,1.400,0.070,-0.770
5977541,-1.019,0.001,0.067,1.470,-0.700,-0.630
5977559,-1.016,0.005,0.054,1.120,-1.610,-0.840
5977580,-1.017,0.011,0.046,1.750,-1.960,-0.840
5977600,-1.013,0.008,0.042,2.520,-1.680,-0.630
5977624,-1.017,0.013,0.057,2.380,-1.330,-0.630
5977642,-1.018,0.014,0.059,1.750,-3.220,-0.840
5977662,-1.018,0.012,0.046,0.630,-4.760,-1.050
5977683,-1.017,0.014,0.026,-0.280,-5.460,-1.050
5977707,-1.023,0.012,0.031,-0.560,-4.760,-0.910
5977727,-1.035,0.015,0.047,-0.490,-5.110,-0.700
5977747,-1.035,0.009,0.058,0.000,-6.580,-0.350
5977762,-1.029,0.009,0.057,0.280,-7.210,-0.140
5977787,-1.023,0.007,0.067,0.140,-7.980,0.070
5977804,-1.022,0.009,0.078,-0.070,-8.260,0.000
5977824,-1.023,0.003,0.081,0.280,-9.520,0.070
5977843,-1.018,0.003,0.080,0.560,-10.920,0.140
5977867,-1.018,0.000,0.082,0.350,-11.900,0.420
5977884,-1.016,0.001,0.093,0.210,-12.040,0.210
5977903,-1.024,-0.000,0.100,0.770,-11.900,-0.280
5977928,-1.016,0.004,0.104,1.470,-11.620,-0.280
5977947,-1.015,0.015,0.104,1.960,-11.060,-0.210
5977966,-1.010,0.022,0.110,2.100,-10.360,0.350
5977990,-1.007,0.017,0.112,1.400,-10.710,0.910
5978010,-1.000,0.008,0.118,0.980,-10.290,0.630
5978029,-0.999,0.017,0.110,1.680,-8.330,-0.070
5978049,-1.003,0.015,0.125,0.280,-7.420,-0.350
5978069,-1.004,0.011,0.120,-1.050,-7.840,-0.490
5978092,-1.004,0.011,0.122,-1.750,-6.510,-1.120
5978112,-1.002,0.008,0.132,-1.890,-5.320,-1.470
5978136,-1.008,0.005,0.131,-1.820,-4.410,-1.610
5978156,-1.006,0.003,0.129,-1.330,-3.500,-1.890
5978175,-1.005,0.007,0.132,-0.770,-3.360,-1.470
5978194,-1.004,0.003,0.135,0.420,-3.010,-1.050
5978218,-1.001,0.008,0.135,1.400,-2.520,-0.490
5978239,-1.004,0.016,0.135,1.330,-2.100,-0.280
5978257,-1.009,0.004,0.132,0.700,-2.660,-1.400
5978273,-0.994,0.016,0.126,0.070,-1.540,-1.960
5978293,-0.998,0.015,0.128,-0.700,-0.490,-2.800
5978318,-1.002,0.016,0.127,-0.210,0.560,-3.360
5978336,-1.007,0.013,0.126,-0.140,1.050,-3.710
5978357,-1.006,0.013,0.129,-0.070,1.190,-3.360
5978374,-1.007,0.012,0.120,0.700,1.190,-2.870
5978398,-1.004,0.006,0.121,1.680,1.750,-1.750
5978418,-1.001,-0.003,0.123,3.290,1.890,-0.980
5978436,-1.000,-0.004,0.121,4.060,2.030,-0.700
5978458,-1.002,-0.001,0.118,4.970,1.890,-0.280
5978480,-1.002,0.006,0.113,5.180,2.030,-0.070
5978498,-1.012,0.014,0.111,4.830,1.890,0.070
5978518,-1.013,0.020,0.111,3.990,1.190,0.000
5978538,-0.999,0.022,0.107,2.940,0.630,-0.210
5978558,-0.990,0.019,0.102,2.240,0.420,-0.420
5978577,-0.986,0.014,0.097,2.240,1.330,-0.420
5978602,-0.988,0.007,0.102,2.170,2.870,-0.420
5978618,-1.002,0.012,0.104,1.890,3.920,-0.210
5978637,-1.008,0.011,0.107,2.170,4.830,0.070
5978660,-1.013,0.017,0.115,3.150,5.810,0.700
5978682,-1.016,0.017,0.117,3.430,5.670,1.260
5978700,-1.019,0.006,0.113,2.030,3.920,1.330
5978720,-1.010,-0.001,0.091,-0.350,1.190,0.560
5978744,-1.001,0.004,0.073,-1.050,0.490,-0.910
5978764,-1.015,0.006,0.077,-1.750,-0.490,-1.610
5978784,-1.023,0.003,0.080,-1.960,-1.330,-2.660
5978804,-1.038,0.011,0.081,-0.420,-1.330,-2.940
5978825,-1.054,0.035,0.076,1.680,-0.420,-1.470
5978845,-1.054,0.033,0.078,1.540,-0.700,-0.910
5978862,-1.041,0.032,0.075,1.050,-0.840,-0.560
5978885,-1.025,0.031,0.093,0.630,-1.400,-0.770
5978906,-1.016,0.019,0.102,0.420,-2.870,-0.490
5978926,-1.008,0.009,0.102,0.700,-3.990,-0.350
5978945,-1.003,0.000,0.094,1.120,-4.760,-0.560
5978966,-0.995,-0.001,0.093,1.260,-4.200,-0.700
5978990,-0.999,-0.002,0.101,1.400,-3.990,-0.840
5979009,-1.005,-0.001,0.105,1.750,-3.500,-1.050
5979025,-1.007,0.001,0.104,1.890,-2.660,-0.980
5979050,-1.017,0.006,0.101,1.750,-2.170,-0.700
5979070,-1.008,0.010,0.096,1.400,-1.960,-0.700
5979086,-1.003,0.012,0.090,1.190,-2.030,-0.700
5979109,-1.001,0.020,0.096,1.330,-1.050,-0.700
5979128,-1.007,0.023,0.109,1.120,-0.770,-0.700
5979152,-1.010,0.023,0.108,1.120,-0.910,-0.630
5979167,-1.013,0.023,0.105,1.190,-1.050,-0.560
5979192,-1.005,0.021,0.106,0.980,-0.770,-0.560
5979211,-1.006,0.018,0.106,0.770,-0.630,-0.700
5979230,-1.015,0.018,0.103,0.420,-0.560,-0.840
5979252,-1.017,0.020,0.104,0.140,-1.050,-0.840
5979272,-1.016,0.020,0.101,0.140,-1.610,-0.770
5979296,-1.015,0.018,0.098,0.280,-2.100,-0.490
5979315,-1.013,0.015,0.098,0.420,-2.240,-0.280
5979334,-1.017,0.012,0.095,0.560,-2.450,-0.350
5979357,-1.017,0.013,0.096,0.420,-2.940,-0.420
5979378,-1.018,0.022,0.095,-0.210,-3.430,-0.770
5979393,-1.015,0.028,0.093,-0.560,-3.640,-0.980
5979417,-1.009,0.035,0.102,-1.190,-3.710,-0.700
5979438,-1.005,0.029,0.103,-1.750,-3.850,-0.280
5979456,-0.999,0.015,0.103,-2.310,-3.640,-0.280
5979477,-0.997,0.017,0.106,-2.870,-2.170,-0.350
5979501,-1.003,0.023,0.117,-2.940,-0.490,-0.280
5979519,-1.014,0.022,0.125,-2.100,-0.490,0.140
5979538,-1.015,0.006,0.121,-1.050,-0.350,0.420
5979563,-1.005,-0.016,0.121,0.210,0.280,0.490
5979583,-1.002,-0.017,0.109,1.120,0.000,0.210
5979603,-1.003,-0.001,0.102,1.330,-0.070,-0.420
5979622,-1.002,0.020,0.115,1.540,1.470,-1.330
5979642,-1.018,0.032,0.135,1.610,2.240,-1.610
5979666,-1.032,0.034,0.131,0.490,0.140,-0.910
5979685,-1.018,0.028,0.104,0.140,-0.140,-0.700
5979705,-1.007,0.019,0.110,-0.210,1.190,-0.140
5979726,-0.996,0.007,0.117,-0.210,1.470,0.630
5979744,-1.003,0.013,0.106,0.840,0.770,1.190
5979766,-1.006,0.022,0.101,2.870,0.700,1.750
5979786,-1.007,0.017,0.109,3.570,0.980,1.890
5979805,-1.003,0.012,0.110,2.870,1.400,1.400
5979824,-1.002,0.017,0.109,2.030,1.890,0.560
5979850,-1.015,0.025,0.113,1.820,2.170,-0.770
5979866,-1.020,0.036,0.109,1.120,2.170,-1.470
5979890,-1.019,0.041,0.104,-0.490,2.590,-1.960
5979910,-1.011,0.041,0.102,-2.450,2.240,-1.610
5979930,-1.007,0.041,0.090,-2.590,2.520,-0.980
5979949,-1.007,0.039,0.103,-2.240,2.870,-0.210
5979970,-1.014,0.022,0.105,-1.470,2.380,0.210
5979990,-1.020,0.002,0.096,-0.910,2.240,0.560
5980007,-1.018,-0.001,0.081,-0.700,2.380,0.420
5980027,-1.013,0.000,0.075,-0.280,2.870,-0.280
5980051,-1.006,0.004,0.080,-0.210,3.500,-1.260
5980071,-1.001,0.009,0.088,0.420,4.200,-1.750
5980089,-1.005,0.021,0.093,1.050,4.550,-1.820
5980114,-1.014,0.029,0.092,1.960,5.180,-1.820
5980133,-1.019,0.029,0.084,2.450,5.250,-1.680
5980156,-1.021,0.025,0.081,2.450,4.760,-1.400
5980178,-1.015,0.019,0.069,2.100,3.920,-1.750
5980196,-1.015,0.020,0.064,1.820,3.360,-2.100
5980220,-1.019,0.017,0.055,1.400,3.010,-2.660
5980238,-1.018,0.006,0.054,1.330,2.170,-3.150
5980258,-1.014,0.001,0.056,2.100,0.980,-3.640
5980282,-1.015,0.002,0.051,3.080,0.560,-3.850
5980300,-1.020,0.008,0.052,3.500,1.400,-3.500
5980321,-1.022,0.022,0.058,3.780,2.450,-2.730
5980346,-1.022,0.034,0.065,3.780,1.890,-1.820
5980363,-1.027,0.035,0.068,3.710,0.980,-1.470
5980386,-1.023,0.026,0.069,3.360,0.070,-1.190
5980405,-1.014,0.015,0.066,2.870,-0.840,-1.120
5980428,-1.003,0.014,0.068,2.100,-0.910,-1.260
5980447,-1.002,0.026,0.064,2.100,-0.700,-1.330
5980468,-1.004,0.027,0.071,1.260,-0.280,-1.260
5980487,-1.009,0.026,0.061,0.210,-0.490,-1.190
5980504,-1.009,0.026,0.063,-0.280,0.280,-1.330
5980523,-1.017,0.028,0.074,-1.190,0.770,-1.400
5980549,-1.019,0.023,0.071,-1.540,-0.070,-1.190
5980566,-1.017,0.024,0.061,-1.260,-0.420,-0.840
5980589,-1.014,0.021,0.057,-1.120,-0.350,-0.490
5980609,-1.012,0.015,0.055,-1.050,0.140,-0.070
5980633,-1.015,0.017,0.059,-1.120,0.630,0.210
5980651,-1.017,0.018,0.060,-0.840,0.630,0.280
5980674,-1.017,0.016,0.060,-0.350,0.840,0.350
5980693,-1.017,0.015,0.061,0.280,0.910,0.140
5980711,-1.017,0.007,0.063,-0.070,0.700,-0.070
5980735,-1.012,0.009,0.056,0.070,0.280,-0.490
5980755,-1.006,0.013,0.059,-0.140,0.490,-0.770
5980775,-1.010,0.012,0.066,-0.560,0.490,-0.910
5980795,-1.015,0.014,0.063,-0.280,0.140,-1.260
5980819,-1.014,0.019,0.058,0.420,0.000,-1.190
5980834,-1.017,0.017,0.058,0.560,0.210,-1.120
5980855,-1.019,0.020,0.056,0.700,0.070,-0.980
5980874,-1.020,0.022,0.055,0.840,-0.210,-0.840
5980899,-1.021,0.024,0.056,1.120,-1.890,-0.420
5980918,-1.010,0.020,0.049,1.750,-2.380,0.000
5980938,-1.012,0.016,0.056,2.240,-2.170,0.000
5980962,-1.025,0.009,0.050,2.380,-3.780,-0.070
5980980,-1.016,0.011,0.034,2.310,-5.040,-0.560
5980999,-1.009,0.012,0.029,1.820,-5.390,-0.980
5981019,-1.028,0.014,0.045,2.030,-5.600,-1.400
5981043,-1.049,0.028,0.055,1.470,-6.720,-1.610
5981065,-1.045,0.031,0.057,0.350,-8.330,-1.750
5981087,-1.038,0.022,0.062,-0.280,-9.940,-1.750
5981107,-1.034,0.019,0.067,0.210,-11.620,-1.750
5981127,-1.031,0.016,0.076,0.980,-12.810,-1.540
5981144,-1.030,0.013,0.085,1.470,-13.860,-1.120
5981167,-1.025,0.016,0.089,1.680,-15.050,-0.980
5981187,-1.016,0.021,0.094,2.520,-14.770,-1.120
5981205,-1.022,0.026,0.101,2.450,-14.490,-0.700
5981225,-1.021,0.024,0.106,1.540,-14.770,-0.140
5981250,-1.019,0.020,0.118,0.350,-14.210,-0.350
5981269,-1.014,0.020,0.127,0.140,-13.580,-0.490
5981289,-1.006,0.021,0.136,-0.770,-13.300,-0.770
5981309,-0.994,0.026,0.135,-1.400,-11.270,-1.050
5981325,-1.003,0.023,0.145,-1.330,-9.590,-0.980
5981344,-1.002,0.022,0.155,-1.400,-8.260,-0.560
5981369,-1.001,0.014,0.152,-1.330,-6.790,-0.560
5981388,-1.001,0.018,0.150,-0.980,-5.880,-0.350
5981406,-0.992,0.016,0.138,0.070,-4.760,-0.280
5981431,-0.986,0.017,0.144,0.770,-1.820,-0.630
5981450,-0.995,0.000,0.156,1.540,-0.910,0.000
5981474,-1.001,0.013,0.157,1.750,-1.470,0.560
5981498,-0.995,0.008,0.141,2.170,-0.770,0.630
5981517,-0.994,0.007,0.137,1.820,-0.770,-0.280
5981541,-0.989,0.019,0.135,1.120,-1.750,-1.750
5981558,-0.984,0.032,0.122,1.120,-0.490,-1.820
5981580,-0.986,0.024,0.132,0.840,1.470,-1.680
5981600,-0.992,0.022,0.133,0.840,1.960,-1.820
5981625,-0.998,0.023,0.132,1.470,2.800,-1.750
5981643,-1.000,0.022,0.134,1.540,3.150,-1.540
5981663,-0.995,0.023,0.131,1.680,4.060,-1.680
5981687,-0.999,0.020,0.127,2.240,4.130,-1.960
5981704,-1.007,0.022,0.121,2.660,3.990,-1.750
5981724,-1.008,0.026,0.116,2.660,3.220,-1.820
5981744,-1.008,0.029,0.115,2.730,3.290,-1.610
5981769,-1.010,0.028,0.116,2.520,2.940,-1.750
5981788,-1.021,0.023,0.114,1.890,2.940,-1.960
5981808,-1.013,0.021,0.107,1.750,3.080,-1.960
5981825,-1.010,0.018,0.105,1.820,3.010,-1.750
5981845,-1.006,0.010,0.113,2.520,2.310,-1.680
5981869,-1.005,0.006,0.107,3.080,1.610,-1.400
5981890,-1.017,0.016,0.099,3.780,-0.350,-1.190
5981908,-1.017,0.023,0.099,3.290,-1.680,-1.260
5981932,-1.023,0.017,0.087,2.940,-4.550,-1.400
5981951,-1.009,0.012,0.073,1.540,-5.460,-1.890
5981972,-1.008,0.013,0.072,-0.070,-4.340,-3.010
5981992,-1.013,0.017,0.083,-0.910,-3.150,-3.710
5982011,-1.022,0.020,0.104,-0.490,-2.380,-4.060
5982035,-1.036,0.017,0.103,0.070,-2.940,-3.010
5982055,-1.034,0.013,0.102,0.210,-1.960,-1.960
5982073,-1.029,0.016,0.121,1.400,-1.470,-1.400
5982097,-1.019,0.025,0.127,1.960,-0.840,-1.050
5982117,-1.015,0.020,0.132,1.190,-1.610,-0.980
5982133,-1.005,0.019,0.128,0.210,-1.750,-1.190
5982153,-0.995,0.020,0.131,-0.700,-1.260,-1.400
5982176,-0.992,0.013,0.123,-0.840,-0.980,-1.820
5982198,-0.994,0.011,0.116,-0.560,-0.630,-2.030
5982217,-0.999,0.006,0.115,-0.070,-0.070,-1.960
5982237,-1.002,0.002,0.112,0.070,0.420,-1.750
5982257,-1.002,0.000,0.105,0.420,0.630,-1.680
5982277,-1.003,0.002,0.104,0.910,1.190,-1.960
5982297,-1.008,0.011,0.102,0.910,1.820,-2.100
5982321,-1.014,0.010,0.106,1.400,2.240,-2.100
5982340,-1.018,0.007,0.109,0.980,1.960,-2.170
5982359,-1.020,0.007,0.105,1.190,1.400,-2.240
5982382,-1.018,0.013,0.096,1.540,1.050,-2.100
5982400,-1.019,0.007,0.099,1.610,0.700,-2.310
5982421,-1.018,0.009,0.095,0.980,0.490,-2.380
5982446,-1.015,0.013,0.102,2.100,-0.560,-2.380
5982465,-1.015,0.027,0.095,2.870,-1.260,-2.240
5982485,-1.021,0.029,0.096,2.660,-1.890,-1.820
5982503,-1.024,0.036,0.095,1.610,-2.380,-1.260
5982522,-1.017,0.025,0.101,0.000,-3.220,-0.840
5982548,-0.990,0.011,0.094,-3.010,-3.360,-1.260
5982567,-0.978,0.000,0.087,-4.410,-0.980,-2.450
5982587,-0.987,0.004,0.101,-4.410,0.280,-2.520
5982606,-1.014,0.000,0.115,-3.430,0.000,-1.610
5982626,-1.027,-0.016,0.119,-2.730,-0.420,-0.350
5982650,-1.020,-0.022,0.103,-3.430,-0.350,-0.280
5982670,-1.003,-0.015,0.108,-3.710,0.980,-0.210
5982686,-0.983,0.004,0.111,-2.450,2.380,-0.070
5982709,-0.977,0.011,0.122,-1.120,4.620,0.700
5982731,-0.990,0.000,0.134,-0.280,4.690,0.490
5982750,-0.988,-0.005,0.124,0.140,5.740,-0.280
5982770,-0.995,-0.005,0.124,0.840,7.280,-0.840
5982789,-1.011,0.013,0.132,1.050,7.840,-1.260
5982812,-1.020,0.034,0.126,0.700,7.700,-1.680
5982829,-1.023,0.044,0.120,0.560,7.350,-0.980
5982852,-1.030,0.036,0.116,-0.630,5.600,0.560
5982872,-1.024,0.005,0.103,-1.820,2.940,1.820
5982893,-1.015,-0.004,0.094,-2.660,-0.350,1.750
5982913,-0.999,0.014,0.079,-3.220,-1.540,1.540
5982938,-1.010,0.006,0.081,-2.030,-1.960,1.680
5982957,-1.020,-0.007,0.087,0.140,-2.520,2.170
5982977,-1.017,-0.018,0.071,1.890,-1.540,2.660
5982996,-1.002,-0.027,0.026,2.100,2.240,2.660
5983017,-0.992,-0.011,0.016,2.450,8.400,1.820
5983037,-0.996,0.000,0.026,3.080,13.090,0.420
5983056,-1.015,0.010,0.033,2.940,17.360,-0.630
5983076,-1.030,0.017,0.045,2.310,23.800,-1.330
5983100,-1.078,0.020,0.079,1.680,22.610,-0.630
5983121,-1.012,0.027,0.000,3.500,11.620,0.140
5983138,-0.957,0.036,0.016,3.080,10.850,0.630
5983158,-0.970,0.024,0.065,3.850,10.010,1.400
5983179,-0.996,0.016,0.048,5.180,8.260,1.330
5983203,-1.021,0.011,0.057,4.900,7.700,0.980
5983223,-1.050,0.001,0.062,5.180,5.250,0.350
5983241,-1.048,0.011,0.042,5.810,4.130,-0.490
5983265,-1.049,0.022,0.035,6.300,3.500,-0.840
5983285,-1.038,0.022,0.031,6.090,2.870,-1.330
5983301,-1.021,0.029,0.029,6.300,2.520,-1.400
5983320,-1.013,0.025,0.024,5.950,2.730,-1.540
5983340,-1.001,0.022,0.014,5.180,2.450,-2.100
5983365,-0.996,0.021,0.020,4.060,2.450,-2.940
5983384,-0.997,0.024,0.017,3.570,2.100,-3.290
5983404,-1.010,0.022,0.020,2.800,1.330,-3.290
5983428,-1.017,0.023,0.017,2.170,-0.280,-2.870
5983446,-1.031,0.023,0.028,2.100,-2.590,-2.450
5983466,-1.033,0.028,0.035,2.660,-6.650,-1.820
5983485,-1.033,0.024,0.041,1.750,-11.690,-0.770
5983509,-1.004,0.015,-0.010,0.210,-16.660,0.000
5983526,-0.979,0.020,-0.013,-2.240,-9.030,-1.190
5983546,-1.073,0.029,0.054,-1.960,-2.380,-1.400
5983570,-1.079,0.018,0.050,-0.770,-2.520,-1.120
5983591,-1.060,0.013,0.045,0.070,-2.240,-1.190
5983608,-1.047,0.004,0.035,0.770,-4.970,-1.190
5983629,-0.988,0.007,0.016,1.400,-5.740,-1.050
5983646,-0.966,0.009,0.022,1.470,-5.250,-0.840
5983670,-0.971,0.014,0.010,1.960,-3.360,-1.050
5983694,-1.013,0.015,0.023,2.240,-2.100,-0.980
5983714,-1.044,0.015,0.031,2.240,-3.640,-1.190
5983732,-1.058,0.022,0.049,2.030,-7.980,-1.190
5983752,-1.061,0.018,0.061,0.910,-16.100,-0.980
5983772,-1.019,0.008,-0.000,-1.260,-15.750,-1.470
5983797,-1.053,0.018,0.096,0.560,-11.760,-2.100
5983813,-1.079,0.018,0.074,1.190,-13.160,-2.310
5983837,-1.049,0.014,0.070,2.450,-14.140,-2.030
5983856,-1.037,0.020,0.100,2.240,-12.740,-2.660
5983877,-1.051,0.030,0.108,1.540,-13.860,-2.030
5983898,-1.018,0.024,0.072,2.170,-15.610,-0.980
5983914,-0.982,0.028,0.072,2.170,-13.860,-0.700
5983937,-0.974,0.023,0.095,1.050,-12.250,-0.140
5983958,-0.975,0.020,0.113,-0.070,-10.990,-0.140
5983978,-0.992,0.009,0.135,-0.420,-11.550,-0.350
5983998,-1.006,0.016,0.138,-0.350,-12.950,-0.910
5984018,-1.015,0.015,0.138,-0.420,-14.070,-1.260
5984042,-1.013,0.024,0.125,-1.050,-14.560,-1.120
5984061,-1.005,0.012,0.127,-1.260,-13.160,-0.770
5984081,-0.999,0.008,0.132,-0.980,-11.410,-0.910
5984105,-0.991,0.000,0.138,-0.910,-9.450,-1.190
5984125,-0.988,-0.003,0.134,-1.190,-8.330,-1.890
5984145,-0.995,0.020,0.137,-1.680,-6.720,-2.170
5984163,-0.997,0.023,0.144,-1.330,-5.600,-1.610
5984183,-1.000,0.017,0.145,-1.540,-3.990,-1.750
5984207,-1.004,0.015,0.163,-1.050,-1.190,-2.170
5984227,-1.019,0.009,0.144,-0.980,-0.910,-2.380
5984246,-1.013,0.009,0.106,-0.490,-0.070,-2.450
5984270,-0.991,0.019,0.102,0.280,2.030,-1.400
5984291,-0.988,0.018,0.119,0.350,1.890,-0.910
5984311,-0.997,0.018,0.142,0.070,-0.280,-0.840
5984328,-1.002,0.020,0.129,0.350,-2.030,-0.490
5984351,-0.996,0.009,0.122,-0.770,-2.730,-0.420
5984369,-0.993,0.007,0.130,-0.560,-3.500,-0.840
5984388,-0.993,0.001,0.127,-0.910,-5.040,-0.910
5984412,-0.995,-0.007,0.103,-0.630,-7.350,-0.630
5984432,-0.975,-0.004,0.081,1.120,-7.000,-0.910
5984451,-0.977,0.001,0.082,1.820,-6.020,-0.630
5984475,-0.973,-0.001,0.064,0.980,-3.570,-0.630
5984495,-0.987,0.007,0.105,0.490,-1.190,-0.980
5984514,-1.017,0.006,0.127,-17.850,-1.120,-1.540
5984535,-1.040,0.010,0.137,-0.560,-1.330,-2.240
5984554,-1.057,0.018,0.134,-0.560,-1.400,-2.520
5984575,-1.065,0.015,0.138,-0.770,-1.890,-2.450
5984594,-1.057,0.016,0.144,-0.770,-2.870,-1.890
5984619,-1.041,0.009,0.142,0.070,-4.550,-1.540
5984640,-1.023,0.006,0.134,1.540,-5.110,-1.680
5984654,-0.998,0.007,0.133,1.680,-4.760,-1.820
5984679,-0.991,0.011,0.136,2.030,-4.130,-2.380
5984698,-0.986,0.013,0.133,1.540,-3.500,-2.520
5984722,-0.980,0.011,0.122,1.540,-1.750,-2.940
5984743,-0.985,0.009,0.122,1.400,-0.210,-2.940
5984762,-0.985,0.002,0.131,1.470,0.980,-3.150
5984779,-0.993,0.001,0.147,1.470,1.400,-3.290
5984799,-1.005,-0.004,0.149,1.960,1.050,-3.150
5984823,-1.009,-0.001,0.149,2.310,0.630,-3.080
5984842,-1.013,-0.001,0.150,2.170,0.490,-2.870
5984865,-1.015,0.001,0.142,2.240,0.210,-2.520
5984884,-1.004,-0.000,0.134,2.520,0.490,-2.240
5984906,-1.002,0.005,0.127,2.660,1.190,-1.960
5984926,-1.008,0.007,0.130,2.380,1.400,-1.890
5984946,-1.014,0.005,0.123,2.450,1.260,-1.680
5984965,-1.012,0.007,0.120,2.450,1.400,-1.540
5984986,-1.017,0.004,0.122,2.170,1.120,-1.400
5985006,-1.016,0.003,0.125,1.960,0.630,-1.470
5985028,-1.017,0.006,0.122,1.610,-0.210,-1.330
5985048,-1.009,0.018,0.120,1.610,-0.280,-0.910
5985068,-1.010,0.017,0.123,0.840,-0.280,-0.490
5985088,-1.010,0.009,0.127,-0.700,-0.840,-0.070
5985107,-0.997,-0.007,0.126,-0.700,-0.700,-0.420
5985127,-0.989,0.001,0.122,-2.800,-0.630,-0.350
5985152,-0.978,-0.000,0.126,-3.360,1.330,-1.050
5985170,-0.991,0.005,0.142,-2.940,2.240,-1.050
5985195,-1.011,0.001,0.149,-2.100,2.310,-1.050
5985214,-1.018,0.003,0.142,-3.640,2.450,-0.840
5985233,-1.013,-0.002,0.136,-4.410,2.240,-1.050
5985252,-1.010,0.003,0.140,-5.320,2.520,-1.330
5985276,-1.012,0.001,0.148,-5.250,3.500,-1.470
5985295,-1.018,0.014,0.161,-4.130,2.100,-0.980
5985314,-1.004,0.009,0.156,-4.270,0.350,-0.560
5985334,-0.991,0.005,0.134,-6.020,1.330,-0.770
5985358,-0.992,0.023,0.141,-6.860,3.430,-0.700
5985377,-0.996,0.018,0.152,-6.020,4.900,-0.140
5985399,-1.009,-0.016,0.146,-5.950,5.250,0.490
5985420,-1.010,-0.029,0.132,-5.180,5.460,0.630
5985439,-1.004,-0.030,0.121,-1.890,6.230,0.420
5985456,-1.008,-0.030,0.122,-0.070,6.650,0.490
5985480,-1.004,-0.024,0.110,-0.420,7.280,0.140
5985500,-1.008,-0.018,0.117,-1.120,7.840,-0.980
5985520,-1.011,-0.004,0.119,-0.350,7.560,-1.750
5985541,-1.015,-0.013,0.118,2.520,7.700,-1.470
5985558,-1.017,-0.018,0.110,3.640,7.980,-0.910
5985579,-1.018,-0.016,0.099,4.060,8.120,-0.630
5985596,-1.014,-0.011,0.093,4.550,9.520,-0.840
5985620,-1.024,-0.001,0.095,5.460,9.310,-1.190
5985640,-1.026,0.008,0.091,6.860,7.770,-0.980
5985661,-1.025,0.013,0.076,7.000,5.530,-0.420
5985679,-1.008,0.015,0.046,5.810,5.950,0.280
5985700,-1.002,0.006,0.041,4.760,6.720,0.210
5985724,-0.996,-0.003,0.049,4.620,6.440,-0.350
5985744,-1.009,-0.012,0.059,4.130,6.510,-0.770
5985760,-1.015,-0.010,0.062,4.340,5.810,-1.330
5985779,-1.018,-0.006,0.060,4.830,4.480,-1.820
5985804,-1.024,0.005,0.061,5.040,3.150,-1.680
5985824,-1.030,0.004,0.063,5.390,0.840,-1.260
5985848,-1.028,0.004,0.058,5.600,-1.260,-0.490
5985867,-1.035,0.009,0.045,5.460,-0.700,0.000
5985888,-1.043,0.007,0.043,4.690,0.140,-0.350
5985908,-1.037,0.003,0.065,2.660,-0.280,-0.910
5985928,-1.022,0.008,0.073,2.170,-1.890,-1.400
5985947,-1.009,0.019,0.072,2.170,-2.520,-1.470
5985971,-1.000,0.018,0.072,1.540,-3.010,-0.840
5985989,-0.994,0.010,0.058,1.470,-2.240,-0.490
5986009,-1.007,0.010,0.073,1.470,-1.120,-0.420
5986029,-1.026,0.007,0.075,0.980,-1.260,-0.350
5986048,-1.034,0.005,0.067,0.420,-2.030,-0.490
5986073,-1.023,0.007,0.056,-0.140,-2.800,-0.630
5986093,-1.003,0.006,0.058,-0.840,-2.660,-1.050
5986109,-0.999,0.011,0.060,-0.910,-2.450,-1.190
5986132,-0.999,0.012,0.065,-0.560,-1.540,-1.120
5986148,-1.014,0.006,0.060,-0.490,-1.960,-1.120
5986174,-1.014,-0.000,0.039,-1.610,-1.820,-1.400
5986193,-1.037,0.000,0.049,-1.680,-1.750,-1.540
5986212,-1.064,-0.010,0.063,-1.540,-3.080,-0.980
5986232,-1.069,-0.009,0.058,0.140,-6.510,0.140
5986248,-1.078,-0.004,0.057,0.140,-9.380,0.840
5986273,-1.053,-0.000,0.050,-0.280,-13.720,1.260
5986293,-1.025,0.007,0.048,0.070,-15.400,1.400
5986312,-1.006,0.017,0.049,0.350,-15.960,1.260
5986330,-0.988,0.015,0.061,0.420,-15.260,0.980
5986353,-0.982,0.013,0.086,0.280,-13.160,0.840
5986374,-0.993,0.009,0.110,-0.280,-10.780,0.070
5986394,-1.011,0.013,0.123,-0.070,-9.170,-0.420
5986413,-1.025,0.013,0.134,-0.140,-8.190,-0.560
5986435,-1.029,0.012,0.137,-0.350,-7.980,-0.630
5986457,-1.023,0.011,0.142,-0.490,-7.840,-0.420
5986476,-1.021,0.012,0.145,-0.280,-8.330,0.280
5986496,-1.006,0.011,0.138,-0.490,-8.050,0.700
5986520,-1.007,0.005,0.134,-0.770,-7.210,0.700
5986540,-0.998,0.007,0.131,-0.770,-6.650,0.630
5986556,-0.993,0.013,0.135,-0.350,-5.600,0.280
5986580,-0.989,0.009,0.128,-0.140,-4.620,0.000
5986601,-0.990,0.001,0.131,0.070,-2.590,-0.070
5986619,-1.002,0.012,0.147,0.000,-2.100,-0.280
5986644,-1.017,0.010,0.146,0.490,-3.080,-0.280
5986663,-1.009,0.008,0.140,0.420,-3.290,0.070
5986683,-1.006,0.008,0.151,1.120,-3.290,-0.350
5986707,-1.000,0.019,0.142,0.910,-2.660,-0.630
5986727,-1.000,0.019,0.145,-0.560,-3.710,-1.190
5986742,-0.991,0.019,0.129,-1.050,-4.200,-1.680
5986763,-0.978,0.019,0.133,-1.680,-3.010,-2.940
5986787,-0.988,0.020,0.141,-2.380,-3.010,-3.640
5986807,-0.995,0.014,0.128,-1.470,-3.220,-3.780
5986827,-0.997,0.000,0.129,-1.260,-2.030,-4.130
5986846,-1.010,0.000,0.135,-0.350,-1.960,-4.130
5986871,-1.015,0.006,0.136,1.260,-2.030,-3.570
5986890,-1.007,0.003,0.132,2.450,-2.380,-2.800
5986909,-0.998,0.013,0.135,2.870,-2.590,-2.240
5986929,-0.990,0.019,0.132,2.730,-3.570,-1.610
5986952,-0.982,0.014,0.114,1.750,-3.710,-1.120
5986973,-0.985,0.007,0.091,1.540,-3.920,-0.910
5986997,-0.989,-0.123,0.091,0.910,-2.380,-0.910
5987017,-1.004,-0.006,0.086,0.210,-1.750,-0.910
5987041,-1.016,-0.006,0.095,0.770,-0.560,-0.840
5987059,-1.037,-0.003,0.113,1.470,0.700,-0.560
5987081,-1.057,0.005,0.122,1.540,1.330,-0.210
5987101,-1.062,0.008,0.136,1.190,0.980,-0.210
5987125,-1.053,0.009,0.144,1.050,-0.700,-0.210
5987146,-1.029,0.014,0.145,0.980,-3.080,-0.070
5987166,-1.012,0.012,0.145,1.400,-4.200,-0.210
5987185,-0.997,0.015,0.135,1.610,-4.550,-0.280
5987205,-0.987,0.015,0.128,1.750,-3.990,-0.770
5987223,-0.986,0.013,0.124,1.400,-3.500,-0.980
5987247,-0.995,0.012,0.126,1.260,-2.030,-1.120
5987266,-1.000,0.006,0.132,1.610,-1.120,-1.050
5987291,-1.003,0.002,0.132,2.170,-0.280,-1.050
5987309,-1.002,0.006,0.134,2.240,-0.280,-1.050
5987331,-1.006,0.008,0.139,2.380,-0.210,-1.190
5987350,-1.009,0.010,0.140,2.100,-0.210,-1.120
5987374,-1.013,0.009,0.144,1.890,-0.770,-1.190
5987394,-1.013,0.011,0.140,2.170,-0.350,-1.190
5987414,-1.012,0.006,0.133,1.890,-0.700,-1.050
5987434,-1.002,0.004,0.127,1.050,-0.140,-1.190
5987458,-1.004,0.009,0.126,1.400,0.490,-1.330
5987477,-1.004,0.012,0.125,2.100,0.560,-1.120
5987498,-1.010,0.009,0.124,1.400,-0.280,-0.980
5987519,-1.012,0.011,0.117,0.840,-0.350,-0.910
5987538,-1.020,0.011,0.122,0.490,-1.050,-0.700
5987556,-1.017,0.008,0.120,0.490,-1.960,-0.490
5987575,-1.011,0.003,0.114,0.420,-2.170,-0.700
5987599,-1.009,0.006,0.112,0.490,-2.590,-0.840
5987617,-1.002,0.005,0.108,0.280,-2.800,-0.910
5987637,-1.002,0.000,0.112,-0.350,-2.870,-1.260
5987658,-1.003,0.010,0.113,-1.470,-2.870,-2.100
5987683,-1.001,0.024,0.115,-1.960,-2.170,-2.520
5987702,-0.999,0.035,0.118,-2.030,-0.700,-2.240
5987723,-1.004,0.031,0.141,-2.450,0.420,-1.470
5987738,-1.018,0.014,0.151,-3.080,-0.140,-1.050
5987761,-1.019,0.010,0.143,-3.920,-1.400,-0.630
5987780,-1.012,0.012,0.137,-5.250,-1.400,-0.770
5987803,-0.991,0.015,0.122,-5.180,0.210,-0.490
5987821,-0.992,0.003,0.142,-4.270,1.470,0.420
5987845,-0.980,-0.020,0.148,-3.220,2.100,0.140
5987864,-0.953,-0.018,0.140,-3.430,5.740,-0.560
5987884,-0.957,-0.008,0.160,-2.590,9.310,-1.960
5987904,-0.974,0.015,0.175,-0.070,11.760,-2.170
5987927,-0.994,0.021,0.168,-0.140,12.880,-1.190
5987949,-1.006,0.007,0.157,-1.960,13.860,-0.840
5987966,-0.992,-0.015,0.149,-2.240,15.050,-1.120
5987990,-0.980,-0.034,0.143,-0.700,16.310,-2.030
5988008,-0.994,-0.018,0.139,0.420,17.640,-2.450
5988031,-1.017,-0.006,0.140,2.310,17.150,-2.590
5988053,-1.034,0.007,0.101,3.220,14.770,-2.240
5988072,-1.050,0.013,0.083,2.940,14.910,-1.820
5988097,-1.052,0.023,0.065,1.820,14.280,-1.120
5988111,-1.037,0.019,0.046,0.560,13.860,-0.630
5988134,-1.000,0.014,0.036,-2.380,14.770,-1.120
5988154,-1.013,0.009,0.061,-3.430,14.280,-1.890
5988174,-1.028,0.012,0.065,-3.150,12.180,-1.610
5988198,-1.033,-0.002,0.057,-2.170,10.220,-0.210
5988219,-1.038,-0.018,0.046,-1.120,8.400,0.630
5988236,-1.034,-0.030,0.042,0.280,7.350,1.470
5988257,-1.029,-0.027,0.036,1.610,6.090,1.890
5988277,-1.022,-0.035,0.025,3.990,5.250,1.820
5988301,-1.032,-0.012,0.030,5.950,4.270,1.400
5988320,-1.031,0.005,0.026,7.420,2.870,1.400
5988340,-1.025,0.008,0.017,6.860,0.980,0.770
5988363,-1.014,0.011,0.024,6.440,0.210,0.350
5988383,-1.023,0.022,0.037,6.020,-0.280,0.140
5988403,-1.033,0.020,0.043,5.390,-1.820,-0.140
5988427,-1.034,0.016,0.039,5.040,-4.620,-0.350
5988447,-1.032,0.020,0.040,4.270,-7.280,-0.350
5988467,-1.024,0.024,0.036,3.150,-9.030,-0.420
5988488,-1.020,0.020,0.034,2.100,-9.870,-0.490
5988507,-1.018,0.014,0.035,1.680,-11.760,-0.560
5988527,-1.009,0.013,0.022,2.800,-13.160,-0.420
5988548,-1.000,0.006,0.002,2.310,-11.410,-0.630
5988567,-1.007,-0.001,0.000,1.750,-9.660,-0.630
5988586,-1.010,0.002,0.005,1.050,-9.520,-1.120
5988605,-1.017,0.020,0.014,-0.140,-9.100,-1.680
5988627,-1.047,0.029,0.061,-0.700,-10.080,-1.750
5988647,-1.062,0.028,0.084,-1.260,-12.880,-1.680
5988671,-1.057,0.025,0.073,-2.520,-16.520,-1.890
5988692,-1.043,0.025,0.065,-3.290,-17.430,-1.820
5988711,-1.036,0.023,0.090,-3.010,-17.430,-1.470
5988728,-1.036,0.027,0.104,-2.310,-17.430,-0.490
5988751,-1.035,0.013,0.122,-1.680,-17.080,1.400
5988770,-1.016,-0.007,0.135,-0.910,-16.660,2.940
5988792,-1.005,-0.017,0.142,-0.350,-15.610,3.080
5988811,-0.996,-0.006,0.138,-0.070,-14.070,2.100
5988830,-0.992,-0.001,0.148,0.980,-12.390,1.260
5988851,-0.988,0.009,0.155,2.100,-11.130,1.330
5988871,-0.987,0.003,0.152,3.780,-10.010,1.610
5988890,-0.993,0.008,0.147,4.900,-8.120,1.750
5988916,-1.001,0.012,0.155,4.830,-6.160,2.590
5988935,-1.005,-0.001,0.165,5.250,-5.740,3.570
5988955,-0.997,0.001,0.156,5.880,-4.830,2.660
5988979,-0.995,0.022,0.161,5.530,-2.590,2.590
5988999,-1.013,0.028,0.167,4.200,-1.820,2.310
5989019,-1.011,0.043,0.162,2.520,-3.780,2.310
5989038,-0.985,0.031,0.144,1.400,-4.340,2.030
5989062,-0.974,0.034,0.134,-0.210,-3.920,1.540
5989082,-0.983,0.046,0.138,-1.400,-2.870,1.120
5989097,-0.993,0.043,0.140,-1.400,-2.800,0.490
5989118,-0.994,0.039,0.140,-2.170,-3.010,0.840
5989139,-0.991,0.037,0.118,-3.150,0.630,0.770
5989157,-1.007,0.048,0.143,-3.150,2.520,0.770
5989181,-1.023,0.042,0.150,-3.290,1.680,1.470
5989200,-1.021,0.028,0.136,-3.220,-1.050,1.470
5989226,-0.991,0.013,0.118,-3.850,-4.060,0.560
5989245,-0.985,0.016,0.111,-3.710,-5.110,-0.560
5989263,-0.982,0.024,0.108,-3.080,-5.810,-1.610
5989287,-0.982,0.028,0.104,-2.030,-5.670,-2.170
5989306,-0.988,0.024,0.103,-0.630,-4.760,-2.100
5989327,-1.001,0.027,0.103,2.030,-3.780,-1.400
5989347,-1.008,0.021,0.105,2.870,-2.590,-0.210
5989367,-1.005,0.016,0.107,3.430,-1.470,0.210
5989387,-1.006,0.017,0.110,2.870,-1.680,-0.070
5989405,-1.004,0.029,0.109,2.660,-1.890,-0.420
5989424,-1.015,0.034,0.126,3.010,-1.540,-0.630
5989448,-1.024,0.026,0.134,2.870,-1.960,-0.770
5989467,-1.026,0.020,0.134,2.100,-1.330,-1.190
5989487,-1.038,0.028,0.137,2.590,-0.700,-0.910
5989507,-1.037,0.030,0.136,3.360,-0.560,-0.210
5989530,-1.022,0.032,0.132,3.920,-0.700,0.210
5989551,-1.015,0.036,0.135,4.270,-0.700,0.630
5989570,-1.004,0.040,0.139,4.340,-0.910,0.490
5989594,-1.000,0.044,0.139,3.920,-1.050,0.210
5989613,-1.002,0.044,0.139,3.500,-1.750,0.070
5989633,-1.001,0.041,0.131,3.080,-1.890,0.070
5989653,-1.002,0.032,0.125,3.010,-1.820,0.070
5989677,-1.007,0.027,0.123,3.150,-1.820,0.000
5989697,-1.010,0.030,0.120,3.640,-1.330,0.070
5989715,-1.012,0.027,0.127,3.780,-1.260,0.070
5989735,-1.015,0.039,0.126,3.220,-2.450,0.140
5989759,-1.010,0.047,0.122,2.590,-2.730,0.280
5989779,-1.010,0.045,0.121,1.330,-3.290,0.280
5989798,-1.007,0.046,0.123,0.840,-3.780,0.070
5989824,-1.005,0.051,0.136,2.310,-4.480,-0.210
5989841,-1.007,0.067,0.131,2.520,-4.970,-0.210
5989861,-1.018,0.068,0.133,1.050,-6.440,0.070
5989880,-1.006,0.080,0.123,0.070,-6.790,0.280
5989904,-0.999,0.084,0.135,-0.280,-5.460,0.700
5989925,-0.988,0.054,0.152,-1.400,-3.990,1.050
5989950,-0.968,0.033,0.154,-3.010,-0.630,-0.140
5989967,-0.969,0.047,0.164,-4.060,2.310,-1.190
5989988,-0.986,0.048,0.177,-6.020,3.010,-1.260
5990011,-0.979,0.025,0.165,-7.280,3.990,-3.010
5990035,-0.981,0.013,0.174,-9.380,6.230,-4.410
5990054,-0.982,0.012,0.176,-11.410,8.330,-6.510
5990073,-0.967,0.014,0.180,-9.940,9.870,-8.330
5990094,-0.978,0.029,0.182,-7.560,11.620,-9.170
5990115,-1.000,0.026,0.202,-4.410,12.320,-7.840
5990134,-1.025,0.025,0.187,-1.400,10.430,-5.530
5990153,-1.021,0.020,0.146,1.120,11.550,-4.270
5990177,-1.010,0.023,0.137,3.360,14.910,-3.500
5990201,-1.017,0.044,0.171,3.640,15.680,-2.940
5990217,-1.022,0.067,0.179,2.730,12.740,-2.940
5990241,-1.005,0.048,0.140,0.840,9.380,-3.080
5990259,-0.987,0.033,0.118,-1.680,10.430,-3.500
5990278,-1.011,0.014,0.125,-3.290,12.810,-4.410
5990303,-1.039,0.006,0.125,-4.130,11.200,-4.550
5990322,-1.043,0.001,0.086,-3.500,9.100,-4.200
5990341,-1.032,-0.013,0.065,-1.750,7.420,-3.710
5990361,-1.016,-0.012,0.055,0.000,7.490,-3.080
5990386,-1.019,-0.008,0.061,0.840,6.930,-2.030
5990405,-1.030,-0.002,0.061,0.420,6.160,-2.380
5990425,-1.039,0.020,0.062,1.400,4.480,-2.100
5990444,-1.032,0.020,0.056,2.310,3.780,-1.540
5990466,-1.029,0.020,0.058,2.800,3.010,-1.400
5990486,-1.023,0.016,0.056,2.940,2.380,-1.260
5990510,-1.020,0.019,0.059,3.850,1.540,-1.470
5990530,-1.019,0.012,0.054,3.500,-0.070,-1.610
5990548,-1.009,-0.006,0.048,3.220,-0.700,-1.820
5990572,-1.005,0.001,0.057,5.110,-0.070,-1.890
5990590,-1.030,0.019,0.071,6.860,-0.770,-1.400
5990614,-1.039,0.022,0.058,6.160,-2.310,-1.050
5990634,-1.034,0.021,0.053,5.110,-2.030,-1.470
5990649,-1.028,0.020,0.069,4.410,-1.820,-1.750
5990671,-1.017,0.018,0.079,4.340,-3.150,-1.960
5990689,-1.012,0.023,0.073,4.340,-4.200,-2.100
5990714,-1.010,0.022,0.066,4.410,-5.670,-1.820
5990734,-1.014,0.020,0.055,4.270,-6.720,-1.260
5990751,-1.005,0.018,0.048,3.850,-7.280,-0.700
5990775,-0.998,0.020,0.041,3.640,-6.580,-0.700
5990795,-1.009,0.011,0.051,3.500,-6.300,-0.910
5990815,-1.017,0.016,0.041,2.660,-6.790,-1.400
5990839,-1.028,0.019,0.055,0.630,-6.230,-2.590
5990856,-1.038,0.028,0.077,0.770,-6.720,-3.010
5990876,-1.048,0.027,0.099,1.330,-8.960,-2.590
5990900,-1.040,0.024,0.095,0.910,-11.200,-2.450
5990920,-1.043,0.011,0.096,1.540,-12.530,-1.820
5990939,-1.040,0.002,0.102,2.520,-13.160,-1.190
5990960,-1.039,0.007,0.122,2.940,-13.300,-0.560
5990981,-1.040,0.013,0.129,4.060,-13.720,-0.280
5991000,-1.030,0.018,0.140,3.570,-13.720,0.490
5991019,-1.015,0.011,0.141,2.590,-14.000,0.770
5991039,-0.991,0.009,0.142,0.980,-12.950,0.420
5991058,-0.977,0.013,0.145,-0.140,-10.850,-0.280
5991083,-0.979,0.016,0.163,-0.700,-8.960,-1.330
5991103,-0.977,0.014,0.173,-0.630,-6.580,-1.400
5991123,-1.001,0.019,0.188,-0.770,-5.600,-2.170
5991143,-1.012,0.019,0.183,-0.420,-5.950,-1.820
5991167,-1.009,0.011,0.175,0.770,-4.900,-0.700
5991186,-1.012,-0.003,0.174,1.610,-4.270,0.490
5991206,-1.008,-0.006,0.169,2.310,-3.500,1.330
5991227,-1.003,-0.001,0.163,3.710,-3.220,2.100
5991243,-0.999,-0.004,0.165,4.690,-2.240,1.610
5991262,-0.989,0.017,0.153,3.290,-2.800,0.840
5991286,-0.996,0.032,0.138,0.490,-2.730,-0.770
5991306,-0.983,0.048,0.140,-0.420,-2.030,-1.540
5991324,-0.997,0.041,0.144,-1.610,-0.980,-2.450
5991345,-1.012,0.029,0.153,-4.340,-2.520,-3.640
5991369,-1.005,0.015,0.131,-5.320,-2.730,-4.480
5991389,-1.000,0.014,0.148,-4.830,-1.120,-4.060
5991407,-1.001,0.020,0.156,-3.500,-1.610,-3.430
5991429,-0.989,0.013,0.137,-0.980,-2.310,-2.310
5991454,-0.993,0.009,0.133,0.420,-3.220,-1.120
5991473,-1.001,0.014,0.134,0.700,-3.990,0.000
5991493,-1.005,0.015,0.130,1.260,-4.830,0.980
5991511,-1.008,0.022,0.129,1.820,-5.320,1.820
5991535,-1.003,0.018,0.136,1.260,-7.140,2.800
5991554,-0.994,0.014,0.130,-0.070,-9.730,2.730
5991575,-0.982,0.010,0.111,-1.680,-9.590,2.380
5991596,-0.978,0.004,0.107,-1.540,-7.210,2.240
5991614,-0.993,0.001,0.115,-2.030,-4.900,2.030
5991637,-1.008,0.005,0.123,-1.470,-3.360,2.100
5991658,-1.019,-0.000,0.130,-0.210,-1.820,1.960
5991678,-1.034,0.005,0.142,0.350,-1.120,1.960
5991698,-1.036,0.013,0.154,0.140,-1.260,1.750
5991722,-1.032,0.025,0.161,-0.420,-1.960,1.610
5991740,-1.020,0.022,0.161,-0.420,-3.220,1.540
5991762,-1.010,0.023,0.154,-0.560,-3.640,1.330
5991781,-1.004,0.024,0.151,-0.420,-3.570,1.190
5991799,-1.004,0.024,0.147,-0.280,-3.080,0.840
5991821,-1.000,0.028,0.145,0.070,-2.450,0.700
5991841,-0.998,0.031,0.139,0.910,-1.820,0.420
5991860,-0.998,0.033,0.137,1.190,-0.840,0.350
5991885,-1.002,0.033,0.142,1.260,-0.700,0.490
5991905,-1.003,0.028,0.142,1.260,-0.630,0.490
5991925,-1.000,0.022,0.138,1.400,-1.190,0.280
5991948,-0.997,0.021,0.135,2.030,-0.980,0.140
5991969,-0.990,0.030,0.130,3.010,-0.280,-0.140
5991988,-0.983,0.035,0.116,2.030,-0.070,-0.210
5992008,-0.962,0.040,0.101,0.840,1.470,-0.420
5992032,-0.958,0.041,0.113,1.400,4.690,-1.050
5992052,-0.981,0.036,0.156,2.310,8.190,-1.540
5992072,-1.019,0.030,0.183,1.400,8.050,-1.610
5992096,-1.032,0.032,0.180,-0.350,7.350,-2.590
5992116,-1.033,0.031,0.168,-2.380,7.140,-3.010
5992136,-1.024,0.029,0.161,-3.080,7.000,-3.150
5992158,-1.020,0.023,0.165,-2.450,7.280,-3.360
5992178,-1.014,0.016,0.172,-2.450,5.950,-2.940
5992202,-1.004,0.008,0.154,-3.920,5.390,-3.360
5992222,-0.997,0.016,0.154,-4.270,6.510,-3.360
5992242,-1.006,0.024,0.163,-2.940,7.700,-3.360
5992262,-0.996,0.019,0.154,-0.630,7.910,-2.800
5992279,-0.984,0.004,0.153,0.980,9.170,-2.310
5992299,-0.991,-0.006,0.158,0.490,9.590,-1.890
5992318,-0.998,0.009,0.158,0.490,7.560,-1.960
5992343,-0.997,0.020,0.151,1.260,6.300,-2.660
5992363,-1.020,0.031,0.140,0.980,6.020,-2.660
5992382,-1.034,0.030,0.140,0.350,4.760,-2.100
5992402,-1.031,0.030,0.134,0.210,3.150,-1.610
5992425,-1.015,0.019,0.130,0.840,2.520,-1.120
5992450,-1.008,0.012,0.123,2.800,3.290,-0.700
5992465,-0.994,0.009,0.001,3.710,3.850,-0.770
5992484,-0.981,0.022,0.126,3.850,4.410,-1.120
5992504,-0.989,0.037,0.140,3.640,5.180,-2.030
5992529,-1.005,0.034,0.136,4.060,4.830,-1.960
5992549,-1.026,0.019,0.131,2.730,2.800,-2.170
5992564,-1.030,0.011,0.097,-0.350,1.610,-2.870
5992586,-1.048,0.016,0.085,-2.590,1.120,-3.430
5992606,-1.057,0.013,0.080,-0.700,0.000,-3.010
5992625,-1.044,0.003,0.078,0.700,-1.960,-2.100
5992650,-1.024,0.008,0.069,-0.420,-2.870,-2.100
5992670,-1.011,0.020,0.070,-0.630,-3.150,-1.470
5992685,-1.010,0.016,0.068,0.980,-2.660,-1.190
5992710,-1.016,0.007,0.073,2.310,-2.380,-0.280
5992730,-1.004,-0.015,0.074,3.150,-2.940,0.420
5992750,-0.997,-0.028,0.068,4.620,-2.240,0.420
5992770,-1.003,-0.005,0.071,6.650,-0.280,0.000
5992790,-1.039,0.016,0.093,6.720,-0.070,-0.350
5992807,-1.045,0.022,0.089,6.020,-1.260,-0.420
5992831,-1.041,0.032,0.097,4.900,-1.890,-0.140
5992851,-1.038,0.033,0.111,4.410,-3.010,0.280
5992875,-1.028,0.034,0.103,4.410,-5.320,0.350
5992895,-1.011,0.032,0.090,4.270,-7.210,0.560
5992916,-1.001,0.024,0.084,4.130,-8.470,0.700
5992933,-1.004,0.017,0.080,3.430,-9.100,0.840
5992956,-0.996,0.020,0.075,2.870,-7.910,0.350
5992976,-1.015,0.020,0.095,3.290,-5.810,0.070
5992996,-1.038,0.024,0.112,3.010,-6.790,-0.140
5993020,-1.031,0.022,0.111,2.240,-8.470,-0.560
5993041,-1.031,0.022,0.122,1.540,-9.310,-0.630
5993059,-1.031,0.032,0.133,1.330,-9.940,-0.840
5993078,-1.021,0.033,0.133,0.350,-9.800,-0.770
5993097,-1.020,0.036,0.136,-0.350,-8.750,-0.560
5993123,-1.021,0.032,0.152,-1.120,-7.910,-0.420
5993142,-1.015,0.029,0.161,-1.890,-8.400,-0.280
5993165,-1.006,0.027,0.157,-2.380,-7.630,-0.630
5993186,-1.005,0.026,0.166,-3.010,-6.090,-0.910
5993206,-0.996,0.019,0.173,-2.730,-4.480,-1.190
5993226,-1.004,0.020,0.187,-2.940,-2.870,-1.330
5993246,-1.007,0.018,0.187,-2.100,-1.680,-0.910
5993270,-1.000,0.016,0.183,-0.070,-0.490,-0.490
5993290,-1.000,0.016,0.183,0.980,1.050,0.000
5993306,-1.006,0.005,0.187,1.680,1.750,0.420
5993329,-1.015,0.000,0.186,1.680,2.380,0.840
5993349,-1.029,0.013,0.191,1.190,1.400,0.420
5993370,-1.028,0.023,0.165,0.840,-1.050,-0.420
5993394,-1.016,0.035,0.141,0.630,-1.820,-0.700
5993414,-1.014,0.042,0.147,0.770,-3.780,-0.490
5993430,-1.010,0.035,0.146,0.700,-6.300,0.280
5993449,-0.984,0.025,0.125,0.560,-7.630,0.210
5993474,-0.968,0.018,0.122,0.140,-7.280,0.140
5993494,-0.961,0.015,0.249,0.700,-6.370,-0.070
5993514,-0.971,0.028,0.137,1.750,-5.880,-0.420
5993533,-0.987,0.031,0.144,1.330,-6.370,-0.210
5993557,-0.994,0.021,0.132,0.280,-7.000,-0.770
5993580,-0.991,0.020,0.136,1.050,-6.090,-1.750
5993601,-0.995,0.027,0.159,1.820,-7.210,-1.750
5993621,-1.000,0.023,0.148,2.590,-9.870,-1.820
5993640,-0.987,0.028,0.130,2.800,-10.920,-1.960
5993665,-0.981,0.039,0.122,1.120,-9.800,-2.170
5993682,-0.983,0.041,0.122,0.280,-8.260,-2.170
5993705,-0.997,0.040,0.129,0.490,-5.950,-1.960
5993724,-0.999,0.037,0.130,0.490,-2.590,-1.190
5993745,-1.011,0.029,0.148,0.700,0.210,-0.210
5993764,-1.022,0.023,0.163,1.050,1.540,0.350
5993781,-1.030,0.020,0.170,0.980,1.680,0.840
5993805,-1.027,0.026,0.176,1.120,1.190,0.630
5993829,-1.019,0.032,0.186,0.000,-0.700,0.000
5993848,-1.010,0.026,0.180,-0.350,-2.800,-0.280
5993873,-1.001,0.023,0.163,-0.840,-3.360,-0.420
5993892,-0.997,0.019,0.152,-0.350,-2.310,-0.560
5993912,-0.998,0.020,0.153,-0.140,-0.840,-0.630
5993930,-1.004,0.017,0.153,0.210,0.630,-0.840
5993950,-1.010,0.016,0.152,0.490,1.610,-1.260
5993969,-1.013,0.021,0.159,0.560,1.470,-1.540
5993989,-1.018,0.027,0.162,0.630,0.280,-1.540
5994014,-1.024,0.028,0.162,0.700,-1.680,-1.120
5994032,-1.023,0.029,0.159,1.120,-3.500,-0.770
5994055,-1.020,0.021,0.160,1.470,-5.810,-0.560
5994074,-1.017,0.017,0.149,2.380,-8.120,-0.560
5994098,-1.006,0.021,0.130,2.800,-9.170,-0.770
5994118,-0.996,0.038,0.128,2.450,-9.100,-1.400
5994137,-0.978,0.050,0.123,2.240,-7.910,-1.750
5994162,-0.971,0.055,0.144,1.890,-2.800,-1.470
5994182,-0.978,0.045,0.173,2.240,-0.070,-1.120
5994200,-0.983,0.037,0.189,2.170,2.380,-1.260
5994221,-0.987,0.018,0.199,-0.070,4.060,-1.680
5994241,-0.992,0.020,0.203,-2.730,4.340,-3.010
5994265,-0.985,0.026,0.197,-3.570,5.460,-4.690
5994285,-0.985,0.040,0.197,-2.520,8.050,-4.760
5994300,-1.005,0.039,0.219,-3.150,8.610,-4.270
5994325,-1.018,0.031,0.214,-4.060,7.770,-3.430
5994346,-1.001,0.029,0.192,-4.900,8.050,-3.290
5994365,-0.997,0.027,0.180,-5.460,9.800,-3.570
5994383,-0.991,0.024,0.177,-5.320,10.360,-3.500
5994403,-0.987,0.027,0.168,-3.850,10.010,-3.220
5994426,-0.977,0.014,0.161,-2.240,10.780,-2.940
5994444,-0.966,-0.009,0.160,-2.450,12.110,-2.870
5994468,-0.972,0.005,0.167,-3.360,12.950,-3.150
5994489,-0.981,0.026,0.169,-2.520,14.140,-3.080
5994506,-1.012,0.026,0.165,-1.260,14.560,-2.310
5994528,-1.033,-0.006,0.147,-1.050,13.300,-1.470
5994548,-1.017,-0.018,0.114,-1.680,13.160,-1.400
5994572,-1.003,-0.008,0.105,-1.470,15.960,-3.150
5994592,-1.027,0.004,0.137,0.560,16.170,-3.850
5994610,-1.042,0.000,0.148,1.960,12.600,-4.410
5994629,-1.040,0.018,0.124,0.910,9.310,-4.480
5994653,-1.017,0.030,0.097,-0.560,8.820,-4.060
5994672,-1.027,0.046,0.104,-2.940,9.520,-2.870
5994696,-1.032,0.036,0.100,-2.870,7.490,-1.610
5994716,-1.016,0.010,0.079,-3.710,7.070,-0.980
5994734,-1.010,-0.007,0.070,-5.250,7.070,-0.560
5994756,-1.014,-0.016,0.080,-5.460,6.090,-1.120
5994777,-1.030,-0.020,0.077,-3.990,4.550,-1.120
5994795,-1.027,-0.014,0.061,-2.030,3.850,-0.560
5994819,-1.027,-0.002,0.053,-0.210,3.850,0.140
5994839,-1.023,-0.002,0.053,1.400,3.570,0.350
5994856,-1.019,-0.019,0.055,2.170,3.290,0.420
5994876,-1.019,-0.025,0.059,3.290,1.890,-0.210
5994900,-1.023,0.003,0.053,3.780,1.610,-0.700
5994915,-1.029,0.016,0.058,3.640,1.750,-0.420
5994935,-1.029,0.024,0.065,3.220,1.540,0.210
5994959,-1.025,0.021,0.067,3.290,0.630,0.910
5994978,-1.017,0.014,0.063,3.290,-1.190,1.190
5994999,-1.013,-0.002,0.060,3.920,-1.540,1.050
5995024,-1.017,-0.005,0.055,4.970,-2.030,0.490
5995039,-1.015,-0.015,0.048,4.690,-3.500,0.280
5995059,-1.010,-0.022,0.028,4.340,-4.900,-0.070
5995083,-1.001,-0.011,0.017,4.060,-4.620,-1.120
5995103,-1.006,0.006,0.039,4.340,-3.570,-2.100
5995123,-1.040,0.007,0.061,5.670,-4.410,-2.450
5995143,-1.044,0.007,0.039,5.530,-6.580,-2.940
5995167,-1.028,0.012,0.026,4.970,-7.140,-3.920
5995187,-1.025,0.017,0.061,5.040,-6.510,-4.130
5995206,-1.038,0.024,0.086,4.970,-7.910,-3.920
5995225,-1.032,0.032,0.089,5.040,-9.240,-3.430
5995249,-1.029,0.027,0.095,4.410,-8.890,-2.450
5995269,-1.030,0.013,0.114,3.850,-7.910,-2.380
5995285,-1.042,-0.000,0.126,3.360,-7.910,-2.030
5995307,-1.034,-0.002,0.118,4.690,-7.980,-1.540
5995329,-1.013,0.006,0.130,4.970,-6.020,-1.470
5995348,-1.003,0.019,0.138,4.130,-5.740,-1.540
5995372,-0.987,0.025,0.132,3.290,-3.570,-1.750
5995392,-0.987,0.035,0.137,1.960,-1.400,-1.540
5995410,-0.992,0.021,0.141,0.910,-0.630,-1.120
5995429,-0.991,0.011,0.138,-0.490,0.280,-0.700
5995453,-0.992,-0.005,0.134,-1.330,0.560,0.070
5995474,-0.994,-0.015,0.122,-2.660,0.770,-1.050
5995494,-0.999,-0.010,0.125,-3.220,1.120,-0.840
5995513,-1.015,-0.014,0.131,-3.430,0.140,-1.260
5995535,-1.024,-0.022,0.122,-3.080,-0.910,-2.170
5995557,-1.025,-0.015,0.120,-3.290,-0.980,-3.150
5995575,-1.024,-0.003,0.120,-2.240,-2.450,-3.150
5995594,-1.019,0.001,0.117,-1.400,-3.080,-2.940
5995619,-1.019,-0.005,0.113,0.140,-4.200,-2.730
5995638,-1.006,-0.009,0.106,1.820,-5.110,-2.660
5995654,-0.999,-0.019,0.103,3.150,-5.390,-2.940
5995674,-0.983,-0.017,0.095,4.760,-5.110,-3.640
5995700,-0.967,-0.001,0.093,5.880,-4.060,-3.360
5995717,-0.980,0.009,0.094,6.650,-3.850,-2.520
5995740,-0.994,0.003,0.091,7.280,-4.200,-1.470
5995761,-1.012,-0.005,0.099,7.770,-4.410,-1.050
5995777,-1.024,0.009,0.089,7.980,-5.250,-0.910
5995800,-1.028,0.011,0.082,7.140,-6.020,-0.280
5995821,-1.029,0.009,0.069,6.090,-6.370,0.070
5995838,-1.034,0.011,0.077,6.020,-6.090,0.630
5995859,-1.021,0.007,0.082,5.740,-6.230,1.400
5995882,-1.008,0.004,0.078,5.530,-5.670,1.750
5995905,-0.999,0.006,0.073,4.830,-4.410,1.610
5995926,-1.001,0.008,0.087,3.500,-3.080,1.190
5995946,-1.013,0.009,0.096,2.240,-3.290,0.770
5995970,-1.010,0.004,0.102,1.260,-3.570,0.280
5995990,-1.003,-0.003,0.109,0.700,-3.220,17.850
5996010,-1.005,-0.006,0.109,0.840,-3.150,0.000
5996029,-1.007,-0.003,0.114,0.980,-2.800,0.000
5996050,-1.014,0.000,0.116,0.700,-3.150,0.140
5996074,-1.018,0.003,0.114,0.350,-3.430,0.000
5996094,-1.012,0.010,0.109,-0.560,-3.500,-0.210
5996113,-1.008,0.016,0.105,-0.910,-3.220,0.070
5996133,-1.007,0.014,0.109,-1.330,-3.010,0.140
5996157,-1.015,0.008,0.116,-1.470,-3.710,0.280
5996177,-1.015,0.008,0.107,-1.120,-4.550,0.490
5996197,-1.010,0.011,0.106,-0.420,-4.760,0.630
5996212,-1.005,0.013,0.112,-0.210,-4.620,0.560
5996237,-1.004,0.015,0.120,-0.210,-4.970,0.700
5996257,-0.999,0.023,0.112,0.350,-5.740,0.910
5996274,-0.993,0.024,0.104,0.070,-5.110,1.120
5996295,-0.994,0.024,0.112,-0.980,-4.060,1.330
5996315,-1.001,0.021,0.111,-2.310,-3.150,1.050
5996338,-1.000,0.020,0.121,-3.360,-2.590,0.210
5996358,-0.999,0.019,0.156,-3.640,-1.610,-0.840
5996378,-1.012,0.020,0.181,-2.590,-2.660,-0.910
5996401,-1.011,0.010,0.150,-2.450,-1.120,-1.400
5996417,-1.011,0.005,0.149,-2.520,1.050,-1.960
5996442,-1.024,0.000,0.163,-3.570,1.050,-2.380
5996462,-1.006,0.006,0.148,-4.480,0.490,-2.520
5996481,-0.981,0.013,0.141,-4.830,1.330,-2.520
5996501,-0.975,0.004,0.151,-2.940,2.590,-2.380
5996521,-0.989,-0.003,0.158,-2.100,3.500,-1.960
5996545,-0.999,0.003,0.141,-1.050,4.480,-1.470
5996565,-0.996,0.017,0.160,0.070,6.230,-1.400
5996585,-1.006,0.012,0.172,-0.070,6.510,-1.050
5996608,-1.016,0.009,0.153,-1.260,6.020,-0.630
5996628,-1.002,0.008,0.127,-0.630,5.880,-0.210
