Timestamp,AccelX,AccelY,AccelZ,GyroX,GyroY,GyroZ
179.271733,-0.054,-0.050,1.052,0.770,-2.590,-0.840
179.280656,-0.057,-0.055,1.055,0.560,-1.890,-0.840
179.287656,-0.061,-0.065,1.037,5.390,-3.080,-0.490
179.296635,-0.078,-0.047,1.068,-0.560,-5.390,-1.190
179.305653,-0.016,-0.021,1.032,-7.420,-3.360,-0.560
179.316923,-0.075,-0.070,1.077,1.120,-3.780,-0.980
179.325755,-0.078,-0.040,1.038,-2.310,-4.340,-0.700
179.32965,-0.058,-0.054,1.031,2.800,-3.150,-0.770
179.338643,-0.041,-0.044,1.070,-1.750,-2.940,-1.050
179.346663,-0.039,-0.065,1.053,3.500,-1.190,-0.910
179.356392,-0.062,-0.026,1.045,-0.910,-2.660,-0.700
179.365255,-0.064,-0.062,1.060,0.980,-2.730,-0.770
179.374036,-0.053,-0.062,1.053,1.400,-2.520,-0.910
179.38301,-0.057,-0.040,1.040,-0.070,-3.290,-0.770
179.391079,-0.056,-0.055,1.068,2.590,-2.310,-0.700
179.398472,-0.058,-0.038,1.046,-0.770,-2.310,-0.700
179.407373,-0.060,-0.055,1.042,0.420,-2.590,-0.840
179.411332,-0.054,-0.050,1.051,1.120,-2.100,-0.840
179.41833,-0.058,-0.051,1.055,0.490,-2.660,-0.840
179.427359,-0.055,-0.054,1.046,1.260,-2.100,-0.770
179.438645,-0.056,-0.053,1.054,0.910,-2.520,-0.840
179.447597,-0.056,-0.053,1.053,1.610,-2.030,-0.770
179.456405,-0.054,-0.046,1.048,0.700,-2.590,-0.840
179.465346,-0.056,-0.054,1.053,1.260,-2.730,-0.770
179.469286,-0.056,-0.048,1.052,0.910,-2.170,-0.910
179.482767,-0.060,-0.051,1.046,1.050,-2.730,-0.840
179.486724,-0.056,-0.047,1.052,1.050,-2.100,-0.910
179.495633,-0.060,-0.052,1.052,0.770,-2.590,-0.840
179.504602,-0.057,-0.053,1.053,1.120,-2.450,-0.630
179.513408,-0.057,-0.047,1.056,0.420,-2.800,-0.840
179.524675,-0.054,-0.053,1.055,1.190,-2.590,-0.840
179.532777,-0.059,-0.050,1.052,0.700,-2.800,-0.770
179.539723,-0.056,-0.051,1.048,0.840,-2.730,-0.770
179.543642,-0.055,-0.050,1.051,1.120,-2.450,-0.770
179.551683,-0.058,-0.049,1.051,0.840,-2.590,-0.770
179.562389,-0.059,-0.051,1.052,0.700,-2.450,-0.770
179.566344,-0.059,-0.054,1.050,0.910,-2.660,-0.700
179.575273,-0.058,-0.051,1.052,1.050,-2.380,-0.700
179.583322,-0.056,-0.050,1.051,0.910,-2.380,-0.840
179.591421,-0.056,-0.051,1.053,0.910,-2.380,-0.840
179.598839,-0.053,-0.054,1.050,0.980,-2.170,-0.770
179.607738,-0.057,-0.053,1.048,1.120,-2.380,-0.840
179.614737,-0.055,-0.050,1.051,1.120,-2.310,-0.910
179.618645,-0.057,-0.049,1.051,0.840,-2.240,-0.910
179.627629,-0.057,-0.049,1.051,1.050,-2.310,-0.700
179.643085,-0.058,-0.051,1.051,0.980,-2.240,-0.630
179.647002,-0.060,-0.048,1.054,0.980,-2.660,-0.840
179.655191,-0.058,-0.050,1.051,0.770,-2.520,-0.770
179.664045,-0.057,-0.051,1.052,0.910,-2.870,-0.840
179.670067,-0.053,-0.052,1.053,0.910,-2.660,-0.770
179.67744,-0.056,-0.051,1.051,1.050,-2.590,-0.910
179.686331,-0.055,-0.051,1.051,1.190,-2.520,-0.840
179.695322,-0.059,-0.044,1.053,0.910,-2.590,-0.700
179.699245,-0.057,-0.055,1.047,0.070,-2.730,-0.910
179.707412,-0.056,-0.054,1.052,1.330,-2.380,-0.700
179.720997,-0.057,-0.046,1.053,0.840,-2.450,-0.840
179.724991,-0.056,-0.047,1.054,0.700,-2.380,-0.700
179.733991,-0.055,-0.049,1.050,0.700,-2.310,-0.700
179.742993,-0.054,-0.051,1.053,0.980,-2.450,-0.840
179.751997,-0.056,-0.048,1.054,0.840,-2.380,-0.840
179.763328,-0.055,-0.050,1.052,0.980,-2.310,-0.840
179.770396,-0.058,-0.050,1.051,0.910,-2.380,-0.840
179.779382,-0.056,-0.051,1.053,0.980,-2.240,-0.770
179.78329,-0.058,-0.049,1.049,0.770,-2.450,-0.840
179.791513,-0.057,-0.051,1.054,0.840,-2.380,-0.840
179.804001,-0.058,-0.052,1.053,0.840,-2.310,-0.770
179.807979,-0.059,-0.047,1.051,0.910,-2.660,-0.840
179.816078,-0.057,-0.049,1.053,0.700,-2.450,-0.840
179.824994,-0.057,-0.050,1.049,0.910,-2.730,-0.770
179.832096,-0.058,-0.051,1.050,0.910,-2.590,-0.840
179.839488,-0.055,-0.051,1.052,0.910,-2.170,-0.770
179.848397,-0.057,-0.047,1.051,1.120,-2.310,-0.700
179.85735,-0.057,-0.048,1.054,0.560,-2.520,-0.840
179.861289,-0.058,-0.051,1.050,0.770,-2.310,-0.770
179.868318,-0.059,-0.052,1.053,0.980,-2.730,-0.910
179.875771,-0.054,-0.051,1.055,1.120,-2.520,-0.840
179.880833,-0.054,-0.050,1.052,0.980,-2.380,-0.910
179.889725,-0.058,-0.048,1.051,0.980,-2.800,-0.770
179.898646,-0.057,-0.050,1.052,0.770,-2.170,-0.840
179.905752,-0.058,-0.052,1.049,0.910,-2.240,-0.770
179.913197,-0.058,-0.049,1.055,0.770,-2.450,-0.770
179.922036,-0.056,-0.048,1.052,0.630,-2.310,-0.770
179.930984,-0.058,-0.049,1.048,0.980,-2.380,-0.770
179.934924,-0.056,-0.051,1.053,0.700,-2.310,-0.840
179.943913,-0.056,-0.050,1.050,0.910,-2.310,-0.840
179.955348,-0.056,-0.050,1.053,0.700,-2.380,-0.840
179.964277,-0.056,-0.052,1.053,0.910,-2.520,-0.840
179.972479,-0.056,-0.050,1.049,0.630,-2.450,-0.700
179.981396,-0.059,-0.054,1.057,3.640,-2.240,-0.560
179.98941,-0.061,-0.034,1.043,-1.680,-2.590,-0.630
179.997865,-0.050,-0.070,1.047,2.100,-1.750,-0.700
180.004824,-0.056,-0.051,1.056,2.030,-1.540,-0.700
180.00872,-0.062,-0.041,1.057,-0.420,-2.520,-0.630
180.01763,-0.055,-0.057,1.051,0.560,-2.590,-0.700
180.026602,-0.052,-0.056,1.049,1.260,-2.590,-0.910
180.037918,-0.050,-0.047,1.058,1.120,-2.380,-0.700
180.043793,-0.053,-0.049,1.046,0.840,-2.100,-0.700
180.052669,-0.061,-0.049,1.043,0.980,-2.800,-0.840
180.061612,-0.056,-0.051,1.053,0.910,-2.240,-0.700
180.065596,-0.060,-0.048,1.045,0.980,-2.450,-0.630
180.081288,-0.054,-0.050,1.054,0.350,-2.030,-0.700
180.089387,-0.058,-0.052,1.055,0.840,-2.310,-0.840
180.093332,-0.055,-0.054,1.051,1.120,-2.170,-0.770
180.102228,-0.056,-0.050,1.054,1.050,-2.380,-0.840
180.111033,-0.060,-0.048,1.055,0.700,-2.590,-0.770
180.118433,-0.056,-0.053,1.050,0.980,-2.240,-0.770
180.127317,-0.057,-0.050,1.049,0.840,-2.590,-0.840
180.135368,-0.057,-0.050,1.051,0.980,-2.450,-0.770
180.144318,-0.058,-0.049,1.050,1.050,-2.520,-0.840
180.148268,-0.057,-0.052,1.049,0.700,-2.870,-0.910
180.164353,-0.040,-0.040,1.054,-1.120,-1.330,-0.910
180.16832,-0.070,-0.077,1.048,0.910,-1.470,-1.050
180.177244,-0.079,-0.042,1.049,3.290,-2.800,-0.840
180.185286,-0.064,-0.027,1.048,0.490,-4.340,-0.770
180.194244,-0.056,-0.037,1.065,-1.610,-3.430,-0.770
180.205515,-0.044,-0.074,1.059,3.570,-2.450,-0.840
180.212469,-0.069,-0.034,1.056,0.770,-3.920,-0.770
180.221365,-0.050,-0.044,1.048,-0.910,-2.520,-0.770
180.225307,-0.062,-0.058,1.043,2.380,-3.220,-0.840
180.233449,-0.061,-0.044,1.054,1.050,-2.870,-0.700
180.249008,-0.062,-0.052,1.047,0.630,-2.660,-0.840
180.252993,-0.054,-0.051,1.054,0.910,-2.030,-0.770
180.261158,-0.053,-0.049,1.047,0.630,-2.310,-0.770
180.270027,-0.061,-0.052,1.045,1.190,-2.730,-0.840
180.278989,-0.052,-0.051,1.056,1.120,-2.520,-0.840
180.290336,-0.055,-0.048,1.049,1.050,-2.450,-0.840
180.297428,-0.053,-0.051,1.051,1.050,-2.380,-0.770
180.306332,-0.057,-0.051,1.046,1.190,-2.660,-0.840
180.310289,-0.057,-0.051,1.052,1.120,-2.380,-0.770
180.319201,-0.055,-0.050,1.050,-1.120,-2.590,-0.910
180.330662,-0.057,-0.043,1.064,3.920,-2.520,-0.770
180.33766,-0.054,-0.033,1.051,-0.140,-2.520,-0.840
180.346629,-0.057,-0.040,1.048,0.280,-2.730,-0.840
180.353684,-0.057,-0.061,1.052,2.170,-2.450,-0.840
180.362614,-0.055,-0.049,1.056,1.750,-2.100,-0.770
180.372131,-0.058,-0.049,1.045,1.260,-2.730,-0.840
180.381001,-0.052,-0.048,1.057,0.280,-2.240,-0.910
180.38926,-0.060,-0.061,1.047,1.190,-2.800,-0.910
180.393206,-0.054,-0.043,1.051,2.520,-2.100,-0.840
180.401985,-0.056,-0.043,1.051,-0.420,-2.940,-0.840
180.409409,-0.057,-0.057,1.054,1.680,-2.800,-0.700
180.418397,-0.052,-0.046,1.048,0.490,-2.450,-0.910
180.427325,-0.054,-0.050,1.053,1.890,-1.890,-0.840
180.434398,-0.060,-0.047,1.054,1.540,-2.030,-0.770
180.44333,-0.068,-0.042,1.054,-0.910,-3.150,-0.770
180.450996,-0.051,-0.059,1.050,2.870,-1.890,-0.700
180.459993,-0.058,-0.047,1.058,1.680,-3.220,-0.840
180.468091,-0.055,-0.050,1.056,0.210,-2.800,-0.840
180.472,-0.053,-0.053,1.047,1.470,-2.310,-0.840
180.480986,-0.060,-0.051,1.052,0.630,-2.870,-0.770
180.492385,-0.058,-0.053,1.049,1.260,-2.240,-0.700
180.50124,-0.059,-0.047,1.054,0.140,-2.660,-0.770
180.510045,-0.050,-0.055,1.053,1.610,-2.310,-0.840
180.518989,-0.057,-0.048,1.055,1.260,-2.590,-0.840
180.527995,-0.055,-0.050,1.051,0.560,-2.310,-0.770
180.536489,-0.059,-0.048,1.052,1.050,-2.730,-0.840
180.545366,-0.057,-0.053,1.052,0.840,-2.380,-0.770
180.54931,-0.059,-0.050,1.050,1.190,-2.730,-0.770
180.556325,-0.058,-0.047,1.052,0.490,-2.520,-0.770
180.563346,-0.058,-0.052,1.053,1.120,-2.240,-0.840
180.570847,-0.058,-0.051,1.051,1.120,-2.590,-0.770
180.579688,-0.055,-0.048,1.054,0.770,-2.310,-0.840
180.587737,-0.058,-0.052,1.055,1.190,-2.520,-0.910
180.596636,-0.058,-0.049,1.054,1.120,-2.520,-0.770
180.600624,-0.055,-0.052,1.053,0.910,-2.450,-0.770
180.613297,-0.057,-0.050,1.052,1.050,-2.310,-0.700
180.622098,-0.057,-0.049,1.053,0.700,-2.240,-0.840
180.626029,-0.055,-0.050,1.048,0.840,-2.450,-0.840
180.634173,-0.057,-0.052,1.050,0.770,-2.590,-0.840
180.641139,-0.056,-0.051,1.054,0.980,-2.520,-0.910
180.652334,-0.057,-0.048,1.050,0.910,-2.450,-0.770
180.658429,-0.055,-0.049,1.050,1.050,-2.380,-0.700
180.667282,-0.055,-0.048,1.051,0.980,-2.380,-0.770
180.676114,-0.057,-0.050,1.051,0.770,-2.310,-0.910
180.680032,-0.056,-0.050,1.050,1.050,-2.520,-0.840
180.696635,-0.056,-0.050,1.054,0.910,-2.520,-0.770
180.700634,-0.057,-0.047,1.052,0.910,-2.520,-0.700
180.70962,-0.055,-0.049,1.051,0.770,-2.380,-0.840
180.71771,-0.058,-0.050,1.050,1.050,-2.450,-0.910
180.72663,-0.057,-0.051,1.052,0.770,-2.310,-0.770
180.73798,-0.058,-0.051,1.051,0.980,-2.450,-0.770
180.746983,-0.058,-0.050,1.052,0.700,-2.380,-0.770
180.755046,-0.058,-0.049,1.053,0.910,-2.450,-0.770
180.763253,-0.055,-0.049,1.053,0.840,-2.380,-0.700
180.767196,-0.055,-0.049,1.051,0.560,-2.380,-0.770
180.778759,-0.056,-0.052,1.051,0.770,-2.240,-0.840
180.782657,-0.056,-0.050,1.052,0.700,-2.450,-0.630
180.791638,-0.057,-0.050,1.052,0.700,-2.240,-0.630
180.800583,-0.058,-0.050,1.052,0.770,-2.450,-0.630
180.806461,-0.058,-0.049,1.049,0.630,-2.450,-0.770
180.813993,-0.056,-0.052,1.051,0.490,-2.310,-0.700
180.823027,-0.056,-0.050,1.051,0.700,-2.310,-0.700
180.831974,-0.056,-0.051,1.051,0.700,-2.310,-0.840
180.835937,-0.056,-0.052,1.054,0.770,-2.240,-0.770
180.844913,-0.055,-0.050,1.055,1.050,-2.520,-0.840
180.858709,-0.056,-0.051,1.051,0.910,-2.590,-0.910
180.862631,-0.056,-0.051,1.051,1.120,-2.590,-0.840
180.871589,-0.056,-0.052,1.054,0.910,-2.520,-0.770
180.880619,-0.057,-0.050,1.042,1.610,-1.470,-0.700
180.889375,-0.061,-0.048,1.039,1.470,-3.150,-0.910
180.899769,-0.048,-0.055,1.053,1.260,-1.750,-0.770
180.908651,-0.056,-0.056,1.049,0.840,-2.870,-0.910
180.91764,-0.055,-0.047,1.053,0.070,-2.660,-0.770
180.921586,-0.059,-0.053,1.056,1.820,-1.890,-0.770
180.930331,-0.060,-0.045,1.047,0.700,-2.800,-0.770
180.941648,-0.059,-0.051,1.053,1.400,-2.520,-0.840
180.947651,-0.056,-0.047,1.054,0.700,-2.940,-0.700
180.95661,-0.054,-0.052,1.049,1.400,-2.170,-0.840
180.965392,-0.058,-0.051,1.049,1.470,-2.590,-0.840
180.972426,-0.058,-0.049,1.052,0.420,-2.520,-0.700
180.97979,-0.058,-0.052,1.051,1.050,-2.450,-0.630
180.987768,-0.058,-0.048,1.050,0.910,-2.520,-0.700
180.991685,-0.057,-0.054,1.054,0.770,-2.310,-0.700
181.00062,-0.058,-0.047,1.052,1.050,-2.660,-0.770
181.009593,-0.056,-0.047,1.054,0.700,-2.450,-0.700
181.020922,-0.058,-0.048,1.054,0.980,-2.660,-0.840
181.029908,-0.058,-0.053,1.050,0.630,-2.660,-0.840
181.038007,-0.060,-0.054,1.048,1.260,-2.730,-0.840
181.046987,-0.056,-0.051,1.051,0.840,-2.380,-0.840
181.050912,-0.059,-0.050,1.050,0.840,-2.450,-0.770
181.062634,-0.055,-0.050,1.053,0.770,-2.240,-0.840
181.071632,-0.057,-0.052,1.054,0.700,-2.310,-0.770
181.075651,-0.058,-0.050,1.052,0.980,-2.590,-0.700
181.083798,-0.056,-0.049,1.050,0.700,-2.310,-0.700
181.0927,-0.061,-0.051,1.056,1.120,-2.660,-0.840
181.103993,-0.056,-0.051,1.052,0.910,-2.450,-0.770
181.11003,-0.058,-0.053,1.051,0.980,-2.590,-1.050
181.11891,-0.056,-0.049,1.052,0.700,-2.450,-0.840
181.126986,-0.057,-0.051,1.050,1.050,-2.380,-0.700
181.135991,-0.057,-0.049,1.054,0.980,-2.380,-0.840
181.147314,-0.057,-0.050,1.052,0.910,-2.520,-0.770
181.154384,-0.056,-0.052,1.051,0.630,-2.450,-0.700
181.158307,-0.059,-0.050,1.053,0.980,-2.590,-0.910
181.167263,-0.057,-0.051,1.054,0.980,-2.730,-0.910
181.176025,-0.058,-0.049,1.049,0.980,-2.590,-0.910
181.187242,-0.055,-0.051,1.053,0.980,-2.450,-0.910
181.195143,-0.056,-0.051,1.052,0.910,-2.450,-0.840
181.204,-0.061,-0.052,1.051,0.770,-2.800,-0.840
181.212258,-0.056,-0.051,1.052,1.190,-2.590,-0.770
181.216197,-0.058,-0.050,1.049,0.910,-2.520,-0.770
181.227739,-0.058,-0.050,1.052,1.120,-2.800,-0.980
181.231659,-0.054,-0.051,1.054,0.770,-2.310,-0.700
181.24055,-0.058,-0.050,1.052,0.840,-2.520,-0.840
181.248526,-0.058,-0.052,1.052,0.980,-2.380,-0.770
181.256466,-0.057,-0.048,1.049,0.770,-2.380,-0.840
181.263835,-0.060,-0.051,1.051,0.840,-2.520,-0.770
181.271774,-0.059,-0.050,1.047,0.840,-2.450,-0.770
181.280648,-0.057,-0.051,1.052,0.840,-2.380,-0.840
181.284619,-0.056,-0.049,1.053,0.980,-2.450,-0.840
181.292811,-0.059,-0.050,1.052,0.980,-2.380,-0.770
181.305314,-0.057,-0.049,1.052,0.840,-2.590,-0.770
181.309263,-0.057,-0.054,1.052,0.910,-2.730,-0.770
181.316358,-0.055,-0.049,1.049,1.540,-2.450,-0.840
181.325308,-0.054,-0.047,1.055,0.700,-2.310,-0.700
181.332381,-0.059,-0.049,1.056,0.420,-2.520,-0.770
181.339745,-0.058,-0.052,1.049,0.910,-2.380,-0.910
181.348691,-0.056,-0.050,1.049,0.910,-2.520,-0.840
181.357639,-0.056,-0.051,1.056,1.050,-2.380,-0.910
181.361605,-0.056,-0.048,1.051,0.840,-2.240,-0.840
181.370552,-0.058,-0.051,1.051,0.980,-2.380,-0.700
181.385075,-0.058,-0.050,1.052,0.770,-2.380,-0.700
181.388984,-0.056,-0.049,1.051,0.770,-2.450,-0.840
181.397979,-0.057,-0.050,1.052,0.770,-2.450,-0.700
181.406982,-0.061,-0.053,1.051,1.050,-2.450,-0.700
181.415043,-0.054,-0.049,1.049,1.120,-2.380,-0.770
181.426311,-0.057,-0.049,1.053,0.910,-2.450,-0.700
181.435293,-0.056,-0.053,1.052,0.980,-2.380,-0.700
181.444085,-0.059,-0.049,1.052,0.770,-2.450,-0.910
181.448003,-0.054,-0.052,1.052,0.980,-2.380,-0.840
181.45504,-0.059,-0.050,1.052,0.980,-2.380,-0.840
181.462432,-0.055,-0.052,1.051,0.630,-2.450,-0.770
181.470417,-0.056,-0.051,1.052,1.120,-2.380,-0.840
181.47932,-0.058,-0.048,1.052,0.560,-2.520,-0.770
181.487525,-0.058,-0.049,1.053,0.630,-2.310,-0.700
181.496353,-0.058,-0.051,1.052,0.980,-2.380,-0.840
181.507639,-0.054,-0.050,1.054,1.190,-2.240,-0.770
181.514748,-0.061,-0.052,1.050,1.120,-2.590,-0.770
181.518655,-0.059,-0.050,1.053,0.560,-2.450,-0.700
181.52762,-0.058,-0.053,1.049,1.120,-2.380,-0.700
181.535806,-0.057,-0.051,1.053,0.910,-2.520,-0.770
181.543303,-0.055,-0.052,1.050,0.630,-2.310,-0.840
181.548318,-0.059,-0.054,1.051,0.910,-2.450,-0.770
181.557304,-0.059,-0.050,1.051,0.700,-2.450,-0.700
181.56437,-0.057,-0.052,1.052,0.910,-2.520,-0.840
181.573112,-0.057,-0.052,1.051,0.980,-2.450,-0.840
181.584376,-0.053,-0.047,1.054,0.840,-2.520,-0.910
181.593364,-0.057,-0.052,1.050,0.980,-2.450,-0.840
181.597311,-0.058,-0.048,1.052,0.980,-2.450,-0.840
181.606263,-0.058,-0.048,1.051,0.980,-2.520,-0.770
181.614103,-0.056,-0.050,1.052,0.910,-2.380,-0.700
181.621732,-0.055,-0.051,1.052,0.770,-2.590,-0.840
181.630632,-0.060,-0.051,1.052,1.050,-2.520,-0.840
181.638847,-0.057,-0.050,1.051,0.840,-2.520,-0.770
181.647732,-0.057,-0.050,1.051,0.980,-2.380,-0.840
181.65165,-0.059,-0.051,1.053,0.840,-2.450,-0.840
181.666096,-0.058,-0.049,1.051,0.980,-2.450,-0.770
181.674992,-0.056,-0.050,1.050,0.980,-2.380,-0.840
181.678969,-0.057,-0.051,1.050,0.980,-2.520,-0.770
181.687134,-0.059,-0.049,1.051,0.770,-2.310,-0.840
181.694119,-0.056,-0.051,1.050,0.910,-2.520,-0.770
181.701455,-0.057,-0.051,1.054,0.980,-2.520,-0.770
181.710308,-0.056,-0.050,1.053,1.120,-2.590,-0.910
181.719272,-0.055,-0.048,1.052,1.120,-2.660,-0.770
181.72811,-0.057,-0.050,1.052,0.840,-2.590,-0.770
181.732017,-0.057,-0.052,1.050,1.050,-2.730,-0.840
181.748336,-0.054,-0.051,1.052,0.910,-2.800,-0.910
181.75226,-0.059,-0.050,1.053,1.680,-1.960,-0.770
181.759418,-0.062,-0.045,1.052,0.070,-2.730,-0.840
181.768322,-0.065,-0.050,1.045,1.260,-2.730,-0.700
181.776353,-0.058,-0.053,1.047,1.750,-2.450,-0.770
181.786848,-0.056,-0.047,1.057,0.770,-2.520,-0.700
181.795657,-0.053,-0.053,1.056,1.120,-2.450,-0.770
181.803869,-0.057,-0.049,1.052,0.770,-2.590,-0.840
181.807842,-0.057,-0.052,1.052,1.260,-2.590,-0.770
181.815669,-0.057,-0.050,1.052,1.120,-2.450,-0.700
181.827244,-0.059,-0.049,1.052,0.840,-2.660,-0.700
181.831184,-0.055,-0.052,1.054,1.260,-2.450,-0.770
181.839975,-0.057,-0.047,1.053,0.910,-2.730,-0.770
181.84894,-0.058,-0.050,1.050,1.120,-2.660,-0.700
181.857751,-0.057,-0.050,1.052,1.400,-2.800,-0.840
181.869014,-0.053,-0.050,1.050,0.980,-2.450,-0.700
181.877998,-0.057,-0.051,1.050,1.190,-2.590,-0.700
181.885055,-0.058,-0.044,1.053,2.030,-2.100,-0.700
181.88898,-0.055,-0.045,1.052,-2.240,-2.520,-0.840
181.893989,-0.056,-0.071,1.045,1.120,-2.520,-0.980
181.901477,-0.060,-0.037,1.065,4.480,-2.450,-0.770
181.910318,-0.058,-0.032,1.050,-1.470,-3.080,-0.840
181.917357,-0.050,-0.056,1.046,1.260,-2.730,-0.840
181.926276,-0.048,-0.063,1.045,3.710,-1.680,-0.700
181.932177,-0.066,-0.032,1.053,-0.980,-2.940,-0.840
181.939516,-0.055,-0.060,1.048,0.070,-2.030,-0.770
181.948415,-0.049,-0.060,1.050,1.540,-1.610,-0.770
181.952433,-0.062,-0.048,1.054,0.840,-2.730,-0.910
181.961336,-0.057,-0.049,1.057,0.840,-1.960,-0.700
181.970312,-0.058,-0.046,1.045,0.560,-3.220,-0.910
181.980858,-0.053,-0.053,1.052,1.890,-2.170,-0.840
181.989652,-0.055,-0.045,1.046,0.490,-2.870,-0.910
181.998624,-0.057,-0.049,1.046,1.260,-2.310,-0.630
182.007617,-0.054,-0.050,1.055,0.980,-1.890,-0.700
182.01154,-0.058,-0.049,1.050,0.490,-2.450,-0.770
182.026025,-0.060,-0.048,1.049,0.910,-2.450,-0.840
182.03495,-0.058,-0.049,1.057,0.210,-2.590,-0.840
182.038938,-0.056,-0.054,1.051,1.400,-2.170,-0.840
182.047663,-0.057,-0.049,1.052,0.770,-2.590,-0.770
182.056617,-0.057,-0.048,1.053,0.980,-2.380,-0.770
182.067988,-0.058,-0.048,1.052,0.700,-2.590,-0.700
182.076909,-0.057,-0.052,1.049,0.980,-2.310,-0.770
182.084987,-0.057,-0.050,1.054,1.120,-2.450,-0.770
182.093976,-0.058,-0.050,1.050,0.770,-2.380,-0.840
182.097901,-0.057,-0.050,1.050,1.120,-2.450,-0.840
182.114094,-0.057,-0.048,1.053,0.700,-2.450,-0.840
182.117988,-0.055,-0.051,1.051,1.260,-2.380,-0.770
182.126978,-0.055,-0.050,1.051,0.840,-2.380,-0.840
182.135897,-0.055,-0.051,1.054,1.050,-2.450,-0.770
182.14281,-0.057,-0.048,1.052,0.910,-2.450,-0.770
182.15015,-0.057,-0.051,1.051,0.770,-2.520,-0.770
182.159006,-0.060,-0.050,1.053,0.840,-2.450,-0.770
182.16605,-0.056,-0.051,1.052,0.840,-2.380,-0.910
182.169978,-0.057,-0.051,1.051,0.910,-2.450,-0.840
182.178967,-0.060,-0.048,1.053,0.910,-2.450,-0.840
182.190301,-0.056,-0.050,1.053,0.910,-2.590,-0.700
182.199226,-0.056,-0.052,1.052,0.770,-2.310,-0.840
182.208249,-0.057,-0.049,1.049,0.980,-2.520,-0.770
182.21515,-0.059,-0.050,1.051,1.050,-2.450,-0.770
182.223969,-0.058,-0.051,1.052,0.840,-2.520,-0.910
182.235262,-0.058,-0.050,1.052,0.980,-2.380,-0.840
182.24318,-0.057,-0.051,1.051,0.840,-2.310,-0.770
182.247129,-0.059,-0.049,1.050,1.120,-2.520,-0.770
182.255974,-0.058,-0.049,1.053,1.050,-2.380,-0.770
182.264226,-0.056,-0.050,1.052,0.840,-2.520,-0.770
182.27167,-0.056,-0.049,1.053,0.840,-2.450,-0.910
182.280583,-0.055,-0.049,1.049,1.050,-2.450,-0.840
182.289388,-0.057,-0.050,1.049,0.980,-2.590,-0.840
182.298343,-0.056,-0.051,1.050,0.840,-2.520,-0.840
182.302301,-0.055,-0.048,1.051,0.980,-2.520,-0.840
182.316706,-0.056,-0.049,1.052,0.770,-2.450,-0.840
182.32065,-0.059,-0.049,1.051,0.980,-2.520,-0.840
182.329615,-0.057,-0.051,1.051,0.770,-2.520,-0.770
182.336678,-0.059,-0.050,1.050,0.910,-2.450,-0.840
182.344693,-0.057,-0.049,1.053,0.910,-2.380,-0.770
182.355156,-0.059,-0.051,1.052,0.910,-2.450,-0.770
182.364007,-0.057,-0.050,1.051,0.770,-2.450,-0.840
182.372203,-0.058,-0.051,1.053,1.050,-2.450,-0.840
182.380175,-0.058,-0.049,1.049,0.980,-2.450,-0.700
182.384076,-0.057,-0.050,1.051,0.770,-2.450,-0.840
182.395488,-0.056,-0.051,1.051,0.910,-2.590,-0.770
182.399415,-0.055,-0.051,1.051,1.120,-2.520,-0.770
182.408333,-0.055,-0.051,1.054,0.840,-2.450,-0.840
182.417263,-0.058,-0.050,1.050,0.980,-2.520,-0.840
182.426255,-0.057,-0.049,1.051,1.050,-2.450,-0.770
182.437616,-0.056,-0.051,1.053,1.050,-2.520,-0.700
182.445676,-0.056,-0.050,1.053,0.770,-2.380,-0.910
182.454618,-0.055,-0.048,1.052,0.700,-2.310,-0.840
182.458611,-0.059,-0.051,1.053,0.980,-2.310,-0.840
182.467613,-0.054,-0.049,1.050,0.630,-2.380,-0.840
182.481094,-0.054,-0.053,1.050,0.840,-2.310,-0.840
182.485004,-0.056,-0.050,1.052,0.980,-2.310,-0.700
182.49398,-0.056,-0.051,1.052,0.700,-2.310,-0.770
182.502968,-0.059,-0.050,1.052,0.770,-2.450,-0.770
182.509815,-0.060,-0.049,1.051,0.770,-2.380,-0.770
182.521017,-0.057,-0.052,1.050,0.490,-2.520,-0.910
182.529989,-0.060,-0.054,1.048,3.780,-2.450,-0.560
182.538943,-0.058,-0.033,1.051,-1.190,-2.800,-0.770
182.542932,-0.049,-0.072,1.042,0.350,-1.890,-0.770
182.549979,-0.047,-0.049,1.055,2.660,-1.400,-0.770
182.557374,-0.066,-0.038,1.057,-0.420,-2.170,-0.770
182.566228,-0.066,-0.055,1.052,0.350,-2.730,-0.630
182.573107,-0.056,-0.056,1.048,1.120,-2.240,-0.770
182.582004,-0.054,-0.051,1.053,1.190,-2.730,-0.840
182.590071,-0.057,-0.051,1.055,1.190,-2.590,-0.700
182.597532,-0.059,-0.051,1.048,0.210,-2.380,-0.770
182.606359,-0.058,-0.056,1.048,1.120,-2.660,-0.700
182.610352,-0.057,-0.050,1.053,0.840,-2.240,-0.700
182.61832,-0.058,-0.048,1.049,0.770,-2.800,-0.560
182.627248,-0.056,-0.052,1.054,0.980,-2.380,-0.770
182.638624,-0.058,-0.051,1.051,0.980,-2.520,-0.770
182.646639,-0.056,-0.050,1.048,1.050,-2.450,-0.840
182.655617,-0.059,-0.049,1.051,0.840,-2.730,-0.770
182.662694,-0.055,-0.053,1.054,0.910,-2.450,-0.840
182.666617,-0.058,-0.051,1.052,1.120,-2.380,-0.770
182.678989,-0.060,-0.048,1.052,0.700,-2.520,-0.840
182.686064,-0.056,-0.051,1.052,0.910,-2.380,-0.770
182.689979,-0.059,-0.050,1.053,1.120,-2.520,-0.840
182.698937,-0.057,-0.052,1.048,0.770,-2.380,-0.700
182.707131,-0.059,-0.050,1.050,1.120,-2.520,-0.700
182.715544,-0.056,-0.048,1.052,0.980,-2.450,-0.770
182.724307,-0.058,-0.048,1.051,0.980,-2.520,-0.770
182.73251,-0.060,-0.051,1.049,0.840,-2.520,-0.770
182.740484,-0.056,-0.052,1.052,1.050,-2.450,-0.840
182.744378,-0.058,-0.051,1.049,0.980,-2.450,-0.840
182.755817,-0.057,-0.050,1.050,0.840,-2.450,-0.770
182.759768,-0.055,-0.051,1.051,0.910,-2.450,-0.840
182.767657,-0.058,-0.052,1.051,0.910,-2.380,-0.840
182.776581,-0.058,-0.049,1.053,0.910,-2.380,-0.770
182.78542,-0.058,-0.048,1.050,0.910,-2.660,-0.910
182.792813,-0.058,-0.050,1.053,1.050,-2.380,-0.770
182.801673,-0.053,-0.051,1.050,1.050,-2.450,-0.910
182.810631,-0.057,-0.049,1.051,1.050,-2.590,-0.770
182.814575,-0.058,-0.051,1.052,0.910,-2.450,-0.840
182.823532,-0.060,-0.050,1.052,0.840,-2.520,-0.840
182.83999,-0.058,-0.052,1.052,0.910,-2.380,-0.770
182.843962,-0.060,-0.049,1.053,0.840,-2.450,-0.770
182.852126,-0.060,-0.051,1.053,0.910,-2.520,-0.910
182.860153,-0.057,-0.049,1.054,0.770,-2.170,-0.770
182.868988,-0.054,-0.052,1.050,0.700,-2.380,-0.840
182.8803,-0.059,-0.051,1.054,1.050,-2.310,-0.770
182.889228,-0.057,-0.050,1.050,0.700,-2.380,-0.840
182.898083,-0.060,-0.051,1.049,0.770,-2.590,-0.980
182.902001,-0.056,-0.052,1.052,1.050,-2.520,-0.840
182.910019,-0.056,-0.050,1.051,0.350,-2.730,-0.840
182.917406,-0.057,-0.039,1.060,2.940,-2.870,-0.700
182.926319,-0.052,-0.056,1.040,-2.310,-1.890,-0.840
182.933345,-0.055,-0.067,1.048,2.730,-2.030,-0.700
182.942258,-0.062,-0.053,1.058,2.870,-2.380,-0.770
182.951092,-0.059,-0.038,1.053,-0.700,-2.100,-0.700
182.962305,-0.054,-0.055,1.051,1.120,-1.960,-0.770
182.969397,-0.060,-0.050,1.054,1.120,-2.240,-0.770
182.973318,-0.060,-0.048,1.049,1.120,-2.870,-0.840
182.98226,-0.056,-0.053,1.049,0.420,-2.170,-0.770
182.991014,-0.059,-0.056,1.051,1.330,-2.870,-0.700
183.000581,-0.055,-0.048,1.052,0.560,-2.100,-0.700
183.009566,-0.058,-0.050,1.050,0.980,-2.870,-0.770
183.018385,-0.053,-0.048,1.053,0.630,-1.890,-0.700
183.027319,-0.059,-0.053,1.051,0.910,-2.100,-0.770
183.031296,-0.059,-0.049,1.052,1.330,-2.520,-0.630
183.043727,-0.058,-0.050,1.055,0.770,-2.660,-0.770
183.047636,-0.058,-0.050,1.053,1.050,-2.520,-0.840
183.056598,-0.057,-0.050,1.052,0.910,-2.240,-0.770
183.065575,-0.059,-0.055,1.052,0.980,-2.520,-0.840
183.07347,-0.058,-0.049,1.052,0.770,-2.240,-0.630
183.080808,-0.057,-0.046,1.045,-1.050,-2.590,-0.770
183.089633,-0.053,-0.061,1.043,3.780,-2.520,-0.840
183.098611,-0.059,-0.042,1.060,3.780,-2.450,-0.700
183.102623,-0.055,-0.046,1.050,-1.470,-2.590,-0.700
183.111536,-0.055,-0.060,1.050,2.100,-2.170,-0.770
183.127983,-0.061,-0.046,1.053,0.560,-2.520,-0.770
183.131975,-0.057,-0.050,1.052,0.910,-2.730,-0.770
183.14089,-0.053,-0.052,1.055,0.980,-2.240,-0.700
183.148987,-0.054,-0.053,1.056,1.330,-2.730,-0.840
183.156014,-0.056,-0.048,1.052,0.910,-2.520,-0.910
183.166509,-0.058,-0.053,1.052,1.330,-2.730,-0.700
183.175406,-0.059,-0.052,1.050,1.120,-2.380,-0.770
183.183567,-0.058,-0.050,1.052,1.050,-2.520,-0.840
183.187595,-0.057,-0.049,1.050,0.980,-2.590,-0.770
183.19561,-0.056,-0.052,1.051,0.840,-2.380,-0.770
183.20797,-0.057,-0.051,1.050,0.910,-2.450,-0.770
183.211932,-0.058,-0.049,1.051,0.980,-2.450,-0.840
183.219777,-0.060,-0.051,1.053,0.980,-2.660,-0.770
183.228642,-0.057,-0.052,1.051,0.980,-2.450,-0.770
183.237594,-0.056,-0.051,1.053,1.050,-2.380,-0.840
183.248899,-0.055,-0.051,1.053,0.910,-2.380,-0.770
183.256045,-0.057,-0.052,1.050,0.980,-2.520,-0.840
183.264057,-0.059,-0.050,1.053,1.120,-2.450,-0.840
183.268,-0.057,-0.051,1.050,0.630,-2.310,-0.840
183.276964,-0.056,-0.051,1.053,1.120,-2.520,-0.700
183.286607,-0.058,-0.050,1.051,0.840,-2.450,-0.840
183.294621,-0.057,-0.052,1.050,1.120,-2.520,-0.700
183.303607,-0.055,-0.050,1.052,0.980,-2.450,-0.770
183.312609,-0.057,-0.048,1.052,0.910,-2.520,-0.770
183.321614,-0.057,-0.050,1.052,0.980,-2.380,-0.770
183.332961,-0.059,-0.051,1.052,0.910,-2.590,-0.840
183.340835,-0.058,-0.050,1.049,0.980,-2.380,-0.770
183.349938,-0.057,-0.049,1.051,0.980,-2.520,-0.840
183.353887,-0.057,-0.050,1.053,0.840,-2.310,-0.770
183.36197,-0.058,-0.050,1.052,1.120,-2.800,-0.700
183.369381,-0.056,-0.052,1.050,0.980,-2.520,-0.770
183.378203,-0.054,-0.050,1.052,0.980,-2.520,-0.770
183.385135,-0.057,-0.053,1.053,1.050,-2.520,-0.980
183.390049,-0.055,-0.049,1.053,0.980,-2.380,-0.840
183.398975,-0.055,-0.051,1.054,0.980,-2.380,-0.770
183.410383,-0.060,-0.050,1.054,1.050,-2.450,-0.770
183.419314,-0.060,-0.052,1.051,0.980,-2.450,-0.770
183.423294,-0.056,-0.051,1.048,0.770,-2.730,-0.910
183.432238,-0.056,-0.050,1.052,0.910,-2.450,-0.700
183.441022,-0.054,-0.048,1.051,0.840,-2.450,-0.840
183.452316,-0.058,-0.050,1.053,0.770,-2.450,-0.700
183.460347,-0.056,-0.050,1.053,0.980,-2.520,-0.910
183.467523,-0.058,-0.049,1.054,0.630,-2.590,-0.700
183.476343,-0.056,-0.051,1.050,0.980,-2.450,-0.840
183.480286,-0.060,-0.048,1.051,0.770,-2.590,-0.630
183.494699,-0.054,-0.054,1.049,0.770,-2.310,-0.770
183.498613,-0.056,-0.049,1.051,1.470,-2.310,-0.630
183.5076,-0.059,-0.050,1.054,0.490,-2.450,-0.840
183.516562,-0.058,-0.053,1.052,1.190,-2.450,-0.840
183.524455,-0.058,-0.050,1.053,0.840,-2.590,-0.840
183.531793,-0.055,-0.054,1.050,1.540,-2.310,-0.770
183.54062,-0.057,-0.049,1.050,0.490,-2.590,-0.910
183.549611,-0.056,-0.049,1.051,0.350,-2.520,-0.840
183.553604,-0.057,-0.052,1.051,1.400,-2.380,-0.700
183.560761,-0.058,-0.050,1.052,0.700,-2.450,-0.910
183.573329,-0.056,-0.053,1.050,1.050,-2.240,-0.840
183.577257,-0.060,-0.047,1.053,1.120,-2.730,-0.840
183.585446,-0.057,-0.051,1.051,0.840,-2.450,-0.770
183.594265,-0.055,-0.051,1.055,1.120,-2.590,-0.840
183.60321,-0.058,-0.046,1.055,0.840,-2.520,-0.910
183.614526,-0.058,-0.055,1.050,1.050,-2.520,-0.840
183.623361,-0.058,-0.049,1.053,0.630,-2.310,-0.770
183.631542,-0.059,-0.052,1.051,1.050,-2.380,-0.770
183.635458,-0.058,-0.051,1.050,1.120,-2.450,-0.770
183.643389,-0.057,-0.050,1.051,0.840,-2.450,-0.840
183.655944,-0.056,-0.050,1.050,1.050,-2.450,-0.840
183.659955,-0.058,-0.050,1.053,1.050,-2.730,-0.840
183.665974,-0.057,-0.051,1.053,0.840,-2.520,-0.840
183.67489,-0.054,-0.049,1.050,1.120,-2.450,-0.770
183.681799,-0.060,-0.048,1.052,1.050,-2.520,-0.770
183.689161,-0.057,-0.048,1.051,0.910,-2.380,-0.910
183.697997,-0.059,-0.051,1.050,0.980,-2.450,-0.770
183.706956,-0.057,-0.050,1.054,0.910,-2.520,-0.840
183.710895,-0.059,-0.048,1.051,0.840,-2.380,-0.770
183.719879,-0.061,-0.050,1.051,0.980,-2.590,-0.770
183.731321,-0.057,-0.050,1.052,0.700,-2.520,-0.770
183.737549,-0.057,-0.052,1.053,0.910,-2.590,-0.840
183.746563,-0.057,-0.051,1.052,0.980,-2.450,-0.840
183.75538,-0.058,-0.048,1.051,1.050,-2.660,-0.770
183.763396,-0.058,-0.049,1.052,0.910,-2.590,-0.840
183.770755,-0.057,-0.049,1.048,0.840,-2.380,-0.770
183.779622,-0.059,-0.051,1.054,0.840,-2.590,-0.840
183.7836,-0.057,-0.050,1.054,1.050,-2.380,-0.700
183.792562,-0.058,-0.050,1.049,0.840,-2.730,-0.770
183.800756,-0.058,-0.051,1.054,0.840,-2.520,-0.770
183.808316,-0.058,-0.049,1.053,0.980,-2.450,-0.910
183.817247,-0.056,-0.052,1.049,1.050,-2.450,-0.770
183.826232,-0.057,-0.052,1.052,0.980,-2.450,-0.770
183.833336,-0.059,-0.050,1.050,0.980,-2.520,-0.770
183.842305,-0.057,-0.049,1.051,1.120,-2.380,-0.840
183.853634,-0.055,-0.050,1.050,0.910,-2.380,-0.770
183.862547,-0.057,-0.051,1.052,1.050,-2.380,-0.840
183.866472,-0.058,-0.047,1.052,0.980,-2.450,-0.910
183.875301,-0.057,-0.050,1.051,0.980,-2.450,-0.840
183.884288,-0.055,-0.051,1.052,1.050,-2.450,-0.700
183.895655,-0.056,-0.049,1.051,0.910,-2.520,-0.630
183.901644,-0.059,-0.052,1.052,0.910,-2.590,-0.840
183.910598,-0.057,-0.049,1.053,0.840,-2.590,-0.840
183.919574,-0.058,-0.052,1.050,0.840,-2.520,-0.840
183.923567,-0.057,-0.049,1.049,0.980,-2.450,-0.770
183.937809,-0.057,-0.051,1.050,0.840,-2.450,-0.910
183.941743,-0.059,-0.051,1.050,1.050,-2.380,-0.910
183.950604,-0.061,-0.050,1.052,0.980,-2.450,-0.700
183.959552,-0.065,-0.051,1.053,1.190,-2.800,-0.700
183.968361,-0.053,-0.053,1.053,1.330,-2.450,-0.770
183.979656,-0.057,-0.047,1.054,0.980,-2.310,-0.770
183.988585,-0.052,-0.049,1.050,0.770,-2.660,-0.840
183.997571,-0.059,-0.050,1.050,0.770,-2.520,-0.770
184.001518,-0.056,-0.050,1.050,1.050,-2.240,-0.770
184.008373,-0.057,-0.049,1.052,0.840,-2.590,-0.840
184.015824,-0.056,-0.051,1.052,0.840,-2.450,-0.910
184.023661,-0.059,-0.051,1.051,1.050,-2.380,-0.840
184.032647,-0.059,-0.051,1.051,0.910,-2.450,-0.980
184.041607,-0.056,-0.050,1.050,1.190,-2.380,-0.840
184.050601,-0.061,-0.049,1.052,0.910,-2.520,-0.840
184.062016,-0.055,-0.050,1.052,1.260,-2.380,-0.770
184.070962,-0.057,-0.052,1.051,1.050,-2.450,-0.840
184.079204,-0.057,-0.049,1.055,0.770,-2.380,-0.840
184.083152,-0.058,-0.050,1.049,1.190,-2.730,-0.840
184.090003,-0.059,-0.048,1.052,0.700,-2.520,-0.770
184.101333,-0.057,-0.050,1.053,0.980,-2.590,-0.770
184.110243,-0.055,-0.050,1.052,0.770,-2.450,-0.840
184.119229,-0.057,-0.050,1.050,1.050,-2.380,-0.770
184.125362,-0.059,-0.050,1.052,1.120,-2.380,-0.770
184.134273,-0.061,-0.050,1.051,1.050,-2.450,-0.840
184.141963,-0.056,-0.049,1.051,0.980,-2.590,-0.770
184.150967,-0.056,-0.051,1.054,1.050,-2.590,-0.910
184.159955,-0.055,-0.051,1.052,1.050,-2.380,-0.770
184.163921,-0.058,-0.051,1.051,0.980,-2.450,-0.770
184.172648,-0.057,-0.049,1.051,0.980,-2.590,-0.700
184.183313,-0.058,-0.050,1.051,1.050,-2.730,-0.910
184.192243,-0.059,-0.051,1.052,1.120,-2.870,-0.700
184.200467,-0.057,-0.050,1.053,1.050,-2.870,-0.770
184.207432,-0.059,-0.047,1.053,0.980,-2.870,-0.700
184.216324,-0.062,-0.051,1.053,0.910,-3.150,-0.770
184.226825,-0.050,-0.047,1.052,1.050,-2.520,-0.840
184.234804,-0.051,-0.043,1.042,-1.610,-2.240,-0.910
184.238709,-0.060,-0.067,1.054,2.030,-2.100,-0.770
184.2476,-0.065,-0.035,1.055,1.400,-2.520,-0.630
184.256604,-0.066,-0.037,1.047,-0.070,-3.220,-0.770
184.267934,-0.052,-0.057,1.055,1.540,-2.240,-0.770
184.275965,-0.055,-0.046,1.052,1.680,-1.890,-0.840
184.28489,-0.062,-0.043,1.051,0.000,-2.730,-0.700
184.293707,-0.062,-0.051,1.050,0.630,-2.660,-0.770
184.297623,-0.055,-0.051,1.054,1.260,-2.380,-0.840
184.312028,-0.054,-0.050,1.052,0.980,-2.100,-0.840
184.320966,-0.057,-0.048,1.054,1.120,-2.590,-0.770
184.324958,-0.058,-0.052,1.051,0.910,-2.590,-0.770
184.333943,-0.059,-0.050,1.046,1.330,-2.590,-0.770
184.342869,-0.057,-0.046,1.048,0.770,-2.520,-0.840
184.354301,-0.055,-0.047,1.049,0.980,-2.310,-0.770
184.361353,-0.059,-0.047,1.048,0.700,-2.380,-0.630
184.370366,-0.058,-0.051,1.052,0.700,-2.380,-0.700
184.378394,-0.058,-0.050,1.050,0.980,-2.450,-0.700
184.382316,-0.056,-0.050,1.052,0.630,-2.380,-0.770
184.394717,-0.054,-0.052,1.053,1.050,-2.380,-0.910
184.398611,-0.058,-0.048,1.051,0.910,-2.590,-0.770
184.407601,-0.057,-0.051,1.050,0.980,-2.380,-0.910
184.41579,-0.057,-0.051,1.052,0.770,-2.450,-0.770
184.423723,-0.056,-0.053,1.053,0.980,-2.380,-0.840
184.431063,-0.059,-0.050,1.050,1.120,-2.380,-0.770
184.439211,-0.059,-0.050,1.052,0.910,-2.170,-0.840
184.447985,-0.059,-0.050,1.052,0.770,-2.450,-0.840
184.456204,-0.056,-0.051,1.051,0.910,-2.520,-0.840
184.460151,-0.060,-0.051,1.052,0.770,-2.380,-0.700
184.469682,-0.057,-0.049,1.049,1.050,-2.380,-0.770
184.473611,-0.058,-0.048,1.055,0.980,-2.520,-0.840
184.482597,-0.056,-0.050,1.052,0.700,-2.380,-0.770
184.491532,-0.053,-0.051,1.053,0.840,-2.450,-0.770
184.499459,-0.057,-0.048,1.053,0.840,-2.450,-0.770
184.506793,-0.055,-0.052,1.052,1.050,-2.450,-0.700
184.513712,-0.057,-0.050,1.052,0.910,-2.450,-0.840
184.520703,-0.057,-0.049,1.051,0.910,-2.590,-0.840
184.524618,-0.058,-0.049,1.052,0.980,-2.520,-0.770
184.533598,-0.056,-0.049,1.055,0.840,-2.590,-0.910
184.55008,-0.056,-0.051,1.050,0.980,-2.310,-0.840
184.553989,-0.056,-0.051,1.051,0.770,-2.450,-0.840
184.562954,-0.060,-0.051,1.051,0.840,-2.520,-0.770
184.571945,-0.057,-0.050,1.049,0.980,-2.380,-0.840
184.580721,-0.057,-0.051,1.052,0.910,-2.450,-0.700
184.592016,-0.058,-0.051,1.052,0.910,-2.380,-0.770
184.600975,-0.056,-0.049,1.052,1.050,-2.380,-0.770
184.608039,-0.059,-0.049,1.051,0.910,-2.310,-0.770
184.611962,-0.057,-0.050,1.050,0.980,-2.660,-0.840
184.620918,-0.058,-0.051,1.055,0.980,-2.450,-0.700
184.632328,-0.056,-0.047,1.050,0.910,-2.520,-0.700
184.639423,-0.058,-0.050,1.052,0.910,-2.520,-0.770
184.648301,-0.056,-0.051,1.053,0.910,-2.450,-0.700
184.656476,-0.056,-0.050,1.051,0.910,-2.590,-0.770
184.665327,-0.055,-0.049,1.052,0.840,-2.590,-0.770
184.676674,-0.058,-0.051,1.050,0.980,-2.590,-0.770
184.685618,-0.057,-0.051,1.055,0.980,-2.520,-0.770
184.689562,-0.056,-0.051,1.051,1.050,-2.380,-0.770
184.696722,-0.057,-0.048,1.050,0.840,-2.520,-0.700
184.705639,-0.054,-0.049,1.052,0.980,-2.450,-0.700
184.716954,-0.057,-0.049,1.052,0.910,-2.520,-0.910
184.725938,-0.056,-0.049,1.053,0.840,-2.450,-0.770
184.734866,-0.058,-0.053,1.054,1.050,-2.520,-0.700
184.743712,-0.055,-0.049,1.055,0.910,-2.450,-0.770
184.74763,-0.054,-0.049,1.053,0.840,-2.380,-0.910
184.763058,-0.059,-0.050,1.053,1.120,-2.520,-0.770
184.77195,-0.057,-0.048,1.053,0.980,-2.590,-0.700
184.775916,-0.057,-0.052,1.050,0.980,-2.520,-0.770
184.784642,-0.056,-0.049,1.051,0.840,-2.380,-0.770
184.792655,-0.055,-0.049,1.053,0.910,-2.450,-0.910
184.800083,-0.055,-0.048,1.054,0.910,-2.520,-0.700
184.808994,-0.060,-0.049,1.053,0.840,-2.520,-0.700
184.813076,-0.057,-0.050,1.051,0.840,-2.450,-0.840
184.82197,-0.058,-0.050,1.051,0.910,-2.520,-0.840
184.825959,-0.058,-0.047,1.050,0.980,-2.450,-0.770
184.838601,-0.057,-0.050,1.048,0.840,-2.450,-0.770
184.842664,-0.059,-0.049,1.051,0.910,-2.380,-0.770
184.851598,-0.058,-0.050,1.051,0.840,-2.310,-0.770
184.860546,-0.058,-0.050,1.052,0.980,-2.590,-0.700
184.869355,-0.056,-0.049,1.056,0.700,-2.380,-0.840
184.880652,-0.058,-0.051,1.051,0.840,-2.590,-0.770
184.889578,-0.054,-0.048,1.053,0.910,-2.380,-0.770
184.898561,-0.057,-0.049,1.051,0.980,-2.520,-0.700
184.902491,-0.053,-0.050,1.054,0.770,-2.450,-0.770
184.909368,-0.058,-0.049,1.053,1.050,-2.450,-0.770
184.916831,-0.059,-0.049,1.052,0.910,-2.590,-0.770
184.923037,-0.056,-0.052,1.055,0.770,-2.590,-0.770
184.931949,-0.059,-0.050,1.050,1.330,-2.660,-0.770
184.940951,-0.057,-0.049,1.049,0.770,-2.380,-0.770
184.949013,-0.058,-0.049,1.051,0.770,-2.520,-0.770
184.956389,-0.056,-0.052,1.052,0.910,-2.240,-0.770
184.963337,-0.056,-0.050,1.052,0.840,-2.380,-0.770
184.972282,-0.055,-0.050,1.048,0.910,-2.380,-0.840
184.976236,-0.058,-0.050,1.054,0.910,-2.310,-0.770
184.984403,-0.058,-0.050,1.052,0.840,-2.660,-0.770
184.992015,-0.054,-0.048,1.051,0.980,-2.520,-0.770
184.995945,-0.056,-0.048,1.051,0.910,-2.590,-0.840
185.004921,-0.056,-0.049,1.051,0.840,-2.520,-0.840
185.013933,-0.057,-0.050,1.052,0.980,-2.520,-0.770
185.022703,-0.057,-0.049,1.052,0.910,-2.450,-0.770
185.033998,-0.056,-0.050,1.050,0.980,-2.450,-0.770
185.038056,-0.057,-0.048,1.053,0.910,-2.660,-0.770
185.045049,-0.054,-0.050,1.053,0.980,-2.520,-0.700
185.048967,-0.058,-0.049,1.053,0.980,-2.450,-0.700
185.057946,-0.056,-0.047,1.052,0.910,-2.590,-0.700
185.069318,-0.057,-0.050,1.051,0.980,-2.310,-0.770
185.078201,-0.058,-0.051,1.053,0.980,-2.520,-0.770
185.087008,-0.058,-0.050,1.051,0.840,-2.380,-0.770
185.094042,-0.056,-0.049,1.052,0.840,-2.520,-0.770
185.102971,-0.056,-0.049,1.052,0.980,-2.450,-0.770
185.113481,-0.059,-0.049,1.054,0.840,-2.520,-0.770
185.122328,-0.057,-0.051,1.051,0.980,-2.520,-0.770
185.126274,-0.058,-0.050,1.052,0.840,-2.450,-0.700
185.135203,-0.056,-0.051,1.049,1.050,-2.450,-0.770
185.144014,-0.056,-0.049,1.049,0.840,-2.380,-0.770
185.154483,-0.056,-0.050,1.051,0.840,-2.450,-0.840
185.158487,-0.060,-0.051,1.052,0.910,-2.450,-0.910
185.165432,-0.057,-0.052,1.052,0.840,-2.450,-0.840
185.174328,-0.059,-0.048,1.052,0.630,-2.450,-0.770
185.178294,-0.055,-0.051,1.053,1.050,-2.100,-0.770
185.194592,-0.055,-0.049,1.049,0.280,-2.520,-0.770
185.198525,-0.054,-0.052,1.058,1.330,-2.310,-0.630
185.204391,-0.059,-0.048,1.053,0.770,-2.660,-0.840
185.213303,-0.059,-0.046,1.048,1.050,-2.380,-0.770
185.217322,-0.053,-0.054,1.048,1.400,-2.240,-0.910
185.228558,-0.057,-0.047,1.052,0.630,-2.730,-0.700
185.233648,-0.057,-0.049,1.051,0.350,-2.310,-0.770
185.242594,-0.054,-0.053,1.051,0.980,-2.100,-0.770
185.246559,-0.058,-0.050,1.055,0.770,-2.730,-0.700
185.254724,-0.054,-0.051,1.052,1.050,-2.240,-0.630
185.264395,-0.057,-0.048,1.049,0.980,-2.660,-0.910
185.268295,-0.056,-0.051,1.051,0.770,-2.660,-0.910
185.27721,-0.056,-0.051,1.053,1.540,-2.450,-0.700
185.28528,-0.056,-0.049,1.052,0.700,-2.590,-0.840
185.293341,-0.058,-0.047,1.050,0.700,-2.590,-0.840
185.300683,-0.055,-0.051,1.050,1.120,-2.660,-0.840
185.309604,-0.058,-0.050,1.052,0.840,-2.520,-0.840
185.316664,-0.057,-0.049,1.053,1.260,-2.450,-0.840
185.320595,-0.059,-0.048,1.052,0.980,-2.590,-0.630
185.324626,-0.059,-0.051,1.051,0.700,-2.590,-0.630
185.337082,-0.055,-0.051,1.050,0.980,-2.590,-0.700
185.341062,-0.059,-0.049,1.051,0.700,-2.590,-0.770
185.349945,-0.057,-0.053,1.051,1.050,-2.520,-0.770
185.358132,-0.056,-0.052,1.052,1.050,-2.520,-0.770
185.366991,-0.056,-0.048,1.054,0.840,-2.660,-0.770
185.373401,-0.054,-0.052,1.053,1.120,-2.520,-0.770
185.382243,-0.058,-0.048,1.052,0.980,-2.520,-0.770
185.391077,-0.057,-0.052,1.053,0.910,-2.450,-0.980
185.394985,-0.058,-0.050,1.051,0.910,-2.450,-0.910
185.39901,-0.056,-0.049,1.052,0.770,-2.450,-0.770
185.406438,-0.056,-0.052,1.052,1.050,-2.380,-0.840
185.415366,-0.055,-0.049,1.052,1.050,-2.450,-0.840
185.422358,-0.056,-0.047,1.053,0.770,-2.310,-0.770
185.431282,-0.059,-0.048,1.052,0.840,-2.380,-0.700
185.44006,-0.057,-0.049,1.053,1.050,-2.380,-0.700
185.44651,-0.056,-0.047,1.050,0.980,-2.590,-0.700
185.455338,-0.055,-0.048,1.054,0.770,-2.660,-0.700
185.459304,-0.057,-0.049,1.054,0.840,-2.450,-0.630
185.466289,-0.056,-0.051,1.052,1.120,-2.450,-0.770
185.475223,-0.056,-0.050,1.053,0.840,-2.520,-0.770
185.486517,-0.057,-0.049,1.051,0.910,-2.520,-0.770
185.495279,-0.057,-0.051,1.053,0.910,-2.590,-0.770
185.503331,-0.058,-0.051,1.052,1.050,-2.520,-0.840
185.512282,-0.055,-0.047,1.052,0.980,-2.380,-0.700
185.516328,-0.060,-0.049,1.052,0.980,-2.520,-0.840
185.529968,-0.057,-0.049,1.052,0.980,-2.520,-0.770
185.538946,-0.057,-0.050,1.053,0.910,-2.590,-0.630
185.542913,-0.057,-0.050,1.053,1.050,-2.450,-0.770
185.551869,-0.056,-0.050,1.053,0.840,-2.450,-0.700
185.560881,-0.058,-0.049,1.053,0.980,-2.520,-0.770
185.572185,-0.057,-0.051,1.053,0.910,-2.520,-0.700
185.578104,-0.056,-0.048,1.052,1.120,-2.450,-0.770
185.58699,-0.056,-0.049,1.051,1.050,-2.520,-0.770
185.591007,-0.058,-0.051,1.050,0.770,-2.380,-0.700
185.59494,-0.052,-0.048,1.051,0.910,-2.450,-0.700
185.607356,-0.055,-0.050,1.051,0.980,-2.450,-0.770
185.611311,-0.054,-0.051,1.052,0.770,-2.380,-0.770
185.62021,-0.056,-0.050,1.049,0.910,-2.450,-0.770
185.628993,-0.057,-0.049,1.054,0.980,-2.450,-0.700
185.637946,-0.056,-0.048,1.052,0.770,-2.380,-0.840
185.649229,-0.056,-0.050,1.053,0.910,-2.660,-0.770
185.65333,-0.054,-0.051,1.054,0.910,-2.450,-0.840
185.661362,-0.054,-0.049,1.050,1.120,-2.380,-0.840
185.665341,-0.057,-0.049,1.051,0.980,-2.590,-0.840
185.674205,-0.056,-0.048,1.051,0.840,-2.520,-0.770
185.685633,-0.057,-0.049,1.051,0.840,-2.520,-0.770
185.692624,-0.058,-0.051,1.053,0.910,-2.520,-0.770
185.701546,-0.059,-0.050,1.050,0.910,-2.660,-0.840
185.708427,-0.058,-0.048,1.049,0.910,-2.660,-0.700
185.717324,-0.056,-0.049,1.050,0.840,-2.520,-0.770
185.728651,-0.056,-0.050,1.048,0.840,-2.310,-0.700
185.737578,-0.056,-0.049,1.050,0.980,-2.030,-0.770
185.74152,-0.058,-0.046,1.047,0.560,-2.310,-0.840
185.749517,-0.055,-0.051,1.057,0.910,-2.380,-0.770
185.758473,-0.054,-0.048,1.049,0.980,-2.590,-0.770
185.76959,-0.053,-0.052,1.053,1.120,-2.520,-0.770
185.776621,-0.056,-0.051,1.055,1.190,-2.240,-0.770
185.78559,-0.061,-0.047,1.052,0.770,-2.660,-0.770
185.794562,-0.055,-0.048,1.049,0.980,-2.380,-0.770
185.798539,-0.058,-0.049,1.056,0.840,-2.450,-0.700
185.812061,-0.054,-0.052,1.049,0.980,-2.450,-0.700
185.818213,-0.058,-0.047,1.051,0.770,-2.520,-0.840
185.822222,-0.059,-0.049,1.053,0.700,-2.730,-0.770
185.831172,-0.055,-0.051,1.052,1.260,-2.520,-0.840
185.83999,-0.059,-0.050,1.050,0.770,-2.730,-0.840
185.850496,-0.055,-0.051,1.054,1.120,-2.520,-0.840
185.85929,-0.055,-0.049,1.052,0.700,-2.590,-0.770
185.864301,-0.055,-0.051,1.051,0.980,-2.380,-0.840
185.873067,-0.057,-0.051,1.051,1.120,-2.450,-0.700
185.877002,-0.057,-0.049,1.054,0.770,-2.590,-0.700
185.889591,-0.055,-0.050,1.050,1.050,-2.520,-0.770
185.893656,-0.056,-0.049,1.051,1.050,-2.520,-0.770
185.902586,-0.057,-0.051,1.053,0.980,-2.520,-0.770
185.911589,-0.059,-0.051,1.052,1.190,-2.450,-0.840
185.920592,-0.057,-0.048,1.051,0.910,-2.590,-0.840
185.931942,-0.056,-0.046,1.051,1.050,-2.520,-0.770
185.940943,-0.056,-0.047,1.052,0.910,-2.590,-0.700
185.949946,-0.057,-0.050,1.052,0.840,-2.450,-0.840
185.958949,-0.055,-0.050,1.052,1.120,-2.520,-0.700
185.962947,-0.057,-0.048,1.052,0.910,-2.520,-0.630
185.974653,-0.055,-0.048,1.051,0.910,-2.520,-0.840
185.978604,-0.056,-0.050,1.053,0.840,-2.450,-0.770
185.987557,-0.057,-0.048,1.051,0.980,-2.450,-0.770
185.996557,-0.057,-0.050,1.050,0.770,-2.590,-0.770
186.005363,-0.054,-0.052,1.052,0.770,-2.450,-0.770
186.016629,-0.057,-0.049,1.054,0.910,-2.660,-0.770
186.025601,-0.054,-0.051,1.055,0.910,-2.380,-0.770
186.033789,-0.057,-0.050,1.050,1.190,-2.450,-0.840
186.037709,-0.057,-0.047,1.052,0.910,-2.730,-0.910
186.045634,-0.059,-0.051,1.051,0.980,-2.450,-0.770
186.058064,-0.055,-0.050,1.051,1.120,-2.520,-0.770
186.061958,-0.054,-0.050,1.052,0.980,-2.590,-0.840
186.069965,-0.055,-0.048,1.052,0.910,-2.450,-0.840
186.078943,-0.054,-0.047,1.052,0.840,-2.520,-0.770
186.087946,-0.056,-0.050,1.050,0.910,-2.450,-0.840
186.099268,-0.054,-0.049,1.054,0.840,-2.450,-0.840
186.108265,-0.057,-0.051,1.050,0.980,-2.450,-0.840
186.116175,-0.055,-0.048,1.053,1.050,-2.380,-0.840
186.120098,-0.056,-0.047,1.052,0.980,-2.450,-0.770
186.128948,-0.057,-0.049,1.050,0.980,-2.450,-0.700
186.136629,-0.058,-0.051,1.051,0.980,-2.380,-0.840
186.144646,-0.059,-0.050,1.052,0.980,-2.520,-0.770
186.148667,-0.056,-0.049,1.050,0.910,-2.520,-0.840
186.156662,-0.060,-0.048,1.052,0.980,-2.590,-0.770
186.165592,-0.059,-0.050,1.051,0.980,-2.520,-0.910
186.176969,-0.057,-0.048,1.050,0.770,-2.520,-0.840
186.185938,-0.056,-0.050,1.051,0.910,-2.450,-0.840
186.194918,-0.055,-0.049,1.053,0.980,-2.310,-0.840
186.19891,-0.055,-0.049,1.052,0.840,-2.380,-0.770
186.207656,-0.057,-0.049,1.050,0.840,-2.380,-0.770
186.218968,-0.055,-0.050,1.054,0.980,-2.450,-0.770
186.224001,-0.057,-0.047,1.053,0.980,-2.450,-0.840
186.232913,-0.056,-0.051,1.052,1.050,-2.520,-0.770
186.240962,-0.056,-0.051,1.052,0.980,-2.450,-0.770
186.24488,-0.056,-0.048,1.053,0.770,-2.310,-0.840
186.260443,-0.056,-0.049,1.052,0.980,-2.380,-0.770
186.266391,-0.056,-0.050,1.051,0.840,-2.310,-0.770
186.270321,-0.055,-0.052,1.053,0.840,-2.310,-0.840
186.279182,-0.055,-0.047,1.051,0.980,-2.380,-0.840
186.287985,-0.053,-0.048,1.053,0.840,-2.380,-0.770
186.299315,-0.060,-0.049,1.051,0.770,-2.450,-0.770
186.308224,-0.055,-0.050,1.047,0.840,-2.450,-0.770
186.317186,-0.060,-0.051,1.048,1.050,-2.450,-0.840
186.326067,-0.058,-0.049,1.053,0.840,-2.380,-0.840
186.329974,-0.055,-0.052,1.052,0.910,-2.590,-0.770
186.34259,-0.056,-0.051,1.051,0.980,-2.520,-0.770
186.346581,-0.054,-0.051,1.053,0.840,-2.380,-0.840
186.355597,-0.056,-0.049,1.048,0.980,-2.590,-0.770
186.363771,-0.056,-0.049,1.051,0.910,-2.450,-0.910
186.372601,-0.058,-0.049,1.052,0.980,-2.450,-0.910
186.383935,-0.058,-0.047,1.052,0.770,-2.450,-0.840
186.392913,-0.057,-0.050,1.050,0.910,-2.170,-0.770
186.401694,-0.059,-0.050,1.051,1.050,-1.960,-0.840
186.40561,-0.058,-0.050,1.049,0.280,-2.450,-0.840
186.413624,-0.052,-0.052,1.058,1.120,-2.100,-0.910
186.428559,-0.060,-0.046,1.051,0.490,-2.520,-0.840
186.432577,-0.054,-0.053,1.052,1.190,-2.310,-0.700
186.441581,-0.055,-0.046,1.056,0.910,-2.590,-0.770
186.449622,-0.058,-0.047,1.051,0.700,-2.590,-0.700
186.458566,-0.053,-0.051,1.051,1.120,-2.240,-0.700
186.469931,-0.057,-0.050,1.053,0.770,-2.380,-0.700
186.478952,-0.054,-0.051,1.051,1.120,-2.310,-0.840
186.485793,-0.057,-0.048,1.048,0.910,-2.590,-0.700
186.489699,-0.053,-0.051,1.053,0.840,-2.310,-0.840
186.498589,-0.058,-0.047,1.052,0.980,-2.380,-0.630
186.513135,-0.054,-0.051,1.049,0.770,-2.380,-0.700
186.517029,-0.056,-0.050,1.050,1.120,-2.520,-0.910
186.525912,-0.057,-0.047,1.051,0.630,-2.520,-0.840
186.534911,-0.056,-0.050,1.051,1.120,-2.520,-0.770
186.542803,-0.057,-0.050,1.051,0.840,-2.520,-0.770
186.550206,-0.055,-0.052,1.053,0.770,-2.310,-0.770
186.557317,-0.056,-0.048,1.054,1.260,-2.380,-0.770
186.566282,-0.054,-0.047,1.052,0.980,-2.380,-0.840
186.570215,-0.056,-0.051,1.052,0.770,-2.310,-0.840
186.578382,-0.058,-0.049,1.054,1.050,-2.450,-0.770
186.591049,-0.057,-0.050,1.053,0.770,-2.520,-0.770
186.594957,-0.054,-0.049,1.051,1.120,-2.590,-0.840
186.603904,-0.056,-0.046,1.054,0.910,-2.520,-0.700
186.612937,-0.056,-0.049,1.052,1.190,-2.450,-0.770
186.6198,-0.057,-0.051,1.050,1.050,-2.380,-0.770
186.6272,-0.060,-0.051,1.048,0.840,-2.590,-0.630
186.636181,-0.058,-0.051,1.049,1.120,-2.310,-0.700
186.645065,-0.058,-0.050,1.051,0.980,-2.310,-0.770
186.648983,-0.060,-0.047,1.053,0.980,-2.590,-0.840
186.657948,-0.057,-0.049,1.053,0.980,-2.520,-0.770
186.669258,-0.052,-0.050,1.052,0.910,-2.520,-0.700
186.674286,-0.056,-0.051,1.050,1.050,-2.450,-0.840
186.683215,-0.056,-0.050,1.054,0.910,-2.450,-0.770
186.692186,-0.054,-0.047,1.055,0.910,-2.310,-0.770
186.701065,-0.056,-0.051,1.052,0.980,-2.450,-0.840
186.71236,-0.057,-0.048,1.053,0.910,-2.450,-0.840
186.720616,-0.054,-0.050,1.051,0.980,-2.520,-0.700
186.724571,-0.054,-0.048,1.053,1.050,-2.450,-0.770
186.733546,-0.057,-0.048,1.053,0.910,-2.450,-0.840
186.74253,-0.058,-0.048,1.051,1.120,-2.590,-0.770
186.75387,-0.057,-0.051,1.052,0.840,-2.380,-0.770
186.760726,-0.055,-0.049,1.049,1.050,-2.450,-0.770
186.769595,-0.055,-0.047,1.052,0.770,-2.450,-0.630
186.777675,-0.055,-0.047,1.053,0.700,-2.520,-0.840
186.781594,-0.057,-0.051,1.049,1.050,-2.380,-0.770
186.793084,-0.052,-0.048,1.052,0.980,-2.660,-0.770
186.801938,-0.054,-0.050,1.054,0.910,-2.590,-0.770
186.805901,-0.056,-0.050,1.049,1.120,-2.590,-0.840
186.814858,-0.056,-0.049,1.051,0.840,-2.450,-0.700
186.823868,-0.057,-0.052,1.052,0.840,-2.590,-0.700
186.835216,-0.057,-0.049,1.051,0.980,-2.590,-0.840
186.844225,-0.052,-0.049,1.050,1.050,-2.030,-0.840
186.852973,-0.054,-0.050,1.055,0.980,-2.520,-0.770
186.859021,-0.058,-0.049,1.053,0.770,-2.450,-0.770
186.862938,-0.061,-0.050,1.049,0.980,-2.170,-0.770
186.874691,-0.059,-0.048,1.049,0.910,-2.520,-0.840
186.8786,-0.054,-0.049,1.053,0.700,-2.380,-0.770
186.887507,-0.054,-0.048,1.053,1.120,-2.450,-0.840
186.896501,-0.055,-0.048,1.053,0.700,-2.520,-0.770
186.90535,-0.052,-0.050,1.053,0.770,-2.520,-0.840
186.916534,-0.058,-0.049,1.050,1.050,-2.450,-0.770
186.925364,-0.055,-0.051,1.050,1.260,-2.520,-0.770
186.932522,-0.057,-0.047,1.052,1.120,-2.590,-0.700
186.936466,-0.057,-0.050,1.052,0.770,-2.240,-0.700
186.945285,-0.058,-0.049,1.048,0.980,-2.590,-0.840
186.956615,-0.056,-0.053,1.052,0.700,-2.380,-0.770
186.962633,-0.057,-0.050,1.052,0.980,-2.520,-0.910
186.969605,-0.059,-0.048,1.051,0.840,-2.590,-0.770
186.977787,-0.056,-0.049,1.052,0.980,-2.310,-0.770
186.986708,-0.056,-0.050,1.053,0.980,-2.380,-0.770
186.994192,-0.054,-0.048,1.052,0.630,-2.310,-0.910
187.002055,-0.057,-0.049,1.050,0.980,-2.380,-0.770
187.010033,-0.058,-0.050,1.051,1.050,-2.380,-0.770
187.013942,-0.056,-0.048,1.051,0.770,-2.520,-0.770
187.022937,-0.056,-0.048,1.052,0.840,-2.380,-0.700
187.034345,-0.057,-0.049,1.054,0.910,-2.310,-0.840
187.043276,-0.058,-0.049,1.053,0.770,-2.310,-0.770
187.052265,-0.056,-0.048,1.053,0.700,-2.380,-0.770
187.061274,-0.056,-0.050,1.054,0.980,-2.450,-0.770
187.07026,-0.053,-0.050,1.051,0.910,-2.450,-0.770
187.080728,-0.055,-0.051,1.052,0.770,-2.450,-0.910
187.088679,-0.057,-0.051,1.051,0.770,-2.380,-0.770
187.092589,-0.055,-0.050,1.054,0.980,-2.590,-0.700
187.10157,-0.058,-0.046,1.053,0.770,-2.380,-0.770
187.110501,-0.057,-0.049,1.053,0.910,-2.800,-0.840
187.121843,-0.059,-0.047,1.051,0.910,-2.520,-0.770
187.126939,-0.061,-0.048,1.050,0.840,-2.660,-0.630
187.135927,-0.056,-0.049,1.052,0.840,-2.450,-0.700
187.144696,-0.056,-0.049,1.055,1.050,-2.450,-0.770
187.148614,-0.056,-0.050,1.052,0.840,-2.660,-0.770
187.164934,-0.058,-0.048,1.051,0.840,-2.450,-0.770
187.17394,-0.056,-0.048,1.051,1.050,-2.450,-0.840
187.177934,-0.058,-0.052,1.050,0.980,-2.380,-0.770
187.186935,-0.058,-0.050,1.053,0.980,-2.450,-0.840
187.193967,-0.054,-0.048,1.053,1.120,-2.240,-0.770
187.201473,-0.055,-0.048,1.051,0.840,-2.520,-0.840
187.209331,-0.056,-0.049,1.051,1.050,-2.450,-0.770
187.21541,-0.057,-0.049,1.052,1.050,-2.380,-0.770
187.224306,-0.056,-0.049,1.054,0.840,-2.450,-0.840
187.22823,-0.057,-0.049,1.051,0.910,-2.240,-0.770
187.238779,-0.057,-0.049,1.052,0.980,-2.520,-0.770
187.242712,-0.059,-0.050,1.052,0.770,-2.380,-0.770
187.247598,-0.057,-0.050,1.052,1.050,-2.450,-0.630
187.25658,-0.057,-0.052,1.050,0.840,-2.590,-0.770
187.265582,-0.057,-0.047,1.052,0.910,-2.520,-0.840
187.276933,-0.056,-0.049,1.055,0.840,-2.590,-0.770
187.285934,-0.056,-0.049,1.053,0.910,-2.450,-0.770
187.294938,-0.056,-0.051,1.053,1.120,-2.590,-0.840
187.303943,-0.056,-0.051,1.051,0.700,-2.520,-0.770
187.307919,-0.055,-0.052,1.050,1.120,-2.450,-0.770
187.323545,-0.058,-0.049,1.051,0.910,-2.660,-0.630
187.327506,-0.057,-0.049,1.053,0.980,-2.520,-0.770
187.33629,-0.058,-0.049,1.050,0.840,-2.450,-0.700
187.345263,-0.058,-0.048,1.051,0.980,-2.450,-0.840
187.354253,-0.056,-0.051,1.051,1.190,-2.520,-0.770
187.365581,-0.055,-0.050,1.049,0.910,-2.520,-0.840
187.37434,-0.056,-0.052,1.048,0.980,-2.520,-0.770
187.383291,-0.057,-0.048,1.053,0.840,-2.520,-0.840
187.387231,-0.058,-0.051,1.050,0.910,-2.380,-0.840
187.396174,-0.056,-0.048,1.052,0.910,-2.520,-0.700
187.407559,-0.057,-0.047,1.053,0.840,-2.380,-0.770
187.413602,-0.058,-0.049,1.050,0.840,-2.520,-0.770
187.422591,-0.055,-0.051,1.055,1.050,-2.380,-0.770
187.429584,-0.055,-0.050,1.053,1.050,-2.520,-0.840
187.438576,-0.058,-0.047,1.052,0.840,-2.520,-0.770
187.449936,-0.056,-0.050,1.052,1.050,-2.590,-0.700
187.456994,-0.056,-0.050,1.051,0.910,-2.590,-0.770
187.465928,-0.058,-0.049,1.052,0.840,-2.450,-0.840
187.469895,-0.056,-0.051,1.050,0.840,-2.450,-0.770
187.478621,-0.059,-0.048,1.052,0.980,-2.450,-0.770
187.486336,-0.058,-0.048,1.052,0.840,-2.520,-0.840
187.495229,-0.057,-0.051,1.049,0.910,-2.590,-0.770
187.504229,-0.055,-0.052,1.050,1.050,-2.380,-0.840
187.512971,-0.056,-0.049,1.053,0.840,-2.520,-0.770
187.519019,-0.057,-0.051,1.050,0.840,-2.520,-0.770
187.530239,-0.058,-0.050,1.053,1.050,-2.520,-0.770
187.53904,-0.057,-0.048,1.052,0.700,-2.450,-0.770
187.542959,-0.057,-0.049,1.052,0.910,-2.450,-0.770
187.551114,-0.058,-0.050,1.052,0.770,-2.520,-0.840
187.559065,-0.057,-0.050,1.054,1.120,-2.380,-0.770
187.566401,-0.056,-0.049,1.052,0.980,-2.520,-0.700
187.573342,-0.057,-0.048,1.050,0.910,-2.450,-0.840
187.582266,-0.055,-0.049,1.051,0.770,-2.520,-0.770
187.591042,-0.058,-0.048,1.053,0.910,-2.520,-0.840
187.594957,-0.057,-0.050,1.052,0.910,-2.520,-0.910
187.61132,-0.057,-0.050,1.053,0.770,-2.450,-0.770
187.615267,-0.059,-0.051,1.052,0.980,-2.380,-0.770
187.623496,-0.058,-0.048,1.053,0.980,-2.450,-0.770
187.630592,-0.058,-0.050,1.051,0.840,-2.450,-0.770
187.639322,-0.057,-0.051,1.052,0.840,-2.520,-0.840
187.650638,-0.058,-0.051,1.051,0.910,-2.450,-0.770
187.659591,-0.057,-0.049,1.052,0.840,-2.520,-0.840
187.668555,-0.056,-0.051,1.052,0.770,-2.450,-0.840
187.672505,-0.057,-0.048,1.049,0.770,-2.100,-0.770
187.681271,-0.058,-0.048,1.050,0.560,-2.170,-0.840
187.692605,-0.056,-0.052,1.052,0.700,-1.890,-0.840
187.697611,-0.056,-0.049,1.051,0.840,-2.030,-0.700
187.706575,-0.056,-0.049,1.052,0.490,-2.170,-0.770
187.715339,-0.057,-0.051,1.053,0.560,-2.240,-0.840
187.723378,-0.056,-0.051,1.053,2.520,-2.450,-0.700
187.730751,-0.058,-0.053,1.050,1.260,-2.730,-0.770
187.739583,-0.057,-0.052,1.052,1.750,-2.730,-0.700
187.743575,-0.059,-0.047,1.052,0.770,-2.520,-0.840
187.752578,-0.058,-0.053,1.049,1.330,-2.590,-0.770
187.760763,-0.060,-0.050,1.051,0.770,-2.800,-0.700
187.768323,-0.057,-0.052,1.051,0.910,-2.800,-0.910
187.777186,-0.060,-0.049,1.055,1.120,-3.150,-0.840
187.78599,-0.056,-0.048,1.056,1.260,-2.940,-0.770
187.794935,-0.054,-0.052,1.052,1.400,-2.940,-0.770
187.80394,-0.056,-0.050,1.050,0.840,-2.940,-0.700
187.815264,-0.056,-0.055,1.049,0.980,-2.590,-0.840
187.82425,-0.049,-0.051,1.050,0.630,-2.030,-0.840
187.828248,-0.060,-0.048,1.052,0.700,-2.240,-0.840
187.837152,-0.062,-0.050,1.054,0.560,-2.310,-0.840
187.844066,-0.058,-0.055,1.053,0.980,-2.380,-0.770
187.851401,-0.056,-0.050,1.052,1.120,-2.870,-0.840
187.859375,-0.051,-0.047,1.056,1.190,-2.170,-0.910
187.868217,-0.054,-0.048,1.056,1.260,-2.660,-0.700
187.877049,-0.054,-0.046,1.048,0.980,-2.450,-0.770
187.880966,-0.059,-0.049,1.050,1.120,-2.310,-0.700
187.895144,-0.058,-0.047,1.048,0.700,-2.310,-0.630
187.899049,-0.060,-0.050,1.050,0.980,-2.380,-0.630
187.906015,-0.061,-0.046,1.054,0.700,-2.730,-0.630
187.912954,-0.057,-0.049,1.051,0.770,-2.240,-0.700
187.920005,-0.057,-0.052,1.053,1.120,-2.660,-0.770
187.927371,-0.057,-0.048,1.052,0.490,-2.450,-0.770
187.936265,-0.056,-0.049,1.050,0.560,-2.590,-0.840
187.945267,-0.057,-0.051,1.056,1.190,-2.870,-0.700
187.949243,-0.055,-0.048,1.050,0.560,-2.450,-0.560
187.958182,-0.057,-0.050,1.051,1.120,-2.940,-0.770
187.97194,-0.056,-0.046,1.053,0.770,-2.380,-0.770
187.975933,-0.059,-0.054,1.052,1.120,-2.660,-0.770
187.984099,-0.056,-0.049,1.052,0.910,-2.590,-0.770
187.992992,-0.057,-0.048,1.052,0.840,-2.660,-0.840
188.001932,-0.056,-0.051,1.051,1.190,-2.520,-0.770
188.013255,-0.057,-0.049,1.051,1.050,-2.590,-0.910
188.020291,-0.058,-0.050,1.051,0.910,-2.520,-0.910
188.029296,-0.057,-0.050,1.052,0.770,-2.450,-0.770
188.033217,-0.056,-0.054,1.049,0.980,-2.380,-0.770
188.042116,-0.058,-0.049,1.052,1.050,-2.660,-0.770
188.05269,-0.056,-0.050,1.051,0.910,-2.170,-0.770
188.057626,-0.057,-0.050,1.052,0.840,-2.450,-0.770
188.064597,-0.056,-0.048,1.053,0.770,-2.590,-0.770
188.073339,-0.055,-0.047,1.053,0.560,-2.380,-0.770
188.082265,-0.055,-0.049,1.052,0.840,-2.520,-0.770
188.093578,-0.054,-0.050,1.054,1.050,-2.380,-0.770
188.099688,-0.057,-0.050,1.051,1.050,-2.590,-0.840
188.103595,-0.056,-0.049,1.056,0.840,-2.520,-0.770
188.111622,-0.057,-0.052,1.052,0.770,-2.450,-0.770
188.120534,-0.059,-0.052,1.052,0.980,-2.520,-0.910
188.131923,-0.053,-0.050,1.050,0.910,-2.380,-0.770
188.140922,-0.058,-0.048,1.052,0.840,-2.520,-0.840
188.149863,-0.057,-0.048,1.053,0.840,-2.450,-0.770
188.157965,-0.057,-0.050,1.050,0.980,-2.450,-0.840
188.165018,-0.057,-0.049,1.053,0.770,-2.380,-0.700
188.172366,-0.055,-0.050,1.051,0.980,-2.170,-0.770
188.181263,-0.056,-0.050,1.048,1.050,-2.310,-0.840
188.185227,-0.057,-0.049,1.054,0.910,-2.380,-0.770
188.194174,-0.057,-0.049,1.051,0.840,-2.310,-0.770
188.203001,-0.055,-0.051,1.051,0.910,-2.100,-0.560
188.214216,-0.061,-0.051,1.053,0.700,-2.800,-0.770
188.221568,-0.056,-0.053,1.052,1.050,-2.240,-0.840
188.230591,-0.056,-0.051,1.050,0.770,-2.590,-0.770
188.238661,-0.054,-0.052,1.055,0.840,-2.590,-0.700
188.24258,-0.056,-0.052,1.053,1.050,-2.100,-0.630
188.255265,-0.058,-0.048,1.052,0.840,-2.450,-0.770
188.264266,-0.058,-0.051,1.051,0.980,-2.450,-0.770
188.268259,-0.058,-0.049,1.052,0.840,-2.590,-0.700
188.277206,-0.055,-0.050,1.050,0.840,-2.450,-0.840
188.285989,-0.055,-0.050,1.052,0.910,-2.660,-0.770
188.297281,-0.052,-0.049,1.052,0.980,-2.520,-0.700
188.306289,-0.056,-0.050,1.051,0.910,-2.520,-0.700
188.315258,-0.056,-0.050,1.052,0.910,-2.380,-0.770
188.322338,-0.060,-0.051,1.051,1.050,-2.450,-0.700
188.326261,-0.055,-0.050,1.051,1.050,-2.590,-0.700
188.338601,-0.056,-0.050,1.051,0.840,-2.240,-0.840
188.342568,-0.057,-0.049,1.055,0.910,-2.520,-0.770
188.351568,-0.054,-0.049,1.052,0.770,-2.380,-0.770
188.359759,-0.054,-0.051,1.048,0.980,-2.450,-0.770
188.368589,-0.054,-0.049,1.050,0.840,-2.310,-0.770
188.37992,-0.056,-0.050,1.050,1.050,-2.170,-0.840
188.385982,-0.055,-0.051,1.051,1.190,-2.450,-0.840
188.394936,-0.058,-0.051,1.053,0.840,-2.520,-0.770
188.403162,-0.055,-0.048,1.052,0.910,-2.170,-0.840
188.40711,-0.055,-0.048,1.051,0.980,-2.590,-0.770
188.419679,-0.054,-0.049,1.055,0.700,-2.240,-0.700
188.423579,-0.057,-0.050,1.049,1.050,-2.380,-0.700
188.432565,-0.058,-0.048,1.051,0.840,-2.520,-0.770
188.440613,-0.053,-0.047,1.053,0.840,-2.450,-0.910
188.449345,-0.055,-0.052,1.053,1.050,-2.520,-0.700
188.460632,-0.055,-0.049,1.049,0.840,-2.380,-0.910
188.468647,-0.058,-0.050,1.051,0.910,-2.660,-0.770
188.477585,-0.056,-0.046,1.051,0.910,-2.380,-0.700
188.481562,-0.059,-0.051,1.050,0.910,-2.450,-0.770
188.48857,-0.056,-0.051,1.051,1.050,-2.590,-0.840
188.501038,-0.057,-0.052,1.052,0.840,-2.450,-0.770
188.504955,-0.054,-0.050,1.048,1.120,-2.450,-0.840
188.512973,-0.052,-0.050,1.052,0.980,-2.450,-0.770
188.520953,-0.054,-0.050,1.053,0.840,-2.590,-0.770
188.529695,-0.056,-0.052,1.053,1.050,-2.520,-0.840
188.537283,-0.056,-0.049,1.053,1.050,-2.520,-0.700
188.546267,-0.056,-0.049,1.053,0.910,-2.520,-0.840
188.555054,-0.057,-0.052,1.053,1.120,-2.590,-0.770
188.558961,-0.058,-0.048,1.053,0.980,-2.450,-0.840
188.567853,-0.058,-0.052,1.050,0.840,-2.450,-0.910
188.579303,-0.057,-0.050,1.053,0.840,-2.450,-0.770
188.586264,-0.055,-0.051,1.053,0.910,-2.450,-0.770
188.595252,-0.055,-0.051,1.054,1.190,-2.450,-0.700
188.604259,-0.056,-0.045,1.049,0.980,-2.520,-0.700
188.611336,-0.056,-0.051,1.049,0.910,-2.450,-0.770
188.622607,-0.057,-0.050,1.051,0.980,-2.380,-0.770
188.631573,-0.055,-0.050,1.049,0.840,-2.380,-0.840
188.63561,-0.053,-0.049,1.053,0.840,-2.380,-0.770
188.64457,-0.054,-0.052,1.050,0.910,-2.380,-0.770
188.653517,-0.055,-0.052,1.053,0.910,-2.590,-0.770
188.664028,-0.055,-0.049,1.052,0.910,-2.450,-0.700
188.672899,-0.054,-0.049,1.051,1.120,-2.380,-0.700
188.681921,-0.059,-0.049,1.052,0.770,-2.450,-0.770
188.688942,-0.055,-0.050,1.049,0.770,-2.450,-0.840
188.69286,-0.057,-0.051,1.051,0.840,-2.380,-0.840
188.709188,-0.056,-0.049,1.050,0.980,-2.590,-0.770
188.717409,-0.056,-0.053,1.053,0.840,-1.960,-0.560
188.72131,-0.060,-0.041,1.052,0.350,-2.310,-0.560
188.730182,-0.058,-0.056,1.057,0.490,-2.660,-0.700
188.738958,-0.049,-0.060,1.055,1.680,-2.240,-0.840
188.750264,-0.056,-0.053,1.055,0.420,-2.240,-0.910
188.759267,-0.054,-0.053,1.052,1.400,-2.450,-0.840
188.76732,-0.060,-0.046,1.045,0.910,-2.660,-0.910
188.776262,-0.055,-0.050,1.048,1.050,-2.240,-0.840
188.780221,-0.058,-0.047,1.053,0.910,-2.590,-0.770
188.796566,-0.056,-0.051,1.050,1.190,-2.310,-0.700
188.800588,-0.056,-0.046,1.052,0.560,-2.590,-0.770
188.808595,-0.056,-0.051,1.053,1.260,-2.450,-0.700
188.817571,-0.055,-0.048,1.053,0.700,-2.520,-0.770
188.826558,-0.058,-0.047,1.054,0.630,-2.380,-0.770
188.837925,-0.055,-0.045,1.051,0.770,-2.590,-0.840
188.844952,-0.057,-0.048,1.047,0.490,-2.450,-0.770
188.853915,-0.055,-0.052,1.052,0.980,-2.310,-0.770
188.861977,-0.056,-0.050,1.053,0.630,-2.310,-0.700
188.865927,-0.058,-0.052,1.048,0.840,-2.450,-0.770
188.878334,-0.056,-0.052,1.048,1.120,-2.380,-0.840
188.882257,-0.057,-0.050,1.054,0.700,-2.380,-0.840
188.891268,-0.057,-0.051,1.049,1.260,-2.380,-0.910
188.898425,-0.056,-0.047,1.053,1.120,-2.520,-0.840
188.906421,-0.059,-0.051,1.053,0.840,-2.380,-0.770
188.91377,-0.055,-0.049,1.053,0.980,-2.450,-0.840
188.922624,-0.058,-0.047,1.052,0.630,-2.450,-0.840
188.931559,-0.058,-0.050,1.050,1.120,-2.520,-0.770
188.935607,-0.055,-0.048,1.053,0.980,-2.450,-0.840
188.944555,-0.054,-0.050,1.052,0.770,-2.380,-0.770
188.960288,-0.058,-0.050,1.055,0.980,-2.520,-0.770
188.964209,-0.056,-0.054,1.055,1.050,-2.590,-0.840
188.973112,-0.057,-0.052,1.052,1.050,-2.590,-0.770
188.981969,-0.056,-0.048,1.052,0.980,-2.450,-0.770
188.988974,-0.055,-0.051,1.052,0.910,-2.520,-0.770
188.996408,-0.055,-0.049,1.052,1.050,-2.520,-0.770
189.00534,-0.055,-0.049,1.054,0.770,-2.240,-0.770
189.013357,-0.056,-0.050,1.050,1.050,-2.380,-0.910
189.017279,-0.057,-0.049,1.054,0.980,-2.310,-0.840
189.026263,-0.056,-0.048,1.053,0.840,-2.450,-0.910
189.033859,-0.056,-0.049,1.051,0.840,-2.520,-0.840
189.042934,-0.057,-0.048,1.050,0.980,-2.380,-0.770
189.051884,-0.058,-0.049,1.053,0.840,-2.590,-0.770
189.060814,-0.056,-0.052,1.053,0.980,-2.520,-0.840
189.068784,-0.059,-0.050,1.051,0.980,-2.450,-0.840
189.07637,-0.056,-0.048,1.050,0.980,-2.450,-0.770
189.083294,-0.057,-0.052,1.051,0.910,-2.380,-0.840
189.08833,-0.057,-0.048,1.052,0.770,-2.450,-0.700
189.092265,-0.057,-0.049,1.052,0.770,-2.590,-0.910
189.101272,-0.059,-0.051,1.051,0.770,-2.660,-0.770
189.112571,-0.056,-0.047,1.049,0.840,-2.520,-0.770
189.121555,-0.056,-0.049,1.053,0.910,-2.450,-0.700
189.130609,-0.055,-0.049,1.051,0.980,-2.380,-0.770
189.139546,-0.056,-0.050,1.053,0.980,-2.450,-0.770
189.147623,-0.055,-0.050,1.053,0.980,-2.380,-0.770
189.154992,-0.058,-0.048,1.053,0.910,-2.520,-0.840
189.163945,-0.060,-0.050,1.051,0.910,-2.450,-0.840
189.172896,-0.057,-0.048,1.052,0.910,-2.380,-0.770
189.176926,-0.056,-0.048,1.052,0.770,-2.450,-0.770
189.185886,-0.055,-0.050,1.055,0.840,-2.450,-0.840
189.197215,-0.056,-0.050,1.051,0.980,-2.310,-0.700
189.206187,-0.057,-0.049,1.051,0.910,-2.310,-0.770
189.214965,-0.056,-0.048,1.048,0.700,-2.170,-0.770
189.223919,-0.057,-0.051,1.050,0.770,-2.100,-0.840
189.22785,-0.057,-0.046,1.051,0.700,-2.030,-0.840
189.244211,-0.057,-0.049,1.053,0.840,-2.310,-0.840
189.253068,-0.058,-0.049,1.054,0.770,-2.380,-0.770
189.256963,-0.057,-0.052,1.051,1.050,-2.450,-0.770
189.265931,-0.055,-0.047,1.055,1.050,-2.730,-0.700
189.274854,-0.056,-0.049,1.053,1.120,-2.520,-0.910
189.2862,-0.057,-0.047,1.053,0.560,-2.730,-0.910
189.294068,-0.059,-0.050,1.053,1.190,-2.730,-0.910
189.302928,-0.058,-0.050,1.051,1.400,-2.800,-0.840
189.31,-0.055,-0.048,1.053,0.840,-2.590,-0.980
189.313935,-0.059,-0.053,1.054,1.330,-2.870,-0.980
189.329398,-0.057,-0.046,1.054,0.980,-3.080,-0.840
189.333307,-0.058,-0.052,1.052,1.260,-3.010,-0.840
189.342205,-0.056,-0.048,1.048,0.770,-2.940,-0.840
189.350951,-0.054,-0.050,1.048,1.260,-2.450,-0.840
189.357981,-0.058,-0.049,1.052,1.470,-2.380,-0.770
189.365348,-0.061,-0.044,1.054,0.210,-2.800,-0.700
189.374216,-0.057,-0.051,1.050,0.630,-3.010,-0.840
189.38305,-0.045,-0.052,1.051,1.540,-1.680,-0.770
189.386962,-0.062,-0.044,1.055,0.140,-2.730,-0.700
189.395922,-0.060,-0.050,1.051,0.910,-2.450,-0.840
189.407202,-0.058,-0.048,1.052,1.120,-2.870,-0.770
189.414256,-0.057,-0.048,1.057,0.980,-2.240,-0.840
189.420555,-0.052,-0.050,1.049,1.190,-1.750,-0.840
189.429567,-0.063,-0.048,1.047,0.630,-2.800,-0.840
189.43856,-0.054,-0.052,1.050,0.910,-2.170,-0.770
189.44992,-0.058,-0.047,1.050,0.350,-2.520,-0.770
189.456973,-0.055,-0.050,1.050,0.700,-2.100,-0.770
189.465913,-0.060,-0.052,1.052,1.190,-2.380,-0.770
189.469882,-0.055,-0.049,1.053,0.630,-2.380,-0.630
189.47884,-0.056,-0.051,1.050,1.260,-2.520,-0.770
189.490264,-0.057,-0.052,1.053,0.700,-2.450,-0.700
189.497265,-0.058,-0.050,1.050,1.260,-2.520,-0.770
189.50627,-0.058,-0.048,1.051,0.630,-2.730,-0.700
189.515204,-0.055,-0.048,1.050,0.350,-2.660,-0.770
189.52404,-0.056,-0.050,1.051,1.190,-2.660,-0.840
189.535276,-0.053,-0.048,1.054,0.630,-2.660,-0.770
189.544268,-0.056,-0.050,1.054,1.190,-2.660,-0.840
189.548244,-0.055,-0.047,1.052,0.840,-2.450,-0.700
189.557171,-0.055,-0.048,1.051,1.050,-2.520,-0.770
189.564057,-0.055,-0.048,1.053,0.770,-2.590,-0.770
189.571449,-0.055,-0.050,1.052,1.050,-2.380,-0.840
189.580277,-0.057,-0.050,1.049,0.980,-2.450,-0.840
189.589212,-0.058,-0.047,1.052,0.910,-2.520,-0.770
189.598046,-0.055,-0.049,1.053,1.050,-2.450,-0.770
189.601963,-0.055,-0.051,1.052,0.840,-2.380,-0.770
189.61829,-0.054,-0.051,1.051,0.980,-2.380,-0.770
189.622239,-0.058,-0.050,1.051,0.910,-2.380,-0.770
189.631172,-0.057,-0.047,1.051,0.980,-2.520,-0.700
189.639952,-0.057,-0.048,1.053,0.910,-2.380,-0.770
189.648923,-0.057,-0.051,1.055,0.910,-2.520,-0.770
189.660257,-0.059,-0.048,1.052,1.050,-2.590,-0.770
189.668301,-0.056,-0.051,1.050,1.050,-2.590,-0.700
189.677235,-0.058,-0.050,1.050,1.050,-2.450,-0.770
189.681236,-0.058,-0.049,1.053,0.980,-2.520,-0.700
189.690164,-0.055,-0.051,1.052,0.980,-2.450,-0.700
189.70145,-0.055,-0.049,1.053,0.910,-2.520,-0.700
189.710265,-0.058,-0.049,1.051,0.980,-2.380,-0.840
189.719208,-0.057,-0.051,1.053,0.980,-2.450,-0.700
189.727943,-0.056,-0.050,1.051,0.840,-2.450,-0.770
189.736908,-0.059,-0.048,1.049,0.910,-2.450,-0.840
189.747413,-0.057,-0.048,1.050,0.910,-2.450,-0.770
189.756297,-0.057,-0.048,1.051,1.050,-2.450,-0.840
189.76028,-0.058,-0.049,1.050,0.910,-2.380,-0.840
189.769175,-0.056,-0.049,1.056,0.840,-2.380,-0.770
189.77795,-0.055,-0.049,1.055,0.910,-2.450,-0.700
189.789165,-0.056,-0.050,1.052,0.840,-2.380,-0.770
189.798245,-0.055,-0.050,1.051,1.050,-2.380,-0.700
189.807146,-0.058,-0.049,1.051,1.120,-2.520,-0.770
189.81603,-0.058,-0.049,1.054,0.700,-2.450,-0.770
189.819947,-0.057,-0.051,1.050,0.980,-2.450,-0.700
189.834363,-0.058,-0.050,1.053,0.840,-2.660,-0.770
189.838369,-0.057,-0.050,1.052,0.910,-2.520,-0.770
189.847272,-0.057,-0.049,1.049,0.770,-2.660,-0.840
189.852276,-0.057,-0.049,1.049,0.700,-2.590,-0.770
189.861208,-0.055,-0.051,1.051,0.910,-2.590,-0.770
189.869731,-0.057,-0.049,1.051,0.770,-2.520,-0.770
189.878577,-0.056,-0.049,1.054,1.050,-2.310,-0.700
189.885653,-0.056,-0.050,1.051,0.910,-2.520,-0.770
189.889561,-0.058,-0.048,1.051,0.980,-2.520,-0.770
189.898556,-0.057,-0.048,1.050,1.050,-2.310,-0.770
189.911268,-0.056,-0.050,1.050,0.840,-2.590,-0.770
189.915196,-0.056,-0.049,1.051,0.910,-2.240,-0.840
189.923258,-0.056,-0.049,1.051,1.050,-2.520,-0.770
189.930321,-0.057,-0.048,1.050,0.910,-2.380,-0.700
189.939216,-0.055,-0.049,1.052,0.840,-2.380,-0.700
189.946819,-0.057,-0.051,1.053,0.980,-2.450,-0.770
189.955808,-0.056,-0.045,1.052,0.840,-2.450,-0.840
189.962972,-0.055,-0.050,1.051,0.910,-2.520,-0.840
189.971923,-0.056,-0.049,1.050,0.840,-2.520,-0.770
189.975903,-0.056,-0.048,1.052,1.120,-2.450,-0.700
189.988404,-0.058,-0.046,1.046,0.770,-2.590,-0.840
189.992306,-0.058,-0.051,1.058,0.910,-2.590,-0.700
190.001264,-0.052,-0.050,1.047,0.980,-2.030,-0.770
190.010197,-0.058,-0.048,1.052,0.840,-2.940,-0.770
190.017284,-0.054,-0.048,1.054,0.700,-2.100,-0.700
190.024677,-0.059,-0.049,1.049,1.050,-2.800,-0.840
190.033602,-0.058,-0.051,1.051,0.770,-2.380,-0.770
190.040647,-0.053,-0.048,1.051,0.630,-2.170,-0.700
190.044561,-0.058,-0.053,1.050,0.980,-2.660,-0.700
190.048566,-0.056,-0.050,1.051,1.120,-2.870,-0.910
190.061041,-0.052,-0.047,1.052,0.560,-1.400,-0.700
190.065021,-0.065,-0.058,1.040,0.980,-2.870,-0.770
190.073907,-0.059,-0.042,1.066,1.120,-2.030,-0.560
190.08109,-0.048,-0.042,1.057,-0.140,-1.610,-0.700
190.089939,-0.068,-0.055,1.042,0.140,-3.500,-0.840
190.101232,-0.051,-0.049,1.056,1.260,-2.100,-0.770
190.106276,-0.063,-0.042,1.048,0.560,-3.080,-0.700
190.114336,-0.057,-0.049,1.049,0.000,-2.870,-0.770
190.118259,-0.053,-0.056,1.054,1.400,-2.030,-0.840
190.126413,-0.057,-0.048,1.049,1.190,-3.080,-0.840
190.134981,-0.051,-0.053,1.054,0.350,-2.170,-0.840
190.138936,-0.053,-0.055,1.054,1.470,-2.380,-0.770
190.147913,-0.057,-0.046,1.051,0.700,-2.660,-0.840
190.156129,-0.059,-0.049,1.050,0.770,-2.520,-0.840
190.164939,-0.061,-0.050,1.053,1.050,-2.800,-0.770
190.176245,-0.055,-0.049,1.053,1.050,-2.590,-0.700
190.183324,-0.056,-0.050,1.053,1.050,-2.730,-0.840
190.190342,-0.057,-0.050,1.048,0.840,-2.520,-0.770
190.194253,-0.056,-0.050,1.052,1.190,-2.660,-0.910
190.198256,-0.055,-0.048,1.053,1.120,-2.800,-0.840
190.20584,-0.052,-0.051,1.052,0.770,-2.450,-0.700
190.21492,-0.057,-0.052,1.052,1.330,-2.590,-0.770
190.223873,-0.055,-0.048,1.051,0.770,-2.380,-0.770
190.231083,-0.058,-0.051,1.049,0.980,-2.660,-0.840
190.238022,-0.058,-0.049,1.055,1.120,-2.450,-0.910
190.245382,-0.057,-0.048,1.050,0.770,-2.450,-0.630
190.254215,-0.059,-0.049,1.049,0.910,-2.660,-0.840
190.263258,-0.054,-0.049,1.051,0.910,-2.590,-0.770
190.267207,-0.052,-0.048,1.051,0.770,-2.100,-0.700
190.275396,-0.057,-0.050,1.052,0.770,-2.660,-0.840
190.287916,-0.053,-0.050,1.054,0.840,-2.380,-0.770
190.291839,-0.059,-0.049,1.052,1.050,-2.730,-0.840
190.300832,-0.057,-0.048,1.052,0.910,-2.520,-0.700
190.307915,-0.057,-0.048,1.052,1.050,-2.660,-0.840
190.316918,-0.058,-0.049,1.052,0.980,-2.590,-0.770
190.32824,-0.056,-0.051,1.051,0.630,-2.450,-0.770
190.333451,-0.056,-0.049,1.050,1.120,-2.100,-0.840
190.342288,-0.060,-0.044,1.049,0.770,-2.590,-0.770
190.346284,-0.055,-0.054,1.048,0.280,-1.960,-0.630
190.355168,-0.054,-0.046,1.055,0.980,-2.170,-0.770
190.366583,-0.053,-0.053,1.052,1.050,-2.450,-0.700
190.375627,-0.056,-0.047,1.052,0.980,-2.310,-0.840
190.384524,-0.057,-0.046,1.051,1.050,-2.450,-0.700
190.393331,-0.058,-0.051,1.051,1.330,-2.380,-0.700
190.400338,-0.056,-0.045,1.052,0.560,-2.660,-0.840
190.407783,-0.054,-0.052,1.053,1.540,-2.380,-0.770
190.416674,-0.059,-0.045,1.051,0.910,-2.450,-0.910
190.420635,-0.054,-0.051,1.051,0.560,-2.660,-0.770
190.429558,-0.055,-0.048,1.054,1.470,-2.590,-0.700
190.43758,-0.056,-0.046,1.053,0.560,-2.590,-0.840
190.445041,-0.056,-0.050,1.050,1.190,-2.380,-0.630
190.453944,-0.057,-0.046,1.052,0.770,-2.660,-0.910
190.46094,-0.057,-0.051,1.051,0.910,-2.590,-0.840
190.468153,-0.059,-0.050,1.051,0.980,-2.450,-0.770
190.477036,-0.057,-0.049,1.051,0.910,-2.660,-0.840
190.488194,-0.054,-0.053,1.049,0.980,-2.520,-0.840
190.495101,-0.057,-0.051,1.054,0.910,-2.520,-0.840
190.49905,-0.053,-0.050,1.053,0.840,-2.310,-0.770
190.507908,-0.057,-0.050,1.050,1.120,-2.380,-0.770
190.516115,-0.057,-0.049,1.052,0.980,-2.590,-0.770
190.52338,-0.054,-0.048,1.053,0.980,-2.450,-0.700
190.527322,-0.058,-0.048,1.053,0.910,-2.520,-0.840
190.536196,-0.058,-0.046,1.053,0.840,-2.590,-0.770
190.544178,-0.056,-0.048,1.054,0.840,-2.450,-0.630
190.548101,-0.057,-0.050,1.053,0.840,-2.310,-0.840
190.555675,-0.056,-0.051,1.048,1.050,-2.450,-0.700
190.559686,-0.060,-0.050,1.051,0.910,-2.450,-0.630
190.568547,-0.058,-0.049,1.051,0.770,-2.310,-0.700
190.575809,-0.058,-0.051,1.053,0.840,-2.450,-0.770
190.584789,-0.055,-0.050,1.053,0.840,-2.380,-0.770
190.5923,-0.056,-0.049,1.051,0.770,-2.380,-0.700
190.601294,-0.057,-0.050,1.053,0.770,-2.450,-0.840
190.609286,-0.058,-0.051,1.052,0.630,-2.590,-0.840
190.615312,-0.056,-0.050,1.051,1.050,-2.660,-0.770
190.619258,-0.055,-0.049,1.050,1.050,-2.590,-0.700
190.631692,-0.055,-0.049,1.051,0.770,-2.590,-0.700
190.635674,-0.054,-0.048,1.053,0.980,-2.450,-0.770
190.644554,-0.059,-0.049,1.052,0.770,-2.450,-0.840
190.653504,-0.055,-0.048,1.054,0.770,-2.660,-0.910
190.661417,-0.056,-0.050,1.050,1.260,-1.890,-0.910
190.668762,-0.057,-0.048,1.049,0.420,-2.660,-0.630
190.677619,-0.054,-0.052,1.056,1.120,-2.100,-0.840
190.684633,-0.054,-0.048,1.056,1.330,-1.960,-0.840
190.68856,-0.061,-0.047,1.045,0.630,-2.870,-0.770
190.696783,-0.052,-0.051,1.055,1.190,-2.100,-0.770
190.709268,-0.056,-0.046,1.054,0.980,-2.450,-0.700
190.713191,-0.052,-0.051,1.051,0.980,-2.450,-0.630
190.720295,-0.052,-0.052,1.055,1.470,-2.170,-0.700
190.729249,-0.060,-0.048,1.053,0.490,-2.730,-0.770
190.736304,-0.058,-0.052,1.053,0.910,-2.380,-0.840
190.743665,-0.057,-0.050,1.052,1.190,-2.730,-0.770
190.75261,-0.056,-0.050,1.051,1.050,-2.520,-0.770
190.760646,-0.054,-0.051,1.055,1.190,-2.380,-0.910
190.764563,-0.059,-0.046,1.051,0.700,-2.660,-0.770
190.773551,-0.058,-0.054,1.050,0.910,-2.310,-0.910
190.790022,-0.058,-0.049,1.050,0.630,-2.660,-0.770
190.793916,-0.058,-0.051,1.050,1.260,-2.450,-0.770
190.802906,-0.056,-0.047,1.055,0.490,-2.520,-0.770
190.811915,-0.055,-0.052,1.052,1.050,-2.450,-0.770
190.820912,-0.057,-0.051,1.052,1.330,-2.520,-0.770
190.828414,-0.057,-0.050,1.053,0.840,-2.380,-0.840
190.837326,-0.057,-0.052,1.051,1.120,-2.520,-0.770
190.845515,-0.058,-0.047,1.050,0.980,-2.450,-0.840
190.849511,-0.054,-0.051,1.051,0.840,-2.450,-0.840
190.858523,-0.053,-0.048,1.053,0.980,-2.310,-0.770
190.869836,-0.058,-0.052,1.052,0.980,-2.450,-0.700
190.878741,-0.059,-0.049,1.054,1.050,-2.450,-0.700
190.886679,-0.059,-0.048,1.052,0.770,-2.590,-0.770
190.891641,-0.054,-0.051,1.051,0.910,-2.520,-0.770
190.900627,-0.055,-0.048,1.050,1.050,-2.450,-0.840
190.911835,-0.056,-0.052,1.056,1.120,-2.450,-0.770
190.920686,-0.055,-0.050,1.050,1.120,-2.450,-0.910
190.924607,-0.056,-0.049,1.051,0.700,-2.520,-0.770
190.933564,-0.056,-0.052,1.052,1.050,-2.660,-0.770
190.9425,-0.056,-0.051,1.053,0.910,-2.450,-0.700
190.950039,-0.054,-0.048,1.052,0.910,-2.380,-0.840
190.958911,-0.055,-0.047,1.054,0.840,-2.450,-0.770
190.967833,-0.058,-0.047,1.053,0.840,-2.520,-0.770
190.976669,-0.057,-0.049,1.053,0.980,-2.520,-0.700
190.980563,-0.058,-0.051,1.052,0.910,-2.520,-0.910
190.996918,-0.056,-0.052,1.053,0.980,-2.380,-0.700
191.003986,-0.056,-0.051,1.051,0.980,-2.590,-0.770
191.007922,-0.056,-0.050,1.053,0.910,-2.380,-0.770
191.016847,-0.054,-0.051,1.052,0.980,-2.450,-0.700
191.02496,-0.057,-0.050,1.053,0.910,-2.310,-0.770
191.036274,-0.058,-0.051,1.052,1.050,-2.450,-0.770
191.045187,-0.057,-0.048,1.051,0.770,-2.380,-0.700
191.054146,-0.057,-0.050,1.054,0.770,-2.380,-0.840
191.062114,-0.056,-0.051,1.054,1.120,-2.450,-0.770
191.066018,-0.058,-0.049,1.052,0.770,-2.380,-0.910
191.082275,-0.056,-0.051,1.051,0.910,-2.590,-0.770
191.08624,-0.057,-0.048,1.050,0.770,-2.310,-0.840
191.094238,-0.058,-0.050,1.051,0.910,-2.520,-0.770
191.102446,-0.055,-0.049,1.052,0.910,-2.450,-0.840
191.111348,-0.055,-0.048,1.053,0.980,-2.380,-0.700
191.122608,-0.058,-0.050,1.053,0.910,-2.450,-0.770
191.13155,-0.056,-0.050,1.053,0.980,-2.450,-0.700
191.140638,-0.056,-0.052,1.051,0.910,-2.380,-0.910
191.144554,-0.056,-0.048,1.055,0.910,-2.450,-0.700
191.153539,-0.056,-0.049,1.051,0.700,-2.380,-0.840
191.165108,-0.057,-0.050,1.052,0.840,-2.310,-0.770
191.169013,-0.054,-0.049,1.050,0.840,-2.240,-0.770
191.175968,-0.055,-0.050,1.052,0.910,-2.240,-0.770
191.182919,-0.057,-0.050,1.051,0.840,-2.240,-0.770
191.187997,-0.060,-0.051,1.054,0.910,-2.310,-0.840
191.195352,-0.058,-0.053,1.051,0.840,-2.380,-0.770
191.204252,-0.057,-0.052,1.051,0.980,-2.520,-0.840
191.211307,-0.054,-0.049,1.052,0.770,-2.520,-0.770
191.215297,-0.054,-0.049,1.053,1.050,-2.310,-0.700
191.224151,-0.055,-0.051,1.055,0.840,-2.450,-0.770
191.234827,-0.055,-0.051,1.054,0.840,-2.310,-0.770
191.242905,-0.061,-0.049,1.056,1.330,-2.380,-0.840
191.247921,-0.056,-0.048,1.053,0.420,-2.800,-1.050
191.256833,-0.056,-0.053,1.054,1.610,-2.590,-0.840
191.262766,-0.055,-0.048,1.052,1.190,-2.800,-0.840
191.270105,-0.057,-0.051,1.052,0.910,-2.660,-0.700
191.278931,-0.054,-0.052,1.054,1.330,-2.660,-0.840
191.287907,-0.056,-0.048,1.050,0.910,-2.660,-0.840
191.291933,-0.056,-0.053,1.051,0.980,-2.520,-0.840
191.300904,-0.057,-0.049,1.052,0.840,-2.450,-0.840
191.312254,-0.055,-0.050,1.049,0.770,-2.380,-0.840
191.319244,-0.058,-0.047,1.051,0.280,-2.450,-0.700
191.328246,-0.054,-0.049,1.050,1.190,-2.310,-0.700
191.335328,-0.055,-0.048,1.051,1.330,-2.380,-0.770
191.343346,-0.055,-0.048,1.051,0.490,-2.450,-0.840
191.350764,-0.058,-0.051,1.055,1.260,-2.240,-0.910
191.357734,-0.054,-0.048,1.053,0.980,-2.240,-0.770
191.361629,-0.056,-0.048,1.051,0.560,-2.240,-0.700
191.370541,-0.056,-0.051,1.052,0.980,-2.100,-0.700
191.37951,-0.057,-0.049,1.053,0.560,-2.170,-0.770
191.390923,-0.055,-0.051,1.055,0.980,-2.240,-0.770
191.397979,-0.056,-0.049,1.054,1.190,-2.310,-0.840
191.406905,-0.054,-0.047,1.054,1.470,-2.520,-0.700
191.415908,-0.056,-0.051,1.054,1.680,-2.590,-0.770
191.424932,-0.056,-0.047,1.052,0.490,-2.660,-0.700
191.436241,-0.055,-0.050,1.053,1.470,-2.730,-0.840
191.445226,-0.058,-0.050,1.053,0.700,-2.870,-0.840
191.449124,-0.057,-0.051,1.051,1.330,-2.730,-0.770
191.457912,-0.059,-0.048,1.052,0.840,-3.010,-0.770
191.466903,-0.055,-0.052,1.052,1.400,-2.800,-0.700
191.478145,-0.055,-0.051,1.047,1.680,-2.590,-0.770
191.485053,-0.057,-0.050,1.051,0.910,-2.590,-0.770
191.493923,-0.057,-0.049,1.054,0.980,-2.940,-0.980
191.5029,-0.052,-0.049,1.052,0.700,-2.940,-0.910
191.506825,-0.056,-0.050,1.051,1.190,-1.960,-0.840
191.52328,-0.058,-0.047,1.050,0.560,-2.800,-0.770
191.527247,-0.056,-0.051,1.048,1.540,-2.310,-0.840
191.53616,-0.057,-0.046,1.057,0.490,-2.450,-0.770
191.544051,-0.053,-0.050,1.057,1.120,-2.100,-0.770
191.549017,-0.056,-0.047,1.051,1.330,-2.380,-0.840
191.556342,-0.056,-0.046,1.054,0.350,-2.310,-0.910
191.561317,-0.055,-0.051,1.051,0.490,-2.100,-0.840
191.570254,-0.057,-0.051,1.050,1.260,-2.170,-0.770
191.574231,-0.056,-0.047,1.051,0.700,-2.450,-0.770
191.583157,-0.054,-0.050,1.053,1.120,-2.240,-0.770
191.594559,-0.057,-0.048,1.049,0.490,-2.380,-0.770
191.60354,-0.055,-0.052,1.053,1.050,-2.380,-0.770
191.61251,-0.057,-0.049,1.053,0.770,-2.590,-0.840
191.621355,-0.058,-0.052,1.053,0.700,-2.520,-0.770
191.630271,-0.058,-0.050,1.051,1.050,-2.590,-0.770
191.637777,-0.055,-0.049,1.053,0.770,-2.520,-0.840
191.644751,-0.054,-0.048,1.054,0.910,-2.520,-0.770
191.648656,-0.056,-0.049,1.049,0.840,-2.520,-0.840
191.657547,-0.055,-0.051,1.054,0.840,-2.590,-0.840
191.664575,-0.055,-0.052,1.052,1.050,-2.450,-0.770
191.675972,-0.054,-0.049,1.052,1.050,-2.590,-0.700
191.68492,-0.054,-0.048,1.054,0.910,-2.450,-0.700
191.691918,-0.056,-0.049,1.054,0.980,-2.520,-0.770
191.700899,-0.054,-0.052,1.051,1.190,-2.310,-0.770
191.70798,-0.056,-0.048,1.051,0.910,-2.380,-0.770
191.715473,-0.057,-0.049,1.052,0.980,-2.380,-0.700
191.724268,-0.056,-0.048,1.051,0.770,-2.380,-0.840
191.728316,-0.058,-0.049,1.052,0.840,-2.310,-0.980
191.73531,-0.058,-0.051,1.051,0.840,-2.380,-0.910
191.744225,-0.054,-0.048,1.051,0.840,-2.310,-0.980
191.755578,-0.056,-0.050,1.050,0.840,-2.310,-0.910
191.762568,-0.057,-0.050,1.053,0.840,-2.310,-0.770
191.771593,-0.056,-0.049,1.052,0.980,-2.520,-0.840
191.779787,-0.056,-0.048,1.052,1.050,-2.380,-0.840
191.783734,-0.057,-0.048,1.052,0.910,-2.520,-0.840
191.798234,-0.056,-0.049,1.052,0.980,-2.450,-0.840
191.805352,-0.056,-0.049,1.051,1.050,-2.380,-0.840
191.809262,-0.056,-0.050,1.052,1.190,-2.520,-0.770
191.818229,-0.059,-0.050,1.051,0.770,-2.520,-0.840
191.827188,-0.054,-0.049,1.051,0.980,-2.520,-0.700
191.837934,-0.057,-0.047,1.054,0.910,-2.520,-0.700
191.846906,-0.055,-0.051,1.049,0.910,-2.450,-0.840
191.855829,-0.056,-0.053,1.051,0.840,-2.520,-0.840
191.864661,-0.056,-0.049,1.053,0.910,-2.450,-0.840
191.868579,-0.057,-0.049,1.053,1.050,-2.450,-0.700
191.884918,-0.057,-0.050,1.052,0.700,-2.310,-0.770
191.893904,-0.056,-0.049,1.052,0.700,-2.380,-0.840
191.897898,-0.057,-0.050,1.053,0.980,-2.170,-0.700
191.906916,-0.056,-0.051,1.049,0.910,-2.590,-0.770
191.915824,-0.055,-0.050,1.053,1.050,-2.310,-0.840
191.926304,-0.058,-0.049,1.050,0.770,-2.380,-0.770
191.935299,-0.057,-0.048,1.053,0.980,-2.310,-0.840
191.942281,-0.056,-0.049,1.052,0.980,-2.450,-0.840
191.951025,-0.056,-0.050,1.052,0.840,-2.520,-0.770
191.954934,-0.056,-0.050,1.049,0.910,-2.380,-0.840
191.967548,-0.056,-0.046,1.055,0.770,-2.590,-0.770
191.971538,-0.056,-0.049,1.049,0.910,-2.310,-0.770
191.980623,-0.060,-0.048,1.050,0.980,-2.590,-0.770
191.989493,-0.057,-0.047,1.053,0.910,-2.450,-0.700
191.998298,-0.055,-0.049,1.051,1.120,-2.660,-0.770
192.009512,-0.054,-0.050,1.050,0.840,-2.310,-0.770
192.016666,-0.057,-0.052,1.052,1.120,-2.660,-0.770
192.025645,-0.057,-0.051,1.053,0.840,-2.520,-0.770
192.029561,-0.056,-0.051,1.050,0.980,-2.450,-0.700
192.038469,-0.057,-0.046,1.053,0.770,-2.520,-0.770
192.052006,-0.054,-0.052,1.052,0.910,-2.310,-0.630
192.055964,-0.056,-0.048,1.050,1.050,-2.450,-0.910
192.06489,-0.054,-0.050,1.052,0.840,-2.450,-0.770
192.073868,-0.057,-0.050,1.050,1.120,-2.590,-0.840
192.082647,-0.058,-0.049,1.051,0.980,-2.660,-0.700
192.093943,-0.055,-0.050,1.053,0.910,-2.590,-0.840
192.102915,-0.056,-0.048,1.051,0.980,-2.660,-0.770
192.106831,-0.054,-0.050,1.053,1.050,-2.520,-0.560
192.114932,-0.057,-0.049,1.051,0.910,-2.660,-0.910
192.123896,-0.055,-0.049,1.052,0.980,-2.450,-0.840
192.135311,-0.056,-0.049,1.051,0.980,-2.520,-0.840
192.142236,-0.056,-0.050,1.051,0.980,-2.590,-0.840
192.151224,-0.059,-0.047,1.052,0.770,-2.450,-0.770
192.16016,-0.056,-0.050,1.054,0.770,-2.520,-0.840
192.169009,-0.057,-0.050,1.053,0.910,-2.380,-0.770
192.178552,-0.057,-0.047,1.050,0.980,-2.450,-0.840
192.187544,-0.056,-0.051,1.055,1.050,-2.520,-0.700
192.191588,-0.056,-0.050,1.053,1.050,-2.520,-0.700
192.200542,-0.058,-0.049,1.050,0.980,-2.590,-0.770
192.209489,-0.058,-0.048,1.052,0.980,-2.450,-0.700
192.220908,-0.057,-0.049,1.053,0.770,-2.520,-0.770
192.229896,-0.057,-0.048,1.051,0.840,-2.450,-0.700
192.236937,-0.058,-0.050,1.050,0.980,-2.520,-0.840
192.244968,-0.056,-0.047,1.052,0.910,-2.450,-0.770
192.25218,-0.057,-0.050,1.051,0.910,-2.380,-0.770
192.259446,-0.055,-0.051,1.050,0.910,-2.450,-0.700
192.268272,-0.054,-0.049,1.054,0.840,-2.450,-0.910
192.272226,-0.055,-0.051,1.053,0.980,-2.520,-0.840
192.281273,-0.055,-0.053,1.052,0.980,-2.520,-0.770
192.288303,-0.057,-0.048,1.052,0.910,-2.520,-0.770
192.299559,-0.056,-0.049,1.052,0.910,-2.520,-0.770
192.307727,-0.057,-0.049,1.052,0.840,-2.590,-0.700
192.316556,-0.055,-0.050,1.049,0.910,-2.520,-0.770
192.325585,-0.055,-0.052,1.050,0.910,-2.520,-0.770
192.329538,-0.055,-0.048,1.054,1.050,-2.520,-0.770
192.342815,-0.055,-0.051,1.051,0.630,-2.660,-0.840
192.346784,-0.054,-0.054,1.051,1.050,-2.240,-0.770
192.355717,-0.059,-0.045,1.052,0.700,-2.310,-0.770
192.363896,-0.061,-0.046,1.057,0.140,-2.520,-0.770
192.371957,-0.057,-0.054,1.052,1.610,-2.170,-0.630
192.379384,-0.061,-0.047,1.051,0.210,-3.150,-0.700
192.388275,-0.054,-0.051,1.057,1.330,-1.960,-0.700
192.395282,-0.052,-0.049,1.056,1.330,-2.520,-0.770
192.404022,-0.055,-0.050,1.047,0.490,-2.800,-0.910
192.407939,-0.057,-0.052,1.052,1.330,-2.170,-0.840
192.424269,-0.058,-0.047,1.051,0.700,-2.590,-0.700
192.428216,-0.060,-0.046,1.052,1.190,-2.380,-0.700
192.437151,-0.059,-0.049,1.047,0.490,-2.590,-0.700
192.444035,-0.056,-0.052,1.048,1.400,-2.240,-0.770
192.449005,-0.056,-0.049,1.051,1.190,-2.380,-0.700
192.456331,-0.057,-0.047,1.053,0.140,-2.450,-0.770
192.46431,-0.056,-0.053,1.053,0.700,-2.450,-0.770
192.473243,-0.056,-0.049,1.053,1.330,-2.590,-0.770
192.477238,-0.055,-0.050,1.051,0.420,-2.590,-0.700
192.486136,-0.054,-0.048,1.056,1.400,-2.520,-0.700
192.497558,-0.055,-0.050,1.050,0.630,-2.380,-0.910
192.506594,-0.057,-0.052,1.053,1.260,-2.450,-0.840
192.513721,-0.055,-0.047,1.055,0.630,-2.450,-0.770
192.521668,-0.057,-0.050,1.050,1.120,-2.450,-0.840
192.530564,-0.058,-0.046,1.050,1.120,-2.450,-0.840
192.541064,-0.054,-0.052,1.051,1.260,-2.520,-0.770
192.549939,-0.057,-0.049,1.050,1.050,-2.590,-0.770
192.558143,-0.055,-0.050,1.053,0.560,-2.240,-0.770
192.562089,-0.058,-0.051,1.050,1.120,-2.590,-0.840
192.567939,-0.056,-0.049,1.053,0.770,-2.590,-0.840
192.575364,-0.054,-0.051,1.052,1.050,-2.310,-0.770
192.584291,-0.058,-0.051,1.051,0.910,-2.590,-0.910
192.591279,-0.056,-0.050,1.050,0.770,-2.450,-0.840
192.596311,-0.056,-0.050,1.051,1.050,-2.520,-0.700
192.605241,-0.054,-0.049,1.051,0.980,-2.520,-0.770
192.616554,-0.053,-0.049,1.054,0.980,-2.520,-0.840
192.62459,-0.055,-0.049,1.053,1.050,-2.450,-0.770
192.628571,-0.057,-0.046,1.054,0.910,-2.520,-0.770
192.637463,-0.056,-0.047,1.049,0.980,-2.380,-0.840
192.645546,-0.057,-0.048,1.051,0.840,-2.520,-0.770
192.65301,-0.057,-0.051,1.052,0.840,-2.450,-0.910
192.661902,-0.056,-0.049,1.050,0.980,-2.520,-0.630
192.670831,-0.056,-0.048,1.051,0.840,-2.520,-0.770
192.677894,-0.058,-0.050,1.052,0.910,-2.450,-0.840
192.686898,-0.057,-0.051,1.053,0.770,-2.380,-0.840
192.698193,-0.056,-0.049,1.055,0.840,-2.380,-0.840
192.705104,-0.057,-0.050,1.052,0.910,-2.450,-0.840
192.70901,-0.057,-0.049,1.052,0.980,-2.520,-0.910
192.717908,-0.056,-0.050,1.052,0.910,-2.520,-0.770
192.726061,-0.055,-0.049,1.048,1.050,-2.520,-0.840
192.733429,-0.057,-0.050,1.052,0.910,-2.590,-0.770
192.742232,-0.057,-0.050,1.052,1.050,-2.450,-0.770
192.751162,-0.057,-0.049,1.053,0.910,-2.520,-0.770
192.759091,-0.057,-0.048,1.050,0.840,-2.590,-0.770
192.763024,-0.056,-0.050,1.053,0.910,-2.590,-0.840
192.775606,-0.054,-0.048,1.051,0.840,-2.520,-0.770
192.779548,-0.055,-0.051,1.053,0.980,-2.450,-0.700
192.788463,-0.057,-0.048,1.054,0.910,-2.450,-0.840
192.797226,-0.057,-0.051,1.047,0.980,-2.520,-0.770
192.806232,-0.057,-0.048,1.051,0.910,-2.520,-0.840
192.813802,-0.058,-0.048,1.053,0.840,-2.380,-0.770
192.821956,-0.057,-0.051,1.052,0.910,-2.380,-0.700
192.830917,-0.055,-0.047,1.053,0.840,-2.520,-0.910
192.839893,-0.055,-0.051,1.050,0.840,-2.450,-0.700
192.843885,-0.054,-0.051,1.051,0.980,-2.380,-0.840
192.858259,-0.059,-0.051,1.052,0.910,-2.660,-0.770
192.862219,-0.055,-0.051,1.052,0.840,-2.380,-0.840
192.870442,-0.056,-0.049,1.052,0.840,-2.590,-0.840
192.879229,-0.056,-0.050,1.053,0.840,-2.380,-0.840
192.886275,-0.057,-0.050,1.049,0.980,-2.380,-0.770
192.893612,-0.061,-0.048,1.050,0.700,-2.520,-0.770
192.902532,-0.056,-0.051,1.051,0.840,-2.450,-0.910
192.909584,-0.058,-0.050,1.051,1.050,-2.520,-0.840
192.913558,-0.055,-0.049,1.051,0.910,-2.450,-0.840
192.922503,-0.055,-0.052,1.052,0.980,-2.520,-0.840
192.938889,-0.054,-0.050,1.050,0.770,-2.450,-0.840
192.942909,-0.058,-0.049,1.052,1.120,-2.590,-0.840
192.950065,-0.056,-0.049,1.052,0.840,-2.450,-0.770
192.957042,-0.056,-0.049,1.053,0.910,-2.380,-0.840
192.965928,-0.056,-0.051,1.050,0.980,-2.450,-0.840
192.97722,-0.057,-0.048,1.052,0.840,-2.380,-0.770
192.985325,-0.055,-0.052,1.053,0.910,-2.450,-0.770
192.994253,-0.056,-0.050,1.050,0.840,-2.520,-0.840
192.998184,-0.056,-0.048,1.049,1.050,-2.590,-0.840
193.005237,-0.057,-0.045,1.052,0.980,-2.520,-0.840
193.012641,-0.057,-0.051,1.050,0.840,-2.450,-0.840
193.021532,-0.058,-0.051,1.052,0.840,-2.310,-0.840
193.030498,-0.058,-0.051,1.053,0.910,-2.520,-0.770
193.039305,-0.057,-0.049,1.053,0.770,-2.520,-0.700
193.04824,-0.057,-0.051,1.051,0.980,-2.450,-0.910
193.059545,-0.056,-0.049,1.053,0.840,-2.450,-0.770
193.067638,-0.056,-0.049,1.052,0.840,-2.380,-0.770
193.071547,-0.057,-0.051,1.051,0.910,-2.590,-0.770
193.08053,-0.055,-0.051,1.050,0.910,-2.380,-0.770
193.089488,-0.055,-0.051,1.050,0.910,-2.660,-0.770
193.101017,-0.054,-0.049,1.051,0.910,-2.450,-0.840
193.109903,-0.057,-0.050,1.050,0.910,-2.450,-0.700
193.118819,-0.056,-0.048,1.051,0.840,-2.380,-0.840
193.126895,-0.053,-0.050,1.054,0.770,-2.520,-0.770
193.135898,-0.058,-0.051,1.052,1.120,-2.520,-0.840
193.143355,-0.055,-0.051,1.051,0.700,-2.380,-0.840
193.152261,-0.056,-0.050,1.049,0.770,-2.310,-0.770
193.156222,-0.056,-0.048,1.050,0.770,-2.380,-0.840
193.164232,-0.055,-0.050,1.049,0.630,-2.310,-0.770
193.171277,-0.060,-0.049,1.051,0.700,-2.310,-0.840
193.178622,-0.058,-0.048,1.051,0.630,-2.520,-0.840
193.184779,-0.057,-0.050,1.051,0.700,-2.380,-0.700
193.191645,-0.057,-0.049,1.056,0.910,-2.450,-0.840
193.200539,-0.057,-0.048,1.056,0.910,-2.590,-0.770
193.204531,-0.056,-0.052,1.052,1.050,-2.520,-0.700
193.219278,-0.056,-0.051,1.054,0.560,-2.520,-0.910
193.228228,-0.056,-0.048,1.053,0.280,-2.870,-0.700
193.232183,-0.055,-0.056,1.051,1.610,-2.660,-0.910
193.240217,-0.057,-0.050,1.052,1.050,-2.730,-0.910
193.249182,-0.058,-0.050,1.052,1.470,-2.870,-0.910
193.259727,-0.058,-0.050,1.050,0.910,-2.660,-0.910
193.267672,-0.056,-0.050,1.047,1.820,-2.870,-0.980
193.276565,-0.059,-0.049,1.053,0.350,-2.520,-0.980
193.285556,-0.055,-0.052,1.051,1.330,-2.450,-0.770
193.2895,-0.057,-0.044,1.049,1.330,-2.030,-0.770
193.30374,-0.059,-0.055,1.052,0.490,-2.520,-0.840
193.30764,-0.056,-0.052,1.053,1.470,-2.450,-0.770
193.316581,-0.054,-0.048,1.051,0.560,-2.660,-0.840
193.32457,-0.053,-0.050,1.054,1.190,-2.310,-0.770
193.333281,-0.053,-0.049,1.052,1.190,-2.450,-0.840
193.344573,-0.056,-0.051,1.051,0.840,-2.170,-0.840
193.352655,-0.055,-0.049,1.051,0.770,-2.450,-0.910
193.360668,-0.056,-0.049,1.049,0.910,-2.450,-0.770
193.36457,-0.057,-0.048,1.050,0.980,-2.240,-0.770
193.372587,-0.059,-0.049,1.048,0.700,-2.590,-0.630
193.381072,-0.056,-0.051,1.052,1.050,-2.450,-0.700
193.384968,-0.055,-0.047,1.052,0.910,-2.240,-0.770
193.391958,-0.057,-0.048,1.049,0.840,-2.730,-0.840
193.400857,-0.055,-0.051,1.050,1.120,-2.520,-0.770
193.406799,-0.056,-0.051,1.053,1.260,-2.590,-0.770
193.418228,-0.056,-0.048,1.051,0.840,-2.590,-0.700
193.42347,-0.058,-0.049,1.053,0.980,-2.590,-0.770
193.430337,-0.055,-0.051,1.051,0.910,-2.660,-0.770
193.434249,-0.056,-0.049,1.052,0.910,-2.590,-0.840
193.44136,-0.056,-0.047,1.047,0.980,-2.520,-0.770
193.451945,-0.056,-0.049,1.051,0.910,-2.660,-0.840
193.455902,-0.053,-0.051,1.052,0.910,-2.590,-0.840
193.463924,-0.056,-0.048,1.052,0.910,-2.450,-0.700
193.472819,-0.058,-0.050,1.051,0.770,-2.590,-0.770
193.481656,-0.052,-0.050,1.051,0.980,-2.030,-0.840
193.49295,-0.061,-0.048,1.047,0.490,-2.660,-0.840
193.498994,-0.056,-0.054,1.054,1.120,-2.100,-0.770
193.507909,-0.056,-0.050,1.053,0.840,-2.100,-0.770
193.5119,-0.057,-0.052,1.049,0.980,-2.730,-0.840
193.520888,-0.054,-0.048,1.056,1.190,-2.170,-0.770
193.532239,-0.056,-0.049,1.049,0.840,-2.380,-0.700
193.541234,-0.054,-0.049,1.055,0.980,-2.310,-0.700
193.549398,-0.061,-0.049,1.049,0.770,-2.660,-0.770
193.5564,-0.056,-0.051,1.047,0.910,-2.380,-0.840
193.565257,-0.056,-0.049,1.047,0.980,-2.310,-0.770
193.576538,-0.054,-0.049,1.053,1.120,-2.380,-0.770
193.583599,-0.054,-0.050,1.052,1.050,-2.310,-0.700
193.587583,-0.056,-0.051,1.049,0.770,-2.590,-0.770
193.596528,-0.057,-0.049,1.053,1.050,-2.380,-0.840
193.60553,-0.058,-0.048,1.051,0.700,-2.450,-0.770
193.616942,-0.055,-0.048,1.051,1.050,-2.450,-0.630
193.624935,-0.058,-0.047,1.053,0.840,-2.520,-0.770
193.633858,-0.055,-0.050,1.051,0.910,-2.450,-0.770
193.640737,-0.056,-0.050,1.050,0.980,-2.380,-0.840
193.644643,-0.057,-0.049,1.053,0.840,-2.590,-0.770
193.658178,-0.054,-0.050,1.052,0.980,-2.590,-0.840
193.6653,-0.055,-0.049,1.054,0.840,-2.380,-0.840
193.669222,-0.057,-0.052,1.051,0.910,-2.380,-0.700
193.678203,-0.056,-0.049,1.053,0.980,-2.450,-0.700
193.686064,-0.054,-0.048,1.052,0.700,-2.450,-0.770
193.693567,-0.056,-0.050,1.051,1.050,-2.380,-0.770
193.702491,-0.057,-0.049,1.053,0.700,-2.520,-0.770
193.710541,-0.054,-0.050,1.053,0.910,-2.520,-0.700
193.719533,-0.056,-0.050,1.050,0.980,-2.380,-0.700
193.723531,-0.055,-0.046,1.051,0.840,-2.380,-0.840
193.736968,-0.056,-0.051,1.052,0.910,-2.450,-0.770
193.743989,-0.056,-0.051,1.053,0.840,-2.380,-0.770
193.747904,-0.059,-0.049,1.050,0.980,-2.450,-0.770
193.756881,-0.059,-0.049,1.052,0.980,-2.450,-0.840
193.765821,-0.057,-0.050,1.053,0.910,-2.450,-0.840
193.777141,-0.058,-0.049,1.052,0.910,-2.450,-0.770
193.785946,-0.055,-0.048,1.053,0.910,-2.310,-0.910
193.794888,-0.058,-0.051,1.052,1.050,-2.450,-0.770
193.80313,-0.057,-0.050,1.051,0.770,-2.310,-0.840
193.807105,-0.058,-0.049,1.052,0.980,-2.380,-0.770
193.818747,-0.060,-0.050,1.051,0.700,-2.520,-0.700
193.822651,-0.055,-0.050,1.051,0.770,-2.380,-0.770
193.83152,-0.057,-0.050,1.052,0.840,-2.240,-0.770
193.838538,-0.054,-0.050,1.051,0.770,-2.310,-0.840
193.847532,-0.057,-0.049,1.052,0.630,-2.240,-0.840
193.858916,-0.058,-0.050,1.051,1.050,-2.380,-0.700
193.865916,-0.057,-0.050,1.053,0.840,-2.520,-0.700
193.874655,-0.053,-0.050,1.054,0.630,-2.450,-0.910
193.878572,-0.057,-0.047,1.053,0.280,-2.660,-0.770
193.88754,-0.054,-0.052,1.051,1.400,-2.380,-0.840
193.901977,-0.056,-0.047,1.052,0.700,-2.660,-0.840
193.905937,-0.059,-0.054,1.053,1.260,-2.590,-0.700
193.914883,-0.055,-0.048,1.053,0.840,-2.660,-0.840
193.923886,-0.058,-0.051,1.049,1.120,-2.870,-0.840
193.930987,-0.054,-0.051,1.056,1.260,-2.800,-0.910
193.938376,-0.055,-0.050,1.050,1.120,-2.870,-0.770
193.947289,-0.057,-0.050,1.050,1.190,-2.800,-0.770
193.956219,-0.054,-0.051,1.050,1.050,-2.660,-0.910
193.960168,-0.054,-0.052,1.050,1.120,-2.800,-0.770
193.966222,-0.056,-0.049,1.054,0.840,-2.590,-0.770
193.973611,-0.055,-0.051,1.050,0.630,-2.380,-0.770
193.982521,-0.060,-0.050,1.049,1.120,-2.450,-0.910
193.989539,-0.056,-0.048,1.052,0.490,-2.170,-0.910
193.99483,-0.053,-0.050,1.052,0.980,-1.960,-0.910
194.003652,-0.061,-0.048,1.053,0.980,-2.240,-0.840
194.011241,-0.054,-0.050,1.052,0.910,-2.170,-0.840
194.020179,-0.055,-0.051,1.051,1.400,-2.590,-0.840
194.029221,-0.054,-0.044,1.053,0.840,-2.590,-0.770
194.033171,-0.057,-0.049,1.052,1.120,-2.030,-0.840
194.041426,-0.060,-0.045,1.049,0.840,-2.450,-0.630
194.053032,-0.058,-0.051,1.052,1.050,-2.310,-0.910
194.056936,-0.056,-0.047,1.051,1.050,-2.240,-0.840
194.063927,-0.058,-0.048,1.049,0.560,-2.590,-0.840
194.072822,-0.055,-0.051,1.051,1.260,-2.380,-0.700
194.081655,-0.056,-0.048,1.054,0.910,-2.450,-0.700
194.089228,-0.056,-0.050,1.053,1.190,-2.520,-0.840
194.098229,-0.057,-0.051,1.052,0.910,-2.660,-0.700
194.107012,-0.056,-0.051,1.052,0.840,-2.800,-0.770
194.11098,-0.056,-0.052,1.049,1.050,-2.520,-0.770
194.119879,-0.054,-0.049,1.050,0.700,-2.660,-0.770
194.131252,-0.059,-0.051,1.050,0.910,-2.520,-0.770
194.138222,-0.057,-0.052,1.050,0.840,-2.450,-0.770
194.147211,-0.057,-0.052,1.051,1.050,-2.380,-0.700
194.156247,-0.056,-0.049,1.052,0.910,-2.380,-0.770
194.163295,-0.052,-0.050,1.052,0.770,-2.380,-0.700
194.170697,-0.057,-0.050,1.053,0.980,-2.380,-0.700
194.179646,-0.056,-0.049,1.052,0.840,-2.380,-0.700
194.183555,-0.055,-0.050,1.051,0.840,-2.310,-0.770
194.190725,-0.055,-0.051,1.053,1.050,-2.380,-0.910
194.19958,-0.056,-0.048,1.051,0.840,-2.310,-0.840
194.210939,-0.056,-0.051,1.054,1.120,-2.310,-0.910
194.219912,-0.055,-0.049,1.051,0.980,-2.310,-0.840
194.228855,-0.059,-0.049,1.051,0.910,-2.450,-0.770
194.235896,-0.057,-0.050,1.052,0.910,-2.380,-0.840
194.239815,-0.055,-0.049,1.051,0.980,-2.380,-0.630
194.252328,-0.056,-0.048,1.053,0.910,-2.380,-0.840
194.260358,-0.056,-0.048,1.053,0.980,-2.520,-0.770
194.264281,-0.057,-0.050,1.050,0.840,-2.520,-0.770
194.273139,-0.055,-0.051,1.051,0.910,-2.450,-0.770
194.281944,-0.055,-0.049,1.052,0.910,-2.520,-0.630
194.293273,-0.055,-0.050,1.054,0.840,-2.660,-0.840
194.302221,-0.057,-0.050,1.052,1.050,-2.590,-0.700
194.311215,-0.057,-0.049,1.051,0.910,-2.520,-0.770
194.320219,-0.054,-0.050,1.054,0.840,-2.520,-0.770
194.32421,-0.056,-0.051,1.050,1.120,-2.380,-0.700
194.337661,-0.057,-0.050,1.050,0.910,-2.310,-0.840
194.341582,-0.057,-0.048,1.051,0.910,-2.380,-0.910
194.350559,-0.058,-0.049,1.052,0.910,-2.380,-0.700
194.359522,-0.056,-0.052,1.049,1.190,-2.310,-0.770
194.368524,-0.058,-0.049,1.045,0.210,-2.380,-0.700
194.379876,-0.058,-0.057,1.056,1.400,-2.310,-0.700
194.386942,-0.058,-0.051,1.052,1.120,-2.450,-0.840
194.395897,-0.054,-0.048,1.048,0.560,-2.380,-0.840
194.399811,-0.055,-0.052,1.056,1.120,-2.240,-0.700
194.407977,-0.059,-0.048,1.051,1.050,-2.520,-0.840
194.424259,-0.055,-0.049,1.051,1.050,-2.380,-0.770
194.428226,-0.058,-0.048,1.054,0.490,-2.520,-0.840
194.435339,-0.056,-0.052,1.054,1.050,-2.450,-0.840
194.444221,-0.056,-0.049,1.049,0.770,-2.730,-0.910
194.453208,-0.059,-0.050,1.051,0.560,-2.660,-0.770
194.464562,-0.058,-0.052,1.052,0.980,-2.590,-0.770
194.473539,-0.056,-0.049,1.050,0.770,-2.520,-0.770
194.48249,-0.061,-0.052,1.050,1.050,-2.450,-0.840
194.486491,-0.056,-0.049,1.052,0.770,-2.450,-0.770
194.495447,-0.056,-0.050,1.051,1.120,-2.450,-0.770
194.509978,-0.057,-0.050,1.050,0.910,-2.380,-0.770
194.513884,-0.055,-0.050,1.049,1.120,-2.380,-0.770
194.522878,-0.055,-0.048,1.050,0.910,-2.450,-0.840
194.531887,-0.057,-0.049,1.054,0.910,-2.520,-0.700
194.538935,-0.058,-0.050,1.053,1.050,-2.450,-0.980
194.546324,-0.057,-0.051,1.052,0.840,-2.450,-0.910
194.551267,-0.054,-0.049,1.053,1.050,-2.450,-0.840
194.560221,-0.056,-0.049,1.053,0.910,-2.380,-0.840
194.564212,-0.056,-0.050,1.050,0.910,-2.450,-0.910
194.573125,-0.058,-0.047,1.052,0.980,-2.450,-0.840
194.584414,-0.057,-0.052,1.052,0.840,-2.520,-0.840
194.591328,-0.055,-0.048,1.050,0.840,-2.590,-0.980
194.596423,-0.057,-0.049,1.049,0.840,-2.450,-0.770
194.605344,-0.058,-0.051,1.052,0.700,-2.520,-0.840
194.614259,-0.058,-0.050,1.051,1.120,-2.450,-0.840
194.625555,-0.054,-0.050,1.054,1.120,-2.520,-0.770
194.634469,-0.058,-0.048,1.053,1.050,-2.450,-0.770
194.638401,-0.056,-0.049,1.052,0.840,-2.520,-0.770
194.647222,-0.056,-0.051,1.053,0.980,-2.520,-0.840
194.654283,-0.055,-0.050,1.053,0.980,-2.520,-0.910
194.661609,-0.058,-0.050,1.050,0.980,-2.380,-0.840
194.669596,-0.056,-0.050,1.050,0.910,-2.520,-0.770
194.67852,-0.056,-0.050,1.049,0.980,-2.450,-0.840
194.687525,-0.057,-0.050,1.053,0.980,-2.380,-0.770
194.691518,-0.056,-0.050,1.049,0.980,-2.310,-0.770
194.707888,-0.055,-0.048,1.054,0.770,-2.520,-0.770
194.716884,-0.057,-0.049,1.054,0.840,-2.380,-0.770
194.720876,-0.056,-0.048,1.052,0.910,-2.380,-0.840
194.729877,-0.057,-0.050,1.052,0.770,-2.450,-0.840
194.736907,-0.055,-0.053,1.051,0.910,-2.520,-0.840
194.747318,-0.055,-0.050,1.052,0.840,-2.450,-0.840
194.756252,-0.055,-0.049,1.053,0.910,-2.450,-0.770
194.765167,-0.055,-0.051,1.051,0.980,-2.450,-0.770
194.773081,-0.058,-0.049,1.052,0.980,-2.450,-0.840
194.776987,-0.057,-0.051,1.049,0.910,-2.450,-0.840
194.789242,-0.054,-0.049,1.051,0.910,-2.520,-0.770
194.793203,-0.056,-0.048,1.051,1.050,-2.450,-0.700
194.802154,-0.056,-0.048,1.052,0.910,-2.380,-0.700
194.810175,-0.057,-0.050,1.052,0.980,-2.450,-0.700
194.818243,-0.053,-0.049,1.053,0.910,-2.450,-0.770
194.825604,-0.055,-0.051,1.051,0.910,-2.380,-0.770
194.83363,-0.055,-0.050,1.053,0.910,-2.450,-0.840
194.842527,-0.058,-0.047,1.053,0.840,-2.380,-0.840
194.846517,-0.057,-0.050,1.050,0.980,-2.450,-0.770
194.855519,-0.055,-0.050,1.052,0.910,-2.380,-0.840
194.871859,-0.057,-0.049,1.052,0.910,-2.310,-0.840
194.875868,-0.055,-0.048,1.049,0.770,-2.450,-0.700
194.884876,-0.058,-0.049,1.055,0.980,-2.450,-0.700
194.891973,-0.058,-0.047,1.053,0.910,-2.450,-0.840
194.900888,-0.056,-0.048,1.053,0.840,-2.590,-0.770
194.912163,-0.056,-0.052,1.051,0.910,-2.520,-0.770
194.921169,-0.058,-0.049,1.053,0.980,-2.590,-0.770
194.92924,-0.057,-0.049,1.053,0.840,-2.520,-0.770
194.933196,-0.059,-0.051,1.054,0.910,-2.520,-0.840
194.94216,-0.056,-0.049,1.049,0.910,-2.520,-0.770
194.953575,-0.056,-0.050,1.052,0.910,-2.380,-0.770
194.961566,-0.056,-0.050,1.052,0.910,-2.450,-0.840
194.97049,-0.054,-0.051,1.052,1.050,-2.310,-0.700
194.979295,-0.056,-0.048,1.053,0.840,-2.450,-0.840
194.986329,-0.057,-0.049,1.054,0.630,-2.520,-0.840
194.993691,-0.056,-0.049,1.049,1.050,-2.450,-0.630
195.002638,-0.057,-0.048,1.051,1.050,-2.590,-0.770
195.006531,-0.055,-0.049,1.051,0.840,-2.380,-0.770
195.015514,-0.056,-0.049,1.052,0.980,-2.520,-0.770
195.02255,-0.057,-0.049,1.054,0.770,-2.520,-0.840
195.033892,-0.059,-0.050,1.052,0.980,-2.380,-0.910
195.042865,-0.058,-0.050,1.052,0.770,-2.380,-0.840
195.051841,-0.056,-0.050,1.052,1.120,-2.380,-0.770
195.060653,-0.055,-0.048,1.050,0.910,-2.380,-0.770
195.06456,-0.056,-0.049,1.051,0.770,-2.310,-0.840
195.081174,-0.055,-0.048,1.054,0.910,-2.310,-0.840
195.09001,-0.055,-0.051,1.052,0.910,-2.240,-0.910
195.093927,-0.058,-0.049,1.050,0.840,-2.240,-0.770
195.102892,-0.056,-0.049,1.053,0.770,-2.450,-0.840
195.10989,-0.057,-0.049,1.052,0.910,-2.380,-0.840
195.11733,-0.058,-0.050,1.050,0.910,-2.590,-0.700
195.126223,-0.059,-0.050,1.056,1.470,-2.800,-0.840
195.134508,-0.056,-0.047,1.050,0.350,-2.520,-0.630
195.143489,-0.056,-0.053,1.053,1.610,-2.310,-0.770
195.147467,-0.058,-0.046,1.053,0.350,-2.450,-0.770
195.159913,-0.059,-0.053,1.051,1.190,-2.590,-0.840
195.168878,-0.056,-0.049,1.053,0.770,-2.730,-0.840
195.172839,-0.057,-0.054,1.051,1.120,-2.590,-0.910
195.181566,-0.057,-0.049,1.053,1.050,-2.800,-0.770
195.188572,-0.054,-0.049,1.055,0.910,-2.870,-0.840
195.200067,-0.057,-0.047,1.052,1.190,-2.660,-0.840
195.208949,-0.053,-0.049,1.051,0.910,-2.660,-0.770
195.216987,-0.055,-0.052,1.049,1.820,-2.590,-0.840
195.225883,-0.055,-0.047,1.053,0.700,-2.870,-1.050
195.229875,-0.047,-0.051,1.050,1.680,-1.820,-0.770
195.244348,-0.070,-0.048,1.051,-0.350,-2.870,-0.770
195.248253,-0.059,-0.058,1.049,1.120,-2.800,-0.770
195.25716,-0.053,-0.047,1.053,1.120,-2.310,-0.840
195.266166,-0.058,-0.044,1.055,0.560,-2.590,-0.770
195.275151,-0.053,-0.051,1.056,1.120,-1.960,-0.770
195.286515,-0.059,-0.047,1.053,0.980,-2.240,-0.700
195.295522,-0.054,-0.049,1.053,0.910,-2.380,-0.770
195.304523,-0.061,-0.047,1.054,0.630,-2.800,-0.840
195.308505,-0.053,-0.053,1.053,1.260,-2.170,-0.770
195.316522,-0.059,-0.047,1.054,0.910,-2.660,-0.840
195.32888,-0.054,-0.049,1.052,0.560,-2.450,-0.840
195.33287,-0.056,-0.048,1.048,0.980,-2.520,-0.770
195.339897,-0.059,-0.049,1.052,0.560,-2.660,-0.630
195.348839,-0.057,-0.052,1.051,1.260,-2.590,-0.840
195.357649,-0.058,-0.050,1.049,0.980,-3.010,-0.770
195.368911,-0.049,-0.049,1.050,0.840,-2.310,-0.700
195.375941,-0.063,-0.050,1.053,0.700,-3.010,-0.910
195.384875,-0.057,-0.052,1.056,0.630,-2.520,-0.840
195.38887,-0.058,-0.050,1.047,1.120,-2.450,-0.840
195.397873,-0.055,-0.049,1.053,0.840,-2.590,-0.770
195.408419,-0.060,-0.047,1.052,1.120,-2.660,-0.840
195.417276,-0.061,-0.051,1.048,0.700,-2.520,-0.700
195.426204,-0.056,-0.050,1.054,0.980,-2.310,-0.700
195.435173,-0.057,-0.049,1.051,0.840,-2.520,-0.630
195.442083,-0.055,-0.050,1.050,0.840,-2.310,-0.700
195.449474,-0.056,-0.048,1.053,0.840,-2.450,-0.840
195.458247,-0.054,-0.049,1.053,0.560,-2.310,-0.770
195.462219,-0.054,-0.050,1.050,1.050,-2.380,-0.770
195.470214,-0.054,-0.049,1.052,0.630,-2.520,-0.700
195.4792,-0.055,-0.049,1.054,1.190,-2.380,-0.770
195.490509,-0.054,-0.048,1.051,0.770,-2.450,-0.840
195.49875,-0.055,-0.051,1.051,0.910,-2.450,-0.840
195.505635,-0.057,-0.049,1.052,0.980,-2.450,-0.840
195.514517,-0.058,-0.047,1.052,0.770,-2.310,-0.770
195.518482,-0.059,-0.049,1.050,1.050,-2.520,-0.770
195.53216,-0.058,-0.049,1.053,0.490,-2.590,-0.700
195.540993,-0.055,-0.051,1.050,0.980,-2.520,-0.840
195.54491,-0.056,-0.049,1.052,1.050,-2.520,-0.770
195.553878,-0.055,-0.050,1.049,0.910,-2.520,-0.910
195.561885,-0.053,-0.052,1.052,1.050,-2.450,-0.840
195.573117,-0.054,-0.049,1.053,0.910,-2.590,-0.770
195.581975,-0.053,-0.049,1.052,1.120,-2.380,-0.840
195.590885,-0.058,-0.048,1.051,1.050,-2.450,-0.840
195.599852,-0.059,-0.051,1.050,0.910,-2.380,-0.770
195.603801,-0.058,-0.052,1.051,0.910,-2.310,-0.770
195.618343,-0.055,-0.053,1.053,0.840,-2.450,-0.700
195.622249,-0.058,-0.049,1.049,0.980,-2.380,-0.770
195.631129,-0.056,-0.049,1.053,0.840,-2.520,-0.770
195.638012,-0.057,-0.049,1.050,0.840,-2.310,-0.840
195.646906,-0.058,-0.049,1.052,0.980,-2.590,-0.770
195.658253,-0.057,-0.050,1.050,0.840,-2.380,-0.770
195.666252,-0.057,-0.051,1.049,1.050,-2.590,-0.980
195.674996,-0.056,-0.047,1.053,0.840,-2.520,-0.630
195.678913,-0.057,-0.049,1.050,0.910,-2.450,-0.700
195.687904,-0.059,-0.050,1.052,0.840,-2.590,-0.700
195.695315,-0.057,-0.053,1.051,0.840,-2.240,-0.700
195.704296,-0.058,-0.048,1.051,0.910,-2.310,-0.700
195.713223,-0.056,-0.048,1.050,0.630,-2.240,-0.700
195.722161,-0.054,-0.050,1.053,0.770,-2.170,-0.630
195.730996,-0.057,-0.049,1.052,0.630,-2.310,-0.770
195.742208,-0.056,-0.051,1.053,0.910,-2.590,-0.840
195.751196,-0.055,-0.048,1.053,2.380,-2.450,-0.980
195.755119,-0.056,-0.054,1.054,0.560,-2.730,-0.770
195.762203,-0.052,-0.048,1.053,1.750,-2.380,-0.770
195.771162,-0.056,-0.046,1.053,0.490,-2.870,-0.770
195.781626,-0.057,-0.051,1.053,1.470,-2.660,-0.840
195.788538,-0.057,-0.049,1.051,0.840,-3.010,-0.840
195.79753,-0.056,-0.050,1.052,1.260,-2.870,-0.840
195.806454,-0.055,-0.050,1.052,1.190,-2.730,-0.840
195.810348,-0.055,-0.051,1.051,1.050,-3.010,-0.770
195.822956,-0.055,-0.052,1.050,1.190,-2.660,-0.910
195.831866,-0.057,-0.051,1.046,1.330,-2.800,-0.770
195.835809,-0.055,-0.052,1.051,0.840,-2.520,-0.840
195.844792,-0.054,-0.050,1.051,0.840,-2.380,-0.770
195.853802,-0.059,-0.048,1.054,0.910,-2.380,-0.840
195.865105,-0.054,-0.047,1.054,0.420,-2.380,-0.840
195.870235,-0.055,-0.050,1.053,0.700,-2.520,-0.840
195.87917,-0.056,-0.052,1.053,1.330,-2.310,-0.840
195.88724,-0.055,-0.047,1.052,1.050,-2.310,-0.840
195.891196,-0.057,-0.048,1.052,0.910,-2.450,-0.910
195.903631,-0.055,-0.048,1.051,1.120,-2.170,-0.770
195.907525,-0.059,-0.047,1.051,0.910,-2.380,-0.700
195.915749,-0.057,-0.051,1.050,0.910,-2.240,-0.770
195.924573,-0.056,-0.047,1.051,0.840,-2.310,-0.700
195.93158,-0.057,-0.049,1.055,1.050,-2.450,-0.840
195.938972,-0.058,-0.049,1.052,0.840,-2.380,-0.770
195.947038,-0.058,-0.049,1.052,0.700,-2.590,-0.840
195.955898,-0.056,-0.050,1.055,0.910,-2.520,-0.700
195.964865,-0.058,-0.048,1.056,0.840,-2.520,-0.840
195.968805,-0.057,-0.048,1.051,0.770,-2.590,-0.770
195.983322,-0.058,-0.050,1.051,0.770,-2.590,-0.770
195.987302,-0.057,-0.052,1.048,0.980,-2.520,-0.700
195.996211,-0.057,-0.048,1.054,0.840,-2.520,-0.770
196.005198,-0.056,-0.049,1.050,0.910,-2.590,-0.770
196.012233,-0.056,-0.051,1.050,0.840,-2.520,-0.770
196.019626,-0.057,-0.050,1.050,0.980,-2.590,-0.840
196.028531,-0.059,-0.052,1.049,0.910,-2.450,-0.840
196.035604,-0.054,-0.049,1.052,0.910,-2.450,-0.910
196.039519,-0.055,-0.049,1.053,0.840,-2.520,-0.770
196.048475,-0.055,-0.050,1.049,1.120,-2.450,-0.910
196.060887,-0.054,-0.048,1.053,0.840,-2.380,-0.700
196.064836,-0.055,-0.049,1.049,0.910,-2.310,-0.840
196.073793,-0.056,-0.047,1.052,1.050,-2.240,-0.840
196.082547,-0.056,-0.047,1.055,0.770,-2.310,-0.840
196.091509,-0.054,-0.050,1.052,0.840,-2.310,-0.840
196.099207,-0.056,-0.045,1.047,0.980,-2.030,-0.700
196.108214,-0.060,-0.048,1.052,0.140,-2.450,-0.840
196.117201,-0.053,-0.053,1.055,1.540,-2.100,-0.700
196.121196,-0.056,-0.048,1.050,0.910,-2.800,-0.630
196.130118,-0.055,-0.051,1.051,0.770,-2.310,-0.840
196.141521,-0.055,-0.048,1.052,0.770,-2.590,-0.840
196.14853,-0.051,-0.049,1.052,0.980,-2.170,-0.630
196.157512,-0.056,-0.047,1.055,0.770,-2.520,-0.770
196.166518,-0.057,-0.049,1.052,0.910,-2.590,-0.910
196.175504,-0.056,-0.051,1.050,1.260,-2.450,-0.910
196.186867,-0.057,-0.047,1.051,1.120,-2.450,-0.700
196.195876,-0.054,-0.050,1.052,1.400,-2.520,-0.840
196.203103,-0.055,-0.050,1.052,0.490,-2.380,-0.700
196.207049,-0.053,-0.053,1.051,1.120,-2.380,-0.840
196.215841,-0.055,-0.048,1.050,1.050,-2.380,-0.770
196.227228,-0.060,-0.054,1.048,0.840,-2.590,-0.840
196.23522,-0.053,-0.050,1.053,1.050,-2.450,-0.700
196.244152,-0.054,-0.049,1.050,0.840,-2.450,-0.840
196.25316,-0.054,-0.049,1.052,0.910,-2.380,-0.840
196.260071,-0.055,-0.050,1.051,0.700,-2.310,-0.840
196.26741,-0.057,-0.049,1.053,1.190,-2.450,-0.770
196.275344,-0.058,-0.047,1.052,1.120,-2.380,-0.840
196.27925,-0.056,-0.048,1.050,0.700,-2.520,-0.770
196.288154,-0.057,-0.051,1.053,1.120,-2.380,-0.840
196.296912,-0.055,-0.050,1.051,0.770,-2.520,-0.770
196.308219,-0.057,-0.050,1.052,0.980,-2.310,-0.770
196.31715,-0.058,-0.052,1.051,0.910,-2.660,-0.840
196.326135,-0.058,-0.052,1.053,0.910,-2.450,-0.700
196.334995,-0.057,-0.051,1.054,0.910,-2.380,-0.840
196.338901,-0.056,-0.049,1.054,0.770,-2.590,-0.910
196.355221,-0.055,-0.049,1.052,1.050,-2.310,-0.840
196.359144,-0.054,-0.047,1.051,0.980,-2.590,-0.840
196.367206,-0.056,-0.051,1.051,0.910,-2.380,-0.770
196.376142,-0.058,-0.051,1.052,1.050,-2.660,-0.840
196.384875,-0.057,-0.049,1.053,0.980,-2.380,-0.840
196.396212,-0.056,-0.047,1.052,0.840,-2.520,-0.840
196.405166,-0.057,-0.049,1.051,0.770,-2.240,-0.770
196.41223,-0.056,-0.053,1.051,1.190,-2.520,-0.700
196.416186,-0.056,-0.050,1.051,0.910,-2.520,-0.770
196.425151,-0.055,-0.051,1.053,0.980,-2.450,-0.700
196.43652,-0.053,-0.050,1.049,1.050,-2.520,-0.770
196.443573,-0.056,-0.048,1.050,0.840,-2.380,-0.770
196.452516,-0.056,-0.049,1.051,0.700,-2.450,-0.910
196.460521,-0.054,-0.050,1.053,0.700,-2.450,-0.770
196.468595,-0.058,-0.049,1.054,0.980,-2.520,-0.840
196.475951,-0.053,-0.050,1.055,1.050,-2.450,-0.700
196.483951,-0.057,-0.050,1.049,0.840,-2.520,-0.840
196.492869,-0.058,-0.051,1.051,0.910,-2.380,-0.980
196.496864,-0.056,-0.048,1.050,0.910,-2.380,-0.840
196.504021,-0.058,-0.049,1.052,0.840,-2.450,-0.840
196.511533,-0.054,-0.049,1.051,0.980,-2.520,-0.700
196.520516,-0.056,-0.050,1.053,0.910,-2.450,-0.770
196.529468,-0.055,-0.048,1.052,0.840,-2.520,-0.840
196.53635,-0.056,-0.048,1.053,0.980,-2.310,-0.770
196.545243,-0.056,-0.048,1.053,0.840,-2.380,-0.770
196.555715,-0.054,-0.050,1.050,0.910,-2.520,-0.700
196.562712,-0.056,-0.048,1.051,0.910,-2.450,-0.840
196.566618,-0.053,-0.048,1.052,0.770,-2.380,-0.840
196.575509,-0.057,-0.052,1.052,0.910,-2.450,-0.840
196.584457,-0.057,-0.048,1.052,0.770,-2.520,-0.770
196.59587,-0.053,-0.051,1.050,1.120,-2.450,-0.840
196.604865,-0.054,-0.048,1.053,0.910,-2.380,-0.770
196.613786,-0.056,-0.048,1.051,0.910,-2.310,-0.840
196.621864,-0.058,-0.048,1.050,0.910,-2.240,-0.770
196.630869,-0.053,-0.049,1.054,0.770,-2.310,-0.770
196.642166,-0.056,-0.048,1.050,0.770,-2.450,-0.840
196.650972,-0.054,-0.049,1.052,0.700,-2.450,-0.770
196.654888,-0.058,-0.049,1.050,0.980,-2.450,-0.770
196.661983,-0.057,-0.049,1.055,0.840,-2.380,-0.630
196.6709,-0.058,-0.048,1.052,0.770,-2.380,-0.910
196.682116,-0.057,-0.047,1.051,0.630,-2.590,-0.700
196.690008,-0.057,-0.051,1.052,1.260,-2.240,-0.700
196.697126,-0.059,-0.052,1.052,1.470,-2.660,-0.770
196.705994,-0.058,-0.048,1.052,0.560,-2.590,-0.700
196.709901,-0.055,-0.055,1.053,1.260,-2.450,-0.840
196.722556,-0.058,-0.047,1.054,1.050,-2.520,-0.840
196.726509,-0.057,-0.052,1.050,0.980,-2.590,-0.910
196.735512,-0.057,-0.048,1.052,0.980,-2.730,-0.840
196.74446,-0.058,-0.050,1.052,1.120,-2.800,-0.700
196.753267,-0.058,-0.050,1.052,1.330,-2.870,-0.770
196.764501,-0.056,-0.053,1.052,1.260,-2.730,-0.840
196.771603,-0.054,-0.049,1.052,0.840,-2.590,-0.980
196.780538,-0.052,-0.050,1.048,1.680,-2.380,-0.840
196.7845,-0.055,-0.053,1.053,0.770,-2.590,-0.910
196.793467,-0.049,-0.052,1.050,1.400,-1.820,-0.700
196.80798,-0.066,-0.046,1.056,0.560,-2.380,-0.840
196.811911,-0.057,-0.054,1.048,0.910,-2.590,-0.770
196.820866,-0.053,-0.049,1.052,1.190,-2.310,-0.770
196.829786,-0.058,-0.046,1.054,0.770,-2.520,-0.770
196.837706,-0.050,-0.050,1.055,0.840,-1.820,-0.770
196.845075,-0.058,-0.047,1.052,0.770,-2.730,-0.840
196.853902,-0.057,-0.048,1.052,0.700,-2.100,-0.770
196.857927,-0.056,-0.052,1.049,1.190,-2.170,-0.770
196.861855,-0.060,-0.047,1.048,0.840,-2.660,-0.770
196.870831,-0.060,-0.051,1.052,0.840,-2.310,-0.770
196.878428,-0.053,-0.053,1.055,1.190,-2.380,-0.770
196.887223,-0.052,-0.045,1.049,0.770,-1.890,-0.700
196.896155,-0.056,-0.047,1.053,0.560,-2.730,-0.840
196.904889,-0.061,-0.049,1.053,1.050,-2.450,-0.770
196.911941,-0.057,-0.049,1.049,1.260,-2.520,-0.700
196.919471,-0.053,-0.049,1.051,1.050,-2.450,-0.630
196.928457,-0.054,-0.049,1.053,0.840,-2.240,-0.770
196.932383,-0.061,-0.051,1.050,0.910,-2.660,-0.630
196.941211,-0.059,-0.052,1.049,0.770,-2.450,-0.700
196.950188,-0.056,-0.051,1.049,0.910,-2.730,-0.770
196.961519,-0.052,-0.050,1.052,0.910,-2.240,-0.770
196.970473,-0.055,-0.050,1.050,0.770,-2.660,-0.770
196.979278,-0.055,-0.052,1.050,0.700,-2.170,-0.770
196.986287,-0.056,-0.049,1.054,1.190,-2.310,-0.770
196.99021,-0.059,-0.049,1.054,0.840,-2.660,-0.840
197.006513,-0.056,-0.052,1.050,1.260,-2.240,-0.770
197.010501,-0.054,-0.047,1.052,0.490,-2.520,-0.770
197.019503,-0.057,-0.051,1.050,1.050,-2.310,-0.700
197.028457,-0.056,-0.050,1.051,0.770,-2.450,-0.770
197.035366,-0.056,-0.048,1.052,0.560,-2.170,-0.770
197.046541,-0.056,-0.050,1.055,1.190,-2.520,-0.840
197.052558,-0.054,-0.049,1.053,0.630,-2.450,-0.840
197.059578,-0.055,-0.051,1.050,0.910,-2.450,-0.840
197.063511,-0.056,-0.048,1.052,1.260,-2.520,-0.770
197.071737,-0.056,-0.047,1.051,0.770,-2.310,-0.770
197.08422,-0.054,-0.051,1.049,0.980,-2.520,-0.770
197.088143,-0.056,-0.047,1.052,0.980,-2.450,-0.700
197.0952,-0.057,-0.049,1.052,0.910,-2.450,-0.770
197.10419,-0.056,-0.049,1.051,0.980,-2.520,-0.770
197.11128,-0.056,-0.048,1.053,0.840,-2.520,-0.910
197.118617,-0.057,-0.050,1.050,1.050,-2.380,-0.770
197.12768,-0.057,-0.049,1.052,0.840,-2.520,-0.770
197.134705,-0.057,-0.051,1.051,0.770,-2.660,-0.770
197.138604,-0.057,-0.053,1.050,0.980,-2.520,-0.840
197.147495,-0.055,-0.049,1.050,0.980,-2.450,-0.840
197.163858,-0.055,-0.051,1.052,1.120,-2.310,-0.770
197.16782,-0.058,-0.047,1.051,0.840,-2.520,-0.770
197.176548,-0.057,-0.049,1.054,1.050,-2.310,-0.770
197.185541,-0.056,-0.048,1.050,1.050,-2.450,-0.770
197.193593,-0.058,-0.050,1.053,0.770,-2.450,-0.980
197.201026,-0.057,-0.051,1.050,1.050,-2.380,-0.700
197.207971,-0.059,-0.047,1.048,0.840,-2.380,-0.840
197.216867,-0.057,-0.052,1.052,0.770,-2.520,-0.770
197.220857,-0.056,-0.050,1.050,0.840,-2.310,-0.770
197.229859,-0.058,-0.049,1.050,0.770,-2.450,-0.770
197.241215,-0.057,-0.051,1.050,0.980,-2.310,-0.700
197.250106,-0.057,-0.050,1.052,0.980,-2.450,-0.770
197.256987,-0.056,-0.051,1.052,0.700,-2.310,-0.840
197.265881,-0.057,-0.050,1.052,0.910,-2.520,-0.840
197.274862,-0.055,-0.048,1.055,0.840,-2.590,-0.770
197.282331,-0.057,-0.052,1.050,1.260,-2.170,-0.700
197.290375,-0.057,-0.048,1.055,0.210,-2.800,-0.980
197.294415,-0.054,-0.052,1.050,1.330,-2.450,-0.840
197.303207,-0.056,-0.048,1.052,1.120,-2.660,-0.910
197.311394,-0.059,-0.047,1.052,0.770,-2.730,-0.770
197.318866,-0.057,-0.051,1.054,1.400,-2.660,-0.700
197.327824,-0.057,-0.048,1.051,0.700,-2.940,-0.700
197.336832,-0.055,-0.052,1.052,1.400,-2.870,-0.840
197.345607,-0.055,-0.050,1.051,1.050,-2.730,-0.910
197.349525,-0.054,-0.049,1.049,1.050,-2.730,-0.910
197.364884,-0.054,-0.049,1.053,0.140,-2.520,-0.840
197.373878,-0.049,-0.054,1.048,2.310,-1.820,-0.910
197.377848,-0.061,-0.038,1.051,-0.700,-2.450,-0.770
197.386774,-0.059,-0.059,1.047,0.700,-2.380,-0.770
197.395785,-0.055,-0.052,1.052,1.330,-2.450,-0.840
197.407116,-0.056,-0.051,1.054,1.190,-2.170,-0.770
197.415894,-0.049,-0.051,1.052,0.910,-2.310,-0.700
197.424866,-0.056,-0.046,1.052,0.770,-2.520,-0.770
197.433087,-0.054,-0.048,1.053,1.190,-2.170,-0.770
197.437033,-0.059,-0.048,1.052,0.490,-2.520,-0.840
197.449611,-0.054,-0.054,1.050,1.050,-2.170,-0.840
197.453526,-0.057,-0.048,1.057,0.980,-2.520,-0.770
197.462496,-0.057,-0.051,1.051,0.910,-2.450,-0.700
197.469523,-0.058,-0.052,1.052,1.190,-2.520,-0.700
197.478517,-0.060,-0.047,1.051,0.490,-2.660,-0.770
197.489867,-0.056,-0.050,1.048,1.190,-2.590,-0.770
197.498791,-0.058,-0.047,1.050,0.490,-2.590,-0.770
197.505859,-0.055,-0.053,1.051,1.050,-2.380,-0.700
197.514863,-0.059,-0.050,1.051,1.190,-2.660,-0.910
197.518858,-0.056,-0.049,1.052,0.700,-2.450,-0.630
197.534965,-0.059,-0.049,1.049,1.190,-2.660,-0.770
197.538866,-0.056,-0.047,1.054,0.630,-2.520,-0.840
197.547821,-0.055,-0.050,1.052,0.980,-2.590,-0.840
197.556752,-0.056,-0.049,1.051,0.770,-2.450,-0.770
197.565606,-0.057,-0.051,1.050,0.980,-2.170,-0.770
197.576935,-0.056,-0.050,1.052,0.840,-2.310,-0.770
197.585875,-0.054,-0.052,1.052,0.910,-2.240,-0.770
197.589791,-0.055,-0.049,1.053,0.980,-2.450,-0.770
197.59869,-0.055,-0.050,1.051,0.840,-2.240,-0.840
197.607578,-0.057,-0.050,1.050,0.840,-2.310,-0.700
197.6152,-0.056,-0.048,1.052,1.050,-2.380,-0.770
197.622239,-0.055,-0.050,1.055,0.770,-2.450,-0.910
197.631204,-0.055,-0.049,1.051,1.050,-2.380,-0.840
197.640142,-0.056,-0.050,1.050,0.770,-2.450,-0.770
197.648977,-0.057,-0.048,1.053,0.840,-2.310,-0.770
197.660273,-0.057,-0.050,1.049,0.910,-2.520,-0.840
197.668324,-0.053,-0.050,1.051,0.910,-2.380,-0.840
197.672223,-0.058,-0.050,1.051,0.630,-2.660,-0.840
197.681108,-0.057,-0.047,1.049,1.680,-1.610,-0.700
197.689907,-0.060,-0.043,1.048,-0.280,-3.010,-0.770
197.700344,-0.056,-0.054,1.049,1.820,-2.100,-0.630
197.709176,-0.061,-0.048,1.047,0.210,-2.940,-0.840
197.718144,-0.051,-0.053,1.050,0.840,-2.170,-0.770
197.726982,-0.057,-0.048,1.056,1.470,-2.310,-0.840
197.730888,-0.057,-0.049,1.048,0.560,-2.520,-0.840
197.743305,-0.056,-0.047,1.055,1.120,-2.450,-0.910
197.747204,-0.059,-0.049,1.050,0.840,-2.520,-0.840
197.756126,-0.058,-0.050,1.050,1.190,-2.520,-0.770
197.764889,-0.058,-0.047,1.051,0.700,-2.520,-0.770
197.773863,-0.058,-0.052,1.052,0.840,-2.450,-0.770
197.785186,-0.057,-0.047,1.052,0.420,-2.520,-0.840
197.789235,-0.059,-0.054,1.048,0.700,-2.520,-0.910
197.798188,-0.058,-0.052,1.051,1.260,-2.590,-0.770
197.80217,-0.059,-0.044,1.050,0.770,-2.520,-0.840
197.810312,-0.058,-0.050,1.048,0.980,-2.450,-0.770
197.817939,-0.055,-0.051,1.051,1.120,-2.450,-0.700
197.821866,-0.056,-0.046,1.056,0.770,-2.450,-0.630
197.830785,-0.058,-0.052,1.051,0.700,-2.450,-0.770
197.839769,-0.057,-0.052,1.051,1.050,-2.660,-0.770
197.848624,-0.056,-0.048,1.053,0.700,-2.590,-0.770
197.859125,-0.055,-0.048,1.053,0.840,-2.590,-0.840
197.864209,-0.055,-0.047,1.053,0.770,-2.660,-0.770
197.872976,-0.054,-0.049,1.050,0.980,-2.450,-0.700
197.876918,-0.056,-0.049,1.048,1.050,-2.590,-0.910
197.885861,-0.054,-0.048,1.051,0.910,-2.590,-0.840
197.897218,-0.057,-0.050,1.054,0.910,-2.450,-0.700
197.906118,-0.058,-0.050,1.051,0.840,-2.590,-0.770
197.914912,-0.053,-0.050,1.050,0.910,-2.450,-0.700
197.923854,-0.057,-0.051,1.051,0.980,-2.520,-0.770
197.93286,-0.055,-0.049,1.051,0.910,-2.450,-0.770
197.944187,-0.056,-0.049,1.052,0.840,-2.380,-0.770
197.952996,-0.056,-0.048,1.051,0.980,-2.310,-0.840
197.956912,-0.056,-0.048,1.053,0.840,-2.590,-0.840
197.96389,-0.054,-0.048,1.052,0.840,-2.520,-0.770
197.972785,-0.055,-0.048,1.051,1.050,-2.520,-0.770
197.984203,-0.055,-0.051,1.054,0.840,-2.380,-0.770
197.991222,-0.058,-0.052,1.051,0.980,-2.660,-0.770
198.000184,-0.058,-0.049,1.050,0.980,-2.590,-0.630
198.008962,-0.057,-0.052,1.051,0.980,-2.310,-0.770
198.012879,-0.057,-0.049,1.050,0.980,-2.450,-0.770
198.028081,-0.056,-0.049,1.052,0.980,-2.380,-0.910
198.031977,-0.058,-0.048,1.050,0.910,-2.380,-0.840
198.040858,-0.058,-0.049,1.050,0.770,-2.450,-0.840
198.04978,-0.058,-0.050,1.051,0.910,-2.380,-0.700
198.057734,-0.058,-0.048,1.052,0.910,-2.380,-0.700
198.065036,-0.056,-0.050,1.050,0.770,-2.380,-0.840
198.073923,-0.058,-0.046,1.049,0.770,-2.450,-0.770
198.080933,-0.056,-0.050,1.052,0.840,-2.450,-0.840
198.084864,-0.055,-0.049,1.051,0.840,-2.450,-0.840
198.093781,-0.054,-0.049,1.052,0.910,-2.310,-0.700
198.104441,-0.054,-0.049,1.052,0.700,-2.380,-0.770
198.111263,-0.056,-0.052,1.050,0.910,-2.380,-0.700
198.120186,-0.057,-0.052,1.050,0.840,-2.450,-0.700
198.129144,-0.057,-0.048,1.054,0.770,-2.450,-0.560
198.137223,-0.055,-0.051,1.054,1.750,-2.100,-0.840
198.144647,-0.053,-0.051,1.049,1.190,-2.450,-0.840
198.149576,-0.056,-0.052,1.053,1.190,-2.520,-0.700
198.153499,-0.057,-0.049,1.055,0.490,-2.520,-0.910
198.16252,-0.056,-0.055,1.053,1.190,-2.520,-0.840
198.171453,-0.059,-0.052,1.054,0.840,-2.590,-0.770
198.182778,-0.056,-0.051,1.052,1.190,-2.800,-0.630
198.19158,-0.056,-0.049,1.055,0.840,-2.800,-0.840
198.199719,-0.057,-0.052,1.050,1.260,-2.940,-0.840
198.208606,-0.056,-0.051,1.054,1.400,-2.940,-0.770
198.212506,-0.054,-0.051,1.053,0.840,-2.800,-0.840
198.225225,-0.053,-0.048,1.052,1.820,-2.730,-1.120
198.2342,-0.049,-0.052,1.050,0.560,-2.520,-0.840
198.23817,-0.060,-0.045,1.049,1.820,-1.680,-0.840
198.247104,-0.064,-0.052,1.049,-0.490,-2.940,-0.840
198.255914,-0.058,-0.057,1.046,1.890,-2.030,-0.700
198.267252,-0.059,-0.044,1.056,0.210,-2.870,-0.700
198.276188,-0.052,-0.049,1.054,1.190,-1.960,-0.770
198.285176,-0.055,-0.046,1.051,0.980,-2.660,-0.770
198.294184,-0.052,-0.049,1.051,0.840,-2.310,-0.700
198.298181,-0.056,-0.048,1.052,1.190,-2.240,-0.630
198.312593,-0.053,-0.052,1.049,0.770,-2.170,-0.700
198.316506,-0.058,-0.047,1.053,1.260,-2.240,-0.700
198.325535,-0.058,-0.052,1.051,0.490,-2.800,-0.840
198.333718,-0.050,-0.052,1.052,1.610,-1.820,-0.700
198.342504,-0.055,-0.045,1.050,-0.070,-2.730,-0.840
198.353844,-0.063,-0.055,1.056,1.470,-2.030,-0.770
